,timestamp,node,accx,accy,accz,gyrox,gyroy,gyroz,q0,q1,q2,q3,timestamp,node,accx,accy,accz,gyrox,gyroy,gyroz,q0,q1,q2,q3,timestamp,node,accx,accy,accz,gyrox,gyroy,gyroz,q0,q1,q2,q3,timestamp,node,accx,accy,accz,gyrox,gyroy,gyroz,q0,q1,q2,q3,timestamp,node,accx,accy,accz,gyrox,gyroy,gyroz,q0,q1,q2,q3,timestamp,node,accx,accy,accz,gyrox,gyroy,gyroz,q0,q1,q2,q3,timestamp,node,accx,accy,accz,gyrox,gyroy,gyroz,q0,q1,q2,q3,timestamp,node,accx,accy,accz,gyrox,gyroy,gyroz,q0,q1,q2,q3,timestamp,node,accx,accy,accz,gyrox,gyroy,gyroz,q0,q1,q2,q3
0,0.002,0.0,1.11e-16,7.06e-18,1.0,0.012842562,-0.043674402,-0.004526504,0.999997384235057,0.0006421264203438276,-0.002183569058511013,-0.00022632470130656157,0.002,1.0,1.17e-17,-1.38e-18,1.0,0.010569412,-0.036982571,0.042128433,0.9999959301797016,0.000528468449219625,-0.0018502342017618716,0.0021064136655239312,0.002,2.0,5.21e-17,2.35e-17,1.0,0.034252928,-0.057638407,0.086306154,0.9999850487027072,0.0017126207937145173,-0.0028892677472503723,0.004315255837840393,0.002,3.0,-3.66e-18,9.1e-18,1.0,0.013125635,0.001742081,-0.008001297,0.9999997008047938,0.000656281553643647,8.73665791202022e-05,-0.0004000649026126885,0.003,4.0,3.86e-17,1.04e-16,1.0,0.023742327,0.002337456,-0.020128512,0.999998781961967,0.0011871149040471414,0.00011806740047405723,-0.0010064257924340889,0.0,5.0,0.0,0.0,1.0,0.103237198,0.106859659,0.040242212,0.9999704362159826,0.005161707295888789,0.005332439065241903,0.0020121047250915612,0.071,6.0,-3.78e-17,1.81e-17,1.0,-0.027408852,-0.006707482,-0.026767986,0.9999981084344811,-0.0013704400077180314,-0.0003372076615649364,-0.0013383992819902962,0.0,7.0,-2.85e-17,2.7e-17,1.0,0.003551556,0.030577392,-0.036743819,0.9999971273900753,0.00017757728988825066,0.001529191451543923,-0.0018371857304006268,0.0,8.0,-2.78e-17,1.4e-17,1.0,0.007865748,0.014060809,-0.035130843,0.9999981323282489,0.0003932866654682337,0.000703729961556141,-0.0017565391410484597
1,0.061,0.0,0.004532677,0.000485033,0.97999603,0.015939812,-0.07214737,-0.016560474,0.9999816265655476,0.0014005717196181634,-0.005802782988437737,-0.001054817410350068,0.062,1.0,0.003045865,0.002591889,0.979706591,0.030941646,-0.047989958,0.062087785,0.9999751775293703,0.0021545744910703296,-0.004223230643542137,0.005212145124443593,0.062,2.0,0.003084276,0.002908592,0.979640764,0.033885108,-0.034300138,0.080428931,0.9999494941828219,0.0033804213481685367,-0.004478293594373094,0.008338268495931953,0.062,3.0,0.00183593,0.000965157,0.979575264,0.027948772,-0.033294984,-0.057899478,0.9999910922093233,0.002036382953838797,-0.0016744980851676632,-0.003296164837027693,0.062,4.0,0.001814457,0.003106632,0.979766838,0.025322678,-0.030089709,-0.015165474,0.9999942256867084,0.002491368704995915,-0.001490356509213204,-0.001766497294608086,0.071,5.0,-0.004077457,0.004166365,0.98021019,0.031521804,0.035804352,0.063571508,0.9999427544205541,0.0064469670001588665,0.006780383320396948,0.005191425658013828,0.133,6.0,0.000401212,-0.001349904,0.980325975,-0.024386905,-0.008966006,0.04137293,0.9999962578376581,-0.002522907492407856,-0.0007653046260337699,0.000730450062734764,0.071,7.0,-0.004523918,0.000405587,0.979657782,-0.010398946,0.108981032,-0.06837895,0.999961248445536,-0.0003342044318830774,0.007055742568057112,-0.005254180379074506,0.072,8.0,-3.69e-17,6.55e-18,0.980227525,-0.025414825,-0.013920422,0.031230937,0.9999995590112237,-0.0009169073338860335,-5.900165577816149e-05,-0.00019436332868115225
2,0.136,0.0,0.008582145,0.002075371,0.979726513,0.019325201,-0.042051059,-0.006339493,0.9999662087898946,0.002331811395553249,-0.007763340620754638,-0.0013691151838911098,0.136,1.0,0.006091729,0.005183779,0.979776005,0.02921808,-0.038849337,0.047847928,0.9999460286624023,0.0036660969909467285,-0.006053888177222126,0.007605914348764746,0.137,2.0,0.005520869,0.004398317,0.978722215,0.014542459,-0.034320693,0.007425174,0.999935924554849,0.004009135444327773,-0.006021967345691262,0.008706866653127782,0.137,3.0,0.005376843,0.003002192,0.980134213,0.032896772,-0.039570713,-0.032338087,0.99997428396821,0.0036259640109318017,-0.0037598730615401765,-0.004913974136922917,0.137,4.0,0.005871334,0.005234127,0.979891388,0.019964109,-0.057991624,-0.046456636,0.999975192357465,0.0035052745064843103,-0.004534491607299075,-0.004094643592311738,0.133,5.0,-0.006052739,0.008010678,0.979644932,0.066415739,0.065457561,-0.019413685,0.9998987405498762,0.009506335059936737,0.009712350445669975,0.004220010582918692,0.211,6.0,0.003073507,-0.002852457,0.97955062,-0.028833854,-0.036956546,-0.085610298,0.9999826118376259,-0.003853115566057551,-0.0027110945898899345,-0.0035467575275431595,0.133,7.0,-0.009252977,0.002026956,0.979742453,0.048192261,0.19726719,0.019022848,0.9998491467870987,0.0022729129639974597,0.016668539294981848,-0.004321728073420662,0.133,8.0,0.003961702,-0.003050187,0.980191819,-0.080745563,-0.090196313,0.114687454,0.999960826192115,-0.005019145624612932,-0.004735221087468364,0.005543639565730344
3,0.247,0.0,0.010212851,0.004922238,0.980212461,0.033005932,-0.019320376,0.002427356,0.9999553153793221,0.003996935282541492,-0.008476987481868743,-0.0012379160794861507,0.248,1.0,0.005404608,0.007534882,0.979762734,0.016534934,0.007688676,-0.006889121,0.9999492187528862,0.004511948797303309,-0.0053291159123027365,0.007266550566540197,0.248,2.0,0.008118658,0.008173087,0.978671185,0.039281292,-0.024071774,0.054898974,0.9998916970035511,0.005987128457888242,-0.007033641712004873,0.011457593135321386,0.248,3.0,0.007203858,0.00796274,0.979107093,0.040632249,-0.031960661,-0.008843155,0.9999550959958562,0.005693486244067298,-0.005359155876898574,-0.00535440515781448,0.248,4.0,0.007716071,0.006439092,0.979510592,0.011498825,-0.040341362,-0.009156159,0.9999603285677866,0.0040505354646831115,-0.0064937224318653945,-0.004556975096643782,0.211,5.0,-0.005383578,0.005293022,0.98005306,-0.113362956,-0.061944238,-0.098315518,0.9999774342774185,0.003121529846310201,0.005910831274434436,-0.0006701201495724207,0.282,6.0,0.004352849,-0.004675111,0.97975364,-0.017857069,0.005424272,0.010780234,0.9999820404434665,-0.004600508761144115,-0.002384417715238592,-0.003011421893244349,0.212,7.0,-0.018179395,0.003142941,0.979471098,0.015124868,0.061590329,-0.017198583,0.9998014992302879,0.0029651159446974764,0.01900711333721911,-0.005186508159531722,0.212,8.0,0.005735171,-0.005665817,0.980307098,0.000381304,0.003830459,0.008373143,0.9999612512107887,-0.004788561248285365,-0.004362183411418186,0.005961301368870504
4,0.271,0.0,0.010985613,0.007988568,0.9802339,-0.003896269,-0.010439634,-0.035309543,0.9999502752420389,0.003823505544104408,-0.008705071152744355,-0.0030082528068691994,0.272,1.0,0.005576759,0.008863743,0.980214943,0.010200596,-0.002978527,0.035746001,0.9999327376506892,0.005016465536117386,-0.005231542947631835,0.009054623476978307,0.272,2.0,0.002762725,0.007366454,0.979485632,-0.037649833,0.142080552,0.070134794,0.9998803262771454,0.0037775012545891084,0.0006015976981965111,0.01499005298157421,0.272,3.0,0.009436083,0.007973987,0.97923765,-0.029457491,-0.0292301,-0.017865042,0.9999493429242314,0.004052831488650138,-0.006757098819370341,-0.006263206676120448,0.272,4.0,0.010490746,0.007771123,0.978784733,0.011550291,-0.031592752,-0.046765601,0.9999338804601624,0.0046254319835540535,-0.007953352613922014,-0.0068981351861013614,0.283,5.0,-0.00635512,0.005060851,0.980099995,0.067733997,0.090498259,-0.031877287,0.9999248571348661,0.0064477771395020315,0.010176275718065586,-0.002269287616567175,0.344,6.0,-0.004080367,-0.013614112,0.982198049,-0.286990309,-0.225638458,-0.60408556,0.9991719193435092,-0.01912936797343916,-0.013742194360157748,-0.03317672332392389,0.283,7.0,-0.009863764,0.000838098,0.980204572,-0.04348481,-0.121991523,0.039225076,0.9999283659994282,0.0005454504806225033,0.011519894472284615,-0.003202715228350725,0.283,8.0,0.002754598,-0.004621222,0.980465225,-0.002047712,0.045793742,-0.033167091,0.9999783672144371,-0.004653302425907785,-0.0017865101606839046,0.004291883167930662
5,0.333,0.0,0.01133705,0.007579766,0.979391657,-0.032487255,-0.026374546,-0.022720005,0.9999415944186782,0.0022079864063929895,-0.009725712736376374,-0.004164499877559139,0.335,1.0,0.008106169,0.00746905,0.978927731,-0.030984728,-0.032789062,0.069553969,0.9998930613149626,0.0033475682961320572,-0.006783838377957666,0.012515560616955019,0.335,2.0,-0.003566602,0.003778202,0.979738743,-0.032955728,0.044174924,0.030396114,0.9998575147603991,0.0019100551736345806,0.002907142502971289,0.01651818358232669,0.335,3.0,0.01298814,0.005016782,0.980036295,-0.062490797,-0.041573102,-0.06962478,0.9999132019164634,0.000785515356606967,-0.008801635110022491,-0.009772554332438513,0.335,4.0,0.011270973,0.004353751,0.979629017,-0.087306168,-0.010446796,-0.049460224,0.9999219113494378,3.216285952994953e-05,-0.008226766040010422,-0.009406938362739736,0.407,5.0,-0.01154741,0.005258823,0.980130605,-0.038109562,0.06476471,-0.029693321,0.9999000044272651,0.004159525878337585,0.012995436324185237,-0.0037145828253619707,0.406,6.0,0.006109109,-0.00562061,0.97990055,-0.020363256,-0.046170968,-0.039459863,0.9990980345407006,-0.018580858259404053,-0.014979843135271538,-0.035120839723673976,0.407,7.0,-0.011533316,-0.000933457,0.979932197,0.016467889,0.10275806,-0.060586209,0.999850224577521,0.001250000449635638,0.016094678964594114,-0.006239168228486262,0.407,8.0,0.002350615,-0.008405858,0.978879878,-0.096903249,-0.073260046,0.076832215,0.9999077217603204,-0.009452543201296619,-0.0053768671320386765,0.008141663893675525
6,0.408,0.0,0.013029641,0.005846196,0.979752035,-0.042256849,-0.023987831,-0.020080435,0.999930216706999,0.00017480195972153183,-0.010609594930460164,-0.005193039185331867,0.408,1.0,0.009922522,0.00375435,0.980306813,-0.087285618,-0.027948404,-0.02435832,0.9999034272566621,-0.00112753503762658,-0.008062285559765582,0.01126340875014483,0.409,2.0,0.000812198,0.000496575,0.97949992,-0.057923153,-0.081583243,-0.019190664,0.9998771588880616,-0.0010861618996134597,-0.0015521934432115314,0.015558858627175596,0.409,3.0,0.016148359,0.001015792,0.979964897,-0.075023839,-0.037321527,-0.024145952,0.9998788664794545,-0.0030076190734821613,-0.010578518573264237,-0.011013697837922524,0.409,4.0,0.01206634,-1.45e-05,0.980163968,-0.061469979,-0.018013919,0.017381148,0.9999191290710375,-0.0030664554141346567,-0.00888855130231529,-0.008563049968161075,0.461,5.0,-0.019686523,0.009068937,0.979642892,0.057970864,0.101832586,0.171645957,0.999805085634585,0.007238262673088033,0.017715866116779586,0.004852461275270733,0.461,6.0,0.008743499,-0.007038858,0.980120914,-0.0016539,0.00367849,0.043446429,0.9992148024085147,-0.01720631688958104,-0.013691146043128358,-0.032958668462697766,0.461,7.0,-0.017931926,-0.001083643,0.979744493,-0.022850716,0.026125516,-0.057410749,0.9998189843596056,-0.00010493887564752768,0.01671341639624781,-0.009091161329821842,0.461,8.0,0.003520532,-0.011807005,0.979131861,-0.024984408,0.021101569,-0.004375486,0.9999070853672446,-0.010365219537426258,-0.003981318487863895,0.007907715183334482
7,0.467,0.0,0.013864288,0.004332089,0.979647903,-0.035162301,-0.026830657,-0.015740309,0.9999138628361944,-0.0013818705309853654,-0.011590713860559303,-0.006001057743314413,0.467,1.0,0.012647546,-0.000980774,0.979915852,-0.086101032,-0.040477454,0.009306941,0.9998676100130103,-0.005342981572312903,-0.009971408328223234,0.011695555170266696,0.467,2.0,0.0043788,-0.003281627,0.979567281,-0.06561724,-0.054075621,0.026673196,0.9998381997268911,-0.004381870471129212,-0.004371584319081433,0.016889725533727997,0.467,3.0,0.01838727,-0.001969504,0.980239271,-0.033582385,-0.053973104,0.034739936,0.9998603429199279,-0.004544610924329241,-0.013129112654279594,-0.009288033618702191,0.467,4.0,0.015636382,-0.003050629,0.979973059,-0.067034839,-0.051296113,-0.000767423,0.9998787824787484,-0.006295214790287787,-0.011332024200798168,-0.008624143265995336,0.491,5.0,-0.025850355,0.009034738,0.979720436,-0.019645443,0.107490495,0.032097927,0.99970490243044,0.005989310408197377,0.02262375984304543,0.006511659384769987,0.491,6.0,0.008190876,-0.010143072,0.980362702,-0.053432975,-0.019670337,-0.005802413,0.9991783434789797,-0.01871471246856523,-0.013622851822839802,-0.033268834786235206,0.491,7.0,-0.018337574,-0.003488284,0.979513943,-0.033262885,0.040442846,-0.022631495,0.9997838660427606,-0.0019272436435157003,0.018014263242265884,-0.010197708191947525,0.491,8.0,-0.001081909,-0.014514516,0.979829658,-0.086940436,0.047200477,-0.089644765,0.9998895242513997,-0.014416870021001471,-0.0012730011078105833,0.003387125519761636
8,0.528,0.0,0.017117697,0.001561453,0.978788305,-0.033005099,-0.043848455,-0.004093524,0.9998856403843848,-0.0028300498486229383,-0.01348927668150422,-0.0062238561658121885,0.528,1.0,0.017656969,-0.00377198,0.979576951,-0.024785599,-0.086259726,0.034046347,0.9997902069272544,-0.006196191998940887,-0.014193531986485264,0.013404961276281092,0.528,2.0,0.007462655,-0.004887011,0.978611989,-0.051334792,-0.046441284,-0.008563069,0.9998196340655243,-0.006712060611441769,-0.006687714279700908,0.016459710117205352,0.528,3.0,0.023383419,-0.005005336,0.979332509,-0.08832991,-0.064591895,-0.04561804,0.9997625978367107,-0.008772182048213263,-0.016214980952472285,-0.011613405254952898,0.528,4.0,0.017909082,-0.005931433,0.979241075,-0.053001055,-0.04629659,0.055079857,0.99985552096953,-0.008677206177140542,-0.013378151103368246,-0.005887983760573052,0.552,5.0,-0.038879376,0.015992652,0.97880827,0.14868343,0.251368245,0.137704373,0.9992097445930267,0.013695051122624823,0.034861176449501485,0.013305271949265073,0.552,6.0,0.009909334,-0.013399934,0.97969957,-0.06650091,-0.032629917,0.10978325,0.9992929146700666,-0.02099511022288613,-0.014147585159274847,-0.027797875298174447,0.553,7.0,-0.023145722,-0.005182527,0.979620037,-0.006028694,0.077064696,-0.111853284,0.999646942014234,-0.002349626681207707,0.021238141654922823,-0.01579278047384228,0.553,8.0,-0.0012081,-0.019590702,0.97936446,-0.073784763,-0.028192168,0.013994292,0.9998325056577689,-0.017660104028804875,-0.0024969450969342657,0.004104463543778966
9,0.605,0.0,0.020900908,0.0002748,0.979804101,-0.033085058,-0.078564948,0.030752036,0.9998334495207651,-0.00423885746318665,-0.017117519253935294,-0.0047006213850278415,0.605,1.0,0.021562106,-0.002202333,0.980111843,0.003359556,-0.056406425,0.078022842,0.999695757875164,-0.00552384949644999,-0.0166709216480423,0.017319328640193324,0.605,2.0,0.009083311,-0.0052005,0.979136583,0.018266388,-0.037836537,0.107936132,0.9997115062100713,-0.005390584950053026,-0.008334140279222465,0.02187208382603415,0.605,3.0,0.027854555,-0.007979386,0.979737441,-0.016533583,-0.050502929,-0.028455644,0.9997013384989819,-0.00915130676200175,-0.018537491097525467,-0.013032605714173398,0.605,4.0,0.021081441,-0.006783505,0.978782691,-0.023283578,-0.038256969,-0.045476821,0.9998102093499072,-0.009307141713253989,-0.01504175786289167,-0.00816504214431056,0.642,5.0,-0.053708189,0.026222445,0.978131798,0.08796819,0.203015292,0.106861728,0.9986840117482764,0.01807026628748315,0.04423182237712136,0.018634807320349795,0.642,6.0,0.011991101,-0.017922397,0.980161722,-0.06912608,-0.010316844,0.106567146,0.9993807089233696,-0.023370106552278815,-0.013613594600298913,-0.02251014868047173,0.642,7.0,-0.024936692,-0.007258893,0.97840302,-0.053190586,-0.039504208,-0.004619951,0.9996887783305677,-0.005160085696879401,0.01846015765795453,-0.01596692126809277,0.642,8.0,-0.001245287,-0.024562883,0.979889848,-0.038023997,0.039989053,-0.009591741,0.9998119692680443,-0.019055236474699297,-0.00020678068486154676,0.0035890546104519186
10,0.708,0.0,0.02661967,-0.001163076,0.97932632,-0.015119878,-0.065804966,0.041172759,0.9997846811389468,-0.0046873223459928835,-0.020040447418310126,-0.0026459093697958885,0.709,1.0,0.025884407,-0.002642436,0.979759672,-0.004169026,-0.05629775,0.092534216,0.9995620675076816,-0.0053201946153062845,-0.019119063310556402,0.021950629766620752,0.709,2.0,0.010056284,-0.006932856,0.978907966,-0.034336071,0.002195148,0.008243147,0.9996964985255233,-0.006916417167607856,-0.00794694334144791,0.022269263591327172,0.709,3.0,0.031008088,-0.008983833,0.979522225,-0.031854019,-0.029661501,-0.070430856,0.999614741743117,-0.01026136497670283,-0.019757583439735448,-0.016574389137400742,0.709,4.0,0.022895898,-0.003676872,0.979020561,0.064711688,-0.033568387,0.004225906,0.9998198419646158,-0.005355650664544143,-0.01640834093280409,-0.007897275963440926,0.717,5.0,-0.057594357,0.02529376,0.978319537,-0.004390927,0.010602798,-0.060754648,0.9987908556726395,0.017135478263442732,0.043349007140437115,0.015622598674293072,0.717,6.0,0.010522545,-0.022865225,0.979520014,-0.069724027,0.032788487,0.094130606,0.9994493453119982,-0.025723085732004304,-0.010924722824444752,-0.017887969338384418,0.717,7.0,-0.025178592,-0.012369525,0.980083177,-0.072139439,-0.017750174,0.033475953,0.9997135671443371,-0.0088434526071464,0.01709315633821469,-0.014226771240428805,0.717,8.0,-0.002352606,-0.027633477,0.979302229,-0.048896734,0.009036921,0.059473424,0.9997577419921413,-0.021007004794696464,0.0004343104292283423,0.006555490125216966
11,0.739,0.0,0.029061727,-0.00112496,0.979139495,0.004366062,-0.01070497,0.054886439,0.999790609007607,-0.004118182589929885,-0.02004417414255982,9.89711935566494e-05,0.739,1.0,0.027332995,-0.004345567,0.979790296,-0.030775326,0.017137855,0.026581232,0.9995503204594699,-0.006561555510093049,-0.01777466554599532,0.023241431181983806,0.739,2.0,0.008270693,-0.010211051,0.978652814,-0.004697855,0.013612171,0.076878086,0.9996108443323796,-0.007017358628137432,-0.006884183491157491,0.026106025906896577,0.739,3.0,0.031927167,-0.009000678,0.979128512,0.033830936,-0.005660957,-0.028505133,0.99961185116511,-0.008007366822739444,-0.01972597252110007,-0.017969838477987582,0.739,4.0,0.022835338,0.000126461,0.98025789,0.041035914,0.029327951,-0.140613429,0.9997802510075496,-0.0026445125686858488,-0.014500317953795715,-0.014906274779234317,0.783,5.0,-0.057435266,0.024507366,0.977722649,-0.08343833,-0.059728328,-0.025713423,0.9990594937759948,0.01244990559799266,0.03893263193592321,0.014469896931076111,0.783,6.0,0.008137955,-0.027251,0.97980057,-0.043578877,0.041714717,0.107516379,0.9995313240676529,-0.02674727588066323,-0.0079549029171146,-0.012587094982866557,0.783,7.0,-0.019712696,-0.017333431,0.97886514,-0.081523324,-0.032908162,0.137681249,0.9997804726819106,-0.012810502848548573,0.014903526545145828,-0.007265146744624679,0.783,8.0,-0.003370922,-0.030600066,0.979705197,-0.055166326,-0.004166961,0.0274181,0.9996987352687841,-0.023224046913507452,0.0003580442373128675,0.007934365209445685
12,0.796,0.0,0.028686994,-0.002010803,0.979413096,-0.008015637,0.030098074,0.054574979,0.9998251725000313,-0.004264433282175432,-0.01798746710135526,0.002808927080263348,0.797,1.0,0.02428713,-0.006937456,0.979720882,-0.025809582,0.042350646,0.054036878,0.9995208346645466,-0.00761757206120858,-0.01513709316777692,0.02590254963918811,0.797,2.0,0.005347613,-0.010834599,0.979685671,-0.019208802,0.047320932,0.036052456,0.999571398152981,-0.00789541566782602,-0.004128817843022854,0.027886112478184087,0.797,3.0,0.031008088,-0.008983833,0.979522225,0.015091526,0.028392835,0.02293221,0.9996739365903389,-0.0069361860401815,-0.01791340810392673,-0.016823187429659377,0.797,4.0,0.020225514,0.001388035,0.97948507,0.024039625,0.043334905,-0.089710478,0.9997403305203048,-0.001025626039482907,-0.011939675749457852,-0.01938204750218176,0.838,5.0,-0.048101124,0.011525717,0.978884794,-0.206694898,-0.149744997,-0.069797165,0.9994891724975372,0.0013993163562965754,0.029869850573149587,0.011279539026964545,0.838,6.0,0.005352153,-0.03028687,0.97995156,-0.036655619,0.000493981,0.084977476,0.9995610297097909,-0.027486078810977765,-0.007248468975842229,-0.008350033209856104,0.838,7.0,-0.017874765,-0.023104072,0.979432333,-0.082874897,-0.06795319,0.069531089,0.9997909834888983,-0.016817299084131338,0.011025260632192446,-0.0036893649600964053,0.838,8.0,-0.00289356,-0.034890735,0.979103296,-0.067445048,-0.034187386,0.007535045,0.999625160929892,-0.026040926702055933,-0.0012699179663486079,0.008354345021881157
13,0.914,0.0,0.027079584,-0.003563026,0.979495789,-0.005571319,0.037174345,0.053403619,0.9998523428704937,-0.004347722001755767,-0.015701776098613018,0.005462965964491519,0.915,1.0,0.020554144,-0.007178242,0.979638199,0.018979428,0.052414202,0.096569379,0.9994355341265958,-0.006387316339512203,-0.01200653988122173,0.03071902204084277,0.916,2.0,0.001129589,-0.009781903,0.98000206,0.031053193,0.049016689,0.066105136,0.9994942291328873,-0.006133191142810438,-0.0012742973238732307,0.031177653259850224,0.916,3.0,0.028775863,-0.008995079,0.979391667,0.013299455,0.047488668,0.078663935,0.9997828009277462,-0.006091874223449083,-0.015195749028739174,-0.012896869735393075,0.916,4.0,0.015238699,-0.000866526,0.979705584,-0.021933705,0.047169493,0.128713112,0.9998720837848715,-0.0021099919966964765,-0.009129005028855624,-0.012962456119739627,0.917,5.0,-0.040248592,0.000243159,0.979088858,-0.211284775,-0.163739449,-0.096443725,0.9997214213199127,-0.009364482171159332,0.020584605200213935,0.006757237343127299,0.917,6.0,0.005314352,-0.032598234,0.979141518,-0.034076447,-0.003062768,0.107287217,0.9995764096090203,-0.028146698588563328,-0.006768879244789087,-0.0029911511954449597,0.917,7.0,-0.0144887,-0.027407969,0.979327259,-0.066952604,-0.062447609,0.059795682,0.9997736284049428,-0.019856808666184705,0.007617260968306688,-0.0006135396895547293,0.918,8.0,-0.000138963,-0.039511957,0.979340996,-0.057774616,-0.037898908,0.0289036,0.9995456366003573,-0.028326254925546985,-0.0030300082690966133,0.009846963235852185
14,0.933,0.0,0.024154316,-0.002495836,0.978944503,0.014514099,0.048836414,0.054880738,0.9998773366881418,-0.0033644721519701143,-0.012910838229736425,0.008203789415401811,0.934,1.0,0.018516242,-0.004794222,0.98004243,0.049472952,0.044711703,0.112226861,0.9992885397528026,-0.0036281279300215603,-0.009426892804359047,0.036337098102212445,0.934,2.0,-0.00146404,-0.007736057,0.979706083,0.046856057,0.063736439,0.078314883,0.9993755418421303,-0.0036797496649005074,0.002187776107358585,0.03507419914775123,0.934,3.0,0.025624558,-0.008989481,0.979654822,-0.009399133,0.062725008,0.080437195,0.999869839759746,-0.006448668528388289,-0.011809544554731296,-0.008902408125933344,0.934,4.0,0.01208148,-0.000965288,0.979854635,0.004096439,0.059315287,0.184621687,0.9999742830340511,-0.0017971322660354512,-0.005851786751796829,-0.003736332154016457,0.988,5.0,-0.027012483,-0.016332421,0.979324552,-0.267087696,-0.212873344,-0.167054535,0.9997008421218464,-0.022719479514620496,0.008974773036252407,-0.0012267682762981066,0.987,6.0,0.006116776,-0.035298043,0.97940065,-0.02332042,-0.038043649,0.062455488,0.9995650075440852,-0.028326467170446522,-0.008208212176757327,0.00017945443984206027,0.988,7.0,-0.008574827,-0.032978036,0.979305837,-0.077795747,-0.071139125,0.051430166,0.9997162676514243,-0.02342479790502234,0.0038007842016468023,0.002053551963587505,0.988,8.0,0.002426847,-0.042737624,0.979449134,-0.032351139,-0.03190445,0.040261454,0.9994906097268769,-0.029279596561034283,-0.004423731241446547,0.01190197021178698
15,1.097,0.0,0.01636823,-0.000210232,0.979335508,0.025852723,0.089101144,0.001110422,0.9999324043386306,-0.0017765872966587159,-0.007989769567657483,0.008257970295332382,1.097,1.0,0.012647546,-0.000980774,0.979915852,0.00933478,0.062633652,-0.052910189,0.9994103395407666,-0.0029142092455397336,-0.005991691011520137,0.03368353072801674,1.097,2.0,-0.007463496,-0.004140941,0.979420313,0.025084874,0.051327002,-0.053145105,0.9994597094316228,-0.0023786207634712312,0.004944979369843926,0.03240645869501182,1.097,3.0,0.018393956,-0.004966047,0.980383089,0.068950924,0.023288322,0.165281636,0.999941994549737,-0.002704991605408442,-0.010407715415181025,-0.000608289524064062,1.098,4.0,0.0075815,0.001943821,0.980390607,0.046066927,0.02811275,0.254375775,0.9999502214662727,0.0007144697082325863,-0.004265251863748366,0.00899176006836311,1.109,5.0,-0.011021437,-0.036161669,0.977879779,-0.2561387,-0.186516384,-0.207925901,0.9993161338443538,-0.03519384149424039,-0.0010283047411426603,-0.011296050133169451,1.109,6.0,0.009228084,-0.035839136,0.979564903,-0.000279718,-0.073434932,0.09384856,0.9995478806717198,-0.027373676170182597,-0.011400102628176539,0.004975314831265092,1.11,7.0,-0.001723608,-0.038270216,0.979074267,-0.0410256,-0.038449709,0.05684919,0.9996720807155749,-0.02507149906217432,0.0016499424131842704,0.00494253604962835,1.11,8.0,0.007091885,-0.046501854,0.9784157,-0.079490288,-0.109784964,0.118745649,0.9992578820273572,-0.032653059220419486,-0.009710148349994696,0.01797709511486748
16,1.127,0.0,0.011882145,0.001894024,0.980004198,0.024957451,0.028716252,-0.016372137,0.9999520899532713,-0.0002548049093383543,-0.006350304496837077,0.007444897940215443,1.127,1.0,0.00891456,-0.001221559,0.979833169,-0.012596533,0.060350944,-0.071431427,0.9995370879770039,-0.003379481620031538,-0.0028663034364824645,0.030099388150605613,1.127,2.0,-0.011195034,-0.003954423,0.979622393,0.008113863,0.035810587,-0.094826828,0.999592116047039,-0.002036901384698302,0.006808237088903434,0.027660449690727028,1.127,3.0,0.017997661,-0.004012137,0.979417167,0.001952315,0.014203446,0.048279798,0.9999492917760078,-0.0025669221489144104,-0.009569183362143735,0.0018043051636487798,1.127,4.0,0.004986816,0.002254561,0.979308454,-0.058876861,0.026640154,0.151077076,0.9998570159735183,-0.0022272301307195335,-0.002769990676214135,0.016532217217609654,1.166,5.0,0.00059037,-0.050037803,0.979152118,-0.171751781,-0.104876575,-0.031875862,0.9989812808831017,-0.042862736845030364,-0.006136564924575324,-0.012709398342864994,1.166,6.0,0.016366735,-0.037478376,0.978971144,-0.021146598,-0.130084055,0.156921023,0.9993818185751154,-0.02765772402178487,-0.017392919107613446,0.012981423972191302,1.166,7.0,-0.003514578,-0.040346583,0.97785725,0.020638699,0.23248265,-0.02575087,0.9996267770147192,-0.023653227112914614,0.01324865187733171,0.0033622530754010803,1.166,8.0,0.01580763,-0.053212267,0.978337147,-0.139569818,-0.188785328,0.030247192,0.998865925460943,-0.03890281186884864,-0.01908934733133918,0.019723868794294927
17,1.189,0.0,0.006054907,0.005323048,0.979470267,0.014115549,0.069343482,-0.047039359,0.9999835022255408,0.0007395855126090791,-0.002548148948534137,0.005094627262885746,1.189,1.0,0.005279381,-0.00313256,0.98019861,-0.03562359,0.07000186,-0.115340755,0.9996913563117744,-0.005062485536755365,0.0005626160738381296,0.0243155674181889,1.19,2.0,-0.014440085,-0.004634084,0.979710166,-0.01389438,0.074519747,-0.061926205,0.9996383846102207,-0.002908570461097721,0.010553818909352265,0.024561293495450744,1.19,3.0,0.015233737,-0.000965058,0.980454487,0.042397209,0.009178803,0.076413937,0.9999442124940795,-0.0002756733782121099,-0.0089252595868256,0.005642308489611826,1.192,4.0,0.003937446,-0.00331861,0.980224201,-0.056963322,0.031497063,0.073048288,0.999783085184171,-0.005054118662937411,-0.00115069196228955,0.020172118683207913,1.197,5.0,-0.000986535,-0.060906206,0.977972628,-0.194854677,0.060407478,-0.042045801,0.9985649620949983,-0.051361483594092476,-0.002401575719566009,-0.014974876069320629,1.197,6.0,0.024898236,-0.036401847,0.979204771,0.022641041,-0.186886595,-0.047819205,0.9992705124586418,-0.025437635678326413,-0.026330969041419863,0.010865067467796396,1.198,7.0,-0.015131616,-0.039759447,0.979160978,-0.052785854,-0.118553021,-0.065817928,0.999640172109525,-0.025980644498665738,0.006668987921487368,0.00023878102134567032,1.198,8.0,0.028396072,-0.063076872,0.977232302,-0.034276395,-0.071804058,0.057838003,0.9986986255772091,-0.03990038774582325,-0.02219784615442527,0.02272157463801483
18,1.314,0.0,0.000687582,0.006352122,0.979105805,-0.054526789,0.013610727,-0.038268947,0.9999920749910589,-0.0017347319045468593,-0.001663464994922754,0.0031738847658005606,1.315,1.0,0.002897175,-0.003406262,0.979698425,-0.034536391,-0.020282257,0.009838217,0.9996712146613138,-0.006427752838463473,-0.0006982898912244185,0.02481247593951369,1.315,2.0,-0.016547648,-0.007968391,0.978509928,-0.037894042,-0.008896803,-0.008353588,0.9996474333366541,-0.004932966720036848,0.009840321620605604,0.024162841993070158,1.315,3.0,0.014846357,-0.004006538,0.979680322,-0.095816169,0.030333013,-0.000660277,0.9999440743622162,-0.005247077809509049,-0.00730202571515056,0.005567471850590412,1.315,4.0,0.000308532,-0.009531874,0.979748462,-0.144349839,0.079457043,-0.106860525,0.9998108801412254,-0.012324589386464488,0.0026995503298785158,0.01479935389466577,1.278,5.0,-0.017025475,-0.0672123,0.976979856,0.094429776,0.518610001,-0.336450101,0.9981806660962328,-0.044479296976968265,0.023821930814471325,-0.033007053555058084,1.278,6.0,0.036215642,-0.034685117,0.977481647,0.012974085,-0.12901279,-0.450805134,0.9991326858333207,-0.023328023662077573,-0.0325247005647796,-0.011481431299614599,1.278,7.0,-7.1e-06,-0.044345668,0.978696818,-0.082120957,-0.170578856,0.108276329,0.9995384214753081,-0.029710856167813184,-0.002363317892000777,0.00588419484434605,1.278,8.0,0.025604287,-0.063427831,0.97751999,0.00051341,0.073511012,0.033993081,0.9987801825743934,-0.03921331481303606,-0.01762074920827748,0.02428933995345224
19,1.369,0.0,0.001062315,0.007237965,0.978832204,-0.074994943,-0.052676605,0.069290214,0.9999570573155541,-0.0049383670711255784,-0.004178708917333916,0.006635845633583418,1.37,1.0,0.007906598,-0.006197469,0.979359524,-0.086470129,-0.121611108,0.108150721,0.9994639862189328,-0.010265166929492668,-0.007168798068146335,0.03024855258568049,1.37,2.0,-0.013632048,-0.009958124,0.97975099,-0.076179809,-0.112086578,0.143412516,0.9994628630247222,-0.008565181659433136,0.0039070475578565035,0.031390413774699075,1.37,3.0,0.013156974,-0.01207035,0.978621582,-0.219184872,-0.026591198,0.024094682,0.9998076733959795,-0.016293427753522677,-0.00861760537841408,0.006699052776384095,1.37,4.0,-0.003852638,-0.018056307,0.979885262,-0.146714426,0.02812382,0.17437827,0.9995279587841718,-0.01934500521103905,0.0040779910069159535,0.023515959931063764,1.347,5.0,-0.064377945,-0.04131413,0.977148209,0.345435965,0.659292106,-0.811045501,0.995301052025358,-0.02465912510772528,0.05598785559843987,-0.07505400330179238,1.347,6.0,0.042612353,-0.043798385,0.97849675,-0.201377352,-0.118918067,-1.237727156,0.996051904724844,-0.031296823855040824,-0.03910387099241022,-0.07329392324064725,1.347,7.0,0.004721963,-0.045967038,0.978612147,0.009346535,-0.001542635,-0.147219023,0.9995863190410904,-0.028599172773652558,-0.0026666078053877613,-0.0014721770811680576,1.348,8.0,0.024270992,-0.070075051,0.977328198,-0.142200532,-0.034578326,0.154012702,0.9982540699743566,-0.046027521466448534,-0.01872802853312468,0.031930236368530866
20,1.427,0.0,0.006054907,0.005323048,0.979470267,-0.150201717,-0.191553331,0.198566935,0.9997025103729621,-0.011656216711368718,-0.013576633742153647,0.016574027338170292,1.427,1.0,0.016672469,-0.01341718,0.979547349,-0.142047746,-0.180440304,0.217659739,0.9988776839888245,-0.01679590027237439,-0.016366089142141133,0.04115120033916096,1.428,2.0,-0.000334452,-0.01751796,0.979902041,-0.14625687,-0.206757788,0.209842205,0.9989739726043577,-0.015541197328447063,-0.006888760330135412,0.04197640081974703,1.428,3.0,0.018571705,-0.026048571,0.979160132,-0.238901172,-0.071199402,0.140452443,0.9994416552678189,-0.027960942012369913,-0.012153504785133575,0.013669519331009109,1.428,4.0,-0.005298004,-0.034498148,0.978629557,-0.320896991,0.020818536,-0.016505213,0.9991104052134012,-0.03523415399155634,0.004532419731156906,0.022724650892656035,1.407,5.0,-0.050264389,-0.06075188,0.981388659,0.186976086,0.825535381,4.510588008,0.9847367256475562,8.633404430223699e-05,0.09173641375378638,0.14791214993690135,1.407,6.0,0.09712487,-0.050787029,0.976142119,-2.278239399,-2.322860341,0.132379489,0.9759811178553343,-0.15056243351857018,-0.14355343081982114,-0.06468557569255481,1.407,7.0,0.046785742,-0.038603162,0.966594998,0.099634182,1.592102825,2.447561912,0.9898556086632999,-0.022729370276935064,0.07680913111522177,0.11734396917586537,1.408,8.0,0.010726832,-0.069648776,0.978500375,0.02630006,0.050608189,-0.158672718,0.9986458939376942,-0.04357473101608469,-0.015292933660032407,0.02395302733119879
21,1.462,0.0,0.019730116,-0.004972017,0.979487622,-0.144304505,-0.265877364,0.448263724,0.9987325412795578,-0.018014662041239797,-0.026218585871247917,0.03900472658189359,1.462,1.0,0.032560009,-0.022813042,0.978996124,-0.107504652,-0.307765873,0.438952534,0.9972765424339128,-0.021292974498269373,-0.03153194860099342,0.06318103643895522,1.462,2.0,0.010855581,-0.028412104,0.978852853,-0.174786672,-0.221482589,0.534382358,0.9971965096162705,-0.023840745996559776,-0.0175844116431562,0.0687133793858142,1.462,3.0,0.02583351,-0.044055873,0.979103013,-0.326101279,-0.170870638,0.343231192,0.9983601072446701,-0.04375658271318653,-0.020284370289870735,0.030838321186770636,1.462,4.0,-0.006465118,-0.058570196,0.978212009,-0.343429884,-0.013647854,0.232777095,0.9980575507854119,-0.051770370713048505,0.00387173520774261,0.03443782372536706,1.467,5.0,-0.107319576,-0.030414305,0.973122027,0.164081753,0.694664372,-1.998995941,0.9913878000636802,-0.008380124625841135,0.12206421821923014,0.046694004183409576,1.467,6.0,0.053838934,-0.059105278,0.977207212,-0.472494357,-0.277082887,-2.089162851,0.9620009975663167,-0.14713881667970702,-0.15870013379732026,-0.16648878893252755,1.467,7.0,0.026808921,-0.041367208,0.978523396,0.129658634,-0.434784582,-0.12118043,0.9926212577164729,-0.013878169257070336,0.04663424218136637,0.11106611816215282,1.468,8.0,0.018661017,-0.077352716,0.976577352,-0.129272267,0.096367317,0.325160915,0.9979113421066066,-0.049951108894199375,-0.009343819284290858,0.03988148764042803
22,1.564,0.0,0.041082934,-0.015561536,0.97810226,-0.142199564,-0.326566164,0.56148832,0.9965907089129656,-0.02410398781621421,-0.041585345544245374,0.06705680961449065,1.565,1.0,0.056577181,-0.029409144,0.978179495,-0.085797715,-0.403595056,0.670995549,0.9937080412135679,-0.024512676640305646,-0.05083328627798515,0.09674417045797762,1.565,2.0,0.035347791,-0.036531493,0.978397661,-0.047717059,-0.447674345,0.422526653,0.9948392159082061,-0.024391387654461576,-0.03966228111468298,0.09014931034797297,1.565,3.0,0.039927393,-0.06413385,0.977303767,-0.282122462,-0.295578752,0.680860265,0.9956940490074437,-0.05684146874530923,-0.03359350169327979,0.06506830907609333,1.565,4.0,-0.002435147,-0.080646579,0.975147271,-0.373531936,-0.209541473,1.030925076,0.9938963263234729,-0.06864865292522948,-0.0040538953298451755,0.0862613523248422,1.534,5.0,-0.215870075,-0.040801263,0.954523634,0.236209553,2.160557222,-3.201991067,0.9684661026196597,-0.022657045916676437,0.22024218185426264,-0.11425168567286192,1.534,6.0,0.05775277,-0.064741849,0.975824836,0.390468592,-0.44944984,-0.403870526,0.9611867342920352,-0.11828087158392116,-0.17281858653065224,-0.17962024771140872,1.534,7.0,0.113300587,-0.042868482,0.972125131,-0.469765527,-2.953037417,-4.292718508,0.9868807483587025,-0.03059689900808583,-0.12034803323105338,-0.1031822135228436,1.534,8.0,0.014535937,-0.084350896,0.976673248,-0.046769777,-0.069698858,0.007115373,0.997776895184502,-0.05142639140374909,-0.012874705744517745,0.04038360626734098
23,1.638,0.0,0.055967524,-0.026484865,0.977741882,-0.120672309,-0.27239166,0.479314926,0.99399366519243,-0.02892764581645594,-0.053606573274547605,0.09091820591387466,1.639,1.0,0.073447737,-0.036826353,0.975862311,-0.117147082,-0.203972626,0.506590918,0.9903284913314144,-0.029668224646691627,-0.05956914518694078,0.12174067785771281,1.64,2.0,0.061142845,-0.039199868,0.97717497,-0.098344908,-0.333787413,0.116665574,0.9934281928270815,-0.027273911590100917,-0.055844881845002914,0.09611403963319894,1.64,3.0,0.056231213,-0.074212103,0.975155687,-0.047654286,-0.368878934,0.846552238,0.9912848187162647,-0.057291305048015655,-0.04932639630622662,0.10788429531678131,1.64,4.0,0.014867668,-0.097187786,0.975114602,-0.113183247,-0.47749735,1.317762124,0.9854992911705774,-0.0703076381301978,-0.024197522971815412,0.15252036914743916,1.605,5.0,-0.31738419,-0.056942187,0.925277182,0.356613555,1.802342811,1.634905775,0.9541680660085532,0.02383298189313194,0.29574594065387233,-0.03911047647798582,1.604,6.0,0.086398096,-0.051879519,0.974821976,-0.314485205,-0.677971981,1.444366741,0.9673280236820914,-0.14353619503029386,-0.17886856983627525,-0.1080735399635363,1.605,7.0,0.283886746,-0.036303614,0.937494727,-0.504013342,-1.095330694,-1.999750129,0.9623868264703824,-0.04863088764580876,-0.17680169295793097,-0.20046893617280526,1.605,8.0,0.034986181,-0.075824467,0.976969097,0.13580466,-0.340693762,-0.871660471,0.9986002216377738,-0.04199259023572271,-0.0320783165177526,-0.002280640188721944
24,1.667,0.0,0.063042732,-0.036417235,0.977203868,-0.099547003,-0.205822793,0.372929441,0.991545301267737,-0.03259201299687206,-0.06166531479678327,0.10942150233705412,1.667,1.0,0.074256128,-0.045516963,0.976767748,-0.034828398,-0.067885947,0.613372117,0.9860454545492874,-0.0316686486492779,-0.06022746333952515,0.15193456129236638,1.668,2.0,0.064548671,-0.040749139,0.977164764,-0.068910994,0.032874115,0.401215172,0.9914406600434199,-0.03099157492164167,-0.05181530077640875,0.11575886360013385,1.668,3.0,0.075679652,-0.081299411,0.972600635,-0.073775491,-0.322662797,0.561947558,0.9869115363124124,-0.05854933648309884,-0.06334406343912942,0.13625389652366804,1.668,4.0,0.032838997,-0.119975326,0.971685403,-0.533733971,-0.192920525,-0.434617607,0.9861893558168131,-0.0933641992467753,-0.03997072641096297,0.13082821485752893,1.642,5.0,-0.373360439,-0.011780407,0.906144141,0.600191333,0.371658579,-1.192281155,0.9464633053593272,0.033234170469731976,0.3036011163145625,-0.10454216227932793,1.642,6.0,0.022589455,-0.040956232,0.977493889,0.435466326,1.694767048,-1.336369246,0.9761106704857333,-0.0886624001162983,-0.08680893169495423,-0.1783567973122706,1.642,7.0,0.307856723,-0.036319412,0.930184465,-0.077177691,-0.167077513,-0.301071527,0.9580417796560224,-0.05152667327941691,-0.18231654614265846,-0.21508516307939402,1.643,8.0,0.072853284,-0.070878506,0.975066478,-0.02004936,-0.415197168,-0.65496689,0.9970648906498005,-0.041389265544184435,-0.05460836079459186,-0.034153469260705345
25,1.727,0.0,0.050098271,-0.045549224,0.97742234,-0.008345394,-0.200053916,0.265821612,0.9895941984463659,-0.031503530274786404,-0.067828598716638,0.12292327353946152,1.727,1.0,0.071873922,-0.045790665,0.976267563,0.06011509,-0.02966161,0.601916557,0.9812132634758337,-0.028887673690464417,-0.05830215532931304,0.18162294065402204,1.727,2.0,0.054648582,-0.046379805,0.977697523,-0.044868236,0.165457542,0.405835865,0.9893459052650608,-0.03414404146387477,-0.04105421198119849,0.13543786710655653,1.727,3.0,0.104960469,-0.081366643,0.969838527,0.12299305,-0.609580779,0.581835266,0.9806948348429739,-0.04772085983246641,-0.09050746712051903,0.166639607670536,1.728,4.0,0.059885985,-0.153335249,0.965637598,-0.296137878,-0.724692107,1.173216608,0.9736790148784368,-0.10325742939502053,-0.07110705630822366,0.1903440721516391,1.71,5.0,-0.430359324,0.053264206,0.878972,0.882349615,1.100936945,0.933878816,0.9338642435120379,0.09597028426067279,0.3372454104620691,-0.07037622006676308,1.709,6.0,-0.076927045,-0.04861165,0.974353702,-1.499110331,0.381744778,-2.089722313,0.9469973337513902,-0.1398126064342452,-0.0570019803240029,-0.283547631252604,1.71,7.0,0.33733399,-0.039808906,0.91905279,-0.24716116,-0.68733032,-0.376852761,0.9467260063064125,-0.06779097871925224,-0.21175000688112944,-0.23297250218263546,1.71,8.0,0.098483116,-0.065434795,0.973201605,0.033831808,-0.364305371,-0.563841253,0.9946906197239292,-0.03814416063636082,-0.07328510782018247,-0.061358675135282044
26,1.808,0.0,0.047234889,-0.049062471,0.976745483,0.029651411,-0.225330905,0.223903345,0.9877045518225948,-0.028455313227419253,-0.07438955620445384,0.13452214459248435,1.809,1.0,0.057996864,-0.05111648,0.977298557,-0.019955304,0.016072006,0.526952379,0.9762902789504992,-0.0306787039038027,-0.054441292359861504,0.2072492558243024,1.809,2.0,0.041346826,-0.044640585,0.97789348,0.050401528,0.123622648,0.174014192,0.9885523743306943,-0.03140449207811555,-0.03262410865938974,0.14392230062308947,1.809,3.0,0.136847519,-0.072388061,0.967693508,0.341293033,-0.520607347,0.423118838,0.975198936070788,-0.026357794038384057,-0.11090498074409269,0.18971659660131465,1.809,4.0,0.093853677,-0.175887875,0.959036466,-0.347363187,-0.622158027,0.756798353,0.9617315937044578,-0.11426961928247666,-0.09927240211509837,0.22838517017972035,1.753,5.0,-0.436735737,0.055185102,0.863014195,0.202483986,2.733367269,8.914211893,0.8531988586331437,0.2410580593682757,0.31102465485441966,0.34235417875847635,1.753,6.0,-0.060105661,-0.082310346,0.964791333,-4.097064689,-3.371354608,2.140328678,0.9144063805041145,-0.36533707482806543,-0.10428810732585206,-0.13969174535321963,1.754,7.0,0.403046756,-0.040887072,0.901426958,-0.874692314,-0.81378381,-0.699556052,0.9253252465592411,-0.11040163290765727,-0.2412408519508066,-0.2709013083789959,1.754,8.0,0.083491246,-0.060315823,0.973001651,0.368813755,-0.366060318,-1.275616107,0.9882826091852658,-0.015824650693847142,-0.09013479623633519,-0.12215884462377313
27,1.907,0.0,0.048927479,-0.050796041,0.977105861,0.069590052,-0.229641765,0.117290146,0.9864531460295788,-0.02330375553178473,-0.08051597069815422,0.14101171628270812,1.907,1.0,0.048835808,-0.054222858,0.976646275,0.021375103,0.033297178,0.202395102,0.9744104771915363,-0.02965833763578075,-0.04987338165841142,0.21715720285083517,1.907,2.0,0.03356262,-0.035295712,0.978932461,0.159160496,0.032892425,-0.019240897,0.9890397242615196,-0.02213293120468066,-0.028563882041724862,0.14315956772668878,1.907,3.0,0.162934686,-0.053471587,0.964283712,0.318948922,-0.346012192,0.330241234,0.9704925577633718,-0.007899552423877347,-0.1221347701398456,0.20776161897785136,1.908,4.0,0.120270149,-0.202285989,0.95095503,-0.363595673,-0.380537694,0.059007489,0.9573447956021902,-0.1248880116638665,-0.11974267676175537,0.23142086819899468,1.797,5.0,-0.496858836,0.145171176,0.830630259,-0.895081102,0.03253079,0.363617187,0.8649033159141354,0.18380711367499178,0.2901402576150165,0.3660270891536497,1.797,6.0,-0.155935547,-0.099887844,0.962631562,0.217818473,2.272574987,-0.511550186,0.9314187253240379,-0.3056153669444287,0.009980908501450685,-0.19737980410531458,1.798,7.0,0.378474319,-0.047231533,0.902398123,-0.245618677,-0.594883725,-0.434595211,0.9122120598044274,-0.12129834606330937,-0.2618285714514515,-0.29086365940309833,1.798,8.0,0.135191083,-0.058691252,0.969195392,0.023030752,-0.585865604,-0.847943569,0.9795492566225645,-0.016642870579445315,-0.11708526476013617,-0.1627799419004246
28,1.922,0.0,0.050558185,-0.047949174,0.97759181,0.200484218,-0.115735122,0.086780079,0.9859403358930431,-0.012680792936196816,-0.07962112254502751,0.14636026917948947,1.923,1.0,0.049082304,-0.049894921,0.977102566,0.145467813,-0.075857113,0.150553699,0.9728635612359378,-0.021111323444192087,-0.04984024163859826,0.22495944869057985,1.923,2.0,0.033892912,-0.023598367,0.979183531,0.222985618,-0.040876705,0.03726481,0.9889411826423555,-0.009597436265453818,-0.027996862382411593,0.14532516020225206,1.923,3.0,0.177740926,-0.039498865,0.962690502,0.285729171,-0.15482208,0.241410029,0.9673172444793923,0.006762316290402736,-0.1238439923529868,0.22116574140055617,1.923,4.0,0.134347764,-0.211554646,0.947806578,-0.00386727,-0.272039049,0.2717865,0.9531736295178068,-0.12003754043678869,-0.12841540669207926,0.246090439070365,1.842,5.0,-0.529709263,0.166033503,0.807791416,-0.456184996,0.952095201,1.469428312,0.831147878233954,0.15011976115715156,0.31010745414581314,0.43645232122251154,1.842,6.0,-0.271000318,-0.010169056,0.941616386,1.067356632,0.868108812,2.835117384,0.9716743401260914,-0.21020878339543622,0.08351368106870173,-0.06845954424541945,1.842,7.0,0.421889419,-0.04235653,0.88360016,0.027922311,-0.590941429,-0.215871631,0.9031543389964111,-0.12254703980118968,-0.2844841722216665,-0.29725951413415624,1.842,8.0,0.185590965,-0.050504927,0.960778979,-0.007524853,-0.833400814,-0.665040978,0.9684254587415283,-0.022263372548517343,-0.15527994737770273,-0.1937643183003619
29,1.996,0.0,0.045090387,-0.036464581,0.978047131,0.361073911,0.059045325,0.015905304,0.98650040987105,0.004402199816256137,-0.06866377976903226,0.1486029855314418,1.997,1.0,0.057779273,-0.035440212,0.977753827,0.319363302,-0.230701872,-0.119061822,0.9738856366795892,-0.0016516372526681259,-0.055779194030326995,0.22007435170165626,1.997,2.0,0.037146283,-0.011277475,0.978401744,0.162907864,-0.095148728,-0.007190398,0.988924160749413,-0.00017500752167837294,-0.030677796254810326,0.14521655028055488,1.997,3.0,0.1749458,-0.022467917,0.963056675,0.342801443,-0.023738335,0.330463403,0.9635322838842484,0.021684841663110938,-0.118157669630427,0.23911100071380434,1.997,4.0,0.142948354,-0.202135988,0.948371135,0.287284878,-0.174285938,0.387852719,0.9495091920240657,-0.1029692642248064,-0.1280016385097911,0.26729235945985624,1.917,5.0,-0.523659726,0.204273171,0.802582683,-0.353838237,-0.840898619,0.229628976,0.8462872114318595,0.14057930530630935,0.26452059680377693,0.44052726198619785,1.916,6.0,-0.273672509,-0.011062172,0.94058598,0.024538981,-0.260255974,0.065563154,0.9770240738502955,-0.18947196980367154,0.07705714358553181,-0.05988763142859716,1.917,7.0,0.45832725,-0.027657952,0.865705013,-0.340935717,-0.597231526,-1.345391012,0.8729589960137313,-0.12374505705484817,-0.3075538818345401,-0.35782727942639686,1.917,8.0,0.262104974,-0.034532335,0.944151206,0.041320958,-1.395115748,-1.32279565,0.9417944024857153,-0.025517578093193362,-0.2199313754023553,-0.2529868509793747
30,2.071,0.0,0.043111669,-0.010534182,0.978883249,0.393148415,-0.03837171,0.011711286,0.9863197918156033,0.023392441487290392,-0.06303997043909706,0.150505893841825,2.071,1.0,0.07576104,-0.014878231,0.976825933,0.185838495,-0.268298373,-0.208235034,0.9753896551445285,0.011221635327824095,-0.06505578965935038,0.21037309659128334,2.071,2.0,0.052407306,0.010008391,0.978287435,0.337838206,-0.303640616,-0.258656611,0.9900322558846627,0.020061239657924335,-0.04249086390199644,0.13277125237104226,2.072,3.0,0.170319202,-0.008399822,0.964354091,0.195721222,0.154345295,0.021171412,0.9642699872971524,0.02866571600929992,-0.10516103504561654,0.24145977932516713,2.072,4.0,0.140156852,-0.189464413,0.951310303,0.262694273,0.205547724,-0.227952859,0.9557218567677155,-0.08879989478667019,-0.11242405316366792,0.25704307703690377,2.036,5.0,-0.459282693,0.188954676,0.84494943,0.606444129,-0.66778793,0.860736963,0.835372168390781,0.17716692970649892,0.24258435245727886,0.46034557805993936,2.036,6.0,-0.223339572,-0.002241436,0.9538068,-0.06495917,-0.715890106,-0.371304579,0.9807841468937317,-0.1774968307880304,0.042600685769632385,-0.06886591198914896,2.036,7.0,0.484845091,0.005398143,0.851630259,0.491106224,-0.357051202,-0.035674294,0.8720498509849582,-0.10526348983953239,-0.32516622870312284,-0.3503078343612989,2.037,8.0,0.364572816,-0.005951821,0.909734707,0.173189243,-1.340040674,-0.121533432,0.9252292065835215,-0.035540364419301425,-0.2803084975539757,-0.2532092888912317
31,2.181,0.0,0.04599377,0.014177803,0.978777075,0.375413655,-0.022547539,0.162409786,0.9846776132858952,0.04026300644544613,-0.05756346189745561,0.15960994975234843,2.181,1.0,0.090278295,-0.002564938,0.974920125,0.319622398,-0.21085593,0.003533997,0.9744690537949822,0.028721861873486368,-0.07000011240000222,0.21138850988267885,2.181,2.0,0.076590445,0.023808712,0.976636088,0.305655583,-0.330969879,0.469543015,0.9854291308209666,0.036029954213016316,-0.05706287101411326,0.15612526791159984,2.181,3.0,0.152557917,0.007750145,0.967919944,0.232005894,0.409592392,0.106035614,0.96483718143754,0.03376317482373966,-0.0797140059800161,0.2481832762135734,2.182,4.0,0.117323875,-0.154000534,0.960795474,0.914737414,0.380800169,0.411769527,0.9558245922908662,-0.04934297670879504,-0.07793310703700086,0.2790896813733427,2.146,5.0,-0.339950252,0.162566963,0.904819766,-0.685980396,-0.922502896,0.038375405,0.8564827165152751,0.15150213437884746,0.18254645168594966,0.45843347670751283,2.145,6.0,-0.09789643,-0.00065414,0.975520815,0.501930379,-1.348451703,0.468418743,0.9895982069586265,-0.1381132034102922,-0.022011822515308484,-0.03369883525543967,2.146,7.0,0.32699352,-0.004846403,0.923920857,0.11516661,3.259069483,-0.310190714,0.9165649013108235,-0.0337527227031947,-0.15824557536142947,-0.36568821866958195,2.146,8.0,0.547554952,-0.098212994,0.807077928,0.274032157,-1.158623846,2.755228089,0.9362347748128644,-0.08373991897086508,-0.32290831174410434,-0.11037343252988954
32,2.236,0.0,0.038975868,0.03943383,0.977837847,0.335622415,0.176678597,-0.024664313,0.9848231621242222,0.05372748377922015,-0.04200318182518482,0.15960084444313646,2.236,1.0,0.095516193,0.02831458,0.975060994,0.426050845,-0.018317867,-0.15892494,0.9754436633905454,0.049819316539589154,-0.06344078511399638,0.20494624181692228,2.236,2.0,0.087484307,0.056810102,0.974139676,0.663579985,-0.027215804,0.216364971,0.9819908294370014,0.06814721029491635,-0.05218622792477211,0.16830497985987855,2.236,3.0,0.118701762,-0.001088026,0.973082066,-0.350596776,0.546012725,-0.210088616,0.9698353340269428,0.008888901278373676,-0.05534666735489204,0.23722807321145284,2.236,4.0,0.086273821,-0.074360349,0.973097306,1.395857016,0.349553475,0.767209972,0.9473397423726617,0.0115703549278411,-0.039680757960757686,0.31755153417327847,2.203,5.0,-0.262137516,0.169116149,0.928658522,-0.562514166,-0.933437543,2.863539174,0.8021987710333743,0.16282925874188223,0.10580341272700133,0.5645966720637242,2.203,6.0,-0.034519659,0.039122117,0.977578566,0.498895058,-0.818462819,0.795907598,0.993381978781395,-0.09972825551446739,-0.055660368076553404,0.012183706742366957,2.203,7.0,-0.001206743,-0.021387344,0.979911795,-0.794215275,5.383191618,-1.214597316,0.910171350860407,0.03808965665799732,0.12353430481748746,-0.39354360071265043,2.203,8.0,0.618385143,-0.175902905,0.739215113,-0.850526535,-1.406076392,-0.527937303,0.9038670544677335,-0.12558900547085194,-0.3842218773533981,-0.1400903227053734
33,2.297,0.0,0.038283708,0.052985802,0.976907807,0.117199082,-0.103909797,-0.263304096,0.9865472904603211,0.05849955658671211,-0.04271728746126162,0.14655196660744177,2.297,1.0,0.092572093,0.041059424,0.974111663,0.093876946,0.038340148,-0.461801654,0.9800396746995748,0.05352086759286903,-0.057195660432526385,0.18271948219756273,2.297,2.0,0.09465827,0.098431905,0.969224418,0.430890527,-0.230273052,-0.762124497,0.9855824628535419,0.09221147768519586,-0.05505341489470736,0.13074162996953415,2.297,3.0,0.089797182,0.007014925,0.976378644,0.251806827,0.468349174,-0.603865803,0.9775167268340131,0.017860929670810623,-0.02771610908116823,0.2082639028934505,2.298,4.0,0.067390351,-0.010875247,0.977462669,0.926282544,0.332843103,0.05194406,0.9457507797091063,0.04938979079859762,-0.008811827484546803,0.32099604817017763,2.262,5.0,-0.31734322,0.236526915,0.92900339,-9.411925866,-6.153011955,-5.69591338,0.878310934031204,-0.17642623143788252,-0.44191888359054426,0.04638306100234674,2.262,6.0,-0.068388925,0.08546432,0.986425773,2.864368282,-1.58478106,0.588877351,0.9889894203854931,0.05665313549245281,-0.12431182606056171,0.05689392327770115,2.262,7.0,-0.314825461,-0.116922788,0.95365769,-0.339181769,10.28700821,8.727250013,0.8473558659351955,0.22786412355069516,0.4489506864944353,0.16884685001463268,2.262,8.0,1.071120755,-0.226464435,0.538287272,0.907575067,-5.990921135,1.417496957,0.7760435707302331,-0.1591808071755459,-0.6102433992522718,-0.004565153255249986
34,2.344,0.0,0.04730247,0.051366579,0.97670771,-0.124287197,-0.178310296,-0.488554132,0.9900272977060088,0.051774203096686885,-0.04890326871999595,0.12154773547516502,2.344,1.0,0.087734822,0.045179491,0.974902772,0.003786672,0.018085974,-0.529702113,0.9848017121782108,0.05277287972922321,-0.05310925548510392,0.15671636110428086,2.344,2.0,0.093858552,0.115397177,0.968489579,0.189207511,-0.020349275,-0.65291616,0.9887307189038484,0.10070904143918284,-0.04998291121741342,0.09884818184727623,2.344,3.0,0.063242401,0.02101549,0.977288467,0.200404407,0.316115871,-0.747933481,0.9847664811271363,0.025396804931157282,-0.009258708005635063,0.17176803041844815,2.344,4.0,0.055948074,0.040573609,0.977163546,0.645511776,0.043129625,-0.245420781,0.947776034839698,0.07731549151853367,0.0033793227338600107,0.3094050463916954,2.321,5.0,-0.178720213,0.176988917,0.947221204,-0.893655411,-0.419107247,3.201482294,0.8700781955232716,-0.26460965590208446,-0.38042792767251515,0.16798885535994215,2.321,6.0,0.070220463,0.064120102,0.975432058,0.267353391,-1.632447406,1.578003327,0.9694767372327763,0.06203689263471264,-0.19813329241502756,0.13042039086546595,2.322,7.0,-0.297587502,-0.039654667,0.93286129,0.049187756,3.9907803,1.567352725,0.7561892700755402,0.20903264365273508,0.5585100412213561,0.26935046976957316,2.322,8.0,0.704456967,-0.181176475,0.657332082,1.199899878,0.907418206,0.626074151,0.8266411957789059,-0.12271680993497446,-0.5469915062942008,0.049042940802987704
35,2.447,0.0,0.052442127,0.041585432,0.977663273,-0.218882544,-0.039403888,-0.574724299,0.993750359180755,0.03976909336786819,-0.048525783738273334,0.0923249216268525,2.447,1.0,0.087637015,0.046849706,0.974454647,-0.113336839,-0.062323036,-0.675306506,0.9898242574464312,0.047199459170581715,-0.05418483821620871,0.12281756279990613,2.447,2.0,0.090127014,0.115583695,0.968691659,-0.311615055,-0.042720817,-1.173496289,0.9945086306184907,0.08442699717852241,-0.04758594001069564,0.039499925139808746,2.448,3.0,0.044314517,0.030038711,0.978435945,-0.078218119,0.213383389,-0.803919241,0.9910538102013988,0.019395910748070986,0.00038740835011632325,0.1320454234205524,2.448,4.0,0.045685395,0.073368218,0.976072205,0.414557345,-0.002629695,-0.793137903,0.9579152092170942,0.09354278850021767,0.011976043192726096,0.2711176369394288,2.364,5.0,-0.102150296,0.131607682,0.965430855,-0.621590241,-0.513989297,2.183474836,0.8511200220267798,-0.3041043633231067,-0.3410107717058468,0.2585089899666251,2.363,6.0,0.139729645,0.071416537,0.967417337,0.242737277,-0.458339392,-0.106377869,0.9675237375043094,0.07622495971747262,-0.2054141500392469,0.1260658551924975,2.364,7.0,-0.415973465,-0.069112906,0.884539701,-0.236857347,0.093194795,-1.213137334,0.7978140747063948,0.13994192647837386,0.5405604102216328,0.22738382157691187,2.364,8.0,0.568340942,-0.185610702,0.777034904,0.963326147,4.056439209,1.246113535,0.9373411248044375,-0.11406601690388327,-0.3140440962737822,0.098776845128899
36,2.478,0.0,0.056012963,0.024376982,0.978007316,-0.329498118,-0.121910823,-0.531514221,0.996212529983683,0.0227117456587643,-0.053363745541166414,0.06478489310370576,2.479,1.0,0.087437444,0.033183187,0.974886439,-0.368244231,0.035897297,-0.640339602,0.9941597061132129,0.02788292266942041,-0.05252622657611852,0.09005563217242858,2.479,2.0,0.075176744,0.090434021,0.973161932,-0.396916812,0.14404726,-0.462996022,0.9972141741434596,0.06173289441120476,-0.03861976649522333,0.01616954763891696,2.479,3.0,0.036718822,0.021032186,0.978869437,-0.170751857,-0.005279424,-0.622685746,0.9948273344686794,0.01028508510859,-0.0024415630988071225,0.10102885918333515,2.479,4.0,0.049170629,0.091706962,0.974829771,0.257223664,-0.190795657,-0.239940128,0.9603019435713682,0.10416549355169653,0.005217776987222428,0.2587324910588075,2.445,5.0,0.011991078,0.057150725,0.978350146,-3.928026632,-3.668606889,-2.657326041,0.7627075567578031,-0.3329985154525615,-0.5419347409546442,0.11702951814544668,2.445,6.0,0.145997825,0.109932705,0.963390593,1.187418034,0.613961856,-0.176454645,0.9708498540247532,0.13057215186757304,-0.1528547558020225,0.13052546772753162,2.446,7.0,-0.377981245,-0.039438599,0.902897987,1.33682419,-2.606358749,1.047935255,0.8618963004083234,0.23566289191531867,0.3988407294008057,0.20621309678967292,2.446,8.0,0.278551452,-0.157215224,0.926278825,1.395435676,5.21399238,1.777304943,0.9831664825041181,-0.08741685753237255,-0.014656285226709177,0.15977219408582324
37,2.555,0.0,0.059935235,0.00675973,0.977509117,-0.384519353,-0.005898389,-0.43857871,0.9977380780085267,0.0029797829593205868,-0.05250596900880302,0.04186850610916213,2.555,1.0,0.082154105,0.019308799,0.97565305,-0.334937683,-0.025829745,-0.490925597,0.9963899863859926,0.011160947882334104,-0.053857292835895916,0.064666995294955,2.556,2.0,0.075976462,0.073468748,0.973896771,-0.312125855,-0.144419291,-0.681405927,0.997811578067646,0.045192628342964225,-0.04446192081399941,-0.0187834665367859,2.556,3.0,0.04303926,0.013030207,0.97872664,-0.180041732,-0.136415745,-0.627678679,0.9975029219733512,0.0019197661771478988,-0.011971176392127502,0.0695767639966107,2.556,4.0,0.056430144,0.091080718,0.973877272,-0.295853243,-0.103558826,-0.895135705,0.9729124302559992,0.08555563756488217,-0.0019004120317950921,0.21475107536015137,2.487,5.0,0.118655706,0.001617115,0.972722061,0.029145966,-1.455281722,2.422179452,0.7361559531910418,-0.3658700614325452,-0.5194202033259292,0.23327272259221535,2.486,6.0,0.166671941,0.095145287,0.961412418,-0.292400939,-0.195509497,2.135114929,0.9546446670570272,0.09413739247419321,-0.16615362767010222,0.22843967039418164,2.487,7.0,-0.162120233,0.114123352,0.960044734,2.294176966,-2.82831162,1.156873917,0.8812230696041471,0.3672382854006166,0.24426437070664092,0.1700495825832823,2.487,8.0,-0.087238783,-0.068977915,0.974108537,2.065232481,5.474140229,0.859419651,0.9499249767102188,-0.024031170347635775,0.26783639370183554,0.15914995344833863
38,2.657,0.0,0.050499726,-0.015000272,0.978197204,-0.310243601,0.220701536,-0.332313319,0.998826053192429,-0.013059420948395453,-0.03968728794891065,0.024512979496335078,2.657,1.0,0.07922951,0.010377404,0.976475803,-0.334507091,0.025919446,-0.551302148,0.9979612453602108,-0.004461563385878492,-0.052355111214907206,0.03622691735333944,2.657,2.0,0.083101347,0.054271113,0.974725506,-0.350802901,-0.147388961,-0.328806369,0.9976976511013483,0.026446828490377758,-0.05088179201503573,-0.03620780980660485,2.657,3.0,0.048451762,5.08e-05,0.979217251,-0.403563019,-0.06084176,-0.546263442,0.9987968218806919,-0.017714447255134325,-0.018159395051033273,0.04196836106944439,2.658,4.0,0.051776109,0.061722699,0.976606135,-0.677924324,0.14464148,-0.727734091,0.9827402033526199,0.04571441473749006,-0.002093870289125766,0.17924145922992302,2.561,5.0,0.23002926,-0.064154432,0.950005657,-1.058153277,-1.708331027,1.904934385,0.6787771191280902,-0.408178180823207,-0.5266960135227877,0.3086154639470146,2.561,6.0,0.227664955,0.042010327,0.952164272,-0.695096762,-1.163364967,1.119356291,0.9343417085842045,0.060936208668379586,-0.22583264126992258,0.26887165750618514,2.561,7.0,-0.180735335,0.233234659,0.934589392,0.422027724,1.406051191,4.644489142,0.8120004185798061,0.39875697798495824,0.19645943048683728,0.3782220047899258,2.561,8.0,-0.273852107,0.052967999,0.938701451,2.257008361,0.170736929,1.210839359,0.9386015136352723,0.09943891031464175,0.2741218136589839,0.18438094530976182
39,2.716,0.0,0.0295801,-0.036473811,0.97870357,-0.329233339,0.502812954,-0.11473147,0.9992979338038218,-0.03040871198827809,-0.012706954895172366,0.017818053426745164,2.716,1.0,0.069079996,-0.019381121,0.977121961,-0.594488667,0.290845589,-0.363211397,0.9985665934824267,-0.03413040856417536,-0.03781371074924235,0.016431581528177384,2.717,2.0,0.092988115,0.03341198,0.973653866,-0.27969875,-0.081774566,-0.276038543,0.9971800070215172,0.011943552014138043,-0.05400230825042827,-0.050726086636739984,2.717,3.0,0.050866194,-0.023018138,0.97822073,-0.258696782,-0.00294331,-0.38788632,0.9991086947760832,-0.029568995810930743,-0.020246282051514287,0.022306469300526027,2.717,4.0,0.029562599,-0.002810951,0.979917931,-1.290589056,0.478245072,-0.937386391,0.990826770161366,-0.02702585443421388,0.007524578251704045,0.13219415813806015,2.645,5.0,0.299304739,-0.166756011,0.91768192,-1.267652187,-1.085104526,0.881797171,0.6408220872212381,-0.43080592646986987,-0.5410866838587463,0.3331343674834499,2.645,6.0,0.300854021,-0.021858997,0.932237653,-0.688355221,-1.218560775,1.306055034,0.9046092027153698,0.028484642208134472,-0.2844595860330273,0.3161543285088095,2.646,7.0,-0.21076869,0.164332993,0.942686176,-0.524005372,0.227986336,0.616062197,0.8226381607358914,0.34721448039673447,0.17998703158444387,0.41269023439538266,2.646,8.0,-0.283615425,0.076392536,0.935100247,-1.088529181,-0.493027409,-1.232301926,0.9635558654097768,0.025625522351533037,0.2288263204478864,0.13616879932241566
40,2.746,0.0,-0.000949974,-0.053231673,0.97766021,-0.237364384,0.426718584,0.008404964,0.998904683928404,-0.0423188938846508,0.009685977494954154,0.01745638812132734,2.747,1.0,0.050777388,-0.047270115,0.977589481,-0.326215916,0.318083146,-0.077214883,0.9984842360724727,-0.04948032261336002,-0.021233281118980856,0.011405076140509934,2.747,2.0,0.098662281,0.032968086,0.974921463,0.162833361,-0.223886935,0.18626099,0.9968217865479425,0.01921728852561844,-0.06546287269386837,-0.04112947828210141,2.747,3.0,0.04642626,-0.034027957,0.978486945,0.078600207,0.081211368,0.050121952,0.9992586959746098,-0.02450993895506943,-0.016421193801430423,0.024731878328935065,2.747,4.0,-0.006094341,-0.084958177,0.975290196,-1.002194135,0.401952746,-0.251488004,0.989425506840219,-0.08095280106834439,0.01874738515799566,0.11887954392115865,2.741,5.0,0.348939793,-0.24836304,0.880944278,-1.30479308,-0.818440925,-0.47185262,0.6287716250010706,-0.4196157311319012,-0.5783717343869907,0.30668390672211215,2.741,6.0,0.383166045,-0.103192901,0.895055309,-1.115025158,-1.429211984,0.508005385,0.8780731755682619,-0.006517705939058411,-0.3565480941344668,0.3190900725905456,2.741,7.0,-0.174156273,0.202667206,0.942548458,0.27953491,-0.866016057,2.125670514,0.7900594080909388,0.3687562158225314,0.10725224022573696,0.47783045313772404,2.741,8.0,-0.211001088,0.045879603,0.956007637,-0.157257655,-0.775920616,3.009275512,0.9446297191687492,0.05555129250845429,0.16895382352266283,0.27575959290817614
41,2.824,0.0,-0.024988525,-0.068361081,0.976160507,-0.23371077,0.391403841,0.205904596,0.997757485960259,-0.053492198431480655,0.029803014378179983,0.027025252102511606,2.825,1.0,0.032382416,-0.048815398,0.978076396,0.053056748,0.22532968,0.190681743,0.9987518694627157,-0.04468268516230021,-0.009079783274237004,0.020389174262589144,2.825,2.0,0.109217531,0.042630899,0.972867996,-0.030181744,0.20309299,0.021308275,0.9975540246259423,0.018083033712484257,-0.054407955024035316,-0.03998432535932945,2.825,3.0,0.03862607,-0.009965785,0.979568124,0.380272102,0.207192942,0.36372399,0.9990543115638182,-0.004068854467908867,-0.005858722927573881,0.042890585618786295,2.825,4.0,-0.013511959,-0.139136628,0.970125469,-1.090564441,0.575321283,-2.632603691,0.9899646580323066,-0.13898508155468836,0.020276733646853846,-0.015555610718622753,2.781,5.0,0.379293182,-0.248544897,0.869169786,-0.554147893,3.271724175,-4.326587791,0.8004928421081222,-0.3312210814335275,-0.49519560421440556,0.06546081663403863,2.781,6.0,0.472541317,-0.126220018,0.849187971,-0.167105716,-1.492628083,-3.331839517,0.8994119651721016,0.07120368283054841,-0.40098898844227016,0.15873242770357188,2.781,7.0,-0.166304387,0.224479162,0.939794103,-0.48063204,1.082238696,0.159319956,0.7992148016022664,0.29626105746730497,0.13880025545805852,0.5042019196839513,2.782,8.0,-0.12147565,-0.02653821,0.971719296,-2.302484489,-1.655412496,-1.189534726,0.9724940126995476,-0.053165930144538194,0.040579267992347005,0.22311903133664665
42,2.935,0.0,-0.038056754,-0.068332196,0.976630122,0.097622564,0.071860309,0.449936307,0.9971632616741536,-0.046231859472462576,0.0334198419702383,0.04910355282223479,2.935,1.0,0.023520222,-0.032258925,0.979236009,0.424579188,0.157818465,1.123371785,0.9968732691781381,-0.021267547968222795,0.00010748160014845922,0.07610101871339489,2.935,2.0,0.075473336,0.051052463,0.975399109,0.298811265,0.661242027,0.621830326,0.999188148717566,0.0332626964931177,-0.021452951178591584,-0.007510484012288126,2.935,3.0,0.025270609,-0.027013678,0.979599744,-0.104396017,0.087874083,0.699871935,0.996918348095419,-0.010575771560543087,-0.0020881307282441712,0.07770199480490858,2.935,4.0,-0.025957469,-0.163994449,0.965105709,-0.032165166,-0.133335531,1.137818208,0.9899107467655348,-0.1338143275262835,0.020717052616673663,0.041728202904840604,2.955,5.0,-0.286326163,0.069168941,0.934940632,2.039087852,5.111735789,-2.110378037,0.96388280887123,-0.16472483602543703,-0.20198852105810552,-0.054738437314742414,2.955,6.0,0.571621679,-0.047884599,0.795107994,0.042215898,1.243380017,-0.148539068,0.9277921698517767,0.06218256720451201,-0.33225040903418696,0.1579388603042446,2.955,7.0,-0.134997714,0.081852778,0.966971427,-0.015070291,-0.915865634,-1.226815581,0.8447981740127678,0.28178416426970376,0.11233243646935627,0.4407892395106485,2.955,8.0,-0.003500099,-0.089735256,0.975830586,0.101433746,-0.549452053,0.61009759,0.9665131341204656,-0.040055912320184926,0.011491949965789413,0.2532110197973545
43,3.037,0.0,-0.052230466,-0.0497621,0.977137509,0.07267319,-0.034315049,0.359058783,0.9964470210454508,-0.0399684608076351,0.03179767730240806,0.0669683814085966,3.037,1.0,-0.044944523,-0.008887582,0.978636807,0.103349637,0.574509847,0.595087832,0.9938263064486754,-0.016800784054899556,0.031782661314529795,0.10496127240792177,3.038,2.0,-0.042317322,0.034137655,0.978440527,-0.040057803,1.007674832,0.915232276,0.9982827875248724,0.029018247899712267,0.03186446224010462,0.039674594724463004,3.038,3.0,0.045478207,-0.02102609,0.978257449,-0.055285363,-0.283814663,0.525871046,0.994344943665094,-0.012105431638456364,-0.018277515016359845,0.10391113500166614,3.038,4.0,0.001849545,-0.160662594,0.965923449,-0.328945114,-0.39990406,0.024878269,0.9885110129757556,-0.14404807504261538,-0.0020495131188852603,0.04573760813748515,3.036,5.0,-0.490676107,0.129399027,0.837979624,0.97179708,2.041915972,-0.41359518,0.9911730411721503,-0.08568547468492035,-0.06477204989077893,-0.0777083228136934,3.036,6.0,0.403234285,0.077074824,0.889595179,1.493432442,3.706943956,-1.791786467,0.9800802283143674,0.1356484183453035,-0.10574903012716047,0.09929448773643054,3.036,7.0,0.01711043,0.010447784,0.979988305,-0.390025194,-6.340135636,-3.95684565,0.9250117921994159,0.331542016076118,-0.13966693875696598,0.12217291879326474,3.036,8.0,0.01951695,-0.066414826,0.977371045,0.538374233,-0.028235531,-5.357582663,0.9995813328240042,-0.013431857481546067,0.009596815967705348,-0.02376226836109866
44,3.136,0.0,-0.042330464,-0.050306142,0.977970564,-0.069637795,-0.1636987,0.083967853,0.996321334720369,-0.04146443408090544,0.022386735566020645,0.0715774598464461,3.136,1.0,-0.075027488,-0.002804148,0.976635046,0.019935829,0.477684162,0.267212845,0.9913019728156723,-0.01675771435734968,0.05639240433746487,0.11772626909196317,3.136,2.0,-0.096334487,0.023848699,0.97523377,-0.288065162,0.563498281,-0.209929488,0.9975973733103154,0.011308314694810435,0.06127157084780124,0.030288568618623814,3.136,3.0,0.084604775,-0.020066333,0.975575919,0.088755609,-0.646506286,-0.233273614,0.9943151750142312,-0.0034776751174972337,-0.05256389669405017,0.09253256333060841,3.136,4.0,0.042042523,-0.190365468,0.958976233,-0.481850939,-0.593631989,-0.575376788,0.9858550669354095,-0.16152858235626688,-0.03942839263272995,0.021064328476199285,3.056,5.0,-0.561498348,0.035237034,0.802430655,-0.934772568,0.301447954,-3.820655042,0.9587815276274971,-0.10538210427881851,-0.03349060051306359,-0.26174601058149033,3.056,6.0,0.11256124,0.2251302,0.947342789,1.144186134,3.9308154,-3.867138696,0.971081865749262,0.1850252992236916,0.13660897683013415,-0.06405962932721126,3.057,7.0,0.238372646,-0.061688833,0.948360148,-2.67374995,-2.373637653,-4.943192828,0.9420944557797325,0.20454118943841043,-0.20744648909962402,-0.16609302325037476,3.057,8.0,0.149790747,-0.051178757,0.967094859,0.119262017,-1.434815755,-3.801121373,0.9755273094276985,-0.012229474138811798,-0.07136573325543781,-0.20761464457007223
45,3.166,0.0,-0.032079025,-0.051258985,0.977961376,0.032232234,-0.117012244,-0.227536985,0.9973188032292751,-0.03826980087750285,0.01543660127669146,0.060434579564577304,3.166,1.0,-0.095360082,0.005704774,0.974850712,0.151431561,0.077055902,0.786945258,0.9858817935180367,-0.006136302992652737,0.06051850979143487,0.1560030287137576,3.166,2.0,-0.113187046,0.043620633,0.972394433,0.451555091,0.133342048,1.025887741,0.9938763442593347,0.037582828378095665,0.06628375225616286,0.08002379345948787,3.166,3.0,0.117413132,-0.012103444,0.973085126,0.162894787,-0.530929297,-0.125880953,0.993080976842993,0.007684748117712209,-0.07887713753109535,0.0866574593086747,3.166,4.0,0.090438407,-0.208465581,0.952326098,-0.221424614,-0.598201202,-0.425020451,0.9834842200113021,-0.16536240283213208,-0.07346455286352321,0.004126038161165421,3.135,5.0,-0.558263641,0.013603874,0.804988597,3.26702672,0.637916504,0.035587394,0.966596562858547,0.07845932578947873,-0.015377979659739473,-0.24351331915993477,3.135,6.0,-0.189175378,0.202873648,0.939749413,-1.788785747,4.251822708,-2.082233858,0.9294600305506489,0.08955970637377521,0.3412197835817948,-0.10794521710304386,3.135,7.0,0.3889776,-0.080399016,0.895871321,-0.427819307,-1.128560496,-1.859141973,0.9199263326589474,0.1688015249249223,-0.23819076015970087,-0.26173794038737325,3.135,8.0,0.217780652,-0.056147766,0.953431705,-0.193316751,-0.590105941,-1.12529481,0.9594865098671305,-0.027433905978084778,-0.1022306548083285,-0.26111666243891585
46,3.272,0.0,-0.030158767,-0.044240483,0.977730652,0.228205459,0.061901438,-0.455370107,0.9987934628859605,-0.02591890313770048,0.018478121172052275,0.03739502633186954,3.273,1.0,-0.089074224,-0.000118425,0.974090226,0.03206431,0.070027479,0.001233942,0.9857621919452874,-0.005202417708230234,0.06267065040524798,0.1559430195904736,3.273,2.0,-0.109443029,0.060895963,0.97115133,0.204753087,-0.059806322,0.075625476,0.9934331897171789,0.047142816078608395,0.0631548379635222,0.08294286528889282,3.273,3.0,0.151260372,0.000730119,0.967731247,0.136780036,-0.4888839,-0.24981739,0.9918245247868477,0.01750963641591414,-0.10210546917347084,0.07451172947121665,3.274,4.0,0.118440552,-0.204441788,0.951026493,0.105953941,-0.553630029,-0.038199219,0.9830291500827252,-0.15384084172620097,-0.09969002853660273,0.0069702019325298065,3.206,5.0,-0.650530395,0.259110668,0.684791842,0.902417503,2.570638101,3.904204035,0.9811624084678785,0.16296079829117774,0.09966640723848834,-0.028822104329587823,3.206,6.0,-0.277987033,-0.085414134,0.935669619,-3.008081389,0.245328329,-3.905976954,0.9092288730616441,-0.12350348673838529,0.320039615885129,-0.23584823386791154,3.206,7.0,0.438107592,-0.031031619,0.875744127,0.817651201,-0.64583494,-0.191026305,0.9078325165233827,0.17758536863752844,-0.27540844565630707,-0.2616366695436095,3.207,8.0,0.300854516,-0.051261723,0.931321532,0.06305819,-1.365081448,0.038639386,0.9505433762153486,-0.04618011436804718,-0.17166816829588571,-0.25468554525927767
47,3.302,0.0,-0.036523097,-0.026661347,0.978415676,0.30258368,0.16970071,-0.546699319,0.9995299138936129,-0.010442585465364163,0.0271929929189098,0.009562676232998564,3.302,1.0,-0.085488443,0.001790757,0.975960306,0.12457472,-0.203554205,-0.440396705,0.9896679822734261,0.0010979422321218215,0.05162814735065691,0.13375579907742005,3.302,2.0,-0.101979112,0.069550879,0.972327072,0.080384846,-0.23036005,-0.402632374,0.9954943517872223,0.049210573163905945,0.05216799847862684,0.06203075836511986,3.302,3.0,0.170650865,0.019612853,0.963929779,0.35830683,-0.179389408,-0.139136517,0.9910827130846867,0.036545960314650204,-0.10782647030614234,0.06923078008151522,3.303,4.0,0.14567761,-0.197951456,0.948573273,0.062398946,-0.344298044,0.003444763,0.9827094531954964,-0.145443275071167,-0.11414631173881848,0.00995006800004191,3.27,5.0,-0.563935806,0.223943839,0.769282499,-0.695596174,-1.441124566,0.085157941,0.9903806360714187,0.12469268521903566,0.04791046043597894,-0.036090410477724794,3.27,6.0,-0.342119632,-0.106848915,0.910939881,0.057861027,0.136045254,1.162803789,0.9260947597547469,-0.089585264360895,0.3175042788839019,-0.1830683185441972,3.27,7.0,0.469655081,0.037176193,0.859207795,0.739496158,-0.311680317,-0.699896655,0.8934066362675254,0.19606859685190783,-0.2900140580591245,-0.2815555606443394,3.27,8.0,0.387289615,-0.035341365,0.899674798,0.110026691,-1.340546242,-0.65865135,0.9284688316639172,-0.05464275542809114,-0.2385277140859484,-0.27939994187687006
48,3.406,0.0,-0.05938743,-0.008175474,0.977712276,0.319592134,0.46816815,-0.327008879,0.998650638676046,0.0054498680004997045,0.051104741616381025,-0.007450247984170526,3.406,1.0,-0.066970717,0.004663082,0.978161121,0.125780046,-0.436793114,-0.896347559,0.9956096062184933,0.0076297962840691765,0.029247851083213275,0.08858815621252569,3.406,2.0,-0.082355508,0.068786631,0.974151923,0.033876475,-0.496247887,-0.57986787,0.9978893805323689,0.04921507986166312,0.028100606170952388,0.03170198838811596,3.406,3.0,0.169660467,0.051592827,0.96278944,0.581500162,0.285965172,0.040580779,0.991136976939796,0.06372414645458167,-0.08942832648675568,0.07476162466837931,3.406,4.0,0.15429334,-0.189483631,0.948828498,0.100907687,0.178737848,-0.357711712,0.9854939028982255,-0.13362962998131495,-0.10427929307107474,-0.008409421982315346,3.392,5.0,-0.478729825,0.149130677,0.841973156,0.111114912,-1.687017484,-1.954585602,0.9822988053711101,0.11894301819868197,-0.004392262873903698,-0.14464550948828087,3.391,6.0,-0.267351084,-0.101345268,0.937423349,0.030640522,-2.094324439,-2.618333947,0.930127570328943,-0.14084449445002772,0.18117946312307656,-0.28670461007721343,3.392,7.0,0.494908082,0.075366384,0.841521776,1.134165667,-0.38325326,1.183452348,0.8969808589316774,0.2028864101426944,-0.33250860046053565,-0.20904658310858987,3.392,8.0,0.477610285,-0.027328414,0.854376131,0.009217588,-1.80498758,0.018130474,0.9046867355946692,-0.08236337165188337,-0.3194325888551824,-0.269668327073223
49,3.448,0.0,-0.079894886,0.013634307,0.97637898,0.272635603,0.01836764,-0.145066385,0.998401150582184,0.01887658734367817,0.05101594772193974,-0.015368475671311641,3.448,1.0,-0.025095521,0.015628066,0.978648036,0.078348013,-0.598900832,-0.435884427,0.9977022906553389,0.01346436014245454,-0.0015896505732730724,0.06638014189574115,3.448,2.0,-0.033356926,0.088065604,0.975360326,0.703293895,-1.005477963,-0.199475035,0.9959957109488867,0.08497570989557839,-0.021029409676821473,0.018150383682127166,3.448,3.0,0.134809456,0.076732325,0.966715346,0.189543856,0.738427648,0.020327774,0.9933025918532116,0.068307087216538,-0.04969194963896294,0.07883408523451683,3.449,4.0,0.122876599,-0.177442017,0.955535804,0.272571693,0.808174665,-0.298581991,0.9912098479395414,-0.11386806839120671,-0.06173680997054623,-0.026938200444490766,3.423,5.0,-0.432248215,0.178197015,0.861302098,-0.10409108,-1.488735554,-0.992152995,0.972223334174672,0.1045291231684721,-0.05034922618809084,-0.20327421459244427,3.421,6.0,-0.214020449,-0.09520838,0.951989817,0.792473444,0.296841133,0.840785801,0.9467781732625675,-0.07882207960202194,0.1807639204543187,-0.2544063196203916,3.423,7.0,0.490532487,0.033891712,0.848056738,0.240471946,1.542257711,3.220800207,0.9488151948007508,0.15222747903442488,-0.27484876783993045,-0.032166373107775835,3.424,8.0,0.588921492,-0.019613951,0.782994744,0.061504955,-1.350968319,-0.581663695,0.8748201132648667,-0.09001216830473496,-0.37971293948747986,-0.2870638649675418
50,3.496,0.0,-0.068221691,0.027974997,0.976663811,0.176848635,-0.345205814,-0.644536582,0.9979738795510464,0.02537432060483002,0.032797742416778734,-0.04825544197330924,3.497,1.0,0.008088149,0.036811836,0.978951209,0.622695073,-0.437490725,-0.497971677,0.9978631128073919,0.04656481448530591,-0.020320161910712422,0.04108548612604893,3.497,2.0,0.033180974,0.120113813,0.971951488,0.447564726,-0.540649065,0.477414582,0.9924581660148559,0.10478673739204745,-0.04941963672354849,0.040052813674839885,3.497,3.0,0.095977211,0.061940356,0.973215684,-0.593366753,0.515497818,-1.085813384,0.9987611848791277,0.03588691913844146,-0.023872512904783462,0.024866196757904652,3.497,4.0,0.081541726,-0.13455454,0.967158737,1.157059556,0.563855431,0.996169729,0.9978418622148023,-0.053633083507816905,-0.03006199774867152,0.02305182544827799,3.532,5.0,-0.328460939,0.108391373,0.91726971,-0.609232086,-1.436831366,-0.288717512,0.9675089446549612,0.06010759157670223,-0.09314983977277888,-0.22723693977387804,3.532,6.0,-0.122279422,-0.042402211,0.971097212,0.833017365,-1.933284718,1.953664123,0.9851965486269711,-0.03623037864544995,0.06522500724137383,-0.15433994514406904,3.532,7.0,0.267635508,-0.054290135,0.941152918,-1.071498534,4.065508618,-1.017060383,0.9924577286650913,0.09739578419773133,-0.0461556337678815,-0.05840698164536354,3.533,8.0,0.65329546,-0.095953663,0.723646278,-0.882665651,-0.811611354,1.165464922,0.8732688678537455,-0.16824387020273865,-0.3867764106626546,-0.2439251785518569
51,3.572,0.0,-0.060678566,0.024107047,0.978126762,-0.10329747,-0.19700052,-1.022354412,0.994646868823475,0.016899740723124057,0.023822759048753465,-0.09911852124831762,3.573,1.0,0.020790536,0.060506378,0.977461883,0.225707639,-0.329163414,-0.811451096,0.9977912317009591,0.05775483306744192,-0.0328182211622583,-3.9468723838706295e-05,3.573,2.0,0.050571996,0.152573828,0.966215659,0.574846127,-0.377671687,-0.188373613,0.9888137913444659,0.1318263861410899,-0.06302573088608825,0.029947407404276514,3.573,3.0,0.043045946,0.010033664,0.978870457,-0.914047166,0.917037044,-1.602452302,0.9982257272521909,-0.012174020842364212,0.02012930166843888,-0.05469919453433473,3.573,4.0,0.007373634,-0.078731063,0.976204922,0.577064781,1.456764554,-1.360465744,0.9976075251504859,-0.02283297157105118,0.044404414023429845,-0.04781348332420735,3.552,5.0,-0.256128975,0.128422972,0.936962907,-0.211891983,-0.986974724,3.140687578,0.9892791823974052,0.027012417094023237,-0.12259094344298344,-0.07462231022702885,3.552,6.0,-0.009886549,-0.001480935,0.979945439,0.267195073,-1.628891549,0.058340185,0.9882516222093508,-0.031600319426392444,-0.023464273590170573,-0.14768066521255255,3.552,7.0,-0.10655812,-0.075936068,0.970827524,-0.543495578,6.310979174,0.829091493,0.9608235727324074,0.069299241012331,0.2678071657209318,0.017175542651347585,3.552,8.0,0.776813556,-0.179598555,0.568895472,-0.233478776,-1.48396483,0.975108477,0.851519179455615,-0.2190691282971009,-0.4373319341511272,-0.18885069080630482
52,3.676,0.0,-0.044959329,0.011669611,0.977662252,-0.128027626,-0.226439502,-1.171315829,0.9875119061970954,0.007173614572179554,0.01349999473547183,-0.1568009072521308,3.676,1.0,0.024519564,0.043740215,0.978872609,-0.269004821,-0.097247339,-1.340908237,0.9962605385402815,0.04287961187428962,-0.032684652884761134,-0.06751290023944484,3.676,2.0,0.047483981,0.148358596,0.967517958,-0.189103806,-0.215132446,-1.445073386,0.9897564639847745,0.1214772609271872,-0.060936597804346695,-0.043728115966906095,3.676,3.0,-0.016923119,-0.007098754,0.979308029,0.146245062,0.964297283,-0.619713164,0.9940713439853287,-0.001976418782052416,0.06643948111114532,-0.08604680229783089,3.677,4.0,-0.059421247,-0.027572519,0.977321785,0.873374557,0.798090079,-0.14338859,0.9947986327357904,0.023254161285218445,0.08076616095090212,-0.05754781955188413,3.633,5.0,-0.17878461,0.185606228,0.94590295,0.447570905,0.066532852,6.247001553,0.9673354343613602,0.01843766543279575,-0.10170273911119292,0.23147086810133968,3.632,6.0,0.054027933,0.021811635,0.97839779,0.82967887,0.594279144,-0.628893471,0.983861974479988,0.018217718371344668,-0.00026361897928785043,-0.17799904610619544,3.633,7.0,-0.513916399,-0.070742024,0.830962394,0.444154895,2.185422627,-1.206801192,0.9253040133523535,0.061551924706098875,0.371826251880339,-0.04206045472437423,3.633,8.0,0.743478234,-0.280333623,0.574391135,-2.171081109,1.566991696,-0.055259255,0.8565590916711967,-0.2963711735499182,-0.34175346928121325,-0.24834495404238327
53,3.706,0.0,-0.029459756,-0.001055527,0.979620339,-0.160690336,-0.268239931,-0.85382002,0.9801038505907775,-0.003915377408848722,0.0015754523454121012,-0.19844049442284725,3.706,1.0,0.026849403,0.028679003,0.97801719,-0.363182396,-0.024608481,-1.429356513,0.989623638474574,0.024142926239350247,-0.029076710006849565,-0.13862437815955994,3.706,2.0,0.039831852,0.119244203,0.971853509,-0.468398726,-0.140457883,-1.787233453,0.9847898466040398,0.0969122522323678,-0.054162698107526344,-0.13365393943522472,3.706,3.0,-0.072341363,-0.004338442,0.976818256,8.76e-05,0.927250814,-0.634821029,0.9870769295397858,0.00019985126841952618,0.10919737029222472,-0.11728183811248186,3.707,4.0,-0.109800909,0.036355919,0.972317339,0.927132102,0.779175856,0.139685999,0.9895263377404723,0.07174159143470875,0.11345386221982302,-0.05309418163743985,3.701,5.0,-0.010042008,0.147475267,0.969075438,-0.949635912,-1.313997017,3.193904124,0.9159418697717412,-0.021297602316205547,-0.15672692873570582,0.36882729446680124,3.701,6.0,0.03339938,0.076197408,0.976020715,1.004863155,0.852087691,4.579215875,0.9953079151004863,0.07677472958556966,0.013513659242478049,0.057316455309659446,3.701,7.0,-0.563248571,-0.124406186,0.792161693,-0.066244767,0.392848407,-0.138940216,0.9207587557546715,0.046645522764055945,0.384116440122502,-0.04982037068101099,3.702,8.0,0.541264263,-0.248657512,0.778011207,1.704959466,5.542954509,1.443972975,0.9642617416541843,-0.15208107885256744,-0.060636184207908075,-0.20831200685938117
54,3.853,0.0,-0.013717223,-0.012198318,0.979724471,-0.199023321,-0.248574331,-0.567073574,0.973991307380809,-0.016194139762228815,-0.00836792834352931,-0.2258509702419309,3.853,1.0,0.039418646,0.007692205,0.979619824,-0.328501067,-0.263762984,-0.629009289,0.9846376541257504,0.004749004967330718,-0.03875645871023089,-0.17018834841963013,3.853,2.0,0.053113228,0.092915879,0.974182542,-0.368690883,-0.415678034,-0.184343955,0.984350951769359,0.07111732149729245,-0.06939192599721927,-0.14553450085874586,3.853,3.0,-0.116100213,0.010402494,0.973094306,0.431780971,0.370347286,-0.287707928,0.9834560717658251,0.02322477887526,0.1201042273463457,-0.13360291586138687,3.853,4.0,-0.135752812,0.078621635,0.96720774,0.769697803,0.098700292,-0.117888827,0.9859579949056764,0.10647172626867907,0.11224791426597988,-0.06285705632530754,3.854,5.0,0.109527247,0.065441173,0.971644603,-1.265515586,-1.447844736,2.478431539,0.8553492100398694,-0.061514537135486845,-0.22261517177742035,0.4637199326098543,3.854,6.0,0.080069211,0.063289673,0.974872986,-0.060698359,-1.297919646,1.978730397,0.9839900040167757,0.07413052111939915,-0.06310964297821281,0.14928332390724083,3.855,7.0,-0.540665101,-0.092245487,0.811698231,0.343028406,-2.066780651,1.25209997,0.9606003100103745,0.0742593944713758,0.2677737249609088,-0.005460674067984368,3.855,8.0,0.185091112,-0.21972023,0.937200779,1.137514246,6.229686153,1.728018849,0.9620538638408271,-0.031238603731192343,0.23256348901913862,-0.1392506239882106
55,3.871,0.0,-0.002070749,-0.027520737,0.978960837,-0.227368402,-0.07869016,-0.478793747,0.968080773751361,-0.027608453322341475,-0.009018788197350983,-0.24894989507442172,3.871,1.0,0.051029326,-0.018268683,0.978513292,-0.429113403,-0.164978667,-0.526300667,0.9794036685502142,-0.018475951239928932,-0.042185734451714044,-0.19658956499502034,3.871,2.0,0.074673618,0.068017735,0.97466427,-0.248767906,-0.312454708,-0.083588602,0.9838029015047064,0.05266950466272588,-0.08006498465417697,-0.15148390179101748,3.871,3.0,-0.120602551,0.027360413,0.972018226,0.174403922,-0.106966035,-0.532969425,0.9806366730282665,0.027741403295032847,0.10834399687446931,-0.16075978476142605,3.871,4.0,-0.120166614,0.123766946,0.964978097,0.637975624,-0.454798305,-0.771280862,0.9821766122980433,0.12799298381801125,0.08724555919002837,-0.10646647711707713,3.886,5.0,0.17702662,-0.011802267,0.96407587,-1.061527671,-0.733712035,0.029616034,0.846612548553258,-0.08027810958896944,-0.2647296427351408,0.4546656287980252,3.886,6.0,0.158904864,0.02448883,0.967099034,-0.632507406,-0.926494526,0.085040331,0.9813172848896003,0.04471589424834572,-0.11487423619952433,0.14771860084650587,3.887,7.0,-0.188953544,0.080972644,0.95831153,2.762689771,-4.880163339,1.467733374,0.9752958806757082,0.22001932520657377,-0.015807074066432475,0.01181431682735436,3.887,8.0,-0.248652035,-0.055370947,0.946802632,3.037901173,4.995471926,0.291594272,0.8856206316635614,0.14310016209184617,0.41485187660231587,-0.1519748691746719
56,3.947,0.0,0.000244114,-0.046690212,0.978545331,-0.259728238,0.191742955,-0.575688435,0.9602193477450108,-0.03697216079411385,0.003829351437551631,-0.2767619909054129,3.947,1.0,0.055174034,-0.044711142,0.977241393,-0.553023725,0.059482325,-0.835369002,0.9697133977293471,-0.04385515799404243,-0.03376388623953146,-0.2378921002629698,3.948,2.0,0.093648278,0.052292694,0.973366054,-0.497303166,-0.23550207,-0.664805273,0.9785561365597981,0.025841513991580158,-0.0840326450397837,-0.18627565145075278,3.948,3.0,-0.108110451,0.019453956,0.973578797,-0.251980485,-0.2945096,-1.256972892,0.9711800382419324,0.005397943520687231,0.09072977331112703,-0.2203367962031256,3.948,4.0,-0.104306509,0.132559361,0.964590156,-0.164181481,-0.260212623,-1.277763461,0.9765706697816374,0.10736448167140424,0.07800812978590155,-0.16940285323742646,3.912,5.0,0.225490435,-0.097118114,0.948665977,-1.310741906,-0.763572425,0.673017913,0.8199627780894396,-0.11718844328694253,-0.3087314382411822,0.46756048843904946,3.912,6.0,0.221328839,-0.030806003,0.954071033,-0.864662355,-0.991324309,0.423494245,0.9723736787051208,0.003214930992990764,-0.1692191633486277,0.1607605919862561,3.912,7.0,-0.25387088,0.145708424,0.935181069,-0.731159996,1.335299708,0.606502701,0.9826350755195524,0.1682080604667066,0.05834029105876089,0.05225674302796903,3.912,8.0,-0.348155024,-0.066193569,0.913470574,0.224950468,0.369120137,-1.856120495,0.8706618959235859,0.10404439643820086,0.4173256355297403,-0.23866700753614017
57,3.989,0.0,-0.019706381,-0.066104363,0.976081898,-0.355447546,0.376130687,-0.743876266,0.9484328049320753,-0.04801549440971514,0.026292761977214363,-0.3122153383369818,3.989,1.0,0.042715175,-0.079410842,0.975595886,-0.517883544,0.396700379,-1.200166208,0.9531214828049598,-0.06178077915158312,-0.010164186819417909,-0.2960392940969121,3.989,2.0,0.083075967,0.014833442,0.976017599,-0.61283298,0.158754777,-1.19715303,0.967051159180578,5.7991184361070146e-05,-0.0664228297887284,-0.24576423630662933,3.99,3.0,-0.072334677,-0.007334985,0.976962073,-0.199046106,-0.72246393,-1.824373566,0.9508292379264309,-0.020359499272165585,0.05106622395611367,-0.30479746039705385,3.99,4.0,-0.092803968,0.071122048,0.97296561,-1.097946375,-0.486023263,-1.472314432,0.968650717114144,0.03766398815875971,0.062466089882812346,-0.23747673537629732,3.99,5.0,0.279986296,-0.188848019,0.919859283,-1.282407754,-0.720773675,-0.596316431,0.8195283744700551,-0.13376170456830816,-0.3590129589211478,0.42613465613128915,3.989,6.0,0.305835724,-0.102541271,0.925198248,-1.3516863,-1.568425192,-0.528822456,0.958138705937263,-0.047425073430642985,-0.2550033129036666,0.12122043145905756,3.99,7.0,-0.272389152,0.052068979,0.93813537,-0.019068823,0.317091625,2.40475365,0.970805773153693,0.15830846324325692,0.06237372674643227,0.16906832787006676,3.99,8.0,-0.265159088,-0.168374864,0.926836859,-0.979870227,-1.804243836,-0.85772743,0.9091570338787249,0.006213371544328641,0.32050517375254084,-0.2658407706894196
58,4.037,0.0,-0.050112686,-0.092023099,0.974787396,-0.366979018,0.555308472,-0.677751254,0.935487228806503,-0.056244397784294665,0.05731214487302046,-0.34411557725256436,4.037,1.0,0.014368776,-0.10471468,0.974501603,-0.296700171,0.555832732,-0.886294124,0.9383501682483018,-0.06611519753004481,0.019249235099030888,-0.33875833473443745,4.037,2.0,0.063589019,-0.012526984,0.977932263,-0.198567594,0.402815676,-0.778069275,0.9581710821110627,-0.0033300677796859928,-0.04113650945547087,-0.28320465328895583,4.037,3.0,-0.035675482,-0.018159208,0.979184611,-0.011854786,-0.457878188,-0.736425541,0.9402100691979053,-0.028072308228792416,0.025589291619452167,-0.33847032284085465,4.037,4.0,-0.078964795,-0.023104947,0.975563797,-1.68858697,-0.004795585,-2.042690763,0.9411422679893714,-0.05229397478943007,0.07437616923437533,-0.32555300191299746,4.053,5.0,0.361665131,-0.23277732,0.880555536,-1.78857825,0.21443566,-5.518129203,0.9052661365409037,-0.10719354384288235,-0.3907350947172552,0.12778439633620253,4.053,6.0,0.390411371,-0.159141728,0.883999362,-0.694965613,-0.998668891,-1.533649153,0.9496690555622932,-0.0555786130567676,-0.3056121279178243,0.040508393545628046,4.053,7.0,-0.223466075,0.076316484,0.950488142,0.69258527,-0.897136454,1.954397226,0.9490839502007061,0.1909108550505352,0.012361467466014964,0.2502796336448167,4.054,8.0,-0.210756703,-0.207629817,0.934146386,-0.67751834,-1.011430964,-0.209453037,0.9257968073156059,-0.04928024236491931,0.26350410838863714,-0.266528261426429
59,4.112,0.0,-0.073908276,-0.10557016,0.971433738,-0.172101504,0.408980874,-0.653684203,0.9222313111739874,-0.057157003911897285,0.07690456000449016,-0.3745773274567471,4.112,1.0,-0.016084428,-0.105960078,0.974274988,0.179756968,0.48464781,-0.277241337,0.9335650726964202,-0.047972960916820226,0.038829983613234385,-0.35305393700509363,4.112,2.0,0.043806322,0.008522097,0.979189655,0.438736162,0.274303941,0.026860233,0.9589769017720067,0.021651564986640188,-0.0323642785967458,-0.28079719562756394,4.113,3.0,-0.015632261,0.002917816,0.979352908,0.534497173,-0.232308791,-0.656505851,0.9295269689122645,-0.0048010004159773365,0.003727035720600189,-0.3687040461732432,4.113,4.0,-0.076471998,-0.110746405,0.970294938,-0.74258552,-0.105887076,-0.352389818,0.9335160613002957,-0.08881759494340598,0.07803276913863853,-0.33848203063590754,4.123,5.0,0.269284733,-0.177406135,0.925387376,-0.139955392,3.656118841,-3.75038098,0.9779535145595842,-0.05834858034041074,-0.18812515026702575,-0.06936349450413305,4.123,6.0,0.497106579,-0.064798713,0.841909838,-1.06276628,-1.280692722,-4.4618717,0.9139581873286556,-0.030828732650409304,-0.3613949886661409,-0.1819991297371698,4.123,7.0,-0.259795545,0.107268018,0.938818858,-0.666332653,0.68692035,-2.56210085,0.9810885599298893,0.12999761801309848,0.06734238050489125,0.12661303516443734,4.124,8.0,-0.151224656,-0.169870991,0.953099129,1.037058862,-0.525494953,0.482816769,0.9436919554337355,-0.00206092780991642,0.20848547059898853,-0.25685609662870246
60,4.217,0.0,-0.086679664,-0.117003736,0.968092331,-0.006051406,0.000168729,-0.481708784,0.9132219451058933,-0.057461973339561954,0.0743084917577933,-0.39648713554113474,4.218,1.0,-0.036758357,-0.084775782,0.975177363,0.400168541,0.328197875,-0.214802575,0.9298854812591072,-0.022574456931065825,0.04617745313991343,-0.3642403443597337,4.218,2.0,0.00585948,0.027736894,0.978279271,0.316315924,0.613710405,-0.652055079,0.9496458858492691,0.04543811483712964,-0.0036192601977312064,-0.3099918872571117,4.218,3.0,-0.007644727,0.012968126,0.97978946,-0.260437253,-0.157299364,-0.036024352,0.9287697341593558,-0.01856337123629456,0.0009353979861295908,-0.37019090640980146,4.218,4.0,-0.050009389,-0.207878026,0.95657712,-0.264580332,-0.34549669,-0.44219883,0.9259154156568954,-0.10887018306804194,0.06234822991033394,-0.35628727807023625,4.197,5.0,-0.099435549,-0.015775481,0.974365797,2.596364719,5.584635945,-3.716202729,0.9583931382939221,0.12553384705179454,0.1295675076603018,-0.2212150688226313,4.196,6.0,0.538614598,0.00235364,0.818722649,-1.062389505,-0.17025199,-3.585331446,0.867638207219684,-0.016078899089579848,-0.34981072871551666,-0.3529558959023055,4.197,7.0,-0.227275673,-0.010140402,0.95241007,-1.286869332,-0.90705263,-2.195449265,0.9984885819705995,0.048157353882907136,0.023335054886104985,0.0125258195260909,4.197,8.0,-0.08663427,-0.169677178,0.961408424,0.050276481,-0.507855475,-0.358550573,0.9460307757023816,-0.016769194733161245,0.16953811486041678,-0.2756835017579538
61,4.247,0.0,-0.077591014,-0.114739026,0.969598159,0.071940905,-0.134738166,-0.377261372,0.9065360954141896,-0.05634479394523941,0.06425529482593777,-0.4133870208331359,4.247,1.0,-0.065809897,-0.07838573,0.974093289,-0.094441348,0.628636264,-0.038659821,0.9272762065469592,-0.015834969642388567,0.07697211129519221,-0.3660374087317664,4.248,2.0,-0.042164866,0.020267492,0.979212108,0.125940796,0.821898405,-0.309804878,0.9440445061156788,0.061262217200879515,0.036256485385508366,-0.3220440629540109,4.248,3.0,0.004068155,0.000976404,0.979705822,-0.073273874,-0.234680245,0.254363493,0.9333504727103525,-0.024478956581473237,-0.00865216122041599,-0.3580262782007205,4.248,4.0,-0.031185509,-0.212731559,0.956253495,0.069905946,-0.564848846,1.172057901,0.9475518747767637,-0.11047458788694868,0.03989179074205875,-0.2972363622937826,4.273,5.0,-0.370159934,0.026618588,0.906667565,1.23709444,2.681774926,-5.05090558,0.8482630903976556,0.16518053925132348,0.2726260192816778,-0.4228949899588394,4.273,6.0,0.47566711,0.041129652,0.854219616,-1.484318528,1.616854045,-4.622458604,0.8030006521973688,0.027269926120801435,-0.2370728981932609,-0.5461160541883144,4.274,7.0,-0.044987673,-0.063190815,0.976797333,-0.765312966,-2.471166987,-2.539512621,0.9879827922112915,0.00019512977949933248,-0.09966348627452243,-0.11814039835025775,4.274,8.0,-0.035418728,-0.170395164,0.963948651,0.05589748,-0.740091491,-1.452431406,0.9309828015242083,-0.04261341729060893,0.11845852548035085,-0.34266995443717263
62,4.321,0.0,-0.063220219,-0.110217598,0.971025378,0.112133079,-0.182774574,-0.434363132,0.8984595173005233,-0.05464447839332897,0.05138658672289296,-0.4326013123630144,4.322,1.0,-0.097930765,-0.069918277,0.972495758,0.21546312,0.330708553,0.19279473,0.9296775362278171,0.0010763557649959192,0.08665028643018108,-0.35803665727577483,4.322,2.0,-0.095522289,0.024345274,0.974927587,-0.105892323,0.857858363,0.319771256,0.9472781194235079,0.06720349401940387,0.07807453984050915,-0.3034010894537773,4.322,3.0,0.024701022,-0.00697494,0.979952657,-0.170279938,-0.299372477,0.072351516,0.9342431201425531,-0.03615544318103781,-0.019640620138139105,-0.35425530685549295,4.322,4.0,-0.01593167,-0.214548919,0.956120779,-0.185894876,-0.310957088,0.269659738,0.9510447247057613,-0.12258956697754518,0.029597299806984508,-0.28215196175418666,4.347,5.0,-0.417373694,-0.051572857,0.884851083,0.348149422,0.306749932,-2.826031728,0.7805037902872719,0.13775523311174792,0.2897841207574916,-0.5365281842124772,4.347,6.0,0.28119401,0.058660325,0.936723489,-1.176350165,4.067805658,-3.445606484,0.7546217730238274,0.1256137493096739,-0.018846822803460676,-0.6437483692662503,4.347,7.0,0.143896885,-0.126314799,0.960184492,-0.515333399,-2.494619026,-2.052657725,0.9519079810370007,-0.03577781102307809,-0.21456672020232123,-0.21575974244069934,4.348,8.0,0.011919273,-0.177741834,0.962485725,-0.143491518,-0.635725713,-2.380346451,0.8893339527257408,-0.07804195441513474,0.07397710771742007,-0.44443442870016403
63,4.382,0.0,-0.047640044,-0.106324435,0.972074864,0.045978906,-0.334643562,-0.653707723,0.8850710045163825,-0.059907349473950225,0.033018854561441664,-0.46040219557123924,4.382,1.0,-0.12155572,-0.068329181,0.970185719,0.014362834,0.344066518,-0.784968921,0.9136574090739088,0.0033690200738909454,0.10061519031698918,-0.3938214976681313,4.383,2.0,-0.1449845,0.018286297,0.967801687,0.070427019,0.570801749,-0.333602343,0.9396235892248562,0.07432183770904877,0.1040306420167094,-0.3174293630610429,4.383,3.0,0.044559128,-0.021009245,0.978651161,-0.25653612,-0.380211865,-0.493927986,0.924346966567121,-0.05245563745147032,-0.03374981379832415,-0.37642003342848285,4.383,4.0,0.001274571,-0.23486992,0.951537964,-0.454396879,-0.292210286,-0.421753156,0.9424172353110981,-0.14803080379987862,0.019502390718463988,-0.2992595737335948,4.408,5.0,-0.389448964,-0.093398184,0.893787046,1.820011992,-0.467536426,-1.590811527,0.7327238289053327,0.16250064372180237,0.22740639284648148,-0.6204801881098706,4.408,6.0,-0.04635157,-0.039934563,0.97779587,-1.955662325,4.870746398,0.227439563,0.7726640680286577,0.1914959613708662,0.2345343598647939,-0.5579544504696281,4.408,7.0,0.331293773,-0.132907398,0.91175987,-0.661220415,-1.899133606,-2.008959408,0.9027435200415934,-0.07060872134514286,-0.29279336167412284,-0.3071491378019537,4.408,8.0,0.094532161,-0.183492621,0.957685819,-0.146970295,-0.955765472,-1.55356988,0.8555424378682375,-0.11387370884859112,0.020127504010251172,-0.5046531472425954
64,4.463,0.0,-0.023790573,-0.10582218,0.973471456,0.083881278,-0.183041582,-0.908338694,0.8643245591608228,-0.060238350683093043,0.020673446518380455,-0.49888576462701545,4.463,1.0,-0.130741722,-0.074432815,0.967293832,0.083690747,0.003204461,-0.714385895,0.8993501510238001,0.0024254441435049134,0.09679678814211545,-0.4263728472587636,4.464,2.0,-0.156175375,0.020152489,0.96727097,0.142579984,-0.037004349,-0.209075177,0.936434706968368,0.07545658337551403,0.09768214764794178,-0.32841215209131136,4.464,3.0,0.075166463,-0.027041472,0.976700958,-0.060498004,-0.439617891,-0.717769021,0.9095034337855047,-0.059752627488943805,-0.054405755266695596,-0.40776603737241807,4.464,4.0,0.031185386,-0.25955004,0.944812282,-0.288886011,-0.290822337,-0.636273703,0.9308071073567254,-0.16480509650100097,0.005575449026342241,-0.3261998213206988,4.499,5.0,-0.500967189,0.128152736,0.831852602,-0.261148133,-0.02513023,0.977565263,0.7671707540673153,0.16878694685717174,0.219990132598902,-0.5784153717126979,4.498,6.0,-0.215215069,-0.221339887,0.930485964,-0.883065335,2.979624201,-3.129865081,0.659939853677097,0.18925472127301668,0.3817397452045195,-0.6188188805585307,4.499,7.0,0.414076464,-0.111860151,0.880566289,-0.108209527,-1.127955016,-0.838042427,0.875184046000814,-0.08515303058248133,-0.33380282160467634,-0.3396726708126823,4.499,8.0,0.175210294,-0.199825795,0.942056795,-0.475626819,-1.21229241,-1.294486393,0.8193541053195964,-0.16707730285165592,-0.03277269468369851,-0.5474212047874186
65,4.517,0.0,-0.012781664,-0.096538968,0.97474656,0.207229239,0.01891491,-0.918630057,0.8417023121772826,-0.04992017033440631,0.01491623026660498,-0.5374222737697367,4.517,1.0,-0.116963461,-0.069110637,0.970733881,0.234209134,-0.320147584,-0.706482504,0.8855316417564494,0.0016825454175771971,0.07492125383934402,-0.4584950231051431,4.518,2.0,-0.141742768,0.022173293,0.969640827,0.208158706,-0.447125658,-0.735604137,0.9255443071405798,0.07008246251932887,0.07283027731703723,-0.3648998967837815,4.518,3.0,0.096290912,-0.020071882,0.974917012,0.082805288,-0.204436477,-0.648203166,0.895853372292367,-0.05543759344470799,-0.06569109546256689,-0.43595652141283653,4.518,4.0,0.054704377,-0.266620745,0.941835341,-0.068130362,-0.055249347,-0.75375806,0.9179579197188569,-0.16640714353168481,-0.0008566163369142298,-0.3600849711047454,4.603,5.0,-0.478491839,0.160697817,0.84019984,0.891629595,-0.920004466,-2.199761091,0.7069128635658688,0.15376964899823328,0.1722217611502656,-0.6685572251934492,4.602,6.0,-0.340007104,-0.163116686,0.904737042,0.99389569,0.545114762,0.387121037,0.658505029067036,0.23438690585014482,0.34667737843299284,-0.6254987612635574,4.603,7.0,0.483566997,-0.082660109,0.848450509,-0.476669576,-0.757838602,-1.944770962,0.8288004011496517,-0.08905904584248156,-0.3546379969398913,-0.4235448884525286,4.603,8.0,0.298686817,-0.191558412,0.912932944,-0.566583419,-1.458216454,-2.598492059,0.7380838319815342,-0.22334721927834583,-0.10381753426216883,-0.6281482278792231
66,4.595,0.0,-0.007974726,-0.084712574,0.975761335,0.17772015,0.009237673,-0.774765323,0.8211527830392855,-0.04139174008485022,0.010052930418141405,-0.5691166570656602,4.595,1.0,-0.080025816,-0.061695772,0.974687386,0.144231667,-0.652377312,-0.82717717,0.8684104654390066,-0.01118043112207763,0.04040235647949448,-0.49407075512201326,4.595,2.0,-0.090813197,0.032760992,0.974939834,0.234331123,-1.066928595,-1.051768971,0.9079422691683406,0.05363207171896582,0.019306892520191365,-0.415200771485061,4.595,3.0,0.10294747,-0.002058881,0.974445781,0.266990479,-0.055592171,-0.875819475,0.8770179217887667,-0.03893427765785481,-0.07378310155638769,-0.47315931863305155,4.595,4.0,0.063687511,-0.258435356,0.942976706,0.292677027,0.094536729,-0.674607269,0.9083516395908203,-0.14828641297917272,-0.0050187534436788184,-0.39100287811256623,4.636,5.0,-0.437979571,0.138384559,0.865317057,0.885741581,-0.431893844,0.070575194,0.707320223912881,0.17679918564395367,0.12158309942739144,-0.6735411633546207,4.636,6.0,-0.219947385,-0.13687896,0.945249331,0.228314418,-1.617346661,-2.446287156,0.6154878911939384,0.13013315902258402,0.28796085874438093,-0.7220239335005731,4.637,7.0,0.489902877,-0.051152278,0.846996821,0.175501833,0.819980284,0.014201526,0.8492083790879785,-0.06927003173377712,-0.3105046211173974,-0.42146609810886504,4.637,8.0,0.471626547,-0.15955621,0.843559255,-1.111249054,-2.378268805,-3.523318233,0.6016632040562565,-0.3136198325492374,-0.19845764413820233,-0.7072895821370923
67,4.652,0.0,-0.012623169,-0.067572363,0.977375379,0.285287456,0.144592705,-0.695697084,0.8017576870919825,-0.024524200823078667,0.008320975034934973,-0.5970878797441563,4.652,1.0,-0.017421357,-0.041247075,0.979218655,0.395698567,-0.947349962,-0.847312188,0.8487312299476822,-0.019749804813661568,-0.01263004866250125,-0.528304577296184,4.652,2.0,-0.007421055,0.063093169,0.977530143,0.793651603,-1.455533978,-0.298089977,0.8991089422962131,0.05649375626464192,-0.06465713766592489,-0.4292214113193165,4.652,3.0,0.092906141,0.025987434,0.975204646,0.462830025,0.27880144,-0.718446032,0.8617053710786227,-0.006952517948532824,-0.07040824778251888,-0.5024521813990103,4.653,4.0,0.056670907,-0.224379335,0.951097956,0.527222367,0.481522166,-0.946508518,0.8932846493456441,-0.11188559488302983,0.003178452830471553,-0.43533211039240444,4.693,5.0,-0.402407108,0.148807257,0.886196886,-1.020632133,-0.327397275,4.310294413,0.8577710430224594,0.149628944257131,0.10645951032072697,-0.4801108095585119,4.693,6.0,-0.086064495,-0.129677739,0.983882405,-1.30901449,-4.423624983,-3.996555102,0.555781655085704,-0.13850425869738273,0.1709961440444683,-0.8016755209651892,4.694,7.0,0.499844546,-0.016826542,0.874869874,0.586271991,3.901019705,0.77050172,0.9194485775063772,0.022656852142438542,-0.13239828779596494,-0.36955604955296295,4.694,8.0,0.623086836,-0.098254477,0.789191265,-1.544910037,-2.370355692,-5.707841107,0.3599736180942799,-0.3719839401786721,-0.293893844666555,-0.803538020626513
68,4.758,0.0,-0.000466764,-0.054336978,0.978398321,0.256803133,-0.15299194,-0.912937182,0.7746731663669261,-0.01926630723106648,-0.0053306259505238405,-0.63204578880307,4.759,1.0,0.030349955,-0.021757883,0.978948147,0.347922532,-0.625061817,-1.602520954,0.8052491351568329,-0.02097474063913406,-0.048127718300864604,-0.5906078337741943,4.759,2.0,0.074207511,0.093473017,0.972253589,0.135694013,-1.294266772,-1.219258971,0.8667206770632064,0.03560914689647902,-0.12034094578139713,-0.4827476705037953,4.759,3.0,0.076715437,0.04394975,0.974739535,-0.032331856,0.236570895,-1.531642797,0.8231286819760769,0.003730902308457269,-0.057064408952870585,-0.5649680579529701,4.759,4.0,0.035987824,-0.17113682,0.964229778,1.081302126,0.420605901,-0.468086847,0.8882660716208391,-0.05216765597186462,-0.0010643147525519869,-0.45635598923624415,4.751,5.0,-0.360422624,0.19361272,0.89029245,-1.333271917,-1.11209331,3.130916538,0.938732923513331,0.07879889106940323,0.07362656671296994,-0.3273382986337033,4.751,6.0,-0.124118635,-0.092949106,0.967272468,-0.252434505,-2.376097584,0.095162281,0.5825949263611435,-0.22453558381849123,0.10465781661641835,-0.7740889256400889,4.751,7.0,0.278962748,-0.047639884,0.938609731,-0.579964069,5.352856429,-2.381191149,0.8870113660147412,0.09844378513820289,0.1312687130505245,-0.43161114756501057,4.751,8.0,0.592265012,-0.013609298,0.781054378,-0.826548115,-0.878667771,-4.892292054,0.14509696369583866,-0.3392337531664405,-0.344239883494043,-0.8633459529359403
69,4.813,0.0,0.012392515,-0.041919197,0.977736778,0.085417785,-0.157242193,-1.3566336,0.7316293860875402,-0.02083328023784538,-0.013839980443195468,-0.6812436207327245,4.813,1.0,0.052900519,0.002691932,0.978124373,0.293850366,-0.376447094,-1.603513488,0.7568759615669367,-0.01643346364909635,-0.06989533757557499,-0.6496024644810203,4.813,2.0,0.112672857,0.106415043,0.967903748,-0.029887783,-0.257157771,-1.394141013,0.8311472340623827,0.035028278083883146,-0.12350636578400115,-0.5410300108642379,4.813,3.0,0.045249198,0.023029931,0.978377807,-0.753115694,0.503197921,-1.585874168,0.7790780061324899,-0.007502514395644755,-0.013703431391306918,-0.6267323101663669,4.813,4.0,0.001812518,-0.106549837,0.97415802,1.050219332,1.014242184,-1.370142191,0.8574397658326175,0.01650485007206527,0.022068912266939696,-0.5138458922715633,4.781,5.0,-0.298794019,0.210876476,0.90910409,0.450031146,-0.426425751,1.955478314,0.9654982635789732,0.10809533585514239,0.03871549128877824,-0.2337297844234242,4.781,6.0,-0.021673103,-0.036147922,0.979419014,1.44644855,-0.007957353,-2.642400064,0.5015490894689246,-0.18355321830298363,0.015473214649472216,-0.845291255445081,4.781,7.0,-0.050886713,-0.076630375,0.975540531,-0.713327187,5.52616916,-1.599079905,0.8060787442582555,0.1632687511811213,0.3719946656000598,-0.43034909283962797,4.781,8.0,0.691446894,0.058882728,0.691847538,-0.642124473,-1.320957139,-1.784534983,0.04448959860542648,-0.3704879345680995,-0.3346128090110991,-0.865328627748495
70,4.849,0.0,0.028784042,-0.040834785,0.97811349,-0.036978615,-0.301842719,-1.19888716,0.6905666404471574,-0.031944458337804994,-0.023227918121672096,-0.7221895391812065,4.85,1.0,0.066336952,0.014696789,0.9775364,-0.129471399,-0.029584809,-1.260165771,0.7158472568206548,-0.017510280763687037,-0.06404130131543026,-0.6950933798388145,4.85,2.0,0.092229997,0.108583411,0.969448952,-0.206864387,0.040225184,-2.425017108,0.7650047188275415,0.04191720198330252,-0.1059352436955662,-0.6338678509694636,4.85,3.0,-0.010598224,-0.017098429,0.97926111,-0.461829177,0.984864186,-1.84857061,0.7211968393527664,0.00843048895550542,0.03927827730588913,-0.6915643590407423,4.85,4.0,-0.063287337,-0.057730765,0.976083435,0.798447558,0.946882609,-1.055797643,0.8273815933246226,0.07022644619279016,0.04650662419601457,-0.555288284757234,4.891,5.0,-0.118910194,0.178364287,0.956324499,-0.262819011,-2.339706224,-0.187295933,0.9633274652735628,0.06676106745732868,-0.0706361066965402,-0.2501073668493705,4.891,6.0,0.028819421,0.004831248,0.979880146,-0.181028868,-0.921897207,0.358102028,0.5173242612970596,-0.2101369232088209,0.0007999104737381397,-0.829588718776368,4.893,7.0,-0.35015648,-0.135396203,0.904878062,-0.655470429,2.878543164,0.104538242,0.764487426803518,0.18878694990643122,0.4785435594709934,-0.38847718529302844,4.893,8.0,0.67346828,0.035306257,0.711080828,-0.758053976,1.649879476,0.851780088,0.10585183027899829,-0.3202274611145268,-0.2577424117077498,-0.9054383537170287
71,4.936,0.0,0.060144185,-0.005686937,0.977701046,-0.019462577,-0.240731883,-1.005105269,0.6540629139285201,-0.0393461808986971,-0.03199878839514725,-0.7547381401607202,4.936,1.0,0.060292147,0.000174428,0.978285657,-0.321176188,0.175190569,-1.178355409,0.6754561713622365,-0.01875234993524989,-0.0440007891938674,-0.7358472942743568,4.936,2.0,0.060246013,0.080845499,0.97352731,-0.449072011,0.366184202,-1.003206084,0.7364308997338254,0.03949148937307793,-0.07072530926017466,-0.6716456527175451,4.936,3.0,-0.058004418,-0.015275132,0.977735219,0.418129839,0.717382573,-0.636310702,0.6976435609681279,0.047182779420385,0.05010345137485575,-0.7131317489259644,4.937,4.0,-0.103714538,-0.00401229,0.973854813,0.955126606,0.29955996,0.035482501,0.8241439792440666,0.1137457210152348,0.03201161940858395,-0.5539168427203852,4.961,5.0,0.015570361,0.12687339,0.971213008,-0.586307002,-1.325019424,4.085695113,0.9911404119387133,0.005303446060522686,-0.12403701857953904,-0.047195077113399334,4.961,6.0,0.042650043,0.030268741,0.978252921,0.254844475,-0.2313125,2.338643999,0.6202650405860132,-0.19183169498805658,0.004555413729078398,-0.7605597467856143,4.961,7.0,-0.422392473,-0.18913226,0.863751461,-0.467572628,0.646039674,0.097555969,0.766429025166969,0.1707462906732119,0.49104363700689846,-0.37723785621009204,4.962,8.0,0.496446556,-0.117405645,0.836903657,-1.49167777,4.19710808,2.178714592,0.24926808786874616,-0.18015355720848555,-0.0984464818691754,-0.946424009840711
72,4.982,0.0,0.079409809,0.011645091,0.976140089,-0.050187725,-0.238391551,-0.728948105,0.6261619378907117,-0.047517636712368395,-0.03923930638263841,-0.7772538700918956,4.982,1.0,0.066503661,-0.008647846,0.977521088,-0.076068923,-0.258734028,-0.327297925,0.6629116000912041,-0.03096698708575071,-0.047871113435953065,-0.7465236852731149,4.982,2.0,0.058291746,0.07266898,0.974678558,-0.144172601,-0.321430208,-0.686562792,0.7127783941435135,0.022877943916838825,-0.0741748110987056,-0.6970808116157002,4.983,3.0,-0.093359382,-0.000427426,0.975845194,0.272618139,0.448100919,-0.163870114,0.6901533101876498,0.07083133068091099,0.05478268945278939,-0.7181017949896243,4.983,4.0,-0.108205831,0.056342197,0.972383697,1.071344044,-0.050626746,0.105928463,0.8211669069483057,0.15060154819529661,-0.0007362293021856622,-0.5504575756409813,4.992,5.0,0.136029765,0.048738242,0.968882597,-0.920408095,-1.217424793,2.372688685,0.9819367276232382,-0.055775068020237246,-0.1687972428939618,0.06478345099870224,4.991,6.0,0.085708965,0.029510144,0.975939099,0.271082848,-1.198438573,2.055154447,0.7031585957118328,-0.2102519680465183,-0.0297735363530339,-0.6785835510400793,4.992,7.0,-0.398559932,-0.13859502,0.88460805,1.317303905,-2.458740518,1.581298398,0.8519050066807331,0.20610621412032093,0.3158519035149062,-0.36333959753830736,4.992,8.0,0.153368105,-0.255953481,0.932750792,-0.77038858,5.551123773,3.201737439,0.44247321250823646,0.05581382783026383,0.07035967985711455,-0.8922733820337684
73,5.056,0.0,0.08813444,0.025758326,0.975304993,-0.138029595,-0.212070647,-0.505048323,0.6058486808004768,-0.0569134270461344,-0.04169976336150824,-0.7924451826655144,5.056,1.0,0.079001034,-0.023293319,0.975996034,-0.350685357,-0.155840355,-0.416663907,0.6466575551619994,-0.047794144355894436,-0.03784893601656489,-0.7603401766049244,5.057,2.0,0.081971758,0.064053016,0.974529549,-0.069678349,-0.416662635,-0.087628236,0.7085297607202176,0.003362725308193241,-0.08435537403932596,-0.7006129039083838,5.057,3.0,-0.109414682,0.015430473,0.973246283,0.226262963,0.138719017,-0.305833948,0.6782175922097711,0.08015180408321786,0.05046261574452048,-0.7287318507733878,5.057,4.0,-0.107678342,0.103996805,0.968169427,0.619189627,-0.171699019,-0.439471065,0.8050884855364978,0.16341368663456157,-0.019380241153672276,-0.5698709535762243,5.069,5.0,0.18639106,-0.008335686,0.96200462,-0.734221794,-0.628898,0.607433752,0.9732910148854212,-0.08891592468849648,-0.19180596956517973,0.08949317694247813,5.069,6.0,0.148662468,-0.0006126,0.9688344,-0.552313258,-0.925832789,0.465947995,0.7133085272427184,-0.24669881200536226,-0.04070721946588961,-0.6547316728258401,5.069,7.0,-0.120825963,0.037814402,0.971949668,2.394397406,-2.968566549,1.922564998,0.9013203659961516,0.2722292139485431,0.0817243194650338,-0.3268546902241098,5.07,8.0,-0.247765782,-0.204787538,0.92606867,2.254910057,5.592377326,2.639273963,0.5458778598301415,0.3840264869078116,0.08001615274026636,-0.7403637179124564
74,5.164,0.0,0.086943778,0.047585329,0.974899695,-0.210324044,0.015973402,-0.263779483,0.5948273174054213,-0.05839134574511929,-0.034149988033330504,-0.8010023043210721,5.164,1.0,0.085676636,-0.043463925,0.975232486,-0.446691928,-0.07091618,-0.56174522,0.624350581485791,-0.06332755074907107,-0.022264200787607782,-0.7782546357573257,5.164,2.0,0.106628483,0.055011336,0.973014964,-0.268452829,-0.42493048,-0.403726093,0.6929135084238881,-0.021225318279449266,-0.08752204443656836,-0.7153742009922345,5.164,3.0,-0.102337313,0.021502238,0.974268304,-0.017782544,-0.15627847,-0.433795245,0.663168784374657,0.0693563897061006,0.04521482789299568,-0.7438766523937835,5.164,4.0,-0.092141908,0.123271928,0.967871324,-0.039757888,-0.242888073,-0.651806407,0.7874591354571507,0.14729057360149797,-0.020844426596555204,-0.5981463924434212,5.172,5.0,0.231271689,-0.086893815,0.948463953,-1.001979823,-0.663168756,0.893507319,0.9587798640275175,-0.1370656079560506,-0.21493805468624658,0.1255222056000673,5.172,6.0,0.216544643,-0.056769785,0.953074294,-0.551411693,-0.977519402,1.339062746,0.7496746781472049,-0.28699206697982094,-0.04189341789993772,-0.5948683652474684,5.172,7.0,-0.217751773,0.062624984,0.95311294,-1.631005712,0.064526031,-1.843552219,0.8918894582403499,0.1723574942021921,0.12736608764533217,-0.39825113708563115,5.173,8.0,-0.354131795,-0.07228369,0.910608994,0.562415184,0.739677033,-1.836018435,0.4667044543011317,0.3960199953131285,0.11986273433420125,-0.7816572398216505
75,5.196,0.0,0.07867906,0.031072144,0.975904261,-0.279701693,0.183771442,-0.075148619,0.5913500774569828,-0.05563586033320723,-0.017988011294906472,-0.8042923401265603,5.196,1.0,0.091172124,-0.069939301,0.973543085,-0.483503663,0.013515288,-0.781561596,0.5927541702508283,-0.07577713849441002,-0.003970231293690562,-0.8018008207749139,5.196,2.0,0.123974166,0.027958553,0.971886169,-0.496588536,-0.30438299,-0.436025705,0.6757924558440614,-0.04835250854463266,-0.07781032121932259,-0.7313768833190172,5.196,3.0,-0.079592024,0.008674621,0.97711507,-0.245768645,-0.493065775,-0.843429051,0.6341119375610874,0.03775176887682416,0.0383018405436982,-0.7713687986949949,5.197,4.0,-0.082636894,0.08937588,0.972311214,-0.820905692,-0.289908069,-0.919024003,0.766053950864461,0.09977106836841863,-0.0001218491277194584,-0.6349858765629076,5.248,5.0,0.25855157,-0.156919018,0.932392893,-1.072899399,-0.491424639,0.319669855,0.9458759949863726,-0.18092761193117515,-0.23485978118235093,0.13200259290028932,5.248,6.0,0.292118609,-0.123440341,0.927449837,-1.097479954,-1.481317539,0.231404584,0.7392127806163183,-0.35827407280312723,-0.06357774821358644,-0.5667115877257496,5.248,7.0,-0.222123672,0.020815116,0.954462574,0.211793698,0.025523715,2.540663691,0.9367531417238784,0.18617604933802964,0.0969456461219532,-0.28005994326451633,5.248,8.0,-0.278581901,-0.172655279,0.923444789,-1.245711529,-1.792490952,0.414650774,0.5221726115030929,0.26902394142936253,0.11750207229753593,-0.8007216406090418
76,5.252,0.0,0.058602085,0.016548868,0.978137992,-0.24525403,0.462028647,-0.052019868,0.5890900209295449,-0.040597512423246204,0.004721616467489729,-0.8070331440307806,5.252,1.0,0.08689378,-0.094170875,0.971192214,-0.379286308,0.195862578,-0.727972792,0.5625159603407679,-0.07731553318541833,0.015497879376284938,-0.823017568721954,5.252,2.0,0.140680067,0.00661416,0.968520197,-0.135362798,-0.212881268,-0.355469589,0.6618905061047785,-0.059427939685777594,-0.07835177418406485,-0.7431219801588923,5.252,3.0,-0.039754781,-0.014141373,0.979649723,-0.336543761,-0.629407704,-0.858437758,0.6031659412682827,-0.0009714980562817695,0.03039606415831019,-0.7970357474851157,5.252,4.0,-0.068918839,0.002755552,0.97738406,-1.543042205,-0.166783221,-1.005017637,0.7416479721740498,0.029809970742047064,0.04678821563626698,-0.6684912220007473,5.286,5.0,0.301913495,-0.232395395,0.902659749,-1.863697399,-0.817836428,-1.674274864,0.9255389096397322,-0.232957838103443,-0.2964272275477641,0.035203283616903364,5.286,6.0,0.367481505,-0.203556528,0.885882658,-1.108749978,-1.009048326,0.404660218,0.730567025805055,-0.4137274396496581,-0.06298165929324957,-0.5395690290222038,5.286,7.0,-0.16475369,0.091574074,0.961307657,0.734367411,-1.507870272,2.034129134,0.9602988590651387,0.19714732470674742,-0.009522264218319261,-0.1971506026450891,5.286,8.0,-0.252367228,-0.18947538,0.927902938,-0.692738829,-1.183433226,0.721588627,0.5682654526768189,0.1863196594585873,0.10747300570155903,-0.7942347970460113
77,5.312,0.0,0.072433921,0.059394501,0.974986472,-0.344943824,1.099208384,-0.394597467,0.5724641556227518,-0.0034649367020684447,0.044974707547141765,-0.8186880116514652,5.312,1.0,0.199734722,-0.132294974,0.958445659,-0.179242982,-0.849157023,-1.291365821,0.5096862008281654,-0.12241400565997468,-0.008108876370553885,-0.8515685727101711,5.312,2.0,0.251294612,-0.079981852,0.958197746,3.279634429,-6.821568265,2.076296154,0.7141006263581826,-0.2067598740325222,-0.4177571669060792,-0.522292637726699,5.312,3.0,-0.129604035,-0.17538889,0.982539328,-1.227033681,-2.395125847,-1.928051658,0.5322529959310603,-0.13203750262762048,0.010732268078041136,-0.8361564833475686,5.312,4.0,-0.165347633,0.242998891,1.026226924,-0.190840885,-1.352117212,10.02887258,0.992804061122866,0.011613669134603162,-0.029178693876006256,-0.11555874147318551,5.351,5.0,0.341266343,-0.209233459,0.894360466,0.246840202,1.988374708,-4.436089012,0.9477875497656036,-0.14216789032562288,-0.21448908423943566,-0.1883652946054637,5.351,6.0,0.423040335,-0.230097939,0.85409005,-0.595151689,-0.605052716,-3.163688126,0.6330164199714214,-0.42206360804668447,-0.1373830513763814,-0.6342542234811638,5.351,7.0,-0.185867477,0.098079555,0.956629333,-0.465491033,0.859304946,-1.406749765,0.9497445684700149,0.17117714147048485,0.056815091155995125,-0.25584308924931864,5.351,8.0,-0.156372895,-0.189618636,0.948568548,2.25524608,0.673537631,1.005096423,0.5843077757278368,0.26756733477378475,0.02630927150611267,-0.7657022703498136
78,5.372,0.0,0.030209223,0.002827212,0.978887333,-0.214714592,0.326555201,-0.10179341,0.5676425298930787,0.0027256239291357253,0.057583782984005454,-0.8212543072447371,5.373,1.0,0.07827264,-0.09795996,0.972340599,0.079501265,0.255758729,-0.285498377,0.4988675999070112,-0.1032603247430599,-0.0036532933706040598,-0.8604969939195165,5.373,2.0,0.160323209,0.021411064,0.966240154,0.630374181,-0.539169104,0.480791216,0.7353577686420738,-0.19391021351538343,-0.41984185182670064,-0.4953590623445737,5.373,3.0,-0.002606233,-0.009045814,0.97979354,0.414316929,-0.625192271,0.104666638,0.5408183724419912,-0.13404918806178498,-0.023304222793273942,-0.8300621762308974,5.373,4.0,-0.05689817,-0.117115643,0.971434261,-1.519550338,-0.33210049,-0.354655383,0.9878523555935722,-0.07158683262639687,-0.03155725393848582,-0.13426536659396862,5.457,5.0,0.035739961,0.018208002,0.979024578,3.421655837,5.547177478,-3.923796156,0.9312126028341333,0.1282224373097768,0.07205516420905674,-0.3334818558842815,5.457,6.0,0.524300129,-0.149773441,0.813984823,-1.027691607,-1.062818082,-2.098460209,0.5413525089920843,-0.45488929950677043,-0.18265553143955215,-0.6831179568981844,5.457,7.0,-0.176430943,0.00681587,0.963692724,-0.568361752,-1.106413167,-5.622705647,0.861228587464885,0.09967455681871855,0.045317006082999364,-0.49628285464632427,5.458,8.0,-0.113222672,-0.158302759,0.960584126,0.974581123,-0.882763782,-0.052143141,0.5726863539094345,0.2372518548469519,-0.028463554647271752,-0.7841758243368898
79,5.387,0.0,0.020649944,-0.009771916,0.979826561,-0.090304162,0.097545729,0.025009271,0.5685435350162353,0.0028200521399531116,0.058132626055224366,-0.8205917949169942,5.387,1.0,0.056146165,-0.092079481,0.974540393,0.261169776,0.312410993,0.318705943,0.5146469694116637,-0.07772527586103976,-0.0025577131967224986,-0.8538681025023237,5.387,2.0,0.143456113,0.040470413,0.968738607,0.013418881,0.883646548,-0.016777715,0.7667689260201684,-0.15705956585038897,-0.35617934721041394,-0.5104252927564703,5.387,3.0,0.022798231,0.022025336,0.979349848,0.584941974,-0.17823741,0.489611886,0.5658759406357211,-0.11254787322939248,-0.04887244021668368,-0.8153090706158279,5.388,4.0,-0.032071715,-0.202658353,0.957574539,-1.721076676,-0.165648688,-2.353866727,0.9558353177361418,-0.15337850801839883,-0.03975242363519139,-0.24753509541361374,5.487,5.0,-0.266276167,0.13564948,0.93311426,0.655795127,2.609063443,-4.126978555,0.8318430877994196,0.17974927049495673,0.20863114052841347,-0.48187168856311885,5.487,6.0,0.551462083,-0.094477417,0.804311251,-0.34317841,1.054316122,-3.054627439,0.4448755315807973,-0.382746115168452,-0.20414041578085476,-0.7835291081823195,5.487,7.0,0.00010166,-0.07904931,0.976118946,-0.68107019,-2.470905603,-1.275574337,0.8349639341007168,-0.006109324534603923,-0.04398765573965847,-0.5485097912046003,5.487,8.0,-0.06421593,-0.137359389,0.968115031,0.176358447,-0.492282578,-0.701873121,0.544664718402142,0.201150472394751,-0.031473981644772324,-0.8135651298222586
