,timestamp,node,accx,accy,accz,gyrox,gyroy,gyroz,q0,q1,q2,q3,timestamp,node,accx,accy,accz,gyrox,gyroy,gyroz,q0,q1,q2,q3,timestamp,node,accx,accy,accz,gyrox,gyroy,gyroz,q0,q1,q2,q3,timestamp,node,accx,accy,accz,gyrox,gyroy,gyroz,q0,q1,q2,q3,timestamp,node,accx,accy,accz,gyrox,gyroy,gyroz,q0,q1,q2,q3,timestamp,node,accx,accy,accz,gyrox,gyroy,gyroz,q0,q1,q2,q3,timestamp,node,accx,accy,accz,gyrox,gyroy,gyroz,q0,q1,q2,q3,timestamp,node,accx,accy,accz,gyrox,gyroy,gyroz,q0,q1,q2,q3,timestamp,node,accx,accy,accz,gyrox,gyroy,gyroz,q0,q1,q2,q3
0,0.0240000000003419,0.0,-1.1978591972061183e-16,-5.284041958324647e-17,1.0000000000000002,0.0044884149411816,-0.0186959030673928,0.0339609115787549,0.9999980958662729,0.00022442031973196383,-0.000935174449326399,0.001698042431153233,0.0240000000003419,1.0,3.668232957844574e-17,-2.9686077458903637e-17,1.0000000000000002,0.0158976225875714,-0.008101989860373,0.0617955779807325,0.9999948276985273,0.0007948770180137325,-0.0004075533919595355,0.003089764869992149,0.0250000000005456,2.0,-1.3576898793832311e-16,-2.8741631096300784e-17,1.0,0.0178787954162902,-0.0049246252018051,0.0582412793842674,0.9999953294442107,0.0008939355956189368,-0.00024883330769221004,0.0029120526953580407,0.0259999999998399,3.0,-2.676974329978928e-17,8.473307273816437e-17,1.0,0.0053202960712333,0.0019651425251978,0.0084931542494557,0.9999998696348503,0.00026601476888260956,9.814414822734873e-05,0.00042465768716264037,0.0259999999998399,4.0,1.090779548992554e-16,-2.0686986225023545e-17,1.0000000000000002,0.0286487231142203,-0.0016201907844761,-0.0263031103721533,0.9999981061177069,0.0014324334428455427,-7.912551305388207e-05,-0.0013151557263853518,0.0,5.0,0.0,0.0,1.0,-0.0436529349581821,-0.0464367047027584,0.0136829469769593,0.9999946920443623,-0.0021826351625169947,-0.002320329666879556,0.0006841469766484791,0.0,6.0,3.7506237837228304e-17,-2.085551803762156e-17,1.0,-0.0109463993249841,0.0013994442638847,0.0035901613972036,0.9999998316539517,-0.0005473198741100526,7.007044974888515e-05,0.00017950809341398078,0.0,7.0,9.350962360146873e-18,5.4717889341226365e-17,1.0,-0.0179496193641515,-0.0069696956270451,0.0315472725144022,0.999998292999829,-0.000897479436207406,-0.00034706853507116876,0.0015773622036803364,0.0,8.0,7.028200971988354e-17,-7.875463024065441e-17,1.0,-0.0071102035484862,-0.0188524833326639,0.0078165700565965,0.9999994162940914,-0.00035550996991092284,-0.0009424846729886214,0.0003908283240967219
1,0.11200000000008,0.0,-1.3819953650266852e-16,-2.4948161073972658e-17,0.9784630805503088,0.0094309988781885,-0.0114289936395317,0.0282425798120657,0.9999939372337695,0.0006731749734375848,-0.0014132524619626101,0.00311047402140233,0.11200000000008,1.0,3.707275569763757e-17,-2.6851863333418658e-17,0.9799454066426356,0.0069798725454136,-0.0045066834616392,0.046844753400477,0.9999845046748692,0.0010641178391806907,-0.0005935421611771096,0.005431921490911671,0.1130000000002837,2.0,-0.0002536208574433,0.0022012967271623,0.980467791398157,0.02258455446584,-0.0166518404125493,0.0726413413379353,0.9999759463340554,0.0020474752695595704,-0.0010474085186693018,0.00654351081040347,0.1130000000002837,3.0,0.0009410223769016,-2.2971789911168784e-05,0.9802184011480212,0.0209486740770693,-0.0179698812006058,0.0373886748475075,0.999996172203653,0.001286256021416682,-0.0008601218491716079,0.0022937554128274755,0.1130000000002837,4.0,0.0007643687044588,0.0011859751090586,0.979926022311646,0.0187811410233878,-0.0241119627535502,0.0229082125582837,0.9999964992075987,0.0022870274735949723,-0.0013197421923848468,-0.0001713430126335578,0.0760000000000218,5.0,0.0039914941332289,-0.0029692965926289,0.9786829166039066,-0.0519816983145586,-0.0577356300821954,-0.034412752370464,0.9999749132445364,-0.0047089639543164774,-0.005188890372444253,-0.0010363188515061365,0.0760000000000218,6.0,-0.0008389712426114,0.0005421462335218,0.9796269709459392,0.0041863876919379,0.008252549413891,0.0204843364237729,0.9999991085306174,-0.0002556073948572685,0.0005188156919047595,0.001203508665473107,0.0760000000000218,7.0,0.0021725832550603,-0.0005287192193583,0.979108267934648,-0.009822863043688,-0.0164601611804815,0.0418803131396379,0.9999916066027698,-0.0013251222413250146,-0.00124435057654985,0.0036718342418569205,0.0770000000002255,8.0,0.0006438703167724,-0.0007650795650582,0.9803718682644226,-0.0222829080253838,-0.0232291075529011,0.0308514805764017,0.9999949634410641,-0.001474104819718382,-0.0020406985363530805,0.0019327847704535437
2,0.1480000000001382,0.0,-1.3819953650266852e-16,-2.4948161073972658e-17,0.9784630805503088,0.0010633255601034,-0.0128340275849701,0.0201354558868045,0.9999894761393958,0.0006595964037472943,-0.001914120617833264,0.00411687810132895,0.1480000000001382,1.0,0.0007365415067251,0.0006730308264346,0.9798780559519208,0.0031137055438717,-0.0093077828145545,0.0213727473131521,0.999977674696698,0.001149827573720365,-0.0010373457571317107,0.0065001475764718064,0.1480000000001382,2.0,0.0005521039809324,0.0027706481588737,0.9803045540493904,0.0048537566967704,-0.0110206341718914,0.0122490449090245,0.9999707603102357,0.0022298689445521174,-0.0015206956116629365,0.007154976863435152,0.1480000000001382,3.0,0.0009654266300092,0.0009767303819531,0.9802184011480212,0.0174340617838947,-0.0135194611223273,0.0236689093695117,0.9999906676157876,0.0020797918026131818,-0.0014996685239170066,0.003477088107563542,0.1490000000003419,4.0,0.0020661517239577,0.0011455750114866,0.9804771382724567,-0.0203989114615899,-0.0142134879363938,-0.0237965254497139,0.9999964620673333,0.0010982293264534529,-0.002002330346984907,-0.00136397153358709,0.1350000000002182,5.0,0.0070235167554189,-0.0063772649488437,0.9797749745243336,-0.0363446823175973,-0.0397257186638311,0.0063439538838939,0.999954785519904,-0.006384718739132986,-0.0070103526451182445,-0.0007191927807240665,0.1350000000002182,6.0,3.854110626891544e-17,-7.56657207871195e-18,0.9796739253445508,-0.0093869328180177,-0.0180641144910105,0.0037562010172013,0.9999986923556505,-0.0006982081014271222,-0.0004367044106284872,0.00139179082266248,0.136000000000422,7.0,0.0033772200585607,-0.0012463900912855,0.979292112138363,-0.0188401273210259,-0.0196773275550628,-0.0008321194085946,0.9999884049015982,-0.0021939438481564707,-0.002279982886528301,0.0036301998272212175,0.136000000000422,8.0,0.0019316109503172,-0.0022952386951746,0.9803535080563892,-0.0176006968119866,-0.0332158074953904,-0.0062088208553046,0.9999895173152762,-0.002319745035846901,-0.003598561880543637,0.0016230819207206765
3,0.2160000000003492,0.0,0.0005054640713518,0.000824150727365,0.9782075778083356,0.0070503128011976,0.0014760887069759,0.0187089944999989,0.9999853460471665,0.0009862842392170188,-0.0016740393154322949,0.005052972065894711,0.2160000000003492,1.0,0.0007365415067251,0.0006730308264346,0.9798780559519208,0.0011676656610263,-0.0011216625813493,-0.0139876341279299,0.9999820118788758,0.0011289027180621883,-0.0010258830975962815,0.005800781085242369,0.2160000000003492,2.0,0.0005521039809324,0.0027706481588737,0.9803045540493904,-0.0031802842282461,-0.0034782565148111,-0.0085837688455362,0.9999741717439526,0.00199128181086074,-0.0015699653784546914,0.006725016762508804,0.2160000000003492,3.0,0.0009654266300092,0.0009767303819531,0.9802184011480212,0.0117337667381435,-0.0056985716895484,0.026893445843297,0.9999838104407971,0.0025074582228839077,-0.0016850289284211805,0.004822052164252955,0.2160000000003492,4.0,0.0029740308303138,0.0014286436025709,0.9801679009833352,0.0152612556551086,-0.0121913781816322,0.0618651948964103,0.999993549548339,0.0018171037616819853,-0.002570122514093982,0.0017301635458555427,0.1710000000002765,5.0,0.0111388949077622,-0.0098409317032438,0.979516758959971,-0.0448283979841672,-0.0607374926311972,-0.004507780563425,0.9999143597919649,-0.008490746527340174,-0.009914375988280483,-0.0009409856517469966,0.1710000000002765,6.0,3.854110626891544e-17,-7.56657207871195e-18,0.9796739253445508,-0.0062789687352178,-0.0002941610893546,0.0158680074179997,0.9999970854436885,-0.0009426607426588515,-0.0004074309732522728,0.002185061750700241,0.1710000000002765,7.0,0.0057024856646878,-0.0030590021242803,0.9787375154571564,-0.0405435094835093,-0.1040820312784852,0.0131518718609058,0.999953693042541,-0.004139418503056802,-0.007552323108346684,0.004294112330528685,0.1710000000002765,8.0,0.0025754812670896,-0.0030603182602328,0.9803443279523728,0.0070287807721044,0.0276814342570293,-0.0458942877971706,0.9999960144450704,-0.001886181902157627,-0.00198999200172548,-0.0006733079828233504
4,0.3220000000001164,0.0,0.0021582790655511,6.963215093172219e-05,0.9790435827800714,-0.010590768074652,-0.0211890608999137,0.0172636254094292,0.9999788540803691,0.0003661498189246552,-0.0026792606858061984,0.005914295274979862,0.3220000000001164,1.0,0.0014730830134502,0.0013460616528693,0.9798107052612062,0.0170225071482465,-0.0183275596269439,0.0496559586703564,0.9999619805483717,0.001938995365286697,-0.0019142835563990097,0.008283312937276457,0.3220000000001164,2.0,0.0005521039809324,0.0027706481588737,0.9803045540493904,0.01062438618633,-0.0154056312116864,0.0318532148218602,0.9999599270037454,0.002467530667913582,-0.0022107854936867623,0.008316736533529701,0.3220000000001164,3.0,0.0009654266300092,0.0009767303819531,0.9802184011480212,-0.0153085980570012,0.0057858387684624,-0.0141152677988585,0.9999895249003243,0.0015411417970712,-0.0012788436724339687,0.004115766082566144,0.3230000000003201,4.0,0.0029740308303138,0.0014286436025709,0.9801679009833352,0.0047139679091834,0.0138409556702961,-0.0158205907515849,0.9999960978397932,0.00194506513470223,-0.0017707005545650346,0.000941087856981816,0.2530000000006112,5.0,0.0128397939615701,-0.012204461337731,0.980238333679356,-0.051276916717588,-0.0184324890233936,-0.0589933915670242,0.9998786200297545,-0.010799845474075755,-0.010528111846648869,-0.003907352821873664,0.2530000000006112,6.0,3.854110626891544e-17,-7.56657207871195e-18,0.9796739253445508,0.0011929973092787,-0.005212395734606,-0.0145924240712362,0.9999984330395568,-0.0007878778434394293,-0.000627751633343134,0.0014557111051961506,0.2539999999999054,7.0,0.0081117592716886,-0.0044943438681346,0.9791052038645862,-0.0105810449349428,0.0080936803153178,0.0591558821468636,0.9999404957484094,-0.0045062849604968515,-0.0067965625033983125,0.007246040050771221,0.2539999999999054,8.0,0.0024623430246518,-0.0044641280669324,0.980472849408606,-0.0369940827331104,-0.0113475212608286,0.0050902860051533,0.9999897035736368,-0.003775867161900323,-0.0024815675497631595,-0.00042118449844721206
5,0.3500000000003638,0.0,0.0032327928328451,-0.000730061757123,0.9785898099103274,-0.005824981060135,-0.0186508643206645,0.0259988061738729,0.999967820743108,4.0042857497220784e-06,-0.003510966680594959,0.007213222248968282,0.3500000000003638,1.0,0.0022096245201753,0.002019092479304,0.9797433545704918,-0.0065631187704865,-0.0040726090382594,0.0326476680943047,0.9999476065021686,0.0015194898037205232,-0.002043579857856003,0.009914594428672319,0.3510000000005675,2.0,0.0013578288193082,0.0033399995905852,0.980141316700624,-0.00272901878662,-0.0065939219730937,0.0169908978807839,0.9999525991929291,0.0022561497483409433,-0.0023902873947090324,0.009164915809167026,0.3510000000005675,3.0,0.0009410223769016,-2.2971789911168784e-05,0.9802184011480212,-0.0163376222709454,0.0112230913838254,-0.0044279528515321,0.9999920510397362,0.0005671513850230256,-0.0006410498359326025,0.003894258819799849,0.3510000000005675,4.0,0.0024366165152738,0.0026550188092016,0.97971272002311,0.0210646822294921,0.0199072083046806,-0.004594040060733,0.9999951659590184,0.0029388718526750335,-0.0007208322928466848,0.0007151864335357867,0.3010000000003856,5.0,0.0134554609133078,-0.0143482730014797,0.9800801383731258,0.0193320355005723,0.0193099606744564,0.0551715931007204,0.999912034089031,-0.009513118944870792,-0.009170850144598314,-0.0011489819418863156,0.3010000000003856,6.0,0.000541108628948,0.0008219830279266,0.9794963152280634,0.0012377144911431,-0.0156932867326752,0.0048425847111348,0.99999742708334,-0.0006042146573850382,-0.0013769629712454547,0.0016984476216710493,0.3020000000005893,7.0,0.0090797057232486,-0.0043053922155658,0.9789397440812428,-0.0166917068270529,-0.032296710161741,-0.0100586979153327,0.9999306284296495,-0.005091593369663038,-0.008205550035404416,0.006744105119346335,0.3020000000005893,8.0,0.004393953974969,-0.006759366762107,0.980445309096556,-0.0218927655095624,-0.0297711157270852,-0.0049537403693,0.9999802885753797,-0.004837698096078043,-0.003946599175985115,-0.0006659525325928937
6,0.4549999999999272,0.0,0.0040592003299447,-0.0011073210453396,0.9790078123961952,-0.0005598574610485,-0.0004336100002139,0.0186697520959602,0.999961066935862,-8.256412603664846e-05,-0.0033893876243201383,0.008146769125855885,0.4549999999999272,1.0,0.0022096245201753,0.002019092479304,0.9797433545704918,-0.0055277518883226,0.0006670302230774,0.0265481149469683,0.9999342562173519,0.001192281840524912,-0.0019219329397828378,0.01124134693172048,0.4549999999999272,2.0,0.0013578288193082,0.0033399995905852,0.980141316700624,-0.0075950984236751,-0.0023383747943603,0.0142303666520499,0.9999468434157089,0.0018211810372190421,-0.002340651067290963,0.009874968109853654,0.4549999999999272,3.0,0.0009410223769016,-2.2971789911168784e-05,0.9802184011480212,0.0142669998310576,-0.0068079212978508,0.0180026533468532,0.9999872926454678,0.0012235408269373315,-0.0009636645013656174,0.004794668514205126,0.4549999999999272,4.0,0.0024366165152738,0.0026550188092016,0.97971272002311,0.0147212948739964,-0.0075542112631922,-0.0020742738361147,0.9999929676054663,0.003516977737553666,-0.0011498215097055543,0.0006111609465117688,0.3760000000002037,5.0,0.0134554609133078,-0.0143482730014797,0.9800801383731258,-0.0355682242254666,-0.0300385753051916,0.0016555485875473,0.999883616792435,-0.011075160157576787,-0.01043805550543773,-0.0010680331587542495,0.3760000000002037,6.0,0.0013800798715595,0.0002798367944047,0.9795432696266748,-0.0142558035120413,-0.0117115860919412,-0.0180366772615964,0.9999971140929356,-0.0012399409692856653,-0.0018975929843064304,0.000795922772105937,0.3760000000002037,7.0,0.0081117592716886,-0.0044943438681346,0.9791052038645862,-0.0005811109876594,0.0029285741073013,0.0389737778017766,0.9999212166510503,-0.004855173765611741,-0.007645081526410934,0.008691404215866326,0.3760000000002037,8.0,0.0050378242917414,-0.0075244463271652,0.9804361289925394,-0.0091868095814609,-0.0093860881346078,0.0238333553396251,0.9999772076078914,-0.005202158592239265,-0.00427138030318239,0.0005264228436906032
7,0.4940000000005966,0.0,0.0040592003299447,-0.0011073210453396,0.9790078123961952,-0.0087100540702845,0.0066427134065041,-0.0081001673172725,0.9999655899912948,-0.0005659903649042632,-0.002929864901703149,0.007740437967353074,0.4940000000005966,1.0,0.0014730830134502,0.0013460616528693,0.9798107052612062,-0.0101425347679124,-0.0037425523817107,0.0123501391170789,0.9999274992842467,0.000636410932336274,-0.0019973427222662785,0.011857562073529568,0.4940000000005966,2.0,0.0013578288193082,0.0033399995905852,0.980141316700624,-0.0057669667553567,-0.0010465573734001,0.0138599928562835,0.9999405251987272,0.0015206844339081386,-0.002230394284875941,0.010566878700909933,0.4940000000005966,3.0,0.0018820447538031,-4.594357982238362e-05,0.9798808375495116,-0.0025780260172213,-0.0217601816448178,-0.0026036939467063,0.9999865464303282,0.0009757450343574177,-0.0020518272893020714,0.004663141081707235,0.4949999999998908,4.0,0.0037383995347726,0.0026146187116296,0.9802638359839208,-0.0205861360946347,-0.026429383922066,-0.0423011143260371,0.999993045886543,0.0022726867476293294,-0.0025427153600296247,-0.0015091958452452413,0.4520000000002255,5.0,0.0158699400118431,-0.0154484101213924,0.9791003480893782,-0.0150958132782807,-0.0255401271389954,-0.0149359197297899,0.9998661751440611,-0.011505537034477096,-0.011488307296423087,-0.0018092030833307127,0.4520000000002255,6.0,0.001677942485223,-0.0010842924670437,0.9797678341417738,-0.0274604287647008,-0.0098269096655323,0.0054860773156753,0.9999935813886776,-0.0025443540372273327,-0.0022852431577286103,0.0010682264225710548,0.4520000000002255,7.0,0.009316396075189,-0.0052120147400619,0.9792890480683012,0.0012860846697404,-0.0004119334378188,0.0070532280719508,0.999921445524086,-0.004569835816545104,-0.007376947854162122,0.009044336459295386,0.4520000000002255,8.0,0.0050378242917414,-0.0075244463271652,0.9804361289925394,-0.0087435789982773,-0.009420599885977,0.0577967234189151,0.999968573522604,-0.005514765288400001,-0.004556647743411814,0.003417059016884859
8,0.5460000000002765,0.0,0.0040592003299447,-0.0011073210453396,0.9790078123961952,-0.0157984856604179,-0.0163633998054093,-0.0328039741578695,0.9999737637513797,-0.0013431016340490348,-0.0036710800324094624,0.006098447203692744,0.5460000000002765,1.0,0.002396686492782,0.0003819703971101,0.9802770577711544,-0.0167693616385179,-0.0184782931922636,-0.0285665760039591,0.9999415380157427,-0.00023091174093039843,-0.0028537419616304145,0.010427050747726044,0.5460000000002765,2.0,0.002163553657684,0.0039093510222967,0.9799780793518572,-0.0106006194477916,-0.0219937978033611,-0.0221155891510517,0.9999495339639358,0.0010533116463514642,-0.0032196958056151955,0.00945799232406567,0.5460000000002765,3.0,0.0041015525701787,-0.0001001251471428,0.980147013075829,0.0068655519488201,-0.0425917345078283,-0.0167403210068176,0.9999831816449402,0.0012289567028113371,-0.004182812495343665,0.0038249408248744875,0.5460000000002765,4.0,0.006008128075004,-0.0013608761464959,0.9800546160358352,-0.0618648775419971,-0.063537662084543,0.0740174648767674,0.9999803837258459,-0.0011318912521671185,-0.005762767592976362,0.0021774975023508467,0.5259999999998399,5.0,0.0174469550465368,-0.0173175695941088,0.9789615444658472,-0.0467609242845944,-0.032788789839778,0.0284638928234734,0.9998249688429645,-0.013597798846668577,-0.012844303028502693,-0.0003942390172456941,0.5250000000005457,6.0,0.002814776341498,-0.002990567962014,0.9800393530554844,-0.0119018027170112,-0.0159956133154024,0.005667438188162,0.9999899732177384,-0.003037215052366452,-0.0030000333635520743,0.0013522531308441457,0.5259999999998399,7.0,0.0047345392131278,-0.0032479537768491,0.9789029752405,0.0272266441955635,0.0919066987498092,0.0142364079538557,0.999945547122635,-0.0029620461122666997,-0.002272965580430011,0.0097448807028784,0.5259999999998399,8.0,0.0063255649252862,-0.0090546054572816,0.980417768784506,-0.0265265548405085,-0.0172277123298691,0.0505694181011377,0.9999455830712553,-0.006758746764389605,-0.005273905797732198,0.0059444222678694016
9,0.6199999999998909,0.0,0.0035537362585927,-0.0019314717727047,0.9792633151381682,-0.0254846083112121,-0.0055928184783684,-0.0431821630295867,0.9999818121244052,-0.002570872305475035,-0.0037789637355076207,0.003935158073751598,0.6210000000000946,1.0,0.0029829569340444,-0.0003029218870802,0.9798443806065634,-0.0268179393838909,-0.0121128406623038,-0.0748474497868209,0.9999708891953748,-0.0015455512559036822,-0.0033460994943707006,0.006680991790183514,0.6210000000000946,2.0,0.0032228993535032,0.0022774057268458,0.979514893374732,-0.0265903340863886,-0.0056985042709862,-0.0784177480372921,0.9999790223828914,-0.00024839662049780116,-0.003359570159451234,0.005532303464185762,0.6210000000000946,3.0,0.0059835973239818,-0.0001460687269652,0.9794718858788094,-0.0252097902576217,-0.0156209883111355,-0.0014821547370948,0.9999811852345386,-0.0001573949520084538,-0.004855866049783424,0.003744992478362609,0.6210000000000946,4.0,0.0091857357215914,-0.0050533024135372,0.9795361587986278,-0.0523600337345014,-0.0243682092179682,0.0034504730338668,0.9999660325420698,-0.003891855413561741,-0.00687928568731466,0.0023372316839005373,0.6509999999998399,5.0,0.0196396370329681,-0.0213305407305737,0.9786645455360864,0.0110337702009695,-0.0050962040537991,-0.0248025902983553,0.9998349080705003,-0.012760399492377348,-0.012833312472839871,-0.0016232373281476241,0.6500000000005457,6.0,0.0044927188267209,-0.0040748604290578,0.9801332618527075,-0.0063190875784242,-0.0097716709849008,-0.022220269961603,0.999988824259574,-0.003253008660770479,-0.0034221143130315082,0.00024171105942923134,0.6509999999998399,7.0,0.0069071224681882,-0.0037766729962075,0.9789213596608716,-0.0274861879281229,-0.0348248853983448,-0.0033102950766074,0.9999365975579951,-0.004212163494269517,-0.004155533003410249,0.009580714393797207,0.6509999999998399,8.0,0.0063255649252862,-0.0090546054572816,0.980417768784506,0.0144217368485161,0.0013181545676106,-0.0489549039270134,0.9999644209932287,-0.00580909430236472,-0.005015844506279133,0.0035003535467344406
10,0.7179999999998472,0.0,0.005712015324144,-0.001861839621773,0.9798438173679312,-0.0242297653081938,-0.035528774470304,-0.0259165754999556,0.9999750034802024,-0.0036072092340962898,-0.005478737836347558,0.002638917965960705,0.7190000000000509,1.0,0.0044928308546385,-0.0019519054270298,0.9798780559519208,-0.0140059061852411,-0.0366650684885497,-0.0012779015339194,0.9999628339256108,-0.002176866326500112,-0.005079400791329929,0.006617530359511092,0.7190000000000509,2.0,0.0045473000606154,0.0005453225995228,0.9800107268216104,-0.0236011671020982,-0.0432891607209569,-0.0001810914184107,0.9999691154380421,-0.0013624691823284527,-0.005426380748076789,0.00551962315414132,0.7190000000000509,3.0,0.0059591930708741,-0.0011457708988295,0.9794718858788094,-0.0515009055169677,0.0043997441546979,-0.0404604926033358,0.9999847257164028,-0.0027650090083476786,-0.004469922062033181,0.001709636170004367,0.7190000000000509,4.0,0.009042225319694,-0.0041503958955628,0.9799413310883353,0.0220995215296531,0.0064295599500457,0.0391604018933728,0.9999673138979558,-0.002622623941499556,-0.006323995302323091,0.004301169932104245,0.7229999999999563,5.0,0.0163617229444664,-0.01709785162337,0.9780817744402324,0.0656029244286604,0.0626557046195084,-0.0355182327378321,0.9999102639995542,-0.009051654724255438,-0.00927351029522585,-0.003396100984797631,0.7219999999997526,6.0,0.0044927188267209,-0.0040748604290578,0.9801332618527075,-0.0102303238747001,-0.0185695990893048,-0.0316155826652716,0.9999834715666959,-0.0036413917881946965,-0.004243478970558863,-0.0013378136979544705,0.7229999999999563,7.0,0.0069071224681882,-0.0037766729962075,0.9789213596608716,0.0075984649391666,0.0344293939608303,-0.0407016555711658,0.9999622432033216,-0.003608562704898297,-0.0023768763854281182,0.007539290525905231,0.7229999999999563,8.0,0.0063255649252862,-0.0090546054572816,0.980417768784506,-0.0303543918973277,-0.0115979171039504,0.0163482689518145,0.9999500365613774,-0.007208511562296078,-0.005417739474461554,0.004313912486715438
11,0.7409999999999854,0.0,0.0076129365885376,-0.0030387928180444,0.9798080469840548,-0.0334235803516637,-0.0306110494954858,-0.0371224223477611,0.9999633499283206,-0.005057431916821878,-0.0068640310542359365,0.0007786271407345022,0.7420000000001892,1.0,0.0067392462819578,-0.0029278581405447,0.9798443806065636,-0.0292478475571114,-0.0226380213108437,-0.0614794420611915,0.999969038474247,-0.003545531264989137,-0.0060687391993789214,0.0035386021913902986,0.7420000000001892,2.0,0.005076972908525,-0.0002706500482025,0.9797791338330478,-0.0356517126172324,-0.006403333339004,-0.0454124570334085,0.9999752177522281,-0.003007052476490645,-0.005479707319267495,0.0032394944795003052,0.7420000000001892,3.0,0.0062234433741237,-0.0041531154019205,0.980413188602146,-0.0360374467675244,-0.0132616496612805,-0.0995587205881058,0.9999719661325545,-0.004478164481828481,-0.005029049003626064,-0.0032743942930461988,0.7420000000001892,4.0,0.0083613006027565,-0.0020211141709579,0.9798913224178172,-0.009856768500907,0.0046895892269663,-0.1268014550747832,0.999976230555297,-0.0029153423854061124,-0.005904669360332851,-0.0020430327801078552,0.7800000000006548,5.0,0.0145629107976688,-0.018141526167206,0.9789033694177498,-0.0295159873225592,0.0050085759838127,-0.0117377575454964,0.9998973603852194,-0.010544767873506283,-0.008837466014992355,-0.003996968801274923,0.7800000000006548,6.0,0.0056295526829959,-0.0059811359240281,0.9804047807664178,-0.0281156196350528,-0.0236032523231909,-0.0229255820383959,0.9999704942440089,-0.00498510934449274,-0.005289773661079823,-0.002485482011790529,0.7800000000006548,7.0,0.0081117592716886,-0.0044943438681346,0.9791052038645862,-0.0244051018332181,-0.0468843000588755,-0.0117154497969691,0.9999528031009126,-0.0046752057775205635,-0.004911168594587719,0.006958048907612088,0.7800000000006548,8.0,0.006633864479859,-0.0113869198888458,0.9785562476922356,-0.014298515161815,0.0063789790342889,0.0054847907366407,0.9999471872871358,-0.007785723569097176,-0.004899432031894383,0.004582653250679998
12,0.8190000000004147,0.0,0.0086874503558315,-0.0038384867260992,0.9793542741143106,-0.0273199508005975,-0.0098342009038053,-0.0304378355689016,0.9999557263459459,-0.006102418392525365,-0.007123330455507739,-0.0007509999572728493,0.8190000000004147,1.0,0.0075125786958267,-0.005249872506929,0.9799454066426356,-0.040898049767265,-0.0061972920438677,-0.0556908597958374,0.9999655980356746,-0.005484293869777299,-0.006178443082795268,0.0007430390151763803,0.8190000000004147,2.0,0.0055956487772615,-0.002572084607237,0.980438204628693,-0.0412498182608602,-0.0132031724392798,-0.04330132639754,0.9999701258837059,-0.004885008010765159,-0.005894899587332403,0.0010649862513246382,0.8200000000006185,3.0,0.0071156572448099,-0.0061754915355604,0.9800756250036364,-0.0135187535956037,-0.0181759883074044,-0.0752269621443847,0.9999458229680556,-0.0050065077072772475,-0.005813448803747266,-0.007034900306415451,0.8200000000006185,4.0,0.009042225319694,-0.0041503958955628,0.9799413310883353,-0.0231068536865481,0.0001017741402457,-0.1591779394886858,0.99992532124249,-0.003944673184264031,-0.005798879887337675,-0.010008220802156138,0.8580000000001746,5.0,0.0139472438459311,-0.0159977145034573,0.97906156472398,0.0377481559734149,0.0290665552380365,-0.0329563541294712,0.9999226317486267,-0.008402295981929516,-0.007230726982477994,-0.005643449870166084,0.8569999999999709,6.0,0.0056295526829959,-0.0059811359240281,0.9804047807664178,-0.0145745918792787,0.0152636770741949,0.0203414568366075,0.9999745059448233,-0.005524527446787656,-0.004276535638651016,-0.0014759064426231843,0.8580000000001746,7.0,0.0107577232306299,-0.006836308136485,0.9798221962590744,-0.0367345242355564,-0.0712017754699926,-0.0135133838918891,0.9999234529934462,-0.006361156209239936,-0.008548246075493192,0.006288985162810832,0.8580000000001746,8.0,0.0051198473614387,-0.0126643803721284,0.9788316508127356,-0.0319605798314863,0.0398775278224411,-0.1086045177995932,0.9999532480475297,-0.009233155643416535,-0.002737553433274462,-0.0008696880243763636
13,0.8850000000002183,0.0,0.0100829075488731,-0.0058395906497358,0.9795740064724076,-0.0359395894962265,-0.0212766192311518,0.0050867074362304,0.999939179098946,-0.00759010331935122,-0.007985888932335655,-0.0005039965160757245,0.8850000000002183,1.0,0.0088721815509582,-0.0082567791575038,0.9796137555141164,-0.0167137687232648,-0.0225876315420778,-0.0042378242645406,0.9999551711439724,-0.006190434901005743,-0.007144989357125995,0.0005323018426330875,0.8850000000002183,2.0,0.0066549944730806,-0.0042040299026878,0.979975018651568,-0.0361038083224162,-0.0142323424451606,-0.0279058848677498,0.9999591454339993,-0.006406769321133205,-0.0063676242400312385,-0.0003378332566511341,0.8850000000002183,3.0,0.0070668487385946,-0.008174895879289,0.9800756250036364,-0.0636033732780823,0.0046951838314154,-0.0778377758448419,0.9998930576081172,-0.008080910988556223,-0.005363954328084819,-0.010945328622360268,0.8850000000002183,4.0,0.0077404423001951,-0.0041099957979909,0.9793902151275242,0.00683879745807,0.0303358019295155,-0.0893022535073534,0.999881024693566,-0.0033809619876221594,-0.004113878554561647,-0.014476931892529715,0.88799999999992,5.0,0.0076632780613641,-0.0122586313801333,0.9797902837475172,0.0485471471257848,0.1104628183532204,0.0159101176236243,0.9999707056834433,-0.0057369004067671005,-0.001381164018879437,-0.004875257391385033,0.8870000000006257,6.0,0.0044319455512124,-0.0079739364006524,0.9787940407444812,-0.0286891346338344,0.0010827194068709,0.0158737083491585,0.9999684717732369,-0.0068174511048379365,-0.004013008113976572,-0.0006881757096608002,0.88799999999992,7.0,0.0109944135825704,-0.007742930660981,0.9801715002461326,-0.0151289568572277,0.0391564071042976,0.0279396391401221,0.9999270156816292,-0.006897086948012846,-0.0062941164005239645,0.007666655098475194,0.88799999999992,8.0,0.0041365623173528,-0.0161107302271687,0.979226395285453,-0.0678043200402486,-0.0193618041944561,0.0520324324889371,0.9999134874598095,-0.012530365881374605,-0.0036067125391020705,0.0017318058496483
14,0.936999999999898,0.0,0.0128102363103664,-0.0073938031342239,0.9799562385743992,-0.041332507346106,-0.028576239963198,0.0221043543221627,0.9999138621555271,-0.009284645775197446,-0.009258040644374067,0.0005935532612673666,0.936999999999898,1.0,0.0101949934989457,-0.0082686406152595,0.979113727658811,-0.0212499991069494,-0.0228288941252484,0.0577652457422568,0.9999365327220835,-0.007075775588503992,-0.008072775750556796,0.003419681160547534,0.936999999999898,2.0,0.0079793951801929,-0.0059361130300108,0.9804708520984462,-0.0206487800625862,-0.0267791918302772,0.0848066960142627,0.9999392489066669,-0.007128719595723364,-0.007445909845112371,0.0039036238900324693,0.938000000000102,3.0,0.0069448274730564,-0.0131734067386107,0.9800756250036364,-0.0730887430632922,0.0223852283093834,-0.0279283020509912,0.9998482836707387,-0.011582742240852213,-0.004031503030032632,-0.012369183731310789,0.938000000000102,4.0,0.0068325631938389,-0.0043930643890751,0.979699452416646,-0.0043939368924715,0.0263899279901041,-0.0310731386295443,0.9998616792282443,-0.0034662579314291577,-0.002730789738082795,-0.01603590515795057,0.9459999999999128,5.0,0.0015254140782021,-0.012587453613568,0.9793228421329794,0.0098420672771969,0.069731813301769,0.09950730540425,0.9999835269262779,-0.005303874913864899,0.002192756276907695,8.128277739447082e-05,0.9459999999999128,6.0,0.0055687794074874,-0.0098802118956227,0.9790655596581916,-0.0439079035251468,-0.0312705145146582,-0.0151340125313146,0.9999450104399717,-0.008833746361369403,-0.005464342165986252,-0.0014429089093474033,0.9459999999999128,7.0,0.0068019294235163,-0.0079693850359005,0.9795617503038117,0.014414518444683,0.0478517521362917,0.0145005898226512,0.9999408768394711,-0.0059136668074856345,-0.0036127084311044,0.00837972005449782,0.9470000000001164,8.0,0.0078866459755494,-0.0221050174242174,0.9792998361175864,-0.0916899905469969,-0.0710110679499423,0.0765976510736638,0.9998144234842608,-0.01699603567689202,-0.007143225263470335,0.005588174741406844
15,1.0460000000002765,0.0,0.0128738219349563,-0.0098417984970089,0.9800134711886012,-0.0420885663346975,0.0026522032755509,0.0229733951970554,0.9998991945976656,-0.010972808078470111,-0.008845331002103883,0.0017199550214626943,1.0460000000002765,1.0,0.0111553878854214,-0.0122277770638377,0.9797484568955458,-0.0695644199497641,0.0076356085767642,-0.0055004087905273,0.9999124649825167,-0.010467165781878634,-0.00746985245439342,0.0031148222086573554,1.0470000000004802,2.0,0.0087626888855457,-0.0089533824048986,0.9799393104815248,-0.043238212318447,-0.0023339560720365,0.0457388489409276,0.999913670637714,-0.009049182900662325,-0.007254589863078509,0.006175312669191138,1.0470000000004802,3.0,0.0068472104606258,-0.017172215426068,0.9800756250036364,-0.0651240744829938,-0.0005052411803477,0.0511554307002592,0.9998379070131758,-0.01457089159220325,-0.003914447609399783,-0.00982476043644388,1.0470000000004802,4.0,0.0072865335213577,-0.0089346964293694,0.9801087070468038,-0.0463097064125664,-0.0290558381555869,0.0914230181525043,0.9999078010714627,-0.0059323178809138205,-0.004210430373389036,-0.011466003534922378,1.0670000000000073,5.0,-0.0019502027681958,-0.0150051532904576,0.9795963669205257,-0.0719285158588813,0.0227266444521668,0.0398468136155381,0.9999509506740064,-0.00913122447164853,0.0032271107705682048,0.002074305154417773,1.0670000000000073,6.0,0.0092225269915969,-0.0134129260911587,0.9794779417677368,-0.0687764914054414,-0.0790921182097537,-0.0783416615208281,0.9998689838191847,-0.012058191088094116,-0.009383912360917332,-0.005343913629232829,1.068000000000211,7.0,-0.0034824131032325,-0.0029463219484074,0.9795280455331306,0.0932383649167084,0.2044487729598913,0.1396939174517233,0.9998563643255785,-0.0009233167573381467,0.007191793250637099,0.01531914859389383,1.068000000000211,8.0,0.0156130897768183,-0.0312859722049159,0.9791896748693862,-0.2002342151888381,-0.1737963048925674,0.3263510126877511,0.9992743901437675,-0.026957539905926562,-0.015532647011298653,0.021970915362009628
16,1.070999999999913,0.0,0.0121110000624465,-0.0119125345715773,0.9796527013169352,-0.0583196158222599,0.0029197204937317,0.0006064735169612,0.9998731454091335,-0.013398535843544586,-0.008438538072715822,0.0017214534819520425,1.0720000000001164,1.0,0.009719095779115,-0.0165688839095261,0.9800515350037616,-0.0655758781398426,0.0161358149887265,0.0090381033087492,0.9998813674421837,-0.013548330413507633,-0.006418642720285962,0.0035347999355992174,1.0720000000001164,2.0,0.0092923617334552,-0.009769355052624,0.9797077174929624,-0.0431189552805155,0.0132894124050872,-0.0798744922791984,0.9999191922510829,-0.010770706660622518,-0.006398256885726506,0.0021594339064760657,1.0720000000001164,3.0,0.008656042455106,-0.0202172655214834,0.979400497806617,-0.0428781838471693,-0.0272360354885781,0.0405357839992517,0.9998227183908059,-0.016314832951977512,-0.0052620635090708315,-0.007789011682787032,1.0720000000001164,4.0,0.0087084493696089,-0.0174114232302171,0.9797576257680648,-0.1535745057894459,-0.0346553673510784,0.0710776782394777,0.9998543784592836,-0.013944731742758521,-0.005818267549022696,-0.007931840590324495,1.0960000000004584,5.0,-0.0062410658961449,-0.0217654105151382,0.9786543393872972,-0.1143783131105164,0.0848989695039173,-0.032322029993442,0.9998588619454791,-0.01506240129522287,0.007428944042177455,0.0004370889286900038,1.0960000000004584,6.0,0.0164754055614368,-0.016928112931407,0.979675966840142,-0.0343844205032213,-0.1047131211403329,-0.0371071827580069,0.9997783527378066,-0.013449902291068691,-0.01453168756342209,-0.007153711050766361,1.0960000000004584,7.0,-0.0259183167096576,0.0050607378186643,0.9782962893682404,0.1931075632982189,0.4053698067669177,0.0968536722179803,0.9993635254811387,0.00878096003088856,0.028159317512194377,0.02006219120866556,1.0960000000004584,8.0,0.0326600955849167,-0.0548324526047896,0.9782084237511592,-0.451645417628063,-0.2608080312615731,0.2681884466590857,0.9977422341212778,-0.04946437290288508,-0.02854406585036052,0.03534043532182225
17,1.1480000000001382,0.0,0.0129374075595461,-0.012289793859794,0.9800707038028034,-0.0938248209249539,-0.0531687006623195,0.0226854986510626,0.9997854694294273,-0.01737966936109509,-0.010901884269091342,0.002848004575516182,1.1480000000001382,1.0,0.0082460127656648,-0.0179149455623954,0.9801862363851908,-0.0506353412920769,0.0123159129914947,0.0228241228671464,0.9998512174443469,-0.015646604293146807,-0.005575963627602914,0.004651384608338823,1.1480000000001382,2.0,0.006080459359125,-0.0105612988681608,0.979470003103821,-0.091409841243267,0.0603445923685906,-0.0878211469702864,0.9998832449934287,-0.014780244920776092,-0.003127746115309974,-0.002293021092621508,1.1480000000001382,3.0,0.0117189556359526,-0.0242932275661724,0.9793291097344248,-0.0823153047519483,-0.052461053508185,0.1065554805929649,0.9997646871443693,-0.02009083562843612,-0.007807520025381277,-0.0024436231146011283,1.149000000000342,4.0,0.012566981733134,-0.0232331312218633,0.9792891772013756,-0.0887178019863203,-0.0733908838657856,0.2260306541284377,0.9997841270179118,-0.018269922062892643,-0.009295098574497231,0.0033927059021225284,1.156,5.0,0.67759469533382,-0.2806143172625551,1.1173334479029695,-4.639662690684364,-11.418842102290808,-12.087782983310545,0.703128042634266,-0.18316260597179226,-0.5254212576053313,-0.4427131322779569,1.156,6.0,-0.2362839588244186,-0.022085312194769,0.9852533327969614,-3.7957645519816414,-2.9777137810273486,0.7674803747704759,0.9699820525900311,-0.19848855983363328,-0.1368909661742483,0.03159070509313125,1.156,7.0,-0.3324536155420972,0.0850536087415682,1.047225609481082,-0.1347261823737765,-10.702731734676444,-14.07056217051768,0.7633951902855411,-0.003283512828368451,-0.38051447247094705,-0.5219441907259484,1.156,8.0,-0.0045791419224896,0.0024961648072744,0.9958342234631768,-1.6466060784316416,-1.4680257064479223,2.066795156086505,0.9786217381006086,-0.12495615768355453,-0.0870438929827032,0.1382346304958431
18,1.2550000000001091,0.0,0.0159764282158236,-0.0167144363269053,0.9796383931633847,-0.1078852660622868,-0.0592836266094562,0.0817082148199855,0.9996443648531697,-0.021920631017409372,-0.013518173431906205,0.006920169085118755,1.2550000000001091,1.0,0.0079454706347394,-0.0206307917836457,0.9794555834374382,-0.0614400068496398,0.0010433055843542,0.1470413170016746,0.9997479106268145,-0.01824509599004475,-0.0052566414208538095,0.01198329631635628,1.2550000000001091,2.0,0.0028351288725988,-0.016425325401606,0.9797546482307328,-0.0868867975030297,0.0201959819067868,0.0692545578785713,0.9998265879275554,-0.018492678974650963,-0.0018740767782974967,0.0011413736075771563,1.2550000000001091,3.0,0.0138408464398976,-0.0283462178209501,0.979595285260742,-0.1379991248110917,-0.0249139883985012,0.1174887524466998,0.9996049412258795,-0.02647527638179394,-0.008801961238672391,0.003398042917087872,1.2550000000001091,4.0,0.0146097558839466,-0.0296209763956781,0.9794392032129297,-0.0906502200377265,-0.0016700256196518,0.0952423895216733,0.9996718354426372,-0.022526572183049345,-0.009107638320884789,0.00811331576155046,1.2160000000003492,5.0,-0.0234696360786538,-0.0197284105804111,0.9788186583828008,0.0587836118386319,0.3306338940449637,0.1612312655422354,0.7379353476955602,-0.1660150693512609,-0.4745990417652319,-0.4501623806197628,1.2150000000001455,6.0,0.0128216579773274,-0.0133953987358711,0.9792635847305972,0.0042833987782031,-0.0317260947188154,0.0440849443421809,0.9749623735386569,-0.18025679870650627,-0.12564748264085998,0.03418430648653195,1.2160000000003492,7.0,-0.0374072960399069,0.0108014717780847,0.9780787403938448,-0.0156527442167236,0.0753047110599219,-0.2091561011682766,0.7701675316597131,0.0036193925553069184,-0.34351244785049034,-0.537427270750638,1.2160000000003492,8.0,0.0483081444995894,-0.0769304864044502,0.9762551016187222,-0.1965644596605104,-0.152933550157805,0.0237641033808938,0.9781640371320645,-0.12479177901758107,-0.09010178860024694,0.1396559917875519
19,1.2830000000003563,0.0,0.0207891988873148,-0.017420041264718,0.9790558469116863,-0.1032748749869352,-0.0457750492652208,0.1603599814890502,0.9994365175526103,-0.025863771879562267,-0.015349339034248398,0.014903371352964195,1.2830000000003563,1.0,0.0079822615418833,-0.0236258369764647,0.9796239601642248,-0.0994495887273631,-0.0343987375209996,0.2194084801318597,0.9994581400257176,-0.022626976249147206,-0.006682738695820577,0.022951847108178325,1.2840000000005602,2.0,0.0044131504371543,-0.0203587052560913,0.9799505330492528,-0.0756386355059226,-0.0567767479760196,0.2764977494926388,0.9996466538163836,-0.021483319341171415,-0.004457927869328345,0.015005378465884837,1.2840000000005602,3.0,0.014513422032615,-0.039365913501369,0.9792577216622323,-0.1500302914999628,0.0232159792017191,0.1489231772323247,0.9993578182665704,-0.03339888239266822,-0.0072854500833606116,0.010741877930985027,1.2840000000005602,4.0,0.0123166497705703,-0.033178901722854,0.9791513982111728,-0.0605920558678523,0.0336575061400798,0.2722669215319716,0.9994263486602984,-0.02512568269525441,-0.0068390701906772934,0.021654117196684083,1.2309999999997672,5.0,-0.0567677256028194,-0.0087293697358311,0.9783103921731068,0.2871621837810352,0.6743824436573588,-0.107639159134627,0.7727050407088756,-0.12450951117342512,-0.4173722179060051,-0.4617626375213478,1.2309999999997672,6.0,0.0116848241210524,-0.0114891232409007,0.9789920658168866,0.0717745670958976,0.0614764405049429,-0.2269439146449994,0.9806064025532296,-0.1585948877473032,-0.11280615396143312,0.023097975678897025,1.2309999999997672,7.0,-0.0380070548322577,0.0046065630368308,0.9795831987942448,-0.1319495147328315,-0.0383986847851088,0.0207243723915619,0.7790693616159302,-0.002169663001878089,-0.30983232255350407,-0.5450230768095113,1.2309999999997672,8.0,0.0556990175386586,-0.0876786760516546,0.9742925993822684,-0.139819489206518,-0.0031216942074556,-0.1734775808267634,0.9799918453006358,-0.12248146958348673,-0.08679441554305724,0.13069430815251012
20,1.38799999999992,0.0,0.0218637126546088,-0.0182197351727728,0.978602074041942,-0.1101916039237487,-0.0544250214985038,0.2676900970295737,0.9990043744794705,-0.029859205733563165,-0.017344815227938053,0.02824614997750055,1.38799999999992,1.0,0.0093418643970147,-0.0266327436270395,0.979292309035706,-0.1284952349752868,-0.0697795165544757,0.2763948738312135,0.9988790394695061,-0.028140254406363394,-0.009765329754784688,0.036788978311480154,1.38799999999992,2.0,0.008915588231724,-0.0269866242697668,0.9790568085647556,-0.1662547126046104,-0.0743842188593856,0.30989531620425,0.9990815337869614,-0.029021359941496065,-0.007878075409169,0.030525160783953398,1.38799999999992,3.0,0.0120254674320553,-0.0503084558245562,0.9789915461359148,-0.203626718518608,0.0124779900582993,0.2618645429583209,0.9987794755802428,-0.04288624237721493,-0.006121800314477147,0.023724521814518618,1.38799999999992,4.0,0.009713145280254,-0.0424644341993828,0.979176912838988,-0.1867572642116189,0.0244793712724894,0.4685830017838102,0.9983893102717598,-0.03427064262550108,-0.00487281524066259,0.04495068253926083,1.291,5.0,0.0073107326189483,-0.0309371594413944,1.003976815147776,0.087553221724217,-0.3809619596939149,-2.3199086215953684,0.7258945589681641,-0.07241468078273026,-0.40874149734554227,-0.5484191750980938,1.291,6.0,-0.0364107190219852,-0.0066092962346166,0.978914488984398,-0.5875419708263271,-0.4001004470240509,-0.2435950874809283,0.9776177890627701,-0.17066538185767882,-0.1224998282469272,0.01142707411664553,1.291,7.0,-0.0783569294499936,0.0056947130307498,0.992571791786703,-0.4174019948073498,-2.337466197256437,-2.1280806789665214,0.6910766337134189,-0.04328340053708438,-0.3554474038643244,-0.627850919135576,1.291,8.0,0.0614938503896103,-0.0945643921371785,0.9742099784461185,-0.2876983646092615,0.0544650260482611,-0.1350140816091437,0.980675750588363,-0.12855878039779567,-0.0819917655875687,0.12257676193477784
21,1.4180000000005748,0.0,0.0262981905039278,-0.0246454815635206,0.9783894957606204,-0.1334417476189375,-0.1603441729458635,0.3800671424785977,0.9979709016750197,-0.03485171178186615,-0.024512544589109817,0.04731355782002598,1.4180000000005748,1.0,0.0154181509865352,-0.0362237229796569,0.9795953871439218,-0.1611992788121898,-0.1850641312015022,0.4044829964588713,0.9975808922285343,-0.035035438160673754,-0.0184590029070277,0.05713271169032045,1.4180000000005748,2.0,0.017898469862517,-0.043213386119736,0.9790506871641772,-0.2366455465055242,-0.2112210165362605,0.4004157402755091,0.9977502158554634,-0.039928435342254896,-0.018166698255297375,0.050697119109437604,1.418999999999869,3.0,0.0112975363197604,-0.0662954525868875,0.978050243412578,-0.2770587348857763,-0.0117425758487758,0.410909467979786,0.9974427638706334,-0.05588446466802565,-0.005930442711906551,0.04415528575517118,1.418999999999869,4.0,0.0047931571034165,-0.062841312188389,0.978417597515204,-0.3980193506102611,0.040306555598988,0.466175276627712,0.9962176564141415,-0.054050194830876724,-0.002398598236017382,0.06799414838029862,1.3500000000003638,5.0,-0.1302932614574136,0.0233812202256027,0.971317139022859,0.6725777760544596,1.329980939261141,-0.8779981229871756,0.743678250585175,0.016872289245765348,-0.33984668024338316,-0.5754669576871747,1.3500000000003638,6.0,0.0047298081648759,-0.0093380656621009,0.97901860525958,-0.0549368643849117,0.0839017917038905,-0.7185088416547787,0.98152796454352,-0.15292994498837692,-0.11227488595497978,-0.02469082276278338,1.3500000000003638,7.0,-0.0146397234687518,-0.009065420220142,0.9797946196285172,-0.2269047656249709,-0.3333263882458745,-0.0403583260979538,0.6923347471509349,-0.0570087512485819,-0.3283244178606877,-0.6400200596895137,1.3500000000003638,8.0,0.0494185945626583,-0.0942740403213879,0.9745323020982596,-0.0993170815901609,0.0995903461916616,0.0579163566226874,0.9815292924032044,-0.1259800300309552,-0.07230634210103906,0.12450330549761311
22,1.5340000000005602,0.0,0.0380154099850736,-0.0345776307237725,0.9773603307159532,-0.156218499225738,-0.1934127865327004,0.5309529373853304,0.9958791897156848,-0.041002808269306676,-0.03298850207310379,0.07385910868832885,1.5340000000005602,1.0,0.0303549127433124,-0.046849962334568,0.9773646506302524,-0.1667915829243889,-0.29898585475382,0.4513799345491655,0.995391255725697,-0.04168690706629468,-0.032707492290361115,0.07992915458168132,1.5340000000005602,2.0,0.0349161687440454,-0.0573332544591896,0.977043888007778,-0.213740811757163,-0.323551522565882,0.5290408614867858,0.9952231847623532,-0.049049967693500084,-0.03361452027409833,0.07742723814968543,1.5340000000005602,3.0,0.0133682680850626,-0.0833510668908169,0.9760962498937124,-0.2430167251330854,-0.1227366786386199,0.5588606208312684,0.9951107534791016,-0.06648387433741589,-0.01098929329967736,0.07220608143442639,1.5340000000005602,4.0,0.0078171264943662,-0.0830829231733256,0.9752343925489638,-0.2197677809903831,-0.1448221651158479,0.7105421908411353,0.9925682930689861,-0.06332353627955933,-0.008526802633175385,0.10356450639106725,1.3850000000002185,5.0,-0.2289471143475628,0.0496653212447315,0.9518091062274944,0.701278079008826,1.503719778998723,-1.8994290282187003,0.7213128755866971,0.12526405199183074,-0.2588647979172554,-0.6300838588558643,1.3850000000002185,6.0,0.0095203896052604,-0.0147770553526071,0.9797025062828356,0.0564662258649356,0.231119841672097,-1.4292515898385916,0.9821807228185305,-0.1274061285127091,-0.09938459025444966,-0.09597608744383639,1.386000000000422,7.0,0.005892442890267,-0.024965421537598,0.9790071536226048,-0.2371217798062527,-0.1864395967704891,0.1794260148687875,0.7023591126382979,-0.07045131435348505,-0.2966730984419277,-0.6432055362484651,1.386000000000422,8.0,0.0390505951837048,-0.0977644495373746,0.97396517567234,-0.0189091606456654,0.1608140106330877,0.1197866618402916,0.9824535874840147,-0.12051538295123276,-0.05922038241986781,0.129437000961671
23,1.5520000000005894,0.0,0.0527809016534603,-0.0472654023840944,0.9773869030011182,-0.1661437097137871,-0.3134819840297133,0.5386613941604717,0.9926499104573787,-0.04707575489502083,-0.04744524918793905,0.10089091584239025,1.5520000000005894,1.0,0.0513091930959108,-0.0549605059297675,0.976994221831322,-0.0455505804959541,-0.3371285010087062,0.4243276050736222,0.9927813877395172,-0.04170515369620831,-0.048293870088173624,0.10155539584424188,1.5520000000005894,2.0,0.053303130598732,-0.0660119643127678,0.9762695308345664,-0.0161020537298789,-0.3740830012685386,0.5328377270863661,0.9920836645301736,-0.04752393823669105,-0.05056366756903574,0.10466514887404062,1.5520000000005894,3.0,0.0207946336069099,-0.1015377182911626,0.9743370438289712,-0.0995098052324961,-0.2582261018476615,0.4991808869588932,0.9925448106353295,-0.06919349453738463,-0.02276572852861869,0.09771786325510878,1.5520000000005894,4.0,0.0128105539023476,-0.0955755449298709,0.9752252072829504,-0.2356076758965025,-0.2587506801642301,0.8916169451344373,0.9861231766657675,-0.07237992379056225,-0.019568687943527893,0.14811918689642076,1.4570000000003347,5.0,-0.3125274679732055,0.0343915157237552,0.92833496401271,0.2200378432070027,0.4798675846876897,-3.592365688564488,0.6168405981389572,0.1968626639499772,-0.18537989626608706,-0.7391799930263716,1.4570000000003347,6.0,-0.0168226745053869,-0.0278921063894862,0.9795065227060222,-0.5998400163784529,-0.5659436958480055,-0.2771887151041769,0.976331290506613,-0.1469294773713431,-0.11552113198857619,-0.10882926040892461,1.4570000000003347,7.0,0.0792350405132782,-0.0490209384811785,0.9756611891149938,-0.6726726634241463,-3.135824512704509,-2.9150148271560847,0.5680291649172158,-0.14317930540214213,-0.36243020511688884,-0.7249047528654647,1.4580000000005384,8.0,0.0275060714310875,-0.0996429870933417,0.974406840676698,-0.0718680628487391,0.1037232519509798,-0.2625250962447907,0.9849918712369896,-0.11679175805706654,-0.052267555963346604,0.11583955041613325
24,1.6159999999999854,0.0,0.0682363780388033,-0.0571034625741042,0.9762289645744964,-0.1286984117949143,-0.2401738532549491,0.2385149749978982,0.990594257553415,-0.05064762980358658,-0.058398440131492785,0.1129046353684644,1.6159999999999854,1.0,0.0638272912733506,-0.0568570857622789,0.9761574405224436,-0.0457206243389716,-0.1422226624730563,0.102669191753867,0.9919230857680287,-0.04188742556949681,-0.054074078804262196,0.10681773963655398,1.6159999999999854,2.0,0.0714698997081714,-0.0674172947212754,0.9752727627736604,-0.0344927764607101,-0.1297035767549941,-0.0687988912711837,0.9921511284200553,-0.04667285375493376,-0.05627295802946672,0.10144524282486353,1.6159999999999854,3.0,0.0403881288664371,-0.0900124503596784,0.9748500181191538,0.3219209036152791,-0.408181804720684,0.4081557252227794,0.9907832301442961,-0.049140371750782286,-0.040619843013018055,0.11951503287297022,1.6159999999999854,4.0,0.03898247251142,-0.1046439762349011,0.9726186329053366,-0.1407253327245387,-0.4640419261100043,0.1283256767334894,0.9840652279121586,-0.07374103608792228,-0.04376735606504218,0.15576362012340042,1.5160000000005311,5.0,-0.4410613252940771,0.0622608215168147,0.8721980838283718,0.8738142577707246,2.6090042424555824,2.639735527878748,0.7273689310891107,0.2996436972448427,-0.1316020920157008,-0.603182378858017,1.5160000000005311,6.0,0.0540014100697439,-0.0382977035202242,0.978213235248612,-0.0570425081104323,-0.3913311596333934,2.399819085741714,0.9824970297722725,-0.15238390491167578,-0.10647279740541041,0.01192792627401312,1.5169999999998254,7.0,0.2963999297737355,-0.0679543873039558,0.931097354134501,-0.7266390890549712,-1.6668921839108095,-1.5796011498882103,0.4860103377046091,-0.19161222396238195,-0.3675431916694794,-0.769409325086364,1.5169999999998254,8.0,0.0363619756741774,-0.0961079410838413,0.97413041754464,0.0970945959947211,-0.0407882281696683,-1.064852476393741,0.9911797411941129,-0.10179161324201898,-0.05627511014573695,0.06351614045298765
25,1.693000000000211,0.0,0.083307325373809,-0.063292117385747,0.9743402883058316,-0.0133859020994576,-0.1579958300531896,-0.0798053149732377,0.9907154748154219,-0.04785620640981359,-0.06524519258374066,0.1092506124194507,1.695999999999913,1.0,0.0663006670173075,-0.0491271018689055,0.9765176646712656,0.3281973465757318,0.0022239522183225,0.2269873712779048,0.9913481116147684,-0.024182730297183496,-0.050152739746271796,0.11886471237986915,1.695999999999913,2.0,0.0683252907329101,-0.0574493761170146,0.9761399611889828,0.2188685246526606,0.1566400044676547,-0.0701600149706253,0.9935320190975329,-0.03428788327190992,-0.04563540970593271,0.09816250541669638,1.695999999999913,3.0,0.0628290955097766,-0.0775563956260636,0.9743503016138072,0.0740401270951284,-0.2647323240866323,-0.2083437520681669,0.9916156938391043,-0.04209539537599915,-0.05333544845495903,0.10991643807110259,1.695999999999913,4.0,0.0628480352877116,-0.1073516618165392,0.9722971485948636,0.0167031749195796,-0.2958834618129328,-0.3521824847566507,0.9861766309767326,-0.06736853527394797,-0.0590525020293977,0.139391301645735,1.6109999999998763,5.0,-0.4753567984784233,0.1147497680153045,0.8491821976942153,0.3719923572970038,-0.3099771727050926,-0.0466694052285842,0.7181000331031124,0.2975667069425769,-0.12809281269377293,-0.6159371954289313,1.610000000000582,6.0,0.0070519357986754,-0.0241501757252832,0.9794759002721452,0.8338726293084614,1.2691664750882614,-1.4980263762586932,0.9930237587263214,-0.08908011170872548,-0.03887663933899799,-0.06676192939628964,1.6109999999998763,7.0,0.3138186028630492,-0.0779221709454339,0.9249140607495564,-0.0588262012598454,0.3210804630160208,-0.0101683280430717,0.5012814530086125,-0.17846869294008233,-0.32992906337483585,-0.7797516551123418,1.6109999999998763,8.0,0.0516095191531486,-0.0858958182747045,0.9746047229188356,-0.0240079406787844,-0.2998900318472983,-0.6839592262962451,0.9924937519783394,-0.09410188981207426,-0.07171109672821005,0.030959735525226115
26,1.779000000000451,0.0,0.0889495188451979,-0.0533364148134328,0.9745630866968324,0.1787858101648782,0.0265286442161677,-0.4911119083105086,0.9938093366987355,-0.03492277919597854,-0.06207210457896302,0.0852669667385131,1.779000000000451,1.0,0.056559594151637,-0.0234465880398695,0.9781371426434492,0.4000258713975494,0.2222332073112411,0.0365641914017456,0.9920015706436163,-0.004173127865214892,-0.0347232001789017,0.12128383327449282,1.779000000000451,2.0,0.0519155550775334,-0.0319001560941797,0.9781294163770756,0.4876442682650395,0.3455807128686433,-0.2100697847073346,0.9957762669742684,-0.009134290734046254,-0.024337831159283074,0.08805600966452404,1.779000000000451,3.0,0.0761259346358571,-0.0648771188082519,0.9750060520483744,0.2183944936955645,-0.1306833159630123,-0.4582451507926843,0.9940354391233284,-0.027941528457957974,-0.05814715623579094,0.08793022788561139,1.779000000000451,4.0,0.0778983271337278,-0.1034966011869252,0.971505174547476,-0.0514007548722623,-0.0981212000620396,-0.4241529290301866,0.9886614726482877,-0.06590246916068292,-0.06442212548100378,0.11855440442241795,1.6660000000001671,5.0,-0.4495371191804315,0.1254131846671718,0.8620521513171905,0.9112298924227225,-0.7393876186139678,-1.9137707032650328,0.6408240592299601,0.3108083305186547,-0.12711238571047853,-0.6903514671464339,1.6660000000001671,6.0,-0.0720484503449599,0.0320747754588156,0.9761768433957836,1.0747399415048544,0.8419882581397251,-2.48962211304895,0.9818256066621349,-0.01730974425128688,0.004407611172057705,-0.18894291153743184,1.6660000000001671,7.0,0.2661510480303199,-0.0746822743677278,0.939857530441516,0.2784813949962715,0.5348916355305385,0.6250088451756994,0.5457574677288469,-0.15781263603202847,-0.2950918117176541,-0.7682218305828152,1.6660000000001671,8.0,0.0715593161616617,-0.0847753766592387,0.9732817679288768,0.051169665425676,-0.1985263089142927,-0.4177557650866562,0.993147088743672,-0.08456649670654477,-0.07987380896021647,0.011293467002551516
27,1.806999999999789,0.0,0.0884470700766441,-0.0431219987424545,0.9752059315956364,0.0848560650446358,0.0780579800228501,-0.527798383224313,0.9962415000971498,-0.027693638305400524,-0.057009454600757486,0.05904115486433375,1.8079999999999927,1.0,0.0397756254361963,-0.0108921661734401,0.9794351741372218,0.0727126366661906,0.3177519160924485,-0.6940768566142246,0.9960894541679611,-0.001156717702456399,-0.01707585074655171,0.08667685170108352,1.8079999999999927,2.0,0.0317418130668939,-0.0099135280457554,0.979744445896435,0.2050659973144067,0.2571200696703218,-1.2184120875527265,0.9995840642313875,0.002037428651696987,-0.009634683425226153,0.02710572438519923,1.8079999999999927,3.0,0.0808333970527925,-0.0539887580523851,0.975538403101009,-0.0337899187288578,0.0868952296967254,-0.9175449151097216,0.9973164562178376,-0.02689986361674227,-0.053671720467803316,0.041900237666631285,1.8079999999999927,4.0,0.0711391416223513,-0.1226067038717288,0.9697395623026552,-0.3569375945797071,0.4276758220167915,-1.2733234092632093,0.9941567900572568,-0.0811171113782225,-0.048192920271955965,0.0524379009912238,1.7489999999997965,5.0,-0.4320038911832092,0.1511351226531346,0.8661713529684457,0.3486847646443349,-0.449022009823198,1.1610734181789266,0.6719949223263452,0.2916150694125545,-0.1511142994899387,-0.663737858004789,1.748000000000502,6.0,-0.0366220823293346,0.0722248951466791,0.9771465538018924,0.5547379042617657,-0.807890284523496,-0.1454216679999019,0.9800174551086446,0.007919992399357421,-0.0396664728569586,-0.194755314006726,1.7489999999997965,7.0,0.2377430805772346,-0.0700790484197034,0.9481519680991202,0.0736033227880231,0.2090457385511228,0.1619322551683056,0.5626002457716456,-0.14718895320743608,-0.26744485921601624,-0.7683030800343759,1.75,8.0,0.0922661217293849,-0.0830162048021317,0.9718211113786678,0.0506497492114375,-0.2968144686798384,-0.4569913613351697,0.9927198433006995,-0.07579009609291515,-0.09307516919323854,-0.010009342181743972
28,1.8910000000005311,0.0,0.0885136710040322,-0.0345314273068961,0.9756505063666696,0.0721035301143785,-0.0894372370608436,-0.3589718530639201,0.9970730067726853,-0.02153214413881528,-0.06054653343550552,0.04142346222861221,1.8919999999998247,1.0,0.0260333816484992,-0.0107473413064198,0.9790749499883996,-0.0240517009143548,0.1040148696796225,-0.5348649300768215,0.9981301969713521,-0.0026669647180269976,-0.011717366893549509,0.059930797643654325,1.8919999999998247,2.0,0.0253962986964755,0.0007479086542775,0.9794832661384084,0.0764364488531814,0.0097804347653131,-0.7775509945865511,0.9998707690378514,0.006087776108921032,-0.0091294208725799,-0.011748952303702717,1.8919999999998247,3.0,0.0690102773910472,-0.0587016272726914,0.9754863917912688,-0.0304189777747205,0.1610115315302266,-0.3863306540809086,0.9983696911795875,-0.02786976421076002,-0.04450596154011171,0.022370859710830093,1.8919999999998247,4.0,0.0567330856520415,-0.1168394626890084,0.9715296685901788,0.2186588902553971,0.3285438220920763,-0.3695310378067495,0.996663229814803,-0.06785675476492271,-0.03087397412533027,0.03323649935848634,1.8159999999998035,5.0,-0.3953366666956213,0.2154937272058438,0.8699772258518774,0.107924483762766,-0.3779693783427374,1.0109906531639383,0.7008753283902384,0.2694153327564047,-0.16178900358621545,-0.6403229426220889,1.8159999999998035,6.0,-0.008604154072029,0.0805309949553053,0.9770802051951588,-0.0619101228010969,-0.1176461263845449,0.8146277880694814,0.9870687076763119,0.005438204036432705,-0.041452044993192015,-0.1547498634214456,1.8159999999998035,7.0,0.2540301542520059,-0.0676214109043147,0.9434945816050092,0.2455539664144056,0.0096898022338547,0.386401278666724,0.5851105858744591,-0.14331342769503297,-0.2532235147058088,-0.7569575386638175,1.8159999999998035,8.0,0.1212980994658635,-0.0755530975637666,0.9699646903441842,0.0139719187734088,-0.4014706506793816,0.4643473791623629,0.9912908954808236,-0.07379796867432047,-0.10809889857657724,0.014520622676096032
29,1.9420000000000075,0.0,0.0961111198334413,-0.0298696932606799,0.9744067190187448,0.0136631950120997,-0.0914639297317395,-0.2557006507229415,0.9973376899455136,-0.01905505278743378,-0.06423413571676974,0.02878216437543456,1.9420000000000075,1.0,0.0285803392067439,-0.0090074477986845,0.9797719275907948,0.0536866659403096,-0.1048258981089955,-0.1546193176240027,0.9984875233290472,0.00031347756293958123,-0.017098192081551646,0.05225150060605956,1.9420000000000075,2.0,0.0323497762930455,0.0015158236376257,0.9797271019281286,0.0086225773010291,-0.1211829399974325,0.0133539340449527,0.9997940304390182,0.005890794174731684,-0.015934181214867667,-0.011103923248398026,1.943000000000211,3.0,0.0633439353574648,-0.0455594303114898,0.9765704706589904,0.1190055665887134,0.1770919468767459,-0.5556448060558279,0.9991691916887979,-0.020340550967236342,-0.03490685424053615,-0.005357228139014054,1.943000000000211,4.0,0.0416561712698528,-0.0821245158741406,0.9752119396764865,0.5123215624455232,0.2106130712961101,-0.1616652868349723,0.9987145977420033,-0.0396772749155838,-0.01898894533163904,0.025185036579160696,1.890000000000328,5.0,-0.3662409498810448,0.2220884743230609,0.8811999070603023,0.085749825976616,-0.2289387550556891,0.3415401723775344,0.7088761987613376,0.2579212344507362,-0.15670278046409683,-0.6375071844645408,1.890000000000328,6.0,0.0046586143531826,0.0862320386326351,0.9763074991136592,0.2824191714608756,-0.2858149411620375,0.0840308345090328,0.9869306114315445,0.020751730287988226,-0.054602911326032164,-0.15018607120546743,1.8910000000005311,7.0,0.2351701540072513,-0.0560293338664134,0.9491447267991808,0.2485926958503362,0.1299004729402716,0.2186762745049108,0.6018713562036455,-0.13116516682220078,-0.2381043400116138,-0.7509013869089086,1.8910000000005311,8.0,0.14382722170658,-0.0748487796549412,0.9663671095812048,0.139620965616868,-0.2608925249634441,-0.062350796314303,0.9909780092192905,-0.06271600970360512,-0.11772889424567018,0.013007491315432327
30,2.0150000000003274,0.0,0.1001067345387962,-0.0285290189432345,0.9748942182504294,0.0330803819511242,-0.0444914592192987,-0.2228849038438604,0.9975775372620626,-0.016028221970187415,-0.0653094037393276,0.017799860500747968,2.0150000000003274,1.0,0.0330363791542385,-0.0079643080328953,0.9795362001732936,-0.035670603778226,-0.026044338806541,-0.2616392520497281,0.9990607435304845,-0.001525863220245671,-0.01850548896069955,0.03915162009514214,2.0150000000003274,2.0,0.0360689203822623,-0.002094826001162,0.9793649190605528,-0.0494952363223027,-0.0011329394612415,-0.2878158741111504,0.9995394756662813,0.0029292316543525357,-0.016165137838674747,-0.025513614117710567,2.016000000000531,3.0,0.046624666267285,-0.044150989563556,0.977264974618462,0.0632245187807747,0.2472401063101819,-0.3090104843337575,0.9994047740893801,-0.016804847057779303,-0.021701143473674567,-0.020898684519716916,2.016000000000531,4.0,0.0309150756031716,-0.0408731562342391,0.978204295226668,0.623525613898067,0.1567169839262614,-0.1176167593417144,0.999736035061828,-0.006649691105711,-0.010128042672507529,0.019520874946519648,2.0,5.0,-0.355466882534473,0.2501174604569979,0.8783197318720359,0.3663912328200748,-0.1460052771125672,0.1587083976010441,0.707814618561252,0.2622432259438181,-0.1566814495007205,-0.6369284728915189,2.0,6.0,0.0414404355318494,0.0968647250252309,0.9742966259557286,0.0252565712233056,-0.7964625542359264,-0.4959843957364778,0.9801538826647794,0.019826968473272023,-0.09069438930813684,-0.17515645967631818,2.0,7.0,0.2156731200956333,-0.0300096389700846,0.9554567111267256,0.4110462219539361,0.45489903640649,-0.253043447817205,0.6047470876903124,-0.09538052541431741,-0.22388389259166677,-0.7583267883569572,2.001000000000204,8.0,0.1644558481697199,-0.0653054791992784,0.9642730258538452,0.0841248479467371,-0.3715665408475577,-0.0734211402776665,0.9895437717706655,-0.05485947916495698,-0.13294787729407403,0.010882243272158025
31,2.091000000000349,0.0,0.1028278270721242,-0.0207136845964205,0.974175744540001,0.1129098924787463,-0.0581433592100089,-0.288647146157297,0.9977092866643226,-0.00876263658194001,-0.06697024489364826,0.00379233474075201,2.091000000000349,1.0,0.0345094621676887,-0.0066182463800259,0.9794014987918646,0.0790922657397728,-0.0384832839067754,-0.2477992667540797,0.9994329049705609,0.0026153164230495424,-0.02016201040310713,0.026842539347424258,2.091000000000349,2.0,0.0352856266769095,0.0009224433737257,0.9798964606774738,0.0948845706009335,-0.031568705123003,-0.2693847919706749,0.9990538013599506,0.0075545432103040055,-0.017943395379252186,-0.03889042848028139,2.092000000000553,3.0,0.0390274709736842,-0.0329622533662606,0.9790241806832028,0.2285468220053199,0.1220424014905279,-0.1596693775562546,0.9994515944480697,-0.005123502091318347,-0.015665191036077913,-0.028720408620603242,2.092000000000553,4.0,0.0236152308137278,-0.0126534560826288,0.9793708240103848,0.4086150033038407,0.0750067590223617,-0.2132467503977274,0.9998450567550433,0.013857249952537884,-0.006033878773678135,0.009023935571668433,2.0700000000006185,5.0,-0.3307380650543023,0.2614926537972638,0.8836197849381827,-0.1336337976254131,-0.4953605489242408,0.1403213698085102,0.7101893832441625,0.23682679299509285,-0.15409220798122153,-0.6448253263376118,2.0700000000006185,6.0,0.0706107422515043,0.108477651547929,0.9705239421020678,0.1699701960129761,-0.3387727020345944,-0.0496511910022758,0.9781857957176406,0.02822209510107058,-0.10417584323947017,-0.17749212965564898,2.0700000000006185,7.0,0.1904947855631256,0.0028844998010773,0.9605583877798144,0.3167552514306288,0.2803660090654002,-0.4238028000023898,0.5966285669405454,-0.06857548619416874,-0.21359146642592677,-0.770526080852379,2.0700000000006185,8.0,0.1919465375801514,-0.0630193817422661,0.958978145859338,-0.0159659258073534,-0.4455371748579257,-0.1112357361801817,0.9870027408936805,-0.05231904634351364,-0.15181480793301463,0.006369532975787229
32,2.15099999999984,0.0,0.1092235908850597,-0.0103562659165793,0.9732712648334164,0.0989822210718933,-0.1166947971758518,-0.2830579575748077,0.9973742409355395,-0.00248870659354038,-0.0716883546759995,-0.009960404690349388,2.15099999999984,1.0,0.0396284618076206,0.0010880145978358,0.9787616672300756,0.1190680932709449,-0.0769574007922138,-0.1303110479300756,0.9994704468632689,0.008648465591779805,-0.023795588238353378,0.0204401533809352,2.15099999999984,2.0,0.0398887859827441,0.0101264694977561,0.9795852894813876,0.1706662797675291,-0.1121729632436458,-0.2032005972461421,0.9983917220203532,0.01571947968832204,-0.023972145271492686,-0.04891015856286441,2.15099999999984,3.0,0.0339890925075386,-0.0188350880356079,0.978829393229078,0.1963245266265675,0.0573596512499588,-0.3965852354083384,0.9987327808854597,0.004576247188698856,-0.01312864594763503,-0.04836867790260396,2.15099999999984,4.0,0.0202940512165615,0.0013082093740594,0.979166706987862,0.0480801099078957,0.0330574191425785,-0.3150943973166363,0.9998543669897365,0.015030112824835951,-0.00455414079608115,-0.006678347223326826,2.1010000000005675,5.0,-0.3013723624192065,0.2635251253959513,0.8945066838514482,0.1331029767669355,-0.414408766694635,0.1078579038802164,0.7088205394191253,0.22491950567485683,-0.15787150902653904,-0.6496624088726711,2.1010000000005675,6.0,0.0837065825430142,0.1211047611165204,0.967514777599743,0.1873189814218785,-0.1522938854671357,-0.0427425532084012,0.9770707063045977,0.0387373137291464,-0.10814370988353762,-0.17926849533342323,2.1010000000005675,7.0,0.1794207270184465,0.0236190735606342,0.961759503244085,0.2075316365538018,0.0748282820108578,-0.1772494557473347,0.594004961129818,-0.057304764150064046,-0.2056193856889911,-0.7756255142707406,2.1010000000005675,8.0,0.2147038582883004,-0.0581853469432454,0.9540045695054143,0.0966420244404532,-0.209459995232559,-0.005554042695372,0.9863783814724311,-0.045152843955835166,-0.15800757853275624,0.0072466801186597376
33,2.212000000000444,0.0,0.1146720121798809,-0.0040951440542535,0.97293502322498,0.1148998817957931,-0.0717556917397583,-0.2814846939219847,0.9969747124043152,0.004193531104955453,-0.07394828123598939,-0.02356881043769057,2.212000000000444,1.0,0.0428383790583026,0.0094910293176439,0.9790545406881832,0.1395969694699534,-0.0560912999514221,-0.2311249225719094,0.9994972602608675,0.015620536743584615,-0.026069676643537022,0.009033134703042454,2.212000000000444,2.0,0.0452976701269546,0.0198998470534979,0.9791108809365344,0.1289747496945202,-0.0436364449574446,-0.0833344601760912,0.9980197586656233,0.021477870668605327,-0.026335696862864043,-0.052931025451060196,2.212000000000444,3.0,0.0365502598674212,-0.0048934391968277,0.9790955687553954,0.2110560905859123,-0.1119981726835909,-0.2214553125819915,0.9979478538341927,0.014184917194031482,-0.019607006792574523,-0.0592826655656045,2.213000000000648,4.0,0.024569865066374,0.0026964528790584,0.980055636620948,0.0435734331311939,-0.1484363857151441,-0.2404814582076549,0.9996188185204739,0.0158386200897243,-0.012595197060923373,-0.01878075569251195,2.1760000000003856,5.0,-0.2691244921071597,0.2665455731402891,0.9032217143024064,0.0024528951766084,-0.4784697964209747,0.0758636347433578,0.7075613639948153,0.20645303650570937,-0.1601507866077135,-0.656571234100535,2.1760000000003856,6.0,0.0921241529294625,0.13579503603518,0.9654314313483028,0.1640153666170555,-0.1304466560384055,-0.232749244105563,0.9742312505844516,0.048904913322513024,-0.11052611681704244,-0.1904357039499645,2.1760000000003856,7.0,0.169919492936477,0.0376300193595791,0.9644834615291276,0.2280833937615618,0.285566599192333,-0.1718417491536911,0.5933138950180761,-0.03770088522349512,-0.19300264138620526,-0.7805813510773827,2.1760000000003856,8.0,0.2301484850619636,-0.050387251095576,0.9516269225650956,0.130710358701932,-0.2496041305142705,-0.202199519165777,0.9853918336907466,-0.03503191023093941,-0.16665562955005386,-0.001265108862842516
34,2.292000000000371,0.0,0.1189823340828182,0.0054136670789121,0.9729953218720856,0.0914270913304319,-0.0573693938517314,-0.3628051224402426,0.9962488667725435,0.009735425355208393,-0.07541691967942124,-0.04130018369987862,2.292000000000371,1.0,0.0486571292978157,0.0208653663147594,0.978178981708893,0.1717502582237862,-0.0881395441808568,-0.1997551560115241,0.9992601376184792,0.02402658214156142,-0.030021362808363337,-0.0007864428912536656,2.293000000000575,2.0,0.0491061015735865,0.0300199836571259,0.9780722833050074,0.1922848080678758,-0.0645721984511539,-0.0577024567371572,0.9975466635069626,0.030223464413624945,-0.029928138863010503,-0.05560128442006837,2.293000000000575,3.0,0.0449730032857474,0.0039036300556654,0.9782776654139912,0.09487746328358,-0.1756789304795621,-0.269547113243236,0.9967886620066414,0.017302043919947233,-0.028751777046962905,-0.07270720657433771,2.293000000000575,4.0,0.0365026156801791,0.0060257764240757,0.9793310211909928,0.0227494068299928,-0.2127425432219498,-0.3147661116421014,0.9989987902804565,0.01566063277472485,-0.02360239727996117,-0.03462785644418127,2.251000000000204,5.0,-0.2430167032459495,0.2879226610447864,0.904772028303461,0.2657026081885354,-0.2058843865857346,0.6522286072128444,0.7244328579551553,0.20304423915349307,-0.16864251280968698,-0.6368121969110984,2.251000000000204,6.0,0.0980763478478904,0.1448368493423727,0.9634777200669428,0.1141523876269076,-0.1450185109808787,-0.1828482810568959,0.9717204143094991,0.05548871222095201,-0.11350232844244583,-0.19949351034151136,2.2520000000004075,7.0,0.1511018627793185,0.0568529798985857,0.9670082552601456,0.3013600587024029,0.3004515154598197,-0.2673028513588304,0.5882939639390956,-0.015090922451933593,-0.18417365002152786,-0.7872499874183064,2.2520000000004075,8.0,0.2478660594958143,-0.0393508672461864,0.9477172182655492,0.039264501014196,-0.3005117228594862,-0.2439449203350982,0.9835260687633413,-0.02964073769262215,-0.17787850683468745,-0.012535371483398292
35,2.3900000000003274,0.0,0.124046226327302,0.0153241943196048,0.9719283424216062,0.0930470093292707,-0.0718434389174945,-0.4103865373371279,0.9949692545943853,0.015309951142326654,-0.07768298709193894,-0.06137704232354713,2.3900000000003274,1.0,0.0537393380306036,0.0315666724854402,0.9773707734203174,0.1536144515260989,-0.0760594429372992,-0.2462743339410597,0.9988762521449469,0.03127136199162532,-0.03318227424804958,-0.012933348204563742,2.3900000000003274,2.0,0.053466637001151,0.0429107684196277,0.977170396953072,0.1824027438803603,-0.0700437754282351,-0.2260681520411945,0.9964756037288113,0.0384679356673978,-0.0333431139180001,-0.0666695271697738,2.3900000000003274,3.0,0.057761549577502,0.0095932296579248,0.9779921131252216,0.0839095777762253,-0.1897271512473392,-0.3120920917509933,0.9951680641231058,0.019781068426794647,-0.038285638689010894,-0.08822382530552224,2.391000000000531,4.0,0.0501443029460303,-0.0009274398677032,0.9774449799028836,-0.1771841426541462,-0.1772218518631275,-0.4216616629183876,0.9978991273583597,0.005306935410179946,-0.03221702187174048,-0.05595740840757485,2.324999999999818,5.0,-0.2092919484598733,0.3043522075316788,0.9081941499924252,-0.0552574233638478,-0.562138029324159,0.5217350754366303,0.737048819971466,0.17748626301201173,-0.1785132561241328,-0.6272086421667515,2.324999999999818,6.0,0.1034874341373705,0.1530566796216387,0.96170161890207,0.0790484977130578,-0.0649365115419757,-0.1884278892743939,0.9695800792370015,0.06079241021378396,-0.11233650443626406,-0.20880436436580999,2.326000000000022,7.0,0.1247722321428221,0.086765193046981,0.9680132702404536,0.3797510917231843,0.3354780407816791,-0.454355914431588,0.5753770576819144,0.012418659257195328,-0.1784742590241431,-0.7980814227015561,2.326000000000022,8.0,0.2708185415160984,-0.0382529566854294,0.9410106422755886,-0.0287924778867754,-0.2495108218163469,-0.1039406031084798,0.9818704595985251,-0.02947846770854393,-0.1864207597385558,-0.017570453831281058
36,2.4200000000000728,0.0,0.1304419901402374,0.0256816129994459,0.9710238627150216,0.0940101586514173,-0.0329348785909239,-0.3512871201057659,0.9936316592067924,0.02061373725571577,-0.07820580475099433,-0.07845413795051512,2.4200000000000728,1.0,0.0573484637499414,0.0409219170032517,0.9766972665131712,0.104893886046546,-0.0697137172950079,-0.3425036143829464,0.9982649932785436,0.035952399344789436,-0.03574776026418611,-0.02994204087961586,2.4200000000000728,2.0,0.0599238698620075,0.0495667387686097,0.9771234662153016,0.0208789964644726,-0.0155708093836766,-0.3917614579573174,0.9949818260229261,0.03857863933778724,-0.03331162533124545,-0.08609988437111449,2.4200000000000728,3.0,0.0706721171347947,0.0202813401195059,0.9777065608364518,0.1392713674127867,-0.1626212746739291,-0.2692171126568815,0.9934350889815755,0.02523285878989237,-0.046488750169657436,-0.1014338352085814,2.4210000000002765,4.0,0.0619936711209955,-0.0102797058280222,0.9778021846922982,-0.1460068040266652,-0.1367669252195582,-0.2823741302918534,0.996778362405166,-0.0031277243425505115,-0.03857286485598466,-0.07025131798133151,2.414999999999964,5.0,-0.156165941819473,0.2996198557487726,0.9199087675724816,-0.1348567121743542,-0.6685925803292648,0.242395007093629,0.7402760590235616,0.14872317972426152,-0.18767693110722108,-0.6282118605848067,2.414999999999964,6.0,0.099779069954882,0.1601396353679983,0.9606624976458396,0.0892031600855423,0.0494801454010309,-0.1193053460536101,0.9686600085046326,0.06715294990083877,-0.10600872398051504,-0.21436049002426555,2.414999999999964,7.0,0.1087956183832675,0.1099931800051064,0.967556723801228,0.2302824740263269,0.1590098306540779,-0.2644733245009418,0.5674509808029808,0.02531244978345756,-0.1729973182692177,-0.8046307178720895,2.416000000000168,8.0,0.2808528921154092,-0.0350076850591524,0.9386064750347772,0.0459645329319513,-0.0817831119113028,-0.0556853397928136,0.9819384214836091,-0.02589956785099715,-0.18636981019612914,-0.019810165240811903
37,2.53400000000056,0.0,0.1320157317507181,0.0350756166500584,0.9692138812908844,0.094607074070375,-0.0317735261773861,-0.2992265415369942,0.9922197438723224,0.025551852332370825,-0.07882424664824358,-0.09291835584352723,2.5349999999998545,1.0,0.0638270662450046,0.0456212713305388,0.9757257838228636,0.0360238329737224,-0.0846885418150736,-0.3564511749436105,0.9974101669436549,0.0368942927239989,-0.03911797854544995,-0.04776561311596572,2.5349999999998545,2.0,0.066336240456818,0.0490494675043933,0.9763399269412218,0.0052171301284068,-0.0735649068010514,-0.2842937617648718,0.9935795230836088,0.037341801968524636,-0.03671297413694838,-0.10028698153156122,2.5349999999998545,3.0,0.0809769053069241,0.0290324657921767,0.9762135302980284,0.1077245910879918,-0.0899221821424085,-0.1552921529501976,0.9923204125634171,0.029017837158378353,-0.05088583678719644,-0.10894400190504475,2.5349999999998545,4.0,0.067380940893438,-0.0137294636015511,0.9775256061267802,-0.0188747836280305,-0.0801260146730379,-0.1671383772504693,0.99600995847831,-0.004653586397940386,-0.042059829882373265,-0.07857147991439264,2.4700000000002547,5.0,-0.129689913148996,0.3013204294920227,0.9240473609064358,0.080681067283991,-0.4461981655716776,-0.1552129349441212,0.7308926913206436,0.1405465405663026,-0.19243452100460381,-0.6395400682010782,2.469000000000051,6.0,0.0944473798855495,0.1647566420305779,0.9601562067390714,0.019413590941028,0.0931743690981805,-0.1297091891100759,0.9679615125764146,0.07025337449962132,-0.09724190129018094,-0.22058781964484428,2.4700000000002547,7.0,0.0937292473369959,0.1237408017227781,0.967642517762962,0.1263345989984415,0.2682872329661757,-0.1602364642655718,0.5643756668815193,0.038331704941914055,-0.1609983252793289,-0.8087585092507761,2.4700000000002547,8.0,0.2844135804091416,-0.0332995561875486,0.9370560574675162,0.0276881478162181,-0.0562704833652031,-0.0226087172313662,0.9821952457672334,-0.023811666408085463,-0.18520474378911395,-0.020608411222672467
38,2.541000000000168,0.0,0.1368315177250075,0.0454085785105893,0.9690186771960172,0.0572407961435319,-0.036454938092961,-0.2475312740749098,0.9908624364535605,0.028302932550437934,-0.07984724853448923,-0.10495233649533685,2.542000000000371,1.0,0.0697193982988055,0.0510055179420164,0.9751869782971464,0.0610427550399059,-0.103342006340252,-0.2200124333167407,0.9965552266776773,0.03886433913189168,-0.043755413031854616,-0.058759740942728705,2.542000000000371,2.0,0.0703648646486972,0.0518962246629506,0.975523740197389,0.0480146458184675,-0.0955905805908247,-0.1562870579539303,0.9925432391558707,0.038078251275349626,-0.04156986686111975,-0.10807363857542664,2.542000000000371,3.0,0.0861415015195426,0.0339078797144442,0.9754670150288168,0.0494650814858055,-0.0513133904722265,-0.1652178016543356,0.9912661407662536,0.029954806954107897,-0.05292456937065001,-0.1170176810044163,2.542000000000371,4.0,0.072397684325883,-0.0093223325011221,0.976885699261172,0.0755042728138632,-0.0533677857688032,-0.2256462588567902,0.9949838122343775,-0.0009313560002902964,-0.04446285963919429,-0.08960691982347717,2.536000000000058,5.0,-0.1112763211995101,0.3023068961923268,0.9254496857500494,-0.0441168291313724,-0.217759979131442,-0.128914579475803,0.7252842102134127,0.13474917361052155,-0.18546818043927174,-0.6491587083841159,2.536000000000058,6.0,0.0922283287713785,0.165018951469695,0.9602399080583356,0.0380437912877552,-0.0208560483481301,-0.1771525163670389,0.9659741721136773,0.07288987688353851,-0.09482247801710804,-0.2293243605025282,2.536000000000058,7.0,0.0761484096390515,0.134731053144611,0.968001013960206,0.1922907631343946,0.2213829957348591,-0.1517885270563362,0.5606500206158558,0.050887994962398694,-0.15407818387778618,-0.8119986943370477,2.536000000000058,8.0,0.2887293552795272,-0.0322747943510998,0.9364868910184824,-0.0082316082002813,-0.049238414412281,-0.0290236917324571,0.9823961771250512,-0.023593420159785754,-0.18399657240571696,-0.022053640021471227
39,2.618000000000393,0.0,0.1396161958829254,0.0507759174946182,0.9683574360997907,0.0166018270331672,-0.0388806384029615,-0.190252704390942,0.9897250186504624,0.02868632163570408,-0.08097763130558924,-0.11429831860745394,2.618000000000393,1.0,0.0747249177804185,0.0543588106164341,0.974350196988268,0.0354974228739791,-0.08138592455135,-0.1659466011997159,0.9958524129033144,0.03942132818299548,-0.04718612998995705,-0.06706265529716438,2.618000000000393,2.0,0.0744049229944262,0.0568441407167982,0.9759665215059184,0.0301105345713964,-0.071740479338614,-0.1817887183070465,0.9913682263037983,0.0382295396149334,-0.04487187349721441,-0.11710703285858243,2.618000000000393,3.0,0.0903162668490442,0.0368068610828943,0.9750580633581146,0.042141110823898,-0.010805484323203,-0.2178625068454406,0.9899287800619527,0.03088977262152749,-0.05287720182564187,-0.12763555100180665,2.618000000000393,4.0,0.0738429161985978,-0.0008993064449958,0.975903896382838,0.0820865347239436,0.0068777597139694,-0.1477878694005343,0.9943397699356793,0.00321858995210732,-0.043773767324968786,-0.09675701471810805,2.617000000000189,5.0,-0.105508232701774,0.3039548093385213,0.9255660358462444,0.0688949880405662,-0.1356652629836751,-0.0359416498878859,0.7225429815891133,0.13502697559922455,-0.18079087699121885,-0.653463093382929,2.617000000000189,6.0,0.0909090221753275,0.1686381906468849,0.9617097848844374,0.014987645107043,0.0176479754985624,-0.1792577633514948,0.9641247961278248,0.07469325969846166,-0.09054127535097065,-0.2380894199768617,2.617000000000189,7.0,0.0621186593945327,0.1470064634120747,0.9664260819483816,0.1608986382704347,0.2074029837235467,-0.1857893753076488,0.5551919759735205,0.0618646912954516,-0.14696603281261789,-0.8162938288293357,2.617000000000189,8.0,0.2901321561380668,-0.0310790463977204,0.9352210566757384,-0.0310066041302143,-0.0119330444274755,-0.1155389710039695,0.9827567965799616,-0.023648589138987076,-0.1812328164293981,-0.028008735364086584
40,2.677999999999884,0.0,0.1411325880969815,0.0532483696767136,0.9675909278738718,0.007375182327023,-0.0272567826236684,-0.1798921746010421,0.9886218814344501,0.028639553081685747,-0.08150121846263271,-0.12314261219170004,2.679000000000088,1.0,0.0778213548727817,0.058408857032798,0.9744461206992858,0.04721915816364,-0.0415399456961419,-0.1397217463620248,0.9952446755527444,0.040732894303366046,-0.04857699812681474,-0.07395365006928925,2.679000000000088,2.0,0.0746919719640655,0.0597149267075441,0.9751442133615068,0.0243309408100815,-0.0091089305275378,-0.1383452965782461,0.9905361157128467,0.038453193739619126,-0.04485837955106434,-0.12388414403700787,2.679000000000088,3.0,0.0894728614845733,0.0408286415602629,0.9753956269566242,0.0159654045276376,0.021433375339089,-0.1989253858187809,0.9887277973888596,0.03074086129132737,-0.05112182884191133,-0.1373277129114872,2.679000000000088,4.0,0.0727314602759679,0.0039386948335321,0.977069404581442,0.0655452196463069,0.0306340948174253,-0.1604950009523382,0.9936161199503912,0.006494005043203387,-0.041854833706663666,-0.1045610203116645,2.701000000000022,5.0,-0.10047969517489,0.3082409043102357,0.9249802029057538,0.1086708660238647,-0.0227895677205982,-0.0603876221238063,0.7197079357425249,0.14051556096787815,-0.17397246719661447,-0.6572742540314804,2.701000000000022,6.0,0.087850999818545,0.1694426463195239,0.9617465318050898,0.0237754318638824,0.0479629462754601,-0.0308573588211619,0.964068749758121,0.07642031850912616,-0.08580789846227142,-0.2395169831562377,2.701000000000022,7.0,0.047510335401461,0.1569024066888373,0.9647929326053808,0.1197262908798792,0.157101922499221,-0.0231287482662674,0.5558271321370603,0.06813309077177034,-0.1407961406839797,-0.8164499543086973,2.701000000000022,8.0,0.2893751475788566,-0.0317177766393617,0.9353587582359886,-0.0010296023018807,0.0323927523099249,-0.0531317405741965,0.9835626328471634,-0.022867678209248673,-0.17646951137395758,-0.030661508695934873
41,2.780000000000655,0.0,0.1426489803110376,0.055720821858809,0.9668244196479524,-0.0155663156385836,-0.0177443732956378,-0.0921299270852729,0.9880710905624914,0.027207426245706733,-0.08161071743803208,-0.12773005421975916,2.780000000000655,1.0,0.0794447089516947,0.0611128417962925,0.9746767457917328,-0.0067192089714401,-0.0020353026120303,-0.0938193451588952,0.9949763915685031,0.03936093632697604,-0.04788958891516563,-0.0786084231257762,2.780000000000655,2.0,0.0728269014298706,0.0607775205712835,0.9757706366873986,-0.0189481626758341,0.0270923101636571,-0.0589068838306976,0.9903306820187616,0.03658943587520497,-0.042879828751714893,-0.12675832801363426,2.780999999999949,3.0,0.0881943760450992,0.040859851337672,0.9747918878317972,0.0052352509420843,0.0543426950567064,-0.1276698223166515,0.9880361255600356,0.030077511546180612,-0.04791886714568812,-0.1434703455734911,2.780999999999949,4.0,0.071907025157133,0.0069708830761113,0.9774245682006316,0.0343980844722167,0.0620112523574776,-0.1419435650155686,0.9929901635064569,0.008144651405307622,-0.03839976681684337,-0.11148837491558418,2.793999999999869,5.0,-0.1062978489529582,0.3142321202716764,0.9222868002403268,0.0157807082840281,0.1451781460107097,-0.0304242233814633,0.7198315078039631,0.14773613354953316,-0.1589553189183739,-0.659355626201874,2.793999999999869,6.0,0.0822760637339281,0.1718735406927286,0.9616424155299076,0.0356162243903214,0.0912437551083541,-0.0214764765994888,0.9642109634994181,0.07920157299356981,-0.07939835490979799,-0.24025034847110102,2.793999999999869,7.0,0.0386198307237581,0.1657777812332367,0.9652249664841108,0.0988008705964855,0.0967398731433781,0.1156881281635437,0.5616086767588059,0.07036700231244064,-0.13661725701268349,-0.8130067061599889,2.793999999999869,8.0,0.2908561275419795,-0.0383061572845381,0.9347263510703956,-0.2472946790585068,-0.0785704231447098,0.0023554567248691,0.9829942271587785,-0.035306918230220814,-0.17724511137503843,-0.03255674110304427
42,2.811000000000604,0.0,0.1448072593765889,0.0557904540097408,0.9674049218777152,-0.0025773592001538,0.0117244106759738,0.0286209122619112,0.9883691706407667,0.02620375163712132,-0.08060850599654747,-0.126261691292441,2.811999999999898,1.0,0.0794447089516947,0.0611128417962925,0.9746767457917328,-0.0045854821949983,0.0050074858173161,0.1294632693514754,0.9955559463600118,0.037699910162627345,-0.04736813466122118,-0.07213414073562921,2.811999999999898,2.0,0.0720211765914948,0.060208169139572,0.975933874036165,0.0287697904750785,0.0024216865731217,0.3300767706583716,0.9922973251717803,0.036242684939419206,-0.043283174752332704,-0.11026809615056915,2.811999999999898,3.0,0.087302162174413,0.042882227471312,0.9751294514303068,-0.0142114063631031,0.1300635187563894,0.112847562970328,0.9891990363078443,0.02855744284140115,-0.041479259405597164,-0.1376561297769029,2.811999999999898,4.0,0.0666632657865879,0.0095177343316659,0.9772959744764422,0.0628059388467573,0.125598895914648,0.1300406710223785,0.9939092746604564,0.011004799943844063,-0.03217547680234268,-0.10482359855806975,2.8209999999999127,5.0,-0.1212617949821707,0.3195649275883564,0.918207402569349,0.112118998558463,0.3873775020285203,0.088582537287801,0.7247746131754812,0.16547551103893907,-0.1402910989116202,-0.653940381769549,2.8209999999999127,6.0,0.0750231851640882,0.1753887275329769,0.9614443904575024,0.042571975939437,0.1073063602466415,-0.0792441901848929,0.9636167909133718,0.08272008742432102,-0.07238830109185558,-0.2436390799345675,2.8209999999999127,7.0,0.0284881705480758,0.1695169515070935,0.9646182806118516,-0.0170176702169203,0.336922024530348,0.3179038400742741,0.5775809526515154,0.0780297889542585,-0.12179725785835802,-0.8034158469610283,2.8209999999999127,8.0,0.2897285890827153,-0.0497000607979407,0.9337736602757756,0.119794378184646,0.0494922019986279,0.2467936859999274,0.9844577958323429,-0.031042722966928993,-0.17175904505280848,-0.01944294263404903
43,2.893000000000029,0.0,0.1492355009977427,0.0587342544502951,0.966091637783974,-0.0082513521854598,0.0056014533519613,0.1725183485076125,0.989485146045332,0.024533207660670974,-0.08039108471826992,-0.11770531413384064,2.893000000000029,1.0,0.0814672714992634,0.0647690563577905,0.9739409905189262,-0.0511863938643251,0.0542806494115015,0.2884384946848952,0.9967575318449944,0.03388899129071107,-0.04461689269414083,-0.057751985817741325,2.893000000000029,2.0,0.0738862471256897,0.0591455752758327,0.9753074507102732,-0.034046648354468,0.0416045088398746,0.3309644213179369,0.9941877169986725,0.03302002909588089,-0.04132348009712176,-0.09377009672671652,2.893000000000029,3.0,0.0945154364316535,0.0407055446232088,0.9746491116874124,-0.1461894125527542,0.2577643519923662,0.3246319360386203,0.9919662295189782,0.020940697850243124,-0.028941309353151496,-0.1213543871492577,2.893000000000029,4.0,0.0555783278647628,0.0106896427293708,0.9781624512370506,0.0062861303496603,0.2466248459360623,0.381358584626674,0.9960683719910277,0.011137451679206222,-0.019790791258341926,-0.08562756606727737,2.895000000000437,5.0,-0.1578712758086301,0.3393543101704478,0.9057926431823649,0.3017458594027539,0.6760556243675111,0.1537180604286599,0.7314408714098883,0.19949530058285325,-0.11887732779175487,-0.6411427747495808,2.895000000000437,6.0,0.0636846835779487,0.1745141624391875,0.9622650716854092,-0.0609467739950888,0.2247150187852927,0.1300733360878391,0.9663092131791214,0.08162565021274801,-0.059438052327289805,-0.23675066143103296,2.895000000000437,7.0,-0.0076195100755411,0.168647542706592,0.963925800777859,0.0931778497177474,0.7023545576095033,0.529670742626072,0.6033436817783562,0.10328226704868633,-0.10174015062763911,-0.7841926528103197,2.8960000000006403,8.0,0.2996167642842908,-0.0557244401068222,0.9311410104461046,-0.238514078076076,-0.2593164473177176,-0.0982610523645073,0.9819217749011252,-0.04222691911283411,-0.18269653963411966,-0.0258551674328506
44,2.9899999999997817,0.0,0.1618302411442474,0.0647159443016456,0.9633362962145364,-0.0608389541209579,0.0555553577323102,0.3061219670502798,0.9914278521003883,0.020474985521988034,-0.07817692742824284,-0.10266429303981119,2.9899999999997817,1.0,0.0773853554969821,0.0604516724276136,0.9752441243377528,-0.0746206794117176,0.1464128949584562,0.2116924483333939,0.9977640952854868,0.029578663671251695,-0.037068257815954304,-0.0470941299637944,2.9899999999997817,2.0,0.0685556533597213,0.0616175220511975,0.9759961082753824,-0.094345691401257,0.1819850033985278,0.1883046261476619,0.9955357841361439,0.028285910567810418,-0.03173215292366756,-0.0842702808741756,2.9899999999997817,3.0,0.0883610093359182,0.0338536981471238,0.975733190555134,-0.0947792253525419,0.239050858846902,0.4914536402191912,0.9950121835953607,0.016032465698642487,-0.018656171182923995,-0.09667296321726958,2.9899999999997817,4.0,0.0399906217037065,0.0080609573063873,0.978499244324213,-0.0156068181906024,0.2339208702449212,0.6655408689511941,0.9985521479625243,0.009813880004840778,-0.008450540531695711,-0.05220999830877049,2.9760000000005675,5.0,-0.1920162122562221,0.3504044265249911,0.8949751460808649,-0.0383264752752009,0.6573737427724684,0.3477432247192775,0.7463952395661191,0.2173565155249386,-0.08974141720593691,-0.6225727022202007,2.9760000000005675,6.0,0.0504796100896808,0.1689875359722432,0.9640207578943638,-0.1223172176355386,0.3584159267257916,0.4695005418845473,0.9731134446412074,0.0781087667213698,-0.040988719916499404,-0.21276552648255134,2.9760000000005675,7.0,-0.0218808314532017,0.1687220871441169,0.9651943257834918,-0.2356258422863342,0.0051041536795891,0.3942582827483906,0.6206466510407608,0.08993216220527626,-0.09015593048736846,-0.7736807151215085,2.9769999999998618,8.0,0.3167534810923141,-0.0791224654444741,0.9240794704341662,-0.2436316744460908,0.0965947535602583,-0.1941892572554537,0.9822384221744033,-0.052568038267315716,-0.17613809882098286,-0.03767828951524769
45,3.067000000000008,0.0,0.161140256427291,0.0618662328313335,0.9645208069263234,-0.0488790247668958,0.1762128584812039,0.4798921482467259,0.9942596235023408,0.017323006057984338,-0.07027968772672265,-0.07879390856616479,3.067000000000008,1.0,0.0663004419889615,0.0533512552239122,0.9760860079716857,-0.0929542193682157,0.1864019470780854,0.3123328489551528,0.9988252758711423,0.024395763428992728,-0.02771872734291304,-0.03137813190969576,3.067000000000008,2.0,0.058379276409648,0.0585722013410033,0.9764052218807286,-0.0671609445931405,0.1531903495545019,0.3097281138031805,0.9970295168829137,0.024988213377703676,-0.02424452148153168,-0.06870178188770416,3.067000000000008,3.0,0.0735928012779299,0.0242112334372295,0.9766938700409228,-0.1222892273063981,0.2810990463031198,0.6094110504565444,0.9977463774438597,0.00997774064411849,-0.00633545355002062,-0.06604901980808943,3.068000000000211,4.0,0.0288222397943603,0.0059176088704287,0.9793197947547538,0.0179969069017589,0.2541724933586062,0.567699091014714,0.9996608497678778,0.010375118744687611,0.003275806538743016,-0.023660334822624297,3.0969999999997526,5.0,-0.2222634736239833,0.3362285601424351,0.8935095431147593,-0.2943201450195791,0.5036110196835631,-0.0751776526462366,0.7491533187665008,0.22148354978604157,-0.05452897158149931,-0.6218849840714725,3.0969999999997526,6.0,0.0309698624709424,0.1593334670103783,0.9668788517228948,-0.1504492392998551,0.2947690795039123,0.0774423396305401,0.975025691521302,0.07355401818251983,-0.0244917327969258,-0.2081222292481422,3.0969999999997526,7.0,-0.0053891990764883,0.1364272419250347,0.9703971167486236,-0.6098005213768459,-0.1392971375735289,0.2355315055589518,0.6325056928065436,0.059759561342758394,-0.06797066950775726,-0.769249849842106,3.0969999999997526,8.0,0.294411832233505,-0.0888512966987483,0.930419862275017,-0.0041999556270534,0.5758802417209042,0.0586918361399976,0.9874150166767801,-0.05208133078933655,-0.14487709483852299,-0.0361904298890694
46,3.128000000000611,0.0,0.1517690575826681,0.0534854612558186,0.9659148298865284,-0.0792281128773265,0.1508363338370836,0.5900600247229365,0.9966627076990587,0.012274014331402638,-0.06372462810527305,-0.04951734470887789,3.128000000000611,1.0,0.0620314640140736,0.0506709933759291,0.9768554385898496,-0.0604242523307174,0.0941205521201027,0.6840048552700184,0.9994934094360124,0.02060889993789919,-0.02408356754875533,0.002859984519176869,3.128000000000611,2.0,0.0548803250656784,0.0549094715347205,0.976989815635999,-0.0127822311827084,0.0295682154541322,0.601366850905345,0.998682314542298,0.023817641691103744,-0.023993703290889703,-0.038609024425661054,3.1289999999999054,3.0,0.0590156307638684,0.0085623177086513,0.9785958522500484,-0.1694389856838589,0.1754040717812633,0.6532019858707103,0.9994446802017256,0.0011164590810794734,0.0005535019392199718,-0.03329832384961099,3.1289999999999054,4.0,0.0164355188530364,0.0071299173657055,0.9796351555545512,0.0383436490625207,0.1647881856556959,0.7392026167948381,0.9997907858855006,0.011906925401324679,0.00985102852346252,0.013400254586012855,3.119999999999891,5.0,-0.2662452236893986,0.3232618973216148,0.8854181083548109,-0.1323270339946606,0.7248588116250555,-0.1691591593917493,0.7467048618939074,0.23929120524379593,-0.01619050315163548,-0.6204106993957059,3.119999999999891,6.0,0.0102625077204204,0.1476865975718891,0.9681262055294896,-0.1720293250570347,0.2581487747991313,0.0141848074933878,0.9760189824732479,0.06774832322025921,-0.009794058594632778,-0.20664265525049347,3.1210000000000946,7.0,0.01655801418109,0.086834095359816,0.9756734453952416,-0.8609355458510606,-0.7792508081598127,-0.1775403766716763,0.6261619609639,-0.0003205869976767328,-0.05642584496221297,-0.7776485195035868,3.1210000000000946,8.0,0.2164422299090396,-0.05542236412336,0.9545910761509246,0.4362825800930925,1.220111381491495,-0.037400508354934,0.995647268244827,-0.025814805291023164,-0.08113046771066106,-0.03792044664096099
47,3.155000000000655,0.0,0.1456942371954802,0.0419266325603956,0.967492814820954,-0.1598034209133499,0.1340770602766443,0.5726467430544688,0.9980883526203791,0.0033480496740527833,-0.0578951924134426,-0.02136767704567673,3.155999999999949,1.0,0.0541165694127039,0.0416305322029537,0.9781299993883732,-0.140121368697096,0.1883880700671724,0.5756457512786428,0.9992967337582253,0.012949516456547279,-0.015398661133735071,0.03164220534306474,3.155999999999949,2.0,0.0516349945791521,0.0490454450012754,0.9772744607629108,-0.0963712768812493,0.1551385610533957,0.5797078186833053,0.9996381152546979,0.01861324648273955,-0.01691421750466036,-0.009544361246979114,3.155999999999949,3.0,0.0596638021034782,-0.0034570801436318,0.9782582886515389,-0.2271793544576648,0.0273689093481924,0.608823492778251,0.9999400515046188,-0.01056918196443085,-0.0004716223388359843,-0.0028219429321897447,3.155999999999949,4.0,0.0206879551297041,0.0009847406854031,0.9800270602377946,-0.2020932499079999,0.0149891488400077,0.5734673357235938,0.9990751293624577,0.0009534654776677861,0.00839534267997548,0.042160348839368665,3.181999999999789,5.0,-0.3185371785140334,0.3105698677813907,0.8728696484186905,-0.0210681323012896,0.8216715695941119,-0.5847597474087314,0.7288252698764968,0.26378455724810596,0.025960781057504444,-0.6313140828413036,3.1810000000004948,6.0,0.0010059660913607,0.1335384688867514,0.9701625973823176,-0.2816611501972024,0.0323819943715556,0.0651178172358819,0.977578067059962,0.054178133498770736,-0.005960904314158978,-0.20339695246894668,3.181999999999789,7.0,0.0853136597289565,0.0364892292786616,0.9759093787900088,-0.5320972880982732,-0.9146110366819752,0.141198791497858,0.6294195564616376,-0.05523375516046797,-0.06267644778565123,-0.7725619179894136,3.181999999999789,8.0,0.1406579956742108,-0.0344200832708509,0.9694455044614636,0.2987809462055542,1.1211610553083955,0.466400370391385,0.9995457808244935,-0.010048656787997096,-0.024270867999299582,-0.01477096812233473
48,3.244999999999891,0.0,0.1412692164996936,0.0185747184901958,0.9695194625702844,-0.3685957320485959,0.0416929387664655,0.591825576155549,0.9982524305907969,-0.0162600563768599,-0.05636501110204973,0.00711905258118545,3.244999999999891,1.0,0.0433541751221642,0.0281343313009925,0.9779769296367492,-0.2285830964457726,0.1712422629251134,0.4579124603277156,0.9984864562178761,0.0011210796288895672,-0.007858322128654005,0.0544222996873098,3.2460000000000946,2.0,0.0384444768669729,0.0343481802238745,0.9772999665986554,-0.2909361276035689,0.2173669956080808,0.3111218232740765,0.9999554607303355,0.0037779020664858386,-0.006251350057367085,0.0059770087852334935,3.2460000000000946,3.0,0.0641694834821902,-0.0255736248617011,0.9775117733823272,-0.3995677197655878,-0.1592441472137272,0.3736243855493543,0.9993376871823867,-0.03082034772582381,-0.011018858475633534,0.01590213510544004,3.2460000000000946,4.0,0.0277842231028742,-0.0221138895965949,0.9797168023635604,-0.4012927774439013,-0.1516831894258193,0.5133540071370323,0.9974976975387613,-0.019687001791294675,-0.0018136913954423903,0.06787839044100549,3.257999999999811,5.0,-0.4018034516503331,0.3021081591729498,0.8404794146218038,0.0340965923543285,1.2356676295579052,-0.2367600141929972,0.7184772998892065,0.3032982724535504,0.075698552748027,-0.6213455210931041,3.257999999999811,6.0,0.0125381544492476,0.1038249892845772,0.9747580039594772,-0.6194207672598604,-0.3251768929577944,-0.1433361961204028,0.9771320513787923,0.020265178608027856,-0.016506654789693178,-0.2110208687592577,3.2590000000000146,7.0,0.1321228481992782,0.0092611080205745,0.9708567272579108,-0.33617096655165,-0.256412269919218,0.4831421120702998,0.6465351403917747,-0.07695573488224351,-0.05446900462650098,-0.7570358344506026,3.2590000000000146,8.0,0.063722795737605,-0.0260670606762221,0.9773954745399048,0.2825233806157879,1.0511439769059374,0.8837119616039162,0.9991987316818084,0.0034208878087208993,0.027136410928363656,0.029219981758936642
49,3.2960000000002765,0.0,0.1417748861936146,-0.0120478112104279,0.9695899813270688,-0.4436307086992394,-0.0305572236508902,0.7868656754646447,0.9965137764156602,-0.03950077197633104,-0.058060188854073734,0.04504438807779522,3.29700000000048,1.0,0.0388551293937516,0.0034100289642202,0.9786606411940036,-0.4774858665742193,-9.496153189718072e-05,0.4447086651755041,0.9967744471832709,-0.022681667872988004,-0.009836864648310864,0.07635102801452599,3.29700000000048,2.0,0.0342372779602634,0.0040398505804856,0.9794689828703914,-0.5211119423881523,-0.0441419663166658,0.4942989091222723,0.9992375700179683,-0.0225624767491305,-0.009170128898714314,0.030514292446522335,3.29700000000048,3.0,0.0783740431862749,-0.0499275298101094,0.9743309248513548,-0.3703872644174715,-0.2364246822040369,0.492278997672765,0.9976778231507745,-0.04877661186866734,-0.02484214847222706,0.04052987770804686,3.2979999999997744,4.0,0.0402443217266604,-0.0468293651657505,0.977505194424528,-0.3901737026812887,-0.17803990910097,0.3739994992453733,0.9954031417128046,-0.038806060143195216,-0.013299732345816101,0.08654358603599914,3.3820000000005166,5.0,-0.4669780605099152,0.3069983414635316,0.8050201918840539,0.1235695214170871,0.9359004128211742,-0.0936671057064529,0.7101522771598033,0.3347888280352674,0.10716002678545795,-0.6100138625694155,3.3820000000005166,6.0,0.0212463314499422,0.06592810136079,0.9779192598833918,-0.4618199578722454,0.1407725876124257,0.0974746991058858,0.9784696405034783,0.0001051356872437971,-0.004864757140896045,-0.20633343330018394,3.382999999999811,7.0,0.1426658223017993,-0.0193295375830129,0.9696648040038256,-0.4077390926216488,-0.5243434913480509,-0.4071154902171784,0.6283646408800841,-0.1070110664036929,-0.05627255753903859,-0.768465945261599,3.382999999999811,8.0,0.0102708098956179,-0.018785016892594,0.9787582099806024,0.0613754257205582,0.6866556035590584,-0.0492685850357141,0.9979369087330258,0.004128892568936773,0.05822694197322281,0.02673016391595089
50,3.382999999999811,0.0,0.143409403748456,-0.0475870501489331,0.96777591185906,-0.3955450723054444,-0.0740350539992128,0.8742724224747362,0.9924903429828631,-0.05963081821118973,-0.061593204189632655,0.0872545804120168,3.382999999999811,1.0,0.0497068677113604,-0.0248716982027688,0.9780412189324312,-0.3306330997043537,-0.2825753295480933,0.7023808121706647,0.9927714471031718,-0.03715299708049792,-0.025449618509394024,0.11125118220647055,3.3850000000002183,2.0,0.0436825390398971,-0.0237627463370065,0.978126355676786,-0.3826791218382068,-0.2819081363168606,0.7962858544652852,0.996430258279588,-0.04043264876853874,-0.023525933810127738,0.07027426084132642,3.386000000000422,3.0,0.0895603017347939,-0.0822101367636986,0.972162767115912,-0.4985943869718559,-0.1524621323579924,0.4879873881055627,0.9946729785335975,-0.07298795552616921,-0.033894994230941736,0.06441702794522415,3.386000000000422,4.0,0.0487023775850242,-0.0648202262252856,0.976167207341892,-0.1422546271457019,-0.1646561833650125,0.7929652296167796,0.9907883822477027,-0.044844996358925165,-0.02171035437479409,0.12592048450299478,3.405999999999949,5.0,-0.4961732260936407,0.2786389669195039,0.7975778681870883,-0.4205286209685122,-0.1347135453996739,-0.5822146131050003,0.701087266216094,0.3080568505960352,0.1238398892541839,-0.6310636289471983,3.405999999999949,6.0,-0.0053369003374248,0.0543515967957449,0.978481691918935,-0.021101744982256,0.4909915549847904,0.9128646304096488,0.9867525113936618,0.0066819751604523985,0.01946523400183591,-0.1609221461810346,3.405999999999949,7.0,0.17123159132475,-0.0383241446991085,0.9639901462491592,-0.3212044194833319,-0.2052411303175216,-0.3930026166999457,0.6112770204797771,-0.12096584745115935,-0.051048317913189596,-0.7804497019168006,3.405999999999949,8.0,-0.0337474756971018,-0.0244646889214417,0.97912133409504,-0.1714828298336986,0.3075415756098463,0.5940854940646649,0.9959655728055811,-0.004795207295476309,0.06930531638369268,0.05680102898716331
51,3.456000000000131,0.0,0.1408668012551362,-0.075453957349487,0.966790693286012,-0.2618509480879471,0.0733611571113876,0.6018545076313221,0.9889532390671245,-0.0720092978577683,-0.05827019794431096,0.11571834769043773,3.456000000000131,1.0,0.0686237716958017,-0.0427550410861573,0.9765125623462116,-0.1857780319344706,-0.2871256692427598,0.4270488674480828,0.9893844971891138,-0.043352087679090684,-0.04092815699446828,0.13252848441276802,3.456000000000131,2.0,0.0687020642346415,-0.0402321068998718,0.9767908701171896,-0.1197630724064419,-0.4282606062654346,0.7549288124311938,0.9921579952828675,-0.043493643325255786,-0.04481177682174582,0.10827151077109129,3.4580000000005384,3.0,0.0912935704375235,-0.09925751308013,0.969267470873709,0.0124091926895318,-0.085325784070575,0.7027241450605117,0.9918375691890753,-0.07073618281423666,-0.03717039387504951,0.09936292369466043,3.4580000000005384,4.0,0.0502811151032591,-0.0934848632663487,0.973965805253986,-0.7075074905817433,0.0483102720559939,0.0022946153333474,0.9886300048989484,-0.0800304806072675,-0.024731628143264815,0.12487666778329133,3.483000000000174,5.0,-0.4662315162402818,0.2297823296361895,0.8302814307517983,-0.698528582596204,-0.9421220006082096,-0.3407521212745314,0.7082588758689183,0.24630376808462223,0.11453637710005257,-0.6516020540951412,3.483000000000174,6.0,-0.004707160472635,0.0791843930491444,0.9770904126731178,0.4483130480890877,-0.006233115554471,1.0244972357400168,0.9933096329352804,0.033265072701638705,0.011451204553612386,-0.10999217231423461,3.4840000000003783,7.0,0.1549291839992977,-0.0428202156064142,0.9662299814644192,0.1029835639602899,0.5922358232228789,0.3431396259175744,0.627310193766159,-0.0910201380050891,-0.03293368543940179,-0.7727306307103252,3.4840000000003783,8.0,-0.0421037630385977,-0.0367123681543626,0.9780411418557442,-0.1718552064418079,0.0128579701650872,0.1833542631364161,0.9955907991079568,-0.014260548858734845,0.06470720127022532,0.06639710522004873
52,3.4859999999998763,0.0,0.122557030481689,-0.090612374377408,0.967777955880996,-0.1082114556671705,0.2034311631133495,0.1395008599968599,0.9885026163871394,-0.07563919160330343,-0.04924808959771661,0.12130917426293086,3.4859999999998763,1.0,0.0740989740234712,-0.0577777128812752,0.9753543345589222,-0.3696999219166171,0.0607945052432203,-0.4890644047869186,0.9915932333091444,-0.05915256315288456,-0.041843811250088306,0.10720508098046368,3.4859999999998763,2.0,0.0843619342968615,-0.0576919748299107,0.9748105970299652,-0.3366273712707516,-0.0781877713733019,-0.6918643046786938,0.9943462979264093,-0.05633969092041195,-0.052560090931483304,0.07306651673859259,3.4859999999998763,3.0,0.0980741151521886,-0.0944215469227696,0.9700659974526612,0.2162368273267153,-0.1645001188108615,0.4656059082080584,0.989732625900809,-0.0573111650827769,-0.044626571200368406,0.12309845136004854,3.4859999999998763,4.0,0.0526975374597337,-0.135100359600559,0.9688363444779928,-0.4810960084358591,-0.1941660120520826,0.6392040928207732,0.9818437957897388,-0.10170101018478216,-0.03505491846467353,0.1562396168966993,3.561000000000604,5.0,-0.3869278670518966,0.1815834124614899,0.88182554398107,-0.3540421123341422,-1.0690958497784422,0.2923259891070198,0.7293177162847808,0.19626885050010734,0.08121292438642227,-0.6503681018847123,3.561000000000604,6.0,0.0234963188630112,0.0895021879367603,0.9756389093073424,-0.2574816979429059,-0.520622661529216,1.0984242386948118,0.9981287154050097,0.019215300181808184,-0.017039859461053398,-0.055493088870740524,3.561000000000604,7.0,0.1082887677107573,-0.0413139555121977,0.9731149468935424,0.0770251381321737,0.874415445684765,1.377435707401907,0.6828897693142674,-0.053375913090550293,-0.0007550420561376178,-0.7285684626575255,3.561000000000604,8.0,-0.0428938087531054,-0.0452169395244629,0.9778218393709016,-0.1578052086328177,-0.0759211536680565,0.1263670221245738,0.9954894755788718,-0.022473877198167836,0.05611385413482887,0.07312225536401196
53,3.590000000000145,0.0,0.1057759187560595,-0.0905907524578488,0.9698741003761426,0.0476783434843625,0.2775052820143432,-0.0734526832576326,0.9899673076338362,-0.07116890850782351,-0.036482797870975005,0.11648485625833115,3.591000000000349,1.0,0.0624865580678875,-0.0762999129131152,0.9750716657509232,-0.1764393323488705,0.2743844593081762,-0.6128935086855706,0.9945167953398262,-0.06569409047299814,-0.03054077074660632,0.07541811179107501,3.591000000000349,2.0,0.0735437288337636,-0.0778544269253756,0.9736097822831008,-0.2889544559116902,0.3909084567740457,-0.389987759217111,0.9956757255076373,-0.06916123410632208,-0.034262762851823975,0.051697547461078616,3.591000000000349,3.0,0.1032410618972347,-0.078542913295079,0.9715396512286324,0.102164386612572,-0.0580119933667313,0.2339444286241432,0.9884574521259878,-0.050039325765974745,-0.04753646573742806,0.1348636928112295,3.591000000000349,4.0,0.0570264117358466,-0.1827531329695054,0.9605614403849264,-0.3291555855097934,-0.1898729187122652,0.6726847784807105,0.9740794521336157,-0.11600748929417495,-0.04378871005758493,0.18919310830532302,3.617000000000189,5.0,-0.3379341675261371,0.2019176467313519,0.898077815312732,0.042873798845301,-0.5064537911598207,1.1684549845571677,0.7689953043855741,0.1860784647873709,0.04748498688843412,-0.6097263343464171,3.6159999999999854,6.0,0.0814977990517775,0.03530808188631,0.9747294230211916,-1.0871090223986577,-1.3538066980718713,0.1687254711898591,0.9945525506641499,-0.03914970001285816,-0.08350070917113733,-0.04858144217964534,3.617000000000189,7.0,0.0604393515799512,-0.0524589379337703,0.9766110508341872,-0.1232258498301033,0.3988849109789708,0.8285069621904209,0.7128072683924227,-0.041988307061563056,0.01963512900761988,-0.6998265798795376,3.617000000000189,8.0,-0.0428137076659651,-0.0516789708462224,0.977336313869575,-0.10318023113021,0.0542530238403614,0.2383096979657377,0.9944605359055677,-0.02767511069114342,0.05514677056784558,0.08509503199706385
54,3.6500000000005457,0.0,0.0901995073497019,-0.0852262483735711,0.9720182793867804,0.0893097697708286,0.2582451941780589,-0.1597811560294799,0.9917763192603563,-0.06462848802279346,-0.025102939090875707,0.10757664030479577,3.6500000000005457,1.0,0.0491951274765787,-0.0720813187142196,0.97580742102373,0.1483544073356022,0.1649543438158706,0.0004155183663601,0.995383308800328,-0.0558439476798747,-0.02149570896781463,0.07504303142337194,3.6500000000005457,2.0,0.0518555772473317,-0.08369844712975,0.9748228398311228,-0.0304562375298148,0.3579368818664307,0.1764617459637062,0.995737648970937,-0.06911343252226995,-0.015344900808341798,0.05911346619851274,3.65099999999984,3.0,0.1010703625870743,-0.07648932738403,0.9712734757023151,0.1193783862059102,0.0908378945603291,0.1652925590687201,0.9878570125287703,-0.04332866459511334,-0.04277563911148115,0.14293842842546406,3.65099999999984,4.0,0.0552239032425389,-0.1932379412022421,0.958607019894272,-0.0234146231949881,0.0242829898324217,0.2847875554705155,0.971503129045845,-0.1155984871414022,-0.04146137897390562,0.2027303975192996,3.690999999999804,5.0,-0.2761492036429803,0.2360439720196053,0.909952669428776,-0.4816518238323403,-0.1974492806925616,3.1115266177462635,0.8648783643977975,0.16570130125973284,0.026396774621424604,-0.473108553977845,3.690999999999804,6.0,0.1010796868912464,0.0065759542090223,0.9746089747812752,0.2245927742292531,1.0421163324144185,-0.6895643233914658,0.9958751809191353,-0.018499557665954926,-0.029434325888164376,-0.08380937211883402,3.690999999999804,7.0,0.0535906890300737,-0.0654893497866914,0.9760595182230428,-0.126541690778511,-0.0491375948417982,0.3639313807291125,0.7252872024705,-0.04803255041001305,0.02156924469296979,-0.6864299787429159,3.690999999999804,8.0,-0.0470493814492105,-0.0591657640044307,0.9774199548172828,-0.0734430023962032,0.043312427411541,0.1368379538898696,0.9938078197592095,-0.03157505512785863,0.053831486643441846,0.09193043198460642
55,3.681999999999789,0.0,0.0735485821760504,-0.0790620503812386,0.9746162312671628,0.0910941177448187,0.3129023714321907,-0.1507227605554086,0.9932896447718861,-0.058743193961771197,-0.01116595633141181,0.09899616240700844,3.6829999999999927,1.0,0.0399605283641087,-0.0677718145475382,0.9772738292442888,0.0307053027393002,0.1680768332446643,-0.1691836549110728,0.9963382026500488,-0.052471587504925046,-0.013592488364488947,0.06612233136274509,3.6829999999999927,2.0,0.0339758571075316,-0.0794223307304964,0.9749972997476168,0.0573059102013034,0.1677789980247622,-0.1541036332021573,0.9966455409640559,-0.06367294002794531,-0.007741767190552342,0.05082801811431574,3.6829999999999927,3.0,0.0910828297053444,-0.0722443248224645,0.9727665062407388,-0.0143210003540874,0.2404038645013884,-0.3437550606320222,0.9906306018821847,-0.04367007300332306,-0.03257305037528787,0.1252315125185107,3.6829999999999927,4.0,0.0420127471823801,-0.1889934444643859,0.959277544313259,0.048672078093,0.4055444642176574,-0.6711153128929039,0.9790347222833901,-0.11333990332306908,-0.024833425597756708,0.16741678485529315,3.811000000000604,5.0,-0.2343353594182732,0.2122431655672682,0.9274490702978216,-0.4150682106284485,-0.7099354430131245,-0.4191610684525207,0.8587044602278604,0.12937010524517972,0.011030223079412907,-0.4957503000830644,3.8100000000004,6.0,0.0571428533942757,0.034643244165775,0.976276876679782,0.1559105422230063,0.3010488759820104,0.8983587892303853,0.9991030748400196,-0.007375213630923784,-0.014798402369831778,-0.038982808472671514,3.811000000000604,7.0,0.0182770874631519,-0.0687013558715403,0.9773372354388612,0.016120965564005,0.1686106430660613,-0.1414052170066739,0.7203606851318235,-0.04021150398409772,0.02637679291705753,-0.6919304755964701,3.811000000000604,8.0,-0.0438300298653484,-0.0629911618297217,0.9773740542971991,-0.0666481426344461,-0.0510132697501109,-0.080822376607476,0.9943667918700632,-0.03512032567620933,0.047400111199100696,0.08805949925333773
56,3.756000000000313,0.0,0.0660084827430659,-0.0768022329589378,0.9748165454168696,-0.0239098707274818,0.0954092335962379,-0.1405261569896521,0.9940624895535792,-0.05802924936162248,-0.0095721115294734,0.0915464240805409,3.756000000000313,1.0,0.0338075525234133,-0.0655288486911839,0.97694217811577,-0.0344445845366503,0.0728524958846665,-0.262836115925399,0.997176895449157,-0.05222526177033613,-0.011343145048700796,0.052745561669251095,3.756000000000313,2.0,0.0334686153926451,-0.0750197372761718,0.975597197004334,0.0018729715325252,-0.0935928845085373,-0.4572602830953575,0.9976562599687457,-0.06052473904077675,-0.014914042285621777,0.02821904059182957,3.7570000000005166,3.0,0.0722862818365004,-0.0787875578696229,0.97413613739723,-0.0685696901539187,0.3475266200994657,-0.7220142278793725,0.9948091431741972,-0.04721032145064904,-0.018309573409032717,0.08826501983869507,3.7570000000005166,4.0,0.0209278278225505,-0.1716502868463678,0.9649907797736668,0.5975858227597409,0.4130429595023134,-0.2943901341077942,0.9849583954565722,-0.0840506640019275,-0.0007590120456680634,0.15096976187688757,3.841000000000349,5.0,-0.2370714252938194,0.2071872840648589,0.9284247781220536,0.1459471187439108,0.2910020888547033,-0.1694498690210668,0.8527190709631881,0.14519766405731702,0.025109438593354235,-0.5011560041159862,3.8400000000001455,6.0,0.0602616490265667,0.0377378644647305,0.9775793508673556,0.0746885162192473,-0.1513365678060939,-0.2271731989700392,0.998442969518666,-0.0012348706928985262,-0.02417935500626198,-0.05025405958329106,3.841000000000349,7.0,0.022490756666004,-0.0646594597460681,0.9763843096496057,-0.0262714469637105,0.0058843736197012,0.0175852072704495,0.7209378864360536,-0.04008989620325301,0.026356866947783664,-0.6913368785825221,3.841000000000349,8.0,-0.0403844017966108,-0.0640089400416137,0.9770711108646488,0.0037957016649285,0.0067217265523286,-0.0658294165549456,0.9947899308327581,-0.035042020969443595,0.044666644057702945,0.08467550524653412
57,3.835000000000037,0.0,0.0559318114223578,-0.080332189140504,0.9748063253071904,-0.1013650908698115,0.0775340639560832,-0.013965479724543,0.9939686927774732,-0.06144587503957445,-0.008485338727325646,0.0904358404922751,3.835000000000037,1.0,0.0282009487799494,-0.0743138338081021,0.9763176535291436,-0.1190939965377197,0.1262561714431659,-0.3309700855143719,0.9977211439208535,-0.056796263625676115,-0.006800847664313801,0.0357834023322658,3.83600000000024,2.0,0.0336998051170653,-0.0808076548099333,0.9749289441078208,-0.1324988772195487,0.1334662734291303,-0.1756584977941377,0.9976480447098797,-0.06521868846023744,-0.00936161586636731,0.018901367951848852,3.83600000000024,3.0,0.0512702261512808,-0.0852766093494609,0.9752395930274036,-0.2402606208895837,0.4084579567856513,-0.3552895956900212,0.9957921813641296,-0.060017999002249765,-0.0012535843504251885,0.06924016071696118,3.83600000000024,4.0,0.0016921105536372,-0.1193891479533371,0.972524739074976,0.8258804810840727,0.4353419737309421,-0.7607517302230611,0.9925751304561242,-0.043763379588898366,0.02447283235576991,0.11081722557189508,3.906,5.0,-0.4013104407032624,-0.0896048231775659,0.8977655071597876,-4.920105320517312,-5.13316647410261,3.2697237796633982,0.9310122147429696,-0.2176940893931292,-0.04593321070714522,-0.28933661986831205,3.905,6.0,-0.3406249818845933,0.1727945134837282,0.9893526559453116,8.846325180510233,17.036535007604048,5.126622382409835,0.7401729420125782,0.35943001767913557,0.5185029962959565,0.23261281378233628,3.906,7.0,0.4979220647608942,-0.1481651566064788,0.918445808848854,-0.2919840878441523,1.730240037921567,6.361566783015361,0.9175040749473933,-0.0039648795199702,0.09742144798433951,-0.38558995533851115,3.906,8.0,-0.4241268230934125,-0.0890779396505761,0.9879015935812115,-1.9576705650373845,-3.1478173907781355,7.313307171216032,0.9018140802061011,-0.09559182608548035,-0.059364946433346714,0.4172162157234938
58,3.891000000000531,0.0,0.0520633679661826,-0.0865688541835195,0.97443329130391,-0.0810841584144306,0.0744719286922891,0.0033004645542158,0.9938488263285759,-0.06384182716108935,-0.007336418653895541,0.09019372745030728,3.891999999999826,1.0,0.025217991845905,-0.0740109119210219,0.9764186795652152,0.0300904914380739,-0.009467817899362,0.2344558374830399,0.9974174234006231,-0.05340983523672244,-0.007332728928512673,0.04745633870526792,3.891999999999826,2.0,0.0256535537124802,-0.085015707215739,0.9756706538112788,0.0272339461091529,0.0567876917044711,0.3987828904162889,0.9973216838454363,-0.06188697113835732,-0.005722138258574654,0.03855799357816057,3.891999999999826,3.0,0.0252336492396611,-0.1016460814258034,0.9748693948816062,-0.1203625454411318,0.3760262103600089,-0.4738366995317933,0.9967126074682962,-0.06635045421826327,0.013980032549479734,0.04434133544105174,3.891999999999826,4.0,-0.0165757227432249,-0.0616967711491873,0.9781706159179516,0.8307040352898435,0.19350792743744,0.0727903568942002,0.9929546084653895,-0.0023110467002726938,0.036715807493735333,0.11263993106610509,3.970000000000255,5.0,-0.2344091781570554,0.205098406621404,0.9291657445241376,-0.3067846821639534,-0.2509259113459964,-0.1379418972420741,0.9326046092395479,-0.20384158874886402,-0.04264780459170119,-0.29475144492435895,3.970000000000255,6.0,0.0651800866083481,0.0341361526428283,0.975895117004114,0.0073691661522003,0.000971421843996,-0.1204544399902895,0.7700246851473869,0.33609160530503257,0.48687525727721936,0.2388658639454273,3.970000000000255,7.0,0.043059441719502,-0.0747055859210543,0.9764517191909676,-0.1614738437523001,-0.3546688738626986,0.1007463439243818,0.9215890234258306,-0.02169868434350186,0.0740588617581345,-0.38041835391299705,3.9710000000004575,8.0,-0.0442476236972452,-0.0594184626512645,0.9771261914887492,0.1370564121120843,0.0516726250461055,-0.0360416389436329,0.9040438318139851,-0.08454791958226639,-0.04766470537275093,0.4162745191758997
59,3.967000000000553,0.0,0.0414812325741224,-0.0909229610924509,0.974678573936204,-0.0622841371325519,0.1064303994145951,-0.0442732802364255,0.9940015483772643,-0.06545760370826796,-0.004264347493625924,0.08751022386456371,3.967000000000553,1.0,0.0204982006746289,-0.0807649431008803,0.9760921307617506,-0.1421069330806851,0.1171946453879874,-0.0279289610225749,0.9971809488770979,-0.059493130037880065,-0.0024171760528459364,0.045660485485767205,3.969000000000051,2.0,0.0197484248325562,-0.0889010294058472,0.9758542958286412,-0.1411525419000184,0.1122988539882926,-0.1585518581021769,0.9972670045995864,-0.06740391765629243,-0.0015380164277873278,0.030213704291597726,3.972999999999956,3.0,0.0103232121439616,-0.1032826907732851,0.9748887716440584,-0.1220032079502742,0.2440800607766356,-0.1985037184028835,0.996593671103342,-0.07171709738341447,0.023006103044793072,0.033592140187163694,3.972999999999956,4.0,-0.0360587116577189,-0.0373858323719124,0.9787962345919834,0.1594139996990096,0.3546601627818002,-0.9462447145061432,0.9964742416587026,2.6921348114552706e-05,0.05317769663297663,0.06489389468020701,3.976000000000568,5.0,-0.2249915235134748,0.2010305201750818,0.932446000744934,0.131236891752997,-0.0961057573823994,0.0843120270835983,0.9413039925471306,-0.16863960692778526,-0.036954621601938555,-0.290072116088967,3.976000000000568,6.0,0.0624199268652291,0.0335764790540188,0.9761564284398656,-0.0820448351542183,-0.0221211336751914,-0.064411970696793,0.7987564812985802,0.3108085641663619,0.45171800766152426,0.24766300001949854,3.976000000000568,7.0,0.0493039824382635,-0.0812389961971032,0.9753026929177496,-0.0249547674165781,0.0664926886079512,0.1145431618050596,0.9238375702246292,-0.023788775252721002,0.06964341395852366,-0.3756434917653045,3.976000000000568,8.0,-0.0430399841508407,-0.0544865904596214,0.9775933567820418,0.0043186788534624,-0.0518307802086237,-0.1304877807074887,0.90715916880636,-0.07796939287856604,-0.04486573809014632,0.41105970584615587
