Timestamp,Ax,Ay,Az,Rx,Ry,Rz,EMG
0,-0.436,-1.2305,-0.1685,-0.8574,-0.2534,0.0728,2057
0,-0.5176,-1.196,-0.2065,-0.908,-0.5504,0.037,2035
0,-0.8015,-1.1296,-0.197,-0.8957,-0.7292,-0.0125,2112
0,-0.8696,-1.0911,-0.1587,-0.868,-0.9339,0.0948,2037
0,-0.6721,-1.0347,-0.2039,-0.8348,-1.0689,0.1915,2060
0,-0.5645,-0.9795,-0.2063,-0.7793,-1.2154,0.0984,2101
0,-0.5349,-0.991,-0.481,-0.7769,-1.2846,0.2743,2033
0,-0.1033,-1.03,-0.4006,-0.5966,-2.1724,0.385,2044
0,-0.3035,-0.967,-0.345,-0.6576,-2.2803,0.0819,2070
0,-0.9307,-0.9275,-0.292,-0.5874,-1.986,0.0747,2048
0,-0.7371,-1.0066,-0.3291,-0.5558,-1.8491,0.3306,2060
0,-0.3723,-0.915,-0.3511,-0.6348,-1.7651,0.1501,2048
0,-0.4734,-0.7727,-0.387,-0.5481,-1.8438,0.1141,2016
0,-0.4446,-0.8816,-0.3999,-0.5442,-1.8675,0.1116,2047
0,-0.2888,-0.8284,-0.5603,-0.5771,-1.7423,0.2787,2007
0,-0.1211,-0.866,-0.5071,-0.5907,-1.9085,0.4906,2119
0,-0.1904,-0.7708,-0.3716,-0.6104,-2.019,0.4996,2102
0,-0.2346,-0.6128,-0.2317,-0.4972,-2.1244,0.4932,2009
0,-0.2856,-0.6511,-0.2463,-0.6224,-1.9201,0.4281,2073
0,-0.28,-0.7122,-0.2034,-0.6264,-1.9624,0.3545,2037
0,-0.3154,-0.7302,-0.2959,-0.6183,-1.8579,0.2816,2057
0,-0.2488,-0.7227,-0.3713,-0.6849,-1.6402,0.439,2073
0,-0.1438,-0.6812,-0.3704,-0.703,-1.7568,0.6509,2071
0,-0.1565,-0.5398,-0.3074,-0.6593,-1.8719,0.6827,2076
0,-0.1768,-0.6221,-0.1206,-0.6814,-1.9912,0.6462,2048
0,-0.469,-0.7053,0.0073,-0.7996,-1.702,0.5755,2070
0,-0.4966,-0.5903,0.0872,-0.7765,-1.5603,0.4675,2052
0,-0.3279,-0.6516,0.0479,-0.8954,-1.3969,0.3529,2079
0,-0.311,-0.625,0.0376,-1.0143,-1.3873,0.4472,2079
0,-0.1855,-0.6401,0.0361,-1.0178,-1.5347,0.5934,2099
0,-0.012,-0.6199,0.0403,-1.0357,-1.8832,0.7638,2043
0,0.0354,-0.6328,0.0847,-1.025,-2.1861,0.8309,2131
0,-0.2339,-0.6306,0.1201,-0.9985,-2.1893,0.8822,2044
0,-0.2227,-0.7747,0.0818,-1.0706,-2.1421,0.9312,2030
0,-0.2373,-0.7549,0.1458,-0.9918,-1.9398,0.9556,2023
0,-0.1118,-0.8633,-0.0371,-1.2657,-2.0868,0.9716,2029
0,0.0833,-0.699,-0.2329,-1.2637,-2.1377,1.0728,2067
0,-0.0088,-0.895,-0.2312,-1.2471,-2.3956,1.2548,2032
0,0.0056,-0.948,-0.1404,-1.2523,-2.4754,1.3382,1979
0,-0.2097,-0.9529,-0.2905,-1.2573,-2.1569,1.5131,1978
0,-0.2498,-0.8943,0.0049,-1.1395,-2.1758,1.4324,2153
0,-0.23,-1.0527,-0.0022,-1.2159,-1.9921,1.3378,2003
0,-0.1113,-1.0635,-0.2073,-1.2892,-1.7535,1.3657,2008
0,-0.031,-1.0686,-0.3652,-1.3411,-1.795,1.4841,2139
0,-0.137,-1.0525,-0.4751,-1.2818,-1.8712,1.5993,2032
0,-0.0967,-1.1301,-0.2263,-1.3021,-2.094,1.5446,2027
0,-0.374,-1.1184,-0.3499,-1.1239,-1.6102,1.6906,1985
0,-0.2852,-1.2288,-0.1316,-1.1054,-1.6319,1.6813,2088
0,-0.2039,-1.2988,-0.428,-1.2182,-1.311,1.7803,2083
0,-0.1929,-1.1118,-0.5059,-1.1046,-1.3708,1.7138,2126
0,-0.251,-1.2603,-0.3723,-1.2142,-1.4886,1.6627,2128
0,-0.2683,-1.2429,-0.376,-1.1635,-1.2762,1.7008,1939
0,-0.3093,-1.2827,-0.3757,-1.1802,-1.1724,1.7325,2166
0,-0.2402,-1.2104,-0.4004,-1.1493,-1.0017,1.7568,2075
0,-0.5293,-1.1855,-0.363,-0.8574,-0.6541,1.8032,1948
0,-0.27,-1.3599,-0.2996,-1.0271,-0.544,1.7514,2049
0,-0.0781,-1.1943,-0.4727,-1.0037,-0.4076,1.7512,2026
0,-0.312,-1.23,-0.4648,-1.0499,-0.5596,1.6428,2070
0,-0.4763,-1.2219,-0.4736,-1.0119,-0.2637,1.7033,2000
0,-0.4734,-1.1682,-0.4636,-0.9881,-0.1535,1.689,2029
0,-0.4517,-1.21,-0.4319,-1.0822,0.029,1.6157,1970
0,-0.5742,-1.145,-0.3562,-0.9826,0.1752,1.5671,2044
0,-0.6575,-1.2014,-0.3103,-1.0284,0.4838,1.5724,2232
0,-0.5459,-1.0798,-0.3301,-1.0365,0.4398,1.4837,2096
0,-0.6274,-1.0789,-0.5671,-1.003,0.761,1.6142,2090
0,-0.6304,-1.4109,-0.2446,-1.3278,0.499,1.232,1889
0,-0.2874,-0.8877,-0.4255,-1.1421,0.728,1.5028,2033
0,-0.3982,-1.0481,-0.3469,-1.0199,0.2252,1.4771,1923
0,-0.5486,-1.0264,-0.3376,-1.027,0.202,1.578,2009
0,-0.5632,-0.9873,-0.2351,-1.0178,0.2293,1.593,2099
0,-0.5962,-0.8899,-0.2605,-0.9701,0.1987,1.537,1983
0,-0.5156,-0.9624,-0.3887,-1.0837,0.1438,1.5129,2020
0,-0.6414,-0.8586,-0.3501,-1.1146,0.1417,1.6265,2063
0,-0.7361,-0.813,-0.4678,-1.0467,0.0943,1.7416,2011
0,-0.6299,-0.8394,-0.2573,-1.2398,-0.0782,1.7958,2023
0,-0.5237,-0.7759,-0.1638,-1.1469,-0.2976,1.8342,2050
0,-0.7803,-0.8076,-0.1914,-1.0689,-0.3432,1.8343,2029
0,-0.9412,-0.8174,-0.094,-0.9558,-0.0759,1.5687,2041
0,-0.8235,-0.8711,-0.3884,-1.0425,0.3251,1.3234,2044
0,-0.4844,-0.8352,-0.4275,-1.2247,0.2112,1.0276,2044
0,-0.2046,-0.8359,-0.3499,-1.3041,-0.3488,0.6522,2049
0,-0.5259,-0.7585,-0.2673,-1.0609,-0.8933,0.355,1976
0,-0.6602,-0.7009,-0.3523,-0.9954,-0.8464,0.3935,2030
0,-0.8406,-0.7092,-0.3171,-0.9147,-0.8491,0.3999,2017
0,-0.8379,-0.7371,-0.5107,-0.853,-0.6319,0.3508,2118
0,-0.8733,-0.7368,-0.5818,-0.9056,-0.3168,0.3456,2046
0,-0.8862,-0.802,-0.4746,-0.9753,-0.2149,0.181,2045
0,-0.7417,-0.9141,-0.3953,-1.0174,-0.3301,0.0465,2054
0,-0.6238,-1.053,-0.3916,-1.0692,-0.2815,-0.035,2025
0,-0.6682,-1.0273,-0.2896,-0.8668,-0.2353,-0.255,2044
0,-0.7419,-0.9365,-0.2053,-0.7689,0.3449,-0.5493,2039
0,-0.76,-0.8918,-0.2173,-0.3875,0.5958,-0.9082,2011
0,-0.6804,-0.8494,-0.2271,0.0184,0.8492,-1.4442,2072
0,-0.6233,-0.7429,-0.1648,0.656,1.0404,-1.968,2016
0,-0.5122,-0.8503,-0.2056,0.9247,1.0396,-2.4764,2058
0,-0.3835,-1.0415,-0.3198,0.8835,1.2814,-3.0166,2080
0,-0.2683,-1.0835,-0.5195,0.6991,1.7162,-3.5019,2048
0,0.0784,-0.7676,-0.3323,1.0331,1.0898,-4.2278,2047
0,0.3813,-0.6426,-0.606,1.4565,0.6747,-4.3635,2079
0,0.0042,-0.9163,-1.2568,0.5602,0.7094,-4.3158,2027
0,-0.5271,-1.1042,-1.4004,0.5022,0.5108,-4.1184,2046
0,-0.6328,-1.1047,-1.3552,0.2715,0.4717,-3.5972,2041
1,-0.6113,-0.8264,-1.3381,-0.1712,-0.0053,-2.6569,2064
1,-0.7693,-0.4341,-1.3782,-0.2461,-0.3514,-1.918,2062
1,-1.0725,-0.6218,-1.5457,-0.8191,-0.1657,-0.8963,2041
1,-1.179,-1.0544,-1.5979,-1.4641,0.2413,-0.1474,2102
1,-0.9688,-1.3074,-1.3726,-2.2246,0.4654,0.3368,2048
1,-0.6465,-1.5056,-1.0242,-2.8496,0.7203,0.4291,2068
1,-0.0466,-1.4282,-0.3665,-2.3168,0.2948,-0.1908,2057
1,0.6504,-1.4316,-0.1587,-2.0863,-0.3554,-0.6851,1991
1,0.4719,-1.0239,-0.7483,-1.8769,-0.8297,-1.4721,2008
1,-0.3848,-1.0947,-1.0403,-1.9142,-0.4361,-1.3936,2011
1,-0.7832,-1.0286,-1.478,-1.8195,0.1902,-0.9549,2100
1,-0.707,-0.7043,-1.1802,-1.578,0.8399,-0.8023,2142
1,-0.2327,-0.5791,-1.1262,-1.5845,0.987,-0.6076,2041
1,0.239,-0.8235,-1.0212,-1.3857,0.7979,-0.5597,2070
1,-0.3342,-0.9478,-0.9133,-0.6541,0.9381,-0.7056,2006
1,-0.6357,-1.1216,-0.8198,-0.1196,1.0854,-0.56,2000
1,-0.4438,-1.186,-0.7058,0.2164,1.1946,-0.9379,2080
1,-0.5161,-1.2175,-0.8022,0.344,1.2805,-1.2431,2031
1,-0.5835,-1.2734,-0.8152,0.6365,1.2483,-1.5012,2074
1,-0.4907,-1.2043,-0.825,0.9206,1.1639,-1.7594,2034
1,-0.3936,-1.302,-0.9238,1.0817,0.9255,-2.1149,1966
1,-0.4751,-1.2576,-1.0161,1.3468,0.5265,-2.3108,1950
1,-0.5703,-1.3484,-1.009,1.542,0.3818,-2.6908,2011
1,-0.6448,-1.5034,-1.1858,1.5985,0.297,-2.9437,2108
1,-0.7883,-1.4827,-1.158,1.7614,0.1855,-2.8233,2032
1,-0.8113,-1.3425,-1.2126,1.597,-0.0369,-2.5606,2054
1,-0.8479,-1.2988,-1.1985,1.3308,-0.149,-2.5611,2061
1,-0.541,-1.0085,-1.104,1.213,-0.4526,-2.699,1952
1,-0.4734,-1.0144,-1.157,1.2769,-0.5869,-2.7667,2068
1,-0.314,-1.176,-1.0142,1.3738,-0.6608,-2.4918,1999
1,-0.2605,-1.1448,-1.2485,1.1114,-0.6245,-2.3085,2082
1,0.1021,-1.0876,-1.2822,1.0654,-0.6921,-2.1849,1969
1,0.1411,-0.8774,-1.3562,0.9381,-0.3834,-2.3306,2024
1,0.3247,-0.9353,-0.9866,1.2557,-0.232,-2.1213,2021
1,0.3333,-1.1692,-1.1633,1.0252,0.1222,-2.1636,2134
1,0.4639,-0.9053,-1.071,0.9368,0.4493,-2.0841,2060
1,0.6194,-1.0208,-1.3257,0.867,0.7457,-2.0245,2033
1,0.7529,-0.9041,-1.2979,0.438,1.3307,-1.7697,2068
1,1.0427,-0.7263,-1.0273,0.7545,1.7411,-1.7466,2045
1,1.9999,0.5564,-0.2854,0.2747,-0.6388,-2.3437,2096
1,1.9268,-0.1245,-1.3662,2.7944,0.9995,-4.3635,2004
1,1.9507,-2.0,1.4355,3.158,-1.3797,-1.1272,2067
1,-0.3374,-1.3696,-2.0,1.8209,0.4639,-0.8293,2130
1,0.511,-0.9053,-1.2402,1.4801,0.061,1.0769,2019
1,0.738,-0.5039,-0.2705,1.7817,0.1342,1.4584,2079
1,0.8931,-0.2888,-0.2234,2.5292,-0.6802,1.2688,1965
1,0.6123,-0.1172,-0.4734,2.585,-0.5482,1.1605,2044
1,0.3506,0.0032,-0.2332,2.6462,-0.7071,1.0997,2024
1,0.1338,0.0876,-0.1411,2.7713,-0.9456,1.1147,2045
1,-0.0513,0.0803,-0.1174,2.9183,-1.1794,1.504,2013
1,-0.4956,-0.0415,-0.3701,2.787,-1.0899,2.4514,1974
1,-0.4526,-0.2432,-0.468,2.5264,-1.2967,3.1491,2030
1,-0.3069,-0.4067,-0.4812,2.3944,-1.2078,3.2456,2048
1,-0.2793,-0.5371,-0.3296,2.5117,-0.9086,3.0634,2067
1,-0.4746,-0.5046,-0.1438,2.6051,-0.7841,2.9754,2047
1,-0.5032,-0.4851,0.0005,2.6243,-0.7854,2.6076,2068
1,-0.5591,-0.4009,0.2869,2.9277,-0.5561,2.4073,2219
1,-0.8,-0.1846,0.4651,2.801,-0.6994,2.5213,1951
1,-1.1218,-0.4033,0.2402,2.2871,-1.1592,2.7344,2017
1,-1.0393,-0.9082,-0.0647,1.9138,-1.2026,2.7042,2067
1,-1.1165,-0.9136,-0.1187,1.5667,-0.6497,2.2296,2046
1,-1.4287,-1.134,-0.5393,0.552,-0.3189,2.3694,2029
1,-1.1204,-1.3972,-0.6958,0.3577,-0.8091,2.3208,2046
1,-0.8562,-1.2483,-0.4763,0.5217,-0.2461,1.801,2045
1,-0.9229,-1.1877,-0.4807,0.006,0.0507,1.4692,2054
1,-1.1455,-1.5164,-0.5122,-0.5295,-0.1539,1.7397,2036
1,-0.9404,-1.9358,-0.7803,-1.4523,-0.5803,1.9124,2070
1,-0.7754,-1.8948,-0.8269,-1.7911,-0.3345,1.6415,2054
1,-0.8352,-1.552,-0.5828,-2.1756,-0.174,1.5183,2050
1,-0.7117,-1.0566,-0.2822,-1.8974,-0.1007,1.5351,2048
1,-0.5735,-0.8628,0.0891,-1.5352,-0.2216,1.1828,2010
1,-0.804,-1.0505,-0.1399,-1.9644,-0.1687,1.3327,2028
1,-1.0327,-1.0005,-0.5391,-2.3762,0.0119,1.9419,2061
1,-1.0688,-1.1506,-0.4255,-2.3848,0.2068,2.1822,2065
1,-0.8916,-1.5417,-0.6101,-3.0059,0.0273,2.3896,2139
1,-0.6958,-1.7039,-0.6951,-3.2246,0.059,2.1458,2034
1,-0.3691,-1.6179,-0.7461,-3.5717,0.2489,1.611,2020
1,-0.1729,-1.4194,-0.6392,-3.7428,0.2116,1.3404,2047
1,-0.1345,-1.2676,-0.5103,-3.7543,-0.1481,1.2468,2045
1,-0.2048,-1.1194,-0.5701,-3.6296,-0.0932,1.2997,2058
1,-0.3586,-1.031,-0.6648,-3.5263,0.0495,1.4721,2071
1,-0.3008,-1.011,-0.6113,-3.4328,0.0479,1.5399,2020
1,-0.2939,-1.012,-0.6726,-3.4784,0.2822,1.6203,2048
1,-0.3503,-0.9822,-0.6855,-3.3143,0.3876,1.7262,2041
1,-0.2034,-0.9226,-0.634,-3.1861,0.2613,1.8574,2079
1,-0.0776,-0.8989,-0.6729,-3.0665,0.3617,1.763,2024
1,-0.0793,-0.9612,-0.7686,-2.8951,0.4819,1.7452,2032
1,-0.116,-0.9739,-0.9102,-2.732,0.6775,1.7261,2046
1,-0.1248,-0.916,-0.9023,-2.5341,0.8701,1.6543,2032
1,-0.0869,-0.8298,-0.8484,-2.3575,0.9214,1.5946,2023
1,-0.2026,-0.8142,-0.7375,-1.9154,1.0415,1.3896,2097
1,-0.2651,-0.8826,-0.5994,-1.421,1.0469,1.1244,2053
1,-0.3213,-1.0122,-0.6462,-1.1411,1.1212,0.8179,2008
1,-0.3174,-0.9907,-0.6396,-0.868,1.146,0.4979,2033
1,-0.3418,-0.9399,-0.6365,-0.5854,0.9395,0.1376,2108
1,-0.365,-1.0088,-0.6482,-0.3179,0.7514,-0.1213,1996
1,-0.3843,-1.0764,-0.75,-0.057,0.597,-0.3763,2032
1,-0.4612,-1.1548,-0.8521,0.2679,0.4835,-0.7091,2088
1,-0.4883,-1.2017,-0.8679,0.5287,0.4011,-0.9293,2035
1,-0.571,-1.2483,-1.0247,0.7921,0.3645,-1.1322,2003
1,-0.6021,-1.3875,-1.0281,1.0511,0.4324,-1.3299,2054
1,-0.6218,-1.4839,-1.0881,1.1344,0.4952,-1.5285,2053
1,-0.7246,-1.5081,-1.2065,1.1179,0.5963,-1.6446,2100
2,-0.7183,-1.5234,-1.2263,1.1555,0.5261,-1.7327,2034
2,-0.7512,-1.5103,-1.2847,1.1652,0.4051,-1.9383,2051
2,-0.8423,-1.5662,-1.322,1.2155,0.4329,-2.0162,2018
2,-0.9409,-1.5361,-1.3977,1.0986,0.4231,-2.3079,2111
2,-1.0359,-1.4836,-1.3394,1.2769,0.4485,-2.6247,2086
2,-1.0244,-1.4253,-1.3115,1.2476,0.4256,-2.8492,1984
2,-1.0923,-1.3218,-1.4749,1.3014,0.4315,-3.1127,2005
2,-1.0889,-1.2725,-1.0852,1.8078,0.2752,-3.1345,1994
2,-0.917,-1.2478,-1.291,1.7154,0.0373,-3.1823,2004
2,-1.032,-1.2178,-1.3352,1.8888,0.1049,-3.38,2140
2,-0.9475,-0.9492,-1.1099,2.1812,-0.1553,-3.367,1984
2,-0.8574,-1.0479,-1.3232,2.1065,-0.1715,-3.3246,1999
2,-0.8833,-0.9006,-1.22,2.2622,-0.1577,-3.1385,1897
2,-0.7852,-0.7664,-1.1233,2.1667,-0.2045,-3.015,2170
2,-0.5623,-0.5339,-0.9102,2.2864,-0.2987,-2.9955,2115
2,-0.4119,-0.4536,-0.9041,2.1429,-0.2424,-2.967,2067
2,-0.2407,-0.5928,-1.0103,1.9502,-0.2041,-2.8782,2041
2,-0.0652,-0.5198,-0.9924,1.8016,-0.1241,-2.6365,2056
2,0.0811,-0.6372,-0.9226,1.6721,0.0095,-2.5269,2141
2,-0.0654,-0.4543,-0.8901,1.3483,0.481,-2.1823,2127
2,0.0759,-0.5178,-0.8694,1.0375,0.8616,-1.449,2030
2,0.5303,-0.5562,-1.0183,0.5035,1.2601,-1.6049,2017
2,0.4807,-0.4927,-0.6677,0.4959,1.4391,-1.3193,2008
2,1.949,0.1277,-0.3232,0.6657,0.4794,-1.8118,2054
2,1.9999,1.1575,1.9999,3.1064,-1.4888,-4.3635,1868
2,-2.0,-0.2014,-2.0,-0.2027,4.3634,-1.7528,1692
2,1.9999,-2.0,-0.0449,3.7191,-2.1381,-1.4378,2484
2,1.1865,-1.9092,-0.5432,3.142,1.009,-1.6289,1938
2,-0.4446,-1.5129,-0.9092,2.8388,0.4703,-0.4079,1866
2,0.3438,-0.2065,0.1375,3.5607,1.5952,0.9589,2015
2,1.0864,0.0593,-0.2036,3.6633,1.2563,1.5223,2002
2,0.708,-0.2175,-0.167,3.5091,0.4545,1.8823,2031
2,0.5869,-0.3369,-0.2681,3.4509,-0.4594,1.7514,2096
2,0.0979,-0.0793,-0.314,3.4608,-0.7982,1.7361,2106
2,-0.2251,0.1438,-0.2795,3.391,-0.9042,1.7712,2034
2,0.0198,0.1755,-0.019,3.1696,-0.6942,1.9241,2057
2,-0.1978,0.1775,0.01,3.1949,-0.2594,1.6233,2032
2,-0.1047,0.0913,0.0891,3.2768,0.1414,1.4267,2053
2,-0.0356,0.051,0.2327,3.1592,0.1784,1.0734,2151
2,-0.2197,-0.0688,-0.1372,2.807,0.2762,1.213,1985
2,-0.5571,-0.2417,-0.4365,2.2162,0.3002,1.2971,2016
2,-0.5496,-0.0771,-0.1506,2.0901,0.225,1.1532,2050
2,-0.447,0.0974,0.0107,1.9218,0.5906,1.1724,2040
2,-0.5146,0.1584,-0.0142,1.7267,0.5598,0.8384,2034
2,-0.4656,0.1409,-0.0637,1.6053,0.4267,0.8929,2044
2,-0.5684,0.0583,-0.2417,1.5882,0.1382,0.9634,2042
2,-0.6501,-0.1086,-0.4382,1.6077,-0.1326,1.1095,2058
2,-0.7805,-0.3162,-0.6218,1.4245,-0.1056,1.281,2059
2,-1.0518,-0.5767,-0.8066,1.062,0.0794,1.4463,2054
2,-1.2063,-0.8677,-0.8679,0.567,0.2714,1.7118,2077
2,-1.2839,-1.1157,-0.9736,0.3565,0.7016,2.0778,2044
2,-1.4924,-1.4355,-0.9661,0.1069,1.4549,2.4934,2043
2,-1.6604,-1.8513,-0.71,-0.3681,1.7833,2.9488,2066
2,-1.5488,-2.0,-0.3938,-0.8771,2.3369,3.3516,2050
2,-1.3843,-2.0,-0.1743,-1.5539,2.7831,3.3947,2042
2,-1.1584,-2.0,0.1091,-2.2079,2.2941,3.2862,2017
2,-0.8555,-2.0,0.3108,-2.6525,1.5294,3.1421,2065
2,-0.6711,-2.0,0.3191,-2.9818,0.7485,2.9,2038
2,-0.7815,-2.0,0.0005,-3.834,0.1171,2.5413,2036
2,-0.8696,-2.0,-0.3486,-4.3635,-0.3871,2.1744,2052
2,-0.9324,-2.0,-0.2993,-4.3635,-0.5474,1.8947,2064
2,-0.8884,-1.9575,-0.2217,-4.3635,-0.7351,1.8707,2050
2,-0.8284,-1.8162,-0.147,-4.3635,-0.7128,1.9471,2017
2,-0.6982,-1.6138,-0.2183,-4.3635,-0.6532,2.0803,2074
2,-0.5857,-1.3147,-0.2004,-4.3635,-0.4405,2.133,1994
2,-0.5518,-1.0969,-0.1421,-4.3635,-0.1927,2.2519,2052
2,-0.6814,-1.0049,-0.3101,-4.3635,-0.0069,2.5505,2055
2,-0.7327,-0.9893,-0.4485,-4.3635,0.1317,2.949,2038
2,-0.5769,-0.8804,-0.4397,-4.0684,0.0254,3.2416,2065
2,-0.3486,-0.8757,-0.3931,-3.6575,0.1764,3.3985,2034
2,-0.2144,-0.8599,-0.3743,-3.1998,0.4741,3.2781,2056
2,-0.0952,-0.8323,-0.4055,-2.8418,0.6205,3.0863,2040
2,-0.0989,-0.7773,-0.499,-2.5726,0.3812,2.8747,2062
2,-0.1033,-0.7173,-0.5549,-2.2375,-0.0695,2.745,2053
2,-0.228,-0.7866,-0.5537,-1.9329,-0.4117,2.5642,2071
2,-0.3562,-0.9436,-0.6658,-1.6725,-0.5835,2.2969,2035
2,-0.3503,-1.1736,-0.7871,-1.6817,-0.4232,1.8255,2082
2,-0.4246,-1.3162,-0.936,-1.6086,-0.1167,1.1696,2113
2,-0.427,-1.3665,-0.9717,-1.333,0.2827,0.6086,2066
2,-0.3225,-1.2949,-0.9568,-1.1844,0.593,0.1944,2032
2,-0.1777,-1.2512,-0.948,-1.1752,0.8291,-0.1393,2021
2,-0.1982,-1.1748,-0.8989,-1.075,0.8248,-0.3693,2059
2,-0.1919,-1.053,-0.9661,-0.8883,0.5952,-0.5204,2110
2,-0.2444,-1.1016,-1.0786,-0.8044,0.471,-0.5958,2056
2,-0.3696,-1.1343,-1.0178,-0.3962,0.4614,-0.8174,2130
2,-0.4968,-1.0488,-1.0547,-0.1141,0.6829,-0.9581,2042
2,-0.5642,-0.9617,-1.1028,0.0433,0.9226,-1.0489,2040
2,-0.572,-0.9202,-1.0642,0.285,1.1019,-1.1978,1995
2,-0.6155,-0.9346,-1.0332,0.4621,1.0475,-1.3942,2135
2,-0.6646,-0.9199,-1.0173,0.5964,0.8834,-1.5651,1973
2,-0.7688,-1.0234,-1.0349,0.6693,0.7376,-1.8118,2109
2,-0.9587,-1.136,-1.0762,0.85,0.8119,-2.0764,2091
2,-1.051,-1.2869,-0.9778,1.1616,0.9662,-2.1929,2043
2,-1.104,-1.3457,-1.1936,1.1087,0.8955,-2.2318,2113
2,-1.1479,-1.4363,-1.231,1.0757,0.8678,-2.3575,2017
2,-1.2478,-1.4685,-1.1902,1.1101,0.6825,-2.5705,2136
2,-1.2852,-1.4387,-1.1501,1.1858,0.605,-2.8488,2149
2,-1.3301,-1.3696,-1.2151,1.2106,0.4842,-2.9656,2031
2,-1.3145,-1.1907,-1.2886,1.3687,0.383,-3.2019,2079
2,-1.3586,-1.0784,-1.2129,1.6852,0.3009,-3.2899,2026
2,-1.2515,-1.1624,-1.2498,1.9413,0.2325,-3.3184,2145
2,-1.1526,-1.1243,-1.3315,2.2284,0.2019,-3.3712,2029
3,-1.0994,-1.0142,-1.3337,2.5792,0.0935,-3.3421,1919
3,-0.9512,-0.917,-1.3862,2.6746,-0.0509,-3.2946,2015
3,-0.9331,-0.9546,-1.4182,2.7932,0.0236,-3.2523,2106
3,-0.7761,-0.7654,-1.354,2.8031,-0.0846,-3.1162,2124
3,-0.6165,-0.3423,-1.0671,2.9854,-0.1819,-3.0347,2049
3,-0.5896,-0.3843,-1.2517,2.6398,-0.0092,-3.0381,1975
3,-0.3723,-0.4319,-1.0625,2.4452,0.1289,-3.097,2032
3,-0.2307,-0.5002,-0.8992,2.4001,0.1269,-3.1754,2032
3,-0.302,-0.5449,-0.8633,2.2646,0.3237,-2.9078,2174
3,-0.248,-0.4336,-0.8799,1.6832,0.643,-2.7454,2011
3,-0.0884,-0.1963,-0.4243,1.8643,0.5958,-2.4284,2008
3,-0.1946,-0.3428,-0.48,1.9686,0.6377,-2.0311,2055
3,0.2166,-0.3347,-0.4944,1.6265,0.9148,-2.343,2038
3,0.6021,0.2649,-0.4336,1.7012,0.8919,-2.2919,2019
3,1.9999,0.0525,1.9999,2.6145,-1.696,-4.3635,2500
3,-2.0,1.3701,-2.0,2.712,3.3055,-4.3635,1687
3,-1.2483,-2.0,0.8958,3.6749,-3.9788,2.7173,2361
3,1.9999,-2.0,-0.251,4.3634,0.5351,-3.3577,2380
3,-0.6924,-1.5635,-0.4641,3.7612,-0.9573,-0.7614,1694
3,0.1785,-0.7644,0.4944,4.055,0.0984,-0.2816,2000
3,0.7478,0.4155,-0.292,4.1196,1.1536,-0.5011,2040
3,0.5176,0.4841,-0.4541,4.0397,1.4597,-0.1172,2020
3,0.647,0.1428,-0.6299,3.4905,0.9447,0.4316,2005
3,0.6997,0.0713,-0.5894,3.0328,0.3987,0.6156,1913
3,0.5378,0.2661,-0.0327,2.746,-0.0819,0.6219,1992
3,0.4949,0.2795,0.1106,2.845,-0.0758,0.7464,2053
3,0.2905,0.1909,-0.0403,2.64,-0.1065,0.6968,2147
3,0.4004,0.1279,-0.0796,2.4545,0.0321,0.4137,1962
3,0.0312,0.1721,-0.135,2.2754,0.3799,-0.1679,1986
3,-0.1885,0.125,-0.2175,1.8437,0.4765,-0.316,2031
3,-0.3533,0.1265,-0.208,1.797,0.4504,-0.4006,2043
3,-0.4011,0.2798,-0.1196,1.6792,0.2442,-0.3235,2044
3,-0.5586,0.3901,-0.2075,1.4119,-0.1173,-0.0382,2043
3,-0.7148,0.3123,-0.2122,1.2206,-0.6368,0.4634,2058
3,-0.9631,0.1301,-0.3145,1.1572,-0.8692,0.8004,2069
3,-1.2454,-0.1787,-0.512,0.8766,-0.173,1.0356,2073
3,-1.5952,-0.6519,-0.4629,0.4573,0.3868,1.2568,2074
3,-1.5664,-1.0825,-0.3232,0.018,0.5729,1.5701,2074
3,-1.3127,-1.4187,-0.4656,-0.5335,0.6408,1.7551,2054
3,-1.2236,-1.583,-0.6174,-1.067,0.8556,1.9322,2047
3,-1.293,-1.7312,-0.6021,-1.3053,1.2683,2.2316,2041
3,-1.3618,-1.8589,-0.5393,-1.5241,1.8793,2.4341,2034
3,-1.3521,-1.9724,-0.3687,-2.0498,2.4321,2.5954,2022
3,-1.2673,-1.9678,-0.2124,-2.6741,2.6191,2.958,2045
3,-1.1289,-2.0,-0.2717,-3.1364,2.5932,3.0993,2069
3,-0.8684,-2.0,-0.3962,-3.1325,2.5593,3.1981,2060
3,-0.9482,-2.0,-0.344,-3.3385,2.683,3.3496,2048
3,-1.011,-2.0,-0.4543,-3.7282,2.5418,3.2122,2044
3,-0.6477,-2.0,-0.5771,-3.6667,2.2997,3.0397,2082
3,0.4395,-2.0,0.0107,-2.983,1.1275,3.2134,2045
3,0.9165,-2.0,1.04,-2.483,-1.0921,2.8614,2026
3,0.4187,-2.0,0.1311,-3.6328,-3.1512,1.7297,2052
3,-0.0354,-2.0,-0.8574,-4.3635,-3.4893,1.8041,2056
3,-0.0671,-2.0,-0.5571,-3.3718,-4.2808,1.3902,2028
3,0.0723,-2.0,0.0232,-3.6358,-4.3635,1.6936,2002
3,-0.0159,-1.7969,0.3416,-3.2867,-4.3635,3.1838,2029
3,-1.4019,-1.863,0.1753,-3.791,-4.3635,4.0279,2036
3,-2.0,-0.3318,-0.7139,-4.0245,-0.4753,4.3634,1947
3,0.1301,-2.0,-0.3235,-3.3668,-2.5967,2.0707,2303
3,0.2761,-2.0,-0.4639,-4.3635,-1.67,3.3873,2037
3,-0.6392,-1.2847,-0.6819,-4.3635,-0.3093,3.1066,1995
3,-0.1777,-1.0393,-1.022,-4.3635,-0.2441,2.9337,2069
3,-0.0166,-0.8015,-0.947,-4.1298,-1.2006,2.8838,2018
3,0.252,-0.998,-0.9163,-4.033,-1.3894,2.8185,2038
3,0.063,-0.9792,-1.0581,-3.5039,-0.9778,2.9296,1929
3,0.0991,-1.0352,-1.0603,-3.0935,-0.7078,3.0155,2056
3,0.6311,-0.4912,-1.0889,-2.0034,-1.7237,2.3258,2025
3,-0.1245,-1.209,-0.8054,-2.3863,-1.2745,2.7307,2007
3,-0.7053,-0.8792,-0.8184,-1.9515,-0.0683,2.5498,2026
3,-0.5156,-0.7339,-0.8879,-1.6765,0.7686,2.3864,2048
3,-0.4277,-0.7278,-0.8079,-1.4929,1.0856,1.9796,2050
3,-0.2563,-0.6672,-0.7073,-1.1657,1.1348,1.5024,2006
3,-0.1323,-0.4448,-0.5618,-0.6316,0.7821,0.9898,1999
3,-0.3113,-0.4902,-0.437,-0.0517,0.5739,0.6264,2013
3,-0.5305,-0.623,-0.4961,0.3661,0.5654,0.2718,2021
3,-0.8647,-0.5691,-0.5137,0.7452,0.7339,-0.0503,2088
3,-0.9875,-0.7695,-0.4639,1.1001,1.1915,-0.5711,2098
3,-0.8821,-0.8613,-0.5403,1.3368,1.7147,-1.1746,2106
3,-0.74,-0.873,-0.6245,1.604,1.8277,-1.7905,1999
3,-0.6157,-1.0022,-0.7175,1.6439,1.589,-2.1525,2050
3,-0.4424,-1.2239,-0.7073,1.7406,1.0529,-2.1397,2064
3,-0.4822,-1.5227,-0.7732,1.9251,0.5821,-2.0831,2127
3,-0.7114,-1.7922,-0.8472,1.9844,0.4874,-2.1051,2099
3,-1.0435,-1.8386,-0.9771,1.7462,0.6826,-2.3144,2054
3,-2.0,-1.8308,-1.0359,1.501,2.1477,-1.4247,1991
3,-1.196,-1.4016,-1.1091,1.398,2.2457,-1.8439,2092
3,-1.2515,-1.2153,-1.1116,1.1639,2.4037,-1.7221,2029
3,-0.4695,-1.6526,-1.0159,1.2259,1.3744,-2.3439,2064
3,-0.595,-1.8909,-1.2065,1.5004,0.2903,-2.4274,2004
3,-0.9954,-1.6067,-1.251,1.6026,-0.351,-2.6211,1910
3,-1.4331,-1.2695,-1.4211,1.5953,-0.5149,-2.7807,1859
3,-1.5415,-1.1255,-1.4998,1.5644,-0.371,-2.8745,1959
3,-1.3215,-0.8762,-1.3105,1.6329,-0.2748,-2.9723,1884
3,-0.7742,-0.5874,-0.8013,2.1824,-0.2398,-3.2503,2014
3,-1.3469,-0.4949,-0.8821,2.4598,-0.8022,-2.6659,1993
3,-1.2368,-0.832,-1.4023,2.1362,-0.3163,-2.8031,1971
3,-1.5554,-0.4153,-0.9087,2.1956,-0.8132,-2.1394,2080
3,-1.1177,-0.3049,-0.9214,1.9807,-0.8791,-1.7952,2115
3,-0.7112,-0.2444,-0.4426,2.2941,-1.273,-2.009,1942
3,-0.6101,-0.2136,-0.2729,2.5169,-1.3344,-2.4444,2041
3,-0.584,-0.3325,-0.3572,2.4826,-1.4456,-2.9347,2112
3,-0.5071,-0.4016,-0.4666,2.3177,-1.3492,-3.3748,2052
3,-0.5518,-0.396,-0.5623,1.9277,-0.8014,-3.6615,2150
4,-0.4163,-0.1196,-0.5923,1.7731,-0.1694,-3.6561,2028
4,-0.1714,-0.2085,-0.8328,1.3651,0.3139,-3.1036,2038
4,0.3284,-0.5515,-1.2749,0.7553,0.6769,-3.0356,2033
4,1.9999,-0.1875,-2.0,-1.2382,-0.0261,-3.1281,2073
4,1.9999,1.9568,0.6709,3.6105,-1.5185,-4.3635,2110
4,-2.0,0.6172,-1.3867,0.024,2.9982,-4.1666,1659
4,1.9999,-2.0,0.0698,3.2264,-2.9813,-2.3658,2522
4,1.0298,-2.0,-0.2986,4.0588,2.1779,-2.2302,2124
4,0.0981,-1.9189,-0.6582,3.4667,0.9648,-1.3117,1832
4,1.042,-0.9299,-0.6484,3.1581,1.9373,-0.8969,1978
4,1.0532,0.063,-0.436,3.5007,1.5833,-0.1404,1926
4,0.7598,0.3914,-0.3723,3.8403,1.2247,0.4654,1987
4,0.3972,0.0562,-0.3491,3.6613,0.8369,0.6654,2015
4,0.3582,-0.0886,-0.1401,3.5529,0.2398,0.6801,2108
4,0.1782,-0.084,-0.0386,3.3678,-0.0772,0.5675,2037
4,-0.0874,-0.1316,-0.3271,2.9911,-0.2388,0.2163,2054
4,0.0061,-0.0681,-0.1484,2.5016,-0.1965,-0.1289,2017
4,-0.2207,0.0574,-0.1326,2.3467,-0.0427,-0.4574,2059
4,-0.2678,0.0745,0.1431,2.2107,0.2594,-0.6223,2043
4,-0.2239,0.0085,0.2966,2.1395,0.5188,-0.8496,2054
4,-0.1921,-0.1855,0.2656,1.8138,0.7194,-0.8244,2050
4,-0.3362,-0.2458,0.1392,1.3918,0.6393,-0.6785,2047
4,-0.3291,-0.2998,0.0637,1.1753,0.4035,-0.4125,2050
4,-0.2839,-0.3958,0.0352,0.9324,0.0774,-0.1823,2052
4,-0.2908,-0.4546,-0.0283,0.9697,-0.1808,-0.1683,2048
4,-0.3979,-0.5237,-0.0396,1.062,-0.6152,-0.1153,2039
4,-0.5859,-0.7324,-0.1826,0.9778,-1.033,0.3008,2045
4,-0.7373,-1.1008,-0.3484,0.1985,-1.1525,0.9392,2059
4,-0.9988,-1.4207,-0.436,-0.6221,-0.3413,1.423,2038
4,-1.1377,-1.5129,-0.467,-1.3684,1.0869,1.9249,2058
4,-1.0178,-1.4832,-0.4939,-1.6869,0.9622,2.3914,2057
4,-0.5684,-1.4436,-0.3296,-1.4259,0.4137,2.8213,2055
4,-0.4221,-1.3455,-0.3118,-1.4054,0.5882,3.0351,2030
4,-0.7307,-1.2432,-0.2537,-1.8696,0.7846,3.1429,2019
4,-1.1702,-1.145,-0.3867,-2.1756,0.7995,3.2937,2034
4,-1.2671,-1.1633,-0.5762,-2.6275,0.9661,3.6018,2057
4,-1.2441,-1.207,-0.7529,-3.3858,1.8667,3.9105,2050
4,-1.4314,-1.2485,-0.7664,-3.7668,2.8821,4.2474,2068
4,-1.4626,-1.3125,-0.5903,-3.6436,3.3362,4.2106,2042
4,-0.8582,-1.3667,-0.3774,-3.4226,3.2547,4.0755,2060
4,-0.4937,-1.2705,-0.0029,-2.9452,2.1778,4.0911,2034
4,-0.3594,-1.2556,0.2104,-2.7822,0.8589,3.8118,2016
4,-0.262,-1.4365,-0.1641,-2.8095,0.0585,3.2112,2065
4,-0.3599,-1.6001,-0.207,-2.5738,-0.1558,2.6358,1993
4,-0.6885,-1.7144,-0.1597,-2.1832,-0.5896,2.4519,2049
4,-0.7461,-1.7412,-0.5605,-2.6148,-1.5225,2.6565,2020
4,-0.615,-1.71,-1.0417,-3.246,-1.6189,2.8754,2047
4,-0.917,-1.7729,-0.8376,-3.1078,-1.507,2.9044,2039
4,-1.1301,-1.8101,-0.6133,-3.1756,-1.3146,2.7589,2051
4,-1.0281,-1.7458,-0.4827,-3.3134,-0.9533,2.5462,2071
4,-0.6045,-1.6165,-0.5647,-3.2593,-0.5932,2.5381,2026
4,-0.2625,-1.5034,-0.7244,-3.2219,-0.1673,2.6496,2044
4,-0.2271,-1.425,-0.8464,-2.9745,-0.1541,2.6187,2030
4,-0.1357,-1.459,-0.781,-2.7618,-0.6493,2.4416,2039
4,0.0227,-1.5791,-0.8411,-2.7212,-0.817,2.3085,2052
4,-0.0579,-1.5652,-0.8701,-2.661,-0.8088,2.3238,2032
4,-0.3066,-1.4595,-0.9451,-2.4196,-0.8441,2.3659,2034
4,-0.4875,-1.4268,-1.1428,-2.4426,-0.6799,2.5534,2029
4,-0.4343,-1.4421,-1.1003,-2.4802,-0.4663,2.701,2046
4,-0.3667,-1.4456,-0.99,-2.549,-0.1778,2.6402,2070
4,-0.2354,-1.4368,-0.7778,-2.5629,0.1136,2.551,2072
4,-0.3103,-1.1677,-0.6672,-2.4412,0.6662,2.39,2051
4,-0.5171,-1.0247,-0.9336,-2.5954,0.7621,2.3483,2017
4,-0.4529,-0.8835,-0.9241,-2.2482,0.7228,2.1024,2003
4,-0.4314,-0.7173,-0.8821,-2.1462,0.8323,1.848,2038
4,-0.491,-0.6174,-0.8811,-1.8743,0.8662,1.5676,2013
4,-0.5276,-0.5737,-0.9775,-1.6699,0.9054,1.1319,2034
4,-0.4011,-0.5081,-0.7319,-1.1761,0.8042,0.6368,2100
4,-0.4524,-0.5974,-0.4436,-0.7588,0.5894,0.0655,2114
4,-0.5571,-0.7246,-0.3464,-0.1041,0.622,-0.6509,2104
4,-0.676,-0.5828,-0.5037,0.1919,0.7216,-1.2489,2063
4,-0.6492,-0.6528,-0.4546,0.7601,0.6315,-1.5044,2003
4,-0.5789,-0.8445,-0.5452,1.1986,0.3357,-1.6877,1990
4,-0.6338,-1.1064,-0.4963,1.4856,0.2348,-2.0252,1940
4,-0.811,-1.1321,-0.7288,1.6572,0.0196,-2.3642,2113
4,-0.9995,-1.3142,-0.9502,1.5651,0.1478,-2.6014,2086
4,-1.0693,-1.3271,-0.8757,1.7159,-0.1116,-3.0047,2107
4,-1.2334,-1.3669,-1.2026,1.5221,0.3983,-3.1769,2047
4,-1.4075,-1.4719,-1.2424,1.4616,0.3786,-3.4023,2065
4,-1.3213,-1.3547,-1.2319,1.4729,0.4123,-3.6756,1990
4,-1.3105,-1.2988,-1.3955,1.3243,0.441,-3.8274,2013
4,-1.3284,-1.2629,-1.4734,1.3571,0.3345,-3.9154,2035
4,-1.3008,-1.1602,-1.478,1.3561,0.2352,-4.0141,2065
4,-1.3293,-1.1248,-1.4497,1.4905,0.2023,-4.0455,1970
4,-1.2859,-0.9998,-1.45,1.5367,0.0937,-4.0369,2041
4,-1.3552,-0.9392,-1.3044,1.7905,0.2076,-3.8976,2096
4,-1.1985,-0.8875,-1.2307,1.9194,0.2199,-3.7026,2012
4,-1.1631,-0.7524,-1.1941,2.0094,0.3582,-3.5648,2098
4,-1.1108,-0.5537,-1.0037,2.2751,0.3305,-3.4551,2002
4,-0.9666,-0.4546,-1.0291,2.2031,0.1981,-3.3813,2016
4,-0.9226,-0.3379,-0.8008,2.2459,0.0668,-3.3672,2090
4,-0.7302,-0.3271,-1.0505,1.7225,0.2589,-3.3054,2070
4,-0.5957,0.0618,-0.6726,1.8238,0.0442,-3.065,1996
4,-0.3066,0.082,-0.7412,1.5577,0.1606,-3.2415,2037
4,-0.5061,-0.2063,-0.8992,1.1575,0.9869,-3.0143,1942
4,0.146,-0.218,-0.7292,0.9504,1.026,-3.1538,2009
4,0.365,-0.124,-0.6304,0.9609,1.16,-2.8644,1924
4,0.2131,-0.6709,-1.2322,0.5829,0.9957,-2.4843,2153
4,0.6526,-0.043,-1.0015,0.341,1.2047,-2.6156,2015
4,1.9999,-0.3152,-0.8691,-2.0836,-0.7641,-4.3635,2514
4,-0.2485,-0.0071,-2.0,1.2461,0.7468,-4.3635,1926
4,-2.0,-2.0,-0.0242,1.4885,-1.4735,2.6161,1887
4,1.9999,-2.0,-1.3208,2.8641,2.0485,-1.1456,2656
5,-0.3389,-0.9509,-0.3284,1.8578,0.1178,1.6863,1798
5,0.5623,-0.5886,-0.4158,3.4015,0.8411,1.2716,2055
5,0.2786,0.5281,-0.1646,4.3634,0.9021,2.2126,1977
5,0.7124,0.2808,0.1167,4.3634,0.1462,2.7721,2048
5,0.4753,-0.5076,-0.4846,4.3634,-0.084,2.378,2098
5,0.343,-0.3213,-0.2898,4.3634,-1.4576,2.0164,2010
5,0.2014,-0.2871,0.0161,4.2178,-1.7423,1.2898,2119
5,-0.0442,-0.075,0.0168,3.7328,-1.5615,0.5932,2053
5,-0.1689,-0.0706,-0.0591,3.4417,-0.4747,0.0649,2055
5,-0.1741,-0.1333,0.0229,2.9937,0.7716,-0.1687,2001
5,0.2122,-0.2397,0.0413,2.7853,1.4455,-0.6572,1963
5,0.4226,-0.0493,0.1294,2.3119,1.8161,-0.648,2041
5,0.3694,0.0664,0.0034,1.9731,1.8699,-0.7624,1977
5,0.2727,0.2285,0.175,1.8912,1.7929,-0.6149,2008
5,0.1775,0.4023,0.3179,2.0034,1.7466,-0.6261,2040
5,0.0889,0.5317,0.2617,2.2104,1.4978,-0.5787,2036
5,-0.001,0.4177,0.0588,2.3292,0.9423,-0.4232,2055
5,-0.1987,0.2083,-0.2036,2.1533,0.3518,-0.2252,2072
5,-0.4407,0.2,-0.3196,2.1224,0.2288,0.0052,2050
5,-0.7825,0.3521,-0.2864,2.1574,0.104,0.1334,2038
5,-0.8464,0.4094,-0.3789,2.259,-0.2065,0.3281,2053
5,-1.0042,0.1501,-0.5483,2.1996,-0.335,0.3638,2072
5,-1.3113,-0.3262,-0.7888,1.8735,0.0968,0.7239,2086
5,-1.6782,-0.7825,-0.8618,1.4276,0.8582,1.1322,2069
5,-1.8447,-1.1101,-0.7678,1.1025,1.758,1.3942,2057
5,-1.9683,-1.415,-0.5676,0.6802,2.7789,1.6623,2059
5,-1.9143,-1.6382,-0.342,0.1602,3.2227,1.9556,2054
5,-1.7285,-1.7363,-0.1895,-0.381,3.632,2.1787,2047
5,-1.5076,-1.6785,-0.2771,-1.0003,4.0227,2.3609,2078
5,-1.4492,-1.5723,-0.4712,-1.39,4.3634,2.73,2111
5,-1.3662,-1.6067,-0.604,-1.5265,4.1358,3.1477,2039
5,-1.2021,-1.9343,-0.6821,-1.7197,3.1399,2.9947,2065
5,-0.8018,-2.0,-0.3093,-2.2262,1.8097,2.7827,2055
5,-0.5005,-2.0,0.1174,-2.6936,0.6978,2.4816,2018
5,-0.6704,-2.0,0.1687,-3.2445,0.3024,2.118,2039
5,-0.8276,-2.0,0.1782,-3.8724,-0.1051,1.9105,2045
5,-0.6841,-2.0,0.188,-4.1618,-0.451,1.7306,2047
5,-0.4658,-2.0,0.1794,-4.3635,-0.6765,1.5928,2054
5,-0.2209,-2.0,0.1174,-4.3635,-0.9993,1.5845,2044
5,-0.2295,-2.0,-0.0505,-4.3635,-1.1409,1.6671,2056
5,-0.543,-1.9917,-0.2661,-4.3635,-0.9998,1.9018,2031
5,-0.7683,-1.8516,-0.2576,-4.2767,-1.2901,2.2422,2044
5,-0.7627,-1.8821,-0.3064,-4.3487,-1.3902,2.3276,2059
5,-0.6377,-1.9004,-0.3181,-4.3628,-1.3267,2.3617,2074
5,-0.5339,-1.8513,-0.324,-4.3157,-1.2852,2.2463,2046
5,-0.3516,-1.7698,-0.3733,-4.3245,-1.0817,2.1763,2019
5,-0.2483,-1.6553,-0.4553,-4.2995,-0.7417,2.1208,2042
5,-0.1379,-1.5859,-0.5002,-4.2417,-0.4434,1.9659,2042
5,-0.0376,-1.4875,-0.5352,-4.1345,-0.2824,1.8327,2032
5,-0.0552,-1.4182,-0.584,-4.0113,-0.2494,1.7709,2047
5,-0.1108,-1.3418,-0.6199,-3.8201,-0.2494,1.7311,2058
5,-0.1519,-1.2231,-0.6504,-3.6109,-0.2366,1.7377,2004
5,-0.2495,-1.1257,-0.7905,-3.5239,-0.0121,1.8638,2073
5,-0.4309,-1.0747,-0.9363,-3.4286,0.1839,1.9785,2052
5,-0.4993,-1.0591,-0.9163,-3.2371,0.4942,2.0319,2043
5,-0.4712,-1.0535,-0.8271,-3.0954,0.4698,2.0845,2048
5,-0.3574,-1.0205,-0.8206,-2.9522,0.5288,2.0903,2040
5,-0.3064,-0.9272,-0.7227,-2.7489,0.6461,1.9751,2072
5,-0.29,-0.8823,-0.5864,-2.6109,0.6329,1.8158,2053
5,-0.2998,-0.8293,-0.5237,-2.3854,0.5196,1.5989,2091
5,-0.3633,-0.7979,-0.6101,-2.1892,0.6986,1.3544,2076
5,-0.4912,-0.7659,-0.6924,-1.9301,0.7806,0.9078,2115
5,-0.5796,-0.6228,-0.7974,-1.5888,0.8597,0.4265,2105
5,-0.5908,-0.5513,-0.8467,-1.2356,1.0312,-0.0146,2105
5,-0.4839,-0.4502,-0.6748,-0.6184,1.1051,-0.4533,2042
5,-0.3662,-0.2585,-0.7632,-0.4297,1.1613,-0.6485,2060
5,-0.1699,-0.1702,-0.4458,0.2513,0.7174,-0.7002,2079
5,-0.2288,-0.3337,-0.5698,0.8275,0.143,-0.8195,2059
5,-0.4175,-0.7927,-0.781,1.3982,-0.1842,-1.1304,2125
5,-0.6111,-0.9951,-0.791,1.7957,-0.2304,-1.7233,2021
5,-0.8052,-0.9797,-0.8411,2.0921,0.0081,-2.0825,2071
5,-0.8779,-1.0911,-1.0454,2.1335,0.1784,-2.3807,2048
5,-0.8818,-1.3059,-1.1704,2.1929,0.3057,-2.7488,2021
5,-0.9407,-1.3982,-1.2812,2.1561,0.3033,-3.1542,2026
5,-1.0344,-1.3625,-1.3179,2.0158,0.1625,-3.5896,2085
5,-1.1733,-1.2998,-1.2974,1.9469,0.0011,-3.8645,2016
5,-1.2461,-1.3835,-1.385,1.7861,0.0226,-4.0775,1838
5,-1.3391,-1.3557,-1.4062,1.7821,0.121,-4.2984,1886
5,-1.2896,-1.1941,-1.4451,1.8105,0.1318,-4.3591,2058
5,-1.2151,-1.061,-1.3909,2.0198,0.2087,-4.298,1987
5,-1.0864,-1.0317,-1.3867,2.2229,0.1557,-4.2696,1998
5,-1.074,-0.9438,-1.3005,2.5461,0.1015,-4.0594,1920
5,-1.002,-0.8362,-1.2583,2.7373,0.0999,-3.8645,2020
5,-1.0491,-0.7986,-1.1985,2.9417,0.116,-3.6106,2014
5,-1.033,-0.7092,-1.1138,2.9558,0.2615,-3.5609,2131
5,-1.0037,-0.6675,-1.1631,2.6678,0.4902,-3.3685,2004
5,-0.8977,-0.5103,-1.1501,2.272,0.5209,-2.9859,2023
5,-0.4724,0.0723,-0.9294,2.0821,0.1842,-2.9247,2120
5,-0.4275,-0.0737,-0.9719,1.6185,0.1855,-3.0248,2059
5,-0.3433,-0.3179,-0.8777,1.291,0.0455,-2.8942,2015
5,-0.3086,-0.3682,-0.7993,1.1021,0.4464,-2.657,2131
5,-0.4878,-0.6619,-0.8579,0.7557,0.8329,-1.6709,2032
5,0.7617,-0.0034,-0.9302,0.8106,0.8183,-2.1679,2058
5,1.4199,0.8967,-1.2803,-0.1281,-0.0087,-1.9579,2114
5,1.9999,0.0415,0.9736,0.9208,-1.7668,-4.3635,2378
5,-2.0,-0.0845,-2.0,2.1648,1.3123,-4.3635,1702
5,-0.8232,-2.0,-0.2439,3.1958,-1.8433,2.13,2256
5,1.9999,-2.0,-0.3611,3.0637,4.0583,-1.478,2200
5,0.8184,-1.78,-0.8521,2.8747,0.2693,1.5334,1895
5,1.1699,-0.6609,-0.2041,3.5656,0.709,1.2234,2102
5,0.771,0.1118,-0.2949,4.3634,0.6665,1.3585,2016
5,0.4678,0.4211,0.1335,4.3634,0.4722,1.7889,2003
6,0.6584,-0.0696,-0.0601,4.3634,-0.2342,1.7801,2083
6,0.8083,-0.1614,-0.1804,4.3634,-0.5165,1.2736,2127
6,0.5151,-0.1006,-0.2324,4.21,-0.7641,0.9256,2023
6,0.2998,0.0195,-0.3174,3.6123,-0.6841,0.6609,1975
6,-0.0071,0.0732,-0.3987,3.2256,0.1378,0.2344,2035
6,-0.134,0.0796,-0.2236,2.9581,1.0601,-0.03,2060
6,0.0803,-0.0227,-0.113,2.7775,1.5948,-0.3302,2065
6,0.3003,0.0381,-0.03,2.4683,1.7759,-0.5678,2060
6,0.2837,0.1125,-0.0256,2.3329,1.5403,-0.7934,2038
6,-0.1165,0.1567,-0.2004,1.9618,1.2214,-0.863,2060
6,-0.4182,0.2212,-0.2546,1.5601,1.201,-0.7943,2039
6,-0.5798,0.3711,-0.2253,1.3503,1.1597,-0.752,2052
6,-0.5056,0.4331,-0.1846,1.2278,0.8862,-0.6829,2052
6,-0.4954,0.3469,-0.2,1.3792,0.4061,-0.5518,2060
6,-0.4937,0.1101,-0.2271,1.334,-0.512,-0.3401,2061
6,-0.6355,-0.1807,-0.2893,1.2753,-1.4202,0.0281,2064
6,-1.0071,-0.3806,-0.3809,1.423,-1.6711,0.5845,2066
6,-1.5303,-0.7068,-0.3625,1.4994,-1.7567,1.3274,2081
6,-1.9836,-1.1809,-0.5117,0.8907,-0.7666,2.0984,2067
6,-2.0,-1.5752,-0.7888,0.3241,0.6795,2.3798,2073
6,-2.0,-2.0,-0.6873,-0.3802,2.0533,2.3856,2066
6,-2.0,-2.0,-0.2329,-1.0359,3.2573,2.34,2045
6,-1.563,-2.0,-0.0037,-1.9029,3.6563,2.4903,2032
6,-0.9219,-2.0,-0.0159,-2.7508,3.6689,2.7622,2047
6,-0.5796,-2.0,-0.2424,-3.1218,2.8841,3.0152,2054
6,-0.7222,-2.0,-0.4448,-3.0863,1.9757,3.0433,2026
6,-0.8743,-2.0,-0.6306,-3.3138,1.4865,3.0416,2072
6,-1.0166,-2.0,-0.5596,-3.4793,1.4846,3.1222,2022
6,-1.1897,-2.0,-0.561,-3.6929,1.448,2.9794,2039
6,-1.0432,-2.0,-0.5876,-4.0058,1.1709,2.7381,2029
6,-0.5415,-2.0,-0.4182,-3.9897,0.7731,2.4531,2068
6,-0.3032,-2.0,-0.0413,-3.908,0.0164,2.4087,2061
6,-0.2571,-2.0,0.0959,-2.9866,-1.6347,3.4359,2020
6,-0.1401,-2.0,-0.2917,-4.3635,-0.5542,2.5871,2011
6,-0.0701,-2.0,-0.042,-4.3635,-0.8726,2.2435,2029
6,-0.0964,-2.0,-0.0635,-4.049,-1.8174,2.2997,2038
6,-0.5945,-2.0,-0.3608,-4.3635,-1.6767,2.2214,2039
6,-0.6826,-2.0,-0.5083,-4.3635,-1.1441,2.0606,2069
6,-0.6938,-1.9668,-0.6614,-4.3635,-0.681,2.3479,2048
6,-0.4583,-1.9719,-0.8264,-4.2407,-0.1519,2.2029,2058
6,-0.5173,-1.7556,-0.5334,-3.9957,-0.4602,2.302,2019
6,-0.103,-1.6418,-0.5378,-3.9522,-0.6589,2.775,2045
6,0.1111,-1.5376,-0.5049,-3.7961,-0.643,2.9078,2067
6,-0.1472,-1.3816,-0.5251,-3.838,-0.7064,3.0148,2036
6,-0.3079,-1.3245,-0.6904,-3.9199,-0.8898,3.1098,2052
6,-0.3003,-1.252,-0.7302,-3.7604,-0.9369,3.0031,2039
6,-0.2424,-1.189,-0.6855,-3.4822,-0.9243,2.8564,2045
6,-0.2358,-1.0764,-0.6831,-3.279,-1.0202,2.8855,2050
6,-0.1624,-0.9751,-0.7615,-3.3599,-0.9312,3.0837,2045
6,-0.1345,-0.8916,-0.7739,-3.3603,-0.5558,3.04,2044
6,-0.177,-0.7195,-0.7102,-3.2529,-0.2266,2.7464,2008
6,-0.3218,-0.5664,-0.79,-3.2495,0.125,2.4697,2023
6,-0.4036,-0.51,-0.9194,-3.1052,0.5355,2.1666,2080
6,-0.3152,-0.4597,-0.8567,-2.9466,0.8975,1.7351,2070
6,-0.0854,-0.3674,-0.6526,-2.7655,0.7661,1.4388,2069
6,-0.0659,-0.272,-0.626,-2.4687,0.8291,1.1495,2071
6,-0.1477,-0.1267,-0.4897,-2.0441,0.738,0.8489,2048
6,-0.2017,-0.0261,-0.5425,-1.4484,0.8885,0.4175,2047
6,-0.2222,-0.1865,-0.521,-0.6887,0.567,-0.233,2057
6,-0.1797,-0.3838,-0.4089,0.2603,0.61,-0.907,2137
6,-0.2041,-0.4875,-0.2444,1.1367,0.4494,-1.5351,2034
6,-0.1724,-0.364,-0.6138,1.3829,0.3366,-1.9291,2064
6,-0.1355,-0.4934,-0.5125,2.0176,0.0176,-2.0872,2066
6,-0.3152,-0.8752,-0.592,2.4438,-0.3345,-2.1734,1985
6,-0.4795,-1.1406,-0.823,2.5729,-0.1248,-2.3803,2154
6,-0.6584,-1.0984,-0.7893,2.7328,-0.068,-2.6598,2043
6,-0.9131,-1.1401,-1.0308,2.6559,0.2183,-2.6296,1935
6,-1.0403,-1.3567,-1.1277,2.6372,0.2982,-2.8016,2024
6,-1.1584,-1.5571,-1.3369,2.3417,0.5179,-2.958,2108
6,-1.2632,-1.5796,-1.3726,2.1834,0.3906,-3.1728,2143
6,-1.3545,-1.4419,-1.4858,1.8584,0.2976,-3.3263,2152
6,-1.4919,-1.4646,-1.3882,1.7753,0.2413,-3.4722,2031
6,-1.5525,-1.457,-1.4346,1.6748,0.2306,-3.701,2058
6,-1.5283,-1.3196,-1.377,1.7468,0.2707,-3.9034,2039
6,-1.531,-1.1243,-1.5437,1.7707,0.3306,-3.9787,1936
6,-1.4282,-1.019,-1.4075,2.0995,0.1445,-4.0486,2015
6,-1.3586,-1.0061,-1.439,2.2282,0.1336,-3.9906,2104
6,-1.333,-0.9316,-1.3289,2.5147,-0.01,-3.8378,2017
6,-1.1865,-0.8342,-1.2617,2.6645,-0.0992,-3.6826,2058
6,-1.2524,-0.7263,-1.2263,2.7521,0.0683,-3.4667,2073
6,-1.0942,-0.5862,-1.075,2.8931,-0.1824,-3.2927,2084
6,-1.1414,-0.4841,-1.0686,2.8598,0.02,-3.2553,2014
6,-1.1047,-0.2781,-1.0359,2.7026,0.0395,-3.1227,2016
6,-1.0811,-0.1614,-0.8933,2.3677,0.2551,-2.9193,1998
6,-0.7217,0.0745,-0.8259,1.9551,0.2887,-2.8412,2025
6,-0.3892,0.207,-0.8135,1.6283,0.3647,-3.0798,2170
6,-0.2737,0.0417,-0.9236,0.9882,0.5043,-2.9927,2034
6,-0.0718,-0.1135,-0.7744,0.7513,0.5096,-2.6854,2048
6,-0.3345,-0.354,-0.5723,0.6988,0.7268,-1.6107,2020
6,0.1321,-0.4768,-0.9258,0.0232,1.5747,-1.4936,2154
6,1.0149,-0.0359,-0.7698,-0.0511,1.5286,-2.2222,2275
6,1.9999,-0.0073,-1.0747,-1.5563,-2.453,-4.3635,2624
6,1.2656,-1.3823,-0.886,3.3561,-2.0993,-4.3635,1811
6,-2.0,-2.0,0.2168,2.3643,1.7265,-0.8147,1360
6,1.9999,-2.0,-0.3772,3.282,2.8738,-2.8164,2864
6,-0.1909,-1.5967,-0.8237,3.1753,2.3099,0.3189,1530
6,1.0286,-1.1956,-0.3472,3.4712,1.2364,0.1706,2127
6,0.7961,-0.135,-0.5144,4.3634,1.4053,-0.1473,1911
6,0.064,0.1775,-0.3796,4.3634,1.205,0.7751,2001
6,0.0122,-0.1038,-0.1609,4.3634,1.1425,1.0881,2028
6,0.0354,-0.2747,-0.3318,4.1393,0.8272,1.1343,2070
6,0.2373,-0.2664,-0.1648,3.5974,0.5994,1.1595,2106
7,0.0967,-0.0591,0.0129,3.578,0.4863,0.8034,1989
7,0.1609,0.0718,0.1418,3.5527,0.5257,0.5932,1918
7,0.1628,0.1458,0.0422,3.1463,0.8929,0.5197,2067
7,-0.061,0.1687,0.009,2.8887,1.2343,0.4159,2053
7,-0.2419,0.1494,0.0259,2.7449,1.1886,0.2378,2061
7,0.0012,0.0237,0.1338,2.3129,1.2168,0.4059,2099
7,-0.0588,0.1167,0.1179,1.798,1.1499,0.1392,2040
7,-0.064,0.2632,0.1763,1.729,0.9849,-0.0515,2055
7,-0.2258,0.3621,0.165,1.8993,0.4959,-0.114,2039
7,-0.2219,0.4187,0.0767,1.9891,0.1975,-0.2015,2052
7,-0.4148,0.4683,-0.1191,1.9197,-0.2211,0.0357,2055
7,-0.6189,0.4414,-0.334,1.9512,-0.6542,0.2947,2060
7,-0.6909,0.2468,-0.3916,1.9566,-0.7404,0.5678,2077
7,-0.9219,-0.0491,-0.5107,1.9592,-0.5775,0.8773,2067
7,-1.2771,-0.5369,-0.4851,1.9708,-0.3794,1.3278,2063
7,-1.5447,-1.0474,-0.4312,1.5149,0.1198,1.8516,2061
7,-1.9014,-1.4497,-0.655,0.8156,1.1294,2.3663,2054
7,-2.0,-1.7034,-0.9382,0.0559,2.0391,2.3863,2041
7,-2.0,-1.7891,-0.9993,-0.4151,2.9012,2.3332,2054
7,-1.8237,-1.8066,-0.7505,-0.7385,3.6732,2.2791,2067
7,-1.4451,-1.8291,-0.4893,-1.0475,4.0242,2.2823,2019
7,-1.2722,-1.7966,-0.47,-1.3517,4.0381,2.7002,2019
7,-1.2974,-1.7527,-0.5132,-1.4669,4.172,3.0905,2015
7,-1.3013,-1.884,-0.5435,-1.8422,3.5107,3.1798,2061
7,-1.0254,-2.0,-0.4622,-2.0317,2.5485,3.0702,2068
7,-0.7505,-2.0,-0.2493,-2.5081,1.9411,2.8472,2107
7,-0.5623,-2.0,0.0452,-2.9273,1.1138,2.7364,2032
7,-0.6121,-2.0,0.1147,-3.7362,0.6139,2.5109,2034
7,-0.4661,-2.0,0.2478,-4.151,0.228,2.2903,2031
7,-0.3545,-2.0,0.3926,-4.3635,-0.4104,2.2711,2068
7,-0.3735,-2.0,0.1978,-4.3635,-0.6669,2.3447,2032
7,-0.4272,-2.0,0.1326,-4.3635,-1.0264,2.5625,2059
7,-0.4312,-2.0,0.1536,-4.3635,-1.1167,2.5926,2028
7,-0.4519,-2.0,0.0742,-4.3635,-1.0423,2.5711,2041
7,-0.4922,-2.0,-0.0576,-4.3635,-0.9566,2.6239,2038
7,-0.4399,-1.9275,-0.2371,-4.3635,-0.7826,2.6745,2058
7,-0.4312,-1.751,-0.4893,-4.3635,-0.5398,2.5863,2035
7,-0.3918,-1.5945,-0.614,-4.3635,-0.4169,2.4147,2032
7,-0.3171,-1.53,-0.5969,-4.3635,-0.4373,2.4152,2021
7,-0.2224,-1.429,-0.6223,-4.3635,-0.2944,2.5037,2038
7,-0.2852,-1.3101,-0.7161,-4.3635,-0.1497,2.4502,2078
7,-0.2258,-1.1731,-0.7458,-4.3635,-0.0353,2.5076,2054
7,-0.1421,-1.0073,-0.6692,-4.3108,-0.0566,2.3582,2034
7,-0.1699,-0.8564,-0.7131,-3.9993,0.0759,2.1959,1998
7,-0.2676,-0.8418,-0.7847,-3.772,0.0533,2.1779,2106
7,-0.3718,-0.7466,-0.7515,-3.4456,-0.0097,2.1957,2078
7,-0.5068,-0.6641,-0.7104,-3.1652,-0.0921,2.2948,1990
7,-0.5376,-0.6873,-0.7261,-3.0983,-0.0526,2.3944,2029
7,-0.3738,-0.7036,-0.687,-2.7493,0.2159,2.3321,2056
7,-0.3311,-0.7463,-0.5806,-2.4739,0.1027,1.9548,2081
7,-0.3518,-0.8142,-0.5342,-2.1419,0.2611,1.6827,2058
7,-0.3987,-0.8438,-0.4795,-1.817,0.3726,1.4428,2030
7,-0.3687,-0.6924,-0.407,-1.3992,0.4175,1.2248,1968
7,-0.4355,-0.5125,-0.5183,-1.231,0.4239,0.9391,2027
7,-0.5625,-0.3999,-0.5032,-0.7817,0.387,0.5327,2011
7,-0.5505,-0.3259,-0.55,-0.5112,0.3816,0.1491,2050
7,-0.4446,-0.3059,-0.6467,-0.2272,0.3739,-0.3111,1979
7,-0.4097,-0.3123,-0.731,0.3498,0.1643,-0.9347,2033
7,-0.3669,-0.418,-0.9424,0.8684,-0.1852,-1.4708,2028
7,-0.3577,-0.749,-0.9619,1.335,-0.3646,-1.8098,2066
7,-0.5386,-1.0032,-0.9937,1.5976,-0.2105,-1.9849,2102
7,-0.655,-1.0903,-1.0168,1.6302,0.0915,-2.0619,2050
7,-0.6396,-1.05,-0.9917,1.7082,0.2049,-2.1666,2084
7,-0.7251,-0.9944,-1.0583,1.703,0.3121,-2.2213,2018
7,-0.8772,-1.0818,-1.1492,1.5629,0.3181,-2.2959,1991
7,-0.9822,-1.0435,-1.1755,1.4379,0.2405,-2.5705,2064
7,-1.1118,-0.9678,-1.1594,1.4567,0.3241,-2.9219,2081
7,-1.1848,-0.9802,-1.1128,1.4869,0.2409,-3.3778,2005
7,-1.178,-0.998,-1.166,1.4996,0.2774,-3.8454,2011
7,-1.2561,-0.968,-1.249,1.6398,0.1698,-4.111,2073
7,-1.2205,-0.9709,-1.3142,1.7669,0.0017,-4.3547,2119
7,-1.3186,-1.0073,-1.344,2.0821,0.0703,-4.3635,2280
7,-1.2703,-0.9658,-1.3245,2.2858,0.0481,-4.3635,1988
7,-1.2493,-0.3992,-1.2192,2.8288,0.0222,-4.3635,2057
7,-1.4844,-1.1628,-1.5327,2.7964,0.3915,-4.0519,1839
7,-1.105,-1.0625,-1.1416,3.0293,-0.0461,-3.9626,2078
7,-1.1282,-1.0166,-1.1201,3.2993,-0.037,-3.7217,1990
7,-1.2771,-0.7981,-1.1318,3.2893,-0.0268,-3.4512,1997
7,-1.1731,-0.636,-1.23,2.9893,0.0409,-3.2564,2054
7,-0.9658,-0.5178,-1.1711,2.91,0.1121,-3.1564,2023
7,-0.7234,-0.3582,-1.1274,2.5464,0.324,-2.9992,2170
7,-0.4421,-0.2175,-0.7976,2.4623,0.0678,-2.8248,2001
7,-0.2905,-0.3486,-0.8975,2.0188,0.3374,-2.91,2038
7,-0.3047,-0.438,-0.8718,1.3062,0.7004,-2.7558,1989
7,-0.1528,-0.0422,-0.6821,1.1986,1.0692,-2.5863,2001
7,0.2249,0.3992,-0.3018,1.4259,0.6578,-2.5878,2141
7,-0.2444,-0.3979,-0.6543,0.8798,1.5849,-2.6433,2042
7,0.2078,-0.6812,-0.8059,0.5094,1.8273,-2.5959,1942
7,1.9999,-0.2617,0.1868,-0.9636,-1.2344,-4.3635,2265
7,0.6155,-0.2576,-1.4851,3.5418,0.8347,-4.3635,1925
7,-2.0,-2.0,0.6558,3.4441,-0.8212,0.1698,1876
7,0.314,-2.0,-1.2017,1.8178,3.9635,-0.9448,2375
7,0.0525,-1.135,-0.4233,2.6052,1.28,0.6312,2076
7,1.0986,-0.5569,0.1042,3.2377,0.7765,0.6486,2048
7,0.4651,-0.0295,0.1533,4.3116,0.6689,0.7927,1970
7,0.3906,-0.1431,0.4199,4.3634,0.1727,1.3822,1946
7,0.3518,-0.2573,0.3027,4.3634,-0.3111,1.1612,2044
7,0.2705,-0.1763,0.2178,4.3634,-0.9541,0.9234,2056
7,0.2637,-0.0779,0.0522,4.143,-0.9608,0.6353,2066
7,0.1465,-0.022,-0.0535,3.6645,-0.8858,0.6369,1986
7,0.2288,0.0183,-0.0088,3.4986,-0.3782,0.4552,1990
8,0.3052,0.011,0.1216,3.4728,0.2362,0.2922,2044
8,0.4485,-0.1011,0.2231,3.1468,0.3221,0.302,2026
8,0.4534,-0.1409,0.0371,2.9356,0.4713,0.0811,2035
8,0.0681,-0.0847,-0.0857,2.6235,0.4496,-0.1884,2065
8,0.0496,-0.0198,-0.0457,2.2333,0.4461,-0.098,2049
8,0.0369,0.031,-0.0813,1.8708,0.4482,-0.3255,2075
8,-0.0339,0.1611,-0.0203,1.5484,0.539,-0.4362,2045
8,-0.1284,0.3293,0.0088,1.6916,0.5307,-0.5236,2054
8,-0.1685,0.3889,-0.0149,1.8583,0.3229,-0.6434,2047
8,-0.321,0.3259,-0.1316,1.9209,0.0485,-0.4557,2043
8,-0.4951,0.3,-0.2466,1.8132,-0.4412,-0.0433,2055
8,-0.5735,0.2134,-0.3018,1.8732,-0.7377,0.2306,2060
8,-0.9084,-0.1597,-0.5212,1.8756,-0.3095,0.6181,2062
8,-1.3816,-0.5432,-0.7002,1.5892,-0.1081,1.1963,2061
8,-1.6719,-0.928,-0.832,1.2422,0.1434,1.8246,2075
8,-2.0,-1.446,-0.9717,0.7468,1.0226,2.1132,2067
8,-2.0,-1.7786,-0.9695,-0.0662,2.184,2.4067,2043
8,-2.0,-1.8943,-0.8367,-0.669,3.0698,2.3405,2047
8,-1.999,-2.0,-0.3533,-1.1276,3.3914,2.0515,2039
8,-1.533,-2.0,-0.1956,-2.0374,4.1479,1.7419,2049
8,-1.3008,-1.7871,-0.4402,-2.5329,4.3634,1.8935,2018
8,-1.1653,-1.7644,-0.6858,-2.4008,4.1619,2.2033,2048
8,-0.9285,-1.8899,-0.6758,-2.1818,3.3584,2.3603,2038
8,-0.6204,-2.0,-0.6572,-2.392,2.5425,2.3641,2056
8,-0.4788,-2.0,-0.3867,-2.5494,1.7693,2.4824,2071
8,-0.3579,-2.0,-0.3025,-2.9496,0.9861,2.5151,2076
8,-0.4075,-2.0,0.0022,-3.125,0.4474,2.4189,2022
8,-0.5225,-2.0,0.0576,-3.751,0.4757,2.3751,2106
8,-0.4875,-2.0,0.2815,-3.8402,0.6385,2.3754,2042
8,-0.3865,-2.0,0.3455,-4.172,0.5486,2.5485,2029
8,-0.2329,-2.0,0.5142,-4.3635,-0.0294,2.7084,2027
8,-0.2605,-2.0,0.4207,-4.3635,-0.8475,2.8556,2038
8,-0.3311,-2.0,0.2932,-4.3635,-0.7602,2.4402,2076
8,-0.4839,-2.0,0.1924,-4.3635,-0.7285,2.5494,2030
8,-0.2405,-1.9546,-0.0273,-4.3635,-0.5068,2.3621,2088
8,-0.3474,-1.6919,-0.1438,-4.3635,-0.5461,2.5342,2027
8,-0.3884,-1.7957,-0.3613,-4.3635,-0.5665,2.3768,2060
8,-0.2729,-1.7791,-0.6467,-4.3635,-0.4079,2.54,2072
8,-0.374,-1.709,-0.6824,-4.3635,-0.5534,2.3501,2027
8,-0.3726,-1.6184,-0.6931,-4.3635,-0.4931,2.2731,2057
8,-0.2532,-1.4727,-0.7224,-4.3635,-0.3559,2.3442,2046
8,-0.1226,-1.2947,-0.7095,-4.3635,-0.0997,2.2792,2060
8,-0.0366,-1.0437,-0.5989,-4.3635,-0.0208,2.1008,2052
8,-0.0017,-0.8318,-0.5918,-4.3635,0.1609,2.0141,2041
8,-0.0791,-0.7114,-0.5684,-4.2429,0.1489,1.7887,2045
8,-0.0898,-0.6865,-0.7183,-4.0583,-0.1633,1.808,2103
8,-0.2244,-0.6284,-0.8853,-3.7362,-0.1993,1.8703,2048
8,-0.4065,-0.5935,-0.8289,-3.3805,-0.2245,2.098,2041
8,-0.5667,-0.4778,-0.8535,-3.0704,-0.0704,2.3831,2033
8,-0.6243,-0.5291,-0.8643,-2.9411,0.4263,2.5631,2063
8,-0.4702,-0.5691,-0.615,-2.5681,0.6229,2.3952,1987
8,-0.249,-0.6194,-0.4517,-2.4048,0.6572,2.0029,2016
8,-0.3022,-0.613,-0.5364,-1.8578,0.6196,1.4478,2023
8,-0.3752,-0.626,-0.6011,-1.2737,0.6421,1.1231,1900
8,-0.5276,-0.5244,-0.6765,-0.8775,0.5026,0.7063,1942
8,-0.5652,-0.377,-0.5647,-0.3312,0.4462,0.2041,2017
8,-0.5288,-0.2664,-0.583,0.0182,0.2718,-0.1497,2108
8,-0.5105,-0.3408,-0.6592,0.4718,0.2185,-0.5755,2074
8,-0.395,-0.4805,-0.7795,0.7212,0.0671,-0.9156,2041
8,-0.3381,-0.5906,-0.6489,1.4296,-0.3791,-1.2465,2134
8,-0.5044,-0.8513,-0.8137,1.7972,-0.7657,-1.5651,1963
8,-0.7295,-1.1438,-0.9929,1.9108,-0.6031,-1.7616,2020
8,-0.8987,-1.0857,-0.8391,2.0383,-0.3814,-2.1052,2046
8,-1.0244,-1.1355,-1.0066,1.9495,-0.021,-2.4325,2169
8,-1.051,-1.1223,-1.1394,2.0795,0.1048,-2.7466,2032
8,-1.0525,-1.1091,-1.3127,2.013,0.0919,-2.95,2086
8,-1.0872,-1.063,-1.3162,1.9928,-0.1433,-3.2833,2117
8,-1.1575,-1.0757,-1.3691,2.0885,-0.3019,-3.5508,1995
8,-1.188,-1.1406,-1.2771,2.1398,-0.5163,-3.9266,2072
8,-1.3242,-1.2178,-1.4575,2.188,-0.3751,-4.1306,2150
8,-1.332,-1.168,-1.395,2.3087,-0.4203,-4.2422,2113
8,-1.2964,-0.9778,-1.4766,2.4993,-0.2646,-4.2228,2161
8,-1.2358,-0.9741,-1.4006,2.7514,-0.2763,-4.1868,2060
8,-1.1714,-0.979,-1.4766,2.9094,-0.1253,-4.0064,1995
8,-1.1086,-0.9092,-1.3799,3.1194,-0.1369,-3.8735,2073
8,-1.0596,-0.8533,-1.4041,3.2335,-0.1465,-3.8367,2069
8,-1.0974,-0.7107,-1.3613,3.2638,-0.1494,-3.8515,2051
8,-1.0889,-0.623,-1.3259,3.2248,-0.133,-3.8956,2014
8,-1.0632,-0.5322,-1.2917,3.0705,-0.0928,-4.0225,2032
8,-0.9817,-0.429,-1.1628,2.8747,-0.0959,-4.2509,1987
8,-0.9919,-0.4441,-1.1907,2.4309,0.1027,-4.2752,2014
8,-0.8333,-0.2668,-0.9539,2.3153,0.2468,-3.668,2042
8,-0.4136,-0.1331,-1.0007,1.6965,0.2657,-3.7182,2016
8,-0.4695,-0.229,-0.8564,1.3087,0.4735,-3.6576,2012
8,-0.1067,-0.3679,-0.6902,0.9501,0.4888,-3.4777,2069
8,-0.4045,-0.5549,-0.4561,0.8668,0.9361,-3.0237,2053
8,-0.0034,-0.6379,-0.5544,0.7719,1.0212,-2.235,2112
8,0.4817,0.0671,-0.5383,0.436,1.1346,-2.4725,2054
8,1.9999,0.6606,1.4333,0.8902,-2.1288,-4.3635,2452
8,-1.6658,1.0217,-1.4788,2.0106,4.3634,-4.3635,1644
8,-2.0,-2.0,-0.2583,2.9493,-2.3084,4.3634,1992
8,1.9999,-2.0,-0.5867,3.0736,2.836,-2.1604,2650
8,-0.3533,-0.6887,-0.1106,2.4959,-0.1964,0.5946,1754
8,0.1941,-1.572,0.1699,3.364,1.0456,0.5604,2140
8,0.5,-0.4617,0.4514,4.3634,0.9661,1.3857,1984
8,0.6741,0.3911,0.1453,4.3634,1.0178,1.9535,2018
8,0.3979,-0.0037,-0.5554,4.2595,0.4891,1.9703,2069
8,0.3152,0.0176,-0.4792,4.0692,-0.5548,1.9963,2043
8,0.4841,-0.0842,-0.0452,3.4876,-0.6235,2.0763,2013
8,0.2515,-0.0266,-0.0791,3.4745,-0.5201,1.5147,1979
8,0.3003,-0.0557,-0.0374,3.2782,-0.1111,1.0536,1995
9,0.3542,-0.0686,-0.0156,2.8473,0.2896,0.5541,2016
9,0.5066,-0.0554,-0.0122,2.5288,0.7361,-0.0999,2018
9,0.3042,-0.0066,-0.1028,2.0682,0.8939,-0.6774,2063
9,-0.1367,0.0669,-0.3577,1.6064,1.1496,-0.8692,2020
9,-0.2373,0.2297,-0.2832,1.1507,1.3914,-0.7573,2067
9,-0.2471,0.449,-0.0862,1.15,1.5997,-0.7865,2065
9,-0.2363,0.6487,0.0417,1.1572,1.5735,-0.7126,2049
9,-0.2903,0.6846,-0.0129,1.2722,1.1106,-0.702,2058
9,-0.3572,0.4927,-0.1277,1.1436,0.4169,-0.3848,2058
9,-0.5242,0.1714,-0.3462,1.073,-0.2286,-0.0394,2069
9,-0.679,-0.1521,-0.4749,1.0118,-0.6094,0.1918,2062
9,-0.9387,-0.3884,-0.6094,0.9417,-0.7962,0.5325,2058
9,-1.3284,-0.698,-0.7549,1.0096,-0.9806,0.7417,2060
9,-1.6348,-1.168,-0.9766,0.9496,-0.8801,0.8128,2061
9,-2.0,-1.8982,-0.9519,0.4448,-0.2852,0.9519,2063
9,-2.0,-2.0,-0.6716,-0.8897,1.1144,1.4326,2074
9,-2.0,-2.0,-0.6313,-2.4754,2.5583,2.4803,2061
9,-1.719,-2.0,-0.5803,-2.6312,3.0586,3.0237,2052
9,-1.2429,-2.0,-0.1897,-2.9874,3.3998,2.9935,2060
9,-1.0889,-2.0,-0.2407,-3.6874,3.3681,2.9224,2014
9,-1.1318,-2.0,-0.6519,-3.9725,3.1042,3.2725,2030
9,-1.1689,-2.0,-0.8542,-4.3635,3.1925,3.6319,2056
9,-1.0386,-2.0,-0.875,-4.3635,3.6071,4.0033,2046
9,-0.5408,-2.0,-0.5759,-4.0618,3.0232,3.8743,2099
9,-0.1611,-2.0,-0.0576,-3.8145,0.9995,4.0271,2041
9,-0.0815,-1.9285,-0.0173,-4.3635,-0.9126,3.8472,2027
9,-0.127,-1.78,-0.1799,-3.8327,-1.9508,3.6925,2033
9,-0.6025,-1.572,-0.0259,-2.1967,-2.3948,2.9084,2037
9,-0.8364,-2.0,0.3816,-3.5057,-2.7876,2.3674,2063
9,-1.4392,-2.0,-0.1555,-3.7864,-1.7375,2.4967,1979
9,-1.0361,-2.0,-0.8853,-3.9851,-0.6307,2.3742,2030
9,-1.1284,-2.0,-0.5388,-4.3635,-0.7102,2.5083,2039
9,-0.9045,-2.0,-0.4934,-4.3635,-0.6634,2.5149,2054
9,-0.6594,-1.7043,-0.6074,-4.2528,-0.1286,2.2442,2017
9,-0.3635,-1.5029,-0.6755,-3.9752,-0.132,2.2365,2047
9,-0.2654,-1.2834,-0.7271,-3.8874,-0.3177,2.4974,2055
9,0.0081,-1.1655,-0.7837,-3.6428,-0.5815,2.5904,2044
9,0.0063,-1.0742,-0.8362,-3.4208,-0.8835,2.3143,2022
9,-0.2666,-0.896,-0.7876,-3.2573,-1.1359,2.3003,2023
9,-0.4419,-0.7568,-0.6091,-2.795,-1.061,2.3868,1978
9,-0.5596,-0.709,-0.4668,-2.5609,-0.802,2.5332,2042
9,-0.625,-0.8025,-0.5732,-2.4659,-0.4035,2.5705,2051
9,-0.644,-0.9873,-0.6702,-2.4181,0.077,2.5136,2045
9,-0.5098,-1.0979,-0.7114,-2.4522,0.504,2.2989,2111
9,-0.2537,-0.9731,-0.6558,-2.267,0.3962,1.9972,2057
9,-0.1416,-0.8701,-0.6997,-2.2433,0.0633,1.6652,1971
9,-0.1321,-0.8625,-0.7039,-2.1113,-0.2144,1.2912,2076
9,-0.2605,-0.7981,-0.6267,-1.862,-0.3626,0.901,2010
9,-0.4331,-0.7693,-0.6377,-1.6676,-0.3358,0.6879,2078
9,-0.5105,-0.771,-0.6733,-1.4684,-0.0871,0.52,2080
9,-0.585,-0.6943,-0.7144,-1.2531,0.2228,0.3308,2021
9,-0.5483,-0.6035,-0.7339,-1.118,0.3577,0.1414,2122
9,-0.3972,-0.6143,-0.6833,-0.9132,0.229,-0.104,2048
9,-0.2092,-0.5764,-0.7671,-0.7939,-0.0899,-0.2899,1991
9,-0.2163,-0.5786,-0.7026,-0.4303,-0.3428,-0.436,2045
9,-0.2776,-0.6138,-0.5425,-0.1204,-0.4939,-0.475,2080
9,-0.3958,-0.6492,-0.7402,0.0115,-0.193,-0.5059,2054
9,-0.5051,-0.6868,-0.7559,0.3437,-0.0519,-0.6079,2088
9,-0.4739,-0.6377,-0.7883,0.622,0.0228,-0.7785,1965
9,-0.5015,-0.595,-0.8457,0.842,0.4108,-0.8548,2054
9,-0.5195,-0.6348,-0.801,1.031,0.2991,-0.9451,2019
9,-0.6372,-0.6877,-1.0464,1.0533,0.3879,-1.2363,2022
9,-0.7715,-0.6992,-0.7266,1.3996,0.2128,-1.6363,1968
9,-0.9211,-0.6763,-0.885,1.429,0.242,-2.2266,2047
9,-1.0625,-0.8726,-1.0603,1.3041,0.5809,-2.7035,2060
9,-1.074,-0.9221,-0.9124,1.5717,0.4797,-3.0533,2119
9,-1.0767,-1.0359,-0.9001,1.4677,0.5288,-3.4781,2046
9,-1.1641,-1.0339,-0.7947,1.6065,0.5288,-3.7785,1975
9,-1.1172,-1.1123,-0.9058,1.5681,0.1996,-3.9903,2017
9,-1.189,-1.1096,-1.1167,1.5394,0.4036,-4.0421,2082
9,-1.0742,-0.7627,-0.6875,2.3599,0.0827,-4.1262,2033
9,-1.2449,-1.0789,-1.1541,2.2145,0.1904,-3.892,2186
9,-1.2949,-1.2317,-1.1648,2.3115,0.388,-3.9839,1996
9,-1.106,-1.0127,-1.1353,2.4816,0.1814,-3.9631,2098
9,-1.1658,-1.0085,-1.1633,2.5181,0.3737,-4.0618,2089
9,-1.2773,-0.9919,-1.207,2.4989,0.4048,-4.0367,1954
9,-1.1555,-0.7859,-1.2046,2.4309,0.4248,-4.0358,1931
9,-1.012,-0.6853,-1.1326,2.2811,0.4016,-4.0094,1936
9,-0.9722,-0.698,-0.9695,2.3506,0.4245,-3.9684,2045
9,-0.9397,-0.6016,-1.1184,1.8389,0.4959,-3.8989,2132
9,-0.8591,-0.3386,-0.8657,1.7279,0.5195,-3.7335,2003
9,-0.5781,-0.2581,-0.9414,1.2698,0.6765,-3.6189,2023
9,-0.6082,-0.1838,-0.8408,1.1263,0.6906,-3.2954,2034
9,-0.4285,0.1543,-0.2529,1.4122,0.6163,-2.8697,2041
9,-0.094,-0.0962,-0.5081,1.1905,1.1922,-3.0195,2090
9,0.0588,-0.8579,-1.0198,0.4895,1.1832,-2.657,2070
9,0.1543,-0.4185,-0.9836,0.141,1.3423,-2.5575,2010
9,0.3569,0.1323,0.2051,0.8289,1.6705,-2.7091,2060
9,1.9999,-0.5225,0.0305,-0.518,-1.6021,-4.3635,2405
9,1.8889,-0.4851,-1.5745,2.7083,0.3516,-4.3635,2112
9,-2.0,-2.0,-0.5469,1.7524,1.6759,-0.9742,1439
9,1.9999,-2.0,-0.7998,3.5936,2.3816,-2.9964,2829
9,0.0642,0.0515,-1.3069,2.4585,2.5012,-1.396,1616
9,0.9871,-0.9985,-0.2522,3.723,2.3965,-1.0969,2073
9,0.9946,0.0144,-0.1602,4.139,2.5392,-0.2413,2047
9,0.2969,0.1306,-0.7288,4.0156,2.0756,1.2535,2047
9,0.7119,0.0481,-0.5442,4.0703,0.6331,1.6069,2086
9,0.7944,-0.0803,-0.2964,3.9957,0.0879,1.2608,2100
9,0.4028,-0.2344,-0.3665,3.6656,-0.0119,0.9817,1975
9,0.4839,-0.0669,-0.083,3.6352,-0.0935,0.805,1932
9,0.5649,0.0022,-0.2566,3.2761,0.0373,0.8084,2063
9,0.4722,0.0374,-0.5183,2.7501,0.2718,0.457,2073
9,0.4536,0.1418,-0.3569,2.2671,0.9626,0.0951,2058
9,0.011,0.3347,-0.179,2.1482,1.4611,-0.4662,1941
9,0.1072,0.3005,-0.0186,1.8187,1.5637,-0.2641,2026
9,0.1721,0.2375,-0.095,1.5167,1.5829,-0.023,2051
10,-0.0833,0.3105,-0.1147,1.4194,1.608,0.2185,2053
10,-0.2561,0.3555,-0.0676,1.3793,1.3765,0.4611,2029
10,-0.3799,0.2397,-0.0063,1.3123,1.1251,0.5802,2062
10,-0.3843,0.1401,0.0354,1.4568,0.8281,0.6506,2065
10,-0.5752,0.1238,0.0073,1.7424,0.3887,0.7588,2046
10,-0.71,0.0713,-0.0757,2.0887,-0.2059,1.0053,2045
10,-0.9434,-0.0068,-0.1987,2.2724,-0.6874,1.366,2042
10,-1.2061,-0.1814,-0.3228,2.292,-0.9728,1.6663,2052
10,-1.4189,-0.3298,-0.394,2.3096,-1.1568,1.76,2058
10,-1.7332,-0.8325,-0.4712,2.0626,-0.6344,1.7408,2061
10,-2.0,-1.3672,-0.5271,1.4202,0.4091,2.1035,2057
10,-2.0,-1.7327,-0.5681,0.4841,1.501,2.5432,2066
10,-2.0,-1.9714,-0.6028,-0.1165,2.175,2.691,2074
10,-1.9917,-2.0,-0.3894,-0.4896,2.6824,2.6075,2054
10,-1.5471,-2.0,-0.1533,-1.0043,3.2298,2.608,2037
10,-1.4082,-2.0,-0.1589,-1.7594,3.5569,2.6324,2026
10,-1.3555,-2.0,-0.4858,-2.1844,3.4937,2.6075,2035
10,-1.2466,-2.0,-0.6592,-2.3385,3.577,2.6366,2046
10,-0.9082,-2.0,-0.4026,-2.3111,3.2923,2.7906,2044
10,-0.6462,-2.0,0.0137,-2.4924,2.7003,3.0384,2095
10,-0.4639,-2.0,0.0439,-3.0134,2.338,3.056,2014
10,-0.1768,-2.0,0.5088,-2.9166,1.7891,2.8485,2046
10,0.1165,-2.0,0.6853,-3.4118,1.0749,2.4089,2019
10,0.3943,-2.0,0.4414,-3.8464,0.4373,2.1438,2040
10,0.261,-2.0,0.3159,-4.0845,-0.3824,2.115,2025
10,-0.0347,-2.0,0.0781,-4.3635,-0.8873,2.0943,2015
10,-0.1819,-2.0,-0.0132,-4.3635,-1.2176,2.0407,2037
10,-0.251,-2.0,0.0105,-4.3635,-1.3841,1.9876,2028
10,-0.292,-2.0,-0.0657,-4.3635,-1.1778,1.9543,2041
10,-0.3066,-1.8972,-0.1355,-4.3635,-0.9367,1.9639,2031
10,-0.3384,-1.7634,-0.3506,-4.3635,-0.6385,1.9817,2045
10,-0.3567,-1.6211,-0.4751,-4.3635,-0.6672,2.0611,2049
10,-0.48,-1.6045,-0.5347,-4.3635,-0.5946,2.0383,2050
10,-0.4358,-1.5288,-0.6045,-4.3635,-0.4498,2.0939,2041
10,-0.3484,-1.3748,-0.6306,-4.3635,-0.4075,2.1636,2025
10,-0.3198,-1.2412,-0.6589,-4.3635,-0.287,2.2694,2071
10,-0.2778,-1.1824,-0.5828,-4.3635,-0.1117,2.2417,2068
10,-0.2412,-1.1245,-0.5403,-4.3635,0.0422,2.0583,2035
10,-0.2131,-1.1343,-0.6904,-4.3635,0.0447,1.8534,2060
10,-0.2197,-1.1782,-0.7834,-4.2735,0.1693,1.5815,2067
10,-0.2405,-1.1921,-0.887,-4.1921,0.132,1.4288,2063
10,-0.3074,-1.019,-0.9602,-4.0443,0.1633,1.5693,2024
10,-0.5022,-0.8799,-1.1428,-3.9875,0.3779,1.6986,2058
10,-0.5652,-0.8591,-1.0718,-3.7704,0.541,1.8515,2081
10,-0.4226,-0.7297,-0.7783,-3.442,0.6111,1.9542,2053
10,-0.3276,-0.54,-0.5112,-3.2242,0.595,1.856,2043
10,-0.2798,-0.5071,-0.3359,-2.8749,0.7231,1.7789,2022
10,-0.2695,-0.5454,-0.3271,-2.6172,0.7433,1.7763,2059
10,-0.323,-0.5361,-0.2783,-2.0949,0.5502,1.5318,2071
10,-0.354,-0.5149,-0.4163,-1.9867,0.6498,1.5127,2029
10,-0.5188,-0.4915,-0.5581,-1.538,0.6585,1.111,2025
10,-0.5176,-0.2498,-0.3684,-1.0529,0.6636,0.6016,1937
10,-0.4905,-0.0737,-0.479,-0.3922,0.9772,-0.1016,2075
10,-0.4009,-0.2454,-0.4688,0.0104,1.0058,-0.7067,2069
10,-0.24,-0.2097,-0.4392,0.8705,0.5898,-1.205,2080
10,-0.0674,-0.3069,-0.5347,1.6054,-0.21,-1.5721,2035
10,-0.2021,-0.7756,-0.7979,2.1353,-0.6646,-1.9251,2025
10,-0.4453,-0.8704,-0.7539,2.5693,-0.8144,-2.1502,2166
10,-0.6311,-0.8242,-0.8093,2.7097,-0.5374,-2.3727,1993
10,-0.7742,-0.9348,-1.0806,2.7622,-0.1597,-2.5798,1994
10,-0.7197,-1.0037,-1.2844,2.7465,-0.1182,-2.8474,1985
10,-0.709,-1.0637,-1.3696,2.6848,-0.2269,-3.0914,1999
10,-0.8535,-1.1479,-1.4868,2.6738,-0.3088,-3.3673,2069
10,-1.0903,-1.2786,-1.5332,2.5645,-0.2886,-3.6414,2174
10,-1.1431,-1.3372,-1.502,2.5436,-0.2069,-4.0523,2209
10,-1.218,-1.3093,-1.5884,2.465,-0.1172,-4.3502,1894
10,-1.2021,-1.3071,-1.4258,2.5077,-0.2362,-4.3635,2070
10,-1.2615,-1.2246,-1.531,2.5726,-0.1943,-4.3635,1989
10,-1.2778,-1.2051,-1.5022,2.6002,-0.2047,-4.3635,2139
10,-1.2629,-1.1252,-1.4658,2.7857,-0.2409,-4.3635,2135
10,-1.2817,-1.0532,-1.3572,2.9219,-0.2109,-4.3635,2073
10,-1.3074,-1.0481,-1.3948,2.9905,-0.09,-4.3635,1857
10,-1.2688,-0.9658,-1.4504,2.9505,-0.0321,-4.1953,1946
10,-1.2043,-0.8311,-1.4221,2.9741,-0.0896,-3.8498,2059
10,-1.1897,-0.604,-1.2173,3.0365,-0.1322,-3.5537,2073
10,-1.0969,-0.5103,-1.2944,2.6706,-0.0265,-3.4163,2085
10,-0.9448,-0.5261,-1.2283,2.3161,0.186,-3.3907,2061
10,-0.7087,-0.2932,-1.1184,2.0034,0.1152,-3.2914,2025
10,-0.5269,-0.1943,-0.9963,1.538,0.1188,-2.9437,2045
10,-0.5518,-0.1804,-0.9153,1.1424,0.3025,-2.6691,2055
10,-0.4292,-0.0754,-0.6538,0.6485,0.5239,-1.8146,2024
10,0.7368,0.1821,-0.4795,0.5537,0.5782,-2.4883,2265
10,0.9702,0.1738,-0.407,0.8939,0.293,-2.6902,1940
10,1.9999,-0.2339,-0.0999,-1.0086,-2.8863,-4.3635,2386
10,1.9999,-0.4583,1.1765,3.7162,-4.3635,-4.3635,1888
10,-2.0,-1.9512,-1.4165,3.9618,0.4081,-4.3635,1835
10,-2.0,-2.0,-1.0706,3.4764,1.6612,1.5107,2064
10,1.9999,-0.916,-0.3574,3.3674,4.3634,-0.6857,2194
10,1.3684,-1.0,0.26,3.8884,2.2913,0.8553,1920
10,1.4563,-1.2598,0.2908,4.3634,1.1539,1.2567,2055
10,0.446,-0.3835,-0.0623,4.3634,1.1113,1.3707,1973
10,-0.4331,0.1631,-0.1284,4.3634,1.3652,1.6496,1996
10,-0.2515,0.2439,-0.3311,4.3634,1.711,1.6482,1999
10,0.144,0.106,-0.6377,4.2904,1.7716,1.201,2094
10,0.3521,0.1384,-0.552,3.805,1.2942,1.017,2042
10,0.4639,0.1907,-0.4785,3.2646,0.9692,0.8002,2041
10,0.5662,0.1968,-0.3149,2.72,0.7938,0.5104,2041
10,0.4543,0.2517,-0.2253,2.5152,0.8734,0.0202,2050
10,0.3323,0.2192,-0.0808,2.111,0.8508,0.0077,2051
10,0.0471,0.134,-0.1997,1.7603,1.0295,-0.0194,2064
10,-0.0942,-0.0139,-0.2129,1.4609,1.2589,0.2661,2044
11,-0.2461,-0.02,-0.168,1.4479,1.3611,0.3009,2046
11,-0.2571,0.0374,-0.1243,1.4588,1.2278,0.4113,2032
11,-0.3865,0.0083,-0.2,1.211,0.8806,0.5666,2043
11,-0.532,-0.1331,-0.2505,0.9953,0.3382,0.7212,2052
11,-0.6755,-0.3562,-0.2666,0.8552,-0.0899,0.876,2056
11,-0.7615,-0.5928,-0.2217,0.6545,-0.2831,1.0476,2057
11,-1.0771,-0.5798,-0.1504,0.6261,-0.5838,1.2773,2047
11,-1.2744,-0.6914,-0.0798,0.6016,-0.7241,1.6598,2053
11,-1.7036,-0.9834,-0.1699,0.3629,-0.5629,1.6892,2057
11,-1.8428,-1.21,-0.3899,-0.0213,-0.0832,1.8919,2061
11,-2.0,-1.3926,-0.5278,-0.2601,0.6693,1.8646,2041
11,-2.0,-1.5789,-0.3584,-0.4683,1.2617,1.8,2052
11,-1.9216,-1.6616,-0.2834,-0.978,1.9555,1.8853,2048
11,-1.6514,-1.7349,-0.2625,-1.768,2.5822,2.0124,2064
11,-1.2917,-1.8848,-0.3096,-1.9836,2.8297,2.2109,2053
11,-1.0703,-2.0,-0.2705,-2.2265,2.7,2.5496,2001
11,-1.0088,-2.0,-0.3027,-2.6014,2.4189,2.793,2033
11,-0.8562,-2.0,-0.365,-2.8526,2.2688,3.0416,2071
11,-0.6091,-2.0,-0.1897,-3.1276,2.3752,3.2119,2057
11,-0.4868,-2.0,-0.1309,-3.6739,1.9137,3.3906,2049
11,-0.2161,-2.0,-0.1794,-3.9596,1.1896,3.4278,2098
11,-0.0222,-2.0,-0.1062,-4.1929,0.2943,3.4846,2037
11,-0.252,-2.0,-0.2239,-4.3635,-0.1878,3.7326,2038
11,-0.5247,-2.0,-0.3621,-4.3635,-0.4356,3.7452,2009
11,-0.5603,-1.8342,-0.3586,-4.3635,-0.3051,3.4366,2041
11,-0.3586,-1.8943,-0.0042,-4.3635,-0.2794,3.1778,2049
11,-0.0583,-2.0,0.2588,-4.3635,-0.4856,2.8012,2051
11,0.2793,-2.0,0.1589,-4.1972,-0.3678,2.2582,2073
11,0.3242,-2.0,0.345,-3.8719,-0.4425,1.7574,2010
11,0.2141,-2.0,0.0149,-3.931,-0.7585,1.2499,2052
11,-0.0107,-1.8662,-0.5806,-4.3165,-0.7574,1.4371,2041
11,-0.324,-1.6682,-0.7075,-4.1662,-1.0459,1.7648,2060
11,-0.4746,-1.6145,-0.6309,-4.1465,-1.3676,2.0401,2070
11,-0.4507,-1.5713,-0.6707,-4.2173,-1.0677,2.1294,2034
11,-0.46,-1.4431,-0.6787,-4.1354,-0.6042,2.214,2029
11,-0.4976,-1.2751,-0.6836,-4.0014,-0.4782,2.3366,1999
11,-0.4041,-1.1594,-0.7195,-3.8946,-0.3779,2.4876,2024
11,-0.2913,-0.9766,-0.7083,-3.5078,-0.3199,2.6184,2144
11,-0.3337,-0.8428,-0.6003,-3.171,-0.224,2.6079,2008
11,-0.3689,-0.7742,-0.5066,-2.8879,-0.0566,2.5719,2025
11,-0.3503,-0.6848,-0.575,-2.8979,-0.0635,2.426,2031
11,-0.3374,-0.6121,-0.7566,-2.8842,0.124,2.3265,2039
11,-0.4834,-0.4675,-0.8787,-2.6717,0.3559,2.2738,2048
11,-0.6111,-0.3657,-0.8403,-2.2329,0.506,2.1033,2041
11,-0.5688,-0.3682,-0.802,-1.9761,0.7681,1.8343,2114
11,-0.4478,-0.385,-0.5996,-1.644,0.7561,1.6127,2052
11,-0.3347,-0.314,-0.4456,-1.0938,0.6175,1.2318,2070
11,-0.2793,-0.322,-0.3843,-0.8975,0.4153,0.8674,2084
11,-0.2803,-0.4207,-0.4038,-0.5457,0.1619,0.467,2142
11,-0.3628,-0.4604,-0.531,-0.2088,0.1277,-0.1405,2172
11,-0.502,-0.4263,-0.5962,0.2491,0.049,-0.7785,2030
11,-0.5042,-0.4424,-0.6626,0.5076,0.1096,-1.4396,2059
11,-0.3989,-0.5103,-0.698,0.7352,0.1193,-1.9072,2030
11,-0.2573,-0.6086,-0.6892,0.9962,-0.0194,-2.0853,1978
11,-0.1177,-0.8933,-0.9258,1.1688,-0.4686,-1.8579,2008
11,-0.2239,-1.2949,-0.9343,1.6016,-1.023,-1.8484,2000
11,-0.5745,-1.2327,-0.8599,1.5905,-0.871,-2.2067,2050
11,-1.0037,-1.3711,-1.072,1.3332,0.3694,-2.0619,1923
11,-1.0471,-1.4072,-1.1216,1.3418,0.5426,-1.9491,1999
11,-0.8625,-1.2339,-1.3384,1.3318,0.9997,-2.1907,2061
11,-0.9697,-1.1865,-1.407,1.476,0.8826,-2.404,2115
11,-1.1162,-1.0818,-1.4204,1.5028,0.7142,-2.8068,1986
11,-1.238,-1.0476,-1.2388,1.7199,0.6268,-3.2152,1997
11,-1.2842,-1.1775,-1.2046,1.8309,0.5003,-3.7046,1993
11,-1.3228,-1.2808,-1.2593,1.8434,0.5525,-4.2447,2130
11,-1.2546,-1.1221,-1.2151,2.1153,0.4219,-4.3635,2043
11,-1.1548,-1.106,-1.0623,2.547,0.2296,-4.3635,1851
11,-1.2554,-1.1562,-1.1199,2.7147,0.0812,-4.3635,1934
11,-1.2932,-1.2698,-1.2612,2.8135,0.0835,-4.3635,2153
11,-1.1633,-1.0774,-0.96,3.0845,-0.1043,-4.2205,2050
11,-1.2041,-1.1821,-1.1233,3.0597,-0.0676,-4.2232,1911
11,-1.2578,-0.834,-1.1951,3.0207,0.0651,-4.2409,2022
11,-1.3142,-0.6638,-1.0999,2.9855,0.1133,-3.8709,2132
11,-1.0801,-0.6003,-1.1729,2.6216,0.3493,-3.6924,1990
11,-1.0007,-0.5166,-1.1633,2.3075,0.4044,-3.3447,2119
11,-0.7703,-0.2075,-0.9578,1.9736,0.2935,-2.7203,2012
11,-0.3921,-0.1016,-0.9575,1.3499,0.5404,-2.6334,2084
11,-0.3545,-0.2583,-1.0422,0.9056,0.9198,-2.9783,2099
11,-0.0972,-0.1013,-0.896,0.5544,1.1768,-2.9132,2005
11,0.0486,-0.175,-0.4609,0.5516,1.6314,-2.1628,2043
11,1.9999,0.6682,-0.6208,-0.0754,-1.8868,-3.8313,2271
11,1.9999,0.3679,1.908,4.171,-4.1387,-4.3635,2294
11,-2.0,-0.8835,-2.0,1.4592,0.9855,-4.3635,1624
11,-2.0,-2.0,-0.9114,3.1056,-1.2455,2.0482,2401
11,0.7141,-2.0,-1.0532,2.4633,4.3634,-1.205,2217
11,0.7007,-0.1924,-0.3943,1.9337,2.4886,2.0338,1753
11,1.5078,-1.0608,-0.3193,3.2804,1.8672,1.6736,2057
11,0.8118,-0.3245,-0.1826,3.9606,1.0678,1.9255,2047
11,0.073,0.2688,-0.1675,4.3634,0.8396,2.0057,2039
11,0.0044,0.1536,-0.4385,4.3634,0.8885,1.9441,2124
11,-0.0303,0.1672,-0.3748,4.3634,0.8861,1.8337,2027
11,0.0586,0.188,-0.1941,4.3057,0.7626,1.7246,2024
11,0.3538,-0.0037,0.1711,3.8986,0.6388,1.6615,2039
11,0.4509,0.1936,0.1626,3.8286,0.6034,1.4752,2046
11,0.415,0.2605,0.1816,3.4896,0.7279,1.1207,2023
11,0.1301,0.3623,0.1763,3.3235,0.6926,0.724,2031
11,-0.1426,0.4138,0.1489,2.9047,0.7946,0.6088,2047
11,-0.3157,0.3179,-0.1196,2.4942,0.673,0.5819,2056
11,-0.4412,0.2305,-0.1555,2.0718,0.8887,0.4557,2042
11,-0.5435,0.3118,-0.0542,2.0298,0.9777,0.3103,2051
11,-0.5728,0.3848,0.0132,2.0397,0.9642,0.147,2047
11,-0.6509,0.3142,-0.0796,1.8522,0.86,0.031,2046
12,-0.7065,0.1333,-0.2395,1.6265,0.5967,0.0996,2056
12,-0.8059,0.0063,-0.408,1.5472,0.2759,0.4673,2050
12,-0.8877,-0.1309,-0.4883,1.6291,-0.0384,0.8489,2055
12,-0.9717,-0.3108,-0.4995,1.5841,-0.2832,1.0316,2045
12,-1.126,-0.6462,-0.5278,1.3242,-0.6842,1.3569,2059
12,-1.4097,-1.01,-0.5833,1.0649,-0.6094,1.6234,2072
12,-1.7112,-1.4097,-0.6401,0.717,-0.2627,1.7378,2080
12,-2.0,-1.772,-0.6868,0.082,0.6834,1.8066,2055
12,-2.0,-1.9087,-0.6348,-0.5102,1.9554,1.8406,2027
12,-2.0,-1.9595,-0.5442,-1.1765,3.0775,1.774,2051
12,-1.7898,-1.9812,-0.5151,-1.7881,3.6541,1.8797,2013
12,-1.3513,-1.9875,-0.5999,-2.058,3.7193,1.8716,2044
12,-1.033,-2.0,-0.4641,-2.1675,3.4857,2.0258,2071
12,-0.8218,-2.0,-0.1216,-2.4157,2.7023,2.3696,2036
12,-0.6948,-2.0,0.0728,-2.6586,2.165,2.4986,2037
12,-0.4758,-2.0,0.2378,-2.9244,1.7916,2.4003,2023
12,-0.3982,-2.0,0.4199,-3.325,1.3932,2.0493,2037
12,-0.2725,-2.0,0.45,-3.7813,0.6232,1.6717,2064
12,-0.0974,-2.0,0.3394,-4.0319,0.0244,1.6261,2032
12,-0.0845,-2.0,0.1631,-4.1968,-0.3481,1.7179,2031
12,-0.0981,-2.0,0.0591,-4.1703,-0.738,1.7197,2041
12,-0.1416,-2.0,0.0991,-4.1587,-1.1247,1.7106,2041
12,-0.1892,-2.0,0.0073,-4.1638,-1.3167,1.6868,2037
12,-0.2053,-2.0,-0.092,-4.176,-1.2765,1.701,2045
12,-0.2175,-2.0,-0.0681,-4.1498,-1.1721,1.7919,2069
12,-0.2305,-2.0,-0.0789,-4.2457,-1.0473,1.8744,2045
12,-0.2234,-1.9497,-0.1294,-4.3635,-0.8977,2.0418,2049
12,-0.2356,-1.7668,-0.2729,-4.3635,-0.7767,2.2238,2048
12,-0.1777,-1.6982,-0.3242,-4.3635,-0.6863,2.3133,2080
12,-0.1042,-1.5928,-0.2844,-4.3612,-0.4027,2.3252,2031
12,-0.1226,-1.5176,-0.3564,-4.2437,-0.3063,2.2614,2037
12,-0.0942,-1.4875,-0.4766,-4.0836,-0.1461,1.9895,2032
12,-0.0356,-1.4663,-0.5459,-3.9897,-0.1164,1.6962,2101
12,-0.0063,-1.3804,-0.6794,-3.9151,-0.1108,1.4732,2017
12,-0.0654,-1.2446,-0.8,-3.8688,-0.1059,1.2475,2065
12,-0.1741,-1.165,-0.8794,-3.7783,-0.2441,1.1888,2076
12,-0.3459,-1.1045,-0.9128,-3.7142,-0.2634,1.2575,2031
12,-0.4897,-1.0291,-0.9688,-3.686,-0.141,1.4331,2034
12,-0.571,-0.8853,-0.8679,-3.6605,0.2257,1.6817,1994
12,-0.6467,-0.6558,-0.6838,-3.4479,0.3385,1.9415,2139
12,-0.6521,-0.5447,-0.5684,-3.2746,0.4781,2.0509,2032
12,-0.5505,-0.4875,-0.532,-3.0846,0.6389,1.9921,2050
12,-0.3794,-0.4753,-0.5701,-2.9397,0.8072,1.9064,2015
12,-0.343,-0.363,-0.5444,-2.5581,0.9929,1.6607,2021
12,-0.3098,-0.2146,-0.5369,-2.2166,0.944,1.5141,2016
12,-0.2358,-0.1511,-0.4956,-1.8869,0.8708,1.3633,2064
12,-0.4519,-0.2085,-0.699,-1.4592,0.9393,1.0158,2002
12,-0.3652,-0.1704,-0.5176,-0.8384,0.8391,0.5287,2058
12,-0.3752,-0.218,-0.3145,-0.0037,0.7396,-0.0077,1975
12,-0.3948,-0.2566,-0.5518,0.306,0.8052,-0.432,2065
12,-0.3311,-0.1819,-0.303,0.9973,0.7277,-0.9974,1947
12,-0.4087,-0.1379,-0.397,1.5017,0.6348,-1.2549,2002
12,-0.1968,-0.4075,-0.655,2.0206,0.0696,-1.3248,2084
12,-0.1104,-0.7603,-0.9524,2.4756,-0.3934,-1.6583,2069
12,-0.4006,-1.0281,-0.9575,2.7054,-0.6381,-1.9208,2053
12,-0.6187,-1.1089,-1.0808,2.7594,-0.6401,-2.2097,2049
12,-0.8376,-1.1772,-1.292,2.8321,-0.2402,-2.5914,2096
12,-0.9478,-1.2063,-1.3086,2.9277,0.0292,-2.9781,2044
12,-0.9512,-1.2478,-1.4639,2.8418,0.1985,-3.35,2004
12,-0.9541,-1.2798,-1.5483,2.7526,0.174,-3.6703,2016
12,-1.061,-1.2573,-1.4714,2.7201,-0.0402,-4.0014,1990
12,-1.1699,-1.3672,-1.4675,2.7135,-0.1912,-4.2521,2054
12,-1.2898,-1.3674,-1.6301,2.6163,-0.1547,-4.3635,1900
12,-1.3799,-1.3896,-1.373,2.6321,-0.1673,-4.3463,2062
12,-1.2695,-1.3926,-1.5364,2.498,-0.0133,-4.3635,2034
12,-1.4272,-1.282,-1.2622,2.7635,0.029,-4.3355,1989
12,-1.2512,-1.1333,-1.2764,2.7151,0.1855,-4.3339,2134
12,-1.3833,-0.9587,-1.2285,2.9019,0.4083,-4.1596,2106
12,-1.292,-0.7571,-1.124,3.0429,0.3265,-3.8877,2074
12,-1.3293,-0.541,-0.9871,3.0963,0.1699,-3.9166,1999
12,-1.261,-0.8337,-0.9897,2.5389,0.2679,-3.9827,2048
12,-0.9946,-0.8145,-1.0383,2.1459,0.2563,-3.9282,2105
12,-0.9214,-0.5115,-0.9062,1.9548,0.2317,-3.6612,2062
12,-0.9783,-0.3171,-0.8154,1.7061,0.3806,-3.0494,2130
12,-0.9636,-0.2051,-0.4771,1.8571,0.4522,-2.3589,2030
12,-0.5242,-0.0129,-0.4211,1.2961,0.6553,-1.8066,2128
12,0.7532,0.9521,-0.4692,1.7872,-0.4236,-2.4222,2032
12,1.9999,-0.6936,-1.094,-1.6552,-2.6715,-4.3635,2363
12,1.9999,-0.0242,0.8127,4.3634,-4.3635,-4.3635,1929
12,-2.0,-1.1614,0.2332,2.8014,0.748,-4.3635,1790
12,-1.1477,-2.0,-1.3303,2.8585,1.2228,0.7481,2398
12,1.0745,-2.0,-0.8259,3.1084,4.3634,-1.5165,2027
12,1.9148,-1.397,-0.2556,2.9994,2.8444,0.5833,1940
12,1.9999,-1.7,-0.3994,3.1594,1.8401,0.6956,2002
12,1.1689,-1.373,-0.6057,3.4407,0.4774,1.2617,1926
12,0.4985,-0.5679,-0.658,3.5643,0.9184,1.4769,2047
12,0.3088,0.0554,-0.5994,3.6588,1.6149,1.3451,2055
12,0.4175,0.2876,-0.4131,3.6704,1.8944,1.24,2101
12,0.5566,0.3647,-0.3831,3.5728,1.9407,1.3548,2060
12,0.7922,0.1826,-0.1289,3.4877,1.892,1.3945,2030
12,0.7327,0.2095,-0.0081,3.4338,1.6538,1.1099,2056
12,0.6592,0.302,0.198,3.2885,1.7519,1.1692,2011
12,0.3115,0.4514,0.1541,3.1441,1.7869,1.0086,2033
12,0.0046,0.5173,0.1621,2.9023,1.7542,1.1603,2018
12,-0.4902,0.4448,-0.1296,2.3818,1.729,1.1346,2020
12,-0.564,0.4429,-0.1282,2.0526,1.8158,1.2071,2082
12,-0.6443,0.4724,-0.0745,1.847,1.7237,0.8834,2062
12,-0.6511,0.4294,-0.0981,1.533,1.4571,0.6283,2052
12,-0.6931,0.3311,-0.2175,1.066,1.0047,0.501,2064
12,-0.7439,0.2356,-0.2078,1.0182,0.5857,0.3477,2045
12,-0.866,0.103,-0.2712,1.0395,0.3402,0.2952,2050
12,-1.0266,-0.0496,-0.3042,1.2178,-0.2966,0.492,2048
12,-1.0862,-0.1167,-0.353,1.8329,-1.1962,0.6585,2062
13,-1.3152,-0.5566,-0.3623,2.1722,-1.902,0.9865,2061
13,-2.0,-1.3193,-0.3738,1.9743,-1.3623,1.1897,2073
13,-2.0,-2.0,-0.6484,1.1083,0.3689,1.4075,2110
13,-2.0,-2.0,-0.4148,0.0083,2.2234,1.9985,2072
13,-2.0,-2.0,-0.1667,-1.0106,3.3626,2.145,2016
13,-1.8303,-2.0,-0.1958,-1.9891,4.3634,1.9812,2053
13,-1.1428,-2.0,-0.3521,-2.3856,4.3634,2.077,2031
13,-0.7773,-2.0,-0.4556,-2.4392,4.1395,2.2811,2037
13,-0.5344,-2.0,-0.3984,-2.5294,3.2915,2.6482,2082
13,-0.3711,-2.0,-0.2214,-2.6349,2.151,2.8838,2080
13,-0.4875,-2.0,-0.0532,-3.0391,1.3687,2.8221,2085
13,-0.4785,-2.0,0.0298,-3.3856,0.8614,2.6542,2035
13,-0.2275,-2.0,0.3567,-3.2967,0.8503,2.4188,2036
13,-0.0178,-2.0,0.7148,-3.6222,0.4047,2.1654,2028
13,0.1033,-2.0,0.741,-4.0723,0.0369,1.9185,2046
13,0.436,-2.0,0.8389,-4.0206,-0.7231,1.8335,2022
13,0.2163,-2.0,0.3367,-4.3635,-0.8384,1.7329,2010
13,-0.0303,-2.0,0.0698,-4.3635,-1.1868,1.8402,2074
13,-0.1963,-2.0,-0.0449,-4.3635,-1.5107,1.8947,2032
13,-0.2639,-2.0,-0.238,-4.3635,-1.5837,1.8574,2058
13,-0.3113,-2.0,-0.3848,-4.3635,-1.5058,1.7767,2072
13,-0.3699,-1.8518,-0.4851,-4.3635,-1.3668,1.7169,2055
13,-0.3972,-1.6841,-0.5625,-4.3635,-1.2167,1.6711,2065
13,-0.323,-1.5371,-0.5422,-4.3635,-1.0409,1.6812,2015
13,-0.2512,-1.3347,-0.5691,-4.3635,-0.8155,1.7476,2033
13,-0.166,-1.2314,-0.5767,-4.3635,-0.7352,1.707,2036
13,-0.0845,-1.1931,-0.5935,-4.3635,-0.9172,1.6968,2045
13,-0.0955,-1.127,-0.6282,-4.3635,-1.0628,1.715,2051
13,-0.1821,-1.1082,-0.6096,-4.3635,-1.0979,1.8472,2037
13,-0.2649,-1.0459,-0.6284,-4.3635,-1.0686,2.1047,2049
13,-0.2861,-1.0105,-0.5718,-4.3635,-0.7353,2.334,2021
13,-0.2654,-0.9353,-0.5925,-4.3073,-0.4131,2.3462,2058
13,-0.2605,-0.7812,-0.6843,-4.2719,0.088,2.4304,2080
13,-0.3604,-0.6343,-0.6785,-3.9592,0.4693,2.5955,2056
13,-0.4341,-0.5825,-0.7322,-3.8066,0.8259,2.6378,2062
13,-0.429,-0.5198,-0.7285,-3.6066,1.2216,2.7405,2045
13,-0.3716,-0.406,-0.6414,-3.2441,1.3316,2.7239,2059
13,-0.3257,-0.2612,-0.6028,-3.0405,1.6062,2.5278,2041
13,-0.3403,-0.1379,-0.5659,-2.783,1.44,2.2478,2058
13,-0.3489,-0.3013,-0.5649,-2.3322,1.1567,2.0671,2013
13,-0.4099,-0.2498,-0.5266,-1.6482,0.9447,1.4102,1992
13,-0.481,-0.136,-0.447,-0.9685,0.6636,0.9347,2019
13,-0.616,-0.0679,-0.4497,-0.343,0.554,0.2364,2126
13,-0.509,-0.0601,-0.3582,0.2462,0.5774,-0.6279,2142
13,-0.4036,-0.311,-0.2644,0.9632,0.0558,-1.4775,1991
13,-0.2773,-0.769,-0.533,1.6066,-0.3663,-2.0534,2030
13,-0.1831,-1.156,-0.7349,2.1852,-0.9728,-2.3072,2150
13,-0.3528,-1.1362,-0.7617,2.4914,-1.183,-2.393,2075
13,-0.634,-1.1133,-0.9099,2.641,-1.1403,-2.3997,2058
13,-0.8894,-1.1704,-1.092,2.7474,-0.7188,-2.4398,2083
13,-0.9849,-1.3064,-1.2297,2.7884,-0.4538,-2.4449,1984
13,-1.0051,-1.2964,-1.4197,2.7388,-0.3551,-2.5983,2257
13,-1.1172,-1.2668,-1.4958,2.6504,-0.295,-2.9024,1921
13,-1.2002,-1.3701,-1.5029,2.4915,-0.263,-3.2777,1917
13,-1.2334,-1.3618,-1.5342,2.3642,-0.2964,-3.6026,1894
13,-1.2961,-1.3428,-1.5576,2.319,-0.2832,-3.7881,1891
13,-1.2969,-1.3354,-1.5496,2.3009,-0.3329,-4.072,2106
13,-1.3501,-1.271,-1.6567,2.3057,-0.194,-4.3635,2045
13,-1.2568,-1.1482,-1.4663,2.737,-0.1586,-4.3635,2144
13,-1.2891,-1.0593,-1.3713,3.0095,-0.1774,-4.3635,1955
13,-1.3079,-1.1436,-1.4714,2.9766,0.0912,-4.3635,1974
13,-1.2781,-0.9417,-1.4502,3.0095,0.1365,-4.3635,1966
13,-1.189,-0.7781,-1.2896,3.0823,0.2697,-4.3635,2193
13,-1.1155,-0.6948,-1.2627,2.9999,0.393,-4.0672,2046
13,-1.1331,-0.4165,-1.0837,3.0183,0.3619,-3.6701,2185
13,-1.0264,-0.5056,-1.1453,2.5288,0.5269,-3.4684,2054
13,-0.8042,-0.4983,-1.0015,2.2726,0.455,-3.3682,1973
13,-0.6877,-0.3357,-0.9773,1.857,0.5466,-3.0875,2046
13,-0.5872,-0.2817,-0.8562,1.3636,0.6695,-2.6655,2078
13,-0.7661,-0.3096,-0.6926,1.254,0.7409,-2.177,2049
13,-1.062,-0.1643,-0.3748,0.9251,1.3965,-1.0208,1920
13,0.2158,-0.031,-0.3777,0.5366,1.2944,-0.6171,2028
13,1.9999,0.0471,0.4414,0.7372,-4.3057,-3.0472,2299
13,1.9999,-0.7385,1.9999,4.3634,-4.3635,-4.3635,1938
13,-2.0,-1.7288,-2.0,0.8906,3.4689,-4.3635,1415
13,-0.0298,-2.0,-0.8123,1.7257,-0.0334,0.7548,2410
13,1.7944,-0.4468,-0.5286,1.9663,1.3323,0.8034,1997
13,0.021,-1.616,-0.1592,2.0911,0.0979,1.7398,2104
13,0.6548,-0.4299,0.3567,3.1552,-0.5422,2.3277,2034
13,0.439,-0.063,-0.1655,3.1757,-0.3563,2.4731,1895
13,0.3486,0.1792,0.2241,3.8886,-0.4255,2.323,2024
13,0.4109,0.1755,0.239,4.3634,-0.766,1.6687,1989
13,0.4543,0.011,-0.073,4.3634,-0.701,0.8088,2101
13,0.5559,0.0303,-0.1631,4.0496,-0.5858,0.3334,2101
13,0.5986,-0.0254,-0.0266,3.4083,0.1942,0.2029,2050
13,0.7095,0.2954,0.3975,3.2994,0.7209,0.1055,1997
13,0.7825,0.3816,0.5427,3.3033,0.8387,-0.2649,1972
13,0.4453,0.5518,0.5439,3.3914,1.2882,-0.5436,2032
13,0.0854,0.509,0.1748,3.327,1.125,-0.4569,2034
13,-0.124,0.2507,-0.46,2.6846,1.1448,-0.6237,2071
13,-0.2568,0.3201,-0.3574,2.3111,1.6293,-0.8142,1991
13,-0.864,0.4336,-0.1531,2.1618,1.5403,-0.7219,2035
13,-0.9749,0.4639,-0.2986,2.079,1.4845,-0.6578,2063
13,-0.603,0.4753,-0.6362,1.8663,1.0287,-0.4081,2075
13,-0.2412,0.2668,-0.5005,1.6905,0.0796,0.0144,2097
13,-0.5605,-0.189,-0.2788,1.9976,-0.3972,-0.1432,2059
13,-1.1638,-0.3052,-0.6277,1.5215,-0.7447,0.224,2039
13,-1.6145,-0.5317,-1.0105,0.6967,-0.6344,0.7328,2061
13,-1.895,-0.8062,-1.1309,0.6644,-0.3537,1.0275,2074
13,-2.0,-1.4688,-1.0293,0.7146,0.601,0.9068,2056
14,-2.0,-2.0,-0.6799,0.1318,1.3487,0.6211,2059
14,-2.0,-2.0,-0.304,-1.171,2.2506,0.642,2045
14,-1.7266,-2.0,-0.1865,-2.2473,3.4797,1.5789,2051
14,-1.1113,-2.0,-0.1709,-2.6195,3.8097,2.1535,2005
14,-0.7991,-2.0,-0.2517,-3.0498,3.2521,1.9915,2040
14,-0.6289,-2.0,-0.4341,-3.2146,2.5665,1.8709,2066
14,-0.6052,-2.0,-0.4695,-2.9648,1.9987,2.1494,2053
14,-0.5728,-2.0,-0.3545,-3.1863,1.7065,2.4093,2097
14,-0.5376,-2.0,-0.3257,-3.5845,1.3523,2.547,2049
14,-0.4983,-2.0,-0.2307,-3.7649,0.9375,2.3799,2041
14,-0.509,-2.0,-0.0635,-4.0972,0.6437,2.3776,2010
14,-0.4541,-2.0,0.0149,-4.3635,0.3152,2.516,1971
14,-0.3215,-1.9548,0.1704,-4.0124,0.1266,2.4033,2018
14,-0.1208,-2.0,0.4749,-3.5424,-0.2884,2.3742,2057
14,0.0696,-1.9478,-0.009,-4.0684,-1.095,2.5458,2038
14,0.1472,-2.0,-0.1382,-4.3635,-1.6801,2.8584,2044
14,-0.7422,-2.0,-0.6367,-4.3635,-1.3805,2.4637,2035
14,-0.8391,-2.0,-0.5498,-4.3635,-1.1556,2.4958,2021
14,-0.7246,-2.0,-0.4636,-4.3635,-0.5517,2.491,2029
14,-0.4558,-1.8591,-0.5713,-4.3635,-0.275,2.601,2027
14,-0.2883,-1.6633,-0.5137,-4.3635,-0.1976,2.6513,2044
14,-0.1748,-1.4641,-0.5496,-4.1823,-0.3757,2.8315,2030
14,-0.1394,-1.3589,-0.7158,-4.1785,-0.2811,2.8506,2061
14,-0.2783,-1.2373,-0.5503,-3.6366,-0.4472,2.7938,2024
14,-0.2834,-1.1995,-0.4312,-3.4577,-0.5105,2.7352,2042
14,-0.2974,-1.1902,-0.4946,-3.4324,-0.304,2.5625,2033
14,-0.2666,-1.1272,-0.5269,-3.3082,-0.2041,2.3226,2039
14,-0.085,-0.9258,-0.4998,-3.1489,-0.4115,2.1317,2034
14,-0.3621,-0.9258,-0.5129,-3.1803,-0.3807,1.7725,2052
14,-0.2822,-1.0247,-0.5444,-2.9522,-0.346,1.6859,2072
14,-0.4365,-1.0002,-0.5061,-2.8617,-0.1983,1.4179,2050
14,-0.4385,-0.9116,-0.4834,-2.883,-0.291,1.4322,2035
14,-0.3623,-0.8455,-0.5044,-2.7858,-0.0664,1.3941,2041
14,-0.4116,-0.7703,-0.5457,-2.6382,0.2606,1.2082,2085
14,-0.4185,-0.8066,-0.6392,-2.4682,0.3127,0.9857,2067
14,-0.3215,-0.8093,-0.769,-2.2213,0.486,0.7469,2024
14,-0.2764,-0.7451,-0.7939,-1.88,0.5116,0.5942,2020
14,-0.3149,-0.6331,-0.7373,-1.5004,0.4326,0.5488,2035
14,-0.3755,-0.5295,-0.7097,-1.0817,0.4671,0.6126,1995
14,-0.4111,-0.5183,-0.7117,-0.9138,0.6893,0.6898,2049
14,-0.4768,-0.4863,-0.7102,-0.5145,0.6952,0.4657,2060
14,-0.4856,-0.4873,-0.6943,-0.2546,0.6225,0.2169,2112
14,-0.4177,-0.4741,-0.656,-0.138,0.7006,-0.0903,2024
14,-0.4131,-0.4707,-0.8354,0.0405,0.4895,-0.4541,2051
14,-0.4026,-0.4724,-0.8162,0.2529,0.1751,-0.5418,2050
14,-0.5442,-0.3728,-0.7876,0.6557,0.0902,-0.5554,2017
14,-0.6011,-0.4309,-0.7278,0.9214,-0.0629,-0.591,2050
14,-0.6533,-0.5906,-0.9407,1.0949,0.0778,-0.7606,2105
14,-0.7058,-0.709,-1.0701,1.4868,0.077,-1.1238,2109
14,-0.7886,-0.8467,-1.1716,1.9188,0.2978,-1.3564,1966
14,-0.8477,-1.0264,-1.2375,1.9217,0.2452,-1.5197,2042
14,-0.9375,-1.0151,-1.1543,2.0594,0.3088,-1.8012,2068
14,-1.0044,-0.8411,-1.1909,1.8702,0.2132,-2.1608,2008
14,-1.0842,-0.928,-1.2666,2.0435,0.1092,-2.4394,1997
14,-1.0994,-0.7197,-1.1721,2.0078,-0.1716,-2.8309,2025
14,-1.2234,-0.8408,-1.1482,2.1802,-0.0518,-3.2452,2212
14,-1.2434,-0.9578,-1.1038,2.4373,-0.2577,-3.7547,2092
14,-1.2239,-1.0342,-1.1614,2.8156,-0.1866,-4.1624,2024
14,-1.2449,-0.9651,-1.281,2.9927,-0.3039,-4.3635,2078
14,-1.1797,-0.9216,-1.2925,3.2184,-0.1947,-4.3635,2115
14,-0.9343,-1.0278,-1.2424,3.4298,-0.3021,-4.3635,2126
14,-1.0481,-1.0767,-1.3,3.5826,-0.1663,-4.3635,1926
14,-1.1101,-1.0723,-1.3479,3.6067,-0.0401,-4.3635,2090
14,-1.0591,-1.041,-1.3479,3.5246,-0.0296,-4.3635,2084
14,-1.146,-0.917,-1.3171,3.4935,0.0045,-4.3635,2100
14,-1.0798,-0.8198,-1.3494,3.3031,0.1384,-4.3635,1962
14,-0.9939,-0.9202,-1.4658,3.0982,0.4239,-4.2194,1892
14,-0.9802,-0.7039,-1.2637,2.9083,0.6112,-3.7135,1997
14,-0.7251,-0.4792,-0.9033,2.6552,0.5015,-3.4553,2092
14,-0.7727,-0.7231,-1.0554,2.4115,0.7257,-3.6367,2007
14,-0.7229,-0.5039,-0.8362,2.3446,0.9798,-3.5768,1994
14,-0.4929,-0.2825,-0.4956,2.3402,1.0238,-3.4631,1883
14,-1.2317,-0.2312,-0.448,2.3373,1.3595,-2.4366,2384
14,-0.3342,-0.2,0.2817,2.1939,0.9207,-1.4379,1768
14,1.179,1.1379,-0.4648,2.7116,0.8468,-2.6296,2136
14,1.9999,0.0444,1.2527,3.0658,-2.2197,-4.3635,2836
14,-1.8494,0.2473,-2.0,1.2912,2.0915,-4.3635,1375
14,-1.9048,-2.0,1.0981,4.3634,-1.7275,-0.4765,2065
14,1.4187,-2.0,-0.8057,3.4283,3.0929,-0.306,2351
14,-0.0876,-1.9114,0.665,3.6523,-0.2322,0.8833,1837
14,1.0039,-1.3386,0.4304,3.3634,-0.1712,0.3753,2113
14,0.7136,-1.0486,0.0403,3.3778,-0.1305,0.2795,2013
14,0.4749,-0.5435,-0.0095,3.4469,0.2356,0.5578,1978
14,0.688,-0.1716,-0.05,3.4874,0.0417,0.5759,2015
14,0.7917,0.0164,-0.2791,3.0975,0.0846,0.6826,1988
14,0.5989,0.2332,-0.3398,2.9213,-0.0125,0.6441,2039
14,0.5564,0.374,-0.321,2.9578,0.0486,0.7963,2065
14,0.6584,0.4045,-0.1897,3.0291,0.3673,0.9859,2072
14,0.7229,0.354,-0.061,3.2007,0.5474,0.923,2047
14,0.5747,0.385,-0.0586,3.2543,0.71,0.863,2041
14,0.3032,0.4175,-0.0623,3.0589,0.8795,0.5287,2029
14,-0.1021,0.2986,-0.2129,2.6502,0.8296,0.4779,2056
14,-0.2949,0.1409,-0.1912,2.1553,1.0372,0.3867,2070
14,-0.3274,0.1824,-0.0735,1.9117,1.0967,0.3333,2056
14,-0.4429,0.228,-0.0566,1.7182,0.9048,0.2013,2040
14,-0.6255,0.1091,-0.2073,1.3082,0.5227,0.2422,2054
14,-0.6626,-0.1851,-0.3801,1.0076,-0.1257,0.3703,2058
14,-0.7527,-0.5142,-0.4661,0.8032,-0.4887,0.3939,2062
14,-0.9204,-0.752,-0.4551,0.6853,-0.8429,0.5906,2059
14,-1.2202,-1.116,-0.4919,0.4181,-1.107,0.7899,2067
14,-1.5952,-1.5979,-0.5044,-0.018,-0.9843,0.98,2063
14,-1.9771,-1.9268,-0.4468,-0.6191,0.0302,0.9276,2058
14,-2.0,-1.9646,-0.3618,-1.5326,1.3402,1.4672,2048
15,-1.9397,-1.8091,-0.3438,-2.0499,1.7076,1.8267,2041
15,-1.3472,-1.8169,-0.302,-2.2748,1.959,2.1192,2070
15,-0.8997,-1.9954,-0.2622,-2.3543,2.2517,2.6023,2050
15,-0.991,-2.0,-0.2166,-2.6634,2.6032,2.8035,2032
15,-1.0928,-2.0,-0.3418,-2.9111,2.5005,2.9407,2010
15,-1.1394,-2.0,-0.4641,-3.112,2.4085,3.1798,2064
15,-1.0864,-2.0,-0.5833,-3.3676,2.4151,3.3247,2034
15,-0.9333,-2.0,-0.7097,-3.7555,2.6835,3.3489,2132
15,-0.811,-2.0,-0.5588,-3.7511,2.8743,3.0417,1984
15,-0.281,-1.9238,-0.1135,-3.3923,1.9646,3.0277,2070
15,-0.2288,-1.6611,0.5034,-2.8943,0.4645,2.8272,2138
15,-0.3093,-1.6545,0.3225,-2.8606,0.1237,2.3718,2080
15,-0.3813,-1.821,0.0825,-2.7187,0.0894,2.2134,2036
15,-0.2422,-2.0,-0.1399,-3.2038,-0.0531,2.292,2066
15,-0.2583,-2.0,-0.3411,-3.486,-0.4603,2.4212,2068
15,-0.4226,-2.0,-0.2742,-3.8242,-0.828,2.4501,2080
15,-0.3335,-2.0,-0.1528,-4.004,-0.6389,2.3285,2025
15,-0.2139,-2.0,-0.0774,-4.2477,-0.3235,2.0961,2050
15,-0.1692,-2.0,-0.2424,-4.3635,-0.2578,1.9987,2045
15,-0.1155,-2.0,-0.4722,-4.3635,-0.4529,1.9394,2059
15,-0.1047,-1.9092,-0.5588,-4.3635,-0.6951,1.9208,2041
15,-0.1357,-1.7771,-0.5728,-4.2871,-0.9224,1.9518,2037
15,-0.1965,-1.6387,-0.5898,-4.1306,-0.9997,1.9647,2020
15,-0.2214,-1.5132,-0.6174,-4.0334,-0.8982,1.9682,2053
15,-0.3105,-1.4011,-0.6562,-3.942,-0.7019,1.9089,2038
15,-0.3716,-1.322,-0.6741,-3.9274,-0.5349,1.8725,2046
15,-0.3455,-1.2263,-0.6763,-3.8748,-0.4988,1.8073,2052
15,-0.3025,-1.0981,-0.6458,-3.8026,-0.5228,1.8018,2042
15,-0.3184,-1.0344,-0.6467,-3.8012,-0.5779,1.8157,2012
15,-0.3145,-0.979,-0.6326,-3.7573,-0.6775,1.8647,2105
15,-0.3132,-0.9302,-0.6433,-3.6794,-0.5251,1.9707,2030
15,-0.3521,-0.8342,-0.6687,-3.6412,-0.2517,2.125,2038
15,-0.4316,-0.6858,-0.635,-3.6724,0.2723,2.2816,2057
15,-0.4807,-0.6047,-0.6592,-3.676,0.5817,2.3024,2076
15,-0.3899,-0.4648,-0.6482,-3.5635,0.9103,2.336,2057
15,-0.3367,-0.2021,-0.5803,-3.4364,1.2222,2.2937,2084
15,-0.3198,-0.1035,-0.5383,-3.0071,1.3937,2.0568,2044
15,-0.196,-0.033,-0.4312,-2.7324,1.4214,1.9313,2030
15,-0.2141,-0.0979,-0.5815,-2.12,1.4238,1.3925,1972
15,-0.1475,0.051,-0.5471,-1.445,0.9962,1.0204,2012
15,-0.0308,-0.1406,-0.3943,-0.0766,-0.1226,0.5388,2077
15,0.0251,-0.199,-0.0928,0.4159,-0.5224,-0.1172,2048
15,-0.3516,-0.1724,-0.5273,0.4269,0.3113,-0.493,1997
15,-0.6101,-0.1252,-0.4338,1.2109,0.5637,-0.9282,2060
15,-0.6023,-0.3816,-0.1223,2.1707,0.2365,-1.5049,1914
15,-0.355,-0.7703,-0.364,2.6422,0.1521,-1.7715,2018
15,-0.1973,-0.8965,-0.71,2.8348,0.1226,-1.9046,2034
15,-0.1626,-1.1377,-0.9644,2.9466,-0.8107,-2.0628,1980
15,-0.395,-1.2168,-1.2341,2.7525,-1.3912,-2.3016,1952
15,-0.6833,-1.2295,-1.0132,2.9164,-1.7187,-2.6931,1943
15,-1.353,-1.1921,-1.0984,2.655,-0.7249,-3.3296,2133
15,-1.6667,-1.7717,-1.3918,2.4915,0.1671,-2.7389,2118
15,-1.1704,-1.6045,-1.4426,2.3439,0.1784,-3.0831,2051
15,-1.1084,-1.5137,-1.3386,2.1995,-0.1666,-3.3593,2054
15,-1.2092,-1.5681,-1.4836,2.1486,-0.4638,-3.5877,2137
15,-1.446,-1.4731,-1.5535,2.261,-0.5838,-3.8091,2084
15,-1.4902,-1.3623,-1.4849,2.4627,-0.7427,-4.0486,1904
15,-1.4961,-1.1665,-1.397,2.7765,-0.755,-4.3635,2106
15,-1.5601,-1.2344,-1.2217,3.0244,-0.7854,-4.3635,2147
15,-1.4424,-1.2078,-1.1992,3.3119,-0.7455,-4.3635,2074
15,-1.4434,-0.9941,-1.2742,3.324,-0.5044,-4.3635,2218
15,-1.377,-0.9907,-1.1709,3.4529,-0.4328,-4.1635,1939
15,-1.2424,-0.998,-1.2815,3.2802,-0.3823,-3.7043,2044
15,-1.2812,-0.9382,-1.2734,3.0865,-0.4169,-3.2258,2130
15,-1.2273,-0.6475,-1.075,3.0951,-0.4516,-2.8889,2060
15,-1.1975,-0.5879,-1.0747,2.6999,-0.3618,-2.5048,2097
15,-0.9526,-0.6802,-1.1602,2.1109,-0.0348,-2.4128,2074
15,-0.542,-0.5833,-0.9927,1.5343,-0.5203,-2.5999,2026
15,-0.959,-0.0957,-0.8315,0.9765,0.7817,-2.8837,2028
15,-0.5464,-0.2039,-0.4966,0.4311,1.0576,-1.8815,2020
15,0.6138,0.0767,-0.1741,0.4516,0.9742,-2.7589,2117
15,0.1086,-0.0303,-0.425,0.549,1.6238,-3.5206,1956
15,1.9999,1.0322,0.1238,2.9504,-2.0005,-3.8383,2245
15,1.9999,-1.4365,-0.2637,-0.1394,-3.9938,-4.3635,2289
15,1.8145,-1.2219,-1.168,2.2421,-1.3093,-4.3635,1865
15,-2.0,-1.9272,0.2012,3.1668,1.1267,-4.3635,1905
15,-1.5459,-2.0,0.667,3.018,4.3634,-2.6629,2134
15,0.5437,-0.938,0.3796,3.5901,4.3634,0.0321,2042
15,1.5452,-0.9014,0.4504,4.0512,3.0654,1.2095,2019
15,1.3403,-1.064,0.0095,3.9013,1.5974,1.4881,2060
15,0.5669,-0.833,-0.1794,3.9889,0.2111,1.6203,2002
15,-0.1165,-0.3984,-0.3228,4.1543,0.355,1.2147,1984
15,-0.2932,0.2158,-0.0745,4.3634,1.0328,0.5265,2013
15,-0.3999,0.45,-0.2207,4.3634,1.6759,0.2641,2025
15,-0.2285,0.1865,-0.4856,4.0608,2.3792,0.1629,2083
15,0.0034,-0.0066,-0.325,3.7736,2.4673,0.0939,2067
15,0.0305,-0.0359,-0.3259,3.0119,2.2814,0.3927,2033
15,-0.0569,0.054,-0.1069,2.4405,2.057,0.4691,2059
15,-0.1609,0.1987,0.0681,1.874,1.8273,0.4634,2048
15,-0.3091,0.3071,0.1282,1.5295,1.3591,0.4703,2043
15,-0.4426,0.3936,0.105,1.2553,0.6741,0.3666,2036
15,-0.4841,0.3855,0.042,0.8989,-0.0482,0.5938,2044
15,-0.5708,0.291,-0.1414,0.7545,-0.6641,0.6661,2057
15,-0.7061,0.0171,-0.2761,0.5347,-1.1628,0.8771,2056
15,-0.969,-0.2871,-0.3989,0.4444,-1.4363,1.2218,2057
15,-1.2703,-0.6628,-0.3589,0.3928,-1.38,1.4042,2061
15,-1.5173,-1.2229,-0.332,0.1119,-1.1966,1.5668,2060
15,-2.0,-1.5205,-0.3855,-0.2159,-0.3549,1.4479,2050
15,-2.0,-1.6614,-0.3345,-0.8705,0.6617,1.5857,2050
15,-1.8289,-1.6597,-0.312,-1.452,1.3957,1.9638,2043
15,-1.4307,-1.6702,-0.4158,-1.9911,1.9302,2.4037,2053
15,-1.1194,-1.6895,-0.541,-2.2932,2.1399,2.696,2039
15,-1.116,-1.9397,-0.4194,-2.2949,2.3434,2.9674,2030
15,-1.2834,-2.0,-0.345,-2.5352,2.0738,3.2239,2052
15,-1.1501,-2.0,-0.4841,-2.9775,1.9655,3.6507,2069
16,-0.8879,-2.0,-0.4741,-3.216,2.2385,3.8768,2030
16,-0.8281,-2.0,-0.3911,-3.6158,2.551,3.7519,2048
16,-0.7747,-2.0,-0.3879,-3.8652,2.2027,3.5814,2032
16,-0.4443,-2.0,-0.4209,-4.137,1.4976,3.5917,2048
16,-0.0872,-2.0,-0.4536,-4.3409,0.4397,3.5208,2048
16,-0.1201,-1.9556,-0.3892,-4.3635,-0.6553,3.6635,2045
16,-0.4578,-1.9087,-0.4907,-4.256,-1.4495,3.5805,2032
16,-0.709,-2.0,-0.6213,-4.3635,-1.5045,3.4491,2071
16,-0.7898,-1.9888,-0.7251,-4.2367,-0.9308,3.2891,2046
16,-0.6133,-1.9929,-0.4897,-3.9049,-0.3571,2.9004,2053
16,-0.4114,-1.9958,0.0002,-3.3379,-0.0269,2.3369,2053
16,-0.1384,-2.0,0.031,-3.4074,0.0928,1.7197,2045
16,0.1548,-2.0,-0.1082,-3.4452,0.1896,1.3158,2060
16,0.2212,-1.8535,-0.1167,-3.1774,-0.4261,1.1366,2026
16,0.0823,-1.6265,-0.3977,-3.2957,-0.9923,1.3149,2028
16,-0.1313,-1.4524,-0.7822,-3.4175,-1.4175,1.497,2046
16,-0.3647,-1.3955,-0.7014,-3.1533,-1.5785,1.7676,2056
16,-0.4263,-1.3577,-0.5732,-2.9284,-1.3404,1.9535,2082
16,-0.4329,-1.2683,-0.501,-2.7556,-0.8401,1.9891,2036
16,-0.3665,-1.176,-0.5591,-2.6329,-0.3562,2.0113,2022
16,-0.3076,-1.0823,-0.6541,-2.4013,-0.0316,2.0152,2080
16,-0.2605,-0.9958,-0.6868,-2.1296,0.0489,2.0272,2022
16,-0.2595,-0.928,-0.6826,-1.8941,-0.0316,2.0164,2032
16,-0.293,-0.915,-0.7422,-1.869,-0.0678,2.0204,2050
16,-0.3516,-0.9424,-0.8054,-1.841,-0.132,1.9817,2049
16,-0.3816,-0.9319,-0.8577,-1.7375,-0.3444,1.9161,2040
16,-0.5229,-0.8818,-0.8062,-1.6905,-0.4549,1.8124,2026
16,-0.5042,-0.7954,-0.7295,-1.498,-0.4617,1.9508,2052
16,-0.7458,-0.6846,-0.6816,-1.6273,-0.0788,1.7695,2044
16,-0.7471,-0.5913,-0.6467,-1.8201,0.0218,1.9772,2066
16,-0.6206,-0.5576,-0.6162,-1.8005,0.4059,1.851,2121
16,-0.5149,-0.4287,-0.5615,-1.9177,0.5514,1.6327,2036
16,-0.3748,-0.3582,-0.5867,-1.8112,0.6441,1.3954,2051
16,-0.1899,-0.4119,-0.6118,-1.7397,0.7898,0.9491,2043
16,-0.2051,-0.4355,-0.6392,-1.5359,0.697,0.4771,2018
16,-0.2522,-0.4116,-0.5911,-1.2531,0.622,0.2234,2102
16,-0.2551,-0.3943,-0.6414,-1.0146,0.7066,0.0344,2026
16,-0.292,-0.3943,-0.604,-0.6429,0.7894,-0.1673,2004
16,-0.1897,-0.334,-0.3892,-0.0238,0.6765,-0.4176,2060
16,-0.1526,-0.3677,-0.5383,0.0001,1.1134,-0.6593,2103
16,-0.2622,-0.363,-0.5642,0.406,1.0268,-0.9776,2054
16,-0.2869,-0.4685,-0.6584,0.6952,0.9641,-1.1219,2114
16,-0.3188,-0.5569,-0.6497,1.0754,0.6584,-1.2236,2007
16,-0.4546,-0.6431,-0.6436,1.4106,0.5877,-1.5704,2014
16,-0.7402,-0.7244,-0.6855,1.7262,0.4409,-1.8719,2021
16,-0.9287,-0.9316,-0.7747,1.7803,0.6312,-2.1266,2039
16,-1.0896,-1.0481,-0.8723,1.8403,0.8108,-2.3221,2093
16,-1.2234,-1.0061,-1.021,1.6311,0.8999,-2.5033,2114
16,-1.2729,-1.2856,-1.1387,1.6582,0.7261,-2.6573,2059
16,-1.1846,-1.624,-1.0776,1.5447,0.4983,-3.2738,2140
16,-1.2144,-1.9092,-1.2393,1.4653,0.6775,-3.6772,2112
16,-1.2764,-1.8872,-1.3921,1.6435,0.6082,-3.7998,2054
16,-1.21,-1.5234,-1.2593,1.9833,0.6783,-3.764,2015
16,-1.218,-1.3167,-1.3701,2.3495,0.6874,-3.6834,2164
16,-1.1626,-1.3425,-1.311,2.6749,0.622,-3.6154,1985
16,-1.2004,-1.3503,-1.2937,2.9508,0.559,-3.6528,2043
16,-1.0803,-1.3538,-1.2561,3.1662,0.2666,-3.7732,1954
16,-1.0325,-1.2432,-1.1958,3.3151,0.0308,-4.0077,2085
16,-1.0247,-1.0818,-1.1833,3.4394,-0.1053,-4.1347,1983
16,-1.0708,-0.9946,-1.3037,3.471,-0.0377,-4.2072,2016
16,-1.1301,-0.8694,-1.2424,3.5572,0.0567,-4.1929,2119
16,-1.2605,-0.7927,-1.198,3.5395,0.0911,-3.906,1988
16,-1.2349,-0.7341,-1.072,3.1943,0.2461,-3.4682,1938
16,-1.0127,-0.7795,-1.2532,2.5404,0.5588,-3.6858,2017
16,-1.1541,-0.7737,-1.282,2.0861,0.8196,-3.6828,2002
16,-1.2158,-0.7102,-1.1055,1.4723,1.234,-3.427,2029
16,-0.8318,-0.3223,-0.3569,1.3716,1.7355,-2.5811,2078
16,0.4729,0.2231,-0.3826,1.1832,1.5283,-3.1131,2106
16,1.0967,0.0168,-0.729,1.4933,1.4183,-3.5748,2045
16,1.9999,-1.158,-1.4072,-0.7622,-1.7404,-4.3635,2325
16,1.9999,-0.3342,0.6072,3.7557,-4.3635,-4.3635,2064
16,-2.0,-1.1375,-1.3774,1.0688,1.2639,-4.3635,1791
16,-2.0,-2.0,0.5112,4.3634,-0.821,2.6561,2327
16,1.4526,-2.0,-0.0703,3.4041,4.3634,1.2359,2150
16,1.1223,-0.6057,-0.0842,3.2223,2.0586,1.6998,1849
16,1.0369,-1.0049,-0.0242,3.7912,0.8736,1.9563,2032
16,0.6816,-0.4187,-0.0215,4.1168,0.1063,1.6025,2046
16,-0.1506,0.0901,-0.5403,4.0763,0.7143,1.279,2015
16,-0.1626,0.3743,-0.4348,4.0026,0.7654,1.0459,2026
16,0.2715,0.4604,-0.2542,3.7338,0.8399,0.8556,2020
16,0.4856,0.2761,-0.1218,3.4139,0.5252,0.7645,2029
16,0.6108,0.0581,-0.0881,3.0733,0.1699,0.8674,2045
16,0.6265,-0.0139,0.0127,2.8787,-0.0164,0.7706,2053
16,0.4187,0.074,0.1055,2.7317,0.208,0.5397,2054
16,0.2476,0.1375,0.2258,2.6088,0.1389,0.5445,2007
16,-0.0901,-0.0232,-0.1228,1.9506,0.2559,0.6259,2050
16,-0.2544,-0.0325,-0.0859,1.7956,0.5209,0.5253,2077
16,-0.2668,0.0503,-0.0378,1.8018,0.7419,0.4318,2059
16,-0.2625,0.0146,-0.1021,1.692,0.6473,0.3718,2044
16,-0.1997,-0.0608,-0.1465,1.5929,0.5308,0.3271,2044
16,-0.3911,-0.1116,-0.1821,1.6657,0.4759,0.3404,2043
16,-0.6929,-0.146,-0.2043,1.8884,0.395,0.4211,2048
16,-0.9424,-0.2383,-0.2068,2.1294,-0.0298,0.5653,2051
16,-1.0872,-0.3572,-0.2319,2.1176,-0.6139,0.6502,2053
16,-1.1418,-0.5432,-0.3796,2.0096,-0.9915,0.9147,2056
16,-1.6006,-1.0552,-0.6262,1.8446,-0.7919,1.0384,2063
16,-2.0,-1.6428,-0.7559,1.3828,0.0345,0.9428,2069
16,-2.0,-1.9338,-0.6157,0.6735,1.5059,0.764,2059
16,-2.0,-1.9641,-0.3782,-0.3389,2.9034,1.1682,2063
16,-2.0,-1.8293,-0.1638,-1.2063,3.992,2.0001,2059
17,-1.3799,-1.6763,-0.0349,-1.8186,4.3634,2.058,2033
17,-0.9883,-1.7322,-0.1799,-1.9885,4.3634,2.2092,1999
17,-0.9275,-1.7998,-0.3994,-2.0089,4.2367,2.2471,2063
17,-0.9343,-1.9031,-0.6152,-2.0022,3.6083,2.1566,2006
17,-0.7649,-2.0,-0.7119,-2.1137,2.959,1.7165,2082
17,-0.2329,-2.0,-0.4019,-2.0808,1.8274,1.6905,2064
17,0.0981,-2.0,0.3574,-2.7091,1.1014,1.9053,2051
17,-0.0994,-2.0,0.481,-3.672,0.691,2.0843,2068
17,-0.2371,-2.0,0.417,-4.2242,0.1562,2.4815,2032
17,-0.199,-2.0,0.3171,-4.2164,-0.0755,2.5041,2043
17,-0.0459,-1.9165,0.4036,-4.1293,0.0768,2.3525,2047
17,0.0752,-2.0,0.592,-3.8222,-0.2468,2.1627,2045
17,0.147,-2.0,0.4563,-4.0434,-0.6878,2.0321,2034
17,0.2803,-2.0,0.2898,-4.2793,-0.9999,1.9837,2035
17,0.0837,-2.0,-0.1523,-4.3635,-0.7633,2.0009,2037
17,-0.1951,-2.0,-0.2202,-4.3635,-0.8898,2.106,2048
17,-0.2546,-1.9927,-0.2166,-4.3635,-1.1617,2.2089,2049
17,-0.2278,-1.8562,-0.3159,-4.3635,-0.9657,2.2618,2062
17,-0.1677,-1.7002,-0.4485,-4.3635,-0.7296,2.1905,2047
17,-0.1243,-1.6113,-0.5054,-4.3635,-0.694,2.0977,2109
17,-0.1851,-1.4114,-0.5854,-4.3635,-0.7224,1.9791,2023
17,-0.1387,-1.2634,-0.6118,-4.1542,-0.9316,1.9124,2050
17,-0.1479,-1.1799,-0.6438,-3.9805,-0.9521,1.8218,2047
17,-0.2649,-1.1213,-0.6855,-3.8418,-0.8582,1.821,2037
17,-0.3386,-1.0168,-0.7402,-3.6351,-0.7403,1.8844,2049
17,-0.3962,-0.9763,-0.6589,-3.4651,-0.6794,1.9096,2009
17,-0.3696,-0.9355,-0.6809,-3.4475,-0.4501,1.9279,2040
17,-0.3335,-0.9363,-0.6775,-3.468,-0.1936,1.858,2025
17,-0.3433,-0.9094,-0.6138,-3.4137,-0.129,1.8522,2046
17,-0.3398,-0.864,-0.615,-3.4334,-0.0593,1.9234,2010
17,-0.3755,-0.8015,-0.6318,-3.4537,0.2469,1.9948,2026
17,-0.376,-0.6516,-0.677,-3.5619,0.3228,2.0261,2031
17,-0.4053,-0.4741,-0.7102,-3.4967,0.3272,2.0311,2038
17,-0.439,-0.2866,-0.676,-3.2744,0.4726,2.0118,2061
17,-0.4863,-0.1692,-0.5935,-3.121,0.8235,1.962,2027
17,-0.5566,-0.1333,-0.5579,-2.8316,1.2717,1.7616,2032
17,-0.5454,-0.2344,-0.5835,-2.7582,1.5432,1.5058,2058
17,-0.2339,-0.2317,-0.5857,-2.122,1.3262,0.9463,2058
17,-0.0669,-0.2368,-0.5403,-1.6355,0.9379,0.1858,2119
17,-0.1333,-0.3352,-0.6274,-1.1974,0.7159,-0.3372,2071
17,-0.2275,-0.3347,-0.603,-0.5785,0.418,-0.7568,2069
17,-0.3931,-0.0798,-0.3091,0.0959,0.3855,-1.2977,2069
17,-0.5051,-0.1748,-0.3787,0.6498,0.4036,-1.4716,1942
17,-0.3374,-0.6765,-0.5173,1.3765,0.2089,-1.6115,2068
17,-0.2024,-1.0989,-0.769,1.975,0.0605,-1.8951,2072
17,-0.3264,-1.3621,-0.8164,2.2125,-0.0571,-2.0682,2176
17,-0.6116,-1.1675,-0.7312,2.5306,-0.2032,-2.2909,2111
17,-0.8286,-1.2778,-1.0942,2.5117,0.1161,-2.2891,2043
17,-0.9087,-1.3328,-1.2397,2.614,0.1661,-2.4408,2067
17,-0.9014,-1.3123,-1.3911,2.7658,0.1373,-2.6256,2068
17,-1.0999,-1.4365,-1.5798,2.8345,0.1091,-2.9092,2004
17,-1.2949,-1.6077,-1.6409,2.86,-0.0165,-3.3485,2029
17,-1.375,-1.5874,-1.634,2.8806,-0.0674,-3.7677,2184
17,-1.4436,-1.4744,-1.5591,2.787,-0.0953,-4.1923,2035
17,-1.4688,-1.2991,-1.5083,2.6641,-0.2012,-4.3635,2013
17,-1.5034,-1.2664,-1.6006,2.55,-0.2357,-4.3635,1998
17,-1.4714,-1.2395,-1.3958,2.5879,-0.1188,-4.3635,1993
17,-1.3726,-1.031,-1.4722,2.6662,-0.1678,-4.3635,2065
17,-1.3591,-0.9966,-1.2051,3.0857,-0.0649,-4.1903,2050
17,-1.1902,-0.8489,-1.2532,2.9656,-0.089,-4.1251,2086
17,-1.2102,-0.8025,-1.2249,2.9992,-0.0876,-4.1172,1836
17,-1.0073,-0.5999,-1.1731,2.8044,-0.2968,-3.9769,1949
17,-1.0737,-0.4915,-1.1431,2.7153,-0.2539,-3.7944,2057
17,-0.9409,-0.4761,-1.0283,2.4192,-0.2193,-3.389,2034
17,-0.9561,-0.2405,-1.0679,2.2051,0.1573,-3.034,1925
17,-0.6277,-0.1108,-0.7878,1.9161,0.2453,-3.0078,2069
17,-0.2695,-0.47,-0.8413,1.7671,0.2903,-3.0319,2056
17,-0.4893,-0.686,-0.9412,1.118,0.5617,-2.8739,2077
17,0.094,0.0522,-0.02,1.4781,0.8184,-2.3378,2022
17,-0.0398,-0.2219,-0.313,1.2087,1.1524,-2.6567,2050
17,1.9999,0.9021,0.2505,1.9132,-0.9893,-2.9478,2182
17,1.9999,0.4226,1.9999,4.3634,-4.3635,-4.3635,2171
17,-2.0,-0.791,-2.0,0.4393,2.3956,-4.3635,1646
17,-2.0,-2.0,-1.7947,2.7131,-3.2194,1.759,2169
17,1.9999,-2.0,-0.7827,3.3397,2.163,-1.9997,2328
17,-0.8435,-0.4395,-0.605,1.5447,-0.2454,1.0974,1608
17,1.3459,-0.7656,0.4858,3.5327,0.1406,0.7388,2116
17,0.8872,0.0535,-0.1138,4.2654,1.8648,0.1438,2054
17,0.105,0.2244,0.3223,4.3634,1.2204,1.2708,1956
17,0.4412,0.2622,0.4065,4.3634,1.5554,1.3443,2072
17,0.5942,0.1321,0.3455,4.3634,1.2876,1.2195,2043
17,0.5256,-0.083,0.0266,4.3634,0.6248,1.0291,1967
17,0.3757,-0.1362,-0.1228,4.3634,0.2633,1.0049,1986
17,0.3284,0.1848,0.1267,4.3634,0.2084,0.9042,2041
17,0.3203,0.4402,0.2715,4.0073,0.5972,0.6102,2044
17,0.3242,0.4839,0.1782,3.7055,0.9391,0.1412,2069
17,0.1301,0.3831,-0.2524,3.1696,1.1708,-0.1762,2073
17,0.2935,0.2656,-0.0981,2.8376,1.1774,-0.5011,2029
17,0.2,0.3452,-0.061,2.7066,1.1954,-0.8456,2055
17,0.0562,0.4575,-0.1265,2.4914,1.0653,-0.9496,2061
17,-0.1953,0.3623,-0.3594,1.9658,0.9741,-0.9427,2038
17,-0.3503,0.2188,-0.4905,1.5716,0.958,-0.8369,2056
17,-0.3997,0.2129,-0.3721,1.6728,1.1097,-0.7039,2054
17,-0.5352,0.2114,-0.4458,1.5563,1.0513,-0.5934,2054
17,-0.7598,0.1265,-0.5549,1.5378,0.9668,-0.4216,2052
17,-0.8706,-0.1851,-0.6602,1.4434,0.5349,-0.1892,2057
17,-1.1064,-0.5642,-0.7178,1.3873,0.5348,-0.0796,2067
17,-1.4795,-1.0225,-0.7085,1.0997,0.8778,0.2016,2057
17,-1.8601,-1.4006,-0.6416,0.75,1.2713,0.5113,2059
17,-2.0,-1.6719,-0.5261,0.4866,1.7896,0.7574,2043
17,-2.0,-2.0,-0.3,0.0123,2.4372,0.9102,2046
17,-1.928,-2.0,0.0593,-0.6926,3.0111,1.1119,2059
17,-1.542,-2.0,0.2021,-1.8797,3.7535,1.5201,2036
18,-1.3623,-1.937,0.2161,-2.826,4.3634,1.9924,2060
18,-1.3501,-1.8354,0.2346,-3.5597,4.3634,2.0133,2024
18,-0.8643,-1.9873,-0.1392,-3.4861,3.3011,2.1296,2060
18,-0.3328,-2.0,-0.05,-3.1664,2.1371,2.2236,2093
18,-0.0088,-2.0,0.2988,-3.3987,1.1854,2.1896,2048
18,-0.1055,-2.0,0.406,-3.7909,0.2541,2.1225,2076
18,-0.3989,-2.0,0.1833,-4.158,-0.1617,2.1402,1980
18,-0.4375,-1.8936,0.2297,-4.0458,-0.1803,2.2111,2019
18,-0.3813,-1.8127,0.542,-3.3544,0.0431,2.0887,2053
18,-0.3062,-2.0,0.6316,-3.4198,-0.2087,1.9868,2042
18,-0.2778,-2.0,0.1738,-3.9186,-0.1389,2.1988,2031
18,-0.1934,-2.0,-0.0508,-4.0167,-0.3223,2.3028,2047
18,-0.1626,-2.0,-0.0728,-4.1201,-0.8834,2.3071,2056
18,-0.2615,-2.0,-0.1118,-4.2212,-1.2761,2.3048,2030
18,-0.3684,-2.0,-0.2654,-4.3198,-1.3248,2.2929,2026
18,-0.3904,-1.9192,-0.3564,-4.2595,-1.1919,2.2281,2034
18,-0.364,-1.812,-0.2778,-4.0522,-1.187,2.1466,2066
18,-0.2866,-1.7654,-0.2351,-3.9888,-1.1492,2.0236,2059
18,-0.2625,-1.7595,-0.3269,-4.054,-0.7897,1.9443,2063
18,-0.2422,-1.7246,-0.4062,-4.2081,-0.591,1.8883,2050
18,-0.2402,-1.644,-0.4258,-4.1614,-0.5677,1.8429,2032
18,-0.2288,-1.5498,-0.3647,-4.0459,-0.6592,1.8062,2038
18,-0.1956,-1.4573,-0.376,-3.957,-0.5673,1.8133,2036
18,-0.188,-1.4243,-0.3669,-4.0327,-0.5727,1.815,2031
18,-0.1252,-1.3186,-0.3665,-4.0263,-0.6793,1.8036,2040
18,-0.0686,-1.1931,-0.365,-4.0373,-0.7311,1.7556,2014
18,0.0132,-1.1094,-0.3921,-4.0692,-0.7637,1.562,2044
18,0.1353,-0.9521,-0.3992,-3.888,-0.8147,1.4407,2054
18,-0.168,-0.8054,-0.4211,-3.9957,-0.4783,1.1283,1983
18,-0.1833,-0.9272,-0.8083,-3.687,-0.2264,0.8541,2082
18,-0.1418,-0.9011,-0.803,-3.5769,-0.0037,0.5907,2070
18,-0.104,-0.8135,-0.7844,-3.1432,0.2157,0.8199,2034
18,-0.2407,-0.783,-0.771,-3.0079,0.5211,0.7516,2051
18,-0.4299,-0.6863,-0.7925,-2.752,0.5813,1.048,2016
18,-0.3054,-0.5784,-0.5386,-2.5235,0.5721,1.4448,2076
18,-0.1394,-0.3655,-0.4761,-2.0932,0.4338,1.395,2043
18,-0.3091,-0.8679,-0.4646,-2.1703,0.4992,1.3331,2065
18,-0.4458,-0.7603,-0.6414,-1.6118,0.6524,1.0873,2051
18,-0.53,-0.5437,-0.7886,-1.4829,1.0037,0.9527,2004
18,-0.5208,-0.5496,-0.7964,-0.9226,1.0214,0.7973,1980
18,-0.4067,-0.4094,-0.7727,-0.6228,1.3953,0.2159,2033
18,-0.5999,-0.2329,-0.7512,-0.2553,1.3532,-0.2292,2007
18,-0.3411,-0.4243,-0.7795,0.1338,1.1624,-0.4038,2061
18,-0.1343,-0.3093,-0.7805,0.4019,0.4496,-0.3824,2030
18,-0.3108,-0.1653,-0.8826,0.9605,-0.0398,-0.6723,2032
18,-0.7002,-0.5959,-0.9656,1.4873,-0.3338,-1.0979,1966
18,-0.8875,-0.7957,-1.0183,1.7977,0.0326,-1.4797,2036
18,-0.9111,-0.9153,-1.0991,1.9889,0.4316,-1.804,1965
18,-0.8232,-1.1179,-1.136,2.2836,0.6046,-2.064,1973
18,-0.7366,-1.2024,-1.2456,2.3269,0.5066,-2.5067,2066
18,-0.7915,-1.1775,-1.269,2.3888,0.3488,-2.9284,1989
18,-0.8999,-1.1565,-1.3687,2.5868,0.1324,-3.3331,2070
18,-0.9351,-1.241,-1.3469,2.7677,0.1426,-3.5468,1930
18,-0.9797,-1.2419,-1.2461,3.0036,-0.0321,-3.7181,1984
18,-1.0898,-1.3765,-1.2781,3.2866,-0.0418,-3.9748,2263
18,-1.1565,-1.3242,-1.2207,3.5149,-0.0647,-3.9871,1872
18,-1.1985,-1.2285,-1.3276,3.6439,0.0312,-3.9969,2056
18,-1.1189,-1.1382,-1.3245,3.7756,-0.121,-3.9636,2026
18,-1.144,-1.1702,-1.3577,3.9339,-0.1462,-3.8749,1992
18,-1.1665,-1.2593,-1.4238,3.7834,-0.2069,-3.5392,1840
18,-1.092,-0.9031,-1.2407,3.9162,-0.2164,-3.1076,2214
18,-0.9343,-0.833,-1.3052,3.609,-0.2429,-2.9533,2062
18,-0.8518,-1.0071,-1.2339,3.3182,-0.4031,-2.6758,2027
18,-0.7024,-0.9023,-1.239,2.9309,-0.3693,-2.4226,2047
18,-0.5725,-0.6865,-1.1001,2.6729,-0.4328,-2.1035,2118
18,-0.4851,-0.7012,-0.9375,2.0984,-0.2422,-1.9895,1941
18,-0.5322,-0.9683,-0.9893,1.3215,0.3273,-1.7934,1994
18,-0.3936,-0.8167,-1.1797,0.2458,1.0629,-1.29,1538
18,0.4038,0.0864,-0.1904,0.3302,0.5022,-1.0573,2240
18,0.0581,-0.2471,-0.2896,0.5474,0.8291,-1.3958,2155
18,1.9999,-0.1665,1.6013,4.3634,-4.3635,-4.3635,2366
18,1.9999,-0.8733,-1.1116,4.3634,-3.5255,-4.3635,2207
18,-2.0,-1.5283,-0.6353,4.3634,0.6925,-4.3635,1666
18,-1.0864,-2.0,1.1687,4.3634,0.5042,-0.8895,2167
18,1.9951,-1.7034,0.0723,3.5384,3.8523,-2.5201,2227
18,0.6809,-1.0046,-0.0039,3.731,3.607,-1.2163,1873
18,1.0273,-1.3242,0.4089,3.6756,1.3545,-0.4492,2027
18,1.0085,-0.8276,0.092,3.7681,0.8842,-0.1392,2045
18,0.4412,-0.1921,-0.1301,4.1327,0.6786,0.1565,1996
18,-0.1709,-0.0181,-0.6377,3.9719,1.1143,0.503,1910
18,-0.2891,0.1255,-0.8342,3.7524,1.9369,0.4761,2002
18,0.1597,0.3916,-0.5166,3.78,2.0909,0.4996,2054
18,0.7966,0.4324,-0.0923,3.6231,1.9126,0.7601,2089
18,0.6863,0.2935,-0.071,3.2144,1.3704,0.7793,2041
18,0.4653,0.1519,0.0193,3.0657,0.816,0.8128,2044
18,0.1135,0.0771,0.0544,2.7843,0.3075,0.6613,2039
18,-0.2996,0.0781,-0.0361,2.3431,0.2794,0.6838,2030
18,-0.6572,0.0786,-0.0439,1.6487,0.2982,0.6548,2028
18,-0.8743,0.0881,-0.0596,0.9572,0.6039,0.6237,2022
18,-0.925,0.0305,-0.114,0.7062,0.9179,0.5283,2009
18,-0.8833,-0.0735,-0.1755,0.4307,0.9256,0.5646,2072
18,-0.8655,-0.2112,-0.2473,0.1964,0.856,0.5462,2059
18,-0.9172,-0.3445,-0.2979,-0.0273,0.6399,0.7509,2073
18,-0.9968,-0.6375,-0.4153,-0.3201,0.2982,1.1688,2055
18,-1.1108,-0.886,-0.5774,-0.5886,0.3417,1.4014,2064
18,-1.1189,-0.8921,-0.5823,-0.7765,0.3583,1.4284,2058
18,-1.0635,-0.7407,-0.364,-0.7379,0.3245,1.2379,2041
18,-1.1433,-0.6079,-0.2861,-0.7622,0.3263,1.0167,2032
18,-1.3442,-0.6035,-0.6042,-0.567,0.4533,0.9754,2040
18,-1.5403,-1.0015,-1.0159,-0.3525,0.6201,1.1472,2043
18,-1.6831,-1.4514,-1.4326,-0.2301,1.3358,1.5153,2104
18,-1.9978,-1.8328,-1.198,-0.1822,2.1214,1.5542,2030
18,-1.5879,-2.0,-0.5964,-0.9182,2.2694,1.9014,2067
19,-1.4475,-2.0,-0.4824,-1.7933,2.4237,2.5586,1994
19,-1.2637,-2.0,-0.1934,-2.6011,2.5081,2.6358,2084
19,-0.7932,-2.0,0.1316,-2.907,2.4401,2.569,2003
19,-0.3462,-2.0,0.2949,-3.2545,1.7401,2.2983,2105
19,0.0977,-2.0,0.7158,-3.7938,1.2877,1.9503,2073
19,0.457,-2.0,0.6846,-4.3635,0.2735,1.6657,2018
19,0.4724,-2.0,0.9268,-4.0872,-0.7084,1.4129,1988
19,0.175,-2.0,0.7212,-4.3635,-1.0174,1.2114,2075
19,-0.0288,-2.0,0.2285,-4.3635,-1.3487,1.551,2006
19,-0.2231,-2.0,-0.0779,-4.3635,-1.712,1.784,2063
19,-0.3137,-2.0,-0.3779,-4.3635,-1.8036,1.8944,2036
19,-0.2703,-1.9683,-0.5325,-4.3635,-1.649,1.9362,2048
19,-0.2468,-1.7656,-0.7219,-4.3635,-1.3426,2.0097,2070
19,-0.3569,-1.5596,-0.7998,-4.3635,-1.0832,2.128,2051
19,-0.459,-1.4714,-0.7234,-4.3635,-0.909,2.2883,2028
19,-0.4541,-1.3176,-0.6404,-4.3635,-0.5618,2.6603,2045
19,-0.5168,-1.1689,-0.5525,-4.3635,-0.1992,2.643,2042
19,-0.4287,-1.0598,-0.4448,-4.3635,-0.1579,2.5123,2055
19,-0.2949,-0.9841,-0.3545,-4.3635,-0.1657,2.3657,2053
19,-0.2305,-0.9368,-0.3521,-4.1062,-0.23,2.3638,2053
19,-0.2898,-0.908,-0.439,-3.8605,-0.3939,2.2093,2042
19,-0.2974,-0.9165,-0.5015,-3.6424,-0.6505,2.09,2042
19,-0.2458,-0.9131,-0.5742,-3.452,-0.8717,2.0386,2069
19,-0.2454,-0.866,-0.6646,-3.3071,-0.9737,1.9054,2047
19,-0.2954,-0.8772,-0.6992,-3.3017,-0.9341,1.8197,2052
19,-0.3555,-0.9048,-0.8123,-3.344,-0.9098,1.8317,2065
19,-0.3865,-0.8892,-0.9524,-3.224,-0.4928,1.8474,2026
19,-0.3757,-0.9104,-0.9812,-3.1116,-0.0732,1.8417,2052
19,-0.2808,-0.9314,-0.9287,-3.0537,0.1542,1.8971,2068
19,-0.1868,-0.9553,-0.8442,-3.0838,0.2599,1.8247,2051
19,-0.071,-0.8726,-0.7163,-2.8331,0.2566,1.7298,2052
19,-0.144,-0.6868,-0.4233,-2.4879,0.151,1.8504,2050
19,-0.2915,-0.4683,-0.2783,-2.3682,-0.0417,2.116,2013
19,-0.4302,-0.3147,-0.407,-1.66,0.388,2.3045,2064
19,-0.4849,-0.3333,-0.3875,-1.0134,0.1673,2.1525,2112
19,-0.5801,-0.4963,-0.5232,-0.5899,0.5962,1.9014,2040
19,-0.4863,-0.5745,-0.6621,-0.1446,0.6099,1.4948,2047
19,-0.4673,-0.5474,-0.4321,0.5895,0.267,0.5886,2030
19,-0.3994,-0.6296,-0.3569,1.0144,0.2574,-0.2093,2005
19,-0.4407,-0.7642,-0.4258,1.3585,0.3999,-0.9674,1899
19,-0.4026,-0.7961,-0.488,1.4603,0.2698,-1.5265,2014
19,-0.2542,-0.7778,-0.7576,1.4938,-0.0864,-1.6571,2008
19,-0.1794,-0.8689,-1.0193,1.8694,-1.0037,-1.7218,1975
19,-0.3608,-1.0977,-1.0569,2.1276,-1.4388,-1.7949,2096
19,-0.6631,-1.2551,-1.052,2.1204,-1.1392,-1.9643,2075
19,-0.9414,-1.3015,-1.2002,1.9976,-0.4396,-2.1682,2075
19,-1.0122,-1.3333,-1.3367,2.1664,-0.0597,-2.1746,2077
19,-0.7766,-1.302,-1.4097,2.3388,0.0783,-2.0474,2147
19,-0.7551,-1.1628,-1.3909,2.3225,-0.0935,-2.2113,2039
19,-0.9441,-1.0786,-1.3513,2.3421,-0.4976,-2.4915,2106
19,-1.1399,-1.1182,-1.407,2.1917,-0.6244,-2.9015,2091
19,-1.4221,-1.0713,-1.4966,2.139,-0.3537,-3.2961,1984
19,-1.3652,-0.981,-1.3337,2.1636,-0.6755,-3.7173,2077
19,-1.3372,-1.0415,-1.2588,2.1876,-0.4215,-3.806,2101
19,-1.3372,-1.0364,-1.3774,2.2293,-0.6043,-4.017,2128
19,-1.2615,-1.0339,-1.2808,2.4097,-0.5316,-4.0395,2008
19,-1.1838,-1.1785,-1.2566,2.5079,-0.3197,-3.955,2025
19,-1.2385,-1.2849,-1.4546,2.6348,-0.167,-3.8862,2085
19,-1.217,-1.2114,-1.386,2.7647,0.0401,-3.7165,2071
19,-1.0476,-1.0386,-1.3672,2.789,0.0647,-3.6724,1983
19,-0.9473,-0.8521,-1.2568,2.8562,0.0605,-3.6792,2058
19,-0.9492,-0.751,-1.2529,2.7117,0.0859,-3.7768,1817
19,-0.8069,-0.7085,-1.1753,2.4686,0.2245,-3.8528,2049
19,-0.6472,-0.7966,-1.1724,2.0073,0.4402,-3.9084,2105
19,-0.5364,-0.5938,-1.3335,1.7721,0.6422,-3.9856,2058
19,-0.7842,-0.2705,-0.9202,1.5962,0.7933,-3.3674,2057
19,-0.2537,-0.3667,-0.6819,1.2876,0.8958,-3.4242,2064
19,-0.875,-0.4895,-0.9028,0.8128,1.7407,-3.5424,2261
19,0.2209,-0.7437,-0.3291,0.3938,1.3716,-3.1393,2109
19,-0.3118,-0.5972,-0.5698,0.2864,2.3149,-3.8305,2032
19,1.9999,0.509,0.8484,0.2756,-1.4685,-4.3635,2337
19,-0.0444,0.4009,-1.2056,4.2213,-0.9678,-4.3635,1903
19,-2.0,-2.0,1.0938,2.6372,0.1501,2.3157,1791
19,1.9999,-2.0,-0.3083,1.5471,1.5563,-1.507,2658
19,-0.8655,-0.948,0.0337,1.8069,1.4031,0.2811,1569
19,0.7615,-1.781,0.2371,2.5227,0.3426,0.4432,2159
19,0.585,-0.1179,0.106,3.4583,0.6536,0.3056,1967
19,0.3564,0.2117,0.0955,4.2068,0.5548,0.7747,1986
19,0.6238,0.3862,0.25,4.3634,0.3661,0.8855,2051
19,0.5093,0.1807,-0.2256,4.3634,-0.1874,1.0596,2098
19,0.5815,-0.1499,-0.1292,4.2595,-0.435,1.0541,2039
19,0.3655,-0.0334,0.272,4.1797,-0.6931,1.1461,2082
19,0.5244,-0.031,0.46,3.906,-0.6253,1.1639,1890
19,0.677,0.1401,0.406,3.7025,-0.3116,0.6738,2014
19,0.6382,0.2075,0.4114,3.4543,-0.0234,0.2326,2039
19,0.1243,0.1082,-0.103,2.8846,-0.161,-0.0407,2058
19,-0.1802,-0.0559,-0.6992,2.0869,0.1724,-0.0678,2123
19,-0.1963,0.1763,-0.4026,1.892,0.5356,-0.2237,2063
19,-0.0374,0.3171,-0.0972,1.643,0.9842,-0.1057,2061
19,0.0305,0.4478,-0.0461,1.6131,1.0701,-0.3944,2058
19,0.0732,0.4446,-0.0579,1.5836,0.65,-0.6893,2052
19,-0.1772,0.2371,-0.2952,1.3936,0.2658,-0.7108,2057
19,-0.3213,-0.0266,-0.4941,1.2359,-0.0019,-0.5129,2072
19,-0.397,-0.1396,-0.5002,1.3071,-0.1342,-0.233,2052
19,-0.5283,-0.1223,-0.4929,1.6222,-0.3774,0.128,2054
19,-0.6189,-0.1528,-0.5461,1.8618,-0.8079,0.3577,2044
19,-0.7629,-0.4702,-0.6138,2.0679,-0.9877,0.6217,2052
19,-1.3708,-1.1306,-0.719,1.8712,-0.7199,0.9315,2057
19,-1.9885,-1.8652,-0.8745,1.3541,0.0077,1.4886,2065
19,-2.0,-2.0,-0.7593,0.9448,1.4552,1.4697,2049
20,-2.0,-2.0,-0.2832,-0.439,2.9834,1.5936,2037
20,-2.0,-1.9954,-0.1821,-1.9061,4.3101,2.3985,2050
20,-1.4983,-1.8625,-0.3364,-2.2832,4.3634,2.381,2040
20,-1.0564,-2.0,-0.3137,-2.2048,4.3634,2.3898,2024
20,-0.9622,-2.0,-0.24,-2.1205,4.3634,2.5398,2036
20,-0.9358,-2.0,-0.0789,-2.512,4.3634,2.7472,2091
20,-0.6992,-2.0,-0.0251,-2.7987,3.9544,3.1741,2105
20,-0.5095,-2.0,0.011,-3.0198,3.5109,3.2228,2024
20,-0.3826,-2.0,0.2473,-3.5605,2.743,3.0552,2035
20,-0.2712,-2.0,0.1521,-3.9875,1.7479,2.9112,2107
20,-0.1367,-2.0,0.1172,-4.2057,0.9083,2.7297,2003
20,-0.2756,-2.0,0.0005,-4.3635,0.3729,2.6581,2096
20,-0.3657,-2.0,-0.0959,-4.3635,-0.3117,2.6191,2002
20,-0.3379,-2.0,0.0405,-4.3635,-0.5401,2.3706,2039
20,-0.2979,-2.0,0.3269,-4.3635,-0.6581,2.0011,2034
20,-0.0776,-2.0,0.4817,-4.3635,-0.876,1.6657,1996
20,0.241,-2.0,0.5237,-4.3635,-1.3236,1.1724,2046
20,0.3445,-2.0,0.019,-4.3635,-1.4367,0.8355,2053
20,0.0002,-2.0,-0.5779,-4.3635,-1.1591,0.9319,2054
20,-0.4429,-1.7124,-0.4927,-4.3635,-1.6255,1.203,2040
20,-0.5579,-1.4604,-0.4097,-4.3635,-1.8464,1.4211,2028
20,-0.426,-1.2231,-0.542,-4.3635,-1.4591,1.4038,2041
20,-0.3757,-1.1033,-0.6523,-4.3635,-1.0977,1.4002,2028
20,-0.4175,-0.9285,-0.572,-4.3635,-0.9742,1.4792,2047
20,-0.3601,-0.7634,-0.5769,-4.3517,-0.9005,1.7064,2052
20,-0.2766,-0.6721,-0.5791,-4.1386,-0.8436,1.9703,2046
20,-0.1973,-0.5752,-0.6531,-3.8757,-0.8102,2.1322,2036
20,-0.2512,-0.5708,-0.6538,-3.6733,-0.7943,2.2198,2025
20,-0.2952,-0.5618,-0.5552,-3.4568,-0.8561,2.3591,2056
20,-0.3494,-0.5789,-0.6333,-3.3101,-0.5372,2.5653,2060
20,-0.3933,-0.5566,-0.6423,-3.1453,-0.1525,2.6817,2056
20,-0.4058,-0.4802,-0.5698,-2.9835,0.1851,2.7217,2083
20,-0.3086,-0.4026,-0.5237,-2.7669,0.2309,2.6934,2052
20,-0.1682,-0.366,-0.6062,-2.6108,0.3571,2.5694,2030
20,-0.2134,-0.3938,-0.6458,-2.414,0.5091,2.3394,2098
20,-0.3335,-0.3823,-0.6255,-2.0189,0.3816,2.0064,2040
20,-0.3374,-0.4375,-0.5425,-1.7112,0.3341,1.763,2090
20,-0.3301,-0.425,-0.5068,-1.3758,0.2799,1.3555,2074
20,-0.2502,-0.3611,-0.5293,-1.0745,0.2791,0.8281,2068
20,-0.1274,-0.3455,-0.665,-0.8403,0.0573,0.2759,2032
20,-0.0798,-0.3528,-0.6504,-0.4437,-0.2127,-0.3,1991
20,-0.2007,-0.3584,-0.5854,-0.0748,-0.4042,-0.7327,2025
20,-0.2043,-0.2087,-0.4753,0.3731,-0.5834,-0.9202,2116
20,-0.3044,-0.3308,-0.5593,0.7279,-0.5092,-1.007,2103
20,-0.2598,-0.8079,-0.696,1.1288,-0.5094,-1.1343,2116
20,-0.1934,-1.085,-0.7581,1.4372,-0.3815,-1.4981,1999
20,-0.2288,-1.1594,-0.8716,1.5832,-0.1639,-1.6486,1991
20,-0.3025,-1.1921,-0.9832,1.641,0.0439,-1.7279,2086
20,-0.4832,-1.2229,-1.2371,1.5625,0.3017,-1.8146,2019
20,-0.575,-1.166,-1.3047,1.7912,0.3783,-1.8178,2070
20,-0.5859,-1.2905,-1.416,1.9876,0.2754,-1.7783,2051
20,-0.8589,-1.1292,-1.0403,2.3182,0.2709,-2.1197,2133
20,-1.2139,-1.3086,-1.29,2.2168,0.6357,-2.1791,2100
20,-1.1863,-1.4856,-1.3108,2.2874,0.4747,-2.5438,2133
20,-1.1069,-1.4368,-1.2991,2.2081,0.4449,-3.0726,2099
20,-1.2542,-1.5146,-1.4316,2.2565,0.2276,-3.487,2032
20,-1.3,-1.4927,-1.4241,2.2748,0.126,-3.7201,1989
20,-1.2942,-1.4021,-1.5056,2.489,-0.1639,-3.8095,1995
20,-1.5093,-1.3635,-1.4058,2.5903,-0.0162,-3.9551,2089
20,-1.4329,-1.4153,-1.2776,2.7504,-0.218,-4.1169,2172
20,-1.5339,-1.3403,-1.4023,2.8148,0.1915,-4.2576,2094
20,-1.3694,-1.1741,-1.3208,3.0673,-0.1308,-4.1931,2028
20,-1.1914,-1.0806,-1.5579,3.0355,0.0807,-4.2815,2059
20,-1.1802,-1.0745,-1.3845,3.0911,-0.1296,-4.2354,2217
20,-1.1089,-0.9124,-1.1831,3.0873,-0.0594,-4.2188,2053
20,-1.1323,-0.8367,-1.1621,2.9534,0.1088,-4.166,2006
20,-1.0637,-0.8699,-1.199,2.546,0.2248,-3.9973,2085
20,-0.7478,-0.519,-1.1895,2.3838,0.0799,-4.0381,1880
20,-0.7727,-0.2957,-0.8428,2.2096,0.1278,-3.4725,2235
20,-0.5193,-0.259,-0.7671,1.7736,0.3317,-2.9411,2120
20,-0.8552,-0.2427,-0.6772,0.9271,0.7194,-2.4137,2023
20,-0.1685,-0.0745,-0.3887,0.7549,0.4837,-2.5007,2083
20,0.1689,-0.2698,-0.8118,-0.1537,0.7861,-3.1114,2064
20,0.2573,0.2129,-0.3247,-0.0515,0.726,-3.5849,2017
20,1.9565,0.1694,-0.2393,0.0131,-0.4806,-3.9788,2088
20,1.9999,1.6011,1.9999,4.3634,-4.3635,-4.3635,1991
20,-2.0,-0.4834,-1.3359,-0.0073,4.3634,-4.3635,1705
20,-0.6143,-2.0,-1.8508,1.2069,-0.8628,3.629,2508
20,1.6643,-2.0,-1.1191,2.0125,1.8941,-1.3796,2166
20,0.2307,-0.2417,-0.0103,1.0046,-0.1194,1.5673,1632
20,0.74,0.4324,0.3252,2.7346,0.245,1.2464,2018
20,0.322,1.0029,0.4265,3.8848,0.3859,1.3254,2009
20,0.8262,0.3987,0.4243,4.3634,-0.0585,1.2304,2100
20,0.7444,-0.2312,0.0376,4.3634,-0.1424,0.4976,2022
20,0.3962,-0.4277,0.1516,4.3634,-0.4075,0.351,2011
20,0.4448,-0.2058,0.0132,4.3298,-0.4093,0.4813,2026
20,0.6279,-0.1204,0.1116,3.9708,-0.4015,0.5382,2027
20,0.2188,-0.1047,-0.1411,3.2497,-0.1763,0.648,2021
20,-0.0728,-0.0906,-0.0444,2.8252,0.1087,0.496,2025
20,-0.0012,-0.1042,-0.0454,2.4296,0.3757,0.3721,2072
20,0.0325,-0.1899,-0.2886,1.9718,0.3729,0.267,2056
20,-0.0256,-0.345,-0.5291,1.5424,0.247,0.2189,2082
20,-0.001,-0.385,-0.5293,1.2625,0.5604,0.1872,2069
20,0.0693,-0.3467,-0.3147,1.189,0.8887,0.1346,2045
20,0.031,-0.2217,-0.175,1.14,1.2283,0.0,2056
20,0.0911,-0.0957,-0.1008,1.24,1.1258,-0.2221,2022
20,0.1287,0.0332,-0.1543,1.3529,1.036,-0.5843,2044
20,0.0459,0.1687,-0.1567,1.7815,0.9706,-0.9922,2044
20,-0.332,0.3071,-0.292,1.9556,0.9425,-1.061,2033
20,-0.5779,0.4019,-0.4565,2.2642,0.3125,-0.5484,2055
20,-0.7249,0.3772,-0.533,2.4768,-0.1312,-0.0193,2049
20,-1.0164,0.064,-0.7117,2.5252,-0.0365,0.4922,2063
20,-1.5818,-0.5513,-0.7483,2.3439,0.3112,1.0256,2081
21,-2.0,-1.2725,-0.718,1.7672,0.9939,1.2239,2075
21,-2.0,-1.7617,-0.7527,1.2166,1.754,1.7996,2065
21,-2.0,-2.0,-0.5452,0.9626,2.4948,1.8837,2001
21,-2.0,-2.0,-0.2983,-0.0752,3.3075,1.6958,2056
21,-1.9231,-2.0,-0.2322,-1.2202,4.1642,1.7496,2034
21,-1.6848,-2.0,-0.3335,-1.8421,4.3634,1.9785,2064
21,-1.5127,-2.0,-0.3293,-1.7093,4.3634,2.1703,2025
21,-1.2212,-2.0,-0.0972,-1.9943,4.3634,2.1743,2003
21,-0.8682,-2.0,0.064,-2.4732,4.1945,2.3057,2072
21,-0.3862,-2.0,0.1719,-2.9755,3.4505,2.5735,2086
21,0.0396,-2.0,0.3826,-3.5537,2.7865,2.3511,2066
21,0.1199,-2.0,0.4341,-3.902,1.4219,2.1149,2011
21,0.2307,-2.0,0.5139,-3.9568,0.19,1.9856,2000
21,0.2139,-2.0,0.7219,-4.1006,-0.6385,1.9881,2067
21,-1.1697,-2.0,0.8313,3.9567,-4.3635,4.3634,2080
21,0.8101,-2.0,0.3394,-4.3635,0.4224,3.0184,2079
21,0.3103,-2.0,0.4746,-4.3635,0.7874,1.544,1909
21,-0.1921,-2.0,0.4329,-4.3635,-0.9895,1.7357,2020
21,-0.2986,-2.0,-0.1692,-4.3635,-0.9652,1.797,2058
21,-0.4841,-2.0,-0.2273,-4.3635,-1.3025,1.447,2055
21,-0.5547,-1.8127,-0.3613,-4.3635,-1.2882,1.2672,2065
21,-0.3567,-1.4993,-0.4453,-4.3635,-1.542,1.3585,2021
21,-0.4351,-1.3176,-0.616,-4.3635,-1.3998,1.9303,2032
21,-0.512,-1.1018,-0.5933,-4.3635,-1.234,1.8154,2053
21,-0.3018,-1.0073,-0.5999,-4.3635,-1.187,1.7961,2049
21,-0.2722,-0.9517,-0.5842,-4.3635,-1.2497,1.9528,2017
21,-0.1599,-0.7756,-0.5588,-4.2671,-1.1424,1.9385,2047
21,-0.2544,-0.6943,-0.6248,-4.0567,-1.1523,2.0094,2048
21,-0.3381,-0.7329,-0.6265,-3.841,-1.0689,1.9044,2040
21,-0.3481,-0.7495,-0.564,-3.701,-0.7846,1.8488,2077
21,-0.3347,-0.7246,-0.5149,-3.6886,-0.4572,1.8231,2057
21,-0.2546,-0.7253,-0.5498,-3.7832,-0.0752,1.8185,2070
21,-0.126,-0.7043,-0.6262,-3.7969,0.0662,1.8222,2102
21,-0.0361,-0.5776,-0.6501,-3.7368,-0.0438,1.8365,2045
21,-0.0808,-0.446,-0.6924,-3.4881,-0.1249,1.8502,2038
21,-0.1934,-0.3911,-0.7419,-3.2649,-0.015,1.8357,2066
21,-0.3577,-0.3267,-0.7063,-3.058,0.2663,1.8069,2060
21,-0.4387,-0.2241,-0.6921,-2.7918,0.5082,1.8627,2088
21,-0.3938,-0.2024,-0.6245,-2.5337,0.9531,1.9611,2013
21,-0.2339,-0.1677,-0.5952,-2.3015,1.1697,1.8034,1987
21,-0.0225,-0.1799,-0.5828,-1.8008,0.9869,1.496,1955
21,-0.0227,-0.2568,-0.582,-1.5251,0.5271,1.1597,2029
21,-0.1296,-0.2007,-0.5012,-0.9199,0.0968,0.7677,2027
21,-0.3042,-0.1426,-0.4004,-0.5096,-0.0631,0.3452,2041
21,-0.4814,-0.2747,-0.3149,0.0727,-0.0949,-0.1693,1978
21,-0.429,-0.5071,-0.2573,0.6281,-0.0417,-0.8096,2051
21,-0.2964,-0.8059,-0.3882,1.027,0.1338,-1.3541,2002
21,-0.1384,-1.0002,-0.5151,1.3632,-0.0473,-1.6064,2080
21,0.0371,-1.0571,-0.6489,1.8165,-0.5718,-1.7647,2103
21,-0.1934,-1.0759,-0.7573,2.1475,-0.8018,-1.9257,2026
21,-0.5364,-1.1365,-0.7734,2.4373,-0.5525,-1.9546,1963
21,-0.875,-1.3088,-0.9707,2.5798,-0.2597,-2.0572,2023
21,-0.9307,-1.4851,-1.2109,2.7577,0.1519,-2.2008,2031
21,-0.9424,-1.5586,-1.2822,2.8914,0.3504,-2.3229,2029
21,-1.0085,-1.696,-1.4287,2.8066,0.2717,-2.549,2120
21,-1.0579,-1.7954,-1.5261,2.7369,-0.0047,-2.8106,1902
21,-1.2461,-1.6812,-1.5593,2.542,-0.0196,-3.1255,2068
21,-1.4761,-1.5422,-1.5364,2.3501,0.0172,-3.3256,2186
21,-1.5112,-1.5242,-1.5867,2.2655,-0.0238,-3.6434,1965
21,-1.3843,-1.4473,-1.5598,2.1989,-0.1233,-4.0425,2120
21,-1.3823,-1.2253,-1.592,2.1,-0.0782,-4.2369,2118
21,-1.1973,-1.0945,-1.5393,2.1607,-0.245,-4.2768,2148
21,-1.293,-1.1028,-1.5566,2.1086,0.072,-4.1318,2168
21,-1.1558,-0.98,-1.5481,2.3382,0.1241,-3.8294,2128
21,-0.9783,-0.8674,-1.3875,2.2286,0.543,-3.5834,1967
21,-0.9927,-0.8218,-1.3994,2.2294,0.7076,-3.5123,2045
21,-0.9448,-0.717,-1.1064,2.239,0.6877,-3.3322,1968
21,-0.8247,-0.6833,-1.1482,2.237,0.9606,-3.2385,2147
21,-0.8584,-0.3379,-1.3228,1.9659,1.1278,-3.2774,1968
21,-0.7444,-0.0613,-1.0801,2.1065,0.8267,-2.8968,1905
21,-0.4009,0.0583,-0.8062,1.5145,1.0914,-2.9404,2103
21,-0.5188,-0.4365,-0.3801,1.6076,1.0605,-3.0978,2114
21,-0.0974,-0.5691,-0.8008,0.9014,1.0792,-3.2005,2131
21,-0.3538,-0.4192,-0.022,0.9834,1.0464,-2.9975,1989
21,-0.2083,-0.7129,-0.0713,1.3736,1.3338,-3.0585,2013
21,-0.1455,-0.6826,-0.1807,1.7755,1.0669,-2.7295,2059
21,1.9999,0.5337,1.1638,1.0492,-1.8186,-4.3635,2429
21,-1.6528,-0.5217,-0.5928,2.8681,-1.1292,-4.3635,2007
21,-2.0,-2.0,0.3025,2.3013,-2.446,2.4709,2056
21,1.9999,-2.0,-1.0771,2.8633,1.5785,-2.137,2489
21,-0.645,-0.9431,-0.6829,1.5174,-0.4722,0.1272,1617
21,0.4133,0.1692,0.0935,2.2943,0.0617,0.8825,1989
21,0.6604,0.6592,0.2136,3.1749,-0.2507,1.6153,1970
21,0.8433,0.4448,0.4463,3.8835,-0.8556,1.8998,2109
21,0.8318,-0.0776,0.2891,4.208,-1.4472,1.6275,2060
21,0.437,-0.2463,0.0896,4.3634,-1.3199,1.2844,2147
21,0.198,-0.3208,-0.032,4.1753,-0.8943,1.4217,2175
21,0.3691,-0.2771,0.0439,3.7468,-0.5617,1.5897,1935
21,0.6228,0.033,0.0769,3.4833,-0.24,1.4312,1970
21,0.4382,0.0696,0.001,3.0176,-0.2065,1.3171,2038
21,0.1985,0.0212,-0.1553,2.5348,-0.0321,0.9271,2060
21,-0.054,0.0137,-0.178,2.3824,0.5835,0.4802,2028
21,-0.1223,-0.0586,-0.1697,1.9857,0.8104,0.28,2026
21,0.0205,-0.0742,-0.2012,1.6972,1.3587,0.1404,2064
21,0.1021,-0.0352,-0.1812,1.5888,1.6936,-0.1662,2039
21,0.1282,0.0005,-0.2505,1.2632,1.4283,-0.2788,2032
21,0.1309,-0.0959,-0.4011,1.0706,1.1488,-0.3963,2051
21,-0.0942,-0.0798,-0.4146,1.0284,1.1729,-0.437,2043
21,-0.5735,0.1484,-0.438,1.2929,1.2535,-0.3847,2038
21,-0.821,0.2927,-0.4502,1.5587,0.957,-0.2942,2026
21,-0.9878,0.2766,-0.6089,1.4627,0.6401,0.1159,2051
21,-1.1572,0.0215,-0.822,1.2627,0.5967,0.3482,2062
21,-1.3062,-0.3201,-0.9207,1.1093,0.5421,0.5506,2068
21,-1.5261,-0.8318,-0.9475,0.9412,0.7534,0.8034,2069
22,-1.6843,-1.4424,-0.7983,0.5758,0.7375,0.959,2068
22,-1.7119,-1.7686,-0.6311,0.1844,0.6958,0.9184,2043
