,timestamp,node,accx,accy,accz,gyrox,gyroy,gyroz,q0,q1,q2,q3,timestamp,node,accx,accy,accz,gyrox,gyroy,gyroz,q0,q1,q2,q3,timestamp,node,accx,accy,accz,gyrox,gyroy,gyroz,q0,q1,q2,q3,timestamp,node,accx,accy,accz,gyrox,gyroy,gyroz,q0,q1,q2,q3,timestamp,node,accx,accy,accz,gyrox,gyroy,gyroz,q0,q1,q2,q3,timestamp,node,accx,accy,accz,gyrox,gyroy,gyroz,q0,q1,q2,q3,timestamp,node,accx,accy,accz,gyrox,gyroy,gyroz,q0,q1,q2,q3,timestamp,node,accx,accy,accz,gyrox,gyroy,gyroz,q0,q1,q2,q3,timestamp,node,accx,accy,accz,gyrox,gyroy,gyroz,q0,q1,q2,q3
0,0.087,0.0,0.0,0.0,1.0,-0.000395695,-0.007164511,-0.000291428,0.9999999355352495,-1.9784748724581028e-05,-0.0003582258151985669,-1.457139906636211e-05,0.087,1.0,7.06e-17,-4.37e-18,1.0,0.000492823,-0.008608565,-0.00653561,0.9999998536729181,2.464114639433221e-05,-0.0004304201347705545,-0.0003267804523815796,0.088,2.0,1.03e-16,5.39e-17,1.0,-0.007834988,-0.010990737,-0.046975067,0.9999970134561474,-0.00039174823002323503,-0.0005504553287517277,-0.002348746695801567,0.088,3.0,1.79e-17,5.26e-17,1.0,0.000548991,0.002274486,0.001816124,0.9999999890340535,2.7449549698992333e-05,0.00011372180616360465,9.080619907264453e-05,0.088,4.0,-4.28e-17,5.46e-17,1.0,-0.003996145,-0.003842099,-0.022857926,0.9999993084371694,-0.00019980711182072993,-0.00019233317595616846,-0.0011428955552431454,0.0,5.0,3.71e-17,-4.98e-17,1.0,-0.009510534,-0.00545608,0.005621589,0.9999998102598293,-0.00047552660977348527,-0.0002726702874801889,0.00028107946022719636,0.102,6.0,8.63e-17,-4.46e-17,1.0,-0.000718436,-0.000519626,0.006481712,0.9999999465018665,-3.5921798078252976e-05,-2.5969656872569994e-05,0.00032408558308021746,0.0,7.0,7.42e-18,-3.74e-17,1.0,-0.00143721,2.16e-05,0.011224755,0.9999998399235374,-7.186048849682722e-05,1.1203306459949094e-06,0.0005612376630572391,0.0,8.0,-3.31e-17,5.97e-18,1.0,0.000125532,-0.000770247,0.004541233,0.9999999734601515,6.276599833420285e-06,-3.8513774153000984e-05,0.00022706164398276346
1,0.12,0.0,-9.83e-17,1.38e-17,0.979782119,-0.004254603,-0.010600278,0.003388829,0.9999995981571348,-0.000230604757486082,-0.0008523747067823632,0.00015480430817719338,0.12,1.0,2.18e-17,1.72e-17,0.979669842,0.004929557,-0.012708484,0.002783491,0.999999423220553,0.0002683871881381541,-0.0010229197855964815,-0.00018751530833104217,0.12,2.0,1.14e-16,1.17e-17,0.980477945,-0.000142367,-0.004664608,0.020412178,0.9999987878744291,-0.0003608010847534693,-0.0007282545887126608,-0.0013280502639513943,0.121,3.0,6.71e-06,-0.000995754,0.980331071,0.003734164,-0.00486234,-0.018789759,0.9999996170215463,0.00016054140716915193,-0.00014094638589797184,-0.0008487151073139571,0.121,4.0,-1.11e-17,-2.32e-19,0.979962244,-0.006073111,-0.002544759,-0.048847592,0.9999934107591767,-0.00048315513395122487,-0.00030116950510283483,-0.003585288869024987,0.102,5.0,-0.000362339,0.001332031,0.979961272,0.0038934,0.009215337,-0.004117403,0.9999999561508022,-0.00016541914656829088,0.00023389074041190277,7.50334665152468e-05,0.196,6.0,8.94e-17,-4.47e-17,0.979845906,-0.003868581,-0.005196143,0.002284603,0.9999998383667892,-0.00022567740210253375,-0.0002832167063808063,0.00043831997799851795,0.102,7.0,5.94e-18,-2.99e-17,0.979582564,0.004133141,0.000141528,-0.009398149,0.9999999857164054,0.00014197811999698307,8.267397594762346e-06,9.132936524822955e-05,0.102,8.0,-0.000783643,0.000612257,0.98001174,0.000639725,0.000975415,0.000912449,0.9999999589880245,6.885049003464481e-05,5.4100848602016226e-05,0.0002726841723153039
2,0.166,0.0,-9.83e-17,1.38e-17,0.979782119,0.001961485,-0.005055426,-0.005692286,0.9999994655091039,-0.00010918836283791547,-0.001019924320310909,-0.0001296679944327065,0.166,1.0,0.000309541,-0.000183729,0.98060281,-5.89e-05,-0.003366512,0.010955097,0.9999992986306622,0.00022864046658156324,-0.0011048593539910374,0.0003602048429782515,0.166,2.0,0.000807183,0.000539905,0.980239286,0.008679377,-0.010191155,0.028970625,0.9999992551885678,0.00013500112495385192,-0.0012069667092156943,0.00012094779357176755,0.166,3.0,6.71e-06,-0.000995754,0.980331071,-0.002332352,-0.003588342,-0.015934884,0.999998598939966,-2.295698532151511e-05,-0.00030648701187793026,-0.0016454959109922075,0.166,4.0,-1.11e-17,-2.32e-19,0.979962244,-0.006595033,-0.005790231,-0.030390559,0.9999865208226747,-0.0007651669267896942,-0.0005605404897163415,-0.005104751403921961,0.196,5.0,-0.001681266,0.001780264,0.979717308,0.010621176,0.01245874,0.022702104,0.9999987339813565,0.00047324891988728695,0.0009187504094905184,0.0012099457958132701,0.222,6.0,8.94e-17,-4.47e-17,0.979845906,-0.005287768,0.003698451,-0.00150211,0.999999822316177,-0.00046755778998324116,-7.012351012458479e-05,0.00036309781151465457,0.197,7.0,5.94e-18,-2.99e-17,0.979582564,-0.005380718,-0.000560577,-0.012720854,0.9999998414514982,-0.0001412582800453391,-2.070260676188259e-05,-0.0005447150438533632,0.197,8.0,-0.001567287,0.001224515,0.979906651,-0.006240981,-0.006122268,0.00090497,0.999999916121012,-0.00018753838747258804,-0.00017751110327571848,0.0003179262968157052
3,0.225,0.0,-9.83e-17,1.38e-17,0.979782119,-0.006860022,0.008096997,-0.000238166,0.9999997609844148,-0.0004412058911653185,-0.0005130428026559261,-0.00014197026937607914,0.225,1.0,0.001058878,-0.000740618,0.980244526,0.000787126,-0.001191235,-0.014526211,0.9999992977367871,0.00020819889051198898,-0.001107793997299957,-0.0003660213298926333,0.225,2.0,0.000807183,0.000539905,0.980239286,-0.009290356,-3.66e-05,-0.035892111,0.9999979110518193,-0.0003133054139011614,-0.0011298860168588458,-0.0016742429048527466,0.225,3.0,6.71e-06,-0.000995754,0.980331071,-0.001344461,0.00023621,-0.008745526,0.9999977865147892,-0.00013851777809234379,-0.0002642364610219626,-0.002082776377699036,0.225,4.0,-1.11e-17,-2.32e-19,0.979962244,0.000589594,-0.001740514,-0.01696846,0.9999818876933323,-0.0006591398793484767,-0.0005922203871315498,-0.005953074408401978,0.222,5.0,-0.001681266,0.001780264,0.979717308,-0.022237468,-0.018102586,-0.015341517,0.9999997247377892,-0.0005948073520293159,5.857003297597998e-06,0.000443502260818352,0.327,6.0,8.94e-17,-4.47e-17,0.979845906,-0.002858887,0.00144352,0.000842165,0.9999997589594981,-0.0005637754956261203,9.036658905358445e-06,0.00040516228254573847,0.222,7.0,5.94e-18,-2.99e-17,0.979582564,-0.004914056,-0.005023003,0.001480955,0.9999997833481048,-0.0003729735295996008,-0.00026962098472801146,-0.00047063681788295285,0.223,8.0,-0.00235093,0.001836772,0.979801561,0.002111809,0.007742255,-0.012160824,0.9999998970934137,3.0483964298193656e-05,0.0003474037158733856,-0.00029016296854019336
4,0.3,0.0,-9.83e-17,1.38e-17,0.979782119,-0.003903075,0.000178057,0.000294991,0.9999997140033212,-0.0005922453158401235,-0.0004527992526186219,-0.000127324773800856,0.3,1.0,0.001058878,-0.000740618,0.980244526,0.004677193,-0.003128388,0.005876259,0.9999991948617463,0.0003830588254438083,-0.0012076290918265,-7.192893833249957e-05,0.3,2.0,0.000807183,0.000539905,0.980239286,-0.005294217,-0.001451655,0.015375442,0.9999988161768959,-0.0005202049922740316,-0.0011298554450381738,-0.0009057915026354476,0.3,3.0,6.71e-06,-0.000995754,0.980331071,-0.006092341,-0.002374674,-0.013902962,0.999995962625586,-0.0004801325220601532,-0.0003564817733504601,-0.0027779715683493183,0.301,4.0,-1.11e-17,-2.32e-19,0.979962244,-0.012095287,-0.0033266,-0.012618504,0.9999773628401503,-0.0011985931967799515,-0.0006964807085654781,-0.006584230876069554,0.327,5.0,-0.000768532,0.002089999,0.979450888,0.006190617,0.006416845,0.000499198,0.9999998164313385,-0.00011926342168365585,0.0003655337357926905,0.00046829329858467933,0.417,6.0,8.94e-17,-4.47e-17,0.979845906,-0.008810735,-0.002679854,0.004199068,0.99999935361303,-0.0009478782068711121,-0.00012583909926585203,0.0006151950490058043,0.327,7.0,5.94e-18,-2.99e-17,0.979582564,-0.000303154,-0.002175267,-0.00616239,0.9999995734824534,-0.00035080197941302673,-0.0003515231426311819,-0.000778719694413862,0.327,8.0,-0.003134574,0.00244903,0.979696472,-0.006980735,-0.005568843,0.009645534,0.9999999433276531,-0.00019647979042896441,0.00019435665561584335,0.0001922651106383809
5,0.389,0.0,-9.83e-17,1.38e-17,0.979782119,-0.001064179,0.001465723,-9.51e-05,0.999999763588007,-0.0005862182632728685,-0.00033422922705658085,-0.00013214727313895803,0.39,1.0,0.000473492,-0.001550629,0.980279231,0.000448747,-0.00269055,0.005120526,0.9999991658531884,0.00028777876219674824,-0.0012456142943196198,0.00018417747254487754,0.39,2.0,0.002421548,0.001619716,0.979761967,0.001993588,-0.006435808,-0.012204585,0.9999977406879097,-0.00028556128775976175,-0.0014625767486063355,-0.001515896791145189,0.39,3.0,6.71e-06,-0.000995754,0.980331071,-0.000259854,-0.0116894,-0.02030373,0.9999922731262315,-0.0004971606401364025,-0.0009059687497798444,-0.003792853774513938,0.39,4.0,0.001179227,-0.00056491,0.979423448,-0.015856893,-0.016651421,-0.03149942,0.999963751144089,-0.001905168476298692,-0.0015171616195728541,-0.008158734677600055,0.417,5.0,-0.001681266,0.001780264,0.979717308,-0.019457221,-0.004283716,-0.018575615,0.9999993846420062,-0.0009896211871144732,0.00019926571886181755,-0.00046006378686957853,0.457,6.0,8.94e-17,-4.47e-17,0.979845906,-0.005471026,-0.000623273,0.004198355,0.9999990145108598,-0.0011266487433618337,-0.00014435060340857743,0.0008251077636881794,0.417,7.0,5.94e-18,-2.99e-17,0.979582564,-0.006146787,-0.004200105,0.002526461,0.9999994545662736,-0.0006232688961896529,-0.0005260578910560619,-0.0006524309414522153,0.418,8.0,-0.003297091,0.003836318,0.97947507,-0.001322319,-0.001295613,0.002312108,0.9999999126933542,-4.71126742315108e-05,0.00027847779323804736,0.000307967204002413
6,0.438,0.0,-9.83e-17,1.38e-17,0.979782119,-0.002970494,-0.010290657,0.0053223,0.9999994300904576,-0.0006762779450851677,-0.0008151392407855683,0.00013421966753122112,0.438,1.0,0.001222829,-0.002107519,0.979920947,-0.013632988,-0.003591685,-0.001983398,0.9999989267958538,-0.0005300143780975463,-0.0013632286634103145,8.425859508261341e-05,0.438,2.0,0.002421548,0.001619716,0.979761967,-0.008297395,0.002511102,-0.022382371,0.999995489676805,-0.0005875753029237589,-0.0013144957220855033,-0.0026358077143572006,0.438,3.0,0.000963162,-1.82e-05,0.979970955,0.024784597,-0.010821723,-0.02413041,0.9999862050925643,0.0007896945169925576,-0.0014093351664629153,-0.004997977744064233,0.439,4.0,0.003032089,0.00088739,0.980100005,-0.018193245,-0.013169132,-0.179878248,0.9998471871413531,-0.0025718466338202754,-0.0021944960028920995,-0.017151447685535566,0.457,5.0,-0.001681266,0.001780264,0.979717308,0.016856599,0.012665558,0.01154943,0.9999995890728444,4.347251182849999e-05,0.0008979651600420379,0.0001167169839204381,0.523,6.0,8.94e-17,-4.47e-17,0.979845906,-0.003321968,-0.000110911,0.013002788,0.999998206357457,-0.0011801712400867866,-0.00013483085586546678,0.001475228237671566,0.457,7.0,5.94e-18,-2.99e-17,0.979582564,-0.001998822,-0.009389508,-0.003532413,0.9999989934068831,-0.0006610963994172218,-0.0009429785929824469,-0.0008288112840026413,0.457,8.0,-0.003297091,0.003836318,0.97947507,-0.002939035,0.004935853,-0.000812194,0.9999997426071089,6.34042433038239e-06,0.0006657450350971152,0.00026744917866837687
7,0.495,0.0,-9.83e-17,1.38e-17,0.979782119,-0.000378484,-0.001305421,0.018704649,0.9999989120578846,-0.0006283277278955929,-0.0007983109792947977,0.0010694797303744277,0.495,1.0,0.001222829,-0.002107519,0.979920947,0.013294764,-0.009476176,0.003076556,0.9999984139370546,8.002502521009789e-05,-0.0017630733373918772,0.00023935700843649715,0.496,2.0,0.001314015,-0.000301237,0.980050602,-0.009186842,0.021220045,-0.010124739,0.9999945418986427,-0.001000239986613364,-0.00018834166207363606,-0.003143281774075762,0.496,3.0,0.001926324,-3.65e-05,0.979702653,-0.036503544,-0.003040865,-0.041715473,0.9999731278765361,-0.0011145795449677355,-0.0015119390827306753,-0.007086273877327252,0.496,4.0,0.003595052,-0.000950319,0.979546922,0.036184268,-0.029124019,0.12981333,0.999936445516347,-0.0005963517258137194,-0.003640902189763485,-0.01065331516464926,0.523,5.0,-0.002087459,0.002538232,0.979206924,-0.020752519,0.00143735,0.003946193,0.9999990862325415,-0.0008687377208609788,0.0009866903287618235,0.00031507308582344327,0.627,6.0,8.94e-17,-4.47e-17,0.979845906,-0.004159128,0.000620012,-0.0056326,0.9999984769954842,-0.0012701180417447123,-9.101171338230519e-05,0.00119353413856856,0.523,7.0,5.94e-18,-2.99e-17,0.979582564,-0.012104962,-0.005979114,0.00564231,0.9999984718891367,-0.0012007477272111427,-0.0011467955710225428,-0.0005470687389742522,0.523,8.0,-0.004090968,0.004604997,0.980357617,-0.003781926,0.001741352,0.018417083,0.9999988919072452,5.2002491871961416e-05,0.0008948456551785156,0.0011885837270605242
8,0.57,0.0,0.000284174,0.000899187,0.979449392,0.009041438,-0.011377079,-0.003615773,0.9999987555720304,-6.675273712405864e-05,-0.0013013192857507655,0.0008893630187505193,0.57,1.0,0.001222829,-0.002107519,0.979920947,0.006620529,0.004289735,0.055892518,0.9999943226647391,0.00029054911448169547,-0.0014354271896661534,0.003034760004468366,0.57,2.0,0.002421548,0.001619716,0.979761967,0.044231494,-0.014450913,0.062058398,0.9999985045723033,0.0013907773392158056,-0.0010271544191415057,-3.9310928322960374e-05,0.571,3.0,0.001933038,-0.001032244,0.979794467,-0.039317495,0.006242562,0.000242862,0.9999697521471327,-0.003020115750793057,-0.0011329257590268738,-0.007077440983728044,0.571,4.0,0.002081045,-0.002577061,0.979794891,-0.001219295,0.005397514,0.023741489,0.9999500892327039,-0.0007317588133265569,-0.003110218169593691,-0.009466261959407226,0.627,5.0,-0.003000193,0.002228496,0.979473345,0.001488587,0.003032876,0.020417587,0.9999982196789756,-0.0005927648559304095,0.0011934814123608197,0.0013359905774773086,0.657,6.0,8.94e-17,-4.47e-17,0.979845906,-0.002073034,0.005959065,0.001629646,0.999998386672165,-0.001247120956588678,0.000216020122747037,0.001274628453125391,0.627,7.0,5.94e-18,-2.99e-17,0.979582564,-0.000134019,-0.002087324,0.001484875,0.9999986512267044,-0.0010875164317622026,-0.001136397950965636,-0.000472707604974133,0.628,8.0,-0.004874612,0.005217255,0.980252528,-0.001449637,-0.000498065,-0.00205675,0.9999988516672612,0.00024007318651059944,0.0010293483561621098,0.0010860345232431845
9,0.63,0.0,0.000284174,0.000899187,0.979449392,-0.002612509,-0.006295721,0.00331045,0.999998307558747,-0.00014472266300800596,-0.001500531322134851,0.0010546756582390639,0.63,1.0,0.001222829,-0.002107519,0.979920947,0.022158077,0.003092801,0.008410334,0.9999925126906212,0.0012609721752187642,-0.0011971338995915397,0.003457077132158411,0.631,2.0,0.000300351,0.001381047,0.980427969,-0.000458753,0.024731907,-0.059685729,0.9999945407427456,0.0013022991402194854,0.00030072182888785554,-0.0030219311765991267,0.631,3.0,0.001933038,-0.001032244,0.979794467,-0.014364932,0.002784378,-0.002969006,0.9999673226545099,-0.0034885492463488134,-0.0009741233480662078,-0.00722735989348628,0.631,4.0,0.003876534,-0.001869173,0.979270381,-0.006925332,0.000770573,-0.00203588,0.9999492446504058,-0.0011014559766034308,-0.002954520059964815,-0.009568998329496014,0.658,5.0,-0.003000193,0.002228496,0.979473345,-0.006587932,-0.001949066,-0.020905027,0.9999990389025323,-0.0007504476007793644,0.0011287597932975507,0.0002914167793339851,0.716,6.0,8.94e-17,-4.47e-17,0.979845906,0.001316555,0.012089449,0.023245742,0.9999961537088232,-0.001057100165771559,0.0008002006918244828,0.0024361415500196437,0.658,7.0,5.94e-18,-2.99e-17,0.979582564,-0.004279781,-0.001818428,-0.001342338,0.9999985228069007,-0.0011927205044655407,-0.0011136586056057873,-0.0005399688183772331,0.658,8.0,-0.005658255,0.005829512,0.980147438,-0.003794925,0.000791655,0.003016211,0.9999983951026594,0.0003234880310618937,0.0012546998378605413,0.001237285705164065
10,0.71,0.0,0.000284174,0.000899187,0.979449392,-0.002854244,0.002230546,0.006737578,0.999998220679728,-0.0002276676136068038,-0.0012534835404435264,0.0013912526187511477,0.71,1.0,2.18e-17,1.72e-17,0.979669842,0.020463888,0.013711142,0.006386673,0.9999904631158423,0.002155306950409128,-0.0003890206264946733,0.0037784907390364325,0.71,2.0,-0.002930647,0.000633815,0.980380033,-0.00480171,0.05707189,0.067529474,0.9999941113149987,0.0009743874921428126,0.003271025415546613,0.00035818580675921977,0.711,3.0,0.002902914,-0.002046242,0.97961798,0.008488777,-0.004310937,0.022960434,0.9999767709050799,-0.0028234468307024724,-0.0012394839552374484,-0.006078608209815922,0.711,4.0,0.003876534,-0.001869173,0.979270381,0.016184785,-0.010854339,0.036761078,0.9999642965700001,-0.0002900471695191859,-0.0034059746748872424,-0.007727923033924965,0.776,5.0,-0.003406386,0.002986464,0.97896296,-0.009127833,-0.000446432,0.012756805,0.9999984064455297,-0.00097858853659285,0.0011680762318139568,0.0009300907449962541,0.776,6.0,8.94e-17,-4.47e-17,0.979845906,-0.002480659,0.002518569,0.002887727,0.9999957342182382,-0.001075614029342857,0.0008459618426395461,0.002580493818470031,0.776,7.0,5.94e-18,-2.99e-17,0.979582564,-0.004279011,0.006582923,0.008129039,0.9999989358161594,-0.0012876737451151048,-0.0006725080866782599,-0.0001341482325840519,0.776,8.0,-0.006279382,0.005054481,0.980263751,-0.008125448,-0.002462548,0.004723758,0.9999980238762296,0.0001427239447327761,0.0013261675606522257,0.0014741618338262907
11,0.774,0.0,0.000284174,0.000899187,0.979449392,0.004132829,0.009551125,0.006785675,0.9999982804369987,4.657333365825146e-05,-0.0006647508638099489,0.001730624239712868,0.775,1.0,0.000421436,0.002176912,0.979958715,0.060346013,0.003583353,0.005190541,0.9999789851542825,0.005067379534318755,-0.0001819504504047788,0.004039530727703716,0.775,2.0,-0.004547279,0.000966394,0.979854779,-0.007869435,0.032304048,0.05962752,0.9999827984211385,0.0005418821371318289,0.004789377677163864,0.003342317615559124,0.775,3.0,0.002902914,-0.002046242,0.97961798,-0.005069364,0.002796852,0.042108967,0.9999872708433131,-0.0029016587618159667,-0.0011155693886753199,-0.003974170694787369,0.775,4.0,0.004827578,0.001595278,0.979575495,0.072481016,-0.026735803,0.025024177,0.9999622738312983,0.0034278003276361625,-0.004681412391122181,-0.006464168707402527,0.808,5.0,-0.003000193,0.002228496,0.979473345,-0.015144228,-0.009335785,-0.001811864,0.9999982134664865,-0.0015239955453771928,0.000736896655159893,0.0008411211164418612,0.808,6.0,8.94e-17,-4.47e-17,0.979845906,-0.007191591,0.002346911,-0.000439785,0.9999954596064228,-0.0013279521511636537,0.0008777537362882621,0.002558682864654537,0.808,7.0,5.94e-18,-2.99e-17,0.979582564,-0.000214375,-0.006195642,0.005672599,0.9999988861415944,-0.0011698575882761965,-0.0009147058821387394,0.00014987309011273224,0.808,8.0,-0.007063025,0.005666738,0.980158662,-0.000629007,-0.001139219,-0.001946701,0.9999978564239108,0.0003854850480283038,0.0014972955085225134,0.0013771909894628185
12,0.841,0.0,-9.83e-17,1.38e-17,0.979782119,-0.000647128,0.006947643,0.018223152,0.9999964789893429,8.352821009927787e-06,-0.00025095827400945176,0.0026417719606711882,0.841,1.0,-0.000327901,0.002733801,0.980316999,-0.003189645,0.002871645,0.013222296,0.9999786439772548,0.004539832079822335,-6.535088575832959e-06,0.004701220202282144,0.841,2.0,-0.008078628,-0.001161886,0.979856819,0.02310944,-0.044831134,0.076929721,0.9999698485935196,0.0016083786082323316,0.002478602090458102,0.007181333705058219,0.842,3.0,0.002902914,-0.002046242,0.97961798,-0.013733208,0.001592997,-0.02924262,0.9999788548840849,-0.003401218819586696,-0.0010743555409677033,-0.005437578084709531,0.842,4.0,0.00510906,0.000676424,0.979298953,0.007455156,0.002869235,0.021406576,0.9999699857821962,0.0034865343491262287,-0.004337023003064657,-0.005390903862783634,0.868,5.0,-0.001580917,0.003605935,0.978430119,-0.64632432,-0.287155331,-0.772109363,0.9986166325594744,-0.03347362471081927,-0.014914170482970645,-0.03770815751399031,0.868,6.0,8.94e-17,-4.47e-17,0.979845906,-0.01283298,0.032664561,0.100109661,0.9999667641697549,-0.001836555688125604,0.002430693809833912,0.007562363828669334,0.868,7.0,5.94e-18,-2.99e-17,0.979582564,-0.146634546,-0.021891482,0.081911135,0.9999540566154321,-0.00838780906610398,-0.0018844775647673506,0.004240054447715117,0.868,8.0,-0.017789113,0.018570058,0.983066478,0.02281206,-0.017213971,0.179680351,0.9999424062706187,0.00244498165199629,0.0013722242276601685,0.010359691458507717
13,0.9,0.0,0.000284174,0.000899187,0.979449392,0.0051347,0.005400907,0.002720113,0.9999960934768702,0.00030944480699475805,3.0432510773533684e-05,0.0027778316673772096,0.9,1.0,0.000421436,0.002176912,0.979958715,0.014139573,-0.019154679,-0.02249383,0.9999810964889119,0.004908493831277953,-0.0009757333975861867,0.0035722958274253913,0.9,2.0,-0.005147981,-0.001795701,0.97995473,-0.003784699,-0.036094618,0.024016306,0.999963963857072,0.0011807454924388518,0.0006852903747219279,0.008378973948941219,0.9,3.0,0.0041282,-0.000978501,0.980216813,0.045511783,-0.019492443,-0.00182467,0.9999820481342926,-0.0008417968491068464,-0.0021642674135644953,-0.005523652213228662,0.901,4.0,0.006341586,0.003222021,0.979327526,-0.039760241,-0.00064777,-0.132987458,0.9999175300313473,0.0013413735207918219,-0.004240616562798222,-0.012047863887634926,0.927,5.0,-0.003406386,0.002986464,0.97896296,-0.011421043,0.000706397,0.018687676,0.9987690961559474,-0.030554658137543638,-0.01317131378810419,-0.03678616483170055,0.927,6.0,8.94e-17,-4.47e-17,0.979845906,-0.005471026,-0.000623273,0.004198355,0.9999656138891608,-0.0019256978921502281,0.0021547997751825655,0.0077730023048096,0.927,7.0,5.94e-18,-2.99e-17,0.979582564,-0.00704867,0.002342318,0.018165573,0.9999542829807925,-0.007903710712472967,-0.001573247626814222,0.005146668558163003,0.927,8.0,-0.007063025,0.005666738,0.980158662,-0.001978858,-0.00265783,0.009236321,0.9999375294168857,0.002388874283041912,0.0014632512449888853,0.010820787360850924
14,0.975,0.0,0.000284174,0.000899187,0.979449392,0.007261415,-0.004361504,0.020642574,0.9999924846487876,0.0006881480678769263,-0.0002047652205743013,0.0038098778701736173,0.975,1.0,0.001644265,6.94e-05,0.98020982,-0.045506505,-0.017932135,0.005767585,0.9999885188379585,0.002149094032105581,-0.001867359003752912,0.0038544205087441678,0.975,2.0,-0.001916983,-0.001048469,0.980002666,0.05776198,-0.087835467,-0.117429034,0.9999825666294462,0.0039291443338503994,-0.0036303331723958974,0.002499788600384582,0.975,3.0,0.004121486,1.73e-05,0.980124999,-0.006794718,0.001260063,0.048379401,0.9999923844939433,-0.0011025136652552988,-0.0020905415274962537,-0.0031056487015358528,0.975,4.0,0.005729396,-0.000416873,0.979946937,0.018122856,-0.008949705,0.174409101,0.9999818745695793,0.002046142696626393,-0.004584673659503828,-0.0033233416633322624,0.958,5.0,-0.003000193,0.002228496,0.979473345,-0.001714694,0.002465446,0.000922501,0.9988800534675575,-0.027464868736717517,-0.01157922688540464,-0.03674562932731947,0.958,6.0,8.94e-17,-4.47e-17,0.979845906,-0.0059078,0.007021169,0.013485323,0.9999596407590944,-0.002029784333538895,0.002289439201455124,0.008447206440297811,0.959,7.0,5.94e-18,-2.99e-17,0.979582564,0.00053787,-0.003919979,-0.004846422,0.999961563939415,-0.007085099890995463,-0.001613501267540324,0.004905977683778323,0.959,8.0,-0.007063025,0.005666738,0.980158662,-0.006606422,-0.008993086,0.006834108,0.9999347307063372,0.0021102022949719547,0.0012263986320575101,0.011161421052643616
15,1.039,0.0,-0.000174008,0.001331393,0.980226095,0.001440353,0.003330838,0.010231685,0.9999903742979414,0.0007584890501109876,-8.727519391984132e-06,0.004321565648506425,1.039,1.0,0.004201819,-0.001785005,0.980067936,-0.011041531,-0.041091626,-0.013782415,0.9999863535852443,0.001301082431012777,-0.003951114025628858,0.003160462901340659,1.039,2.0,0.004845363,0.001827043,0.980048562,-0.060578152,-0.020796192,-0.023763357,0.9999885729452133,0.000608075216629369,-0.004560883149721257,0.001297138551451801,1.04,3.0,0.003158324,3.55e-05,0.980393301,-0.01538456,0.013240959,-0.032059748,0.9999864094580803,-0.0017547615961586065,-0.0013809479358411264,-0.004711124459798454,1.04,4.0,0.005447914,0.000501981,0.980223479,-0.01816953,0.013543821,-0.031939331,0.9999804878101135,0.0009673213869649034,-0.0037224272060420857,-0.004922583069612438,1.085,5.0,-0.003000193,0.002228496,0.979473345,-0.016598442,-0.008327469,0.002894707,0.9989491204070899,-0.025447620757751886,-0.010655297953841895,-0.03659970028819466,1.085,6.0,8.94e-17,-4.47e-17,0.979845906,-0.002858887,0.00144352,0.000842165,0.9999597506684917,-0.0019702596254873544,0.002131545943314586,0.008489501275556558,1.086,7.0,5.94e-18,-2.99e-17,0.979582564,-0.009418679,-0.001924718,-0.004171155,0.9999643232638223,-0.006846733496600667,-0.0015521299384038572,0.004697375076242846,1.086,8.0,-0.007063025,0.005666738,0.980158662,-0.000435599,-0.002946893,-0.003955727,0.9999366925539681,0.002163831436983864,0.001320099724791708,0.010962940046339747
16,1.125,0.0,-0.000174008,0.001331393,0.980226095,7.12e-05,0.005949682,-0.003268767,0.9999910260111651,0.0007527893992432618,0.0002989343948639628,0.004158346244028543,1.125,1.0,0.003194995,-0.004771927,0.979813768,-0.035870524,0.021740499,0.058273914,0.9999777185066555,-0.000880451789754057,-0.0026358888085592264,0.006069545704461141,1.125,2.0,0.003435212,-6.26e-05,0.9793846,-0.008389447,0.041334262,0.110474796,0.9999742859643066,9.695493274519944e-05,-0.002214518062969402,0.006820111411463793,1.125,3.0,0.003158324,3.55e-05,0.980393301,0.012483019,-0.007170611,-0.019751237,0.9999817539038999,-0.0009544198482679324,-0.0017663390120952285,-0.005697454565692962,1.125,4.0,0.005729396,-0.000416873,0.979946937,0.007042072,-0.006100859,0.019865462,0.9999837690831749,0.0011947798527637305,-0.003950360843804134,-0.003927941001964001,1.123,5.0,-0.001681266,0.001780264,0.979717308,-0.00228109,-0.004948834,-0.00963762,0.9990016215076294,-0.022928702336268467,-0.009762234334081417,-0.03707740032834727,1.122,6.0,8.94e-17,-4.47e-17,0.979845906,-0.004374362,0.000971402,-0.000237794,0.9999601454893797,-0.0019923822804693947,0.00196508069774155,0.008477989358218993,1.123,7.0,5.94e-18,-2.99e-17,0.979582564,-0.000904583,-0.00162864,-0.008525469,0.999970520289299,-0.006206271274439516,-0.0014812108176680493,0.0042716230791427934,1.123,8.0,-0.007846669,0.006278996,0.980053572,0.002176887,0.000135745,-0.005477188,0.9999387826169436,0.0023717714242717587,0.0016005082360080404,0.010688502806392873
17,1.184,0.0,0.000110166,0.00223058,0.979893368,-0.000671899,-0.000610308,-0.015337018,0.9999939344106226,0.0007576529202309389,0.00023381893391772094,0.003391523657885083,1.185,1.0,0.003194995,-0.004771927,0.979813768,0.037726787,-0.006711487,-0.023192375,0.9999834615332309,0.0008564821745383978,-0.0028599373274837713,0.004915674601179738,1.185,2.0,0.001013664,-0.001682284,0.980100578,-0.027333777,0.017631937,-0.089124693,0.9999955913232286,-0.0013610376164476217,-0.0011791266620381135,0.002361052949005036,1.185,3.0,0.004121486,1.73e-05,0.980124999,0.002518593,0.000285041,-0.031309618,0.9999717603984896,-0.0007305210614309222,-0.0017875653029098427,-0.007262875106491,1.186,4.0,0.005729396,-0.000416873,0.979946937,0.00643141,-0.003665168,-0.024192264,0.9999777380417069,0.0013785074278321297,-0.004030415790655006,-0.0051360380467407145,1.175,5.0,0.013949963,-0.015310521,0.990878391,-0.156389858,-0.169453247,-0.281415438,0.9981020508965412,-0.029413576557488847,-0.018040258235938075,-0.05100673085971694,1.175,6.0,8.94e-17,-4.47e-17,0.979845906,-0.024403347,0.024809445,0.020690926,0.9999456850725681,-0.0030217300830340634,0.003001760322289849,0.009512385979622935,1.175,7.0,-0.000231636,-0.002179876,0.980023568,0.067424838,-0.067310654,-0.21260755,0.999966283029612,-0.0022952507644679867,-0.004697071119933865,-0.0063326258980464425,1.175,8.0,-0.007846669,0.006278996,0.980053572,0.026239568,-0.009553902,0.004435813,0.999932470655139,0.003767974154984159,0.0013796818789229104,0.010906556660560158
18,1.23,0.0,0.000110166,0.00223058,0.979893368,0.004654893,0.005853512,0.003533474,0.9999929811240488,0.0010275149166696427,0.0004984831729827471,0.0035683932322838744,1.23,1.0,0.004365769,-0.003151905,0.979744357,0.017565838,-0.006121726,-0.032662552,0.9999886892754968,0.001495536609779025,-0.0030968517497970698,0.0032854528702050594,1.23,2.0,0.001820847,-0.001142379,0.979861919,0.009165628,0.004248889,0.022328968,0.9999931696188928,-0.0008265460574625748,-0.0009398159031955769,0.003477683603083886,1.23,3.0,0.004114772,0.001013006,0.980033184,0.00768534,0.006489087,0.010885169,0.9999762855752602,-0.00022167155742249323,-0.001497330501309697,-0.006718418727344181,1.23,4.0,0.004215389,-0.002043616,0.980194906,0.008513094,0.009567892,0.075330244,0.9999921845218693,0.0015482267778340782,-0.003371460473129254,-0.001366434521698943,1.227,5.0,-0.002087459,0.002538232,0.979206924,0.011053336,-0.000754468,-0.016072677,0.998192786251948,-0.025776520470593714,-0.01622504535223819,-0.051802320124873735,1.227,6.0,8.94e-17,-4.47e-17,0.979845906,-0.003424242,-0.002711112,-0.019564655,0.9999561109513808,-0.002892409223682022,0.0025615770897460984,0.008535131087797767,1.227,7.0,5.94e-18,-2.99e-17,0.979582564,0.004881189,-0.005301077,-0.016119817,0.999962772159654,-0.0018195740407170823,-0.004495432440682128,-0.007136843298070345,1.227,8.0,-0.007846669,0.006278996,0.980053572,0.004911796,-0.002828629,-0.001621716,0.999932470282732,0.003954128299715663,0.0015070598824019842,0.010823516719326754
19,1.304,0.0,0.000110166,0.00223058,0.979893368,0.006899501,0.01544327,0.005139,0.9999909873584847,0.0013809443009453368,0.0012164524119081044,0.0038260211931463164,1.304,1.0,0.004201819,-0.001785005,0.980067936,0.040639374,-0.008323996,-0.041874048,0.9999880573318888,0.00329541578932406,-0.0034044380593092234,0.001198010797503412,1.305,2.0,0.001820847,-0.001142379,0.979861919,0.028046813,-0.008170613,0.071986972,0.999973863525902,0.0005984870696716018,-0.001344739844469257,0.007078541732488012,1.305,3.0,0.0028962,-0.001050489,0.979526165,-0.0450512,0.026207122,0.027090335,0.9999824565696189,-0.002499862828690876,-0.00016621053175734228,-0.0053674586991602005,1.305,4.0,0.003595052,-0.000950319,0.979546922,0.00603116,0.01283447,0.037967361,0.9999951842489514,0.0016406768153833969,-0.0025795533711619268,0.0005343808553850886,1.302,5.0,-0.002493652,0.0032962,0.97869654,-0.009589145,-0.005948873,0.000848743,0.998273223980556,-0.02352134276020854,-0.01475671277943212,-0.0517644293522946,1.302,6.0,8.94e-17,-4.47e-17,0.979845906,-0.001531001,0.000350247,-0.008835961,0.9999609591915855,-0.002680999027923775,0.002321095410292664,0.008093506839001856,1.302,7.0,5.94e-18,-2.99e-17,0.979582564,-0.001990674,0.000871158,0.003260524,0.9999661635828841,-0.001737572397623127,-0.0040013475649851955,-0.006974363709752086,1.302,8.0,-0.007846669,0.006278996,0.980053572,-0.00089873,-0.006116785,0.000959461,0.9999325247207761,0.003833146019062318,0.0014536070831011334,0.010869223687962776
20,1.38,0.0,-0.000732042,0.002298849,0.979358555,-0.000460734,0.011439574,0.014260551,0.9999873512393883,0.0013357129249414988,0.0017035603627912565,0.004539946508986317,1.38,1.0,0.004201819,-0.001785005,0.980067936,-0.008156863,-0.005611531,-0.017106072,0.9999905624305475,0.002470481084890172,-0.0035574155685350025,0.0003414198576475724,1.38,2.0,0.003435212,-6.26e-05,0.9793846,0.025849622,-0.029340427,-0.065241893,0.9999869880950236,0.0018439142871672517,-0.002837488889369455,0.003817365262515656,1.38,3.0,0.001946465,-0.003023751,0.979978096,-0.035549885,0.012279008,0.017911076,0.9999811878832392,-0.0041789930845578275,0.0003791509195159722,-0.004473940210299975,1.38,4.0,0.001464782,-0.00384986,0.979780605,-0.014430119,0.006399555,0.125617254,0.9999744712422912,0.0005423036983709835,-0.0020802296828585027,0.006814353591156839,1.377,5.0,-0.001681266,0.001780264,0.979717308,-0.009596052,-0.014099278,0.003796541,0.9983395278414847,-0.021594140028838055,-0.013876047536215456,-0.05156874606221364,1.377,6.0,8.94e-17,-4.47e-17,0.979845906,-0.001666208,-0.004332015,-0.006260839,0.9999648622267601,-0.002495182022321352,0.0018709389757489956,0.007781257343218212,1.377,7.0,5.94e-18,-2.99e-17,0.979582564,0.001538383,-0.001685478,-0.007523258,0.9999650880924905,-0.001485984519580444,-0.0036865866409159925,-0.0073500697360225275,1.377,8.0,-0.007846669,0.006278996,0.980053572,-0.000547115,-0.008358927,-0.003099727,0.9999347869301053,0.0037427575171114307,0.001294367199703008,0.010711594968318685
21,1.44,0.0,-0.001016216,0.001399662,0.979691282,-0.003769568,0.008812233,0.00118691,0.9999867818741722,0.0010829640882176895,0.0020250782478090615,0.004600252581155223,1.44,1.0,0.004201819,-0.001785005,0.980067936,0.015998697,0.006005105,-0.027509602,0.9999903157241895,0.0029371622883654163,-0.0031115024109056913,-0.0010296058830998262,1.44,2.0,0.003230998,0.000747232,0.98052588,0.017778222,0.003786293,-0.095849658,0.9999929895166003,0.002600013930437264,-0.002513150691339369,-0.0009720693475913493,1.44,3.0,0.001953179,-0.004019504,0.98006991,0.040676959,-0.016315523,-0.003134238,0.9999872438596681,-0.0019364738831203173,-0.0005826565300380037,-0.004628466075581051,1.44,4.0,0.004496871,-0.00296247,0.979918365,0.029244412,-0.035088885,0.032121351,0.9999554791003871,0.001809256393783077,-0.0038499821309701835,0.008422828860213028,1.452,5.0,-0.002087459,0.002538232,0.979206924,-0.003930481,-0.002802617,0.007515049,0.998419634675098,-0.019509867626686387,-0.012512028525798774,-0.051196164920847526,1.452,6.0,8.94e-17,-4.47e-17,0.979845906,-0.000707854,-0.002229445,-0.005309307,0.9999679176582026,-0.0022806860718080895,0.0015714966107931135,0.007516150860794835,1.452,7.0,5.94e-18,-2.99e-17,0.979582564,0.000825906,0.001703561,0.00173075,0.9999675546135142,-0.0012957868737089196,-0.0032329485319805566,-0.007263518461190365,1.452,8.0,-0.007846669,0.006278996,0.980053572,0.003440724,-0.002999085,-0.001609963,0.9999350561726036,0.003858035420678041,0.0014208464276252123,0.01062921423313561
22,1.515,0.0,-0.000732042,0.002298849,0.979358555,0.007150175,0.004685495,0.005655412,0.9999848331021324,0.001448857440346304,0.0020959902132382333,0.0048827454207478775,1.515,1.0,0.004623255,0.000391907,0.980356808,0.033087076,-0.018502177,0.000531614,0.9999823308888016,0.004316482557659051,-0.003963075406886938,-0.000999960923381976,1.515,2.0,0.004845363,0.001827043,0.980048562,0.000650317,-0.032659294,-0.008060203,0.999987437052101,0.0024649228471970044,-0.004141102403319693,-0.0013788271149694459,1.516,3.0,0.003165038,-0.000960255,0.980485115,0.002222261,0.002863923,0.019491994,0.999991762846484,-0.001681333455554887,-0.0005412439416442783,-0.003654368890580658,1.516,4.0,0.003264345,-0.005508067,0.979889792,0.034239769,-0.002940456,0.079964806,0.9999109845384997,0.003046389246481212,-0.0037786707058330813,0.0124283610948522,1.527,5.0,-0.000768532,0.002089999,0.979450888,-0.010642138,-0.013370955,-0.011387485,0.9984264055042831,-0.018009831566686473,-0.011878334369186108,-0.051761606730761814,1.527,6.0,8.94e-17,-4.47e-17,0.979845906,-0.000108986,-0.002132524,0.003285297,0.9999675320519826,-0.00205700869770667,0.0013080222997413967,0.007680666295855414,1.527,7.0,5.94e-18,-2.99e-17,0.979582564,0.006181882,-0.004372154,-0.013219554,0.9999633421677329,-0.0008565780676083619,-0.0031310689125239985,-0.007923193940366545,1.527,8.0,-0.007846669,0.006278996,0.980053572,0.00348538,-0.003681603,-0.005919344,0.9999376471472007,0.003964085643510547,0.0015014004170348044,0.010331197390387669
23,1.604,0.0,0.000220332,0.00446116,0.980004617,0.015438059,-0.004311307,0.024089831,0.9999774395374251,0.002307091815079386,0.0016616916364022066,0.00608576408001578,1.604,1.0,0.005372592,-0.000164983,0.979998525,-0.038892089,0.008127189,0.036578752,0.9999919047777985,0.001924700407896455,-0.003436068067402318,0.0008242229348829935,1.605,2.0,0.00373783,-9.39e-05,0.980337197,-0.002436071,0.01097805,0.135067492,0.999977699383778,0.00206431787696085,-0.003382416743270913,0.0053757403028979,1.605,3.0,0.001939751,-0.002027997,0.979886281,0.010688413,0.001139623,0.034389194,0.9999974015807092,-0.001083342228807312,-0.0005288271088870569,-0.0019348238509734178,1.605,4.0,0.004215389,-0.002043616,0.980194906,0.006515765,-0.012963877,-0.115648725,0.9999644206534454,0.0029958046328688614,-0.004243841233912502,0.006646231518883261,1.602,5.0,-0.001580917,0.003605935,0.978430119,-0.020628425,-0.012432595,0.008554599,0.9984724759424967,-0.017088692920681464,-0.011179950823629601,-0.051339069519269025,1.602,6.0,8.94e-17,-4.47e-17,0.979845906,0.000474242,-0.006295161,-0.000621292,0.9999686988190094,-0.0018252202754615722,0.0008625977541400506,0.007650220799305941,1.603,7.0,5.94e-18,-2.99e-17,0.979582564,-0.006121591,0.002382001,0.02359782,0.9999730413199013,-0.0010797416251743697,-0.0026951637863371946,-0.0067443964603771745,1.603,8.0,-0.007846669,0.006278996,0.980053572,-0.001064607,-0.004086113,-0.005902427,0.9999411090478635,0.0038322972926500857,0.0015511350097704994,0.010034237079670591
24,1.657,0.0,0.000220332,0.00446116,0.980004617,-0.007708615,0.001658293,0.004192394,0.9999771098856656,0.0019184761529471481,0.0015658331673493026,0.006296611823355731,1.658,1.0,0.004201819,-0.001785005,0.980067936,-0.006215081,5.27e-05,-0.013080485,0.9999936402784735,0.0013328380787996708,-0.003303648097158367,0.00016986616240991504,1.658,2.0,0.002027328,-0.003364568,0.979723211,-0.036982158,0.019929435,-0.020758404,0.999988255443749,-0.00016420177285503973,-0.002162199200418382,0.004334386572854409,1.658,3.0,0.004121486,1.73e-05,0.980124999,0.021121548,-0.017276088,-0.012121914,0.9999955675418233,8.019007967027995e-05,-0.0015519909466648316,-0.002539643746469638,1.658,4.0,0.005729396,-0.000416873,0.979946937,0.055533097,-0.028111399,0.035695852,0.9999343341766603,0.005455137244839953,-0.005508669057466526,0.008439394381951116,1.677,5.0,0.000956589,0.000883799,0.980205236,-0.042671464,-0.023622871,-0.022323518,0.9984065087498131,-0.017516467520249997,-0.011202808169216094,-0.05246059226452908,1.677,6.0,8.94e-17,-4.47e-17,0.979845906,-0.004893552,0.002436943,0.000696282,0.9999682851601973,-0.0018882710283587803,0.0008963755502366735,0.007685025515296674,1.677,7.0,0.000349731,-0.000926352,0.97972242,0.002981518,-0.006797923,0.009914844,0.9999762262524037,-0.0008737193383645508,-0.002783637617574594,-0.00624779210068328,1.677,8.0,-0.007846669,0.006278996,0.980053572,0.002107688,-0.004130894,0.001736396,0.99994003089423,0.003872952534192701,0.0015937032565058748,0.010119039670085131
25,1.724,0.0,0.000504506,0.005360347,0.97967189,-0.00104945,0.002772922,0.016039402,0.9999717429091752,0.0019482718408325248,0.0015219762613897432,0.007099380837805177,1.725,1.0,0.004787205,-0.000974994,0.98003323,0.009534321,-0.009784616,0.022970751,0.9999909355686326,0.0016228550788874596,-0.0037085346410119604,0.001319807857220767,1.725,2.0,0.002027328,-0.003364568,0.979723211,0.011491605,0.002971531,0.063871409,0.9999698179842191,0.00024797752630453123,-0.0018999079617843875,0.007529407512608159,1.725,3.0,0.005077935,0.000994761,0.979764883,0.012420503,-0.005642472,-0.027885691,0.9999901089727493,0.0007447434778961932,-0.0019387147786242434,-0.003933026675242229,1.725,4.0,0.006010878,-0.001335727,0.979670396,-0.002960417,-0.008290487,-0.04993989,0.9999551713932532,0.004713282915114268,-0.005669120054355736,0.005941485156162448,1.738,5.0,-0.001174724,0.002847967,0.978940503,0.043539437,0.021099246,0.030879543,0.9985718561862701,-0.013404900551400303,-0.009070516151367334,-0.05091446170452903,1.738,6.0,8.94e-17,-4.47e-17,0.979845906,-0.002608575,-0.008771143,-0.007059542,0.9999713773169078,-0.0018268148778889165,0.0003665461526498154,0.007333003357843515,1.738,7.0,0.001280829,-0.000599181,0.979561126,0.007308788,-0.011195257,-0.007569405,0.9999730461865961,-0.00045435392841815454,-0.0031326633485502255,-0.0066247175903507835,1.738,8.0,-0.007846669,0.006278996,0.980053572,-0.002259055,-0.007979885,-0.009716051,0.9999457695842083,0.003692238343273194,0.0014395317297164936,0.009630836675018399
26,1.789,0.0,0.000504506,0.005360347,0.97967189,0.006755505,-0.013033177,0.009889311,0.9999681253035143,0.0023703385388175687,0.0006955622264819787,0.007592500600979418,1.789,1.0,0.004787205,-0.000974994,0.98003323,0.016571815,-0.01226157,0.02351537,0.9999855734295089,0.002236179144237481,-0.004196585981928263,0.002498219723603335,1.789,2.0,0.002834511,-0.002824662,0.979484552,0.014061721,-0.008443925,0.046739384,0.9999484200899597,0.0007818752151352276,-0.0022743962159291406,0.00986777343650395,1.79,3.0,0.005084648,-9.92e-07,0.979856697,-0.014128459,0.000888768,0.022077655,0.9999940789629782,-3.9186437947889976e-05,-0.001957035709854692,-0.002830285257374989,1.79,4.0,0.006010878,-0.001335727,0.979670396,-0.006473717,-0.007438419,0.025699539,0.9999497503563871,0.0038468836687732023,-0.005788159767372294,0.007224642188061228,1.787,5.0,-0.001174724,0.002847967,0.978940503,-0.027794873,-0.015694278,-0.007342058,0.9985559054813193,-0.013340908086063185,-0.008828979279844907,-0.05128521155945383,1.787,6.0,8.94e-17,-4.47e-17,0.979845906,-0.007236539,-0.002482709,-0.000127002,0.9999711262892714,-0.00200504256132516,0.0002030937872787408,0.007327014740431004,1.79,7.0,0.001280829,-0.000599181,0.979561126,-0.006580987,-0.004981852,-0.001565764,0.9999723287521669,-0.0007703803950320232,-0.0031315384955585834,-0.006703857894237344,1.79,8.0,-0.007063025,0.005666738,0.980158662,-0.008475546,-0.019939944,0.018444685,0.9999390367128956,0.003195774476209938,0.0006546628534392007,0.010548995200112642
27,1.838,0.0,-0.002058129,0.002538434,0.975867983,-0.097248912,0.002554248,-0.102382761,0.9999932139919185,-0.002604445362157376,0.000809884502299022,0.0024764736140854946,1.838,1.0,-0.001886416,-0.0022406,0.981998178,0.206988831,-0.198586988,-0.243410465,0.9997872918877516,0.012321050506979873,-0.013432021645721815,-0.00965108743452849,1.838,2.0,0.007699226,-0.00855583,0.970402246,-0.288866105,-0.290677615,-1.13216724,0.9986502623562961,-0.01388608769975155,-0.0178861320363702,-0.04674308873911629,1.838,3.0,0.0185158,0.018714442,0.985801164,-0.299706774,0.014781741,0.001638785,0.999895293960825,-0.014070998752899605,-0.001920080753096212,-0.002778740540719639,1.838,4.0,-0.005934446,-0.016757345,0.978975471,0.288898674,0.116198163,2.15668137,0.9932987874974257,0.016276053612309733,-0.0007650483501156052,0.11442038077185025,1.879,5.0,-0.006956975,0.003573194,0.978741453,0.013609229,0.135289015,0.036202005,0.9987126709945816,-0.010795635880479144,-0.0008600171840677386,-0.049555175423438215,1.878,6.0,0.000440742,0.000896705,0.979805084,0.026275785,-0.023281293,0.169904242,0.9998742258399493,-0.0004346863456939064,-0.0009899739227412104,0.01582287901663995,1.837,7.0,-0.000231636,-0.002179876,0.980023568,0.017639315,-0.013988522,-0.053152066,0.9999500494379601,8.108287040824977e-05,-0.0035109090262756527,-0.009357647802658466,1.837,8.0,-0.003928452,0.003217709,0.98057902,-0.042685206,-0.092181511,0.131674559,0.9998456353829411,0.0009570510601394253,-0.0038459901965864243,0.017117179042088333
28,1.887,0.0,0.001630889,0.006191265,0.979873976,0.001988395,-0.004782223,-0.00178366,0.9999952075107712,-0.00192795310324723,0.00040742882302493406,0.00238787647833257,1.887,1.0,0.00612193,-0.000721872,0.979640241,0.012202558,-0.007616949,-0.032300007,0.9997869001988668,0.011677431461984973,-0.012768989904740544,-0.011258094066250774,1.887,2.0,0.004244662,-0.000935052,0.980148514,0.001805544,-0.008162193,-0.08548888,0.9984802655364632,-0.012408381779879294,-0.01677712453543271,-0.05100705331776669,1.887,3.0,0.005091362,-0.000996746,0.979948511,-0.034680298,-0.000163838,-0.010646581,0.9998881115991309,-0.014448568963109618,-0.0019987800525455937,-0.0033178330192233816,1.887,4.0,0.006912696,-0.003347879,0.980041839,-0.029723967,-6.86e-05,-0.006675251,0.9933834356694539,0.013043735423383484,-0.0012274784017731078,0.11409515327361587,1.928,5.0,-0.147222244,0.140510983,0.890120371,3.048153809,2.219665238,2.889467704,0.9796000923816466,0.15298550673164524,0.08602339852045389,0.09787271654001689,1.928,6.0,0.001322227,0.002690115,0.979723438,0.308326127,-0.598020485,-0.033641881,0.9993105047370427,0.015627458491677047,-0.030566056255821473,0.014142625932033153,1.884,7.0,-0.000246073,0.001112981,0.980419655,0.081806542,0.037081971,0.041047326,0.9999635762318043,0.0042301715091484565,-0.0013406788743075399,-0.007290709077957945,1.884,8.0,0.00235093,-0.001836772,0.980432098,-0.264306421,-0.343933064,0.216257201,0.9993202619534571,-0.012184074534025624,-0.020861254763494336,0.02784547407956701
29,1.935,0.0,0.001630889,0.006191265,0.979873976,-0.014805361,-0.031031278,-0.037756304,0.9999967378648562,-0.0021563760655846295,-0.0012731741495304275,0.0005033184825327094,1.935,1.0,0.007766195,-0.00065248,0.980180218,0.006918174,-0.032092743,-0.038921132,0.9997632998731137,0.010824841488953806,-0.013475150902441144,-0.013213150332823177,1.935,2.0,0.004751494,-0.001776194,0.97995983,-0.003692917,-0.024568975,-0.027117918,0.998425054718855,-0.011495131492018118,-0.01657016772428331,-0.05235171060454324,1.935,3.0,0.007031113,-0.003024743,0.979595536,-0.026892094,-0.091862055,0.01509092,0.9998687561739242,-0.014520567428648273,-0.006734310839081839,-0.002504517175571104,1.935,4.0,0.009328522,-0.003733288,0.980165313,-0.029255063,-0.114819774,0.04437065,0.9931361620105726,0.010804424029786128,-0.007491508584888098,0.1162226545360963,1.977,5.0,-0.013101565,0.005630453,0.978849655,-0.045387869,-0.08328005,0.168916499,0.9821786124242989,0.13717526038175484,0.07284484244813515,0.10583832086811844,1.977,6.0,0.004027749,-0.000854647,0.980062267,0.008376157,-0.207197927,-0.612992974,0.9990348995439022,0.015519611029927152,-0.03757255142474069,-0.016634739138924957,1.977,7.0,-0.003625288,0.007270276,0.97960196,0.100641134,0.018521366,0.260370664,0.9999411819503818,0.009200218551650227,-0.00025460074584050986,0.005737926170268395,1.978,8.0,0.034171693,-0.04315781,0.97819359,-0.351753872,-0.108539422,0.351429482,0.9981680298264267,-0.030884959598326663,-0.025937552867404616,0.04509929993126396
30,2.013,0.0,0.004341835,0.007420896,0.979501444,0.010423429,-0.031244447,-0.307911946,0.999884318692084,-0.0010201556434988896,-0.002944617950103805,-0.014887502855014882,2.013,1.0,0.006010035,-0.003082513,0.980284335,-0.097561684,0.062212371,-0.379660794,0.9994267118055159,0.00500113873327295,-0.0091616621182297,-0.03220714653949197,2.013,2.0,0.002836778,-0.004237052,0.980487124,-0.101648579,0.090307869,-0.294529913,0.9975713009914833,-0.015158207068651416,-0.010498646015058453,-0.06716774991373456,2.013,3.0,0.017233978,-0.008005495,0.979289488,-0.1069685,-0.165062395,-0.238770781,0.9996021066755567,-0.01876477489233735,-0.015399344093362227,-0.014365644939328936,2.014,4.0,0.021301053,-0.011881346,0.979647946,-0.176741382,-0.176545176,-0.298899506,0.9947112633278,0.0015912898681640119,-0.01767463688607843,0.10116608926074408,2.009,5.0,0.061868391,-0.035315744,0.977893195,-0.811939651,-1.428498081,-0.188796228,0.9920459997138537,0.0882733849405099,-0.012154731331607866,0.08890897856314428,2.008,6.0,0.007189282,-0.005733953,0.980506214,-0.017779909,0.158520402,-0.130237713,0.999305870192209,0.013158008841340524,-0.026157061977823443,-0.02303155903128007,2.009,7.0,-0.01422165,0.012990076,0.979633606,-0.007460829,0.131260847,-0.141478772,0.9999374421997426,0.008529668583529553,0.007121172650981677,-0.001282708449656889,2.009,8.0,0.03632535,-0.061818246,0.977121269,-0.159706751,-0.133195106,0.331877179,0.9968338013705411,-0.038950643337580394,-0.031688232945479435,0.06165286466611418
31,2.069,0.0,0.008068997,0.007250864,0.979219749,-0.027981306,-0.155303978,-0.316137303,0.9994684145692133,-0.0020215124830322314,-0.010839314685415522,-0.03068079241047666,2.07,1.0,0.008947544,-0.011398252,0.97981581,-0.117207878,-0.130346087,-0.307050403,0.9987507063068245,-0.002017205259148344,-0.015033361590021012,-0.04761255689275176,2.07,2.0,0.002761651,-0.017268951,0.980082219,-0.180123453,-0.099560841,-0.386877441,0.9958746637616737,-0.023628640979976134,-0.01433930768114277,-0.08642757464049479,2.07,3.0,0.028688983,-0.015901519,0.979949531,-0.109534108,-0.186062097,-0.145073393,0.9991933896426786,-0.02321378019685862,-0.024695022866508647,-0.021537092398204276,2.07,4.0,0.032326613,-0.02585995,0.979459164,-0.224932617,-0.180626257,-0.153257923,0.9951979570741781,-0.009857444077783988,-0.02787961271838292,0.09330907901329197,2.083,5.0,0.109631111,-0.051796162,0.972225888,-0.114816264,-0.37167101,-0.281057519,0.9939571908166991,0.0735323025879357,-0.03467917401967632,0.07375268258989198,2.082,6.0,-0.000309357,-0.014349139,0.979765281,-0.148015352,0.021887537,-0.262191105,0.999086738622507,0.004085094086843805,-0.02219100842806749,-0.03628442999262209,2.083,7.0,-0.009112771,0.013886209,0.979943943,0.037383827,-0.172381611,0.08255932,0.999941823697622,0.010272741218765601,-0.0017906667299373074,0.00275926091341506,2.083,8.0,0.03165243,-0.064468887,0.977492653,-0.15859784,-0.016358102,0.112456145,0.996181178317956,-0.04626687760076177,-0.031379431808660235,0.06706539540992888
32,2.16,0.0,0.022967331,0.003804906,0.979625961,-0.073685618,-0.202920946,-0.152338602,0.9990297919654112,-0.005570699644541302,-0.020997459380355733,-0.0383085991728709,2.16,1.0,0.020564537,-0.022290261,0.979175798,-0.194383722,-0.183981501,-0.190239619,0.998004461126313,-0.012995488449739703,-0.023364190746692142,-0.05720426070392481,2.16,2.0,0.016211217,-0.024549827,0.979769107,-0.176646,-0.232633439,-0.159856709,0.9947234318395036,-0.03225982353876474,-0.0246852488442909,-0.09420847320800557,2.16,3.0,0.036481557,-0.028992276,0.978996703,-0.243305638,-0.070529783,-0.1901519,0.9985369457718398,-0.03439836100665674,-0.02763898654710885,-0.03125391353655564,2.16,4.0,0.038802003,-0.039986591,0.978746891,-0.213899755,-0.044797262,-0.281565047,0.9961825706166021,-0.020769479744156816,-0.03076948014343541,0.07900730221035389,2.146,5.0,0.027986344,0.207557003,0.877679244,-32.6874418,-28.8457335,-34.99942693,0.1303284285655367,-0.18615278501565022,-0.5304775676094685,-0.816673246532355,2.146,6.0,0.004993614,-0.244819129,0.92277877,14.03107126,3.016660195,-36.57584457,0.29768639424897547,0.22089949418578433,0.4342675518293632,-0.8209737618070625,2.147,7.0,-0.295167287,-0.077494311,0.997044084,-0.021525579,24.83711102,-12.47354659,0.5821755428285127,0.0012337964756138934,0.73103972674571,-0.35588064431511457,2.147,8.0,0.337648275,-0.135115709,0.919963797,21.61357014,27.37969974,-12.36371365,0.35665249849932923,0.3474669005238397,0.7112950084953317,-0.4961100273570049
33,2.211,0.0,0.028655881,0.01651788,0.979769871,-0.114060926,-0.214361308,-0.021032154,0.9986913054278594,-0.010312430882091756,-0.030886769520380004,-0.03943776997619653,2.212,1.0,0.032129474,-0.02945473,0.978215271,-0.182249626,-0.276572143,-0.039456843,0.9973345477618655,-0.02312269368198973,-0.03589366599623842,-0.05916743714979357,2.212,2.0,0.034524888,-0.039432322,0.978710439,-0.214910405,-0.289750814,-0.134739601,0.9932820653279981,-0.04307164328204087,-0.03744707598814527,-0.10066423765503278,2.212,3.0,0.041377931,-0.041032543,0.978756965,-0.300611018,-0.110609155,0.021881265,0.9978594837579104,-0.04831631120495908,-0.031913640591506476,-0.030389213384652558,2.212,4.0,0.043192275,-0.049170075,0.977568274,-0.162785794,-0.107905516,0.216191578,0.9949083487159674,-0.029022404504280192,-0.03578475033488988,0.08963553612003647,2.209,5.0,0.105920016,-0.039623976,0.97366313,0.388775947,0.475835431,-0.042857799,0.1521768901441318,-0.1555445048074064,-0.505822535273564,-0.8347404769985122,2.209,6.0,0.004275253,-0.025528268,0.97967343,-0.20467887,-0.089295483,0.262312763,0.31929666028081827,0.2028213846817865,0.40571361148113205,-0.8320514371769425,2.21,7.0,-0.003275557,0.006343924,0.979741816,-0.219381672,-0.093076135,-0.231385674,0.6128395718333418,-0.014621400036167123,0.6967250486992839,-0.3725427228803284,2.21,8.0,0.04488173,-0.080439846,0.976109144,-0.1519514,-0.13704694,-0.215080313,0.3781447411004962,0.31864336937201154,0.6898692447378015,-0.5287280804895705
34,2.309,0.0,0.044076238,0.009077744,0.978844155,-0.269093046,-0.264861242,0.214703642,0.9984057965583728,-0.02319332328032739,-0.042502349023885645,-0.029008369159732803,2.309,1.0,0.055188934,-0.037506054,0.977553823,-0.099344367,-0.422815259,0.148367352,0.9966992681910011,-0.029350914680695103,-0.05555552681572614,-0.05140696485065575,2.31,2.0,0.053645743,-0.053774912,0.977413113,-0.276218134,-0.303576237,0.033237833,0.9922222800861465,-0.05705936667976895,-0.04972164439479556,-0.09882779797926189,2.31,3.0,0.050391021,-0.069366793,0.975767899,-0.447773985,-0.144290885,-0.02469501,0.9963478602520474,-0.0695830497397806,-0.03777553739268334,-0.03197107027879919,2.31,4.0,0.05136063,-0.071175937,0.975830452,-0.385850198,-0.099440405,-0.066123278,0.994266086811039,-0.048116748490444616,-0.04197015426150484,0.08578014504205583,2.241,5.0,0.044851371,-0.006501712,0.979367185,0.504293401,1.176440299,-0.220758792,0.1825050579780765,-0.08837440425778573,-0.4813627124902285,-0.8527436939130948,2.241,6.0,0.021509217,-0.04519827,0.978633471,-0.358052292,-0.400558535,0.40127226,0.3535419225007637,0.1711559825172521,0.3785153009086167,-0.8381168806682499,2.241,7.0,0.01013309,-0.010079552,0.980432926,-0.253694036,-0.232752663,-0.307002573,0.6446670503580193,-0.036741385376459455,0.6563075136248954,-0.3902754313850888,2.241,8.0,0.058579874,-0.094404906,0.973400284,-0.267242412,-0.244094081,-0.165037715,0.4048452137383672,0.285188066071795,0.6659856841461522,-0.5578809804929244
35,2.341,0.0,0.063916678,-0.018744182,0.977705126,-0.498020992,-0.483149125,0.590099322,0.9968019171826243,-0.048681579799318135,-0.06337224668985048,-6.226411536319768e-06,2.342,1.0,0.091689171,-0.038115452,0.97389851,0.18769694,-0.625653209,0.597790553,0.995882489961778,-0.02249638156975803,-0.0854928501740879,-0.020073653701009865,2.342,2.0,0.076612505,-0.071212058,0.973742454,-0.109552903,-0.497863094,0.289767843,0.991903744073192,-0.06395862005915874,-0.07149373821951002,-0.08321600091996656,2.342,3.0,0.063539024,-0.099675297,0.972848204,-0.359216475,-0.274071726,0.249346853,0.9948497179491197,-0.08658351572024552,-0.049051147287090056,-0.01926962511050056,2.342,4.0,0.062499628,-0.090672723,0.972395626,-0.318935973,-0.276575243,0.306538644,0.9913509880306345,-0.06290590684177909,-0.05546028489031295,0.10094663052813282,2.308,5.0,0.011775052,-0.048389399,0.978751661,-1.415534602,-0.179020165,-2.359913127,0.07734140202405713,-0.03509433600656923,-0.3940559217313061,-0.9151538808646893,2.308,6.0,0.035095103,-0.054191927,0.976752563,-0.032711949,0.21603285,-2.448450763,0.2535282581470568,0.11508678694857076,0.3720412503979421,-0.8854737499175848,2.308,7.0,0.031497104,-0.029404476,0.977763422,-0.221357263,-0.278391642,0.051121454,0.6816169161079108,-0.04655185141098839,0.6124302779579659,-0.3976939268408299,2.308,8.0,0.077936274,-0.114199479,0.970660814,-0.17691195,-0.204895208,0.155380606,0.4355748048552628,0.2638009278958357,0.6337807628980402,-0.5822418779141311
36,2.414,0.0,0.092348138,-0.043309422,0.974671799,-0.181067912,-0.270790328,0.36250997,0.9954953467173064,-0.056186798734911135,-0.07420320739432933,0.01805387283954959,2.414,1.0,0.119491565,-0.033598508,0.971994808,0.100177361,-0.233558745,0.417634142,0.9953570414350118,-0.019114304192472134,-0.09432353412121927,0.0014402610390777137,2.415,2.0,0.111433366,-0.055692003,0.971589422,0.36123872,-0.449645779,0.67990639,0.9935507837999614,-0.04716972953281966,-0.09194101713442984,-0.04667661078709102,2.415,3.0,0.091873835,-0.120029242,0.967862686,-0.204843795,-0.58363275,0.800502855,0.9923312590209403,-0.09675556424678178,-0.07355730988670388,0.022502340310144607,2.415,4.0,0.089594289,-0.113965727,0.968886307,-0.374811061,-0.557927436,0.600711153,0.984790116400531,-0.07921134560888847,-0.08200171705122035,0.13110952584503277,2.37,5.0,-0.036376166,-0.073003103,0.976600902,0.814841927,1.712989772,2.367702539,0.22408058065166603,0.0044581928802781,-0.38027714881045116,-0.8973055822759871,2.37,6.0,-0.053784604,-0.030537512,0.977683321,0.822709813,2.702274635,2.347823833,0.3106799584737247,0.2883566093819884,0.316465016038908,-0.8486332086667253,2.37,7.0,0.063995535,-0.043317105,0.975949384,-0.192591904,-0.709849644,-0.87442249,0.7100265894281442,-0.0934729170156149,0.5469878123594571,-0.4335082343160795,2.37,8.0,0.096578908,-0.140331666,0.964867627,-0.648577396,-0.511886328,-0.554056396,0.4604422633214814,0.1977868414790095,0.6151820451278488,-0.6086249574553004
37,2.53,0.0,0.102072744,-0.051342174,0.97329088,-0.05533969,-0.153613809,0.340688324,0.9946438455480153,-0.05698027786817292,-0.07875985191020204,0.035124837004671,2.53,1.0,0.126597198,-0.042521784,0.970023735,-0.254558617,-0.114743718,0.06878309,0.9947526454670726,-0.032340800590212763,-0.09698659349939993,0.0038532628805748098,2.53,2.0,0.119321988,-0.060324201,0.971030511,-0.229409896,-0.06633662,-0.222453403,0.992428419465866,-0.05633364152707002,-0.0920800117865909,-0.05859713728642491,2.53,3.0,0.127186051,-0.135441902,0.961498934,0.014032875,-0.754623589,0.735938764,0.9877945423839732,-0.09493720222340847,-0.10653927477502426,0.062435988026462434,2.531,4.0,0.133910072,-0.123568364,0.962729948,-0.201786991,-0.807396515,0.323907832,0.9779631979134008,-0.08253205220612106,-0.12083098026329227,0.1489171517799501,2.448,5.0,-0.165704097,0.018126257,0.966030844,0.447504123,0.870519741,0.825514811,0.2782956946472019,0.03975916324155697,-0.35684579727460414,-0.8908601417992695,2.448,6.0,-0.15572302,0.053611568,0.966129464,2.298771666,1.338254561,0.293364025,0.2783186102291279,0.36657708264034566,0.20743885586296984,-0.8632086160142761,2.449,7.0,0.073240838,-0.063602399,0.975772778,0.189129344,0.53241234,-1.399132928,0.6854743215974507,-0.11176612037719236,0.5147666001236585,-0.5026416578075031,2.449,8.0,0.177621317,-0.165027892,0.949368455,1.623560866,2.196589453,-2.267188999,0.3225762238663033,0.1985484489136173,0.6008771295848786,-0.7038961346477122
38,2.55,0.0,0.117723748,-0.051555318,0.971054668,0.069737417,-0.320319195,0.167475753,0.9934574636251865,-0.05034885681655045,-0.09235261780921103,0.044477573769971114,2.55,1.0,0.136447455,-0.043478032,0.969782838,0.242134749,-0.168454032,0.49447767,0.994097586591726,-0.0216217090822992,-0.1020308582989451,0.02986961639604029,2.55,2.0,0.120955096,-0.068673053,0.970237021,0.045717559,0.010438389,0.538772208,0.9942054320648313,-0.05472694030980104,-0.08694927209634264,-0.03162823009632138,2.55,3.0,0.168747778,-0.140826031,0.954525126,0.027281565,-0.675469256,0.452862041,0.9826024234426193,-0.09104286646830495,-0.13595391075274688,0.08786471453866067,2.551,4.0,0.182938688,-0.133064544,0.953784705,-0.118652762,-0.776584101,0.101031386,0.9718790557724173,-0.08021038570596077,-0.15720558422250963,0.1558967583533257,2.519,5.0,-0.221294427,0.063303696,0.951969757,1.234682413,1.147086339,-0.606262699,0.26953232080347744,0.12650483434360665,-0.3624716151334129,-0.8831552429514093,2.519,6.0,-0.144683176,0.067169146,0.966689756,-0.819494732,-1.302506924,-2.613910663,0.20202682870080801,0.2521752327368662,0.24872984826825018,-0.9130861268575133,2.519,7.0,0.097060896,-0.052683353,0.974230284,0.180115854,-1.521739662,1.091064538,0.7706389117563202,-0.10871023994322682,0.41652721908378326,-0.46989661328940296,2.519,8.0,0.195977728,-0.151494332,0.94842775,-0.007495029,-0.418657072,-0.21422182,0.33332147401194984,0.15692277677233138,0.5635383359349974,-0.7393893298014086
39,2.625,0.0,0.138668961,-0.042185257,0.969183844,0.207111795,-0.293492112,-0.104827656,0.9930371072923821,-0.0357448309407791,-0.10458409443307995,0.04076490884333421,2.625,1.0,0.142730544,-0.023385289,0.968439528,0.426923488,-0.063122386,0.105394266,0.9941218381847701,0.0003406538524490802,-0.10164527775415312,0.03728125949277455,2.626,2.0,0.120729872,-0.057022201,0.970691901,0.332868922,0.016563082,0.167245643,0.9955796323691065,-0.036489602303944754,-0.08370948656114985,-0.021964207137144174,2.626,3.0,0.204483537,-0.139130414,0.948518429,0.204846023,-0.541606642,0.3005765,0.9786489321643015,-0.07776190259558968,-0.15783980209260579,0.10623535642032579,2.626,4.0,0.228922996,-0.136349825,0.942800608,-0.009147324,-0.625170518,-0.251473521,0.9691944586338531,-0.07086610130828531,-0.1854396225223789,0.1457814920953747,2.578,5.0,-0.292781639,0.143392357,0.924034385,-0.041606121,0.609483875,0.414705917,0.29723640815584956,0.14896634390194025,-0.325817005076077,-0.8850439679780625,2.578,6.0,-0.157757132,-0.060284841,0.965443642,-1.209058957,0.950168653,-0.570660124,0.18217169690329948,0.26100066119572163,0.3023480034162862,-0.8984864008614454,2.578,7.0,0.129130259,-0.064049638,0.968904546,-0.298292276,-0.633873383,-0.715863026,0.777875718861267,-0.14685470954351473,0.35649387889782963,-0.4962410448555587,2.578,8.0,0.239839868,-0.156036881,0.937451508,-0.09954955,-0.514118784,-0.384549745,0.3381748581267485,0.10437703892683592,0.5277156392506862,-0.7721783493248557
40,2.69,0.0,0.148983519,-0.0211522,0.968714352,0.355967001,-0.06039637,-0.144029343,0.993829294111017,-0.01438381753626667,-0.10413943944496566,0.03537537437214629,2.69,1.0,0.140841338,-0.003444374,0.969777734,0.1385895,0.046748427,-0.34301363,0.9951274763736073,0.008951695486133789,-0.09593452700514786,0.020922223651365375,2.69,2.0,0.119472241,-0.034260402,0.971840321,0.165847727,0.007487614,-0.605391704,0.9950240006207097,-0.023924448868736455,-0.08190409375660927,-0.0514449060743024,2.69,3.0,0.231725684,-0.123239809,0.944599998,0.251654806,-0.312903057,-0.026365132,0.977857874522767,-0.06085100257584266,-0.16861491097265555,0.10798214906647785,2.69,4.0,0.259051399,-0.117878681,0.937406523,0.386418083,-0.290291278,-0.041979279,0.9689674056319856,-0.0466108360315068,-0.1923223795019533,0.1481273071718036,2.653,5.0,-0.329918235,0.153750096,0.910192763,-0.394075834,0.349065154,0.304371951,0.31699181823879147,0.1571116605922847,-0.278758009466361,-0.8928191784644592,2.652,6.0,-0.233932368,-0.038002252,0.950924012,1.035780893,1.129470963,1.524398508,0.2255222106991211,0.335757968931778,0.21969506015565274,-0.8877727182806378,2.653,7.0,0.280852674,-0.078944342,0.934156072,-0.494546622,-2.875134848,-1.186941228,0.8005440923986126,-0.25590045680538304,0.1977541892771951,-0.5045169897593116,2.653,8.0,0.293650267,-0.148335354,0.923626625,-0.11181256,-0.874309012,-0.720826767,0.3362366548584557,0.028832206862719985,0.48537083211828125,-0.8065536380835612
41,2.76,0.0,0.144161894,0.008220179,0.968837849,0.48314643,0.15224524,-0.021496372,0.9949661948589839,0.011608704697983297,-0.0926005916125014,0.036505335172880446,2.76,1.0,0.141364094,0.013458972,0.96971751,0.35184033,-0.043276333,-0.134610057,0.9949681198365984,0.02708881283886749,-0.09514618801337385,0.01586945601867712,2.76,2.0,0.124186249,-0.017179269,0.971954551,0.345712542,-0.121853629,-0.175578376,0.9944682954887596,-0.00514141384050921,-0.08698670417895904,-0.05864885700066051,2.76,3.0,0.239166914,-0.107164769,0.944129705,0.355151703,-0.018048517,0.27633374,0.9777801439327429,-0.043767228306797225,-0.1629224570617221,0.12444554167255947,2.76,4.0,0.263574362,-0.094160969,0.939142304,0.515718503,-0.00311395,0.546639126,0.9663519816457165,-0.025001462250616495,-0.1827856241748311,0.17924338216443375,2.757,5.0,-0.326390399,0.130543461,0.91406658,-0.622807385,-0.734766348,-1.2237178,0.2552576734869086,0.13811233284061278,-0.22886284500625895,-0.9291879798076468,2.757,6.0,-0.248662867,-0.023163392,0.946361049,-0.447425269,-0.278630622,-1.25439832,0.1845957148390774,0.28627590456706825,0.24057891350321445,-0.9088962068932677,2.757,7.0,0.38679535,-0.11637528,0.893216184,-1.237469702,-1.038408323,-1.452378355,0.7599912356666062,-0.3369541308154239,0.1348968919683679,-0.539145679731964,2.757,8.0,0.364839685,-0.131601833,0.899438693,-0.226031398,-1.317252223,-1.629282378,0.30366437796099965,-0.08820932879367767,0.4355890058578335,-0.8427747491750761
42,2.84,0.0,0.140466651,0.038423477,0.969163431,0.432719412,-0.090689527,0.065738729,0.994096785071309,0.0340323236723058,-0.09425715107989437,0.04158091300889207,2.84,1.0,0.144504244,0.034596101,0.96855079,0.035915278,-0.047858245,0.021873139,0.9949003082817733,0.02799103094940743,-0.09538297485813105,0.017087038199602847,2.84,2.0,0.142399406,0.019318718,0.969469028,0.427559595,-0.353473555,0.048221479,0.9929204062466774,0.015905125447268187,-0.10442551749163777,-0.054326836278612664,2.84,3.0,0.227087548,-0.075499578,0.950793384,0.531890209,0.320824234,-0.194043925,0.9829749204697689,-0.016024351615870604,-0.13967021994967407,0.1183036581934471,2.841,4.0,0.24894691,-0.06749285,0.94412719,0.266147414,0.462163023,-0.673343869,0.9770472183677382,-0.008545545867089542,-0.15289887853644038,0.14807984220682247,2.825,5.0,-0.293465249,0.095362653,0.929662902,0.987411417,-0.360829964,-1.60997959,0.16803894235297026,0.15274185328399023,-0.2464937149548638,-0.9421643638962458,2.825,6.0,-0.18077615,-0.069242066,0.96109704,-0.226046525,-1.103585859,-1.191832676,0.15002188890575577,0.20206054529000889,0.23943292447370818,-0.9377296217802982,2.825,7.0,0.437135897,-0.099740126,0.870366655,0.502312035,-0.204853761,-0.125820595,0.768372091781582,-0.3111897169901728,0.08618360429417961,-0.5525736828348203,2.825,8.0,0.486381127,-0.103058635,0.844539115,-0.35133321,-2.7142439,-1.308773595,0.30415234458686874,-0.2558192145114575,0.3603416989754785,-0.8439204587806349
43,2.895,0.0,0.136277215,0.066032258,0.968066249,0.356358995,0.142979222,-0.102368332,0.9944015554981027,0.052186737401190814,-0.08352525146968272,0.03828345895160218,2.895,1.0,0.148076405,0.045544348,0.967377946,0.320789656,-0.065195322,0.05713889,0.9941615259923896,0.04337796327248162,-0.09646637023656264,0.021341320301161162,2.895,2.0,0.152594698,0.023544052,0.967419007,0.096431921,0.117334505,0.591587361,0.9948675467979605,0.01711423463446628,-0.096730351746454,-0.024267392774903904,2.896,3.0,0.193733281,-0.047795188,0.959622861,0.17326625,0.484196951,-0.321640865,0.9884225837881091,-0.007710172731866337,-0.11095081505742979,0.10320496951297979,2.896,4.0,0.211978363,-0.041086231,0.956169491,0.472597271,0.580658742,0.559323884,0.9770010830108933,0.0063832880311322955,-0.11683058646035424,0.17826595720098404,2.878,5.0,-0.238488,0.083219391,0.946247329,0.019112954,-0.850328796,0.677320727,0.1878087856405958,0.10219465713977807,-0.23841646448373235,-0.947333996830772,2.878,6.0,-0.117969406,-0.074060625,0.969934144,0.436870421,-1.425288099,-0.190455342,0.15587455269818826,0.12311853042666332,0.1918538497927929,-0.9611124032111972,2.878,7.0,0.284126275,-0.053659306,0.936143653,1.554110718,4.667919644,0.755441156,0.7886438078207313,-0.09732048986094634,0.21490368156686138,-0.5677905197238255,2.878,8.0,0.632425161,-0.179743393,0.726570525,-0.449693051,-2.240135508,2.38450495,0.43324029831786137,-0.32763883969253627,0.34060570987213673,-0.7674264688169653
44,2.97,0.0,0.134411588,0.079620546,0.967129306,0.057993441,-0.171831811,-0.30678293,0.9941651292704479,0.055792410660571216,-0.0894585331340538,0.02280512014569158,2.97,1.0,0.152174113,0.051214424,0.967135007,0.039892798,0.046125401,0.115013202,0.9944002637774814,0.043212502046415094,-0.09246029440233584,0.02742059490961714,2.971,2.0,0.145515525,0.027303766,0.968741832,0.03474452,0.18262564,-0.003929527,0.9958746956013623,0.01858824607054587,-0.08547435755422643,-0.024128861755312238,2.971,3.0,0.153154857,-0.045416565,0.96660381,-0.114338416,0.765350795,-0.422171152,0.994063652462446,-0.01571161738048625,-0.07064908933539514,0.08123611332646365,2.971,4.0,0.166875507,-0.027982621,0.964356541,0.139041715,0.894422392,0.273546731,0.9789507906957333,0.003113389851802733,-0.06871043198871316,0.1921575726734534,2.938,5.0,-0.151545335,0.087737921,0.964095467,-0.287291828,-1.286794361,0.852270003,0.21426703578807302,0.026056186957939553,-0.22075242323589914,-0.9511461928280447,2.937,6.0,-0.021693993,-0.023922257,0.979535653,0.654762355,-1.209242837,0.785272306,0.20274295509779622,0.06925438519078556,0.12837049181852128,-0.9683078751721119,2.938,7.0,-0.064871481,0.006581879,0.978043133,0.265505118,3.507009193,2.513136232,0.8232961377602978,0.05210177702097626,0.3255671820035235,-0.46203342344739284,2.938,8.0,0.672963936,-0.270070281,0.659282629,-1.163775385,0.935009921,-2.16023604,0.30896951265461436,-0.3606406182875235,0.3357506421008733,-0.8134787588007533
45,3.045,0.0,0.139549306,0.08118062,0.966716969,-0.03108036,0.022021543,-0.225636821,0.9947756521215066,0.05396715161240069,-0.08588507385546483,0.011519660668467366,3.045,1.0,0.144605564,0.049322535,0.968201693,-0.117484487,0.092690992,-0.225621526,0.9955212714381575,0.03668573901994861,-0.08566231149402738,0.01592240736241109,3.045,2.0,0.129158589,0.022965015,0.970646005,-0.143171371,0.194598868,-0.414038793,0.9962011345027262,0.01261298967137947,-0.07340835680202303,-0.04511568750066295,3.045,3.0,0.099242099,-0.042075701,0.97410402,0.091355246,0.981195227,-0.592240818,0.9984154140115795,-0.01317069710166442,-0.019724025569004974,0.051030937844562294,3.046,4.0,0.092990212,-0.036322741,0.974720205,-0.203217657,1.237390477,-0.393929221,0.9850237439225766,-0.018632028283440637,-0.00807164829597658,0.17121892396747906,3.013,5.0,-0.075256709,0.080812475,0.973427332,-0.655767465,-1.360466651,0.634306327,0.23100225235251887,-0.05161356620443112,-0.18615798679317228,-0.9535823001423827,3.012,6.0,0.062687471,0.004791518,0.978023171,0.666714525,-0.99565066,0.903117835,0.25156013422702317,0.026064023610299344,0.06870585608212947,-0.965048014805971,3.013,7.0,-0.158454563,-0.026160133,0.966590295,-0.277873675,1.530333289,-0.609979378,0.7918305174723521,0.06397945053809395,0.3720522339304418,-0.4800918628092736,3.013,8.0,0.642955253,-0.420040278,0.608810074,0.771081217,1.354087746,-0.589593296,0.26889493367060585,-0.31187930997791374,0.296553853935587,-0.8616743133980097
46,3.137,0.0,0.131132294,0.076592541,0.968167291,-0.204116389,0.09591922,-0.331081713,0.9959333029342929,0.04375794962135745,-0.07855742744556199,-0.005552345851960561,3.137,1.0,0.139758518,0.044209348,0.968802916,-0.171031161,0.02400368,-0.473930715,0.9961432547369486,0.028876737903208827,-0.0824364091047862,-0.00830593185960677,3.138,2.0,0.121293243,0.015343771,0.972893888,-0.174195789,0.029420065,-0.408518408,0.9953267087902408,0.0047508805636590256,-0.0703211104127561,-0.06600843380185684,3.138,3.0,0.042562936,-0.033990281,0.978804913,0.121052801,0.813190893,0.351290155,0.9974156619740414,-0.009843574157213658,0.021046393025382002,0.06798640038505772,3.138,4.0,0.030751159,-0.025865008,0.977872368,0.424232206,0.716816176,0.606139336,0.9793613125174924,-0.003384032696032133,0.029808902042477586,0.19987845613209246,3.087,5.0,0.018685905,0.041260808,0.979035435,-0.025075452,-0.973600335,2.245734874,0.331664949591446,-0.1169049841310469,-0.17234093331808875,-0.9201250939958507,3.087,6.0,0.109946951,0.043801262,0.97335611,0.810607781,-0.46904248,1.548467177,0.32807703254140674,0.015265621609592198,0.009748943052549159,-0.9444773049814673,3.087,7.0,-0.279241198,-0.12123445,0.932058239,-1.119983945,1.266760097,-1.68510708,0.7382417554891778,0.017302141937242225,0.42802358171195365,-0.5210523580554174,3.087,8.0,0.459661465,-0.438281468,0.746489579,0.896304603,3.203867479,2.163581687,0.33078678099121733,-0.12772734530704072,0.3172181379999299,-0.879567213864945
47,3.185,0.0,0.125205895,0.068772933,0.969022584,-0.36964738,0.058539737,-0.209959744,0.9968006073886717,0.02527274616943284,-0.07382286454992013,-0.017321145466584562,3.185,1.0,0.141413359,0.031912947,0.969047897,-0.344921248,-0.090013877,-0.596580169,0.9954875235601514,0.012801643834421962,-0.08534149085044986,-0.03946565963767051,3.185,2.0,0.131115324,0.003743769,0.971491511,-0.33365547,-0.167119714,-0.66553883,0.9918948184572491,-0.010734922268720515,-0.0774808584515711,-0.10013065032822344,3.185,3.0,-0.00496186,-0.035229559,0.979731217,-0.160470592,0.666972667,-0.084749773,0.9964250870609008,-0.02101316249600649,0.05165867569236385,0.0634576559865232,3.186,4.0,-0.008202595,5.79e-05,0.97865301,0.42262926,0.669081759,0.029111433,0.9775989225581138,0.010894516136762287,0.06413655858507097,0.2001703224362314,3.148,5.0,0.0481250605,0.035688365,0.9776997595,0.0228707939999999,-0.8169489215,3.6894119835,0.5009541696852772,-0.17962546651141695,-0.1458659057140784,-0.8339680744523149,3.148,6.0,0.1461173825,0.0552876945,0.9670306255,0.3407070465,-0.945117069,1.5011272945,0.40058138110433933,-0.029321834466831332,-0.029837508136037597,-0.9153056922385394,3.148,7.0,-0.2761838185,-0.1172366265,0.933017321,-0.1366818274999999,0.00698186,-0.224080408,0.7425238354923028,0.00906262911826853,0.4070880961453543,-0.5318416159497253,3.148,8.0,0.3030717785,-0.399403189,0.8227483449999999,1.7772584340000002,4.3030396085,1.5988005420000002,0.34828594338665314,0.11034217252470067,0.29722412858978386,-0.882144729614048
48,3.24,0.0,0.118544343,0.048365986,0.9712986,-0.449745771,0.059853723,-0.04873651,0.9973740012071701,0.0029088757762033373,-0.06914564422787536,-0.021342915499776637,3.24,1.0,0.151766043,0.014490203,0.967541266,-0.378875661,-0.249910811,-0.470699165,0.9932392627488279,-0.0053466155278837114,-0.09634186148770739,-0.06454011436033391,3.24,2.0,0.145294679,-0.014616712,0.969532262,-0.384833951,-0.295021025,-0.250409026,0.9889444570429978,-0.030678998156828886,-0.09006712479938435,-0.11373466044436795,3.241,3.0,-0.036961929,-0.053688569,0.977925536,-0.357214579,0.458789424,-0.391121132,0.9957464313860008,-0.042003294276039986,0.06906800202596433,0.044208356089615077,3.241,4.0,-0.04782591,0.021597446,0.978851997,0.351122511,0.49948601,-0.407289875,0.9795852130513973,0.0212831707709739,0.08870987413732981,0.17913792240483653,3.208,5.0,0.077564216,0.030115922,0.976364084,0.07081704,-0.660297508,5.133089093,0.7165908602536465,-0.22889925982834902,-0.09973239496845529,-0.651272690387697,3.208,6.0,0.182287814,0.066774127,0.960705141,-0.129193688,-1.421191658,1.453787412,0.46631606243805607,-0.10402393053351296,-0.05384390268885013,-0.8768290517152472,3.208,7.0,-0.273126439,-0.113238803,0.933976403,0.84662029,-1.252796377,1.236946264,0.8088454377207406,0.038546605728767905,0.30629658800047516,-0.5004654006466398,3.209,8.0,0.146482092,-0.36052491,0.899007111,2.658212265,5.402211738,1.034019397,0.3053483127801151,0.3922461521804235,0.239261092231088,-0.8340620442906965
49,3.314,0.0,0.110141737,0.019537194,0.97337151,-0.423050124,0.181669033,-0.067067611,0.9978022005295948,-0.017187532745813496,-0.05840730613379211,-0.026152321629323023,3.314,1.0,0.167129722,0.000813745,0.965109835,-0.327171194,-0.256891066,-0.48567397,0.9899308916706372,-0.02000646186439752,-0.1073546755702251,-0.09006411512393486,3.315,2.0,0.162416624,-0.038802502,0.964347036,-0.471070409,-0.262995137,-0.190996184,0.9856489414352676,-0.05437661766710463,-0.0998765838976336,-0.12475582426308172,3.315,3.0,-0.049304303,-0.074034577,0.976000495,-0.38258026,0.06394044,0.329835679,0.9940016869817154,-0.05969602947218501,0.06782385354638786,0.06161943875821934,3.315,4.0,-0.067861505,0.050965375,0.976593747,0.386221835,0.159289377,0.068973261,0.9781189378492187,0.03885662208029418,0.09483914135668145,0.18104983735964159,3.238,5.0,0.134699967,0.027560344,0.970201704,-1.434935556,-1.654901618,-0.26858541,0.6859655575046808,-0.3125841796856411,-0.11092011425912653,-0.6476411913863181,3.238,6.0,0.219397397,0.050469501,0.954221469,-0.132626776,-0.321541355,-0.559708598,0.4401065562231295,-0.11799266520869585,-0.06060911416474282,-0.8880937368355499,3.238,7.0,-0.153352194,0.014757294,0.967444741,1.77610532,-1.08464556,2.9129041,0.8946028894347935,0.13710707297751298,0.16676539551709524,-0.3912500780990137,3.238,8.0,-0.249015905,-0.06500202,0.945305674,4.417050272,4.526557227,4.591684929,0.364519066245926,0.6987020707185662,-0.03811209742871214,-0.6144011187704417
50,3.375,0.0,0.085082224,-0.00491296,0.976056801,-0.358984011,0.480174321,-0.146169806,0.998320508297741,-0.0326921296846534,-0.03267918209669945,-0.03492074492780229,3.376,1.0,0.170343077,-0.006508255,0.963673637,-0.222655183,0.061244387,-1.038748726,0.9842068847049313,-0.024224770531102502,-0.10239688179976386,-0.14235465285621837,3.376,2.0,0.170643082,-0.060910978,0.963105805,-0.332208223,-0.018782071,-0.311904384,0.9826892761337861,-0.06800955342394978,-0.09806577616980931,-0.14170247266347683,3.376,3.0,-0.040042517,-0.099291333,0.973694936,-0.356673122,-0.351637773,-0.06930916,0.9943399963760574,-0.07578387585202785,0.04391800475639137,0.06013305767981732,3.376,4.0,-0.060850357,0.058570701,0.976540684,-0.065967714,-0.324316112,0.525741386,0.9750698635997151,0.0395481665920385,0.07150080733014269,0.20630641815023304,3.298,5.0,0.309681073,-0.13401281,0.920154443,-1.46887201,-2.227412023,0.472676478,0.6692356037896007,-0.42187824700113863,-0.12414068669393738,-0.598942018257838,3.297,6.0,0.279216709,0.0381882,0.938352647,-0.100321737,-1.054599677,0.442077885,0.456101261358131,-0.16883182208886963,-0.07864062756179202,-0.8702201485453905,3.298,7.0,-0.111354222,0.146437658,0.962399735,1.481732983,-0.272086984,2.767653632,0.9350323984029617,0.21838185660162998,0.07874533916550314,-0.26799804141773154,3.298,8.0,-0.419972868,0.212606386,0.859065955,1.330331223,2.226181309,1.503485138,0.3810766726879333,0.7561873320977541,-0.08988770303832488,-0.5242914162471753
51,3.467,0.0,0.049803913,-0.023924877,0.978700245,-0.333680117,0.71588931,-0.150054206,0.9979664289089447,-0.04586447650399904,0.004075988069480143,-0.044077691489004915,3.467,1.0,0.158177184,-0.01978524,0.967239124,-0.593078911,0.361808212,-1.528999316,0.9713450337809344,-0.04231475543464762,-0.08116040862371976,-0.21934282503344438,3.467,2.0,0.166133289,-0.07880191,0.961850295,-0.517320768,0.167152556,-1.175530169,0.9717259384861304,-0.08450575559338064,-0.08912987383784896,-0.20165153938041272,3.467,3.0,-0.002375955,-0.121241345,0.97250033,-0.223299842,-0.505301267,-0.962403169,0.9961515576667535,-0.0859968458476141,0.009237662638322465,0.014187397624053105,3.467,4.0,-0.017615695,0.026616424,0.978461166,-1.090254369,-0.725118039,0.092875397,0.9770731671286348,-0.00882151769787328,0.018764601384626853,0.21189170969530854,3.388,5.0,0.408406419,-0.244098252,0.856393158,-1.064365145,-1.598938467,1.860003994,0.6969829999659874,-0.49980926499230155,-0.0961551027662888,-0.5051332424205244,3.388,6.0,0.339240163,-0.028994379,0.919047571,-0.529078676,-0.80953019,3.35950593,0.5977776395923643,-0.23361427054787554,-0.039674025923273924,-0.7658408698070408,3.388,7.0,-0.099756533,0.156209704,0.962373193,-0.186794086,0.098203963,0.23652198,0.942743483232957,0.19928677759003818,0.07841255385442714,-0.25567748531616286,3.388,8.0,-0.435076312,0.219438297,0.849727272,-1.343877824,-0.847393591,-0.697035067,0.42619169860553247,0.6771355220506233,-0.04321876750138515,-0.5983145150776654
52,3.52,0.0,0.0227398,-0.052164401,0.978449169,-0.526589644,0.212270585,-0.118434276,0.9961926997120661,-0.06976433477743138,0.013946873833228363,-0.050383800409732164,3.521,1.0,0.140451627,-0.042718668,0.968603869,-0.223196518,0.245043114,0.068618653,0.9726311213820712,-0.05023794194521557,-0.06502616222190076,-0.2173394790065875,3.521,2.0,0.1584909,-0.096661617,0.962640725,-0.083876833,0.198489395,-0.05843273,0.9719267189335813,-0.08436650695165022,-0.0769126870842518,-0.20573085352775955,3.521,3.0,0.035700722,-0.124091575,0.97147915,-0.078859271,-0.503046141,-0.520797357,0.9958978764507934,-0.08747405748248852,-0.02097476516115665,-0.009786121539443898,3.521,4.0,0.021024757,-0.063578445,0.977566233,-1.532672787,-0.5918312,-1.408090965,0.9860092056048501,-0.08150245593921855,-0.03604524811020483,0.14086850686736918,3.478,5.0,0.424832745,-0.327267232,0.819731235,-0.303991513,0.049116937,0.57545335,0.7128890691189048,-0.4914552632698988,-0.07070238255079643,-0.4952394092120864,3.477,6.0,0.373482887,-0.166507236,0.889254111,-1.202272715,-1.148362313,2.19734442,0.6653550238978836,-0.3190776818032021,0.0021436860214499574,-0.6748981625098581,3.478,7.0,-0.108532831,0.118949315,0.966327939,-0.608647607,-0.529948484,0.070953102,0.9533726143186643,0.15114037219871795,0.05622019911887669,-0.2551010297310895,3.478,8.0,-0.320125291,0.147131327,0.91299626,-0.59652595,-1.711980512,0.514486485,0.4731570255560884,0.576217481702443,-0.07737927527847865,-0.6618974925959359
53,3.57,0.0,0.018763497,-0.071602607,0.976620191,-0.129011356,0.071770045,0.149340599,0.9962893983957698,-0.07263744067461067,0.016227585925618977,-0.0432192354335889,3.57,1.0,0.111173678,-0.034933507,0.973419778,0.38286171,0.542882353,1.11971832,0.9856687919724624,-0.026952697355435356,-0.039405572543444574,-0.16179550515801264,3.57,2.0,0.129348284,-0.072734003,0.968486854,0.467430795,0.555768981,0.489254296,0.980475864770515,-0.05409966096663043,-0.05105571149929489,-0.18202642557911017,3.57,3.0,0.058971026,-0.147431788,0.967151635,-0.469665705,-0.206784476,-0.533573609,0.9927695581360337,-0.10910530706690363,-0.034746976601899605,-0.03601782926896142,3.571,4.0,0.053925247,-0.105381395,0.972762987,-1.016663459,-0.181778596,-4.319847956,0.9869949530354009,-0.11760221081439949,-0.07640222203747624,-0.07857087985983402,3.521,5.0,0.267032417,-0.221343579,0.916489884,2.84366321,5.457866328,-1.853949482,0.7511825557722729,-0.20719921338720032,0.051354537484456154,-0.6246246595795903,3.52,6.0,0.379777865,-0.371094706,0.82360093,-2.800232389,0.810104962,5.569868101,0.7854910887070392,-0.38860760362135044,0.23387045342009238,-0.4210611487498963,3.522,7.0,-0.095744309,0.102758553,0.970111183,-1.02137269,0.141772091,-1.645913621,0.937290474250782,0.09132461668501522,0.08094854984325202,-0.32648692706501053,3.522,8.0,-0.165668488,0.070867933,0.963125998,-1.599061206,-2.444825047,-1.749971399,0.464693355119057,0.4298269586244944,-0.03654915352371907,-0.7732871592911077
54,3.644,0.0,0.019715872,-0.069440297,0.977266253,0.124812112,-0.028077332,0.273064043,0.9975136726896822,-0.0625702633490504,0.012942624886640199,-0.029730849342317515,3.644,1.0,0.065624577,-0.037652291,0.97727822,0.01615621,0.854033009,1.004651849,0.9934263355758098,-0.02091708063449744,0.004972536865692553,-0.11243605026532902,3.644,2.0,0.080821948,-0.054702173,0.97504794,0.301384158,0.966469034,0.189079927,0.9843300492666238,-0.028979916767658088,-0.004323339941257169,-0.17388452279216177,3.645,3.0,0.079533404,-0.157682238,0.963394389,0.055594695,-0.420773205,0.707615423,0.993037182438897,-0.10555996830673943,-0.05227064088571139,0.0014238982737395693,3.645,4.0,0.082738965,-0.109873437,0.970007779,0.4151986,-0.479906248,1.413826017,0.9910176117055887,-0.09812433195582594,-0.09077574990008846,-0.00393344602739029,3.584,5.0,-0.170763422,0.14804855,0.953358002,3.614968854,4.059964374,-0.660471639,0.7558908155675541,0.0847692566022767,0.09223873890301375,-0.6426003914730343,3.584,6.0,0.397546746,-0.258976461,0.857123548,1.302955495,-0.608260739,-2.042676449,0.7757821396092089,-0.3598215641319905,0.11631027651476529,-0.5051360543715174,3.584,7.0,-0.101182748,0.03759048,0.973925052,-0.335178265,-0.396797315,-2.585021167,0.8935184947469584,0.05356705225023733,0.07149737171166934,-0.4400493112103156,3.584,8.0,-0.004383674,-0.116234644,0.973167658,-2.604253936,-3.162578024,-0.862437477,0.49361979018354196,0.21070478840988352,0.0018196397677140118,-0.8437651828509032
55,3.736,0.0,0.021282919,-0.059687059,0.977913336,0.149671296,-0.133813578,0.310163743,0.9985428795873698,-0.05190838127140002,0.004557873964101213,-0.014030800549996,3.736,1.0,0.008526108,-0.013575164,0.979526937,0.639785374,0.805625144,0.365986875,0.9945403379651558,0.016896742155436156,0.04027474366993159,-0.09477320975363968,3.736,2.0,0.010873231,-0.032139612,0.978065856,0.453618827,1.088974521,0.277582305,0.9859338817452787,0.004009711143914843,0.04554633525387801,-0.16076017662397163,3.736,3.0,0.092388543,-0.150479738,0.964326815,0.333648097,-0.371781725,1.003805272,0.992438233548707,-0.08857726712362975,-0.06567042572332792,0.053924164573484354,3.736,4.0,0.096658736,-0.103249894,0.969400613,0.183347486,-0.3836785,1.461458422,0.9883959309651642,-0.090996303817173,-0.09874261754766762,0.07101444798739291,3.643,5.0,-0.253191583,0.11450162,0.939749116,1.219253495,2.205036267,-0.457026035,0.725489635886862,0.20186208633296648,0.13444242610653104,-0.6440820758138209,3.642,6.0,0.460254276,-0.149494338,0.852494249,1.730451831,1.392883105,-2.453535458,0.7327143774109102,-0.2610854318665298,0.06875539406076187,-0.6246893101294109,3.643,7.0,-0.072163411,-0.000627958,0.977123353,-0.330530394,-1.372624114,-0.621518248,0.8842870552702656,0.0027659803517870625,0.014235215645375934,-0.46671845032060316,3.643,8.0,0.064026568,-0.135581878,0.968840623,-0.49445951,-0.644830179,0.790620753,0.535040452558921,0.14439694606252015,0.0028587160797923197,-0.832389971008624
56,3.779,0.0,0.033637112,-0.053573683,0.97793681,0.21911231,-0.299505341,0.112106051,0.999142397623289,-0.03870569700159094,-0.01247122443313167,-0.007797874860809654,3.779,1.0,-0.034127551,0.043112328,0.978045826,0.774783893,0.60512538,-0.120494136,0.9910287110246773,0.05855386347344415,0.06440312493023828,-0.10141881726938178,3.78,2.0,-0.065227455,-0.013469574,0.976611463,0.343322473,1.033612831,-0.298217527,0.9797459081953724,0.027899656948629233,0.09263006683204804,-0.17532608258688692,3.78,3.0,0.109795424,-0.127147462,0.965593852,0.436698945,-0.321859894,0.028345775,0.993101960608705,-0.06342918102891133,-0.07974666924015643,0.05801468412608061,3.78,4.0,0.117433831,-0.100718641,0.967671975,-0.040214225,-0.320349678,-0.877475291,0.9894968223196481,-0.0830643671293356,-0.11477998537339065,0.028668876685449877,3.718,5.0,-0.381046066,0.369162614,0.82406848,3.134026864,2.078651548,0.673798014,0.7025424863811242,0.39074030026120243,0.08203768405287515,-0.589089034846562,3.718,6.0,0.297647962,0.056713445,0.931863872,2.753232834,3.789611676,-3.160830576,0.6537286996812569,-0.048189205982261174,0.08194926115776868,-0.7507335787318616,3.718,7.0,0.010224267,-0.038229027,0.979659127,-1.152382373,-0.988772772,-2.030246025,0.8343934998173509,-0.07190589738714458,-0.008474894803325798,-0.5463929040000193,3.718,8.0,0.132434519,-0.16775441,0.956419655,-0.497530273,-0.624848689,-1.278934871,0.48767410517270476,0.08339717584201561,0.017769345280088143,-0.8688516148191787
57,3.87,0.0,0.044928764,-0.051853198,0.977202974,0.326616959,-0.21291783,-0.152198053,0.9993677173282337,-0.02116080210601154,-0.0244192591543149,-0.014835288967207993,3.87,1.0,-0.070731665,0.069435646,0.975009088,0.453496107,0.587561194,-0.57371061,0.9842665135031073,0.08000185941190206,0.0900761496758182,-0.12924944930890508,3.871,2.0,-0.118659462,-0.015030119,0.972538959,0.142699503,0.779794153,-0.070060748,0.9750729033044241,0.03889194831768212,0.12635167882865445,-0.17820073752573706,3.871,3.0,0.132004689,-0.101914904,0.965335752,0.289390718,-0.367307139,-0.037467168,0.9925614751608433,-0.04631625695603883,-0.0962779140735472,0.05837024609987049,3.872,4.0,0.144983745,-0.081820508,0.965466788,0.402144197,-0.432296773,0.019853173,0.9890218740667623,-0.05833873125985693,-0.1315507181347306,0.033566852856588426,3.808,5.0,-0.437266299,0.316294127,0.817727466,-0.10735225,-0.61599894,-1.226740246,0.6738793756757215,0.3531126266238497,0.08502124355131908,-0.643404575755172,3.807,6.0,-0.026546921,0.249067176,0.946517196,1.838403842,4.639746431,-3.662824349,0.5097678712568197,0.1700020976024808,0.1458702667739446,-0.8306370263336118,3.808,7.0,0.151917517,-0.085273352,0.964399566,-1.138523521,-2.760913065,-1.081299357,0.7955635127369799,-0.19223508276086365,-0.10087798484829735,-0.5656394632011349,3.808,8.0,0.206216264,-0.160235786,0.944855727,-0.74994168,-0.23339944,-3.666324436,0.33611777368313794,0.038690758368248764,0.057242215144088,-0.9392822771864583
58,3.925,0.0,0.055115639,-0.023696196,0.977843933,0.462674837,-0.076501373,-0.375478334,0.9990345166630445,0.0032251333307352827,-0.028864164154607772,-0.032961994152229626,3.925,1.0,-0.092948018,0.100099631,0.970197263,0.419264151,0.203006727,-0.038327342,0.9818921395203565,0.09941746955076505,0.09258410324068966,-0.13203096956160168,3.925,2.0,-0.159964831,0.032825806,0.966239991,0.512825059,0.588993507,0.370576358,0.97366229141147,0.07065161450253948,0.14421167078326408,-0.16184278068993307,3.925,3.0,0.154706576,-0.086838594,0.963809594,0.277634374,-0.402966009,0.01577713,0.9911116367172484,-0.030790885548004073,-0.11393532835154442,0.06138718012950636,3.926,4.0,0.168653051,-0.058687107,0.963319766,0.454206933,-0.43089256,0.324418271,0.987084184179483,-0.0342044810898748,-0.14702159005464643,0.053661148644997235,3.872,5.0,-0.385177646,0.336749476,0.836040054,0.247693903,-1.3049417,0.354750143,0.6896459333818337,0.3128747653916366,0.020820543012062886,-0.652736066676042,3.872,6.0,-0.296252946,0.131932913,0.924331055,-3.249526346,0.561668529,2.932002411,0.6607577071092956,0.10945165724667671,0.27197151867929964,-0.6909783500580157,3.872,7.0,0.27846622,-0.148889223,0.927299069,-0.680175408,-1.80859458,-0.981350219,0.7520720339779838,-0.25920103661469596,-0.15967879262552495,-0.5845555247465717,3.872,8.0,0.249555732,-0.135455645,0.937330094,0.325706783,-0.704874604,-0.744188242,0.302546699999796,-0.00948479303247734,0.0283359596250029,-0.9526660518841295
59,3.975,0.0,0.055705592,0.005369613,0.97875536,0.485739355,0.06529213,-0.585263506,0.9973861552401774,0.028255882590495017,-0.025524514708172834,-0.061408155673013956,3.975,1.0,-0.099639765,0.119642936,0.967691317,0.287539582,-0.113374005,-0.562025078,0.977584490588732,0.10690531956649117,0.08314079178175136,-0.1612061572976015,3.975,2.0,-0.177783004,0.053929106,0.962097113,0.321706293,0.009725174,-0.109756889,0.9724785624231569,0.08275156795274302,0.13668324428067696,-0.1695739200515859,3.975,3.0,0.179294507,-0.065824253,0.961195947,0.313530711,-0.334237985,-0.001845324,0.9897011919619386,-0.013951719073837096,-0.12748457982324016,0.06359702879297484,3.975,4.0,0.197937008,-0.0374594,0.958755305,0.221028355,-0.477622539,-0.199447704,0.9849303052557393,-0.01853686887093677,-0.1656609513693711,0.046099104901211364,3.942,5.0,-0.416554744,0.323762083,0.826049792,-0.07290171,0.156993655,-0.922801931,0.6606968976739239,0.31116956006608837,0.04473499855669833,-0.6816537935025829,3.942,6.0,-0.422736431,-0.083362905,0.8801537,-2.03414207,1.517476607,-5.914349637,0.4581887283359886,0.03677851904909837,0.3872506052476403,-0.7992167406265593,3.942,7.0,0.368510641,-0.152181163,0.894831158,-0.218653966,-1.10734004,-0.790185515,0.7195350063221394,-0.2854080771896405,-0.199128626657962,-0.600965385190549,3.943,8.0,0.356419537,-0.138589817,0.902483228,-0.334185531,-1.748699424,-0.430017632,0.28523524052750643,-0.11721446034701409,0.015846911498970776,-0.951131170366484
60,4.061,0.0,0.041965559,0.039679754,0.97859512,0.480753393,0.285357687,-0.70661794,0.9939700093677939,0.05296491093165327,-0.010632030022703973,-0.09542168844128761,4.061,1.0,-0.08246311,0.118407369,0.969252047,-0.121816702,-0.607836058,-0.777253229,0.9741047689121494,0.08872298911822087,0.052788975984088805,-0.20115032786224163,4.061,2.0,-0.147057316,0.043831009,0.967750478,-0.173692385,-0.881695257,-1.357127708,0.965849979547647,0.05270660076365135,0.09217396390213323,-0.23634676139587632,4.061,3.0,0.193968551,-0.042726187,0.960122739,0.427381391,-0.113313334,0.070485901,0.989145740338432,0.006952245445050492,-0.12904838949696654,0.06992055364373465,4.061,4.0,0.223131234,-0.026804547,0.952613231,0.063080025,-0.265690775,-0.429481523,0.9843997701727594,-0.010258600352421553,-0.17376384519639065,0.02565111508672832,4.017,5.0,-0.392926938,0.243665436,0.862672926,-2.11032343,-1.407977417,-1.152838464,0.6585922823155177,0.1839257979980236,0.08136911142791943,-0.7251252127809777,4.017,6.0,-0.417634742,-0.104801569,0.880750733,-0.292360836,-0.64186638,1.367984577,0.5356874381761961,0.042941839886146145,0.3590874002652098,-0.7630538683069431,4.017,7.0,0.431218569,-0.112461992,0.872401195,0.405598387,-0.629380417,-1.26822734,0.6837793898366029,-0.26861262729663854,-0.24403176450901623,-0.6330414681536243,4.018,8.0,0.499367268,-0.117506389,0.834811703,-0.105369348,-2.443680115,-2.272426143,0.17978307770595386,-0.25474496896165033,-0.03125643291683152,-0.9496347093280754
61,4.11,0.0,0.010743928,0.069082278,0.977290748,0.316114628,0.57258033,-0.585605525,0.989834281568676,0.06977322876266799,0.01843145673463239,-0.12255640734818733,4.11,1.0,-0.03150017,0.111340585,0.972388818,-0.105660053,-0.940635819,0.367635164,0.9798952678134418,0.07197878535417013,0.0015219937433069584,-0.18606988501852437,4.11,2.0,-0.068742172,0.027132424,0.976964352,0.203379432,-1.372519187,-1.000573219,0.9571404270420627,0.03844371375077563,0.019650756868173164,-0.2863880785739761,4.111,3.0,0.18567664,-0.01848343,0.962251811,0.242110469,0.371170094,-0.375806758,0.9927632477664291,0.019133027567908963,-0.10601522365422034,0.05306442776364442,4.111,4.0,0.225596286,-0.021713353,0.952670376,-0.301866091,0.341911316,-1.790436452,0.986228456381912,-0.009834043562056877,-0.15169168614830922,-0.0651640680379424,4.083,5.0,-0.332836294,0.054591059,0.920040117,-0.396576205,-1.029903791,-2.506849418,0.5764459924051902,0.12178804740536753,0.08286812326877067,-0.8037478233221506,4.082,6.0,-0.289154306,-0.173995119,0.919468045,-0.530546373,-2.280600158,-2.329675254,0.4977185951233926,-0.09783503870586527,0.2958744186763749,-0.8094212955209019,4.083,7.0,0.447489559,-0.059226176,0.869717399,0.838466119,0.303154373,0.207031876,0.70904091325875,-0.22345281572995387,-0.248311944286357,-0.6210241547575118,4.083,8.0,0.669161081,-0.104877874,0.708006412,-0.538906098,-3.768976453,-0.335186143,0.1535529399005179,-0.45559800192372385,-0.04006886366944634,-0.8759260479374145
62,4.192,0.0,0.014922069,0.080600397,0.975921056,0.139416135,-0.311126206,-0.554931845,0.985980906909257,0.07122957510024523,0.0011233977723620473,-0.1508865031037654,4.192,1.0,0.027767878,0.063795843,0.977661002,-0.915341004,-0.798629053,0.304122072,0.9843598097664019,0.015123595943651091,-0.03166270484118869,-0.1726398415329611,4.192,2.0,0.043833648,0.055539088,0.977828217,0.05700299,-1.819241434,-0.234799148,0.9519549529179501,0.013077909123857201,-0.07255032056619967,-0.2972325468276875,4.192,3.0,0.152843794,-0.022225289,0.967637231,-0.664205358,0.802107765,-1.207524864,0.9977340505455301,-0.012431942068070743,-0.06539630899333901,-0.009774147966610127,4.193,4.0,0.191804545,-0.025873298,0.9610258,-0.363664454,0.747432428,-0.447769716,0.98976523063809,-0.022967547148805802,-0.1083953511046117,-0.08993179558311984,4.16,5.0,-0.286346633,0.086806086,0.932842596,-2.268674309,-2.853943815,-1.652810843,0.5397642644338747,-0.05868736221297071,0.09032345863196724,-0.8348964038594257,4.16,6.0,-0.167920572,-0.188821877,0.947334672,0.47814025,-0.554064954,-3.267294235,0.3834899578637909,-0.15155926777971404,0.22737577513827067,-0.8821935714161464,4.161,7.0,0.257470252,-0.000815709,0.945254677,0.636057063,5.769447451,-0.423769066,0.7740284882668524,-0.0013981802575821069,-0.027490552724887894,-0.6325521432689786,4.161,8.0,0.790871404,-0.177013175,0.550589464,-2.277491783,-2.321376565,-0.527336453,0.07717630040662966,-0.5721202394142403,0.04172669192037423,-0.8154637536331828
63,4.246,0.0,0.052002165,0.089585999,0.97476978,-0.052374618,-0.815732627,-1.033317368,0.9765343599794245,0.05935963516294969,-0.03862318731090708,-0.20338467713877514,4.246,1.0,0.063820534,0.053743884,0.976582067,0.105684938,-0.434821588,-0.068125877,0.98272979003181,0.01729423860896894,-0.05439054859703705,-0.17602482017682555,4.246,2.0,0.093363972,0.039604079,0.975216225,-0.090696651,-0.35732136,2.198450157,0.9783294575849381,-0.00547834602859682,-0.0855559112446747,-0.1884718711040058,4.247,3.0,0.097095876,-0.066406707,0.971781117,-0.721823523,0.843162528,-1.339746332,0.995527069867315,-0.04572893835356883,-0.024277640122335353,-0.07902729622443024,4.247,4.0,0.129119693,-0.05533189,0.969789403,-0.293910421,1.063853221,0.043029367,0.9941341363434122,-0.03410830077873852,-0.04941615914393049,-0.08995546670540318,4.229,5.0,-0.211061493,0.06162393,0.955046353,0.648556322,-0.209854636,1.486599134,0.6074252278522626,-0.02390662482223219,0.053919463552025475,-0.792184168807038,4.229,6.0,-0.068593008,-0.100437916,0.97261926,1.59846368,-1.845070327,2.702271164,0.5461358791432104,-0.1421903123973002,0.11311666304256461,-0.8177543256473462,4.23,7.0,-0.126198191,0.061026575,0.970055036,1.40987122,0.530528152,4.332540379,0.9007588301469455,0.07955107027108957,-0.05767969710977843,-0.42305816346260766,4.23,8.0,0.816577777,-0.282296295,0.459191176,1.644205867,1.154618053,5.623439408,0.3659913619179006,-0.4920658974931799,0.14059786749743203,-0.7772732564426015
64,4.35,0.0,0.081140947,0.084196792,0.973070422,-0.235170992,-0.353515471,-1.434758973,0.9596383332658017,0.044583589706214025,-0.050943623856923435,-0.2729676172077309,4.35,1.0,0.096048538,0.061197104,0.973788269,0.064670496,-0.719933572,-1.756719506,0.9613843403385895,0.019252433848502816,-0.08760063221413827,-0.2601838257431224,4.35,2.0,0.098774662,0.010891603,0.974652214,-0.736338693,-0.144683736,-1.945275065,0.9546383210842806,-0.033526026423124064,-0.08498334828047746,-0.28340697236430357,4.351,3.0,0.062042957,-0.083526284,0.973833678,-0.211201907,0.604284089,-1.17722088,0.9889627811259001,-0.05220076900757998,0.003022853725428329,-0.13863101968209407,4.351,4.0,0.062149861,-0.076392988,0.975218184,-0.195857471,0.997226678,0.600884802,0.9972163471709029,-0.041577992043216716,0.004659020704413154,-0.06171807708322858,4.287,5.0,-0.145695602,0.044276098,0.967389487,-0.32871023,-1.201149692,-0.348934363,0.5973019931407987,-0.07273267665509328,0.027231250952159856,-0.7982472960857403,4.287,6.0,0.046535909,-0.039672698,0.978269128,0.41811092,-1.425928657,0.794320589,0.5917919879703916,-0.17240364852565618,0.05025823039780645,-0.7858328926854455,4.287,7.0,-0.287777156,-0.097702384,0.930515746,-2.304061204,3.236106164,-2.550956352,0.8517489580920693,0.04956448633133818,0.1550719310698852,-0.49801583336078964,4.287,8.0,0.772445161,-0.39305131,0.457037351,0.694576988,2.573348598,1.997336454,0.43981045197312846,-0.36685279101980633,0.19935458433031325,-0.7951374382851425
65,4.383,0.0,0.089050342,0.068538335,0.973574616,-0.423095397,-0.097261279,-1.328676359,0.9403495637703563,0.02436649369472173,-0.04824778537204834,-0.33588855757322056,4.384,1.0,0.12974152,0.068714013,0.968377262,-0.323830663,-0.478311312,-1.729897939,0.9339809141930783,0.005164436777965493,-0.10359765743048432,-0.34193640620844146,4.384,2.0,0.103791132,-0.022805158,0.974049447,-0.952535342,0.08893205,-2.85150671,0.9053318544579235,-0.062356165228924836,-0.07217222117955117,-0.41385639109687544,4.384,3.0,0.01165076,-0.105005076,0.973297074,-0.517728367,1.027703258,-0.851206895,0.9792438243039461,-0.07062861958079064,0.053763518173945576,-0.18221584665515303,4.385,4.0,-0.010859363,-0.079555687,0.976502927,0.039168544,1.145643626,-0.61108237,0.9930602024084229,-0.03602403679748909,0.06064908076417989,-0.09410309329568066,4.383,5.0,-0.046204039,0.028318243,0.978149408,0.045857524,-1.55869057,1.198630165,0.648580567976432,-0.12160031717900165,-0.019935162434555006,-0.7511053181838369,4.383,6.0,0.097798625,-0.003683905,0.974961465,0.707434808,-0.44302692,-0.464717474,0.5819608155001916,-0.15783290590559346,-0.0018310829505597862,-0.7977512332619588,4.384,7.0,-0.419669466,-0.195340351,0.863873073,0.054263072,0.93038829,-1.545708807,0.8030694932952102,0.06068261572982288,0.2039536944678301,-0.5565967118117788,4.384,8.0,0.623545756,-0.455660671,0.603112794,0.257171408,3.696201609,1.618456928,0.47028673333559057,-0.20588776515920354,0.28444705221889127,-0.8096483749692029
66,4.462,0.0,0.097023579,0.049317906,0.973523584,-0.471141396,-0.151640935,-1.100700634,0.920792929183583,0.0010519878508387028,-0.0478672502149539,-0.38710205533416886,4.462,1.0,0.135504644,0.049721894,0.968084307,-0.693880164,-0.038314765,-1.504198915,0.9061308983497663,-0.019637596188506738,-0.09181562655589445,-0.41244520919987776,4.463,2.0,0.099208479,-0.05514038,0.973391605,-0.457071084,0.042763427,-1.498873882,0.871804173064588,-0.07431836774933692,-0.06267428775774382,-0.48011060985600357,4.463,3.0,-0.03830058,-0.145981075,0.968214641,-0.73480917,1.044729812,-1.481383512,0.9567332028729769,-0.09992203666286954,0.10076678595984638,-0.25401421211594005,4.463,4.0,-0.07348373,-0.083773213,0.973782414,0.013719759,1.132800633,-0.653638877,0.9847417928307866,-0.03223722136599617,0.11328686170017266,-0.12810327855731815,4.467,5.0,0.078517141,0.045662455,0.975182034,-0.005604472,-1.762172505,1.17882348,0.6916873008525851,-0.17833868283266294,-0.07232619562577557,-0.6960839844954619,4.467,6.0,0.185555435,-0.001671667,0.962284982,-0.018722164,-1.675736972,2.45500604,0.6806129816599606,-0.21709783368011998,-0.03649278874442218,-0.6987866456773425,4.467,7.0,-0.40351357,-0.191158925,0.872619656,0.866415335,-1.429823513,-0.928569996,0.7873562192840635,0.04346041133707619,0.12797984886602748,-0.6015002368123777,4.467,8.0,0.3369,-0.462832651,0.795681674,1.530495273,6.148922471,-0.012564517,0.4055858074109928,0.06723013351720293,0.34240461833094454,-0.8448309531022594
67,4.515,0.0,0.099692292,0.01774844,0.974640159,-0.683421323,-0.064865526,-1.014448301,0.8998592141814661,-0.029745694905186932,-0.03926421144338924,-0.4333900206362057,4.515,1.0,0.13374349,0.015294624,0.97046368,-0.771698644,-0.04684314,-1.069621713,0.8820431335703282,-0.04983037134131026,-0.07794851861931693,-0.46199661585175866,4.515,2.0,0.1100607,-0.07643894,0.970293116,-0.622030889,-0.129961119,-0.889856689,0.8474346746990229,-0.09965377151955455,-0.054517455279926595,-0.5186052882583158,4.515,3.0,-0.085246067,-0.181326233,0.958631267,-0.202040354,0.755345533,-0.548980393,0.944690388053527,-0.10047922534182835,0.13276540416361937,-0.2825550272977871,4.515,4.0,-0.129036809,-0.089014101,0.967195426,-0.026929215,0.727392553,-0.665773835,0.9757744493080465,-0.03306503846772789,0.1436022176611733,-0.16170754587062217,4.498,5.0,0.221025522,-0.030233246,0.954780954,-2.612147179,-3.344434698,-2.302457263,0.5791158642832503,-0.35523065841161183,-0.1196627588867595,-0.7239591281250108,4.498,6.0,0.192809011,-0.005304264,0.960805157,-0.352858866,0.029116397,-2.665574833,0.5855649992140708,-0.2089179779957488,-0.054944885499865335,-0.7813116981864535,4.498,7.0,-0.222976817,-0.108351637,0.948193684,1.141157296,-2.482548912,0.490370349,0.813121286677804,0.01659944880249151,-0.008299677541515917,-0.5817983729812182,4.498,8.0,-0.112162197,-0.263712107,0.936682212,0.546035813,6.578563913,-2.406873486,0.20014237817079059,0.31262087195030597,0.42196946682312825,-0.8271354108912129
68,4.573,0.0,0.113133746,0.006779824,0.974510538,-0.870920305,-0.093805774,-1.180408664,0.8713790250031838,-0.06662100950473143,-0.029782432546922016,-0.48515280333999866,4.574,1.0,0.141210719,0.002460078,0.969746091,-0.544630616,-0.165789887,-0.729883816,0.8628087411173566,-0.07256238488739876,-0.0738333719906447,-0.4948175519637784,4.574,2.0,0.117968065,-0.0904998,0.969418032,-0.879380769,-0.121583738,-0.790604586,0.8221085365870704,-0.13389702678749388,-0.039365352916798546,-0.5519596989616821,4.574,3.0,-0.109764625,-0.189684724,0.956906178,0.284844775,0.739626478,-0.10303992,0.9400112192477037,-0.07494652005174796,0.15801518287173863,-0.2929046411421123,4.574,4.0,-0.160442544,-0.084003786,0.965590262,0.314040229,0.678199123,-0.716963286,0.9652738275840395,-0.01713091195676596,0.16754366207309945,-0.19970500979175004,4.548,5.0,0.351837838,-0.106400682,0.931528867,-3.661359272,-3.455680727,-3.844808717,0.36677826893142434,-0.5192373697835908,-0.14926322597283595,-0.757355098109248,4.548,6.0,0.212727635,0.009022515,0.951640451,-0.247043929,1.061055308,-6.256701359,0.3509557395529148,-0.14813105434427543,-0.0777823500839578,-0.9213235944168241,4.548,7.0,-0.06283864,-0.031967602,1.010781568,1.061010446,-2.020169933,3.131942009,0.8939018445211111,0.0029461903798997427,-0.12507069893178932,-0.43045108037117813,4.548,8.0,-0.511963564,-0.119845721,1.006955467,-1.171392325,4.584556477,-1.408351636,0.07346158667705682,0.46290447786555206,0.5007847468197097,-0.7276932574977105
69,4.631,0.0,0.096178264,-0.029128517,0.974190059,-0.859262434,0.247073032,-0.809981688,0.8486588942587301,-0.09294055117688137,-0.0028281430534215853,-0.5207035017640619,4.632,1.0,0.140974384,-0.025815322,0.968543645,-0.674668674,-0.021143689,-1.186735539,0.8302878904297885,-0.0941732256851554,-0.06186257842394853,-0.5458263862808809,4.632,2.0,0.124402096,-0.124673667,0.964150193,-0.767990476,-0.113085344,-0.755904951,0.7962245938387081,-0.16160647951102533,-0.026691738081034685,-0.5824064672242663,4.632,3.0,-0.121022699,-0.188052166,0.95365187,0.024821607,0.649230222,-0.68231308,0.9252095075908034,-0.06951654723071733,0.17840240401982235,-0.3276086063653553,4.632,4.0,-0.164776751,-0.081082895,0.962321769,0.253303448,0.594698818,-0.846568594,0.9521450815242676,-0.006842888872214313,0.1853875947039657,-0.24290812734634154,4.597,5.0,0.354344903,-0.105424656,0.907471394,-0.767766688,-1.354694596,0.839048384,0.37775636034296883,-0.5641475819311915,-0.11190178586894335,-0.7256139664731956,4.597,6.0,0.240261373,0.040009549,0.9497177,0.24585092,-0.903702606,0.170370211,0.35751030840855513,-0.18217019301386062,-0.10228473063189379,-0.9102407560851544,4.597,7.0,-0.170417061,-0.086578557,0.96097668,0.034437231,0.553821748,3.154152414,0.9582540367420995,-0.004357357756087729,-0.07471781649462618,-0.2759482966048744,4.598,8.0,-0.330853013,-0.291247881,0.874988546,-1.708723599,0.11048982,3.203144515,0.232045005678702,0.5157038374526278,0.4588072717782642,-0.6853470323417115
70,4.665,0.0,0.065749409,-0.084101507,0.973955313,-0.898917499,0.673943383,-0.319706048,0.8360102700878522,-0.10905846739796597,0.04663665283428464,-0.5357407037073606,4.666,1.0,0.140748624,-0.066456517,0.967046202,-1.042185428,0.158089539,-1.442374019,0.7858848537899087,-0.1236874650757552,-0.03419863917371566,-0.604910622030572,4.666,2.0,0.138832827,-0.166480378,0.956090859,-0.842100861,-0.074642504,-0.987602309,0.761121282632436,-0.189533186985375,-0.012582329706786126,-0.6201719512637379,4.666,3.0,-0.147107288,-0.203922331,0.946815784,-0.223765891,0.325209676,-0.613984271,0.9121466917717709,-0.08024607511326237,0.18735699964684205,-0.35559293412842685,4.666,4.0,-0.188311906,-0.087695204,0.956720532,-0.004746616,0.163974519,-1.271043144,0.9350470277057205,-0.018096041645686727,0.18383759303870542,-0.30259433015373965,4.677,5.0,0.396959191,-0.179267269,0.877533274,-0.838440358,0.115380347,0.332180767,0.37763717887192577,-0.5503594123041639,-0.06220458730966504,-0.7420412843902304,4.677,6.0,0.334019132,-0.007360878,0.921441825,-0.257599293,-1.724093056,2.74286981,0.4752672586029672,-0.2810294554124204,-0.08892985992092929,-0.8289963559057799,4.677,7.0,-0.177014083,-0.087248765,0.958733888,-0.161851753,-0.027662584,0.408701882,0.9646929687426115,-0.015468408457313022,-0.05630855976760251,-0.2568220210481626,4.678,8.0,-0.299237832,-0.293039087,0.885725021,-1.684482968,-3.435779782,-0.688231821,0.34113069759269665,0.3336317307030828,0.45513032566282463,-0.7517819511600669
71,4.73,0.0,0.038574152,-0.136307383,0.968950119,-0.794299033,0.279995431,-0.583695745,0.8155549733031453,-0.13142375627009667,0.07292448966807574,-0.5588200968245638,4.731,1.0,0.131328409,-0.111609065,0.964495342,-0.717625019,0.188155133,-0.581833224,0.7644914441156934,-0.14073475807842847,-0.007900751209659584,-0.6290342899022522,4.731,2.0,0.147287385,-0.199781644,0.947060569,-0.8932169,0.359299672,-0.960567699,0.7241467903502082,-0.20411981173793903,0.01996573722404315,-0.6584435418611534,4.731,3.0,-0.123726739,-0.209576378,0.949135626,0.030926082,-0.60383616,-1.502163885,0.8904095953184014,-0.1031728916904167,0.1431419802907595,-0.4195670154618903,4.731,4.0,-0.163695976,-0.09260101,0.961915631,0.295690535,-0.592810636,-0.939863242,0.9265809561746747,-0.022079322845400297,0.14182345080771727,-0.34762960742449,4.723,5.0,0.138529981,-0.090568825,0.966099235,1.381734917,5.795060778,-3.109043351,0.3379471526627575,-0.27535646859708773,-0.057959113697409824,-0.8981154036916896,4.723,6.0,0.536837554,-0.091835359,0.814686263,-0.857012484,-2.744287441,-1.289556382,0.39962758934577153,-0.40771328048716665,-0.1359444381530516,-0.8096831358521255,4.724,7.0,-0.10630748,-0.036762526,0.973318672,0.46976781,-0.676107889,0.867524433,0.9736412294685192,-0.00260285060631735,-0.08370773453855603,-0.21215323854745746,4.724,8.0,-0.135023359,-0.307090612,0.921040199,-0.692051498,-2.481572885,-0.44347679,0.39960641873643593,0.19325919457566873,0.41557638375956846,-0.7938903344152288
72,4.793,0.0,0.031520394,-0.16669368,0.964960456,-0.187160989,0.385344863,-0.783919196,0.7915080569795376,-0.1258891724939042,0.08468794115351093,-0.5920260675075519,4.796,1.0,0.109512929,-0.130396849,0.9648179,0.136369828,0.524313294,-0.137109391,0.7618861067640241,-0.1136696214988551,0.007687674840290113,-0.6376124819385321,4.796,2.0,0.121256198,-0.215790755,0.948504762,0.216529916,0.581419392,0.255950949,0.7355779848173939,-0.16877963113870767,0.0372428882730482,-0.6550201765119493,4.796,3.0,-0.066344002,-0.225068182,0.951191246,-0.107654847,-0.294208253,-2.293266876,0.8415350428764797,-0.12870133067739423,0.1117519176057082,-0.512607303892752,4.796,4.0,-0.095279461,-0.08341504,0.972103778,-0.074772989,-0.916218816,-2.191291336,0.8915087003900498,-0.0567678903287822,0.08756998012460647,-0.4408187182248955,4.783,5.0,-0.227170837,0.026275701,0.952598551,1.818640807,4.918410822,-2.221977007,0.2915788267728867,0.011417770574533921,-0.06618792603599853,-0.954185820865049,4.783,6.0,0.58132299,-0.110792086,0.780588045,-1.714592802,0.223247401,-3.000536239,0.25048845111410034,-0.39442957117499833,-0.12075509024152273,-0.8758419134877752,4.783,7.0,-0.125694441,-0.097991702,0.966600504,-1.148369593,1.366593513,-5.6014845,0.8900890382643564,-0.01978038931685597,0.0003300959787576759,-0.45535714686029866,4.784,8.0,0.076285058,-0.362318902,0.907676486,1.796348355,-0.54085906,0.465309681,0.4127561872147542,0.193112863314965,0.3088415657015979,-0.8348392894642777
73,4.859,0.0,0.035119873,-0.159739767,0.965789212,0.089292083,-0.110066824,-1.086703187,0.7607412234020924,-0.1255845664200597,0.06607085191804805,-0.6333529428530328,4.859,1.0,0.06766322,-0.118434142,0.970340169,0.039523775,0.750335547,-0.206758314,0.7555570242097729,-0.08385847756500317,0.03433976994700031,-0.6487851101156219,4.86,2.0,0.075852782,-0.194011045,0.957346369,0.303488965,0.899686588,-1.074509557,0.702037812560165,-0.1239970476403588,0.05201427950512062,-0.6993297910426644,4.86,3.0,-0.015869298,-0.23284542,0.950286365,0.168040226,-0.767148179,-0.812143497,0.8260706834388084,-0.14286177608250175,0.06569737140262069,-0.5411853603787516,4.86,4.0,-0.046178832,-0.142507952,0.968916921,-0.988858375,-0.721506805,-1.401940579,0.8592980145896144,-0.12098103026304302,0.06633056553206365,-0.4925147393886158,4.858,5.0,-0.314586045,-0.035147813,0.92703034,0.663747738,1.744901564,-0.704420832,0.26397023539079334,0.1203176722222498,-0.0587089870595873,-0.9551945495118708,4.857,6.0,0.603517991,0.047334032,0.770171101,-2.106824092,0.211109922,-1.59755961,0.14195705377508086,-0.38574344713150027,-0.05824108574345401,-0.9097572004716589,4.858,7.0,0.036039727,-0.174414856,0.964039209,-0.357401111,-3.187324533,-1.77946148,0.8414746230994454,-0.11303025029776843,-0.13336018198346195,-0.511233491722332,4.858,8.0,0.078473636,-0.312426232,0.925110122,-0.145813553,-0.269171609,-1.269771026,0.36565290133682804,0.13328775998726128,0.30531945392727255,-0.8690870841492757
74,4.92,0.0,0.055405066,-0.142017413,0.967893761,0.29812617,-0.26023425,-1.304200689,0.7224328734047348,-0.12243197365868098,0.035117402946303944,-0.6796086544920729,4.92,1.0,0.027044124,-0.098763232,0.974828415,0.708122766,0.799427458,-1.487479796,0.7087618130034674,-0.031867611730195165,0.03605867520738915,-0.7038046033473633,4.921,2.0,0.032171809,-0.174152172,0.963478072,-0.012387359,1.180803333,-1.689724633,0.6406541287832846,-0.08287181472614848,0.08298036193699977,-0.7588206699410145,4.921,3.0,0.057916876,-0.219012182,0.953326439,0.126026917,-0.891643886,-0.864728471,0.8062942533601857,-0.16146334185497038,0.016454031485349695,-0.5688131776631451,4.921,4.0,0.030977301,-0.18528485,0.961770727,-0.4005514,-0.953912257,-1.419398997,0.8241024897094626,-0.16252275774572703,0.021997158735815047,-0.5421785357951201,4.932,5.0,-0.404177036,0.04328199,0.891446349,2.875372074,1.701368444,-0.498969351,0.2289156485597693,0.24777498977783297,-0.16385122680014505,-0.9270156178625807,4.932,6.0,0.454386279,-0.017668603,0.867743586,-2.568251213,4.340529486,-1.483568659,0.04025244596981623,-0.18117529662760473,0.05721106860833645,-0.9809598086129924,4.932,7.0,0.118971567,-0.165507878,0.958656304,-0.32508045,-1.201144779,-2.744004321,0.7609278350667809,-0.1361556146290803,-0.1776253709304498,-0.6090153577927077,4.932,8.0,0.181771966,-0.320482422,0.907206134,-0.057146438,-1.187158181,-2.599054069,0.271852848104108,0.015299340874688492,0.2830557230230008,-0.9196420047009658
75,5.0,0.0,0.095398924,-0.117986496,0.967814152,0.240599267,-0.48663072,-1.266984489,0.6819583628563671,-0.1287092707818098,-0.0007565081560868293,-0.7199764875608702,5.0,1.0,-0.008215746,-0.044709995,0.978950212,0.73918709,0.50747466,-1.58689572,0.6533888634727936,0.008997088401158265,0.025634781980089606,-0.7565347998888524,5.0,2.0,-0.039341845,-0.176718242,0.963017073,0.161410934,1.295633789,-0.856031607,0.6043164997123723,-0.028557665511161196,0.11460482436873458,-0.7879414712701385,5.001,3.0,0.121087534,-0.212995824,0.948607183,0.099640945,-0.837282884,-0.723759161,0.7872823143541242,-0.17832754159704436,-0.02624826509430637,-0.5896582688241618,5.001,4.0,0.113198995,-0.194351264,0.952638743,-0.327781494,-1.021570694,-2.110131289,0.764261779711066,-0.20025003429455848,-0.030983248363494913,-0.6122449625425661,5.007,5.0,-0.389553575,0.054058812,0.897772052,0.453098603,-1.423971949,-2.817295478,0.07924576308865695,0.20777914698571912,-0.14621840283231347,-0.9639336666926571,5.007,6.0,0.124565072,-0.100873226,0.966313166,-1.752158425,5.699075658,-1.630169625,-0.07508722567571863,0.11700415758880654,0.13643049543904437,-0.980845887773158,5.007,7.0,0.193408164,-0.166184032,0.946793087,-0.224799983,-0.716283221,-2.521229815,0.679133021981668,-0.14184482220836123,-0.199137560383995,-0.6921001494805764,5.007,8.0,0.323287939,-0.31569823,0.869439208,-0.945808378,-1.563109098,-2.073879608,0.1970654982724705,-0.11801028456090237,0.2882560495308058,-0.9295951871849226
76,5.101,0.0,0.118579384,-0.097600073,0.967569199,0.247483894,-0.239112034,-0.844500755,0.6535611600149823,-0.12430590459251156,-0.023289005101849385,-0.7462328553773776,5.101,1.0,-0.020964823,-0.004618239,0.979285019,0.573353401,0.041409202,-1.145498751,0.61004248870094,0.026295052309473304,0.005087727480537495,-0.7919159344480254,5.102,2.0,-0.1122138,-0.155888582,0.960608043,0.621745697,0.919090678,0.717852179,0.6289867673072651,0.03392650898472153,0.11624047245738472,-0.7679275949614977,5.102,3.0,0.167024214,-0.198973971,0.944837695,0.098941996,-0.492727091,-0.741242202,0.7662752002405192,-0.18364180771810099,-0.05307818490939453,-0.6134172399281783,5.102,4.0,0.179902332,-0.188842699,0.944373118,0.060563531,-0.516674666,-1.172140608,0.7290947396377244,-0.20552047982374105,-0.061989556869959155,-0.6498765173820978,5.085,5.0,-0.312323784,0.103073421,0.922814566,0.15872054,-0.898085814,0.420741366,0.09005782305091554,0.15809925579644737,-0.15141246339491374,-0.9715804031332782,5.085,6.0,-0.159952738,-0.127584823,0.95770467,2.012478268,5.457626828,1.547338947,-0.04974315235321477,0.4031937959283874,-0.013791402532838623,-0.9136575829789845,5.085,7.0,0.245520774,-0.141276719,0.938552842,0.223633998,-0.614168928,-0.353030839,0.66623462332508,-0.15205009842928613,-0.21467064021113536,-0.6978027733406298,5.085,8.0,0.413253038,-0.327130375,0.826618802,-0.466950708,-1.011283202,-0.61445415,0.17592979701110986,-0.19118498873738404,0.28142401702831915,-0.9237410509687011
77,5.131,0.0,0.126393015,-0.076101318,0.969227731,0.290890524,-0.046905421,-0.241833515,0.6467349747419114,-0.11140727424736917,-0.0360446957821838,-0.7536730535161253,5.131,1.0,-0.019427458,0.025087751,0.978193835,0.487757697,-0.137602774,-0.732560771,0.5806495340777708,0.03376448144828873,-0.017865368984195076,-0.8132569747372933,5.131,2.0,-0.142475284,-0.126819975,0.961729945,0.675074553,0.070323976,-0.135556302,0.6223686010495861,0.05500126779813082,0.09094733169162102,-0.7754745436352851,5.131,3.0,0.187793064,-0.182865417,0.943756327,0.285327754,0.022394492,-0.19239232,0.7641405050862388,-0.16661356977076272,-0.05902882996209014,-0.6203586092641076,5.132,4.0,0.198466651,-0.168751818,0.943523085,0.302867573,0.044708222,-0.017618887,0.7333805885142852,-0.18573478639395255,-0.06608433034306394,-0.650606150291205,5.138,5.0,-0.301649522,0.1049013045,0.925850842,-0.4411884539999999,-0.8948420115,0.189151119,0.09447204515210231,0.11148870193805761,-0.12486363974351924,-0.9813533377407685,5.137,6.0,-0.2515519125,-0.102492238,0.936369172,1.7909647665,3.5045823235,2.2373101955,0.016313309717374328,0.5432807998083796,-0.15015070072132805,-0.8258538705839712,5.138,7.0,0.2604882505,-0.1483100945,0.933190354,-0.272779944,-0.365707247,-0.605171085,0.6436176400861644,-0.16678985298540125,-0.20546566181996573,-0.718137410335869,5.138,8.0,0.4775456535,-0.3160934515,0.792123935,-0.57514066,-1.457050909,-1.3302195315,0.1252809189440073,-0.2916595991096674,0.2665425524541422,-0.9100518871619157
78,5.195,0.0,0.119134304,-0.049825213,0.970924027,0.463480635,0.24646074,0.245697785,0.6594717927439944,-0.08242965432723137,-0.042752993700871524,-0.7459721765536089,5.195,1.0,-0.002622974,0.040129248,0.978796079,0.03762056,-0.243684344,0.539285394,0.6024471209766105,0.022404876079535688,-0.027178686795689067,-0.797381218075091,5.195,2.0,-0.078081163,-0.102094927,0.971480292,0.354791986,-1.52156806,-0.912682655,0.5936767027531541,-0.0031946799443643833,0.02959816258176311,-0.8041527935659862,5.195,3.0,0.164890359,-0.157064285,0.952963263,0.506260821,0.452912455,0.53892156,0.7873750339524416,-0.12914956267674085,-0.04894722797671938,-0.6008037243910801,5.195,4.0,0.177281651,-0.148374647,0.951887693,0.524159944,0.473337316,0.798627539,0.7671395674535069,-0.1460320562929255,-0.054134691483581486,-0.6222868773805885,5.19,5.0,-0.29097526,0.106729188,0.928887118,-1.041097448,-0.891598209,-0.042439128,0.09143937570843123,0.06777478680561831,-0.06990166861876912,-0.9910394419839289,5.189,6.0,-0.343151087,-0.077399653,0.915033674,1.569451265,1.551537819,2.927281444,0.10176696761229075,0.5645384318654054,-0.27741382197698455,-0.7707018973806086,5.19,7.0,0.275455727,-0.15534347,0.927827866,-0.769193886,-0.117245566,-0.857311331,0.6097181175568549,-0.18476018912202705,-0.17363929794850105,-0.7509706278187382,5.19,8.0,0.541838269,-0.305056528,0.757629068,-0.683330612,-1.902818616,-2.045984913,0.04393485166455922,-0.413167802336606,0.24029902924071092,-0.8772790163155189
