,timestamp,node,accx,accy,accz,gyrox,gyroy,gyroz,q0,q1,q2,q3,timestamp,node,accx,accy,accz,gyrox,gyroy,gyroz,q0,q1,q2,q3,timestamp,node,accx,accy,accz,gyrox,gyroy,gyroz,q0,q1,q2,q3,timestamp,node,accx,accy,accz,gyrox,gyroy,gyroz,q0,q1,q2,q3,timestamp,node,accx,accy,accz,gyrox,gyroy,gyroz,q0,q1,q2,q3,timestamp,node,accx,accy,accz,gyrox,gyroy,gyroz,q0,q1,q2,q3,timestamp,node,accx,accy,accz,gyrox,gyroy,gyroz,q0,q1,q2,q3,timestamp,node,accx,accy,accz,gyrox,gyroy,gyroz,q0,q1,q2,q3,timestamp,node,accx,accy,accz,gyrox,gyroy,gyroz,q0,q1,q2,q3
0,0.028,0.0,-2.59e-17,-9.93e-18,1.0,0.029479818,-0.017719939,0.17496589,0.9999602455482708,0.001473932302299916,-0.0008988561215306005,0.008747965722567788,0.028,1.0,-9.1e-17,5.34e-17,1.0,0.008216705,-0.016166542,0.193489313,0.9999527913747513,0.00041081585503264655,-0.0008122633638668421,0.009674010564610076,0.0,2.0,-1.12e-17,2.58e-17,1.0,0.007668062,-0.034346018,0.208668192,0.9999440217290491,0.0003833816377573861,-0.0017212047461247566,0.010432827089374304,0.0,3.0,3.32e-17,1.07e-17,1.0,0.004118181,-0.00530498,0.20554269,0.9999471374993862,0.00020589816513271855,-0.0002673510214109485,0.010276591660683619,0.0,4.0,6.31e-17,3.77e-17,1.0,0.003061396,-0.027760876,0.258698884,0.9999153765500621,0.0001530568467054446,-0.0013899061207165453,0.012933849903441845,0.063,5.0,-5.83e-17,-9.85e-17,1.0,-0.005360627,0.015747068,0.13117868,0.9999781436370702,-0.00026802549180954277,0.0007890941528294348,0.00655879111674686,0.063,6.0,5.07e-18,-5.53e-17,1.0,0.007694757,0.000835811,0.096499401,0.9999882852254427,0.00038473334288282083,3.993373357648188e-05,0.004824914240762822,0.063,7.0,-1.35e-17,-5.44e-17,1.0,-0.001893522,0.014942551,0.132115597,0.9999778985196041,-9.46740075180346e-05,0.0007477364330262824,0.006605633911696166,0.063,8.0,-6.34e-18,2.82e-18,1.0,-0.019179962,-0.000535465,0.06786214,0.9999937833445696,-0.0009589921382392536,-2.3519120622725105e-05,0.0033930890267672162
1,0.089,0.0,0.001704959,0.002465632,0.97978978,0.060380203,-0.031340581,0.172641711,0.9998358928033845,0.0044775224415953795,-0.002473847624769002,0.01737870342613549,0.09,1.0,0.001295857,0.000477171,0.980442295,0.008378983,-0.036820269,0.207370395,0.999795360745623,0.000822937542143901,-0.002641957832936469,0.020039447700480273,0.028,2.0,0.003413014,0.001042007,0.980491849,0.014264569,-0.039677211,0.224530053,0.9997579651558105,0.001114394804347007,-0.003710903621654688,0.02165637148840962,0.028,3.0,4.51e-17,7.58e-18,0.978885591,0.01014921,-0.016883801,0.209936299,0.999783434815431,0.0006985195981416356,-0.0010867302620348055,0.02077052133113927,0.029,4.0,0.003030179,0.0008823,0.98020204,0.010475493,-0.021817044,0.227783052,0.9997008756954568,0.000706632698877317,-0.002496594394521916,0.024319268500409795,0.109,5.0,-0.000895932,-0.000466172,0.978424744,-0.041492599,0.022173126,0.125346261,0.9999132508550429,-0.00234211532347529,0.0018654285093897955,0.012826746929289127,0.109,6.0,-8.58e-05,0.000955101,0.98004953,0.013474368,-0.002036996,0.104153986,0.9999491022405488,0.001069343253554417,-6.361067778221609e-05,0.010032217452196882,0.109,7.0,-0.000593708,-0.001272454,0.97977703,-0.009810584,0.003033068,0.091953244,0.9999366731177102,-0.0006383999198851076,0.0008541638342873224,0.011203240779897882,0.11,8.0,0.001334438,-0.001937452,0.979803789,-0.021359027,-0.001395951,0.01309416,0.9999897353493339,-0.002029448713726736,-0.00016169090824857363,0.004047763572334322
2,0.196,0.0,0.004189518,0.007644846,0.979841826,0.073748298,-0.044574972,0.117059996,0.9996863032704986,0.008133922653983569,-0.004644947970730592,0.02322840532565865,0.196,1.0,0.003686812,-0.001546079,0.980006641,0.012448271,-0.033125544,0.112789287,0.9996605328100912,0.0013060499894486449,-0.004217978933996739,0.025677266773980526,0.09,2.0,0.006892022,0.002344246,0.980043879,0.026115121,-0.075746939,0.280280588,0.9993329794197803,0.002464910505813727,-0.007479456048208993,0.03565919513121882,0.09,3.0,0.002590445,0.000185656,0.980387299,-0.004087761,-0.038668264,0.213827465,0.9995004411286159,0.0004651051904265281,-0.0030515395690597397,0.03145377508539112,0.09,4.0,0.005226367,0.001215786,0.979946022,-0.001070035,-0.054831712,0.276620002,0.9992584907465015,0.0006830774633679424,-0.005262057305223888,0.038135453702813814,0.2,5.0,-0.002167955,-0.002849836,0.979728625,-0.023153446,0.030663577,0.006162556,0.9999023979700805,-0.003431397714599231,0.0033068863290533833,0.01313333720779619,0.2,6.0,-0.001167893,0.001824618,0.979779213,0.019153525,-0.013684665,-0.044501811,0.9999672677888102,0.002019567182651929,-0.0006668268570694836,0.007806410271023606,0.2,7.0,-0.000923596,-0.000328867,0.979805613,0.00293759,-0.008267438,0.044264625,0.9999098179842544,-0.0004384809741853757,0.0004049682790874724,0.01341639421839017,0.2,8.0,0.000977672,-0.002813539,0.980128118,-0.007769154,0.00107966,-0.002400952,0.9999894958874533,-0.002358482143793314,-0.00014384990968028987,0.003927465332483425
3,0.224,0.0,0.008134994,0.01097137,0.979235646,0.022987178,-0.059812225,0.042511878,0.9996089990658307,0.00909865830242322,-0.0075647299192276,0.02533452713103551,0.224,1.0,0.005530219,-0.002319118,0.979941344,-0.004870022,-0.032867007,0.021750346,0.9996250363878094,0.0008586112397178564,-0.0057312133403553825,0.02676196194334291,0.196,2.0,0.012405566,-0.000206043,0.979732647,0.024597732,-0.069216414,0.146052471,0.999012346164542,0.003527951327874801,-0.010803665355976046,0.04295540228098923,0.196,3.0,0.00692242,-0.000289834,0.980298422,-0.017585429,-0.064613794,0.183717998,0.9991541540166772,-0.0003900239924137849,-0.006351613489561477,0.04062611719796254,0.197,4.0,0.010306503,0.000779658,0.979990902,-0.019834788,-0.062726813,0.26284466,0.9986503295631497,-0.00026544107739460493,-0.008425734300403432,0.051248959071827464,0.326,5.0,-0.003039928,-0.003877477,0.979300119,-0.001581757,0.00335552,-0.020306092,0.9999154703025485,-0.0033728888127596292,0.003292088188781393,0.012117674118724133,0.326,6.0,-0.000354904,0.004104054,0.980157656,0.04092513,-0.015114302,-0.06329173,0.999980046591138,0.004081028868421953,-0.0013072112419310177,0.0046414245366738945,0.326,7.0,-1.36e-17,-6.35e-17,0.979608595,0.013080384,-0.013591207,-0.01097645,0.999917125807893,0.00026822769676120814,-0.0003061113483592468,0.012867628601545398,0.327,8.0,0.000977672,-0.002813539,0.980128118,-0.002068968,0.002056273,-0.019861256,0.9999928847790696,-0.0023696729271908885,-7.984927917428231e-05,0.002934052750922466
4,0.298,0.0,0.012984103,0.012502995,0.979610172,0.028758441,-0.073379688,0.000439045,0.9995637374350083,0.010373495318374885,-0.011085645904743183,0.02533444009075659,0.298,1.0,0.008295328,-0.003478677,0.979843399,0.001681986,-0.032935946,-0.059754021,0.9996909155444662,0.0007518891640142368,-0.007227730317871596,0.02377536445576282,0.224,2.0,0.017853116,-0.003016563,0.980384703,-0.002764141,-0.012211357,-0.056575312,0.9991267308254904,0.0029792661819175712,-0.011246958069648094,0.04012985991957908,0.224,3.0,0.009813514,0.000900905,0.979825435,-0.005163438,-0.043591534,0.079729682,0.9989691927213974,-0.00047944331071231094,-0.008400800475317285,0.044606599052667444,0.224,4.0,0.014316905,0.003862685,0.979349328,-0.009488731,-0.056155466,0.143368051,0.9982313109886078,-0.00039473250822932734,-0.011127072749748848,0.05839762152891452,0.38,5.0,-0.004759917,-0.006494226,0.979740868,-0.053179871,0.035725415,-0.054033479,0.9999250890607274,-0.006059240626484793,0.004939273228534312,0.00941835707013016,0.38,6.0,0.000372259,0.007338592,0.980252522,0.056287447,-0.003265935,-0.069887189,0.9999748905145013,0.006866910873713869,-0.0013199616549085483,0.0011495985356389075,0.381,7.0,0.0011189,0.000367462,0.980391561,0.004407732,-0.012487098,0.005134387,0.9999132989643332,0.0004892010525701964,-0.0009539085700513405,0.013124225502270794,0.381,8.0,0.000977672,-0.002813539,0.980128118,-0.003186193,0.000875473,-0.004368814,0.9999933443085639,-0.0024355070342424825,-7.938572710879705e-05,0.0027153898369663004
5,0.36,0.0,0.015224621,0.013363886,0.97912135,0.022836474,-0.044128535,-0.001967066,0.9995352259194323,0.011236242490512133,-0.012912254689979535,0.025226031786720737,0.36,1.0,0.008842877,-0.004728888,0.979473043,-0.020628989,0.000547021,-0.123769077,0.9998210349943335,-0.0005411184888480822,-0.006962312946180516,0.017582132182421124,0.298,2.0,0.017590619,-0.003943423,0.98011633,-0.002628414,0.004413681,-0.081607851,0.9992884617751625,0.0024220261739591057,-0.010801621184346343,0.03605591396750811,0.298,3.0,0.011337508,0.002190057,0.979700804,0.014146107,-0.03728154,-0.002591912,0.9989603499937243,0.0004967639146360539,-0.009964266860280173,0.04448242070712983,0.299,4.0,0.016290674,0.006273263,0.979890943,0.008436795,-0.020675894,-0.000916279,0.9982257795910252,0.0004947252055622672,-0.01183272970297363,0.05835267529974289,0.427,5.0,-0.007351879,-0.010138617,0.979753111,-0.083046361,0.033293287,-0.030192037,0.9998964948562687,-0.010149162953285882,0.006425638055678623,0.007918664096487693,0.427,6.0,-6.85e-05,0.012397747,0.979793494,0.063399992,-0.004553485,-0.030831625,0.9999491036755179,0.009984944330540313,-0.0013923645327292334,-0.00039021308619002396,0.427,7.0,0.002042496,0.000696329,0.980194544,0.011312921,-0.014425803,-0.00382362,0.99991440391472,0.001052411313056159,-0.0016758338268609448,0.012933246123192663,0.428,8.0,0.000977672,-0.002813539,0.980128118,-0.005187184,0.006596773,0.005655801,0.9999921179390943,-0.00259562441832573,0.00020815476991036354,0.0029972429256998087
6,0.433,0.0,0.017844075,0.014808094,0.979350963,0.02088418,-0.017880082,0.011032951,0.9995065453877523,0.011950361034486202,-0.013386335949885706,0.025781012548446867,0.433,1.0,0.010138734,-0.004251717,0.979778102,0.001957973,-0.023232466,-0.033194898,0.9998414396343662,-0.000564972717780141,-0.007947835233746208,0.015925084326422517,0.36,2.0,0.018028298,-0.006067716,0.979572439,-0.023779685,0.025934978,-0.228894371,0.9996527652412616,0.0007915310939580773,-0.009388837858513539,0.024608375559815897,0.36,3.0,0.012861501,0.003479208,0.979576172,0.028820365,-0.007501059,-0.02205648,0.9990065354485036,0.002120941912315707,-0.009923943061202894,0.04339307652956221,0.361,4.0,0.017270897,0.008473991,0.979448267,0.029693142,-0.003404191,-0.076945198,0.9984423397966017,0.002466329012747109,-0.011577926663895092,0.05452304959238825,0.528,5.0,-0.009943841,-0.013783007,0.979765354,-0.07630442,0.046358001,-0.016998312,0.9998447824300907,-0.013679927424148352,0.008560549079962955,0.007070193239511888,0.528,6.0,0.000658693,0.015632285,0.97988836,0.03695533,-0.004101803,-0.04038637,0.9999283355621505,0.011634355644798009,-0.0014693514176141106,-0.0024096711496098895,0.528,7.0,0.002966092,0.001025197,0.979997526,0.006097964,-0.001060991,0.032130809,0.9998919738469018,0.0013042878562398756,-0.0017100864169047035,0.014540119469299697,0.528,8.0,0.000977672,-0.002813539,0.980128118,-0.008494894,-0.002468754,0.020580047,0.9999876781011524,-0.002903595192532348,1.5313768311687902e-05,0.004026480636039882
7,0.508,0.0,0.017308517,0.016412834,0.979722427,0.029883028,0.002709675,0.010704513,0.9994861017588191,0.013097994870593712,-0.012742067005756428,0.026336564881360346,0.508,1.0,0.010512888,-0.003388026,0.98011581,0.024824167,-0.00048618,0.038342186,0.9998108433084218,0.000553391344119158,-0.007697613742102087,0.017852677771137578,0.433,2.0,0.017065625,-0.005797145,0.979579582,0.012145842,-0.01351518,0.023090369,0.999617408203919,0.0010509320480065452,-0.00998971008694758,0.02577088376227379,0.434,3.0,0.013780391,0.005511347,0.97973758,0.024466174,-0.020450183,0.017622041,0.9989568698412179,0.003477979928967138,-0.010593321283403784,0.044281569493822844,0.434,4.0,0.017576684,0.009786943,0.979875643,0.020442857,-0.017249521,0.038365875,0.998325177533985,0.003812332836266467,-0.012100952540564128,0.05644353787364681,0.578,5.0,-0.008793626,-0.015698907,0.979685774,0.001737937,0.009840925,0.046992695,0.9998334450500856,-0.01301269979726062,0.008670731565629572,0.009411175132813063,0.578,6.0,0.000658693,0.015632285,0.97988836,-0.020230111,-0.003801254,0.00870659,0.9999442478957127,0.010255863092588264,-0.0015500317446056815,-0.0019788314971855383,0.578,7.0,0.002966092,0.001025197,0.979997526,0.003929973,0.009886385,0.024295426,0.9998741543505762,0.001415569344002534,-0.0011942366130937485,0.01575580604298807,0.578,8.0,0.000977672,-0.002813539,0.980128118,-0.01095302,-0.000531381,-0.003797413,0.9999871796314286,-0.0033041026293046064,-6.607063721928859e-05,0.00383654965651681
8,0.562,0.0,0.016783821,0.01879105,0.979460157,0.020625725,0.007560539,-0.009972474,0.9994998136862149,0.013796608911085488,-0.011887025184291043,0.025854876832895286,0.562,1.0,0.010989375,-0.002200853,0.979512833,0.025171879,-0.002399164,0.022693582,0.999789357691814,0.0016474914453304134,-0.007590036920759349,0.01899782507733377,0.508,2.0,0.019515966,-0.004484566,0.980102044,0.027402946,-0.044914704,0.067834202,0.9994974810474401,0.002136336406238422,-0.012208229332157188,0.029174999282860766,0.509,3.0,0.014542387,0.006155923,0.979675264,0.010835602,-0.008630267,0.026424057,0.9988944446173778,0.004023172242958777,-0.010673862285829245,0.04560450922383864,0.509,4.0,0.018410675,0.010335756,0.979932763,0.014973198,-0.021940701,0.086911581,0.9980567040376518,0.004766967407932778,-0.012872157382803201,0.06078156884733338,0.662,5.0,-0.012111796,-0.016632843,0.97934297,-0.039643977,0.019431078,0.014114689,0.9997989232373609,-0.014551098928376891,0.009376879873521853,0.01012189395459571,0.663,6.0,-0.000251725,0.014591599,0.980185198,-0.018872918,-0.011385093,-0.017246895,0.9999532694166748,0.00903116813707128,-0.0019432455030927599,-0.0028496985625686114,0.663,7.0,0.002306316,0.002912371,0.980054692,0.018487864,0.000638473,-0.033630076,0.9998975228181757,0.0023502302669554504,-0.0011396801708291695,0.014075560694926187,0.663,8.0,0.000620906,-0.003689626,0.980452447,-0.007207777,-0.002987283,-0.002544603,0.9999868888615279,-0.0035215309137650516,-0.00024304202771146085,0.0037096975130843676
9,0.616,0.0,0.01770918,0.0185431,0.979173395,0.025637161,0.004328357,-0.008047977,0.9995038149527834,0.01466707034456703,-0.011322252859131117,0.025471700621152896,0.616,1.0,0.01136353,-0.001337162,0.979850541,0.034668393,-0.009057915,0.016798401,0.9997672499846638,0.003160798139968345,-0.007834570627665325,0.01985131522849836,0.616,2.0,0.02036945,-0.001443753,0.979943876,0.039280319,-0.011896424,0.100215822,0.9993283015978036,0.0037983221070316225,-0.012584291266720992,0.03420751362105714,0.617,3.0,0.015304384,0.006800498,0.979612949,0.003208799,-0.003240175,0.022526472,0.9988434092023983,0.0041587916913381874,-0.010530100622683933,0.046729704958135714,0.617,4.0,0.019772872,0.01012043,0.979619625,0.007889833,-0.009092859,0.103557349,0.9977245368001313,0.005221550232819163,-0.013017317140100536,0.06594720262910142,0.665,5.0,-0.010961581,-0.018548743,0.97926339,-0.029049747,0.006521643,0.010889177,0.9997795692793233,-0.015498907396075512,0.009308943321920815,0.010674281962156211,0.666,6.0,-0.0001659,0.013636498,0.980468775,-0.014971105,-0.00152774,0.010463966,0.9999630347591035,0.008073664528976511,-0.0018209291836835514,-0.002330080115650691,0.666,7.0,0.001976427,0.003855958,0.980083275,0.000386785,0.006214989,-0.048052077,0.999928815575142,0.002331015450186132,-0.0008071581850801143,0.01167384448794399,0.666,8.0,0.000620906,-0.003689626,0.980452447,0.000536318,-0.003924911,-0.03691891,0.9999926166995216,-0.0033294186773502226,-0.0004533897499404368,0.00186439144206172
10,0.69,0.0,0.017173621,0.020147841,0.979544859,0.037216179,0.018355585,-0.028459578,0.999529677011943,0.016103148482762814,-0.010052236893785762,0.02408455759972343,0.691,1.0,0.009894278,0.000299568,0.980253546,0.030654156,0.033734418,-0.068556906,0.9998381904381948,0.004395810046346698,-0.005823353311235962,0.016442577399086486,0.691,2.0,0.021332124,-0.001714324,0.979936733,0.024656696,0.035138513,-0.133765772,0.9995537074366231,0.0046245390345786685,-0.010586900299528272,0.027548450600120896,0.691,3.0,0.01469928,0.007543486,0.979898988,0.010405391,0.015542663,-0.025681982,0.9989113077534599,0.00465930661075288,-0.00940163690843384,0.04545436533074888,0.691,4.0,0.020078658,0.011433382,0.980047002,0.009947452,0.017057071,-0.003570409,0.9977476150128605,0.0057911601595084135,-0.011814292803871649,0.06577675642428613,0.731,5.0,0.023690632,-0.072287648,0.976949461,0.335601204,-0.388030304,-0.00609952,0.999872114319481,-0.0006404207171277723,-0.012089541238702236,0.010449299509231258,0.732,6.0,0.003061792,-0.011110546,0.987828518,0.057526228,0.269027239,0.819753625,0.999140524618108,0.009528005097912826,0.011251711968755393,0.038740523518381975,0.732,7.0,-0.006270781,0.027445637,0.980797846,-0.49750814,0.168106987,-0.422530064,0.9996984499599919,-0.02145771569256569,0.00726887612735228,-0.009473068388431986,0.732,8.0,0.000977672,-0.002813539,0.980128118,0.205649067,-0.023618429,-0.99618789,0.9988264279108198,0.007159310344636245,-0.0012613876266564122,-0.04788444511066224
11,0.717,0.0,0.014798208,0.023021955,0.979856113,0.023114295,0.028317553,-0.071623523,0.9996129790039895,0.01684212024744169,-0.00826983897279631,0.020538864518384933,0.718,1.0,0.008629691,0.002583262,0.978775181,0.019037298,0.022548651,-0.130441889,0.9999276973868804,0.0050665423235744765,-0.004503430584407783,0.009932233405740575,0.718,2.0,0.017743927,0.000294822,0.980233679,0.016806597,0.060012024,-0.154761695,0.9997633369405333,0.005041233694704147,-0.007369987362925289,0.019837826459453523,0.718,3.0,0.013258399,0.009209715,0.979514878,0.011395545,0.031173853,-0.098358926,0.9991355368260151,0.00523832893285299,-0.007506932332744954,0.04055101636621851,0.718,4.0,0.018334488,0.014064763,0.9802306,0.011885289,0.043602055,-0.155523036,0.9982507482731469,0.006530849551791474,-0.009252010648578075,0.05802750964148593,0.798,5.0,-0.012257562,-0.020370939,0.979269512,-0.043798671,4.95e-05,-0.020150105,0.9998953775478217,-0.0038001906744844624,-0.010290586428551964,0.009428485577918136,0.798,6.0,-0.000154295,0.013352848,0.979509917,-0.011596046,-0.005382341,-0.010925609,0.999183371047982,0.008680946781582183,0.009874340450595943,0.038206407641015475,0.798,7.0,0.001052831,0.003527091,0.980280292,0.014821434,0.000620018,-0.111974111,0.9996958952379851,-0.018433020882777026,0.006407661516574263,-0.015075896634950419,0.798,8.0,0.001542615,-0.004076298,0.98042185,0.005228967,-0.002377879,-0.057713632,0.9986886031238962,0.006491187730423558,-0.0013164051556044253,-0.05076618510145966
12,0.81,0.0,0.012958354,0.024291329,0.979795903,0.017992266,0.044039275,-0.093833518,0.999707271676945,0.01730314556099883,-0.0057772370002884856,0.015893257771032565,0.811,1.0,0.005864582,0.003742821,0.978873127,0.011402486,0.024763104,-0.104906668,0.9999699984767622,0.005335380777008433,-0.0030788893146027384,0.00469641341205376,0.811,2.0,0.015556083,-9.09e-05,0.979979592,-0.000375081,0.017209659,-0.091585496,0.9998516890414423,0.004546090445822213,-0.006545670201924123,0.015267193070141455,0.811,3.0,0.012048191,0.010695691,0.980086957,0.017863511,0.010090374,-0.114115439,0.9993501556103098,0.006199450760414218,-0.00677225838446248,0.03485641703176923,0.811,4.0,0.015978745,0.014070238,0.979559446,0.00860492,0.03234304,-0.130838329,0.9986203838409814,0.0070381614104138715,-0.0074130489681534,0.05150572750915708,0.828,5.0,-0.01268157,-0.021165493,0.979704139,-0.003449461,0.0003016,-0.070277498,0.9999344371973506,-0.004642640543231109,-0.008627958973189121,0.0059266786281326235,0.828,6.0,-0.0001659,0.013636498,0.980468775,-0.010924525,-0.008571736,-0.060029964,0.999312019163824,0.007948234431927223,0.008496593311034183,0.03521536349724553,0.829,7.0,0.000393054,0.005414265,0.980337458,0.018125976,-0.001586872,-0.116998214,0.999646211689054,-0.01544729036103082,0.005559552113700903,-0.020926635097879908,0.829,8.0,0.001899382,-0.003200211,0.980097521,0.020643166,-0.000891821,-0.039972433,0.9985837725256668,0.0067052876711756965,-0.001356778895800023,-0.052760283515938214
13,0.839,0.0,0.009814204,0.025225337,0.97930402,0.007235755,0.039732597,-0.09073669,0.9997802034694818,0.017224306863715007,-0.003609749446240518,0.011394635251800933,0.839,1.0,0.003647021,0.00365217,0.978600716,-0.007395787,0.02307875,-0.150575717,0.9999836874907245,0.004637137590209401,-0.0017692737563914744,-0.0028269025094132066,0.839,2.0,0.013368239,-0.000476614,0.979725504,-0.00739944,0.059542712,-0.198400424,0.9999723304941102,0.00372682597499693,-0.003564867719117423,0.005361038376610868,0.839,3.0,0.008852643,0.011253022,0.978871289,0.002626167,0.038994932,-0.141496597,0.9995836478041554,0.006280694377340186,-0.004528694009703902,0.027795230728371048,0.839,4.0,0.013094798,0.014839852,0.979258549,0.008061866,0.03555192,-0.135407263,0.998955052725699,0.007486520497999183,-0.005452945403874432,0.044755111786824724,0.94,5.0,-0.01017447,-0.019109416,0.979006287,0.056768835,-0.031804507,-0.100342395,0.9999579371445232,-0.002266177520572411,-0.008836360649743498,0.0009524240560798919,0.941,6.0,0.000927772,0.012483332,0.979780233,-0.038155647,-0.004514499,-0.026429549,0.9993804887112453,0.005881809414497992,0.007337095842874216,0.03391474791114542,0.941,7.0,0.000393054,0.005414265,0.980337458,-0.008435067,0.006345432,-0.117538235,0.9995280232364696,-0.014075036838609847,0.005221175989441384,-0.026802302592777036,0.941,8.0,0.001691205,-0.001061365,0.97947946,0.056122563,-0.0061415,-0.085620961,0.9983324091022062,0.008767301375336446,-0.0017215306105188648,-0.057031322053204034
14,0.913,0.0,0.00758455,0.025137921,0.979159108,-0.002423799,0.031994011,-0.103652103,0.9998397116232036,0.01666856282533578,-0.0019367945965193681,0.0062417065981786235,0.914,1.0,0.002725318,0.00403869,0.978633364,0.002194021,0.022481637,-0.107991729,0.999955907286738,0.0045017371160180055,-0.0005841132505146932,-0.00822050223560188,0.914,2.0,0.010480219,0.0003351,0.979746933,-0.0002579,0.029389622,-0.097346289,0.9999916461879224,0.0033706509982237096,-0.0022572536915941425,0.0005010708422132248,0.914,3.0,0.007328649,0.009963871,0.97899592,-0.014823651,0.018412466,-0.09443941,0.9997128086879764,0.005426420300357556,-0.0035103607770833978,0.023076643498052076,0.914,4.0,0.011586369,0.013403265,0.980071481,-0.022129038,0.01469844,-0.047291007,0.9990696629054234,0.006321891600542527,-0.004767794394948533,0.04239233993591412,0.964,5.0,-0.008006515,-0.01625958,0.979428671,0.022421275,-0.005388967,-0.050623132,0.9999667337240666,-0.0017262392272801924,-0.007817828373064687,-0.0015598406589374598,0.965,6.0,0.000200609,0.009248794,0.979685368,-0.014939432,-0.002639428,-0.073300819,0.9995086434457686,0.00499665488731274,0.006470151079402403,0.0302595813280033,0.965,7.0,0.000722943,0.004470678,0.980308875,-0.01298841,-0.002192676,-0.114157357,0.9993754605830105,-0.013122802892067307,0.004489177993661361,-0.0325012016653621,0.965,8.0,0.003270484,0.002731004,0.979127594,0.05456595,-0.008841345,-0.098393107,0.998019745281221,0.010726589507323641,-0.002268055952737022,-0.06193855203783415
15,1.048,0.0,0.003114378,0.024189612,0.979503019,-0.010833369,0.032457302,-0.123886127,0.9998767744193735,0.015697096810197545,-0.00017778707190824715,7.429803315187638e-05,1.048,1.0,-0.000618611,0.003687594,0.980274971,-0.00206385,0.01391881,-0.158897279,0.9998607727311021,0.004146972420883366,0.00023395175110184176,-0.01616115837068531,1.048,2.0,0.007263708,-4.03e-05,0.980463277,-0.006058034,0.018333126,-0.14258417,0.9999732189648644,0.002744383684940791,-0.0014658365187059626,-0.006624276151964447,1.048,3.0,0.005647763,0.007287156,0.978896828,-0.017877894,0.015115678,-0.149082981,0.9998647872309234,0.004377309549290363,-0.0026713289285569164,0.015624033362909703,1.049,4.0,0.008250404,0.011208013,0.979843003,-0.017810171,0.018276285,-0.163059953,0.9993918676929535,0.005388857732343138,-0.0037677358185131014,0.03424411144025092,1.025,5.0,-0.008006515,-0.01625958,0.979428671,-0.033333428,0.015759893,-0.056313454,0.9999651968681896,-0.004026265345198495,-0.005846983318320874,-0.004382582093688754,1.025,6.0,0.000200609,0.009248794,0.979685368,0.008948068,0.000178977,-0.06365225,0.999601536356682,0.00539543824093845,0.005866785556939196,0.027078378584729394,1.025,7.0,0.000722943,0.004470678,0.980308875,0.012312751,-0.010747974,-0.070954423,0.9992839310737873,-0.011002409344620864,0.003400061061057979,-0.036041804493019226,1.026,8.0,0.002140597,0.005256523,0.97854013,0.013191206,0.006710102,-0.041088534,0.9978929721745176,0.010598981294542745,-0.0018513423624423946,-0.06398320257444473
16,1.153,0.0,0.001799219,0.023080771,0.979705078,-0.026500406,0.016367462,-0.08871156,0.9998926181740736,0.013980770867824168,0.0006284934687703477,-0.00434685666858709,1.153,1.0,-0.000618611,0.003687594,0.980274971,-0.00528206,0.000961593,-0.096352725,0.9997732176534722,0.003656428991845711,0.00030901463115138873,-0.020977328233315645,1.153,2.0,0.007329702,0.000219953,0.979499988,-0.006271396,0.021750374,-0.154177352,0.9998947841072704,0.002183605692416563,-0.0005870879734062093,-0.01432856967624281,1.153,3.0,0.004280662,0.007385569,0.979245183,0.001869453,0.017900589,-0.122474386,0.9999436478841197,0.004415795248949634,-0.001693305043431333,0.009504447724554894,1.153,4.0,0.008250404,0.011208013,0.979843003,0.008113735,0.00867948,-0.165194081,0.9996396080372403,0.005857564705969748,-0.0032958923267717827,0.02598999947361167,1.123,5.0,-0.009750462,-0.018314861,0.97857166,0.011062569,-0.002658238,-0.074381239,0.9999472859198658,-0.003982811872207979,-0.0049103852258862235,-0.008090161186167021,1.124,6.0,-0.000795633,0.009163209,0.979698628,-0.004935384,0.001644712,-0.031125916,0.9996466291330751,0.005064219457246993,0.005416763324800923,0.02552702918970637,1.124,7.0,0.001316651,0.005743133,0.98014044,0.024517617,-0.006267123,-0.078015676,0.9991633187750891,-0.008411817482033596,0.00259237007474594,-0.03993974659902101,1.124,8.0,-5.96e-05,0.00515378,0.978925653,-0.000455414,0.014806479,-0.024005248,0.9978250909226408,0.009828942746654197,-0.00092806454004581,-0.06517375626673702
17,1.189,0.0,0.001019619,0.020367189,0.979535675,-0.045580239,0.005023557,-0.037613094,0.9999160023723527,0.011342944708688997,0.0007915013743437457,-0.00622087860378279,1.189,1.0,0.000881912,0.004811729,0.978698661,-0.005471426,-0.015569459,0.029859649,0.9998046874504741,0.0032462117783523805,-0.0005495193345261454,-0.01948710059630479,1.189,2.0,0.005929349,0.002614818,0.980051022,-0.007864032,0.003306992,0.036591526,0.9999202217362086,0.001702418636926223,-0.0006649042095706047,-0.012498393344263534,1.189,3.0,0.004123769,0.005998005,0.97902146,0.010927999,0.010822043,-0.084924917,0.9999738084021802,0.004830913306241979,-0.0011648462179682682,0.005261931162194217,1.19,4.0,0.007416412,0.0106592,0.979785884,0.017057335,0.017510588,-0.111737994,0.9997665060684541,0.0066736084842000856,-0.0023956586779819793,0.02041218050513525,1.16,5.0,-0.008793626,-0.015698907,0.979685774,0.053778849,0.005801638,-0.059809273,0.9999305545295882,-0.0016761958058920153,-0.0037009687291422164,-0.011062518530451863,1.16,6.0,0.000286434,0.008293693,0.979968945,-0.040807076,-0.011305782,-0.098353451,0.9997739713027274,0.0029290031809121203,0.004268325263676731,0.020620587900998945,1.161,7.0,0.002240247,0.006072,0.979943423,-0.003161705,-0.006832685,-0.036857553,0.9990974644874151,-0.007442205997708744,0.0018578830042787619,-0.04177820359288374,1.161,8.0,-0.000981298,0.005540452,0.978956251,0.004887722,0.019205215,0.007207662,0.9978532817330716,0.009437813725251576,0.00013517681340108694,-0.06480538198217456
18,1.243,0.0,0.001544314,0.017988974,0.979797944,-0.031713769,0.00332002,-0.010261727,0.9999315146342561,0.009541049354253102,0.0008086124893863477,-0.00672908346688555,1.244,1.0,0.000881912,0.004811729,0.978698661,-0.016026902,-0.006402708,0.056354667,0.9998578819119954,0.002357449941796727,-0.0008555181636792009,-0.01667112764336165,1.244,2.0,0.006892022,0.002344246,0.980043879,-0.00721338,-0.016254197,0.083351619,0.9999629199735193,0.0012737699885124799,-0.0017649764103062088,-0.008331929327634276,1.244,3.0,0.004123769,0.005998005,0.97902146,-0.003100338,-0.010755986,-0.009128479,0.9999767132392945,0.00450359476723525,-0.0017938935138230067,0.004803390403813346,1.244,4.0,0.006582421,0.010110387,0.979728764,-0.009643987,0.002989722,0.035695011,0.9997326015412218,0.006039546289706386,-0.002352565406729698,0.0221971784747977,1.234,5.0,-0.047193395,-0.11022229,0.978798156,1.838930081,0.461819436,-2.382960401,0.987544952550727,0.08450399125837776,0.030989901087838216,-0.12904909214540133,1.234,6.0,0.025025859,-0.081571004,0.976607842,1.260267744,1.845430859,-5.08557508,0.9663130894659326,0.05655699357927261,0.10717542980572888,-0.22705450193738946,1.235,7.0,-0.046402654,0.007315575,0.972241367,-0.354608969,0.572511014,-0.820994002,0.9957876935903104,-0.022754845816356138,0.032339267540308164,-0.08272398721604453,1.235,8.0,-0.012864406,0.042353929,0.972827658,-0.156159727,-0.271250455,-1.915106351,0.987178391424461,0.0020552760579786674,-0.012054884349304285,-0.1591517486811392
19,1.318,0.0,-0.000160645,0.015523341,0.979915302,-0.033576249,0.011844656,-0.008426821,0.9999439197708965,0.00770389047091755,0.0013373647162822843,-0.007142747401551621,1.318,1.0,0.000881912,0.004811729,0.978698661,-0.001613013,0.004266402,0.000178426,0.9998583771261134,0.0022896494888163268,-0.000604499325121626,-0.016661865937498497,1.318,2.0,0.006629525,0.001417385,0.979775505,-5.73e-05,0.024146439,-0.018303065,0.9999562539496868,0.0012247126388283164,-0.0007189653629208951,-0.009245180077691838,1.318,3.0,0.003361773,0.005353429,0.979083775,-0.013532961,0.016258393,-0.014113679,0.9999844655444446,0.0036481616446203003,-0.0009726318575975636,0.004100435790912807,1.318,4.0,0.00574843,0.009561574,0.979671645,-0.01590161,0.016859306,-0.042866627,0.9997844784412016,0.005121358576012862,-0.001563655712615859,0.020057999282153738,1.308,5.0,-0.008223853,-0.011166258,0.979324606,0.017413938,0.01144346,-0.034775492,0.9880155958728978,0.07649220121148714,0.028988417404563597,-0.13089613104337036,1.308,6.0,0.000469688,0.006099841,0.979577241,-0.011877544,0.002357527,-0.061090336,0.9669980176215314,0.05039883517594126,0.09690832907800512,-0.23018159588517456,1.308,7.0,0.001646539,0.004799545,0.980111858,0.0017842,0.008868472,-0.009609738,0.9958928019790195,-0.02013602838223208,0.02943105451737209,-0.08322187427211108,1.308,8.0,-0.001546241,0.006803211,0.978662519,0.018585693,0.004301604,-0.024978232,0.9869918493617948,0.003171952797597914,-0.010758777682660406,-0.1603785419300504
20,1.407,0.0,0.000374914,0.013918601,0.979543839,-0.039268602,0.008895948,0.01348929,0.9999616342624724,0.005684463063164962,0.0016343963699893313,-0.006461085923769771,1.407,1.0,-3.98e-05,0.005198249,0.97873131,-0.003256379,0.009821982,0.091153974,0.9999243963613611,0.0021688383737765307,-6.2541481079133e-05,-0.012103461903070413,1.408,2.0,0.005929349,0.002614818,0.980051022,-0.002274882,0.001330561,0.082823734,0.9999859584035304,0.0011167251410298027,-0.0008878320295243512,-0.005103692292778193,1.408,3.0,0.002599776,0.004708854,0.979146091,-0.007004397,0.01205267,0.022214808,0.999981300713485,0.0031705754395683844,-0.0004094711430360003,0.0052132531236774235,1.408,4.0,0.004914438,0.00901276,0.979614525,-0.016999196,0.01462319,0.012977447,0.9997762348308877,0.004208705864663188,-0.0009376161498372876,0.02070960980496441,1.323,5.0,-0.007351879,-0.010138617,0.979753111,0.025374672,-0.014043409,-0.005737331,0.9885506782195497,0.0695839249405722,0.025705306740401127,-0.13139585681030874,1.325,6.0,-0.000526554,0.006014256,0.979590502,-0.013692742,0.009829465,0.021863503,0.9683400619636089,0.04527171813620572,0.08785200351620127,-0.22923791442843683,1.325,7.0,0.001646539,0.004799545,0.980111858,-0.009472985,0.005654093,0.009323426,0.9960432679738613,-0.018322525219141263,0.026717107712687368,-0.0827543929287943,1.325,8.0,-0.00103726,0.007967319,0.979283639,0.023859864,0.007692761,0.016890505,0.987136042451149,0.004495010734540206,-0.00951126028593272,-0.1595360915283836
21,1.482,0.0,-0.000951108,0.012036284,0.980379632,-0.010148207,0.009509467,0.061280577,0.9999786069363572,0.005230794325671382,0.00197820388031325,-0.0033928114820331434,1.482,1.0,-0.000618611,0.003687594,0.980274971,-0.022939294,-0.006752571,0.100568173,0.9999744132032792,0.000989044747799462,-0.0003557223210868986,-0.007075887991960531,1.483,2.0,0.007854696,0.002073675,0.980036736,-0.020790417,-0.042348833,0.1704939,0.999988669103958,5.087312067900861e-05,-0.0033128174270888196,0.00341823292289323,1.483,3.0,0.001232676,0.004807266,0.979494446,0.008953082,0.028873778,0.0580421,0.9999602667292592,0.003538142101125554,0.0010055325948010686,0.008120062648868654,1.483,4.0,0.001884259,0.008130461,0.979813424,0.013459733,0.052467973,0.005194326,0.9997667962379706,0.004822865944295119,0.0017040818448174734,0.020980686576319515,1.399,5.0,-0.007654079,-0.006633608,0.978963437,0.0507418,0.008924643,0.055778183,0.9892608014570718,0.06501602401932668,0.023504262080493287,-0.12877706700061906,1.399,6.0,-0.000526554,0.006014256,0.979590502,-0.032109194,-0.011516432,-0.025377188,0.9690660885324691,0.039288419997303765,0.0789554916055406,-0.23050676010872978,1.399,7.0,0.001052831,0.003527091,0.980280292,-0.019785874,0.003021326,0.050485825,0.9963331548994431,-0.017222601947422166,0.02425504018045531,-0.08022044288164588,1.399,8.0,-0.00195897,0.008353991,0.979314236,0.020876047,0.00600417,0.022500381,0.9873205711285878,0.005550258962829928,-0.008405722381001212,-0.15841915377572927
22,1.515,0.0,-0.000415549,0.010431544,0.980008168,-0.05310091,0.004768241,0.128841372,0.9999898911275009,0.0025983856016567252,0.0020304172167131397,0.003056704270965151,1.515,1.0,0.00159895,0.003778246,0.980547382,-0.043319306,-0.020007596,0.147228003,0.9999984095751766,-0.0010934686222007152,-0.0013800377844394689,0.00028402324375319347,1.515,2.0,0.007854696,0.002073675,0.980036736,-0.028584473,-0.017367676,0.152973402,0.9999289693270323,-0.0012985527902556976,-0.004245067573656847,0.011061169130105873,1.515,3.0,-0.001501525,0.00500409,0.980191157,0.003816883,0.049429045,0.104225273,0.9998985861442785,0.0036149002464581537,0.003437539905035941,0.013339161978253378,1.515,4.0,-0.002361885,0.009115402,0.979825664,0.00284283,0.045722237,0.130301059,0.9996019702366526,0.004908199061100266,0.003920101532896273,0.02750351768321566,1.476,5.0,-0.006405711,0.003458537,0.980224467,0.26763917,-0.050834403,0.188246427,0.9900308653370609,0.07189206344571517,0.016544458693806396,-0.11998623996107517,1.476,6.0,0.001643435,-0.007734722,0.978469454,-0.51476713,-0.094265315,-0.046602438,0.970257281431741,0.008727578337179322,0.07246498016502884,-0.23081045005531656,1.476,7.0,0.002306316,0.002912371,0.980054692,-0.011086902,-0.039824134,0.008230377,0.9964880333095724,-0.016065116999997645,0.019769054105590635,-0.0797665091775201,1.477,8.0,-0.000584242,0.011558294,0.980232148,0.056563844,-0.033885387,0.10145571,0.9880836911773324,0.008065347976638547,-0.00979147888373941,-0.1533939253447253
23,1.573,0.0,-0.002375413,0.002874115,0.980218392,-0.110627829,0.033170432,0.169405421,0.9999222499324808,-0.0030341826208276695,0.0036160734967447777,0.011541743293585831,1.573,1.0,0.00498267,-0.001068908,0.980311701,-0.081677347,-0.077288987,0.17549357,0.9999316792994837,-0.0051331122354961985,-0.005316406503442027,0.009056694429106853,1.573,2.0,0.006476217,-0.00282086,0.979658155,-0.077433224,0.034648036,0.151177095,0.9998103908527349,-0.005231126310550574,-0.002423720186509836,0.01859954948062212,1.573,3.0,-0.007514387,0.002802866,0.980180941,-0.061734774,0.112320102,-0.030008908,0.9998885617903792,0.00022471997675354373,0.009053423856392984,0.011867982902570198,1.573,4.0,-0.005392065,0.008233103,0.980024562,-0.010407377,0.038923979,0.101859554,0.9994427800661577,0.004275983322361601,0.005723612993640547,0.032604993399108016,1.578,5.0,0.005069683,0.060044998,0.977524883,1.151602877,-0.187259627,-0.283028846,0.9831916966846248,0.12290388200819058,-0.00011013360225273554,-0.1350137445903761,1.578,6.0,0.009910466,-0.057208332,0.978604103,-0.301177108,-0.053028418,0.300910381,0.9742482657178012,-0.009289643407029112,0.06642616214567848,-0.2152709554348262,1.578,7.0,0.006396658,0.000124624,0.979349308,-0.042859466,-0.068094556,0.11683537,0.9970250724290859,-0.01677080708049317,0.014340284740170328,-0.07385188698479973,1.578,8.0,0.002180887,0.010398278,0.980140357,-0.18462856,-0.010393749,0.165436061,0.9893558168766731,-0.0015290934826224392,-0.008087675206440444,-0.145283581299359
24,1.648,0.0,-0.004859972,-0.002305099,0.980166347,-0.079465195,0.029926102,0.067660538,0.9998527856495951,-0.0068288874668230104,0.00497429565241231,0.014934179169690974,1.648,1.0,0.012903843,-0.005411276,0.979680156,-0.050672713,-0.127736452,0.247422764,0.9996733354372156,-0.007430279107749272,-0.011760963305467024,0.021440454993789316,1.648,2.0,0.00910174,-0.004559435,0.979368353,-0.034068467,-0.098880111,0.058103402,0.9997179688876116,-0.006550070309243688,-0.007605451349948226,0.021522926658241393,1.649,3.0,-0.00859017,-0.000616837,0.97979581,-0.042629349,-0.092310867,0.134342764,0.999817446079822,-0.001849923076491596,0.003958163334233318,0.018600678537430592,1.649,4.0,-0.001145921,0.007248161,0.980012322,-0.063160593,-0.059879169,0.104182385,0.9992817678918483,0.0011876525635611842,0.002120751186888589,0.03781587305264393,1.611,5.0,0.015407849,0.121820078,0.971697209,0.648704938,-0.158304598,0.26073018,0.9812832742757341,0.14743299947215122,-0.015783872753520608,-0.12287194819908857,1.611,6.0,0.015166509,-0.048203066,0.979132494,-0.213149973,-0.403445334,0.467159529,0.9802788528245678,-0.02415748737413744,0.042589058812937966,-0.19145745892533358,1.611,7.0,0.011471315,-0.001313478,0.980435456,-0.001067795,-0.059128915,0.15054081,0.9976359661804041,-0.015366781530140164,0.009497405643557187,-0.06630339580095695,1.611,8.0,0.001783831,0.004380435,0.978864459,-0.004478552,-0.007625316,0.172509685,0.9905758867646639,-0.001514664862307647,-0.007732507880706991,-0.13673816830947183
25,1.765,0.0,-0.003399055,-0.004157789,0.979508121,-0.017059574,-0.03567154,0.021441086,0.9998417519128001,-0.0071816816775057,0.0028588518389721378,0.016022532458650783,1.766,1.0,0.013045967,-0.010286043,0.980145397,-0.111566707,0.031843714,-0.255002665,0.9998332850380365,-0.01265836362451885,-0.009949255821699,0.008612796815946953,1.766,2.0,0.013958302,-0.009483908,0.98044695,-0.087123162,0.032722346,-0.324348002,0.9999104799056744,-0.01062992779423076,-0.006195987398134834,0.005257998673950552,1.766,3.0,-9.33e-06,-0.004523198,0.980126798,-0.072948294,-0.127386521,0.081381074,0.9997238007974402,-0.00540740231096259,-0.0028549856139584353,0.022692095022535795,1.766,4.0,0.001362197,-0.000215327,0.980087801,-0.103059813,-0.052242043,0.078639255,0.9991197063146471,-0.003980808952049801,-0.0009502000261497741,0.0417500027991723,1.717,5.0,0.025510444,0.1426139,0.968948653,-0.102827325,-0.016950495,0.099599854,0.9836915686147588,0.13456925114044624,-0.017264512621774464,-0.11808450824586392,1.717,6.0,0.033637139,-0.076696688,0.976313045,0.145446742,0.094012311,-0.46963741,0.9756144115318751,-0.01891280171958214,0.040182461363113105,-0.21495161255787534,1.717,7.0,0.008903628,-0.001104815,0.978898107,-0.040283432,-0.004724831,-0.119660014,0.9972265268970606,-0.015998613965373835,0.007900709514387202,-0.07225563779513887,1.717,8.0,0.006336417,0.004873943,0.979038863,-0.018869997,-0.08623289,-0.260149774,0.9886783827132744,-0.002583080569008281,-0.01148149476726306,-0.1495879625108498
26,1.783,0.0,-0.000109146,-0.008053329,0.979543839,-0.07096607,-0.062619635,0.068595624,0.999756334385465,-0.010361996519407984,-0.0005796020391825402,0.019482426587731375,1.783,1.0,0.017292754,-0.023372075,0.979296537,-0.318381375,-0.232930977,-0.585445704,0.9991399532726102,-0.028083947773119955,-0.02243662544485335,-0.020669869146433973,1.783,2.0,0.004309322,-0.021617224,0.97962244,-0.170904792,0.253973984,-0.742483695,0.9992866878569036,-0.01903629987344286,0.006140729916316486,-0.03203164365439811,1.783,3.0,0.000512661,-0.008221566,0.9803495,-0.068217252,0.021732553,0.001205648,0.9997021704453484,-0.008719915355800658,-0.001595698139949009,0.022737353198938992,1.784,4.0,0.002800581,-0.004159659,0.979476827,-0.067011884,0.014230847,-0.151365867,0.9993899975231251,-0.007159794334729944,-0.0004898314822510522,0.034177920664245874,1.729,5.0,0.030437461,0.130883822,0.970717768,-0.138693138,-0.079193546,-0.019060333,0.9852908310280679,0.12031963884593502,-0.0208337391791084,-0.11954546462254381,1.729,6.0,0.029468914,-0.074845175,0.976757791,0.064641528,-0.002038231,0.565652558,0.9815015053723976,-0.016790814253274316,0.035172386735128715,-0.18744536996091457,1.729,7.0,0.019121459,-0.001803573,0.979950569,0.028055938,-0.160356365,0.085320481,0.9975967916499087,-0.013706596232110275,-0.001897399081010985,-0.06789087115559843,1.729,8.0,0.009273058,-0.006293588,0.979852745,-0.274389398,0.005491609,0.112836735,0.9893913516979035,-0.0163105924475835,-0.008335641114891927,-0.14411535257080807
27,1.858,0.0,0.002780099,-0.014079134,0.980128588,-0.10696602,-0.020790662,0.079372807,0.9996051901716745,-0.015369145255006473,-0.0017597183032358671,0.023455416165021444,1.858,1.0,0.037898166,-0.049153919,0.977987536,-0.459942132,-0.260432367,-0.145343846,0.9976993247366945,-0.05086448460921737,-0.03495361470291225,-0.028055417383863954,1.859,2.0,0.00387127,-0.04162136,0.978340777,-0.343029767,-0.094181627,-0.221068875,0.9984093110671104,-0.03660205978292204,0.0008393407681271653,-0.04287694370195352,1.859,3.0,-0.002087115,-0.01293042,0.980089,-0.047037628,0.018883498,0.057071627,0.9996134193338893,-0.010886743979255882,-0.0004233017173228861,0.02557951345894357,1.859,4.0,0.00068058,-0.008222152,0.979435007,-0.051946102,0.011045495,0.041213693,0.999298480180393,-0.009477475221066239,-7.266063309699695e-06,0.036231545920583356,1.804,5.0,0.035788487,0.119948299,0.972052257,-0.15380876,-0.09267999,0.036710372,0.9869827368177098,0.10598859881052225,-0.025140898051517948,-0.11831918437501443,1.804,6.0,0.029743744,-0.066267833,0.977352487,0.118811506,-0.075207771,0.056631823,0.9823110684343321,-0.01349041895473422,0.026038719822982535,-0.18494582584585972,1.804,7.0,0.026375645,0.001809547,0.979382995,-7.04e-05,-0.127203968,0.119540642,0.9979599314233764,-0.01278136132360194,-0.009327693149408442,-0.06185148516144301,1.805,8.0,0.00225808,-0.030783863,0.979981252,-0.301869723,0.105249687,0.197632636,0.9904491227016411,-0.030520520411812725,0.00030147762671853083,-0.13445795731224763
28,1.92,0.0,0.003315658,-0.015683874,0.979757124,0.029639222,-0.033554747,0.143524366,0.9994384375800729,-0.013120238072231751,-0.003319476996200112,0.030653709610787234,1.92,1.0,0.04895609,-0.079463135,0.975146097,-0.503137356,-0.195718498,-0.259892286,0.9953798385846985,-0.07474905499208186,-0.043839483307851985,-0.04134797963856236,1.921,2.0,0.021286334,-0.064642058,0.977467287,-0.447300471,-0.263384513,-0.534284437,0.9957667804228231,-0.059118854675503596,-0.013921652990633582,-0.06899034429708423,1.921,3.0,-0.003924894,-0.016994698,0.979766184,-0.087445668,0.032813736,0.320424096,0.999020700577742,-0.015085467354286178,0.001565923874579033,0.04156460482525303,1.921,4.0,0.000902999,-0.010299244,0.978637374,-0.0516119,-0.046338738,0.340189162,0.9985128240509973,-0.011545769701069748,-0.002282234182838388,0.053231821449643654,1.923,5.0,0.043646612,0.111068853,0.972688893,-0.321705498,-0.032512841,0.078482843,0.9894508962660147,0.08454509829812043,-0.02553858042898877,-0.11483392853078643,1.923,6.0,0.037713685,-0.065583155,0.977246401,-0.221781729,-0.151142002,0.038750413,0.982625978659137,-0.02803016241480503,0.016843751922327666,-0.18269314185363386,1.923,7.0,0.031518819,0.002548891,0.979349308,0.043258323,-0.028623124,0.033646823,0.9980777998622229,-0.009418685746833542,-0.01155464456808478,-0.06015383587014494,1.924,8.0,-0.011777434,-0.048577762,0.978142369,-0.265606789,0.267910923,0.266848515,0.9915914713902286,-0.04120145902090394,0.016819756894687555,-0.12151497610876567
29,1.978,0.0,0.010015484,-0.014648149,0.979558126,-0.009326857,-0.134714021,-0.038994707,0.9994507621468406,-0.012792649404070253,-0.01029249076703469,0.028785183673805184,1.978,1.0,0.064177313,-0.110131257,0.971571088,-0.637555889,-0.227753624,-0.868863337,0.9894126036147161,-0.10304577783255933,-0.05687263214091515,-0.0849103715254837,1.978,2.0,0.046928332,-0.098980788,0.974099859,-0.686483706,-0.340679009,-0.984833452,0.9882116621521073,-0.09271772349984202,-0.03357616262472371,-0.11710583178891773,1.979,3.0,-0.00744356,-0.023735691,0.979344276,-0.140690808,0.078693476,0.264342912,0.9982446715137033,-0.02196666802137293,0.005664020132478037,0.05470795341151426,1.979,4.0,0.003042465,-0.017337554,0.980010282,-0.098851052,-0.028830003,0.595857756,0.9964204726092071,-0.01617764272390641,-0.0034724290607298053,0.08290034907984632,1.954,5.0,0.043752809,0.090694767,0.974660018,-0.245539266,0.028628452,0.161358964,0.9916494618936624,0.06821174762484324,-0.023451124837280308,-0.1069043823041918,1.954,6.0,0.050126888,-0.10564513,0.972561259,-0.647689336,-0.23610558,-0.01080241,0.9811035089510481,-0.06492277865958544,0.007918465944264154,-0.18209402909526937,1.954,7.0,0.038770102,0.015679493,0.979427911,0.37791481,-0.250238642,0.794930457,0.9994012285828368,0.009888185267184678,-0.026441790421062476,-0.02000599456580618,1.954,8.0,-0.056084161,-0.102062203,0.97301124,-0.101557111,1.03670408,-3.257735705,0.957739118704061,-0.042687736462524224,0.06163225191863977,-0.27769588254619815
30,2.058,0.0,0.017629806,-0.014633848,0.979706099,0.029821446,-0.106741767,-0.100574867,0.9995397217273185,-0.010537762948499589,-0.015528302594408176,0.02383636003782102,2.058,1.0,0.086602671,-0.144108263,0.965515813,-0.544770989,-0.192587506,-1.274527904,0.9787078285813542,-0.12411917344871098,-0.06989300780998078,-0.14778492654954073,2.058,2.0,0.071761518,-0.139817883,0.967883384,-0.669938843,-0.043409285,-1.145817751,0.9764579030658136,-0.12185141322679914,-0.0381471637142163,-0.1738591111662167,2.058,3.0,-0.011932428,-0.024647764,0.979209429,0.022493085,0.077271105,0.06043111,0.9980883368292842,-0.020131372412764095,0.009615372464876884,0.057636310972281335,2.058,4.0,0.004022688,-0.015136827,0.979567606,0.170285359,-0.110008854,0.764579876,0.9926131381207292,-0.006529231381672223,-0.007896116314788737,0.12088911661032985,2.075,5.0,0.052906915,0.083637516,0.975290533,-0.091837677,-0.222675593,-0.050128461,0.9915207210531964,0.05966492163437037,-0.034640500327159957,-0.11012171713879848,2.075,6.0,0.064074389,-0.128183185,0.970011105,-0.055785824,-0.03318948,-0.048739918,0.9804276735174899,-0.06853353656600383,0.0038305253749385273,-0.18452657922963422,2.075,7.0,0.041803349,0.063445808,0.976942224,0.716075134,-0.358055979,-1.592215199,0.9930957263712376,0.04933847831438307,-0.04045950047648883,-0.09843587578722639,2.075,8.0,-0.166349023,-0.146197014,0.954496954,-2.825333683,1.696668093,1.753939777,0.9533044855809086,-0.1487434821896938,0.197113296470782,-0.17387432999676863
31,2.115,0.0,0.020260124,-0.012416166,0.979301979,0.039521361,-0.032676263,0.057187392,0.9994717749309154,-0.00812337250915946,-0.016587038656569988,0.026740457814492025,2.115,1.0,0.117141442,-0.171490931,0.957295536,-0.637424775,-0.207510602,-1.740967902,0.9578234888046367,-0.1468648308077868,-0.0853527449654839,-0.23177531079209296,2.115,2.0,0.089900663,-0.18221853,0.958709694,-0.769241572,-0.135015555,-1.138775891,0.9598733335056631,-0.15537819674832107,-0.04583021516650029,-0.2289113168407327,2.115,3.0,-0.01964569,-0.010848206,0.979488317,0.200064761,0.174656492,-0.175052736,0.9985962100775021,-0.009323895949760817,0.01883663740089096,0.04861949479987182,2.115,4.0,0.005678385,0.004180653,0.979873603,0.329243589,0.125729605,-0.249384774,0.9940440791383537,0.010076153434733115,0.0009984994220178878,0.10850734012428079,2.105,5.0,0.061499292,0.039665485,0.976912732,-0.858854265,0.18478598,1.108630789,0.9981910356456568,0.01143119553937638,-0.02111740912900444,-0.055118410326042026,2.105,6.0,0.062551696,-0.145990754,0.966917259,-0.115163308,0.000931178,-0.011862426,0.9798088135980855,-0.07525574878402184,0.002758300002199785,-0.185212453284239,2.105,7.0,0.074059345,0.117342388,0.969411666,0.342118011,-0.702968599,0.977867187,0.9935936749671505,0.06147776833689998,-0.08030701378176328,-0.05042694322525312,2.105,8.0,-0.2399542,-0.226053659,0.922981974,2.403369714,-0.562839347,0.47438935,0.9754311000781689,-0.024998143261038476,0.14253960166570456,-0.16610756692810924
32,2.21,0.0,0.023524283,-0.00452337,0.979523429,0.034426405,0.009075549,0.095940579,0.9993629400329932,-0.0058812348709557675,-0.01560670601803797,0.031552430845674675,2.211,1.0,0.131388744,-0.186284542,0.95269516,-0.502933779,0.144608505,-1.246791027,0.9394348725584345,-0.15949808013073286,-0.07843194908760077,-0.2930373901365633,2.211,2.0,0.105720901,-0.214404111,0.950060508,-0.682931419,0.167145011,-1.563080759,0.9348626548629114,-0.17788974680942785,-0.0422135036291848,-0.3043108191210022,2.211,3.0,-0.031482722,-0.003046653,0.979631337,-0.015157239,0.19637247,-0.008242697,0.9983907789692491,-0.009866570213980195,0.028310930945997688,0.048135168539845924,2.211,4.0,0.000280177,0.021523682,0.979593106,0.206400883,0.021058165,-0.1053762,0.9944430009410395,0.02030455940583568,0.0032773204578749574,0.1032477695513609,2.182,5.0,0.595046837,0.66735418,1.179295833,5.542062883,2.370839253,-9.474247132,0.8247944090565698,0.2692083974337736,0.17826685315339366,-0.46417879163846937,2.182,6.0,0.090771333,-0.005000923,1.055914559,1.536954907,4.269291004,6.337589593,0.9741837324471868,0.04879186114122631,0.17754511596169725,0.13062596035930554,2.182,7.0,0.001909768,0.664540043,0.894892107,-3.191983725,2.369408087,-7.859299926,0.9117007971789721,-0.03202929715846317,0.033285758392487014,-0.4082497260684915,2.182,8.0,-0.163119665,-0.623964123,0.651059712,-17.95083339,2.493372992,-21.79282152,0.36701803302031233,-0.4186666196515816,-0.2696673942533183,-0.785681564951122
33,2.294,0.0,0.027968706,0.008213274,0.97936525,-0.005280863,0.024661603,0.014586458,0.9993651201015756,-0.005143564090700328,-0.014231927202280174,0.032254499235253795,2.294,1.0,0.129329638,-0.203870331,0.949612938,-0.250816141,0.147283262,-0.340663361,0.9338993308456172,-0.16375979734650395,-0.06613792215959655,-0.3108706224003026,2.294,2.0,0.113423393,-0.238583046,0.944056282,-0.35346627,-0.022477454,-0.360949501,0.9269114505656388,-0.18956518961971436,-0.03888613758206277,-0.3215401530115545,2.294,3.0,-0.039564037,-0.009131902,0.978342116,-0.173445995,0.117670266,0.040113566,0.998020560633539,-0.018324421786141548,0.03296604467558787,0.05032311613331782,2.295,4.0,0.005812331,0.024052421,0.979565566,-0.038104722,-0.126913637,0.116588737,0.9938748061729329,0.018306008381194384,-0.003828651569704372,0.10891786418682835,2.259,5.0,0.047540452,-0.026685534,0.977745257,-1.269691641,0.193953003,0.568781055,0.8610011181430967,0.1972321138614243,0.19202384655062715,-0.42767208252818284,2.259,6.0,0.055554685,-0.122286307,0.971292302,0.188761383,0.061468958,0.100048515,0.9766416164716977,0.048173117372320454,0.1612267698339604,0.13362796274391567,2.259,7.0,0.084088763,0.147470819,0.965205904,0.432959674,0.157743049,-0.436404918,0.9032638064360272,-0.0018328036306785745,0.021347290515727015,-0.4285503821036538,2.26,8.0,-0.17632908,0.015468269,0.963969807,4.338060298,-1.604769618,0.796547875,0.4802555865270826,-0.35736231088737147,-0.44188881315860457,-0.668117524970005
34,2.328,0.0,0.029538769,0.014413912,0.979070324,-0.077501641,0.074818941,-0.147410051,0.9996050680113777,-0.007734403393504459,-0.010734461138654942,0.024792304333768576,2.328,1.0,0.125757584,-0.212290513,0.948454937,-0.095187098,0.044980175,0.08396654,0.9355327058371776,-0.1638303500591057,-0.0579949743336338,-0.30753008903279855,2.329,2.0,0.115240104,-0.246819985,0.940917432,0.02343202,-0.026256113,0.047599296,0.9289152873869204,-0.1840269613312919,-0.03764063054594828,-0.31911385005065135,2.329,3.0,-0.043405819,-0.023171219,0.978713967,-0.30410251,0.043422991,-0.084918677,0.997816804205859,-0.03320393028225908,0.033079554791050375,0.04652813463962373,2.329,4.0,0.005220224,0.010325713,0.980041902,-0.380914301,0.090737454,0.01175497,0.9939891024310638,-0.002403235484511158,-0.001215180617247507,0.10944593205579564,2.297,5.0,0.036970746,-0.115228059,0.971225853,-0.914419078,-0.042622939,0.942277034,0.8953999843215484,0.13998815247265645,0.18523347737432766,-0.3799351840828612,2.297,6.0,0.054667476,-0.123894292,0.969671424,-0.159616185,-0.028146644,0.080295431,0.9800013968007055,0.030765379200496018,0.1397003364578336,0.13832776187332674,2.298,7.0,0.090157981,0.153876106,0.963744096,0.106492425,-0.013711495,0.808540556,0.9202716826916938,0.009089499334747777,0.008336873309282192,-0.39108555020745406,2.298,8.0,-0.045112855,0.315697778,0.926479219,3.353573062,-1.426864831,1.764977961,0.5732358325842712,-0.3146663196176305,-0.5415920445388324,-0.5282649381058333
35,2.428,0.0,0.01956392,0.004711916,0.979681607,-0.178468925,0.209174684,-0.186479387,0.9997587025081369,-0.01577535834505431,-0.0005640139969329505,0.015276017692544181,2.428,1.0,0.122315228,-0.215295719,0.948110088,0.055781734,-0.037982875,0.254986638,0.9406089162969989,-0.1586245989494348,-0.05536337778428625,-0.2950050840087855,2.428,2.0,0.110973052,-0.239895624,0.943533821,0.20038325,0.11807501,0.249458404,0.9358243565617,-0.16834999046463534,-0.03085856926151728,-0.3081214096416698,2.428,3.0,-0.045380978,-0.047300558,0.977779231,-0.354940753,0.044954958,-0.253799998,0.9975900809401558,-0.050625169036552356,0.03274103074547355,0.034338718315595845,2.428,4.0,-0.007945654,-0.026124038,0.979767524,-0.594542673,0.224592002,-0.254371704,0.9947157269735206,-0.03431418086419918,0.006646951029324726,0.09653485145362391,2.332,5.0,0.03082413,-0.18222868,0.962386399,-0.44245469,-0.151391317,0.456144531,0.912424875754779,0.09911050809414414,0.1689746641569419,-0.3593125605406041,2.332,6.0,0.054782467,-0.161162879,0.964011104,-0.783675647,-0.019837891,0.223911255,0.9811637713749788,-0.016645782429984615,0.11604469550384032,0.15353892116965911,2.333,7.0,0.105130827,0.159176579,0.9615718,0.056364173,-0.193305874,0.699866613,0.933543850516317,0.012814720922255754,-0.011252835694193115,-0.35805730795459634,2.333,8.0,0.03952437,0.406418873,0.891561845,0.086049832,-0.065842315,1.752919265,0.6306383622530359,-0.33134012470590823,-0.4936350112297834,-0.49883208948788893
36,2.503,0.0,0.004605067,-0.002786698,0.979740796,-0.074231362,0.300293216,-0.001326042,0.9996201000777893,-0.018274644153404847,0.014206372416123185,0.014962348890176072,2.503,1.0,0.116796044,-0.195264736,0.953334866,0.181995817,0.186941385,0.289288953,0.9475185883583525,-0.14351357554655803,-0.04430138664337237,-0.28222290036549447,2.503,2.0,0.099376299,-0.233191217,0.946626752,0.114716814,-0.016509049,0.667983956,0.94732893492866,-0.16026164615699715,-0.026058639067970756,-0.27605260576184687,2.503,3.0,-0.051448107,-0.066611464,0.976648353,-0.242922095,0.125597813,0.322854113,0.9961139615024848,-0.060831014507057024,0.03879034179959832,0.050516064345302765,2.504,4.0,-0.017865078,-0.054658655,0.978592495,-0.364547322,0.181092179,-0.083963181,0.9942558442893931,-0.05276484533972558,0.01364078835398287,0.09211468984772463,2.398,5.0,-0.007026096,-0.264591142,0.940550988,-0.359167075,-0.287107436,0.242708336,0.9229636548707325,0.057863480641735486,0.15059600658561514,-0.34944348927422897,2.398,6.0,0.054910428,-0.235491748,0.946370161,-1.753628366,-0.259228888,0.066929505,0.9776125557709214,-0.10969794078552673,0.07394343620954512,0.16362280045270858,2.398,7.0,0.127480658,0.125568054,0.964563811,0.4998679,-0.435036811,0.053580033,0.9332763739222993,0.03070375135013079,-0.04781960896373715,-0.35463470576077166,2.399,8.0,0.078218807,0.372014444,0.890524605,-1.653819892,1.380373379,2.01926153,0.6975081870071516,-0.37138898816828314,-0.3428688994181439,-0.5079305723591818
37,2.533,0.0,-0.020748207,0.003779521,0.979430563,0.272067852,0.32311914,0.202944388,0.9992360694054432,-0.0027711317567084615,0.030218439743906454,0.024626090379744416,2.534,1.0,0.093473835,-0.181480695,0.958726968,0.389121252,0.345088265,0.420752785,0.9571794031884858,-0.11679782114752756,-0.028299590172766304,-0.26337234532687326,2.534,2.0,0.086028828,-0.217989638,0.951895246,0.371362499,0.188423084,0.152078988,0.9530862199584925,-0.13607855495376614,-0.01967763842795167,-0.2696703075105335,2.534,3.0,-0.065856069,-0.077673064,0.974901468,-0.112368818,0.248990564,0.221164945,0.9947397860088502,-0.06466652313646444,0.05088100251325817,0.06100920012386808,2.534,4.0,-0.034850691,-0.066947868,0.977022729,-0.098101637,0.322959881,0.410162129,0.9916365995106372,-0.05711578392299322,0.030460819485004384,0.11165473663998295,2.463,5.0,0.024948016,-0.212643698,0.956271015,-0.342964505,0.039285744,0.527523554,0.9342026883200332,0.03041638589050642,0.1456040771810948,-0.32425242221643413,2.463,6.0,0.050346735,-0.240411527,0.948813208,-1.256169447,-0.004763933,0.360443273,0.9666969015593333,-0.1697165078831896,0.054630383470313314,0.18359991467701317,2.463,7.0,0.1067142,0.157618272,0.961317617,0.083696338,-0.036587299,0.116019014,0.9348527563130712,0.03623253238822637,-0.05442990345702617,-0.3489626243886995,2.464,8.0,0.067925854,0.404439554,0.889707663,-0.1077508,0.411047128,0.218504791,0.7179909985884363,-0.33055946408143544,-0.3100682597793893,-0.5282774279955139
38,2.589,0.0,-0.034271892,0.006216553,0.979017258,0.608939827,0.479539169,0.111557413,0.997758759386545,0.027738232278221666,0.05345025992633336,0.02917393102256674,2.59,1.0,0.089161993,-0.199587373,0.959472782,0.955498083,0.125221207,0.350911461,0.9665806724031923,-0.06869975601534117,-0.03244861455013186,-0.24484532806202844,2.59,2.0,0.112677067,-0.234042127,0.951460541,1.094380884,0.541257244,-0.972448798,0.9455608212042655,-0.07524036425315653,-0.012717661950488025,-0.31637301096187176,2.59,3.0,-0.075564003,-0.069325348,0.974633817,-0.450407871,0.407449612,-0.405198886,0.9931903477080141,-0.086585896886978,0.06651392750169219,0.04064127370311317,2.59,4.0,-0.049645223,-0.05356469,0.97691155,0.029918979,0.196273914,0.830681933,0.9861009288095612,-0.052731011416792796,0.04164234152873369,0.1519549736859143,2.523,5.0,0.004540492,-0.238758393,0.950743295,-0.597912378,0.348340074,0.600445353,0.9425481868812114,-0.0022105864674010797,0.16124296256708123,-0.29257261617759384,2.523,6.0,0.04274154,-0.343803861,0.916732276,-1.437843947,0.007024108,0.278490343,0.9504878837944141,-0.2372472968418398,0.034334023420581956,0.1977566123724086,2.523,7.0,0.099721386,0.150884117,0.962976442,-0.307995391,0.122725753,0.289143609,0.9404805998193388,0.02494510940801857,-0.045698370962876426,-0.3358357362929353,2.523,8.0,0.021867686,0.376225032,0.90466045,-0.946318094,0.405695083,-0.26420138,0.7100650456712628,-0.3124426199149884,-0.2633513522264754,-0.5734398882681712
39,2.645,0.0,-0.035077242,0.015291306,0.979033586,0.229374733,0.310889466,-0.022847278,0.9967727116418734,0.03661257061465426,0.06579308517865559,0.02783794068834408,2.645,1.0,0.066668086,-0.137502004,0.967745093,1.101511083,0.182899503,0.801864364,0.9784344924848702,-0.014534968203699775,-0.034651514260074845,-0.2031106870026181,2.646,2.0,0.071302698,-0.174546983,0.961584253,1.104531922,0.501395093,0.537253527,0.956818705591975,-0.016843702511860795,-0.005073991717175636,-0.29015256146214413,2.646,3.0,-0.080068963,-0.096978204,0.970507697,-0.598367741,0.193376532,0.214938972,0.9895754528125295,-0.11232724868898855,0.07330609091948673,0.05243309476793317,2.646,4.0,-0.044559981,-0.079339723,0.975241825,-0.384235869,-0.140789122,0.39339495,0.9821693873220382,-0.06877516778675993,0.030629218444483842,0.17226468553024893,2.554,5.0,-0.034517621,-0.285659783,0.937337198,-0.442667284,0.322452423,0.300592344,0.9446161325814004,-0.029001619194390066,0.1737468819543486,-0.2768958092174804,2.554,6.0,0.043584247,-0.454766166,0.867177691,-2.423402047,-0.23184575,0.044898472,0.9172612190846933,-0.3441247908631064,-0.00964741091183832,0.20029206609195407,2.555,7.0,0.10709837,0.11197512,0.96814075,-0.301912489,0.023548902,0.2017197,0.9440733782755963,0.011691685846477218,-0.04215428504232804,-0.32682071104191057,2.555,8.0,-0.017533202,0.314093107,0.927816311,-1.43723931,0.699875247,0.013566767,0.7044679201534881,-0.30733626222163113,-0.18570500452426314,-0.6121952488323464
40,2.668,0.0,-0.048480917,0.026555141,0.978349848,0.068615268,0.10274613,0.12162108,0.9964756336871924,0.03791990252410854,0.06672120064057033,0.03386257292869783,2.669,1.0,0.031096942,-0.067891457,0.977182547,0.979609867,0.458192189,1.318172299,0.9900154587102159,0.03407260196126691,-0.021394299310632928,-0.13509527477819858,2.669,2.0,0.015247052,-0.108202348,0.973590663,0.890650711,0.458070362,1.599090791,0.9771928994283489,0.029036245738623897,0.003489602480585906,-0.21033011295283127,2.669,3.0,-0.089302796,-0.129886078,0.966531747,-0.390961732,0.041735787,0.849278411,0.9846968935990974,-0.12415439038915162,0.0764510297353497,0.09546179935341088,2.669,4.0,-0.044708287,-0.113449593,0.972504169,-0.507306573,-0.153584445,0.308809938,0.9776937761738068,-0.09098068979657747,0.0183422496995202,0.18841697373405958,2.628,5.0,-0.019093875,-0.192828801,0.961033546,2.651738158,0.060673365,-2.145865461,0.9079544161058791,0.068096752329727,0.1329543374049865,-0.39154151090424244,2.628,6.0,0.0565327,-0.691188311,0.691146709,-4.975313105,-0.357917143,0.331076158,0.814215703180522,-0.5400178620496312,-0.07354712233146822,0.200060786158491,2.629,7.0,0.091793642,0.087426603,0.97215766,-0.721979655,0.267983654,-0.540057074,0.9353807961106188,-0.015072284663540795,-0.019879172283743456,-0.3527611245755399,2.629,8.0,-0.057579613,0.24294043,0.947477987,-0.018836076,-0.405897128,-2.745001613,0.6235561514045429,-0.2611856408187177,-0.22654725002458936,-0.701167690771592
41,2.73,0.0,-0.050991226,0.033164262,0.978483534,0.054117937,9.46e-05,0.136817392,0.9964608737647098,0.03888833914367819,0.06254650935112127,0.04051368043892456,2.73,1.0,0.006522984,-0.005143021,0.980141316,1.054414851,0.207189607,1.825553946,0.9954848634066191,0.08209090711769147,-0.023697101796428973,-0.0413450972105448,2.731,2.0,-0.01437633,-0.04005212,0.979590807,1.141491512,0.52224518,0.74580827,0.9812571203095037,0.08583091177798721,0.014725302532529617,-0.17190312356261914,2.731,3.0,-0.097557095,-0.164099673,0.961027528,-0.583714035,-0.097467937,0.886694692,0.9766148621154562,-0.1451228829220936,0.07181350471533043,0.1414410848660669,2.731,4.0,-0.031748472,-0.134710487,0.970051091,-0.462013988,-0.298929221,0.738438949,0.9682284341791766,-0.10776765379255958,0.001962908260089962,0.22564569358653686,2.704,5.0,-0.020595351,0.028366033,0.979704139,3.224635578,0.124376716,-2.143136756,0.8461965581000038,0.18714945394352295,0.08248353760825905,-0.4920598875868412,2.704,6.0,-0.017120671,-0.814702027,0.544284383,-1.666846547,-0.212550268,-0.903808963,0.7804084601812045,-0.5909838355480067,-0.1270233644637459,0.15989310891617087,2.704,7.0,0.056116418,0.070633454,0.974827094,0.06999933,0.454307276,-0.646279988,0.9239216535981554,0.0006358872985048157,-0.0020573267226054737,-0.3825756671124684,2.704,8.0,-0.064563655,0.168175118,0.962917267,-1.481774715,-0.147204646,-0.137673985,0.6036070048500264,-0.2800267479801825,-0.16667072879231332,-0.727643094020319
42,2.805,0.0,-0.045741454,0.036826152,0.978309028,0.030700571,-0.123847496,0.053995096,0.996947710776143,0.0387349357289409,0.05248996678382685,0.04289137581513677,2.805,1.0,-0.003726192,0.063714771,0.978254846,1.259879212,0.19190576,1.424075446,0.989632223545465,0.13788716937985893,-0.024099662711941153,0.032162041260463466,2.805,2.0,-0.037454174,0.047894036,0.977891787,1.390667627,0.164769367,1.590348263,0.9843279131826975,0.15058057669168434,-0.001113970190296435,-0.09177585915157921,2.806,3.0,-0.095600983,-0.191681856,0.95640186,-0.5443171,-0.236337888,0.735835511,0.9682026087763274,-0.16299329881329017,0.0587836214016822,0.18044771751279923,2.807,4.0,-0.020463819,-0.164188057,0.965960928,-0.498198661,-0.241410127,0.753834825,0.9564838710232124,-0.12638081003436963,-0.011496602809721248,0.2627438361814463,2.824,5.0,-0.034672313,0.165099111,0.965147198,1.156927605,0.021339861,-0.471133175,0.8261520596745884,0.22332985285451304,0.049681284595593025,-0.5149061284159945,2.825,6.0,0.001001389,-0.862540607,0.465836558,-0.952963597,-0.124964798,-0.840261219,0.76369806304652,-0.611945861334509,-0.16281315953173534,0.12561610715928545,2.825,7.0,0.033757249,0.068039119,0.977344426,-0.037431529,0.249882237,-0.095882695,0.9220594764138488,0.006177744145436107,0.00749836054124169,-0.3869262617371505,2.825,8.0,-0.056242651,0.09141412,0.974385049,-1.402784999,0.438549268,3.213145604,0.7087581677102763,-0.3098795200909303,-0.03389845039826554,-0.6328407681184761
43,2.864,0.0,-0.034728077,0.040998242,0.978856018,0.090265775,-0.182360552,0.098995017,0.9971960119234978,0.042026248654091033,0.03999553497912844,0.04726801677317296,2.864,1.0,-0.006271995,0.141170832,0.969532598,0.926597583,-0.04755901,0.596902009,0.9820297158028664,0.1761008776832015,-0.02724461723807924,0.062159866400259084,2.864,2.0,-0.051186699,0.139725147,0.968539522,1.23966526,0.304189357,1.614224939,0.9788530203849436,0.2042595022868558,-0.006320015872764437,-0.009212904437110285,2.864,3.0,-0.092822229,-0.221957324,0.9500242,-0.590671232,-0.152018675,0.727502595,0.9572760477010837,-0.18345848302009912,0.04960127402631529,0.21795703044573472,2.864,4.0,-0.01131249,-0.195737245,0.960401978,-0.535796317,-0.215922516,0.617899548,0.944610325272287,-0.1463561685064843,-0.02512138764492495,0.2926775037680193,2.916,5.0,0.0323683,0.318143957,0.926098113,1.84339252,-0.665388429,-0.198314001,0.8043643438276669,0.2709968228046258,-0.036174387641557865,-0.5274942066859534,2.916,6.0,0.030575004,-0.822858751,0.530588018,2.294092684,0.727367962,-0.875630405,0.8540753714657224,-0.49495175775138656,-0.1331814070813952,0.08854789756013881,2.916,7.0,-0.005015756,0.061877107,0.978171287,-0.110213312,0.692369815,-1.309869869,0.8949159251210193,0.016431387172664905,0.03995611956435017,-0.4441384975317179,2.916,8.0,-0.064056298,8.35e-05,0.978081174,-0.096919072,-0.064282725,2.598770498,0.7952407249541091,-0.2881960404211788,0.011581958545358175,-0.533292686895546
44,2.937,0.0,-0.030268768,0.041173075,0.979145842,-0.005102691,-0.19424792,0.174010499,0.9972567494595823,0.04039926920960732,0.02758742138961864,0.05555005747710065,2.938,1.0,-0.002119319,0.180070505,0.963163082,0.372627334,-0.050798804,0.065926992,0.9800189724452774,0.1861385519969359,-0.025832237360591002,0.06517628879226596,2.938,2.0,-0.040218578,0.201205882,0.957870899,0.867761868,0.089077634,2.106982012,0.9672027624533633,0.23458782235709497,-0.024552052570077875,0.09425797907304591,2.938,3.0,-0.090094789,-0.244371734,0.944095008,-0.453430536,-0.309251573,0.709291103,0.9464976232783,-0.1946815459089821,0.03375898378083991,0.2551503004605385,2.938,4.0,-0.00634444,-0.228039622,0.953130463,-0.44050112,-0.312200386,0.799346503,0.9290419697899754,-0.15985114823695493,-0.0402611897828819,0.33122147480704806,2.976,5.0,0.023205864,0.411246086,0.889491509,0.63143911,-0.054598934,-0.522663383,0.7852322611910738,0.2862061533317202,-0.05598095468082884,-0.5462256552861977,2.976,6.0,0.030063192,-0.551738951,0.809139255,5.683568606,0.592843511,-0.357962543,0.9774094787927499,-0.17933262205120906,-0.07125306961828892,0.08621787230205985,2.976,7.0,-0.045431489,0.011688954,0.979018564,-1.719773411,0.261274482,-0.196146669,0.8895963271128828,-0.054782614471382954,0.08689429973627072,-0.4450467622759338,2.977,8.0,-0.064432123,-0.044689635,0.976973561,-0.710547634,0.148968409,-0.829633592,0.7697222411077382,-0.2861937458861961,0.02671138330671423,-0.5700064151933294
45,3.043,0.0,-0.033278023,0.038372077,0.978831526,-0.144576098,-0.126301047,0.201396241,0.9971579734835183,0.03163771112907149,0.019612945492054324,0.0655008665735206,3.043,1.0,0.003015799,0.195136552,0.960398163,0.11702868,-0.000463913,-0.063870285,0.9808315881967452,0.18344976032999522,-0.021852887168340707,0.0619518551193246,3.043,2.0,-0.028747709,0.249701309,0.946843084,0.578960883,0.465721748,1.133546902,0.9564722732576783,0.24780459981353037,-0.00858900615693197,0.15388274683596376,3.044,3.0,-0.082020234,-0.26050407,0.940151749,-0.384820441,-0.351315707,0.586608822,0.9364907545760748,-0.20181108602736264,0.01560887553734669,0.286380367962698,3.044,4.0,-0.000611407,-0.248945129,0.947736751,-0.348016373,-0.272728718,0.731976573,0.9136976961058453,-0.16878413299865191,-0.05248591957996675,0.3659421604907108,3.069,5.0,0.036798063,0.436110365,0.876881207,0.053319186,-0.432933917,-0.373211784,0.7767334753997199,0.26735377673406807,-0.07746972937602595,-0.5649827495507347,3.069,6.0,-0.024625382,-0.00557222,0.979597642,5.699359474,0.690318391,1.457455421,0.9796611616767542,0.11748013657961352,-0.011365452385095566,0.16227523626071158,3.07,7.0,-0.059503725,-0.118030682,0.970604999,-1.591374153,0.251360254,-0.524111575,0.8713558033421102,-0.11932516491203998,0.12671138947603147,-0.45874262149684075,3.07,8.0,-0.061332913,-0.086143681,0.973237659,-0.610793745,0.024464035,-1.099806913,0.7361006781952999,-0.2851733226204968,0.03121036213855712,-0.6130724923866553
46,3.073,0.0,-0.034312528,0.030566698,0.978754988,-0.207098067,-0.132867085,0.21103814,0.9968335615705421,0.02023299050096302,0.0119838578116771,0.0759596193640116,3.073,1.0,0.005780908,0.193976993,0.960300217,-0.108494375,-0.174104966,0.233165598,0.9823713496805024,0.17007086548865322,-0.030252039160752007,0.07146499958346428,3.074,2.0,-0.038109544,0.264569195,0.941913374,-0.118336698,-0.083339197,0.793768395,0.9541079630161059,0.23100552969936408,-0.0179165348443262,0.1897193662669827,3.074,3.0,-0.063139495,-0.275271179,0.938042207,-0.226357339,-0.383404095,0.338263481,0.9306155283963115,-0.20095921883871026,-0.004581336158906958,0.3058580422849603,3.074,4.0,0.010959566,-0.266008944,0.942742876,-0.191276583,-0.346427498,0.392120312,0.9045492527301294,-0.16779327808086922,-0.06867262546315342,0.38590171770573634,3.122,5.0,0.088600838,0.416849014,0.883002713,-1.098514601,-0.637952422,1.099911542,0.8230639749753914,0.18854125356821555,-0.0914123372061774,-0.5278841477134334,3.123,6.0,-0.108720162,0.387469771,0.893597282,2.606349828,0.017857154,-5.936770632,0.954275695799456,0.24544995296891636,0.09267040716019097,-0.14326343787158383,3.123,7.0,-0.075664486,-0.217444971,0.952230314,-1.349687424,0.147023763,0.440043245,0.8720340612051457,-0.16801132144943007,0.16354736365495806,-0.4296289699314856,3.123,8.0,-0.047433701,-0.13039899,0.970731759,-0.643033076,-0.040552881,-0.359472609,0.7222384895366118,-0.28727934232425884,0.047012809965664835,-0.6274009399138216
47,3.178,0.0,-0.023138506,0.019215446,0.979293815,-0.219929377,-0.228994055,0.188233787,0.996323175160122,0.009121496057647904,-0.0002936315141262968,0.08518710424152932,3.178,1.0,0.025448286,0.181202039,0.962298917,-0.30598179,-0.312010128,0.668737537,0.9826779115879142,0.14742835605494575,-0.04922174009866133,0.10092681610856219,3.178,2.0,-0.01809471,0.235749945,0.951070736,-0.866609532,-0.412229679,0.51541199,0.9602153154629357,0.1813261854082492,-0.04570955048097262,0.2074078094733544,3.178,3.0,-0.045363383,-0.279303691,0.937176937,0.057030556,-0.403289555,0.04364582,0.9314037263774877,-0.1864835644257125,-0.023834885594355603,0.31167752071318067,3.179,4.0,0.02581082,-0.272020326,0.941225129,-0.034374204,-0.232456455,-0.320206016,0.9103064491827989,-0.15935559094977872,-0.08228998656331349,0.37306342935305353,3.154,5.0,0.065404247,0.38455498,0.897969795,-0.312765326,0.187503115,0.461714123,0.8398267040781195,0.1746012350901132,-0.08374467372256354,-0.5071413466139307,3.155,6.0,-0.132830595,0.376166944,0.894563281,-0.405455928,-0.398862487,1.014092136,0.9681830901289802,0.22307715767689174,0.059634785020660074,-0.0964457263264574,3.155,7.0,-0.079637248,-0.27981254,0.936090194,-0.603615536,0.214113544,-0.717360196,0.8512737669622872,-0.18948415954081915,0.17264370756428304,-0.45784590989044033,3.155,8.0,-0.049922926,-0.215232763,0.954668298,-1.226256238,-0.05867976,-0.404228256,0.6981967420600111,-0.3126900138390666,0.08117014861771872,-0.6388721872139124
48,3.23,0.0,-0.001210036,0.020279772,0.979390763,0.091747958,-0.362479162,0.259518007,0.9949178960541144,0.015336810288208077,-0.01795487538796431,0.0978814834953002,3.23,1.0,0.059162917,0.147358026,0.967084981,-0.743161543,-0.438491999,1.483296326,0.9773303999730537,0.10233218471875498,-0.07917007356189289,0.16758732861228604,3.231,2.0,0.035783698,0.149810494,0.967879302,-1.530956058,-0.827534062,0.160756866,0.968912563243753,0.1045014413060145,-0.09795165313051399,0.2017259705699432,3.231,3.0,-0.017753859,-0.258447668,0.944906135,0.471744258,-0.431548757,0.044321567,0.9351799753553768,-0.15194849223182466,-0.037239644654997746,0.31774719238533256,3.231,4.0,0.053644465,-0.26170647,0.943441569,0.317127208,-0.240513407,-0.562470622,0.9227638954197172,-0.13333041865185172,-0.09060103673198304,0.35003034856286513,3.228,5.0,-0.225251071,-0.026015508,1.090178952,-5.997204708,1.097705222,13.39184103,0.9084279319122702,-0.17978868474186094,0.2338362988808161,0.29623522188644147,3.229,6.0,0.461165269,-0.044985983,1.024251852,-2.179952498,-0.164360537,19.8098184,0.7403650015208328,0.09260979292616611,-0.06872357390330015,0.6622387493700345,3.229,7.0,-0.277305798,0.816543999,1.260883179,20.14203345,-0.261605064,-3.338831887,0.72495777584872,0.5971923268588405,-0.1403881430446953,-0.31319118325690987,3.23,8.0,-0.18536048,-2.435281442,-2.163387111,6.409457091,5.459576807,-41.95539341,-0.3529576999778658,-0.2895538271035377,-0.7553825051659661,0.47008160368729446
49,3.313,0.0,0.030573274,0.022219291,0.979146862,0.085386428,-0.456508613,0.480363333,0.9915681857551549,0.021112240090984797,-0.040315209841527054,0.12133214813891971,3.314,1.0,0.078612793,0.087255408,0.971920019,-0.824346326,0.081205301,-0.214820839,0.9834964709699592,0.05670985601579748,-0.0766808130480558,0.1537489405836432,3.314,2.0,0.045710574,0.077732545,0.976078478,-0.845772362,0.044752926,-2.06261753,0.9894240072107454,0.06549549925554572,-0.0884430160706665,0.09448971605746899,3.314,3.0,0.008482188,-0.217045691,0.955794026,0.748609382,-0.36911488,0.014488461,0.939913269588242,-0.10603248565868775,-0.04283817882884411,0.3216909200950642,3.314,4.0,0.061040054,-0.222823812,0.952069672,0.760512173,0.053541661,-0.141795582,0.9306309894705853,-0.09440124207543117,-0.07335018208959257,0.34588165276440896,3.302,5.0,0.076045698,0.367681163,0.905113592,-0.614443594,-0.355554472,-1.101653041,0.9300023293494478,-0.18282279196848314,0.18081401330167926,0.2626362251007851,3.302,6.0,-0.089223206,0.339163629,0.915423537,-1.870403649,-0.249886549,0.343612087,0.7389185837912489,0.0318298220360886,-0.11952346527104062,0.6623445706025594,3.303,7.0,-0.073727872,-0.322900318,0.922323471,-0.501458304,-0.185557973,-0.119830162,0.762237123430228,0.5367881060605832,-0.1229155489762575,-0.3402129695890044,3.304,8.0,-0.037480066,-0.317763487,0.925726531,-2.097678278,0.247227289,-0.647873086,-0.37420043212892534,-0.21535115932391397,-0.791468315452811,0.4326382096008872
50,3.336,0.0,0.057773242,0.028492458,0.977801837,0.113058354,-0.475491449,0.669454906,0.9856980458531285,0.027892995509226942,-0.06269338820187247,0.15391842735233266,3.336,1.0,0.069360174,0.033719924,0.976954008,-1.328010922,-0.404399558,-0.666112253,0.9882358240923323,-0.006861914096842578,-0.10238466334017182,0.1134030459387919,3.336,2.0,0.039427713,0.025727866,0.979246921,-1.229811306,0.447831289,-2.676509588,0.9970266490031265,0.007980311750525992,-0.0627721621464,-0.043975350611753186,3.336,3.0,0.022419856,-0.167481654,0.964912559,0.908271461,-0.13493727,0.014275573,0.9436610791608117,-0.05808230873752577,-0.034100873937341014,0.32398664090588747,3.337,4.0,0.058817937,-0.169594935,0.963283452,1.065023294,-0.060167839,0.400490194,0.927535780626349,-0.042975491115438504,-0.055303685437147115,0.36711304144408374,3.358,5.0,0.075945529,0.348566212,0.911486079,-0.6237639,0.088870232,-0.338436293,0.9351450484585754,-0.18366878230073033,0.15995611052132194,0.25726165563190007,3.358,6.0,-0.054583054,0.266957962,0.940331397,-1.200418078,-0.696005202,1.153713405,0.701270738015096,0.0104832427363121,-0.1627116331984003,0.6939988314452723,3.358,7.0,-0.080019601,-0.293587616,0.931606771,1.467767253,0.080957313,0.986601596,0.7624822001221904,0.5487619286213609,-0.15687547877862318,-0.30474796857496245,3.358,8.0,-0.113684321,-0.576213067,0.785093228,-5.305741034,1.71189207,0.317746455,-0.3729314206299593,-0.14233371646352574,-0.8929944078294976,0.20790444018790386
51,3.403,0.0,0.084740032,0.031220778,0.97528221,0.134351678,-0.302245249,0.192757111,0.9830958587353104,0.03567008423155687,-0.07462268258218614,0.16334513421781055,3.403,1.0,0.105696669,-0.050081469,0.973350431,-1.193787093,-0.679181924,-1.204096457,0.9872433562892412,-0.05701615959487945,-0.14105752836058102,0.04693065842932318,3.403,2.0,0.089134877,-0.07075325,0.973197797,-1.20416369,-0.673004622,-0.891567947,0.9898395527116965,-0.054892714743445085,-0.0937664008749792,-0.09171865580434699,3.403,3.0,0.028935579,-0.107636173,0.973576492,0.90439779,-0.055646446,-0.43967397,0.9524214940091676,-0.012211483589108004,-0.022122192088410663,0.30373472971509446,3.404,4.0,0.070887116,-0.092292643,0.972210412,1.045271766,-0.303661483,0.565609862,0.9172975485102498,0.010258690662032171,-0.0498540057275145,0.3949361275901551,3.385,5.0,0.062796656,0.29542718,0.932660367,-0.712144007,0.316459418,1.168807593,0.9163403654318777,-0.1808146996823959,0.1633831703752242,0.31769847134834944,3.386,6.0,0.019454574,0.179782246,0.962844153,-1.31611134,-0.242850995,4.757714934,0.5420676145887893,-0.05255975792870341,-0.1848132971022309,0.8180734797527044,3.386,7.0,-0.093785534,-0.120409505,0.968346955,3.258221874,-0.083543352,1.093611647,0.7108531203887267,0.6183061672858963,-0.22693467368107326,-0.2467508431821468,3.386,8.0,-0.132449352,-0.840352148,0.485694798,-3.959080765,1.761300625,-2.304724365,-0.3081162765402123,0.023586316951507726,-0.9458711515554765,0.0991756544660796
52,3.517,0.0,0.096955398,0.041783666,0.974182106,0.097380708,0.004352363,0.139450774,0.9820085310457458,0.039245214385069775,-0.07096879795432563,0.1705358842536209,3.517,1.0,0.162133033,-0.077673464,0.963623221,-0.395065925,-0.769586639,-1.176126485,0.9819354558599308,-0.06409884878670954,-0.1776329872083329,-0.011858328921590356,3.518,2.0,0.117009392,-0.108163814,0.967077242,-0.442267657,-0.247438394,-0.606635232,0.9842760335571715,-0.0754681548828627,-0.10224644515511833,-0.12268215769491274,3.518,3.0,0.010217641,-0.041540022,0.97904802,1.09297246,0.642596331,-1.377895234,0.9709817476521407,0.032051456247781974,0.02899439914429013,0.23521580452225738,3.518,4.0,0.060571438,-0.026165513,0.977668383,1.165502798,0.326043348,-1.110679902,0.9372164419997809,0.060156681282514134,-0.006503954790749284,0.34345918697048317,3.453,5.0,0.096953899,0.264019163,0.938475798,0.772648469,0.221596474,1.106271752,0.9085250478424608,-0.11071121041506284,0.17716844615149133,0.361851636751241,3.453,6.0,0.058024195,0.083256382,0.975178736,-1.258511359,0.887585481,4.535403139,0.3703266115423966,-0.15028796237581726,-0.17062920385888564,0.9006427726568036,3.453,7.0,-0.053212684,0.068399054,0.976295027,1.103725355,-0.754248906,0.848229344,0.7076819804774268,0.6040868516517525,-0.27800776685855333,-0.23869849546099095,3.453,8.0,-0.055619708,-0.821049958,0.529849427,0.191781418,-0.836455177,0.05669045,-0.36375670923139963,0.03169629904303201,-0.9189220205140964,0.14919357000356348
53,3.538,0.0,0.089585118,0.046087688,0.974575001,0.114110712,0.153400083,0.32688377,0.9796026027920107,0.04153909974215753,-0.06017189454308171,0.18716994123743588,3.538,1.0,0.187601741,-0.08892947,0.95827091,-0.422874775,-0.220577585,-1.211891466,0.9774434930770444,-0.07230447518818889,-0.18411313822034844,-0.07401778869812975,3.538,2.0,0.125236326,-0.119481845,0.964583305,-0.379910777,0.165854342,-1.895979654,0.968255267113421,-0.08217843987415037,-0.09471896102970409,-0.21623311529093306,3.539,3.0,-0.020386071,0.022524353,0.978637349,1.13124542,0.460944287,-1.301632548,0.9802556154534997,0.07774121662869349,0.06817170511020613,0.1685462851306373,3.539,4.0,0.042002643,0.053198831,0.976443374,1.525864808,0.059321143,0.504921097,0.9221231633833689,0.12651987363881934,0.018757875444368292,0.36514344473792687,3.535,5.0,0.098676207,0.280889832,0.934184622,-0.162654483,0.266329173,1.020911591,0.8899765698042817,-0.08934941113140323,0.17579126720672134,0.41116397982280845,3.536,6.0,0.068575896,0.05397393,0.975625523,0.88604109,-0.299929429,-5.863582687,0.6571218856386106,-0.03475909094200933,-0.13932197537923896,0.7399810944801689,3.536,7.0,-0.001317837,0.118430398,0.973166226,1.072979877,-0.244855725,0.469194585,0.707778902692343,0.5997095684553958,-0.29782801801800196,-0.2251575672504357,3.536,8.0,-0.026502223,-0.856047625,0.47659217,-0.057212966,-0.947451848,0.552779152,-0.424265921737714,0.027363062606267675,-0.887341122523042,0.1785368946083723
54,3.612,0.0,0.079704529,0.05700083,0.975101581,0.260921255,0.191217474,0.296240187,0.9768043412211234,0.051061560397435,-0.04657987274943865,0.2026729174704713,3.613,1.0,0.207166076,-0.098730048,0.952776781,-0.450988866,-0.18263462,-1.04883305,0.9702897222832818,-0.08373448007184628,-0.1873792916291137,-0.1281225692339211,3.613,2.0,0.121145009,-0.12661582,0.963413889,-0.259346514,0.321473173,-1.315715019,0.9530057459403262,-0.08413492322725195,-0.0772248389993873,-0.280602364815027,3.613,3.0,-0.017036185,0.106526264,0.973794087,1.132885874,0.034913851,0.246554342,0.9728608588415923,0.13077155976565566,0.07270698832722029,0.17650564392914525,3.613,4.0,0.032471096,0.143173579,0.968913801,1.024255695,0.315498105,-0.951493708,0.9315293183840375,0.16208806174173648,0.059086486439094886,0.3201396200910786,3.606,5.0,0.115013857,0.212797696,0.949886285,-2.48815926,0.5928028,1.46734219,0.8419292977244222,-0.1732520015526074,0.14633251139754724,0.4896178077841565,3.606,6.0,0.062128752,0.047360581,0.976460953,0.199338059,0.031428237,-1.681484357,0.7220288104335261,-0.008735858749984598,-0.11805836920525685,0.6816599615177958,3.607,7.0,0.010431533,0.166209973,0.965881684,0.545200256,0.203830859,1.163307684,0.7375219630392348,0.5711274548604027,-0.3128209249174147,-0.17893533265748732,3.607,8.0,-0.071146798,-0.796357966,0.567135014,3.161505022,-1.575586714,1.851544671,-0.5273238895125935,-0.11161490680836905,-0.7850842506881859,0.3051464360742872
55,3.702,0.0,0.065229736,0.071474146,0.97516077,0.16208999,0.262955602,0.306642088,0.9738139485020297,0.05471056475160651,-0.0308357688581813,0.21850012166214278,3.702,1.0,0.214930186,-0.113578886,0.949578249,-0.223947332,0.102482208,-0.185048978,0.9706996861562793,-0.09104501074926874,-0.1733590466141287,-0.13928232576607338,3.703,2.0,0.112108337,-0.1329174,0.964206765,-0.163261094,0.230523819,-0.656615713,0.9438829504540812,-0.08575637745182765,-0.06276458474368218,-0.3127162075594917,3.703,3.0,-0.055331075,0.148018312,0.96680042,0.397731693,0.476477482,-0.114368087,0.9702514194102817,0.13934521338929365,0.0970037077462613,0.17258440057346994,3.703,4.0,0.000217791,0.193077685,0.960351998,0.741991161,0.195065848,-0.772823897,0.9374596903103202,0.18446659968783632,0.08448153996668813,0.2828502643586228,3.686,5.0,0.071294743,0.028309466,0.977212686,-2.104748016,0.555229426,1.772696412,0.7786348849616601,-0.23674767970675867,0.12266092189078254,0.5680075266359697,3.687,6.0,0.081406516,0.03315634,0.975681626,-0.88118065,-0.317993206,0.75342641,0.6953840946872605,-0.028342522368248583,-0.14842791247078924,0.7025715743476592,3.687,7.0,0.026132219,0.186655274,0.96194746,0.176134693,-0.301490967,1.379292065,0.7688998872331292,0.5207447344708883,-0.34330500980547124,-0.14056868490595856,3.687,8.0,-0.139571993,-0.63617311,0.730315297,4.562682741,-0.571456394,1.817382371,-0.5592622753723074,-0.27995561001028546,-0.642740891377568,0.4424191568188787
56,3.734,0.0,0.049064871,0.070920019,0.975785319,-0.115454957,0.354478126,0.313616586,0.9710850557351579,0.04335050079759363,-0.014132725414707913,0.23433910190319449,3.734,1.0,0.199183753,-0.127911019,0.950378137,-0.203397706,0.324717748,0.570637591,0.9774687661279999,-0.10245281850113545,-0.14496381232968308,-0.11420912546825417,3.735,2.0,0.103947024,-0.143467566,0.96391186,-0.220275516,0.039088811,0.425782199,0.9497727893461898,-0.09699907649535977,-0.051857325965736334,-0.29297379664449325,3.735,3.0,-0.060018818,0.158102932,0.96564911,-0.028170266,0.005327367,0.654502755,0.9656096232359894,0.13463113732833287,0.08738048409656661,0.20454134881431632,3.735,4.0,0.033427465,0.221594542,0.954276932,0.279253798,-0.780733889,0.866562621,0.9260881695943884,0.20494133742960946,0.03663139980183863,0.3146710836706102,3.802,5.0,0.069336255,-0.043836485,0.976857639,-0.825308951,0.096634356,1.386592193,0.7348923550667393,-0.23966986639512733,0.10520930911667245,0.6256377409346368,3.802,6.0,0.101794462,-0.052662992,0.973156974,-1.090652685,-0.296541621,1.119874246,0.6539989165651048,-0.057744499939611366,-0.18432883354020715,0.7314190802707433,3.802,7.0,0.06490323,0.172625654,0.962936631,-0.320221083,-0.251876948,1.682139132,0.8115970075176988,0.44486809547871325,-0.3674970256274737,-0.09137073474816032,3.802,8.0,-0.087069146,-0.085312355,0.971839373,6.255510827,0.021933463,1.293738259,-0.5183008948328784,-0.46341082152755403,-0.43915386869462325,0.5689977790089699
57,3.808,0.0,0.026594002,0.057351673,0.977775304,-0.183233429,0.314101417,0.266755042,0.968402277016371,0.029432702645045525,-0.0006830556215202343,0.2476495090234064,3.808,1.0,0.169766323,-0.151609865,0.951785083,-0.221085686,0.268232024,0.93780612,0.9835534100960501,-0.11695498138868386,-0.11815277014794884,-0.07059847536009413,3.809,2.0,0.091716268,-0.168441106,0.961517925,-0.240485088,0.070749169,1.096448328,0.9637619152189162,-0.11020184563730535,-0.03556123328850767,-0.2403204583024477,3.809,3.0,-0.06194904,0.146560075,0.967076243,-0.245772997,0.21332376,0.268345158,0.9645397568951732,0.11501989207168466,0.08954306035490166,0.22003527475997253,3.809,4.0,0.075607055,0.230895652,0.949340177,0.062502057,0.007520492,-0.297334819,0.9315849663462565,0.19923477420888816,0.03748302916714547,0.301744888520141,3.857,5.0,0.047699074,-0.123406655,0.971342162,-0.956481683,0.116522967,1.119497529,0.6937749928303394,-0.2517281535266862,0.07892012141194822,0.6701349196106937,3.858,6.0,0.11702495,-0.138030492,0.963135891,-1.347907964,-0.311255145,1.032468837,0.6117897488787879,-0.09218761760362698,-0.22972917025301576,0.7512917240741162,3.858,7.0,0.103208682,0.110621056,0.967948836,-0.51837231,-1.363698879,0.951686944,0.8256971301676654,0.36977345525297795,-0.4156382654477012,-0.09347017341794875,3.858,8.0,0.067022681,0.426329455,0.880011452,1.634480892,0.070124445,1.365288872,-0.5462561243776792,-0.5257359849586067,-0.31955825930388504,0.5684086906532585
58,3.869,0.0,0.011088727,0.050684324,0.97883969,-0.103567378,0.25423997,0.214062299,0.9657904181660522,0.020975700090903028,0.010247513842161484,0.2582709365073681,3.87,1.0,0.152866156,-0.171293935,0.952745153,-0.103080876,0.075028674,0.574541417,0.985825458145331,-0.1227524121094919,-0.10593326396291107,-0.04310632181030993,3.87,2.0,0.069574407,-0.184346393,0.959856661,-0.167141269,0.150961046,1.07675894,0.9749103856825243,-0.11730879322634366,-0.017443399749136255,-0.1883722769552952,3.87,3.0,-0.075539887,0.125528838,0.968481924,-0.483947984,0.237332134,0.124983211,0.9654377323793463,0.0834984036561789,0.09137423291269979,0.2293659762142401,3.87,4.0,0.072858728,0.21086283,0.954353432,-0.678820375,0.21533294,0.072052264,0.9377431169818143,0.155742680933643,0.032909701046611464,0.30870538619508303,3.918,5.0,0.039132845,-0.169474109,0.963898411,-0.867112432,0.162303368,0.708099907,0.6645305706645241,-0.2646634057416405,0.05076934602934273,0.6969755202424762,3.918,6.0,0.128558163,-0.22848703,0.944146427,-1.229087198,-0.239867278,0.456530525,0.5888901584943453,-0.11821714005018022,-0.27101919675592606,0.7521846076706393,3.918,7.0,0.139819749,0.134236818,0.960742897,0.115009591,0.327831726,-0.757127912,0.8487187920465642,0.367266948039438,-0.361774882314116,-0.11794208507324792,3.918,8.0,0.046217962,0.447306693,0.870624272,0.692554745,0.335446833,1.153481221,-0.5829113841831698,-0.5537774903434662,-0.24240119164677668,0.5429424202130237
59,3.972,0.0,0.00019536,0.055339038,0.978022266,0.147753926,0.131124202,0.310462584,0.961407613105293,0.027173692766730397,0.01773298890872146,0.2732078567482382,3.972,1.0,0.148919948,-0.180577808,0.951249444,-0.106176974,-0.075921337,0.173298681,0.9857985488869397,-0.126401657888188,-0.10502194448085135,-0.03455767748247185,3.973,2.0,0.049598516,-0.192576564,0.959379098,-0.043841434,0.232934523,0.221721252,0.9770271538903866,-0.11588452784954709,-0.003252421471189253,-0.17882432306739487,3.973,3.0,-0.090622076,0.086300995,0.972046181,-0.604918159,0.164345056,-0.07862816,0.9683241145410759,0.0468095582989353,0.08891967864266369,0.22858382532494584,3.973,4.0,0.027155218,0.147677675,0.968239587,-1.095729017,0.82190901,0.102013899,0.942406136302336,0.08334645323576811,0.052062041830435266,0.31970859668324064,3.963,5.0,0.012194571,-0.232124786,0.951930867,-0.659950146,0.091573667,1.016618742,0.626090922372113,-0.26893092731209184,0.031731670078869484,0.7312177612533088,3.963,6.0,0.139360879,-0.336248944,0.909409255,-2.007030949,-0.544684497,1.338182228,0.5237029347007788,-0.16305727430165676,-0.3424319587143833,0.7628157806011469,3.963,7.0,0.122933641,0.13143824,0.963197959,0.554565955,0.62916532,1.695725001,0.876764000633728,0.3379585257599496,-0.3412144455711598,-0.02533030186294158,3.963,8.0,0.100456319,0.412685259,0.883016084,-0.708305269,0.748554485,0.610563274,-0.6376599710180058,-0.5342198014092158,-0.23822630778307782,0.5012456398051323
60,4.048,0.0,-0.009528608,0.064064124,0.977458947,0.151709115,0.272065079,0.482549476,0.9540442968809076,0.03140910180286858,0.03161203593603566,0.2963336415207194,4.048,1.0,0.156124083,-0.183886693,0.948769179,-0.058736854,-0.100662641,-0.300758968,0.9849380944958832,-0.1249873256426455,-0.10896167796426462,-0.04901500968815329,4.048,2.0,0.032488771,-0.19432905,0.959809721,-0.068507149,0.454803713,-0.804601272,0.9687280524653713,-0.11342409268215455,0.015298046712714826,-0.22015200506162727,4.048,3.0,-0.086048392,0.034720663,0.975860723,-0.901502077,-0.119064291,0.468830437,0.9647814818263742,0.0027669797922648767,0.0685055675747831,0.2539606728589913,4.049,4.0,-0.017118125,0.057200158,0.978373197,-1.438771175,0.488445713,0.730739498,0.9330041406167835,0.004309874915350861,0.0481912285070109,0.3565982390101452,4.039,5.0,-0.013299028,-0.260667229,0.943905573,-0.151734147,0.177726955,0.794093632,0.6002190724153027,-0.2625080047506127,0.030231839989892376,0.7549255913012828,4.039,6.0,0.141201639,-0.537094311,0.807195018,-3.081396327,-1.075212077,1.5924259,0.42616481895470343,-0.2113687418759138,-0.46406871816071993,0.7472262220156387,4.039,7.0,0.116664223,0.114320207,0.966141992,-0.355920669,0.140604383,2.125630958,0.9022291061921408,0.2609397947944195,-0.33728818385162546,0.06426308790004603,4.039,8.0,0.059066638,0.310447042,0.928229371,-0.939583061,0.596634389,0.874067225,-0.7029247475309096,-0.49831400198163944,-0.23301321933530547,0.450871150499393
61,4.078,0.0,-0.019522366,0.080259223,0.976540493,0.125684148,0.177785693,0.449656164,0.9466776747583789,0.03590288478052418,0.04009032003116889,0.3176556771384758,4.079,1.0,0.157750398,-0.175016953,0.950933162,0.336764506,0.183339241,0.055708986,0.9886610654468638,-0.10505209047207525,-0.0971696550616525,-0.04551279042333657,4.079,2.0,0.025508881,-0.189644128,0.961635275,0.258923786,-0.004916624,0.434221781,0.9748652882692681,-0.0989062145317661,0.01370608780946729,-0.1991666980487262,4.079,3.0,-0.06471078,-0.002679005,0.978304318,-0.814065867,-0.579882546,2.392604731,0.9301960375388237,-0.020842552429749226,0.029713095097109822,0.3652643586979629,4.079,4.0,-0.025630277,-0.002861318,0.979451327,-0.940153881,0.170033138,2.449915472,0.8840023513343708,-0.03534460859774034,0.039594275982096035,0.4644597881279174,4.099,5.0,0.000274878,-0.142370431,0.968636457,3.497077357,-0.563432982,-0.547043301,0.675066212654513,-0.10404396177582173,0.13156641698029684,0.7184363162266019,4.099,6.0,0.087625894,-0.776288669,0.592591433,-4.756017343,0.200133771,3.705693123,0.2514176331700022,-0.3714266873545258,-0.583526959495153,0.6769990230379801,4.099,7.0,0.086388642,0.104662849,0.970515168,-0.085502261,0.523119363,-1.122194815,0.9275945763451642,0.2555900962978666,-0.2718314270491386,0.018699729353957133,4.099,8.0,-0.009962805,0.192573476,0.959386366,-3.054227658,1.553924748,-2.875318945,-0.7128971837804663,-0.35760348369190104,-0.38576224896825845,0.4637724022408492
62,4.138,0.0,-0.040660373,0.082681954,0.975979215,-0.010840061,0.370332098,0.660012136,0.9349890437252717,0.030576608420356866,0.05550996240786986,0.3489687711023539,4.138,1.0,0.117557901,-0.15015451,0.961488826,0.701223497,0.552347962,1.699506287,0.9946331648812218,-0.07407723728986645,-0.06047789684356775,0.03949498990054416,4.138,2.0,0.035376611,-0.162005153,0.964587386,0.686373388,-0.659117423,2.019260376,0.9929505595015281,-0.0679660436894759,-0.020516328134153612,-0.09491513878562413,4.139,3.0,-0.029574116,-0.025520931,0.979117487,-0.362872343,0.072986165,0.869018984,0.9131863418065551,-0.037109334309223724,0.02600501352441071,0.4050152364006604,4.139,4.0,-0.021060954,-0.046092066,0.9779601,-0.432317436,-0.137337659,1.331153727,0.8517183200262666,-0.046914754917565527,0.022827476672984955,0.5213960255040344,4.188,5.0,0.04700667,0.150368889,0.967283604,4.85454027,-0.847092439,-1.139579256,0.7438979874446755,0.11698376454961494,0.26894518129389855,0.600499019621476,4.188,6.0,0.056948262,-0.8275741,0.52083011,1.93953973,-1.093353724,-0.607430445,0.2904923861622058,-0.27170906047914495,-0.5319265493064103,0.7475576942138336,4.189,7.0,0.054070566,0.094309163,0.974302394,-0.08576825,0.58462294,-1.097849325,0.9462679012735904,0.2464540329018213,-0.20770559986255538,-0.02637901574051823,4.189,8.0,-0.080815959,0.100315508,0.971398775,-0.237123121,-0.239336009,-1.768357237,-0.7000698495535658,-0.2878375079578493,-0.38005954027608635,0.5316074873473781
63,4.212,0.0,-0.044194323,0.082259171,0.97540263,-0.051082484,0.008298325,0.938741984,0.917997602841909,0.030763816154843332,0.05158033178266194,0.3920120638007082,4.213,1.0,0.100894792,-0.112758164,0.967220677,0.894197931,-0.264119644,1.813035633,0.9883455788310819,-0.03259557391236587,-0.0678329576553666,0.1323224668078037,4.213,2.0,0.048416552,-0.10840482,0.971655923,0.973347385,-0.186604758,0.659476697,0.9974333904059821,-0.01981555936038315,-0.033626122783749775,-0.060027153663943365,4.213,3.0,-0.064623394,-0.072865798,0.975510324,-0.929716127,0.187796397,1.320551882,0.882647586839257,-0.08113015471480826,0.01973129484519374,0.4625600625286619,4.213,4.0,-0.027570298,-0.108618393,0.97347826,-0.805681593,-0.432084151,1.230047384,0.8174753469194038,-0.06783272142000227,-0.015536118776384488,0.5717441806412398,4.252,5.0,0.021501927,0.222245557,0.954159096,1.869835545,-0.989781348,0.017109426,0.7479186884685317,0.21462109760430328,0.2676413863035292,0.5682635904579495,4.252,6.0,0.032788318,-0.8575327,0.473083074,-0.823028756,-0.806116789,0.826810549,0.23314661560116223,-0.2660147363022703,-0.5565837044272149,0.7517269422269206,4.252,7.0,0.020834243,0.079446203,0.976409358,0.033768413,0.315578645,0.65761366,0.9578491015043301,0.22240553129874427,-0.18163899192560765,0.008255604600489658,4.253,8.0,-0.066134683,0.072937595,0.975260125,-0.671902971,-0.594100644,6.336759621,-0.8815295424255694,-0.3347542291204009,-0.217805879988959,0.25180522345497053
64,4.289,0.0,-0.038164951,0.088634643,0.975397527,0.0677557,-0.042012254,0.684663864,0.9042667703128853,0.03672709439432429,0.04816726970062379,0.4226495507803614,4.289,1.0,0.096015577,-0.057693187,0.973931982,1.213339012,0.264143019,1.126026523,0.9803904492859956,0.02243024638318479,-0.04638652119735895,0.19020973068484234,4.289,2.0,0.033517643,-0.050675701,0.976887681,1.172561925,-0.185027652,1.792364989,0.9977517492218247,0.03454395369929519,-0.04745163858354716,0.03234971689746725,4.29,3.0,-0.082851054,-0.134338602,0.967273406,-1.371771143,0.184839013,2.082648664,0.8258701518602267,-0.13961407191560976,0.00887837795880928,0.5462303338284407,4.29,4.0,0.00638346,-0.146965002,0.968715923,-0.672750232,-1.121461598,3.431659922,0.7144275734918579,-0.061468189729537895,-0.06689554341603209,0.6937866315784581,4.324,5.0,0.096137122,0.372587113,0.901471296,1.331539328,0.078505666,-0.146085057,0.7389555311158961,0.2568655099052173,0.29240372363143285,0.5499680856748227,4.325,6.0,0.065743712,-0.808478254,0.550746472,3.351786117,-0.732527962,-1.092975755,0.3103789526847872,-0.14426871020723828,-0.44418517537787566,0.8279800571028025,4.325,7.0,-0.006993723,0.022974959,0.980097566,-1.145197429,0.740459479,-0.871656923,0.9801813851771326,0.15285806470145186,-0.12075437328225508,-0.036017295028551034,4.325,8.0,-0.037928567,0.036456648,0.978659459,-0.352760216,-0.540246962,-0.519253937,-0.8987397952572387,-0.278939782877112,-0.18694218138106677,0.2819787204204149
65,4.377,0.0,-0.037250455,0.087613218,0.975744499,-0.00025965,-0.105403862,0.50477942,0.8937215795597924,0.0397336942714743,0.041250062408827476,0.4449510131688193,4.378,1.0,0.068116534,0.017754761,0.977706963,1.250127017,0.188096925,2.161445568,0.9521942541596087,0.07435921464590486,-0.03197973846174792,0.2945744487741405,4.378,2.0,0.029954287,0.032671825,0.979435701,1.23803557,0.06724829,1.206940467,0.9903012584200132,0.09103092582663336,-0.044197149202263475,0.09520189135346838,4.378,3.0,-0.108475621,-0.196931108,0.953289137,-1.013110759,-0.234070962,2.15207025,0.7592841421547046,-0.16814790919403363,-0.011172646732401054,0.6285610901663118,4.378,4.0,0.038489178,-0.191198451,0.959962361,-0.598829724,-0.969763739,3.165115787,0.6009576341666495,-0.055934607721698205,-0.1095482829900295,0.7897597199717009,4.398,5.0,0.10221036,0.466346838,0.855621218,0.786017758,0.175493431,0.733854861,0.7088078403290252,0.2884160582870031,0.2926863392518526,0.5733605581356644,4.398,6.0,0.134560083,-0.594422174,0.767756383,5.556946832,0.343547958,-0.897705234,0.41093383959617735,-0.017722875595489334,-0.2017836295035198,0.8888771827534759,4.398,7.0,-0.040316198,-0.122993884,0.971058242,-2.527790412,0.01796767,-0.115828554,0.9934042057468202,0.005806050356929534,-0.10027465435923573,-0.05531154921820398,4.399,8.0,-0.025244618,-0.016168768,0.979956775,-0.751037756,-0.07162914,-0.972820795,-0.9042561557456054,-0.2090531395771831,-0.18862162277386074,0.32099762156635614
66,4.443,0.0,-0.035789538,0.085760529,0.975086273,0.002475237,-0.122757005,0.524957338,0.8821606632075328,0.04279471148261788,0.03422517865481505,0.4677497344781838,4.443,1.0,0.073954162,0.073376533,0.974081961,1.014965165,-0.161086204,1.19607886,0.9285612497292642,0.1190930578031729,-0.030932751858033493,0.3501913961633072,4.444,2.0,0.036348187,0.103607613,0.974122308,1.100084192,0.062457819,1.439707425,0.9752690748770321,0.1372651690608506,-0.04262140529001281,0.16790449893406253,4.444,3.0,-0.093136015,-0.224732451,0.949576752,-0.34478104,-0.723161548,0.660907025,0.7360007890935384,-0.15369408123639378,-0.04591151671847343,0.6577028968152709,4.444,4.0,0.048224397,-0.23236896,0.950785504,-0.592135303,-0.23466155,0.761925746,0.5682588246060227,-0.06736867141789425,-0.1371414412054229,0.8085391737404372,4.502,5.0,0.086937437,0.455830978,0.862911931,-0.667586126,-0.130911908,-0.880559592,0.7498027869030043,0.24667633056696528,0.2633501562579797,0.5546109121622138,4.451,6.0,0.186188175,-0.544078968,0.97458506,7.881019967,1.417937895,2.231690837,0.35328856907293293,0.028996890375465288,0.1733149454550536,0.9188625016795846,4.451,7.0,-0.049997228,-0.161270043,0.968372475,-1.877213803,0.67962296,-0.845372809,0.9891172631863783,-0.08953728297893317,-0.051779254021157746,-0.10463758156824698,4.503,8.0,-0.018607158,-0.062184436,0.977040874,-0.672154806,-0.068993797,-1.019921322,-0.901024137343963,-0.14607517043631202,-0.18798479144210356,0.3626006986921542
67,4.472,0.0,-0.028976542,0.081514297,0.97633231,-0.153531179,-0.124705712,0.540560101,0.8699267471617743,0.038668697089276144,0.023985852680662875,0.4910772498386926,4.473,1.0,0.094298488,0.125034645,0.967482885,0.712611502,-0.173054555,0.318212488,0.9185394115773231,0.15013725694990288,-0.02797325318475297,0.3646390688900537,4.473,2.0,0.030226959,0.155932399,0.967076221,0.865488704,0.221200839,1.21847826,0.9582019600683509,0.16848513027110187,-0.030952396890758,0.22913688861773784,4.473,3.0,-0.053104254,-0.236408599,0.949222267,-0.208728277,-0.715212163,-0.200743633,0.7400168855487029,-0.13297791763185865,-0.08199716259047848,0.6541928980447612,4.473,4.0,0.06153954,-0.252064156,0.94560803,-0.271183146,-0.17434442,-1.164031134,0.6137868888951051,-0.05873976605618895,-0.15568033800993838,0.7717376025964029,4.533,5.0,0.126289575,0.427877554,0.873208304,-1.467372492,-1.083157952,-0.327218048,0.792632361004766,0.2108708624625307,0.16606874904756747,0.5474382067796281,4.503,6.0,0.105533458,-0.026002759,0.973658845,5.671172997,0.789926518,-0.01724013,0.34642828933613296,0.09263741080947627,0.43652491767472046,0.825137410808185,4.503,7.0,-0.065776544,-0.217200142,0.953311358,-0.940750117,0.540314557,-0.380199252,0.9828044500802857,-0.13363501369701877,-0.01319219489738494,-0.12674013575175808,4.534,8.0,-0.016354397,-0.115974212,0.972968404,-1.028881613,0.005716121,0.517974426,-0.9208188594031609,-0.08452115908495043,-0.18908200588230165,0.33044938626955184
68,4.566,0.0,-0.013743875,0.068207613,0.977709991,-0.191655075,-0.248863941,0.322824604,0.8626075632522155,0.03572308732839369,0.007886662638456306,0.5045491585606205,4.566,1.0,0.097195099,0.158258898,0.962214235,0.442353254,0.040927927,0.280203115,0.910837289626455,0.16355440842402272,-0.019204204658966422,0.37849251754085966,4.566,2.0,0.005244898,0.192873442,0.960810765,0.441880636,0.523117743,0.496456191,0.9503090923554681,0.17557494266340382,-0.0003726089301748194,0.2570718375432327,4.566,3.0,-0.01820207,-0.256317117,0.945415898,-0.373040961,-0.459288505,0.243985965,0.7280901122981667,-0.12979405133138328,-0.10913425908467023,0.6641746804167329,4.566,4.0,0.089317821,-0.266244752,0.93887915,-0.090535116,-1.044908333,1.641744063,0.5431342237629304,-0.03293093480843904,-0.1831735973198162,0.8187601613140439,4.593,5.0,0.179666572,0.407494857,0.878815603,-1.108712627,-1.01016653,2.417354472,0.7431682752475873,0.21830415496320602,0.06029123236027975,0.629610338139238,4.534,6.0,0.021175246,0.405650721,0.890833936,2.397673724,-0.097312424,-3.022912862,0.4658862969852417,0.08370943250384484,0.5246119449551673,0.7076192453584202,4.534,7.0,-0.078661187,-0.264765009,0.940405183,-0.809300282,-0.087460121,0.605523985,0.9801370679690726,-0.17381232809971672,-7.905592658540178e-05,-0.09550181330061905,4.593,8.0,-0.014954812,-0.154252095,0.975942439,-1.156898784,-0.14104969,2.178451164,-0.9591203860513398,-0.031324743669034476,-0.18092332135775963,0.21534529779792055
69,4.613,0.0,0.003350373,0.055178505,0.977880416,-0.222138902,-0.30355026,0.298520194,0.8555189736087194,0.03294240442219154,-0.01071506166586061,0.5166113347961546,4.613,1.0,0.08827264,0.173384283,0.960066577,0.087736474,0.110596467,-0.302534325,0.9168663258856584,0.1593666751465668,-0.008901358805183918,0.36589502472851904,4.614,2.0,-0.014948446,0.202387287,0.958883168,-0.060442382,0.245811118,0.697497646,0.9427234556990634,0.161865437506959,0.00815382762796888,0.2915571664536997,4.614,3.0,0.002323951,-0.276470796,0.939802372,-0.251439127,-0.250299672,-0.202094237,0.7322027621520425,-0.1270594021034646,-0.12670604586749337,0.6570240493122412,4.614,4.0,0.138981794,-0.273361477,0.929887931,0.035970282,-0.84318712,0.377342351,0.5206970183909454,0.0004373396592016611,-0.20117939586923142,0.8296995085273301,4.653,5.0,0.121157884,0.380016903,0.895747688,-0.082388447,0.458642369,1.101826122,0.7085026893692844,0.20166381250132043,0.0645448189085625,0.6731935919451286,4.593,6.0,-0.051875989,0.740510711,0.806535039,-1.66232106,-0.828483732,-4.38109493,0.6596693415146748,-0.052289331722782134,0.4150745905541094,0.6243518798961998,4.593,7.0,-0.089827871,-0.314870366,0.926236258,-1.229179368,-0.722798482,1.333648614,0.9718066573964651,-0.2346649333024614,-0.0076106557141293225,-0.02159323129274316,4.653,8.0,-0.022908217,-0.215574675,0.955711658,-1.627041545,0.035898706,0.16000348,-0.9616976724942594,0.05848395070415068,-0.1857795866083552,0.19288120548354998
70,4.681,0.0,0.03107906,0.045738171,0.977879395,-0.109838109,-0.434620854,0.321413425,0.8470633400221239,0.03886309015132022,-0.031671181012457236,0.5291221924165818,4.682,1.0,0.100507757,0.155849128,0.961745933,-0.389345705,-0.252125897,0.979534839,0.9017943709714465,0.13934890868168368,-0.035128260517806424,0.40757183348022225,4.682,2.0,-0.00488736,0.175200723,0.964685348,-0.648503893,-0.208164342,1.11780223,0.9312988272402166,0.12732437006086192,-0.016141027766691216,0.34089656259962,4.682,3.0,0.007456099,-0.285932813,0.936780568,-0.110671457,-0.110415787,0.689092484,0.7085263540319399,-0.12981224214083767,-0.12727692008144317,0.6818649228748731,4.682,4.0,0.165252682,-0.272749683,0.925590709,0.24999158,-0.655026801,1.461010621,0.4545597916932638,0.018125521335950214,-0.20387763521189728,0.8668799058188401,4.683,5.0,0.075530174,0.32968355,0.920276561,-0.942929473,-0.215433529,-1.963470684,0.785797317337742,0.1603354153853757,0.04274454997241862,0.5958087227337834,4.653,6.0,-0.012302693,0.398816285,0.895579262,-0.510496233,-0.423740651,-1.115116279,0.7055756230170765,-0.06309541007708933,0.35751468082707166,0.6085764228298572,4.653,7.0,-0.079008534,-0.313139999,0.924011901,-0.827174174,0.050823044,-0.233419882,0.9631051770597059,-0.26712118667901114,-0.0023515684096285273,-0.032698007187046255,4.684,8.0,-0.037281355,-0.362575135,0.909730384,-3.114717784,0.748828698,-0.118943783,-0.9343820789180631,0.2089586822626669,-0.23457321574467435,0.16805298616511047
71,4.771,0.0,0.069729681,0.047298834,0.975712863,0.078538708,-0.496567497,0.279881518,0.8386476378485235,0.05488621151958607,-0.04976418448314554,0.5396120544046866,4.772,1.0,0.134844904,0.115986892,0.963467121,-0.48139912,-0.267268883,1.200874638,0.8795529708593262,0.11579804212865132,-0.06393411306654564,0.45704465217098733,4.772,2.0,0.051337931,0.127477105,0.970178336,-0.680287328,-0.853494704,1.731616281,0.9028363295786362,0.10371931830691826,-0.0738551684353893,0.410699743241099,4.772,3.0,0.005580144,-0.280365989,0.939328363,0.475628632,-0.384046835,0.88284917,0.6794429130025844,-0.10350996790297506,-0.11702075101792384,0.7169024747805579,4.772,4.0,0.164196272,-0.271221404,0.926331223,0.351278135,-0.124068577,0.930653742,0.41325715586236733,0.02036135951596794,-0.18842261230457052,0.8906743834530833,4.762,5.0,0.087169741,0.339497764,0.915061039,-0.042970262,0.005608333,0.241801261,0.7789639288700912,0.15976591184658157,0.04243582742545931,0.6048878007381358,4.683,6.0,-0.034541279,0.389490679,0.899111735,-0.909745395,-0.818641997,-2.228316375,0.7869746616541391,-0.0954145929390319,0.26711179518167866,0.5479217336841579,4.683,7.0,-0.078659691,-0.336142284,0.9177053,0.013792819,0.040076977,-0.21127688,0.9654489736596142,-0.25714555725647126,0.0014791018894322438,-0.04221674905126258,4.762,8.0,-0.134266108,-0.651179473,0.720282518,-5.548143124,1.542592251,0.24331267,-0.8336555055944087,0.42996883820116866,-0.3334677063014644,0.09457581626456281
72,4.814,0.0,0.091825635,0.046948579,0.974086179,-0.091358305,-0.32914179,0.438350168,0.8263270983602038,0.057956671299515664,-0.06479949413674059,0.5564400923074364,4.814,1.0,0.142130724,0.070982046,0.966855422,-0.821996986,0.067214489,0.551720337,0.8718118828574404,0.07164236308767152,-0.08010987633834259,0.4779056605992803,4.815,2.0,0.073366531,0.080080362,0.97445497,-0.825007714,0.342575301,-0.16092143,0.91186732603856,0.05450757388235854,-0.06899809328988638,0.40095656524754114,4.815,3.0,0.032584948,-0.216101851,0.95538642,1.186763687,-0.251802677,-0.659946893,0.708622358545053,-0.044571276278667436,-0.08240805935963365,0.6993401647649848,4.815,4.0,0.146488432,-0.218841548,0.944213703,0.922329931,0.392049491,-0.562425226,0.44214314218425,0.028792109657190142,-0.13256774933926935,0.8866263294511658,4.833,5.0,0.087213019,0.309866989,0.925357411,0.074849037,0.060169728,1.510607222,0.732385677611185,0.16325882018421184,0.036442000511617646,0.6600225431458957,4.762,6.0,-0.009241883,0.28778446,0.936805045,-1.592213854,-0.349922921,1.184201958,0.7529446265702984,-0.11012077999844665,0.20162265238850105,0.6166815297828153,4.762,7.0,-0.089208906,-0.263122664,0.939381304,2.365969739,-0.065097419,1.409976701,0.9917019572085897,-0.1249351025214256,0.006722305638560223,0.02955095317439344,4.834,8.0,-0.109597918,-0.909518867,0.348662769,-2.131310734,1.152870078,-1.840260837,-0.7556983901143363,0.544543299708382,-0.3221051829570126,0.16923589759131155
73,4.873,0.0,0.106951973,0.053032612,0.972303357,0.297329924,-0.037299523,0.580884411,0.8093284332866699,0.06861536872706984,-0.056625110312768824,0.5805798955615491,4.873,1.0,0.143453535,0.019580267,0.969521375,-0.667108554,-0.249615321,-0.043746429,0.8742164297286681,0.04584268160388705,-0.10475943094861197,0.47187873883355735,4.873,2.0,0.042906721,0.027030105,0.978798951,-0.755370922,-0.145799023,0.063956985,0.9122200467673544,0.019439094969993027,-0.08539008720628422,0.40023148410565695,4.873,3.0,0.025999549,-0.121413395,0.97168761,1.475575922,0.437935974,-0.830131391,0.7428291083731492,-0.0005868488719032328,-0.01159850089246707,0.6693803449004169,4.874,4.0,0.114369071,-0.139265589,0.963733268,1.333325903,1.067575464,-1.806288897,0.529858944592691,0.028209843099549527,-0.03844773025638017,0.8467440437496746,4.886,5.0,0.090720179,-1.950758806,1.781945827,-78.96439999,-84.01288085,-87.561585,0.014129511643380029,-0.047552923992918834,-0.275484360582286,-0.9600247097835619,4.833,6.0,0.055575732,0.145565902,0.967145752,-1.492746161,-0.207181309,5.708648331,0.5756489900502445,-0.07212720013139678,0.15860648908773822,0.7989179487748413,4.834,7.0,-0.072512208,-0.066550715,0.975251753,2.950188453,-1.016360995,1.276334043,0.993844988940323,0.03442003867787947,-0.03902421975439738,0.0977983086161692,4.886,8.0,0.302622089,-5.666971607,-0.745525099,-41.09137171,24.1213481,85.32464798,0.004823001550410385,-0.12897846131561588,0.476010581045264,0.8699167902194157
74,4.985,0.0,0.102066252,0.062515848,0.972748297,0.192785649,0.176108804,0.682853359,0.7894951190415133,0.06792720386350518,-0.04318136193585369,0.6084560148164181,4.985,1.0,0.153802941,-0.017654579,0.967410446,-0.521864129,-0.12475518,0.338569437,0.8669175755687243,0.022748086967443668,-0.11975334474242737,0.4833172644675214,4.985,2.0,0.075855622,-0.010920519,0.977032582,-0.462315022,-0.417205842,0.214546174,0.9067494714998996,0.005003575046198873,-0.10885937347866345,0.4073450588594917,4.985,3.0,-0.002570079,-0.046587047,0.979089905,1.107180157,0.780928519,-1.943903555,0.8070035289205011,0.017228131551683477,0.0583277886098278,0.5874064732950968,4.985,4.0,0.068693002,-0.060168174,0.97570388,1.213024976,0.995634771,-1.974152062,0.6150610469028538,0.025546502813747464,0.045534626432525586,0.7867489323617816,4.938,5.0,0.10354696,0.29551781,0.928865034,-0.563404904,0.54230653,1.322409942,0.08473395798722283,-0.04342052693379348,-0.2321732759135364,-0.96800329759572,4.938,6.0,0.080559767,0.066159943,0.9742515,-0.927016128,0.685665913,5.024713696,0.3740068298101895,-0.06460487426814382,0.14164354992415776,0.9142659384670369,4.938,7.0,0.01694256,0.057900506,0.978033476,0.500026264,-1.419325401,1.297501053,0.9794703754794409,0.06272588315265205,-0.10670702137526981,0.15911272334449122,4.939,8.0,-0.038558411,-0.876408034,0.436081652,1.646799154,-2.75956436,-0.042878568,0.09090787158032812,-0.008473715089265236,0.5042238702351882,0.8587329292174422
75,5.054,0.0,0.091016263,0.069358618,0.973020772,0.258891922,0.275859925,0.699151826,0.768049527368734,0.06679838349248271,-0.024317105880100512,0.6364326970175805,5.054,1.0,0.15967353,-0.047541851,0.966275911,-0.505420701,-0.058463679,-0.65025513,0.8828019885880314,0.0053320786640114765,-0.13061105073986348,0.45119061526894233,5.054,2.0,0.072638739,-0.033424325,0.975923372,-0.4723581,0.122773531,-0.677367107,0.9213867558559093,-0.016073881242555748,-0.10643676362362886,0.3734424879743206,5.054,3.0,-0.031304213,0.032358045,0.978941777,1.072289612,0.255247163,0.191000205,0.7996248998795943,0.051853804054725075,0.09595265436861147,0.5905118886332612,5.055,4.0,0.04528803,0.03891236,0.978204898,1.313404007,0.298078992,-0.040619989,0.6145984914022213,0.0545898076097008,0.10210966336430274,0.780296266759542,5.013,5.0,0.077267162,0.288977075,0.932684853,0.186142873,0.288258365,0.505374465,0.11312692953533782,-0.03288289820421675,-0.23086988152682672,-0.9658261285673457,5.014,6.0,0.088380214,0.033755433,0.975588801,0.424255836,-0.433981536,-5.806035234,0.6565420453187955,-0.06482393700976029,0.11274977527713616,0.7429925222329783,5.014,7.0,0.065153723,0.098255571,0.971938185,0.862120863,-0.222615702,1.233774823,0.964040781452644,0.09854195961949015,-0.10837524596760935,0.22174232783117076,5.014,8.0,-0.026329526,-0.891420697,0.405897644,0.874414849,-1.704257871,1.497469932,0.07598672369279552,0.10162629418306948,0.4966685759202512,0.8586142555574071
76,5.112,0.0,0.071400844,0.088223372,0.973617767,0.334142834,0.353326791,0.916994545,0.7382444086389877,0.06586010996534221,-0.001244910822399828,0.6713092351708478,5.112,1.0,0.166630695,-0.07197043,0.961821433,-0.494019587,-0.009033626,-0.844087049,0.9016337668525555,-0.01113020432628281,-0.1386999179347705,0.40950580189762253,5.113,2.0,0.078763847,-0.074399735,0.973578418,-0.66518291,0.057715326,-0.816863395,0.9358299099658592,-0.04428770297895113,-0.1122914993417626,0.33113682693671953,5.113,3.0,-0.036002991,0.093367254,0.974843239,0.807174373,0.144424193,0.844262544,0.7722438955690728,0.08050644264200146,0.1167583624789199,0.6192944075645074,5.113,4.0,0.035343396,0.103720635,0.973409921,1.04361362,0.325643191,1.397018303,0.5566389965030597,0.07774189588233313,0.1397637802230132,0.8152148863547944,5.093,5.0,0.084440038,0.238923389,0.947113242,-1.328528911,1.126423297,3.433617436,0.295456341649165,-0.03950981429114599,-0.13557586551114334,-0.944861740914974,5.093,6.0,0.106432271,-0.024678423,0.974320865,-0.505587354,-0.32630387,0.869643467,0.6261523399332793,-0.05403105646063998,0.07130455003502022,0.7745511947432071,5.093,7.0,0.060874513,0.146725063,0.966800419,0.662638979,0.311026012,1.654480467,0.9419662329954401,0.11523365309594831,-0.08639483672231381,0.30324371927258037,5.093,8.0,-0.058194152,-0.798744417,0.562603588,3.571402536,-2.855383122,2.598908275,0.01867994330976421,0.2935492164755746,0.5816304032417269,0.7584101734875307
77,5.148,0.0,0.054966187,0.095139258,0.97388718,0.001985462,0.34658459,0.851571447,0.7097455510913812,0.053141708588789506,0.01011991267406692,0.7023779601338053,5.148,1.0,0.163658407,-0.097128814,0.961351091,-0.427137667,0.161627277,-0.276058182,0.9084376003301026,-0.031858777146910995,-0.13632120869236464,0.39388154651600615,5.148,2.0,0.084561388,-0.105440991,0.970780392,-0.492527661,0.053621365,-0.922823802,0.9497588554186224,-0.062509670132158,-0.11524810943052657,0.2841980488437011,5.148,3.0,-0.061121741,0.113389743,0.971081819,0.115479713,0.615670862,0.814853607,0.7437664304441635,0.06527259100036775,0.13500920321859958,0.6514011827243829,5.149,4.0,0.02661369,0.15043269,0.967182877,0.947143012,-0.724737382,0.849654805,0.5244766189858386,0.1361709562676815,0.1455459667517402,0.827766946893043,5.121,5.0,0.050002086,0.094479334,0.973870344,-1.710845447,0.559600819,2.358121069,0.41101507320510233,-0.06230054174836305,-0.02760586394917798,-0.9090781970610033,5.122,6.0,0.112484259,-0.096045089,0.968390227,-1.43162144,-0.326491734,0.975713814,0.587571941456799,-0.07312575289179969,-0.003910653532272196,0.8058514408162624,5.122,7.0,0.081848061,0.156253376,0.964286149,0.035957946,-0.27507249,2.095070326,0.9062409489134481,0.10898013666277712,-0.10265752537461934,0.39536325677707473,5.122,8.0,-0.078987358,-0.559405425,0.8008293,5.527314079,-1.873828189,3.315242137,-0.14055324632518978,0.42581177719166824,0.7077457738834176,0.5459166922731764
78,5.224,0.0,0.038535554,0.088719859,0.975238329,-0.116591434,0.306596216,0.712878895,0.6849253224330848,0.03803454147463413,0.01591652281756596,0.7274457647454874,5.224,1.0,0.155329295,-0.122081982,0.960368575,-0.283321338,0.090564417,0.450252198,0.9000451797740519,-0.04885896900448694,-0.13290056808154982,0.4121515674080524,5.224,2.0,0.094057241,-0.130681531,0.966688457,-0.308729082,-0.281484843,0.81887538,0.9354577097138677,-0.07643808975438385,-0.12468318894012449,0.3217610824312153,5.224,3.0,-0.078296556,0.119432421,0.967997699,-0.124269012,0.57731288,0.514090741,0.7244490463084045,0.04106214230298698,0.1444373697861878,0.6727743499729909,5.224,4.0,0.077430125,0.200090038,0.956099656,0.466968743,-0.244349192,-0.461465752,0.5428687577181345,0.1507370289368325,0.15385048904750398,0.8117277172923872,5.192,5.0,0.036027636,0.003454665,0.977898295,-1.417720712,0.353525985,1.960954592,0.4982335261981012,-0.07979341634680882,0.055873476965798995,-0.8615535494974548,5.193,6.0,0.124565871,-0.15630655,0.959247417,-0.526939515,-0.189087222,1.138230473,0.5411461196739435,-0.07232417215159274,-0.03539888451990107,0.8370645197708283,5.193,7.0,0.109739471,0.124618056,0.966096056,-0.515457465,-0.025728879,1.421664211,0.8806026065530326,0.07655355954361187,-0.11191748343928137,0.45404083379562427,5.193,8.0,0.120314484,0.187979615,0.954619343,5.540852611,-1.652445545,0.925343785,-0.23028010027471915,0.42089909568897693,0.8209122890131264,0.30970637774010396
79,5.279,0.0,0.026050397,0.085626983,0.975983297,-0.038248843,0.215609714,0.534321204,0.6654201386232648,0.029497650668060888,0.021583445286123378,0.7455736600827856,5.279,1.0,0.148011793,-0.136808444,0.958760637,-0.13362707,7.13e-05,0.56752119,0.8883333681371112,-0.056933557411125574,-0.130582471271184,0.43654394428442156,5.285,2.0,0.094363485,-0.144333469,0.965097603,-0.105066978,-0.072290088,0.624268823,0.9249917605698217,-0.08181853835192344,-0.12170634961855065,0.3505474777008441,5.286,3.0,-0.104310876,0.11599212,0.967350024,-0.131883833,0.283046471,0.354405117,0.7116636536216457,0.02614284216099412,0.14319366286464738,0.6872750328893384,5.286,4.0,0.056887163,0.203911643,0.956717771,-0.206595537,0.46177318,0.354964453,0.5276773928150187,0.12274806555464715,0.14733530382221588,0.8275154317365639,5.255,5.0,0.007786119,-0.110926975,0.973625484,-1.463128689,0.236459272,1.521936582,0.5585652174792319,-0.10135209374742142,0.1327541036632484,-0.8124709218648749,5.255,6.0,0.125969393,-0.197205804,0.951547993,-0.540865541,-0.097996697,0.679906075,0.511689679638303,-0.07622860454424091,-0.06614401026200642,0.8532220352917218,5.255,7.0,0.188695862,0.088914443,0.956868901,0.826160003,-0.667238041,1.336459004,0.8422946803873719,0.11956709088368361,-0.12455830018059245,0.5106159143866059,5.255,8.0,0.178785961,0.387386759,0.882342949,1.388116065,1.008386825,3.157878316,-0.36640126201873596,0.5045044537500208,0.7335399103564628,0.27045253049602486
