,timestamp,node,accx,accy,accz,gyrox,gyroy,gyroz,q0,q1,q2,q3,timestamp,node,accx,accy,accz,gyrox,gyroy,gyroz,q0,q1,q2,q3,timestamp,node,accx,accy,accz,gyrox,gyroy,gyroz,q0,q1,q2,q3,timestamp,node,accx,accy,accz,gyrox,gyroy,gyroz,q0,q1,q2,q3,timestamp,node,accx,accy,accz,gyrox,gyroy,gyroz,q0,q1,q2,q3,timestamp,node,accx,accy,accz,gyrox,gyroy,gyroz,q0,q1,q2,q3,timestamp,node,accx,accy,accz,gyrox,gyroy,gyroz,q0,q1,q2,q3,timestamp,node,accx,accy,accz,gyrox,gyroy,gyroz,q0,q1,q2,q3,timestamp,node,accx,accy,accz,gyrox,gyroy,gyroz,q0,q1,q2,q3
0,0.0039999999999054,0.0,8.649231591190035e-17,-5.033800749940007e-17,1.0,-0.0245387955409767,0.0031728234012736,0.0697387414420593,0.9999931547249323,-0.0012269313783085723,0.0001629183166291801,0.003486918452193203,0.0039999999999054,1.0,-9.616372191139564e-17,8.556608347326765e-17,1.0,-0.0001593057806837,0.0043518000166893,0.0672451292775877,0.9999943239538066,-7.96524382283222e-06,0.00021761554697610357,0.003362237379769702,0.0039999999999054,2.0,-7.937874289799709e-17,3.7453103389206884e-17,1.0,-0.0076077785994398,0.0050141378945777,0.0578901319602347,0.9999957068907246,-0.00038038729692074465,0.0002518068519575308,0.002894494590399582,0.0050000000001091,3.0,-3.803538848998751e-17,2.7453221495835895e-18,1.0,0.0172228006562699,0.0065189409262163,0.0165680378190428,0.9999992332059764,0.0008611393724964646,0.0003252334268920204,0.0008284018700495422,0.0050000000001091,4.0,-1.1714653847140832e-16,-1.3073472237459574e-16,1.0,0.011024611670809,-0.0170813618657649,0.0777856396689559,0.9999919183591414,0.000551226128692837,-0.0008562050648677711,0.003889251733436441,0.0650000000000545,5.0,1.6564938867459425e-17,5.150665406317679e-18,1.0,-0.0395273699686614,0.0354789796257885,-0.0036876464863856,0.9999964572029324,-0.001976361496560549,0.0017735782904217444,-0.00018438239129091102,0.0650000000000545,6.0,6.254150528111399e-18,5.51645341553414e-17,1.0,0.0097087724793,0.0139819986002619,0.0190279743258986,0.9999991855481077,0.0004854382285985969,0.0006986375153223047,0.0009513981656239957,0.0659999999998035,7.0,6.601621398820402e-17,-3.5752116630130096e-17,1.0000000000000002,0.0001086370210564,0.0179348288857428,-0.0081606050080198,0.9999995146666616,5.431848416559808e-06,0.0008967432254270873,-0.0004080300523823453,0.0,8.0,7.369565303095643e-19,4.2201209622836965e-17,1.0,-0.0111278290267814,-0.006436810260967,0.0318032313721279,0.9999985294035302,-0.0005563906331117638,-0.0003209552887489208,0.0015901597223882998
1,0.1100000000001273,0.0,0.0010756415913847,-0.0027231351148823,0.9796812887517616,-0.0348976998047095,0.0005069877342873,0.0870228100923556,0.9999648125744452,-0.0029872153814820643,0.0001235070129941661,0.007838042053792694,0.1109999999998763,1.0,-0.0004115134602307,-0.0008340415489576,0.9793146251493268,-0.0110220936388254,0.0094237380816982,0.0707479659689704,0.9999757793997017,-0.0006017269710065569,0.0006881706639114037,0.006899634754757849,0.1109999999998763,2.0,-0.0020127658018619,-0.0023967873530756,0.9799240808267808,-0.024332175334133,0.0185185676811498,0.0337187582875306,0.9999873059816766,-0.0016837864883717747,0.0012542040140011655,0.004580361433485923,0.1109999999998763,3.0,-0.000794231462678,-0.0006075116831286,0.9802081412261062,0.0064354454235518,0.0102028606243455,0.0435340115043142,0.9999945617161444,0.0010660573694489435,0.0008412833084365695,0.0030053788806695472,0.1109999999998763,4.0,0.0014089536621268,0.000104151131677,0.980109689780751,-0.0007222163558722,-0.0258562857538802,0.111071765850941,0.9999530312021494,0.00046585321433531264,-0.0021379084443863467,0.009441806919197127,0.1370000000001709,5.0,-0.0039782371723407,-0.0049160574239421,0.9805467893009516,-0.0729982219171164,0.0659874892502609,-0.0342889175899565,0.9999691060181647,-0.005681565252723069,0.005089300983050332,-0.001898905214970509,0.1370000000001709,6.0,-0.0009955433942401,7.257315455775113e-05,0.9797958989639052,0.0103631903872603,0.0172760035988928,0.0055892325323234,0.9999975921317951,0.000958081095388113,0.0015436038907292436,0.0012308932752117397,0.1379999999999199,7.0,5.852474176504625e-17,-5.57632038412477e-17,0.9800494885463694,0.0038034240899889,0.0085560263433501,0.0192389682311976,0.9999990653305838,0.0001960968640486579,0.0012346032199288994,0.0005537498244999799,0.0659999999998035,8.0,-0.0009902105422057,8.015591819030582e-05,0.9802311018622654,-0.0002570168796482,-0.0011844428479522,0.0077677481896772,0.9999978684862565,-0.0005096246395406054,-0.0002973889166765052,0.001978601906104844
2,0.1390000000001237,0.0,0.0003215478465052,-0.0048235667574508,0.9795415406253676,-0.0482180591816233,0.0004402576779203,0.0824711944736224,0.9999141688453821,-0.005344899233152082,0.00011796839975603552,0.011961315893025409,0.1399999999998726,1.0,-0.0008230269204614,-0.0016680830979152,0.978947159005769,-0.013802468883237,0.0077450281358242,0.1014199670189798,0.9999269348357991,-0.0013162860033108126,0.0010499297445737137,0.01197038130438472,0.1399999999998726,2.0,-0.0036635067723355,-0.0038861107639822,0.979685396880682,-0.0247139795750068,0.0284843250620533,0.0377927173306917,0.9999709595950448,-0.0029544045161990634,0.002738936901348067,0.006469133262689895,0.1399999999998726,3.0,-0.000794231462678,-0.0006075116831286,0.9802081412261062,0.0091929472199655,-0.0022266575137566,0.0479482732355915,0.9999842075061856,0.0013903312900905957,0.0006842903267901483,0.005402172144493437,0.1399999999998726,4.0,0.0021740977547487,-0.0004773061607811,0.9798331722685152,0.0034053740595504,0.0065917615838192,0.0346951456584811,0.9999359245455917,0.0005593978008154657,-0.0017050790908880386,0.011177056076941378,0.1649999999999636,5.0,-0.009099909836171,-0.0113804670223793,0.9785518262265552,-0.0844565405687513,0.0757688301367588,-0.011020929197968,0.9999088248811507,-0.009911930797838949,0.0088369763618988,-0.0024501839592703783,0.1649999999999636,6.0,-0.0009955433942401,7.257315455775113e-05,0.9797958989639052,0.003606623046226,0.0155004753035615,0.0061646340009897,0.9999958150290279,0.0010457662461362505,0.0022149717751465572,0.0015395445508434218,0.1649999999999636,7.0,5.852474176504625e-17,-5.57632038412477e-17,0.9800494885463694,0.0120182017924213,0.0110168706599486,0.0475713550404224,0.9999940198589422,0.0007800247479346665,0.0016604575528939322,0.002931669909971049,0.1379999999999199,8.0,-0.0019804210844115,0.0001603118363805,0.980345373953712,0.0037807959380323,0.003299983561872,0.02128317773279,0.9999953363493694,-0.00026228976820081066,-9.766704507938692e-07,0.003042775482218128
3,0.2309999999997671,0.0,-0.0007819308571509,-0.0072154069002285,0.9785112807154542,-0.0292966800043043,0.0135231992465217,0.0572428955120098,0.9998677193521852,-0.006651917645409855,0.000819299190172473,0.014819734745781025,0.2309999999997671,1.0,-0.0017225271244012,-0.0012314681021962,0.9789634908343716,0.0079240921472563,0.0125137969337019,0.1018876176300509,0.9998526676941577,-0.0008545848268740299,0.0016668358086042129,0.01706265653516153,0.2309999999997671,2.0,-0.0045901980800327,-0.0035605062905507,0.9798730799835972,0.003173713293824,0.0088444273985571,0.1100586693702092,0.9999198088533037,-0.002671232345952669,0.0031559561993880878,0.011969975814266929,0.2309999999997671,3.0,0.0005498639378638,-0.0007264792291857,0.9797847569122408,-0.0040160436521699,-0.0049268432982857,0.0244991437056369,0.9999774684967804,0.0010157488451321005,0.00033893574152875117,0.006626905432979706,0.2319999999999709,4.0,0.0014089536621268,0.000104151131677,0.980109689780751,-2.843577333155896e-05,0.003346891640446,0.028229719458508,0.9999195976856573,0.0005038758210013907,-0.0014397805917595425,0.012588538642665008,0.2829999999999018,5.0,-0.0127179683865092,-0.0153663770374781,0.9787007345132942,-0.0535551104554955,0.0451486687192365,0.0022172873447779,0.9998616101866648,-0.012374897025781302,0.01086986280268764,-0.0023384783903808762,0.2840000000001055,6.0,-0.0009277256801943,0.0010672506657921,0.9797183270211284,0.0031074622843314,0.0204700692665563,0.0267025472892461,0.9999905106051049,0.0011523361927897125,0.003063098160082142,0.0028754566076015157,0.2840000000001055,7.0,-0.0013150819674052,0.0004697083084285,0.9802729466498216,-0.0111012809417757,0.0186342082690621,-0.0068698389226033,0.9999935281369972,0.00016742092433946884,0.0024916928763180227,0.002589810990189328,0.1649999999999636,8.0,-0.0030931943180504,0.0001329264440093,0.9794730289699004,-0.0001935992025116,-0.0012566545132407,0.0266960807318413,0.9999903850831112,-0.00023924574831041205,9.449804959130943e-05,0.004377621833985607
4,0.280999999999949,0.0,-0.0011866396432536,-0.0090244300425878,0.9792620443725792,-0.0316766381026098,0.0234171200327441,0.0537630441905767,0.9998125457172067,-0.008046997942639411,0.0019599145192763625,0.017500799572212025,0.280999999999949,1.0,-0.002622027328341,-0.0007948531064772,0.9789798226629742,0.018272064345001,0.019150554221791,0.0989839081786804,0.9997543924131694,9.329618538457146e-05,0.002605756496751024,0.022008093499345606,0.2820000000001528,2.0,-0.0064435806954269,-0.0029092973436876,0.980248446189428,0.0121012429781743,0.0323594127626834,0.0668466465320507,0.9998694204966962,-0.0019602494588075656,0.004798754784090334,0.015305924675820594,0.2820000000001528,3.0,0.0005498639378638,-0.0007264792291857,0.9797847569122408,0.0057787662229601,-0.0082799524230367,0.0540629988260797,0.9999557862048771,0.001169872024472182,-0.00013849008005847844,0.009329408091087642,0.2820000000001528,4.0,0.0007651440926216,-0.0005814572924582,0.9797699099594428,0.0072478780778667,0.0037296752211942,0.0393535293119419,0.9998930844451689,0.0007814847771769146,-0.0011457321403160973,0.014556656832254483,0.3000000000001819,5.0,-0.0152554910708401,-0.0165618448260466,0.9790638259521924,-0.0214484083060365,0.03427671758894,0.0283327169993762,0.9998389859301731,-0.013034062330571687,0.012298311979102508,-0.0009311045863274932,0.3000000000001819,6.0,-0.0018554513603887,0.0021345013315842,0.9797009754023492,-0.0024328193513849,0.0186058761365336,0.0272043757527857,0.9999833510321706,0.0010256171158119535,0.0037803284747787258,0.004237320453445899,0.3000000000001819,7.0,-0.0017387791874232,-0.0008500437084264,0.9805535447249332,-0.0110974963945106,0.0189170990166185,0.0019304503816108,0.9999909221899895,-0.00044997424048371515,0.0032755264963873322,0.0026877475641778593,0.2840000000001055,8.0,-0.0050068211753673,0.0012842024045143,0.9795852604882856,-0.0008614220781249,-0.0017322066860531,-0.0062494927378263,0.9999916858626121,-0.00019361449260949594,0.00025402916014166004,0.004065241476858576
5,0.3649999999997817,0.0,-0.0035681143313458,-0.0095976466416628,0.9792610243132625,-0.0093099047408711,0.0218426645821757,0.0504026536404872,0.9997613447635549,-0.008214986684998586,0.003041917665312566,0.020012852051892457,0.3649999999997817,1.0,-0.0035215275322809,-0.0003582381107581,0.9789961544915768,0.017681212595608,0.015288843131365,0.1055607682201704,0.999621888738566,0.0009423756156693369,0.0033031963507992694,0.02728150246612302,0.3649999999997817,2.0,-0.0076738157872534,-0.000177659249694,0.9800913635924228,0.0150262743314386,0.0268153563186508,0.0797480509149752,0.9997950586526582,-0.0010295049268323078,0.0060662306292642255,0.019286826055259384,0.3649999999997817,3.0,0.0013440954005418,-0.000118967546057,0.9797735346774156,0.0199118617351179,0.0033223645522703,0.0338354915583978,0.9999371781512684,0.0020412007357577425,-2.134286436288278e-05,0.01102146972582879,0.3649999999997817,4.0,0.000643809569505,0.0006856084241352,0.9803862072929868,0.0235697480460481,0.0049517493744376,0.035240089995953,0.9998646726305077,0.0019114813550986905,-0.0008021400348303192,0.01631990305980507,0.372,5.0,-0.0115490295516632,-0.0318014540936387,0.9768240821324712,-0.1159795402459534,0.295473932564288,-0.3039677369656384,0.9993394678580073,-0.019322206649541394,0.026134112384490617,-0.01625695178505924,0.372,6.0,-0.0046603507174179,-0.0096564824941129,0.9807522793636686,0.0560991684803634,0.0280803746234027,-0.1758770703982429,0.9999715500520434,0.003195444709806577,0.005081623717014072,-0.004567857267765385,0.372,7.0,0.0292883657379362,0.0380119057496535,0.978537320010678,0.2959215103929322,-0.0529589514882817,0.6648750709018595,0.9992198238195833,0.016438155589688933,-0.001694810534522894,0.0358700201285433,0.3000000000001819,8.0,-0.0059970317175731,0.0013643583227046,0.9796995325797322,-0.0063153466694844,0.0017639410849338,0.0204050968469025,0.9999867855889868,-0.0004217309327654921,0.0006223070433995779,0.005085619369343144
6,0.3960000000001855,0.0,-0.0037704687243971,-0.0105021582128424,0.9796364061418248,-0.0101177769345592,0.0176059793138281,0.0397585386832314,0.9997151340628296,-0.00845054311353196,0.0038061177199534262,0.02199437461549348,0.3960000000001855,1.0,-0.0049090144799298,0.0013490334296375,0.9793962842923396,0.0280291246813452,0.019469520579198,0.0935078531374984,0.9994778789351213,0.00229974930623282,0.0042256939454885225,0.031950339327752444,0.3960000000001855,2.0,-0.0096281005418563,0.0007390509599613,0.9795079139464036,0.0203047826221044,0.0300562086541557,0.0880992752950963,0.9996915760795921,0.00011434160578395727,0.007473069444036332,0.023683177037356905,0.3969999999999345,3.0,0.0010385989874922,0.001941502595443,0.9805866366006702,0.0297793217060629,0.0189785520256286,0.0244854331593375,0.9999187667840178,0.0034150134662415655,0.00089000875285813,0.012247669189451794,0.3969999999999345,4.0,-0.0002346843271134,0.0029721365767662,0.980380085134044,0.0275653877161158,0.0087949255368394,0.0420020300266093,0.9998250281037017,0.003240860531821473,-0.00025212958523885583,0.01842135801502653,0.44399999999996,5.0,-0.0170726565111661,-0.0158970177969284,0.9795697061591973,0.012656991190223,0.0260813578065979,0.0070488234006515,0.9993886617289433,-0.017524622391878027,0.025705034632943626,-0.015951226039808634,0.44399999999996,6.0,-0.0028509947546288,0.0022070744861419,0.9797611957263472,4.849274247091981e-05,0.0207746589204285,0.0279338708036181,0.9999739236914198,0.0030034632238609385,0.0057529395047401935,-0.0031677804381804397,0.44399999999996,7.0,-0.0028215230460962,-0.0014122310083617,0.9798382747225582,-0.0335953532604363,0.0376440568435462,-0.013625702914927,0.9992954520921049,0.012972462350005855,0.000445389012677615,0.035215284710488765,0.44399999999996,8.0,-0.0069872422597789,0.0014445142408948,0.979813804671179,0.0010419780528933,-0.0042029063027611,-0.026206378351758,0.9999925901954753,-0.0002553084592838555,0.0007067859452784086,0.0037755562984119707
7,0.474999999999909,0.0,-0.005949589019438,-0.0101708632407378,0.9792600042539455,0.0038528118390364,0.0125262700406234,0.0494629905240171,0.9996596842015278,-0.007943114579755236,0.004367748075226004,0.02446110156199054,0.4760000000001128,1.0,-0.0067080148878094,0.0022222634210756,0.9794289479495448,0.0302931448752544,0.027892969863159,0.0571298020219668,0.9993719940913849,0.003653439244050987,0.005580727081730824,0.03480122544880147,0.4760000000001128,2.0,-0.0114814831572506,0.0013902599068244,0.979883280152234,0.0108880951919775,0.0410792415500962,0.0113214189560736,0.9996618219072122,0.0006597522736806821,0.00937888459063178,0.024245475287692407,0.4760000000001128,3.0,0.0007800529886272,0.0022626839841066,0.9796755951734856,0.0344260786088252,0.0165978884242554,0.0378450250852786,0.999886704813126,0.004902099389794051,0.0016042213248901353,0.014141196323573508,0.4760000000001128,4.0,-0.0009838589814954,0.0044296041563828,0.9788587286368354,0.0240502204258545,0.012194251091139,0.0484809907918268,0.9997731935377974,0.004332460881328993,0.0004487185351865437,0.02084682032401668,0.4499999999998181,5.0,-0.0176210606093265,-0.0146344568735259,0.9798940406467522,0.0232308384675936,0.003427609332044,0.0361615783853213,0.9994889079016809,-0.015294451105995878,0.024226239323392164,-0.014180693745986355,0.4499999999998181,6.0,-0.002783177040583,0.0032017519973762,0.9796836237835704,-0.0045928580078466,0.019158081085798,0.0458963726267015,0.9999764350346666,0.0026535661060234934,0.006271684555879652,-0.000868294369047418,0.4499999999998181,7.0,-0.0056210509385168,-0.0050389441962203,0.979936228959688,-0.0624608064297782,0.0421090276920125,-0.0710437795881932,0.9994603928914122,0.008210947177302284,0.0027019143217815542,0.031689162923516256,0.4499999999998181,8.0,-0.0069872422597789,0.0014445142408948,0.979813804671179,0.0081772636287571,-0.0081212734925276,-0.0089756213693517,0.9999942613064691,0.00025266383510383486,0.0005885307359276668,0.003326732133578889
8,0.5740000000000691,0.0,-0.0077793243557021,-0.009548159768424,0.9797741141495856,0.0055312613593152,0.013155739455309,0.0546742218772182,0.9995906356528699,-0.007373299223238205,0.005000330237932734,0.027188090612766683,0.5749999999998181,1.0,-0.0080955018354583,0.0039295349614713,0.9798290777503076,0.0278590498905219,0.0177974844924023,0.0647208848934863,0.9992445599744137,0.004853107703591502,0.0063644347680729225,0.03802960264373351,0.5749999999998181,2.0,-0.0144633613587593,0.0028980758527037,0.97852869775728,0.0197420811762682,0.0331088652419125,0.0400378098622992,0.9995952929305872,0.0016892180698976588,0.010858647919831039,0.026239029301382555,0.5749999999998181,3.0,-0.0003338533611513,0.0053708147434561,0.9799898177485952,0.0366719047174389,0.0150986004690612,0.0223109761280617,0.9998598969270702,0.006510092184099894,0.0022381980557701804,0.015257643533851086,0.5749999999998181,4.0,-0.0018623528781139,0.0067161323090136,0.978852606477893,0.0285801089275695,0.0115988285440285,0.0313396419961785,0.9997321346344068,0.005657442243464576,0.0011068126761775428,0.022414889968367983,0.5299999999997453,5.0,-0.0181694647074871,-0.0133718959501233,0.9802183751343077,0.0168845020256529,0.0034348764828666,0.0216356405313901,0.999559273580864,-0.013561477119612055,0.022914609339639045,-0.013124999643488004,0.5299999999997453,6.0,-0.0038465381488689,0.0022796476406996,0.979821416050345,0.0025004646926992,0.0056780170508473,0.034494160117892,0.9999774192179686,0.0026407922317847653,0.0061199339110865345,0.0008565509229473517,0.5299999999997453,7.0,-0.0073188511284936,-0.0092725311382296,0.9788434270017088,-0.0500456798819451,0.0054553741213524,-0.0380913121285875,0.9995420673179243,0.004389710731447379,0.00299205725928859,0.029789825358021715,0.5299999999997453,8.0,-0.0069204480326841,0.0024354783650193,0.9796974920066708,0.0042490701941313,-0.0084413439644259,0.0610690921210536,0.9999793823318079,0.0005661639866872437,0.0004601860980856236,0.006379858806541663
9,0.6340000000000146,0.0,-0.0086941920238341,-0.0092368080322671,0.9800311690974056,0.000258267955284,0.0125488941772665,0.0447901337945761,0.9995262167932509,-0.007112032265977719,0.005574275715990776,0.02942258299777538,0.6340000000000146,1.0,-0.0094829887831073,0.0056368065018671,0.9802292075510708,0.0317866631715283,0.0140447410173208,0.0393923933400354,0.9991564508813505,0.006210538001013454,0.006972114644515781,0.039990067483125655,0.6340000000000146,2.0,-0.0163167439741536,0.0035492847995668,0.9789040639631106,0.0262837733941988,0.0256368423970498,0.0099758944652411,0.9995672756389938,0.0029650335277949997,0.0119248668393362,0.02672578527720211,0.6349999999997635,3.0,-0.0011422632978802,0.0064184753613054,0.9794909384004504,0.022767349443855,0.0257946488490351,0.0060808943723468,0.9998464082966977,0.007304991990561863,0.0033823635949994236,0.015567804107271063,0.6349999999997635,4.0,-0.0026274969707358,0.0072975896014718,0.9791291239901287,0.0171207671794143,-0.0037316174219602,0.0552212042835382,0.9996626615767246,0.00632422584044674,0.0009538234416605357,0.025172553261448256,0.5709999999999127,5.0,-0.0176606465872245,-0.0113556298108407,0.9793963197979252,0.0236678435182102,-0.002145544332379,-0.0156659112126304,0.9996064491351202,-0.011609681270710602,0.021400602749558188,-0.013934717443297896,0.5709999999999127,6.0,-0.0038465381488689,0.0022796476406996,0.979821416050345,0.0020523305581471,0.0069856350421158,0.0081204645658465,0.9999775108879926,0.0025976769448766914,0.006052643025888547,0.0012630538966788088,0.5709999999999127,7.0,-0.0077425483485116,-0.0105922831550846,0.97912402507682,-0.0073139626242082,0.018529096842314,0.010172618699112,0.9995283795596152,0.0030068195392049905,0.003985526492983038,0.030300050656098376,0.5709999999999127,8.0,-0.0079106585748899,0.0025156342832095,0.9798117640981177,0.0029009979117578,-0.0033650228560487,6.410649339272041e-06,0.9999791311242817,0.0007814604984346538,0.0006513251405872034,0.006379844118543431
10,0.7100000000000364,0.0,-0.0096090596919662,-0.0089254562961101,0.9802882240452256,0.0007849149666062,0.0024870587779444,0.0208292584263986,0.9994967268607119,-0.006828905054492004,0.005625877372191949,0.03046323282702092,0.7100000000000364,1.0,-0.0094126422615144,0.0080787612338728,0.98005057817573,0.0300324181901819,0.0202174532791864,0.0449202907918162,0.9990494725111179,0.007457523444635866,0.007824395062790264,0.04222932229187476,0.7100000000000364,2.0,-0.0174460769267714,0.0060154216307681,0.9797057972179554,0.0287069268145596,0.0029688666631726,0.0556865196094111,0.9994855336955872,0.004415412081608342,0.011804927681813036,0.029492638943024296,0.7100000000000364,3.0,-0.0030504011103368,0.0089190944375263,0.9798163832103852,0.0191421362154468,0.0091882624367017,0.0169643972484254,0.9998266474928711,0.00797980331833882,0.0036743203932950367,0.01641636597466958,0.7100000000000364,4.0,-0.0033926410633576,0.00787904689393,0.9794056415023644,-0.0045067627369953,0.0224946411926342,0.0109204352019983,0.9996496944048532,0.005836490675153058,0.0021571783144559366,0.025724899117435356,0.6449999999999818,5.0,-0.0176606465872245,-0.0113556298108407,0.9793963197979252,-0.0100164760019343,0.0114547951797052,-0.0082528802086218,0.9996155314426001,-0.011517339280427983,0.0207450398845094,-0.014345156493329798,0.6449999999999818,6.0,-0.002783177040583,0.0032017519973762,0.9796836237835704,0.0086251583306618,0.0047528735368651,0.0122362774240712,0.9999769640441001,0.002935789383408088,0.005826026611460907,0.001873482255933571,0.6449999999999818,7.0,-0.0086119379422232,-0.0110173050092978,0.979376053166102,-0.0173476024903459,0.0056187624171076,-0.011585551662922,0.9995483297551492,0.001252880389571889,0.004264633151949647,0.02972170382901973,0.6460000000001855,8.0,-0.0079106585748899,0.0025156342832095,0.9798117640981177,-0.0058262244686642,-0.0059810029861656,0.0102207119299125,0.9999758760951852,0.0005400437491503244,0.0006894944319448974,0.006890586175650896
11,0.7390000000000327,0.0,-0.009958444650743,-0.0092168647963193,0.9793977122617064,-0.0106315710244591,0.0027588254795642,0.0009165187047343,0.9994925779227377,-0.007167045192170081,0.00567908462486858,0.030511770489387687,0.7390000000000327,1.0,-0.011211642669394,0.0089519912253108,0.9800832418329352,0.0070187963534385,0.0169381386850294,-0.002133199396939,0.9990483834671947,0.007457887762732147,0.00849437583863019,0.04212544339013722,0.7399999999997817,2.0,-0.0181701265895479,0.0042004937464299,0.9792794301689411,0.0002668042346742,0.0020909282263232,0.0209382339164181,0.9994568732510715,0.004183492861651278,0.011658467275771627,0.03053746943425066,0.7399999999997817,3.0,-0.0030504011103368,0.0089190944375263,0.9798163832103852,-0.001053299620921,-0.0021212233059913,-0.0027478071492505,0.9998330780648236,0.007582916983015914,0.0033641341821474533,0.01627875851081325,0.7399999999997817,4.0,-0.0033926410633576,0.00787904689393,0.9794056415023644,-0.0002183298361702,0.0259838113982139,-0.0710220968608364,0.9997323454523742,0.005598427125133128,0.003443369048094087,0.022181935885270076,0.7339999999999236,5.0,-0.0178092860854846,-0.0124417485412799,0.9802897695183608,-0.0248418962682777,0.0128718572369718,0.0187426288159654,0.9996305824427535,-0.012200046732591584,0.020260593019994753,-0.013392754584558946,0.7350000000001273,6.0,-0.002783177040583,0.0032017519973762,0.9796836237835704,-0.0022598289482385,0.0052063810530676,0.0085351811661731,0.9999777883921189,0.002694363201050332,0.005644736013763361,0.002302191278341866,0.7350000000001273,7.0,-0.0086119379422232,-0.0110173050092978,0.979376053166102,0.0133998234038634,0.000634222816843,0.0002023055012463,0.9995480345500589,0.0012211736674408282,0.004312515443282453,0.029726041992496195,0.7350000000001273,8.0,-0.0079106585748899,0.0025156342832095,0.9798117640981177,-0.0040437771547623,-0.0104727778324296,0.0104888907606054,0.9999723000688036,0.0004134112820437896,0.0004998541745895919,0.007414737488454996
12,0.8460000000000036,0.0,-0.0101607990437943,-0.010121376367499,0.9797730940902688,-0.0161592615615658,0.003191035916978,0.0017678769887358,0.9994846572682564,-0.007794313181504684,0.005749166459792854,0.030604177041745104,0.8460000000000036,1.0,-0.0125226563335645,0.0085545646720722,0.97973210751798,-0.0097663142252013,0.010561051809271,-0.0187331036401319,0.9990903608431683,0.006603252383170261,0.008814961476863717,0.041196412251473497,0.8460000000000036,2.0,-0.0200235092049422,0.0048517026932931,0.9796547963747718,-0.0174747416271571,0.0202725280212571,-0.0517070926520705,0.99952587875371,0.0030469752117315793,0.012515781985609016,0.027965851407954177,0.8469999999997526,3.0,-0.002241991173608,0.0078714338196769,0.9803152625585302,-0.0105354261325112,-0.0145991307612367,0.0192994635363513,0.9998259535524627,0.0067126260971462565,0.0024037109358402775,0.01724022701491198,0.8469999999997526,4.0,-0.0040364506328628,0.0071934384697947,0.9790658616810564,-0.0176296033378077,-0.0087245489701327,0.0124838555741113,0.999725548637962,0.004531859616974111,0.0028547723907674113,0.022806576322084566,0.8429999999998472,5.0,-0.0181694647074871,-0.0133718959501233,0.9802183751343077,-0.0149652019929527,0.0037585080184306,-0.0028043629439331,0.9996441202190146,-0.012397936536539722,0.019366573436792392,-0.013522570558353887,0.8429999999998472,6.0,-0.0017876336463429,0.0031291788428185,0.9796234034595726,0.0028675728342008,0.0026461315854005,0.0094380092290836,0.9999783624125022,0.002730166993609905,0.005303227686044348,0.0027742874954960286,0.8429999999998472,7.0,-0.0090576303159169,-0.010122574846656,0.9793474831802724,0.0218075178577064,-0.003616227520819,0.0047244389459182,0.9995411413159948,0.0016650770872283836,0.0041794129645810725,0.029954412734742503,0.8429999999998472,8.0,-0.0089008691170957,0.0025957902013998,0.979926036189564,-0.0070121403597185,-0.0122288317228605,0.004326832156823,0.9999708301384593,0.00015518799748828377,0.000290922424716933,0.007630868432127208
13,0.875999999999749,0.0,-0.0101607990437943,-0.010121376367499,0.9797730940902688,-0.0062574089503355,-0.0096155798254166,-0.0065498685212076,0.9994971105995597,-0.00784686845459167,0.00518399972038754,0.030283307373647133,0.875999999999749,1.0,-0.0129341697937952,0.0077205231231145,0.979364641374422,-0.0071704858307614,0.0006621787790073,-0.0172211224073089,0.9991311119167151,0.0059423459799444545,0.008632833080325125,0.0403383678069721,0.875999999999749,2.0,-0.0207475588677187,0.0030367748089549,0.9792284293257576,-0.0058965319814695,-0.003767167168618,0.0006695577679308,0.9995309649707894,0.002578642232273696,0.012130722876698105,0.028000825546567465,0.875999999999749,3.0,-0.002241991173608,0.0078714338196769,0.9803152625585302,-0.0026504938188127,-0.0110887024359075,-0.0102453392665066,0.9998386790642578,0.0063166179991579014,0.001731197024591858,0.01672480615595905,0.875999999999749,4.0,-0.0054454042949899,0.0070892873381176,0.979002599371984,-0.0016144085681743,-0.0143333492865581,0.0098932329345022,0.9997167327621119,0.0043713518245084215,0.0021351114258226934,0.023297785686065258,0.8989999999998872,5.0,-0.0185296433294895,-0.0143020433589667,0.9801469807502544,-0.0108725573215919,0.0006197572938523,-0.0143390277935573,0.999651854462486,-0.012431705224919256,0.018414331494607614,-0.014231478156547942,0.8989999999998872,6.0,-0.0017876336463429,0.0031291788428185,0.9796234034595726,0.0041698330929863,0.0011364970778127,-0.0222806849811239,0.9999825202176458,0.002819032524776475,0.004925136107198582,0.001659924430738231,0.8989999999998872,7.0,-0.0095033226896105,-0.0092278446840142,0.9793189131944432,0.0247202967149647,-0.0011885296900141,-0.0074491521229151,0.9995511928895342,0.002248851564587058,0.004210795843850913,0.029574053799079868,0.8989999999998872,8.0,-0.0079106585748899,0.0025156342832095,0.9798117640981177,-0.0042652751997466,-0.0137589393121013,0.0108745981625182,0.9999665862721393,5.7105042120668345e-05,-2.3117049311911846e-05,0.008174505725737939
14,0.9789999999998144,0.0,-0.0092459313756622,-0.0104327281036559,0.9795160391424488,0.0129177432271944,-0.0134362057946237,-0.0226224162341073,0.9995407830319847,-0.006948648628505458,0.004461369572774263,0.029155368623629354,0.9789999999998144,1.0,-0.0129341697937952,0.0077205231231145,0.979364641374422,-0.0004375422347994,-0.0049268099117447,-0.0206250843980651,0.9991773170729571,0.005694449232778274,0.00820402696479276,0.03930593131301657,0.9789999999998144,2.0,-0.0207475588677187,0.0030367748089549,0.9792284293257576,0.0018408750956588,-0.0051596667320519,-0.0163668687569052,0.9995585475149065,0.002535398035499765,0.011727552146234586,0.027179889023863167,0.9800000000000182,3.0,-0.0011422632978802,0.0064184753613054,0.9794909384004504,-0.006926294380527,-0.0018797272593571,-0.0165135517519309,0.9998563794853296,0.005665446422366958,0.0015267693426835951,0.015899436930220313,0.9800000000000182,4.0,-0.004680260202368,0.0065078300456593,0.9787260818597484,-0.0064289081998019,0.003234876852899,-0.0359527917079015,0.9997583682156789,0.003932026983276613,0.002329655069766639,0.021501559333721783,0.97400000000016,5.0,-0.0185296433294895,-0.0143020433589667,0.9801469807502544,0.0125589536503613,-0.015056158588613,-0.0041020527916716,0.9996914220907628,-0.011291210176898695,0.01676448918252215,-0.014440258769793251,0.974999999999909,6.0,-0.0007920902521028,0.0030566056882608,0.9795631831355746,-0.0009691157882193,0.0020826517730595,-0.0011415395081156,0.9999847407223487,0.0026441748564425497,0.004577523795825728,0.0016040379310455644,0.974999999999909,7.0,-0.0090796254695926,-0.0079080926671593,0.9790383151193316,0.0132928822484555,-0.0090185024997484,0.0050229107945879,0.9995454562504481,0.002285351703389887,0.003809626034758787,0.02981853125408332,0.974999999999909,8.0,-0.0079106585748899,0.0025156342832095,0.9798117640981177,-0.0098567543932071,-0.0105839900846833,0.0167070425461064,0.9999593515647037,-0.0003120525597560155,-0.00014905045305768747,0.009009751686910669
15,1.0210000000001855,0.0,-0.0079400982789547,-0.0071363763896986,0.9801709172237996,0.0528970933672959,-0.0294106375358367,-0.0307286574275736,0.9996061977432109,-0.003949568748297908,0.0030105135578653145,0.027618601488504556,1.0210000000001855,1.0,-0.0130809895988665,0.0073832664847432,0.9802945348654808,-0.0003560553681789,-0.0061374764443408,-0.0478911637785672,0.999273503020486,0.005449638482873214,0.007770709342593904,0.03691048195141839,1.0219999999999343,2.0,-0.0181701265895479,0.0042004937464299,0.9792794301689411,0.0135209603497637,-0.0051864620917653,-0.0516430031023616,0.9996293824946876,0.003123556135163113,0.011255044215813652,0.02458993757739432,1.0219999999999343,3.0,-0.0011422632978802,0.0064184753613054,0.9794909384004504,0.0006673767596077,-0.0114494036155529,0.0028624771728455,0.9998560335135471,0.005468256999190589,0.0008649635421625254,0.016039396809665176,1.0219999999999343,4.0,-0.004680260202368,0.0065078300456593,0.9787260818597484,-0.0018401727107194,-0.0109938397547731,0.0066645267781736,0.9997528678457022,0.0037866722239203073,0.001790078720617094,0.021832543734903884,1.0079999999998108,5.0,-0.0161803461213167,-0.0109138672381523,0.9801796181829644,0.0716535084546235,-0.0536627252498647,0.0174015046303876,0.9997949250573138,-0.007148833231927964,0.01319293499543237,-0.013599576437103236,1.0079999999998108,6.0,-0.0007265608095104,0.0031297479187582,0.9805583495067264,-0.009654474553942,0.0036810015101839,-0.001739386978346,0.9999873106669731,0.002055878676334002,0.004340535743426101,0.0015204003956069726,1.0079999999998108,7.0,-0.0090796254695926,-0.0079080926671593,0.9790383151193316,-0.0118553011481042,0.0071222874773187,-0.0074167405021168,0.9995568672284999,0.0010348092458911254,0.004218763306974617,0.029448266202468914,1.0079999999998108,8.0,-0.0079106585748899,0.0025156342832095,0.9798117640981177,-0.0063602363557621,-0.0126506217953204,0.0011076177469519,0.9999587323085006,-0.00046843000579319035,-0.0003646822027729509,0.009065388033452918
16,1.0700000000001637,0.0,-0.0056640736867893,-0.002633761769748,0.9789274649166864,0.0802021719170111,-0.0387472001661763,-0.0152592886912939,0.9996386890701904,0.00036284667941344657,0.0011692604580518101,0.026851303251421,1.0700000000001637,1.0,-0.0134925030590972,0.0065492249357855,0.979927068721923,0.0026775766176147,0.0140523297161396,-0.0999632130964167,0.9994410662874372,0.0052821116809026085,0.008427340954880952,0.031916049862903126,1.0700000000001637,2.0,-0.0200235092049422,0.0048517026932931,0.9796547963747718,0.0055632500444147,0.0014682964488327,-0.1024795460375532,0.9997419421670182,0.0032521517729575742,0.011253858086419584,0.019463382520385694,1.0700000000001637,3.0,-0.0008837172990152,0.0060972939726418,0.9804019798276352,0.0023774361170633,-0.0170013715504165,0.0255162169583922,0.9998357713971523,0.005365213508457708,-2.6349936668778653e-05,0.01731022889366319,1.070999999999913,4.0,-0.0039151161097461,0.0059263727532011,0.9784495643475124,0.0030804356847248,-0.0200873201825427,0.0665426900240942,0.9996757000319155,0.0038882434380863432,0.0008040703824406147,0.025154120924527623,1.0799999999999272,5.0,-0.0102129903628056,-0.003539781102239,0.9800633473289352,0.127985064160565,-0.0909978490820809,0.0362794207281475,0.9998998185587376,-0.00024648132261017273,0.007760515794062722,-0.011834968853835745,1.081000000000131,6.0,0.0002011648706839,0.0020624972529661,0.9805757011255052,-0.0148518822420954,0.0001579093352152,-0.0109595274779625,0.9999911709696665,0.0012104973069292943,0.0039038203909076384,0.000976148216542947,1.081000000000131,7.0,-0.0095033226896105,-0.0092278446840142,0.9793189131944432,-0.0393990553574736,0.0089379353020402,-0.0218075001365457,0.9995856268427148,-0.0015407520930889498,0.004654981626080002,0.028364270456070196,1.081000000000131,8.0,-0.0069204480326841,0.0024354783650193,0.9796974920066708,-0.0034619380783519,-0.014213488730947,0.0074632423460618,0.9999551078929343,-0.0004672846420737094,-0.0006859584678472039,0.00943892498507353
17,1.130999999999858,0.0,-0.0036041468452023,0.0027630215867778,0.9797220911244316,0.0865777883328834,-0.0460789571748729,-0.0006621082095779,0.9996282875646513,0.004851680725997714,-0.0009467216186448174,0.026811408259780258,1.130999999999858,1.0,-0.014392003263037,0.0069858399315045,0.9799434005505256,0.0059094400825668,0.0075171060782289,-0.0678510263169221,0.9995407074806796,0.005341398894367374,0.008733037863555893,0.028523281658105745,1.1320000000000618,2.0,-0.0200235092049422,0.0048517026932931,0.9796547963747718,0.0118901788680823,-0.010114148110996,-0.0278978249352215,0.9997730099305354,0.0037431026687156656,0.010666078394540542,0.018059694585749665,1.1320000000000618,3.0,0.0012687880382555,0.0049306658087354,0.9804774748619148,0.0092675919246944,-0.0410053860491382,0.084640187959378,0.9997503153644561,0.005579824661186041,-0.002149398994070317,0.021530271001204342,1.1320000000000618,4.0,-0.0032713065402409,0.0066119811773365,0.9787893441688208,0.0081247172410834,-0.0110219230505927,0.0772175441014606,0.9995699951439423,0.00425586967511712,0.000342123237208189,0.02901026254514779,1.1390000000001237,5.0,-0.004794038702455,0.0050968659570766,0.9802714109624612,0.116354019198076,-0.07292663132247,0.0135315763327422,0.9999141929589517,0.005820309375693316,0.0035068671036505316,-0.011199669688737743,1.1390000000001237,6.0,6.781771404575825e-05,0.0009946775112344,0.9796581066971304,-0.0196050046455016,-0.0016296398422574,0.002463003314483,0.9999935044138131,0.00016053446156690827,0.0034275717691432213,0.0011032273723369063,1.139999999999873,7.0,-0.0094813275359349,-0.011442326863511,0.979628081255384,-0.0258710672977641,0.0048784279557314,-0.0117657745214266,0.9995968442625099,-0.0032868093519476224,0.004861808711526635,0.027779644359997215,1.139999999999873,8.0,-0.0069204480326841,0.0024354783650193,0.9796974920066708,0.0079097915156304,-0.0165097422191669,-0.0145733647576854,0.9999614646600462,0.00010416414240749538,-0.0010846679252124684,0.008711018325014563
18,1.2130000000001928,0.0,0.0002855153326487,0.0075371014709898,0.9800026074365368,0.0668979339020188,-0.0383459530841868,0.0217758648663894,0.999574112270992,0.008145117170049026,-0.0026919667372786896,0.027892731293822887,1.2130000000001928,1.0,-0.0152915034669769,0.0074224549272236,0.9799597323791284,-0.0091184860002229,0.0157573450247607,-0.0578506074971644,0.9996158527338712,0.004660011477465898,0.009438330534157125,0.025638821597204722,1.2139999999999418,2.0,-0.0200235092049422,0.0048517026932931,0.9796547963747718,-0.0153905837078414,0.0075635290106056,-0.0723743701944416,0.9998312188839749,0.002783033479949891,0.010999778448825213,0.014449683169935494,1.2139999999999418,3.0,0.0047512103020175,0.0053002423997498,0.9796194839993588,0.010060741907459,-0.026083922492389,0.0776063215897016,0.9996542537680492,0.005820108443678034,-0.003486554546737408,0.02540360601452705,1.2139999999999418,4.0,-0.0018623528781139,0.0067161323090136,0.978852606477893,0.018643846225687,-0.0093068589083278,0.0635850313454232,0.9994688295202879,0.005116703851953322,-4.1379260229410135e-05,0.03218503451596401,1.2010000000000218,5.0,-0.0004556229081118,0.0109430707898622,0.980265291443828,0.0793679085577596,-0.0596637179796943,0.0102177499671043,0.9998951838901843,0.009732932595926556,0.00014083562415547615,-0.010717808620444054,1.2010000000000218,6.0,8.444156190527917e-18,4.368697985739056e-17,0.9797356786399074,-0.0107041939752872,0.0008619114719321,0.0016937824037396,0.9999943258069661,-0.0003904827694893578,0.0031273555989966523,0.0011897579735182524,1.2010000000000218,7.0,-0.0099050247559529,-0.012762078880366,0.9799086793304952,-0.0176270789780861,0.0135798714638944,-0.0205918862707823,0.9996166820680875,-0.004527914414310122,0.005512288765305256,0.026750730734186125,1.2010000000000218,8.0,-0.0069204480326841,0.0024354783650193,0.9796974920066708,-0.004148269998692,-0.0169311524943134,0.0034222183056146,0.9999594764086324,1.4744165893667323e-05,-0.0014702862591331686,0.008881642950474977
19,1.3240000000000691,0.0,0.0012419634705795,0.010542044684738,0.9797669737343684,0.0632205442249907,-0.0252008390900886,0.0226409317634959,0.9995109081384441,0.011061686894885335,-0.003654898718409634,0.02902111835647761,1.3290000000001785,1.0,-0.0152915034669769,0.0074224549272236,0.9799597323791284,0.010090798094979,-0.006408431675929,0.0003951424972783,0.9996177945597052,0.005065303842766205,0.008976608641894899,0.02565205632813505,1.33199999999988,2.0,-0.0181701265895479,0.0042004937464299,0.9792794301689411,0.0195788513453667,-0.0107397194292015,0.0632268331591878,0.9997851913117125,0.0037270002935916318,0.010295846333857259,0.01759762060289721,1.33199999999988,3.0,0.0055454417646955,0.0059077540828784,0.9796082617645334,0.0168103717040476,-0.0133134204474697,0.0801929853051735,0.9995386459985326,0.006389768335416586,-0.004082797552136856,0.029410827601209267,1.33199999999988,4.0,-0.0019836874012306,0.0079831980256072,0.9794689038114368,0.0072361380103276,-0.0146455341850765,0.1057322017756402,0.9992832293013694,0.005393924518369246,-0.0006715640100465475,0.03746307805155835,1.3279999999999743,5.0,0.0033110751404865,0.0160150995354002,0.9792229334366536,0.0908445683957393,-0.0506477536152801,0.0182036158037635,0.9998489081514197,0.014089849359830115,-0.0026445557743884204,-0.00983073436663581,1.3279999999999743,6.0,0.0019910867884802,-0.0001451463091153,0.9796152379919116,-0.0025816467016421,-0.0023269883992927,-0.005095776783653,0.9999960726952454,-0.0004884626641856721,0.0025963634906295396,0.0009353581857920123,1.331000000000131,7.0,-0.0107744143496646,-0.0131871007345792,0.980160707419777,-0.019215145450529,0.0079889461682528,-0.0181857686410826,0.9996323434276324,-0.005738301960604151,0.005860814904268735,0.025843775123748317,1.33199999999988,8.0,-0.0059302374904783,0.002355322446829,0.979583219915224,-0.0056502539314911,-0.0149567389286222,0.0088775028197423,0.999954945461325,-0.00014571644594232723,-0.0017697710788402124,0.00932489809512449
20,1.3699999999998909,0.0,0.0024007660015615,0.0144514994696658,0.9791559582036377,0.0553773640495278,-0.009360451251805,0.0217105264117201,0.9994486018015684,0.0134736133667096,-0.0037925744164129865,0.03010930884345758,1.3699999999998909,1.0,-0.0161910036709167,0.0078590699229426,0.9799760642077308,0.0174573603334249,0.0271222966300392,-0.0307635714934724,0.9996395621652195,0.005762335934999625,0.010301805835262431,0.02411252859475685,1.3699999999998909,2.0,-0.0200235092049422,0.0048517026932931,0.9796547963747718,0.0150862733742378,-0.0011310048141092,0.0299543873747687,0.9997559071558716,0.004354421484912044,0.010242460924794925,0.019085521074260692,1.3699999999998909,3.0,0.0063396732273736,0.0065152657660071,0.979597039529708,0.0189625374159905,0.013740500492325,0.0485059541577955,0.9994628616928466,0.0070102183733131655,-0.003290628176865467,0.031843628896628,1.3699999999998909,4.0,-0.0021050219243473,0.0092502637422007,0.9800852011449808,0.0144570113236111,0.0346852607551518,0.0181936612434003,0.999244489583297,0.0059787868741344756,0.001275166102736344,0.03838069952906298,1.3519999999998618,5.0,0.0047517896284963,0.0197356891707738,0.9795085109728656,0.0513517541270316,-0.0233281644633798,0.030193273143212,0.9998260595778362,0.016237347067752497,-0.0038484582099528836,-0.008329977110689552,1.3519999999998618,6.0,0.0019910867884802,-0.0001451463091153,0.9796152379919116,0.003693418514301,-0.005052497066317,-0.0053086575127725,0.9999977760683263,-0.00026271248451227764,0.0019825760423934973,0.0006695018955741848,1.3519999999998618,7.0,-0.0114114658346439,-0.0146440181971564,0.9794740074032318,-0.0305213770910842,0.0071147720811485,0.0147447942616099,0.9995997333672876,-0.0074570277227833555,0.006159324103525907,0.026586246748589157,1.3519999999998618,8.0,-0.0048174642568394,0.0023827078392002,0.9804555648990356,0.0016970067950338,-0.0126856518732803,0.0144394534159317,0.999947566222133,7.754869764439008e-05,-0.001979522312063901,0.01004690420221122
21,1.4470000000001164,0.0,0.0033572141394923,0.017456442683414,0.9789203245014692,0.0529306441468479,0.0020166688471311,0.0250232038668468,0.9993793983649534,0.015659634053557886,-0.0033970042852304663,0.031369640528679084,1.4470000000001164,1.0,-0.0165321706095544,0.0094669831059906,0.9794299686888324,0.0231504916507006,0.0122623160719001,0.0174871042596248,0.9996069442951907,0.006800129155820194,0.010761719011014878,0.024978001605886282,1.4470000000001164,2.0,-0.0200235092049422,0.0048517026932931,0.9796547963747718,0.0191689205966584,0.0188472623495789,0.004293821803968,0.9997381550672144,0.005089445732811687,0.011203861164332158,0.01929228705844579,1.4470000000001164,3.0,0.0049813993527808,0.0082894056130422,0.9795103222606032,0.0209327877612157,0.0116717186481838,0.0759537556130171,0.9993309539852424,0.007755048589523782,-0.0026151483728242175,0.03564638308871342,1.4479999999998654,4.0,-0.0042791196790961,0.0097275699029818,0.9802984563481442,0.0189138704958678,0.019266634438216,0.0629481944333972,0.9991115086435931,0.006780173126066473,0.0023621841010425847,0.04152881691761161,1.4450000000001637,5.0,0.0061925041165062,0.0234562788061474,0.979794088509078,0.0579125395169438,-0.0223911870595762,0.0435585885270121,0.9997940824416087,0.01868492513914556,-0.00497363094890769,-0.0061586753827444956,1.4450000000001637,6.0,0.0029866301827203,-0.000217719463673,0.9795550176679138,0.0062558025636358,-0.0078360719789528,-0.0117618829624433,0.9999992254736849,6.443374938617441e-05,0.0012403091902006918,8.082966649208477e-05,1.4450000000001637,7.0,-0.0113894706809682,-0.0168585003766532,0.9797831754641726,-0.019754580164154,0.0099792908052246,0.0525613199567264,0.9995146654290328,-0.008570930043358694,0.006596421371624546,0.0292140373034681,1.445999999999913,8.0,-0.0048174642568394,0.0023827078392002,0.9804555648990356,-0.0034763813305186,-0.0089811262877821,0.02352334352968,0.9999350559317038,1.7201957998748974e-05,-0.001985494668129033,0.011222363114584065
22,1.4949999999998909,0.0,0.0028333118999358,0.0213754978696852,0.98008931247846,0.0483668275850913,-0.0033939412088555,0.032308174511568,0.9992952924232825,0.01760444490631267,-0.0032897287057632677,0.0329875695565694,1.4949999999998909,1.0,-0.0192306712213739,0.0107768280931477,0.9794789641746402,0.027165150105506,0.0337057673743274,-0.0033816929140385,0.999583720454237,0.00795923267615675,0.012400310284855448,0.02480461092038548,1.4949999999998909,2.0,-0.0212537442967686,0.0075833407872866,0.9794977137777666,0.0329380762354153,0.0109134486918979,0.0507060494909232,0.999671400758711,0.006610771558971626,0.011735912958960773,0.02180955184160727,1.4969999999998436,3.0,0.0036373039522389,0.0084083731590993,0.9799337065744684,0.0187061843398415,0.0109646561718297,0.0822752077522534,0.9991725359976377,0.008319127275489795,-0.0019769039070857315,0.03976339120806843,1.4969999999998436,4.0,-0.005036279052598,0.0107470323390192,0.979676036855658,0.0181390918070749,0.0213280151512678,0.0602567748999943,0.9989731799696722,0.007508316675553828,0.0034858727770102804,0.04454278362387415,1.514999999999873,5.0,0.0077818581027762,0.0282629871719603,0.9791862163248548,0.056561392008972,-0.0065206588929441,0.0440687639870421,0.9997562883014475,0.02107101435507455,-0.005272154667657865,-0.0039472447253317495,1.514999999999873,6.0,0.0031199773393585,0.0008501002780586,0.9804726120962884,0.0075352990599564,-0.0023981200270963,0.0028369251976813,0.9999995104303098,0.00047830498491901243,0.0008372346372708083,0.00022226480658868984,1.514999999999873,7.0,-0.0127045526483735,-0.0163887920682245,0.9800066335676249,0.0186498657444209,0.0086512160119189,0.0533005542310868,0.9994381801715471,-0.0076314826547755205,0.007040032932233867,0.03186726257759229,1.514999999999873,8.0,-0.0048174642568394,0.0023827078392002,0.9804555648990356,-0.0100926956903581,-0.0086377891211901,0.0331528511316374,0.999915045157216,-0.0003688134694778819,-0.001976842951802189,0.012878607720234298
23,1.550000000000182,0.0,0.0023231530179064,0.0234958727482015,0.9795956037691552,0.0295233235893533,0.0063513051500626,0.0512116398476187,0.9991927529238918,0.018502366814026356,-0.0027211088671410507,0.035554190937030924,1.550000000000182,1.0,-0.0210296716292535,0.0116500580845858,0.9795116278318452,0.0024955903151428,0.0367473257783165,0.0206662376518394,0.9995360944719501,0.007823031925351899,0.014079436865800855,0.025848897013170894,1.550000000000182,2.0,-0.0231071269121629,0.0082345497341497,0.9798730799835972,-0.0022864230029528,0.0226310761787459,0.0303531667951795,0.9996255638367755,0.0062228640588837736,0.01286917326866546,0.023332219489252737,1.550000000000182,3.0,0.00282889401551,0.0094560337769486,0.9794348272263236,0.0227178529680776,0.0163645575212712,0.067522837993145,0.9990270571900767,0.009070867451653508,-0.0010723407946993905,0.043145201946796614,1.550000000000182,4.0,-0.0065665672378417,0.0119099469239356,0.9802290718801292,0.0199094717256636,0.0315712109890465,0.0398291980457287,0.9988690927004549,0.008280397060974441,0.005103547892416056,0.046539493671425916,1.5599999999999454,5.0,0.0085022153467811,0.0301232819896471,0.979329005092961,0.0196914649226199,0.0048894462492801,0.0643077413434863,0.9997567093123976,0.021467838485158614,-0.0050133891334935635,-0.000721127601563593,1.5610000000001492,6.0,0.0031199773393585,0.0008501002780586,0.9804726120962884,0.0081454392181811,0.0064194221007009,0.0196867466575171,0.999998465030318,0.000881885410413015,0.000914609435272098,0.0012065258852862514,1.5610000000001492,7.0,-0.0131502450220672,-0.0154940619055827,0.9799780635817956,0.0003558549933736,0.0063879966870295,0.0417784011231328,0.9993673619241946,-0.007657381004234483,0.007317092747601768,0.033951444601883096,1.5610000000001492,8.0,-0.0048174642568394,0.0023827078392002,0.9804555648990356,-0.0080511031357054,-0.0129399556524549,0.0156781333271532,0.9999041040609775,-0.0006093344401986628,-0.0021835960805942716,0.013661745924692768
24,1.610000000000127,0.0,0.0016106397428256,0.0247117360555381,0.9794772768884128,0.0186966823868708,0.0019827117509281,0.0641406423449989,0.9990680588393067,0.01883716349784964,-0.002414489378593594,0.03876009958004969,1.610000000000127,1.0,-0.0219291718331933,0.0120866730803048,0.9795279596604478,-0.0019872174671775,0.0079673032630656,0.0729600869737969,0.9994356480787319,0.007570143916145584,0.014174059689053678,0.02949871696303035,1.610000000000127,2.0,-0.0237726955276805,0.0097331194125426,0.9793151307591694,0.0036896421236614,-0.0029527725938783,0.0930854422624472,0.999508703624638,0.006316637922847843,0.012634147396878667,0.027979095473250004,1.610000000000127,3.0,0.00282889401551,0.0094560337769486,0.9794348272263236,0.0072413645253201,0.0150562859819765,0.0678137864691608,0.9988760308666591,0.008977838976897332,-0.0003513968173765999,0.046539766733953956,1.6109999999998763,4.0,-0.0073237266113436,0.012929409359973,0.9796066523876428,0.0103072833166181,0.002717904874785,0.077718679188273,0.9986778182796775,0.008622284478683299,0.0051234526033836335,0.05041846606088796,1.636,5.0,0.0108910985328519,0.0302326310477764,0.979859363374498,0.0243977964870778,-0.0196617984237479,0.0817377275068833,0.9997321309909479,0.02206099269888012,-0.006142454526502538,0.003353970457237119,1.637,6.0,0.0020589045025259,0.000849531202119,0.9795376660491346,0.0078133655257026,0.0058883777565943,0.0148369851767211,0.9999968354812102,0.0012281779414820976,0.0010120841071262177,0.0019484076241087526,1.637,7.0,-0.0115998136360249,-0.018041086947786,0.9810310716309408,-0.0727060726950226,0.0158519141971451,-0.0370934972311552,0.9993875974604461,-0.011503992768157938,0.007792216028219555,0.03211494297048067,1.637,8.0,-0.0048174642568394,0.0023827078392002,0.9804555648990356,0.0008448992511454,-0.0187132300004542,-0.0268999749955487,0.9999205479412272,-0.00037229752006034305,-0.002653436815167221,0.012317405268165414
25,1.7139999999999418,0.0,0.0021623790946537,0.0259076561269269,0.9799924068433692,0.0092113554839913,-0.0018460077016176,0.0642152385643625,0.9989406254633266,0.018734130120888686,-0.0023665755478419147,0.041964967386237804,1.7150000000001455,1.0,-0.0219291718331933,0.0120866730803048,0.9795279596604478,-0.0094779748467932,0.0012345992494044,0.0434341416879857,0.9993769895126845,0.006952014928695652,0.013926064874354237,0.031675969410738594,1.7150000000001455,2.0,-0.0227451020807747,0.0091420136763188,0.9800862635081042,-0.0054174033464459,-0.0015944643343418,0.0569218456800497,0.9994300712865823,0.005886095453538162,0.012439354287868003,0.030824486261892527,1.7150000000001455,3.0,0.0020346625528319,0.00884852209382,0.9794460494611488,-0.0001012146433962,0.0088769678404636,0.0845776892353378,0.998674259112314,0.00850892072979066,8.066760018187237e-06,0.05076733585104192,1.7150000000001455,4.0,-0.0073237266113436,0.012929409359973,0.9796066523876428,-0.0024666348110783,-0.0249956789199412,0.1126405288145979,0.9983870839978654,0.008368901280811794,0.003716502728296798,0.056030166919811414,1.711999999999989,5.0,0.0085022153467811,0.0301232819896471,0.979329005092961,-0.0105289644023208,0.0291708698239153,0.0397655603684919,0.9997578674523513,0.02085024429648239,-0.004541987436024005,0.0053706731454265105,1.711999999999989,6.0,0.0031877950534043,0.001844777789293,0.9803950401535116,0.0127541282611721,0.0051586940808546,0.0075500510975277,0.9999951002358771,0.0018373431629263098,0.0010069668570188168,0.002325874478294966,1.711999999999989,7.0,-0.0135959373957608,-0.0145993317429409,0.979949493595966,0.0301129815586759,0.0091137479359728,0.0416849060631378,0.9993356752593154,-0.00961401524959455,0.008206052698109352,0.034182445259294224,1.711999999999989,8.0,-0.0048174642568394,0.0023827078392002,0.9804555648990356,-0.0097309885007194,-0.0063880315452381,0.024017675823175,0.9999053578117102,-0.0007023541947060609,-0.002465481224109136,0.013516786613488468
26,1.7590000000000146,0.0,0.002364733487705,0.0268121676981065,0.979617025014807,-0.0065782291488937,-0.0105190992175127,0.0524731883211516,0.9988415234550867,0.017920033209832945,-0.002779263244573673,0.04457307626244294,1.7590000000000146,1.0,-0.0215880048945556,0.0104787598972568,0.9800740551793462,-0.02064594352634,-0.0072857544430965,0.0515313561351444,0.9993085313303407,0.005771967879435012,0.01323929104419802,0.03426170996671261,1.7599999999997635,2.0,-0.0212537442967686,0.0075833407872866,0.9794977137777666,-0.0222412739191481,-0.0090657531214302,0.0509805663955096,0.9993626117527217,0.004585231287583291,0.011792532029655713,0.03338086387659548,1.7599999999997635,3.0,0.0012404310901539,0.0082410104106914,0.9794572716959744,-0.0171900784020037,-0.00095775459271,0.0846191769923217,0.9984606757633372,0.007225687324475861,-0.00015663371778821145,0.05499130715655968,1.7599999999997635,4.0,-0.0051496288565948,0.0124521031991919,0.9793933971844796,-0.015135886786633,-0.0281213836423757,0.1075102162414309,0.9980836758746275,0.007495294318882739,0.002156828279391651,0.06138521489282431,1.7289999999998145,5.0,0.0056045140404478,0.0279976667922352,0.9796207021478064,-0.0480893936212362,0.0536334510297519,0.0327804643979488,0.9998157432189523,0.01776922536794732,-0.0017269063863670465,0.007053512294604344,1.7300000000000182,6.0,0.0041833384476444,0.0017722046347353,0.9803348198295136,0.0118303442455479,0.0136641466065034,0.0168070671711423,0.9999913108128642,0.002335262938181895,0.0013757375162819529,0.003167363582751512,1.7300000000000182,7.0,-0.0145093172968238,-0.0105953892381606,0.979583185563366,0.0843677330457829,-0.0010493790239273,0.0988217852131048,0.9991896892053804,-0.004960914225144795,0.008223103266417465,0.03908624935160562,1.7300000000000182,8.0,-0.0059302374904783,0.002355322446829,0.979583219915224,-0.0205536916821922,-0.0034618430784975,0.0427332104219938,0.9998741230782983,-0.0015464941176758533,-0.0020983298886772033,0.015650666632008592
27,1.849999999999909,0.0,0.0030772467627858,0.02559630439077,0.9797353518955492,-0.0274212338966849,-0.0131322082861182,0.0493543898227957,0.9987586569003192,0.016092708369064464,-0.003356625617521179,0.04702024105087674,1.849999999999909,1.0,-0.0202005179469066,0.008771488356861,0.9796739253785832,-0.0309876890908601,-0.0088313013939955,0.0575963837173554,0.9992233837960635,0.004111841713364129,0.012454680866046014,0.037156465889450076,1.8510000000001128,2.0,-0.0200235092049422,0.0048517026932931,0.9796547963747718,-0.0230946801412317,-0.0270078810697675,0.072314375254853,0.999257454384734,0.0032738916089628672,0.010242906071381407,0.0369987076191462,1.8510000000001128,3.0,0.0014989770890189,0.0079198290220278,0.9803683131231592,-0.0288000415392193,-0.0001664778043393,0.0834035679067895,0.9982338477362749,0.005472971758634388,-0.00030540035166712505,0.05915351675416801,1.8510000000001128,4.0,-0.003627325390471,0.0108511834706963,0.9797392991647303,-0.0283543437662309,-0.0254208802114873,0.1050196781500765,0.9977605555909296,0.005961865223706469,0.0007733256834848457,0.06661630308956638,1.8299999999999272,5.0,-0.0007626063179635,0.0229722603101637,0.9791678577689557,-0.0947089364057807,0.0964217889658145,0.0160917101311201,0.9998863817432064,0.012394026932875786,0.0032701501455464355,0.007932075320583548,1.831000000000131,6.0,0.00325561276745,0.0028394553005274,0.9803174682107348,0.0099994911563835,0.0162312007650279,0.0211234689004873,0.9999855306804079,0.002745935174805693,0.0018828105799571946,0.004225315864985993,1.831000000000131,7.0,-0.0130468665254841,-0.0042844855623766,0.9793995213687476,0.0851732656279164,-0.0132163685211994,0.0900847163780301,0.9990223489041073,-0.0003919881591858727,0.0075656465012883005,0.043554032286582264,1.831000000000131,8.0,-0.0059970317175731,0.0013643583227046,0.9796995325797322,-0.0224763481407485,0.0020663356714861,0.0512144994978506,0.9998300776044108,-0.002457640453108257,-0.001489405291179037,0.018208722987617672
28,1.893999999999778,0.0,0.0056194953741306,0.0237577376111195,0.979339568880652,-0.0248978687245452,-0.0068572964991308,0.0425871418652088,0.9986803975155342,0.014473959522722528,-0.0036822289083893833,0.04913663912210221,1.8949999999999816,1.0,-0.0197125312031975,0.0075008318121844,0.979290127406423,-0.0276777621567832,-0.0235160530670545,0.0340239424775531,0.999180080640678,0.002728017684701944,0.010998112894138701,0.03886857192087406,1.8949999999999816,2.0,-0.0200235092049422,0.0048517026932931,0.9796547963747718,-0.0206668446141132,-0.0050995641741519,0.0109564645757869,0.9992427059210015,0.00213860490715016,0.009954672226493008,0.037554567413150206,1.8949999999999816,3.0,0.0028572509636116,0.0061456891749926,0.980455030392264,-0.0150677655036888,-0.0219334482012008,0.0791125230331639,0.9979958975236456,0.0045589435923585955,-0.001558821191762431,0.06309496521741816,1.8949999999999816,4.0,-0.0014612123548421,0.0099358721663361,0.980424980966289,-0.0174695756608513,-0.0133282031128232,0.0661587357784768,0.9975404137438111,0.0050418877743614145,6.444713881450183e-05,0.06991207450836447,1.8609999999998763,5.0,-0.0072783661746351,0.016860735097653,0.9796084631105404,-0.0699782043638836,0.0736551041070752,0.0485944795822278,0.9998854972986919,0.008492149484699334,0.006955254741707197,0.010416339105225532,1.8609999999998763,6.0,0.00325561276745,0.0028394553005274,0.9803174682107348,0.0143735240569763,0.0162254879613019,0.0383739336739549,0.999972821443692,0.0033357053977642478,0.002336988548084018,0.0061455616478235525,1.86200000000008,7.0,-0.0130908568328355,0.0001444787966168,0.978781185246866,0.0422559113173345,-0.0091546134976799,0.0437622772533122,0.9989272610978882,0.001772478128479719,0.007108331102537595,0.045723702668226146,1.86200000000008,8.0,-0.0070540364868736,0.0004535501167703,0.9799301173356872,-0.007006394945192,5.337023115238734e-05,0.033944922472223,0.9997981299073587,-0.0025481341496945077,-0.000979594949277671,0.019905949860246935
29,1.9589999999998329,0.0,0.0054171409810793,0.0228532260399399,0.9797149507092144,-0.0145256188950321,-0.0158350736451529,0.0353797940167704,0.99860334519011,0.013511923902230116,-0.004383034622211322,0.05088787571792348,1.9600000000000364,1.0,-0.0188130309992577,0.0070642168164653,0.9792737955778203,-0.0077852793340006,-0.0177669115197345,0.0461944382852944,0.9990991102085659,0.0024492375903289723,0.009963649274737536,0.04117881626283063,1.9600000000000364,2.0,-0.0181701265895479,0.0042004937464299,0.9792794301689411,-0.0023942616338685,-0.0241491640741822,0.0765704554351036,0.9991037736081272,0.0020680355759363058,0.008675345383358424,0.04137766515085652,1.9600000000000364,3.0,0.0039569788393394,0.0046927307166212,0.9796307062341842,-0.0070491108900209,-0.0145554578004244,0.0662192677404451,0.9977824656918314,0.0040439293738681725,-0.002351156346074403,0.06639480293656205,1.9600000000000364,4.0,6.907583040160689e-05,0.0087729575814197,0.9798719459418176,-0.0072640058628515,-0.0288135607368439,0.0878273966483769,0.9972250354806759,0.004723269499411794,-0.0013970402368199087,0.07428302372936418,1.9639999999999416,5.0,-0.0105362461029709,0.0138049724913976,0.9798287657813324,-0.045449590285657,0.047600769607701,0.01983026735776,0.9998742970197323,0.006051535103206908,0.009154665137599431,0.011443827524447793,1.9639999999999416,6.0,0.0033234304814957,0.0038341328117617,0.9802398962679576,0.0135884371625229,0.0208759387381889,0.0545696145167807,0.9999486627191186,0.0038780865631007472,0.0029723194908549077,0.00887680616548719,1.9650000000001453,7.0,-0.0126451644591418,-0.0007502513660249,0.9788097552326954,-0.02251697606319,0.0105797244979212,0.0350421265719509,0.9988437815524673,0.0003911623415836069,0.007517172369052927,0.04748093475873285,1.9650000000001453,8.0,-0.0081110412561741,-0.0004572580891638,0.980160702091642,0.0187515989819319,-0.0030738355417729,-0.0064168819150184,0.9998070053412457,-0.0013841124281673775,-0.00060388148029376,0.019587537632752266
30,2.043999999999869,0.0,0.0070445219242921,0.0213260109964464,0.9795762226421372,-0.0098771150693651,-0.0123105543059213,0.0347545388320332,0.9985209708422901,0.012796514609634616,-0.004910377323515108,0.05261186364838758,2.043999999999869,1.0,-0.0170140305913781,0.0061909868250273,0.9792411319206152,-0.014686778492472,-0.0117788185576941,0.0403319702249073,0.9990222391008171,0.0017950554216714164,0.009225950751839294,0.043199830911097206,2.043999999999869,2.0,-0.0181701265895479,0.0042004937464299,0.9792794301689411,-0.016598762400156,-0.0158038066552257,0.0496131446418598,0.9990054893560466,0.00126220705974868,0.007916576510678279,0.043860767049546556,2.0450000000000728,3.0,0.0047512103020175,0.0053002423997498,0.9796194839993588,-0.0021951672698714,-0.0123388981585083,0.0476151247664204,0.9976208740924941,0.003851435255088126,-0.0029719715126957993,0.06876718262901098,2.0450000000000728,4.0,6.907583040160689e-05,0.0087729575814197,0.9798719459418176,-0.0113233331480678,-0.0029628886881128,0.0335977773553759,0.9971015760794758,0.004141739794641446,-0.0014243511787573554,0.0759556725664263,2.0090000000000146,5.0,-0.0145144832753117,0.0088889150674555,0.9799062796840188,-0.0660352554745423,0.0568430023649493,-0.0407307283183463,0.9998825311246327,0.002538775935206578,0.011793955127030673,0.009454162628738692,2.0090000000000146,6.0,0.0023957048013014,0.0049013834775538,0.9802225446491786,0.016533562713438,0.0156732830120375,0.0196819368000391,0.9999353641092614,0.004563962369202253,0.0033415828456699035,0.009862640379568872,2.0099999999997635,7.0,-0.0126231693054661,-0.0029647335455216,0.9791189232936364,-0.0221615369739164,0.0049294764015334,0.0052716966970889,0.9988299425631473,-0.000946265038227901,0.007595934388480547,0.047750939284409745,2.0099999999997635,8.0,-0.0089676633441904,0.0016048260772753,0.9800423488540724,0.0232788285180545,0.0059256308992015,0.0173365326965043,0.9997907470696852,-1.5443997124168127e-05,0.00023453579222886288,0.020454995191540544
31,2.074999999999818,0.0,0.0070445219242921,0.0213260109964464,0.9795762226421372,-0.021103562649953,-0.0070638866200474,0.0264667030234097,0.9984647422575329,0.011581103913649166,-0.005144595993819091,0.05392188454421702,2.076000000000022,1.0,-0.016526043847669,0.0049203302803505,0.978857333948455,-0.0265528544241935,-0.0035366063599739,0.0320631948107157,0.9989553824211844,0.0005263158368104999,0.008922619736320869,0.04481354460903831,2.076000000000022,2.0,-0.0163167439741536,0.0035492847995668,0.9789040639631106,-0.0297716771773357,-0.0099081832625261,0.026419670681797,0.9989508833772432,-0.00017431069392426,0.0074054278371275435,0.04519139137221142,2.076000000000022,3.0,0.0039569788393394,0.0046927307166212,0.9796307062341842,-0.0148904735058157,0.0038107563643513,0.0233857405107002,0.9975436493653604,0.0029598582752186193,-0.002724382055620534,0.06993199977295482,2.076000000000022,4.0,0.0008342199230234,0.0081915002889615,0.9795954284295816,-0.0119230205047884,-0.0144923349674818,0.0328286222594474,0.9969768784140475,0.0036060306556628336,-0.002066258019663544,0.07758757006433457,2.070000000000164,5.0,-0.0197614817898178,0.003375123749229,0.980165339306154,-0.0881850092580509,0.0776309541889488,-0.0482516331286278,0.9998532349831257,-0.0020262879056969856,0.015458224792893844,0.007102530348676067,2.070000000000164,6.0,0.0024635225153471,0.0058960609887882,0.9801449727064016,0.0124829791408979,0.0107905660789428,-0.0037196231163319,0.9999346338210902,0.005027735174489658,0.0034313240185944896,0.009678635212516221,2.070000000000164,7.0,-0.0126231693054661,-0.0029647335455216,0.9791189232936364,0.0122373052512574,0.0008918132476513,0.0264046077150423,0.9987670328116091,-0.0004146122017795945,0.007547256226289284,0.04906405190025502,2.0709999999999127,8.0,-0.0098910796593015,0.00267594611959,0.9800403082810109,0.0092666979056985,0.0029789153058569,0.0216980892039151,0.9997674493496445,0.0005726967129036325,0.000876124676462761,0.021539536785463814
32,2.15099999999984,0.0,0.0084695484744535,0.0188942843817732,0.979812876403622,-0.0226688466648829,-0.0026582381980648,0.0074119088413948,0.9984590212877903,0.01028246639623044,-0.005207293002002917,0.05428386310340667,2.15099999999984,1.0,-0.0172311969180424,0.0034117754546501,0.9803496547870146,-0.0207957900665882,-0.0059408970664208,0.0073249228665899,0.9989415763171966,-0.0004140010871269624,0.008572817775034335,0.045189185690939986,2.15099999999984,2.0,-0.016114102329233,0.0014087524417971,0.9782900138111812,-0.0226026189010119,-0.0067475851497299,0.0163467517593577,0.9989146623389955,-0.0012297861906439584,0.007103709185206239,0.04601654382836581,2.15099999999984,3.0,0.0031627473766613,0.0040852190334925,0.9796419284690095,-0.0183596032557554,0.0095094134947454,-0.0069548081546513,0.9975718382646354,0.0019350959245529376,-0.0021875919504821826,0.0695837434070431,2.15099999999984,4.0,0.0001904103535182,0.0075058918648261,0.9792556486082734,-0.0197095736761044,0.0099945459085604,-0.0244284655750642,0.9970752487733433,0.0026094175260237737,-0.001414579245672867,0.07636843712757231,2.1799999999998363,5.0,-0.0243114367079033,-0.0023151097619606,0.9792066147202988,-0.0782149653555206,0.0661817832650455,-0.0105022092780352,0.9997907977993764,-0.005892196603381801,0.018430000292801937,0.006631571765508921,2.1799999999998363,6.0,0.0004724357268669,0.0060412072979036,0.9802654133543974,0.0110411881196858,0.0127833114128458,0.0048225056217539,0.9999294169092554,0.005379985581363185,0.0037102547835984453,0.009922245920221895,2.1799999999998363,7.0,-0.0117537797117545,-0.0025397116913085,0.9788668952043544,0.0245064248891261,-0.010325713932504,0.0151848443439863,0.9987342964552548,0.0007226713289829284,0.006929726116588545,0.04981226481627227,2.1799999999998363,8.0,-0.0098910796593015,0.00267594611959,0.9800403082810109,0.0041756830623405,0.0016937506414599,0.0258317115125961,0.9997380331816071,0.0008490779425197699,0.0013839906136987954,0.02283043247072828
33,2.2100000000000364,0.0,0.0079178091226254,0.0176983643103844,0.9792977464486654,-0.0120079072415936,0.0063620497135119,-0.008346230939772,0.9984910537417878,0.00956372915826646,-0.004752103625070112,0.05386620641309477,2.2109999999997854,1.0,-0.0176427103782731,0.0025777339056924,0.979982188643457,-0.0047342973800284,0.0057729312518904,-0.0196751746615962,0.9989825145690379,-0.0005398621042456398,0.008897726205630141,0.04420944019777126,2.2109999999997854,2.0,-0.0168389893585128,0.001203354389644,0.9803953286177964,-0.0043368801029673,0.003090856598048,-0.0156164869457304,0.9989479373165192,-0.0013143032041572598,0.007397322213692412,0.045239040244306555,2.2109999999997854,3.0,0.0023685159139833,0.0034777073503639,0.9796531507038349,-0.0165488842915633,0.0125009898025586,-0.012352846097671,0.9976172596119078,0.0010594470091656251,-0.001510429709673049,0.06896665497582152,2.2109999999997854,4.0,0.0003117448766349,0.0062388261482326,0.9786393512747296,-0.0213915227102564,0.0068549070333433,-0.0149063646664742,0.9971346545279808,0.0015758765031042836,-0.001003396839376399,0.07562400774485678,2.233999999999924,5.0,-0.0279294952582416,-0.0063010197770593,0.979355523007038,-0.0482175670421344,0.0394275519329725,0.0033782658340715,0.9997448384837524,-0.008054270845020386,0.019966522101022507,0.006835542512496895,2.235000000000128,6.0,0.0004724357268669,0.0060412072979036,0.9802654133543974,0.0043323488235092,0.0183956133594329,0.0146730937367295,0.9999198253506553,0.005360551993037828,0.0042361284522931504,0.0106612648771336,2.235000000000128,7.0,-0.0121994720854482,-0.0016449815286667,0.9788383252185248,0.0144022757217,-0.0017737818047313,0.0252224739850485,0.9986713526007414,0.0012677798771960217,0.00680062063160689,0.05106538737553531,2.235000000000128,8.0,-0.0108812902015073,0.0027561020377803,0.9801545803724574,0.0010648448974396,0.0019455678851881,0.0261907078755954,0.9997063519727208,0.0009448673657212227,0.0019009201571811693,0.024139253377260163
34,2.284000000000105,0.0,0.0060880737863613,0.0183210677826982,0.9798118563443052,-0.0052928724532625,0.0071117532572382,-0.0233776361924374,0.9985585491501981,0.009279651382180664,-0.004185052849830655,0.05269912069399678,2.2849999999998545,1.0,-0.0176427103782731,0.0025777339056924,0.979982188643457,0.0014791182968612,0.0112605475861608,-0.0272145932751307,0.9990364803470541,-0.00035741070348363935,0.00947819072194451,0.04285028697684521,2.2849999999998545,2.0,-0.0175630390212893,-0.0006115734946941,0.9799689615687824,0.0023487037245886,0.0043530748173148,-0.0126940034790055,0.9989738216019995,-0.0011518066991301232,0.007773268792688506,0.04460440995575385,2.2849999999998545,3.0,0.0015742844513052,0.0028701956672352,0.9796643729386604,0.002830307215962,-0.00064687920212,-0.0213382395769759,0.9976901446313384,0.0012502166175502897,-0.001450609713330804,0.06790219433396905,2.2849999999998545,4.0,-0.001105193504612,0.0056966698729763,0.9794750259703792,-0.0056348766333917,0.0276778003358861,-0.0580130645379653,0.997350504740736,0.0013212689010523217,0.0005379786520907906,0.07273194291960258,2.2950000000000728,5.0,-0.029918613844412,-0.0087590484890304,0.979394279958381,-0.0204909010480466,0.0271416928854185,-0.0057721386835074,0.9997230336664243,-0.008745639362343093,0.020840813296288552,0.00655974466687008,2.2950000000000728,6.0,-0.0004552899533274,0.0071084579636957,0.9802480617356184,0.0019160297092388,0.0118056662802067,5.8430861214408965e-05,0.9999193537298856,0.00527632527234817,0.004430857357682004,0.010668361219244624,2.2950000000000728,7.0,-0.0113300824917365,-0.0012199596744535,0.9785862971292428,0.0093536690707099,-0.0018952657847051,0.0207598212071161,0.998618880750064,0.0015281480632871667,0.006623160479245657,0.052097308167046226,2.2959999999998217,8.0,-0.0118047065166183,0.003827222080095,0.980152539799396,0.0034700948144623,0.0020335660113693,0.010315090934074,0.9996923758163153,0.001202989722511824,0.002422722410945021,0.02465434985105095
35,2.3789999999999054,0.0,0.0060880737863613,0.0183210677826982,0.9798118563443052,0.0019503552304106,0.0047350553114113,-0.0279896053156198,0.9986318627828014,0.009392303756867186,-0.0037727680065786874,0.0513025680318163,2.3789999999999054,1.0,-0.0185422105822129,0.0030143489014114,0.9799985204720596,0.0077506245749909,0.0144644899602686,-0.0239362288770621,0.9990798866582162,0.00013626140191494023,0.010221312965673555,0.04165196596913165,2.380000000000109,2.0,-0.0175630390212893,-0.0006115734946941,0.9799689615687824,0.0057139375067052,0.0084079569268379,-0.0152018631644194,0.999003425100595,-0.0008470116357531429,0.008321730051445082,0.04384276471117957,2.380000000000109,3.0,0.0018328304501702,0.0025490142785716,0.9805754143658448,-0.0031791169762039,0.0194393926766276,-0.0435867169809975,0.9978369297454247,0.0010397650343422099,-0.0004286114333053175,0.06572820412225777,2.380000000000109,4.0,-0.002514147166739,0.0055925187412991,0.979411763661307,0.0018886051941632,0.0078740435011005,-0.0384723578799775,0.9974878709533384,0.0015290921732351458,0.0010354867412305097,0.07081339523925341,2.34900000000016,5.0,-0.0308271965645749,-0.0084266349744713,0.9796472200618832,0.0006680499712889,0.0070371526094017,-0.0192688251383131,0.999736213809814,-0.008300383005798221,0.020670635073613785,0.005597435558215114,2.34900000000016,6.0,-0.0004552899533274,0.0071084579636957,0.9802480617356184,-0.0148794209698295,0.0093864384636816,-0.0051469037872156,0.9999261947147283,0.0043609415400895106,0.0044773456000631135,0.010418286259500373,2.349999999999909,7.0,-0.0113300824917365,-0.0012199596744535,0.9785862971292428,0.0047760660286958,-0.0007123070609596,-0.0235066170268547,0.998680318169456,0.0015154827380734824,0.0065143306460542045,0.050920417410491026,2.349999999999909,8.0,-0.0127949170588241,0.0039073779982852,0.9802668118908426,-0.0010132955510361,-0.0049398418154254,0.0038485264866762,0.9996871864119867,0.0012217381181032253,0.0025893403712122843,0.024846166627841844
36,2.4459999999999127,0.0,0.00588571939331,0.0174165562115186,0.9801872381728676,0.0002026229256634,0.0028615352145221,-0.0278667618994841,0.9987036460204662,0.00936363910195348,-0.003493254790025133,0.049911390074487354,2.4459999999999127,1.0,-0.0194417107861527,0.0034509638971305,0.980014852300662,0.0077231757895516,0.0148868019253456,-0.0367380975479028,0.9991468449971532,0.0005932576814535193,0.01095826902640742,0.039813898546903446,2.4459999999999127,2.0,-0.0175630390212893,-0.0006115734946941,0.9799689615687824,0.0004683040396535,0.0193647664684111,-0.0480217655172829,0.9990967532895796,-0.0008717989082588658,0.009349595766484725,0.04144276284091399,2.4470000000001164,3.0,-1.4178474050830946e-05,0.0016551723009779,0.9796868174083108,0.0004164525971571,0.0343071514399324,-0.057373650609777,0.9980206252322631,0.0009292881528923799,0.0013365324259113501,0.06286637985128748,2.4470000000001164,4.0,-0.0032713065402409,0.0066119811773365,0.9787893441688208,0.0087016866901045,-0.0077196414187709,-0.0265943521869379,0.997580304158479,0.002161259665047545,0.0007711839033878836,0.06948576103867712,2.4609999999997854,5.0,-0.0308271965645749,-0.0084266349744713,0.9796472200618832,0.0150445786766015,-0.0097125631861815,-0.0104762198791641,0.999767644802952,-0.007165176163343505,0.019688819751310947,0.0050662641568493625,2.4609999999997854,6.0,0.0005402534409127,0.007035884809138,0.9801878414116204,-0.0014512311729624,0.0027841708475662,0.0074322986607511,0.9999243076488799,0.004211676253251119,0.004142687919424145,0.010792538758256268,2.4609999999997854,7.0,-0.0113300824917365,-0.0012199596744535,0.9785862971292428,-0.012130937751199,0.0038149728813074,-0.0700386631717899,0.9988528004192234,0.0006337894634220411,0.006599655713124861,0.047424950712247525,2.461999999999989,8.0,-0.0127949170588241,0.0039073779982852,0.9802668118908426,-0.0027524923980001,-0.0084709087428214,-0.0362376199789765,0.9997307295801006,0.0011508245623556802,0.002562980630048142,0.02303421512351164
37,2.494999999999891,0.0,0.0035595685325436,0.0183609542545937,0.9785449426729068,0.0030642818821068,0.000433975397009,-0.0405426001392629,0.9988021325997107,0.009532241524068381,-0.003230085382093876,0.0478853091691068,2.494999999999891,1.0,-0.0203412109900926,0.0038875788928495,0.9800311841292648,0.009090669448775,0.0182610171145112,-0.0516275585465648,0.9992359561456471,0.0010803088079216964,0.0118403181346431,0.03723095143888355,2.494999999999891,2.0,-0.0196182259151009,0.0005706379777536,0.9784266960709128,0.0001243078962799,0.0013049340186611,-0.0360576707988508,0.9991686368882556,-0.0008103817004845192,0.009481350142551479,0.0396419265404565,2.4960000000000946,3.0,-0.0035107792118636,0.0029407680109415,0.9800347066878964,0.0140715913930612,0.0678479039036087,-0.0902298174325036,0.9982826846432686,0.0014579102066828678,0.004828439718902466,0.05836302090483667,2.4960000000000946,4.0,-0.0048015947254846,0.0077748957622529,0.979342379193292,0.0118022574710663,0.0129530028999903,-0.0772645589070464,0.9978384709585058,0.0028649576908796504,0.0016645522513927117,0.06563083999480024,2.550999999999931,5.0,-0.0295584352224095,-0.007828901080187,0.979465674342434,0.0150710272218817,-0.0104103108863943,-0.0308547567473541,0.9998001629137667,-0.006130170827430744,0.018700158940333618,0.003515579445598082,2.5520000000001346,6.0,0.0005402534409127,0.007035884809138,0.9801878414116204,-0.0136010885498325,0.0012767234888065,-0.0090195516284962,0.9999333852586118,0.0034671193698953954,0.0037628026726761973,0.010346276846008015,2.5520000000001346,7.0,-0.0104386977443492,-0.0030094199997371,0.978643437100902,-0.012452568825448,-0.0020351794781521,-0.058853448451475,0.9989898332037538,-0.0002450783777782502,0.006333148545434156,0.04448757491285126,2.5520000000001346,8.0,-0.0127949170588241,0.0039073779982852,0.9802668118908426,0.0064638307267475,-0.0126990820862805,-0.0114479951311975,0.9997437973173036,0.001556215682478885,0.002337225349406691,0.022460082279326284
38,2.5549999999998363,0.0,0.0035595685325436,0.0183609542545937,0.9785449426729068,0.0041241467612225,0.0054882381127289,-0.0510400151329015,0.9989206400304149,0.00972575262560697,-0.0027349766557612856,0.04533745206541751,2.5549999999998363,1.0,-0.0212407111940324,0.0043241938885685,0.9800475159578672,0.0223537211791522,0.00552989540275,-0.0494585504742637,0.9993207377684856,0.0022296988305606003,0.01207058668761917,0.03474755309358401,2.55600000000004,2.0,-0.0196182259151009,0.0005706379777536,0.9784266960709128,0.0223897582380962,-0.019303986720679,-0.0066094128402552,0.999190126899879,0.000413757349767739,0.008616057291768913,0.03930245116279916,2.55600000000004,3.0,-0.0059076520739485,0.0027734052625336,0.9795582718094024,0.0115403938039028,0.0427448422691956,-0.0730734725358866,0.9984769263095128,0.0018695858969965183,0.006829305261722553,0.054714649461764,2.55600000000004,4.0,-0.0033926410633576,0.00787904689393,0.9794056415023644,0.0077040925303149,-0.0161858391788093,-0.0235446228473279,0.9979145129020977,0.003404013309433926,0.000919000891808728,0.06445302995297818,2.5650000000000546,5.0,-0.0275693166362391,-0.0053708723682159,0.9794269173910908,0.0388788079100044,-0.0462347716929497,-0.0362580595783905,0.9998642591965407,-0.0038782891751784013,0.015924367141014927,0.0016842166086448913,2.5650000000000546,6.0,0.0025313402293929,0.0068907385000226,0.9800674007636246,-0.0062016503996044,0.0047321620103483,-0.0009917213548189,0.9999358475281555,0.003160570441292583,0.003494586295762746,0.010300460633227699,2.5650000000000546,7.0,-0.0099930053706555,-0.0039041501623789,0.9786720070867316,-0.01534808210234,0.0024945580466827,-0.0612027567018634,0.9991207198213427,-0.0012342145790875275,0.006287626452957598,0.04143343687944903,2.5659999999998035,8.0,-0.0127949170588241,0.0039073779982852,0.9802668118908426,-0.0043730967843367,-0.0108343817077825,-0.0302947699678787,0.999777233916255,0.0013751997800382238,0.0022159749020101943,0.020944708724660005
39,2.643999999999778,0.0,0.0019321875893308,0.0198881692980872,0.9786836707399844,0.009822186922224,-0.0029243376730464,-0.0714937999873723,0.9990712606813967,0.01027952127436925,-0.0026010552750842424,0.04176340544436635,2.643999999999778,1.0,-0.0223345585315385,0.006705978705707,0.9785878587765126,0.0214721065293592,0.0118044813444425,-0.0627127486313937,0.9994148802044311,0.0033240391642636253,0.012653196134788519,0.03160292102277334,2.643999999999778,2.0,-0.0188941762523244,0.0023855658620918,0.978853063119927,0.0347370856273969,0.0158536827239491,-0.0708032860939392,0.9993124719964083,0.002130200961531445,0.009591359362020815,0.03574984450147739,2.643999999999778,3.0,-0.0086100213490832,0.0046665126556258,0.9798949388541628,0.0109196777648441,0.0148896839325788,-0.0696903507217497,0.9986566442937798,0.0023770449843967902,0.0073796203956115825,0.051232779232108415,2.644999999999982,4.0,-0.0041577851559795,0.0084605041863883,0.9796821590146004,0.0074175604651529,-0.0039352131115081,-0.0538850221384232,0.9980830131521881,0.0038611971634795973,0.0009046256400861163,0.06176221875843927,2.6410000000000764,5.0,-0.0252200194280663,-0.0019826962474014,0.9794595548238012,0.0410763905717009,-0.0305505374989615,-0.0365560476175008,0.9998994615434286,-0.0015667525364049632,0.01409199317310708,-0.00016679346560958104,2.6410000000000764,6.0,0.0025313402293929,0.0068907385000226,0.9800674007636246,-0.006856357632811,0.0028786478084719,-0.0095814142390763,0.9999426734076455,0.0028514114605400613,0.0031613882345776856,0.009824712488591352,2.6410000000000764,7.0,-0.0095473129969619,-0.0047988803250207,0.9787005770725612,0.0046118102275384,-0.0050155903920065,-0.0396404807512473,0.9992034826781884,-0.0011476156645135204,0.0058926994754690395,0.039450719574653036,2.6410000000000764,8.0,-0.0127949170588241,0.0039073779982852,0.9802668118908426,-0.0036465511304597,-0.0103247388881971,-0.0060283253356214,0.9997838653560537,0.0012511165483246726,0.002131419544500609,0.02064253695203747
40,2.719000000000051,0.0,0.0012196743142501,0.0211040326054238,0.9785653438592418,0.0001019977673855,-0.0003042343648251,-0.067165616958857,0.9992059694763421,0.010345775936486223,-0.002338400370454178,0.03840478312427643,2.719000000000051,1.0,-0.0232340587354784,0.007142593701426,0.9786041906051152,0.009516038442005,0.0161706227657048,-0.1005552142318792,0.9995498052867655,0.0037051695254785412,0.013427301594053247,0.02657378486175479,2.719000000000051,2.0,-0.0207475588677187,0.0030367748089549,0.9792284293257576,-0.0086832777680881,0.0306412173862119,-0.1713569411627406,0.9995661839919405,0.0014632361720785067,0.011224362600170965,0.02719037410398343,2.7199999999998,3.0,-0.0086100213490832,0.0046665126556258,0.9798949388541628,0.0010414633714391,-0.0060037457657117,-0.0646740713665988,0.99882118590832,0.0023981311857749978,0.006803105931778366,0.04800213846480213,2.7199999999998,4.0,-0.0041577851559795,0.0084605041863883,0.9796821590146004,5.638212955889508e-05,0.0255969962048135,-0.1123689470777859,0.9984119658309287,0.0038115688176174455,0.0023520564231357733,0.0561559102797859,2.697,5.0,-0.0315475538085798,-0.0102869297921581,0.9795044312937772,-0.0708352062919089,0.1492795337981804,-0.0131584682503197,0.999748066334866,-0.00548339190969862,0.021751095626046102,-0.0007912723471358214,2.697,6.0,-0.0074240937130082,0.0076164700455996,0.9806696040036036,-0.0533557299106662,-0.0156366206893173,-0.0604036153518743,0.9999738375735697,0.00028124210013857713,0.0024203577483271825,0.006810795815408665,2.698,7.0,-0.0113300824917365,-0.0012199596744535,0.9785862971292428,0.0354967230874213,-0.0391611366619301,-0.0024566940050112,0.9992184428418466,0.0007320028164636902,0.003992950742545808,0.03931951170804932,2.699,8.0,-0.0127949170588241,0.0039073779982852,0.9802668118908426,0.052781248346202,-0.0226954769748368,0.1250543173971049,0.9996295068201397,0.003986578525411248,0.0014699073785630617,0.02688485927958542
41,2.7539999999999054,0.0,0.000304806646118,0.0214153843415807,0.9788223988070618,-0.003477280936364,-0.0028105824964478,-0.0551415609603433,0.9993096158535777,0.010242801045239266,-0.0021969756704354384,0.03564477503402515,2.755000000000109,1.0,-0.0241335589394182,0.0075792086971451,0.9786205224337176,0.0028041411426332,0.000267502851867,-0.045069226376904,0.9996078418570745,0.0037984233273824367,0.013352772305866512,0.024319497318315033,2.755000000000109,2.0,-0.0207475588677187,0.0030367748089549,0.9792284293257576,0.0066927409312899,-0.0076048212691556,-0.0346653253314253,0.999616139858219,0.0017684769338099484,0.01079699893201519,0.02545329523559073,2.755000000000109,3.0,-0.0086100213490832,0.0046665126556258,0.9798949388541628,-0.0067087280449454,-0.0096209522769712,-0.0313736472319632,0.9989006258033337,0.002052403098345104,0.006079610222602258,0.04643668539820338,2.755000000000109,4.0,-0.0054454042949899,0.0070892873381176,0.979002599371984,-0.0091070577973586,-0.0082945134633951,-0.0235378555647057,0.9984799061282646,0.0033421350031175,0.0019791131289430735,0.05497990817503802,2.7539999999999054,5.0,-0.0235910794638984,-0.0004548149442738,0.9793494034884048,0.0233931550815454,-0.025287827421951,-0.0159097843390229,0.9998010969637067,-0.0038062808003084653,0.01951210054598086,-0.0015989586991007362,2.7539999999999054,6.0,0.0025313402293929,0.0068907385000226,0.9800674007636246,-0.0073294322445141,0.0026279031210939,0.0002894821630287,0.9999742894874711,0.00023820162063871114,0.002180483507599401,0.006827086910835379,2.755999999999858,7.0,-0.0086779234032502,-0.0043738584708075,0.9784485489832792,0.0008010249950692,-0.0081182758387609,-0.040705612091876,0.9992980330364827,0.0004658756127875023,0.0036248550038191214,0.03728383772536305,2.757999999999811,8.0,-0.0127949170588241,0.0039073779982852,0.9802668118908426,-0.00671768028678,-0.0128189652714375,-0.0110357547639638,0.99964649333707,0.0034502675742435723,0.0013327651155968746,0.026328838745982432
42,2.809999999999945,0.0,0.000304806646118,0.0214153843415807,0.9788223988070618,-0.0074485142864169,-0.003711578831383,-0.0301616193400486,0.9993655092209006,0.009949855136619015,-0.0021375941380146844,0.03413224360793056,2.809999999999945,1.0,-0.0241335589394182,0.0075792086971451,0.9786205224337176,-0.0078598391318309,0.0026703735151484,-0.0447553214714917,0.9996607319912105,0.003349629027636415,0.013390650617556807,0.022088263313647435,2.809999999999945,2.0,-0.0226009414831129,0.003687983755818,0.9796037955315884,-0.0144425705295464,0.0103391544063818,-0.0604197108819388,0.99968294624052,0.0009827290378280845,0.011376388134451902,0.02244145789663163,2.809999999999945,3.0,-0.0094042528117613,0.0040590009724972,0.979906161088988,-2.486069771081081e-05,0.0096209455029672,-0.0563726026708781,0.9990253344253459,0.0019910321561802512,0.006446678332884636,0.043621752667116036,2.809999999999945,4.0,-0.0068543579571169,0.0069851362064404,0.9789393370629116,0.0001368923468972,0.0108994043796304,-0.0540994381457161,0.9986233172609218,0.003316402570497023,0.0027039468050518174,0.05227963626937526,2.793999999999869,5.0,-0.0217506003759882,0.0009170950372579,0.980204096257497,0.0052562875202642,-0.0222572133326036,-0.0250103461738355,0.999836952362484,-0.0031405815049610764,0.017553108766926975,-0.0028449623770655332,2.793999999999869,6.0,0.0034590659095873,0.0058234878342305,0.9800847523824038,-0.0086143402216461,0.0026399735911194,-0.0006790806187479,0.9999750741742695,8.098204544698188e-05,0.001917069438351213,0.006794800721236779,2.7950000000000728,7.0,-0.0082512148733275,-0.0040995275793631,0.9803831451665926,0.0085184754938963,-0.0058661486638686,-0.0539140599104825,0.9993957178663965,0.0006214811565055606,0.0033995053314478997,0.03458693734611046,2.7950000000000728,8.0,-0.0127949170588241,0.0039073779982852,0.9802668118908426,-0.0068226196910408,-0.0121177497581607,-0.0231283763009437,0.9996780474588493,0.0029606812732805446,0.0012458419015828465,0.02516910155761153
43,2.9329999999999927,0.0,0.000304806646118,0.0214153843415807,0.9788223988070618,-0.0115941641244785,-0.0062948937226428,-0.0214180166541679,0.9994060727865945,0.009482172541515623,-0.0022262701124196394,0.03305501176154007,2.9329999999999927,1.0,-0.0241335589394182,0.0075792086971451,0.9786205224337176,0.0015764101410574,-0.0016207929603198,0.0019133590715822,0.9996606295251748,0.0034563393061374206,0.013212968586249702,0.022183258486321217,2.9329999999999927,2.0,-0.0226009414831129,0.003687983755818,0.9796037955315884,0.0033207085505118,-0.0141119021444081,0.0241395069243766,0.9996624334862567,0.0012422588727379429,0.01069288109333858,0.02364610249389949,2.9329999999999927,3.0,-0.0094042528117613,0.0040590009724972,0.979906161088988,-0.0065744163430174,0.0046389567019072,-0.0275339820319606,0.9990845674326682,0.0016304862866000501,0.006510049963278989,0.04224911693542667,2.9340000000001965,4.0,-0.0068543579571169,0.0069851362064404,0.9789393370629116,-0.0056959358743659,-0.0168437066325014,9.100214263011058e-05,0.9986257194101744,0.0030823658944706634,0.0019458698791081283,0.052281785962398505,2.849999999999909,5.0,-0.0199334349356622,0.0002522680081397,0.9796982160504928,-0.0113678293037669,-0.0171308222413669,-0.0397114454557742,0.9998553112202819,-0.003416395319162751,0.015953354316805134,-0.004814078692635056,2.849999999999909,6.0,0.003526883623633,0.0068181653454649,0.9800071804396268,-0.000948001179659,0.0033458628551159,0.015074627764709,0.999969963602786,0.00037485832656290144,0.0017144864777777413,0.007549298616110111,2.849999999999909,7.0,-0.0082512148733275,-0.0040995275793631,0.9803831451665926,0.0044258209747738,-0.0092844338233818,-0.0177029779598514,0.999427269853023,0.0005700406309242104,0.003017080650709179,0.03370021590671536,2.849999999999909,8.0,-0.0127949170588241,0.0039073779982852,0.9802668118908426,-0.0002876607798199,-0.0154383082374872,-0.0191557325201155,0.9997023776597764,0.0028512828306972607,0.0010093316087812802,0.024207592555077085
44,2.9899999999997817,0.0,0.0001024522530667,0.020510872770401,0.9791977806356243,-0.0227838638335083,-0.0039404341637456,-0.0301457743197064,0.9994642961158134,0.0084519935121986,-0.002196104125377764,0.03154142866234026,2.9899999999997817,1.0,-0.0245450723996489,0.0067451671481874,0.97825305629016,-0.0052065544858451,-0.0049123800595761,-0.0271912552827306,0.9996948205081843,0.0031546978419905304,0.012906181530563502,0.020826526569140268,2.990999999999985,2.0,-0.0226009414831129,0.003687983755818,0.9796037955315884,-0.0078644048903616,-0.0072856258642366,-0.0317707920294346,0.9997020310382989,0.0008774281024886227,0.010408973289440921,0.022062015612461447,2.990999999999985,3.0,-0.0094042528117613,0.0040590009724972,0.979906161088988,-0.006473798085894,-0.0031009253968963,-0.0505981479112749,0.9991907168021121,0.0013207302685907113,0.006181910114230961,0.03972343282470327,2.990999999999985,4.0,-0.006089213864495,0.0064036789139822,0.978662819550676,-0.0035422744435969,0.0041872980008843,-0.0659453882894927,0.9987925256489097,0.0028902966644183937,0.002288443475266723,0.04898877340293777,2.9400000000000546,5.0,-0.017904730371594,-0.0005685303425743,0.9801571799479764,0.0039568916021369,-0.057466696922422,0.0124542623466635,0.9999101617621732,-0.0029054313383366694,0.012399091519968104,-0.004182033352603693,2.9400000000000546,6.0,0.003526883623633,0.0068181653454649,0.9800071804396268,0.002786390825258,0.0059971602369551,0.0388363925633226,0.9999532260249886,0.0008269467967408376,0.001665031282662581,0.009491553721139693,2.9400000000000546,7.0,-0.0056210509385168,-0.0050389441962203,0.979936228959688,0.0044570147354553,-0.0126031610505511,-0.0488151064670986,0.999508400167212,0.00048300752227799383,0.0023721801258571765,0.031258558193943346,2.9400000000000546,8.0,-0.0118047065166183,0.003827222080095,0.980152539799396,-0.003655515824369,-0.0163709338417112,-0.011028987967439,0.9997166600273454,0.002583291983176128,0.0006937821594872165,0.023652588285720366
45,3.019999999999982,0.0,0.0002632261763193,0.0180990893916756,0.97880097756141,-0.0359207624515105,0.0010254365134667,-0.0401400654089979,0.9995392866368836,0.006738752984936128,-0.0019526526642189305,0.02952949077127105,3.019999999999982,1.0,-0.0236455721957091,0.0063085521524683,0.9782367244615576,0.008774809225192,-0.0070045416818862,-0.0561485374254794,0.9997533337870549,0.003546039761857774,0.012499208113867729,0.01801296700166935,3.021000000000185,2.0,-0.0226009414831129,0.003687983755818,0.9796037955315884,0.0045446601235289,0.0070014378544596,-0.0882801502464969,0.9997843857569594,0.0011258989330320524,0.010885174223461995,0.01764730376847447,3.021000000000185,3.0,-0.0096486203365755,0.0027250100601828,0.9795052212447736,-0.0074994246791424,0.0013680204708409,-0.067889105444286,0.9993205772636895,0.0009096509868399812,0.006117858154808631,0.03633356855644974,3.021000000000185,4.0,-0.0067410081531202,0.0052800653462677,0.97922197673409,-0.0022945636359021,-0.0214001326594861,-0.0516083657952072,0.9989177902024112,0.002785575245419433,0.0013493109841984363,0.04640763242777686,3.0450000000000728,5.0,-0.0160875649312681,-0.0012333573716925,0.979651299740972,-0.0077706015383967,-0.0179974611583976,-0.0001203344769645,0.9999251547188467,-0.003066748654457613,0.011082243241025148,-0.004178982881985048,3.0450000000000728,6.0,0.003526883623633,0.0068181653454649,0.9800071804396268,0.0025082318853033,0.0003203350559686,0.0063003788675915,0.9999502694885727,0.0012195758319485561,0.0013387299939955838,0.0098070885855072,3.0450000000000728,7.0,-0.0056210509385168,-0.0050389441962203,0.979936228959688,0.0003820594405334,-0.0035372136653844,-0.0434280101531015,0.9995743578251124,0.0001882218712132287,0.002237806650131192,0.029087110073678056,3.0450000000000728,8.0,-0.0118047065166183,0.003827222080095,0.980152539799396,-0.007146679684913,-0.0174640604987851,-0.0313503902257455,0.9997537502332963,0.0021682177261245664,0.0003529712792771919,0.02208196407994773
46,3.112999999999829,0.0,0.0009757394514,0.016883226084339,0.9789193044421524,-0.0197336240143775,-0.0162939549608791,-0.0382755159927813,0.9995975992457704,0.005969723706600992,-0.0026138191958973017,0.027607425272380103,3.112999999999829,1.0,-0.0245450723996489,0.0067451671481874,0.97825305629016,0.0169844475960232,-0.0005231383142254,-0.0444309055618686,0.9997878375693464,0.004335194388549486,0.012508251204663968,0.015780671399684157,3.112999999999829,2.0,-0.0226009414831129,0.003687983755818,0.9796037955315884,0.0187944514000788,-0.0103730507207478,-0.028696095882151,0.9998118431831827,0.0021141993019423207,0.010454184202350413,0.016202420332223837,3.1140000000000327,3.0,-0.0096486203365755,0.0027250100601828,0.9795052212447736,0.004035718341981,0.0040993851705385,-0.0679008573411141,0.9994373778353006,0.0011132463455481062,0.006219223826762346,0.03293948577718497,3.1140000000000327,4.0,-0.0053320544909931,0.0053842164779448,0.9792852390431624,0.0075685992699678,-0.022480905864628,-0.0460285631868184,0.9990217446607204,0.0031960971951142058,0.00040106251623543395,0.04410416994602549,3.088999999999942,5.0,-0.0146072644653603,-0.0007915947990041,0.9804345981260112,0.0048801111517814,-0.0257245147873008,-0.0390553021390713,0.9999334570729471,-0.002580360504584802,0.009426830347706855,-0.006128461096109994,3.088999999999942,6.0,0.0045224270178731,0.0067455921909072,0.979946960115629,0.0027020248652252,-0.0016653566939749,-0.0054923228112849,0.999952911461798,0.0015795822005303926,0.0008960009067617358,0.009532940864201388,3.088999999999942,7.0,-0.0056210509385168,-0.0050389441962203,0.979936228959688,0.0101545363145296,-0.0029212360276814,0.0127895899498289,0.9995557051952765,0.0004172553286309238,0.002161732494404964,0.029724485229971506,3.090000000000145,8.0,-0.0108144959744125,0.0037470661619047,0.9800382677079492,-0.0052530279071885,-0.0148086999843897,-0.0076397132764845,0.9997628002761557,0.0018839616784980455,0.00012812683977563244,0.02169740666270161
47,3.1840000000001965,0.0,0.0007733850583487,0.0159787145131594,0.9792946862707148,-0.0094794593386985,-0.0144288678957982,-0.0454568708865011,0.999657938488054,0.005741322612541864,-0.003090615361541246,0.0253276791111999,3.184999999999945,1.0,-0.0232340587354784,0.007142593701426,0.9786041906051152,0.0152761244547454,-0.0122616510546282,-0.0277488729637411,0.9998137848639541,0.005003738553318904,0.011855870793237291,0.014380421559857982,3.184999999999945,2.0,-0.0207475588677187,0.0030367748089549,0.9792284293257576,0.0112276133476517,-0.0092158789895522,-0.0559759907422628,0.9998566714188736,0.0025801329995473765,0.0100258860555643,0.01339631074871128,3.184999999999945,3.0,-0.0094042528117613,0.0040590009724972,0.979906161088988,0.0183156642545062,-0.000198095605691,-0.0675296042367733,0.9995421684395769,0.0020877958032373984,0.006110960393089293,0.02955927575003858,3.184999999999945,4.0,-0.004680260202368,0.0065078300456593,0.9787260818597484,0.0147698173387791,-0.0087985777435647,-0.0744399307578171,0.9991764467522007,0.003953848572673686,0.0002222284001046684,0.04038249560946997,3.1529999999997926,5.0,-0.0120697417810294,0.0004038729895643,0.9800715066871126,0.032042600476826,-0.0491363726331157,-0.039750607563662,0.9999447534935608,-0.0007296922919112531,0.006631710820450743,-0.008122679450470065,3.1539999999999964,6.0,0.0045224270178731,0.0067455921909072,0.979946960115629,-0.0049743675881642,0.003622735592554,-0.0141445438427565,0.9999596035518757,0.0015169140015337302,0.0007587837149616508,0.008826918123632895,3.1539999999999964,7.0,-0.0065124356859041,-0.0032494838709367,0.9798790889880292,0.0018893338673478,-0.0059729096483939,-0.0638040563996669,0.999645899682836,0.00029631353560287795,0.0019779993323339657,0.026534410945478353,3.1539999999999964,8.0,-0.009757491205112,0.004657874367839,0.9798076829519944,-0.0050057444607551,-0.0134700707685984,-0.0155999590199327,0.9997798243045327,0.0016866765537102849,-5.92099533822125e-05,0.020915413693792656
48,3.215000000000145,0.0,0.0026031203946128,0.0153560110408456,0.978780576375075,0.0010240207551385,-0.0193755877398867,-0.0577586598258434,0.999722711067501,0.00603931492071122,-0.00384437121435566,0.022433199974604842,3.215000000000145,1.0,-0.0228225452752477,0.0079766352503837,0.978971656748673,0.0203389989215595,-0.0033692831214424,-0.050751938450026,0.9998442463327962,0.005882990028227026,0.011702462085892398,0.011829027206787296,3.215000000000145,2.0,-0.0218768918203365,0.0055029116401562,0.9800301625806024,0.0209078966513982,-0.0126188954636832,-0.0431926179467188,0.9998849999543395,0.003619910876206634,0.009533792855729547,0.011224522499553979,3.215000000000145,3.0,-0.0094042528117613,0.0040590009724972,0.979906161088988,0.0087060395177393,-0.0036066071981684,-0.0612147402821224,0.9996288150880129,0.0024935995419085514,0.005825808233814733,0.026496678385842628,3.215000000000145,4.0,-0.0040364506328628,0.0071934384697947,0.9790658616810564,0.0079101143781384,-0.0137388734209274,-0.0514737324883024,0.9992756116445165,0.004339566112724663,-0.0002384849580959608,0.037806920839383834,3.230999999999767,5.0,-0.0079032791325307,0.0031272220812606,0.9795982639128182,0.0580340217266352,-0.0647222345977349,0.0175143627049372,0.9999659471217136,0.0023872914452306867,0.0031088692149148695,-0.007262256449217016,3.230999999999767,6.0,0.0045224270178731,0.0067455921909072,0.979946960115629,-0.0202022197476947,-0.0006488145559865,-0.0259814249532829,0.9999713237594059,0.0007006386700152919,0.00041476497694563716,0.007529192143198387,3.230999999999767,7.0,-0.0056210509385168,-0.0050389441962203,0.979936228959688,-0.0016329073842751,-0.0040396750786864,-0.0643839038574644,0.9997264324470406,-8.059031425627013e-05,0.0018557212403033099,0.023315447038233086,3.230999999999767,8.0,-0.009757491205112,0.004657874367839,0.9798076829519944,-0.0018134133930481,-0.0107212993970785,-0.0173575453804497,0.9997976685447356,0.0016658428742895718,-8.69273181652097e-05,0.020045931848391835
49,3.28899999999976,0.0,0.003154859746441,0.0165519311122343,0.9792957063300316,0.000652363056384,-0.0181466903170203,-0.0517432491817944,0.9997729571049674,0.006346684281381713,-0.004491970864601564,0.019838750917669002,3.289999999999964,1.0,-0.022411031815017,0.0088106767993414,0.9793391228922308,0.0070702746338529,-0.0056780606597557,-0.0572504113414697,0.9998763342009577,0.006054172856173688,0.011418977603050225,0.008959366405245276,3.289999999999964,2.0,-0.0218768918203365,0.0055029116401562,0.9800301625806024,0.0075790441280246,-0.0090988631083263,-0.0453659657879577,0.9999095366509093,0.003888476910744576,0.009257554681883223,0.008949633690277433,3.289999999999964,3.0,-0.0086100213490832,0.0046665126556258,0.9798949388541628,0.0075137792993039,-0.012374651929201,-0.0448099826053723,0.9996888445698124,0.0028495235956246903,0.005086474656399889,0.02425328912789449,3.289999999999964,4.0,-0.0033926410633576,0.00787904689393,0.9794056415023644,0.0099994694464727,-0.0034171163052416,-0.0598226002938647,0.9993821638321378,0.004807815648831738,-0.0001638058213524698,0.03481592581756128,3.286000000000058,5.0,-0.0042852205821924,0.0071131320963593,0.9794493556260788,0.0414700823978117,-0.0356928859260519,-0.0497743270871402,0.9999411864254582,0.0045659134735305616,0.0012258357051521764,-0.009760812006349857,3.286000000000058,6.0,0.0054501526980675,0.0056783415251151,0.979964311734408,-0.0115547835561764,0.0027995703815959,-0.0147030217388149,0.9999768295798598,0.000343291158518696,0.0002332849328812857,0.0067947062285718595,3.286000000000058,7.0,-0.0056210509385168,-0.0050389441962203,0.979936228959688,0.0092061051945692,-0.0041870529477449,-0.0487103919999042,0.9997804643089212,0.00012430621411206458,0.0017526072715079736,0.020879082881080344,3.286000000000058,8.0,-0.009757491205112,0.004657874367839,0.9798076829519944,-0.0007790487959303,-0.0067218969359484,-0.0111997605428935,0.9998087163700333,0.0016947594927276663,8.84706035546703e-05,0.019484625573007404
50,3.355999999999767,0.0,0.0049845950827051,0.0159292276399205,0.978781596434392,-0.0041579693445582,-0.0152205817303063,-0.0472856354814955,0.9998146289755132,0.006348389398894186,-0.005031187946059763,0.017466905462854534,3.355999999999767,1.0,-0.022411031815017,0.0088106767993414,0.9793391228922308,0.0100246420304712,-0.0077932218776744,-0.0410342478282758,0.9998948359673155,0.006369462124786631,0.011052903448996834,0.0068978462930957525,3.355999999999767,2.0,-0.0192994595421657,0.0066666305776312,0.980081163423786,0.0105464044040309,-0.0099005761590052,-0.0469924161383475,0.999929780162116,0.004340812512217351,0.008839124488805779,0.006592569297892968,3.356999999999971,3.0,-0.0078157898864052,0.0052740243387544,0.9798837166193376,0.0130310401854333,-0.0036020614455692,-0.0503713006906849,0.9997461742746936,0.003466857511950905,0.00482748866215582,0.021731619252197607,3.356999999999971,4.0,-0.0033926410633576,0.00787904689393,0.9794056415023644,0.0129980013174743,-0.0088832909815626,-0.051392525096836,0.9994654164514883,0.005388402275266323,-0.0003677718765201418,0.03224455275267176,3.375,5.0,-0.0011759801521167,0.0090827759721754,0.980122502675722,0.0392618829176499,-0.0380416594352053,-0.0373691953849177,0.9999107482195948,0.006515256229918897,-0.0007501893357886604,-0.0116397700642775,3.375,6.0,0.0053823349840217,0.0046836640138807,0.9800418836771848,-0.012364833908995,0.0092299710651909,-0.0184545324287974,0.9999826767729887,-7.18119028406436e-05,0.00039421885541983967,0.005872443143422648,3.375,7.0,-0.0056210509385168,-0.0050389441962203,0.979936228959688,0.0025811817591201,0.0015158740043262,-0.0661011855022866,0.9998436935836617,-2.950781357907643e-05,0.0019370944841080847,0.01757370749811519,3.375,8.0,-0.0107477017473178,0.0047380302860292,0.9799219550434408,0.0004793953040208,-0.0035196745375195,-0.0117051333991394,0.9998197162358506,0.0017836451033493308,0.0004581508677199191,0.01889824684966351
51,3.425000000000182,0.0,0.0044328557308769,0.0147333075685317,0.9782664664794352,-0.0391040026571066,0.01207972398216,-0.0180095569412427,0.9998440517627193,0.004509425117344648,-0.004167637241170416,0.01655802040237983,3.425000000000182,1.0,-0.0211000181508464,0.0092081033525801,0.979690257207186,-0.0004175753407787,-0.0270717857272727,0.0381645655261299,0.9998953876682912,0.006204484169827682,0.009662008641916374,0.00879566284413739,3.425000000000182,2.0,-0.0190383368499862,0.0078395957825926,0.9793355310964428,0.0118553103901323,-0.0298342676447766,0.0405492800742814,0.9999232287064119,0.004920968915045856,0.007431972506770223,0.00860735400345646,3.425000000000182,3.0,-0.0091598852869471,0.0053929918848115,0.9803071009332026,0.0095127124927972,0.0516059317268731,-0.1256972201186154,0.9998458498003014,0.003774072131875387,0.007431622446818119,0.015453284584978487,3.425999999999931,4.0,-0.0041577851559795,0.0084605041863883,0.9796821590146004,0.0241815574046919,0.0101651889802913,-0.0724941589175497,0.999569247467093,0.00646773500238339,0.00046550756287921095,0.028622914329556985,3.434999999999945,5.0,5.319521215074105e-05,0.0129593369291449,0.979443236107446,0.0630978257041029,-0.0274715818107993,-0.0215309708975808,0.9998701791481229,0.00966443635668117,-0.0020853022399229984,-0.012723012016669937,3.434999999999945,6.0,0.0063778783782619,0.004611090859323,0.979981663353187,-0.0110841052167356,0.0020852855796449,-0.023450549205499,0.9999888721021549,-0.0003827396667145091,0.0001313452639908877,0.004700205381580374,3.434999999999945,7.0,-0.0056210509385168,-0.0050389441962203,0.979936228959688,0.0102325364966539,0.0189077832770322,-0.0623159712162037,0.9998910355468813,0.0002002544699999982,0.0029805202129924067,0.014456605078387625,3.434999999999945,8.0,-0.0107477017473178,0.0047380302860292,0.9799219550434408,-0.0051379660108924,-0.0015791692656953,-0.043414698061477,0.9998584560195295,0.001580256962730458,0.0008848108201355282,0.016726859358140545
52,3.5169999999998254,0.0,0.0023176050619641,0.0078189095698556,0.9791131157123344,-0.0756204298957187,0.0437549188181216,0.0214265622831165,0.9998430122670197,0.000638496978532497,-0.001738453947028161,0.017621603794623308,3.5169999999998254,1.0,-0.0166025171311474,0.0070250283739849,0.9796085980641732,0.0043825667160913,-0.0576314680682099,-0.0132654217717957,0.9999258035399303,0.006173117560413599,0.006670837869563109,0.008110484370746445,3.5169999999998254,2.0,-0.0205296946339922,0.0093982686716248,0.9799240808267808,0.0185778087069703,0.0097512689707774,-0.0525895701462564,0.9999312823270802,0.005804371652277874,0.008250925421754027,0.0059717772168737,3.5169999999998254,3.0,-0.013967809485168,0.0067134386889737,0.978844129593244,0.0443616513436035,0.0704925208540974,-0.1362085795951389,0.9998850596885066,0.005841124824737076,0.011005131756021603,0.00863919831501644,3.518000000000029,4.0,-0.0079755208999688,0.0118057957922585,0.9801658095710568,0.0652084311713426,0.0530319469839755,-0.0415352656120623,0.9995947016044626,0.00959343246431663,0.003606610248642284,0.02655919690714365,3.494999999999891,5.0,0.0011337310781581,0.0157497791556751,0.979657419259605,0.0242197203528915,0.0014463423960533,0.0423175057261297,0.9998846001640679,0.010708280903374124,-0.0019106070976234667,-0.010605124014135497,3.494999999999891,6.0,0.0063778783782619,0.004611090859323,0.979981663353187,0.0021987948719219,-0.0022270487015247,-0.0131346519152428,0.9999917751615832,2.693230740379143e-06,-0.00031691095482357264,0.0040434106121874334,3.494999999999891,7.0,-0.0065124356859041,-0.0032494838709367,0.9798790889880292,0.0084846298812258,0.0106741185879558,-0.0607628847053155,0.9999284247606359,0.0004170599634284965,0.003553394135885799,0.0114168650169484,3.494999999999891,8.0,-0.0107477017473178,0.0047380302860292,0.9799219550434408,0.0103077436194365,-0.0113313096410279,-0.0065906817415498,0.999862899271655,0.002179273854081214,0.0007915109731529855,0.016395332748330615
53,3.574000000000069,0.0,-0.000551739351828,-0.0011959200713888,0.9798200168188392,-0.1945712176250844,0.0170189430122279,-0.0001798142757928,0.9998022595183268,-0.009228508383905005,-0.0008581839949036236,0.017593749324334027,3.574000000000069,1.0,-0.0120285428279699,0.0027372553017554,0.978775674805442,-0.0528469949821498,-0.0661204529582412,-0.0101771462125891,0.9999610102488259,0.003071760035689962,0.0032934530063011805,0.007595751426031085,3.574999999999818,2.0,-0.0181701265895479,0.0042004937464299,0.9792794301689411,-0.0329681948720321,-0.0510313476743095,0.0996485682056904,0.9999160136068426,0.0038408506220633815,0.005774204312768687,0.010948614691100143,3.574999999999818,3.0,-0.0149638730505077,-0.0001935808094033,0.9799847167327655,0.030568251988627,0.0271464159714063,0.0403597529474395,0.999848072973906,0.006779272131410731,0.012024574577401852,0.010643403871285576,3.574999999999818,4.0,-0.0092631400389792,0.0104345789439877,0.9794862499284406,0.0393806509359152,0.013963768865069,0.134519153532171,0.9993744924649437,0.011127367380458495,0.004407834111153328,0.03327726707626539,3.571,5.0,0.0174767993322764,0.0424543672922372,0.9835004769612036,0.1510838342392864,-0.0116977232392572,-0.0084244814450031,0.9997471033627351,0.019330861317611553,-0.003286610015524159,-0.011011144951621147,3.571,6.0,0.0084367828807878,0.005460622061442,0.9797836507624142,0.0378904968241384,0.0390818023487812,-0.2959731547667236,0.9999389884746043,0.0021739955243729988,0.0012792480238315294,-0.010754375683363803,3.571,7.0,-0.0145942866016217,-0.002782881645584,0.9805617075780269,-0.0568464825102178,-0.0421574232531737,0.0430554545997501,0.9999028475544806,-0.0025853460538074985,0.0018059074114277092,0.01357756004018346,3.571,8.0,-0.0061306201717625,-0.0006175699255443,0.9799321579087488,0.1070818772951553,-0.0389812928597416,0.2755793911342864,0.999517948337635,0.007318935440620825,-0.0009367562528999994,0.03015670112368877
54,3.6359999999999673,0.0,-0.0008012221706203,-0.0210936897708194,0.9796914893449292,-0.4846007496941502,-0.0127500290753319,0.0302563333942286,0.9992523311686675,-0.03358174488868645,-0.0017625793372619035,0.019077169032500896,3.6359999999999673,1.0,-0.0069190544525883,-0.0051036007749416,0.9799648360755666,-0.1771733113800552,-0.1270716199236643,-0.0237591451790032,0.9999546586834347,-0.006312574128573317,-0.0031131817194048695,0.006414053690817584,3.6359999999999673,2.0,-0.0154061126217657,-0.0036688160621192,0.979938361062872,-0.1490227614692809,-0.0888485821342401,-0.0646211369184099,0.999960366118459,-0.004160022333372217,0.001443106670611162,0.007738077898320946,3.637000000000171,3.0,-0.0140801557514925,-0.0062908747820451,0.9797796558964114,-0.1293568925093453,-0.0038457604272761,0.061600416168934,0.9998411010239692,-0.0006550750527114647,0.011277661264356267,0.01378977651228779,3.637000000000171,4.0,-0.0082270223647689,-0.0040350485104084,0.9802321329596008,-0.1058217406363647,-0.1163918428413244,0.3937582572731825,0.9985879578194409,0.004790440020014003,-0.0017031573654857953,0.052879499216627164,3.6460000000001855,5.0,-0.0039250419601899,0.0080432795052027,0.979520750010132,-0.1494608712382245,0.1320587227731586,-0.0204109346119881,0.9998668543025282,0.01041351588329562,0.003932886050587744,-0.011931670521261506,3.6460000000001855,6.0,0.0063778783782619,0.004611090859323,0.979981663353187,0.0175904176644522,-0.0019891211634778,0.003372422663567,0.9999390075386637,0.0030669588702565845,0.0007139918248371374,-0.010586084335300441,3.6460000000001855,7.0,-0.0047736564984808,-0.0023994401625103,0.9793750328094653,0.0650917986622498,-0.0072626260046023,-0.021085896359213,0.999920115622691,0.0008047674475366997,0.0015492593520532046,0.012518566927554394,3.646999999999936,8.0,-0.0096906969780172,0.0056488384919635,0.979691370287486,0.0352030914535782,-0.0082588614911471,0.0053721241463098,0.9994996890739458,0.008631809042389133,-0.0007020617821147387,0.030419903402137655
55,3.713000000000193,0.0,0.0039090508238809,-0.0546174778792661,0.9787071321042696,-0.4932237349250853,-0.0725311531448155,0.0298790794829364,0.9981126616113642,-0.05754516309751859,-0.005842479105878136,0.02062848450700899,3.713000000000193,1.0,0.0019536348292803,-0.0279936186730638,0.9784408723190896,-0.3769330181052554,-0.1163748431350513,-0.2190277712855688,0.9996130348382045,-0.02587670055365457,-0.009130716405391167,-0.004561465546857885,3.713000000000193,2.0,-0.0082849873964831,-0.0228411396632271,0.9790948071166168,-0.3969133148655679,-0.1187498258198003,-0.3653657995905042,0.9996275053074097,-0.02473021836421564,-0.004828473773362611,-0.01048583680794216,3.713000000000193,3.0,-0.0122985426794112,-0.0201406350283069,0.9798796358066736,-0.3126222376862558,-0.0241501961497959,0.175993201834175,0.9995493795968462,-0.017133281589685048,0.009489346155088764,0.02274732333874297,3.713000000000193,4.0,0.0002178671894264,-0.0217851174561996,0.9794454355354908,-0.2671983745192343,-0.1924766260214115,0.4934909068314728,0.996887163706944,-0.009649243465218784,-0.011664172871103232,0.07737455659392614,3.731999999999971,5.0,-0.0200099437953973,-0.0147438059316551,0.9793636823652154,-0.4572648168687598,0.3182051855045685,0.0093309062330256,0.9996233381442388,-0.014034688370129068,0.020750826346966702,-0.01120770117555219,3.731999999999971,6.0,0.007373421772502,0.0045385177047653,0.979921443029189,0.0249106301388198,0.0047488481884004,0.0264223285554343,0.9999479977345074,0.004236763267514175,0.0004825958691797816,-0.009263841805200134,3.731999999999971,7.0,-0.0008693895937115,-0.0004250218542132,0.9803015166356512,0.071325014042135,-0.0701853447034889,0.0064899818502808,0.9999062844995407,0.004312400368028807,-0.0020273095978469552,0.012834151206216508,3.733000000000175,8.0,-0.0103579621475057,0.0088094280930886,0.9804433214606664,0.0466871854883144,0.0058335993816631,0.0675087674559449,0.9993734489135773,0.0105232781645857,0.00023664821192381544,0.0337922213072235
56,3.7409999999999854,0.0,0.0049457593911095,-0.0938095146085,0.9754041800366464,-0.6337015589969764,0.0190312920794639,-0.1274365136616443,0.9959966192129505,-0.0880914287539549,-0.005874231939005269,0.014004574095143166,3.7409999999999854,1.0,0.0101272978026611,-0.0569388442225265,0.9778365946607944,-0.5819383909512955,-0.1056422107550989,-0.3728810811230656,0.9980989948352634,-0.055077901657277974,-0.014882378807052708,-0.02330957011424799,3.7409999999999854,2.0,0.0016434102550347,-0.0550713017305928,0.9774689002359264,-0.5774764611401074,-0.0914742877262806,-0.5891020615711509,0.9977030780635118,-0.05376266851597496,-0.010240610398813502,-0.03991582888147711,3.7409999999999854,3.0,-0.0150705747705901,-0.0511291931367401,0.9774250269894208,-0.5477482295669105,0.0765301432729323,-0.0187273598316764,0.9986463822318783,-0.045487778633345945,0.012402859154569325,0.021964387880764748,3.7409999999999854,4.0,0.0090107908747319,-0.0442123938389298,0.9786077201201936,-0.451959581323864,-0.1287765829510413,0.3652338048478391,0.9947240953294515,-0.033085649411018665,-0.01867515600155537,0.09529193314427589,3.7649999999998727,5.0,-0.0380514195561478,-0.0506200482271546,0.9775196674171024,-0.4882238105377333,0.2600511255265537,0.2802269551256946,0.9986355800703265,-0.03912714293806205,0.03444323701097263,0.003115818883187632,3.7649999999998727,6.0,0.0065135138063534,0.0066004458817918,0.9798265194676332,0.0316678651253278,0.0461855586060516,-0.0393282450261671,0.9999176338261763,0.005750496887982371,0.0024046010819374843,-0.011219413649519044,3.7649999999998727,7.0,0.0087189024006969,0.0009903152372244,0.9800535699729164,0.0646354332465982,-0.1603136327734465,0.1167365072231163,0.9997469898071599,0.007259214844349896,-0.010283106601986064,0.018641831722722754,3.7649999999998727,8.0,-0.0110142015542377,0.0138444046319013,0.9799760302295718,0.081709423086564,0.0319490147832323,0.1510614313985673,0.9990411968910654,0.01418698543650182,0.0024250319591701806,0.04134653043109048
57,3.844000000000051,0.0,-3.153574956447913e-06,-0.1308117463500311,0.9714871522603424,-0.7387168953868862,0.1825775302716139,-0.1642519733417748,0.9924352688959877,-0.12265600487422197,0.002156992363910485,0.0048050914232566876,3.844000000000051,1.0,0.0152093269896481,-0.0990482248107104,0.975195942123617,-0.6725000869465828,-0.0055799059749624,-0.5550969996786427,0.9946976701660316,-0.087635498832309,-0.015967741204525644,-0.05139645465891893,3.8449999999998,2.0,0.0109486603829848,-0.0893818929450889,0.976375442158072,-0.6392100474067662,-0.0866737251642688,-0.6176820841577181,0.993793461895402,-0.08453791921829423,-0.015228134285193727,-0.07068238277240863,3.8449999999998,3.0,-0.0244266476139568,-0.0899670079234948,0.9751693577895264,-0.6670361729195866,0.1941580763333424,-0.2581635328101903,0.9966175366861165,-0.07914368750038156,0.020222469793398052,0.008989661506125075,3.8449999999998,4.0,0.005523424424719,-0.0822942611417067,0.9767078101283746,-0.6358216437255673,0.0862621583497566,-0.0156500534093771,0.993286752668743,-0.06588765529110893,-0.016275077964654452,0.09367692186588801,3.779999999999745,5.0,-0.0606661638825681,-0.0942232610444939,0.9733563549070376,-0.6027892006342163,0.2242569995748603,0.5153633712676366,0.9960676046013034,-0.06917057367264225,0.04691168108195573,0.02939477810231055,3.779999999999745,6.0,0.0035947013376787,0.0078128428566992,0.9799296084968498,0.0195627489679392,0.0475933665820321,0.1211371512981666,0.9999557539790694,0.006591239129250387,0.004304881899755713,-0.0051491399982114845,3.779999999999745,7.0,0.0213610555499341,0.0027859877286599,0.9790781090281656,0.1198501345014676,-0.1921342901514688,0.1281961522052451,0.9994060839790447,0.012797646669090501,-0.01991317780492826,0.025043260472888306,3.779999999999745,8.0,-0.0145074841333977,0.0211017771735337,0.9796189299438012,0.0587247483772242,0.0629153711683608,0.0355561323394934,0.9989110847339742,0.016620791807100715,0.006200738071564922,0.04315025982155621
58,3.925999999999931,0.0,-0.0145198961604073,-0.1821354753109369,0.9625351116965812,-0.7860996981436126,0.3153368176500954,-0.2479029987121095,0.987176157603372,-0.15855404962364264,0.016045244333056395,-0.009295017034873572,3.925999999999931,1.0,0.0176340550435701,-0.1487633376968611,0.9683018689747582,-0.7658290978258934,0.0605472773289362,-0.591646077303366,0.9888812751134176,-0.12366957503724894,-0.013567633262128885,-0.08145906498255465,3.925999999999931,2.0,0.0149837585930822,-0.1358659768243678,0.9703797830334184,-0.7022406041560977,0.0547989928600478,-0.7493533519285045,0.9871326081721843,-0.11687248756450941,-0.013163048447524016,-0.1083363728820237,3.927000000000135,3.0,-0.0361326429052238,-0.130711474211494,0.9707131103606984,-0.7007921511334534,0.2886893989809592,-0.4380594327455367,0.9929798596943404,-0.11323152218973671,0.031509214250967164,-0.013296241622720292,3.927000000000135,4.0,-0.0055834440750323,-0.1128095349455849,0.9739773272400246,-0.6523944964293754,0.3049673457993769,-0.3680213910290312,0.9923908488366222,-0.09851124366427293,-0.0046264526181879735,0.07371929159466122,3.855000000000018,5.0,-0.0614700713035788,-0.1184319308859609,0.9706556073502876,-0.3186029683629812,-0.0093316020258858,-0.1192411421161077,0.9951688807907889,-0.08451113221986029,0.04374743543979763,0.024143925301547704,3.855000000000018,6.0,-0.0011795624913845,0.0111597411631909,0.9799979942885084,0.0038143691939493,0.0944932154920431,0.1462618871917541,0.9999377904199048,0.006748046944398414,0.008605543657326483,0.002196308483878703,3.855999999999767,7.0,0.040239315968992,0.0132920040583897,0.9785934396257004,0.1631811355176403,-0.3194558527680801,0.162675705644769,0.998594206795612,0.020631634583858312,-0.035868888185450545,0.03312655534432483,3.855999999999767,8.0,-0.0191245657089529,0.0264573773851074,0.9796087270784932,0.190619832219713,0.0338445325084694,-0.07035562998336,0.9988469154019397,0.02568966345446644,0.008805333927559094,0.03958973197750594
59,3.9589999999998327,0.0,-0.0335003294318668,-0.2288672163067577,0.9515857949906316,-0.6971603766114121,0.427213164346312,-0.4185795046838462,0.9809189226142785,-0.18868897615056177,0.03358183319305562,-0.032661874041298875,3.960000000000037,1.0,0.0143909614568084,-0.1918088926936438,0.960781061903276,-0.7916259664688478,0.1679250042860159,-0.8007737296907135,0.9797396347577898,-0.1585665541893887,-0.007041739126679538,-0.12213643963718632,3.960000000000037,2.0,0.0186144108798417,-0.1796785258202923,0.9630805423569946,-0.6749515238963593,0.1484827435548377,-1.056121364114072,0.9760988792801576,-0.14570477664230175,-0.00858724249132929,-0.161019735430264,3.960000000000037,3.0,-0.0533938434432051,-0.1724822941312961,0.9630809704762976,-0.6213204379470654,0.4404297304268967,-0.6896912256868856,0.9874586262579674,-0.14206781172737715,0.048436125150633336,-0.048950383860749916,3.960000000000037,4.0,-0.020545185272695,-0.147000454150696,0.9683092284191034,-0.5311772194505722,0.3232346415616206,-0.4768667208972684,0.9911306733380227,-0.12358336612498703,0.007442332955758157,0.04828821456536449,3.914999999999964,5.0,-0.0570362112231262,-0.1244589442518809,0.9707820774020388,0.026645045633179,-0.1159871681992804,-0.1658686158248773,0.9959097801337243,-0.08138278051669068,0.03571625365814851,0.01627581315927923,3.914999999999964,6.0,-0.0100232516564468,-0.0002689459656572,0.9804154538226634,-0.2793846930962312,0.1293489535074386,0.3321165615709662,0.9996801917028387,-0.0077792675963424115,0.014817721071215408,0.01895870393502726,3.914999999999964,7.0,0.0593939048041334,0.0183371604207618,0.97778837823929,-0.0018568150279427,-0.2419315921766585,-0.449025964307597,0.9986306379951994,0.020712080651076194,-0.04688856448680569,0.010455672755551669,3.914999999999964,8.0,-0.016553345241986,0.0464115865705297,0.9791414358473988,0.4547988068836851,-0.1182852662324121,-0.0998586847578386,0.9982366163440067,0.04833606893399065,0.004097487705201773,0.03421246592373917
