,Unnamed: 0,timestamp,node,accx,accy,accz,gyrox,gyroy,gyroz,q0,q1,q2,q3,timestamp.1,node.1,accx.1,accy.1,accz.1,gyrox.1,gyroy.1,gyroz.1,q0.1,q1.1,q2.1,q3.1,timestamp.2,node.2,accx.2,accy.2,accz.2,gyrox.2,gyroy.2,gyroz.2,q0.2,q1.2,q2.2,q3.2,timestamp.3,node.3,accx.3,accy.3,accz.3,gyrox.3,gyroy.3,gyroz.3,q0.3,q1.3,q2.3,q3.3,timestamp.4,node.4,accx.4,accy.4,accz.4,gyrox.4,gyroy.4,gyroz.4,q0.4,q1.4,q2.4,q3.4,timestamp.5,node.5,accx.5,accy.5,accz.5,gyrox.5,gyroy.5,gyroz.5,q0.5,q1.5,q2.5,q3.5,timestamp.6,node.6,accx.6,accy.6,accz.6,gyrox.6,gyroy.6,gyroz.6,q0.6,q1.6,q2.6,q3.6,timestamp.7,node.7,accx.7,accy.7,accz.7,gyrox.7,gyroy.7,gyroz.7,q0.7,q1.7,q2.7,q3.7,timestamp.8,node.8,accx.8,accy.8,accz.8,gyrox.8,gyroy.8,gyroz.8,q0.8,q1.8,q2.8,q3.8
0,0,0.004,0.0,-1.95e-16,1.36e-16,1.0,-0.083578608,0.080191746,-0.264303561,0.9998961424474988,-0.0041784963865165,0.0039539513003473,-0.0132140363127071,0.004,1.0,1.68e-16,2.34e-17,1.0,-0.032335908,0.118275701,-0.423363319,0.9997574498489789,-0.0016164032460315,0.0058781343683888,-0.0211630869288957,0.004,2.0,8.76e-17,2.14e-17,1.0,-0.038557596,0.13132088,-0.432820796,0.9997427884747572,-0.0019273839270961,0.0065226445455317,-0.0216355538881534,0.004,3.0,6.91e-17,5.85e-18,1.0,-0.029559152,0.029261555,-0.284368131,0.9998968020399472,-0.0014778050777906,0.0014419147299631,-0.0142169702943432,0.005,4.0,6.77e-17,-1.46e-16,1.0,-0.054895979,0.000979837,-0.361340985,0.9998330632567838,-0.0027443407422025,-5.984678880408399e-07,-0.0180641692886426,0.0,5.0,-6.35e-17,4.62e-17,1.0,-0.032469941,-0.004101552,-0.09077897,0.9999883586841308,-0.001623478150358,-0.0002124440963422,-0.0045389076240277,0.0,6.0,2.51e-17,-9.89e-17,1.0,-0.001277775,-0.016418387,-0.167812401,0.9999644612065128,-6.388647947091255e-05,-0.0008214262226923,-0.0083903218917341,0.0,7.0,-7.04e-17,3.09e-17,1.0,0.067899815,-0.007540615,-0.148631194,0.9999665621379096,0.0033948772287675,-0.000351788910098,-0.0074313968575436,0.0,8.0,-3.97e-17,7.33e-17,1.0,0.009348194,0.021442501,-0.131135855,0.9999778177107048,0.0004673993317828,0.0010751659083619,-0.006556648737769
1,1,0.08,0.0,-0.003661493,-0.005153238,0.98002757,-0.056428183,0.064488985,-0.226549421,0.999651410320328,-0.0068434095316546,0.0069316694720517,-0.0245393062023242,0.08,1.0,-0.004995196,-0.001411391,0.980196948,-0.015195713,0.090376498,-0.287609872,0.9993153967055532,-0.002269378454976,0.0100452571522449,-0.0355342178385343,0.081,2.0,-0.006841199,-0.002403232,0.9793791,-0.014392145,0.079704349,-0.222430804,0.9994082728405508,-0.0025551476643044,0.0101918746504378,-0.0327521158002192,0.081,3.0,-0.003416918,-0.001459236,0.980230685,-0.018374186,0.102550378,-0.336211845,0.9994944880560122,-0.0022713682602081,0.0065726218415483,-0.0310227315690409,0.081,4.0,-0.003784681,-0.002161939,0.97921295,-0.016254138,0.075339478,-0.364957429,0.9993275354786524,-0.0033205105678264,0.003913100310228,-0.0363061797727834,0.115,5.0,0.010998384,-0.014108634,0.97983416,-0.242451361,-0.203480103,-0.172299438,0.9997503675267454,-0.0143469861718257,-0.0109889770758605,-0.0131380744688533,0.115,6.0,0.000216694,0.002772074,0.97958117,0.10790448,0.083790348,-0.116914328,0.9998776464836958,0.0055184018493334,0.0034244961428702,-0.0142306756488189,0.115,7.0,0.002737037,0.004416419,0.980199471,0.052067229,-0.053374132,-0.086741937,0.9999085988602384,0.0058643947292244,-0.003120258764044,-0.0117756861821331,0.115,8.0,-0.003258629,0.001534591,0.979046999,0.04500952,0.055282246,-0.059419764,0.9999432092005278,0.0027653908798901,0.0038909514062455,-0.0095284565478886
2,2,0.183,0.0,-0.007110992,-0.006188904,0.980195966,-0.036627072,0.064394271,-0.1593977,0.9993889959214908,-0.0082720924593281,0.0098054578279041,-0.0325124639817429,0.183,1.0,-0.009576762,-0.001498959,0.980236726,-0.034124777,0.070133458,-0.182537849,0.9989106406718756,-0.0037729230938441,0.0130604165981614,-0.0446399207225203,0.184,2.0,-0.009557343,-0.003556052,0.979920921,-0.019993359,0.038427,-0.132497903,0.999151558119744,-0.0034683841810028,0.0115954099058778,-0.0393659838842585,0.184,3.0,-0.006179363,-0.002133276,0.979274356,0.015696649,0.085298739,-0.213868347,0.9990738295308798,-0.0012970947100162,0.0104565777159705,-0.0417188287741349,0.184,4.0,-0.008212344,-0.003186515,0.979801206,0.00124571,0.102017968,-0.235135142,0.9987994845304696,-0.0029341835306079,0.0090041611823921,-0.0480614746972885,0.143,5.0,0.030074156,-0.033067384,0.978537732,-0.327070396,-0.319221024,-0.218220541,0.9988527411282884,-0.0310401503832298,-0.0274658779958577,-0.0239861658171474,0.144,6.0,-0.007971296,0.006435223,0.980314769,-0.05062059,0.064376259,-0.105859145,0.9997832052548692,0.0027976213474864,0.0067527333811923,-0.0194965739805362,0.144,7.0,0.005629464,0.00648169,0.979592414,-0.004565337,-0.04288419,-0.084846739,0.9998435054846376,0.0053650869421212,-0.0052178268881236,-0.0160298055153621,0.144,8.0,-0.006689716,0.005276144,0.978569062,0.057346245,0.054417085,-0.092676952,0.9998622638695336,0.0056364348298561,0.0065602826018473,-0.0141649773838191
3,3,0.229,0.0,-0.010670418,-0.006009029,0.979649955,-0.013315282,0.062806911,-0.112427191,0.9991591782084815,-0.008351921347644,0.012491500374605,-0.0381463553953127,0.23,1.0,-0.013709071,-0.002409877,0.979929719,-0.034226808,0.053813287,-0.190727834,0.998404238017538,-0.005200282414525,0.015171490218656,-0.0541457334974244,0.23,2.0,-0.010462724,-0.003940325,0.980101528,-0.046470829,0.038381792,-0.205410609,0.99866939233532,-0.0056652836834523,0.0129266029150751,-0.0496009305403114,0.23,3.0,-0.011650313,-0.002276667,0.979493791,0.007051931,0.113328991,-0.213033615,0.9985052877966056,-0.0007815459624082,0.0156444093867402,-0.052362504553038,0.23,4.0,-0.016876912,-0.000973246,0.979637802,0.036989809,0.123609585,-0.129057431,0.9983984888991516,-0.0005635358861737,0.0150441093153983,-0.0545326926357185,0.233,5.0,0.047000649,-0.04950685,0.977425194,-0.230971357,-0.164129214,-0.121652532,0.9980390310138036,-0.0420736848105192,-0.0352244915418286,-0.0301186456387507,0.234,6.0,-0.009642981,0.003601565,0.979895424,-0.048852014,-0.000491817,-0.124073547,0.999648436490427,0.0002270201887902,0.0065901280400095,-0.0256811622886287,0.234,7.0,0.011084144,0.006717891,0.980029087,-0.004396318,-0.076803807,-0.082999264,0.9997427129549454,0.0049024664224067,-0.0090821680618033,-0.0201987113390952,0.234,8.0,-0.011456751,0.009645897,0.980045764,0.041985516,0.06181864,-0.112161997,0.9997291678244316,0.0076786739495113,0.009584960853757,-0.0197675869260413
4,4,0.281,0.0,-0.015521702,-0.007215852,0.979742828,-0.013261545,0.057264064,-0.130905707,0.9988537438543263,-0.0084893157650417,0.0148773684186846,-0.0446966868455823,0.281,1.0,-0.015884103,-0.002587471,0.980417258,0.01088392,0.031500359,-0.230297422,0.9977060457007464,-0.0043146394014895,0.0159620710382616,-0.0656448211756648,0.281,2.0,-0.014336014,-0.005334077,0.979866841,-0.004896332,0.032397254,-0.238760546,0.9979927048188773,-0.0056524486812318,0.0139387522691406,-0.061516844338659,0.281,3.0,-0.016967912,-0.00143607,0.97962239,0.024622477,0.058434528,-0.117055258,0.9981445581208834,0.0005590134616323,0.0178036610490721,-0.0582250654861425,0.281,4.0,-0.021845486,-0.000624865,0.978546056,0.012153315,0.087682518,-0.12756622,0.9979625805478954,0.0002713120874348,0.0189993311276575,-0.0609068110529378,0.249,5.0,0.040282606,-0.047300572,0.977440519,0.094723749,0.15796735,-0.066150551,0.9984740318522112,-0.0352577480035009,-0.0260570119413184,-0.0335787291480953,0.249,6.0,-0.007243905,-0.001153709,0.978618002,-0.030303081,-0.027349275,-0.27208132,0.9992155401972446,-0.0014838172515933,0.0049544412939177,-0.0392626543442724,0.249,7.0,0.010402541,0.004871056,0.980382099,-0.034649831,0.046381708,-0.163415624,0.9995728566185008,0.0030390238801862,-0.0063311682906441,-0.0283687319678049,0.249,8.0,-0.013685795,0.009480912,0.980110102,0.021487646,0.024956005,-0.092180201,0.9996110567572978,0.008462534265948,0.0105798796688521,-0.0243759485671547
5,5,0.334,0.0,-0.0189712,-0.008251518,0.979911224,-0.010682331,0.041263176,-0.140204725,0.9984911555773002,-0.0085630681840084,0.016399046534098,-0.0517025857182822,0.334,1.0,-0.018290637,-0.002497445,0.979969497,0.006416208,0.02084369,-0.298859241,0.9966116358018308,-0.0037994253240182,0.0162651210528207,-0.0805373055716639,0.334,2.0,-0.016146777,-0.006102624,0.980228055,-0.008290582,0.036460322,-0.308012265,0.996909216718181,-0.0058626742374257,0.0151375533697278,-0.076866749320543,0.334,3.0,-0.019328644,-0.002088201,0.979581565,-0.008194391,0.041353396,-0.165349133,0.9976059421573176,1.8660929321146263e-05,0.0191008765817686,-0.0664645795743014,0.335,4.0,-0.024993878,-0.00202855,0.979603078,-0.007346794,0.031954651,-0.198724369,0.9972896248070424,-0.0002392437769195,0.0199916627419854,-0.0708073473267727,0.312,5.0,0.033181464,-0.046265638,0.978149519,-0.008902753,0.082628744,-0.138885026,0.9983606956179804,-0.0342735023071863,-0.0211630440056317,-0.0406617025368741,0.312,6.0,-0.001826499,-0.004399778,0.978956744,-0.06947579,-0.109480082,-0.215208595,0.9987358455489485,-0.0052937781316676,-0.0008268427439557,-0.0499800266086008,0.312,7.0,0.005629464,0.00648169,0.979592414,0.03530831,0.068133608,-0.218108899,0.9992139166321584,0.004987155529872,-0.0025860355663609,-0.0392427000650057,0.312,8.0,-0.019518385,0.015264442,0.979380942,0.015597497,-0.001477086,-0.138874797,0.999412820714564,0.0091233932515897,0.0104691187885786,-0.0313237136803114
6,6,0.441,0.0,-0.021991737,-0.006881722,0.979907141,0.023004356,0.03533778,-0.118824375,0.9981581810267428,-0.0068574445584513,0.0175609806149018,-0.0576613654308951,0.442,1.0,-0.018290637,-0.002497445,0.979969497,0.002881301,-0.012533007,-0.239796359,0.9955979022519762,-0.0035735099301519,0.0149001670329685,-0.0924663835165685,0.442,2.0,-0.016710253,-0.007398921,0.980182138,-0.017684698,-0.012531673,-0.284431252,0.9957315613537469,-0.0067308341810418,0.013850164670233,-0.091002892997224,0.442,3.0,-0.021536027,-0.001756344,0.979449904,0.03046898,-0.009226368,-0.036978853,0.9975034667930596,0.0014540895046102,0.0177348776995019,-0.0683388138068251,0.442,4.0,-0.024350896,-0.003165913,0.979061801,-0.012763683,0.001098074,-0.115815497,0.9968762612716232,-0.0010365544156835,0.0193380763445876,-0.0765681661746214,0.398,5.0,0.031299916,-0.047461155,0.977974823,-0.160377722,-0.070256571,-0.057754333,0.9979058362752932,-0.0414159527734736,-0.0238438025543212,-0.0435905249259919,0.399,6.0,0.006191264,-0.010654918,0.979724013,-0.061087053,-0.071351243,-0.200389582,0.9981538688120588,-0.0085416421987456,-0.0045262789722487,-0.0599617154752381,0.399,7.0,0.001821419,0.013365546,0.97992604,0.076438242,0.035526067,-0.055158394,0.9990770738403892,0.0090613170563829,-0.0007973610865828,-0.0419792481474695,0.399,8.0,-0.017116882,0.013222465,0.979632165,-0.036087692,-0.034938074,-0.070315135,0.9993313832043196,0.0070180614768609,0.008609488592739,-0.0348340359737365
7,7,0.49,0.0,-0.025768131,-0.004989735,0.979508094,0.041550646,0.055765185,-0.061025288,0.9979479225532408,-0.0041697576848785,0.0197823057209157,-0.060755389661199,0.49,1.0,-0.019153524,-0.002997917,0.980039874,-0.027508492,-0.004177232,-0.198347099,0.9946393156706048,-0.0048133892138797,0.0142686070218634,-0.1023028340772738,0.49,2.0,-0.016026442,-0.009222969,0.97972909,-0.030906219,-0.027322178,-0.15315059,0.9950214549189742,-0.0082200225498817,0.0120407099050841,-0.0985888268780446,0.49,3.0,-0.02213216,0.000388515,0.979660154,0.047891685,0.047880742,-0.011484249,0.9974253169063086,0.0039474887357372,0.0193132801066254,-0.0689503570589297,0.491,4.0,-0.025481657,-0.003954859,0.979376355,0.007256356,0.032098698,-0.163622996,0.9961976099501544,-0.0007084321115516,0.02028155974615,-0.084725901516636,0.444,5.0,0.040702697,-0.059616315,0.977058435,-0.201361743,-0.202786221,-0.026154534,0.9971541521079604,-0.0508544672211739,-0.033139728548652,-0.044712173836958,0.444,6.0,0.007491442,-0.012159453,0.979938277,-0.01273077,0.032489866,-0.049760697,0.998004223478827,-0.0088562441713796,-0.0027805871146658,-0.0624612295179831,0.445,7.0,0.000224199,0.020467838,0.980005621,0.056112962,0.042756012,-0.075365942,0.9988802160682376,0.0120929879225564,0.0012903188021775,-0.0457209871718053,0.445,8.0,-0.013685795,0.009480912,0.980110102,-0.103607282,-0.058458115,-0.044703315,0.9992963371580944,0.0015259787207704,0.0056921979141516,-0.0370418791945805
8,8,0.558,0.0,-0.029761491,-0.001385636,0.97925601,0.064096154,0.077603933,-0.009013662,0.9978557279389946,-0.0003064150796488,0.0230014535069239,-0.0612763042758557,0.559,1.0,-0.020879299,-0.003998862,0.980180628,-0.0154929,0.002516159,-0.142304438,0.993888483377508,-0.0052847886617966,0.0140884957404839,-0.1093584377454593,0.559,2.0,-0.016589918,-0.010519266,0.979683173,-0.010200929,-0.013768506,-0.05627291,0.9947507867743248,-0.0084579450917688,0.0110737180117644,-0.1013740999766811,0.559,3.0,-0.023685071,0.001505569,0.978130232,0.020943932,0.030809294,-0.001729674,0.9973996392244208,0.0048620385537447,0.020048987657152,-0.0690533007901887,0.56,4.0,-0.02853467,-0.003227334,0.979763419,0.031700292,0.057525511,0.029637049,0.9962723661797516,0.0011745795386218,0.0224472718725166,-0.0832833280734376,0.492,5.0,0.054519404,-0.071923899,0.975439177,-0.098724808,-0.113057887,0.04668104,0.9968876076989368,-0.0548162129790377,-0.0377303937551456,-0.0422693482089445,0.492,6.0,0.005819757,-0.014993111,0.979518931,-0.037562337,0.011108118,0.051786676,0.9981468100631784,-0.0106000191874976,-0.0020520381685101,-0.0598863447981297,0.492,7.0,-0.004110058,0.023153712,0.980022966,0.022799072,0.043118656,-0.094283731,0.99863425165548,0.0133037886572029,0.0034802706230674,-0.0504036540764089,0.492,8.0,-0.009603429,0.002396812,0.979037808,-0.085345147,-0.041291249,-0.065151384,0.9991777883642255,-0.0028449241448713,0.0036943891687017,-0.0402741248800639
9,9,0.629,0.0,-0.035802565,0.001353955,0.979247846,0.026315767,0.038919875,0.001095469,0.9978238370033028,0.0013385164850586,0.024381838209066,-0.0612480583134878,0.629,1.0,-0.021292928,-0.005322686,0.97990422,-0.002114737,-0.008037835,-0.068208279,0.9935213360943094,-0.0051046343855187,0.0133839941189202,-0.1127393726015596,0.63,2.0,-0.015684537,-0.010134993,0.979502566,-0.00980289,-0.000545297,-0.122779735,0.99411285025244,-0.008603768268836,0.0107848994618233,-0.1074676792256366,0.63,3.0,-0.027296409,0.0022131,0.979697917,0.006460978,0.061791468,-0.026809406,0.9972533440077076,0.005093370045882,0.0224913402591392,-0.0703844092137452,0.63,4.0,-0.034390114,-0.002704745,0.979099589,0.031492002,0.051615502,0.041808077,0.9963921596909804,0.0028965724182273,0.0243974715111442,-0.0812344591810222,0.608,5.0,0.050968833,-0.071406432,0.975793677,0.093744212,0.13897842,0.074348494,0.9976469830078212,-0.0482566996892745,-0.0294886040491506,-0.0387583598946595,0.609,6.0,0.008311766,-0.01938822,0.980206617,-0.119403999,-0.091945802,-0.031856683,0.9979489599230488,-0.0167821400777848,-0.0064677413143097,-0.0614361577998336,0.609,7.0,-0.008103514,0.026763002,0.979863804,0.054157789,0.078992168,-0.087330458,0.9983426364625004,0.016244722523077,0.007353714410189,-0.0547175666091339,0.609,8.0,-0.008059053,-0.000152551,0.979377878,0.020949436,0.009798575,-0.060174783,0.999052955734557,-0.0014965756303769,0.0041791043054691,-0.0432837958898193
10,10,0.664,0.0,-0.038177173,0.0034171,0.978924321,0.055305503,0.045533605,0.009597912,0.9978003673527348,0.0044084019378547,0.0259782239782179,-0.0608286509963814,0.664,1.0,-0.023018703,-0.00632363,0.980044974,-0.009132087,0.032689122,-0.080383153,0.9930389385765498,-0.0051053963938855,0.0149025495705812,-0.1167283830724878,0.665,2.0,-0.018964157,-0.012584109,0.97999847,-0.015760724,0.028814801,-0.125933167,0.9933972593128664,-0.008973629905985,0.0121963548732512,-0.1137216254008104,0.665,3.0,-0.031711173,0.002876815,0.979434595,0.034053183,0.056335701,0.127834633,0.9976234604706812,0.00688488194542,0.0244916126624424,-0.0640327293522114,0.665,4.0,-0.036800146,-0.003114582,0.978945376,0.00168231,0.043868047,0.133275813,0.9968705246616378,0.003025634647361,0.0260017729715879,-0.0745916241822483,0.739,5.0,0.036881917,-0.06445042,0.976876588,0.02770627,0.121962211,-0.060047874,0.9978488253599778,-0.0450850401590435,-0.0223983066053892,-0.0419925796157035,0.739,6.0,0.014719724,-0.027271064,0.97931283,-0.126443181,-0.141760371,-0.167874371,0.997206619161561,-0.0232238099809874,-0.013359537249221,-0.0697218481885235,0.74,7.0,-0.010158948,0.024193419,0.979448556,-0.075333741,-0.015926125,0.043150073,0.9985244625645996,0.0120924238404761,0.0064532538131667,-0.0525454704133761,0.74,8.0,-0.009775887,0.004603774,0.978722247,0.127038864,0.086402085,-0.121667106,0.9987304159917536,0.0054150309332843,0.0083223244972387,-0.0493859547634093
11,11,0.739,0.0,-0.031066181,0.009606004,0.978562015,0.324981181,0.221731118,-0.00132721,0.997279786427258,0.0214301884408434,0.0349996013153702,-0.0612274653628414,0.739,1.0,-0.028863041,-0.007947381,0.982096107,0.124790275,0.210037899,-0.244913609,0.9913387594622334,0.0024038426555335,0.0246282043793742,-0.1289772734919417,0.74,2.0,-0.039697786,-0.022191076,0.98296879,0.121374483,0.177290698,0.027995141,0.9934284670633478,-0.0019130489401083,0.0212274865447849,-0.1124527228968267,0.74,3.0,-0.045266247,0.001995273,0.969019084,0.16107723,-0.324963987,1.092194267,0.9998213755152624,0.0147855315801941,0.0067567348426219,-0.0096411437561241,0.74,4.0,-0.034538625,-0.001536689,0.978316269,-0.082312142,0.049441604,1.45828717,0.9996117224556588,0.0007288919548973,0.0278195900996812,-0.0013940776286756,0.775,5.0,0.033061136,-0.069284525,0.97669474,-0.166851945,0.019824038,-0.204856202,0.9970393316925164,-0.0522271493102234,-0.0208923647217452,-0.0524252327548627,0.775,6.0,0.022304091,-0.030001862,0.979454652,0.053184758,-0.027003094,-0.227244267,0.996409528956026,-0.019799510442516,-0.01480704103007,-0.0809739558611339,0.775,7.0,-0.005844085,0.012910909,0.979743413,-0.353163489,-0.148771881,0.263298228,0.9992057340233872,-0.0063968974118878,-0.0003517866868207,-0.039330103539315,0.775,8.0,-0.013173585,0.014402222,0.979390133,0.16350495,0.092356877,0.006796238,0.9986201375454484,0.0140355513839577,0.0123280046134724,-0.0490799805247371
12,12,0.814,0.0,-0.040768748,0.007192357,0.978747761,0.054828852,0.045528267,0.01845714,0.9972806896537952,0.0226882987872245,0.0356370438701269,-0.0603859937898784,0.814,1.0,-0.027418141,-0.004819755,0.97942586,0.022765618,0.052793504,0.0048059,0.9913259301070124,0.0035749534060157,0.0260540073468486,-0.1287684305518316,0.814,2.0,-0.022867641,-0.011626201,0.979079109,0.015327526,0.080568988,0.030828545,0.9935293601612006,-0.0009330014786385,0.0242492073892093,-0.1109527644852125,0.815,3.0,-0.034514689,0.005353531,0.979513183,0.02168173,0.048848515,0.133442267,0.999835073535426,0.0147499608143777,0.0101721933255751,-0.0029649396840901,0.815,4.0,-0.039609269,-0.001423902,0.979445802,0.049204682,0.03470688,0.215103977,0.9995378345651666,0.0033469220365729,0.0287521406895344,0.0092859997538109,0.86,5.0,0.051882436,-0.095797429,0.97259296,-0.420210776,-0.389333022,-0.03404169,0.9950418869014191,-0.073909452531018,-0.0395825008381861,-0.0535001099589838,0.86,6.0,0.026142737,-0.026652934,0.979677079,0.143587153,0.138740867,-0.161002212,0.9959304010206876,-0.0114502590490956,-0.0083088292545873,-0.0890083773972933,0.86,7.0,0.012321168,-0.009904455,0.980438214,-0.145729667,-0.08452056,0.06749739,0.9992482483976384,-0.0137347349949887,-0.0048145131651925,-0.0359320969587292,0.861,8.0,-0.012658793,0.013552434,0.97950349,-0.086802279,-0.044484509,0.185431437,0.9991210497858818,0.0090223467365952,0.0096126642508842,-0.0397909766168412
13,13,0.829,0.0,-0.042497428,0.009948851,0.978104794,0.01174094,-0.03453542,-0.010240766,0.9973783416924156,0.0215221144760801,0.0324633911738911,-0.0609866407080825,0.829,1.0,-0.028730286,-0.004496876,0.979843023,-0.00955349,0.012977153,0.161147617,0.9923462706647386,0.0029979982173788,0.0256110111261609,-0.1207640973699123,0.829,2.0,-0.025020309,-0.011482723,0.979666847,-0.020315791,0.033736125,0.011490515,0.9935751178115853,-0.0020883188418812,0.0249480724296428,-0.1103708198400044,0.829,3.0,-0.031557823,0.003860803,0.979343759,-0.043011127,-0.075060467,-0.046055453,0.9998972616224572,0.0112922279027859,0.00704440669687,-0.0053224170441416,0.83,4.0,-0.035824588,0.000738037,0.979398823,-0.017951883,-0.070539383,0.022101321,0.9996513924914135,0.002200211415978,0.0241684440567326,0.0103989841609579,0.939,5.0,0.088018287,-0.119445713,0.968474833,-0.297754587,-0.593697208,0.158497182,0.9927063046887687,-0.0895090652552201,-0.0677333291096864,-0.0439831330855889,0.939,6.0,0.014812649,-0.017842409,0.97961586,0.069944265,0.110506203,0.250524774,0.997034825238535,-0.0074035573424988,-0.0028583509959347,-0.0765413249808511,0.939,7.0,-0.001782631,0.003827726,0.979724028,0.343577345,0.227615072,-0.085879188,0.9991527301026004,0.0054339939163387,0.006529201199876,-0.0402698791943646,0.939,8.0,-0.006141535,0.010483251,0.979828242,-0.072973585,-0.098902139,0.118080232,0.9994050157208896,0.0048801266874658,0.0041169372887978,-0.0338946860555325
14,14,0.903,0.0,-0.037965178,0.007534673,0.978898807,-0.085515975,-0.119272532,-0.00508547,0.9976817770419176,0.0152341874592022,0.0254415619487229,-0.0612512711423077,0.903,1.0,-0.026590882,-0.002172108,0.979978677,0.022070998,-0.054159816,0.163220614,0.9933889537927038,0.0037301702725683,0.0215538797800893,-0.1126938444583386,0.903,2.0,-0.027082836,-0.012107929,0.979070946,-0.014901387,0.009725395,0.193382442,0.994607258353397,-0.0027872658206256,0.0244864701835466,-0.1007424714702516,0.904,3.0,-0.026853626,-0.000915747,0.979578503,-0.076655277,-0.126095224,-0.175340269,0.9998796337324284,0.0061956465617849,0.0014805590169657,-0.0141470829425421,0.904,4.0,-0.026368528,-0.003780651,0.97980427,-0.090617229,-0.136050592,-0.216441182,0.9998641813174762,-0.0029478741929487,0.0162116273579814,-0.0003348051398574,0.984,5.0,0.09312747,-0.108429564,0.969716095,0.446905015,0.255332226,0.107076074,0.9957982945169418,-0.0638194971231947,-0.0533682233779291,-0.0382708917792058,0.984,6.0,0.012754035,-0.016971642,0.979553622,-0.012882027,-0.036997943,0.132798417,0.9975064241396716,-0.008379591850452,-0.004895615929281,-0.0699052872476618,0.984,7.0,-0.003954667,0.020802563,0.979353672,0.123690294,-0.107636121,-0.089940072,0.998924173478996,0.0118911162826499,0.0004634428989444,-0.0448205557031252,0.984,8.0,-4.28e-17,7.79e-17,0.979209375,-0.167469182,-0.064957894,-0.206806168,0.999013932756996,-0.0041260064587781,0.0007014499961522,-0.0442000700904969
15,15,1.033,0.0,-0.026528959,0.001362141,0.979234578,0.006356633,-0.071728059,0.044571876,0.997940288340618,0.0140175072034626,0.0206149295746623,-0.0591076566704905,1.034,1.0,-0.019980783,-0.005645565,0.979487058,-0.01298261,-0.057968024,0.202343738,0.9945606407381464,0.0024310910758344,0.0176077921201781,-0.1026313175758803,1.034,2.0,-0.019527633,-0.013880407,0.979952553,-0.01741873,-0.039669764,0.238982446,0.9958129489750348,-0.0038870050328752,0.0212560993149582,-0.0888236459926741,1.034,3.0,-0.015220581,-0.004719891,0.980026559,-0.005380475,-0.035956612,0.081765642,0.9999364105967852,0.0050579370355934,0.0002976991636776,-0.0100748901219701,1.034,4.0,-0.013764076,-0.006895654,0.979152695,0.065918289,-0.06059229,0.22980771,0.9998631041191032,0.0004760168205174,0.0122564749032837,0.0111051903289914,1.059,5.0,0.055920698,-0.069922082,0.975268567,0.496391121,0.505074659,0.024982355,0.9983312659327424,-0.0353916640629463,-0.0264035728833821,-0.0372151167534824,1.059,6.0,0.017521352,-0.019465443,0.979785231,-0.074645449,-0.090065057,-0.016554905,0.9973721127680262,-0.0126278166533742,-0.0094691712904108,-0.0707088517392641,1.059,7.0,-0.004889679,0.021155054,0.979392442,-0.040833322,0.126382322,-0.220576948,0.9983688517888596,0.0100307439278358,0.007128815939626,-0.055751232608325,1.06,8.0,0.01231904,-0.020680705,0.979950789,-0.292788712,-0.181492136,-0.33885104,0.9979007987911936,-0.0198146765697915,-0.0086937686458308,-0.0610392722029452
16,16,1.1,0.0,-0.023725389,0.001704457,0.979385624,0.015118906,0.01124108,0.024373386,0.9980235079995504,0.0135873515123648,0.020257051582124,-0.0579147064254835,1.1,1.0,-0.018850766,-0.007559887,0.979728787,-0.005002711,0.024403647,-0.026674461,0.9944155993886088,0.0017561771714947,0.0180850132537871,-0.1039589526204781,1.1,2.0,-0.015684537,-0.010134993,0.979502566,0.001969203,0.00686429,-0.096319548,0.995392792031856,-0.0039162485916879,0.0202884306607628,-0.0936281589550817,1.1,3.0,-0.014164396,-0.003912786,0.979543802,-0.012554069,0.049778111,0.037679629,0.9999534096311872,0.0037577254730342,0.0034808620746869,-0.0081817886461008,1.1,4.0,-0.013520186,-0.005932499,0.979266057,-0.006688337,0.034256809,-0.065739811,0.9998792597407512,-0.000275768308869,0.0134256553854739,0.0078193138828097,1.118,5.0,0.034735118,-0.052864766,0.977955412,0.147296756,0.157020164,-0.002483971,0.9987766637930764,-0.0269612472248377,-0.0178691492749482,-0.0374026805809779,1.118,6.0,0.027396448,-0.028337552,0.978908789,-0.14196759,-0.193724164,0.213101769,0.9978059079926416,-0.020773810915633,-0.0187556225333994,-0.0600003781521927,1.119,7.0,-0.012457165,0.020852239,0.98019335,0.027435514,0.078673552,-0.134660365,0.9979210621925784,0.0116647341208239,0.0109183712473193,-0.0624361816548095,1.119,8.0,0.018802909,-0.029806782,0.979129719,-0.152114493,-0.097588908,-0.233238242,0.9968981953592756,-0.0271872538918928,-0.0134057127087176,-0.072630077667649
17,17,1.163,0.0,-0.023615461,0.000488917,0.980100031,-0.060003476,-0.045194356,-0.096491768,0.997838582445577,0.0091013596528721,0.0173950282863228,-0.0627115748996042,1.164,1.0,-0.018850766,-0.007559887,0.979728787,0.000499039,0.00556481,-0.031187346,0.9942616872349856,0.0013225945294512,0.0175496381073641,-0.1055175731461404,1.164,2.0,-0.01362201,-0.009509787,0.980098467,0.007964243,-0.012547396,-0.100803664,0.9949462350763156,-0.0037072803035992,0.0183172343563947,-0.0986545706277627,1.164,3.0,-0.015527282,-0.006687867,0.980208231,-0.041107793,-0.0538532,0.090816947,0.9999920828489992,0.0009857198274117,0.0012471400732373,-0.0036479086309302,1.164,4.0,-0.012883897,-0.005174246,0.9802761,-0.018532029,-0.089191263,0.201836197,0.9998043274775196,-0.0012732270555376,0.0082842641957744,0.0179180528189998,1.149,5.0,0.031509961,-0.053619026,0.977783781,-0.130588616,-0.093608854,-0.036955912,0.9984171350093476,-0.033721190166195,-0.0220782929511425,-0.0392256909928298,1.149,6.0,0.034439073,-0.028930046,0.978684322,-0.006430235,-0.037567153,-0.102587163,0.9974557938323224,-0.0206133130616625,-0.0205060949431238,-0.0650886376039377,1.149,7.0,-0.010753158,0.025469327,0.97931082,0.078648865,-0.098298718,0.008400447,0.9979368466021906,0.0154517369204526,0.0051361523658792,-0.0621040575058625,1.149,8.0,0.037196705,-0.073084528,0.976960622,-0.789438076,-0.280282822,0.224491895,0.995455757229294,-0.0687590102585511,-0.023988658504263,-0.0613561583745499
18,18,1.219,0.0,-0.01962499,-0.002396213,0.978776337,-0.019337421,-0.046430052,-0.24532683,0.997058654851356,0.0068092179371901,0.0144924262258762,-0.0749509367464856,1.219,1.0,-0.019153524,-0.002997917,0.980039874,0.082714315,0.006582315,0.006975381,0.994292587738376,0.0052943508438149,0.0166713285485998,-0.1052439386477492,1.219,2.0,-0.016146777,-0.006102624,0.980228055,0.012509655,0.126438068,-0.066413862,0.9945036780422808,-0.0023801780302775,0.0235534837917269,-0.1019902079328813,1.219,3.0,-0.014045581,-0.01509042,0.979759155,-0.224285927,0.015522044,-0.150934949,0.9998725723284216,-0.0110995928702182,0.0025747887358017,-0.0111807247719869,1.219,4.0,-0.006230268,-0.00989787,0.979630653,-0.129882709,-0.112623171,0.072367195,0.9997326540063852,-0.0080181011079588,0.0020473375239069,0.0215902518983632,1.224,5.0,0.056456158,-0.077351681,0.974551394,-0.431090679,-0.478707952,-0.079507936,0.9964194653481496,-0.0567217755392005,-0.0458160462251666,-0.0427992892847763,1.225,6.0,0.023697194,-0.022077743,0.979971947,0.181920217,0.275669882,-0.124496835,0.997382689284852,-0.0096541334152724,-0.0064895524007147,-0.0713614358919088,1.225,7.0,-0.016616637,0.0297836,0.979229199,-0.002200978,0.209661972,-0.383682374,0.9964532059415306,0.0159154189331972,0.0161309923309394,-0.0810401067092438,1.225,8.0,0.043770849,-0.102445353,0.974007219,-0.155223766,0.050261405,-0.130013486,0.9946537231814896,-0.0746528719387884,-0.0210087216631802,-0.0681876329444755
19,19,1.308,0.0,-0.016277558,-0.006693661,0.979347863,-0.088127726,-0.063977389,-0.296846296,0.9959080794969886,0.0010070527972461,0.0110557118667302,-0.0896875368844711,1.308,1.0,-0.022715945,-0.0108856,0.979733887,-0.180488111,0.030723596,-0.089848979,0.9937956900825546,-0.0045466486908706,0.018670372757703,-0.1095484894469528,1.308,2.0,-0.015241395,-0.005718351,0.980047448,-0.007478558,-0.115693492,0.127058514,0.9952772513736518,-0.0031652618333737,0.0163004278664673,-0.095642407262706,1.309,3.0,-0.009051951,-0.023979804,0.979965321,-0.188089053,-0.112293868,0.062723022,0.9997513285328644,-0.0206636773918611,-0.0026508386343002,-0.0079540296675588,1.309,4.0,0.006398452,-0.025533849,0.979452951,-0.276720858,-0.177309689,-0.06287236,0.9995527879928374,-0.0221556880509837,-0.0077421226123926,0.0185312989341837,1.277,5.0,0.078562778,-0.091600881,0.971348634,-1.904598019,-1.796149813,-0.577715398,0.9771008611626492,-0.1509713404500253,-0.1327350012628633,-0.0697350766664759,1.278,6.0,0.009271474,-0.007939759,0.980098464,0.053039866,0.470014684,0.326295539,0.9983163382317668,-0.0049039683988802,0.0170715024743036,-0.0552177844243074,1.33,7.0,-0.021057681,0.020750093,0.980049492,-0.23498384,0.137465153,0.141855279,0.9970032320545138,0.0044210069310068,0.0232737499600988,-0.0736433468370641,1.278,8.0,0.037997727,-0.128724562,0.97083323,-0.542054203,0.0923117,-1.930340269,0.9813809710733182,-0.097798511735225,-0.0233729782770208,-0.1636476232764407
20,20,1.371,0.0,-0.011316347,-0.006702378,0.979969397,-0.044354297,-0.02552833,-0.288244459,0.9945314852786896,-0.001861407390104,0.0094580187845099,-0.103991373837273,1.371,1.0,-0.024699091,-0.021510955,0.979322844,-0.151166866,0.042631066,-0.218538927,0.9924419917226244,-0.0125156150674029,0.0209822077374904,-0.1202580533834476,1.371,2.0,-0.015090867,-0.011190357,0.980233157,-0.054285869,-0.007004032,0.008671892,0.9953232407898978,-0.0060711940819459,0.0154047356952234,-0.0951707994296311,1.371,3.0,-0.00933485,-0.035179347,0.97926517,-0.201335381,0.051101265,-0.122584691,0.9994372055973894,-0.0304120267893031,0.0005521235017638,-0.0141448172093894,1.371,4.0,0.010302781,-0.033761676,0.979209887,-0.065001887,-0.031826727,0.324037732,0.9990457539795558,-0.0249933816354739,-0.0087697616167016,0.0347275626992554,1.33,5.0,0.101204858,-0.113279681,0.967428701,-0.605946855,-0.555122875,-0.301840375,0.9697653404663032,-0.1715075899836745,-0.1517800017087641,-0.0842802591924949,1.33,6.0,0.002786013,-0.017528188,0.980127033,-0.188520352,0.153220565,0.387077583,0.998981609670952,-0.0139762709370893,0.0237108063074532,-0.035751993709126,1.374,7.0,-0.045905632,0.000394921,0.978550723,-0.29231064,0.235030225,0.010596583,0.996656670977876,-0.0095179753519365,0.0360712893811866,-0.0726894106653548,1.331,8.0,0.047135157,-0.118300696,0.972193511,-0.284349136,-0.069010479,-1.062850957,0.9702371018256092,-0.1074062922430681,-0.0291361743435499,-0.2150696119219572
21,21,1.403,0.0,-0.007118853,0.00035975,0.978741637,-0.078013227,0.057155411,-0.269175637,0.9930077479804014,-0.005322969265291,0.0120437227191463,-0.1173125193325791,1.403,1.0,-0.027812254,-0.030221988,0.978670072,-0.099336819,0.048836326,-0.250678659,0.9907416043065224,-0.0175139311687391,0.0232752919087525,-0.1325993834741203,1.404,2.0,-0.0190352,-0.020264437,0.979911738,-0.175007757,0.100973887,-0.30008461,0.9936123894577426,-0.0148442947888505,0.020553990876454,-0.1099618110406885,1.404,3.0,-0.010810016,-0.042089172,0.978985518,-0.074897802,0.027463795,0.040404711,0.999370483186379,-0.0332329685428591,0.0025710569924362,-0.0121489424887297,1.404,4.0,0.010362604,-0.038956559,0.979111844,-0.103418863,0.010121075,0.118031101,0.998703554562438,-0.0296956798376723,-0.0079891896199493,0.0405653738124798,1.374,5.0,0.098189747,-0.120191813,0.967066028,0.443025503,0.583624958,-0.112636525,0.979777346093436,-0.1359180898834976,-0.1151484107008243,-0.0911233693275165,1.374,6.0,0.002987091,-0.040089923,0.979163865,-0.284688533,-0.046511397,0.128567314,0.9989723701021488,-0.0287774444773667,0.0196289448328798,-0.0289959822491896,1.429,7.0,-0.050464087,-0.017387045,0.978699681,-0.19223624,0.056101128,-0.756993068,0.9930220157881768,-0.0199632780816524,0.0378024553118742,-0.1099077707016865,1.375,8.0,0.056360281,-0.122340479,0.970588134,-0.202446892,-0.109390766,-0.073119185,0.9686474976077396,-0.1142889796745175,-0.0312305577359054,-0.2183682824192342
22,22,1.46,0.0,-0.011209308,-0.007198949,0.979108026,-0.213500209,0.053717948,-0.362647829,0.9905912360077502,-0.0155660768285043,0.0150801956546233,-0.1351269332732195,1.461,1.0,-0.024204446,-0.036520686,0.978113176,-0.098096749,-0.074678535,-0.493833291,0.9871808259098128,-0.0233540163182392,0.0188040889693474,-0.1567641958990001,1.461,2.0,-0.020364625,-0.033514364,0.978277092,-0.279578705,0.049446402,-0.861454352,0.9876657324750534,-0.0293515450025355,0.0224188383016308,-0.1521587440460962,1.461,3.0,-0.010520583,-0.046202007,0.978956941,-0.05947832,-0.035852612,-0.310097693,0.99899691873138,-0.0352898043828089,0.0005768812214869,-0.0275581799088359,1.461,4.0,0.011553188,-0.043362495,0.978699248,-0.062003994,-0.047808133,-0.162473306,0.9989077701702086,-0.0318477040983072,-0.0106413176766174,0.0324923497973572,1.429,5.0,0.069785175,-0.116052078,0.969902028,-0.297347137,0.292248268,-0.508824651,0.978513481754,-0.1389096842110286,-0.0946068611428586,-0.1194362067496814,1.429,6.0,0.012954919,-0.072909804,0.977583414,-0.807821633,-0.226463483,-0.28212663,0.996612420405691,-0.0704667319266242,0.0059873509898505,-0.0419794570333618,1.485,7.0,-0.042477176,-0.024605626,0.979018004,-0.116415607,-0.235763318,-1.316808105,0.9840627693489604,-0.028448244721572,0.0234113858961305,-0.1739628419057878,1.429,8.0,0.055493261,-0.161253298,0.965107182,-0.72859223,0.049472795,-0.361989799,0.9603874749225526,-0.1453740487039399,-0.0213781805031401,-0.2367810325462814
23,23,1.534,0.0,-0.013561139,-0.029173513,0.979874483,-0.385355395,0.068379631,-0.265816911,0.9882014469973364,-0.0341658761843234,0.0199835674341593,-0.1479569197081785,1.534,1.0,-0.015965699,-0.044590878,0.979110693,-0.096131055,-0.121828352,-0.867027945,0.9795129656463942,-0.0295955105293914,0.0115765301810193,-0.1988578382565753,1.534,2.0,-0.026704947,-0.063134288,0.977598541,-0.36452397,0.140749788,-1.256336734,0.9754893215821172,-0.0474525098132481,0.0286277006758956,-0.2129537450849264,1.534,3.0,-0.000747149,-0.050857073,0.978056747,-0.161947316,-0.152272913,-1.058277524,0.9958470388631294,-0.0426118549601327,-0.0089860717929533,-0.0799509569556557,1.534,4.0,0.013506401,-0.05929556,0.97754929,-0.414673566,0.155650612,-1.623511176,0.9974288953933984,-0.0516263220431504,-0.0074273322025411,-0.0491442391634589,1.484,5.0,0.049612831,-0.116297032,0.971322072,-1.068253254,-0.204051626,-1.017058934,0.9635982664224492,-0.1790134865334879,-0.0995118819434239,-0.1718427709822363,1.485,6.0,0.029392584,-0.112406574,0.973867464,-1.724911738,-0.43515789,-0.540493726,0.9855059029514582,-0.1550097692533378,-0.0179135896537851,-0.0665521599166643,1.54,7.0,-0.047367664,-0.031743451,0.977556984,-0.224663982,-0.1810248,-0.819194126,0.9760571485190388,-0.0402654392963137,0.0151805715714154,-0.2132151201719127,1.485,8.0,0.044747257,-0.187012688,0.961948511,-0.956562672,0.201321768,-0.768850279,0.9439518681736968,-0.1825173333327896,-0.0054107912622715,-0.2749782117593892
24,24,1.645,0.0,-0.012135299,-0.062542526,0.976069755,-0.554586316,-0.088813259,-0.177179924,0.9856654523964684,-0.0619738421376091,0.0182414917130756,-0.155852837070263,1.645,1.0,-0.005712165,-0.056510208,0.977438984,-0.267767123,-0.117968983,-0.233392053,0.9767187621213018,-0.0437877494082074,0.0076680375392286,-0.2098673245702937,1.645,2.0,-0.019573788,-0.077772418,0.976664895,-0.190587357,-0.21114813,-0.583254631,0.9687549156596011,-0.0586743340543463,0.0176710934483023,-0.2403309559024374,1.645,3.0,0.010909698,-0.063892785,0.97762298,-0.166083092,-0.015166538,-1.380402772,0.987694170040368,-0.0491987992991927,-0.011848707528698,-0.1479841638341273,1.645,4.0,0.001023694,-0.090208626,0.975947927,-0.468183783,0.385023106,-2.06231685,0.9857626802061488,-0.072157651082819,0.0062009482526241,-0.1517457081560101,1.539,5.0,0.04036241,-0.112742815,0.972214963,0.169343925,0.714270073,-1.205091853,0.9587816724521212,-0.1468365045099508,-0.0666822147845638,-0.2339449245968757,1.54,6.0,0.025445178,-0.156688925,0.966903886,-1.321187751,0.146449079,-0.484999136,0.9730867123690544,-0.2108213404204888,-0.0104714516106625,-0.0924497773672769,1.614,7.0,-0.04631605,-0.051640363,0.977473323,-0.3799966,0.24169038,-0.080357597,0.974106114730554,-0.0543010917449939,0.0321329064103347,-0.2171086018689067,1.54,8.0,0.039102529,-0.177522124,0.96169116,-0.39784668,0.073415339,0.201573439,0.9446174806150452,-0.1914926514681139,0.006602194494863,-0.2664297107644869
25,25,1.742,0.0,-0.010925621,-0.08980768,0.975684996,-0.298643211,-0.021621549,-0.05362152,0.9843760848974108,-0.0751352110056951,0.0187457555443466,-0.1581360812662534,1.742,1.0,0.000761193,-0.075761487,0.976743373,-0.287955924,-0.061578088,-0.047673058,0.9755474788690166,-0.0579072018385785,0.0075549324236879,-0.2118886392509172,1.742,2.0,-0.011176245,-0.101387312,0.974053748,-0.39450839,0.010119188,-0.385788062,0.962720912569408,-0.0768978554069022,0.021442477306822,-0.2584480305637711,1.742,3.0,0.007209882,-0.076551563,0.977364761,-0.215326732,-0.017128933,0.327094275,0.9894721525343878,-0.0591618349197155,-0.0087323561089414,-0.1317895390563458,1.743,4.0,-0.015797988,-0.158561919,0.966574644,-0.63311645,-0.146650488,0.934532414,0.9889686612780574,-0.1048618137056969,0.0100523289433826,-0.1041342293343187,1.613,5.0,-0.026403751,-0.064527709,0.977834862,1.270242877,1.452862061,-1.788969839,0.9462101227533922,-0.0513545454244218,-0.0083390744715906,-0.3193424088658106,1.614,6.0,-0.013158198,-0.199121241,0.959204667,1.045403646,1.250469576,0.146447643,0.983883399040096,-0.1419974912637472,0.0499097259800438,-0.096535945744091,1.703,7.0,-0.050537178,-0.11054619,0.972752555,-0.59335007,0.035395729,-2.733433107,0.935223907983604,-0.0851251215248382,0.0287990519792835,-0.3424625092274364,1.614,8.0,0.039826097,-0.201242317,0.957019024,-0.353079742,-0.156469316,0.181044628,0.9452435885731952,-0.2016450379727572,0.0059078926500015,-0.2565520097887936
26,26,1.774,0.0,-0.005094459,-0.10177556,0.974021448,-0.267293837,-0.334148695,-0.02658944,0.9834751335137925,-0.0885186881290041,0.0035156160032861,-0.1578883911377463,1.775,1.0,-0.001221953,-0.086386843,0.976332331,-0.059030058,0.051091003,0.52242997,0.980664691699809,-0.0585451820888879,0.0124557965212329,-0.1863171415638372,1.775,2.0,-0.016450003,-0.123711319,0.972097684,-0.275293911,0.227321187,0.069988476,0.962338201932687,-0.0853255887523251,0.0365382708175774,-0.2555184607238647,1.775,3.0,0.011359213,-0.117314208,0.972150372,-0.72961216,-0.32761237,0.935560302,0.9915333475562904,-0.0978981815980158,-0.0144872247822116,-0.0840695369425113,1.775,4.0,0.011548195,-0.174566951,0.96433294,-0.496266099,-0.814172222,1.721990951,0.9911717403821046,-0.1307816051729566,-0.0171679227428398,-0.0134169760002177,1.703,5.0,-0.148893213,-5.17e-05,0.9686056,1.083227373,1.647435605,-0.799569088,0.9324182366971786,0.0333043744195128,0.0604581564046338,-0.3547278701246944,1.703,6.0,0.09467855,-0.244989016,0.944191905,-2.872672418,-3.910434327,0.399598694,0.9478819325070574,-0.2904499121575772,-0.1260201346463966,-0.0357437577493744,1.779,7.0,-0.040168131,-0.153348127,0.967142116,-1.098774846,-1.060505302,-1.019905775,0.9121564691755384,-0.1527575168734299,-0.0069668632380297,-0.3802462091809743,1.703,8.0,0.047200482,-0.203804114,0.957254928,0.173380579,0.357258535,-1.822868264,0.9218664141462808,-0.1797811746754131,0.0035186056446875,-0.343261799674423
27,27,1.804,0.0,0.024357136,-0.120062042,0.97197008,-0.258618519,-0.481647172,-0.144520695,0.981149377500644,-0.102419053752899,-0.0194188809127014,-0.1627241331903727,1.804,1.0,-0.016252927,-0.076434636,0.976485324,0.295119652,0.26667546,0.416030659,0.9849569240064924,-0.039064539507955,0.0239470618507745,-0.1666143986377399,1.804,2.0,-0.033803217,-0.119254203,0.972105847,0.165285785,0.390374241,0.227974375,0.9652640845026468,-0.0688379862622072,0.0536200466032266,-0.2462751904250595,1.804,3.0,0.037681774,-0.161616124,0.966029664,-0.615025087,-0.800222029,1.833212073,0.9905255641589552,-0.131127873894009,-0.0392262931246036,0.0112198646748987,1.805,4.0,0.049479102,-0.211105899,0.954997444,-0.565935293,-1.070593982,2.212218785,0.9807552084213148,-0.157962258153653,-0.0523520445961282,0.1021097917932823,1.779,5.0,-0.231874027,0.132721581,0.942272475,1.837317609,0.827469516,1.265657526,0.9435418875273256,0.1455086288739416,0.0602692880688541,-0.291416468855606,1.779,6.0,0.143713958,-0.218712201,0.943163438,2.088413112,1.608126386,-1.045057441,0.981433054433884,-0.1582308656725995,-0.0519503999938059,-0.0951488767855952,1.839,7.0,0.028275764,-0.220039533,0.95434799,-0.985853159,-0.485656366,-1.101084987,0.8828805693612825,-0.2006994692314677,-0.017183770723017,-0.4242008266355027,1.779,8.0,0.072538202,-0.175047359,0.960726096,0.178697571,-0.313872999,-1.135204963,0.90415971765002,-0.1690046021630014,-0.0240581284875418,-0.3916042082006254
28,28,1.864,0.0,0.057148302,-0.136097319,0.969035908,-0.21013068,-0.47198179,-0.199788447,0.9779648839182322,-0.1134259118990091,-0.0417197408621163,-0.1702313471575512,1.864,1.0,-0.043872713,-0.058767425,0.976615879,0.197993848,0.53595891,-0.704963012,0.9779004317262966,-0.0244179258138484,0.0479307045172659,-0.2020325669117497,1.865,2.0,-0.074374421,-0.104678602,0.971378318,0.290413597,0.626531839,-0.110208217,0.9628866253841843,-0.0447793243013928,0.0795698740889094,-0.2539936887185253,1.865,3.0,0.07166326,-0.195149571,0.957382903,-0.53578498,-0.908208078,1.613816608,0.980494507982526,-0.1563781765763022,-0.0711297885163139,0.0954826627843997,1.865,4.0,0.091030702,-0.257327795,0.940749604,-0.820435114,-1.211553895,1.484779237,0.9595350750589304,-0.1913086462951098,-0.1009738283540617,0.180271261081488,1.839,5.0,-0.243434083,0.147411577,0.937628218,0.261484167,-0.201313175,-1.939155676,0.9106040114071632,0.1447798618632098,0.0646836666741801,-0.3816479389091946,1.839,6.0,-0.023573426,0.015421161,0.979405678,3.232091104,2.5594567,-1.792012276,0.9791756417417324,0.0370354635365591,0.0693370545418245,-0.1871785509286851,1.892,7.0,-0.394676897,-0.64729862,0.803183444,-1.990820631,5.636704622,-21.67274027,0.4166493981039162,-0.1009884029046745,0.050758712091552,-0.9020134005020182,1.839,8.0,0.096167179,-0.179796812,0.958961407,-0.311958972,-0.017176684,-1.598949584,0.8695253030197971,-0.1744045014870359,-0.0312111998751997,-0.4610148351970238
29,29,1.938,0.0,0.08744996,-0.143024225,0.965185255,-0.099003007,-0.551601779,-0.161556932,0.9749526793721044,-0.1192326165671327,-0.0677065090739781,-0.1751190588163522,1.938,1.0,-0.066234161,-0.054430934,0.974838094,0.129892688,0.406041411,-1.037845929,0.9652865738663876,-0.0161081455526738,0.064412362318469,-0.2526131539344293,1.939,2.0,-0.120430299,-0.10225168,0.967139668,-0.099300849,0.778126387,-0.629975709,0.9507023467818448,-0.041114140573759,0.1157843664313415,-0.2847255797403302,1.939,3.0,0.103158862,-0.237825336,0.944584225,-0.444566665,-0.810312547,1.542852074,0.9640361263582388,-0.1750002406074298,-0.097912984899036,0.1744199250421368,1.939,4.0,0.141848008,-0.324196463,0.914383287,-0.922681044,-1.065641744,0.820691531,0.9365534158503548,-0.2248127460659545,-0.1499055232163259,0.2232829204721139,1.944,5.0,-0.258820997,0.193564057,0.924892776,1.886939435,-0.004771513,-2.032519539,0.8530803191474782,0.2178253587898442,0.0523587140399551,-0.4712373576186365,1.944,6.0,-0.15868379,0.121765502,0.95918018,1.744669275,1.911689267,-3.740036875,0.9120746798801488,0.1242076047894873,0.1619989272144119,-0.3555961147360339,1.945,7.0,0.102865483,-0.302775985,0.926133573,-1.386566606,-0.901748246,-1.381819996,0.3516443515985445,-0.1711908482924913,0.0930085946475417,-0.9156360329145122,1.945,8.0,0.115335485,-0.179105137,0.956492068,0.060369096,-0.449514599,-0.536907653,0.8578736772956548,-0.1748521436381258,-0.0544607324872152,-0.4801182253209505
30,30,2.028,0.0,0.119470353,-0.141048255,0.962220466,0.050767402,-0.547327081,-0.265767571,0.97128328276688,-0.116916431102704,-0.0942549164015225,-0.1845408992335889,2.028,1.0,-0.070215983,-0.039275917,0.976952465,0.597725491,-0.187857327,-1.214037327,0.949214325032152,0.006584513670141,0.0458015481766619,-0.311208977245363,2.028,2.0,-0.175190525,-0.112839576,0.958017489,0.003054446,1.160474349,-0.444638106,0.936489946605508,-0.0258685710749006,0.1680351659729463,-0.3067272076842873,2.028,3.0,0.128339018,-0.277537554,0.931208893,-0.42843881,-0.799589181,1.182832012,0.9449199284096697,-0.1892521787281112,-0.1272799600851977,0.2347546666237723,2.029,4.0,0.181174047,-0.376535821,0.886328799,-0.540901667,-1.069838172,1.343644,0.9065551062745872,-0.2416251959782233,-0.1865372300480568,0.2915115190896498,2.004,5.0,-0.276912783,0.206520594,0.91659727,0.528437837,0.319990455,0.915462003,0.8679524116967208,0.2450757929464961,0.0446072250749985,-0.4296587741599149,2.004,6.0,-0.210660303,0.168759224,0.9418299,1.481840301,1.325315635,4.315396246,0.9496469935180548,0.2488841822309841,0.1323675861192355,-0.1367701490907299,2.004,7.0,0.184972229,-0.356600613,0.893723826,-0.802857873,-0.645108045,-1.229928877,0.2930466989670657,-0.21727961948498,0.1117211189840369,-0.9243546888256275,2.004,8.0,0.184894475,-0.190447251,0.94372871,-0.521690742,-0.830870672,-1.454531923,0.8155806665170887,-0.2076596674838187,-0.0890971803551822,-0.5326981615857213
31,31,2.074,0.0,0.155898151,-0.122781869,0.95969963,0.291814366,-0.482014168,-0.439210966,0.9668621486571652,-0.101149129239577,-0.1196971261218049,-0.201541651145131,2.074,1.0,-0.049280957,-0.003165677,0.978895483,0.612049767,-0.349923416,-1.074922936,0.9316330026919896,0.0271515585895209,0.0192738621956321,-0.3618718825735578,2.074,2.0,-0.228107582,-0.091794275,0.947923911,0.584902791,0.573292478,-0.438357778,0.9256103937913532,0.0080222106061492,0.1814951478589317,-0.3320249303080581,2.074,3.0,0.154387276,-0.294608077,0.922372295,-0.015207109,-0.769877707,0.676708863,0.9323063047182274,-0.1791606983304762,-0.1557999917555187,0.2728236810201054,2.074,4.0,0.194290951,-0.402111153,0.872513981,0.183492552,-0.994780793,1.871024113,0.8708177253688391,-0.228820449699404,-0.2024411292470243,0.3851431943732012,2.066,5.0,-0.264422589,0.255947386,0.907487537,-0.074391188,-0.435129905,1.21938748,0.8958624662543794,0.2282655419126813,0.0144918654320624,-0.3809399818452111,2.067,6.0,-0.194764305,0.291736038,0.915485636,0.864070878,-0.303399847,0.506429069,0.946263523114782,0.2824980590055214,0.0995659613787136,-0.1219295321702068,2.067,7.0,0.244870078,-0.368527297,0.873327703,-0.292448679,-0.398723367,-0.951852273,0.2495660433997562,-0.2414408230006816,0.1119836084537421,-0.9310654060849988,2.067,8.0,0.258492115,-0.191845973,0.925413934,-0.270813736,-1.045194329,-1.130426742,0.7784927639939344,-0.2357819875698517,-0.1329196546769328,-0.5662934187744544
32,32,2.137,0.0,0.171823954,-0.084012131,0.960225229,0.754809505,-0.036594339,-0.352353804,0.9670081747816132,-0.0587672336152147,-0.1258039611299592,-0.2135766034067382,2.137,1.0,-0.016158625,0.03350965,0.977983641,0.582499944,-0.733359447,-0.382006271,0.9238173950013854,0.0395897240025514,-0.0261543090097988,-0.3798815954563684,2.137,2.0,-0.218032961,-0.055497542,0.953844144,0.712089059,-0.701863115,-0.163683518,0.928999642906852,0.0282635931464494,0.1304797139729364,-0.3451606539322429,2.137,3.0,0.188487183,-0.269358761,0.923189818,0.827690151,-0.471804743,-0.014836894,0.936932883658417,-0.1264907897546343,-0.1641383859228809,0.2814523794417158,2.137,4.0,0.206844366,-0.385122714,0.877593814,0.920165367,-0.769429773,1.02730634,0.8541147898965173,-0.1761635007392382,-0.2056134777905061,0.4440466692119396,2.096,5.0,-0.183559086,0.24138471,0.931880617,-0.465435013,-1.332520423,-0.066823476,0.9004636891147882,0.1739389377258982,-0.0338864103571608,-0.397192776522532,2.096,6.0,-0.105206502,0.325657728,0.918263925,-0.29400569,-1.804600869,1.005087938,0.9634778681013876,0.2499764038343495,-0.0052662468117532,-0.0958877565144224,2.097,7.0,0.271460015,-0.354654644,0.872603314,0.047598936,0.126019419,-0.898160285,0.2093224198398928,-0.2349266716220167,0.1032226804252324,-0.9435775865072268,2.097,8.0,0.363111709,-0.20177095,0.887555841,-1.040565153,-1.735720646,-1.387102115,0.7159106609875262,-0.3087651738895895,-0.1831219329957103,-0.5988341594575659
33,33,2.194,0.0,0.171251066,-0.040002511,0.963806449,0.541457213,-0.154156032,0.019383925,0.968149660380226,-0.0323278665470906,-0.1345315779743294,-0.2086681544412167,2.195,1.0,0.041096316,0.052663051,0.977845947,0.089956042,-0.916426018,0.024535776,0.9222863646711918,0.0240184228370846,-0.0704737769675726,-0.3792682740039578,2.195,2.0,-0.154305967,-0.019654519,0.96752435,0.414481793,-1.355833615,-0.064809988,0.93479162996007,0.0227996834492505,0.0544651463610575,-0.3502546656692497,2.195,3.0,0.198115349,-0.202407343,0.938116505,1.112509571,0.20072125,-0.366755992,0.9506665826896192,-0.0676467602706137,-0.136258412157037,0.2703527501220849,2.195,4.0,0.225352794,-0.292474828,0.906278431,2.054167278,-0.399625588,0.400085896,0.8583494631663714,-0.073359895248674,-0.1716505072663867,0.4779023207793591,2.185,5.0,-0.105508644,0.213767582,0.949975445,-1.211318196,-1.680232249,-0.861348485,0.8876522433944175,0.0825943226840839,-0.0770802179961475,-0.4464418356862198,2.185,6.0,0.005463814,0.302365127,0.932565535,-0.568171145,-1.148596287,0.025470139,0.9705064411633368,0.2069247489714061,-0.0597596997937743,-0.1082966952596126,2.185,7.0,0.13329615,-0.276407074,0.930214634,2.767787552,3.323688019,0.490912142,0.2562149541489865,-0.0284494661403555,0.0171219802070042,-0.9660493584390772,2.185,8.0,0.497677224,-0.336597614,0.774220529,-4.02757394,-2.893243017,2.191752155,0.6910120292401123,-0.5517457741730258,-0.092149329698789,-0.4578072489200387
34,34,2.301,0.0,0.181793751,-0.014569918,0.962064317,0.337196223,0.029012089,0.130135138,0.9707075803970452,-0.0159896193992807,-0.1320289312408635,-0.2000986925159058,2.301,1.0,0.102673831,0.071595414,0.972298401,0.54595718,-0.854986067,1.573622653,0.9452309513460428,0.0270161428068646,-0.122268410113179,-0.3014282875472866,2.301,2.0,-0.036820901,-0.007840314,0.978092404,0.23849197,-2.070907681,0.684769763,0.9475911417581232,-0.0022367853534256,-0.0515965596974084,-0.3152837133126458,2.302,3.0,0.179833703,-0.137178776,0.953315699,0.753695798,0.7799886,-3.355413875,0.9909059734651228,-0.0146173617667068,-0.0852833762268401,0.1030457676252149,2.302,4.0,0.23820782,-0.134752383,0.941155051,2.786006218,0.429484036,-2.071105829,0.9153498895517114,0.0696941540652054,-0.0740907967645726,0.3895996129638683,2.246,5.0,-0.030730825,0.189832461,0.960947581,0.008024784,-0.518091027,2.65483034,0.9391518330397836,0.0618706254151242,-0.1044317071895708,-0.3213407517608494,2.247,6.0,0.10000551,0.221572257,0.949008763,-1.349565965,-1.189952039,0.087766726,0.9789748175022192,0.1234193225045087,-0.1112606558918593,-0.1183091035361944,2.247,7.0,-0.0641262,-0.117937983,0.970164142,2.430659445,2.927922931,2.73830314,0.3981446874562533,0.1702597516917345,-0.0617570022046128,-0.8992655322444705,2.247,8.0,0.619631957,-0.645888037,0.39830501,0.065738447,-3.082660698,-0.543726884,0.6618635355438353,-0.6115593050850235,-0.2119465233774723,-0.3781673543677985
35,35,2.385,0.0,0.169819449,-0.00519556,0.964459621,0.129522843,0.20468829,0.337379721,0.9759267551912107,-0.0102610055189099,-0.1183984544277487,-0.1828756032302165,2.386,1.0,0.158656406,0.073873801,0.964439633,-0.132097154,-0.885581241,0.544388785,0.9477331263752624,0.002510575215069,-0.15885579077398,-0.2766956015563564,2.386,2.0,0.091697042,0.013523051,0.975695536,0.328617043,-1.691430334,0.983400628,0.9548911123852456,-0.016223593496469,-0.1360048606394135,-0.2634813776800612,2.387,3.0,0.141683283,-0.016945551,0.969363036,1.117840678,1.204435571,-4.71209714,0.9899371458869696,0.0559653626603571,-0.0030480484858599,-0.1299347327541148,2.387,4.0,0.186154696,0.064098793,0.960304001,2.461584523,0.951810513,-1.480051783,0.9308706810427924,0.170498809893837,0.0309213007937649,0.3216423544201458,2.349,5.0,0.03439996,0.177377689,0.962912145,-0.325084775,-0.60748306,1.551258568,0.9597443304462456,0.0301147870353674,-0.1245975946497542,-0.249918705153492,2.349,6.0,0.169116016,0.137407111,0.956077434,-0.528036573,-0.507106203,2.025149459,0.9871460574160106,0.0761634349034179,-0.1385850503812884,-0.0231511624449986,2.349,7.0,-0.344046984,-0.029077005,0.9172389,0.278664126,3.258768277,-0.007315645,0.4068661951289479,0.3239240478412727,0.0065714122688352,-0.8541018247446909,2.349,8.0,0.59689649,-0.62109354,0.466885849,0.763936847,0.329664169,-0.642281967,0.6868552052128984,-0.5610169208852603,-0.2260491600775562,-0.4029785587107581
36,36,2.403,0.0,0.154617586,-0.004398664,0.966754909,0.041464628,0.209174629,0.473386039,0.981656323041266,-0.0097650444483965,-0.1041348937221638,-0.159409633490251,2.403,1.0,0.202930208,0.038646134,0.95836987,-0.795858331,-0.576403632,-0.420460233,0.9371176118807016,-0.0406287536320812,-0.1702505343454352,-0.3019513891943666,2.404,2.0,0.176872156,0.017822445,0.96333774,-0.231133617,-1.258666072,-0.871886124,0.9331909583128624,-0.0374835548901773,-0.1885228585990098,-0.3036589373319589,2.404,3.0,0.037847251,0.09022602,0.975222462,1.222824161,1.460649418,1.147688465,0.9886723953471916,0.1240903609247207,0.0519332175340903,-0.0665688960444402,2.404,4.0,0.145913246,0.221604885,0.943646968,2.286987024,0.342375333,-0.882483717,0.920270413434118,0.2642637478084144,0.0882995102663482,0.2747184635927683,2.46,5.0,0.13572484,0.116503039,0.963650772,-0.443487414,-1.357434854,6.023539095,0.9840239677631714,-0.0442181588801277,-0.1632053484975361,0.0557279060675592,2.461,6.0,0.195893235,0.075599611,0.956979383,-0.888217744,0.088904328,-0.165243287,0.9905259651315385,0.0293817667676806,-0.129001940703942,-0.036790263337742,2.461,7.0,-0.43770332,0.005099049,0.875543719,-0.406347272,-0.566191065,-0.150353486,0.4063907710821611,0.2808164945201157,0.0225822456722476,-0.8691827654556196,2.461,8.0,0.502762639,-0.588669373,0.59932637,2.099857069,1.446535406,2.2209193,0.8149731572791836,-0.455517080305773,-0.1444268675064462,-0.327816751259569
37,37,2.464,0.0,0.14319709,-0.011323439,0.969327795,-0.050377019,0.166132729,0.500767422,0.9864821511040754,-0.0142971450060081,-0.0918629365571965,-0.1349435366545641,2.465,1.0,0.234927713,-0.005467701,0.95172689,-0.807691415,-0.438855246,-0.765382376,0.9197560278497277,-0.0776846193148755,-0.1754704561734069,-0.3423800055001611,2.465,2.0,0.243501851,-0.031456639,0.948878985,-0.925322919,-1.188835356,0.236224017,0.9235480118493432,-0.1019511331870967,-0.220491972768773,-0.2967293820900231,2.465,3.0,-0.022512364,0.149734901,0.967514678,0.888508171,1.028158839,0.617279346,0.9812377613918534,0.1678128990932969,0.0896277992349532,-0.0312752956965394,2.465,4.0,0.113567853,0.366589127,0.901714342,2.110389229,0.560050944,-2.476690452,0.914289187996308,0.3328401578831972,0.1739129020740407,0.1518124253989945,2.499,5.0,0.240902279,0.026671185,0.949334893,-1.200345426,-1.529492984,0.811262528,0.9638249235087978,-0.0980174388660983,-0.2318482885351279,0.0876382884629957,2.499,6.0,0.238628434,0.029153006,0.950240271,-1.614788971,-1.688825726,-0.696416655,0.9732478988332024,-0.0498860500573795,-0.2083605789592232,-0.0829805914790142,2.5,7.0,-0.384321807,0.047521082,0.90027801,0.237966429,-0.876763028,1.780762781,0.4823732165252008,0.241855281256296,-0.027294163222764,-0.8414731912316272,2.5,8.0,0.282155131,-0.494592873,0.797921282,2.243231236,4.888985426,0.856986423,0.8989714395032808,-0.2549507586646968,0.0640299476858636,-0.3503578562170968
38,38,2.545,0.0,0.130481847,-0.018915944,0.970963786,-0.082931151,0.229868985,0.570002672,0.9910905308821972,-0.0198986414278114,-0.0765878386567611,-0.1071349925787916,2.545,1.0,0.248345569,-0.0472289,0.947148304,-1.025015328,-0.117060845,-1.109357117,0.8949301462786097,-0.114585041642745,-0.1629399973556405,-0.3992754171937216,2.546,2.0,0.281650895,-0.086843896,0.933683518,-1.020309759,-0.515237813,-1.3917838,0.8914647303092934,-0.1378960894012693,-0.2281517379371217,-0.3663633273387044,2.553,3.0,-0.082861049,0.195656772,0.955758063,0.574342575,0.962759399,0.783005409,0.9731869436295252,0.1939959912719863,0.1229005811841308,0.0129682405909737,2.553,4.0,-0.030543838,0.474943602,0.855712948,1.503150954,1.442596465,-2.193026804,0.889506547644362,0.3585706237659383,0.2763639852905817,0.0618721027945659,2.528,5.0,0.318427832,-0.04758077,0.925873526,-1.219301793,-1.645817508,2.07324215,0.9264700360018618,-0.1624487919933417,-0.2891500120898009,0.1779211423049,2.528,6.0,0.251475377,0.039746998,0.946673286,-0.02088575,-0.490098694,2.193443379,0.9736518340261956,-0.0696168615645875,-0.2157544352967796,0.0246093952199312,2.529,7.0,-0.267496268,0.106617145,0.936450496,-0.287366337,-1.957809776,1.75368405,0.5596449618895037,0.1397411835772804,-0.0782825155800613,-0.8131062452094278,2.529,8.0,-0.090562264,-0.224861574,0.948652069,3.862270859,4.845088489,0.574985303,0.9119879919466544,0.0298964247465602,0.2180426574835064,-0.3461813193255986
39,39,2.599,0.0,0.109036861,-0.031156399,0.973033526,-0.140991341,0.353626524,0.489011347,0.9945983747239596,-0.0270702021240216,-0.0552541484873242,-0.0835957907335253,2.599,1.0,0.263430067,-0.074090886,0.94107446,-0.300519132,-0.242118421,-0.540717916,0.8813191115416408,-0.1257804525991049,-0.1656430711424117,-0.4242856047026899,2.599,2.0,0.295871481,-0.113579547,0.92593885,-0.711929469,-0.015310762,-0.999042588,0.8698299373328977,-0.1550097881523331,-0.2128642413658086,-0.41720098327326,2.599,3.0,-0.102574019,0.235428333,0.945979424,-0.012972523,0.304409194,1.210124693,0.9710466197529392,0.1929889116848002,0.1190706459979892,0.0751393604892189,2.6,4.0,-0.113156833,0.538562204,0.810493852,1.149722366,0.825169843,-0.257543582,0.8653703587070153,0.3951458545419802,0.3033773770243079,0.0543696884249932,2.604,5.0,0.40882537,-0.166287913,0.873376864,0.649645837,-0.451459915,10.51010081,0.766985490674362,-0.2508312794934335,-0.1409116904259985,0.5735510629612527,2.604,6.0,0.249399385,-0.02501522,0.896557965,3.252450969,3.439623015,8.384956657,0.9120150737990478,0.0059403625789657,-0.0286302868788766,0.4091130943015407,2.604,7.0,0.026541166,0.215044461,1.006318263,-1.10546967,-5.506665447,3.129403372,0.6834280197179381,-0.1449226932265564,-0.2012518605522728,-0.6866012259504256,2.605,8.0,-0.769744335,0.391118769,1.099416557,7.713675211,-0.89079849,2.769821699,0.8924232164527164,0.4048742890971526,-0.0183710267236585,-0.1982930108233324
40,40,2.677,0.0,0.083062513,-0.041701645,0.97588503,-0.091461699,0.425622498,0.226926868,0.9963623719074036,-0.0302352641123765,-0.0318284627748042,-0.0730397262351142,2.677,1.0,0.257959744,-0.084570956,0.94156812,-0.157824355,0.326119619,0.446062325,0.893638390678891,-0.1266886364330429,-0.1383685139176932,-0.4076942119527666,2.677,2.0,0.284714292,-0.128079474,0.927746959,-0.124368218,0.418962846,0.2196421,0.8805634705636438,-0.1509094950959712,-0.1794469734305827,-0.4118653691746776,2.678,3.0,-0.091902266,0.193070157,0.956510265,-1.026871714,-0.168808394,0.543840185,0.9802407296178816,0.1363855111012531,0.0966118584636421,0.1057981718370134,2.678,4.0,-0.0893046,0.548531551,0.806794785,-0.581830504,-0.556195554,1.503258232,0.8875791306528118,0.3818756673568658,0.2265649409808457,0.1226482328804334,2.679,5.0,0.396940155,-0.148154711,0.883016815,-0.735803657,-1.116536491,1.161283668,0.7245887120752864,-0.2270676555455803,-0.1959123621493186,0.6205077150972305,2.679,6.0,0.298466775,-0.029311298,0.932681849,-0.738605717,-1.108182454,1.180553721,0.883769204266939,-0.0014839778565839,-0.1039032041603575,0.4562388799349677,2.679,7.0,-0.13607101,0.163689015,0.956229359,1.412166373,-0.824749649,4.276541505,0.8298961319651914,-0.1324827995876114,-0.2326904931185852,-0.4894648632689298,2.68,8.0,-0.37219694,0.236050598,0.875086597,1.509381337,2.005334663,5.16691597,0.8879962438302409,0.4510981397331766,-0.0430950524743004,0.0782045761121957
41,41,2.764,0.0,0.054810653,-0.039020948,0.977794538,0.1094677,0.406046382,0.269462241,0.9978743170218785,-0.0228767514246788,-0.0111110881886403,-0.0600003782624506,2.764,1.0,0.220509066,-0.096658722,0.950586579,-0.118931403,0.807796868,0.365446505,0.9063659883441756,-0.1146046572364221,-0.0915237384671086,-0.3962194758080584,2.764,2.0,0.244678137,-0.135001114,0.939331309,0.526429716,0.636558169,1.819048915,0.926515648088461,-0.1257671385310066,-0.1389826917264088,-0.32624406831914,2.764,3.0,-0.079150541,0.123126824,0.968973156,-1.111353307,-0.450234777,-0.545337751,0.9919423509943364,0.0728618162592879,0.0652068551274261,0.0805580168550437,2.764,4.0,0.010778139,0.435926004,0.877783772,-3.183390331,-0.567115664,1.996918381,0.9331643297003276,0.2364987140000024,0.1355694758259073,0.2342938524066999,2.736,5.0,0.449855754,-0.251838685,0.83374641,-0.615574894,-1.195730754,2.287573317,0.642733921680454,-0.2091735157559087,-0.2358008151577419,0.698238871589459,2.736,6.0,0.355611201,-0.139913529,0.90139829,-0.855225286,-1.05323934,4.351171152,0.771281746609807,-0.0306876542159823,-0.1646341446404645,0.6140670432809016,2.736,7.0,-0.169748434,0.194672176,0.945652269,-0.328893353,0.748515608,0.005960711,0.8417053615808633,-0.1041126346839596,-0.1701894560739293,-0.5017252162553248,2.737,8.0,-0.332136009,0.336986069,0.858772415,-0.473728344,0.419063931,3.089629903,0.8914103473059551,0.3946025442362642,-0.067733153107762,0.2123408692838569
42,42,2.846,0.0,0.038114077,-0.059779439,0.977238321,-0.492344196,0.006699243,1.252001473,0.9987739188293818,-0.0489628812092837,-0.0068618715919045,0.0024919968181107,2.846,1.0,0.158464396,-0.100005128,0.961778566,0.361110954,0.861853079,1.459921301,0.9392951651404308,-0.0834018915622165,-0.0479344501299562,-0.3293493672658163,2.846,2.0,0.189042236,-0.111350057,0.95437372,0.701948328,0.991526579,0.712591623,0.9486680309816754,-0.0770272308029837,-0.0936152641498088,-0.2921163381708325,2.846,3.0,-0.043821615,0.068429241,0.975533754,-0.676518265,-0.457346951,-2.122885189,0.9985073949586184,0.0295758506273239,0.0383787976718503,-0.0252055383177458,2.846,4.0,0.04845532,0.166952534,0.964885451,-4.668894658,0.113167265,0.904870945,0.9540179947223546,-0.002629910638142,0.0714192865041981,0.2911048519540752,2.754,5.0,0.443004431,-0.290768484,0.824772552,0.799719089,0.781411365,0.336819238,0.656597030471689,-0.1900202474423731,-0.1839072210456631,0.7063644804100506,2.754,6.0,0.390123511,-0.401750319,0.80425203,-2.843900922,-2.715719692,4.174747138,0.6192007551631211,-0.0690078151085697,-0.3352375008474128,0.7067136366909463,2.754,7.0,-0.146545262,0.19336881,0.949641506,-0.288162779,-0.223488603,1.722416759,0.8833861016404246,-0.1150894812768668,-0.1449173708889454,-0.4305605211147336,2.755,8.0,-0.191772291,0.232896416,0.93188446,-0.88268322,-0.837429079,0.857802934,0.9078531017951558,0.3341893680340475,-0.1125262915903296,0.2268436588376373
43,43,2.868,0.0,0.043294338,-0.066610984,0.976015664,0.252519736,-0.197012263,1.435254037,0.9964802224383932,-0.0352231693752417,-0.0156257740925023,0.0744468254011114,2.869,1.0,0.105090581,-0.066523546,0.971739465,0.993126387,0.764758326,3.355245859,0.986695294042334,-0.0252754101653576,-0.0204500280884032,-0.1592964114688967,2.869,2.0,0.106115678,-0.06898789,0.972083399,0.537952745,1.447145854,0.908211938,0.967815755935678,-0.031142617526328,-0.0243642437814559,-0.248534069216313,2.869,3.0,-0.021490757,0.031798468,0.97971935,-0.199022482,-0.533685003,1.808629154,0.997661209757942,0.0209922952486333,0.0071559372969788,0.064654672266708,2.869,4.0,-0.005434181,0.009539398,0.980378228,-0.533771235,-0.377516596,1.430601386,0.932456694682388,-0.0162642643530374,0.0404859778679825,0.358637521521555,2.8,5.0,0.171545257,-0.01691921,0.964284172,3.938745662,5.172166135,-1.231721036,0.786126991627496,-0.178052757522848,0.1571364971993618,0.5706221953456835,2.801,6.0,0.380598209,-0.632003102,0.645387545,-1.600710007,-0.483265741,2.24700922,0.52737497151415,-0.1322278547347774,-0.3985440294470918,0.7386163350784788,2.801,7.0,-0.168671857,0.139756461,0.955038709,-0.646190567,0.409044572,-0.089599958,0.8840684487809823,-0.1136921299754284,-0.0956558136420303,-0.4431106439345808,2.801,8.0,-0.096219661,0.055030568,0.973011518,-3.625965758,-2.188790632,-0.249613915,0.948746196315547,0.1517323465087645,-0.2369188502257498,0.1439701649906485
44,44,2.93,0.0,0.05245096,-0.054446857,0.977106666,0.214663079,-0.235582122,0.984322086,0.991690354013484,-0.0234809153739357,-0.0266379381066893,0.1236499438869139,2.93,1.0,0.035229514,-0.004862374,0.979945018,1.316597354,1.451719113,2.209724957,0.99692338206298,0.0518362110297702,0.0363487989066127,-0.0462119285491677,2.93,2.0,0.005120577,0.000866002,0.979856637,1.121964685,1.788448954,1.898729914,0.986226180142746,0.0473249259763198,0.0479761850755528,-0.1510515099162545,2.931,3.0,0.014376084,0.007826829,0.978754856,-0.584198723,-0.749495263,4.152495371,0.9643337448345548,-0.0053891668397391,-0.0312381357150104,0.2627842543441062,2.931,4.0,0.089600818,-0.110814895,0.969278986,-3.147270468,-0.664536733,0.505254907,0.9133234815313928,-0.1489745074440462,-0.0525237127502472,0.3753506011905524,2.873,5.0,-0.145912394,0.263092454,0.933105532,0.081859987,1.444635826,-0.578421309,0.7928143165037274,-0.1976415483414477,0.2100037615102634,0.5369187071312224,2.874,6.0,0.329518284,-0.693409028,0.608169894,0.044549491,-1.321534564,2.067405111,0.4281279339170685,-0.1196508131177139,-0.4166969706120509,0.7929399660774525,2.874,7.0,-0.154660508,0.08225702,0.964551663,-1.217718804,0.279210935,0.956656242,0.9009083338783934,-0.14872252593787,-0.0344311959835558,-0.4062761092782327,2.874,8.0,-0.014449631,-0.078522139,0.976663443,-1.64001125,-1.148626102,-1.595557882,0.9578147180435512,0.0809342671990291,-0.27297805120456,0.0390332403557462
45,45,3.036,0.0,0.070556376,-0.044457608,0.97591973,0.254406175,-0.340006273,0.455574246,0.9882076720117792,-0.0088674596143668,-0.0428386565433809,0.1467372299132223,3.036,1.0,-0.04226566,0.096019783,0.974533127,1.436393249,1.215354252,1.082562139,0.988255945459321,0.1271022835955943,0.0843296816287074,0.0091488013143404,3.037,2.0,-0.088102171,0.069370925,0.973890488,1.216572696,1.591167283,1.035196901,0.98189962521019,0.1206619099814541,0.1095613471518937,-0.0964890703757609,3.037,3.0,0.08461753,-0.088087282,0.972074845,-1.452123187,-1.215008915,3.660466836,0.9001397681810888,-0.0630380705361199,-0.0948329888112471,0.4204536878600362,3.037,4.0,0.170996789,-0.169558292,0.949231312,0.268629277,-2.064658223,5.77411682,0.7837036009675813,-0.1029724781875863,-0.102388237641929,0.6039221666398188,3.053,5.0,-0.165708531,0.325358621,0.909104752,1.81936988,0.641127023,1.661182535,0.7599946048845138,-0.1024150619040555,0.2879149860530792,0.5736064124882807,3.053,6.0,0.2776092,-0.563483314,0.752706242,4.414974683,0.507963082,-0.396215057,0.4916178003506128,-0.014482601581161,-0.2244386047636281,0.8412666077538216,3.054,7.0,-0.06825056,-0.00474787,0.976487746,-2.197307412,-2.837576672,-3.446638078,0.7995705582978968,-0.2708248938902726,-0.1445736400725518,-0.5161775486677858,3.054,8.0,0.029611743,-0.124320292,0.971360185,-0.188990646,-0.880470574,2.956936956,0.9400751130744778,0.0198788879236766,-0.2923212927274434,0.1743900037590521
46,46,3.064,0.0,0.094056937,-0.0379013,0.9750604,0.072138204,-0.361703115,0.289616022,0.9850340652650476,-0.0035999647090785,-0.06081025477714,0.1612359867878333,3.064,1.0,-0.115325603,0.165872853,0.959145037,0.683796683,1.118487979,-1.951894681,0.9741651312141416,0.1466875035643358,0.1504677895344421,-0.0827316005962407,3.064,2.0,-0.185755449,0.145784635,0.951467684,0.938099562,1.557927122,0.377339316,0.9668381953011298,0.1715451757366946,0.1746109553273389,-0.0728503333416865,3.064,3.0,0.123780927,-0.187324901,0.953988293,-0.970087274,-1.086718889,4.278797168,0.7937115487154888,-0.0980951175320041,-0.1364833889712055,0.5846123586505653,3.064,4.0,0.185973623,-0.236836203,0.932879641,-0.198951308,-1.195528857,5.063009644,0.6241847221851231,-0.093030902316484,-0.1257087237140026,0.765464565206684,3.068,5.0,-0.209538895,0.43705282,0.85150002,-0.23783914,-0.004959335,-0.707349767,0.7785601340365823,-0.101616696946709,0.272392125267883,0.5561660675397463,3.068,6.0,0.306652917,-0.224540414,0.902939971,6.07086823,0.094094463,-3.259612709,0.6474159269093301,0.225176528256039,0.0754643613123272,0.7241914656210833,3.069,7.0,0.06512614,-0.188161197,0.959989036,-2.096482231,-1.019278986,-2.186767106,0.7126142045953108,-0.340087624260009,-0.149654660479693,-0.5950839317532304,3.069,8.0,0.050146457,-0.091479582,0.974328907,0.046252048,-0.542738899,-3.27794025,0.9575541748393988,0.0682331309262943,-0.2794626785443624,0.0182989997662101
47,47,3.139,0.0,0.109146789,-0.03237194,0.973747933,0.206322231,-0.184328447,0.026943908,0.9842224328377562,0.0075879462170066,-0.0679130228293589,0.1632067618124782,3.139,1.0,-0.154326411,0.191638802,0.948372252,0.430625124,0.369311832,-0.897744261,0.9652222423205506,0.1579743178230433,0.1656657268855996,-0.1262735315634195,3.139,2.0,-0.272327445,0.168871621,0.926502098,0.160258423,0.958823278,0.536717876,0.959903827781477,0.1800392984682321,0.2110062068830724,-0.0405816839763122,3.139,3.0,0.138220139,-0.244803046,0.93919735,-0.477416415,-0.758406466,1.942073024,0.7295883277466948,-0.1029505750512059,-0.1674550253125397,0.655027377756063,3.139,4.0,0.173331523,-0.298293946,0.917676907,-0.46727367,-0.56442811,2.529179239,0.5242906403701135,-0.0936184645368123,-0.1513192960065936,0.8327408829726897,3.114,5.0,-0.221694861,0.361295561,0.882645969,-0.333241594,-0.63485614,-0.589306669,0.8019409422724709,-0.0877725786061774,0.2287383462165444,0.544853621188374,3.114,6.0,0.198478018,0.24386597,0.928052727,4.541047187,3.445663914,-0.591020509,0.6086446692911427,0.2308155280533247,0.3478881097343745,0.6747219587788618,3.114,7.0,0.173429134,-0.285306219,0.921488305,-1.033726096,-1.279628816,0.011119396,0.6941786209465749,-0.398863665705389,-0.1471569643328844,-0.5808344396203634,3.114,8.0,0.123095486,-0.135847432,0.963241391,-0.936413818,-0.963934296,-1.376984222,0.9505435341923004,0.0306725027045308,-0.3028869822644507,-0.0615277429927806
48,48,3.212,0.0,0.121415264,-0.008976872,0.971072989,0.49887944,-0.157156468,-0.052461035,0.9836570114805364,0.0333872567036186,-0.0708798699747644,0.1621117481472187,3.212,1.0,-0.159065856,0.209167626,0.943869142,0.257003037,-0.376327979,-0.251718985,0.9666054254570806,0.161854855396254,0.1382034889830009,-0.1427471642258414,3.212,2.0,-0.29603075,0.183400374,0.916106488,0.026447337,0.333415682,0.213841368,0.9592065145023096,0.1765890549772014,0.2189561487134317,-0.0282377962874451,3.212,3.0,0.157175269,-0.250242952,0.934287108,0.431842845,-0.607427706,0.091946133,0.7248863875217393,-0.0622417167677792,-0.172877603907917,0.6639119127915536,3.212,4.0,0.171531419,-0.342671205,0.90163264,-0.828166739,-0.094632907,-0.117786903,0.5260478528900254,-0.1035584303204245,-0.1937460136760119,0.8215910114917389,3.19,5.0,-0.168109803,0.329390121,0.907378224,-3.650881167,-1.509836875,-1.846955791,0.8452070472846983,-0.2040847504649123,0.0402685158935295,0.4922935186204355,3.191,6.0,-0.172879276,0.459244306,0.848128188,0.060173794,0.521675725,-4.663601457,0.763246120025625,0.1193750580971032,0.3875148856577248,0.5030280003775364,3.191,7.0,0.225892829,-0.322237902,0.897559003,-0.478248886,-0.350547905,-0.131046971,0.6882797888976718,-0.4071741103611837,-0.1334314115872355,-0.5853855434227879,3.191,8.0,0.206752661,-0.190869076,0.938339668,-1.129881304,-1.160562941,-1.875423881,0.928180063165176,-0.009807083206119,-0.3335973691580587,-0.1646158763682895
49,49,3.273,0.0,0.126006915,0.041298511,0.970522895,0.825302081,0.02541227,-0.109649866,0.9825508079109196,0.0738813925664026,-0.0614151431782915,0.1592596304605731,3.273,1.0,-0.120440683,0.2015738,0.951381125,-0.236386396,-0.915336622,0.046094945,0.9758667930051498,0.1388841191786005,0.085647546952145,-0.1451196108419141,3.274,2.0,-0.27139187,0.166904233,0.927006165,-0.528582453,-1.260250896,-0.312832971,0.9777692804693549,0.136538862231836,0.1514617239800413,-0.0488233493307208,3.274,3.0,0.189410972,-0.192589727,0.941700951,1.155847639,-0.53667783,-0.2596509,0.7335344473684394,0.0056410954308706,-0.1506623893170687,0.6627188219837201,3.274,4.0,0.201556194,-0.341247407,0.895510082,0.861662243,-0.602156228,0.144582168,0.5211019635156283,-0.0487299115019641,-0.1748982186841689,0.8339596827462776,3.219,5.0,-0.18835197,0.283541718,0.91824922,-0.580031154,-0.723555288,-2.389544155,0.8980780167136815,-0.1894240647785429,-0.0178883057525794,0.3965531592305085,3.219,6.0,-0.217657305,0.350525696,0.888491437,-1.606379165,-2.00793096,-3.038670043,0.8895819303238326,0.034352105217817,0.2418046807702077,0.3859979513754519,3.22,7.0,0.237996711,-0.326504158,0.892944343,0.580665179,0.573471075,0.209582557,0.7197162244830065,-0.3528670071544464,-0.1124091599354827,-0.5872457852044485,3.22,8.0,0.355230972,-0.257571141,0.875546152,-2.630736122,-2.656243326,-1.652974601,0.8589329509160716,-0.1303075270744832,-0.415658693879479,-0.2692247841873917
50,50,3.363,0.0,0.12737309,0.077885716,0.968175558,0.613484881,-0.167869132,0.012330529,0.9794542996238796,0.1028019635049399,-0.0644534422774365,0.1610800578172652,3.364,1.0,-0.049319539,0.174561761,0.963469654,-0.947982828,-0.975793482,1.384092511,0.9928562625734012,0.0852903244448096,0.0303707025583495,-0.0777150104612285,3.364,2.0,-0.141249242,0.109040566,0.963512224,-1.053383511,-2.353831538,-0.226963717,0.9950798522739874,0.0677561816334006,0.0280332523363686,-0.0666282538589033,3.364,3.0,0.217478135,-0.118197122,0.947266436,1.065409748,-0.193418691,-1.449431354,0.7800797393600333,0.0670575757367047,-0.1152827706530553,0.6113008789187643,3.364,4.0,0.240249723,-0.227543575,0.922403378,2.006421129,-0.105600585,-1.707406821,0.6003931076628065,0.0400192394090245,-0.0908547325304047,0.7935187422644469,3.308,5.0,-0.13934257,0.31266305,0.918085762,1.131127079,0.362687636,4.830060801,0.8029301682532246,-0.1272027654828634,0.06338258329494,0.5788827597166978,3.309,6.0,-0.06124776,0.293987636,0.93318486,-1.944562432,-2.945730635,1.072561929,0.8983703550739207,0.0243284456261418,0.0537212801388547,0.4352618245585249,3.309,7.0,0.040327603,-0.194294018,0.959340148,3.168026642,4.68792598,-1.751314118,0.7522502590004135,-0.0606112414835778,-0.0183230252521914,-0.6558277914096335,3.309,8.0,0.521038412,-0.428645424,0.710287317,-2.270446834,-0.440521168,-4.70231099,0.7624034399272599,-0.1383969950710308,-0.4109418543342041,-0.4803270332791563
51,51,3.429,0.0,0.135334143,0.095434196,0.966013967,0.043611282,0.148100982,0.068157593,0.9795442922236908,0.0992146716655891,-0.0567734047680521,0.1656086018578778,3.429,1.0,0.034968443,0.130134553,0.970523676,-0.49582484,-0.81517379,2.274491829,0.9975202528000404,0.058164635408834,-0.0205339119328325,0.0338906904951086,3.429,2.0,-0.008193742,0.080061136,0.976412862,0.399165636,-2.427810888,2.258680746,0.9905279444822088,0.079056653753135,-0.1054904660895199,0.0384213256073066,3.43,3.0,0.225359089,-0.012161023,0.953286101,0.856522558,0.365512067,-5.617688131,0.9311377481505176,0.1264057993846735,-0.0324280530685817,0.3405179719563801,3.43,4.0,0.249320873,-0.01482944,0.948082375,2.85902887,0.463089058,-1.800887316,0.669800849818887,0.1316212393297512,0.0504733007524929,0.7290371162364406,3.378,5.0,-0.077408251,0.315368624,0.925144093,-1.088194361,-1.623102462,-1.692233332,0.8479402163714089,-0.1082365926338567,-0.0399880594361026,0.5173810825470482,3.378,6.0,0.10693983,0.174251279,0.957353835,-1.252954737,-0.906498667,-0.350662492,0.9079198378707242,-0.0058290991223565,-0.0212017314795432,0.4185666926386867,3.378,7.0,-0.320002534,0.039455474,0.925615278,2.31343411,3.797480371,2.530401919,0.8385592667754296,0.1760930582818035,0.058003492090607,-0.5122940423578143,3.378,8.0,0.592403383,-0.644016454,0.438951067,0.167123423,-2.031716439,2.004332644,0.7781273276607975,-0.2537676692457176,-0.4492222919302836,-0.3582166445406536
52,52,3.469,0.0,0.122189939,0.08543623,0.967822437,-0.239805178,0.164460095,0.209717672,0.979676314863394,0.0809532175809564,-0.0512873221413105,0.1762115355092958,3.469,1.0,0.081579142,0.089795406,0.970966338,-0.860826931,-0.385431609,-0.756724565,0.9989573459582882,0.0154062745143921,-0.0425671617655901,-0.0059079946497831,3.469,2.0,0.1124049,0.091914302,0.969450824,-0.302064926,-1.013357757,-0.016506229,0.9860133210416018,0.0631449195769276,-0.1509224320585237,0.0318256085829457,3.469,3.0,0.118168557,0.097386074,0.968206664,0.661502214,2.078031963,-2.97084082,0.9670306404611698,0.1203762148025767,0.0968766481408615,0.2024258441110115,3.469,4.0,0.218071971,0.164153155,0.941319477,1.93020361,0.197622894,-3.329885593,0.7735665750929519,0.1905319171903837,0.1527419999634444,0.5847753618936798,3.49,5.0,0.06506558,0.220967775,0.952542762,-2.625963804,-2.386327247,1.005070934,0.8016769714474987,-0.1332167248738714,-0.1894618381955901,0.5510640158204795,3.49,6.0,0.139026303,0.1411881,0.959860723,-0.331387774,-0.893367372,0.125053325,0.9036250416800246,0.0077920985316624,-0.0698478774335632,0.4225190424907173,3.49,7.0,-0.433514066,0.072917641,0.875841636,-0.363329332,1.346264228,0.520467469,0.8483312376224199,0.194247315312366,0.1306201617438707,-0.4749110075729521,3.49,8.0,0.581055566,-0.615619208,0.491646641,1.722464546,0.717955717,1.196625099,0.843021561232899,-0.2132072932185034,-0.4177497128282737,-0.2633295935643759
53,53,3.545,0.0,0.112617994,0.06288005,0.971509798,-0.344785549,0.153974483,0.360965082,0.9781917450348772,0.0578909661108435,-0.0477751370679347,0.1936674527805721,3.545,1.0,0.097953157,0.034086902,0.974495388,-0.907268601,-0.533841627,-1.250664488,0.9945989442574787,-0.0271002551096407,-0.0711471976515107,-0.070544968078795,3.546,2.0,0.169128229,0.041964952,0.964811165,0.248413116,-2.57377546,1.953892613,0.9531459058747298,0.0600274199420001,-0.2711370252223299,0.1199762664985591,3.546,3.0,-0.025855814,0.174324277,0.96402413,0.867426181,1.876365079,-1.09753096,0.9592334460597444,0.1336126081210731,0.1959335148204832,0.1537170279491624,3.546,4.0,0.192657554,0.336341324,0.900339703,2.271257441,0.066136287,-1.88877711,0.8014884890826459,0.2649318838303643,0.2328854853164897,0.4828992125972195,3.534,5.0,0.207227303,0.085012077,0.952847203,-0.903496282,-1.216807063,2.616563705,0.7168734256270677,-0.1372131853716258,-0.2283020965970317,0.6443160607025751,3.534,6.0,0.190506866,0.09613687,0.956523307,0.192504328,-0.20504966,-0.144713532,0.905931692133786,0.0291367537490309,-0.0746842557815036,0.4157656559973972,3.534,7.0,-0.507455485,0.048415208,0.837172562,-1.067248948,0.604372077,0.3912231,0.8612205792813019,0.1613564433611042,0.187325331136816,-0.4440410254950726,3.535,8.0,0.435230795,-0.589838591,0.650238873,4.041474376,2.991822084,2.188592519,0.9528100457358668,-0.0360672569304047,-0.2905089881495925,-0.0803535781818801
54,54,3.604,0.0,0.107355555,0.041059742,0.972986579,-0.337163985,0.130728198,0.346135815,0.9759264259747624,0.0366795451370782,-0.0454697489809473,0.2101302547951476,3.604,1.0,0.138541542,-0.024518157,0.970133033,-1.176121408,-0.420777121,-2.021912849,0.9772890090897288,-0.0777705211992442,-0.0948099465505796,-0.172826539570433,3.604,2.0,0.210467636,-0.022777104,0.956778751,-1.604847921,-0.289969124,-3.474584566,0.9601928537252952,0.0241307625155996,-0.2692002293410154,-0.0705593826364332,3.604,3.0,-0.101057782,0.239187402,0.945224159,0.81238828,1.031879717,1.466727021,0.932165095407562,0.175622302484242,0.2249056201201741,0.2228059779545969,3.605,4.0,0.055145955,0.455137104,0.866103423,0.990667136,1.351215163,-3.979864908,0.8591688309856729,0.2207987535967679,0.3425950938257684,0.3093629453559992,3.601,5.0,0.286894394,0.010427869,0.937215485,-1.231991073,-1.347619414,1.299163409,0.6584621091195351,-0.1284061217864135,-0.2932727324770119,0.6811245283551997,3.601,6.0,0.203632399,0.092571912,0.954520449,-0.283250899,-0.509535167,1.154812193,0.8794116506895241,0.0285126600906895,-0.1045655800245969,0.4635603696609527,3.601,7.0,-0.467771637,0.086264547,0.856860621,0.036989872,-1.987151962,1.627223803,0.9108318932451596,0.1327130076603882,0.0853239578875087,-0.3814345842416265,3.601,8.0,0.186028392,-0.425367047,0.862430468,3.712771956,3.770208595,0.663429444,0.9860611216557712,0.1347419637516558,-0.0969926775506822,0.010976705555812
55,55,3.682,0.0,0.095628051,0.013743879,0.974506224,-0.408713127,0.165497309,0.266545087,0.9739757544745709,0.0124765049645578,-0.0419336531842874,0.2223896023877457,3.682,1.0,0.156713333,-0.05256114,0.965095466,-0.404287995,-0.259800552,-1.224531552,0.962448098446768,-0.0898683652855718,-0.1071457938160545,-0.2326738351955949,3.682,2.0,0.238047812,-0.052243278,0.949290197,-0.75714748,-0.132442613,-1.26910237,0.9559916645517904,-0.0012787626039011,-0.257771011262204,-0.1401156944334247,3.682,3.0,-0.111284613,0.261378986,0.937165279,-0.185927606,0.481680483,0.628826298,0.9243793075168532,0.1630523120333681,0.2266866487101815,0.2599038335072857,3.682,4.0,-0.083181805,0.519739988,0.826531991,1.381219357,0.431112969,-2.275816787,0.8695446718566104,0.2358340306948164,0.3883015044114637,0.1936396531803595,3.684,5.0,0.370117623,-0.105313351,0.901622451,-1.41809756,-1.206480393,0.87010595,0.6105591331980192,-0.1237036262887897,-0.3629243986755268,0.692965250613257,3.684,6.0,0.260653918,0.031447074,0.944707159,-0.910514262,-1.16366743,0.672529262,0.8577596719270635,0.0175326501292661,-0.1766301220517908,0.4824341938326827,3.684,7.0,-0.24335913,0.147792647,0.937856421,-0.565559627,-4.925056929,0.810046854,0.9295203129002148,0.0135942801306853,-0.1354897401297238,-0.3427093721700576,3.685,8.0,-0.316075223,0.142646488,0.916860094,3.839553401,5.63971487,4.893755842,0.9105291087088258,0.2695472818189667,0.126970303835016,0.286634867038122
56,56,3.739,0.0,0.079690221,-0.008255773,0.97592075,-0.322407313,0.266825875,0.036494974,0.9741322344089852,-0.0070235747253302,-0.0323696787616002,0.2235380575658354,3.739,1.0,0.168950014,-0.053855115,0.963834799,-0.09644565,-0.091162153,-0.203933955,0.9597433798159491,-0.0902311664514161,-0.108383578857085,-0.2429073513387468,3.739,2.0,0.2358432,-0.06822914,0.948520833,-0.16750396,0.078772099,0.021758267,0.960746073999832,-0.0139763810284671,-0.2388982857053439,-0.1403540207984936,3.74,3.0,-0.124010637,0.23345129,0.943417647,-0.743987458,0.129073575,0.345860609,0.9270813279265095,0.1243044213195323,0.2078172537192241,0.2861478836319354,3.74,4.0,-0.095068858,0.558019479,0.800333164,0.462660822,0.020733391,0.280314752,0.8675561954682701,0.2651616996991155,0.3667238584221695,0.2062744103888154,3.732,5.0,0.427557256,-0.193010202,0.860222561,-0.934088077,-1.076608306,1.08145817,0.557909856694808,-0.1134476609445614,-0.4078215001000146,0.7138262001952298,3.732,6.0,0.328122679,-0.069115331,0.921272803,-1.084509063,-1.097164318,3.031074892,0.773591987669021,-0.0217072239295019,-0.2401704974194896,0.586005431043811,3.732,7.0,-0.131462605,0.237121928,0.941384499,0.412884436,0.8303655,0.130040164,0.9366694891914608,0.0585365312961442,-0.0886844527953473,-0.3337046753553404,3.732,8.0,-0.345301327,0.373257673,0.837605339,0.279029699,0.389990114,5.716552533,0.8049589060523606,0.2929942615247282,0.0687924352099156,0.5113346488733727
57,57,3.814,0.0,0.060726882,-0.023055944,0.977452643,-0.188984967,0.366292312,0.061585669,0.9737864987415046,-0.020168663001403,-0.0166279708985877,0.2259570545154387,3.814,1.0,0.162056674,-0.069898098,0.964158125,-0.203444917,0.264973506,0.396752232,0.9654510955431284,-0.0954452614006768,-0.0875152076682494,-0.2261315383079346,3.814,2.0,0.217855908,-0.079034948,0.951634005,0.023268105,0.305278764,0.693699885,0.9716600212898484,-0.0231202338649097,-0.2100973172533194,-0.1058365489611288,3.815,3.0,-0.11635195,0.17261804,0.957897299,-1.099784832,-0.18051618,0.030688613,0.9367261888083082,0.0697880406671419,0.1709979447829741,0.2973775032858103,3.815,4.0,-0.063799482,0.523254282,0.825544416,-1.774385839,-0.125012231,0.96437195,0.8850529686431033,0.2034206190340741,0.3082914657508568,0.2832978407842397,3.835,5.0,0.445468345,-0.27422417,0.828121403,0.496170031,-0.224918007,1.441349044,0.5147911740869375,-0.1047765681739406,-0.3757921003902701,0.7634082886163557,3.835,6.0,0.367404044,-0.265941277,0.868980153,-2.274387068,-1.903032324,4.032258853,0.633380538949801,-0.084199332484618,-0.3511720903617996,0.6844104968801461,3.835,7.0,-0.11450807,0.265631584,0.93631072,0.011204291,-0.679350388,2.764326986,0.971784622535706,0.0443827304890334,-0.117453668180331,-0.1996733744605371,3.835,8.0,-0.212891331,0.275643959,0.915990005,-2.005847011,-1.553519507,0.493249707,0.8314927149826319,0.2287955987686683,-0.0431293550142467,0.504392999208904
58,58,3.874,0.0,0.038950029,-0.026539062,0.979076388,-0.209119357,0.256963315,0.035996224,0.9732992067519124,-0.0321305075992572,-0.0070050378043079,0.2271722123475316,3.874,1.0,0.13028033,-0.072349639,0.969183453,0.098538964,0.722153921,0.438824904,0.973756614377668,-0.0798904181096544,-0.0484976444875454,-0.2075176029380782,3.875,2.0,0.164681734,-0.081017744,0.963234682,0.015038058,1.077010055,-0.018083568,0.9836494400383196,-0.0191561045032781,-0.1439306219641627,-0.1065401278090511,3.875,3.0,-0.083122522,0.120661691,0.96859042,-0.768315975,-0.964785755,-1.265001838,0.96500777829681,0.0334813069235137,0.1033749574816925,0.2386474556306984,3.875,4.0,0.00216259,0.356036714,0.913483542,-3.298371999,-0.476631535,1.928158717,0.8877155814350375,0.0864949353078359,0.2052743824156331,0.4029169896733404,3.927,5.0,0.318311713,-0.174734905,0.910036464,3.174428878,5.012585629,-2.398837605,0.7365001680928971,-0.1148252764272521,-0.0692256570073648,0.6630161888705569,3.929,6.0,0.542160937,-0.51991645,0.629416717,-2.863307038,-2.927029946,1.596630924,0.5216318880414853,-0.0777778705184342,-0.5296402634033408,0.6643282077542191,3.93,7.0,-0.172476702,0.201823315,0.943803548,-0.966827697,1.222351805,-3.314199491,0.934614304831945,0.0370640415251393,-0.0260028193708443,-0.352769345910455,3.93,8.0,-0.168094695,0.179985938,0.948189451,-2.580354135,-1.332827059,-3.431285527,0.9343770751199176,0.1263239424406052,-0.1294637331843627,0.3069542064324556
59,59,3.935,0.0,0.035839452,-0.047272465,0.977872102,-0.03336219,-0.166755871,0.796099834,0.9634771497252284,-0.0308328172124441,-0.015794959729327,0.2655402767702918,3.935,1.0,0.077276543,-0.060051694,0.975129802,0.677122782,0.442885747,2.89574795,0.9968719850335538,-0.0434284411684948,-0.0248536488392219,-0.0611760745088576,3.935,2.0,0.101317909,-0.062316904,0.973299689,0.852298878,0.887431801,1.80627847,0.9953309862689386,0.0133438611055627,-0.0950072995643574,-0.0105727088859145,3.936,3.0,-0.049309832,0.062205039,0.975906283,-1.006818463,-0.538022417,-0.587771222,0.9752141952934168,-0.0131951813689749,0.0574217252655616,0.2132742505657436,3.936,4.0,0.027323523,0.15126568,0.967202729,-3.56818389,0.837856194,-0.298010176,0.8931486420124357,-0.0945537988692715,0.1505074776304648,0.4131495873991002,3.978,5.0,-0.061298749,0.23280362,0.9503136,3.553503317,3.864564847,-3.556640754,0.8688818598395288,-0.0502973115444353,0.2225350168401202,0.4393092992108983,3.98,6.0,0.373460677,-0.687309397,0.589707483,-1.031956027,-0.613592026,-0.68248945,0.5269370826787326,-0.0659460268611225,-0.5735971694787976,0.6236783783370803,3.98,7.0,-0.227148628,0.136313922,0.943096504,-0.657635913,1.17041124,-0.701794787,0.922368842069372,0.0351119378908999,0.0515785950200234,-0.3812381401865658,3.981,8.0,-0.06555295,-0.06721045,0.975958793,-2.161767086,-0.971357708,1.160538731,0.9218339983475304,0.0172335554275749,-0.1932272404195273,0.3355418269274101
60,60,4.013,0.0,0.048879507,-0.037496897,0.97850078,0.196124894,-0.239036537,0.758491222,0.9528655294003162,-0.0170110066074813,-0.0252363138463445,0.3018626127865191,4.013,1.0,0.020061798,-0.01068799,0.97989402,1.139537352,0.88714728,2.380128163,0.9980435138310448,0.0173533481745174,0.015645762529873,0.0579932403110379,4.014,2.0,0.03655804,0.001886303,0.9790536,1.448154693,0.874462795,3.176995525,0.98425764763053,0.0687671889763328,-0.0545695066192688,0.1533953250540519,4.014,3.0,0.008643703,0.039270273,0.979425409,-0.038557208,-0.955101307,2.869465918,0.9383235023845772,0.0066391820892197,0.0051928606594626,0.3456558408765832,4.014,4.0,0.022124931,0.008914113,0.979327333,-1.384831982,-1.951382257,-1.543018078,0.928192488146822,-0.1195493964274547,0.0050985221018194,0.352335992816545,4.029,5.0,-0.215010497,0.240845999,0.925133877,1.2883887,1.646512393,-1.099701298,0.8746483004255685,-0.0312176396790338,0.3134587512539848,0.3684554529353947,4.029,6.0,0.350150437,-0.696141548,0.594464143,2.937154589,0.584135466,1.072953341,0.522404751201033,-0.0404503096082496,-0.4507245197665168,0.7227063412316417,4.029,7.0,-0.209231215,0.072082445,0.953259367,-1.109284366,-2.560934845,0.861838836,0.9402155966880562,-0.0595000645612428,-0.0421455539691388,-0.3326832222135111,4.03,8.0,0.000755243,-0.134871843,0.970376739,-0.160485894,-0.844833397,1.852123638,0.882856347297422,-0.0015187995196423,-0.2169569322795313,0.4165237722153776
61,61,4.084,0.0,0.062562601,-0.02630901,0.977234239,0.239452163,-0.241967714,0.508640015,0.944715665702666,-0.0013099779103696,-0.0339257969774675,0.3261282496707187,4.084,1.0,-0.028610696,0.057002478,0.978165193,1.24724968,0.754950557,1.845580818,0.9845520031402488,0.0789684030924381,0.0490743711025433,0.1483679565352422,4.084,2.0,-0.028676048,0.076597129,0.977102637,0.918639061,1.168421296,1.896921593,0.9637436376911028,0.0953728526929305,0.0073687097460007,0.2490942028546871,4.085,3.0,0.100572191,-0.001885562,0.975026502,-0.458717775,-1.598780389,3.678140323,0.8640027669357356,0.0160183723589039,-0.0796729642386323,0.4968851469341723,4.085,4.0,0.099318347,-0.205880743,0.953339911,-1.159899811,-2.680101719,4.404648999,0.8289714048961213,-0.1143125148789529,-0.1089029851055823,0.5365437527748258,4.119,5.0,-0.224808503,0.408618926,0.861366769,1.845596264,0.412440803,2.006582715,0.8330123525168839,0.0859325750842215,0.3440669053995305,0.4246457084470206,4.119,6.0,0.309853051,-0.448380958,0.814559147,4.715851631,0.642234178,-1.442049269,0.6083940436721407,0.1163900195431411,-0.2384468423783774,0.7479660114836701,4.12,7.0,-0.002291876,-0.076652259,0.976946866,-2.999515449,-2.826621268,-1.878828538,0.8782826529876374,-0.2301941750359146,-0.1328326845896053,-0.3974741515435319,4.12,8.0,0.035171707,-0.146067545,0.968336317,0.198682569,-0.669212895,-0.260775574,0.8836256658118379,0.0183397718501014,-0.225969893736616,0.4096424570424006
62,62,4.144,0.0,0.081313945,-0.015626411,0.97572786,0.148805291,-0.327951701,0.292248354,0.9391727233557308,0.0112574535468276,-0.0478471523402022,0.3399095695286533,4.145,1.0,-0.07719167,0.127279113,0.967531123,0.758746782,0.88551165,-0.874364343,0.9834458483306552,0.105348355874562,0.1026822676900691,0.1057938524572629,4.145,2.0,-0.097264335,0.126821099,0.967142729,0.881303451,1.385924961,0.536473003,0.9497132614912226,0.115520674353424,0.0865959441959917,0.2778503863474719,4.145,3.0,0.173211163,-0.066222807,0.962169649,-0.472128925,-1.294795094,4.834897373,0.7326265147806476,0.0113682121967595,-0.1420566961965431,0.6655441748355507,4.145,4.0,0.167101253,-0.267749338,0.927383126,-0.677158353,-2.214593982,6.166785522,0.6447352606843694,-0.1058020502822617,-0.1680048488942015,0.7381712135638755,4.195,5.0,-0.24855763,0.402043202,0.858770848,-0.605822457,0.007080258,-2.546065714,0.889625787773414,0.0184906114162309,0.3202258111695912,0.3250838120835362,4.195,6.0,0.256985507,0.021621647,0.944645941,5.299041746,1.469094777,-5.049474708,0.7731532551438182,0.3256180867198529,0.1174704546136653,0.5314203589949099,4.196,7.0,0.105119653,-0.228159836,0.94692658,-1.932429648,-1.359556127,-1.326490834,0.8217528761093776,-0.3174586199893264,-0.1589495837548191,-0.4457322795407661,4.196,8.0,0.085162824,-0.112217624,0.968602859,-0.756094867,-0.427039123,-3.385888152,0.9411069004494924,0.0241919759007901,-0.2381718237694269,0.2387608271695967
63,63,4.249,0.0,0.100070262,-0.010773498,0.974100033,0.120306309,-0.271420763,0.244770545,0.9341494065555672,0.0209990153331651,-0.0589424721985536,0.3513541127666525,4.249,1.0,-0.112323312,0.168698093,0.959210314,0.557626033,0.205292842,-0.412745729,0.9816983305951986,0.1269153842422855,0.1146747751963121,0.0837291399866751,4.249,2.0,-0.193311094,0.153843412,0.947348418,0.199205753,1.297714705,0.921509171,0.9284210404966766,0.1039964347750321,0.147547828468545,0.3247287351488434,4.25,3.0,0.194380603,-0.157267346,0.947413407,-0.681578833,-0.543526736,3.877071844,0.6018392920628391,-0.0190692164936511,-0.1766354502034201,0.778605002066551,4.25,4.0,0.143694958,-0.333530994,0.910326774,-0.016043804,-0.961609961,4.702022834,0.4685562904720498,-0.1070150170147574,-0.168066620052006,0.8606720629930414,4.263,5.0,-0.2499391885,0.397831027,0.8595447205,1.5524844905000004,0.0406856004999999,-1.1306515315,0.903259217249866,0.0821221662847387,0.3384084279334104,0.2507159192422743,4.263,6.0,0.0612389059999999,0.2129589485,0.9137460165,4.3981011925,2.363483294,-5.815595586000001,0.7978994492783194,0.3702377039579603,0.4156620661970654,0.2313126847669163,4.263,7.0,0.1584919335,-0.264584565,0.9274038035,-1.3449659455,-1.278452926,-0.7260678494999999,0.7807794665853064,-0.3780288445127415,-0.1789439051385832,-0.4641731315887204,4.263,8.0,0.118172862,-0.136716891,0.961435342,-1.0087595225,-0.7481483955000001,-2.316908282,0.9567089536021678,0.0045050524716212,-0.2676194763596973,0.1143131596651684
64,64,4.279,0.0,0.119896496,0.003007911,0.972101735,0.257704041,-0.392550184,0.136751593,0.9301219044758184,0.039671635973254,-0.072721473049695,0.3577862371178702,4.279,1.0,-0.120927936,0.182901204,0.954712304,0.200007108,-0.130643984,-0.584751791,0.9841332885226688,0.1300416274622675,0.1083776220895626,0.0531520138727969,4.279,2.0,-0.242306011,0.171768092,0.933666171,-0.14512494,0.751615586,-0.033802997,0.9244844511899336,0.0788056778234096,0.1798986574885486,0.3267332821808305,4.279,3.0,0.19043068,-0.221886698,0.934308541,-0.277526486,-0.324770051,1.416377488,0.5447460409689749,-0.0241048996249417,-0.1921833097572032,0.8159266389286883,4.279,4.0,0.11496534,-0.374629099,0.897894765,-0.405273213,-0.379856178,1.848374328,0.3861624124031405,-0.1080652317524246,-0.1860707396505087,0.8969828185529499,4.33,5.0,-0.251320747,0.393618852,0.860318593,3.710791438,0.074290943,0.284762651,0.874326914465341,0.2544075669018551,0.3643235760801542,0.1951859842733652,4.33,6.0,-0.134507695,0.40429625,0.882846092,3.497160639,3.257871811,-6.581716464,0.7185458922632244,0.2974981731163179,0.6254192599020916,-0.0635404363190896,4.33,7.0,0.211864214,-0.301009294,0.907881027,-0.757502243,-1.197349725,-0.125644865,0.7625887367707497,-0.4167007263602986,-0.1950343291115482,-0.4547312763261396,4.33,8.0,0.1511829,-0.161216158,0.954267825,-1.261424178,-1.069257668,-1.247928412,0.9492606706907012,-0.0400688980110262,-0.3095306705251687,0.0385930887110841
65,65,4.384,0.0,0.143920225,0.023851448,0.968875677,0.47353435,-0.351998973,0.094604533,0.9259831718660352,0.0673488821220666,-0.0800124797974061,0.3627909819365618,4.384,1.0,-0.097240598,0.178529947,0.958290313,-0.243264276,-0.601383049,0.458405603,0.9878555469287668,0.1178561743241459,0.0699025877800083,0.0732459473104262,4.384,2.0,-0.241531619,0.162889061,0.935267144,-0.303624052,-0.625852215,0.135302635,0.929614060205556,0.0720358609562336,0.1418276736878643,0.3324356250174209,4.384,3.0,0.214969039,-0.22304847,0.930122945,0.305222564,-0.552654732,-0.297046407,0.5533098721019463,0.0148770377913024,-0.1914113218110923,0.8105483113692943,4.384,4.0,0.126700902,-0.400060916,0.885832459,-0.188272745,-0.393912151,-0.423574866,0.4025236583124458,-0.0821619389630271,-0.2075483025976537,0.8877768989861325,4.373,5.0,-0.248142511,0.171645227,0.931259475,-0.29166014,-0.318318417,-5.496210812,0.926806436062597,0.1214652829125376,0.3506005212763349,-0.057924861680341,4.374,6.0,-0.38460803,0.315532981,0.843770467,-1.420197853,1.522923619,-6.03118295,0.7046102613428604,0.056614153111712,0.6752196127058477,-0.2107075980954518,4.374,7.0,0.278378583,-0.336818549,0.877294494,-0.875005046,-0.405902804,-1.489289624,0.716798201285109,-0.4256828194436813,-0.2079977243598647,-0.5115969336558109,4.374,8.0,0.272209065,-0.210448135,0.917745503,-0.964932643,-1.327250546,-2.499166715,0.9269921356464944,-0.0493562130395533,-0.3608966684958542,-0.0894602668928431
66,66,4.414,0.0,0.158343453,0.047614451,0.965095443,0.359320236,-0.277567224,0.342651688,0.9173791791924087,0.0859842444005019,-0.0863604097366221,0.3788984440839782,4.414,1.0,-0.036986478,0.147906541,0.967758573,-0.772944496,-0.740491367,1.624931688,0.9848807714100642,0.0832135391644458,0.019036403690602,0.1507414619173251,4.414,2.0,-0.135846707,0.107411566,0.964981569,-1.061381377,-2.50548958,-0.553014315,0.9536799109697088,0.053777045825843,-0.0006363988949463,0.2959767756961682,4.414,3.0,0.244174724,-0.189130469,0.928511373,0.619838488,-0.293167195,-0.724790048,0.5807463589056191,0.0551710043862022,-0.1689925443397883,0.7944377551768599,4.414,4.0,0.18190781,-0.356842182,0.893853571,0.999713949,-0.420164356,-1.583211064,0.4763251323484987,-0.0144664503029822,-0.1754551919455287,0.8614641987501129,4.435,5.0,-0.293955445,0.127363548,0.926329166,0.257321293,0.518363447,2.984477604,0.9247627416832732,0.1813654367820563,0.3248164249689401,0.080092072052649,4.435,6.0,-0.376434939,0.241569471,0.872206356,0.282937361,-2.046305172,0.60147023,0.8087088939507133,0.0768320923753934,0.5487179660077146,-0.1974723985943085,4.435,7.0,0.285978753,-0.31713562,0.881632662,0.845134087,0.76608946,0.757903005,0.7736200728222549,-0.3624976618207502,-0.1691159448960172,-0.4914338462935835,4.435,8.0,0.453856453,-0.283947921,0.820972532,-4.12288019,-3.814667845,0.172866149,0.8320352228867264,-0.2494904637936233,-0.4778977314273129,-0.1307121059753316
67,67,4.476,0.0,0.18442195,0.058382094,0.959806791,0.194413864,-0.382491655,0.105460008,0.9129896889812552,0.0994395868284542,-0.0996258631025934,0.3829311736936037,4.476,1.0,0.027162097,0.084491233,0.976502664,-0.960359896,-0.270187743,2.964153827,0.9562549149103922,0.0374456997274865,-0.0093359846910617,0.2899779244554419,4.476,2.0,0.041953902,0.060592576,0.975978181,0.570376319,-2.657783185,2.681768771,0.8997966469164068,0.1157204688646946,-0.128430884661672,0.4005998940947769,4.476,3.0,0.264794454,-0.08661209,0.939948532,1.082491297,0.222001231,-3.092086306,0.7051261585399041,0.1142938131785049,-0.0954289606989453,0.6932729175958009,4.476,4.0,0.231432048,-0.205462459,0.93019266,2.785647449,-0.0992488,-2.937447899,0.6108348944909825,0.1081128714015629,-0.0410414923411912,0.783267473227318,4.492,5.0,-0.282256304,0.231095117,0.909011785,0.401109248,0.614909931,3.31674025,0.8955411523389122,0.2415604158077461,0.295133559360938,0.2292395954481372,4.492,6.0,-0.202271084,0.221253214,0.932829794,-1.345258666,-2.951908585,1.934577846,0.9228337714998628,0.0436105077321637,0.3740526501618128,-0.080997337620482,4.493,7.0,0.062386439,-0.206332015,0.955949806,2.412798838,4.910850296,-1.03169685,0.8293253360773162,-0.1060265911173808,-0.0080140235777366,-0.548555944587578,4.493,8.0,0.618700372,-0.600994819,0.465608287,-5.328333674,-2.494071142,-1.292257425,0.6861530567062532,-0.4236974861329355,-0.5331606228083396,-0.2557619465517096
68,68,4.595,0.0,0.183776021,0.057688745,0.960126233,-0.194290133,0.116116862,-0.22278831,0.919189921701845,0.0858241360319532,-0.0946066753247681,0.3725233985941271,4.595,1.0,0.047904654,0.072712272,0.976551622,-0.001666041,-0.045256827,-0.111624972,0.9578162737781536,0.0385915852776909,-0.0116418994138567,0.2845402281040862,4.595,2.0,0.116368331,0.09253937,0.968501872,-0.324952407,0.746404345,-0.409063652,0.915529573005353,0.0836609642952572,-0.0896151061853881,0.3831130078047535,4.595,3.0,0.232687511,0.005871035,0.951823541,0.446215002,1.323816009,-5.163753563,0.8779464463053136,0.1085849199782617,0.0088428272125373,0.4661986239577233,4.595,4.0,0.221329612,0.025951258,0.952922208,1.667912012,0.893955051,-6.295430134,0.8404379344441817,0.1536774435101572,0.108046879963423,0.5083042331454156,4.554,5.0,-0.198270876,0.255560935,0.924628178,-0.282720062,-0.569354131,4.269830911,0.8512385275191457,0.281402833348117,0.1879168498474955,0.4011142881948766,4.555,6.0,0.022041386,0.203202605,0.957080393,0.111213931,-2.732117057,5.452483036,0.9641382403447498,0.1400110466693553,0.1518911279906782,0.1666236644453611,4.555,7.0,-0.202498629,-0.012773144,0.958569847,1.929376755,3.217690058,3.545447989,0.9225239668856028,0.0859466056327071,0.0843390094810499,-0.3666737555124748,4.555,8.0,0.606954918,-0.652069839,0.409533457,0.181488324,-0.527846897,0.184215493,0.6947217501003766,-0.4333112110706115,-0.5289317696605752,-0.2232359006560595
69,69,4.624,0.0,0.173231253,0.037366868,0.963565592,-0.317686413,0.194502142,-0.233870717,0.9260022490954662,0.0651112490257979,-0.0887538874454887,0.3611137042314404,4.624,1.0,0.035505363,0.048336394,0.977991801,-0.7146955,-0.097131036,-0.867898088,0.9701436070244696,0.004765324198045,-0.0261484907295721,0.2410703836380663,4.624,2.0,0.143891214,0.08842023,0.96482443,-0.214205851,-0.206613947,-0.136344459,0.9185496552151058,0.0770431348191927,-0.0987821132871889,0.3749306340857715,4.625,3.0,0.084826609,0.073605963,0.973575168,-0.295422235,2.014586032,-2.597094702,0.931522473081428,0.0403973074886132,0.0981538058395226,0.3478502121476255,4.625,4.0,0.143626651,0.175394339,0.953046804,1.843223078,0.763540804,-2.639302612,0.8818174652528298,0.196079405015045,0.2004962141156137,0.3791465323978661,4.613,5.0,-0.127138864,0.270401963,0.932751032,-0.583008853,-1.134195759,-0.438459497,0.8841294026209721,0.2560042453891913,0.1248768488260397,0.370381962831713,4.613,6.0,0.141193247,0.15984035,0.956339652,-0.11492099,-1.368300286,3.796601172,0.9285627065942468,0.1674901653471357,0.0333418056787573,0.3295552585355539,4.613,7.0,-0.336009041,0.034512523,0.919839557,0.286809026,1.75418707,-1.887584235,0.8733399957549429,0.1217709438985464,0.1734704529461107,-0.438585329202294,4.614,8.0,0.596155001,-0.557315142,0.542574462,1.826826417,2.019066281,0.585666252,0.8110004447708823,-0.3467822495973475,-0.4327240776515906,-0.1864677520811955
70,70,4.739,0.0,0.159344026,0.015512755,0.966311976,-0.400712614,0.171009561,-0.083946242,0.9296126501442576,0.0409592046635411,-0.0862697145754092,0.3559497163816506,4.74,1.0,0.043229367,0.02101738,0.977885725,-0.381275281,-0.201827676,-1.8643357,0.9882372685467344,-0.0081248026523453,-0.0406075996202443,0.1472145084230205,4.74,2.0,0.113196179,0.041369947,0.971076286,-0.889897675,0.147573646,-2.269407613,0.9599793598191808,0.0386652005130534,-0.0977347954739352,0.2596007333273714,4.74,3.0,0.016270154,0.091620432,0.975918531,0.451990574,0.879551235,1.765582193,0.8935520258104698,0.0545897292635661,0.1316274279782895,0.4257451806336229,4.74,4.0,0.049884632,0.365350048,0.908110602,2.738194898,0.696795645,-2.054694138,0.8772660054165358,0.2791826419559337,0.2939964976308821,0.2569581046625968,4.69,5.0,-0.009944642,0.201021048,0.958163682,-0.773350441,-1.534955832,2.630773211,0.8519697913549228,0.2502357304385039,0.0036822558910975,0.4599086809597209,4.69,6.0,0.23748323,0.101874046,0.945108139,-0.878567182,-1.220708091,0.149820239,0.9335033149505224,0.1389467833794789,-0.0518762299160456,0.3264570555748176,4.69,7.0,-0.387624652,-0.006579473,0.899807668,-0.414350271,0.231473379,0.534554578,0.885090808513384,0.109765520396307,0.1905591597968284,-0.4101865402896335,4.69,8.0,0.40037567,-0.485714872,0.75103754,2.618265336,4.238403135,1.225253786,0.9493947359297163,-0.1963133642997577,-0.2081046385834265,-0.1296269948209714
71,71,4.759,0.0,0.153218691,-0.005288791,0.968255163,-0.346238484,0.032052168,0.072632629,0.9291749732141888,0.0224467684669109,-0.0898001794491354,0.3578630177996986,4.759,1.0,0.06829612,-0.000298424,0.977343108,-0.466113119,-0.365867926,-1.405097872,0.994812722330632,-0.0244375590553741,-0.0632181018144176,0.0758546293874919,4.759,2.0,0.121473829,0.0145891,0.972201762,-1.197740631,0.244881909,-3.568860002,0.9926728012382466,-0.0089580686287445,-0.0966541738078263,0.0719613324903144,4.759,3.0,-0.02325971,0.133858026,0.970407139,0.619597813,0.784201381,0.402723761,0.8785158310839287,0.0680087314097304,0.1689088134282957,0.4416498157287042,4.76,4.0,-0.033581775,0.460107255,0.864804359,0.762709721,0.72873051,-1.520019465,0.8791832976690585,0.2755139038254057,0.3372401236615581,0.1933854102340246,4.755,5.0,0.139275972,0.088770906,0.966356006,-1.989614778,-2.135555586,2.531763133,0.8144097499489381,0.1996684432527886,-0.1582219273841626,0.5213780717022505,4.755,6.0,0.283608064,0.036966902,0.937521154,-0.794954645,-0.276494911,1.346083356,0.9139256883213528,0.0964880794401249,-0.0914545310634328,0.3834917932632529,4.755,7.0,-0.335453619,0.016043342,0.920601695,1.01647587,-0.923401171,0.722132327,0.9021788430603156,0.140475701600641,0.1189527645551621,-0.3901155626206702,4.755,8.0,0.010287858,-0.241228556,0.950193109,2.986996569,6.247947835,0.142452046,0.9854926625428788,0.006274840795273,0.1146931158565539,-0.1249412967047187
72,72,4.838,0.0,0.156790144,-0.022238751,0.966861049,-0.416052481,-0.07754933,0.288023406,0.9240394593313124,0.0028933447643823,-0.0997754135206882,0.3690360050341233,4.838,1.0,0.086859658,-0.024582295,0.975422529,-0.403800719,-0.238902095,-0.745065759,0.9955869158214076,-0.0397302904784979,-0.0762610781448603,0.0375825095476017,4.838,2.0,0.11331209,-0.02818302,0.97316704,-0.462545948,-0.191087243,-0.545183362,0.9931676116757048,-0.0287207329007796,-0.1047421789804939,0.0426882953798427,4.839,3.0,-0.079152679,0.140164569,0.966381781,-0.076877223,0.708731093,-0.138028307,0.8771386791151664,0.0456350887950434,0.1887063691621068,0.4392437620597751,4.839,4.0,-0.156305122,0.438529456,0.86227874,-0.549058898,0.731332858,-1.568235148,0.8960945812723603,0.2103863324782567,0.3620980217948886,0.1470955986183481,4.804,5.0,0.253045005,-0.002056158,0.946454963,-0.276745816,-1.275316705,1.81042906,0.7607234996416018,0.1955067101955371,-0.227255168066553,0.5757012870826284,4.804,6.0,0.295448647,-0.006512566,0.933734804,-0.840636432,-0.626979087,0.037075934,0.9128952258663772,0.0659399311021878,-0.1411451408584795,0.3772960128183902,4.804,7.0,-0.244857286,0.112215403,0.941464079,1.157706904,-0.945951246,2.92865593,0.9472291558624736,0.1889807693157854,0.0200819486424893,-0.2581470713597193,4.804,8.0,-0.329019378,0.088009526,0.918921962,3.191177595,3.301325536,5.24321404,0.9481285230110588,0.211097056705744,0.1956980882063616,0.1348799272516685
73,73,4.924,0.0,0.160810448,-0.06010199,0.96480866,-0.593110897,-0.028368238,0.255296846,0.9190791531636202,-0.0252077058648688,-0.1104845653752302,0.3774271354830221,4.924,1.0,0.106881841,-0.045450428,0.97304909,-0.241548222,-0.254624465,-0.107491973,0.9944470955556678,-0.048997453353836,-0.0875557378879268,0.0317524246103465,4.924,2.0,0.138168121,-0.044255653,0.969445722,-0.179156232,-0.297434325,0.359264653,0.9907270532892732,-0.0379259121566536,-0.1158522198084915,0.0599982852528653,4.924,3.0,-0.092105401,0.121005131,0.968154612,-0.62739654,-0.085785479,-0.176569566,0.8847563757463366,0.016907452579013,0.1594946061954688,0.4375862934531287,4.924,4.0,-0.179513083,0.387073291,0.881865817,-1.142679069,-0.317682194,-0.240362578,0.9220096647718762,0.152626045615014,0.3188855152595599,0.1578464330443401,4.887,5.0,0.303081204,-0.030892194,0.931162422,-0.471150669,-0.761032562,2.333970852,0.6919982016791394,0.1637357044245344,-0.2780396877862498,0.6457732109534765,4.887,6.0,0.338957273,-0.081778426,0.915957017,-0.735678453,-1.083359477,2.252670992,0.8606620805480533,0.0350934443599282,-0.2084710412351463,0.4632159952289935,4.887,7.0,-0.181061,0.280823361,0.921280171,0.725095324,-0.221082021,3.178229422,0.9695967874460016,0.219692008563705,-0.0318552185207234,-0.1029695887174214,4.887,8.0,-0.350989946,0.339643815,0.849636473,1.719521558,1.141953101,3.638696459,0.8832084848473993,0.3063950622037773,0.2004392683225275,0.2930681454287289
74,74,4.974,0.0,0.158367771,-0.108571499,0.961101908,-0.781349861,-0.003280571,0.154224236,0.9148705359521228,-0.0612758380181772,-0.1234277165164702,0.3795033239872551,4.974,1.0,0.120098052,-0.06472466,0.969608775,-0.393717819,-0.413213731,0.137833031,0.991440294443901,-0.0666726957096096,-0.105684095971333,0.0378386846828299,4.975,2.0,0.15018719,-0.066333453,0.966112147,-0.547301537,-0.249123836,-0.477968631,0.9894174524300576,-0.0605946016212155,-0.127492271049509,0.0335726064495912,4.976,3.0,-0.062264692,0.060083347,0.975087739,-1.061517105,-0.652723413,-0.085756004,0.8929409275893623,-0.0173297780503089,0.0952271732073807,0.4396452707712298,4.976,4.0,-0.091363837,0.314150886,0.923651379,-1.485169854,-1.292302482,1.91663704,0.9351783580815516,0.1217933833959402,0.2093690698773451,0.2584035659884715,4.945,5.0,0.312104229,-0.091753138,0.924196035,-0.28153874,0.072830997,1.679673685,0.6447517320082529,0.1204315148666124,-0.2834310055824532,0.6996129782771403,4.945,6.0,0.408963204,-0.232650095,0.859895361,-1.833112878,-2.072750652,2.311649831,0.7844149729040535,-0.0165898556805834,-0.3329757518040725,0.5230153684959393,4.945,7.0,-0.23910772,0.266888503,0.91193148,-0.50062967,1.061149418,-1.774175976,0.9627398491914656,0.1961828612722519,0.0526136220534476,-0.1785387198795916,4.945,8.0,-0.192543003,0.462866235,0.842099781,-0.444821717,-1.095003089,0.970816199,0.8887329199964082,0.3014256248210388,0.1273760811612111,0.3210478524518063
75,75,5.03,0.0,0.176842413,-0.167152307,0.949570359,-0.807137049,-0.582884023,0.083760457,0.9067527115530192,-0.0856490503653742,-0.1640563094051479,0.3788789880781453,5.03,1.0,0.146605717,-0.095240155,0.963938834,-0.332761249,-0.524592358,0.60404357,0.986125408463662,-0.0831703472341034,-0.1267362402617473,0.0676557279736998,5.03,2.0,0.171429697,-0.09848954,0.959887842,-0.182336589,-0.53701601,0.745821528,0.9838598019323592,-0.0720573802426001,-0.1476570417823962,0.0708873903191781,5.03,3.0,-0.017131996,-0.023813247,0.979137592,-1.42451312,-0.886935766,-0.017336994,0.8948614946691764,-0.0614268281881869,0.0147957323474695,0.4418492236515628,5.03,4.0,0.028514913,0.204013373,0.957545531,-2.000494474,-1.030831272,2.103214979,0.9231588745475996,0.0614490318420842,0.1091527035972316,0.3634382975514473,5.022,5.0,0.220091004,-0.04579497,0.953867795,1.562694973,1.966338746,0.500903438,0.6507505890503787,0.0904261728630813,-0.1491892787997205,0.7389785769581825,5.023,6.0,0.543618754,-0.412426941,0.703280647,-2.821203628,-2.88256062,-1.717288425,0.7668007727337175,-0.0225547623067387,-0.5176750897145577,0.3788408097358108,5.023,7.0,-0.232445226,0.273169524,0.912331424,-0.013674595,-0.128506761,1.680399923,0.9753239586604486,0.1947382238472793,0.0338295277526888,-0.0983654557644541,5.023,8.0,-0.190404668,0.403542714,0.87285929,-0.694557841,-0.339563386,-1.200458477,0.9232931539810534,0.2535206108091945,0.1189745426476067,0.2628728017662616
76,76,5.104,0.0,0.258597148,-0.247609465,0.91207624,-1.918631524,-1.378619869,0.158795103,0.8806833948910143,-0.143294433466432,-0.2600643874948757,0.369093453826652,5.104,1.0,0.150955782,-0.094884968,0.962963756,1.197687785,-0.143576041,2.908114548,0.968694224394406,-0.037916532717083,-0.1180284386864705,0.2150886418034878,5.104,2.0,0.206682274,-0.058155852,0.956655285,1.31860892,-0.021253583,1.401647823,0.9791661708756312,-0.0124355688531511,-0.1384037688136567,0.1480654018271277,5.104,3.0,0.075382089,-0.123487329,0.969328335,-1.283178058,-0.929315754,-1.690403383,0.924367096778744,-0.0991564296933681,-0.0727592605633984,0.3611364878346797,5.104,4.0,0.113835368,0.045717879,0.972138562,-2.861515658,-1.128088609,0.00917417,0.9298980243291344,-0.053676599683674,-0.0108615308862449,0.3637176296826676,5.093,5.0,-0.10368782,0.23066832,0.946363018,3.110870409,5.137919729,-3.319301071,0.7915667606137173,0.0474106187674702,0.2057247461676508,0.5734558618881206,5.094,6.0,0.426195111,-0.66439486,0.579960513,-2.947813276,-0.214904068,1.991707893,0.7192069064302694,-0.1918424829371665,-0.5498212859329975,0.3789913468913106,5.094,7.0,-0.233180739,0.383572971,0.870960687,0.987197448,1.587212013,-2.354128403,0.9394768240275644,0.2444921600692948,0.1383628394435631,-0.1961188553934733,5.094,8.0,-0.08929062,0.30154682,0.928192707,-4.867660311,-0.553237041,2.071941047,0.9342052296848864,0.0257608026326212,0.0214576380411865,0.3551570633491969
77,77,5.185,0.0,0.361777587,-0.338581805,0.844995466,-0.987198678,-1.413338768,0.105914049,0.8532892026044074,-0.1557396153140559,-0.3358037197568014,0.3672581799471048,5.185,1.0,0.190615917,0.010264018,0.960781048,1.249238214,0.030559462,0.778308834,0.9606293827049012,0.0235779448728638,-0.1013377905893735,0.2576158415121962,5.186,2.0,0.194870102,0.041011904,0.958941952,2.250474547,0.170252196,1.90768853,0.9571142739233286,0.0857504168181606,-0.1161220326481592,0.2511867954359684,5.186,3.0,0.098251058,-0.164372357,0.961364373,-0.553467316,-0.287387606,0.179576811,0.9175116783395244,-0.1161422344640001,-0.0953349376697127,0.3682316541849844,5.186,4.0,0.104770504,-0.116583732,0.968013623,-1.568356439,0.764630104,-0.678956495,0.935539460548834,-0.1386407153958887,-0.0143421531882794,0.3245596592807506,5.184,5.0,-0.234073811,0.315676949,0.8816693055,2.7324591465,3.275670958,-1.1253589845,0.7758773799915167,0.0499181192673673,0.410498080974214,0.4764596500258925,5.184,6.0,0.444057996,-0.629684551,0.6032867165,-0.5934444375000001,0.6688326815000001,2.1524373800000003,0.6979997946000336,-0.2841816041245263,-0.4925580512332421,0.4352282950140451,5.184,7.0,-0.2823723389999999,0.3809859915,0.8559275879999999,1.0909220985,0.7025074405,-0.0247118264999999,0.920751217255918,0.299342910922441,0.1569897199911199,-0.1948467228857966,5.184,8.0,-0.057590799,0.1192922865,0.952924394,-5.345842905,-1.356362478,-1.0458122359999995,0.93094463456953,-0.1994544840701246,-0.141925602874144,0.2709559362688619
78,78,5.283,0.0,0.420734672,-0.385387603,0.796878116,-0.751225326,-1.166593947,0.049928453,0.8290197774617075,-0.1612041704173313,-0.3926317157219472,0.3641150365291727,5.283,1.0,0.183813932,0.024185237,0.962171249,0.57300364,-0.592366094,1.853310453,0.9291478305309582,0.0495608973530865,-0.124336667089153,0.3446279438616838,5.283,2.0,0.150602752,0.127349068,0.959485813,1.654057445,0.915030676,3.993993029,0.8887983988492928,0.1232546768490375,-0.0721174967024481,0.4354822126185468,5.283,3.0,0.111741773,-0.185268033,0.955944837,-0.427623884,-0.253720586,0.432010288,0.9063707944943924,-0.128064385058666,-0.1112295780658595,0.3869360116743341,5.284,4.0,0.093795477,-0.159925695,0.962912343,-0.403806822,-0.148546204,-0.090804837,0.935141640276618,-0.1474871045589158,-0.0342322825126573,0.3202902081605954,5.274,5.0,-0.364459802,0.400685578,0.816975593,2.354047884,1.413422187,1.068583102,0.7187121348353577,0.1256086189994377,0.4980953148232716,0.4685897986774388,5.274,6.0,0.461920881,-0.594974242,0.62661292,1.760924401,1.552569431,2.313166867,0.7166553378689485,-0.2979275142857395,-0.352413313183114,0.5229236843237874,5.274,7.0,-0.331563939,0.378399012,0.840894489,1.194646749,-0.182197132,2.30470475,0.9225711646417696,0.3619488635530054,0.0915345035169003,-0.097349376013056,5.274,8.0,-0.025890978,-0.062962247,0.977656081,-5.824025499,-2.159487915,-4.163565519,0.8570991754066227,-0.366459513983207,-0.3618185836894143,0.013256720011573
79,79,5.317,0.0,0.480861324,-0.431107032,0.737831359,-1.052875781,-1.291599483,-0.104133333,0.7996115809030286,-0.1730595443222641,-0.4582073668694542,0.347444560687444,5.317,1.0,0.188007739,0.032841011,0.961471559,0.251914519,-0.077047775,0.26418189,0.923890300076412,0.0608299864457127,-0.1203946440539064,0.3580943393253586,5.317,2.0,0.114187239,0.13453712,0.963872418,-0.051555528,0.439818631,1.32964373,0.8613917960773096,0.1030018093636065,-0.056281732975131,0.494193451445733,5.317,3.0,0.124878182,-0.189668551,0.952470619,0.329546703,-0.311456114,0.988780273,0.8876751051251586,-0.1066144250040147,-0.1118482400930381,0.4337698045163956,5.318,4.0,0.097824048,-0.156800602,0.962978726,0.630645748,-0.196645221,0.737360215,0.9278723998487092,-0.1076140737457001,-0.0330114244709456,0.3555028362548627,5.318,5.0,-0.521767572,0.386847484,0.734121669,1.050766823,1.540361779,-4.170044849,0.7746293705470395,0.0168069533221687,0.5673057135306944,0.2789822431649615,5.318,6.0,0.266171862,-0.525204035,0.782870527,3.913003301,4.116300812,-0.92847772,0.8699298775832578,-0.1984698917663231,-0.0702254490959254,0.4459821705511528,5.319,7.0,-0.387270214,0.369057364,0.82043613,0.191571339,1.393418182,-0.652267854,0.910203633592121,0.3604665678999887,0.1736498378126547,-0.1069529459610221,5.319,8.0,0.149259458,-0.299825459,0.92076018,-1.603903613,-0.806178825,0.191776375,0.8297150296032079,-0.4186907059626102,-0.3690109120565548,0.010099959122117
80,80,5.418,0.0,0.537089293,-0.475234805,0.668095032,-0.785954269,-0.747033487,-0.168500246,0.7831052122220956,-0.1825424281474958,-0.4948311239279249,0.3294945330484703,5.418,1.0,0.154616492,0.035274318,0.967225136,-0.371993151,1.009839317,-1.734533864,0.9586842349240676,0.0336135731042848,-0.0697143751114369,0.2737417967977115,5.418,2.0,0.122396058,0.133292256,0.963616303,-0.281483276,1.129277937,0.411843452,0.8553958802696694,0.0605647120069499,-0.0126132862656114,0.5142671569201892,5.419,3.0,0.116616589,-0.182979783,0.955935652,-0.035172895,0.321793395,-0.331799664,0.8971334782483181,-0.1084536720558548,-0.0982761279133525,0.416810659539837,5.419,4.0,0.104036738,-0.095834894,0.96973039,1.381503137,-0.238053332,1.061099384,0.9139695477322604,-0.0337780934085647,-0.0207506726028559,0.4038416964731335,5.349,5.0,-0.649712373,0.497196405,0.538412079,3.208266395,1.491961148,-0.214075834,0.7285652956705121,0.1159706784569858,0.6509046132889368,0.1790714831622986,5.349,6.0,-0.015960248,-0.237405757,0.95006988,2.660933032,5.673571939,-0.682891548,0.9002227314804134,-0.182689205859777,0.2406056626550794,0.3135802973507382,5.349,7.0,-0.480642348,0.376964165,0.766499805,0.39562026,2.087179885,-3.389341778,0.8545338747025013,0.3424203654596582,0.3206138037761723,-0.2229953791731531,5.35,8.0,0.213537424,-0.469128778,0.832881119,-2.99360977,-1.175897541,-0.310368865,0.7591992959538174,-0.5113371785627915,-0.4016146039527438,-0.0292648036821147
