Timestamp,Ax,Ay,Az,Rx,Ry,Rz,EMG
0,-0.2185,-1.6611,-0.0427,0.9025,1.0894,-1.6077,2055
0,-0.1809,-1.6003,0.0742,0.6211,1.3304,-1.5981,2048
0,-0.1538,-1.49,0.1423,0.3097,1.5315,-1.5961,2049
0,-0.1445,-1.3274,0.1775,0.0032,1.5917,-1.6012,2052
0,-0.1387,-1.1726,0.1895,-0.1224,1.5065,-1.5789,2048
0,-0.1013,-1.0391,0.188,-0.1306,1.3491,-1.5368,2039
0,-0.043,-0.9109,0.1746,-0.0799,1.1167,-1.4665,2051
0,-0.0012,-0.8245,0.1404,0.0349,0.8577,-1.3699,2050
0,0.0044,-0.8115,0.0596,0.2305,0.6015,-1.2744,2047
0,0.0034,-0.8418,0.0132,0.4295,0.3734,-1.1772,2055
0,-0.02,-0.8887,-0.0564,0.6027,0.1843,-1.078,2041
0,-0.0789,-0.9409,-0.0713,0.7114,0.1256,-1.0038,2039
0,-0.1223,-0.9871,-0.0854,0.7194,0.2466,-0.9497,2044
0,-0.1499,-1.0217,-0.1077,0.6645,0.4607,-0.9055,2043
0,-0.1836,-1.0417,-0.1157,0.5513,0.7267,-0.9036,2045
0,-0.2234,-1.0403,-0.1418,0.4148,0.9818,-0.9372,2054
0,-0.2434,-1.0364,-0.1716,0.3199,1.1448,-0.9509,2048
0,-0.2483,-1.0457,-0.2168,0.2456,1.219,-0.965,2047
0,-0.2258,-1.0269,-0.2607,0.1956,1.2813,-0.9658,2054
0,-0.2046,-1.0159,-0.2791,0.1907,1.3435,-0.9421,2041
0,-0.196,-1.0193,-0.3174,0.2232,1.432,-0.8701,2046
0,-0.21,-1.0254,-0.3401,0.3027,1.4976,-0.7918,2047
0,-0.2322,-1.0459,-0.3389,0.3426,1.5034,-0.7205,2046
0,-0.2686,-1.0479,-0.3093,0.3607,1.4415,-0.6557,2051
0,-0.2881,-1.0239,-0.2554,0.3484,1.342,-0.5763,2043
0,-0.3098,-1.0063,-0.2246,0.3061,1.3023,-0.5,2051
0,-0.3269,-0.9778,-0.1953,0.2128,1.256,-0.3878,2053
0,-0.3269,-0.9778,-0.1938,0.1293,1.1685,-0.2779,2042
0,-0.3425,-0.9756,-0.1726,-0.0056,0.9942,-0.1324,2045
0,-0.3521,-0.9595,-0.1838,-0.1123,0.7814,-0.0609,2043
0,-0.3594,-0.9436,-0.1824,-0.138,0.5896,0.0033,2040
0,-0.3164,-0.9221,-0.196,-0.175,0.367,0.0471,2046
0,-0.2817,-0.9712,-0.1882,-0.1704,0.0923,0.0328,2045
0,-0.2168,-0.98,-0.2009,-0.0895,-0.2344,0.0421,2047
0,-0.2039,-0.9836,-0.1777,-0.087,-0.5083,0.0747,2046
0,-0.2156,-1.0044,-0.2109,-0.0511,-0.7127,0.1092,2049
0,-0.2502,-1.0149,-0.2104,-0.0482,-0.8415,0.1308,2048
0,-0.271,-1.0286,-0.2014,-0.0686,-0.9389,0.1475,2043
0,-0.2988,-1.0479,-0.189,-0.0715,-0.9127,0.151,2040
0,-0.3223,-1.0659,-0.1785,-0.1471,-0.846,0.1962,2048
0,-0.3713,-1.071,-0.1938,-0.1883,-0.722,0.238,2043
0,-0.3879,-1.0938,-0.1814,-0.245,-0.622,0.2964,2039
0,-0.4016,-1.1233,-0.199,-0.2874,-0.5297,0.3417,2049
0,-0.3958,-1.1462,-0.2056,-0.3196,-0.4886,0.3774,2044
0,-0.3691,-1.1826,-0.2148,-0.3187,-0.4552,0.4313,2058
0,-0.3699,-1.2087,-0.2327,-0.2816,-0.4392,0.4416,2053
0,-0.3335,-1.2593,-0.2378,-0.2346,-0.4504,0.4694,2042
0,-0.3364,-1.3127,-0.2546,-0.1908,-0.4441,0.4542,2041
0,-0.3303,-1.3779,-0.2747,-0.1286,-0.4786,0.4875,2042
0,-0.3118,-1.439,-0.2776,-0.0798,-0.5054,0.4896,2046
0,-0.303,-1.4873,-0.2727,-0.0341,-0.4783,0.5193,2044
0,-0.2991,-1.5366,-0.259,0.0041,-0.3919,0.5164,2046
0,-0.2876,-1.6084,-0.2188,0.015,-0.3139,0.5566,2043
0,-0.2729,-1.6616,-0.1919,-0.061,-0.1997,0.5924,2044
0,-0.2944,-1.7114,-0.1489,-0.1689,-0.0361,0.602,2044
0,-0.2654,-1.8042,-0.1511,-0.2625,0.0631,0.6482,2041
0,-0.1926,-1.8713,-0.156,-0.3563,0.0787,0.6658,2047
0,-0.1309,-1.8162,-0.1926,-0.3839,0.0284,0.6661,2043
0,-0.1287,-1.677,-0.1636,-0.2931,-0.0707,0.6365,2047
0,-0.114,-1.6106,-0.0942,-0.2876,-0.2962,0.6494,2051
0,-0.0986,-1.5898,-0.0354,-0.2751,-0.6396,0.7482,2047
0,-0.0554,-1.5403,0.002,-0.2786,-0.9244,0.8147,2049
0,-0.0317,-1.4724,0.0073,-0.2586,-1.1548,0.8597,2045
0,-0.0469,-1.4282,0.0198,-0.2549,-1.3292,0.954,2052
0,-0.1157,-1.3694,-0.0017,-0.3085,-1.413,1.0535,2040
0,-0.3286,-1.3423,-0.0007,-0.3545,-1.0977,1.1283,2039
0,-0.2747,-1.3574,-0.0012,-0.5639,-0.9951,1.1868,2039
0,-0.2373,-1.4001,-0.0183,-0.7975,-0.8929,1.1492,2039
0,-0.2144,-1.3149,-0.0789,-0.8911,-0.8646,1.1575,2039
0,-0.1497,-1.2444,-0.1553,-0.8961,-0.946,1.1306,2047
0,-0.106,-1.2578,-0.2009,-0.8973,-1.0798,1.1423,2052
0,-0.0815,-1.1799,-0.2334,-0.7813,-1.1955,1.1404,2045
0,-0.0449,-1.1074,-0.2563,-0.6461,-1.4436,1.2137,2044
0,-0.1018,-1.1345,-0.2378,-0.6697,-1.5977,1.275,2050
0,-0.0989,-1.053,-0.27,-0.5498,-1.6944,1.2461,2046
0,-0.0967,-1.0369,-0.2446,-0.5643,-1.7463,1.332,2042
0,-0.1401,-1.0024,-0.2495,-0.5232,-1.7382,1.3391,2049
0,-0.2334,-1.0012,-0.2195,-0.5458,-1.6526,1.336,2041
0,-0.1472,-0.9575,-0.2341,-0.4959,-1.7125,1.4314,2052
0,-0.199,-0.9309,-0.1946,-0.5351,-1.6234,1.438,2039
0,-0.2026,-0.8826,-0.1956,-0.5589,-1.4259,1.3872,2034
0,-0.1975,-0.8708,-0.1753,-0.5627,-1.3484,1.4732,2049
0,-0.2192,-0.8474,-0.157,-0.5552,-1.2613,1.4398,2047
0,-0.2393,-0.8423,-0.1589,-0.5562,-1.2218,1.4235,2051
0,-0.2239,-0.8228,-0.1523,-0.5723,-1.2216,1.3862,2044
0,-0.249,-0.812,-0.166,-0.5468,-1.2477,1.3513,2045
0,-0.2605,-0.7871,-0.2043,-0.5094,-1.2493,1.284,2042
0,-0.2822,-0.7773,-0.2393,-0.4606,-1.2435,1.2388,2047
0,-0.3035,-0.7683,-0.2864,-0.3654,-1.2067,1.146,2049
0,-0.3149,-0.7952,-0.3418,-0.2469,-1.1701,1.0878,2046
0,-0.3528,-0.8123,-0.4111,-0.1016,-1.1242,0.9806,2049
0,-0.387,-0.8428,-0.4363,0.0374,-1.0279,0.8851,2041
0,-0.4124,-0.843,-0.4734,0.2171,-0.9154,0.7822,2047
0,-0.4287,-0.8591,-0.4602,0.4159,-0.7909,0.7359,2045
0,-0.4089,-0.8645,-0.4553,0.62,-0.6283,0.685,2049
0,-0.3967,-0.9248,-0.4175,0.7349,-0.4369,0.6392,2048
0,-0.3921,-0.9785,-0.377,0.7545,-0.2719,0.5697,2040
0,-0.3982,-1.0002,-0.3662,0.7809,-0.1586,0.4556,2031
0,-0.3799,-0.9893,-0.3669,0.8475,0.0309,0.375,2051
0,-0.3237,-1.062,-0.3638,0.8921,0.1594,0.3396,2043
0,-0.2996,-1.0967,-0.3523,0.9445,0.3031,0.2027,2040
1,-0.2878,-1.1113,-0.3074,0.9658,0.4289,0.0916,2045
1,-0.2949,-1.1248,-0.2617,0.9757,0.5363,-0.0337,2036
1,-0.2786,-1.1536,-0.2354,1.018,0.6678,-0.1341,2040
1,-0.2673,-1.2224,-0.2104,1.0537,0.8777,-0.2125,2045
1,-0.2444,-1.281,-0.2124,1.0858,1.1175,-0.2827,2055
1,-0.259,-1.3196,-0.1938,1.0826,1.3917,-0.3974,2050
1,-0.2605,-1.3184,-0.1682,1.109,1.6608,-0.4422,2038
1,-0.2314,-1.3184,-0.1375,1.1003,1.8383,-0.5152,2034
1,-0.208,-1.3057,-0.1223,1.0918,2.0029,-0.6002,2050
1,-0.2258,-1.3066,-0.1201,1.1007,2.1208,-0.7016,2032
1,-0.2354,-1.2937,-0.1411,1.1347,2.1744,-0.872,2038
1,-0.2742,-1.3687,-0.2053,1.1661,2.2864,-0.9958,2049
1,-0.3225,-1.4338,-0.2976,1.2866,2.3708,-1.1481,2044
1,-0.363,-1.5039,-0.3645,1.4135,2.4297,-1.3177,2056
1,-0.4109,-1.5498,-0.3867,1.5651,2.4591,-1.5504,2044
1,-0.4165,-1.5728,-0.3384,1.6042,2.4578,-1.7238,2049
1,-0.3962,-1.5198,-0.2656,1.592,2.4816,-1.8709,2036
1,-0.387,-1.4604,-0.1975,1.5047,2.6081,-1.9076,2049
1,-0.3523,-1.3899,-0.1301,1.4312,2.765,-1.9779,2040
1,-0.2915,-1.2998,-0.0896,1.3432,2.8794,-1.9947,2028
1,-0.262,-1.2136,-0.0676,1.2624,2.8528,-1.9868,2037
1,-0.2202,-1.1125,-0.0352,1.1993,2.7336,-1.9322,2029
1,-0.1772,-1.0251,-0.03,1.181,2.5372,-1.8783,2042
1,-0.1426,-0.9917,-0.0256,1.2126,2.2631,-1.8403,2052
1,-0.0928,-0.9739,-0.0564,1.2958,1.9235,-1.8,2056
1,-0.052,-0.9722,-0.0996,1.4138,1.5771,-1.7744,2045
1,-0.0173,-0.9834,-0.1426,1.5386,1.1929,-1.7307,2045
1,-0.0107,-1.0181,-0.1653,1.6476,0.804,-1.6801,2044
1,-0.0354,-1.0439,-0.1917,1.7393,0.5055,-1.6495,2047
1,-0.0637,-1.0652,-0.1946,1.8104,0.3003,-1.6125,2050
1,-0.1379,-1.0994,-0.1868,1.8,0.3377,-1.5576,2042
1,-0.219,-1.1509,-0.146,1.6791,0.5645,-1.4942,2048
1,-0.2271,-1.1694,-0.1604,1.458,0.9449,-1.4636,2051
1,-0.2041,-1.1636,-0.1833,1.3027,1.2884,-1.428,2049
1,-0.231,-1.1296,-0.1829,1.1178,1.5185,-1.411,2048
1,-0.189,-1.1177,-0.2153,0.9577,1.7076,-1.3685,2049
1,-0.125,-1.0754,-0.2502,0.9247,1.7877,-1.3541,2050
1,-0.0884,-1.0366,-0.2734,0.932,1.8057,-1.2944,2054
1,-0.0691,-1.0051,-0.2786,0.9881,1.743,-1.2865,2029
1,-0.0532,-1.0125,-0.2971,1.0734,1.6217,-1.2953,2053
1,-0.0806,-1.0239,-0.2913,1.1098,1.4893,-1.29,2035
1,-0.1196,-1.0352,-0.3044,1.1252,1.3876,-1.2441,2047
1,-0.1567,-1.0464,-0.2947,1.0829,1.3304,-1.2418,2048
1,-0.1853,-1.0659,-0.2927,0.9728,1.3288,-1.193,2040
1,-0.2217,-1.0608,-0.2708,0.8524,1.3254,-1.1694,2047
1,-0.2393,-1.0691,-0.281,0.7279,1.3411,-1.1367,2040
1,-0.2422,-1.093,-0.2651,0.6022,1.3496,-1.131,2048
1,-0.2236,-1.0837,-0.2925,0.4863,1.3363,-1.0881,2048
1,-0.2112,-1.0745,-0.2893,0.4326,1.2644,-1.0404,2054
1,-0.2,-1.0588,-0.2849,0.377,1.1749,-1.0162,2030
1,-0.2109,-1.0596,-0.2673,0.3096,1.0621,-0.9706,2055
1,-0.2043,-1.0471,-0.2805,0.2661,0.9187,-0.9512,2044
1,-0.2,-1.0332,-0.2759,0.2055,0.7437,-0.9349,2040
1,-0.2227,-1.0486,-0.2722,0.1661,0.5862,-0.8933,2048
1,-0.2202,-1.0637,-0.2844,0.1344,0.4434,-0.8468,2057
1,-0.2231,-1.0811,-0.2805,0.0763,0.3163,-0.8272,2042
1,-0.2402,-1.0894,-0.2986,0.0392,0.1887,-0.7988,2037
1,-0.2336,-1.1157,-0.3018,-0.0085,0.0875,-0.7777,2041
1,-0.248,-1.1316,-0.3,-0.1253,0.0288,-0.7364,2048
1,-0.2307,-1.1147,-0.2988,-0.1847,-0.084,-0.713,2048
1,-0.2275,-1.134,-0.3066,-0.2285,-0.2065,-0.6845,2045
1,-0.24,-1.168,-0.3264,-0.2458,-0.3545,-0.6881,2047
1,-0.2307,-1.2124,-0.3413,-0.2818,-0.5099,-0.6918,2047
1,-0.2256,-1.2722,-0.3757,-0.2919,-0.7002,-0.6958,2042
1,-0.2251,-1.3423,-0.3682,-0.3159,-0.9361,-0.7174,2032
1,-0.2903,-1.375,-0.3965,-0.2289,-1.2083,-0.7184,2040
1,-0.2852,-1.4646,-0.3406,-0.2614,-1.4708,-0.6203,2046
1,-0.3105,-1.5229,-0.3193,-0.1045,-1.7434,-0.3892,2045
1,-0.6482,-1.7732,-0.0576,0.5777,-2.4104,-0.0298,2042
1,-0.698,-1.7571,0.02,0.1641,-1.9941,0.2325,2043
1,-1.0193,-1.5916,0.6516,-1.2194,-2.3302,0.074,2045
1,0.1519,-1.7771,-0.0371,-1.1461,-2.0443,0.082,2099
1,0.0554,-1.7434,0.1108,-0.8006,-2.0347,0.2948,2055
1,0.1899,-1.7014,0.1602,-0.5414,-2.2901,0.402,2065
1,0.3708,-1.6765,0.2578,-0.2264,-2.9984,0.5196,2034
1,0.489,-1.6392,0.3027,-0.0204,-3.6916,0.6328,2043
1,0.4634,-1.6118,0.335,0.1775,-4.3635,0.7376,2046
1,0.4016,-1.5737,0.2063,0.3269,-4.3635,0.7967,2052
1,0.3218,-1.5034,0.1064,0.4538,-4.3635,0.9658,2049
1,-0.0786,-1.46,-0.0146,0.5827,-4.3635,1.0998,2025
1,-0.0918,-1.3425,-0.0461,0.5935,-4.3086,1.659,2031
1,-0.5066,-1.1938,-0.0051,0.7949,-3.5507,1.9349,2012
1,-0.6499,-1.0691,-0.1829,0.5851,-2.4546,1.6395,2057
1,-0.2913,-1.092,-0.0154,0.0828,-1.6531,1.5755,2062
1,-0.1882,-1.0662,0.0193,-0.6268,-1.3117,1.564,2053
1,0.0615,-1.1274,-0.2156,-1.1757,-1.4419,1.2155,2039
1,0.301,-0.9729,-0.1775,-0.4402,-2.2836,0.9549,2037
1,0.3511,-0.8572,-0.1938,-0.0016,-2.9831,0.7726,2038
1,0.2192,-0.8237,-0.2363,0.6528,-3.5111,0.8226,2038
1,0.196,-0.9531,-0.2073,0.9079,-3.5054,0.738,2042
1,0.1772,-0.9321,-0.2231,1.2637,-3.2859,0.5689,2049
1,-0.0159,-0.9905,-0.1672,1.4747,-2.922,0.5616,2046
1,-0.1619,-1.0361,-0.2053,1.5095,-2.3744,0.5434,2048
1,-0.2415,-1.0256,-0.1992,1.5456,-1.59,0.5803,2045
1,-0.2754,-1.0127,-0.1492,1.5344,-0.7581,0.6142,2046
1,-0.2458,-1.0176,-0.0857,1.4446,0.0395,0.6886,2046
1,-0.1921,-1.0208,-0.0476,1.323,0.8128,0.7267,2049
1,-0.1289,-1.0723,-0.0327,1.1493,1.4664,0.812,2040
1,-0.0908,-1.0994,-0.0327,0.8859,1.9904,0.8657,2040
1,0.0359,-1.0789,-0.0913,0.703,2.2121,0.9475,2056
1,0.1199,-1.095,-0.1331,0.6008,2.2549,0.9793,2046
1,0.189,-1.1057,-0.1619,0.4938,2.1534,1.0262,2037
1,0.2354,-1.1016,-0.2048,0.3811,1.9564,1.0579,2052
1,0.2549,-1.1011,-0.2427,0.3009,1.6937,1.1234,2060
2,0.2375,-1.0952,-0.2805,0.181,1.3937,1.2018,2038
2,0.196,-1.0857,-0.3003,0.0591,1.0536,1.2624,2037
2,0.1174,-1.0886,-0.3303,-0.0238,0.7945,1.2814,2047
2,0.0701,-1.0757,-0.3503,-0.1056,0.5855,1.2909,2058
2,0.0266,-1.0771,-0.3718,-0.1738,0.4184,1.3039,2042
2,-0.0005,-1.1101,-0.375,-0.2554,0.3004,1.3099,2050
2,-0.0354,-1.1174,-0.3848,-0.3267,0.1951,1.2979,2038
2,-0.1104,-1.1309,-0.3643,-0.3654,0.1531,1.2142,2049
2,-0.1543,-1.1387,-0.3423,-0.4583,0.1486,1.1379,2045
2,-0.1951,-1.1489,-0.3149,-0.597,0.2109,1.0556,2054
2,-0.1699,-1.1045,-0.2854,-0.6782,0.2313,0.9661,2060
2,-0.1633,-1.0767,-0.2471,-0.7577,0.2424,0.9238,2042
2,-0.1423,-1.0745,-0.1863,-0.8408,0.2169,0.8865,2042
2,-0.1067,-1.0967,-0.1602,-0.8661,0.1587,0.8722,2045
2,-0.0837,-1.1521,-0.1582,-0.8059,0.0641,0.8713,2039
2,-0.0813,-1.2378,-0.1814,-0.6998,-0.0092,0.8372,2049
2,-0.0583,-1.3362,-0.1692,-0.5886,-0.0953,0.8327,2042
2,-0.0764,-1.4619,-0.1619,-0.4787,-0.1033,0.7891,2043
2,-0.0361,-1.5051,-0.1489,-0.3894,-0.0924,0.7275,2029
2,-0.0457,-1.4885,-0.1345,-0.3133,-0.0453,0.5891,2046
2,-0.0977,-1.4519,-0.1641,-0.2807,0.0439,0.4153,2045
2,-0.1609,-1.3857,-0.1899,-0.1389,0.1675,0.1806,2051
2,-0.2197,-1.3464,-0.2175,0.0991,0.2635,-0.1474,2054
2,-0.2573,-1.4236,-0.2314,0.3835,0.4213,-0.3974,2046
2,-0.2725,-1.5837,-0.2483,0.6842,0.5457,-0.6593,2052
2,-0.2456,-1.7334,-0.2212,0.8528,0.6261,-0.9343,2034
2,-0.1824,-1.7632,-0.1396,0.8068,0.6889,-1.0869,2041
2,-0.1255,-1.6819,-0.0425,0.5484,0.801,-1.1031,2043
2,-0.1062,-1.4851,0.0659,0.3193,1.0054,-1.0702,2053
2,-0.104,-1.28,0.1616,0.0481,1.2619,-1.0239,2011
2,-0.0842,-1.1045,0.209,-0.2012,1.3889,-0.9978,2051
2,-0.0698,-0.9658,0.2219,-0.3444,1.3113,-0.9831,2059
2,-0.0286,-0.8059,0.1809,-0.2695,0.9646,-1.0011,2052
2,0.0483,-0.7466,0.1199,-0.0332,0.4833,-0.9878,2054
2,0.1003,-0.761,0.0569,0.3405,0.0326,-0.9604,2049
2,0.1326,-0.8586,0.022,0.6906,-0.2992,-0.8902,2047
2,0.1157,-0.9739,0.0078,0.8965,-0.4593,-0.8214,2046
2,0.0398,-1.0879,0.021,0.9463,-0.438,-0.7953,2045
2,-0.0586,-1.1284,0.0271,0.8923,-0.3469,-0.8321,2036
2,-0.1257,-1.1589,0.0198,0.748,-0.2312,-0.8716,2046
2,-0.1843,-1.1387,0.0022,0.5513,-0.0406,-0.9274,2044
2,-0.1792,-1.1074,-0.0264,0.3923,0.1786,-0.9359,2048
2,-0.1489,-1.0938,-0.054,0.2836,0.392,-0.9307,2046
2,-0.0854,-1.0718,-0.0835,0.2143,0.5468,-0.8997,2050
2,-0.0425,-1.0564,-0.1221,0.1985,0.6212,-0.873,2038
2,-0.0261,-1.0752,-0.157,0.2057,0.6056,-0.876,2050
2,-0.0024,-1.0674,-0.167,0.2301,0.4938,-0.8351,2050
2,-0.0093,-1.04,-0.176,0.2469,0.3277,-0.7914,2043
2,-0.0403,-1.0361,-0.187,0.251,0.2161,-0.7576,2059
2,-0.0791,-1.0276,-0.1978,0.2372,0.1585,-0.7444,2052
2,-0.1233,-1.02,-0.2058,0.2067,0.0976,-0.7464,2030
2,-0.1533,-1.0149,-0.2053,0.1642,0.0261,-0.7462,2051
2,-0.1917,-1.0046,-0.2151,0.1197,-0.0127,-0.7712,2043
2,-0.2109,-0.9854,-0.2251,0.1031,-0.0479,-0.7886,2038
2,-0.2134,-0.9802,-0.2334,0.0795,-0.1033,-0.8048,2046
2,-0.2175,-0.9634,-0.2468,0.0538,-0.1389,-0.817,2050
2,-0.2417,-0.96,-0.2571,0.0458,-0.173,-0.808,2057
2,-0.2563,-0.9536,-0.2769,0.0575,-0.1783,-0.7977,2042
2,-0.2935,-0.9509,-0.2769,0.0704,-0.1565,-0.7799,2050
2,-0.325,-0.9541,-0.2961,0.0774,-0.1057,-0.7445,2048
2,-0.3381,-0.9719,-0.3181,0.0736,-0.0117,-0.7299,2028
2,-0.3584,-0.9871,-0.3123,0.0462,0.067,-0.7074,2049
2,-0.3408,-0.9895,-0.3142,0.0165,0.1115,-0.679,2054
2,-0.3267,-1.001,-0.3179,-0.0031,0.1064,-0.6341,2037
2,-0.293,-1.0093,-0.3232,-0.0164,0.0419,-0.6027,2037
2,-0.2568,-1.0208,-0.3032,-0.0107,-0.0465,-0.5679,2043
2,-0.23,-1.0542,-0.2839,-0.0189,-0.147,-0.4922,2063
2,-0.2051,-1.0859,-0.2769,-0.026,-0.271,-0.4336,2050
2,-0.1821,-1.1353,-0.261,-0.0471,-0.4152,-0.3852,2057
2,-0.1738,-1.1501,-0.2256,-0.0449,-0.6914,-0.3398,2045
2,-0.1409,-1.196,-0.2087,-0.0747,-0.8742,-0.2948,2046
2,-0.1533,-1.2659,-0.1978,-0.1286,-1.0139,-0.2376,2045
2,-0.1738,-1.3362,-0.1731,-0.1241,-1.15,-0.1807,2036
2,-0.1621,-1.4233,-0.1443,-0.2032,-1.3623,-0.1519,2041
2,-0.2749,-1.502,0.0781,-0.2629,-2.1804,-0.066,2036
2,-0.3022,-1.5483,0.1497,-0.5903,-3.4208,0.0221,2043
2,-0.0637,-1.5659,0.0562,-0.5878,-3.42,0.0609,2057
2,-0.0813,-1.606,0.0557,-0.5156,-3.0263,0.1783,2049
2,-0.0867,-1.6465,-0.0391,-0.5494,-2.2097,0.2051,2060
2,-0.0771,-1.7383,-0.1201,-0.4468,-1.4145,0.2538,2058
2,-0.1084,-1.7781,-0.0977,-0.3437,-0.9416,0.3547,2045
2,-0.1421,-1.771,-0.1501,-0.2223,-0.6755,0.4908,2041
2,-0.2358,-1.802,-0.1382,-0.1389,-0.7919,0.6167,2045
2,-0.1775,-1.8232,-0.1582,-0.0507,-0.913,0.7095,2046
2,-0.2007,-1.7212,-0.1663,0.1433,-0.7847,0.775,2037
2,0.0527,-1.7439,-0.1611,0.1511,-0.868,0.8284,2040
2,0.0715,-1.5798,-0.1353,0.2605,-1.0543,0.9099,2038
2,-0.0305,-1.3762,-0.1604,0.3682,-1.1481,0.971,2048
2,0.04,-1.3579,-0.1404,0.4904,-0.815,1.0027,2045
2,0.041,-1.3711,-0.1833,0.5203,-0.2453,0.8819,2042
2,-0.0242,-1.3223,-0.1316,0.4677,0.0735,0.7577,2039
2,-0.0303,-1.1897,0.0508,0.176,-0.5719,0.8842,2038
2,-0.0251,-1.1001,0.0425,-0.1252,-1.2065,1.0218,2040
2,0.0601,-1.0288,-0.0344,-0.1614,-1.5868,1.0314,2046
2,0.1055,-0.9902,-0.1287,-0.2072,-1.729,1.0234,2045
2,0.0576,-0.9707,-0.1443,-0.1611,-1.8121,1.0134,2046
2,-0.0046,-0.9429,-0.1724,0.0045,-1.9453,1.0087,2041
2,0.0085,-0.9419,-0.1682,0.1177,-2.1474,0.9549,2040
2,0.0027,-0.9526,-0.1804,0.2212,-2.2836,0.895,2055
2,-0.0327,-0.9624,-0.2332,0.2982,-2.2527,0.9135,2049
2,-0.0452,-0.9785,-0.291,0.3635,-2.0688,0.9381,2047
3,-0.0708,-0.9905,-0.3083,0.4789,-1.9046,0.9601,2039
3,-0.0603,-1.0457,-0.2971,0.4876,-1.7283,1.0441,2044
3,-0.0659,-1.0664,-0.3081,0.4655,-1.5362,1.1251,2061
3,-0.0669,-1.0786,-0.2944,0.4052,-1.2752,1.2058,2035
3,-0.084,-1.0808,-0.2542,0.2996,-0.9961,1.284,2063
3,-0.0903,-1.1008,-0.2461,0.1458,-0.7015,1.35,2025
3,-0.0935,-1.0879,-0.2327,-0.0169,-0.3987,1.3865,2046
3,-0.0632,-1.0725,-0.2275,-0.1898,-0.1292,1.391,2041
3,-0.0288,-1.042,-0.2292,-0.3061,0.0304,1.4015,2051
3,0.01,-1.0154,-0.2378,-0.3665,0.1075,1.4071,2049
3,0.0122,-1.0046,-0.2451,-0.4031,0.1392,1.3748,2040
3,0.0303,-0.9763,-0.2642,-0.3904,0.1245,1.376,2050
3,0.02,-0.9561,-0.2769,-0.3883,0.0988,1.3316,2042
3,0.0044,-0.9392,-0.2822,-0.3472,0.0642,1.2983,2045
3,-0.0413,-0.9338,-0.3201,-0.2577,0.0655,1.246,2045
3,-0.0847,-0.9495,-0.325,-0.1958,0.1264,1.1889,2052
3,-0.1177,-0.9832,-0.3508,-0.1728,0.233,1.1392,2049
3,-0.1494,-1.0034,-0.3682,-0.1354,0.3486,1.076,2039
3,-0.1685,-1.0337,-0.376,-0.1308,0.4532,1.0053,2045
3,-0.1855,-1.0676,-0.365,-0.1172,0.5335,0.9027,2045
3,-0.1934,-1.0911,-0.3276,-0.155,0.6219,0.8361,2046
3,-0.1697,-1.0776,-0.3181,-0.1866,0.6553,0.7433,2058
3,-0.1699,-1.095,-0.2671,-0.2246,0.7285,0.6574,2046
3,-0.1479,-1.0996,-0.2422,-0.257,0.7348,0.5877,2044
3,-0.1189,-1.104,-0.1946,-0.2996,0.7219,0.5347,2038
3,-0.085,-1.0918,-0.1702,-0.3575,0.6285,0.4721,2050
3,-0.0696,-1.0818,-0.1609,-0.3501,0.5,0.3898,2044
3,-0.1079,-1.1086,-0.1775,-0.3425,0.481,0.2871,2043
3,-0.1282,-1.1455,-0.1907,-0.2951,0.4785,0.192,2041
3,-0.1506,-1.2393,-0.2058,-0.1779,0.4891,0.1056,2042
3,-0.1575,-1.3333,-0.2405,-0.0518,0.4963,0.0005,2061
3,-0.1626,-1.4153,-0.249,0.0437,0.5208,-0.139,2063
3,-0.1685,-1.4802,-0.2581,0.1063,0.5798,-0.2729,2036
3,-0.1692,-1.4766,-0.2798,0.1627,0.6357,-0.443,2039
3,-0.1982,-1.4031,-0.3044,0.2312,0.6926,-0.5976,2047
3,-0.2595,-1.333,-0.3354,0.4241,0.7922,-0.7818,2053
3,-0.3264,-1.3535,-0.4031,0.6791,0.8689,-1.0198,2051
3,-0.3657,-1.4355,-0.4749,1.0203,0.8958,-1.2487,2044
3,-0.3931,-1.5706,-0.498,1.3668,0.8578,-1.4958,2035
3,-0.3816,-1.7192,-0.4561,1.6006,0.8985,-1.7398,2057
3,-0.3286,-1.79,-0.3218,1.5817,1.0255,-1.7572,2021
3,-0.2842,-1.6814,-0.1411,1.3359,1.2272,-1.7221,2048
3,-0.2571,-1.5305,0.0186,1.0308,1.5327,-1.5785,2033
3,-0.2031,-1.3862,0.2034,0.6299,1.7022,-1.4993,2050
3,-0.1023,-1.2708,0.29,0.3271,1.6691,-1.4021,2054
3,-0.0374,-1.1296,0.311,0.1442,1.5169,-1.2945,2048
3,0.0354,-0.9822,0.2812,0.1758,1.3213,-1.2484,2043
3,0.1089,-0.8691,0.2058,0.4052,1.0616,-1.2327,2047
3,0.1299,-0.8809,0.0969,0.785,0.7524,-1.2291,2041
3,0.0657,-1.0361,0.0347,0.9351,0.5329,-1.219,2046
3,0.0078,-1.0562,-0.04,1.1264,0.2328,-1.1336,2048
3,-0.0134,-1.0586,-0.0801,1.2005,0.0269,-1.0344,2046
3,-0.0664,-1.0496,-0.1016,1.1878,0.0647,-0.9879,2054
3,-0.1135,-1.0432,-0.1138,1.1058,0.2883,-0.9516,2038
3,-0.1562,-1.0254,-0.1208,0.9492,0.5637,-0.9111,2052
3,-0.1902,-1.0208,-0.1768,0.7722,0.7943,-0.832,2047
3,-0.2085,-0.9971,-0.2441,0.6468,0.9911,-0.8016,2045
3,-0.1794,-0.9753,-0.3076,0.5576,1.1408,-0.7632,2050
3,-0.1785,-0.9702,-0.3906,0.5347,1.3082,-0.762,2057
3,-0.1482,-0.9551,-0.4231,0.5404,1.4039,-0.7268,2050
3,-0.1536,-0.9265,-0.4546,0.5931,1.4163,-0.7011,2040
3,-0.1921,-0.9319,-0.4578,0.662,1.4243,-0.7043,2038
3,-0.199,-0.9321,-0.447,0.7096,1.3563,-0.6413,2035
3,-0.1914,-0.9575,-0.4419,0.7296,1.3003,-0.6042,2029
3,-0.1831,-0.9866,-0.4194,0.722,1.2912,-0.6043,2065
3,-0.1917,-0.9939,-0.3765,0.649,1.2786,-0.5627,2051
3,-0.2,-0.9854,-0.3506,0.5984,1.2327,-0.5561,2043
3,-0.209,-0.9766,-0.3193,0.5849,1.1888,-0.5608,2039
3,-0.2263,-0.9736,-0.2878,0.5384,1.2015,-0.5405,2075
3,-0.252,-0.9714,-0.2722,0.5032,1.2834,-0.5117,2042
3,-0.2839,-0.9534,-0.2637,0.4793,1.4443,-0.4516,2048
3,-0.3345,-0.9543,-0.2585,0.4456,1.6299,-0.3954,2060
3,-0.374,-0.9612,-0.2544,0.379,1.8398,-0.3345,2042
3,-0.3992,-0.967,-0.2585,0.3333,2.0425,-0.2864,2048
3,-0.4248,-1.0293,-0.2395,0.3037,2.1437,-0.2611,2031
3,-0.3965,-1.084,-0.2351,0.2863,2.1379,-0.3176,2052
3,-0.3406,-1.1511,-0.2468,0.3269,2.0454,-0.2995,2033
3,-0.323,-1.1931,-0.2261,0.3517,1.9542,-0.3354,2046
3,-0.282,-1.1995,-0.2224,0.382,1.8974,-0.3631,2035
3,-0.2944,-1.2065,-0.2148,0.3635,1.8182,-0.3243,2055
3,-0.3125,-1.1885,-0.1936,0.3089,1.6685,-0.3183,2043
3,-0.3066,-1.167,-0.1597,0.2409,1.4745,-0.2974,2037
3,-0.3003,-1.1365,-0.145,0.1402,1.2351,-0.2462,2047
3,-0.3174,-1.1406,-0.1289,0.0607,0.9758,-0.2089,2042
3,-0.3201,-1.158,-0.1733,-0.0081,0.7028,-0.1796,2039
3,-0.3101,-1.1973,-0.21,-0.0185,0.4089,-0.1157,2055
3,-0.3435,-1.218,-0.2693,0.0672,0.2338,-0.1278,2042
3,-0.2646,-1.3381,-0.2837,0.0979,-0.0714,-0.0511,2043
3,-0.2341,-1.437,-0.282,0.1148,-0.4315,-0.0003,2059
3,-0.2263,-1.5132,-0.271,0.1137,-0.7187,0.1064,2043
3,-0.2158,-1.6155,-0.2278,0.0531,-0.823,0.173,2049
3,-0.2458,-1.6902,-0.2144,-0.0766,-0.7798,0.2474,2051
3,-0.2913,-1.7693,-0.1743,-0.2324,-0.6385,0.279,2049
3,-0.2566,-1.8892,-0.1282,-0.451,-0.6046,0.3693,2044
3,-0.1567,-1.9519,-0.1125,-0.5493,-0.6577,0.4267,2040
3,-0.0999,-1.9246,-0.1675,-0.5446,-0.7451,0.4438,2046
3,0.0154,-1.876,-0.1326,-0.5421,-0.9604,0.4726,2046
3,0.0518,-1.7817,-0.0923,-0.5468,-1.2355,0.5048,2039
3,0.0352,-1.6863,-0.0386,-0.5908,-1.5829,0.5783,2044
3,-0.0315,-1.5879,-0.0056,-0.6581,-1.8707,0.6272,2042
3,-0.0249,-1.4548,-0.0056,-0.7064,-2.1675,0.7469,2048
3,-0.0098,-1.3469,0.011,-0.7853,-2.355,0.8091,2042
4,-0.0994,-1.2185,0.0149,-0.7823,-2.3218,0.9712,2041
4,-0.0928,-1.1355,-0.0325,-0.8064,-2.3135,1.1034,2041
4,-0.1074,-1.0798,-0.0195,-0.8925,-2.2754,1.2294,2035
4,-0.1223,-1.0566,-0.0388,-1.0186,-2.2682,1.2926,2055
4,-0.094,-1.052,-0.0527,-1.132,-2.3587,1.3999,2041
4,-0.0925,-1.0063,-0.1084,-1.2186,-2.5212,1.3844,2053
4,-0.0835,-0.9998,-0.1697,-1.2171,-2.6345,1.3565,2057
4,-0.1008,-0.9946,-0.2383,-1.111,-2.7441,1.3199,2052
4,-0.1265,-1.001,-0.2688,-1.0078,-2.8602,1.3364,2051
4,-0.1643,-1.0562,-0.2944,-0.9211,-2.9244,1.2685,2044
4,-0.2053,-1.0886,-0.3223,-0.8389,-2.9146,1.3137,2042
4,-0.2212,-1.0779,-0.3296,-0.86,-2.9456,1.3335,2043
4,-0.1948,-1.0684,-0.3516,-0.8187,-2.8675,1.3412,2070
4,-0.1985,-1.0723,-0.3438,-0.802,-2.7217,1.3528,2040
4,-0.1577,-1.0776,-0.3347,-0.7484,-2.5135,1.4263,2037
4,-0.1235,-1.0779,-0.2534,-0.759,-2.3344,1.5223,2045
4,-0.0635,-1.0681,-0.2166,-0.8548,-2.2033,1.5831,2037
4,-0.0857,-1.032,-0.207,-0.8997,-2.0052,1.6169,2049
4,-0.0913,-0.9768,-0.2241,-0.9821,-1.7205,1.5522,2043
4,-0.083,-0.9453,-0.228,-0.9108,-1.5543,1.5697,2045
4,-0.0789,-0.9653,-0.2515,-0.8962,-1.4089,1.5379,2055
4,-0.0996,-0.9526,-0.2905,-0.8473,-1.2655,1.4757,2039
4,-0.1069,-0.9202,-0.3025,-0.7237,-1.1531,1.3938,2058
4,-0.1355,-0.9143,-0.3196,-0.6634,-1.0351,1.3083,2045
4,-0.1367,-0.9175,-0.3401,-0.5825,-0.9337,1.2441,2048
4,-0.1843,-0.9312,-0.3616,-0.4682,-0.7925,1.1519,2042
4,-0.2144,-0.9377,-0.3682,-0.383,-0.6466,1.0557,2035
4,-0.2214,-0.9648,-0.3806,-0.324,-0.5223,0.967,2034
4,-0.2195,-0.968,-0.3809,-0.281,-0.426,0.9102,2037
4,-0.2361,-0.979,-0.3806,-0.2317,-0.324,0.8074,2049
4,-0.2263,-0.981,-0.3684,-0.1939,-0.2654,0.714,2050
4,-0.2188,-0.9905,-0.3606,-0.1553,-0.193,0.607,2054
4,-0.2021,-0.9885,-0.3455,-0.1045,-0.1445,0.5299,2042
4,-0.1816,-0.9805,-0.3149,-0.0787,-0.0951,0.4493,2062
4,-0.1812,-0.9636,-0.3076,-0.0577,-0.0671,0.3571,2045
4,-0.1853,-0.9551,-0.2883,-0.032,-0.0356,0.2539,2051
4,-0.1824,-0.9541,-0.2681,0.0268,-0.0342,0.1571,2036
4,-0.1855,-0.988,-0.2725,0.0806,-0.0128,0.0256,2037
4,-0.1924,-1.0474,-0.2808,0.1474,0.0272,-0.1088,2046
4,-0.1877,-1.1475,-0.2998,0.2025,0.0703,-0.2064,2039
4,-0.1836,-1.2368,-0.3259,0.3009,0.0919,-0.3136,2033
4,-0.1987,-1.3474,-0.3425,0.4541,0.1325,-0.4368,2013
4,-0.2085,-1.4365,-0.3428,0.5769,0.1589,-0.6413,2061
4,-0.2109,-1.4778,-0.3096,0.6323,0.2139,-0.8512,2041
4,-0.2224,-1.4836,-0.2979,0.654,0.2574,-0.9766,2042
4,-0.2012,-1.4871,-0.2915,0.6987,0.316,-1.1331,2038
4,-0.2097,-1.4702,-0.3293,0.7321,0.3773,-1.2291,2029
4,-0.26,-1.5044,-0.408,0.881,0.373,-1.3443,2051
4,-0.3521,-1.5696,-0.5083,1.115,0.379,-1.6237,2048
4,-0.4492,-1.6289,-0.5911,1.4551,0.4083,-1.9891,2053
4,-0.5061,-1.6248,-0.5339,1.7046,0.4354,-2.3405,2042
4,-0.5076,-1.5439,-0.3855,1.747,0.4918,-2.5059,2049
4,-0.4248,-1.4241,-0.196,1.6579,0.6264,-2.5084,2044
4,-0.2898,-1.3105,-0.0427,1.3974,0.857,-2.3565,2054
4,-0.1963,-1.1895,0.0586,1.1208,1.0722,-2.2128,2048
4,-0.0933,-1.1255,0.0903,0.8381,1.1318,-2.0363,2047
4,-0.0271,-1.0906,0.0674,0.8076,1.0123,-1.9005,2044
4,0.0168,-1.0452,0.033,0.7775,0.8277,-1.7715,2047
4,0.032,-0.9634,-0.0068,0.8059,0.5866,-1.6803,2047
4,0.0374,-0.967,-0.0688,0.9435,0.2406,-1.6302,2044
4,0.0527,-1.0139,-0.1277,1.0846,-0.0482,-1.6257,2036
4,0.009,-1.052,-0.1604,1.2473,-0.2622,-1.5261,2043
4,-0.0259,-1.0808,-0.167,1.3186,-0.3171,-1.4488,2041
4,-0.0752,-1.1221,-0.1394,1.3089,-0.134,-1.3715,2041
4,-0.1243,-1.1572,-0.0894,1.19,0.1686,-1.294,2049
4,-0.1455,-1.1619,-0.0615,0.9082,0.5066,-1.2231,2057
4,-0.1609,-1.1204,-0.0637,0.6079,0.8757,-1.0926,2027
4,-0.168,-1.0671,-0.1038,0.4065,1.1616,-0.9983,2046
4,-0.1433,-0.9993,-0.1663,0.3305,1.3235,-0.92,2048
4,-0.1089,-0.9697,-0.2129,0.2996,1.3862,-0.8031,2070
4,-0.0603,-0.9417,-0.2542,0.3271,1.3328,-0.7095,2023
4,-0.0635,-0.937,-0.2717,0.4015,1.2604,-0.7074,2052
4,-0.0857,-0.927,-0.2705,0.4593,1.1822,-0.6774,2049
4,-0.1489,-0.9585,-0.3042,0.5066,1.1328,-0.6544,2047
4,-0.1697,-0.9866,-0.3311,0.4911,1.1248,-0.5777,2052
4,-0.1785,-1.0127,-0.3569,0.4199,1.1383,-0.4994,2052
4,-0.2156,-1.0161,-0.3496,0.3369,1.1252,-0.4946,2045
4,-0.2034,-1.0195,-0.3328,0.2571,1.032,-0.4842,2042
4,-0.1787,-0.9983,-0.3369,0.2477,0.9048,-0.4474,2031
4,-0.1892,-0.9912,-0.3384,0.2325,0.7751,-0.4232,2044
4,-0.1826,-1.011,-0.3467,0.1574,0.6401,-0.4263,2043
4,-0.1958,-1.0212,-0.3501,0.1041,0.4819,-0.4268,2041
4,-0.2021,-1.0283,-0.3364,0.0827,0.3317,-0.4267,2048
4,-0.2188,-1.0503,-0.3103,0.092,0.2296,-0.4259,2042
4,-0.2212,-1.071,-0.2998,0.0763,0.1515,-0.4112,2052
4,-0.2341,-1.1077,-0.2839,0.0591,0.0738,-0.3815,2032
4,-0.2266,-1.1382,-0.2571,-0.0047,0.015,-0.3964,2045
4,-0.2144,-1.1377,-0.2139,-0.0868,-0.0329,-0.3452,2043
4,-0.2173,-1.1177,-0.198,-0.1546,-0.0775,-0.2994,2038
4,-0.2102,-1.1284,-0.1421,-0.1712,-0.2577,-0.1928,2046
4,-0.1741,-1.1299,-0.1245,-0.2149,-0.3741,-0.1522,2042
4,-0.1626,-1.135,-0.1057,-0.2661,-0.3645,-0.0798,2044
4,-0.1812,-1.1165,-0.0894,-0.2979,-0.3156,-0.0541,2043
4,-0.2043,-1.1387,-0.0881,-0.3549,-0.2662,-0.0499,2044
4,-0.2217,-1.1816,-0.1082,-0.3987,-0.2715,-0.016,2060
4,-0.2246,-1.2515,-0.125,-0.4155,-0.3097,0.0328,2046
4,-0.1777,-1.2925,-0.1602,-0.3643,-0.4333,0.0569,2039
4,-0.1299,-1.3691,-0.1523,-0.2531,-0.6753,0.0772,2050
4,-0.0967,-1.4495,-0.1243,-0.1824,-0.9749,0.0859,2047
4,-0.1631,-1.4841,-0.0952,-0.1723,-1.1756,0.0968,2036
4,-0.2991,-1.5098,-0.0522,-0.1593,-1.1142,0.1818,2038
4,-0.2974,-1.6538,0.0171,-0.2804,-1.1389,0.0839,2034
4,-0.2998,-1.7522,0.0393,-0.2922,-1.0465,0.0787,2039
5,-0.1587,-1.7581,-0.0112,-0.3354,-0.8391,0.1316,2063
5,-0.1172,-1.7832,-0.0715,-0.338,-0.6012,0.2184,2053
5,-0.0027,-1.7874,-0.0894,-0.3117,-0.7407,0.3103,2054
5,0.103,-1.7698,-0.0608,-0.1944,-1.1101,0.3868,2050
5,0.1858,-1.8005,0.0327,-0.1751,-1.6419,0.3854,2052
5,0.1226,-1.6899,0.0469,-0.0148,-1.8496,0.3365,2053
5,0.0945,-1.5537,0.0713,0.0917,-1.7178,0.3033,2038
5,-0.0415,-1.4116,-0.0037,0.2266,-1.3219,0.4042,2043
5,-0.2104,-1.2449,-0.1123,0.3621,-0.8959,0.5505,2041
5,-0.2417,-1.1812,-0.1663,0.4639,-0.5176,0.7011,2040
5,-0.1213,-1.1814,-0.197,0.528,-0.285,0.81,2042
5,-0.0793,-1.1743,-0.1406,0.4777,-0.1425,0.8807,2028
5,-0.1338,-1.135,-0.0608,0.3144,0.0667,0.8701,2041
5,-0.0088,-1.1184,0.0249,0.0388,-0.2436,0.8128,2041
5,0.0164,-1.0527,-0.082,-0.1238,-0.6988,0.7548,2028
5,0.0874,-0.9675,-0.2222,-0.0321,-1.1617,0.7104,2060
5,0.0852,-0.9316,-0.3003,0.3002,-1.4479,0.785,2044
5,0.0791,-0.9585,-0.2976,0.4939,-1.5834,0.8589,2076
5,0.0444,-1.0022,-0.2327,0.6052,-1.6243,0.9299,2030
5,0.0229,-1.051,-0.1553,0.6229,-1.6656,0.9628,2054
5,0.0071,-1.0977,-0.1272,0.5486,-1.538,0.9842,2038
5,-0.0171,-1.1064,-0.1123,0.4542,-1.3002,1.0182,2050
5,-0.0259,-1.1077,-0.1245,0.3755,-1.0102,1.0557,2063
5,-0.0278,-1.1013,-0.0945,0.2385,-0.7257,1.0894,2043
5,0.0093,-1.0894,-0.0698,0.0875,-0.4252,1.0921,2041
5,0.0332,-1.0881,-0.0576,-0.0774,-0.1334,1.1388,2036
5,0.0269,-1.0537,-0.1021,-0.2389,0.0734,1.1644,2065
5,0.0266,-1.0459,-0.1099,-0.335,0.2036,1.2009,2025
5,0.0254,-1.0264,-0.1711,-0.4316,0.2075,1.2435,2050
5,0.033,-1.0054,-0.2197,-0.4476,0.1438,1.2354,2058
5,0.0413,-1.0042,-0.2712,-0.437,0.0908,1.2619,2038
5,0.0166,-0.9998,-0.2871,-0.3968,0.0185,1.2705,2050
5,-0.0391,-1.0044,-0.3184,-0.3727,-0.0477,1.2227,2041
5,-0.0615,-1.001,-0.3298,-0.3524,-0.1389,1.2232,2052
5,-0.1011,-0.981,-0.3484,-0.3514,-0.2083,1.1501,2043
5,-0.1343,-0.9917,-0.3696,-0.302,-0.2533,1.1195,2055
5,-0.1736,-1.01,-0.3665,-0.328,-0.2151,1.0429,2042
5,-0.1602,-1.0061,-0.3789,-0.2934,-0.1907,1.001,2047
5,-0.1831,-1.0305,-0.3528,-0.3117,-0.1205,0.9569,2055
5,-0.1724,-1.0437,-0.3491,-0.3613,-0.0662,0.9006,2043
5,-0.1494,-1.0369,-0.3311,-0.4039,-0.0045,0.8411,2049
5,-0.1348,-1.0312,-0.3181,-0.4051,0.0004,0.8223,2033
5,-0.126,-1.0271,-0.3083,-0.4116,0.0023,0.7831,2029
5,-0.1523,-1.0317,-0.2756,-0.3421,-0.0395,0.7457,2048
5,-0.1602,-1.032,-0.2146,-0.2611,-0.1302,0.6859,2065
5,-0.1602,-1.0427,-0.1851,-0.2286,-0.2772,0.6051,2030
5,-0.1885,-1.0671,-0.196,-0.2393,-0.3354,0.5003,2046
5,-0.1721,-1.1143,-0.2122,-0.1942,-0.3743,0.4316,2052
5,-0.1821,-1.1392,-0.2112,-0.2242,-0.4056,0.2858,2040
5,-0.1677,-1.2017,-0.2251,-0.1673,-0.4526,0.1859,2048
5,-0.1289,-1.3105,-0.2661,-0.1836,-0.454,0.1439,2042
5,-0.1479,-1.3784,-0.3513,-0.0606,-0.4064,0.0485,2043
5,-0.1526,-1.4116,-0.3662,0.0792,-0.3362,-0.1131,2037
5,-0.1616,-1.4172,-0.3779,0.2498,-0.2743,-0.2594,2043
5,-0.1836,-1.4136,-0.3953,0.3366,-0.0585,-0.4304,2060
5,-0.2261,-1.3638,-0.4133,0.5176,0.1912,-0.6046,2049
5,-0.2834,-1.3357,-0.45,0.7321,0.2858,-0.8214,2052
5,-0.3674,-1.3879,-0.4766,1.1347,0.4657,-1.128,2042
5,-0.4194,-1.5591,-0.4661,1.4431,0.6304,-1.4451,2060
5,-0.377,-1.7332,-0.3843,1.5776,0.7176,-1.6705,2021
5,-0.2524,-1.78,-0.2422,1.4994,0.7754,-1.8049,2052
5,-0.1357,-1.6794,-0.0713,1.2878,0.9477,-1.878,2049
5,-0.0645,-1.4951,0.0676,1.0617,1.1448,-1.7631,2049
5,0.0234,-1.3567,0.2153,0.8841,1.1669,-1.6677,2049
5,0.094,-1.2747,0.2864,0.687,0.9801,-1.5981,2044
5,0.125,-1.2229,0.2842,0.5386,0.7008,-1.5384,2053
5,0.1409,-1.155,0.2568,0.4639,0.3481,-1.4327,2032
5,0.1326,-1.1177,0.208,0.4022,0.0447,-1.3507,2048
5,0.0796,-1.0977,0.1443,0.3645,-0.2377,-1.2355,2045
5,0.0134,-1.1077,0.0779,0.3922,-0.3846,-1.1495,2047
5,-0.0344,-1.1309,0.0144,0.3763,-0.4035,-1.0865,2041
5,-0.0767,-1.103,-0.0356,0.3406,-0.3349,-1.0232,2042
5,-0.1223,-1.0466,-0.0552,0.2697,-0.2208,-0.9168,2043
5,-0.188,-0.9949,-0.0754,0.1864,0.0573,-0.8705,2042
5,-0.2244,-0.949,-0.0898,0.077,0.3962,-0.7749,2052
5,-0.2339,-0.9148,-0.1223,-0.0234,0.7297,-0.6586,2049
5,-0.2151,-0.8596,-0.1694,-0.0639,0.9881,-0.5759,2045
5,-0.2034,-0.8569,-0.2129,-0.0578,1.1629,-0.5323,2045
5,-0.1802,-0.8621,-0.2368,-0.025,1.2671,-0.4971,2043
5,-0.1638,-0.8599,-0.2866,0.0238,1.3627,-0.4196,2051
5,-0.1567,-0.8711,-0.3079,0.072,1.3858,-0.3461,2039
5,-0.1472,-0.8896,-0.3125,0.1418,1.3304,-0.3083,2038
5,-0.1602,-0.9111,-0.3174,0.198,1.2914,-0.2626,2045
5,-0.1787,-0.9463,-0.3235,0.2197,1.2386,-0.2284,2032
5,-0.1819,-0.9773,-0.3438,0.2234,1.1527,-0.2095,2047
5,-0.1904,-1.0027,-0.3386,0.2083,0.9994,-0.1843,2058
5,-0.2063,-1.0391,-0.332,0.1766,0.8345,-0.1735,2043
5,-0.2312,-1.0613,-0.3076,0.1332,0.7092,-0.1581,2047
5,-0.2209,-1.0562,-0.2646,0.0667,0.5461,-0.1071,2043
5,-0.2229,-1.0576,-0.2231,0.0249,0.3935,-0.1064,2047
5,-0.2227,-1.0701,-0.176,-0.0434,0.2626,-0.1144,2041
5,-0.2014,-1.0654,-0.1318,-0.1605,0.0702,-0.0987,2042
5,-0.1855,-1.0486,-0.1167,-0.2457,-0.1449,-0.1148,2045
5,-0.1943,-1.0359,-0.1409,-0.2899,-0.3358,-0.1167,2048
5,-0.2043,-1.02,-0.1582,-0.308,-0.4875,-0.1426,2042
5,-0.2139,-1.0354,-0.1646,-0.3036,-0.614,-0.1669,2043
5,-0.1902,-1.0542,-0.1829,-0.2384,-0.6781,-0.1884,2038
5,-0.1902,-1.0818,-0.1926,-0.1731,-0.6987,-0.1891,2050
5,-0.199,-1.116,-0.1838,-0.1184,-0.6859,-0.1758,2047
5,-0.2219,-1.1453,-0.1646,-0.0806,-0.6494,-0.1732,2040
5,-0.2361,-1.1475,-0.1487,-0.0742,-0.5827,-0.1863,2044
5,-0.2441,-1.1514,-0.1348,-0.0945,-0.4914,-0.2007,2049
6,-0.2439,-1.1387,-0.1008,-0.1306,-0.3793,-0.2061,2063
6,-0.2588,-1.1494,-0.0857,-0.1755,-0.2934,-0.2104,2043
6,-0.2556,-1.1782,-0.0701,-0.2304,-0.288,-0.2036,2044
6,-0.2593,-1.2097,-0.0796,-0.2623,-0.3758,-0.186,2036
6,-0.2688,-1.2437,-0.1108,-0.2414,-0.4727,-0.192,2039
6,-0.2566,-1.3052,-0.1443,-0.1904,-0.5907,-0.2072,2044
6,-0.2231,-1.3538,-0.1663,-0.1374,-0.7648,-0.1819,2048
6,-0.1843,-1.396,-0.1558,-0.0928,-0.9475,-0.1188,2060
6,-0.1492,-1.439,-0.1548,-0.0248,-1.1166,-0.0498,2044
6,-0.166,-1.4717,-0.1609,0.0481,-1.1785,0.0209,2034
6,-0.2207,-1.4919,-0.1606,0.1001,-1.1307,0.0963,2044
6,-0.262,-1.5198,-0.1682,0.12,-0.9978,0.1923,2039
6,-0.2898,-1.6104,-0.1995,0.1381,-0.83,0.3041,2046
6,-0.3242,-1.7249,-0.2524,0.1611,-0.675,0.3753,2044
6,-0.3442,-1.8076,-0.3215,0.2043,-0.5421,0.3714,2043
6,-0.2969,-1.7644,-0.3447,0.2626,-0.3978,0.3947,2045
6,-0.2271,-1.6609,-0.2878,0.292,-0.1947,0.4504,2051
6,-0.1401,-1.5579,-0.1699,0.2454,0.0009,0.5425,2040
6,-0.0896,-1.4495,-0.0933,0.1368,0.0127,0.6385,2035
6,-0.0398,-1.3462,-0.0474,0.0292,-0.1575,0.7388,2044
6,-0.0066,-1.2725,-0.0901,0.0511,-0.3987,0.8375,2050
6,0.0203,-1.2512,-0.1257,0.1934,-0.6279,0.8624,2039
6,0.0391,-1.2576,-0.1262,0.2912,-0.816,0.8644,2045
6,0.0393,-1.2507,-0.1255,0.2803,-0.975,0.8806,2049
6,0.0178,-1.2356,-0.0969,0.2565,-1.1252,0.8863,2066
6,-0.0117,-1.2139,-0.0828,0.2531,-1.2817,0.8636,2041
6,-0.02,-1.2026,-0.0901,0.2558,-1.4444,0.8365,2037
6,-0.0315,-1.2058,-0.0986,0.238,-1.6241,0.8174,2035
6,-0.0383,-1.1973,-0.1111,0.1816,-1.7852,0.8208,2059
6,-0.054,-1.1667,-0.1152,0.1715,-1.8695,0.8172,2051
6,-0.0491,-1.1411,-0.1289,0.1657,-1.8919,0.7873,2056
6,-0.021,-1.1433,-0.1226,0.175,-1.7684,0.8078,2040
6,-0.0056,-1.1548,-0.1101,0.1517,-1.6202,0.9071,2040
6,-0.0239,-1.1479,-0.1079,0.0815,-1.5017,1.0421,2040
6,-0.0334,-1.1384,-0.1045,0.0225,-1.3925,1.1857,2049
6,-0.0537,-1.1243,-0.1118,-0.0314,-1.3074,1.2698,2046
6,-0.0308,-1.0879,-0.1016,-0.1237,-1.2274,1.3263,2043
6,-0.0332,-1.0576,-0.1296,-0.1815,-1.1694,1.2971,2041
6,-0.0483,-1.0083,-0.1624,-0.1622,-1.124,1.2513,2054
6,-0.0454,-0.9692,-0.1675,-0.159,-1.0568,1.2352,2045
6,-0.0806,-0.9319,-0.199,-0.1587,-1.0155,1.1958,2046
6,-0.0974,-0.9041,-0.2351,-0.123,-1.0212,1.1481,2045
6,-0.1069,-0.9016,-0.2559,-0.0735,-1.0336,1.1075,2040
6,-0.1428,-0.8926,-0.2749,-0.0158,-1.0608,1.0424,2049
6,-0.1465,-0.9014,-0.2983,0.0245,-1.0765,0.9971,2040
6,-0.1948,-0.9065,-0.3296,0.0906,-1.0776,0.9348,2042
6,-0.2195,-0.9067,-0.3311,0.1739,-1.0749,0.8712,2042
6,-0.22,-0.937,-0.3293,0.2425,-1.0593,0.8138,2051
6,-0.2273,-0.9502,-0.3169,0.2828,-1.0312,0.7276,2044
6,-0.2327,-0.9622,-0.3103,0.3349,-1.0242,0.6363,2055
6,-0.2441,-0.9658,-0.3108,0.4031,-1.0328,0.5369,2048
6,-0.2529,-0.9734,-0.3127,0.4691,-1.0385,0.437,2053
6,-0.248,-0.9968,-0.2981,0.5681,-0.9991,0.352,2036
6,-0.2268,-1.0627,-0.2607,0.5734,-0.8865,0.3028,2044
6,-0.1882,-1.1401,-0.1536,0.479,-0.8056,0.2444,2043
6,-0.1589,-1.2046,-0.0806,0.3844,-0.86,0.1879,2038
6,-0.1416,-1.2534,-0.0608,0.4129,-1.0577,0.1442,2048
6,-0.1577,-1.3037,-0.0474,0.3804,-1.3746,0.1574,2046
6,-0.186,-1.3599,-0.0393,0.3208,-1.5748,0.1346,2039
6,-0.2053,-1.4121,-0.0391,0.2852,-1.5965,0.1422,2051
6,-0.2024,-1.4949,-0.0129,0.2008,-1.5305,0.1855,2057
6,-0.176,-1.5776,-0.0444,0.1228,-1.4857,0.2938,2051
6,-0.1816,-1.6753,-0.1074,0.11,-1.4226,0.3859,2056
6,-0.1948,-1.7236,-0.1353,0.0602,-1.288,0.4239,2059
6,-0.2119,-1.7249,-0.1621,-0.0264,-1.1095,0.3939,2045
6,-0.2317,-1.6729,-0.1597,-0.1285,-0.9288,0.322,2078
6,-0.2495,-1.5869,-0.158,-0.2183,-0.8115,0.2301,2011
6,-0.2646,-1.5349,-0.175,-0.2943,-0.8562,0.0999,2013
6,-0.2849,-1.5498,-0.2539,-0.3108,-0.9965,-0.0397,2053
6,-0.3582,-1.6162,-0.3665,-0.1582,-1.0979,-0.2137,2063
6,-0.4431,-1.7502,-0.3914,-0.0194,-1.0073,-0.3273,2057
6,-0.376,-1.824,-0.2817,-0.1703,-0.6897,-0.3169,2010
6,-0.2329,-1.7852,-0.0847,-0.4191,-0.2025,-0.1927,2076
6,-0.0608,-1.6729,0.0657,-0.6235,0.0688,0.0045,2048
6,-0.0315,-1.5566,0.1619,-0.7668,0.034,0.1284,2070
6,-0.0544,-1.3928,0.2344,-0.8682,-0.3156,0.1498,2055
6,-0.1079,-1.24,0.1997,-0.8151,-0.8068,0.1245,2012
6,-0.1538,-1.1611,0.1475,-0.6644,-1.2451,0.0634,2060
6,-0.1689,-1.1548,0.1335,-0.5934,-1.4147,0.0109,2040
6,-0.2388,-1.1653,0.0706,-0.6705,-1.3742,-0.0137,2059
6,-0.3005,-1.1672,-0.0198,-0.7497,-1.3387,0.0293,2046
6,-0.3782,-1.1753,-0.1125,-0.806,-1.3414,0.1189,2035
6,-0.3999,-1.1567,-0.248,-0.8036,-1.2422,0.1638,1988
6,-0.2983,-1.0737,-0.2754,-0.8126,-1.0396,0.2024,2104
6,-0.2122,-0.9482,-0.2722,-0.5894,-0.7269,0.2421,2012
6,-0.2112,-0.8027,-0.1191,-0.2597,-0.5237,0.2113,2030
6,-0.3198,-0.752,0.0503,-0.0403,-0.4232,0.227,2035
6,-0.4053,-0.8633,0.0105,-0.0089,-0.4971,0.2705,2082
6,-0.3853,-0.9395,-0.177,0.0802,-0.6231,0.288,1951
6,-0.3486,-1.0476,-0.3035,0.1293,-0.5,0.3854,2062
6,-0.4182,-1.1182,-0.3264,0.0398,-0.2304,0.4615,2062
6,-0.5911,-1.1443,-0.2683,-0.1529,-0.1585,0.5589,1984
6,-0.5933,-1.0635,-0.2844,-0.4065,-0.1373,0.7303,2134
6,-0.491,-0.958,-0.3457,-0.5802,-0.0535,0.8391,2126
6,-0.4106,-0.915,-0.3528,-0.7281,-0.0067,0.8273,2078
6,-0.3716,-0.8706,-0.3069,-0.9741,-0.1639,0.7008,2120
6,-0.3274,-0.5952,-0.2903,-1.1728,-0.3606,0.6794,2090
6,-0.3628,-0.4961,-0.3247,-1.4984,-0.5148,0.8295,1908
6,-0.4226,-0.4756,-0.3298,-1.7495,-0.5588,0.8436,2024
6,-0.3774,-0.4866,-0.3103,-1.9769,-0.4821,0.7793,2043
6,-0.314,-0.3105,-0.2808,-2.2321,-0.5016,0.715,2039
7,-0.252,-0.2375,-0.3938,-2.6866,-0.5239,0.7134,2039
7,-0.1484,-0.156,-0.4182,-2.7934,-0.4047,0.6505,2061
7,-0.1284,0.1021,-0.1467,-2.6208,-0.5165,0.5646,2070
7,-0.1357,0.1545,0.1658,-2.2656,-0.7642,0.4842,2070
7,-0.2056,-0.1445,0.1248,-2.0441,-0.8055,0.326,2032
7,-0.1804,-0.4358,-0.0542,-1.7454,-0.6152,0.2009,2062
7,-0.2798,-0.6191,-0.208,-1.6803,-0.2746,0.182,2053
7,-0.3291,-0.6873,-0.2251,-1.2812,-0.2581,0.2597,2045
7,-0.2644,-0.7112,-0.116,-0.7822,-0.3171,0.279,2057
7,-0.342,-0.8252,-0.2307,-0.542,-0.3236,0.4514,2042
7,-0.4905,-0.9116,-0.3079,-0.4409,-0.174,0.581,2049
7,-0.5505,-0.9338,-0.2883,-0.4285,0.0714,0.5862,2053
7,-0.5303,-0.9778,-0.2808,-0.4691,0.1735,0.4679,2061
7,-0.4575,-0.9739,-0.2747,-0.3603,0.2004,0.3044,2042
7,-0.4834,-0.95,-0.2852,-0.2886,0.2148,0.1185,2045
7,-0.4712,-0.9233,-0.3354,-0.2531,0.236,-0.0364,2056
7,-0.4509,-0.9055,-0.3398,-0.0874,0.2912,-0.1578,2041
7,-0.5198,-0.9695,-0.3401,-0.089,0.3839,-0.1465,2048
7,-0.6091,-1.0767,-0.2607,0.1418,0.3563,0.0354,2039
7,-0.7039,-1.1936,-0.2515,0.3598,0.0618,0.3733,2031
7,-0.6689,-1.3513,-0.4744,0.1306,-0.4759,0.6043,2043
7,-0.5259,-1.3787,-0.606,-0.2059,-0.8433,0.4016,2036
7,-0.4539,-1.2366,-0.3257,0.3541,-0.6163,-0.034,2010
7,-0.7927,-1.2527,-0.2527,0.5983,-0.4737,-0.0104,2033
7,-1.01,-1.4829,-0.3984,0.6454,-0.475,0.3562,2055
7,-0.9539,-1.7344,-0.4314,0.856,-0.1313,0.3428,2064
7,-1.0234,-1.9907,-0.3384,1.0087,0.3278,0.2362,2051
7,-1.01,-2.0,-0.3547,0.8761,0.4191,0.2077,2063
7,-0.7886,-2.0,-0.3181,0.6565,0.0526,0.0659,2056
7,-0.6055,-2.0,-0.3604,0.4705,-0.2113,-0.296,2051
7,-0.6135,-1.9868,-0.3867,0.3725,-0.4765,-0.5546,2048
7,-0.7126,-1.9045,-0.3586,0.3975,-0.8068,-0.6845,2033
7,-0.7373,-1.7896,-0.3196,0.3753,-1.0648,-0.9424,2036
7,-0.6768,-1.593,-0.3096,0.2333,-1.1433,-1.1393,2046
7,-0.5867,-1.3538,-0.3306,0.0095,-1.0134,-1.2219,2042
7,-0.5166,-1.1384,-0.3799,-0.2264,-0.8847,-1.3026,2038
7,-0.4329,-0.9209,-0.4087,-0.3092,-0.8124,-1.4259,2043
7,-0.3752,-0.7346,-0.4102,-0.351,-0.7817,-1.479,2040
7,-0.3457,-0.6399,-0.4185,-0.3601,-0.8247,-1.4701,2030
7,-0.2927,-0.5596,-0.4148,-0.339,-0.9626,-1.4643,2033
7,-0.24,-0.5908,-0.4287,-0.3075,-1.1678,-1.4589,2043
7,-0.2058,-0.6445,-0.4536,-0.2509,-1.3854,-1.3922,2027
7,-0.2046,-0.7107,-0.4736,-0.2651,-1.5819,-1.2306,2035
7,-0.2388,-0.7458,-0.5652,-0.3145,-1.7077,-0.9883,2043
7,-0.26,-0.7327,-0.667,-0.3858,-1.71,-0.7437,2035
7,-0.2393,-0.7266,-0.7686,-0.3978,-1.574,-0.5189,2045
7,-0.1968,-0.7361,-0.7917,-0.3727,-1.3793,-0.3165,2045
7,-0.1431,-0.7971,-0.7385,-0.4164,-1.2806,-0.1796,2040
7,-0.0596,-0.845,-0.6404,-0.3494,-1.1934,-0.1353,2036
7,-0.0317,-0.885,-0.5608,-0.2899,-1.0251,-0.1451,2039
7,-0.0481,-0.9224,-0.5022,-0.2424,-0.863,-0.1938,2045
7,-0.0959,-0.9807,-0.4634,-0.1193,-0.7249,-0.2304,2046
7,-0.155,-1.0361,-0.4189,-0.0174,-0.6195,-0.2533,2050
7,-0.2158,-1.0801,-0.4141,0.0515,-0.5207,-0.3045,2048
7,-0.2566,-1.1069,-0.4321,0.1073,-0.3725,-0.3555,2040
7,-0.2649,-1.0999,-0.4302,0.1322,-0.2048,-0.4124,2043
7,-0.2566,-1.0889,-0.4124,0.1306,-0.1141,-0.4791,2036
7,-0.2446,-1.0681,-0.386,0.1408,-0.0796,-0.5578,2050
7,-0.2646,-1.0454,-0.3738,0.1642,-0.0941,-0.6348,2034
7,-0.281,-1.0024,-0.3774,0.2001,-0.1196,-0.6747,2042
7,-0.3035,-0.9717,-0.3738,0.2513,-0.1879,-0.6577,2043
7,-0.3486,-0.9597,-0.3794,0.2735,-0.3072,-0.5907,2051
7,-0.3706,-0.9519,-0.3843,0.2313,-0.4131,-0.5686,2043
7,-0.3643,-0.9097,-0.4043,0.269,-0.4666,-0.6309,2042
7,-0.3442,-0.8926,-0.3887,0.278,-0.4995,-0.6733,2041
7,-0.292,-0.8875,-0.3657,0.2069,-0.5659,-0.7385,2045
7,-0.2437,-0.8977,-0.374,0.1413,-0.6745,-0.8315,2052
7,-0.2092,-0.897,-0.3796,0.1358,-0.7602,-0.94,2049
7,-0.1763,-0.9248,-0.4004,0.1144,-0.8582,-1.0307,2038
7,-0.2009,-0.9873,-0.4414,0.1314,-0.9336,-1.0922,2048
7,-0.2717,-1.0496,-0.2637,0.2659,-0.9881,-1.0657,2050
7,-0.3794,-1.1433,-0.5032,0.096,-0.7148,-0.873,2049
7,-0.3018,-1.0286,-0.6379,0.2578,-0.6497,-0.7827,2049
7,-0.2075,-1.2007,-0.5989,0.2647,-0.6385,-0.6372,2041
7,-0.2986,-1.2947,-0.6558,0.3504,-0.4975,-0.3907,2050
7,-0.3252,-1.3657,-0.6736,0.4548,-0.3392,-0.3199,2045
7,-0.2842,-1.4282,-0.656,0.4031,-0.0459,-0.1617,2040
7,-0.2969,-1.4541,-0.6284,0.4428,0.1529,0.0475,2044
7,-0.2698,-1.5149,-0.6013,0.5267,0.3045,0.1708,2045
7,-0.2634,-1.6121,-0.5337,0.6544,0.3269,0.2177,2043
7,-0.2253,-1.7334,-0.4729,0.7725,0.2044,0.2513,2053
7,-0.1792,-1.8872,-0.4246,0.7817,0.1119,0.2317,2043
7,-0.115,-2.0,-0.3738,0.7235,0.1104,0.212,2050
7,-0.0833,-2.0,-0.3752,0.6225,0.1043,0.2583,2044
7,-0.0376,-2.0,-0.3015,0.5517,0.1196,0.3282,2046
7,-0.0322,-1.9863,-0.2627,0.4275,0.1701,0.4477,2038
7,-0.0242,-1.7898,-0.2354,0.2839,0.1794,0.5871,2039
7,-0.0239,-1.5547,-0.2295,0.106,0.1439,0.6412,2051
7,0.0042,-1.353,-0.2063,-0.0495,0.08,0.6008,2041
7,0.0457,-1.1699,-0.1953,-0.1931,0.0043,0.4622,2044
7,0.0854,-0.9976,-0.2507,-0.3171,-0.0824,0.2894,2041
7,0.0833,-0.8677,-0.301,-0.3778,-0.1132,0.0988,2043
7,0.0405,-0.7617,-0.3469,-0.3902,-0.1281,-0.0418,2040
7,0.0054,-0.6729,-0.3989,-0.2919,-0.1368,-0.1546,2041
7,-0.0098,-0.6689,-0.426,-0.2297,-0.1081,-0.2581,2041
7,-0.0083,-0.6687,-0.4963,-0.1366,-0.0268,-0.2643,2050
7,-0.0181,-0.6985,-0.5513,-0.0586,0.1404,-0.2476,2052
7,-0.04,-0.738,-0.5791,0.0419,0.3243,-0.1738,2049
7,-0.0317,-0.7803,-0.5505,0.091,0.4639,-0.0896,2048
7,-0.042,-0.8203,-0.5015,0.1515,0.5825,-0.0144,2049
7,-0.0779,-0.8606,-0.4524,0.2368,0.6508,0.0695,2039
7,-0.1138,-0.9031,-0.3962,0.3288,0.6865,0.1578,2041
7,-0.1375,-0.9541,-0.3672,0.3532,0.6958,0.2139,2050
8,-0.1692,-0.9873,-0.3157,0.3453,0.6835,0.222,2044
8,-0.186,-0.9961,-0.2451,0.2907,0.6285,0.1848,2046
8,-0.2046,-0.9927,-0.1865,0.2607,0.4705,0.1345,2048
8,-0.2317,-0.9985,-0.1484,0.2711,0.3529,0.0663,2046
8,-0.2534,-1.0044,-0.1196,0.2637,0.2558,0.0059,2050
8,-0.2612,-1.0317,-0.1086,0.2305,0.1206,-0.0563,2036
8,-0.2817,-1.0332,-0.095,0.1762,-0.0418,-0.1234,2045
8,-0.2844,-1.0212,-0.0828,0.1261,-0.1851,-0.1823,2044
8,-0.2954,-1.0032,-0.0759,0.0888,-0.3418,-0.1562,2039
8,-0.2827,-0.9971,-0.0566,0.0654,-0.5092,-0.1478,2045
8,-0.2922,-0.9868,-0.0515,0.0273,-0.6051,-0.1177,2048
8,-0.2964,-0.9685,-0.0461,-0.016,-0.6441,-0.0756,2041
8,-0.3367,-0.9502,-0.1074,-0.0413,-0.7753,-0.0378,2049
8,-0.3364,-0.9502,-0.1729,-0.0326,-0.9074,-0.0083,2046
8,-0.3149,-0.9546,-0.1995,-0.0025,-0.9774,0.0108,2050
8,-0.2842,-0.957,-0.1987,0.0134,-0.997,0.0269,2060
8,-0.2773,-0.9805,-0.2158,-0.0158,-0.9701,0.0349,2047
8,-0.2727,-1.0085,-0.2446,-0.0095,-0.9597,0.0378,2065
8,-0.2556,-1.0447,-0.2571,0.0273,-0.9367,0.0246,2042
8,-0.23,-1.0847,-0.261,0.0304,-0.8963,0.0109,2044
8,-0.2195,-1.1262,-0.2168,0.0168,-0.8042,-0.0039,2044
8,-0.2312,-1.1467,-0.1829,-0.0041,-0.6665,0.0032,2045
8,-0.2439,-1.1423,-0.1724,-0.0264,-0.5502,0.0079,2042
8,-0.249,-1.1394,-0.1509,-0.0138,-0.4946,0.0017,2042
8,-0.2698,-1.135,-0.1208,0.0407,-0.4526,-0.031,2039
8,-0.3059,-1.1492,-0.1421,0.075,-0.4424,-0.0698,2049
8,-0.3264,-1.1877,-0.207,0.0506,-0.5031,-0.0979,2048
8,-0.312,-1.2268,-0.2559,0.0095,-0.6189,-0.1276,2039
8,-0.3013,-1.2678,-0.2766,-0.0357,-0.7209,-0.1613,2048
8,-0.2837,-1.3079,-0.2583,-0.027,-0.8352,-0.1775,2040
8,-0.2798,-1.3347,-0.2324,0.0158,-0.9064,-0.1935,2044
8,-0.2571,-1.3892,-0.2778,0.032,-0.8951,-0.1645,2048
8,-0.2961,-1.4695,-0.3706,0.0471,-0.8512,-0.1176,2041
8,-0.3604,-1.5347,-0.4651,0.1298,-0.7742,-0.1495,2046
8,-0.3906,-1.5876,-0.5229,0.1872,-0.6998,-0.1586,2041
8,-0.407,-1.6184,-0.5073,0.2358,-0.6525,-0.2382,2048
8,-0.3398,-1.6196,-0.4102,0.286,-0.6223,-0.344,2050
8,-0.26,-1.6021,-0.3232,0.3397,-0.5612,-0.4826,2044
8,-0.2102,-1.5967,-0.3193,0.3365,-0.5797,-0.6574,2051
8,-0.1008,-1.6799,-0.3672,0.2429,-0.6967,-0.873,2040
8,-0.0752,-1.6846,-0.4116,0.2827,-0.7701,-1.0228,2043
8,-0.071,-1.6377,-0.3425,0.1537,-0.8815,-1.0758,2052
8,-0.0613,-1.6091,-0.3706,-0.0912,-1.0021,-0.9327,2049
8,-0.0398,-1.5833,-0.4119,-0.3413,-1.0267,-0.8312,2040
8,-0.0598,-1.5151,-0.3887,-0.5236,-1.0489,-0.7367,2047
8,-0.0925,-1.3208,-0.2781,-0.613,-1.109,-0.6458,2052
8,-0.0906,-1.0984,-0.1899,-0.6248,-1.0999,-0.6104,2049
8,-0.1016,-0.9099,-0.1687,-0.445,-1.0576,-0.6478,2039
8,-0.1323,-0.8264,-0.2603,-0.2601,-1.0495,-0.5671,2043
8,-0.1343,-0.9238,-0.3459,-0.181,-1.1214,-0.4392,2045
8,-0.137,-0.9648,-0.4116,-0.1388,-1.2255,-0.3445,2046
8,-0.1592,-0.9138,-0.4099,-0.1627,-1.3197,-0.3145,2039
8,-0.1443,-0.8723,-0.447,-0.2678,-1.3254,-0.3011,2049
8,-0.1523,-0.8252,-0.5095,-0.2838,-1.2946,-0.3096,2033
8,-0.1436,-0.8108,-0.5603,-0.238,-1.2356,-0.3358,2036
8,-0.1191,-0.8386,-0.5393,-0.2274,-1.1689,-0.3731,2049
8,-0.075,-0.8601,-0.4907,-0.2356,-1.0424,-0.4113,2049
8,-0.0422,-0.8777,-0.4788,-0.2617,-0.9432,-0.4489,2043
8,-0.0508,-0.8965,-0.4663,-0.3424,-0.857,-0.4726,2042
8,-0.0388,-0.8579,-0.4661,-0.3599,-0.8503,-0.4991,2046
8,-0.0627,-0.8618,-0.4541,-0.346,-0.8487,-0.567,2039
8,-0.0735,-0.8726,-0.4504,-0.3448,-0.8401,-0.6259,2048
8,-0.0752,-0.9084,-0.4434,-0.3685,-0.8036,-0.6654,2050
8,-0.0898,-0.9116,-0.4553,-0.3229,-0.8068,-0.6795,1991
8,-0.1023,-0.9412,-0.4482,-0.3088,-0.8044,-0.6568,2058
8,-0.1318,-0.9575,-0.4639,-0.2884,-0.8062,-0.6269,2060
8,-0.1265,-0.9783,-0.4502,-0.218,-0.8373,-0.6082,2040
8,-0.1157,-1.0452,-0.4641,-0.2121,-0.8321,-0.5609,2049
8,-0.1167,-1.072,-0.4548,-0.1631,-0.7569,-0.5171,2040
8,-0.1421,-1.0918,-0.4419,-0.1103,-0.7115,-0.4486,2040
8,-0.1543,-1.1399,-0.3911,-0.069,-0.6814,-0.4183,2045
8,-0.1443,-1.1838,-0.364,-0.0491,-0.6217,-0.3823,2047
8,-0.1211,-1.2207,-0.3328,-0.028,-0.547,-0.3699,2043
8,-0.1194,-1.2546,-0.2964,-0.0256,-0.5327,-0.3534,2041
8,-0.1018,-1.2983,-0.2693,-0.0651,-0.5635,-0.344,2050
8,-0.0796,-1.3054,-0.2285,-0.1176,-0.6076,-0.3276,2049
8,-0.0483,-1.2939,-0.2036,-0.1352,-0.6644,-0.2882,2050
8,-0.0212,-1.2571,-0.1802,-0.1039,-0.7132,-0.2385,2055
8,-0.0234,-1.2151,-0.2163,-0.0101,-0.7789,-0.1888,2041
8,-0.0947,-1.2031,-0.2988,0.0703,-0.8773,-0.1466,2041
8,-0.186,-1.2021,-0.4465,0.1084,-0.9484,-0.1447,2048
8,-0.2556,-1.2185,-0.572,0.1222,-0.9475,-0.135,2051
8,-0.2651,-1.2366,-0.6619,0.1376,-0.9064,-0.1064,2049
8,-0.2188,-1.25,-0.6931,0.1566,-0.848,-0.0798,2048
8,-0.1179,-1.261,-0.6528,0.1908,-0.6979,-0.0758,2044
8,-0.0413,-1.3203,-0.6208,0.2651,-0.485,-0.0768,2050
8,0.0364,-1.4019,-0.5977,0.3524,-0.3782,-0.0674,2045
8,0.0896,-1.5051,-0.6125,0.45,-0.3717,-0.0795,2049
8,0.1233,-1.6582,-0.6697,0.537,-0.4143,-0.0874,2050
8,0.1357,-1.8167,-0.8025,0.598,-0.3975,-0.0336,2044
8,0.1724,-1.9446,-0.8184,0.6472,-0.3196,0.0812,2043
8,0.251,-1.96,-0.6677,0.644,-0.1977,0.2272,2044
8,0.3977,-1.8882,-0.5203,0.5771,-0.0214,0.4109,2046
8,0.4424,-1.6973,-0.4829,0.558,0.2172,0.5677,2050
8,0.3552,-1.5044,-0.4727,0.5305,0.3043,0.6497,2044
8,0.2256,-1.2996,-0.4128,0.4428,0.1874,0.658,2044
8,0.1257,-1.1152,-0.4207,0.2743,-0.0273,0.5481,2053
8,0.0669,-0.999,-0.4382,0.0642,-0.2497,0.3866,2040
8,0.0198,-0.9053,-0.4988,-0.1409,-0.4422,0.2159,2043
8,0.0107,-0.8289,-0.5437,-0.3165,-0.4745,0.0799,2052
8,-0.0278,-0.6987,-0.5742,-0.3796,-0.3927,-0.0075,2046
8,-0.05,-0.6465,-0.5923,-0.387,-0.2737,-0.0574,2043
9,-0.0137,-0.7087,-0.6333,-0.3721,-0.1428,-0.0527,2052
9,0.0149,-0.7759,-0.6541,-0.3227,0.0075,0.0084,2048
9,0.0081,-0.8176,-0.6416,-0.2472,0.1461,0.1007,2043
9,0.0039,-0.8376,-0.5859,-0.1731,0.285,0.2005,2042
9,0.0288,-0.8879,-0.5237,-0.0929,0.3642,0.2662,2046
9,0.0542,-0.9373,-0.4927,-0.016,0.3737,0.3185,2045
9,0.0549,-0.9646,-0.4673,0.0621,0.4167,0.3671,2041
9,0.0496,-1.0115,-0.4258,0.1278,0.4693,0.3522,2046
9,0.0317,-1.0474,-0.394,0.1272,0.5008,0.3217,2048
9,0.0178,-1.0803,-0.4014,0.079,0.4872,0.2697,2043
9,0.0239,-1.1038,-0.3628,0.0389,0.4627,0.1969,2047
9,0.0576,-1.1216,-0.3193,-0.0043,0.4322,0.1381,2048
9,0.0618,-1.1169,-0.2856,-0.0502,0.4232,0.1265,2045
9,0.0525,-1.106,-0.2664,-0.0906,0.4108,0.1043,2041
9,0.01,-1.0671,-0.2808,-0.1016,0.3963,0.1244,2042
9,-0.0549,-1.0183,-0.282,-0.091,0.337,0.1305,2052
9,-0.0906,-0.9724,-0.281,-0.0755,0.2808,0.1317,2046
9,-0.0969,-0.9255,-0.2637,-0.0531,0.2525,0.1457,2053
9,-0.0884,-0.9155,-0.2505,-0.0469,0.2071,0.1543,2044
9,-0.0911,-0.9067,-0.24,-0.0521,0.1489,0.1559,2041
9,-0.1042,-0.9033,-0.2639,-0.0365,0.0928,0.1376,2042
9,-0.1553,-0.8979,-0.2722,-0.0276,0.072,0.1354,2045
9,-0.1943,-0.915,-0.3083,-0.0258,0.0501,0.1409,2038
9,-0.1853,-0.957,-0.3284,-0.0438,0.0041,0.1222,2044
9,-0.1829,-0.9878,-0.3374,-0.0495,-0.0403,0.0995,2037
9,-0.1284,-1.0271,-0.3228,-0.0426,-0.0972,0.0651,2039
9,-0.0776,-1.083,-0.3096,-0.0413,-0.1111,0.0358,2043
9,-0.0383,-1.1521,-0.3076,-0.0353,-0.0571,0.0241,2048
9,-0.032,-1.1992,-0.2874,-0.0105,-0.0041,0.049,2040
9,-0.0093,-1.2163,-0.2871,0.0358,0.0866,0.0743,2045
9,-0.0132,-1.2278,-0.262,0.0868,0.1759,0.1176,2043
9,-0.0146,-1.2334,-0.2488,0.1605,0.231,0.1531,2039
9,-0.0303,-1.2366,-0.2368,0.222,0.2771,0.163,2045
9,-0.072,-1.2688,-0.2803,0.2944,0.3112,0.1693,2058
9,-0.1167,-1.3164,-0.3047,0.3393,0.2782,0.1948,2042
9,-0.1514,-1.3506,-0.3662,0.3325,0.1716,0.2115,2048
9,-0.1609,-1.3518,-0.377,0.3425,0.07,0.2001,2046
9,-0.1609,-1.3452,-0.3533,0.3321,-0.088,0.1627,2042
9,-0.1335,-1.3936,-0.3367,0.3095,-0.2192,0.0919,2059
9,-0.1179,-1.4744,-0.3367,0.2979,-0.1579,0.0478,2048
9,-0.114,-1.5806,-0.3767,0.2999,-0.0597,0.0794,2043
9,-0.0874,-1.6909,-0.446,0.3265,-0.0079,0.1602,2047
9,-0.0957,-1.8047,-0.5195,0.3629,0.0788,0.2662,2037
9,-0.1091,-1.8965,-0.5789,0.3561,0.0529,0.3722,2062
9,-0.0815,-1.9473,-0.5566,0.3626,-0.0795,0.399,2049
9,-0.04,-1.9546,-0.4763,0.4051,-0.1392,0.3396,2050
9,0.0076,-1.9141,-0.4175,0.4184,-0.1539,0.2687,2046
9,0.0547,-1.8513,-0.4341,0.3701,-0.2904,0.1847,2046
9,0.0759,-1.7815,-0.4985,0.3185,-0.4634,0.0818,2050
9,-0.0059,-1.6694,-0.4944,0.3197,-0.4883,0.0258,2037
9,-0.1072,-1.4988,-0.4443,0.3223,-0.4184,0.0266,2043
9,-0.1321,-1.2971,-0.3987,0.2567,-0.3874,0.0088,2036
9,-0.0947,-1.1565,-0.3975,0.2027,-0.3683,-0.0273,2043
9,-0.0864,-1.0339,-0.3918,0.1436,-0.391,-0.0453,2043
9,-0.114,-0.9155,-0.4136,0.0398,-0.4281,-0.063,2037
9,-0.1809,-0.793,-0.4302,-0.008,-0.485,-0.0731,2038
9,-0.2551,-0.6785,-0.4365,-0.0119,-0.5761,-0.1245,2039
9,-0.2708,-0.6387,-0.4253,0.0048,-0.7494,-0.2136,2050
9,-0.2246,-0.634,-0.4446,-0.0445,-0.8802,-0.3274,2051
9,-0.1731,-0.6135,-0.4805,-0.0859,-0.9594,-0.416,2044
9,-0.1465,-0.6208,-0.5188,-0.0876,-0.9982,-0.4328,2036
9,-0.1064,-0.6675,-0.5664,-0.1092,-1.0234,-0.4647,2053
9,-0.0791,-0.7415,-0.614,-0.1004,-1.0262,-0.477,2042
9,-0.0439,-0.7859,-0.6357,-0.057,-0.9409,-0.4773,2036
9,-0.0151,-0.8027,-0.5981,-0.039,-0.7646,-0.4602,2060
9,0.0071,-0.8154,-0.5969,-0.0739,-0.546,-0.4493,2054
9,0.0081,-0.8394,-0.6262,-0.0884,-0.3747,-0.4385,2034
9,-0.01,-0.8682,-0.5979,-0.0903,-0.3257,-0.4326,2046
9,0.0242,-0.9094,-0.5547,-0.1549,-0.3219,-0.446,2038
9,0.0603,-0.9382,-0.5259,-0.1654,-0.2605,-0.4532,2047
9,0.0405,-0.9421,-0.5198,-0.1409,-0.1669,-0.4654,2051
9,-0.0127,-0.958,-0.532,-0.0988,-0.1125,-0.4578,2044
9,-0.0513,-0.9749,-0.5166,-0.0647,-0.0663,-0.4496,2055
9,-0.0786,-1.0095,-0.5112,-0.0455,-0.045,-0.4196,2051
9,-0.0796,-1.019,-0.4875,-0.0053,0.0433,-0.3871,2049
9,-0.0806,-1.0334,-0.4548,0.0417,0.1478,-0.3396,2041
9,-0.0972,-1.0527,-0.4238,0.084,0.2165,-0.2936,2042
9,-0.0996,-1.0754,-0.4141,0.1252,0.2796,-0.2461,2034
9,-0.1252,-1.105,-0.3867,0.173,0.3021,-0.2068,2045
9,-0.1499,-1.1125,-0.3594,0.1843,0.2915,-0.1674,2037
9,-0.1768,-1.116,-0.3201,0.193,0.2674,-0.185,2043
9,-0.1868,-1.1316,-0.301,0.1614,0.212,-0.1832,2049
9,-0.1753,-1.1284,-0.2893,0.1485,0.1657,-0.182,2047
9,-0.1626,-1.1028,-0.2527,0.1304,0.0965,-0.1722,2047
9,-0.1394,-1.0803,-0.2383,0.124,-0.0019,-0.1562,2048
9,-0.1233,-1.0735,-0.2361,0.145,-0.0969,-0.1509,2048
9,-0.136,-1.0713,-0.281,0.1574,-0.1752,-0.1527,2047
9,-0.1638,-1.1086,-0.3425,0.1771,-0.2559,-0.1579,2044
9,-0.198,-1.155,-0.4321,0.1807,-0.3229,-0.1594,2043
9,-0.2341,-1.2231,-0.5374,0.1791,-0.3163,-0.1578,2047
9,-0.2229,-1.2769,-0.5959,0.1879,-0.3055,-0.1357,2048
9,-0.1907,-1.3489,-0.6411,0.244,-0.2318,-0.0952,2050
9,-0.1309,-1.4292,-0.6184,0.2987,-0.1353,-0.0469,2044
9,-0.0386,-1.5146,-0.5366,0.3504,-0.1005,0.0049,2054
9,0.0378,-1.571,-0.4651,0.4111,-0.0758,0.0357,2049
9,0.0815,-1.6094,-0.4453,0.4646,-0.0526,0.0739,2045
9,0.0781,-1.6887,-0.4883,0.5301,-0.0419,0.0969,2048
9,0.0447,-1.8162,-0.5632,0.5553,-0.0977,0.1089,2043
9,0.0652,-1.9419,-0.626,0.5823,-0.1683,0.1428,2047
9,0.1665,-2.0,-0.6135,0.5789,-0.1324,0.2169,2037
9,0.3242,-1.9658,-0.5056,0.6088,-0.0332,0.3642,2049
10,0.4709,-1.76,-0.4058,0.6842,0.0446,0.569,2038
10,0.4573,-1.5459,-0.3657,0.77,0.076,0.7102,2036
10,0.374,-1.4138,-0.3879,0.7697,-0.0077,0.7982,2037
10,0.2854,-1.248,-0.3716,0.715,-0.088,0.8132,2043
10,0.2322,-1.0808,-0.3767,0.5907,-0.1023,0.7536,2049
10,0.1956,-0.9749,-0.4587,0.4121,-0.1443,0.649,2048
10,0.1423,-0.8965,-0.5869,0.2089,-0.188,0.5343,2044
10,0.0989,-0.7698,-0.689,0.0441,-0.1417,0.4267,2044
10,0.0427,-0.635,-0.6985,-0.0009,-0.0285,0.3345,2044
10,0.0142,-0.5735,-0.6882,-0.018,0.0354,0.2316,2046
10,0.0344,-0.613,-0.6978,-0.0541,0.1719,0.1236,2046
10,0.0691,-0.6794,-0.7249,-0.0553,0.3577,0.0747,2047
10,0.0513,-0.7312,-0.7034,-0.0297,0.536,0.0903,2044
10,0.0222,-0.7844,-0.6545,0.021,0.6672,0.1202,2047
10,0.0251,-0.8523,-0.582,0.0812,0.7982,0.1296,2036
10,0.0325,-0.9268,-0.4888,0.1507,0.8881,0.1441,2043
10,0.0486,-1.033,-0.4036,0.2009,0.9027,0.1358,2045
10,0.0515,-1.1331,-0.3279,0.2064,0.8987,0.0914,2047
10,0.0532,-1.2053,-0.2524,0.1623,0.8781,0.019,2047
10,0.0469,-1.2632,-0.2053,0.0887,0.8347,-0.0441,2036
10,0.0522,-1.2771,-0.1755,0.0229,0.8115,-0.0862,2044
10,0.0203,-1.2737,-0.1477,-0.0394,0.7686,-0.1096,2045
10,-0.0127,-1.2327,-0.1287,-0.0878,0.6817,-0.1316,2036
10,-0.0356,-1.2078,-0.1045,-0.1693,0.5667,-0.1545,2047
10,-0.0632,-1.1499,-0.0833,-0.1724,0.4875,-0.1482,2043
10,-0.0762,-1.0833,-0.0603,-0.1706,0.381,-0.1289,2044
10,-0.084,-1.0049,-0.0535,-0.1714,0.2717,-0.0981,2046
10,-0.0955,-0.9373,-0.0725,-0.1589,0.1465,-0.0525,2047
10,-0.1379,-0.8623,-0.1055,-0.1268,0.0083,-0.0055,2039
10,-0.1829,-0.8193,-0.1575,-0.0858,-0.0963,0.0336,2045
10,-0.2148,-0.7937,-0.217,-0.0704,-0.1835,0.094,2036
10,-0.228,-0.7988,-0.2334,-0.1005,-0.2959,0.1184,2050
10,-0.2178,-0.8118,-0.2524,-0.1254,-0.3587,0.1296,2053
10,-0.1714,-0.8411,-0.2805,-0.147,-0.3709,0.1292,2038
10,-0.1453,-0.8835,-0.2664,-0.1582,-0.3806,0.1282,2045
10,-0.0913,-0.9255,-0.2754,-0.1555,-0.3774,0.126,2046
10,-0.061,-0.9668,-0.2808,-0.1442,-0.3259,0.1238,2047
10,-0.0369,-1.0186,-0.2847,-0.1115,-0.2501,0.1253,2045
10,-0.0115,-1.0952,-0.2856,-0.0826,-0.1959,0.1324,2048
10,-0.0029,-1.167,-0.301,-0.0551,-0.1571,0.153,2043
10,-0.0117,-1.2156,-0.2864,-0.0226,-0.085,0.1587,2045
10,-0.0161,-1.2405,-0.2769,-0.0053,-0.0051,0.1701,2048
10,-0.0012,-1.2695,-0.2417,0.0398,0.0851,0.1935,2046
10,0.0232,-1.2883,-0.1895,0.0972,0.1878,0.2151,2054
10,0.0225,-1.2747,-0.1543,0.1771,0.2844,0.2277,2043
10,-0.0054,-1.2986,-0.1296,0.2575,0.3137,0.2513,2040
10,-0.0291,-1.344,-0.1616,0.3245,0.2542,0.2563,2044
10,-0.0828,-1.4067,-0.2087,0.351,0.1527,0.2497,2043
10,-0.1462,-1.4692,-0.2769,0.297,-0.0004,0.2401,2043
10,-0.1853,-1.4385,-0.3142,0.2565,-0.1345,0.2481,2050
10,-0.1692,-1.3821,-0.3123,0.2398,-0.2348,0.2289,2058
10,-0.1018,-1.4077,-0.3005,0.2771,-0.2602,0.1918,2045
10,-0.0784,-1.5005,-0.3611,0.3609,-0.1956,0.1754,2043
10,-0.0654,-1.6553,-0.446,0.4173,-0.1458,0.2044,2040
10,-0.0642,-1.8352,-0.5491,0.4554,-0.1105,0.2546,2050
10,-0.0254,-2.0,-0.573,0.4259,-0.0698,0.3151,2040
10,0.0571,-2.0,-0.4644,0.39,-0.0719,0.3264,2045
10,0.1458,-1.9839,-0.342,0.3968,-0.0035,0.3043,2044
10,0.2173,-1.9128,-0.2852,0.397,0.0614,0.2573,2047
10,0.2183,-1.9304,-0.3955,0.3461,-0.0919,0.1958,2044
10,0.1877,-1.8528,-0.4578,0.3015,-0.3129,0.0691,2047
10,0.1201,-1.739,-0.4226,0.2838,-0.3872,-0.0304,2038
10,0.0681,-1.5891,-0.407,0.2397,-0.3385,-0.0691,2046
10,0.0005,-1.3782,-0.4165,0.1658,-0.2542,-0.1005,2039
10,-0.0671,-1.1594,-0.4141,0.1093,-0.2179,-0.1501,2042
10,-0.0996,-0.9851,-0.3801,0.0507,-0.2563,-0.2145,2035
10,-0.1384,-0.834,-0.3872,-0.031,-0.3288,-0.2538,2049
10,-0.178,-0.6846,-0.4055,-0.09,-0.3769,-0.2614,2019
10,-0.2532,-0.553,-0.4338,-0.1338,-0.4436,-0.2523,2044
10,-0.2898,-0.4534,-0.4822,-0.1076,-0.5715,-0.2681,2049
10,-0.2896,-0.4285,-0.5259,-0.0894,-0.6741,-0.3416,2052
10,-0.259,-0.4246,-0.5649,-0.0514,-0.6815,-0.3789,2047
10,-0.2058,-0.4685,-0.5991,0.0101,-0.7267,-0.3638,2048
10,-0.1292,-0.5791,-0.6277,0.0039,-0.7901,-0.3729,2041
10,-0.0764,-0.6948,-0.6216,-0.0132,-0.7954,-0.4213,2040
10,-0.0273,-0.8318,-0.6299,-0.0546,-0.7767,-0.4485,2040
10,0.0278,-0.9553,-0.6157,-0.1194,-0.7152,-0.4789,2052
10,0.0967,-1.0601,-0.5679,-0.167,-0.6331,-0.507,2055
10,0.1592,-1.1531,-0.509,-0.2342,-0.5679,-0.5494,2047
10,0.2183,-1.2236,-0.4761,-0.2879,-0.4486,-0.5829,2052
10,0.2356,-1.2537,-0.4426,-0.2979,-0.2982,-0.6018,2040
10,0.2373,-1.2661,-0.4172,-0.3103,-0.1538,-0.5963,2043
10,0.1958,-1.2615,-0.4312,-0.3193,-0.0373,-0.5613,2038
10,0.1243,-1.2312,-0.4307,-0.2896,0.0646,-0.4956,2045
10,0.0508,-1.1606,-0.4319,-0.2401,0.1471,-0.4188,2047
10,-0.0146,-1.0842,-0.4333,-0.1879,0.206,-0.3521,2057
10,-0.0559,-1.0403,-0.4414,-0.1282,0.2386,-0.2976,2042
10,-0.0901,-0.9924,-0.4492,-0.0668,0.2378,-0.2485,2049
10,-0.1196,-0.9478,-0.4358,0.0009,0.2312,-0.2205,2045
10,-0.1509,-0.9373,-0.4321,0.0248,0.2309,-0.2125,2047
10,-0.1643,-0.9417,-0.4316,0.0483,0.2079,-0.1956,2040
10,-0.1638,-0.9456,-0.4155,0.0659,0.2021,-0.1896,2051
10,-0.1626,-0.9685,-0.3674,0.0756,0.2057,-0.1795,2045
10,-0.1348,-0.9961,-0.3645,0.0642,0.2077,-0.1754,2046
10,-0.0996,-1.0461,-0.3567,0.0602,0.2184,-0.1768,2053
10,-0.0752,-1.0835,-0.3538,0.0653,0.2019,-0.1699,2045
10,-0.0479,-1.1138,-0.3237,0.0722,0.1791,-0.1601,2048
10,-0.0403,-1.1223,-0.3032,0.0792,0.1649,-0.157,2048
10,-0.0347,-1.1292,-0.2832,0.0852,0.1645,-0.1634,2037
10,-0.03,-1.1414,-0.272,0.0803,0.1569,-0.1665,2051
10,-0.0261,-1.1548,-0.2852,0.078,0.1381,-0.1543,2044
10,-0.0476,-1.1394,-0.3003,0.072,0.1125,-0.139,2034
10,-0.0781,-1.1228,-0.3459,0.0603,0.0932,-0.1057,2044
10,-0.1104,-1.1206,-0.4277,0.1024,0.0936,-0.0712,2046
11,-0.1165,-1.1519,-0.5151,0.176,0.0818,-0.0189,2045
11,-0.0688,-1.2153,-0.5759,0.2638,0.0919,0.0075,2052
11,-0.0178,-1.302,-0.5991,0.3187,0.1882,0.0334,2053
11,0.011,-1.3813,-0.5923,0.3721,0.2908,0.0724,2053
11,0.0444,-1.4492,-0.5869,0.392,0.3627,0.1099,2046
11,0.0676,-1.4973,-0.5981,0.4113,0.4759,0.0983,2045
11,0.0681,-1.5645,-0.5437,0.4673,0.5128,0.0249,2043
11,0.0872,-1.6526,-0.5193,0.5119,0.4872,-0.0336,2050
11,0.113,-1.7815,-0.5398,0.5038,0.451,-0.11,2048
11,0.1489,-1.9314,-0.5903,0.4927,0.4369,-0.1201,2039
11,0.2185,-2.0,-0.5457,0.4647,0.396,-0.0975,2048
11,0.314,-2.0,-0.4529,0.4401,0.4243,0.0333,2048
11,0.3762,-1.7993,-0.3586,0.4505,0.5347,0.2491,2045
11,0.3525,-1.5886,-0.3127,0.4564,0.5944,0.4035,2046
11,0.2991,-1.4207,-0.3118,0.4252,0.4807,0.5145,2034
11,0.2419,-1.2583,-0.3096,0.381,0.3381,0.5554,2047
11,0.1902,-1.0884,-0.3335,0.2962,0.2642,0.546,2047
11,0.1389,-0.9817,-0.3765,0.153,0.1815,0.502,2043
11,0.0906,-0.8911,-0.4392,-0.043,0.0929,0.4317,2050
11,0.0461,-0.7664,-0.5105,-0.1965,0.0415,0.349,2047
11,0.0085,-0.6743,-0.5586,-0.3064,0.0329,0.2563,2040
11,-0.0361,-0.6099,-0.6018,-0.3526,0.0172,0.1574,2037
11,-0.0632,-0.6262,-0.6318,-0.3738,0.0013,0.0723,2050
11,-0.0261,-0.668,-0.6885,-0.3765,0.0638,0.0232,2046
11,0.0073,-0.7039,-0.7258,-0.339,0.194,0.0487,2047
11,0.0403,-0.7314,-0.7363,-0.2643,0.3671,0.1451,2045
11,0.0691,-0.7568,-0.7231,-0.138,0.6054,0.2577,2042
11,0.0796,-0.8123,-0.657,0.017,0.8014,0.3677,2046
11,0.1062,-0.8782,-0.5408,0.1836,0.9264,0.4461,2047
11,0.1218,-0.9431,-0.4448,0.2934,1.0524,0.4974,2045
11,0.0908,-1.0273,-0.3782,0.3325,1.1745,0.4982,2046
11,0.0693,-1.1067,-0.3289,0.3052,1.2095,0.4621,2045
11,0.0471,-1.1416,-0.2859,0.2575,1.1761,0.3955,2044
11,0.0515,-1.1489,-0.248,0.1748,1.0874,0.3213,2045
11,0.0388,-1.114,-0.2256,0.0928,0.9946,0.2578,2049
11,0.0283,-1.0933,-0.2087,0.0328,0.961,0.2064,2043
11,0.0059,-1.0706,-0.1873,0.0095,0.923,0.1679,2053
11,0.001,-1.0425,-0.1741,-0.0237,0.8467,0.1499,2043
11,-0.0149,-1.0164,-0.1877,-0.1105,0.7865,0.1561,2045
11,-0.0681,-0.9722,-0.1873,-0.1232,0.7734,0.1653,2046
11,-0.1074,-0.9338,-0.2104,-0.1268,0.7229,0.182,2044
11,-0.1355,-0.9062,-0.2434,-0.1029,0.687,0.2225,2050
11,-0.1484,-0.8958,-0.2446,-0.0374,0.6257,0.2369,2044
11,-0.1543,-0.9141,-0.2295,-0.0276,0.5417,0.2156,2043
11,-0.1707,-0.9534,-0.2424,-0.0324,0.4421,0.1955,2049
11,-0.1633,-1.0085,-0.2529,-0.061,0.3328,0.1655,2045
11,-0.1421,-1.0371,-0.2566,-0.071,0.2678,0.1434,2046
11,-0.106,-1.073,-0.2415,-0.0622,0.2638,0.1209,2043
11,-0.0637,-1.1216,-0.24,-0.053,0.2549,0.1212,2051
11,-0.0479,-1.1807,-0.2366,-0.0426,0.2577,0.1276,2045
11,-0.0457,-1.2183,-0.2505,-0.0161,0.2823,0.1361,2042
11,-0.0627,-1.2485,-0.2336,0.015,0.3418,0.1518,2045
11,-0.0671,-1.261,-0.2185,0.0573,0.4069,0.1979,2047
11,-0.0569,-1.2512,-0.2117,0.1079,0.4723,0.2465,2045
11,-0.0466,-1.2476,-0.1965,0.1796,0.5444,0.2852,2046
11,-0.0542,-1.2029,-0.1614,0.2703,0.5914,0.3256,2053
11,-0.0757,-1.2024,-0.1274,0.3473,0.5918,0.3663,2040
11,-0.0979,-1.2087,-0.146,0.4083,0.5707,0.4055,2046
11,-0.168,-1.2356,-0.2087,0.4176,0.5094,0.4358,2044
11,-0.2258,-1.2498,-0.2627,0.3698,0.33,0.4279,2043
11,-0.2422,-1.2651,-0.2791,0.3041,0.0774,0.3658,2045
11,-0.2097,-1.3057,-0.2554,0.2527,-0.1289,0.2661,2054
11,-0.189,-1.3193,-0.2434,0.2141,-0.1107,0.2223,2046
11,-0.1973,-1.3735,-0.2878,0.1993,0.0362,0.2832,2048
11,-0.1829,-1.4707,-0.3696,0.2273,0.1337,0.4245,2044
11,-0.2146,-1.5676,-0.468,0.2474,0.1832,0.5964,2040
11,-0.2219,-1.6392,-0.5354,0.3041,0.1108,0.6761,2040
11,-0.1731,-1.7434,-0.4993,0.3555,-0.0393,0.6245,2043
11,-0.0469,-1.8628,-0.415,0.4517,-0.1641,0.5064,2049
11,0.0605,-1.8777,-0.3098,0.5136,-0.1618,0.4187,2048
11,0.1477,-1.928,-0.3152,0.4719,-0.1462,0.3221,2042
11,0.1938,-2.0,-0.4285,0.3642,-0.335,0.1727,2054
11,0.1606,-2.0,-0.4934,0.2902,-0.581,-0.0169,2042
11,0.0588,-1.9299,-0.4304,0.2049,-0.6565,-0.0668,2045
11,0.0447,-1.627,-0.3296,0.1214,-0.7241,-0.1013,2047
11,0.0713,-1.407,-0.3176,0.051,-0.6958,-0.1523,2041
11,0.0281,-1.2305,-0.3018,0.074,-0.6851,-0.2168,2042
11,-0.0425,-1.0767,-0.2749,0.0993,-0.7213,-0.3298,2041
11,-0.1013,-0.9773,-0.3032,0.0305,-0.7556,-0.3999,2039
11,-0.1499,-0.866,-0.3496,-0.0443,-0.8363,-0.4244,2041
11,-0.1697,-0.7544,-0.408,-0.0309,-1.0018,-0.428,2050
11,-0.1443,-0.6775,-0.4385,0.0064,-1.1643,-0.4524,2054
11,-0.1216,-0.6328,-0.4653,0.0756,-1.2414,-0.457,2043
11,-0.1072,-0.624,-0.4949,0.1073,-1.2732,-0.4525,2046
11,-0.1035,-0.6548,-0.5305,0.157,-1.2708,-0.4469,2040
11,-0.0894,-0.7341,-0.5688,0.1366,-1.2461,-0.4504,2050
11,-0.0688,-0.801,-0.5989,0.0831,-1.1844,-0.4392,2045
11,-0.0449,-0.8469,-0.5808,0.0007,-1.0999,-0.4139,2044
11,-0.0056,-0.8672,-0.5654,-0.088,-0.9847,-0.3887,2048
11,0.0413,-0.8845,-0.5479,-0.1486,-0.8618,-0.3787,2045
11,0.0706,-0.9023,-0.5271,-0.1907,-0.7504,-0.3723,2051
11,0.1016,-0.9248,-0.5374,-0.2052,-0.6582,-0.3611,2042
11,0.1199,-0.9385,-0.509,-0.1968,-0.5565,-0.3589,2050
11,0.1101,-0.9602,-0.5098,-0.1634,-0.4361,-0.3654,2042
11,0.0891,-0.968,-0.4934,-0.1402,-0.2859,-0.3637,2044
11,0.0574,-0.9602,-0.4875,-0.1112,-0.1521,-0.3571,2042
11,0.0205,-0.9619,-0.498,-0.0927,-0.0543,-0.3617,2040
11,-0.0339,-0.9575,-0.4983,-0.0704,0.0204,-0.3637,2048
11,-0.064,-0.9624,-0.5042,-0.0487,0.0981,-0.3727,2050
11,-0.0764,-0.9866,-0.4983,-0.0577,0.1246,-0.3634,2041
11,-0.0928,-1.0044,-0.4854,-0.0282,0.1739,-0.3145,2042
12,-0.1047,-1.0476,-0.4634,0.0152,0.2639,-0.2715,2043
12,-0.1135,-1.0718,-0.4182,0.0538,0.3119,-0.2121,2045
12,-0.1243,-1.0872,-0.3821,0.102,0.3598,-0.1365,2047
12,-0.1118,-1.1057,-0.3413,0.1751,0.4205,-0.067,2044
12,-0.0984,-1.1414,-0.2913,0.2258,0.4332,-0.0141,2047
12,-0.0955,-1.1682,-0.2815,0.2571,0.4456,0.0482,2043
12,-0.1101,-1.1584,-0.2434,0.2864,0.4076,0.0891,2046
12,-0.1099,-1.1558,-0.2014,0.2892,0.3384,0.1101,2047
12,-0.1108,-1.1492,-0.2131,0.2598,0.2687,0.1172,2039
12,-0.1421,-1.0999,-0.2302,0.2406,0.2045,0.1177,2047
12,-0.1907,-1.0532,-0.2378,0.2107,0.108,0.1204,2040
12,-0.2305,-1.0435,-0.2695,0.1693,-0.0008,0.0859,2048
12,-0.2368,-1.0862,-0.3418,0.1466,-0.1129,0.0152,2042
12,-0.2454,-1.1689,-0.4417,0.1578,-0.2151,-0.0671,2050
12,-0.2036,-1.2625,-0.532,0.1806,-0.2534,-0.1043,2048
12,-0.1619,-1.3457,-0.5947,0.2147,-0.178,-0.1033,2046
12,-0.0837,-1.4192,-0.6096,0.2557,-0.0617,-0.0569,2044
12,0.009,-1.4778,-0.5652,0.3037,0.0256,-0.0016,2049
12,0.1047,-1.5239,-0.4927,0.3634,0.0795,0.0208,2046
12,0.1843,-1.614,-0.4763,0.4805,0.1314,0.0137,2039
12,0.2324,-1.8013,-0.5229,0.5883,0.1907,-0.0045,2043
12,0.2576,-2.0,-0.5884,0.6518,0.191,0.0236,2040
12,0.3223,-2.0,-0.5349,0.653,0.0822,0.0921,2048
12,0.4031,-2.0,-0.4014,0.5899,0.0945,0.1888,2050
12,0.531,-1.9573,-0.2832,0.6068,0.2238,0.4369,2045
12,0.478,-1.668,-0.2344,0.6698,0.3866,0.603,2043
12,0.3452,-1.4958,-0.2546,0.661,0.3796,0.6675,2042
12,0.2297,-1.3508,-0.3042,0.5859,0.2412,0.6962,2035
12,0.1626,-1.2014,-0.3191,0.4225,0.065,0.6645,2045
12,0.1101,-1.0286,-0.3052,0.2209,-0.0711,0.5675,2047
12,0.0923,-0.8821,-0.3462,0.0,-0.1107,0.4565,2048
12,0.0403,-0.7805,-0.4312,-0.1856,-0.096,0.3229,2048
12,-0.0103,-0.6516,-0.5342,-0.3016,-0.1254,0.2366,2043
12,-0.0876,-0.5593,-0.5881,-0.3368,-0.1984,0.1421,2047
12,-0.1477,-0.5476,-0.6279,-0.3907,-0.2436,0.0123,2042
12,-0.1206,-0.6021,-0.6619,-0.4358,-0.2487,-0.07,2045
12,-0.0493,-0.6787,-0.6829,-0.4175,-0.1763,-0.0879,2045
12,0.033,-0.7673,-0.6562,-0.388,-0.0704,-0.0413,2051
12,0.0833,-0.8198,-0.6379,-0.3006,0.0742,0.029,2044
12,0.105,-0.8848,-0.5847,-0.1758,0.2334,0.0917,2042
12,0.1111,-0.9893,-0.5042,-0.0473,0.3587,0.1566,2049
12,0.1099,-1.0828,-0.4604,0.0609,0.5006,0.2025,2049
12,0.1294,-1.1765,-0.3965,0.1189,0.6432,0.2341,2043
12,0.1355,-1.2393,-0.3533,0.1336,0.7236,0.2618,2046
12,0.1506,-1.2666,-0.2976,0.1039,0.7801,0.2582,2042
12,0.1179,-1.2656,-0.2393,0.0858,0.7917,0.2252,2045
12,0.1099,-1.2302,-0.2031,0.067,0.7544,0.1871,2050
12,0.0764,-1.1804,-0.196,0.0338,0.7517,0.1626,2046
12,0.0078,-1.1328,-0.1794,0.015,0.7216,0.1232,2046
12,-0.0305,-1.0911,-0.1653,-0.0134,0.6228,0.0795,2055
12,-0.0688,-1.0293,-0.1602,-0.0475,0.5224,0.0565,2070
12,-0.0911,-0.9873,-0.1707,-0.0759,0.4405,0.0242,2040
12,-0.1191,-0.9419,-0.1772,-0.1116,0.3587,0.0384,2032
12,-0.1409,-0.8889,-0.1731,-0.1113,0.2673,0.0332,2047
12,-0.1489,-0.8789,-0.1743,-0.1121,0.1485,0.0192,2047
12,-0.166,-0.8699,-0.186,-0.1332,0.0774,0.0328,2049
12,-0.1938,-0.8801,-0.2002,-0.1386,0.0029,0.0314,2041
12,-0.209,-0.8894,-0.2136,-0.1698,-0.0597,0.0451,2049
12,-0.2043,-0.9177,-0.2209,-0.1778,-0.1157,0.0578,2044
12,-0.1614,-0.9634,-0.2322,-0.1876,-0.1671,0.0557,2042
12,-0.1243,-0.998,-0.231,-0.1819,-0.198,0.0526,2046
12,-0.0898,-1.0569,-0.2549,-0.1706,-0.1981,0.0509,2048
12,-0.0796,-1.1089,-0.2639,-0.149,-0.1955,0.0583,2044
12,-0.064,-1.157,-0.2551,-0.1197,-0.1771,0.0855,2052
12,-0.0613,-1.178,-0.241,-0.102,-0.1226,0.1193,2043
12,-0.0435,-1.1799,-0.2178,-0.0513,-0.028,0.161,2047
12,-0.0286,-1.1765,-0.1748,0.01,0.0899,0.2128,2053
12,-0.0266,-1.156,-0.1633,0.094,0.1908,0.2607,2047
12,-0.0613,-1.1816,-0.1758,0.1722,0.2563,0.2931,2035
12,-0.1145,-1.2234,-0.2314,0.2306,0.2645,0.3237,2042
12,-0.1394,-1.2656,-0.2944,0.2754,0.1997,0.3543,2046
12,-0.1416,-1.2817,-0.2876,0.3265,0.0667,0.3666,2049
12,-0.1111,-1.2893,-0.2639,0.3364,-0.1177,0.3428,2044
12,-0.0823,-1.2983,-0.2373,0.3173,-0.2661,0.2529,2050
12,-0.0876,-1.3723,-0.2671,0.269,-0.275,0.1764,2037
12,-0.1257,-1.4683,-0.3799,0.1996,-0.2049,0.1748,2041
12,-0.1472,-1.574,-0.4832,0.1811,-0.1503,0.2097,2047
12,-0.1455,-1.6951,-0.5894,0.1815,-0.1531,0.2759,2043
12,-0.1069,-1.8406,-0.6023,0.1823,-0.1947,0.3145,2046
12,-0.0479,-1.8945,-0.5527,0.165,-0.1575,0.3081,2037
12,0.0156,-1.8896,-0.4746,0.2085,-0.0702,0.3009,2048
12,0.095,-1.9736,-0.4875,0.2551,-0.0726,0.2928,2035
12,0.1653,-2.0,-0.6079,0.2505,-0.297,0.2116,2046
12,0.21,-2.0,-0.6338,0.1671,-0.6375,0.0613,2058
12,0.197,-2.0,-0.5288,0.1004,-0.6493,0.0079,2061
12,0.1177,-1.6843,-0.3535,0.1358,-0.4229,0.0023,2046
12,0.085,-1.4167,-0.2942,0.1011,-0.2818,-0.0392,2034
12,0.0752,-1.2969,-0.3811,0.0854,-0.1888,-0.0832,2042
12,-0.0129,-1.1694,-0.4138,0.1474,-0.1497,-0.1047,2046
12,-0.1187,-1.0122,-0.363,0.0985,-0.2567,-0.1541,2043
12,-0.1934,-0.8582,-0.353,-0.0384,-0.3618,-0.231,2046
12,-0.2612,-0.709,-0.3889,-0.1882,-0.4502,-0.3281,2043
12,-0.3008,-0.5764,-0.4705,-0.2172,-0.5936,-0.3822,2049
12,-0.2822,-0.4666,-0.5125,-0.1388,-0.7729,-0.4128,2047
12,-0.2336,-0.4543,-0.5305,-0.0518,-0.8835,-0.4267,2049
12,-0.1975,-0.4519,-0.5515,0.0169,-0.9151,-0.4196,2051
12,-0.1787,-0.4827,-0.5908,0.0633,-0.9309,-0.3634,2043
12,-0.1685,-0.5632,-0.625,0.079,-0.9577,-0.3192,2046
12,-0.1318,-0.6672,-0.6177,0.0493,-0.964,-0.308,2045
12,-0.0916,-0.7473,-0.6133,0.0067,-0.8989,-0.2943,2050
12,-0.0647,-0.7905,-0.5837,-0.0446,-0.768,-0.287,2048
12,-0.0327,-0.8601,-0.5508,-0.0763,-0.6368,-0.3109,2046
13,0.0046,-0.9304,-0.5339,-0.1222,-0.5647,-0.3466,2044
13,0.0234,-0.9941,-0.5317,-0.1585,-0.544,-0.4054,2044
13,0.0369,-1.0576,-0.5166,-0.1879,-0.5514,-0.4585,2039
13,0.0496,-1.0933,-0.5093,-0.1955,-0.5229,-0.495,2032
13,0.0562,-1.1147,-0.4888,-0.1946,-0.4504,-0.5221,2042
13,0.0408,-1.1406,-0.5059,-0.1734,-0.3667,-0.5293,2046
13,0.0146,-1.1775,-0.5269,-0.1252,-0.3076,-0.5078,2039
13,-0.0103,-1.1909,-0.5266,-0.0791,-0.2489,-0.4626,2052
13,-0.0286,-1.1929,-0.5037,-0.0296,-0.1526,-0.4028,2046
13,-0.0415,-1.1855,-0.4993,0.025,-0.0554,-0.3274,2039
13,-0.0618,-1.1797,-0.4819,0.084,0.0376,-0.2521,2043
13,-0.0659,-1.1685,-0.4612,0.1529,0.1099,-0.1724,2050
13,-0.0811,-1.1333,-0.4087,0.2143,0.1538,-0.0924,2050
13,-0.1025,-1.0938,-0.3845,0.2831,0.1855,-0.0494,2047
13,-0.1184,-1.0962,-0.3657,0.3117,0.2007,-0.0309,2042
13,-0.1448,-1.0725,-0.3645,0.3334,0.2049,-0.014,2051
13,-0.1726,-1.0693,-0.3425,0.3469,0.2011,-0.0169,2053
13,-0.1833,-1.0508,-0.3254,0.345,0.1787,-0.017,2045
13,-0.1824,-1.0354,-0.3193,0.3265,0.1402,-0.0162,2039
13,-0.176,-1.0325,-0.3135,0.3153,0.0863,-0.0261,2052
13,-0.1709,-1.0125,-0.3113,0.3113,0.0409,-0.0176,2042
13,-0.1604,-1.0046,-0.3135,0.3312,-0.0261,-0.0029,2045
13,-0.1663,-0.9846,-0.3135,0.3493,-0.1108,0.014,2039
13,-0.1975,-0.998,-0.3794,0.3844,-0.1373,0.0149,2048
13,-0.2214,-1.0559,-0.4673,0.4239,-0.1377,0.0186,2042
13,-0.2407,-1.1602,-0.541,0.4609,-0.1412,0.0117,2043
13,-0.2041,-1.2874,-0.5654,0.4513,-0.1767,0.0112,2048
13,-0.1265,-1.3777,-0.5757,0.4426,-0.1398,0.0306,2049
13,-0.0356,-1.4355,-0.5635,0.4348,-0.0334,0.085,2048
13,0.0337,-1.4868,-0.5232,0.4798,0.0728,0.127,2049
13,0.0632,-1.5571,-0.5024,0.5584,0.1852,0.149,2042
13,0.0635,-1.6775,-0.5398,0.6534,0.2011,0.1294,2043
13,0.0708,-1.8547,-0.6465,0.7369,0.1927,0.1573,2048
13,0.1272,-2.0,-0.7266,0.758,0.2607,0.2642,2054
13,0.2327,-2.0,-0.6919,0.7601,0.3714,0.4203,2052
13,0.3496,-2.0,-0.5574,0.8681,0.5787,0.6264,2044
13,0.4072,-1.9033,-0.4133,0.9403,0.9329,0.8573,2049
13,0.3789,-1.8181,-0.3997,0.9796,1.1927,1.0009,2038
13,0.3127,-1.7686,-0.4221,0.9451,1.2414,1.1312,2037
13,0.2688,-1.6394,-0.3787,0.8648,1.238,1.2433,2048
13,0.2883,-1.4785,-0.2961,0.7466,1.2967,1.3129,2039
13,0.3105,-1.3469,-0.2246,0.6289,1.3928,1.339,2043
13,0.3289,-1.2385,-0.2664,0.5485,1.3925,1.2599,2057
13,0.2959,-1.199,-0.3489,0.4738,1.2414,1.1027,2050
13,0.1978,-1.1614,-0.4326,0.4372,1.0844,0.8871,2042
13,0.1313,-1.1055,-0.5337,0.447,1.0802,0.6267,2041
13,0.0967,-1.1401,-0.5552,0.4229,1.2118,0.4518,2047
13,0.1108,-1.1858,-0.5789,0.436,1.3997,0.3157,2044
13,0.1567,-1.1946,-0.5322,0.4373,1.695,0.2513,2041
13,0.1721,-1.1851,-0.4802,0.4569,1.9228,0.2075,2043
13,0.1228,-1.1807,-0.5247,0.4842,2.0433,0.1312,2050
13,0.0559,-1.1775,-0.5854,0.6204,2.0458,0.1113,1981
13,-0.002,-1.1409,-0.4998,0.7983,1.9038,0.0823,2139
13,-0.0337,-1.1304,-0.4624,1.0266,1.8362,-0.0079,2048
13,-0.1111,-1.2148,-0.3784,1.2455,1.7141,-0.0895,2046
13,-0.2454,-1.2634,-0.3066,1.271,1.6775,-0.0629,2073
13,-0.3328,-1.2383,-0.3242,1.1994,1.653,0.0787,1949
13,-0.3591,-1.2471,-0.241,1.095,1.6607,0.2199,2126
13,-0.2903,-1.2588,-0.248,0.9819,1.6604,0.2643,1902
13,-0.2622,-1.2017,-0.2224,0.7445,1.4201,0.447,2060
13,-0.2498,-1.1282,-0.1648,0.7002,0.9487,0.5293,2032
13,-0.2527,-1.0132,-0.041,0.6686,0.4884,0.4079,2071
13,-0.3008,-1.1016,-0.0625,0.2639,0.2109,0.1922,2100
13,-0.3696,-1.2502,-0.2175,-0.2629,-0.1683,-0.0751,2136
13,-0.4907,-1.1733,-0.3948,-0.7235,-0.216,-0.2053,2012
13,-0.6545,-0.9346,-0.3044,-1.2086,-0.0912,-0.0344,2050
13,-0.5925,-0.645,-0.3113,-1.721,-0.1021,0.3007,2057
13,-0.5435,-0.4121,-0.3948,-2.0995,-0.0348,0.5145,2053
13,-0.4417,-0.2324,-0.312,-2.3489,-0.0212,0.599,2034
13,-0.3599,-0.0637,-0.1824,-2.4674,-0.2698,0.9204,2032
13,-0.3503,0.1289,-0.1782,-2.5149,-0.3241,1.1194,2059
13,-0.3384,0.1003,-0.1746,-2.6301,0.1087,1.3684,2042
13,-0.1892,0.1543,-0.1245,-2.5815,0.2705,1.6415,2045
13,-0.4575,0.2388,-0.0154,-2.4478,0.5626,1.3508,2037
13,-0.0042,0.1406,-0.0818,-2.1264,0.3896,1.4559,2048
13,0.031,0.1138,-0.0681,-1.5657,0.1649,0.9918,2044
13,0.2935,0.033,-0.1636,-1.4127,-0.0569,0.8068,2050
13,-0.1428,-0.2622,-0.1057,-0.8974,-0.4014,0.8066,2069
13,-0.3647,-0.3669,-0.1187,-0.5328,-0.4618,0.8108,2057
13,-0.4556,-0.624,-0.0894,-0.2886,-0.6251,1.0019,2055
13,-0.5232,-0.8491,-0.115,-0.1939,-0.5849,1.0373,2059
13,-0.5017,-1.0806,-0.116,-0.1261,-0.5083,0.9206,2068
13,-0.5518,-1.303,-0.1868,-0.3025,-0.4919,0.8395,2076
13,-0.4993,-1.3958,-0.2185,-0.2842,-0.3181,0.546,2063
13,-0.4143,-1.3926,-0.2839,-0.015,-0.395,0.2838,1979
13,-0.3733,-1.4358,-0.25,0.3341,-0.6277,0.1535,2035
13,-0.3638,-1.5916,-0.3176,0.4124,-0.7513,-0.0059,2067
13,-0.395,-1.8022,-0.4763,0.5394,-0.626,-0.1585,1936
13,-0.5454,-1.9817,-0.5947,0.4956,-0.6553,-0.0506,2058
13,-0.7444,-2.0,-0.6709,0.349,-0.6914,0.2702,2038
13,-0.8203,-2.0,-0.6628,0.157,-0.5317,0.5213,2036
13,-0.7524,-2.0,-0.6448,-0.0172,-0.2986,0.6458,2051
13,-0.6726,-1.9299,-0.668,-0.0116,-0.0419,0.6355,2044
13,-0.4407,-1.8396,-0.667,0.0515,-0.143,0.6914,2036
13,-0.3606,-1.7898,-0.6731,0.1397,-0.3808,0.5958,2045
13,-0.3413,-1.7607,-0.6543,0.1099,-0.5616,0.4224,2045
13,-0.3423,-1.7664,-0.6436,-0.0622,-0.6341,0.1289,2048
13,-0.3586,-1.762,-0.657,-0.2939,-0.6999,-0.2056,2037
13,-0.4146,-1.7073,-0.6987,-0.4886,-0.6994,-0.5054,2041
13,-0.481,-1.582,-0.6782,-0.5462,-0.6505,-0.7048,2053
13,-0.4651,-1.4246,-0.571,-0.5112,-0.6203,-0.8451,2047
13,-0.4016,-1.2756,-0.5396,-0.3689,-0.7293,-0.7375,2039
13,-0.3362,-1.1367,-0.5264,-0.3603,-0.7319,-0.6738,2041
14,-0.312,-1.0022,-0.5237,-0.3316,-0.7263,-0.6171,2037
14,-0.3164,-0.8589,-0.4866,-0.4101,-0.7833,-0.6243,2042
14,-0.3247,-0.7612,-0.4766,-0.5428,-0.8353,-0.6944,2045
14,-0.2874,-0.6968,-0.4744,-0.6034,-0.8974,-0.7941,2051
14,-0.2156,-0.6492,-0.522,-0.5173,-0.9489,-0.8685,1951
14,-0.1418,-0.6624,-0.4517,-0.4406,-1.0065,-0.8867,2041
14,-0.063,-0.6804,-0.4861,-0.3673,-1.107,-0.9356,2047
14,-0.0598,-0.7295,-0.5908,-0.3344,-1.2248,-0.9162,2052
14,-0.0974,-0.7988,-0.689,-0.2493,-1.3314,-0.8893,2047
14,-0.1616,-0.8792,-0.7029,-0.204,-1.4311,-0.8608,2052
14,-0.188,-0.9692,-0.6973,-0.2722,-1.4612,-0.8295,2049
14,-0.231,-1.0435,-0.6848,-0.3729,-1.3427,-0.8308,2041
14,-0.2148,-1.0552,-0.6675,-0.4864,-1.1118,-0.8329,2046
14,-0.1738,-1.0071,-0.6375,-0.563,-0.9054,-0.8573,2043
14,-0.1445,-0.9316,-0.6172,-0.607,-0.7646,-0.8882,2048
14,-0.1355,-0.8542,-0.626,-0.5827,-0.7191,-0.9038,2051
14,-0.1631,-0.7891,-0.6238,-0.4719,-0.7625,-0.9184,2042
14,-0.1736,-0.7422,-0.6072,-0.3236,-0.8469,-0.9115,2042
14,-0.2136,-0.7229,-0.5938,-0.173,-0.9629,-0.8861,2051
14,-0.2292,-0.7532,-0.6011,-0.075,-0.9978,-0.8152,2047
14,-0.2505,-0.8008,-0.6267,0.0407,-0.9871,-0.7293,2053
14,-0.2837,-0.8792,-0.606,0.0735,-0.9134,-0.6389,2048
14,-0.26,-0.8989,-0.6079,0.1878,-0.8798,-0.5297,2037
14,-0.2932,-0.9568,-0.5825,0.2321,-0.771,-0.416,2053
14,-0.2502,-1.0491,-0.6033,0.1999,-0.6361,-0.3208,2046
14,-0.2368,-1.1121,-0.5823,0.3128,-0.5791,-0.2329,2049
14,-0.2764,-1.1846,-0.5303,0.3204,-0.4966,-0.1494,2045
14,-0.2954,-1.2148,-0.5029,0.3096,-0.4211,-0.0941,2026
14,-0.3281,-1.2129,-0.4829,0.2892,-0.3555,-0.0639,2036
14,-0.3528,-1.1858,-0.4668,0.276,-0.3129,-0.0664,2043
14,-0.3508,-1.1216,-0.4841,0.2542,-0.3195,-0.0704,2041
14,-0.377,-1.105,-0.4761,0.1691,-0.2441,-0.1124,2042
14,-0.3347,-1.002,-0.5154,0.2514,-0.3627,-0.1015,2040
14,-0.3386,-0.9954,-0.4946,0.2213,-0.4251,-0.1132,2044
14,-0.3174,-0.9714,-0.4688,0.2224,-0.4418,-0.1447,2047
14,-0.322,-0.9739,-0.4861,0.1944,-0.4746,-0.177,2047
14,-0.3291,-0.9873,-0.5264,0.1658,-0.5277,-0.2104,2038
14,-0.3513,-1.0327,-0.6108,0.1585,-0.5516,-0.232,2046
14,-0.3677,-1.0801,-0.6697,0.183,-0.5273,-0.2171,2047
14,-0.3638,-1.1453,-0.7056,0.2252,-0.5008,-0.1686,2046
14,-0.3416,-1.2273,-0.7197,0.2954,-0.4791,-0.11,2052
14,-0.3176,-1.3015,-0.7258,0.3376,-0.436,-0.0501,2044
14,-0.2891,-1.3774,-0.7183,0.3649,-0.3757,0.0212,2049
14,-0.2847,-1.4548,-0.7227,0.3714,-0.3243,0.0553,2044
14,-0.2979,-1.5635,-0.7698,0.3836,-0.2848,0.0664,2046
14,-0.2888,-1.7346,-0.8188,0.433,-0.3131,0.0772,2048
14,-0.2346,-1.9226,-0.8213,0.536,-0.3982,0.1055,2055
14,-0.1394,-2.0,-0.7375,0.6528,-0.4848,0.1332,2048
14,-0.031,-2.0,-0.6584,0.6934,-0.493,0.2384,2049
14,0.0393,-1.8613,-0.6111,0.6067,-0.394,0.3438,2036
14,0.01,-1.5596,-0.5742,0.4795,-0.2505,0.33,2043
14,-0.0359,-1.3181,-0.5388,0.3802,-0.157,0.2441,2037
14,-0.0327,-1.1331,-0.53,0.238,-0.1221,0.1412,2043
14,-0.0139,-0.9995,-0.5042,0.0734,-0.0663,0.0427,2046
14,0.0627,-0.8396,-0.5266,-0.0366,-0.0738,-0.0189,2044
14,0.082,-0.7283,-0.5264,-0.1513,-0.0551,-0.0803,2044
14,0.0549,-0.6487,-0.5535,-0.2794,-0.0111,-0.1522,2042
14,-0.0251,-0.5791,-0.5784,-0.3354,0.0137,-0.1685,2041
14,-0.1135,-0.5542,-0.5964,-0.3714,0.0174,-0.1571,2039
14,-0.1721,-0.5586,-0.6152,-0.3263,0.0394,-0.0862,2041
14,-0.1606,-0.6453,-0.6262,-0.2457,0.0505,-0.0055,2044
14,-0.0974,-0.7388,-0.6306,-0.1141,0.0609,0.106,2042
14,-0.0657,-0.8472,-0.6433,0.0107,0.0762,0.2482,2047
14,-0.061,-0.9485,-0.6255,0.1248,0.1099,0.3844,2051
14,-0.0806,-1.052,-0.5823,0.2368,0.1535,0.4689,2048
14,-0.095,-1.1624,-0.551,0.3044,0.191,0.4879,2048
14,-0.0859,-1.2534,-0.5103,0.3213,0.2465,0.4505,2043
14,-0.0913,-1.3206,-0.4941,0.3147,0.3235,0.3818,2046
14,-0.1008,-1.3479,-0.4778,0.282,0.389,0.2952,2043
14,-0.1199,-1.3376,-0.4434,0.2406,0.4364,0.1987,2051
14,-0.1426,-1.3083,-0.4297,0.1919,0.4404,0.1136,2047
14,-0.1611,-1.2371,-0.3899,0.1502,0.4157,0.0401,2040
14,-0.1855,-1.167,-0.3691,0.1329,0.4039,-0.0141,2043
14,-0.1992,-1.0989,-0.3386,0.1245,0.3888,-0.0417,2046
14,-0.2024,-1.0337,-0.324,0.1028,0.3673,-0.0499,2043
14,-0.2156,-0.9763,-0.3311,0.0714,0.353,-0.0362,2054
14,-0.2371,-0.9229,-0.3354,0.0386,0.3394,-0.0169,2036
14,-0.2563,-0.886,-0.344,-0.0003,0.2938,-0.0052,2039
14,-0.2717,-0.8511,-0.3403,-0.0322,0.2373,-0.006,2050
14,-0.2754,-0.8318,-0.334,-0.0625,0.1867,-0.0107,2041
14,-0.2715,-0.8254,-0.3384,-0.0976,0.1442,-0.0019,2040
14,-0.2927,-0.824,-0.3333,-0.118,0.1163,0.0073,2048
14,-0.3044,-0.8333,-0.3276,-0.123,0.0834,0.022,2046
14,-0.2974,-0.8635,-0.3184,-0.1224,0.0312,0.0453,2050
14,-0.2832,-0.8977,-0.3059,-0.122,-0.0514,0.0686,2051
14,-0.2603,-0.939,-0.3228,-0.1309,-0.1069,0.0992,2048
14,-0.2729,-0.9773,-0.3362,-0.1274,-0.0997,0.1346,2047
14,-0.2903,-1.0161,-0.3323,-0.1161,-0.1017,0.1541,2046
14,-0.3005,-1.0564,-0.323,-0.0945,-0.1393,0.18,2045
14,-0.2759,-1.0757,-0.3196,-0.0804,-0.1449,0.2092,2043
14,-0.2637,-1.0762,-0.3054,-0.0683,-0.1232,0.232,2038
14,-0.2512,-1.0508,-0.2817,-0.0514,-0.1213,0.2429,2038
14,-0.2561,-1.0115,-0.271,-0.0278,-0.1441,0.2338,2044
14,-0.2798,-1.0017,-0.2769,-0.0127,-0.1661,0.2296,2052
14,-0.3091,-1.0168,-0.3262,-0.0193,-0.2003,0.2334,2057
14,-0.3433,-1.0547,-0.3972,-0.0656,-0.2358,0.2598,2041
14,-0.3628,-1.0986,-0.4727,-0.0566,-0.3282,0.2758,2044
14,-0.3306,-1.1504,-0.4895,-0.0591,-0.5076,0.2878,2046
14,-0.2815,-1.1975,-0.4895,-0.0338,-0.658,0.281,2047
14,-0.2671,-1.2791,-0.5015,0.0029,-0.6865,0.2783,2050
14,-0.3101,-1.3484,-0.54,0.0393,-0.6297,0.3301,2047
15,-0.3721,-1.4158,-0.6213,0.0731,-0.5811,0.3964,2049
15,-0.4485,-1.5115,-0.7268,0.1386,-0.5469,0.4332,2042
15,-0.4805,-1.6406,-0.7949,0.1739,-0.5473,0.4787,2044
15,-0.4468,-1.7732,-0.843,0.161,-0.5858,0.5137,2050
15,-0.3723,-1.8499,-0.8059,0.1551,-0.624,0.5285,2056
15,-0.2908,-1.8833,-0.7314,0.1626,-0.6307,0.5137,2050
15,-0.218,-1.8933,-0.7075,0.1344,-0.6349,0.4452,2040
15,-0.2205,-1.873,-0.7302,0.0582,-0.6243,0.2894,2042
15,-0.2847,-1.825,-0.7405,-0.0141,-0.5456,0.0964,2048
15,-0.3257,-1.6667,-0.7354,-0.0573,-0.4437,0.0288,2050
15,-0.3499,-1.4238,-0.6145,-0.0017,-0.3976,-0.0023,2041
15,-0.2241,-1.2363,-0.5647,0.027,-0.4401,-0.0245,2045
15,-0.1794,-1.0684,-0.5586,0.0939,-0.3807,-0.0044,2045
15,-0.1775,-0.9321,-0.5688,0.0859,-0.3839,-0.0008,2040
15,-0.2412,-0.8105,-0.5837,0.1069,-0.406,-0.0346,2040
15,-0.29,-0.7229,-0.5828,0.0818,-0.5169,-0.1229,2039
15,-0.3198,-0.6934,-0.6194,-0.0008,-0.6149,-0.2674,2039
15,-0.3257,-0.6826,-0.6384,-0.0679,-0.6979,-0.4279,2042
15,-0.2712,-0.6838,-0.637,-0.1164,-0.7883,-0.5465,2045
15,-0.2161,-0.7063,-0.6062,-0.1521,-0.8533,-0.6175,2037
15,-0.1807,-0.7415,-0.5923,-0.1681,-0.8401,-0.6369,2049
15,-0.1802,-0.8123,-0.6106,-0.1527,-0.803,-0.5959,2047
15,-0.1714,-0.8999,-0.6296,-0.1272,-0.7915,-0.5343,2053
15,-0.1687,-0.9678,-0.6379,-0.1135,-0.7721,-0.4633,2043
15,-0.1782,-1.0227,-0.6426,-0.1225,-0.7128,-0.3928,2048
15,-0.1763,-1.0554,-0.6414,-0.1439,-0.6533,-0.3374,2045
15,-0.1665,-1.0544,-0.6338,-0.1543,-0.6024,-0.329,2046
15,-0.1604,-1.052,-0.6357,-0.1631,-0.5521,-0.3521,2049
15,-0.1724,-1.0476,-0.6375,-0.1687,-0.4839,-0.3818,2045
15,-0.1912,-1.0288,-0.6396,-0.1683,-0.4075,-0.4018,2043
15,-0.2126,-0.9968,-0.6521,-0.1583,-0.3412,-0.4107,2052
15,-0.2231,-0.9685,-0.6497,-0.1296,-0.2912,-0.4024,2040
15,-0.2317,-0.947,-0.6541,-0.0856,-0.2192,-0.3835,2043
15,-0.2346,-0.9363,-0.635,-0.0258,-0.163,-0.3474,2040
15,-0.2334,-0.9355,-0.613,0.0426,-0.116,-0.3071,2031
15,-0.2454,-0.9429,-0.5972,0.1087,-0.0892,-0.2649,2043
15,-0.2456,-0.9702,-0.6123,0.1742,-0.0389,-0.2241,2050
15,-0.2756,-1.0083,-0.6514,0.2137,0.0268,-0.1838,2040
15,-0.291,-1.0312,-0.6443,0.2499,0.0758,-0.1459,2042
15,-0.2852,-1.0474,-0.6274,0.2799,0.0995,-0.1053,2037
15,-0.3079,-1.041,-0.5911,0.3211,0.1651,-0.0812,2047
15,-0.3013,-1.04,-0.5823,0.3585,0.2373,-0.0527,2047
15,-0.3186,-1.0381,-0.5596,0.398,0.2713,-0.0265,2047
15,-0.3325,-1.0176,-0.5405,0.4402,0.2791,-0.0096,2043
15,-0.3455,-1.0027,-0.5188,0.4753,0.2842,-0.0004,2049
15,-0.343,-0.988,-0.5054,0.4947,0.2653,0.0033,2044
15,-0.3428,-0.9673,-0.4822,0.4922,0.2398,-0.015,2046
15,-0.3372,-0.9587,-0.4805,0.4854,0.1722,-0.0353,2041
15,-0.3552,-0.9646,-0.4829,0.5043,0.1168,-0.0619,2048
15,-0.3545,-1.0081,-0.5171,0.5027,0.0437,-0.0766,2047
15,-0.3472,-1.0291,-0.5325,0.5149,-0.0185,-0.0879,2053
15,-0.3528,-1.0659,-0.5898,0.5361,-0.0246,-0.0735,2035
15,-0.3477,-1.0974,-0.6299,0.5638,-0.0039,-0.0401,2046
15,-0.324,-1.1511,-0.6394,0.6136,0.019,-0.0021,2047
15,-0.3062,-1.1885,-0.6399,0.6717,0.0762,0.0378,2053
15,-0.2825,-1.2378,-0.6292,0.7104,0.174,0.096,2042
15,-0.2952,-1.2817,-0.5933,0.7239,0.253,0.1258,2043
15,-0.3147,-1.3108,-0.5525,0.7209,0.2892,0.1373,2046
15,-0.3403,-1.364,-0.5557,0.6709,0.2948,0.1288,2047
15,-0.3752,-1.4307,-0.5959,0.6211,0.2603,0.1159,2050
15,-0.3884,-1.5303,-0.6814,0.6059,0.1784,0.1296,2042
15,-0.374,-1.6404,-0.7112,0.6173,0.0609,0.1566,2047
15,-0.2957,-1.729,-0.666,0.6436,-0.0322,0.206,2055
15,-0.2083,-1.7002,-0.5713,0.6707,0.0039,0.3288,2054
15,-0.1394,-1.5847,-0.511,0.7111,0.1197,0.4457,2052
15,-0.1646,-1.4412,-0.4832,0.7237,0.172,0.4829,2044
15,-0.178,-1.332,-0.439,0.7115,0.1374,0.438,2045
15,-0.1689,-1.2366,-0.3892,0.6256,0.071,0.349,2044
15,-0.1211,-1.1313,-0.3262,0.4791,0.002,0.2594,2042
15,-0.0613,-1.0081,-0.2896,0.3334,-0.0392,0.1828,2045
15,-0.0293,-0.8906,-0.3245,0.1892,-0.0505,0.0948,2044
15,-0.041,-0.804,-0.3555,0.0847,-0.0858,-0.0104,2046
15,-0.0615,-0.7297,-0.4062,-0.0025,-0.1649,-0.134,2042
15,-0.0903,-0.7024,-0.4478,-0.0816,-0.2211,-0.2485,2051
15,-0.1433,-0.7043,-0.5029,-0.1716,-0.2139,-0.3181,2044
15,-0.1843,-0.7412,-0.5527,-0.2274,-0.1766,-0.3453,2048
15,-0.177,-0.7937,-0.5732,-0.2325,-0.1121,-0.3442,2048
15,-0.1382,-0.8547,-0.5864,-0.2148,-0.0405,-0.3024,2050
15,-0.1082,-0.9199,-0.5667,-0.1534,0.0526,-0.2119,2045
15,-0.0918,-1.0107,-0.5327,-0.0601,0.1567,-0.0895,2048
15,-0.0928,-1.1245,-0.5142,0.0469,0.2533,0.0213,2047
15,-0.1255,-1.2253,-0.4802,0.1527,0.3269,0.1049,2051
15,-0.1482,-1.3279,-0.4478,0.2115,0.3698,0.1575,2047
15,-0.1543,-1.3899,-0.4272,0.2213,0.4046,0.1839,2053
15,-0.1421,-1.4009,-0.3948,0.1958,0.418,0.1755,2042
15,-0.1382,-1.3853,-0.3662,0.151,0.4156,0.1378,2044
15,-0.1699,-1.3328,-0.3394,0.1277,0.4177,0.08,2037
15,-0.1855,-1.2769,-0.3235,0.1011,0.3836,0.0226,2044
15,-0.1926,-1.2,-0.2986,0.0814,0.353,-0.0409,2048
15,-0.2092,-1.1221,-0.2905,0.0517,0.3153,-0.0847,2041
15,-0.2307,-1.0566,-0.2878,0.0332,0.2831,-0.1036,2044
15,-0.2312,-0.9836,-0.29,0.0173,0.2445,-0.0984,2035
15,-0.2336,-0.9131,-0.2969,0.0189,0.1927,-0.08,2045
15,-0.231,-0.8606,-0.2932,0.028,0.1571,-0.0587,2044
15,-0.24,-0.8176,-0.3013,0.0349,0.1252,-0.0382,2047
15,-0.2461,-0.7993,-0.3108,0.0417,0.1185,-0.0238,2039
15,-0.2468,-0.791,-0.3076,0.0358,0.1005,-0.0044,2050
15,-0.2517,-0.7847,-0.3066,0.0285,0.1013,0.0145,2035
15,-0.2542,-0.8032,-0.3127,0.0029,0.0979,0.0344,2048
15,-0.2532,-0.8342,-0.2966,-0.0129,0.0743,0.0529,2044
15,-0.2488,-0.8774,-0.2947,-0.0281,0.0389,0.0663,2050
15,-0.2542,-0.9272,-0.2976,-0.0467,0.0093,0.0767,2045
16,-0.2593,-0.9792,-0.2961,-0.0609,-0.0067,0.09,2044
16,-0.2632,-1.0229,-0.2981,-0.0626,-0.0205,0.0992,2047
16,-0.2766,-1.0664,-0.321,-0.053,-0.0377,0.1044,2041
16,-0.2795,-1.1008,-0.322,-0.0461,-0.0356,0.1216,2050
16,-0.2715,-1.1038,-0.3096,-0.0337,-0.0229,0.1541,2046
16,-0.2683,-1.0642,-0.2876,-0.0172,0.0162,0.1999,2039
16,-0.2754,-1.0271,-0.2654,0.0217,0.0826,0.242,2042
16,-0.2996,-0.9919,-0.2712,0.0613,0.1155,0.2758,2047
16,-0.3228,-0.9954,-0.2971,0.0984,0.1156,0.3055,2042
16,-0.3591,-1.012,-0.3303,0.1286,0.1214,0.3462,2042
16,-0.364,-1.0776,-0.3591,0.1437,0.0951,0.3894,2044
16,-0.3596,-1.1531,-0.3877,0.1474,0.0317,0.4292,2048
16,-0.3445,-1.2051,-0.385,0.1559,-0.0754,0.4493,2041
16,-0.3179,-1.2886,-0.3457,0.1517,-0.2225,0.4318,2050
16,-0.2947,-1.3647,-0.3198,0.1169,-0.3268,0.3884,2044
16,-0.3308,-1.4211,-0.3569,0.0565,-0.3272,0.3474,2046
16,-0.395,-1.4573,-0.4319,-0.0003,-0.3196,0.316,2048
16,-0.4319,-1.4973,-0.5083,-0.0547,-0.3599,0.286,2054
16,-0.4402,-1.5461,-0.6118,-0.0924,-0.3661,0.2334,2032
16,-0.4177,-1.6052,-0.6262,-0.0937,-0.3492,0.1896,2057
16,-0.3721,-1.6733,-0.6016,-0.0458,-0.3609,0.1451,2032
16,-0.3398,-1.7439,-0.6013,-0.015,-0.3583,0.1402,2051
16,-0.3159,-1.8088,-0.626,-0.0324,-0.3416,0.1587,2046
16,-0.3066,-1.873,-0.635,-0.0403,-0.3799,0.0996,2049
16,-0.3049,-1.8533,-0.582,-0.0087,-0.4332,-0.0176,2033
16,-0.3125,-1.6804,-0.4429,0.0944,-0.3647,-0.0571,2045
16,-0.2915,-1.5532,-0.3816,0.1756,-0.2763,-0.0553,2051
16,-0.2615,-1.4331,-0.4287,0.2216,-0.2409,-0.0162,2042
16,-0.2854,-1.3091,-0.4832,0.2939,-0.2428,0.0194,2034
16,-0.3328,-1.1821,-0.5129,0.3734,-0.2956,0.0397,2045
16,-0.3735,-1.1111,-0.5315,0.3852,-0.3173,0.0411,2027
16,-0.3967,-1.0569,-0.5723,0.357,-0.2742,0.0361,2055
16,-0.407,-0.998,-0.6001,0.3249,-0.245,0.0301,2046
16,-0.4124,-0.9475,-0.6218,0.2962,-0.2318,0.0015,2032
16,-0.4041,-0.8936,-0.6494,0.3072,-0.218,-0.0373,2030
16,-0.397,-0.8665,-0.6062,0.3064,-0.2627,-0.0767,2073
16,-0.3672,-0.8721,-0.5747,0.3271,-0.3337,-0.106,2041
16,-0.3274,-0.9065,-0.5098,0.2972,-0.4357,-0.1356,2054
16,-0.3035,-0.9634,-0.5024,0.2537,-0.5498,-0.1862,2073
16,-0.3098,-1.0151,-0.5239,0.198,-0.6146,-0.2177,2054
16,-0.3186,-1.043,-0.4951,0.1436,-0.6574,-0.2065,2083
16,-0.3076,-1.0427,-0.4771,0.1653,-0.7055,-0.183,2061
16,-0.2864,-1.0642,-0.45,0.3296,-0.816,-0.1489,2120
16,-0.3105,-1.1008,-0.4673,0.4462,-0.944,-0.0932,2044
16,-0.3484,-1.1609,-0.4734,0.5639,-0.936,-0.0061,1988
16,-0.3752,-1.1768,-0.4619,0.5044,-0.8672,0.0843,1945
16,-0.4106,-1.1296,-0.4673,0.5699,-0.8797,0.1655,2057
16,-0.4236,-1.1013,-0.446,0.5867,-0.9802,0.2505,2128
16,-0.4395,-1.1243,-0.4587,0.494,-0.9628,0.3645,2129
16,-0.4658,-1.114,-0.4946,0.357,-0.8921,0.3683,2162
16,-0.4924,-1.074,-0.4431,0.1397,-0.8717,0.3357,1965
16,-0.447,-0.9512,-0.4858,0.0144,-0.8206,0.3655,2016
16,-0.4343,-0.8513,-0.5459,-0.0431,-0.8002,0.4113,2157
16,-0.4365,-0.7759,-0.584,0.012,-0.9215,0.3838,2087
16,-0.3679,-0.7341,-0.5781,0.0455,-1.0351,0.501,2078
16,-0.342,-0.7305,-0.6128,0.151,-1.124,0.6333,1933
16,-0.3164,-0.6987,-0.6045,0.3033,-1.2018,0.7664,1823
16,-0.3237,-0.6934,-0.5193,0.4474,-1.2934,0.8108,2071
16,-0.3389,-0.7151,-0.5706,0.452,-1.3403,0.891,2066
16,-0.3604,-0.75,-0.6187,0.5361,-1.2978,0.9773,2100
16,-0.3914,-0.7578,-0.6194,0.6019,-1.2355,1.0601,2039
16,-0.3965,-0.7715,-0.6008,0.5894,-1.2335,1.1239,2108
16,-0.3909,-0.8081,-0.6394,0.5899,-1.1057,1.1668,1998
16,-0.3408,-0.8171,-0.6123,0.5902,-0.989,1.168,2055
16,-0.3313,-0.8318,-0.5996,0.5588,-0.8817,1.1587,2062
16,-0.3049,-0.8481,-0.6382,0.5795,-0.8126,1.1232,1911
16,-0.3159,-0.8521,-0.6672,0.5908,-0.7118,1.082,2052
16,-0.4539,-0.8689,-0.6252,0.5959,-0.5641,0.9035,2101
16,-0.3267,-0.8657,-0.5967,0.8854,-0.4675,0.9963,2061
16,-0.4058,-0.8391,-0.5728,0.9937,-0.302,0.9316,2030
16,-0.4768,-0.9399,-0.6409,1.0054,-0.125,1.0118,2049
16,-0.4399,-1.0361,-0.6555,1.0307,0.0517,0.8945,2050
16,-0.5371,-1.1116,-0.6016,1.1344,0.1667,1.117,2043
16,-0.5898,-1.1289,-0.5291,1.1503,0.4152,0.903,2050
16,-0.6233,-1.189,-0.502,1.091,0.5594,0.9989,2057
16,-0.6169,-1.2615,-0.4883,0.9357,0.5374,0.8625,2046
16,-0.6292,-1.356,-0.4558,0.7476,0.5645,0.5777,2047
16,-0.5178,-1.5859,-0.5159,0.6649,0.3761,0.5051,2046
16,-0.4756,-1.7834,-0.427,0.851,0.5363,0.3789,2064
16,-0.5171,-1.8982,-0.325,1.0367,0.6039,0.2627,2043
16,-0.5789,-1.9189,-0.2515,1.0919,0.5943,0.2491,2026
16,-0.6577,-1.9456,-0.2534,1.0564,0.5273,0.1485,2018
16,-0.6458,-1.9614,-0.2534,1.0407,0.4211,-0.0301,2046
16,-0.5386,-1.8826,-0.2004,1.0776,0.396,-0.2912,2044
16,-0.4954,-1.6836,-0.1145,1.0094,0.3789,-0.5553,2038
16,-0.4824,-1.4592,-0.0933,0.8614,0.2417,-0.7644,2040
16,-0.47,-1.3225,-0.1169,0.7474,0.094,-0.9315,2036
16,-0.4451,-1.2175,-0.1318,0.697,0.0103,-1.0768,2043
16,-0.416,-1.1187,-0.1235,0.6747,-0.0535,-1.1592,2034
16,-0.3926,-1.0652,-0.123,0.6774,-0.1298,-1.2017,2046
16,-0.365,-1.0549,-0.1223,0.6775,-0.2032,-1.2161,2040
16,-0.3391,-1.0771,-0.1555,0.6649,-0.2654,-1.2314,2048
16,-0.3328,-1.0869,-0.1904,0.6536,-0.2758,-1.2445,2049
16,-0.3352,-1.0945,-0.2102,0.632,-0.2093,-1.2641,2048
16,-0.3181,-1.0959,-0.2434,0.5775,-0.1151,-1.2632,2055
16,-0.3188,-1.1208,-0.2568,0.7107,-0.1169,-1.1798,2046
16,-0.3042,-1.1169,-0.2124,0.7678,-0.0802,-1.1612,2052
16,-0.2961,-1.0979,-0.1992,0.8028,-0.0513,-1.1451,2044
16,-0.3035,-1.0596,-0.2095,0.7879,-0.0068,-1.1459,2049
16,-0.3315,-1.0195,-0.2036,0.8132,0.0043,-1.0951,2045
16,-0.3657,-0.9758,-0.189,0.7758,0.0357,-1.0602,2050
16,-0.3667,-0.9387,-0.1616,0.7332,0.0664,-0.9955,2048
16,-0.3733,-0.9211,-0.1094,0.5843,0.1405,-0.9669,2051
