Timestamp,Ax,Ay,Az,Rx,Ry,Rz,EMG
0,-0.0342,-0.9739,0.0339,-0.0728,-0.3332,0.0021,2076
0,0.0508,-1.0208,-0.0608,-0.0178,-0.4366,-0.0092,1997
0,0.1675,-0.9534,0.0132,-0.043,-0.3414,0.0593,2041
0,0.2441,-0.9414,0.062,-0.0081,-0.1208,0.1151,2026
0,0.2319,-0.9617,0.0203,-0.0401,-0.0055,0.1353,2014
0,0.1924,-1.0408,-0.022,-0.0828,0.0041,0.1541,2016
0,0.1199,-1.0195,-0.0088,-0.129,0.0921,0.225,2019
0,0.0525,-1.0654,0.0193,-0.2049,0.1171,0.2547,1965
0,0.1406,-1.0754,-0.052,-0.2325,0.1887,0.2906,2016
0,0.1008,-1.0369,-0.0486,-0.2061,0.4127,0.2844,2008
0,0.1289,-0.9885,0.022,-0.1844,0.4449,0.3304,1968
0,0.051,-1.0078,0.0535,-0.2165,0.5449,0.3268,2017
0,-0.0103,-1.0483,0.0706,-0.2333,0.5438,0.2943,2008
0,0.0293,-1.0415,0.0383,-0.2208,0.4789,0.3041,2000
0,-0.0217,-1.0559,-0.0559,-0.2538,0.4566,0.2822,1998
0,-0.0437,-1.0364,-0.105,-0.2633,0.4992,0.2545,1976
0,-0.1003,-1.0269,-0.1357,-0.273,0.5152,0.2183,1926
0,-0.1052,-1.019,-0.1233,-0.2109,0.4402,0.2378,1988
0,-0.0928,-1.0105,-0.0562,-0.2011,0.4014,0.239,2029
0,-0.0825,-1.0159,-0.0017,-0.2256,0.4075,0.1995,1984
0,-0.0378,-1.0125,0.0249,-0.2384,0.3882,0.191,2004
0,-0.0808,-1.0103,0.0095,-0.2336,0.401,0.1812,1999
0,-0.1023,-1.0178,0.0115,-0.2121,0.3438,0.2037,1993
0,-0.0945,-1.033,-0.0054,-0.2248,0.3189,0.229,2019
0,-0.1499,-1.0437,0.0059,-0.2249,0.3368,0.2053,2000
0,-0.2336,-1.0383,0.0061,-0.2195,0.2436,0.1633,2017
0,-0.2737,-1.0344,-0.0095,-0.2012,0.1008,0.0894,2017
0,-0.2195,-1.0315,-0.0371,-0.1654,-0.025,0.0566,1968
0,-0.0676,-1.0188,-0.0347,-0.1441,-0.0377,0.0551,2010
0,-0.0562,-1.0139,-0.0645,-0.1597,0.0276,0.0442,2012
0,-0.0579,-1.0144,-0.0613,-0.126,0.0698,0.036,2003
0,-0.0386,-1.0242,-0.1128,-0.0898,0.0794,0.0525,2002
0,-0.0166,-1.0129,-0.0637,-0.0668,0.1325,0.0816,2011
0,-0.042,-1.0129,-0.0444,-0.0226,0.1926,0.1048,2005
0,-0.0652,-1.0261,-0.0425,-0.0228,0.1894,0.119,2007
0,-0.0735,-1.0212,-0.0806,0.0153,0.132,0.13,1978
0,-0.061,-1.0166,-0.0581,0.0687,0.0787,0.1374,2021
0,-0.0632,-1.011,0.0435,0.0369,0.0742,0.1469,2009
0,-0.0786,-1.0093,-0.0581,0.0431,0.0714,0.1558,1984
0,-0.0757,-1.0056,-0.051,0.0491,0.0406,0.1657,2012
0,-0.1199,-1.0024,-0.0242,0.0461,0.0815,0.1682,2014
0,-0.175,-1.0183,-0.019,0.0715,-0.0051,0.1329,2014
0,-0.1587,-1.0181,-0.0486,0.1237,-0.0983,0.1137,2014
0,-0.104,-1.011,-0.0718,0.1417,-0.1133,0.0943,1994
0,-0.1372,-1.033,-0.0383,0.1787,-0.1477,0.0611,1999
0,-0.1702,-1.0393,0.0112,0.2246,-0.1806,0.0254,1983
0,-0.1797,-1.0481,0.0386,0.2605,-0.2149,-0.0075,1983
0,-0.1746,-1.0322,0.0732,0.2804,-0.2125,-0.0486,2032
0,-0.1963,-1.0413,0.0605,0.2904,-0.2254,-0.0967,2028
0,-0.1792,-1.0317,0.0173,0.3037,-0.2994,-0.1358,2039
0,-0.1277,-1.0134,-0.0444,0.3454,-0.3512,-0.1626,2023
0,-0.0972,-1.0024,-0.0496,0.3453,-0.3322,-0.185,2021
0,-0.0569,-1.011,-0.0576,0.3083,-0.3224,-0.1872,2007
0,-0.0767,-1.0078,-0.0547,0.2678,-0.3133,-0.2036,2001
0,-0.0862,-1.0159,-0.0203,0.278,-0.2828,-0.2011,2016
0,-0.0471,-1.0149,0.0325,0.2725,-0.2706,-0.1996,2000
0,-0.043,-1.0215,0.0569,0.2667,-0.2948,-0.1808,1938
0,-0.022,-1.0176,0.0654,0.2332,-0.2382,-0.1535,2052
0,-0.0403,-1.0032,0.0952,0.2013,-0.2012,-0.141,2063
0,-0.0312,-1.0061,0.0637,0.1896,-0.1872,-0.1093,2014
0,-0.0417,-1.0071,0.0303,0.1665,-0.159,-0.1081,2020
0,-0.0579,-1.0049,0.0129,0.1698,-0.1796,-0.0969,2039
0,-0.0598,-1.0027,-0.0029,0.1569,-0.1519,-0.0983,2003
0,-0.0857,-1.0044,-0.0059,0.1647,-0.104,-0.0995,2037
0,-0.1206,-0.9985,0.0212,0.1848,-0.1344,-0.1021,2022
0,-0.1035,-1.0139,0.0337,0.1812,-0.1594,-0.118,2016
0,-0.1035,-1.0215,0.0796,0.1567,-0.1459,-0.1437,2025
0,-0.1313,-1.0283,0.1436,0.1522,-0.12,-0.1679,1997
0,-0.1428,-1.0398,0.1677,0.1233,-0.1758,-0.1996,2004
0,-0.1475,-1.0354,0.1719,0.1071,-0.1943,-0.2434,2010
0,-0.1458,-1.0317,0.198,0.1108,-0.2441,-0.2481,2018
0,-0.187,-1.0527,0.1633,0.1157,-0.3366,-0.2705,2006
0,-0.176,-1.0681,0.1528,0.1168,-0.3793,-0.3084,1989
0,-0.1621,-1.0415,0.1699,0.0973,-0.4406,-0.3199,2001
0,-0.1624,-1.0823,0.1697,0.0656,-0.3907,-0.2537,2026
0,-0.2375,-1.1333,0.1423,0.0571,-0.2637,-0.3139,1987
0,-0.2312,-0.9856,0.0576,-0.0614,0.1083,-0.4333,1974
0,-0.2761,-0.9644,0.0728,0.0005,0.4545,-0.5488,1947
0,-0.1313,-0.9465,0.0754,0.0489,0.6497,-0.6893,2018
0,-0.1309,-0.9705,0.0266,0.0574,0.4317,-0.7753,1991
0,-0.2327,-0.9292,0.0396,0.023,0.4979,-0.7723,2035
0,-0.1162,-0.7876,0.2419,-0.3051,0.2021,-0.569,2032
0,-0.0605,-0.8186,0.0542,-0.3048,0.809,-0.3713,2047
0,0.1167,-1.084,0.1169,-0.3595,0.5308,-0.6156,2040
0,0.1978,-1.0989,0.0906,-0.3006,0.2088,-0.7958,2034
0,0.2178,-1.0613,0.1016,-0.3064,-0.0494,-0.7949,1979
0,0.2715,-1.0198,0.0701,-0.3003,-0.2738,-0.7353,2007
0,0.3101,-1.0186,0.0911,-0.3217,-0.6103,-0.6741,2021
0,0.1196,-1.0078,0.0464,-0.4027,-0.9427,-0.6361,2024
0,0.0081,-0.9739,0.0369,-0.4791,-1.0062,-0.5737,2035
0,0.0742,-0.9265,-0.1228,-0.4474,-1.2299,-0.389,2051
0,0.1226,-0.9768,-0.2095,-0.4522,-1.0951,-0.3176,2073
0,0.0762,-1.0122,-0.113,-0.4081,-0.7737,-0.4276,2034
0,0.0242,-0.9548,0.0356,-0.3484,-0.3828,-0.5157,2014
0,0.0515,-0.9966,0.1499,-0.4948,-0.2298,-0.5412,1989
0,0.293,-1.0774,0.145,-0.6067,-0.5112,-0.4544,2025
0,0.376,-1.041,0.1003,-0.6674,-0.7022,-0.3157,2029
0,0.3621,-1.0366,-0.002,-0.695,-0.6721,-0.1898,2065
0,0.2832,-1.0615,-0.0835,-0.6335,-0.7945,-0.1061,2078
0,0.1978,-1.0303,-0.175,-0.5344,-0.5955,-0.0686,2063
0,0.135,-1.0381,-0.1826,-0.4386,-0.3831,-0.0043,2061
1,0.1721,-0.9836,-0.2004,-0.3075,-0.2755,0.022,2028
1,0.3501,-0.9355,-0.2004,-0.2111,-0.206,0.1708,2005
1,0.4382,-0.9907,-0.1545,-0.1349,-0.057,0.2478,1983
1,0.3682,-1.0337,-0.0981,-0.0483,0.0284,0.3064,2025
1,0.2104,-0.9941,-0.0017,-0.096,0.0425,0.3855,2018
1,0.3025,-0.9802,0.0056,-0.0976,0.0772,0.4389,2041
1,0.3398,-1.0115,0.0061,-0.1257,-0.1963,0.3843,2052
1,0.3745,-1.0195,-0.1077,-0.1222,-0.3131,0.4276,2032
1,0.3438,-1.0176,-0.1912,-0.0395,-0.4124,0.5267,2024
1,0.2312,-1.0149,-0.2512,0.0999,-0.3719,0.5894,2019
1,0.0305,-1.0388,-0.2842,0.2409,-0.1763,0.7114,1984
1,-0.0808,-1.0134,-0.2434,0.332,0.0204,0.7622,2036
1,-0.1023,-0.9878,-0.178,0.4052,0.1599,0.7223,2095
1,-0.126,-0.9666,-0.2004,0.5885,0.3687,0.6516,1965
1,-0.0781,-1.0398,0.0129,0.5964,0.3677,0.7022,2038
1,0.0015,-1.054,0.1331,0.5034,0.2131,0.7072,2044
1,0.0679,-1.0146,0.0188,0.5008,0.159,0.5914,2032
1,0.062,-1.0271,0.2163,0.4196,0.2396,0.5348,2060
1,-0.0208,-1.0154,0.2656,0.2962,-0.0297,0.5823,2055
1,-0.0266,-0.9883,0.2134,0.1495,-0.1164,0.6336,2016
1,-0.3069,-1.0244,0.1621,0.0342,-0.1687,0.4714,2052
1,-0.5173,-1.1057,0.1729,-0.0201,-0.151,0.2694,2022
1,-0.3562,-1.0669,0.106,-0.0403,-0.1649,0.1939,2017
1,-0.2263,-0.9998,0.0046,-0.0269,-0.3131,0.0844,2002
1,-0.2068,-1.002,-0.1235,-0.0071,-0.3774,0.0265,2032
1,-0.2344,-1.0583,-0.1047,-0.0449,-0.4239,-0.0154,2004
1,-0.123,-1.0281,-0.0332,-0.0582,-0.2786,-0.0682,2019
1,-0.033,-1.0442,0.1174,-0.1298,-0.3033,-0.2317,2003
1,-0.1384,-1.0164,0.1191,-0.153,-0.3257,-0.2779,2013
1,0.0212,-1.0354,0.043,-0.1296,-0.3043,-0.1683,2056
1,0.1704,-1.0354,-0.0447,-0.1104,-0.5596,-0.1987,2023
1,0.0715,-1.0037,-0.063,-0.1165,-0.8561,-0.1348,2031
1,-0.1028,-1.02,-0.1003,-0.0846,-0.9052,-0.1156,1982
1,-0.2927,-1.0847,-0.1677,0.018,-0.3192,-0.2998,2016
1,-0.3416,-1.1125,-0.1184,-0.0344,-0.0583,-0.4946,2076
1,-0.1479,-1.0718,-0.1523,-0.0834,-0.0609,-0.5019,1894
1,0.1768,-1.0259,-0.0811,0.1069,0.194,-0.3368,2056
1,0.2761,-1.011,-0.0159,0.1864,0.2582,-0.2281,1985
1,0.2976,-0.9478,0.0693,0.1964,0.2215,-0.0273,2052
1,0.2312,-0.9519,0.0144,0.1815,0.3033,0.0153,2060
1,0.2388,-1.0247,-0.0801,0.2281,0.6426,0.0708,2027
1,0.1743,-1.0764,-0.0503,0.2987,0.5947,0.1241,2029
1,0.0635,-0.9744,0.0369,0.2792,0.5376,0.1173,1986
1,0.0933,-0.9702,0.0249,0.2188,0.7296,0.2292,1975
1,0.1021,-1.0337,0.0281,0.2084,1.0307,0.3133,1925
1,0.1179,-1.0632,0.072,0.1972,1.3336,0.2992,1951
1,0.1116,-0.9824,0.0935,0.151,1.3139,0.3446,2041
1,0.2034,-0.9399,-0.0613,0.0915,1.2773,0.4829,2025
1,0.1145,-1.0327,0.262,-0.29,0.904,0.3141,2032
1,0.0544,-0.9917,-0.0918,-0.0742,1.0042,0.3677,2027
1,-0.1648,-1.0078,-0.0139,-0.0397,0.9794,0.328,2003
1,0.02,-1.0039,-0.0527,0.0338,0.8764,0.3534,1990
1,0.0559,-0.998,-0.062,0.1469,0.8854,0.379,1978
1,-0.1602,-0.9971,0.0198,0.1483,0.8313,0.355,2023
1,-0.2104,-1.0107,0.0657,0.0967,0.7184,0.329,1909
1,-0.1052,-1.0378,0.104,0.0415,0.7747,0.3167,2016
1,-0.0398,-1.0032,0.0896,0.0088,0.8324,0.2289,2017
1,-0.104,-0.9893,0.1299,-0.0124,0.5237,0.1993,2027
1,-0.1672,-1.0444,0.0911,-0.0847,0.4269,0.1285,2042
1,-0.2937,-1.0422,0.0735,-0.1156,0.1569,0.0622,2037
1,-0.2327,-1.0461,0.0269,-0.0278,0.0715,0.0574,2050
1,-0.1672,-1.0222,0.0791,0.0057,-0.02,0.031,2061
1,-0.1821,-1.0356,0.1213,-0.0097,-0.2348,-0.0244,2034
1,-0.1719,-1.0271,0.0745,-0.0328,-0.3715,-0.0471,2024
1,-0.1248,-1.0242,0.0667,-0.0522,-0.4368,-0.0711,2023
1,-0.1187,-1.0352,0.0515,-0.0832,-0.3613,-0.1369,2037
1,-0.1206,-1.0291,0.1316,-0.1919,-0.3334,-0.1507,2039
1,-0.1104,-1.021,0.1453,-0.2739,-0.5859,-0.0854,2016
1,0.0266,-1.0178,0.0774,-0.2321,-0.7187,-0.0131,2046
1,0.0369,-1.0032,0.0381,-0.1788,-0.6588,0.01,2060
1,0.02,-0.967,-0.0171,-0.1459,-0.6895,0.1036,2035
1,-0.0315,-0.9827,-0.0557,-0.0706,-0.7517,0.208,2028
1,-0.125,-1.0212,-0.0596,-0.0044,-0.6718,0.1621,2016
1,-0.1526,-1.0071,-0.001,0.1148,-0.5958,0.1088,2026
1,-0.1653,-0.9729,-0.0332,0.1217,-0.6598,0.1089,1980
1,-0.1482,-0.9507,-0.1184,0.1053,-0.8421,0.106,2018
1,0.0435,-1.011,-0.0122,0.029,-0.8475,-0.031,2077
1,0.2485,-0.981,-0.052,0.1048,-0.5204,-0.0028,2143
1,0.3274,-1.0718,-0.1318,0.0645,-0.1919,-0.0049,2118
1,0.364,-1.1479,-0.1396,0.1437,0.2207,0.1025,2076
1,0.2429,-1.0952,-0.2339,0.2362,0.645,0.1193,2059
1,0.27,-1.0352,-0.2583,0.5125,1.1304,0.1977,2053
1,0.3281,-1.0129,-0.1453,0.5216,1.4581,0.3912,2044
1,0.657,-0.8889,-0.0713,0.567,1.8177,0.7498,2050
1,0.886,-0.7656,-0.0935,0.5231,2.3501,1.1448,1960
1,0.4646,-0.7273,0.1162,0.7047,1.8164,1.5012,2055
1,0.0955,-1.6943,-0.0869,0.3709,1.6366,1.5041,1965
1,-0.3633,-1.4563,0.0879,0.2545,0.9148,1.803,2181
1,-0.584,-2.0,0.0474,0.5858,0.0822,2.4939,2067
1,-0.7703,-1.7998,0.2554,1.0007,0.2502,1.7945,1887
1,-1.0461,-1.2078,0.1504,1.3659,1.7049,2.2818,2019
1,-0.7092,-1.3005,0.0852,1.2255,1.9108,2.3503,1983
1,-0.8313,-1.2266,0.1208,0.9688,1.3087,0.6236,1900
1,-1.3601,-1.8506,-0.4934,0.2693,0.4954,-0.2575,1921
1,-0.9846,-1.1555,-0.4124,0.063,-1.1511,-1.6319,1983
1,-1.8643,-1.8367,0.4854,-0.0176,-0.4542,-2.2573,2080
1,-1.5425,-2.0,1.9999,4.3634,-4.3635,-4.3635,2478
1,-0.2009,-2.0,-1.021,-1.8567,0.4562,-4.3057,2012
1,1.9999,-1.2161,1.2004,-1.6123,-0.9646,-4.3635,1970
1,-2.0,-2.0,1.9999,4.2683,3.8435,-4.3635,2092
1,-2.0,-0.4954,1.1194,-4.3635,1.3659,-1.1531,1948
1,1.9999,-2.0,-2.0,-1.5834,-4.3635,-0.807,2000
2,1.9999,-0.4568,-1.699,-0.1955,-0.5397,-1.0042,1974
2,0.8135,-1.4583,-1.0347,0.4092,0.3171,-3.4091,2229
2,-0.8997,1.2134,0.0603,0.0108,-4.3635,-4.2825,1963
2,-1.446,1.6343,0.3599,-1.0993,-4.3635,-0.8629,1669
2,-2.0,0.521,-0.2063,-1.1941,-2.2017,0.8255,1582
2,-0.1738,0.3269,-0.5811,-1.2516,0.2337,-1.7326,1827
2,-0.0535,-0.1079,-0.8347,-1.2532,0.5588,-2.3491,2632
2,0.1213,0.4146,-0.3838,-1.1776,1.0278,-2.1069,2013
2,0.3816,0.4683,-0.3608,-0.9375,1.5787,-1.2589,1998
2,0.1533,0.1912,-0.3879,-0.1847,1.0978,-0.9311,2048
2,0.2461,-0.1431,-0.0898,-0.1015,0.5916,-0.5279,2018
2,0.5525,-0.468,-0.1604,-0.3209,-0.0956,-0.4059,1909
2,1.291,-0.6296,-0.4021,-0.3634,-0.8966,-0.5472,2076
2,1.9999,-0.5806,-0.3196,-0.155,-1.9972,-0.3049,2057
2,1.6682,-0.3872,0.1409,-0.1397,-2.7209,0.4133,2006
2,0.7346,-0.4229,0.0649,-0.0699,-4.0715,0.7822,2016
2,0.158,-0.6509,-0.2493,-0.1409,-4.3635,0.3835,2028
2,-0.6079,-0.676,-0.4468,-0.188,-4.1401,0.4573,1977
2,-0.6067,-0.2578,-0.594,-0.184,-3.2704,0.9855,2041
2,-1.1089,-1.1343,-1.3447,0.2682,-3.6649,2.6643,1989
2,-2.0,-0.6707,-1.7498,1.0436,-3.1335,1.0084,1863
2,1.4016,-1.157,0.3555,2.8205,1.1151,2.6882,2130
2,-0.7771,-2.0,1.8672,1.3608,4.3634,0.7424,1808
2,-1.9546,-2.0,-1.4231,0.8424,-1.2864,1.4241,1901
2,-2.0,-1.3506,1.9999,0.7281,1.6717,2.1687,2212
2,1.8569,-2.0,1.9873,-1.0178,3.0741,-0.7835,2419
2,1.7087,-2.0,1.9999,-0.1337,-0.2007,-3.2665,2047
2,1.9999,-1.6387,0.7246,0.7933,-0.3256,-1.3748,2047
2,0.5627,0.178,0.0129,0.4895,0.3979,1.6081,1905
2,-1.0972,-0.5891,-0.9087,-0.0431,-0.9305,1.0788,1951
2,-0.4382,-0.9819,-0.9045,0.1483,1.1555,0.0607,2220
2,-0.1584,-0.8105,-0.8042,0.1842,0.6088,0.8753,1874
2,-0.0244,-0.738,-0.7656,0.2618,0.8084,1.4957,2080
2,-0.1812,-0.8022,-0.1667,0.0518,0.7256,0.2938,1503
2,0.0112,-0.7488,0.2568,0.0875,1.3167,-0.5159,2172
2,0.1865,-1.3191,0.3979,0.0466,1.4914,-0.5263,2167
2,0.4849,-1.76,0.241,0.2453,0.9505,0.1246,2038
2,0.3418,-1.261,0.1035,0.3959,0.0244,0.5223,2195
2,-0.3311,-0.7649,0.1804,0.1742,0.0229,0.5339,1952
2,-0.6274,-1.0286,-0.0896,0.0362,0.3599,0.2886,2137
2,-0.3772,-1.1221,-0.1052,0.1711,0.2872,0.0381,1931
2,0.1943,-0.9319,-0.1643,0.2233,0.2872,0.3184,1993
2,0.2891,-0.8506,-0.1179,0.1943,0.2149,0.3306,2065
2,0.313,-0.886,0.0732,0.0782,0.0602,0.2494,2084
2,0.3047,-1.0381,0.1704,0.0369,0.0385,0.2739,2040
2,0.1826,-1.1045,0.1724,-0.0262,0.0605,0.253,2174
2,-0.0847,-1.1099,0.0745,-0.0597,0.1109,0.2699,2024
2,-0.3162,-1.1208,0.0505,-0.0586,0.2473,0.1943,2086
2,-0.1702,-1.1025,0.0002,-0.0565,0.3734,0.1683,1881
2,0.0017,-0.9971,0.0193,-0.0398,0.4434,0.0949,1984
2,0.0554,-0.9763,0.0205,-0.089,0.3007,0.0775,1931
2,-0.0327,-0.936,0.0583,-0.0945,0.3697,-0.008,2007
2,0.0798,-0.958,-0.0237,-0.0806,0.3978,0.0413,1958
2,0.1848,-1.0457,-0.0535,-0.0792,0.1932,0.0281,1686
2,0.0166,-1.0876,-0.0664,-0.0281,0.1007,-0.0121,2011
2,-0.1082,-1.1021,-0.0352,-0.0138,0.1455,0.008,2053
2,-0.1292,-1.1187,-0.0137,-0.0009,0.3549,-0.0486,2050
2,-0.1113,-1.0752,-0.0491,0.0774,0.4139,-0.0675,1969
2,-0.1577,-1.0994,-0.0227,0.1499,0.3585,-0.1734,1962
2,-0.0403,-0.9836,-0.0007,0.1433,0.2484,-0.2547,2001
2,-0.2136,-1.0281,0.0925,-0.1155,0.0991,-0.1342,1996
2,-0.0679,-1.0671,-0.0789,-0.1116,0.1649,-0.0204,2058
2,0.2578,-0.9771,0.1782,-0.1397,0.3112,-0.0305,2083
2,0.647,-0.9563,0.1394,-0.1441,0.1678,-0.0305,2135
2,0.6204,-1.0161,0.2,-0.0876,-0.2895,-0.0108,2011
2,0.2881,-1.0803,0.1399,-0.0915,-0.6871,0.0655,2092
2,0.0613,-1.2295,-0.0562,-0.0489,-0.6552,0.176,1916
2,-0.2419,-1.1995,0.0298,0.02,0.6791,0.1899,1918
2,-0.3379,-0.8982,-0.1304,0.0891,0.3816,0.1217,1886
2,0.1794,-0.8647,-0.1667,0.1108,0.3852,0.1077,1865
2,0.3362,-0.9705,-0.1963,0.051,0.3049,-0.0055,2063
2,0.3,-1.0193,-0.0549,0.0169,0.1312,0.243,2146
2,-0.0757,-1.0017,-0.1194,-0.0712,0.6851,0.3795,2251
2,-0.0557,-1.1128,-0.1179,0.0839,0.4263,0.2721,2012
2,0.2581,-1.1145,0.0618,0.1703,0.3183,0.2639,2035
2,0.0906,-0.8408,0.1318,0.0699,0.601,0.2533,1958
2,0.1763,-0.7476,-0.0554,0.092,0.5835,0.3456,1910
2,0.3081,-0.8013,-0.2119,0.185,0.3257,0.118,1919
2,0.1448,-0.8826,-0.0242,0.1807,0.061,0.1802,1981
2,-0.145,-1.0083,-0.1443,0.0055,-0.1928,0.2108,2028
2,-0.2954,-1.0757,-0.2004,0.0716,0.0754,0.1487,2135
2,-0.4673,-1.1736,-0.0027,0.1497,-0.0668,0.0131,1943
2,-0.4631,-1.1543,0.2441,0.0591,0.094,-0.0667,2016
2,-0.0901,-0.9829,0.3828,-0.0324,0.136,-0.0289,1989
2,0.2952,-0.8926,0.2839,-0.0265,-0.1157,-0.0084,2073
2,0.3049,-0.8572,0.2856,0.031,-0.5641,0.1699,1918
2,0.1836,-0.9028,0.1345,-0.075,-1.0741,0.2658,2125
2,-0.2461,-1.0044,-0.1033,-0.0028,-1.0769,0.0411,1977
2,-0.771,-1.0662,0.1599,-0.2075,-0.9794,-0.5982,2000
2,-0.8601,-1.0864,-0.0742,-0.1724,-0.3812,-0.5434,1886
2,-0.124,-0.9517,-0.2314,-0.0337,-0.4992,-0.3195,2009
2,0.5205,-0.8113,-0.4487,0.2458,-0.4795,-0.1984,2283
2,0.7688,-0.4719,-0.4397,0.5402,-0.9063,-0.2293,1935
2,1.425,-0.4783,-0.417,0.6054,-1.6498,0.084,2040
2,1.4341,-0.8716,-0.4412,0.7464,-2.4024,0.3422,2125
2,0.8394,-1.1963,-0.3857,1.0349,-2.3422,0.5947,1952
2,0.4316,-1.2932,-0.2778,1.1611,-1.6612,0.8851,1947
2,0.0837,-1.4861,-0.0945,1.2798,-0.9244,1.0476,2411
2,-2.0,-1.4758,0.5278,-0.8676,2.1391,-2.1459,1517
3,1.3091,-1.1702,0.2979,1.1632,1.9881,0.4722,2162
3,0.6497,-0.7007,1.1321,0.2184,2.4666,0.6709,2256
3,1.4092,-0.9629,0.7644,0.212,3.2443,1.4054,716
3,1.5867,-0.8398,0.9844,0.5956,0.9487,2.1168,2288
3,0.3845,-2.0,0.158,1.0015,0.3631,2.0704,1945
3,1.0823,-0.9307,-0.3093,1.1573,0.1032,2.341,2278
3,-0.0334,-1.8506,-1.0164,0.9484,-1.7777,3.2329,2470
3,-1.2622,-2.0,-2.0,1.1784,0.0182,2.276,2468
3,-2.0,-0.8137,-0.2493,1.0389,-2.6866,3.9695,1739
3,-2.0,-0.8408,1.0686,0.704,-2.8104,2.4113,1896
3,-2.0,-2.0,-0.7126,0.3761,-0.3872,-1.1611,1667
3,1.9999,-0.5867,0.1885,-1.3198,-2.1379,-0.5088,1862
3,-2.0,0.1626,1.9999,0.3771,-4.3635,-2.0422,1972
3,-2.0,1.9999,1.9999,3.4172,4.3634,-4.3635,2281
3,-2.0,-2.0,1.3279,-1.1521,4.3634,0.2043,1868
3,1.9999,-2.0,-2.0,-2.32,-4.3635,-0.9955,2293
3,1.9999,-1.3123,1.9999,1.0905,1.3663,-2.4199,2015
3,-1.9509,-0.8972,0.595,-0.7086,3.3005,-4.3635,1794
3,-1.2185,1.1309,-0.0571,-0.1859,-3.4244,-3.7579,1966
3,0.5935,1.9999,-0.4321,-0.2758,-2.8114,-1.5314,2076
3,0.2356,-0.3604,-1.1313,0.0427,-0.1772,-0.2004,2060
3,1.2368,-0.8484,0.1707,-1.5419,-2.3184,-2.3439,2026
3,0.5085,-0.6565,-0.8647,-1.5893,-1.209,-4.2856,1965
3,0.3313,0.3457,-1.3599,-0.8738,-1.13,-1.6006,1687
3,-0.814,0.762,0.2683,-0.6532,-0.7992,-0.8377,2027
3,-0.8638,0.4114,0.1577,-0.9411,-1.9881,0.1107,1888
3,-0.2634,-0.0894,-0.2273,-1.0208,-0.9712,-0.4615,1919
3,0.7507,-0.3516,-0.5496,-1.3438,0.2116,-0.2246,1927
3,0.7544,-0.3538,-0.7444,-1.2106,0.2236,-0.3017,2135
3,0.7434,-0.3718,-0.5334,-0.916,-0.44,-0.3739,1904
3,0.4915,-0.3125,-0.2329,-0.5813,-0.1031,-0.1714,2079
3,0.2869,-0.4312,-0.1211,-0.6297,-0.3454,0.2907,2030
3,0.408,-0.6799,-0.2461,-0.3799,-0.7833,0.4231,2058
3,0.7795,-0.9546,-0.5171,-0.0941,-0.9993,0.5239,2060
3,0.6802,-1.2153,-0.3398,0.2151,-1.048,0.94,2045
3,1.9999,-1.5833,-0.4316,0.9266,0.7938,2.3137,2048
3,-1.4673,-1.6204,0.7317,-1.1081,4.3634,1.2709,1995
3,0.509,-1.9575,-0.3418,-0.5284,-2.1331,3.3457,1563
3,0.5059,-1.5732,1.0933,1.5075,-0.6396,2.2091,2139
3,-0.832,-2.0,1.9999,-1.4249,-3.1792,2.4456,2175
3,-2.0,-2.0,1.7402,-0.5721,0.2565,1.3651,2331
3,0.7668,-0.5479,1.7141,0.5056,-0.4959,-3.2194,2093
3,1.9999,-0.1824,0.3271,-0.3153,-3.0621,-2.9167,1961
3,1.9999,0.1045,-0.7466,-0.2514,-2.1265,-0.6528,2015
3,0.8237,-0.7612,-0.6548,-0.2979,-1.9387,1.1282,2003
3,0.7598,-1.1143,-1.0737,-0.2195,0.7745,1.8084,2002
3,0.2861,-1.0005,-0.6489,-0.0574,1.8551,2.8657,1948
3,-0.2612,-0.7305,-0.4529,0.0678,0.1192,2.6778,1983
3,-0.1245,-0.8943,0.0166,0.3267,0.0812,1.4541,2004
3,-0.0876,-1.01,0.062,0.5986,0.0843,0.3542,2026
3,-0.6526,-1.2151,-0.0959,0.4509,-0.1147,0.2505,2033
3,-0.6045,-1.3369,-0.0503,0.3302,0.0161,-0.018,2004
3,0.0554,-1.1616,-0.0029,0.3441,0.3255,-0.0501,2038
3,0.3159,-0.9297,0.1277,0.4518,0.4268,0.1281,1993
3,0.2183,-0.9604,0.2373,0.4715,0.4864,0.3601,1992
3,0.0371,-1.0474,0.1675,0.2531,0.263,0.3416,1995
3,-0.1355,-0.988,0.0244,0.0003,-0.1695,0.2388,2044
3,-0.1477,-0.9233,-0.1504,-0.0535,-0.8092,0.4026,1989
3,-0.2175,-0.9734,-0.2473,0.0489,-0.8677,0.491,2011
3,-0.1182,-1.0159,-0.2847,0.1701,-0.5738,0.4819,1994
3,0.1416,-1.0278,-0.124,0.3678,-0.196,0.3365,1987
3,0.1707,-1.1384,0.2214,0.4345,0.8403,0.1731,2013
3,0.0271,-1.0898,0.3,0.1577,1.5177,0.235,1985
3,-0.0007,-1.0566,0.1609,0.0956,1.5324,0.2578,2024
3,-0.0671,-1.0479,0.1663,0.0834,1.1877,0.0937,1989
3,-0.0696,-1.0315,0.1616,-0.0435,0.5825,0.1097,2018
3,-0.2056,-1.0195,0.126,-0.2151,-0.3855,0.1581,1989
3,-0.1895,-0.9978,-0.1902,-0.1398,-0.4979,0.3147,2016
3,-0.0586,-0.9944,-0.2332,0.0217,-0.0811,0.2896,2016
3,-0.1619,-1.0437,-0.1414,0.0846,0.2807,0.1983,2045
3,-0.2695,-1.1021,-0.2139,0.1044,0.869,0.0944,2000
3,0.063,-1.0042,-0.0051,0.2499,0.8331,-0.0919,2228
3,-0.0547,-1.0137,0.0994,0.2464,0.8722,-0.1116,2036
3,-0.0171,-1.0901,0.3713,0.1256,1.1368,-0.0614,1978
3,0.0544,-1.084,0.1052,0.0643,1.0899,-0.0446,2059
3,0.2102,-1.0493,0.1375,0.0727,0.9867,-0.0269,2068
3,0.1074,-0.9985,0.1729,-0.0011,0.6211,-0.1083,1966
3,-0.1987,-0.967,0.0171,0.0029,0.3786,-0.068,2094
3,-0.1074,-1.0181,0.0142,-0.0856,0.4743,-0.0418,2016
3,0.1489,-1.022,-0.0164,-0.1344,0.5365,0.0298,2204
3,0.1953,-0.9963,-0.0447,-0.0619,0.6192,0.0237,2003
3,0.1172,-1.054,0.052,-0.0859,0.7588,0.0115,1996
3,0.0264,-1.0657,-0.0029,-0.0835,0.6457,-0.0579,1887
3,-0.0947,-1.1143,0.0947,-0.0839,0.5432,-0.2167,2023
3,-0.1504,-1.0647,0.1614,-0.0959,0.1495,-0.2662,2053
3,0.1206,-1.1023,0.0801,-0.185,0.2297,0.0,2021
3,0.1868,-1.0342,0.0566,-0.1462,0.3293,0.1891,2060
3,0.2034,-0.9338,-0.0188,-0.1284,0.4295,0.1875,1972
3,0.2429,-0.9187,0.0002,-0.0908,0.5834,0.2394,2021
3,0.1484,-1.02,0.0374,-0.1019,0.4774,0.1727,1997
3,-0.0945,-1.1067,0.1304,-0.089,0.1746,0.1065,2032
3,-0.3025,-1.0737,0.168,-0.1558,-0.0222,0.1441,2152
3,-0.1418,-1.0693,0.1392,-0.2306,0.1466,0.1904,1900
3,-0.1309,-1.0635,0.0645,-0.2685,0.1071,0.0458,2027
3,-0.0967,-1.0129,-0.0576,-0.3081,0.1569,0.0461,2055
3,0.0024,-0.9211,-0.0574,-0.2694,0.3848,0.0549,1986
3,-0.0632,-0.9272,0.0935,-0.2254,0.4263,-0.0984,1974
3,-0.1904,-0.8762,0.2051,-0.2434,0.5,-0.298,2009
3,0.0291,-0.8525,0.2036,-0.2353,0.4614,-0.2422,1919
3,0.0432,-0.8228,0.1301,-0.3489,0.2526,-0.2962,2053
3,0.3508,-0.897,-0.176,-0.3963,0.0682,-0.225,2012
3,0.0486,-1.0781,-0.1643,-0.4018,-0.2123,-0.3377,1858
3,-0.3018,-1.0862,-0.0117,-0.4373,-0.3048,-0.3658,1852
3,-0.6914,-1.2166,0.1897,-0.437,-0.143,-0.4709,2108
3,-0.4832,-1.1038,0.0374,-0.3248,0.092,-0.5926,2025
4,0.3672,-0.7998,-0.2505,-0.2089,0.2585,-0.5275,2020
4,0.5845,-0.7073,-0.3552,-0.1332,-0.1065,-0.4817,2005
4,0.4819,-0.7849,-0.4421,-0.0686,-0.6063,-0.3462,2003
4,0.1882,-0.9451,-0.3486,0.0224,-0.853,-0.2617,2022
4,-0.2292,-1.1191,-0.2834,0.0798,-0.8183,-0.2904,2232
4,0.1624,-1.1777,-0.3843,0.3575,-0.4769,-0.1348,2323
4,0.2681,-1.0244,-0.4717,0.8404,-0.2276,-0.1577,2177
4,0.7415,-0.8694,-0.5056,1.19,-0.7951,-0.2414,2034
4,1.0974,-0.7051,-0.3284,1.3125,-1.3251,0.2238,2390
4,1.1682,-0.7461,-0.2344,1.3928,-1.4909,0.6633,1980
4,0.8928,-1.1628,-0.2119,1.4137,-1.0878,1.0713,1824
4,0.5889,-1.3721,-0.1594,1.5973,0.0177,1.3989,1920
4,-0.4788,-1.3535,0.5508,1.2691,1.5896,1.1121,1902
4,1.9999,-0.8699,-1.2368,1.3095,3.3923,1.4733,1889
4,1.3513,-0.3042,0.3723,0.8415,4.0532,1.1572,1250
4,1.3142,-0.8723,0.4148,1.2904,2.9508,2.2751,2645
4,1.9999,-2.0,1.5293,2.0897,-0.4522,3.3119,1729
4,1.9999,-2.0,1.6587,3.6492,-4.3635,4.2853,1308
4,-0.8555,0.6611,0.981,2.7743,-2.2719,3.3158,2455
4,-1.3652,-2.0,-1.6707,0.5509,-1.5229,4.237,2535
4,-1.1042,-2.0,-0.5356,-1.8499,-4.3635,4.3634,1492
4,1.9999,-2.0,-0.6135,-4.3635,2.7654,-4.3635,2897
4,-2.0,-2.0,1.9999,-0.3486,-2.4935,-2.3724,1877
4,-2.0,0.4893,1.9999,4.3634,-4.3635,-4.3635,2112
4,-2.0,0.0623,1.5403,-3.8653,4.3634,-1.4952,2139
4,0.5078,-1.6284,-0.0142,-1.8337,-0.0839,-0.9757,1961
4,1.9999,-1.9304,-2.0,-0.4061,1.5181,-2.5711,2184
4,0.3938,1.4529,1.9999,-0.6771,4.3634,-4.3635,1852
4,1.4143,-0.8259,-0.3066,-1.0444,4.3634,-4.3635,2034
4,-1.3076,1.9729,0.3789,1.9511,2.6916,-4.3635,1626
4,0.302,1.5752,0.3262,0.4573,-2.7573,0.0252,2107
4,0.4866,-1.0469,-0.7761,-0.7969,-1.0714,-0.4607,2219
4,1.9999,-1.9146,-0.4045,-1.5749,-0.9146,-4.3635,2405
4,1.9999,-0.5725,-2.0,-1.1316,-2.8147,-1.9963,2084
4,0.4004,-0.9871,-0.3909,-0.7597,-4.3635,-0.4149,2292
4,-2.0,-0.6382,0.7148,-0.7915,-2.8493,-2.9556,1933
4,-1.6672,0.5312,-0.4656,-0.9297,-2.8068,-1.2573,1782
4,-0.5562,0.2498,-0.2598,-1.3608,-0.971,-0.1818,1523
4,0.103,-0.4624,-0.8076,-1.1456,-0.2397,-0.0192,2171
4,-0.0549,-0.5703,-0.3174,-0.8698,0.5735,-1.0322,2016
4,0.3101,-0.4124,-0.25,-0.9321,1.0598,-0.9669,1968
4,0.6135,-0.386,-0.3818,-0.8817,0.7353,-0.7777,1993
4,0.8108,-0.3103,-0.0854,-0.5943,0.2928,-0.765,2055
4,1.4297,-0.2971,-0.2654,-0.509,-0.8829,-0.3615,2016
4,1.9999,-0.373,-0.2788,-0.363,-2.9873,0.8476,2046
4,0.521,-0.8386,0.1248,-0.8401,-1.6708,0.1812,1949
4,-1.1958,-0.8411,0.0593,-0.8084,-2.3439,-0.6002,1707
4,-1.1584,-1.1785,-0.2471,-1.022,-1.3025,0.7922,1502
4,-0.8105,-1.2146,-0.5417,-1.5322,-0.973,1.0307,2029
4,-0.1904,-1.0059,-0.417,-1.292,0.1214,0.5219,2149
4,-0.1018,-1.0027,-0.2336,-0.7492,0.5366,-0.087,2082
4,-0.3428,-2.0,1.2402,-0.3718,2.3202,0.331,2031
4,-2.0,-0.6245,1.3879,0.7273,3.697,2.241,2043
4,-1.458,0.7197,0.707,-0.0671,0.1763,0.8086,1864
4,0.3965,-2.0,-1.9192,1.0178,-1.5021,4.3634,2091
4,1.7798,-2.0,-1.0835,0.6006,1.1817,0.4629,2410
4,0.793,-1.532,0.5645,1.6036,0.8793,0.5109,2252
4,0.7612,-0.8665,0.7644,1.0246,-0.5711,0.174,1964
4,1.6243,-1.7507,0.865,0.0531,-1.9421,2.2108,1979
4,0.5576,-1.7344,1.9999,0.9539,-2.9608,2.2449,1782
4,-1.6106,-2.0,1.9999,0.6922,-1.4804,0.6052,1977
4,-2.0,-2.0,1.7583,-0.537,-1.0091,0.351,2004
4,-0.7456,-0.9324,0.3433,-0.7735,-1.7969,-0.6897,2132
4,1.2126,-0.2996,0.1519,-0.7304,-0.859,-0.7143,1780
4,1.6091,-0.8503,0.5337,-0.6397,-0.8473,0.3043,2031
4,0.9751,-0.9338,-0.3398,-0.7427,-0.7324,1.1123,2095
4,-0.0579,-1.0225,-1.1353,-0.4868,-0.3394,1.1825,2053
4,-0.1135,-0.8291,-0.8169,-0.3894,0.11,0.917,1990
4,0.0637,-0.8662,-0.7432,-0.1591,0.1852,1.0757,1972
4,-0.0132,-0.9209,-0.5183,0.2068,0.6935,0.6879,1983
4,0.0518,-0.9741,-0.2493,0.2903,0.7898,0.6161,1964
4,0.3147,-0.9558,-0.0193,0.2575,0.6834,0.6193,2002
4,0.219,-1.0146,-0.0024,0.1681,0.3505,0.5361,2004
4,-0.019,-1.0122,0.1584,0.1023,-0.0539,0.3767,2013
4,0.0984,-1.0288,0.1528,0.0597,-0.1432,0.1345,2021
4,0.0684,-0.9897,0.0022,-0.0372,-0.2449,-0.1718,2018
4,-0.0637,-1.0957,-0.0898,0.0019,-0.0703,-0.0904,2047
4,-0.3621,-1.2332,-0.0127,0.1537,0.4322,0.2534,2030
4,-0.4685,-1.126,0.0281,0.2535,0.7351,0.5331,2091
4,0.0547,-0.9824,-0.197,0.3488,0.9116,0.4994,2072
4,0.488,-0.9739,-0.0083,0.3445,0.9636,0.4513,2064
4,0.53,-1.0378,-0.1316,0.2943,0.6662,0.6127,2028
4,0.4258,-1.0254,-0.0344,0.3195,0.4822,0.8688,2003
4,0.1345,-0.9934,-0.0134,0.3247,0.6693,0.8316,2085
4,-0.2012,-1.0498,0.0881,0.3003,0.9629,0.7702,2075
4,-0.1946,-1.0186,0.0994,0.2011,0.7488,0.6871,2018
4,-0.022,-1.0093,0.1284,0.1451,0.8397,0.7405,2002
4,-0.0378,-1.0842,0.1243,-0.0317,1.0069,0.6172,1911
4,-0.1133,-1.0115,-0.2747,-0.0004,0.6413,0.1324,1979
4,-0.3933,-0.9753,-0.0164,-0.0996,0.9746,0.1575,1832
4,-0.1558,-1.0396,0.0952,-0.1108,0.6596,0.1214,2075
4,0.1614,-0.999,0.0168,-0.0787,0.4935,0.225,1967
4,0.0142,-1.05,0.1289,-0.0274,0.4256,0.1866,1991
4,-0.0981,-1.0635,0.1672,-0.015,0.6042,0.1209,2077
4,-0.1721,-1.0537,0.1709,-0.0402,0.477,0.1755,2137
4,-0.2114,-1.0261,0.1465,-0.0977,0.3169,0.1264,1986
4,0.0063,-1.0361,0.1172,-0.1253,0.3064,0.0562,1963
4,-0.0076,-1.0396,0.0146,-0.1396,0.3424,0.0767,2018
4,-0.217,-1.0408,0.134,-0.1511,0.1429,0.017,1978
4,-0.0952,-1.0483,0.041,-0.1803,0.0547,-0.0443,2005
4,0.0039,-1.0288,-0.0254,-0.1739,0.0384,-0.0643,2062
4,-0.0791,-1.0259,0.061,-0.1581,-0.0699,-0.1097,2011
5,-0.0269,-1.0239,0.0562,-0.193,-0.1443,-0.1053,1964
5,0.2256,-0.9985,-0.0332,-0.2578,-0.0739,-0.0145,2043
5,0.1467,-1.0217,-0.011,-0.2175,-0.0357,0.0075,1962
5,-0.0237,-1.0859,0.0222,-0.186,0.0111,0.1521,1974
5,-0.0325,-1.0972,0.0222,-0.1704,0.0075,0.3155,2039
5,0.0466,-1.1094,0.0549,-0.149,0.0899,0.3951,1847
5,-0.137,-1.1028,0.1299,-0.1344,0.0012,0.3571,2051
5,0.001,-0.9385,0.1226,-0.2001,0.004,0.3528,2043
5,0.3733,-0.8979,-0.0498,-0.2224,0.059,0.3528,2037
5,0.1389,-0.9854,-0.0845,-0.1491,-0.0049,0.1517,2066
5,-0.0913,-0.9348,-0.1243,-0.0639,-0.0643,0.0574,2088
5,-0.2593,-1.0193,0.0278,0.0072,-0.1711,0.1083,2071
5,-0.2947,-0.979,-0.0081,-0.0025,-0.0868,0.0433,2010
5,-0.3008,-1.0042,0.1035,-0.1061,0.2673,-0.3055,1878
5,-0.4041,-0.8879,0.1956,-0.1831,0.3539,-0.5566,2015
5,-0.1924,-0.8972,0.0745,-0.3465,0.6866,-0.6604,2039
5,0.2405,-1.0234,-0.0969,-0.2919,0.8865,-0.2954,1998
5,0.0103,-0.856,-0.1907,-0.0707,0.2344,-0.5028,2070
5,0.3376,-0.708,-0.2554,0.0389,-0.0064,-0.2129,2184
5,0.3525,-0.8157,-0.1377,0.0502,-0.2461,-0.2147,1952
5,0.2847,-1.1187,-0.2488,0.1168,-0.4377,-0.2778,1998
5,0.2468,-1.4377,-0.4087,0.438,-0.6169,0.1967,1858
5,0.0518,-1.2837,-0.5774,0.9978,-0.1908,0.165,1722
5,0.3838,-1.0779,-0.5908,1.4687,0.4344,0.0447,2068
5,0.75,-0.9773,-0.5359,1.8583,0.9003,0.3265,1819
5,0.7617,-0.6562,-0.7749,1.3017,1.0033,-0.6489,1772
5,1.6609,-0.7866,-0.062,1.3631,1.9297,0.7393,2126
5,1.5786,-0.6123,0.0618,0.9515,3.0609,1.0399,1817
5,1.6833,-0.4348,0.1099,0.9718,2.2084,2.0827,1549
5,1.5173,-2.0,0.2056,0.7793,-0.0828,2.7449,1420
5,0.5054,-1.8252,1.0715,1.6174,-0.5373,2.7962,2219
5,1.1646,-2.0,0.3525,1.6294,-1.239,3.8001,2704
5,-2.0,-2.0,-1.0549,1.5969,-1.1896,4.3634,2559
5,-2.0,-0.3635,-0.0342,2.2039,-0.1366,4.3634,1734
5,-2.0,-1.739,1.6089,0.7248,0.177,4.1306,2146
5,-2.0,-0.3914,0.4954,0.0957,-0.858,1.4543,2234
5,1.9999,0.6377,-1.335,-4.3635,4.3634,-4.3635,2696
5,-2.0,1.9999,-0.2351,-1.2886,-4.3635,-2.6675,1919
5,-1.751,-0.114,1.9999,-0.9642,-4.3635,-4.1724,1954
5,1.9436,-1.6338,1.7104,-0.3871,4.3634,-4.3635,2015
5,-2.0,-2.0,1.1035,-1.9984,4.3634,-2.4269,1743
5,1.9999,0.6223,-2.0,2.1876,-4.3635,-4.3635,1905
5,-1.96,-1.1934,1.2119,-0.4309,4.3634,-4.3635,1714
5,-0.0974,0.0991,-0.9065,-1.7345,4.3634,-3.1148,2001
5,1.9999,0.0957,-0.7749,-0.0967,4.3634,-4.3635,1972
5,-0.2681,-0.2673,0.2854,0.7419,2.2569,-4.3635,1921
5,1.9999,0.2581,1.1177,1.2256,-3.5978,-2.6928,2028
5,1.8525,0.2822,-0.0315,-0.72,-1.7658,-2.1178,2182
5,0.6914,-1.3845,-0.7759,-1.1496,-1.8596,-3.5954,2399
5,-0.0979,-0.6672,-0.094,-0.6015,-1.1243,-2.5039,2280
5,0.1396,0.2361,-0.1907,-1.0652,0.0668,-2.9283,2178
5,-0.7649,-0.3691,0.3206,-0.6131,-0.9184,-1.6106,2261
5,0.179,-0.0298,0.3115,-1.4587,-0.2437,-0.7466,1928
5,-0.3064,-0.5505,-0.1965,-1.6141,-0.5946,-0.3575,2057
5,0.1687,-0.6382,-0.4539,-1.6768,-1.0579,-0.0177,1931
5,-0.2175,-1.0244,-0.3433,-1.4612,-0.6119,-0.5904,1991
5,0.3853,-1.0034,-0.4927,-1.085,-0.5297,0.0826,1896
5,0.4668,-1.0171,-0.4895,-1.0054,-1.4002,-0.3714,1841
5,0.3303,-0.9224,-0.4895,-0.8825,-2.3454,-0.5269,1963
5,-0.55,-1.5828,-0.2881,-1.3367,-1.5103,-0.0993,1939
5,-1.4602,-0.5945,-0.6711,-0.6252,-0.6564,-1.0773,1869
5,-0.3713,-0.7979,0.0393,-1.1982,-0.0997,-0.6066,1737
5,0.3335,-0.6829,0.2205,-0.978,-0.3547,0.2442,1308
5,-0.0112,-0.0037,-0.3667,-0.8569,-0.7604,-0.1462,1431
5,0.1318,0.3508,-0.1338,-0.4924,-0.2111,-0.5994,2207
5,-0.0251,0.845,0.2217,-0.269,-0.4801,-0.6726,2159
5,0.7744,1.0417,-0.7288,0.4124,-1.8764,0.0899,1922
5,0.5,-0.3311,-0.5461,0.2894,-3.0214,1.0725,2166
5,-0.6765,-2.0,-1.1785,-1.1856,1.9968,0.365,2218
5,1.9999,-2.0,-0.0732,0.8232,-0.6723,-0.0651,2078
5,1.0735,-2.0,-1.0173,-0.0609,-2.3904,-1.0142,1984
5,-2.0,-1.1516,0.9905,1.543,-3.6575,2.8671,1958
5,-1.8826,-1.5935,-0.011,0.3538,-2.0353,4.3198,2082
5,-0.3743,-2.0,1.229,0.8677,1.7596,2.3318,2054
5,-1.1196,-2.0,0.8909,0.9986,0.7347,2.0872,1889
5,0.0752,-1.1414,1.4426,0.2956,0.3534,-0.4669,2283
5,1.9999,-0.7786,1.4021,-0.2519,0.1542,-0.8468,1926
5,1.4688,-2.0,1.0786,-0.3739,-0.5014,0.9331,2046
5,-0.6682,-2.0,0.5229,-0.0461,-0.3546,0.5646,1982
5,-0.6907,-1.0662,-0.0859,-0.1581,-0.581,-0.3004,1880
5,-0.4883,-0.877,-0.5769,-0.4445,0.7797,0.4007,1773
5,-0.6196,-1.1401,-1.0691,-0.2991,0.1991,0.0854,2189
5,0.1562,-1.0232,-0.8889,-0.0461,0.6356,0.3545,2276
5,0.5361,-0.7566,-1.0137,0.0262,0.7437,0.4461,1978
5,0.4121,-0.6731,-0.4426,-0.0071,0.3782,0.4268,2088
5,0.4133,-0.7402,-0.2974,0.0854,0.7273,0.3697,1979
5,0.395,-0.8093,-0.2834,0.273,0.7216,0.4976,2052
5,0.4075,-0.9304,-0.0623,0.2312,0.5714,0.248,2124
5,0.4536,-0.9919,-0.0735,0.2064,0.3954,0.2566,2196
5,0.5002,-1.0952,-0.2683,0.3196,0.1314,0.5741,2112
5,0.2444,-1.1106,-0.2446,0.4458,0.0573,0.598,1760
5,-0.0098,-1.1702,-0.1035,0.6236,0.2555,0.7384,2108
5,0.0127,-1.1033,0.0105,0.6263,0.436,0.7132,2179
5,0.0684,-1.0183,0.0173,0.5288,0.5657,0.6472,2029
5,0.0686,-1.0645,0.0691,0.4919,0.6357,0.392,1943
5,-0.0774,-1.1812,0.1838,0.3464,0.7842,0.2786,2518
5,-0.1611,-1.1812,0.2371,0.2795,0.8748,0.3683,1942
5,-0.1992,-1.075,0.1082,0.1972,0.9628,0.4683,1903
5,0.0442,-0.9702,0.0432,0.1669,0.9451,0.5746,2145
5,0.3599,-0.8396,-0.1086,0.1202,0.7787,0.4807,1987
5,0.4792,-0.7126,-0.1855,0.1129,0.4433,0.5481,2084
5,0.3538,-0.7705,-0.2939,0.1475,0.1954,0.6036,1981
5,0.1609,-0.9443,-0.3638,0.2658,0.0747,0.5922,2030
6,0.0286,-0.8813,-0.3289,0.4452,0.2031,0.6524,2227
6,-0.0032,-0.7512,-0.0315,0.4802,0.3852,0.6084,1896
6,0.1536,-0.8223,-0.0574,0.4149,0.5308,0.6185,2304
6,0.2109,-0.9426,0.2131,0.3028,0.1201,0.6051,2184
6,0.0356,-1.1416,0.2991,0.1882,-0.1035,0.6516,2023
6,-0.0718,-1.2949,0.239,0.1341,-0.2123,0.6349,2015
6,-0.1104,-1.2295,0.2109,0.1196,-0.0707,0.6038,1973
6,-0.2427,-1.1787,0.0801,0.1238,0.1159,0.5145,1882
6,-0.0803,-1.0945,0.0164,0.202,0.3354,0.587,2169
6,0.1196,-0.9358,-0.009,0.2896,0.3413,0.4747,2204
6,0.1082,-0.9924,0.2427,0.1117,0.0766,0.4305,2085
6,-0.1152,-1.1633,0.0024,0.1393,-0.0093,0.5046,2108
6,-0.5276,-1.042,-0.0332,0.0077,0.7537,0.2318,1993
6,-0.2334,-1.0627,0.1882,0.0804,0.3057,0.2759,2033
6,0.0183,-1.0671,0.1123,-0.0804,0.3185,0.2276,2024
6,0.051,-1.0415,0.2212,-0.0988,0.0724,0.18,1994
6,0.1365,-0.9475,-0.0024,-0.1076,0.136,0.2258,2023
6,-0.0469,-0.9507,-0.1353,-0.1573,0.0142,0.2045,1850
6,-0.0835,-0.9534,-0.2041,-0.1571,0.082,0.22,2099
6,-0.0273,-0.9446,-0.2034,-0.1096,0.1414,0.2401,2168
6,-0.1001,-0.9958,0.0056,-0.0902,0.1097,0.2345,1849
6,-0.2544,-1.144,0.1589,-0.1194,0.0198,0.1882,2054
6,-0.3779,-1.1875,0.2654,-0.121,-0.134,-0.0397,2133
6,-0.3994,-1.0928,0.3181,-0.1277,-0.2904,-0.0101,2099
6,-0.0166,-1.0242,0.1533,-0.1305,-0.055,0.1186,2132
6,0.3953,-0.8079,-0.0754,-0.0706,-0.2173,-0.0575,2039
6,0.3123,-0.6323,-0.3406,0.0811,-0.3714,-0.1184,2073
6,0.1028,-0.665,-0.5652,0.245,-0.0469,-0.3614,2174
6,-0.6704,-0.6702,0.2407,0.0016,0.3093,-1.1347,1944
6,-0.4807,-0.9065,-0.1433,-0.3209,0.414,-0.1069,2131
6,-0.3037,-1.4329,0.106,-0.3175,0.4718,0.0065,2020
6,0.1816,-1.1858,-0.1663,-0.0216,0.0782,-0.232,2205
6,0.6677,-0.8411,-0.1736,0.0304,-0.261,-0.0996,1875
6,0.5186,-0.856,0.0159,0.1474,-0.8203,0.0021,2045
6,0.3245,-0.9268,-0.2524,0.289,-1.4434,0.2571,2014
6,0.7693,-1.2581,-0.6633,0.5855,-1.7891,0.6561,2339
6,0.0583,-1.4055,-0.8428,0.9539,-0.1412,0.6891,2170
6,-0.5613,-1.0847,-0.3875,0.9903,0.9195,0.1408,2172
6,0.4924,-1.0535,-0.6719,1.2669,1.7669,0.1607,1805
6,1.3145,-0.7529,-0.3533,1.1941,2.5561,0.4279,1994
6,1.1384,-0.5393,-0.0959,0.7754,3.1127,0.963,2307
6,1.1262,-0.3162,-0.0857,0.7325,2.6955,1.9008,1641
6,1.8892,-1.4893,0.2036,0.6802,0.2854,3.4897,2471
6,-0.4346,-2.0,0.8716,1.6082,0.9577,2.4529,1666
6,0.8306,-0.7676,0.3115,1.647,-0.4572,4.1543,1868
6,0.3999,-2.0,0.1775,2.504,-1.1792,3.7656,2282
6,-2.0,-0.907,-1.189,1.0725,0.4161,4.3634,1404
6,-0.1372,-2.0,-0.9563,-1.4647,-2.655,2.1065,2635
6,1.1355,-2.0,1.6272,-0.6702,-1.969,-4.3635,2308
6,-2.0,-2.0,1.9026,-1.9708,3.0152,-2.9019,2675
6,-2.0,1.9999,1.9999,1.4009,-4.3635,-1.2449,1803
6,-2.0,0.3584,1.9999,1.7547,4.3634,-3.6599,1929
6,-2.0,-2.0,-2.0,0.4213,4.3634,0.3558,1457
6,1.9999,-2.0,-2.0,0.0064,-3.8109,-0.3867,2144
6,-0.511,-1.3591,1.8594,-1.1893,4.3634,-4.3635,2049
6,1.9999,1.9999,-1.7703,-0.1052,4.3634,-4.3635,2181
6,1.9999,-2.0,-1.333,-0.9965,4.3634,-3.8115,1669
6,-1.0811,1.9999,1.8799,3.886,3.42,-4.3635,2290
6,-2.0,1.9999,1.9999,-0.5671,-4.3635,4.0008,1897
6,0.9287,-2.0,-2.0,-2.1711,1.8138,-0.8002,2346
6,1.9999,-2.0,-1.7278,-0.5219,4.3634,-4.3635,2135
6,0.7661,0.6294,-2.0,0.2883,-2.5642,-1.589,1901
6,-1.3391,-0.4678,1.063,-0.4284,-4.3635,-1.4889,2096
6,-0.7246,0.0127,0.5198,-0.9295,-2.5417,-0.1846,2113
6,-0.0684,-0.6787,-0.9404,-1.0849,0.1152,-1.7404,2215
6,1.0813,-0.7217,-0.9753,-0.9677,2.1691,-2.7719,2371
6,0.6785,-0.5642,-0.1633,-0.728,0.8325,-1.8528,2076
6,0.7986,-0.4504,0.0938,-0.979,-1.8421,-0.538,2057
6,-0.6206,-1.1421,0.1675,-0.7767,-2.4988,-0.7692,1976
6,-0.3096,-0.7502,-0.0139,-0.8809,-2.6117,-1.4639,2066
6,0.8154,-0.6335,-0.3247,-1.1382,-2.3162,-0.7807,1836
6,-0.3286,-0.8628,-0.2275,-0.8905,-2.0821,-0.7806,1971
6,-0.6641,-1.2292,0.2769,-0.7795,-1.7483,-0.1519,1333
6,-0.5723,-1.1399,0.1604,-0.3755,-1.7544,0.6625,1414
6,0.2297,-0.4922,-0.2634,0.1597,-2.6962,0.0969,2177
6,0.3223,-0.1079,-0.0549,0.6759,-3.6029,-1.4346,2054
6,0.8953,-0.0674,0.3713,0.4422,-3.1425,-1.6896,2088
6,1.6199,0.6562,0.4597,0.965,-4.3341,-1.2841,2155
6,0.2793,-0.0581,0.7378,1.5647,-3.2682,1.026,2069
6,-1.3513,0.1917,-0.7622,0.5105,-4.3635,0.1185,1990
6,-0.386,-1.2356,-0.8665,0.8787,-3.839,2.3475,2076
6,1.9087,-2.0,0.3113,1.5508,-2.7613,0.9847,1895
6,0.3906,-2.0,-1.3157,0.5344,-0.7412,0.4938,2182
6,-2.0,-1.7334,1.5864,2.5199,-1.8415,3.996,1947
6,-2.0,-1.0215,0.2332,1.177,1.9935,3.5143,2013
6,-0.9861,-1.7729,1.3801,0.6849,2.9894,1.9056,2229
6,1.9999,-2.0,1.5281,-0.7205,1.7206,-2.5614,2035
6,1.2603,-2.0,1.6558,-0.5131,0.344,-0.1409,2164
6,0.499,-2.0,0.7913,-0.4619,-0.875,1.2073,1896
6,0.4795,-0.9836,0.4268,-0.1932,-0.3975,-0.2344,2078
6,-0.3872,-0.5762,-0.4849,-0.2931,0.0969,0.4184,2054
6,0.3076,-0.7859,-0.9585,-0.3587,0.3215,0.4481,2027
6,0.4727,-0.8638,-1.4497,0.1302,0.286,1.0264,2088
6,-0.0012,-0.7129,-1.147,0.3172,0.6898,1.1339,2024
6,-0.2905,-0.6631,-0.7271,0.3967,1.0753,0.9949,1886
6,0.0371,-0.8169,-0.3567,0.3025,1.1336,0.8255,1980
6,0.3997,-0.9526,0.1135,0.3241,1.0283,0.4084,2057
6,0.4871,-1.1072,0.4104,0.1908,0.8887,0.2529,2378
6,0.3354,-1.3159,0.1545,0.2096,0.7164,0.767,1961
6,-0.0015,-1.5142,0.0437,0.3834,0.4799,0.8801,2007
6,-0.2688,-1.3987,-0.1479,0.5404,0.4781,0.6156,2546
6,-0.1653,-1.0444,0.0232,0.4972,0.4277,0.5878,1829
7,-0.1497,-0.8738,0.1648,0.3673,0.5205,0.5895,1931
7,0.0232,-0.8774,-0.0764,0.2244,0.3835,0.4922,1943
7,0.2947,-0.875,-0.2021,0.2571,0.6126,0.4445,1916
7,0.2161,-0.8044,-0.1975,0.2927,0.8983,0.1015,2406
7,0.2822,-0.9094,-0.1455,0.2855,1.2924,0.3325,1735
7,0.2722,-1.0627,-0.0535,0.2559,1.1025,0.481,1653
7,0.2798,-1.186,0.011,0.3324,0.8373,0.5638,1934
7,0.092,-1.1362,0.0496,0.3908,0.4908,0.6457,1822
7,-0.1055,-0.9717,0.0066,0.3975,0.4137,0.5962,1988
7,-0.1531,-0.9602,0.0562,0.2804,0.3257,0.5703,2203
7,-0.1167,-1.0039,-0.012,0.3053,0.3719,0.4797,2071
7,-0.0193,-0.9536,-0.0139,0.2737,0.3155,0.473,1996
7,0.1846,-0.9382,-0.1257,0.2155,0.2129,0.5308,1975
7,0.1716,-1.01,-0.1238,0.2432,0.027,0.4699,2005
7,0.0295,-1.033,-0.1199,0.3015,0.1128,0.461,2032
7,0.0168,-1.0227,-0.0723,0.3147,0.2497,0.4988,1908
7,0.0449,-0.9529,0.2036,0.318,0.3073,0.4639,1969
7,-0.0972,-1.0142,0.2288,0.1975,0.2956,0.3619,1927
7,-0.1946,-1.1021,0.2388,0.0921,0.1956,0.3863,1963
7,-0.2705,-1.165,0.2698,0.0097,0.1293,0.2432,2080
7,-0.2612,-1.0508,0.1101,-0.0751,0.0447,0.2274,1705
7,-0.0259,-1.0276,0.0168,-0.0497,0.2741,0.1934,1995
7,0.064,-1.0559,-0.134,-0.0124,0.4528,0.0848,2019
7,-0.0129,-0.9536,-0.2007,0.0282,0.5329,0.2023,2066
7,0.0068,-0.9626,-0.0837,0.0784,0.4991,0.159,2053
7,0.0361,-1.0181,0.1343,0.1057,0.4759,0.0891,2041
7,-0.0684,-1.0969,0.2561,0.0073,0.2015,0.0614,1973
7,-0.2539,-1.1479,0.2012,-0.0779,0.1097,0.0041,1905
7,-0.2175,-1.0664,0.2734,-0.2511,-0.1001,-0.1123,1868
7,0.0396,-1.0933,0.1594,-0.3638,0.1079,-0.0718,2070
7,-0.1194,-1.1094,-0.0864,-0.3763,0.1701,-0.0423,2128
7,-0.1016,-1.0649,-0.5164,-0.1912,1.0597,-0.0892,2012
7,0.2065,-1.0076,-0.4043,-0.1007,1.2457,0.0161,2079
7,0.1926,-0.9258,-0.3042,0.0368,1.0318,0.1562,2050
7,0.2048,-0.9204,0.3433,0.0925,0.7883,0.0887,1840
7,0.2378,-0.947,0.2375,-0.0152,0.6204,0.0987,2088
7,-0.1248,-1.2087,0.604,-0.2091,0.0768,0.0715,2328
7,-0.7195,-1.4268,0.4629,-0.2269,0.0246,-0.1285,1970
7,-0.3521,-1.106,0.2124,-0.1611,0.3225,-0.0409,2053
7,0.2358,-1.0955,0.1455,-0.1149,0.5084,0.1304,2056
7,0.5266,-0.6938,0.0254,0.006,0.42,0.0955,1994
7,0.6782,-0.4851,-0.4175,0.0977,0.3029,0.3003,2074
7,0.4753,-0.5503,-0.7671,0.2886,-0.6537,-0.2091,2047
7,0.0879,-0.4875,-0.3857,0.2803,-1.113,0.1324,2209
7,-0.592,-0.5071,-0.6672,0.1787,-1.2749,-0.0835,1946
7,-0.4663,-0.6826,-0.5786,0.2685,-0.8752,-0.2967,1987
7,0.0359,-0.917,-0.6592,0.5513,-0.2472,-0.016,1763
7,0.1726,-1.2202,-0.4238,0.9279,0.034,0.4003,2153
7,0.2126,-1.4875,-0.1062,1.405,0.906,0.5677,1822
7,0.4226,-1.6323,-0.9673,1.0685,0.2196,-1.5355,1967
7,1.5171,-0.7959,-0.1738,1.8117,1.2299,0.2384,2065
7,1.5007,-0.8005,-0.4905,1.2918,1.8022,0.7925,2159
7,1.4258,-0.7004,-0.2932,1.0191,3.2802,1.2822,1046
7,1.6521,-0.0688,-0.1211,1.2604,2.5589,2.9465,2556
7,1.9999,-2.0,1.0745,1.5656,-0.9605,3.7848,2441
7,1.5725,-2.0,0.9868,2.3928,-3.1987,3.5497,975
7,-0.2134,-1.8933,0.5374,2.1622,-2.8722,4.3533,2948
7,-0.7144,-2.0,-0.5933,1.5877,-0.1776,4.3634,2363
7,1.9999,-2.0,-1.1628,-0.3441,0.0874,1.9612,1229
7,1.9999,-2.0,-0.574,-2.1494,-3.5826,-1.7681,2246
7,0.3909,-0.7729,-1.3247,-3.2777,-0.5695,-3.8709,2561
7,0.4814,-2.0,-1.8328,-3.3682,-0.1424,-4.3635,1850
7,1.1287,-2.0,-1.4021,-4.3635,-3.0851,-3.2178,2792
7,-2.0,1.9999,1.9999,4.3634,-3.649,-3.2134,2690
7,-2.0,0.3562,1.9999,-4.3635,4.3634,-2.7753,624
7,1.9999,-2.0,-2.0,-3.7925,4.3634,0.0607,3059
7,1.9999,-1.8066,0.626,1.431,4.3634,-0.0119,2405
7,-2.0,0.5557,1.9785,-1.3404,4.3634,-4.3635,1987
7,1.2346,1.9216,-0.3608,0.6413,4.3634,-4.3327,1829
7,-1.6946,0.5352,1.7888,0.077,4.3634,-2.4683,2094
7,0.6343,-0.3394,-0.0356,0.5588,1.1817,-3.98,1922
7,1.9999,-0.0347,-1.0745,0.9492,-1.4873,-1.321,2013
7,1.7412,-2.0,-0.0686,-1.2327,-3.1208,-2.9359,1905
7,-0.239,-1.1655,-0.1221,-2.0503,-4.3635,-4.3635,1879
7,-1.5496,-0.5415,-0.2771,-0.0093,-4.3635,1.3126,2635
7,-2.0,-2.0,-0.1624,-1.482,-0.0945,-3.7747,2581
7,1.6514,-0.7092,-0.7454,-1.2406,-2.027,-0.2922,2472
7,-1.0718,-2.0,-0.4712,-0.9158,0.8304,-3.7394,2073
7,1.4431,0.5337,-0.3962,-1.1258,-1.0461,-2.3429,1912
7,-0.3335,-1.751,-0.709,-1.1106,-1.5316,-2.2004,1988
7,-0.4497,-0.3489,0.3254,-0.4998,-2.8586,-1.5808,1692
7,0.0879,-1.7488,0.395,-0.5948,-3.2457,0.2137,1615
7,-0.967,-2.0,0.6169,-1.0476,-2.4681,0.3807,1654
7,0.4712,-0.792,-0.1326,-1.3541,-4.3635,-1.5398,2254
7,-0.4814,-2.0,0.0979,-1.8173,-2.0359,-0.4923,2128
7,-0.5369,-0.8162,0.272,-1.2472,-4.3635,0.0043,1845
7,-0.5571,-0.8289,0.2607,-1.6287,-4.3635,-0.3799,1053
7,-0.4131,-0.748,0.1189,-1.2266,-3.9828,-1.1894,2226
7,0.3611,-0.5735,-0.0005,-1.3624,-3.9812,-1.0047,2063
7,-0.0359,-0.0662,0.0791,-0.9911,-4.033,-1.3556,2223
7,0.0935,0.6577,0.3708,-0.5129,-3.2875,-0.5117,2213
7,-0.5293,0.8469,0.4233,-0.0972,-1.7779,1.2496,2087
7,-0.6592,1.4209,0.0046,1.1168,-1.6247,2.0394,2009
7,-0.4587,1.2798,-1.2297,1.6299,-1.6282,2.8426,1843
7,-0.2854,-0.3728,-2.0,0.9266,-0.5922,2.2925,1999
7,0.8174,-0.4531,-0.4016,2.8416,2.6006,-0.7668,2127
7,1.9999,-1.3982,0.2976,0.5895,1.9911,-0.4871,1869
7,1.9999,-2.0,-0.7527,-1.0517,1.9967,-1.3023,2276
7,1.7288,-2.0,-0.6787,-0.5926,-0.5741,-1.6139,2248
7,-0.5183,-1.8457,0.9043,1.4476,-2.895,0.6221,2006
7,-2.0,-0.7991,0.7961,-0.1462,-2.6697,2.015,1997
8,-0.9656,-2.0,0.8835,0.351,0.6673,4.3634,2156
8,-0.4294,-2.0,0.0125,-0.0739,-0.8997,0.3858,2128
8,-0.3406,-1.7649,0.8652,0.2324,0.4436,0.4594,2235
8,0.2185,-1.7173,0.6985,0.0534,0.1056,0.4175,1778
8,0.4878,-1.6763,0.74,-0.0639,-0.2442,0.2274,2140
8,0.3313,-1.21,0.2727,-0.1965,0.2862,0.0939,2215
8,0.3037,-1.1167,-0.3247,-0.1426,0.6205,0.405,2192
8,0.8225,-0.748,-0.7976,0.0834,0.8156,0.6066,2094
8,0.9124,-0.5295,-1.0415,0.302,0.5988,0.7652,1885
8,0.7849,-0.5317,-0.8367,0.3912,0.204,0.8455,2131
8,-0.1589,-0.6753,-0.8855,0.2828,0.2388,1.1346,1935
8,-0.4333,-1.061,-0.6331,0.1887,0.3325,1.0318,1999
8,-0.1948,-1.2556,-0.4031,0.2964,0.5882,0.9383,1796
8,0.0879,-1.1782,-0.0049,0.5272,0.7509,0.7385,2088
8,0.2612,-1.2168,0.2849,0.4789,0.7006,0.547,2199
8,0.5396,-1.1934,-0.0376,0.5818,0.5971,0.6762,2148
8,0.4778,-1.0994,-0.1943,0.6709,0.5157,0.6485,2118
8,0.1248,-1.0103,-0.165,0.6163,0.6345,0.7456,1996
8,0.092,-0.9375,-0.2078,0.5766,0.9184,0.9467,2039
8,0.313,-0.8452,-0.1973,0.5452,1.0034,0.7521,2074
8,0.4348,-0.7798,-0.241,0.4739,0.8749,0.7794,1931
8,0.229,-0.842,-0.2585,0.4633,0.7901,0.9351,2159
8,-0.0325,-0.8936,-0.293,0.461,0.7609,0.8678,2056
8,-0.1567,-0.938,-0.231,0.4593,0.9451,0.821,2057
8,-0.134,-1.0815,-0.1729,0.4345,0.9455,0.7901,1968
8,-0.1157,-1.0872,-0.114,0.5313,0.8605,0.6292,2014
8,-0.0425,-1.0315,-0.0532,0.5498,0.7827,0.5847,1937
8,-0.0188,-0.9636,0.0325,0.551,0.7622,0.5055,2174
8,0.0176,-0.9812,0.0422,0.4851,0.7885,0.2743,1931
8,0.1133,-1.1536,0.0779,0.4912,0.9343,0.4051,2164
8,-0.0532,-1.062,0.0654,0.4938,0.7633,0.4741,2012
8,0.0347,-0.9851,0.0771,0.4203,0.5408,0.5437,2155
8,0.0537,-0.9829,0.0969,0.2967,0.346,0.461,2166
8,-0.199,-1.0415,0.0723,0.1261,0.0205,0.4509,1984
8,-0.3145,-1.1416,0.0391,0.1418,0.1412,0.4505,2030
8,-0.1262,-1.085,0.0491,0.1795,0.4442,0.2922,2073
8,0.1082,-1.1157,0.0176,0.1806,0.5249,0.2779,2200
8,0.1523,-1.0791,0.1233,0.2159,0.4675,0.2606,2086
8,0.0063,-0.9392,0.1965,0.1936,0.4565,0.1787,1988
8,0.0034,-1.0359,0.1555,0.0389,0.5156,0.1432,2083
8,-0.0928,-1.1123,0.1306,-0.0427,0.4578,0.0518,1951
8,-0.1675,-0.9788,0.0237,-0.0623,0.3437,0.185,2068
8,0.2112,-0.9502,-0.1316,-0.0446,0.5191,0.2076,1971
8,0.3289,-0.9167,-0.1912,0.0916,0.5251,0.0774,2051
8,0.1602,-0.7529,-0.0728,0.1439,0.3456,0.1133,1923
8,0.043,-0.8921,-0.1221,0.0137,0.1742,0.1907,1835
8,0.0244,-1.0759,-0.1882,-0.0213,0.076,0.1972,2174
8,-0.0569,-1.2744,-0.2183,-0.0324,0.2249,0.2695,2073
8,-0.2092,-1.2527,0.0054,0.0414,0.435,0.1625,2040
8,-0.2366,-1.0938,0.0923,-0.0184,0.5291,0.1667,1953
8,0.1121,-0.9858,0.1174,0.0081,0.6918,0.3084,2002
8,0.3882,-0.8625,0.1123,0.1009,0.4073,0.2175,1909
8,0.6223,-0.7319,-0.0793,0.1368,0.0029,0.3195,1985
8,0.3291,-0.8865,-0.2595,0.155,-0.4187,0.2603,1905
8,-0.2974,-0.9548,-0.3628,0.2294,-0.2356,0.1396,1939
8,-0.4316,-0.9597,-0.3206,0.2005,0.0971,0.2559,2123
8,-0.4248,-1.1694,-0.1562,0.1031,0.2195,0.0956,2012
8,-0.5222,-1.2764,0.0342,0.1109,0.4221,0.0144,2117
8,-0.5596,-1.1042,0.3669,0.2108,0.6369,-0.1561,2083
8,0.0676,-0.709,0.2375,0.2349,0.6476,-0.1654,2081
8,0.8079,-0.7239,-0.0308,0.1903,-0.2049,-0.0384,1932
8,0.4104,-0.8127,-0.3416,0.2626,-0.8533,-0.1221,2140
8,-0.1008,-0.813,-0.4644,0.2543,-0.7401,0.0262,2092
8,-0.3694,-0.8149,-0.4358,0.2386,-0.6228,0.0968,1955
8,-0.0293,-1.001,-0.4001,0.1867,-0.3248,0.2919,1733
8,0.458,-1.1731,-0.2588,0.4537,-0.3879,0.4525,1791
8,0.8418,-1.04,-0.2791,0.7818,-0.4176,0.6347,1985
8,1.3521,-1.2656,-0.1785,0.9792,-0.5537,0.768,2179
8,0.804,-1.4883,-0.3455,1.1031,0.9058,1.1829,2060
8,-0.7244,-1.0151,-0.8914,0.0598,3.1416,-0.6841,1505
8,1.0444,-1.188,-0.7107,1.1722,3.5994,1.2166,1871
8,1.1897,-0.5254,-0.6638,1.2925,3.8032,1.629,1712
8,1.7891,-1.3418,0.1604,1.2335,0.6769,2.4832,2210
8,1.48,-2.0,0.5859,1.7187,-1.6629,2.3281,2380
8,1.1765,-2.0,-0.3508,2.4659,-2.5738,2.3626,2106
8,0.0095,-1.7759,-0.625,2.2272,-1.9735,1.8306,2054
8,-1.5691,-2.0,-0.6367,1.3549,-1.1035,0.7399,2315
8,-1.3972,-2.0,0.0352,-0.0559,0.4047,-1.184,2032
8,0.9729,-2.0,-0.6079,-1.639,2.0908,-2.6143,2131
8,0.8657,-2.0,-1.053,-2.3414,2.169,-3.9624,2005
8,0.8076,-1.9395,-0.3625,-2.79,1.0183,-4.3635,2074
8,0.8079,-1.3074,0.5991,-1.8956,-1.7086,-4.3635,2076
8,-1.1567,-2.0,1.1423,-1.164,-0.3591,-4.3635,2209
8,-2.0,1.9999,1.9999,4.3634,4.3634,-4.3635,3451
8,-2.0,-2.0,-2.0,-4.3635,-4.3635,4.3634,77
8,1.9999,-0.8921,-2.0,-1.5848,3.8596,-4.3635,2021
8,1.9999,-2.0,0.8247,1.0251,4.3634,2.2264,2193
8,-0.7378,1.054,-0.4543,-1.1592,-0.8194,-4.3635,1787
8,0.9551,1.0583,-0.9954,0.2547,3.0955,-4.3635,2017
8,1.9999,0.0461,-2.0,0.2428,-3.4733,2.0088,1738
8,1.9999,-1.2078,0.748,-0.4269,-1.969,-0.4522,2079
8,-2.0,0.3044,0.2871,-1.1885,-4.3635,-0.7685,1927
8,-1.2612,-1.0144,-1.3184,-2.1511,-4.3635,-0.653,2111
8,-0.7908,-1.3623,-0.9973,-0.3952,-4.3635,-2.6991,2193
8,-0.7122,-0.6565,0.0615,-0.2346,0.4189,-2.0619,1918
8,-1.9724,-0.3936,-0.4619,0.2456,1.6341,-0.7937,1865
8,-0.6321,-0.3032,0.0684,-0.8335,2.3856,-0.4283,2070
8,0.1702,-0.0513,0.2319,-1.5499,2.8988,1.2484,2014
8,-0.5291,-0.5747,-0.0903,-1.1669,3.5725,1.527,2020
8,-1.0261,-0.9468,-0.2019,-1.1778,4.3634,1.7821,2024
8,-0.9688,-1.0215,-0.0867,-1.2422,4.3634,1.8085,2011
8,-0.5618,-0.8079,-0.1475,-1.2057,4.3634,2.0294,1991
8,-0.5552,-0.762,-0.3899,-1.1182,4.3634,2.3425,1999
8,-0.7146,-0.813,-0.5054,-1.0035,4.3634,2.4962,2001
