,Unnamed: 0,timestamp,node,accx,accy,accz,gyrox,gyroy,gyroz,q0,q1,q2,q3,timestamp.1,node.1,accx.1,accy.1,accz.1,gyrox.1,gyroy.1,gyroz.1,q0.1,q1.1,q2.1,q3.1,timestamp.2,node.2,accx.2,accy.2,accz.2,gyrox.2,gyroy.2,gyroz.2,q0.2,q1.2,q2.2,q3.2,timestamp.3,node.3,accx.3,accy.3,accz.3,gyrox.3,gyroy.3,gyroz.3,q0.3,q1.3,q2.3,q3.3,timestamp.4,node.4,accx.4,accy.4,accz.4,gyrox.4,gyroy.4,gyroz.4,q0.4,q1.4,q2.4,q3.4,timestamp.5,node.5,accx.5,accy.5,accz.5,gyrox.5,gyroy.5,gyroz.5,q0.5,q1.5,q2.5,q3.5,timestamp.6,node.6,accx.6,accy.6,accz.6,gyrox.6,gyroy.6,gyroz.6,q0.6,q1.6,q2.6,q3.6,timestamp.7,node.7,accx.7,accy.7,accz.7,gyrox.7,gyroy.7,gyroz.7,q0.7,q1.7,q2.7,q3.7,timestamp.8,node.8,accx.8,accy.8,accz.8,gyrox.8,gyroy.8,gyroz.8,q0.8,q1.8,q2.8,q3.8
0,0,0.017,0.0,-5.36e-17,1.43e-17,1.0,0.013873734,0.01580936,0.008559818,0.9999993556266202,0.0006936862530067,0.0007901705992397,0.0004279908301636,0.017,1.0,3.15e-17,4.77e-17,1.0,0.002613426,0.00889195,0.018941587,0.9999994442048517,0.0001306712273735,0.0004444734968737,0.0009470788397892,0.017,2.0,-1.39e-17,1.53e-19,1.0,0.001131681,0.003305185,0.012610333,0.9999997859741528,5.6584037889550776e-05,0.0001652235374522,0.0006305165170718,0.018,3.0,-3.53e-18,1.02e-16,1.0,0.013888461,-0.007147281,0.026483518,0.9999988179850922,0.0006944222291816,-0.0003582831647706,0.0013241749733521,0.018,4.0,1.19e-16,-1.27e-16,1.0,-0.003736635,-0.011189111,0.007375314,0.9999997580962472,-0.0001868317048047,-0.0005593865175412,0.0003687656236663,0.0,5.0,0.0,0.0,1.0,-6.75e-05,-0.00405673,-0.002839028,0.999999969347786,-3.3749998965487786e-06,-0.0002028369728685,-0.0001419513956504,0.0,6.0,-3.96e-17,5.7e-17,1.0,0.00378886,0.009660675,0.01300351,0.9999996540904352,0.0001894429344698,0.0004829104117593,0.0006501752984319,0.0,7.0,1.12e-16,3.27e-18,1.0,-0.002691966,-0.00368823,0.025237089,0.9999991778318136,-0.0001345981893375,-0.0001842415050585,0.001261853435404,0.0,8.0,-3.94e-17,8.12e-17,1.0,0.005434562,-0.001505426,0.005136259,0.999999927267338,0.0002717280802364,-7.534107781519938e-05,0.0002568129502833
1,1,0.108,0.0,-0.000819328,0.000442005,0.980057719,0.005540858,0.014942637,-8.06e-05,0.9999983581913924,0.0009235690496522,0.0015002159171718,0.0004242486678183,0.109,1.0,6.27e-17,-2.72e-18,0.979937753,-0.005959939,0.004192143,-0.004185138,0.999999525736768,-0.0001806842368824,0.0006093131304037,0.0007379816766383,0.109,2.0,-4.42e-17,2.27e-17,0.980306585,-0.004808757,0.004510238,-0.008688309,0.9999998928337542,-0.0001897261634573,0.0003739790140931,0.0001961534085602,0.109,3.0,-2e-05,0.000999795,0.978721104,0.005239063,-0.005266206,0.013230614,0.999997417585318,0.0009381191622998,-0.000584948776765,0.0019855956438382,0.11,4.0,3.56e-06,-0.000985711,0.979588193,-0.006117766,-0.006254293,0.004350156,0.9999993574940378,-0.0005243553836106,-0.0008163613039106,0.0005861886766618,0.03,5.0,8.85e-18,4.89e-17,0.979809165,0.000968199,-0.003736633,-0.00660433,0.9999998192829256,4.541290061407419e-05,-0.0003693767573551,-0.0004721573844108,0.03,6.0,-4.16e-17,6.57e-17,0.979684133,0.006957094,0.005412074,-0.00080988,0.9999994311277584,0.0005181576425798,0.0007054700507441,0.0006095644547966,0.03,7.0,1.18e-16,1.45e-17,0.979357442,-0.000860734,-0.002763792,-0.009393894,0.9999996265498126,-0.0001639141208585,-0.0003041381695165,0.0007921694076561,0.03,8.0,-2.76e-17,8.5e-17,0.980474885,0.008148371,0.00336778,-0.008672399,0.999999766757762,0.0006519631092281,0.0001009693371312,-0.000176730638697
2,2,0.168,0.0,-0.001638655,0.000884011,0.979692571,0.002198145,0.009366688,-0.014147091,0.9999976643889044,0.0009849402530085,0.0019029206788756,-0.0002828468216389,0.168,1.0,6.27e-17,-2.72e-18,0.979937753,-0.009566192,0.005956076,-0.006286256,0.9999993469496448,-0.0006413363668393,0.0008456307828412,0.0004239062723917,0.168,2.0,-0.00097748,0.000168916,0.980433076,-0.008767421,0.00116719,-0.009978737,0.9999996750318472,-0.0006007178934578,0.0004444058854554,-0.0003026179458425,0.168,3.0,-2e-05,0.000999795,0.978721104,-0.006451624,0.004216951,-0.005915641,0.999998358792504,0.0005725552482018,-0.0003149546306266,0.0016897918116651,0.168,4.0,0.00031788,-0.001144482,0.98052414,-0.013633041,0.002588221,-0.003001109,0.9999989772986606,-0.0012118756008147,-0.0006221393854299,0.000435547639324,0.091,5.0,-0.001506758,0.002774487,0.979630559,-0.009983779,0.00346635,-0.121861781,0.9999783950056392,-0.0003143334855045,-8.396356650113143e-05,-0.0065653382643342,0.091,6.0,-0.00259868,0.004259128,0.979357497,0.031030736,-0.001874918,-0.049576028,0.9999955251206905,0.0022335388538014,0.0006804602019179,-0.0018702985582228,0.091,7.0,-0.004847551,-0.005178256,0.980656253,0.013082753,0.177697551,0.071961872,0.9999511142133988,0.0002342615290019,0.0088573373278289,0.0043888358797581,0.091,8.0,0.000526188,-0.000849236,0.980518741,-0.065635148,-0.002206507,-0.043207306,0.9999935185189288,-0.0027385216065879,-5.161338766801624e-05,-0.0023368259672102
3,3,0.242,0.0,-0.001638655,0.000884011,0.979692571,0.001583125,0.011060562,-0.019798273,0.999995919653099,0.00100901481506,0.0023502483835601,-0.0012723595370087,0.242,1.0,6.27e-17,-2.72e-18,0.979937753,-0.012208938,0.007282319,-0.019208747,0.9999985183716668,-0.0011886149606777,0.0011237823693241,-0.000536248200621,0.242,2.0,-0.001165454,-0.000800447,0.980274962,-0.017769198,0.00397863,-0.03086326,0.9999970004484934,-0.0014705376921544,0.000656352627773,-0.0018454847981477,0.242,3.0,-1.6e-17,1.08e-16,0.97872417,-0.010719406,0.008453746,-0.019615968,0.9999997388276698,-2.107627247006493e-05,0.0001383019425232,0.0007090648459548,0.243,4.0,0.000321443,-0.002130192,0.980355731,-0.007586858,0.010747243,-0.024719467,0.9999984328928376,-0.0015781307279851,-4.112080983889213e-05,-0.000801264221797,0.153,5.0,-0.000523114,0.00077426,0.979452973,0.010030368,0.007423914,-0.004473366,0.9999768691982068,0.0002607619925662,0.0003188298585375,-0.0067890661550095,0.152,6.0,-4.16e-17,6.57e-17,0.979684133,0.009630298,0.005410776,-0.00606448,0.9999941437848364,0.0024919980080878,0.0008828068520415,-0.0021732450439837,0.153,7.0,-0.000985973,0.0001613,0.979400328,0.008182486,0.011899475,-0.007214543,0.9999545626453338,0.0006221496077866,0.0086189971344416,0.0040247314247312,0.153,8.0,-2.76e-17,8.5e-17,0.980474885,0.008079159,0.004832339,-0.00336009,0.9999947204113588,-0.0020601413145735,0.0001938735158727,-0.0025054700620964
4,4,0.273,0.0,-0.002457983,0.001326016,0.979327422,-0.003048619,0.008185661,-0.021967066,0.9999933404293032,0.000821481965062,0.0026510058742589,-0.0023699013227936,0.273,1.0,-0.000572203,-0.001281178,0.979761211,-0.016805514,0.00471759,-0.010413509,0.9999966761068164,-0.0019758510735127,0.0012759405479473,-0.001056297104116,0.273,2.0,-0.001353429,-0.001769811,0.980116848,-0.013756263,-0.001123558,-0.010976646,0.9999947436473448,-0.0021019150014023,0.000603865933797,-0.0023937370244969,0.273,3.0,-1.6e-17,1.08e-16,0.97872417,0.000999249,0.00429252,-0.029909536,0.9999996327784404,3.063479948788556e-05,0.0003391787537681,-0.0007864237194853,0.274,4.0,0.000321443,-0.002130192,0.980355731,-0.00347736,0.007277215,-0.030231268,0.9999958273324452,-0.0017024862032294,0.0003081093866919,-0.0023134232279456,0.239,5.0,-0.000460531,0.001225966,0.980342943,0.017117148,0.00435806,-0.003415633,0.999974975645696,0.0011546318814105,0.0005222942047261,-0.0069600370955931,0.239,6.0,-4.16e-17,6.57e-17,0.979684133,0.00833839,0.005670321,-0.008431946,0.9999925152386598,0.0026599603908563,0.0010782561126939,-0.0025945020973825,0.239,7.0,-0.000985973,0.0001613,0.979400328,0.008356397,0.003803743,-0.025673351,0.9999637726460262,0.0009739445835782,0.0080006162770336,0.0027376936757419,0.24,8.0,-0.000526188,0.000849236,0.980431029,0.01322986,0.008317228,0.002323368,0.9999962947881326,-0.0011481957735236,0.0006155478393865,-0.0023902211883693
5,5,0.378,0.0,-0.002457983,0.001326016,0.979327422,0.00609111,0.011755838,-0.026203895,0.9999878074570784,0.0011098018353337,0.003099753080159,-0.003680327147653,0.378,1.0,-0.000572203,-0.001281178,0.979761211,-0.008704674,0.008715175,-0.016249513,0.9999943560872409,-0.0022794247057886,0.001611980696644,-0.0018691000264472,0.379,2.0,-0.001541403,-0.002739174,0.979958734,-0.007910799,0.006077213,-0.000257267,0.9999937304625788,-0.0024261118297852,0.0009272339041951,-0.0024069179902001,0.379,3.0,2e-05,-0.000999795,0.978727235,-0.000110621,-0.004436143,-0.022737938,0.9999981465433933,-2.9596745736858603e-05,8.244311590750055e-05,-0.0019233400488188,0.379,4.0,7.13e-06,-0.001971421,0.979419784,-0.005480966,0.004162797,0.001427963,0.9999955506148048,-0.0019064238817148,0.0004860763485317,-0.0022423265506449,0.284,5.0,-0.000983644,0.002000227,0.979986751,0.012842255,0.00150497,-0.012649155,0.9999694088383544,0.0017838552244519,0.0005914448631189,-0.0075927228965775,0.284,6.0,-0.000519736,0.000851826,0.979618806,0.010663702,0.004229861,-0.013654479,0.9999894869774796,0.0029705037766808,0.0012089810422473,-0.0032772559664661,0.284,7.0,-0.001971946,0.000322601,0.979443213,0.007452915,0.017400028,-0.020258212,0.9999643245486466,0.0012548935722536,0.0081735597217664,0.0017227285236042,0.284,8.0,-0.000526188,0.000849236,0.980431029,0.001943706,0.00481332,-0.001748934,0.9999961947015245,-0.0008922968530333,0.0008210788247911,-0.0024779463999308
6,6,0.422,0.0,-0.002994204,0.000509836,0.979542636,0.003241294,0.009674986,-0.010378806,0.9999846078206064,0.001187642533177,0.0034262796116761,-0.0041993136467774,0.422,1.0,-0.001479205,-0.00167659,0.979906118,-0.006134163,0.01636092,-0.00097709,0.9999924267915012,-0.0024421450847308,0.0023449129141749,-0.0019192890491347,0.422,2.0,-0.002518883,-0.002570258,0.980085225,-0.008298078,0.005819016,-0.012563865,0.9999908839394004,-0.0027290969118865,0.0012535602734718,-0.003035235540003,0.423,3.0,2e-05,-0.000999795,0.978727235,0.011450416,0.004606606,0.004307845,0.9999983729915004,0.0004952654238635,0.0003023973967646,-0.0017080053649303,0.423,4.0,-0.000942186,-0.00202769,0.979729045,0.001784231,0.01115858,-0.020710626,0.99999258668861,-0.0017291958301182,0.0010417183517809,-0.00327891330773,0.35,5.0,-0.001506758,0.002774487,0.979630559,0.019230241,0.005315663,0.00438252,0.9999687629808968,0.0027112866593678,0.0008660070331197,-0.0073737384632471,0.35,6.0,-0.000519736,0.000851826,0.979618806,0.008256845,0.003503268,-0.003980099,0.9999882280406552,0.0031301905940511,0.0012888998930161,-0.0034762658157142,0.351,7.0,-0.00280731,0.001454478,0.97929822,0.008745567,0.004771058,-0.020364248,0.9999684628431886,0.0016319516559779,0.0077406496492638,0.0007017092206242,0.351,8.0,-0.000526188,0.000849236,0.980431029,0.004054545,0.00114471,-0.002602307,0.999996105366106,-0.0005569302512455,0.0008223585996232,-0.0026082192485918
7,7,0.548,0.0,-0.004016433,0.001323972,0.980083219,0.003929753,0.015490872,-0.002015698,0.9999816117375308,0.0013366728797867,0.0040621065689133,-0.0042998584447765,0.548,1.0,-0.001479205,-0.00167659,0.979906118,0.001222429,0.006453227,0.003580468,0.9999928697043952,-0.0022211746053654,0.0025090026009823,-0.0017412150036761,0.548,2.0,-0.002518883,-0.002570258,0.980085225,0.005964108,0.009627331,0.01667461,0.9999934471048766,-0.0022862092525988,0.0017394676327245,-0.0022030086051438,0.548,3.0,4e-05,-0.00199959,0.9787303,-0.004979474,0.009673859,-0.00075789,0.9999981872940809,9.542507356826818e-05,0.0007544096456514,-0.0017456141311274,0.548,4.0,-0.000942186,-0.00202769,0.979729045,-0.007492207,0.01041039,0.003163215,0.9999919264748004,-0.0020323356785479,0.0015080344664492,-0.0031212864263005,0.419,5.0,-0.001967289,0.004000453,0.980164336,0.028222185,0.012198029,0.000257041,0.9999635749958616,0.0040605251410438,0.0014776740984236,-0.0073605228301899,0.419,6.0,-0.000519736,0.000851826,0.979618806,0.008093307,0.001205634,-0.000578638,0.9999877480006512,0.0032655760743694,0.001245355764328,-0.0035055599422965,0.42,7.0,-0.003943893,0.000645202,0.979528983,0.009646184,0.015403833,-0.011161932,0.9999665130371054,0.0019789869567597,0.0079395535738239,0.0001410818408009,0.42,8.0,-0.000526188,0.000849236,0.980431029,0.00468413,0.002412112,-0.009491951,0.9999948292968106,-0.000223728660667,0.0008867321427293,-0.0030830230677446
8,8,0.588,0.0,-0.004835761,0.001765978,0.97971807,0.007208276,0.014879828,-0.00103019,0.9999783697823352,0.0016575876494682,0.0046448084013419,-0.0043517956710649,0.588,1.0,-0.001479205,-0.00167659,0.979906118,0.005669965,0.009843707,0.002127834,0.99999304885344,-0.0017998542173616,0.0028256084366078,-0.0016366754598033,0.588,2.0,-0.002518883,-0.002570258,0.980085225,0.007759441,0.011410793,0.010229238,0.9999943842029744,-0.0017983113163502,0.002264912807374,-0.0016934606280411,0.588,3.0,4e-05,-0.00199959,0.9787303,0.000395553,0.005492318,0.023736213,0.9999993909749616,4.879325589786691e-06,0.0009516785225636,-0.0005588683997987,0.589,4.0,-0.000942186,-0.00202769,0.979729045,-0.000687799,-0.001157291,0.032668211,0.9999960508426672,-0.0019645378204631,0.0013510874863055,-0.0014877677327225,0.513,5.0,-0.002490403,0.004774714,0.979808144,0.005890955,0.002195755,0.002001285,0.9999636235065704,0.0041945480965284,0.0015623905199323,-0.0072606036759519,0.512,6.0,-0.000519736,0.000851826,0.979618806,0.006940693,-0.002572027,-0.005935142,0.999986708750776,0.0033288010495348,0.0010183677186112,-0.0038032003041194,0.513,7.0,-0.003943893,0.000645202,0.979528983,-0.003555034,-0.005238828,-0.013192119,0.9999734293951223,0.0016310516903771,0.0070860506446501,-0.0005177455002358,0.513,8.0,-0.000526188,0.000849236,0.980431029,0.006042199,-9.23e-05,-0.002648233,0.9999944838224996,0.0001440126216613,0.0008192324730418,-0.0032156559350043
9,9,0.647,0.0,-0.00585799,0.002580114,0.980258653,0.012069393,0.01449052,-0.000937443,0.9999743073227232,0.0022311185125638,0.0052005313260047,-0.0044001452873636,0.647,1.0,-0.001479205,-0.00167659,0.979906118,-0.006258104,0.014536432,0.00772197,0.9999915849306809,-0.0020159158663105,0.0033467711373715,-0.0012511091074675,0.647,2.0,-0.003496363,-0.002401342,0.980211716,-0.001891928,0.009963105,-0.011367264,0.9999920721466408,-0.0018357072543502,0.0027142424770708,-0.0022624567441769,0.647,3.0,4e-05,-0.00199959,0.9787303,0.003387768,0.004512652,0.026298771,0.9999991285459174,7.30040519081125e-05,0.0010799655390381,0.00075581231044,0.648,4.0,-0.000942186,-0.00202769,0.979729045,-0.013087688,-0.001993977,0.005175831,0.9999953766062134,-0.0025256742858925,0.0011661453155182,-0.0012279416525155,0.57,5.0,-0.002490403,0.004774714,0.979808144,0.012981745,0.006297311,0.006873127,0.9999634738017809,0.0046715492219766,0.0018399994849228,-0.0069167978167286,0.57,6.0,-0.000519736,0.000851826,0.979618806,0.006395971,-0.002250314,0.00259354,0.9999872649451772,0.0033590000838788,0.0008287274479358,-0.0036742722704743,0.57,7.0,-0.004929866,0.000806502,0.979571869,0.012645432,0.026084599,0.017621035,0.9999661758651988,0.0021484140287135,0.0079310313361939,0.0003608110805556,0.57,8.0,-0.000526188,0.000849236,0.980431029,-0.002427855,-0.008141918,0.018715998,0.9999973361703934,5.1071852031103534e-05,0.0003572515205568,-0.002279784010405
10,10,0.722,0.0,-0.00585799,0.002580114,0.980258653,0.00371702,0.010543168,0.019239296,0.9999762256653876,0.0023340901580514,0.0055027714700058,-0.0034379693553303,0.722,1.0,-0.002386206,-0.002072002,0.980051026,-0.014194209,0.017029937,0.009417006,0.9999882951622684,-0.0026269413405972,0.0039875767642562,-0.0007797109737494,0.722,2.0,-0.003496363,-0.002401342,0.980211716,-0.015246292,0.000898876,-0.007254382,0.9999897832116584,-0.0025374121894315,0.0026671882559395,-0.0026231886109257,0.722,3.0,2e-05,-0.000999795,0.978727235,0.008728203,0.005766547,0.058783527,0.9999922808392504,0.0004539913538413,0.001258225478514,0.0036944583377904,0.723,4.0,0.000325006,-0.003115903,0.980187322,0.000657734,0.002925431,0.04092745,0.9999960924644768,-0.0023966133229472,0.0011842804281174,0.0008177898419506,0.667,5.0,-0.003161131,0.00903347,0.984435576,0.112578237,0.066176099,-0.16897668,0.999815638624153,0.0102992405546296,0.0051695498792189,-0.015358716112407,0.667,6.0,-0.003118416,0.005110953,0.97929217,0.03614765,-0.006345813,-0.012327957,0.999977656910072,0.0050902921936019,0.0005833218570053,-0.0042935232195876,0.667,7.0,-0.016747524,-0.010197986,0.982443139,0.120553503,0.458645706,0.244833964,0.9994173875654144,0.0075270041185882,0.0308162103474995,0.0125932847477978,0.667,8.0,-2.76e-17,8.5e-17,0.980474885,-0.11773227,-0.020912726,0.004724703,0.9999805953003968,-0.0058428348247708,-0.0007092952079765,-0.0020413731119735
11,11,0.767,0.0,-0.006677318,0.003022119,0.979893505,-0.003808689,0.003868918,0.045731758,0.9999821517434024,0.0020788653374329,0.005482001351533,-0.0011498585676545,0.767,1.0,-0.00386541,-0.003748591,0.980019391,-0.027363268,0.020726661,0.043068022,0.9999797189172024,-0.0039140745188958,0.0048319730832851,0.0013761580780672,0.767,2.0,-0.003872312,-0.004340069,0.979895489,-0.024814858,-0.001508432,0.025503036,0.9999888905957124,-0.003742126571851,0.0025312367712445,-0.0013446242168754,0.767,3.0,2e-05,-0.000999795,0.978727235,0.003009365,0.002334016,0.05837177,0.9999772272880344,0.000511225686917,0.0012469513951509,0.0066127653708484,0.767,4.0,0.000321443,-0.002130192,0.980355731,0.008200498,-0.003222475,0.077071154,0.9999869767374888,-0.0018508508314571,0.0008957084205615,0.0046710184159476,0.764,5.0,-0.003013517,0.005548974,0.979451953,0.009690899,0.008790596,0.035255749,0.9998434248397609,0.0100552676912776,0.0052163655763657,-0.0135943711339577,0.764,6.0,-0.000519736,0.000851826,0.979618806,-0.001866553,-0.010275753,0.014444406,0.999983353242208,0.0045297482069986,3.468062359718081e-05,-0.0035739917326416,0.764,7.0,-0.008572539,0.003392857,0.979367653,0.034793919,0.06318369,0.029159172,0.9993725582433955,0.0086862312728795,0.0313429833480355,0.014023430791705,0.764,8.0,-2.76e-17,8.5e-17,0.980474885,-0.01781786,-0.018952221,0.017911934,0.9999791793052956,-0.0061520116744068,-0.0015786306113084,-0.0011408916066769
12,12,0.822,0.0,-0.007213539,0.002205939,0.980108718,-0.002401069,-0.000304253,0.058552793,0.9999827070120784,0.0018799072955913,0.005281059698804,0.0017782108461966,0.823,1.0,-0.004772412,-0.004144003,0.980164298,-0.021252427,0.005012622,0.038437619,0.9999713224513332,-0.0047880363232166,0.0048502884949041,0.0033020727756066,0.823,2.0,-0.004060287,-0.005309432,0.979737375,-0.024200983,-0.009670607,0.032867803,0.99998619268274,-0.0048451080203252,0.0020117473830578,0.0003037179882407,0.823,3.0,2e-05,-0.000999795,0.978727235,-0.003409101,-0.002983388,0.074068468,0.9999462884887992,0.0002441930441593,0.0009696994462415,0.0103160161989098,0.823,4.0,0.000325006,-0.003115903,0.980187322,-0.020480386,-0.004064352,0.049264715,0.9999703223260036,-0.0028454575353675,0.000587829514493,0.0071352852153843,0.839,5.0,-0.005236554,0.005436708,0.97966526,-0.007984708,0.01708665,0.064058043,0.9998892000228186,0.0089599122322503,0.0057891297649349,-0.0103823709759913,0.839,6.0,0.000332213,0.001374299,0.979653511,-0.007170718,-0.008166803,0.017351316,0.9999890839567864,0.0037868936741482,-0.0003963331130599,-0.0027081956412831,0.839,7.0,-0.013201185,0.006140512,0.979206323,0.051525366,0.075782887,0.06121054,0.9992629639972196,0.0107392301077987,0.0326784588608039,0.0170386632887047,0.839,8.0,0.000526188,-0.000849236,0.980518741,-0.015363441,-0.004933636,0.088795477,0.9999729751553892,-0.0063555511650025,-0.0016651219547114,0.0032989842595181
13,13,0.888,0.0,-0.00619131,0.001391803,0.979568135,-0.038309204,-0.016596226,0.089768428,0.9999713313583792,-0.0001278523344892,0.0042364136766852,0.0062747840035168,0.888,1.0,-0.004772412,-0.004144003,0.980164298,-0.039266879,-0.031672623,0.066467072,0.9999524315272466,-0.0064632964496867,0.0030394145450135,0.0066424725045772,0.888,2.0,-0.002197393,-0.006794959,0.980305565,-0.038333674,-0.04260833,0.079404381,0.99996891006287,-0.0066151332306533,-0.0001821488366328,0.004287859817875,0.889,3.0,0.001600414,-0.002963586,0.980353842,-0.046225328,-0.026916516,0.063275762,0.9999064866280604,-0.0022246179715116,-0.0005729553293056,0.0134811274083315,0.889,4.0,0.00127788,-0.004045345,0.979709652,-0.02086834,-0.020029226,0.090881919,0.9999243998078358,-0.0038003891059241,-0.0005292036523616,0.0116821083318697,0.902,5.0,-0.024264481,0.061495648,1.031204888,0.747761335,0.53714721,-2.391833087,0.9897864946083595,0.0475528451428463,0.0381844908669757,-0.1288540518064762,0.902,6.0,-0.031414518,0.059162206,0.975446032,0.414687113,-0.060968131,-0.511477761,0.9992302805696816,0.0271547711355103,-0.0011669080404373,-0.0282860941601837,0.902,7.0,-0.143769829,-0.144671348,1.016255105,0.90133213,4.782447865,2.405047393,0.9557313958331096,0.0455183824107282,0.2588525801128045,0.1322910339008312,0.902,8.0,0.008419014,-0.013587782,0.981176586,-1.352940339,0.023181695,-0.2877617,0.997204842422,-0.0738334574864936,-0.0020544805930077,-0.0112650750195897
14,14,0.991,0.0,-0.002558409,-0.003566976,0.979107109,-0.118224693,-0.116087145,0.157256123,0.99987917299527,-0.006138804139397,-0.0018504651291343,0.0141608711892669,0.991,1.0,-0.002051408,-0.002957767,0.979729577,-0.089049469,-0.138257101,0.291483335,0.9997126083304712,-0.0103288333820555,-0.0039511112714209,0.0212698064347735,0.992,2.0,0.002126084,-0.01054763,0.979198768,-0.081140434,-0.111485228,0.331796915,0.9997097978870978,-0.0105256465752923,-0.0056901659076564,0.0209081989815809,0.992,3.0,0.004548992,-0.00690804,0.979489452,-0.07499323,-0.081971219,0.058880359,0.999834797177456,-0.0060470409676602,-0.004883204829286,0.0164306408653446,0.992,4.0,0.003501509,-0.007048711,0.97952185,-0.050312124,-0.049049876,0.072537337,0.9998582090664536,-0.0062665048511188,-0.0031179961931312,0.0153157036767611,0.965,5.0,-0.005236554,0.005436708,0.97966526,-0.022213442,-0.008101838,0.054701969,0.990526473372395,0.0420701778407043,0.0342300754556448,-0.1261574715155561,0.965,6.0,0.000851949,0.000522473,0.979718838,-0.012958325,0.000414602,0.060411069,0.9993963552210028,0.0238154907982791,-0.0011273750827092,-0.0252680943965915,0.966,7.0,-0.017829831,0.008888167,0.979044993,-0.004775837,0.003118905,0.081956339,0.9612742751107328,0.0423284041285931,0.2353058198674609,0.137081163369602,0.966,8.0,0.002772345,-0.003092385,0.978538068,-0.03069113,-0.026499891,0.054069567,0.9976310640195076,-0.0681946806428415,-0.0031095736496802,-0.0084897695518334
15,15,1.028,0.0,0.005323817,-0.013554409,0.979455938,-0.239005336,-0.18096097,0.385585936,0.9992185887023508,-0.0180595170019443,-0.0108083151113241,0.0334551365532033,1.028,1.0,0.00594641,-0.011205937,0.979678553,-0.200436444,-0.134897698,0.726002281,0.9980958458961452,-0.0198572866341163,-0.0100930852233069,0.0575195636550238,1.029,2.0,0.008128322,-0.018081216,0.980302504,-0.163655581,-0.091393808,0.789098772,0.9979616088201994,-0.0186729275499563,-0.0095450390393156,0.0602730563971284,1.029,3.0,0.010114194,-0.016797223,0.979971712,-0.206250325,-0.071611912,0.365872573,0.999225164074763,-0.0166241301892175,-0.0083668244497605,0.0346800522468155,1.029,4.0,0.009198143,-0.009215102,0.98044657,-0.034743401,-0.07598065,0.210803535,0.999610164979093,-0.0078133480086357,-0.0070239445980784,0.0258676219558238,1.03,5.0,-0.007325909,0.002880951,0.97998573,-0.025391261,0.03278097,0.016917494,0.9908874712235136,0.0370425955632661,0.0329186553219124,-0.1252446710163891,1.03,6.0,0.000187523,-0.002226124,0.979780082,-0.022675704,-0.023259412,0.026731031,0.9995072574137336,0.0201570657613186,-0.002182076046747,-0.023961920233915,1.03,7.0,-0.018815804,0.009049467,0.979087878,0.01022844,0.036721674,0.145880865,0.9648842147771576,0.0405534882110679,0.2154166756112402,0.1447394988812137,1.03,8.0,0.003505217,-0.006157293,0.978801206,-0.062699988,-0.015291524,0.133817047,0.9978866385265552,-0.0648715621429528,-0.0032779828857247,-0.0017865899097186
16,16,1.127,0.0,0.017708485,-0.026496131,0.979819047,-0.154434744,-0.218327081,0.652470532,0.997273563495073,-0.0252522582172191,-0.0209901422394366,0.0660846195232865,1.127,1.0,0.014966676,-0.024521387,0.979100965,-0.13524754,-0.184174834,1.150123925,0.9929094500448624,-0.0258133183681652,-0.0179497806010263,0.114639879548121,1.127,2.0,0.008111471,-0.029260377,0.979289556,-0.147065803,-0.121780324,1.327664807,0.9915950853337748,-0.0257906069390097,-0.0138436671893743,0.1260253316376158,1.128,3.0,0.015487351,-0.03169416,0.979512952,-0.252333605,-0.180463834,0.749413783,0.996835515578369,-0.0291144933235902,-0.0167100483193639,0.0720560576584807,1.128,4.0,0.015865466,-0.017239489,0.980051574,-0.151611955,-0.173786179,0.832611836,0.9974879479446402,-0.0155118571763385,-0.0153641314717169,0.0673878286951817,1.05,5.0,-0.020667236,0.007860149,0.979520333,0.277556363,0.430078988,0.04655575,0.9899179716001846,0.0503755152191149,0.0500547152372775,-0.1225530189424143,1.049,6.0,0.009457107,-0.005905891,0.98051093,-0.085235063,-0.221672599,0.058571825,0.9995951935729466,0.0132959712508182,-0.0134544297645506,-0.0212519282436171,1.05,7.0,-0.026635294,0.017295206,0.978158697,0.232140482,0.162725833,0.097763001,0.9661968471722036,0.0484020738425259,0.2054796379916463,0.1479831413812325,1.05,8.0,0.006009198,-0.029269556,0.980047541,-0.526342891,-0.070989395,-0.105777494,0.9962370886553412,-0.0860914829059989,-0.0071985097040107,-0.006935504063644
17,17,1.194,0.0,0.035051611,-0.040689905,0.978495128,-0.279308678,-0.323208884,0.79997198,0.9929833857876436,-0.0382982949238424,-0.0362309482263907,0.1058515684638188,1.195,1.0,0.022021386,-0.028345001,0.978319283,-0.075528271,-0.210163514,1.467455447,0.9816869262993366,-0.0283085390948921,-0.02606659157596,0.1865742162006477,1.195,2.0,0.020956069,-0.037976377,0.979507855,-0.094370924,-0.172859879,1.191831282,0.9821703035524808,-0.0293323119836431,-0.0210745760132168,0.1844911177785667,1.195,3.0,0.040508406,-0.0472004,0.978286866,-0.133403425,-0.563828096,1.27888852,0.989199164728144,-0.034029881847733,-0.0434200643860073,0.1358001386276412,1.195,4.0,0.041877618,-0.04113381,0.977946969,-0.568702456,-0.670013091,1.292787439,0.9892553541878356,-0.0427320989121443,-0.048341046658402,0.1311905299220661,1.083,5.0,-0.058687675,0.042901198,0.976768777,0.439527883,0.5086218,0.138658503,0.9881794638649722,0.0730457842088551,0.0696734175870721,-0.1153745010242162,1.083,6.0,0.024715866,-0.015430551,0.979839285,-0.132094185,-0.18376057,0.824203535,0.999543011911226,0.0037908806646473,-0.0225402642259383,0.0197821397185963,1.083,7.0,-0.03499568,0.028000965,0.978859157,0.02641712,-0.011268362,-0.571191926,0.9738689569628424,0.0402851961128026,0.1881855078707362,0.1205925879384444,1.084,8.0,0.009819778,-0.049344391,0.978830784,-0.168868299,-0.131732846,0.195517485,0.9959864235474488,-0.0885523913108301,-0.0125990692959243,0.0032835278545685
18,18,1.217,0.0,0.057049866,-0.060656595,0.976169601,-0.29455216,-0.532554215,0.783907635,0.9862512002579994,-0.0503340012898439,-0.0616414282537982,0.1448288390709571,1.217,1.0,0.040708435,-0.025742808,0.978168253,0.260044715,-0.351354579,1.39158633,0.9663034949137438,-0.0123188737269863,-0.0393815103464957,0.2540765587582053,1.217,2.0,0.012476398,-0.039354807,0.979066156,0.104609632,0.228978578,0.906892483,0.9732454365386624,-0.0262108191298128,-0.0066556492957696,0.2281710225897761,1.217,3.0,0.079076042,-0.070449611,0.972994261,-0.438787014,-0.762024103,1.259920236,0.9756679336768592,-0.0525365604161319,-0.080295148944158,0.1971412743958135,1.217,4.0,0.087288044,-0.095683724,0.971606619,-0.746502859,-0.817421024,0.927870989,0.9773421457169408,-0.0759911078345255,-0.0897652359687345,0.1759826245598273,1.126,5.0,-0.081458983,0.06285809,0.974982715,0.13149897,0.262870283,0.173463762,0.9881864289653014,0.0780375719870636,0.0780244408114758,-0.1063480399594908,1.126,6.0,0.038270726,-0.026000158,0.97909823,-0.075811943,-0.150387903,0.544419357,0.9984542708314814,-0.0021240452543478,-0.0297813062001319,0.046878900276628,1.126,7.0,-0.029531671,0.024121434,0.97916548,-0.070805117,-0.25153525,0.205408196,0.977936341465672,0.0373427452666618,0.1582982271982656,0.1311018790199904,1.126,8.0,0.024482957,-0.063849447,0.978059729,-0.225158153,-0.246127539,-0.026997135,0.9952428897122724,-0.0941176712378527,-0.0250103559588889,0.0028171852511578
19,19,1.322,0.0,0.078228793,-0.080181279,0.973478925,-0.180899389,-0.36385505,0.718281119,0.9789284156074768,-0.0571859424282955,-0.0770595006620541,0.1802519305376162,1.322,1.0,0.043046996,-0.003348528,0.978002936,0.391878663,0.166426429,0.678748586,0.9576322192898368,0.004612588271353,-0.0248094867620093,0.2868862945037054,1.322,2.0,-0.021032639,-0.020571478,0.979641487,0.400616304,0.524758303,0.541987234,0.966973113722053,-0.0116379563059167,0.0250650911880558,0.2533758009665363,1.322,3.0,0.120712322,-0.103642046,0.966855657,-0.38469501,-0.908031907,1.681642857,0.9509002711864244,-0.0671964693827731,-0.1203821099003633,0.277094670421522,1.322,4.0,0.133960564,-0.145328136,0.96033239,-0.776076776,-1.054484383,1.40797679,0.9540454874803138,-0.1083505485807123,-0.1380410658456907,0.2429033358784818,1.155,5.0,-0.091436712,0.045506437,0.974378516,-0.472161901,0.083654019,-0.720159078,0.9855886620875274,0.0473839214919356,0.0829024496071693,-0.1396314326994261,1.155,6.0,0.031343937,-0.009024643,0.980020976,0.530450481,0.204370341,-0.855367172,0.9995499293712962,0.0250106778747781,-0.0158565810130782,0.0047930704831375,1.155,7.0,-0.008220163,0.017839879,0.979766895,-0.110031112,-0.28126674,0.432832662,0.9793315795595352,0.0343794297183451,0.1280198186607639,0.1527698861678321,1.155,8.0,0.032719056,-0.071745771,0.977157105,-0.087637051,-0.154055417,0.281018736,0.9950392888428624,-0.0930697015135507,-0.0305591611248059,0.0173488325433607
20,20,1.36,0.0,0.095977722,-0.095119315,0.970343544,-0.166336013,-0.327498444,0.568055995,0.971879451612322,-0.0626770428650634,-0.0906751068922755,0.2080863878813265,1.36,1.0,0.023192463,0.022491548,0.979447926,0.442824306,0.336807589,-0.283896904,0.9616233992883898,0.0224082034597221,-0.0002552029685271,0.2734561120732075,1.36,2.0,-0.081433869,-0.006188897,0.975922242,0.135960881,1.25515875,-0.84072994,0.9735019276144744,-0.0220945803367627,0.088330890372401,0.2097700652063194,1.361,3.0,0.165697059,-0.152792663,0.953566928,-0.49278995,-0.914259071,1.779685782,0.9161038322358912,-0.0860923861332152,-0.1593467362216838,0.3577016735606655,1.361,4.0,0.190510237,-0.209274842,0.937972755,-0.791153188,-1.161358333,1.243490481,0.9245901308867484,-0.1364380021960651,-0.1908556993086283,0.3001530667259398,1.229,5.0,-0.126959634,0.021322861,0.971172789,0.556358816,1.015530299,-1.316842344,0.9676824036508692,0.0730692042245066,0.130721305493975,-0.2028881399895634,1.229,6.0,-0.002250274,0.02671349,0.978532741,0.195728978,0.611355803,-0.2139245,0.9992793280534198,0.0336617716118488,0.0168119906488458,-0.0050066583147361,1.23,7.0,0.004840798,0.004565248,0.980209021,-0.138200266,-0.109120047,0.00457701,0.98175494875374,0.0253275625134503,0.1087675963038044,0.1539004391447955,1.23,8.0,0.052160655,-0.081038287,0.974387019,0.060265443,-0.245566591,0.192774195,0.9951220288052766,-0.0849505462584169,-0.0415817685113538,0.0280447678602503
21,21,1.412,0.0,0.096799098,-0.105719436,0.969362334,-0.039206196,-0.200790275,0.448126866,0.9663396163103908,-0.0625023213540418,-0.0962925749439652,0.2302367168483421,1.412,1.0,-0.006534565,0.049926591,0.9786591,0.523594503,0.519807414,-0.595444607,0.9681865596576996,0.0407618686941341,0.0343235897676125,0.2444895640803807,1.412,2.0,-0.165155713,-0.00383719,0.966169171,0.227392235,1.571597393,-0.806496399,0.971829240243002,-0.0307046435203305,0.1649105606649823,0.1655586290597991,1.413,3.0,0.202235943,-0.202123644,0.936585637,-0.362822575,-0.875473064,1.852600474,0.8724925985818993,-0.0982651436852919,-0.1920863810840222,0.438410138065211,1.413,4.0,0.231875755,-0.268581259,0.911883623,-0.828885066,-1.061673192,1.17740926,0.8906729090239522,-0.1645580661090367,-0.2372819748911646,0.351169014010367,1.337,5.0,-0.227347234,0.095457412,0.948470409,0.683481609,1.190353122,-0.336097963,0.9523957988666044,0.1152000194024679,0.1795596080966967,-0.2177832522740755,1.337,6.0,-0.068298443,0.021555202,0.977517108,-0.374551013,0.982947235,0.335927788,0.9975402054838224,0.0132127818064153,0.0674734191282445,0.013649122732753,1.337,7.0,0.029962728,-0.008882619,0.978779512,-0.210601145,-0.535959748,-0.209205887,0.9871025972528612,0.0151689312681769,0.0684316523465497,0.1439287149180379,1.338,8.0,0.076441142,-0.082583634,0.972369629,0.021432581,-0.416478774,-0.239193132,0.9947655987879288,-0.0784172892099544,-0.0630572944305567,0.0177738527099237
22,22,1.486,0.0,0.071334498,-0.113040425,0.971082001,0.089537897,-0.071848782,0.330146856,0.9628208601389694,-0.0574818326367477,-0.0930567511461951,0.2470066219033233,1.486,1.0,-0.043175677,0.082309781,0.975699729,0.468307747,0.27656157,0.095432295,0.965322192382914,0.0595982356522403,0.0528354135342462,0.2486152333966072,1.487,2.0,-0.22951835,0.038024142,0.950482242,0.663787239,0.863292551,1.182577698,0.9544770843785622,0.0065697312854379,0.2063916276287051,0.2152506215364085,1.487,3.0,0.217638685,-0.24286589,0.922844278,-0.354784248,-0.580371247,1.598689604,0.829999903755267,-0.1121050464329818,-0.2113070184130334,0.503867008544815,1.487,4.0,0.266302387,-0.331533047,0.883232629,-0.49967055,-0.84384083,1.127111695,0.8578543816171457,-0.1793149441292054,-0.2675748013133061,0.4004194506443826,1.38,5.0,-0.281309724,0.095163644,0.934436044,0.406652463,0.279520775,-1.817801483,0.9255736966268676,0.1169730457726728,0.1933407544037773,-0.3037268367492697,1.38,6.0,-0.120028761,-0.031546189,0.972205192,-1.319688966,0.59553613,-1.553754783,0.9922626264594678,-0.0609372671361752,0.0903794093127798,-0.0594398181188836,1.38,7.0,0.079593763,-0.033497117,0.976568879,-0.431612165,-0.775850868,0.064143013,0.9889418806326606,-0.0030075173784488,0.0158621306891058,0.1474221977178356,1.381,8.0,0.119927961,-0.088777517,0.969124263,-0.089608176,-0.571572259,-0.194934507,0.9926123705213116,-0.0783219304368028,-0.0921414740166556,0.0098135552555069
23,23,1.547,0.0,0.055479388,-0.10707015,0.972805747,0.244139196,0.011514529,0.266746632,0.9605718270745686,-0.045982105954542,-0.083701823155079,0.2611157133592809,1.547,1.0,-0.049114961,0.102512926,0.972950575,0.200416912,0.06630467,0.035807704,0.9642379805217746,0.0670221841525938,0.0568604504697624,0.2500400626361336,1.548,2.0,-0.279908543,0.076985656,0.935962294,0.29318567,0.579840597,0.215000936,0.9469322313309788,0.016472495344974,0.2311686143938955,0.2227309540294073,1.548,3.0,0.20972101,-0.280055544,0.915147524,-0.272359141,-0.191997824,1.388544633,0.7923487413775024,-0.1285389080029418,-0.2125063235366013,0.5572273177293591,1.548,4.0,0.278170029,-0.368847281,0.864369781,-0.000247241,-0.533386884,1.178766324,0.8289396839472313,-0.1781656490586068,-0.2736977421194452,0.4540986102507995,1.484,5.0,-0.319986831,0.103889626,0.920366978,0.328267384,0.878730646,0.93801218,0.92938328628087,0.1530117690450105,0.2165265531670343,-0.2568080167928766,1.484,6.0,-0.216392418,-0.058863992,0.954045257,0.028543378,1.359343548,2.154478266,0.9847153931412388,-0.0417287430269998,0.1631928221998526,0.0442990891388264,1.484,7.0,0.138752413,-0.072332616,0.967078984,-0.815451816,-0.500656431,-1.196348306,0.994862025754509,-0.0431646615884208,-0.0268318160230788,0.0875580684488612,1.484,8.0,0.159670993,-0.091561373,0.962820175,-0.113765441,-0.650353936,-0.212854807,0.9890773886086456,-0.0794194972903343,-0.1241667023703834,0.0010453782654466
24,24,1.628,0.0,0.052633775,-0.089062709,0.973602342,0.321343199,0.067959572,-0.041300178,0.9623512566280236,-0.0303144748292005,-0.0717238848503159,0.2604165429159076,1.629,1.0,-0.046509403,0.109161854,0.97289751,0.082078658,-0.173466463,0.092194503,0.9634773400558408,0.0715089497218561,0.0472175854185447,0.2537092527596132,1.629,2.0,-0.279188927,0.101036077,0.933123386,0.220287904,-0.379792087,0.804844196,0.943090959822466,0.0404828689120462,0.2061212023144899,0.2577879531363308,1.63,3.0,0.197750609,-0.295305804,0.912669808,0.224210156,-0.077318748,0.363292181,0.784539628551225,-0.1154605268384855,-0.2031341388395723,0.574371795627876,1.63,4.0,0.273761963,-0.373683367,0.862892884,0.364942781,-0.261408516,0.702455063,0.8150989306131895,-0.1598297290591816,-0.264998877902306,0.4897384870853243,1.597,5.0,-0.353453717,0.130831101,0.904551653,0.045821944,0.363218141,0.985366663,0.9386119400223744,0.1665026854519786,0.2188323564449128,-0.2083191819239903,1.596,6.0,-0.283509759,-0.030634596,0.937663446,0.085388426,0.510264601,1.250670608,0.976321099269862,-0.0265339450514575,0.1878431722816749,0.1039615482168833,1.597,7.0,0.212837513,-0.128834424,0.947484503,-1.168237458,-0.894402998,-2.230337404,0.9905734187579464,-0.0951313190319536,-0.0952944530801132,-0.0251654803569729,1.597,8.0,0.210986568,-0.087423413,0.951703113,-0.035506331,-0.708458179,-0.808450453,0.983725287206985,-0.072613159251909,-0.1602259480077776,-0.0365996447797081
25,25,1.683,0.0,0.046235467,-0.066982544,0.976346056,0.316952969,0.125715726,-0.152727701,0.9653522421334704,-0.01574879870953,-0.0576406395836791,0.2540168904137532,1.683,1.0,-0.023197082,0.10169119,0.974210859,-0.402625952,-0.43627864,-0.075577201,0.9667118721882044,0.0549350069981026,0.0189610587363993,0.2491802147605024,1.683,2.0,-0.216533555,0.107850635,0.949672291,-0.194386146,-1.288549459,0.080599201,0.955387341319802,0.0468449149718236,0.1330356975818486,0.2595035359221015,1.684,3.0,0.198603063,-0.25824453,0.924616994,0.857281485,0.362036961,-0.990602271,0.8231649100676611,-0.0735396343429444,-0.1630347345126011,0.5388980686144746,1.684,4.0,0.273293182,-0.337665332,0.877707788,0.668786483,0.455880463,-0.802172146,0.8487914337271374,-0.1238192596430827,-0.2289623429202035,0.4602153175388241,1.631,5.0,-0.333736191,0.141116388,0.909181126,0.01086902,-0.519426127,0.499381624,0.9510391233742356,0.1612905381558302,0.1832986465963598,-0.189503441311525,1.631,6.0,-0.253247284,-0.002097653,0.946541818,-0.43770104,-1.07973939,0.255515745,0.9837002423186266,-0.0388594729417284,0.1267509077851775,0.1214824349467845,1.631,7.0,0.266654726,-0.136939627,0.932787112,-0.691621313,-0.22654581,-2.229189543,0.9761830835624372,-0.1159765235685591,-0.1217254462168532,-0.1371092596828926,1.631,8.0,0.29800084,-0.074645836,0.930389971,-0.147230761,-1.439322063,-1.331303969,0.9652381528857008,-0.0686822146552482,-0.2325125481556782,-0.0976523248776208
26,26,1.745,0.0,0.037612069,-0.047281045,0.978464529,0.24106184,0.088683668,-0.38575167,0.970622172984587,-0.004326259949666,-0.0470417400126799,0.2359257414571498,1.745,1.0,0.020584595,0.077933988,0.97639263,-0.25311504,-0.797547295,0.356215119,0.962877972273188,0.0515923264573196,-0.0254333634047265,0.263737343559304,1.745,2.0,-0.105386941,0.072640162,0.970157719,-0.717938211,-1.786999977,-0.19504275,0.9680331724080508,0.0311173777930238,0.029823975880942,0.2470911094708675,1.745,3.0,0.189345546,-0.183356592,0.94348748,0.7496912,0.482126397,-1.716216,0.8755876578089823,-0.034604889390815,-0.1214567183428558,0.4662585341762806,1.746,4.0,0.240677635,-0.254966244,0.915511054,1.503315557,0.720096014,-0.128719191,0.8697854018415094,-0.0665859522241036,-0.1573954582151367,0.4628891178706414,1.682,5.0,-0.284394509,0.181933813,0.919827077,0.266476172,-0.836317304,0.76108932,0.9638271250204036,0.1688968784794574,0.1280117248775555,-0.1616295635354867,1.681,6.0,-0.167177566,-0.032674242,0.965225391,0.059057862,-0.824922072,-1.22625039,0.9942664867194612,-0.0373884161740713,0.0790338770461885,0.0615622124487227,1.682,7.0,0.268499692,-0.114012859,0.935608349,1.271780785,0.341549183,1.529834734,0.990935651236153,-0.0554438032989098,-0.1091942404648763,-0.0552189970411603,1.682,8.0,0.401655205,-0.066625743,0.890925421,0.058585474,-1.823732339,1.215862389,0.946227356210739,-0.087253157993354,-0.3099727459535642,-0.0309446852404297
27,27,1.82,0.0,0.045815797,-0.036810453,0.978208517,0.024658783,-0.300483947,-0.505573989,0.9756122885150558,0.0007692595627081,-0.0593766424108749,0.211316078598274,1.82,1.0,0.060220836,0.039988891,0.976021178,-1.04532565,-0.68845996,-0.525157871,0.9696165883293604,0.0081415791518399,-0.0721700586521625,0.233599805136026,1.82,2.0,-0.010220639,0.024939136,0.978700965,-0.58881342,-1.425151232,-0.414479175,0.9733629866340016,0.0172855181603534,-0.0486857359976724,0.223372796515666,1.821,3.0,0.165733072,-0.114766022,0.95948075,0.323004105,1.053945652,-3.166293606,0.9477989657365936,-0.0218227356443443,-0.0644557462133137,0.3115226244395832,1.821,4.0,0.174464601,-0.146772111,0.951827217,1.447540697,1.577649635,-1.470134498,0.9173980460949755,-0.0202480041311488,-0.0480314885425236,0.3945425445477527,1.74,5.0,-0.210661211,0.209922971,0.934145171,-0.549136911,-0.746441616,4.469523208,0.984736524197188,0.1550940973539254,0.0537073571687715,0.0579251125502421,1.74,6.0,-0.065502901,-0.01551232,0.977088398,0.150143124,-2.112809157,1.312099283,0.9911976896825274,-0.0153295255642249,-0.0294386964595752,0.1281620410447516,1.741,7.0,0.125910095,-0.021974602,0.972093496,2.766973318,3.963592984,1.652836429,0.9920915144743676,0.0895040708011553,0.0807886542099667,0.0348803894605542,1.741,8.0,0.470515543,-0.11787629,0.850855043,0.911978005,-1.287836281,4.040243619,0.9188022088833684,-0.1051206970657282,-0.3366163004471975,0.1773178114930938
28,28,1.892,0.0,0.071949085,-0.037270958,0.97652353,0.026137075,-0.317234738,-0.281574998,0.9775746316086736,0.0050760405653412,-0.0725803775001395,0.1976212596085818,1.892,1.0,0.087833679,-0.033858147,0.974950702,-1.2422573,-0.217171232,-1.149875645,0.9793314084545574,-0.0475015951180748,-0.0972474699486696,0.1708698933815839,1.892,2.0,0.097708915,-0.028359149,0.974763421,-0.935503438,-1.509007027,-0.488294551,0.9720096241996412,-0.0122957634493242,-0.1328481969194827,0.1933842321382821,1.892,3.0,0.087581759,-0.069277544,0.9735225,0.357307414,1.649636577,-3.028209319,0.9873536327331522,-0.0193714818715398,0.0215260958416308,0.1558658936925114,1.892,4.0,0.073239256,-0.055660351,0.974566538,1.66220902,1.931747748,-0.46119438,0.9271774601832744,0.0210551058236647,0.0751293456626879,0.366407179606436,1.802,5.0,-0.121399799,0.208941291,0.94971555,-0.415372916,0.113446292,1.453445589,0.9812851276376572,0.1327513366011645,0.0496857743787189,0.1303376566159542,1.802,6.0,0.049030046,0.000497757,0.978785884,0.306275276,-1.539175981,1.637332057,0.9727106029858882,0.008909725948099,-0.1024338994912142,0.2079951822936857,1.802,7.0,-0.231817628,0.168933322,0.937035816,1.29587262,4.548776543,4.646662566,0.9167652385290592,0.1547069562594553,0.2558031527198793,0.2648999852175575,1.802,8.0,0.463138388,-0.213854162,0.836578287,-1.837328177,-0.244064458,0.205688894,0.9034971688047292,-0.1853391631964685,-0.3538334463697158,0.1553838884106096
29,29,1.988,0.0,0.09009972,-0.032637023,0.974269401,0.011162103,-0.291402739,-0.225786291,0.9787882578615412,0.0080930512253902,-0.0842209196272738,0.1865874741009391,1.988,1.0,0.112203676,-0.096998149,0.968997262,-0.935521366,-0.293693739,-1.169556195,0.983086794500991,-0.0843169133835712,-0.1210714346228743,0.1085021673220983,1.988,2.0,0.14935589,-0.083176051,0.964828774,-0.887432717,-0.880950074,-2.008319059,0.9787358464845772,-0.0353624227243935,-0.1821390578817193,0.0874700260611546,1.988,3.0,-0.009565664,-0.029194035,0.979822538,0.563036327,1.653693545,0.482258211,0.9788460266823426,-0.0036807675892006,0.104959938183774,0.175585646835393,1.989,4.0,-0.003733366,0.082654212,0.97686813,2.123949551,0.827377878,1.601770538,0.8881339808451436,0.1079235868187056,0.1359868946667319,0.4255327201934562,1.909,5.0,-0.092338724,0.157082078,0.962756865,-1.273465347,-0.583310792,1.082983059,0.9809411187029008,0.0703630321923553,0.0095142382533753,0.1808674780303435,1.909,6.0,0.144614443,-0.026467496,0.968861257,-0.446180043,-1.063890561,1.165491033,0.9531470562737532,-0.0079563657995025,-0.1543710051476159,0.2600326481995253,1.909,7.0,-0.40144909,0.203864055,0.869730461,-0.151989286,2.030503739,-0.094326902,0.8927650344332124,0.1092988019409739,0.3415316657883838,0.2727278615241656,1.909,8.0,0.4357727,-0.329756749,0.813111088,-0.039114216,1.174809914,2.452554095,0.90278455431958,-0.2329321327425943,-0.2608010089887893,0.2504106701568708
30,30,2.035,0.0,0.109553642,-0.019917294,0.973401408,-0.087427225,-0.159120253,-0.208185295,0.9802467285876244,0.0054104060882312,-0.0900423117016391,0.176009831267021,2.035,1.0,0.132393619,-0.127819111,0.962961165,-0.5023212,-0.249454324,-1.243686818,0.9847222152646364,-0.0973315713793474,-0.1372201878138571,0.0449371119840149,2.035,2.0,0.22500704,-0.106460699,0.948073811,-0.590117686,-1.120258725,-1.736863697,0.9707973706604932,-0.0440511334240803,-0.2358177184278738,-0.0014022974716568,2.035,3.0,-0.089410232,0.029206735,0.975441324,0.991370092,0.83370733,1.090232842,0.9631136294798508,0.0434966320651375,0.1455147197946093,0.2221387990249228,2.035,4.0,0.002194844,0.226691081,0.953368416,2.343270118,-0.197131525,1.947506755,0.8324717400434687,0.2223207480739053,0.1469130621463631,0.4857785906929591,2.025,5.0,0.007723558,0.103300193,0.974028448,-0.683511662,-1.502860944,2.067133631,0.9581051842306468,0.0498146453800229,-0.0742134697052667,0.2721126935119464,2.025,6.0,0.166509502,-0.042764113,0.964857926,-0.711209839,-0.62662448,0.741616787,0.9384424177657724,-0.0380208247464559,-0.1849564502024707,0.289260016165443,2.025,7.0,-0.478968058,0.159586532,0.839658703,-0.467013021,0.598201897,-0.65158125,0.8976499370220483,0.0595727407954075,0.3563342313416435,0.252391748463764,2.025,8.0,0.175777982,-0.22894182,0.936739955,2.950462144,5.023034618,0.755129057,0.9616661358448596,-0.1374474885819,0.0453321017222834,0.2329193671749634
31,31,2.131,0.0,0.11003965,-0.021547611,0.973076038,-0.025807305,0.067004826,-0.159721138,0.9821975864717782,0.0036439107139534,-0.0836735468972797,0.1681468423531987,2.131,1.0,0.152316565,-0.142894721,0.956812815,-0.328288734,0.032210823,-0.861244681,0.9852572670930207,-0.1048191456313808,-0.1352072787367292,0.0002369094926432,2.132,2.0,0.287413043,-0.105447157,0.930913874,-0.424901417,-0.462281103,-1.675464413,0.9627120185312809,-0.0456669804388664,-0.2524763430553202,-0.0857659167177458,2.132,3.0,-0.122973653,0.086525373,0.968436286,0.750340972,0.339142517,0.3823655,0.955275433726416,0.0769075761498191,0.1611722713878728,0.235706532334684,2.132,4.0,-0.00656634,0.318411924,0.926995539,1.06657984,0.143740626,-0.960741209,0.8438950416507627,0.2483015872606963,0.1845687438662597,0.4383170761317741,2.07,5.0,0.085720726,0.102931847,0.970977854,0.430101432,-0.87935161,-1.47149848,0.9710406049042344,0.089215689375082,-0.0995888812149231,0.1979968664774957,2.07,6.0,0.171570401,-0.068060656,0.962124391,0.21106059,-0.155206941,2.340349667,0.9006730837553814,-0.0448100375962906,-0.1740827487744007,0.3955695303083131,2.07,7.0,-0.358604606,0.128396305,0.902760281,-1.135028553,-3.949515509,0.203742987,0.9570302766043404,0.0518247521296396,0.1303006255697013,0.2538286660435839,2.07,8.0,-0.072030355,-0.073193465,0.974614459,1.565322636,3.564671841,-2.058811614,0.965911169180986,-0.0944846516668387,0.2225775582266681,0.0924526604520984
32,32,2.168,0.0,0.090047458,-0.024925404,0.975505602,-0.105427922,0.402189954,0.153177018,0.982605247253576,-0.0063973863467342,-0.0611126124990735,0.1752462556267814,2.169,1.0,0.151366943,-0.151562495,0.954820852,-0.19586608,0.158059708,-0.222548958,0.98618903277572,-0.110269510924568,-0.1229310014990863,-0.0126410230510804,2.169,2.0,0.301975495,-0.106476546,0.926236765,-0.259537634,0.079234711,-0.542591499,0.9628145234210378,-0.0531112122318325,-0.2389239884794211,-0.1143797200288165,2.169,3.0,-0.130147503,0.118374933,0.964061203,-0.056967257,-0.001581987,0.197541355,0.9546013447211056,0.0724317976475631,0.1516082275036921,0.2459773418414545,2.169,4.0,-0.022124119,0.346494364,0.916683795,0.056488069,0.040258206,-0.700802111,0.8613509822621925,0.2339432257137806,0.1868207265487703,0.4104181631341099,2.147,5.0,0.190367526,0.033315579,0.960749331,-0.887656713,-1.35000358,1.155725272,0.9533886579575924,0.0489719022711248,-0.174374064016466,0.2413410563168838,2.147,6.0,0.191880987,-0.119735383,0.953337886,-0.745856516,-0.540125254,0.828022584,0.8784520910832149,-0.0714018581915122,-0.2037168714727478,0.4262899653940758,2.148,7.0,-0.241844333,0.131802703,0.939440454,0.26818003,1.978400931,2.765811078,0.8990012833483023,0.0546470768074217,0.2143978138069044,0.3779470425460808,2.148,8.0,-0.26986755,0.015647063,0.941466237,3.098704646,1.815280767,3.019128471,0.9317260152094582,0.0846780186773433,0.2961667470873427,0.1923578011271849
33,33,2.266,0.0,0.052746229,-0.037758206,0.977942306,-0.118232538,0.711971239,0.201277128,0.9823971045951474,-0.0198306731489694,-0.023811737537825,0.1842163794046548,2.266,1.0,0.119701238,-0.16604464,0.95863538,-0.136865888,0.694847456,0.392591337,0.9899786840681264,-0.1164676163076574,-0.0798217804017876,0.0024459795260185,2.267,2.0,0.282830282,-0.120006437,0.93075372,-0.174679243,0.566379681,0.308451891,0.9724972328554962,-0.0644636168617315,-0.1992426567255646,-0.1019604723922244,2.267,3.0,-0.116672393,0.087652177,0.968592612,-0.889274885,-0.310155669,-0.383631265,0.9651148994412578,0.0259247674236422,0.1177769645331844,0.2323999224093453,2.267,4.0,-0.03019706,0.281893301,0.938352442,-1.61341681,-0.294012329,-0.5476556,0.8960245049065466,0.1509402976579894,0.1336451290511061,0.3955958703409434,2.174,5.0,0.250694986,-0.030724919,0.946312846,-0.49197784,-0.305243955,1.61132961,0.9309493296354876,0.0124485090497758,-0.1906460776571251,0.311179133856413,2.174,6.0,0.217042136,-0.21289644,0.931384892,-0.983054182,-0.631274071,1.892637582,0.8278031303090633,-0.1158713955287678,-0.2341938512771834,0.4964564806432611,2.174,7.0,-0.207911737,0.197207969,0.937265558,-0.188993802,-0.125597929,1.568527517,0.8707945542931635,0.0652642803972761,0.1924825539970239,0.4476693917662664,2.174,8.0,-0.331030819,0.16670484,0.906514806,-0.936002819,0.151276469,2.471254785,0.9057195341944244,0.0732188185216856,0.272160429439446,0.3166067444642633
34,34,2.301,0.0,0.005155004,-0.036831062,0.979044891,0.095271747,0.712652565,0.198146681,0.9808616144213552,-0.0217563829305076,0.0140204871517603,0.1929781829548134,2.301,1.0,0.058416825,-0.167551642,0.964287779,0.24675654,0.665346491,1.402818593,0.991326934880116,-0.1064446272682469,-0.0341609075971997,0.0690903893392828,2.301,2.0,0.226736483,-0.128800194,0.943836361,0.412978402,0.916686652,1.518776987,0.9879865083797646,-0.0555122495001903,-0.1420058703105326,-0.0252067890128442,2.301,3.0,-0.088554109,0.034223953,0.975133781,-0.601809562,-0.754963133,-0.725039516,0.9777908728478694,-0.0010360459881964,0.0666274666848641,0.1987076150208377,2.302,4.0,-0.004868984,0.147893207,0.969084564,-2.182017496,-0.496640025,-0.18930785,0.917136834912531,0.0502936696259908,0.0578666468271758,0.3911291654008371,2.265,5.0,0.216222177,-0.07572131,0.95247323,-0.406355436,1.366195592,0.412398491,0.9368347954921842,-0.0331152758318654,-0.1245408823428534,0.325166900355741,2.265,6.0,0.164370832,-0.374992762,0.890014415,-2.66787685,0.680727728,3.887141369,0.7219307700658174,-0.274893137843802,-0.2158122999949887,0.5972225524621768,2.265,7.0,-0.234231017,0.160180652,0.93778835,-0.826922683,0.509617873,-0.201210242,0.8737882495803432,0.0111443187244364,0.1914698427031863,0.4468883511467997,2.265,8.0,-0.223330117,0.048554408,0.951924434,-0.648601564,-1.330934905,0.339904147,0.9230268603529992,0.0601047502860315,0.1835935528477129,0.3327194635315054
35,35,2.355,0.0,-0.014632237,-0.050739101,0.979222366,-0.206625595,0.114569494,0.411123687,0.9763459309448148,-0.0331592180509099,0.0171339864925801,0.2129683448135599,2.355,1.0,-0.035340244,-0.303052611,0.960033428,0.084719879,0.601602006,5.108325448,0.9448921248086712,-0.1141192159934443,0.0285835761143795,0.305513757778778,2.355,2.0,0.299965658,-0.241222035,0.932530715,0.820852322,-0.559207457,5.057583734,0.960313999146128,-0.0564323415682656,-0.1517918370841067,0.2270939278442409,2.355,3.0,-0.12682158,0.042476238,0.980472364,-0.418383577,-0.007780563,-1.514635896,0.9900659359683244,-0.025759706393562,0.0600224805008351,0.1245117737252575,2.356,4.0,-0.041719551,0.182464388,0.991598319,-7.324787178,1.810133039,-6.239549308,0.93429473900031,-0.3424991015727166,-0.0983983628716659,-0.0102697751874296,2.33,5.0,0.018708463,-0.007206598,0.978780393,2.266974675,3.952365257,-1.561228192,0.964930996462834,0.0276225106779543,0.1190322752747549,0.232328402077756,2.33,6.0,0.017951664,-0.446978074,0.871345132,-1.739094004,1.175580832,1.045516008,0.6828819057245855,-0.3714067173431157,-0.2023837822992127,0.5956258538786191,2.33,7.0,-0.212638549,0.154001224,0.944465177,-0.277420321,-0.051562632,0.962286524,0.8531395153102148,0.0106219405632157,0.1767887039631563,0.4906993946867583,2.33,8.0,-0.113735526,-0.046157946,0.972432864,-1.763239647,-1.438318095,-1.849100617,0.9661585773180588,-0.0292998503007364,0.0668574591500139,0.2474049360928419
36,36,2.409,0.0,-0.004303846,-0.042782836,0.979371281,-0.067920699,0.010851285,0.266868397,0.9733798728799498,-0.0352157036019252,0.0154514899725541,0.2259485090671375,2.409,1.0,0.031628929,-0.126163195,0.971663758,1.450920718,-0.354633703,2.807096767,0.9031915275609532,-0.0326632012756895,0.0329265091513081,0.4267247647133274,2.409,2.0,0.156782932,-0.097645269,0.962487669,1.682893325,1.256331479,3.480176505,0.919501623498742,-0.0155533347614943,-0.0639311299780567,0.3875405382417477,2.41,3.0,-0.036047056,-0.017722774,0.979440408,-0.910399168,-0.748724981,0.135655295,0.9887762853048842,-0.064218986658308,0.0133987554639173,0.1342305953323336,2.41,4.0,0.010768197,-0.005000951,0.979565739,-4.177994043,-0.022988968,-1.993394131,0.8583601013426175,-0.4789624229849654,-0.135948090029506,-0.1238186197984439,2.384,5.0,-0.350373325,0.29830322,0.865403213,1.981714618,1.546079788,-5.258129084,0.9655204070918376,0.0831005603824606,0.2415328997077109,-0.0502642886363478,2.384,6.0,0.262379518,-0.378133532,0.865307472,-0.576807054,-1.735249249,-4.631090169,0.7951446899249459,-0.2640763355033791,-0.3510555863131778,0.4180533296477607,2.385,7.0,-0.215886014,0.088890739,0.951470791,0.019324397,-1.75520172,-4.552861745,0.9616129643047624,0.010936446423916,0.0856864877350393,0.2604586854767138,2.385,8.0,-0.077460413,-0.109718192,0.970945829,-0.177114448,0.104855434,-1.364332033,0.9805574279458604,-0.0473071704531944,0.0621821046178612,0.180007077608644
37,37,2.439,0.0,-0.002261436,-0.034252992,0.979636473,0.070948567,0.04701729,0.178290731,0.9715076320365869,-0.0303722436553787,0.0169852044070375,0.2344396522375285,2.439,1.0,0.051252628,0.008482542,0.978835642,1.78372783,-0.164165781,0.32837428,0.897243994636202,0.0562130069744649,0.0570978480596848,0.4342040392293847,2.44,2.0,0.016408429,0.012353955,0.979928132,1.616581232,2.422499516,1.142754975,0.8991802070996363,0.0094611229523018,0.0817781385167826,0.4297647942461857,2.44,3.0,0.039440226,-0.056225576,0.977650323,-0.828888429,-1.253506723,1.505674252,0.9720595390729058,-0.0910261343838878,-0.0499281990555664,0.2105271248451467,2.44,4.0,0.06340407,-0.139770359,0.96787508,-1.440851699,-1.416140259,1.866003144,0.8402209113162322,-0.526561409284137,-0.1278371663944465,-0.0204831962316096,2.437,5.0,-0.498044256,0.390704092,0.814282034,3.77163503,1.707134198,-2.234024771,0.8944256676623041,0.2386168269089683,0.3281187544443514,-0.1881563656234478,2.49,6.0,0.257272304,-0.278547224,0.903340138,2.141796664,1.784746405,-2.250492526,0.9077574321961656,-0.1428312186840227,-0.2234890344395311,0.3250051364934818,2.437,7.0,-0.172070089,0.040367893,0.975443652,-1.962382325,-3.265250649,-6.650886251,0.9848772198245964,-0.0749119352155917,-0.129612790977144,-0.0872100237813485,2.437,8.0,-0.072597456,-0.131491499,0.969816784,1.299874959,0.547725972,0.402720342,0.9764029013114268,0.0100534399062124,0.0965676944178111,0.1929014853532983
38,38,2.493,0.0,-0.001725215,-0.033436812,0.979421259,-0.043622246,-0.148308841,0.255807782,0.9685408663430198,-0.0291718208223959,0.0076583078991568,0.2470201315956659,2.493,1.0,-0.033072292,0.069789429,0.97717023,0.592182052,1.408689847,-1.219066851,0.9153838725259752,0.0459671892450931,0.1343607766163368,0.3767048780402364,2.493,2.0,-0.135408717,0.05394559,0.968672469,0.254811024,2.113177245,-0.999104642,0.9079028543258358,-0.0297344808387082,0.1805659140771544,0.3771262632457917,2.493,3.0,0.103916999,-0.076957695,0.971740588,-0.122618134,-0.929375992,2.631636508,0.9343970288109756,-0.0867291307929667,-0.0837587957340629,0.3352084643297316,2.494,4.0,0.111453463,-0.218556014,0.949058162,-1.165936037,-1.126755184,2.600006814,0.8188662855629874,-0.5557218641470695,-0.0940599000092622,0.1085539095907168,2.49,5.0,-0.495653999,0.32953112,0.778867995,4.529025578,2.840110185,0.118952926,0.7867583482970855,0.4400832721410889,0.3809268870457917,-0.2055060137612454,2.545,6.0,0.136074089,-0.037481156,0.969733987,3.960224723,3.260099425,-3.758464321,0.989372132119794,0.0651507765102561,0.0372304089399578,0.1245474092665386,2.49,7.0,-0.031573996,-0.062381913,0.977751287,-3.641529377,-2.977656516,-5.017461528,0.8800576399628816,-0.2086038890778504,-0.2776259764873955,-0.323893169091259,2.49,8.0,-0.035106905,-0.112832771,0.972520576,0.1961503,-0.658027903,-1.118963606,0.989033971588018,0.0136051015200166,0.0575118244047289,0.1353480487894131
39,39,2.574,0.0,0.01595123,-0.046442276,0.978787859,-0.282281826,-0.401973037,0.194606615,0.9656049274519664,-0.0369340311553028,-0.0170102403783264,0.2568144332886556,2.575,1.0,-0.065890615,0.097648848,0.97199235,0.50987528,0.302131988,-0.47794888,0.9217870898776724,0.0592698749037257,0.1508591048273722,0.352189115894334,2.575,2.0,-0.29288275,0.063521663,0.932738813,0.410538536,2.23162751,0.68359617,0.8725924888990436,-0.0472444030068286,0.2838401522575009,0.3946961903387713,2.575,3.0,0.12846581,-0.148521316,0.958625555,-0.795273978,-0.580071403,1.725197617,0.8973558468969193,-0.1161102536560801,-0.1131787358469032,0.4104405764394284,2.575,4.0,0.121907816,-0.303455671,0.923666141,-1.06173267,-0.594294075,1.817494274,0.7954767714961264,-0.5702189085749587,-0.070695778228885,0.1925336574583638,2.545,5.0,-0.617930761,0.382174612,0.657372908,1.342798458,0.232130721,-4.088971066,0.7117732203048744,0.3951802861704055,0.4427896596023156,-0.375697673174017,2.611,6.0,-0.190316721,0.139965255,0.951218836,0.884347577,4.390761122,-3.700047488,0.9583103168438888,0.0714635714953792,0.2711502963439564,-0.0548799724150364,2.545,7.0,0.136909271,-0.255212853,0.936331272,-2.137783841,-0.749605639,-4.692505914,0.765190128623612,-0.2291935699309772,-0.3001902576432949,-0.5213829530923758,2.545,8.0,0.074454322,-0.11450494,0.970926451,-1.21850949,-1.575563821,-5.494776329,0.9866408247271308,-0.0586488580509963,-0.0568992833341813,-0.1409349707742465
40,40,2.671,0.0,0.040811223,-0.058321127,0.977092672,-0.092396716,-0.399617045,-0.240558937,0.967967574842251,-0.0347108450107832,-0.0390305177418274,0.2455820636313923,2.671,1.0,-0.084002745,0.129824561,0.967126735,0.410443693,0.273710793,-0.98153881,0.935929011377342,0.0648918576980935,0.1652084436850252,0.3041908982890413,2.672,2.0,-0.354781833,0.136082363,0.902999137,1.039760077,0.787216351,1.912883501,0.826750172940012,0.0108520350506678,0.3271812833815635,0.4575137076456967,2.672,3.0,0.148701752,-0.185148206,0.950689713,-0.435448706,-0.61602173,1.201715558,0.8665719108674501,-0.1231454169003835,-0.1407885245470999,0.4626736657167955,2.672,4.0,0.115565207,-0.376100661,0.897446364,-0.641606923,-0.54856738,1.740104251,0.7775173685874699,-0.5640505265872064,-0.0515424660782122,0.2732345497774536,2.611,5.0,-0.648778808,0.321265987,0.66011834,2.42805819,-0.552067716,1.055696824,0.7059802183518766,0.4852313487346804,0.3324467702379448,-0.3944890549296886,2.712,6.0,-0.332189823,0.082570575,0.918251067,-2.571399212,-0.674602071,-1.210737783,0.9674641807047092,-0.0735520898000806,0.2286266354898195,-0.0795802154056626,2.611,7.0,0.213027347,-0.291528825,0.910871722,-0.093256332,-0.179523712,-1.924639521,0.7211567870689443,-0.2046895797652043,-0.2991752892765529,-0.5903636258156769,2.612,8.0,0.203432802,-0.129931075,0.948867752,-0.389161182,-1.402568235,-4.060485862,0.9326577809162134,-0.0760821456087315,-0.1373942792200084,-0.324782670186743
41,41,2.713,0.0,0.056764711,-0.049240294,0.976935597,0.346810391,0.087656453,-0.561660698,0.9752342939744528,-0.0160054048718369,-0.0304526353003348,0.2184823468253296,2.713,1.0,-0.088073867,0.14358858,0.965401116,0.088603006,-0.094847215,-0.087243153,0.939144622993038,0.0688702381011771,0.1525598169331857,0.2999829489562106,2.713,2.0,-0.344192443,0.218605862,0.890439801,0.10283492,-0.083885107,0.364430597,0.8229279734033772,0.0231500415994269,0.3145242423132471,0.4725760543673718,2.713,3.0,0.163392503,-0.212885708,0.942274676,-0.186524172,-0.253648018,0.306768592,0.8577118204607777,-0.1210160569772607,-0.1526027668757745,0.4758129280898038,2.713,4.0,0.115056174,-0.404289279,0.884287993,-0.292526785,-0.160987379,-0.034989719,0.790114242340765,-0.5428139376827004,-0.0689334223801049,0.2762620067737263,2.712,5.0,-0.483583896,0.441372092,0.729119532,-2.666620104,-3.695764777,1.453013981,0.8659256476020804,0.3016331796614857,0.1783827232017273,-0.3568890609354054,2.759,6.0,-0.358785962,0.214175087,0.886519411,0.055489901,-0.063198028,3.391193318,0.9712979541995796,-0.0130899037583657,0.2199957080697249,0.0895032235073587,2.712,7.0,0.270192503,-0.274391056,0.901520693,0.205207746,-1.040711809,-0.166574091,0.7123355095470436,-0.2256290781090062,-0.3193799211000179,-0.5828088082280328,2.712,8.0,0.309011095,-0.131926148,0.920402974,-0.20772665,-1.610827239,-0.695031942,0.9069228316847948,-0.1105401850215659,-0.20968984385995,-0.3482843870262073
42,42,2.763,0.0,0.051742173,-0.021006906,0.978563466,0.39955215,0.204909755,-0.523253491,0.9810678133195744,0.0032993083818395,-0.0157004618987717,0.1929988490346909,2.763,1.0,-0.070466139,0.124991275,0.969656488,-0.399837673,-0.58595725,-0.488236825,0.9528319897465838,0.052874410143223,0.1099599908562312,0.277892598819166,2.763,2.0,-0.328231888,0.160902707,0.909003381,-0.52394883,-1.162036081,-1.324281707,0.8754093256532562,0.00296467441223,0.2382935431900828,0.4205542896450549,2.763,3.0,0.180847892,-0.199534364,0.942048872,0.372592409,-0.201394086,-0.876079615,0.8803064895721349,-0.0854588275343172,-0.1541288915323906,0.440456079545556,2.763,4.0,0.134064543,-0.411582175,0.879872611,0.038246154,-0.054369815,-0.872777208,0.8213685815305564,-0.5069663067492421,-0.0983446595744782,0.2422130158118983,2.759,5.0,-0.400116055,0.264816266,0.854435772,-1.805890261,-1.669533396,-1.438977554,0.879879335946146,0.1689194057711471,0.1440821350568723,-0.4201415557717959,2.856,6.0,-0.188363823,0.173555269,0.94506277,-2.268695682,-2.320594419,0.045368072,0.98424429649752,-0.104749250095777,0.0822480351997821,0.1163014192615457,2.759,7.0,0.31158209,-0.25467248,0.892855828,0.606064625,-0.774891191,1.208426958,0.7517387895197177,-0.2436643764198681,-0.3258158697236727,-0.5189995019569413,2.759,8.0,0.42298857,-0.124878286,0.87506576,-0.230867414,-1.831338754,-0.110785943,0.8827180171851016,-0.1538621759660901,-0.2843093139446948,-0.3410330584387381
43,43,2.836,0.0,0.03147323,0.012080364,0.979197886,0.472003666,0.211543173,-0.874718893,0.988381832748058,0.0258575346087929,0.0005662733526323,0.1497745637017007,2.837,1.0,-0.010981002,0.093895862,0.974194531,-0.34646219,-1.221991348,0.352966819,0.9542324150274162,0.0542704944453941,0.0366195433923841,0.2918119610045668,2.837,2.0,-0.239745252,0.108146616,0.943830241,-0.848536281,-2.226675208,-1.428442962,0.928153661659164,-0.0077214849327393,0.1045242649092383,0.3571356003877285,2.837,3.0,0.199587574,-0.148129359,0.948401019,0.882613837,0.106808364,-1.842247345,0.9239630369758056,-0.0261308444014879,-0.1288971268123437,0.3591587615147849,2.837,4.0,0.16644907,-0.364190894,0.894131254,0.800496854,0.156723751,-1.767815207,0.877851029583622,-0.4326915899343639,-0.1228332982794036,0.1645221525900086,2.856,5.0,-0.286795995,0.163508032,0.922606189,-1.411047119,-2.068979436,-0.529763215,0.8922171893368206,0.0552160999952778,0.0774435070981523,-0.4414772616585751,2.902,6.0,-0.108502081,0.091485165,0.969303236,-0.47292388,-1.350103037,-0.718705162,0.9899606772324264,-0.1087277644185464,0.0064845205442769,0.0900781980912795,2.856,7.0,0.292889883,-0.24710447,0.900999943,1.157618905,0.353757666,2.749920478,0.8487831511281277,-0.2250245448297826,-0.2816166997766857,-0.3868115186910067,2.856,8.0,0.521595594,-0.210054464,0.801630936,-0.200348093,-1.653505018,2.194574473,0.8916398314207957,-0.2256474095031274,-0.3220486113739219,-0.2243799222759283
44,44,2.943,0.0,0.014786974,0.037762359,0.979261124,0.1719483,-0.173750364,-0.706555429,0.992801783993836,0.0350857127447941,-0.0060484838525265,0.1143548263211128,2.944,1.0,0.050128376,0.041102052,0.977996814,-1.166759426,-0.459483562,0.912586267,0.9426058026548022,0.0048750100092231,-0.0077338050743891,0.333782449116153,2.944,2.0,-0.059273384,0.020198762,0.977536023,-0.983591496,-2.890380356,-1.275335547,0.9549594630256124,-0.0096169826980336,-0.0600772856538405,0.2904318463427974,2.944,3.0,0.180075616,-0.045454545,0.962828986,1.02835171,0.84168804,-2.640659497,0.9703514025573862,0.0298361403449101,-0.0611597864254738,0.2319211952552476,2.944,4.0,0.161960118,-0.271306162,0.926353543,1.764684967,1.077806298,-1.970238902,0.943918321007464,-0.3134712226590192,-0.0856682401911366,0.0584375602986969,2.903,5.0,-0.211823304,0.193609684,0.936888562,-0.954715061,-0.665005033,1.570149808,0.9292912220360128,0.0106426064900251,0.0643846949051263,-0.3635370278745845,2.999,6.0,0.040517408,0.04693536,0.978495995,-1.283510737,-2.606933115,2.550714863,0.957883653616861,-0.1432672623423055,-0.1082738311610569,0.2240762708549505,2.903,7.0,0.028766415,-0.131838857,0.970696662,2.641265185,5.914013658,2.236040712,0.9672317936157696,0.0058722746238133,-0.0023340345904699,-0.2538163235335628,2.903,8.0,0.566033743,-0.227917199,0.766230743,-3.829292731,-2.491391163,-4.758996447,0.7300027485668549,-0.3075308393290795,-0.4286449039762084,-0.4344931716858345
45,45,3.061,0.0,0.035710738,0.026321425,0.978712382,-0.050437096,0.007418263,-0.639267292,0.996097533611371,0.0307368575045498,-0.006035408818677,0.0825137743924013,3.062,1.0,0.039951496,-0.078107849,0.975460938,-0.699063699,-0.049189554,-1.769680541,0.9684180372551392,-0.0311674664109092,-0.0269676446323484,0.2459020949471797,3.062,2.0,0.185418997,-0.060547541,0.960311819,-1.220861504,-0.666164283,-3.749988209,0.9868549464870132,-0.0484316585928007,-0.1223562688299236,0.0938116864686099,3.062,3.0,-0.024440737,-0.013487817,0.980039147,0.531091352,2.323410161,-1.506662361,0.9846394590636678,0.0296401399426475,0.0694133874095018,0.1574432577385468,3.062,4.0,-0.00983136,0.113644437,0.973488719,2.904529671,0.964492851,-1.341965578,0.991391969810524,-0.1273618344689903,-0.028103798656434,-0.0114499701738093,3.0,5.0,-0.149575109,0.142307172,0.958549923,0.214099491,-0.387974972,0.88158663,0.9457262848299366,0.0251574275196371,0.0391182169742945,-0.3216188164941719,3.032,6.0,0.125872669,-0.055366308,0.970759828,-1.595504396,-0.762881479,-2.997934535,0.9636046099656368,-0.1807789748065446,-0.1844163981918078,0.0691065119856901,3.0,7.0,-0.372873304,0.097359294,0.901308309,2.071254175,2.549600758,3.974738276,0.9845615478316938,0.1475234650947842,0.0862472402904554,-0.037905135799359,3.0,8.0,0.61955597,-0.497922301,0.573306883,-3.091861549,-3.094977048,-0.278473392,0.6223551676129636,-0.4746889833922192,-0.4439236800612079,-0.4362065802717969
46,46,3.093,0.0,0.037967868,0.015209423,0.979367201,-0.36924789,-0.046885851,-0.698010565,0.9987606505308366,0.0105318785531192,-0.0107892540263079,0.0474324201672034,3.093,1.0,0.078086067,-0.090820033,0.972435236,-0.174206709,-0.65668169,-2.589616709,0.99057331776882,-0.028494724922152,-0.0674354456220945,0.1157800218078771,3.093,2.0,0.22317394,-0.055242793,0.952474475,-0.522190504,-0.166346015,-3.477880869,0.9856484987914216,-0.0486485157294301,-0.1389878885737968,-0.0825392365928979,3.094,3.0,-0.155772137,0.053852306,0.965160593,0.89588241,1.804184643,0.420276568,0.969084818075092,0.0587591514667433,0.1636491450726892,0.1750455221142546,3.094,4.0,-0.023559007,0.284258602,0.936524437,3.047397593,0.027699901,0.439176569,0.9981970905044582,0.0522749266460818,-0.0254388691741176,0.0149252969057007,3.032,5.0,-0.105163137,0.172592614,0.959157184,-0.867890788,-1.014931099,5.015530231,0.9980507466830018,-0.0172632280789442,0.0036856666755188,-0.059859033261107,3.09,6.0,0.086860923,-0.00360813,0.97634326,1.261054978,0.195812304,-0.084354731,0.979696419684586,-0.1008102997250804,-0.1568392699651892,0.0737133103538925,3.032,7.0,-0.549205826,0.131078962,0.801084432,0.205298168,1.86852841,-2.613158169,0.9546105636534904,0.1425979575938212,0.2116897622281701,-0.1535315564273886,3.032,8.0,0.534954761,-0.505356452,0.6463368,1.372568687,2.663144146,1.524863538,0.7667373863872429,-0.3907890421603994,-0.3127774400833444,-0.4019551937944417
47,47,3.166,0.0,0.034065728,-0.008001443,0.979196866,-0.387224259,0.062514072,-0.459287349,0.9996092045842327,-0.0101065722625991,-0.0094863674660343,0.024275587323018,3.167,1.0,0.134701975,-0.083417414,0.967451246,-0.231035606,-0.685675124,-2.158437609,0.9938919912886994,-0.0292081483557386,-0.1061547557570649,0.0075340262788819,3.167,2.0,0.241304065,-0.036528252,0.949001072,-0.341869919,-0.24894343,-2.033455156,0.9699627655183868,-0.0500377173211539,-0.1523667202940751,-0.1829011834298465,3.167,3.0,-0.23292929,0.14525248,0.940834025,1.109469959,0.961015269,0.562433665,0.951528615423058,0.1069862909437896,0.2125387272994021,0.1948705133649504,3.167,4.0,-0.084935525,0.45034972,0.865646629,2.424218658,0.620361952,-1.785792467,0.9787348188273802,0.1897396164274923,0.0310760630594279,-0.0714934310101971,3.09,5.0,0.0173995099999999,0.1553623635,0.9592837395,-1.016151415,-1.0044409665,3.5626430785,0.9904503630847976,-0.0600410641901788,-0.0341535235656217,0.1193175833821477,3.165,6.0,0.08074051,-0.03853486,0.975264341,0.087651232,-0.0476190009999999,1.253220412,0.9757700344774984,-0.097762326567195,-0.1412858620424905,0.1354757266334472,3.09,7.0,-0.5339429895000001,0.1125736699999999,0.813528305,-0.503717884,-0.6881880705000001,-0.17946031,0.9623783904035492,0.1077394405182608,0.1890481979951145,-0.1627293012210334,3.09,8.0,0.1869998845,-0.283507009,0.8057763765,2.6188467620000004,3.689429045,0.724301979,0.8933525142255131,-0.1895128784864755,-0.1618665925754347,-0.3739055501363186
48,48,3.243,0.0,0.030649596,-0.032842624,0.978701162,-0.40480137,0.13023265,-0.084069182,0.9993119137120778,-0.0310756628538345,-0.0042547796602395,0.0197964426436218,3.243,1.0,0.159768237,-0.100054754,0.961630468,-0.593986826,0.028744498,-0.606643386,0.992559666024642,-0.0575695967040454,-0.1042091353476368,-0.0255246356777734,3.243,2.0,0.255532017,-0.045838127,0.944891134,-0.594789149,-0.105534875,-0.652656888,0.9611830762505283,-0.0743110080122235,-0.1515630019826595,-0.2182512873908936,3.244,3.0,-0.275455012,0.192350279,0.920975519,0.529486965,0.561108871,-0.139499133,0.9452152780650802,0.1213121254901787,0.2397576097358588,0.1853853686113223,3.244,4.0,-0.144829274,0.539667673,0.804752934,1.421660292,0.158776876,-0.647419711,0.9571587240443472,0.2668721018335772,0.0445668545312158,-0.1031516055421303,3.24,5.0,0.139962157,0.138132113,0.959410295,-1.164412042,-0.993950834,2.109755926,0.966706186196439,-0.1002529610597823,-0.0811626274800506,0.2210002743636671,3.24,6.0,0.074620097,-0.07346159,0.974185422,-1.085752514,-0.291050306,2.590795555,0.9456535521016068,-0.158326860217065,-0.1313727965564294,0.2518196836158014,3.241,7.0,-0.518680153,0.094068378,0.825972178,-1.212733936,-3.244904551,2.254237549,0.9971592487068156,0.0392165245788337,0.0364258976718171,-0.0529967064752046,3.241,8.0,-0.160954992,-0.061657566,0.965215953,3.865124837,4.715713944,-0.07625958,0.9358227120139088,0.1012258115751642,0.0194901727346653,-0.3370598165261694
49,49,3.303,0.0,0.004954151,-0.046617047,0.978604265,-0.100973679,0.570661588,0.113861029,0.998751761610406,-0.035960566455582,0.0244747530928434,0.0245508207876773,3.303,1.0,0.116554559,-0.150200072,0.961472295,-0.678346889,0.991790507,1.124659379,0.9939569908890394,-0.0977230786880157,-0.0435491228258392,0.0245596021067513,3.304,2.0,0.257887591,-0.087806185,0.940081414,-0.71765764,0.04253251,0.089080095,0.9597689688072528,-0.1088265607171517,-0.1379519907870787,-0.2190195298027557,3.304,3.0,-0.283628775,0.193178487,0.918236239,-0.012181931,-0.105455208,0.188283332,0.9472008128790612,0.1189329805158853,0.2259824571486803,0.1939007356558983,3.304,4.0,-0.125280352,0.574760604,0.783840597,-0.104874703,-0.158180038,0.347402708,0.959290054105878,0.2665376549195974,0.0319760532770726,-0.0877371222478004,3.273,5.0,0.206798884,0.022198107,0.957371122,-1.526174217,-0.662950289,0.943887069,0.9447432232413692,-0.1557028407493249,-0.1238479351824786,0.2605351348151262,3.273,6.0,0.097210049,-0.159238743,0.96181715,-1.514988581,-0.653321895,0.98005753,0.9172304068065532,-0.2169108033184477,-0.1634677939299836,0.2914041258817294,3.273,7.0,-0.273303798,0.153148237,0.928685443,1.294265635,-0.480501145,4.75612855,0.9771827836631032,0.1130970474301263,-0.008547926520673,0.1795822878994863,3.274,8.0,-0.418241804,-0.022617894,0.886213419,-2.084440015,0.730119088,1.268858209,0.9583654795273554,0.0105384282850406,0.1070433846360335,-0.2645113664575594
50,50,3.407,0.0,-0.049778129,-0.045416536,0.976890719,0.00053695,0.853850314,0.294844995,0.9963764714048408,-0.0353741377525397,0.0675472503026077,0.0376824439979615,3.407,1.0,0.039662589,-0.189108542,0.960602852,-0.567715959,1.120573598,1.054420019,0.9889613474090272,-0.1289840380999236,0.0201822480808216,0.070080297579009,3.407,2.0,0.219935572,-0.133959538,0.945605196,-0.611079705,0.929872666,0.606659056,0.9684076186808028,-0.1305590900423488,-0.0777167424182903,-0.1977400213314947,3.408,3.0,-0.267656767,0.154527598,0.930442946,-0.923610601,-0.610898193,-0.71603757,0.9671770645723275,0.065054811674157,0.1818580393430099,0.1651182932615642,3.408,4.0,-0.136222059,0.492836394,0.835587122,-2.100657439,-0.347189044,-0.952479298,0.9775940642988152,0.1592652865335769,0.0329958705822893,-0.133625171571895,3.345,5.0,0.200761933,-0.014460051,0.959547056,-0.052677469,0.751944268,0.113508042,0.9502467372224936,-0.1516194673515257,-0.085867166164552,0.258204386664739,3.345,6.0,0.091827571,-0.301315454,0.927725549,-2.658834095,-0.082853619,2.306407923,0.8511244946367151,-0.3386803236303282,-0.1586348909663251,0.3683988387375217,3.345,7.0,-0.302469325,0.163785237,0.917675162,-1.122600394,0.144332678,-1.274630633,0.9921677898762375,0.0510264295464209,0.0092648812513017,0.1136377674685918,3.345,8.0,-0.359796705,-0.064141443,0.908640307,-1.812305257,-2.900288375,-0.092801026,0.9613455577739876,-0.1144145935999919,-0.0022203850248355,-0.2504377950907387
51,51,3.467,0.0,-0.079670639,-0.061873924,0.974747766,-0.386675091,0.284478611,-0.654996251,0.9954347888298464,-0.0571134848346257,0.0762570699303642,0.0057000283297552,3.467,1.0,-0.025540782,-0.191229306,0.960753882,0.619225895,0.28835763,1.991238338,0.9809025469003596,-0.0939460560933314,0.0443586598713009,0.1644282254459944,3.467,2.0,0.113539189,-0.152093859,0.961913359,0.796799259,1.794880277,3.502487478,0.9961453055441954,-0.0799428116209875,0.0232027562322254,-0.0276642226643183,3.467,3.0,-0.191575688,0.065116866,0.958216859,-1.105562488,-1.48849599,-1.078909078,0.9892050571230452,0.0075410539941293,0.0904938600643589,0.1150102115357705,3.467,4.0,-0.09573165,0.31898107,0.921777917,-3.513171046,-1.456752816,0.142599253,0.9916587084325093,-0.0258403527525224,-0.0170914056194498,-0.1251126133271326,3.42,5.0,0.065725302,-0.014937071,0.977150484,0.529006043,3.75910455,-1.912194982,0.9762629848617562,-0.1466580439545909,0.0970564927000045,0.1264200923785509,3.419,6.0,-0.04688325,-0.457628526,0.865600423,-1.095892364,1.357994502,-1.49279162,0.8704798203693888,-0.3869635330571411,-0.1394748890442893,0.2703162254465955,3.42,7.0,-0.297993121,0.095187755,0.928826351,-0.547806498,-1.522676765,0.763320501,0.9872268415630256,0.0310665147389284,-0.0555618232976276,0.146051082677643,3.42,8.0,-0.218552309,-0.031926496,0.955086167,-1.554987646,-2.595221889,1.135365671,0.9590421101452944,-0.2080928189808673,-0.0839791543949706,-0.1728673227760618
52,52,3.498,0.0,-0.086062802,-0.070268107,0.973452406,0.069402306,0.089530992,-0.952162779,0.9947787185463226,-0.0551587814040963,0.0747798118043275,-0.0421994041173646,3.498,1.0,-0.020820775,-0.088291173,0.974445568,1.72214471,0.229882168,-0.848729162,0.9911663804986064,-0.0071118976069903,0.0651881573537572,0.1152784941892518,3.498,2.0,-0.074852212,-0.068214554,0.97521532,1.476232241,2.631268056,2.029856985,0.9864673605235168,0.0045700271900965,0.1516854180462584,0.0620708903221089,3.499,3.0,-0.100348125,-0.023027163,0.974033369,-1.294761366,-1.625886877,-0.870392946,0.995717921800675,-0.054119578796548,-0.004929831707538,0.0747836088669469,3.499,4.0,-0.031952867,0.10963135,0.972757925,-3.500045932,-0.658877168,-2.843056548,0.9464980992116816,-0.1845901648578236,-0.0502865450742223,-0.2598828247709597,3.465,5.0,-0.282031588,0.168296992,0.923211409,2.868353378,3.627584643,-4.485654082,0.9494735126343816,-0.024165339501451,0.2803202963035056,-0.1390561636635476,3.465,6.0,0.027791281,-0.587371955,0.784013923,-0.987907198,2.605356125,-2.117138268,0.8892293380332446,-0.4365911620032228,-0.0779792876475968,0.1121542346039903,3.465,7.0,-0.304264968,0.088485087,0.926430903,-0.407382886,0.745937145,-2.481637779,0.9997335774217676,0.0112135693245838,0.0020771145562549,0.0200677760002774,3.465,8.0,-0.144922634,-0.149878429,0.957089278,-0.481825083,-0.236336965,-0.984312233,0.9481842401163516,-0.2152782106035258,-0.0853914445847559,-0.217509172280273
53,53,3.572,0.0,-0.091535211,-0.074211302,0.972742509,0.016962098,0.243219715,-1.022237787,0.99073466236473,-0.0556373246614393,0.0812224498764778,-0.0935533565919747,3.572,1.0,-0.0838537,-0.013638044,0.97684572,1.35012744,0.969579775,-0.179608103,0.986418684238496,0.0528772466763003,0.1186974516624342,0.100464377457746,3.573,2.0,-0.199712053,0.014255723,0.959573275,1.309176348,2.252936921,-0.273655925,0.96334294430015,0.0582429431237312,0.2591255104229755,0.0378431115453819,3.573,3.0,0.008013972,-0.065858779,0.976880954,-0.083399938,-1.540326152,0.623610697,0.989524011891772,-0.0504030405974592,-0.0800269669197783,0.1090754232344009,3.573,4.0,0.015728008,-0.161980329,0.966228753,-3.311195316,-1.73649824,-1.746644627,0.8785569231597367,-0.335911393448858,-0.1068256573064479,-0.322319015046256,3.53,5.0,-0.441702876,0.16291223,0.859641887,1.74155129,0.814119592,-3.620700473,0.8986145827751393,0.0229928757925217,0.2979245121930188,-0.321254018373629,3.53,6.0,0.133259125,-0.431970295,0.869118904,0.858537053,2.029992726,-3.518663029,0.92572912230341,-0.3646260050404351,-0.0432137329414605,-0.0905872057901942,3.53,7.0,-0.264392673,0.011449971,0.943658525,-1.758523526,-3.060029769,-2.21492655,0.9823944432846948,-0.073369062954071,-0.1450864780085373,-0.0920220207541353,3.53,8.0,-0.11728766,-0.179922937,0.955810306,-0.416875758,-0.478374322,0.812466861,0.9542027647951878,-0.2306868512948409,-0.0783325608742972,-0.1736222053879219
54,54,3.65,0.0,-0.087283836,-0.089398072,0.972206005,-0.25618344,-0.096489253,-0.897992077,0.9855370169755931,-0.0708742890154351,0.0711724444393694,-0.1364848214268925,3.65,1.0,-0.135345431,0.033708719,0.97007182,0.54805699,0.683568212,-1.54679799,0.9857076852859588,0.0628860432042821,0.1547723437341945,0.0217077486932758,3.65,2.0,-0.382068245,0.076032437,0.898820852,1.215641193,2.33644896,-0.391867494,0.9256366182391048,0.1022179202566711,0.36423456907315,0.0090291995974607,3.65,3.0,0.087193783,-0.108304665,0.969816655,-1.064118574,-1.204153298,1.373946608,0.9703302425684396,-0.1007162594221582,-0.1340360266378867,0.1742119370428133,3.65,4.0,0.113582136,-0.27750667,0.93193248,-1.29792081,-1.628816532,2.925218204,0.891440035483911,-0.4139606122679653,-0.0870408290131298,-0.1624659001510223,3.611,5.0,-0.51931135,0.246614844,0.793401437,2.435971091,0.143661841,-1.12789218,0.870966826466359,0.1318593796115819,0.2630655550945429,-0.393479865973302,3.61,6.0,-0.010206446,-0.299835757,0.932183108,2.366727538,3.521631522,-2.680020789,0.9399222280973863,-0.2003291833772904,0.0921348230455418,-0.2606253974542767,3.611,7.0,-0.068176523,-0.199894446,0.956572095,-2.600305883,-1.747469886,-5.317924622,0.8963318376457742,-0.1598803362031739,-0.2310726982503247,-0.3429765633996349,3.611,8.0,0.020773489,-0.234738797,0.951300247,-0.51488776,-1.315094988,-5.586008744,0.8693319312551991,-0.2257799340124489,-0.1839254677746048,-0.3993204690487739
55,55,3.708,0.0,-0.073085554,-0.110421499,0.969671385,-0.188949576,-0.000679046,-0.771797782,0.9792275600280544,-0.0808421540164429,0.0666447208323773,-0.1735984245339198,3.708,1.0,-0.153810412,0.069180181,0.965089871,0.6280436,0.16802798,-0.578796136,0.9835061640265408,0.0861714945532652,0.1586376888864715,-0.0111437207886184,3.708,2.0,-0.467277222,0.140828697,0.84952709,1.024723873,0.606854169,0.580470925,0.9129599440515735,0.1562846307926459,0.3763765160145835,0.0204932410340057,3.708,3.0,0.156223217,-0.167988881,0.952417473,-0.556901039,-0.862211142,0.669482459,0.9555290885179129,-0.1212532682301481,-0.1719435460073248,0.2066330634870937,3.708,4.0,0.118367591,-0.365621619,0.901488184,-0.890840717,-0.654679286,2.355911938,0.892297589952102,-0.4462777186054539,-0.0502668565708962,-0.0459831705351297,3.66,5.0,-0.498982538,0.197743691,0.820147462,0.778529936,-2.129127928,-3.346010164,0.8211184400741409,0.083883183066372,0.1664788931808927,-0.5394561122965682,3.66,6.0,-0.225299322,-0.126039061,0.94498009,3.298730644,4.081548188,-2.52680701,0.8874887108296072,0.0091651793860635,0.2320039667948936,-0.3980627425774196,3.66,7.0,0.116591276,-0.335952005,0.912786243,-1.533315688,-0.990526865,-4.007064269,0.798471521100374,-0.1920273268878819,-0.2599854830018007,-0.5079136583596369,3.66,8.0,0.152952123,-0.275400944,0.92661425,-0.748095956,-0.618278368,-3.541933212,0.783434297861029,-0.2273992779675471,-0.2174956177732603,-0.535925298492488
56,56,3.813,0.0,-0.06405068,-0.119662627,0.971075881,0.04767937,-0.061803456,-0.967113443,0.9705142009884856,-0.0795925704317964,0.0569600289308377,-0.2202788312932939,3.813,1.0,-0.160692803,0.093807881,0.961610058,0.50070921,-0.293481891,-0.895919451,0.983191185822232,0.0997210718907315,0.1405649979882606,-0.0602684103241241,3.813,2.0,-0.454519429,0.17217027,0.850921552,0.418914299,-0.74514558,-0.855043217,0.9291140086273716,0.1533601118644346,0.3349034832968756,-0.0326724951132243,3.814,3.0,0.183588467,-0.18246625,0.945237717,-0.186059071,-0.189998895,-0.971272162,0.963393801030848,-0.1148580991521203,-0.1824600659108658,0.1593371442642905,3.814,4.0,0.105647036,-0.423501018,0.877778213,-0.506970282,0.250799287,0.10799948,0.8918868311921002,-0.448207733303768,-0.0348208389399474,-0.0493479212158994,3.735,5.0,-0.370811592,0.190887789,0.886526715,-1.072542875,-2.151030491,-0.834328693,0.8201913715639917,-0.0147884074441929,0.1011961016714764,-0.5628736679075854,3.735,6.0,-0.31241785,-0.063176551,0.927017157,-0.232256477,-0.391330822,4.175023813,0.9608773666094508,0.0408288092393137,0.1979672141855286,-0.1893585931015761,3.735,7.0,0.210347029,-0.35747255,0.887414505,-0.220152889,-0.862864284,-1.307391284,0.7593995798946914,-0.2077172514431,-0.277447927828503,-0.5506255250643215,3.735,8.0,0.275900659,-0.29162399,0.893066221,-0.895476232,-1.572476031,-2.569205954,0.6913371847126935,-0.2696630727550259,-0.2661692295465988,-0.6152143248238087
57,57,3.844,0.0,-0.064669155,-0.109434636,0.971151358,0.360912683,0.217651077,-0.859914026,0.9611186386326164,-0.0590217284350394,0.0596188580181807,-0.2630836175327812,3.844,1.0,-0.122437497,0.096915574,0.968003322,-0.07558767,-0.93951515,-0.696557597,0.9876646222202038,0.0834709715103369,0.0889814975025012,-0.0981503134582615,3.845,2.0,-0.381345723,0.159097405,0.888347598,-0.194097845,-1.899774965,-0.988514519,0.960984619854755,0.1173614951767545,0.234071440914262,-0.089136975497321,3.845,3.0,0.187277156,-0.150374189,0.949044714,0.46542745,0.559374792,-1.368761751,0.9813685956108038,-0.0782402361715213,-0.1486740988152381,0.0932210133724139,3.845,4.0,0.101489924,-0.413257084,0.88304891,0.767923345,0.440495391,-1.001242729,0.9152852660623004,-0.3875396227579337,-0.0361705100024756,-0.1037189313870113,3.811,5.0,-0.338438015,0.136779135,0.909465875,-0.427194733,-0.618172957,-2.700830605,0.7466033985339381,-0.0458682693168201,0.0838860252003216,-0.6583635788404034,3.811,6.0,-0.377229251,0.107568365,0.898387522,0.940627981,-0.246497068,-0.43046,0.9560518345769016,0.08413327306339,0.1772288927477529,-0.2178908018737537,3.812,7.0,0.284526912,-0.346252046,0.871779764,-0.263024883,-0.198125191,-1.513052007,0.7203238658053134,-0.2041856729212444,-0.2702830600127044,-0.6053005920987987,3.812,8.0,0.410503884,-0.28260513,0.843643231,-1.177488249,-1.817890025,-1.772903695,0.6045320750330293,-0.3358836318044207,-0.2974328453864248,-0.6582224993324577
58,58,3.92,0.0,-0.066747701,-0.084157581,0.973549303,0.412382309,0.087737892,-1.138395783,0.945789903418059,-0.0390573502812841,0.0545082215754353,-0.3177811129726671,3.92,1.0,-0.043358923,0.072912887,0.976515087,-0.744773571,-1.151482204,-0.14106932,0.9933618834343318,0.0355779117248571,0.0284055255857164,-0.1056385670732719,3.92,2.0,-0.234812561,0.099634253,0.94588164,-1.0109717,-3.8143171,-0.821573999,0.9900158385570405,0.0333097167103204,0.034225070767905,-0.132618802248439,3.921,3.0,0.140080068,-0.090254218,0.966045419,0.87862438,0.987553714,-1.060897697,0.9947361046503368,-0.0270507539869804,-0.0890464213228545,0.0428844221530718,3.921,4.0,0.101709871,-0.314256196,0.921137962,1.844121669,0.766147794,-1.913469723,0.9413908073283004,-0.2685436423881523,-0.0344102532833835,-0.2012053540034372,3.87,5.0,-0.325696933,0.068448992,0.92190197,0.294119433,-0.471656136,-1.867327365,0.6890990471550938,-0.0419126809296501,0.0554928768127881,-0.721322653886783,3.87,6.0,-0.286182581,0.021648824,0.936523283,-1.487830062,-0.941419041,-2.324700952,0.9385732456990772,-0.0208774016812376,0.1417063068525052,-0.3139485931727732,3.87,7.0,0.215564345,-0.328406444,0.898041881,0.919952009,2.496947086,1.206134443,0.8070215575727476,-0.1095118492376438,-0.1633244079133749,-0.5568199873111179,3.87,8.0,0.519715012,-0.320154343,0.767171104,0.460657896,-0.156221313,-1.814503584,0.5603251859027836,-0.299943808826103,-0.3257293932382223,-0.6999783996457041
59,59,3.978,0.0,-0.051302491,-0.069067363,0.976329736,0.250872583,-0.08855427,-1.793354117,0.9153143574720184,-0.0323910292905191,0.041606735312289,-0.3992735000018653,3.978,1.0,-0.010535576,0.016458827,0.97960814,-1.166532678,-0.286036823,-0.080926084,0.9936429348847696,-0.0267315852720378,0.0177894295458652,-0.1079012349273968,3.978,2.0,-0.022786616,-0.006759097,0.979265074,-1.336067866,-2.308821659,-1.559443437,0.9740975232619168,-0.05338417544228,-0.0762400161451761,-0.2060864016026539,3.978,3.0,0.087345511,-0.028268389,0.97530952,0.502837831,1.087411029,-3.389245308,0.9918008279073796,0.0123198221374778,-0.0261893905151288,-0.1244727101383407,3.978,4.0,0.081827324,-0.161078245,0.962347176,2.260830711,1.191063535,-3.484898547,0.923057150333261,-0.1240039804229702,-0.0214643746519747,-0.3634938660812576,3.975,5.0,-0.318061208,0.073479369,0.924430014,0.715509961,0.035678544,0.766225329,0.7194478375178993,0.0057510503205867,0.0343899022681427,-0.6936707209714245,3.975,6.0,-0.179568861,-0.073432586,0.960957689,-0.025282912,-1.275317786,-2.936244867,0.8940218211243101,-0.0609634141386261,0.0708152789466073,-0.4381707906260393,3.975,7.0,-0.157876961,-0.146830049,0.956536357,3.423214314,5.415901928,0.289640833,0.8607005856319806,0.1928590881394548,0.0041384833997736,-0.4711504504613502,3.975,8.0,0.666628221,-0.262456814,0.669005408,-2.833031185,-1.659255177,-2.289969262,0.4233684622844461,-0.3895309234160548,-0.2916379383177583,-0.7641806839873058
60,60,4.056,0.0,-0.031967169,-0.07717779,0.975160853,-0.191653037,-0.178595347,-1.808475679,0.8770911389814948,-0.047772666585638,0.0321162279287575,-0.4768620913336156,4.056,1.0,0.025385316,-0.077204491,0.976466104,-1.722175948,-0.246676621,-2.358965881,0.9688237130872356,-0.1146344482868346,-0.001252110424501,-0.2196314832744159,4.056,2.0,0.075167219,-0.097890802,0.972478421,-1.742538907,-0.736267365,-1.8235497,0.940736485335095,-0.1358679371619968,-0.1000837101255787,-0.2941734518582793,4.056,3.0,0.008257522,0.028175312,0.980125995,0.943558759,1.4694461,-4.760330481,0.935691587272613,0.0711816971900299,0.0564658378716634,-0.3409193873129776,4.057,4.0,0.008226688,-0.000853104,0.978986003,2.157623762,1.351362617,-3.790033664,0.8549714580273124,0.0098082096007657,0.0014333542994948,-0.5185803221088618,4.064,5.0,-0.231992676,0.102877462,0.946154652,-0.687016011,-1.621173443,1.095296617,0.7602639546502696,-0.0629646909691682,0.0019811013765229,-0.646552582693802,4.064,6.0,-0.022702269,-0.149764187,0.967839499,-0.613652429,-1.110284603,-2.448536179,0.8383811759544156,-0.1195384423848162,0.0201395932309189,-0.5314338730096121,4.065,7.0,-0.390875824,-0.005590225,0.8979459,0.306576332,4.020988123,-1.665416569,0.8063007686654683,0.2878631981018086,0.1999600916238551,-0.4764764541778044,4.065,8.0,0.674649242,-0.303606544,0.642409112,-1.426370706,0.813716078,-1.004354573,0.3811049746589752,-0.374053199771905,-0.2218271902384683,-0.8158651234741485
61,61,4.112,0.0,-0.016050027,-0.099971283,0.974842623,-0.349445473,-0.123735832,-1.806242087,0.8318315638240041,-0.067401743806289,0.029073162913035,-0.5501527111232075,4.113,1.0,0.024238543,-0.167235905,0.9651511,-1.048911083,0.054879397,-2.336121098,0.9312542547379296,-0.1592388120929635,-0.0050871060394312,-0.3276928975548125,4.113,2.0,0.133047407,-0.175178459,0.953756727,-1.981312962,0.610735622,-5.528215558,0.8261254911881224,-0.1755091371782358,-0.0868609875558441,-0.5283638750113016,4.113,3.0,-0.118348331,0.042615452,0.970563545,-0.492199887,2.085707544,-3.290677031,0.8653025774049922,0.0721999177559832,0.1656135544547972,-0.4675583086558883,4.113,4.0,-0.069342008,0.137937904,0.96661048,2.897315616,0.942197922,-2.539204566,0.7820154763526065,0.1535236994603244,-0.0177990285834443,-0.603792566226604,4.139,5.0,-0.057192533,0.049126412,0.97687492,-0.735493319,-2.110625619,7.547575646,0.958598819795772,-0.1486800341766385,-0.0184581973991357,-0.2421607835140963,4.139,6.0,-0.009829137,-0.166758049,0.965291739,-0.329998057,0.252375357,-1.230481862,0.8035852694782433,-0.1223875512357489,0.0342762110895994,-0.5814612139544968,4.139,7.0,-0.540304312,-0.047779344,0.815695032,1.117576701,1.593774959,-1.971862762,0.725246347988648,0.3323282365087083,0.2696693559849401,-0.5393089248202819,4.14,8.0,0.451501841,-0.398640153,0.772642942,-0.942817941,4.741311774,2.214901627,0.5255414115004596,-0.2313759919489414,-0.0099524239671779,-0.8186405343036255
62,62,4.217,0.0,0.004414096,-0.134477201,0.969314396,-0.581105399,-0.025297494,-1.361340195,0.7919254315458796,-0.0921784642962641,0.0384082778684649,-0.6023969171418735,4.217,1.0,0.031846526,-0.213150448,0.956492386,-0.759720736,0.239295995,-1.731911354,0.895097842071887,-0.1835392417092934,0.0045823034214578,-0.4063153976486519,4.217,2.0,0.226811896,-0.216975761,0.927771999,-1.521795707,-0.315275425,-5.647210499,0.6581211875917141,-0.2062723688075363,-0.1109806199693109,-0.7155497986168585,4.217,3.0,-0.242838048,0.015050068,0.948192585,0.282267351,2.015559898,-1.675306543,0.8065928836068855,0.115718386052591,0.2438586219759683,-0.5258803549592762,4.217,4.0,-0.147851406,0.301792122,0.920338784,2.425157179,0.819098931,-1.880504555,0.7068215487011047,0.2670646144092776,-0.0386064923461061,-0.6539031493814093,4.218,5.0,0.04890963,0.104675885,0.972681246,-0.137745591,-1.811221551,2.347055782,0.9770460499678189,-0.1586758197696534,-0.0883151430927943,-0.1113707141182563,4.218,6.0,-0.005573794,-0.196290342,0.95965829,-0.889087493,-0.542060429,1.290430982,0.8358914344426052,-0.1686252574294886,0.0511171480354264,-0.5198442743351582,4.218,7.0,-0.53994155,-0.039495864,0.816197402,-0.173644182,-0.624714283,0.262085567,0.7466037389572917,0.2963192310280803,0.2438088426996755,-0.5434473465933609,4.218,8.0,0.093177577,-0.406357585,0.886472477,2.388583659,4.493509751,2.814314489,0.6841048290509214,0.0375470503804597,0.0549029156908342,-0.7263445957158227
63,63,4.277,0.0,0.014931313,-0.163146461,0.965784287,-0.424851426,0.088535905,-0.970944747,0.7606056992579995,-0.1054604443554641,0.049991352104418,-0.6386375573416974,4.277,1.0,0.044190816,-0.250101021,0.946731562,-0.617294956,0.44926012,-2.074176665,0.8455902422154261,-0.1949966879389826,0.0183408585915206,-0.4966055244044412,4.277,2.0,0.31118657,-0.189217899,0.910267271,-1.334506436,0.50537645,-5.615916206,0.4544926070426653,-0.1868150058868566,-0.0993321545073542,-0.8652570408843734,4.277,3.0,-0.336278347,0.057098868,0.918835999,0.909138018,1.052237136,-0.77424956,0.7704149838929039,0.1689380792372771,0.2560068596986216,-0.5589106956966974,4.278,4.0,-0.256425999,0.379607202,0.866363133,1.483493869,0.798489026,-2.958139015,0.5935595372648952,0.3408354855840332,-0.0127400661160024,-0.7289416562413893,4.248,5.0,0.147663864,0.030102581,0.968753951,-1.751071007,-1.06578579,0.197137709,0.9588538252970972,-0.2331695739540659,-0.1263319996879923,-0.1013484945622614,4.248,6.0,0.001415004,-0.273366251,0.939948877,-1.175428938,-0.604403031,0.019830126,0.8282913726139297,-0.2280685901689683,0.0590424093955959,-0.5083621879373351,4.248,7.0,-0.34099188,0.039926426,0.917588371,-0.200468078,-4.707323863,3.662564003,0.890990955965299,0.1820577212765908,-0.0133854149658627,-0.4157053441775908,4.248,8.0,-0.369089682,0.070047157,0.9051675,1.610455898,3.079790096,0.172220436,0.6793487716190972,0.2172765686439094,0.1040204345923516,-0.6931492540608916
64,64,4.309,0.0,0.002146987,-0.179934826,0.963193568,-0.147216969,0.504375556,-0.400340424,0.746136960518306,-0.0924813002017218,0.0724367176370098,-0.6553470585876457,4.309,1.0,0.047788352,-0.276389167,0.938921883,-0.468508696,0.474038865,-1.803971136,0.795761059523065,-0.1975269801517747,0.0338522844538876,-0.5714905520619763,4.309,2.0,0.345625375,-0.156645048,0.903635673,-2.510797852,-1.656268855,-5.894354974,0.1774728881813323,-0.2610135471778819,-0.0738193821403657,-0.946005285910502,4.31,3.0,-0.355751177,0.112682768,0.906497487,0.238895514,-0.13702418,-0.018236787,0.7738274330169458,0.1727736627004683,0.2307500186735429,-0.5639989310890835,4.31,4.0,-0.33294082,0.407307388,0.827309556,1.30998134,0.335165322,-1.688414529,0.5138325286433366,0.3823300643225777,-0.0231803731798094,-0.7676343691643391,4.32,5.0,0.186557628,-0.052027423,0.96051153,-0.350618281,0.100802021,0.274916355,0.961405180218196,-0.2325341563995479,-0.1133382560551129,-0.0937143813486179,4.319,6.0,0.039803969,-0.386871656,0.899553203,-1.979843211,-0.400454788,0.160973734,0.8105811561660345,-0.3131631802699194,0.0982200611952577,-0.4850152898317375,4.32,7.0,-0.202179499,0.148880966,0.947688719,0.107805319,-0.528990072,0.349587853,0.8973723072809315,0.1689010110880008,-0.0349880332636838,-0.4061665029357881,4.32,8.0,-0.421534,0.11381026,0.876911804,-1.080886761,-1.225332935,1.948098655,0.7647477340406618,0.141704280146423,0.081406649426955,-0.6232605857078836
65,65,4.382,0.0,-0.031816266,-0.177198507,0.963293525,0.18914994,0.435433671,-0.599005672,0.7261274481951356,-0.0700827923095108,0.0798482942576215,-0.6793022752088137,4.383,1.0,0.033934388,-0.268984978,0.941421021,0.563712487,0.231305255,-0.107802478,0.7993060376135533,-0.1611923288440443,0.0292472687549575,-0.5781621646447731,4.383,2.0,0.310284306,-0.19908045,0.908559642,0.732100702,0.496932839,4.968986125,0.4380530471437124,-0.2410288755492833,-0.023746458249017,-0.8657082157171574,4.383,3.0,-0.337271003,0.096074003,0.91459885,-0.327029674,-0.753884076,-0.344880277,0.7788310979317489,0.1318409921560987,0.2014649409232737,-0.5791821399702377,4.383,4.0,-0.324378933,0.391350949,0.837753987,-1.211754858,-1.09751369,0.38728751,0.5560973495800775,0.294719467081946,-0.0177245890387817,-0.7769054076632194,4.394,5.0,0.124747556,-0.046356152,0.970968668,-0.238272682,1.8985578,-1.893098073,0.9566108104480888,-0.2031772331113087,-0.0346742540873177,-0.2059428692200131,4.394,6.0,-0.017139824,-0.539361345,0.818440325,-1.964387638,1.672829574,0.473156501,0.7828813274488176,-0.3396904401605574,0.223904102059614,-0.4707166717637925,4.394,7.0,-0.242529087,0.133905156,0.939107582,0.341648716,-0.062218409,-1.243123701,0.8684028428710633,0.1796019230002884,-0.0219055082756792,-0.4616706623289353,4.394,8.0,-0.277632815,-0.018740834,0.938787943,-2.745167279,-2.902560027,-0.584789993,0.7741275953634881,-0.0633666441993706,0.0550934140212526,-0.6274359331685879
66,66,4.443,0.0,-0.041791116,-0.178187414,0.962569347,-0.156239267,0.094368186,-0.649362694,0.7033431138635866,-0.0732073427147312,0.0858870949286558,-0.701835134542321,4.443,1.0,0.014401277,-0.216242995,0.95617706,1.217847449,-0.083616055,1.041116203,0.8397389810499414,-0.104056062855904,-0.0009571982174468,-0.5329257577371419,4.443,2.0,0.187423418,-0.200119344,0.940826079,1.12253595,1.536907589,2.371013062,0.562512709901341,-0.1365596857479178,-0.005215552327191,-0.8154162749429289,4.443,3.0,-0.244935023,0.076011231,0.945136565,-0.566584045,-1.480148589,-0.793016869,0.7766809914040003,0.0564271120190083,0.1506296413761627,-0.6090101228713545,4.444,4.0,-0.184806355,0.289899443,0.91791063,-2.680289471,-2.143808966,0.528430298,0.6210923936818472,0.1161322674905865,0.0124033682634149,-0.7749862524030798,4.456,5.0,-0.089426356,0.119018795,0.968387553,3.575844318,2.725918395,-4.336433389,0.9123137273769184,0.027792548498984,0.0681527921212598,-0.4028230802891528,4.455,6.0,-0.016403053,-0.613514026,0.764127921,-2.537660342,-0.168403929,-1.643331868,0.7057009443846123,-0.4463197851888655,0.2366418769675655,-0.4967750481947525,4.456,7.0,-0.26781175,0.123388518,0.93370506,-0.020204202,-0.345062269,-2.674799625,0.8030022478004506,0.1681272148990358,-0.0021400563255978,-0.5717657298200377,4.456,8.0,-0.146491572,-0.15913891,0.956205013,-0.517828258,-1.197838676,5.948649746,0.9388936488409034,-0.102225928781728,0.0504215220872446,-0.3247864617888696
67,67,4.551,0.0,-0.037495673,-0.16045334,0.966182074,0.521098089,-0.050066208,-0.345595436,0.6936461849843478,-0.0555555063478443,0.0634588223373914,-0.7153611211399776,4.551,1.0,0.0343745,-0.114294614,0.972928124,1.54717781,-0.260254551,-0.03655005,0.8461186435099318,-0.0408521113863668,-0.0514757009222306,-0.5289277817573528,4.552,2.0,0.038925371,-0.133705498,0.969505882,1.331927261,1.972274128,1.847170507,0.6511048109180808,-0.0054013668200083,0.010583730669615,-0.7588948116049543,4.552,3.0,-0.162973255,0.016705173,0.966655396,-0.515958479,-1.658249386,-1.25068379,0.7531602612753934,-0.022872694268556,0.0936491821518442,-0.6507351929738923,4.552,4.0,-0.105091868,0.1467221,0.961942994,-2.219013203,-1.042119636,-0.987355007,0.59806359398605,0.0062235254903912,0.0642097369993913,-0.7988481175751925,4.547,5.0,-0.314865696,0.223631612,0.900806026,2.226623929,2.336587924,-5.188650738,0.7756383928242685,0.1546331700075814,0.1557512740566647,-0.5917898334207151,4.547,6.0,0.076243408,-0.571244502,0.792516663,0.959896382,0.268057157,-2.17251137,0.6753080227833663,-0.4155426615829076,0.1670860408547926,-0.585974082806129,4.548,7.0,-0.248028945,0.054849034,0.946780981,-0.645967094,-1.864614136,-2.881222737,0.7230800203427148,0.0853219674155804,-0.0305835433458112,-0.6847920070604859,4.548,8.0,-0.110941815,-0.152154575,0.961346399,-0.553743463,-1.311631396,-1.220340907,0.917307082695413,-0.1470589195675736,-0.0070737516870663,-0.3699612847981779
68,68,4.601,0.0,-0.03614627,-0.129604818,0.970371083,0.406146272,0.0343442,-0.135094127,0.6900246910383097,-0.0384919002642983,0.0495464088814461,-0.7210613377088536,4.601,1.0,0.021485289,-0.034446146,0.979018307,1.217146019,0.490291142,-1.182813881,0.8177406230429562,0.0269886986916487,-0.056937459628516,-0.5721276162354864,4.601,2.0,-0.095140636,-0.08225653,0.971581763,0.699933039,2.486758546,-0.058949466,0.6485869290372687,0.1132410182632928,0.0702595220181748,-0.7493831241964789,4.601,3.0,-0.076603253,-0.026546011,0.976223976,-0.27130695,-1.593743436,1.110368276,0.7962159419109666,-0.0761809054064201,0.0376262186648229,-0.5990166201093899,4.601,4.0,-0.046538666,0.017195409,0.979070718,-2.555371151,-0.913842637,0.313966718,0.6158354206037671,-0.1061117516822053,0.13443586078011,-0.7690344792147009,4.634,5.0,-0.429337057,0.362031533,0.80265426,2.890983559,1.333800264,0.270511213,0.7501832217733565,0.3173824874024139,0.1069439386152736,-0.5701372505401278,4.634,6.0,0.000889944,-0.405266959,0.892747949,3.895116854,2.531870227,-0.812445487,0.7160460769682544,-0.1823945273922518,0.1324261521501044,-0.6606614611602885,4.634,7.0,-0.102666886,-0.061613908,0.972631604,-2.496505906,-3.735710383,-4.480013091,0.5770870843951051,-0.1133282582498735,-0.0695381420701055,-0.8057863548756857,4.635,8.0,0.002218795,-0.198778075,0.958195885,-0.243734815,-1.63404824,-3.522294773,0.8412741373036443,-0.1794765577843737,-0.0989216665970374,-0.5002604271652377
69,69,4.652,0.0,-0.033822802,-0.112175044,0.972562994,0.220053013,-0.132669289,-0.065962258,0.6884684053054058,-0.0347355002360487,0.0373128038954241,-0.7234724974627886,4.652,1.0,0.013448442,0.04480848,0.979355063,1.125283585,0.020061153,-0.406802604,0.8044730747383774,0.0727959883262325,-0.0830175991832886,-0.5836367828799268,4.652,2.0,-0.23645029,-0.031846485,0.95069136,0.82426356,1.974979944,0.343440318,0.6500804906115821,0.2122118722854737,0.1021752457441223,-0.7224414828513285,4.652,3.0,0.018507909,-0.02463209,0.979571191,-0.136624209,-1.36862637,1.800448393,0.8505963161719202,-0.1129277848868174,-0.0101243684205124,-0.5134498217736579,4.652,4.0,0.031924092,-0.090211361,0.974032732,-0.751355467,-1.308746849,2.171262246,0.7053949031077849,-0.1609324762054144,0.1238368573921689,-0.6791047058614631,4.699,5.0,-0.439200491,0.389764677,0.784777309,-0.393751633,-1.000545101,-1.296749157,0.7254892646583856,0.2665179214995529,0.0951167858494837,-0.6273645841411963,4.699,6.0,-0.153979075,-0.09995614,0.962589848,5.370801976,2.276219516,-1.360472249,0.7054559095674516,0.0925156629083191,0.037185554234728,-0.7017050992612567,4.699,7.0,0.075953427,-0.205030341,0.955095616,-1.961078526,-1.537430598,-2.448680738,0.4671726663192468,-0.2109150629354915,-0.0399364747193021,-0.8577118479175148,4.699,8.0,0.116822292,-0.202309992,0.951299227,0.187120246,-0.220638749,-2.665228935,0.7751144110037986,-0.1582877103918999,-0.1239548000258811,-0.5989806826131109
70,70,4.748,0.0,-0.018224904,-0.099903453,0.974327539,0.06943611,-0.250774373,-0.074109608,0.6864102404524862,-0.0409359435193334,0.0266501368338038,-0.7255721883705862,4.748,1.0,0.012308853,0.113334701,0.972885264,0.905007803,-0.016067926,-0.258133851,0.7938478844167836,0.1064115254317892,-0.1043163877282138,-0.5895763011804441,4.748,2.0,-0.322385828,0.02935493,0.924300636,0.841003269,0.938679706,0.641067609,0.6601496302713812,0.2694983760435537,0.0939197527101982,-0.6948036924292367,4.748,3.0,0.08553321,-0.033303849,0.97590928,0.025349349,-0.903672881,1.508363779,0.8877717237536712,-0.1277022196758876,-0.0429820937111085,-0.4401204939712487,4.749,4.0,0.077948134,-0.138631972,0.967457629,-0.5737465,-0.965577877,2.711733498,0.798230178980256,-0.1901519729168105,0.1199617297644728,-0.5588201785484384,4.766,5.0,-0.344902725,0.336548825,0.853472319,-1.603826839,-2.166664313,-0.804918442,0.7328528442840929,0.1344194471539185,0.0648000236142648,-0.6638215707486018,4.766,6.0,-0.243167507,0.084929474,0.944905576,-1.408783634,-0.401570286,0.144985283,0.7174817293738948,0.030851755068691,0.0740759665938021,-0.6919399456578733,4.766,7.0,0.216402817,-0.277999929,0.914273953,-0.841448548,-1.109108474,-1.31249794,0.4034524654357948,-0.2691009632362845,-0.0333663766422126,-0.8738978570913495,4.766,8.0,0.226181071,-0.20865625,0.930029942,-0.81656665,-1.737763363,-2.139996336,0.6946761469976391,-0.2246280782089568,-0.1747678147092552,-0.6606235601417928
71,71,4.773,0.0,-0.007229873,-0.089570566,0.975857491,0.294008467,-0.03219492,-0.250808146,0.6780276784273622,-0.0312577443577773,0.0153968906895303,-0.7342100220380814,4.773,1.0,0.011569759,0.158242895,0.966583844,0.502055275,-0.017685534,-0.232481581,0.7849756317572005,0.1224069204433959,-0.113311494624788,-0.5966492341073142,4.773,2.0,-0.327881022,0.077490493,0.92032943,0.616897161,-0.346516159,0.142571416,0.6599983372192899,0.2669828498053196,0.0584738103952528,-0.699787943791162,4.773,3.0,0.128057571,-0.048472952,0.970379633,-0.192511505,-0.549506873,0.642002271,0.8997205906999367,-0.1421198880234104,-0.0593174149218417,-0.4083947115056222,4.773,4.0,0.10557589,-0.168622378,0.959502592,-0.165447645,-0.416327214,0.354349419,0.8107863068403148,-0.1976288477782611,0.1000179517394477,-0.5418162165309609,4.859,5.0,-0.359690372,0.258469522,0.873916096,-0.173261253,-0.179562439,-1.547542858,0.6828256294282512,0.1263907981797185,0.0725628214086301,-0.7158974527686388,4.859,6.0,-0.279590896,0.265927474,0.9006556,1.285483781,0.124723267,0.164904485,0.721584306431914,0.0989666682712376,0.0271015749378098,-0.6846803574795722,4.859,7.0,0.280004199,-0.28112037,0.895912934,-0.353154241,-0.33742949,-1.25428385,0.347095096316795,-0.2809468464138808,-0.0320558098362432,-0.8941847061198669,4.859,8.0,0.375202581,-0.197690276,0.882130703,-0.659581538,-1.994552811,-2.728037833,0.5832966342820308,-0.2842228688338012,-0.2409876267289269,-0.7217391225579349
72,72,4.872,0.0,-0.012352838,-0.066230171,0.977265047,0.405068488,0.112364444,-0.313071012,0.6671570361516451,-0.0125690174359067,0.0054275760108324,-0.7447912797104267,4.872,1.0,0.012994805,0.167149435,0.96530213,-0.075843654,-0.156528935,-0.014167274,0.7851707609431208,0.1090664278091985,-0.1115521597465099,-0.5993058535846538,4.872,2.0,-0.270100041,0.097654817,0.936723281,0.181139302,-1.353032488,-0.509189579,0.645648009010291,0.2114446270114147,0.0138997209988236,-0.733646110822654,4.872,3.0,0.145088846,-0.043137526,0.968265656,0.328798647,-0.185523499,-0.025723667,0.9017633638008336,-0.1219565100133778,-0.0744246249902533,-0.4079343336457751,4.872,4.0,0.128881877,-0.140522154,0.961784792,0.831077394,-0.381800725,0.153654919,0.8264784468698405,-0.1627706986387063,0.0518507392347719,-0.5364238784441753,4.919,5.0,-0.3490673785,0.2424401265,0.8824284675,-0.308179034,-0.6735549085,-1.045327193,0.6500615142192191,0.0975227611269916,0.0632128557921617,-0.7509417245404486,4.919,6.0,-0.250049217,0.205788048,0.9223590235,-0.003076123,-0.598802541,-0.620779506,0.700840167813401,0.0841880032062276,0.0081559099195277,-0.7082859030284427,4.92,7.0,0.262328736,-0.270542497,0.9044532275,0.342345328,0.6563088705000001,0.0098927079999999,0.3574333134060434,-0.236126973677228,-0.0249480909649394,-0.9032513888872886,4.92,8.0,0.4369330394999999,-0.188012646,0.8533262939999999,-0.3812100244999999,-1.6586767135,-0.8335246510000001,0.5346031977574545,-0.3401924403394322,-0.2705358058964152,-0.7247612725659278
73,73,4.971,0.0,-0.025510717,-0.030083716,0.979339662,0.588856493,0.200737337,-0.695916895,0.6416785135079222,0.0148185123072145,-0.0081278358950988,-0.7667874772575037,4.971,1.0,0.021856391,0.155119436,0.967238987,-0.341941455,-0.049977935,-0.462755715,0.7736633589378685,0.091758850708247,-0.0957093811439874,-0.6195684261764081,4.98,2.0,-0.145298697,0.088491235,0.964699222,0.032504069,-2.449964524,-0.789023996,0.6204768372673392,0.1101059094659127,-0.0586167944691323,-0.7742410829461116,4.98,3.0,0.136418862,0.007706085,0.970447067,0.915562514,0.424255133,-1.404633472,0.8789237138284783,-0.0582245533595509,-0.0774356213087669,-0.467018983777492,4.981,4.0,0.140947817,-0.061386933,0.96795163,1.501282429,0.062510514,-1.739424828,0.7904544513314413,-0.0967670653662051,-0.0034744690157564,-0.6048188352686953,4.98,5.0,-0.338444385,0.226410731,0.890940839,-0.443096815,-1.167547378,-0.543111528,0.6359035663054354,0.0490704153943264,0.0406972778438831,-0.7691309903190447,4.979,6.0,-0.220507538,0.145648622,0.944062447,-1.291636027,-1.322328349,-1.406463497,0.6567768488834397,-0.0007858272701129,0.0120233759779683,-0.7539887211864202,4.981,7.0,0.244653273,-0.259964624,0.912993521,1.037844897,1.650047231,1.274069266,0.4343920243839563,-0.1355217484818072,-0.0175191992045774,-0.8902979852270094,4.981,8.0,0.498663498,-0.178335016,0.824521885,-0.102838511,-1.322800616,1.060988531,0.5616306274468119,-0.3991318211257442,-0.2652034400829692,-0.674486443931015
74,74,4.985,0.0,-0.028689649,-0.013264586,0.979445739,0.10620408,-0.227456848,-0.719643491,0.6140086259526101,0.0089217963076967,-0.016616662091846,-0.7890739479588444,4.986,1.0,0.007778259,0.086858121,0.975794633,-1.197376739,0.290197649,1.193614415,0.8177631227224503,0.0397155451785549,-0.0425989584258902,-0.5726006281234992,4.986,2.0,-0.017211946,0.062667743,0.977065762,-0.846258335,-1.642204337,-0.81981693,0.5900525170912003,0.0160354735257613,-0.0696654146436769,-0.8041937705961593,4.986,3.0,0.084620132,0.078692125,0.973068848,0.572393749,1.192431155,-3.752363264,0.7912627913722932,0.0137097154339026,-0.0386698778635482,-0.6100982537579225,4.986,4.0,0.108283108,0.064707008,0.971463726,1.870682283,0.911549562,-2.588809348,0.7196768368696128,0.0067918454555653,-0.0321258822780519,-0.6935322984522879,4.999,5.0,-0.298305455,0.272479256,0.892826921,0.510304307,0.440896959,1.393750293,0.6879179897247535,0.1031596679724293,0.0246550015932266,-0.7179965551542081,4.998,6.0,-0.116222871,0.038833851,0.971798938,-1.932071216,-1.494880274,-0.532894332,0.6382915732806898,-0.1133862387502624,0.0353553520464264,-0.7605770358238563,4.999,7.0,-0.094607718,-0.074260821,0.972306901,3.467619285,5.457891765,0.542156255,0.5041264314605672,0.2140721420637611,-0.0377628048535518,-0.8358251190677746,4.999,8.0,0.641103693,-0.273723944,0.688666289,-3.682536822,-2.984220681,2.462332461,0.5401702214175054,-0.6299577936649079,-0.1296339141958266,-0.5427378357778955
75,75,5.087,0.0,-0.023114765,-0.014586514,0.979029592,-0.133236403,-0.040777408,-0.380376595,0.5990782634787462,0.0032601184981508,-0.0095705267072615,-0.800626636375042,5.087,1.0,0.003514662,0.044636189,0.978816253,-0.532522437,-0.254239917,-1.106126723,0.7862381981676567,0.0117375453023773,-0.0339132465865128,-0.6168805536554979,5.087,2.0,0.044964018,0.018277885,0.979231411,-0.462333061,-0.77956993,0.554907533,0.610635620485657,-0.03437459281297,-0.0690839350675637,-0.7881433475444806,5.087,3.0,-0.084590126,0.112300548,0.969023786,0.361349851,2.868437503,-2.326693271,0.7231944129591197,0.1240907439785541,0.0719910664719528,-0.6755802059502588,5.087,4.0,-0.015832915,0.227672851,0.953178573,2.362789683,1.541732259,-3.196160418,0.6119946118232892,0.1451761727425794,-0.0485812224272411,-0.7759035628185718,5.084,5.0,-0.248729558,0.278652995,0.906432632,-0.867181071,-0.579792734,0.910446638,0.7257047715390733,0.0614059449167793,0.0283334585939781,-0.6846744552109433,5.084,6.0,0.002164609,-0.015060396,0.980390483,-0.507244011,-1.382271428,0.069972322,0.6415824303373316,-0.1714948496666122,0.0079644786309932,-0.7475948559884595,5.085,7.0,-0.346563897,0.126384044,0.907339814,0.425511939,2.665510219,0.774824778,0.5376931078826762,0.3336937175721001,0.0105698556037685,-0.7742240649456046,5.085,8.0,0.601019221,-0.389052099,0.669310362,-0.533998525,-0.424208129,0.70368743,0.5518126202596971,-0.6398472869746202,-0.0999642216316498,-0.5254573587522816
76,76,5.148,0.0,-0.022446078,-0.022368009,0.979064271,-0.193296739,-0.037953435,-0.048134645,0.5971858157705665,-0.0040962502422399,-0.0004219626111031,-0.8020923538620417,5.148,1.0,0.032802985,0.008047292,0.979484663,-0.5558066,-0.554295904,-1.416622887,0.7415464638581628,-0.0253288950595755,-0.0372961418143056,-0.6693850064202833,5.149,2.0,0.079057736,-0.013792248,0.977200414,-0.598486099,-0.412062106,-1.108050521,0.5652524372874523,-0.0637311248036783,-0.0558543773117865,-0.8205536633316345,5.149,3.0,-0.257086669,0.162743494,0.931321641,1.682590166,2.959140427,0.867448232,0.7304981209539992,0.2910661573037544,0.1072620170848102,-0.6083977704150473,5.149,4.0,-0.111091201,0.406524093,0.884091006,4.124783884,1.49445909,0.485986884,0.60677509201966,0.3311362216967781,-0.1804297449333846,-0.6997270164344015,5.116,5.0,-0.13211704,0.206702285,0.949358337,-1.117797164,-1.594184694,2.827864199,0.8260288349728604,-0.028298701708579,-0.0003611307959288,-0.5629168827274025,5.116,6.0,0.050666956,-0.047968742,0.976707663,0.071498945,-0.091879476,-0.965386693,0.6077402557329121,-0.1601743949211258,-0.0061743160901203,-0.7777903461693035,5.118,7.0,-0.524023936,0.074085532,0.824909236,-0.270890344,2.259954816,-1.094479486,0.4975546518881412,0.4074633649381826,0.1106945170771925,-0.7577332634290058,5.119,8.0,0.448205098,-0.374011946,0.787461272,2.07258236,3.554771859,1.238425509,0.6832326167586833,-0.4513530795944384,0.0038984424576502,-0.5739846610181347
77,77,5.178,0.0,-0.013943328,-0.052741548,0.977991264,-0.655387848,-0.167739958,0.021915975,0.5980451149203211,-0.0310532731669487,0.0235135846167362,-0.8005153628032571,5.178,1.0,0.077139425,-0.016113868,0.977135534,-0.323641417,-0.744114554,-1.384755247,0.6933732177921061,-0.059511155949293,-0.0550445229453352,-0.7160042623196597,5.178,2.0,0.086242344,-0.035394258,0.974605307,-0.33427497,0.00872937,-0.904560705,0.5277319779251965,-0.0678849275341069,-0.0405955188129927,-0.845720166450554,5.178,3.0,-0.349583571,0.396613434,0.824629681,3.222164953,1.876827789,1.810200382,0.7268605412755605,0.4719105597719519,0.0247454967177642,-0.4983591450997092,5.179,4.0,-0.270032882,0.592439316,0.730744757,3.208368872,1.945672524,-2.421038868,0.4905646329855565,0.5027995451329245,-0.1834463479013248,-0.6876673583350723,5.178,5.0,-0.099451112,0.2227976905,0.949004697,-0.1099391725,-1.1000081345,0.8019642535,0.8480422609236171,-0.0486241979109676,-0.0439853925895543,-0.5258567260231799,5.178,6.0,0.0693590425,-0.0649057165,0.97452941,-0.300816443,-0.401901004,0.1583588155,0.6125590995593972,-0.1740334004985042,-0.0043255099449092,-0.7710155737866934,5.179,7.0,-0.531042723,0.091887836,0.8181037535,-0.0281304185,0.7729667375,0.1474159799999999,0.5014145295835484,0.4232767502321012,0.1280532114158294,-0.7436549181452061,5.18,8.0,0.2887539525,-0.306319949,0.8647100635,2.71185693,4.4342657515,1.483582551,0.7870768761172487,-0.1917424995807244,0.1158197301172101,-0.5747439386819364
78,78,5.297,0.0,0.000523984,-0.111276556,0.973263712,-1.071206823,-0.315264728,-0.200623802,0.5890423001590962,-0.0757865416710152,0.0585636589692826,-0.8024062976902401,5.297,1.0,0.115104391,-0.016133409,0.97317814,-0.006916704,-0.357975106,-0.764766369,0.6651921064889452,-0.069286478036512,-0.0674173884473744,-0.7403875614575326,5.297,2.0,0.087261273,-0.041904932,0.975362213,-0.074569323,0.107693249,-0.496531887,0.5070667192707761,-0.0623147913656613,-0.0328361381677371,-0.8590238628904644,5.297,3.0,-0.480823605,0.476646646,0.708179098,1.040694423,2.453486341,-1.182072841,0.6703624479618444,0.555014725091692,0.1180482424633286,-0.4781604916189917,5.298,4.0,-0.405261646,0.691579736,0.563262344,2.475212021,1.958412061,-1.953551904,0.3853508318352017,0.632259844082027,-0.1701930753928161,-0.6502203803739346,5.24,5.0,-0.066785184,0.238893096,0.948651057,0.897918819,-0.605831575,-1.223935692,0.8159574872136747,-0.0088321651394759,-0.0923166307928674,-0.5706251060003831,5.24,6.0,0.088051129,-0.081842691,0.972351157,-0.673131831,-0.711922532,1.282104324,0.6573482119825368,-0.2125270793862589,0.0131715105796333,-0.722877638359328,5.24,7.0,-0.53806151,0.10969014,0.811298271,0.214629507,-0.714021341,1.389311446,0.5561631003025207,0.397018213373497,0.0700534827134785,-0.7267404307394196,5.241,8.0,0.129302807,-0.238627952,0.941958855,3.3511315,5.313759644,1.728739593,0.8263282716039684,0.1154938477820238,0.2200392928548525,-0.5053963477038956
79,79,5.357,0.0,-0.002407716,-0.169268918,0.964415489,-0.853824971,0.439564218,-0.004590728,0.584815309960816,-0.0806310058950198,0.1068792497359628,-0.800041573982046,5.357,1.0,0.108402531,-0.015605544,0.974076156,-0.018715176,0.3103456,-0.301299832,0.6553861691526814,-0.0551152602360164,-0.0538113937972483,-0.7513558486297199,5.357,2.0,0.07263668,-0.044386922,0.976342519,-0.073965684,0.322947808,-0.657895511,0.4795338220318872,-0.0472227866055517,-0.0202372033545084,-0.8760181376849939,5.357,3.0,-0.593366208,0.476115212,0.617080909,0.950809413,1.960297786,-0.264056427,0.6315859619480878,0.6169141517731026,0.1651604395837507,-0.4395885931284889,5.357,4.0,-0.556062088,0.657925548,0.466094333,0.09535558,1.895845405,-0.698748523,0.3830440980952277,0.6880175081834166,-0.1118686655873836,-0.6061307853979979,5.309,5.0,0.018488496,0.198969403,0.958423368,-0.674677384,-0.778012658,1.329728945,0.848935730856866,-0.0569695628237354,-0.0995804979233015,-0.5158937082573684,5.309,6.0,0.118810793,-0.120009278,0.96472523,-0.880307747,-0.791473032,1.37478019,0.699663066390065,-0.258188499490714,0.0345550851139078,-0.6652940991419929,5.309,7.0,-0.321230078,0.149406551,0.913517334,0.345714143,-4.973673307,3.433248176,0.6963598373411604,0.2186215222566234,-0.1588996632140571,-0.6648597626378427,5.31,8.0,-0.263787945,0.095793651,0.938373858,3.658545378,5.500537698,1.681045224,0.7775075718063759,0.4103081272702438,0.2921256181357176,-0.3765525723037403
80,80,5.39,0.0,-0.047978329,-0.197111843,0.959021898,-0.188520739,0.641578029,0.270913678,0.5921287063164287,-0.0550472507415531,0.1331067606104713,-0.792865679432283,5.391,1.0,0.078107712,-0.013951198,0.975295622,-0.046638615,0.456038258,-0.37240746,0.6427910943633339,-0.0364401580822439,-0.0348502991422733,-0.7643802591222661,5.391,2.0,0.044737081,-0.046255068,0.976692409,-0.072922558,0.50245412,-0.096159821,0.4759267651435126,-0.0252744949519814,-0.0022333390248654,-0.879118835153561,5.391,3.0,-0.670344882,0.464343498,0.542410228,-0.596650085,1.255346428,-0.481721447,0.6369558213243547,0.6052207657860647,0.2314997426558065,-0.4176158228475564,5.391,4.0,-0.593882424,0.659426454,0.414943874,-0.280059158,1.021238005,0.331252976,0.4190140707958054,0.6963905817280426,-0.0954606786466265,-0.574764843208013,5.385,5.0,0.067140361,0.183715055,0.960497241,0.175014175,0.070481941,-0.015133705,0.8495037111652584,-0.0358871325455641,-0.0990980371504332,-0.5169479059509207,5.385,6.0,0.133834216,-0.231093106,0.942800816,-1.900410714,-0.143301721,2.230244098,0.7490009557507483,-0.3166171007317204,0.1275084665683312,-0.5678844695552944,5.385,7.0,-0.186146567,0.258717394,0.926501358,0.236541988,1.712958402,0.289716039,0.7176370447858191,0.2760455373278657,-0.0959341695796212,-0.6321333469921633,5.386,8.0,-0.399704263,0.104414057,0.889084477,-1.36164138,-0.443800489,2.072198214,0.8585977378316302,0.3469704474990808,0.2476590694909048,-0.284756770686131
81,81,5.494,0.0,-0.081997468,-0.208026652,0.953677266,-0.318511945,0.338926862,0.142225529,0.5950988265265695,-0.0476778047111871,0.1539426901713479,-0.7873283062023302,5.494,1.0,0.055263076,-0.011143855,0.977986609,0.172788824,0.409474089,0.761955854,0.6731357887042239,-0.0152151472477628,-0.0249311719429688,-0.7389419097096344,5.494,2.0,0.017217273,-0.04751051,0.979158985,0.100592427,0.363109222,0.66223557,0.5054524821876593,-0.0062905997894055,0.0047040840542401,-0.8628186879048425,5.494,3.0,-0.664223381,0.466486284,0.548886006,-0.565370354,-0.106810289,1.592598133,0.6987673617574304,0.5849508649893139,0.1862449356667763,-0.36724580818478,5.494,4.0,-0.698834021,0.531858768,0.43496007,-2.420546368,1.210798158,-4.793843911,0.3720298713260953,0.6844858438971126,0.1673378302451089,-0.6042110185311136,5.415,5.0,-0.015003152,0.222340088,0.954534856,1.001242274,1.959714831,-0.269638556,0.8511900490428103,0.0721501211809905,-0.0355071328036802,-0.518660875663596,5.414,6.0,0.061414051,-0.37822446,0.901609989,-2.676254627,-0.106078524,1.006704117,0.7374625405644933,-0.3974094572539874,0.2155431659667369,-0.5017527958609599,5.415,7.0,-0.26547521,0.196228648,0.92331968,0.361310865,0.092696156,-0.230134353,0.7072735794051769,0.2827633474697288,-0.0883782425223757,-0.6418709055968799,5.415,8.0,-0.300760423,0.074798536,0.92981576,-1.029923986,-1.537533163,-0.800798933,0.8903247748287396,0.244117377170246,0.1914161710796293,-0.333299191326484
