Timestamp,Ax,Ay,Az,Rx,Ry,Rz,EMG
0,-0.0908,-1.0171,0.0034,0.4663,0.1657,1.7253,2048
0,-0.1838,-0.9341,0.0466,0.4641,0.1654,1.478,2265
0,-0.1218,-1.1047,0.0503,0.5674,0.0776,1.4201,1946
0,-0.2607,-0.9307,0.1055,0.5698,0.1318,1.3782,1947
0,-0.1523,-1.0627,0.0298,0.5012,0.1434,1.292,2009
0,-0.2068,-0.929,0.042,0.5842,-0.0645,1.1939,1994
0,-0.2476,-1.0283,0.0859,0.6066,0.2143,1.1674,1981
0,-0.1599,-0.9631,0.0276,0.6132,0.2321,1.0844,2031
0,-0.1304,-0.9541,0.0696,0.663,0.2376,1.0813,2018
0,-0.1121,-0.9827,0.0979,0.7059,0.2514,1.0602,1981
0,-0.0754,-0.9573,0.0898,0.7452,0.1627,1.0447,2002
0,-0.1145,-0.9719,0.1011,0.7998,0.1573,1.0495,1954
0,-0.1821,-0.9963,0.051,0.8376,0.1697,1.0266,1978
0,-0.1885,-0.999,0.041,0.857,0.1956,1.0138,1997
0,-0.1548,-0.9944,0.0444,0.883,0.1867,0.9995,1966
0,-0.1094,-0.9919,0.0554,0.8838,0.1746,0.9905,1903
0,-0.0596,-1.0454,0.0691,0.8897,0.1252,1.0073,2039
0,0.1055,-1.0786,0.0715,0.9725,0.0578,1.0559,1995
0,0.3496,-0.9927,0.1055,1.1844,-0.151,1.1942,2050
0,0.2673,-1.2288,0.2048,1.2669,-0.1486,1.3941,2045
0,0.3254,-1.3354,0.3167,1.1981,0.0543,1.5681,2266
0,0.5706,-1.3047,0.4285,0.9551,0.0156,1.8058,2228
0,1.447,-1.0823,-0.0669,2.4693,-1.0519,2.8653,3030
0,-0.0281,-1.1567,0.2283,-0.1285,-0.6936,2.1558,2325
0,0.3308,-1.8867,0.0894,0.0388,-1.4576,1.9475,1655
0,-0.0967,-1.4189,0.1719,0.3922,-1.1682,1.6683,1819
0,-0.6558,-1.1665,0.2822,0.6837,-0.5273,1.324,2003
0,-0.8062,-0.918,0.2063,1.4179,-0.1071,0.9163,1944
0,-1.479,-0.8203,0.2705,0.2573,0.553,0.2711,2070
0,-1.4973,-1.011,0.3708,-0.0168,1.5926,0.2681,2087
0,-1.2937,-1.124,0.4053,-0.1031,2.7163,0.2041,2131
0,-0.6892,-1.1946,0.3457,-0.0599,2.2558,0.0334,2039
0,-0.4617,-0.7456,0.4929,-0.2392,2.4618,-0.8801,1999
0,0.2964,-0.864,0.3855,-0.049,2.3105,-1.2953,2008
0,0.322,-1.0918,0.262,-0.0618,1.6964,-2.0323,1993
0,0.1938,-1.1218,0.2004,-0.4707,1.5446,-2.3634,2037
0,0.4331,-1.2009,-0.0627,-0.5192,1.3497,-2.4739,2052
0,0.2959,-1.1167,-0.1064,-0.3217,1.0804,-2.8541,2079
0,0.4756,-1.0945,-0.0376,-0.0791,0.62,-2.8858,2056
0,0.5269,-1.0676,0.0425,0.3501,0.1254,-2.824,2042
0,0.5261,-1.1265,-0.0425,0.8636,-0.4405,-2.6629,2026
0,-0.0278,-1.2954,0.2517,0.3645,-0.1133,-3.2712,2114
0,-0.1562,-0.804,0.26,-0.2792,0.5336,-3.4725,2110
0,0.2422,-1.0029,0.1152,-0.3189,0.4421,-3.3324,2086
0,0.1387,-0.8914,0.0791,-0.2659,0.65,-3.5154,2079
0,0.229,-0.7883,0.2197,-0.5778,1.4041,-3.6134,2084
0,0.4495,-0.8113,0.1191,-0.7288,1.231,-3.5716,2016
0,0.4043,-0.8357,0.0149,-0.6308,1.2027,-3.5836,2067
0,0.1714,-0.7385,-0.0801,-0.4055,1.4038,-3.5579,2085
0,-0.0159,-0.6909,-0.0662,-0.153,1.7988,-3.5079,2086
0,0.0911,-0.6882,-0.0117,0.0052,1.9498,-3.4394,2049
0,0.1035,-0.6062,0.1787,-0.0427,1.7354,-3.0317,2023
0,0.8755,-0.8582,0.7297,-1.3756,1.7366,-2.0979,1957
0,-0.0291,-0.7129,-0.0239,-0.6831,0.8142,-2.8255,2181
0,0.0322,-0.6912,-0.0681,-0.1872,0.5782,-2.4891,2083
0,0.0146,-0.6997,0.1294,-0.8032,1.135,-2.4329,2085
0,0.4846,-0.6868,0.3201,-0.8064,0.8633,-2.1467,2018
0,0.5376,-0.6575,0.4197,-0.5996,0.6353,-2.1764,2026
0,0.4678,-0.7996,0.397,-0.7935,-0.0972,-2.0758,2058
0,0.3357,-0.7988,0.2812,-0.8496,-0.5859,-1.9,2030
0,0.2954,-0.7493,0.2039,-0.8689,-0.8403,-1.6769,2050
0,0.208,-0.7908,0.2378,-0.9457,-1.0674,-1.5138,2061
0,-0.0469,-0.6782,0.1069,-0.8589,-1.0654,-1.3976,2074
0,0.4102,-1.2654,0.6152,-0.6457,-0.7014,-1.2575,2124
0,-0.7712,-0.6646,0.0542,-0.855,-0.9384,-0.6725,1981
0,0.26,-0.5869,-0.698,-1.2388,-1.7241,-0.6737,2112
0,-0.7903,-0.5396,-0.2695,-0.4556,-0.7605,-0.3617,2129
0,-1.1387,-0.7,-0.0151,-0.5285,0.0882,-0.3029,2171
0,-1.0935,-0.5898,-0.3135,-0.5071,0.1167,-0.1051,1997
0,-1.043,-1.1194,0.2,-0.5506,0.6834,0.2763,1882
0,-1.8528,-1.5662,0.509,-1.0685,0.3639,1.6837,2021
0,-0.5994,-2.0,-0.3462,-1.3299,1.7432,1.9445,2509
0,1.7249,-2.0,0.6682,-1.0808,0.4786,2.5587,1846
0,-0.3057,-1.9668,0.2451,-0.6235,-0.5786,1.5558,2225
0,-1.3145,-1.2534,0.2019,-0.35,-0.0756,1.176,2224
0,0.2451,-1.3787,0.5442,-0.276,-0.4722,1.6661,1816
0,0.3738,-1.1321,0.3989,0.0953,-1.0302,1.8446,1584
0,0.1174,-1.1987,0.344,0.2816,-1.2122,1.2009,1816
0,0.2617,-1.0955,0.2217,0.0011,-1.2188,0.9855,2118
0,0.499,-0.8257,0.1643,-0.188,-1.1994,0.9536,2249
0,0.3684,-0.7908,0.1057,-0.4721,-0.9678,1.0393,2199
0,0.4541,-0.8213,0.0767,-0.5891,-0.7634,0.9276,2179
0,0.4719,-0.8242,0.0222,-0.6773,-0.8028,1.0224,2111
0,0.3127,-0.9846,-0.0994,-0.6562,-0.705,1.0841,2078
0,0.1108,-1.1958,-0.1108,-0.6549,-0.6758,1.0769,2007
0,-0.0259,-1.3767,-0.2214,-0.5727,-0.5335,1.0513,2118
0,-0.093,-1.1819,-0.2546,-0.2472,-0.6766,1.0618,2107
0,0.0212,-1.1482,-0.1699,-0.0144,-0.8592,0.8557,2077
0,-0.2588,-1.0618,-0.1621,0.0403,-0.7174,0.9535,2042
0,-0.1787,-0.8975,-0.1145,0.1353,-0.4566,0.8513,1986
0,0.144,-0.9636,-0.0447,0.1483,-0.3168,0.8114,2027
0,0.1819,-1.0337,0.0642,0.0931,-0.3778,0.7642,1925
0,0.1836,-1.0774,0.0625,0.0649,-0.471,0.6422,2074
0,0.1418,-1.0652,0.0698,0.1269,-0.3984,0.6183,2083
0,0.1519,-0.988,0.0767,0.14,-0.4243,0.6315,2119
0,0.1406,-0.9653,0.0374,0.1582,-0.4034,0.6397,2212
0,0.1243,-0.9934,-0.0261,0.1137,-0.4573,0.6678,2193
0,-0.0017,-1.0344,-0.0444,0.2589,-0.3362,0.6791,1959
0,-0.0627,-1.0654,-0.1123,0.3959,-0.1635,0.6299,1868
0,-0.0444,-1.0461,-0.0466,0.4589,-0.0843,0.5794,1884
0,0.0286,-0.9785,0.0168,0.4401,-0.119,0.5839,2180
0,0.0796,-0.9321,0.0293,0.3747,-0.1394,0.5761,2003
0,0.1145,-0.9351,0.0481,0.299,-0.1703,0.5964,2085
1,0.0972,-0.9858,0.0476,0.2539,-0.1887,0.5958,2085
1,0.0928,-0.9556,-0.012,0.2128,-0.2,0.6059,2032
1,0.0605,-0.9663,-0.0576,0.2087,-0.2103,0.5996,2189
1,0.0415,-0.9773,-0.0237,0.1621,-0.1887,0.5967,2109
1,0.0298,-0.9631,-0.0164,0.1416,-0.1956,0.5891,2011
1,0.0022,-0.9866,0.022,0.169,-0.2108,0.6138,1987
1,-0.0635,-1.0676,0.0593,0.1495,-0.1209,0.7079,2098
1,-0.0496,-0.9929,0.0435,0.1506,-0.0866,0.6883,2071
1,-0.0574,-0.9585,0.033,0.1758,-0.1659,0.7075,2049
1,-0.0464,-0.9744,0.0276,0.1819,-0.2177,0.7328,2080
1,-0.064,-1.0369,0.0107,0.2049,-0.2619,0.7252,2172
1,-0.1028,-1.0281,0.0193,0.2305,-0.2955,0.6634,2029
1,-0.0349,-1.0066,0.0139,0.2336,-0.3256,0.6497,2041
1,-0.0144,-0.9939,0.0291,0.2585,-0.3025,0.6482,2046
1,0.0247,-0.9805,0.0334,0.2649,-0.3317,0.6586,2032
1,0.0291,-0.9868,0.0376,0.2834,-0.337,0.6797,2040
1,-0.0374,-1.0364,0.0154,0.2946,-0.3104,0.71,2074
1,-0.1145,-1.062,-0.0049,0.2848,-0.1946,0.7003,2026
1,-0.1582,-1.0566,-0.0176,0.3397,-0.0585,0.6707,1948
1,-0.2246,-1.0701,0.0444,0.408,0.0168,0.6095,1943
1,-0.2861,-1.0496,0.0217,0.4681,0.0967,0.5372,1992
1,-0.2385,-1.1006,0.0303,0.506,0.1416,0.4733,1958
1,-0.1636,-1.0828,0.012,0.5556,0.1178,0.4433,2123
1,-0.0498,-1.0894,0.0601,0.6014,0.1304,0.4629,2095
1,-0.0259,-1.0964,0.075,0.5754,0.1637,0.5047,2019
1,0.0476,-1.0754,0.1272,0.5903,0.1593,0.5516,2073
1,0.0747,-1.0654,0.1689,0.5888,0.1815,0.6245,2032
1,0.0583,-1.0686,0.2261,0.6139,0.1442,0.6975,2008
1,0.0322,-1.0615,0.344,0.6249,0.1995,0.7596,1958
1,-0.0034,-1.0212,0.364,0.5891,0.3308,0.8024,2054
1,0.4182,-1.6016,0.6306,0.9096,-0.0868,1.0601,2003
1,-0.0359,-1.1067,0.3469,0.6096,0.0714,0.858,1956
1,-0.1191,-1.1196,0.606,-0.0716,0.7458,0.9026,1902
1,0.3625,-1.135,0.1631,1.705,-0.1699,0.9007,2182
1,-0.4993,-0.7004,0.1926,0.7191,0.592,0.3846,2244
1,-0.271,-1.0337,0.1675,0.3466,0.9995,0.4971,2065
1,-0.0549,-1.384,0.1343,1.6267,-0.0427,0.6027,2629
1,-0.3643,-0.8535,0.0391,0.3986,0.5902,-0.1314,2185
1,-0.2715,-1.1357,0.1086,0.2675,0.6227,0.138,1673
1,0.1301,-1.1448,0.0645,0.367,0.1872,0.0092,1903
1,0.332,-1.074,-0.1257,0.0819,-0.1958,-0.5618,1945
1,0.9373,-1.2188,-0.0203,0.4312,-0.7271,-0.4437,2011
1,0.0312,-1.3848,0.2236,0.0775,-1.0158,-1.3639,2039
1,0.2183,-1.4775,0.0732,-0.3071,-0.1112,-1.533,2054
1,0.3279,-0.8611,-0.2981,-0.2595,-0.0125,-1.7805,2038
1,-0.0037,-1.0339,0.0168,-0.0587,0.1517,-2.1869,2054
1,-0.415,0.2195,0.0483,0.4243,1.0412,-2.08,2031
1,-0.0916,-0.9241,0.2502,-0.773,1.9539,-2.894,2140
1,-0.3271,-0.364,-0.3052,-0.7297,1.387,-2.3655,2083
1,0.3135,-0.9927,-0.1033,0.1927,1.1223,-2.3221,2061
1,0.0583,-0.7275,0.335,0.8775,1.3443,-2.6657,2056
1,-0.1743,-0.4819,0.1824,1.692,2.5077,-2.504,2095
1,0.3762,-1.0959,0.2786,1.9185,2.907,-2.9099,1959
1,0.6067,-0.822,0.3125,1.2663,2.1475,-2.9496,1958
1,0.283,-0.8296,0.6335,1.0696,2.1422,-2.8233,2160
1,0.4678,-0.9146,0.5273,0.502,1.8234,-2.4796,2018
1,0.2261,-0.7507,0.1521,0.4709,1.6118,-2.5534,2084
1,0.2068,-0.823,0.1736,0.5799,1.6772,-2.4641,2081
1,0.21,-0.9285,0.199,0.4368,1.846,-2.4179,2056
1,0.1912,-0.7507,0.124,0.5582,1.8779,-2.4117,2114
1,0.2153,-0.8594,0.1436,0.7261,1.9599,-2.406,2041
1,0.2161,-0.8948,0.1558,0.591,1.9734,-2.412,2049
1,0.4021,-1.0383,0.334,0.3124,2.1678,-2.0612,2010
1,0.261,-0.9932,0.3293,0.13,2.1137,-1.9921,2063
1,0.2263,-0.9368,0.0879,0.0987,2.0411,-1.9793,2087
1,0.1982,-0.8987,0.24,0.2334,1.905,-2.0366,2081
1,0.2061,-0.9807,0.2603,0.2055,1.9614,-2.0766,2048
1,0.3064,-0.98,0.2407,0.2641,1.7546,-2.0915,1992
1,0.2356,-0.9734,0.2686,0.2772,1.6621,-2.1264,2150
1,0.2332,-1.0278,0.2429,0.2902,1.5163,-2.1117,2137
1,0.2412,-1.0454,0.2791,0.2188,1.4282,-2.1612,2081
1,0.2463,-1.0283,0.2891,0.136,1.313,-2.1156,2042
1,0.2002,-1.0715,0.23,0.0212,1.2061,-2.079,2069
1,0.1731,-1.0315,0.2,-0.0057,1.1536,-2.0438,2040
1,0.1553,-1.0071,0.1892,-0.029,1.0918,-1.9811,2037
1,0.1589,-0.9814,0.1797,-0.0481,1.0548,-1.9144,2043
1,0.1423,-0.9849,0.1594,-0.0559,1.0503,-1.853,2042
1,0.1062,-0.9885,0.1738,-0.1048,1.0488,-1.7857,2030
1,0.0725,-0.9661,0.1492,-0.1693,1.0895,-1.7326,2055
1,0.0476,-0.9751,0.135,-0.2639,1.1183,-1.6692,2063
1,0.0405,-0.9604,0.1187,-0.3096,1.1424,-1.6016,2053
1,0.0374,-0.9407,0.1389,-0.3406,1.1501,-1.5193,2035
1,0.0188,-0.9358,0.1545,-0.4233,1.1576,-1.4093,2032
1,0.0139,-0.9392,0.157,-0.5159,1.1324,-1.2505,2037
1,0.0146,-0.8958,0.1833,-0.5988,1.0813,-1.0899,2057
1,-0.0024,-0.8611,0.2075,-0.728,1.0074,-0.9152,2042
1,0.032,-0.7986,0.2419,-0.8811,0.8497,-0.7329,2038
1,-0.0032,-0.792,0.2556,-1.0878,0.656,-0.492,2006
1,-0.0864,-0.4866,0.6785,-0.687,1.4073,-0.7773,2050
1,-0.7876,-1.4968,-0.1008,-2.3268,1.1355,0.5382,2150
1,-0.3569,-0.4829,-0.3633,-1.5597,1.4013,-0.0603,2074
1,-0.1985,-1.4377,-0.207,-1.7265,1.6139,0.844,2268
1,0.6814,-1.084,0.2991,-1.297,1.5327,0.6315,2149
1,0.9614,-1.4563,0.9968,-0.4718,1.6808,0.1914,2037
1,0.9744,-1.5857,0.8542,-0.822,0.9827,-0.0688,1900
1,0.187,-1.1443,0.6682,-0.7817,0.7851,-0.0519,2032
1,-0.269,-0.856,0.2451,-0.8581,0.9003,0.008,2059
1,-0.0708,-0.9758,0.0281,-0.7289,0.7708,0.0539,2096
1,0.438,-1.1001,0.2122,-0.5943,0.0587,0.1746,2155
1,0.698,-1.0679,0.5293,-0.4813,-0.773,0.151,2132
1,0.4963,-1.0967,0.5859,-0.536,-1.1877,0.1521,2038
1,0.3118,-1.0525,0.4387,-0.7263,-1.0704,0.1763,2030
2,0.2227,-0.8828,0.2336,-0.7538,-0.8513,0.1519,2006
2,0.1863,-0.8135,0.1506,-0.651,-0.3852,0.0941,2044
2,0.2576,-0.7603,0.1089,-0.6111,-0.0617,0.0562,2065
2,0.3174,-0.7568,0.1526,-0.5995,0.1708,0.0435,2082
2,0.3308,-0.7888,0.2019,-0.6454,0.4124,0.0489,2066
2,0.3496,-0.7981,0.2737,-0.665,0.6184,0.0471,2071
2,0.3418,-0.8215,0.2698,-0.6767,0.7994,-0.0035,2048
2,0.395,-0.8525,0.303,-0.6497,0.8644,-0.0156,2050
2,0.3943,-0.875,0.3411,-0.6011,0.799,-0.0381,2048
2,0.4656,-0.875,0.3525,-0.6165,0.573,0.0077,2063
2,0.4668,-0.8379,0.3728,-0.5878,0.3168,0.0727,2064
2,0.4873,-0.834,0.3962,-0.5879,0.0975,0.1364,2059
2,0.604,-0.9509,0.5686,-0.4004,-0.0919,0.1561,2052
2,0.3457,-0.9373,0.6909,-0.3689,-0.4468,0.1655,2029
2,0.0977,-0.9011,0.585,-0.3059,-0.534,0.14,2044
2,0.012,-0.9192,0.4365,-0.2203,-0.5572,0.0949,2004
2,0.1111,-0.9412,0.3416,-0.2163,-0.5478,0.0447,2046
2,0.3206,-0.9624,0.2637,-0.2389,-0.6771,0.1205,2053
2,0.3538,-0.9292,0.2119,-0.3726,-0.7122,0.1099,2067
2,0.5823,-1.0911,0.1526,-0.5928,-0.7866,0.1274,2129
2,0.4602,-1.0364,0.0679,-0.7289,-0.7026,0.1658,2134
2,0.2563,-1.5002,-0.2256,-1.1243,-0.5228,0.0682,2082
2,0.1997,-1.2329,-0.2256,-1.1383,-0.3321,0.1503,2077
2,-0.1692,-1.1753,-0.2568,-1.1279,0.0883,0.0728,2082
2,0.0806,-0.9993,0.0186,-0.8935,0.3978,-0.0376,2064
2,0.2854,-0.9336,0.2825,-0.8487,0.3362,-0.0778,2053
2,0.4958,-0.916,0.3638,-0.842,0.2978,-0.0542,2041
2,0.5125,-0.8813,0.248,-0.9925,0.1802,0.0069,2038
2,0.5776,-0.9019,0.2874,-1.1107,0.1278,0.082,2071
2,0.5525,-0.9431,0.2366,-1.1914,-0.0558,0.1824,2055
2,0.4072,-0.9341,0.1768,-1.1918,-0.0712,0.2199,2089
2,0.3672,-0.9827,0.0903,-1.1453,-0.0822,0.2625,2060
2,0.3359,-0.9729,-0.061,-1.1184,-0.0455,0.2807,2065
2,0.3735,-0.9436,-0.1365,-1.0403,0.0784,0.3087,2046
2,0.3118,-0.9839,-0.071,-0.976,0.1679,0.3637,2033
2,0.2102,-0.9932,-0.0632,-0.9875,0.2345,0.4382,2030
2,0.2441,-0.9792,-0.1428,-0.9789,0.3006,0.4593,2080
2,0.3318,-0.9275,-0.1257,-0.9088,0.3442,0.4594,2077
2,0.3872,-0.8972,-0.0845,-0.8509,0.4051,0.4637,2032
2,0.4241,-0.9077,0.0002,-0.7941,0.4675,0.4862,2032
2,0.4136,-0.9824,-0.0327,-0.7777,0.4251,0.5155,2028
2,0.3796,-0.9988,-0.178,-0.7801,0.3521,0.5011,2074
2,0.3623,-0.9873,-0.228,-0.7371,0.2982,0.5319,2097
2,0.3481,-0.8982,-0.1975,-0.6975,0.3944,0.589,2076
2,0.3796,-0.9199,-0.146,-0.5549,0.4725,0.601,2057
2,0.3394,-1.0122,-0.0637,-0.5263,0.4802,0.6416,2044
2,0.2546,-1.0364,-0.0862,-0.5333,0.4513,0.6545,2016
2,0.2241,-1.011,-0.063,-0.5099,0.4605,0.6275,2064
2,0.175,-0.9912,-0.0139,-0.4638,0.4831,0.6139,2079
2,0.2007,-1.012,0.0176,-0.4601,0.446,0.5963,2052
2,0.2185,-1.021,-0.0347,-0.45,0.4686,0.5462,2059
2,0.1868,-0.9995,-0.0952,-0.4441,0.4595,0.5283,2045
2,0.1616,-0.9851,-0.134,-0.4223,0.5007,0.5074,2093
2,0.1257,-0.9722,-0.1846,-0.3781,0.5529,0.467,2055
2,0.1643,-0.9485,-0.208,-0.3802,0.5803,0.4548,2064
2,0.2979,-1.0107,-0.2083,-0.2434,0.5381,0.4149,2071
2,0.1887,-0.9636,-0.1272,-0.2393,0.3892,0.449,2054
2,0.2156,-1.0034,-0.1548,-0.224,0.3687,0.4694,2050
2,0.1958,-0.999,-0.1584,-0.1475,0.3274,0.4615,2043
2,0.1841,-1.0259,-0.146,-0.129,0.2519,0.4365,2038
2,0.1121,-0.9878,-0.1785,-0.078,0.234,0.4224,2063
2,0.0554,-0.989,-0.1873,-0.0265,0.2124,0.3493,2080
2,0.0483,-0.9963,-0.1658,-0.0337,0.1392,0.3406,2042
2,0.05,-1.019,-0.1365,-0.0101,0.142,0.3131,2058
2,0.0684,-1.0132,-0.0991,0.0161,0.1398,0.2803,2066
2,0.0769,-1.0071,-0.0901,0.0051,0.116,0.2627,2068
2,0.061,-1.0161,-0.0798,0.0205,0.134,0.2229,2081
2,0.1121,-1.012,-0.0757,-0.0024,0.0956,0.2012,2008
2,0.1138,-1.031,-0.0449,-0.0049,0.0985,0.1948,2047
2,0.1565,-1.0205,-0.054,-0.0112,0.1096,0.1751,2110
2,0.1951,-1.0024,-0.0601,-0.0109,0.0463,0.1767,2028
2,0.1902,-1.0398,-0.0662,-0.0166,0.0296,0.1896,2070
2,0.1882,-1.0364,-0.1211,-0.0322,0.0003,0.1935,2043
2,0.1726,-1.0466,-0.126,-0.0414,-0.0325,0.2119,1994
2,0.1333,-1.0027,-0.1543,-0.0257,-0.0738,0.1935,2052
2,0.1382,-1.0271,-0.1167,0.0174,-0.0719,0.1854,2040
2,0.1316,-1.0127,-0.1177,0.0418,-0.0832,0.1791,2049
2,0.1553,-1.0386,-0.0964,0.079,-0.0549,0.1827,2054
2,0.1404,-1.0342,-0.0952,0.1031,-0.0471,0.1678,2058
2,0.0903,-1.031,-0.0701,0.0878,-0.0241,0.1571,2048
2,0.1165,-1.0173,-0.0952,0.0858,0.0085,0.1469,2099
2,0.0884,-1.0149,-0.0693,0.0731,0.0557,0.0804,2042
2,0.1125,-1.0183,-0.0405,0.0486,0.1125,0.098,2052
2,0.0723,-1.0503,-0.0496,0.0031,0.1545,0.0939,2080
2,0.134,-1.0457,-0.0366,-0.0557,0.0566,0.1048,2112
2,0.1135,-1.0024,-0.113,-0.1185,-0.0762,0.0883,2088
2,0.1353,-1.0261,-0.1292,-0.1276,-0.1193,0.0776,2092
2,0.1162,-1.0249,-0.1157,-0.0563,-0.0649,0.0651,2073
2,0.0703,-1.0171,-0.0649,0.0218,0.0782,0.0325,2012
2,0.0964,-1.0603,-0.0144,0.0595,0.2223,-0.0278,1974
2,0.1409,-1.0498,-0.0054,0.0505,0.2784,-0.0712,2037
2,0.165,-1.0381,-0.0088,0.0246,0.3056,-0.0541,2054
2,0.1963,-1.0347,-0.0217,-0.0121,0.308,-0.0282,2030
2,0.2021,-1.0051,-0.0603,0.0075,0.2846,0.0226,2035
2,0.2092,-1.0056,-0.0562,0.0061,0.2453,0.0824,2041
2,0.2119,-1.0005,-0.0815,-0.0121,0.1565,0.1113,2086
2,0.1038,-0.988,-0.1077,-0.004,0.0915,0.1273,2031
2,0.0579,-1.0039,-0.1213,0.0597,0.1107,0.1077,2080
2,0.0701,-1.0381,-0.095,0.1051,0.1149,0.0924,2069
2,0.0537,-1.0679,-0.0776,0.1409,0.1441,0.0699,2050
2,0.0566,-1.0376,-0.0669,0.1581,0.1529,0.0445,2083
3,0.084,-1.0278,-0.0647,0.1719,0.149,0.0322,2009
3,0.106,-1.0173,-0.0544,0.2015,0.1336,0.0288,2056
3,0.0864,-1.0078,-0.0496,0.2277,0.1079,0.0177,2057
3,0.0557,-0.9863,-0.092,0.2445,0.0919,0.006,2088
3,0.0667,-0.9863,-0.1182,0.2896,0.0814,-0.0051,2050
3,0.1025,-1.001,-0.1223,0.3445,0.1084,-0.0146,2083
3,0.1299,-0.9866,-0.1279,0.3798,0.1282,-0.019,2041
3,0.1372,-0.9871,-0.1191,0.4048,0.1222,-0.0015,2080
3,0.1357,-0.9976,-0.1262,0.4417,0.1178,0.0023,2109
3,0.1165,-0.9907,-0.0793,0.4759,0.118,0.0119,2072
3,0.1516,-0.9761,-0.0581,0.4948,0.0851,0.0197,2041
3,0.1409,-0.9958,0.0044,0.5159,0.0712,0.0324,2067
3,0.1487,-0.9866,0.0066,0.522,0.0575,0.0442,2152
3,0.1553,-0.9905,0.0112,0.5347,0.0451,0.0446,2083
3,0.1492,-1.0002,0.0291,0.5108,0.0517,0.0493,2052
3,0.1335,-0.9858,0.0161,0.5002,0.0332,0.0493,2040
3,0.1326,-0.9932,0.0408,0.4948,0.0249,0.0565,2060
3,0.1064,-0.99,0.0315,0.5002,0.0253,0.0551,2051
3,0.0837,-0.988,0.0498,0.4835,0.0234,0.0543,2036
3,0.0806,-0.9873,0.0354,0.4465,-0.0226,0.0623,2067
3,0.0857,-1.0054,0.05,0.4223,-0.0394,0.0561,2099
3,0.0786,-1.0308,0.0488,0.4088,-0.0756,0.085,2053
3,0.0657,-1.0295,0.0801,0.4015,-0.0748,0.0932,2079
3,0.0664,-1.0679,0.0862,0.3908,-0.1004,0.0957,2053
3,0.0686,-1.0652,0.0852,0.3952,-0.1184,0.0936,2051
3,0.0457,-1.0649,0.0813,0.4083,-0.122,0.081,2087
3,0.0701,-1.0225,0.0728,0.4124,-0.121,0.0615,2041
3,0.1177,-0.9778,0.0947,0.4061,-0.1047,0.0437,2058
3,0.1833,-0.9431,0.1167,0.388,-0.0875,0.0242,2055
3,0.1804,-0.9355,0.1174,0.3771,-0.0505,0.0296,2045
3,0.1892,-0.9731,0.1396,0.3641,-0.0232,0.0213,2056
3,0.1672,-0.9822,0.1494,0.3721,0.0176,0.0322,2050
3,0.177,-0.9766,0.1555,0.3711,0.0589,0.0352,2076
3,0.1992,-0.9688,0.1455,0.3843,0.0815,0.0497,2044
3,0.1689,-0.9644,0.1555,0.3583,0.0571,0.0654,2067
3,0.1541,-1.0007,0.1377,0.2882,-0.0358,0.0916,2128
3,0.1316,-1.0347,0.1091,0.2543,-0.0718,0.1108,2094
3,0.1018,-1.0317,0.105,0.2338,-0.0482,0.1185,2076
3,0.1042,-1.0247,0.0981,0.2394,-0.0197,0.124,2046
3,0.1255,-1.0142,0.0962,0.2472,-0.0221,0.1321,2060
3,0.1169,-0.9851,0.093,0.2505,-0.002,0.1341,2063
3,0.1182,-0.9548,0.074,0.2465,-0.0105,0.1412,2076
3,0.1013,-0.9485,0.0715,0.2481,-0.0111,0.1471,2044
3,0.0925,-0.9355,0.0686,0.2543,-0.0027,0.1416,2062
3,0.0898,-0.9673,0.1003,0.2605,0.0277,0.1278,2052
3,0.0662,-1.0068,0.0918,0.265,0.0594,0.1336,2072
3,0.0359,-1.02,0.1108,0.2836,0.0478,0.1189,2090
3,0.0225,-1.0498,0.085,0.3023,0.0316,0.0852,2081
3,-0.0071,-1.051,0.062,0.3442,0.0169,0.055,2057
3,-0.0349,-1.0581,0.0483,0.3918,-0.0015,0.0161,2053
3,-0.0757,-1.052,0.0271,0.4382,-0.0073,-0.0534,2045
3,-0.0706,-1.0747,0.0396,0.4926,-0.0095,-0.1063,2036
3,-0.0193,-1.1038,0.052,0.5276,-0.0045,-0.1541,2042
3,0.0071,-1.1113,0.0464,0.5433,0.0198,-0.2007,2031
3,0.0515,-1.0847,0.0427,0.5686,0.0531,-0.244,2054
3,0.0657,-1.0776,0.0662,0.626,0.0951,-0.2794,2058
3,0.0588,-1.0859,0.0876,0.6858,0.1029,-0.3362,2054
3,0.0437,-1.0923,0.0994,0.7445,0.2361,-0.4116,2055
3,0.0867,-1.063,0.0547,0.8509,0.2579,-0.5315,2073
3,-0.019,-1.1541,0.1057,0.9817,0.2193,-0.6482,2028
3,-0.0952,-1.1904,0.1143,1.0246,0.1977,-0.7618,2010
3,-0.1931,-1.1743,0.0635,0.9633,0.2241,-0.8436,2115
3,-0.228,-1.2014,0.113,0.907,0.286,-0.9063,2088
3,-0.2393,-1.2188,0.0972,0.766,0.2902,-0.9435,2133
3,-0.2266,-1.2666,0.0767,0.6901,0.3634,-1.0147,2080
3,-0.1543,-1.283,0.0383,0.5907,0.4063,-1.0945,1972
3,-0.1345,-1.3115,-0.0381,0.4927,0.3694,-1.1668,2021
3,-0.0776,-1.3557,-0.1045,0.3789,0.3553,-1.2153,2018
3,-0.0051,-1.3247,-0.1384,0.2992,0.2163,-1.2051,2043
3,0.0762,-1.291,-0.1565,0.4036,0.0136,-1.1524,2073
3,0.0947,-1.2891,-0.1665,0.4713,-0.0758,-1.0164,2086
3,0.0339,-1.2009,-0.1733,0.5022,-0.0698,-0.8666,2111
3,0.0789,-1.1599,-0.1562,0.4915,-0.0037,-0.7359,2043
3,0.2427,-1.1848,-0.1067,0.4569,0.0342,-0.6023,2084
3,0.3147,-1.0544,-0.0383,0.3958,-0.1428,-0.4271,2163
3,0.1414,-0.9263,0.0225,0.0627,-0.159,-0.3967,2089
3,-0.301,-0.8843,0.082,-0.2173,-0.2128,-0.7938,2057
3,-0.0576,-0.3284,-0.3333,-0.6038,0.8716,-1.438,1987
3,0.7825,-0.8633,-0.1194,0.5288,-0.2153,-0.0663,1948
3,1.0999,-1.2874,0.238,0.316,0.1181,0.1193,2146
3,0.9421,-1.2981,0.5825,-0.0975,0.1642,-0.0075,2198
3,0.7649,-1.0488,0.4558,-0.3422,-0.8216,0.4189,2147
3,0.5928,-0.8586,0.156,-0.5753,-2.447,0.9551,2014
3,0.1079,-0.8108,-0.0603,-0.7721,-3.1477,1.0231,2017
3,-0.0122,-0.7788,-0.1367,-0.7574,-3.2905,1.0889,2048
3,0.0432,-0.75,-0.0227,-0.6485,-3.3003,1.2348,2046
3,0.0256,-0.7778,0.0769,-0.6197,-3.1594,1.3693,2073
3,0.0027,-0.7747,0.1328,-0.7012,-2.9235,1.5567,2054
3,0.0161,-0.762,0.0796,-0.8184,-2.8123,1.6664,2077
3,-0.0205,-0.8096,0.0085,-0.9319,-2.6924,1.7672,2054
3,-0.0232,-0.8398,-0.1008,-0.9666,-2.4381,1.9413,2033
3,0.0171,-0.885,-0.1462,-0.9582,-2.1425,2.122,2066
3,0.0283,-0.907,-0.1174,-0.9745,-1.7839,2.2546,2072
3,0.0212,-0.9089,-0.1001,-1.0083,-1.4226,2.3194,2082
3,0.02,-0.8879,-0.1023,-0.9993,-1.1493,2.38,2074
3,0.0051,-0.8977,-0.0933,-1.0268,-0.8834,2.4131,2068
3,0.0466,-0.9189,-0.0483,-1.0624,-0.6553,2.474,2047
3,0.0867,-0.9431,0.0186,-1.0746,-0.433,2.5188,2035
3,0.1121,-0.9585,0.0791,-1.1246,-0.2188,2.5172,2038
3,0.1333,-0.9819,0.0422,-1.1481,-0.0778,2.4999,2039
3,0.1501,-1.0413,0.009,-1.1477,-0.074,2.4758,2026
3,0.176,-1.0579,0.0469,-1.1822,-0.1012,2.5108,2050
3,0.2295,-1.054,0.1335,-1.3069,-0.2188,2.6221,2086
3,0.2261,-1.0437,0.1274,-1.3786,-0.2884,2.6629,2058
4,0.2656,-1.0649,0.1924,-1.4029,-0.3446,2.7231,2051
4,0.2876,-1.0588,0.2192,-1.4689,-0.3939,2.7365,2054
4,0.3333,-1.0068,0.291,-1.5653,-0.5576,2.7377,2064
4,0.3899,-0.9644,0.3337,-1.5591,-0.7681,2.751,2060
4,0.4187,-0.908,0.3445,-1.5575,-1.1374,2.737,2060
4,0.3879,-0.8237,0.3137,-1.3848,-1.5888,2.7541,2053
4,0.333,-0.8665,0.2764,-1.1058,-2.1308,2.8365,2041
4,0.4268,-0.908,0.4216,-0.9274,-2.4474,2.811,2057
4,0.4626,-0.9509,0.55,-0.8955,-2.7446,2.7354,2050
4,0.4663,-0.9836,0.5527,-0.7416,-3.2822,2.6373,2069
4,0.4495,-0.9705,0.5193,-0.5976,-3.9105,2.4482,2037
4,0.3718,-0.988,0.4805,-0.5,-4.2992,2.1772,2110
4,0.1555,-0.981,0.4055,-0.3185,-4.3635,1.8901,2111
4,-0.0125,-0.9946,0.4595,-0.1249,-4.3635,1.5423,2084
4,-0.0986,-1.033,0.4785,-0.1463,-4.2578,1.1014,2088
4,-0.6509,-2.0,0.8179,-1.1316,-3.6234,-0.0972,2073
4,-0.6777,-0.2046,0.1257,-2.6695,-1.9816,-1.2418,2515
4,1.0688,-0.2861,-0.002,0.0641,-4.3635,0.294,1839
4,-1.2417,-1.1965,0.6042,0.2083,-3.8655,-0.0395,2030
4,-1.6392,-0.9033,0.3945,-0.503,-4.0618,0.7022,2138
4,-1.3037,-0.7571,-0.1206,0.4484,-3.2335,-0.0017,1968
4,-1.1748,-0.7966,0.3518,0.6763,-1.9136,-0.1816,1987
4,-0.9812,-0.9753,0.4272,0.3991,-0.7681,-0.3547,1871
4,-0.7649,-0.8335,0.2085,0.0751,-0.0378,-0.543,1984
4,-0.6978,-0.9277,0.2097,0.1028,0.2855,-0.5666,2077
4,-0.5837,-0.9202,0.2229,0.0955,1.0748,-0.7106,2121
4,-0.2571,-0.7964,0.2751,0.196,1.5988,-0.7969,2072
4,-0.3066,-1.0063,0.405,0.4545,1.456,-0.868,1972
4,-0.6577,-0.9062,0.3625,0.19,2.6695,-0.9644,2103
4,0.2205,-1.5806,0.0149,-0.3492,2.4709,-1.0051,2078
4,1.9999,-2.0,-0.6062,-2.2019,-1.0702,-0.6837,2592
4,1.3555,-0.5249,-0.2007,-0.2076,-1.507,-0.5047,2495
4,0.0549,-1.2698,-0.6328,-0.6699,-1.068,-0.2329,1725
4,-2.0,-1.4121,-1.2129,-0.8652,-0.2751,0.0939,1928
4,-1.7815,-0.8123,-1.5225,-0.453,1.0922,-0.2846,1900
4,0.2385,-0.9219,-0.7219,-0.0185,0.979,-0.2838,2077
4,0.0334,-0.9702,0.2183,0.4809,0.5308,-0.2386,2366
4,-0.6431,-0.866,0.6943,0.6148,1.0601,-0.3785,2065
4,-0.3428,-1.1533,0.6404,0.169,0.6871,-0.5344,1893
4,-0.2156,-1.0754,1.167,-0.1977,0.3831,-0.5506,1963
4,-0.186,-1.0442,1.1438,-0.4589,-0.514,-0.638,2002
4,-0.4236,-1.0732,0.5173,-0.6171,-0.9819,-0.7219,2033
4,-0.5798,-1.0701,0.1238,-0.6396,-1.0762,-0.8799,2119
4,-0.4705,-1.0059,-0.1665,-0.5307,-0.8909,-1.0029,2040
4,-0.3716,-0.9146,-0.4436,-0.3639,-0.9271,-1.0424,2032
4,-0.3757,-0.8914,-0.3918,-0.2986,-0.8846,-1.0768,2055
4,-0.3274,-0.8987,-0.3115,-0.3276,-0.7415,-1.0023,1934
4,-0.2859,-0.95,-0.2195,-0.3707,-0.7016,-0.968,1953
4,-0.1843,-0.9529,-0.1177,-0.4661,-0.7126,-0.9343,1934
4,0.2944,-0.7603,-0.0864,-0.3607,-0.9444,-0.8395,1968
4,-0.1443,-1.0479,0.0469,-0.565,-0.6742,-0.9808,1946
4,0.0376,-0.9685,0.1836,-0.3241,-0.5042,-0.9881,2058
4,0.0452,-1.0654,0.1511,-0.3132,-0.3606,-0.9017,2123
4,0.0269,-1.0291,0.1069,-0.2036,-0.3165,-0.7778,2165
4,-0.0027,-1.0361,0.0422,-0.2336,-0.3778,-0.6694,2173
4,0.0103,-1.0227,0.033,-0.2456,-0.3534,-0.5853,2135
4,-0.0042,-1.0186,0.0061,-0.2598,-0.3494,-0.5052,2111
4,-0.0564,-1.01,0.012,-0.2617,-0.2924,-0.4369,2035
4,-0.0647,-1.0027,-0.019,-0.2453,-0.2249,-0.4229,1978
4,-0.123,-1.0081,-0.0396,-0.2189,-0.1712,-0.4251,1954
4,-0.178,-0.9851,-0.0913,-0.1844,-0.1483,-0.4362,2045
4,-0.2385,-0.9707,-0.1323,-0.1804,-0.1645,-0.4891,2109
4,-0.2683,-0.9946,-0.1375,-0.2116,-0.2148,-0.5428,2063
4,-0.2346,-1.0063,-0.1604,-0.1621,-0.2506,-0.5596,2037
4,-0.1924,-1.0044,-0.104,-0.1332,-0.2775,-0.6103,2040
4,-0.1611,-1.0115,-0.0696,-0.1185,-0.2731,-0.6279,2035
4,-0.1292,-1.0107,-0.0442,-0.1103,-0.2896,-0.6514,2050
4,-0.1133,-1.0325,-0.0142,-0.1061,-0.2788,-0.6556,2077
4,-0.1182,-1.0051,-0.0168,-0.0546,-0.2755,-0.6588,2086
4,-0.0837,-0.894,-0.0078,0.0055,-0.2779,-0.6509,2073
4,-0.0593,-1.0408,-0.0471,-0.0747,-0.2569,-0.6891,2032
4,-0.062,-0.9792,-0.053,0.0446,-0.2867,-0.5608,2059
4,-0.0364,-1.0012,-0.1167,0.0329,-0.2505,-0.6497,2014
4,-0.0022,-1.0364,-0.032,0.1182,-0.4023,-0.622,2043
4,-0.1626,-0.9614,-0.0854,0.0301,-0.2254,-0.5404,2034
4,-0.0852,-1.1404,-0.1187,-0.0762,-0.0445,-0.6313,2133
4,-0.0166,-1.1238,-0.1094,0.0514,-0.0229,-0.5874,2153
4,0.1299,-0.8245,-0.0281,0.0574,-0.2904,-0.5898,2059
4,-0.395,-1.0259,-0.002,-0.2448,0.0447,-0.5205,2082
4,-0.022,-1.2061,-0.0933,-0.1185,0.279,-0.545,2266
4,0.3721,-0.9202,-0.1421,-0.0261,-0.1389,-0.6074,2131
4,0.4026,-0.8064,-0.022,0.1637,-1.0999,-0.7889,1896
4,-0.4822,-0.8958,0.0542,0.2064,-0.7686,-0.4775,1974
4,-0.0398,-1.2393,-0.0674,-0.0051,-0.2203,-0.4746,2004
4,0.0078,-0.8979,-0.0693,0.0585,-0.1222,-0.5343,2044
4,0.0105,-0.9919,-0.1069,0.1256,-0.0145,-0.4184,2121
4,-0.0547,-0.9854,-0.1025,0.147,-0.1545,-0.4978,2069
4,-0.0261,-1.0344,-0.0859,0.1665,-0.1261,-0.5319,1997
4,-0.0327,-1.0229,-0.0908,0.2196,-0.1023,-0.5366,2031
4,-0.0559,-1.0142,-0.0989,0.2571,-0.1369,-0.5886,2018
4,-0.022,-1.061,-0.0503,0.2382,-0.0999,-0.567,1984
4,-0.0356,-1.0664,-0.0764,0.2302,-0.0406,-0.5738,2011
4,-0.0537,-1.0454,-0.0271,0.2373,0.0053,-0.6054,2120
4,-0.0146,-0.9983,-0.0669,0.2754,0.0069,-0.6259,2019
4,-0.0076,-0.9885,-0.0779,0.3665,-0.0125,-0.6432,1969
4,-0.0256,-0.9612,-0.0696,0.4799,-0.0507,-0.6725,2169
4,-0.114,-0.9639,-0.092,0.4361,-0.2559,-0.6842,2043
4,-0.0759,-1.0669,-0.1028,0.3682,-0.2457,-0.6528,1969
4,-0.0291,-1.0715,-0.0955,0.3774,-0.3236,-0.6465,2031
4,-0.0554,-1.1223,-0.1426,0.3414,-0.3135,-0.7309,2021
4,0.0183,-1.0891,-0.1348,0.3397,-0.2982,-0.81,2058
5,-0.0967,-1.1892,-0.0957,0.3729,-0.2137,-0.9666,2062
5,-0.259,-1.2876,-0.0852,0.3966,0.1313,-1.1119,2035
5,-0.2039,-1.2122,-0.0596,0.4398,0.3745,-1.2653,2032
5,-0.1768,-1.2458,-0.0115,0.5062,0.4618,-1.4045,1931
5,-0.1887,-1.2085,0.0779,0.6711,0.4895,-1.5583,2138
5,-0.261,-1.1968,0.1797,0.802,0.4445,-1.8018,2166
5,-0.2673,-1.2876,0.3057,0.7233,0.0642,-1.986,1927
5,-0.3972,-1.4468,0.2627,0.5882,-0.0324,-2.172,1897
5,-0.3267,-1.4854,0.2563,0.4795,-0.1402,-2.2621,1997
5,-0.2949,-1.4399,0.2263,0.3203,-0.2368,-2.2651,2404
5,-0.1841,-1.489,0.2104,0.2272,-0.2429,-2.2216,2467
5,-0.0923,-1.3884,0.2781,0.3025,-0.3259,-2.074,2122
5,-0.1682,-1.3408,0.302,0.4486,-0.2486,-1.9009,2044
5,-0.0151,-1.314,0.3967,0.7477,-0.1447,-1.7037,1916
5,0.0872,-1.4995,0.2854,0.7921,0.1989,-1.6483,1675
5,0.0894,-1.3137,0.1348,0.8068,0.3235,-1.7463,1776
5,0.1116,-1.2302,-0.1726,0.8171,0.2212,-1.8282,1960
5,0.2021,-0.7913,-0.1206,0.8819,0.7845,-2.1216,2131
5,0.2078,-0.7852,-0.085,0.6473,1.6676,-2.3553,2145
5,0.2744,-0.5112,-0.2639,0.804,1.4426,-2.2169,2152
5,1.1858,-0.2947,0.0542,0.9401,-0.1089,-1.7546,2004
5,1.0725,-0.158,-0.0884,0.9612,0.0101,-1.1886,1998
5,1.0835,-0.6152,-0.1438,0.901,-1.7713,-0.2671,2003
5,1.3301,-0.7732,0.3381,0.1261,-0.5167,0.2683,2244
5,0.9006,-0.5144,0.4761,0.188,0.0012,0.75,2121
5,0.218,-0.4597,0.262,-0.2109,0.1517,1.2251,2067
5,-0.1423,-0.3474,-0.2661,-0.696,-0.4361,1.6556,2117
5,-0.2429,-0.3047,-0.6255,-0.7684,-0.5829,1.8193,2155
5,-0.2239,-0.3357,-0.5884,-0.5573,-0.3822,1.9311,2118
5,-0.1106,-0.3958,-0.3926,-0.2783,-0.0269,2.0258,2042
5,0.0869,-0.4172,-0.2112,-0.1714,0.2907,2.183,2016
5,0.1328,-0.4661,-0.0923,-0.1296,0.501,2.3374,2030
5,0.2036,-0.5273,-0.0317,-0.1535,0.5911,2.5272,2042
5,0.2095,-0.658,0.0125,-0.248,0.7285,2.6793,2032
5,0.1287,-0.668,0.0005,-0.6096,1.0943,2.814,2059
5,0.1331,-0.6257,-0.0178,-0.9106,1.2525,2.9175,2089
5,0.1802,-0.6831,-0.0115,-0.8629,1.3878,3.0332,2032
5,0.0532,-0.7756,-0.0754,-1.0906,1.6644,3.158,2030
5,0.0217,-0.8442,-0.1599,-1.2456,2.1225,3.1392,2025
5,0.0232,-0.9148,-0.2168,-1.1813,2.5125,3.0409,2013
5,-0.0613,-1.0581,-0.1611,-1.0508,2.7742,2.9167,1999
5,0.0559,-1.2854,0.0994,-1.2165,2.9103,3.0505,2049
5,0.1631,-1.3032,0.2832,-1.4346,3.3208,3.1941,2108
5,0.0537,-1.2925,0.1965,-1.536,3.6482,2.952,2014
5,0.0842,-1.3738,0.1062,-1.5668,3.9436,2.9476,1958
5,-0.3352,-0.1631,-1.4866,-4.2606,4.3634,1.9969,2623
5,1.9999,0.5364,0.3333,-0.2448,2.9067,3.0083,1512
5,1.8735,-2.0,-0.0635,1.7057,-0.575,3.4238,1113
5,-0.0969,-1.949,1.1501,-0.281,0.647,2.0732,2526
5,1.0176,-1.4089,0.8452,-0.6649,0.8885,1.5976,2310
5,1.1572,-0.7905,1.2085,-0.7899,-1.5845,1.158,2120
5,1.1665,-1.3184,0.6833,-0.9894,-3.2168,0.4874,2047
5,0.4192,-1.7751,0.8984,-1.2668,-3.5784,-0.2185,2333
5,-0.2405,-0.7734,1.4656,-0.518,-2.9405,-0.0457,2494
5,-1.4341,-1.144,0.8601,-0.1977,-2.1592,-0.3955,1855
5,-2.0,-1.1836,0.4697,0.0206,-1.9366,-0.4059,2047
5,-0.4744,-2.0,-0.146,-0.7042,-1.816,-0.7879,1811
5,-0.3687,-0.8545,-0.4482,-0.4397,-1.0286,-0.9813,2002
5,0.3037,-0.7285,-0.0698,-0.2318,-1.4308,-0.9399,1899
5,-0.1321,-1.2693,-0.2332,-0.2558,-1.6211,-0.7775,2124
5,-0.2974,-0.9241,-0.1948,-0.4622,-0.594,-0.6858,2017
5,0.0828,-0.9255,-0.3928,-0.3858,-0.492,-0.6569,2041
5,0.0154,-1.0217,-0.0081,-0.1675,-0.2772,-0.7163,1939
5,-0.0549,-0.906,0.2708,-0.3606,-0.2542,-0.769,1915
5,0.1274,-0.9604,0.2737,-0.4494,-0.2424,-0.6525,2169
5,0.0417,-0.9517,0.2327,-0.4289,-0.2691,-0.5861,2173
5,0.0283,-0.9409,0.2322,-0.4975,-0.4863,-0.5705,2067
5,-0.0332,-1.02,0.0403,-0.4606,-0.4999,-0.5305,2053
5,-0.1157,-1.0247,-0.24,-0.3454,-0.3992,-0.5147,2087
5,-0.0591,-1.0603,-0.2979,-0.2442,-0.2205,-0.5509,2026
5,-0.0137,-1.0505,-0.2346,-0.1886,-0.2253,-0.4412,2071
5,-0.0303,-1.0837,-0.2534,-0.0718,-0.2047,-0.4003,2095
5,-0.0127,-1.0603,-0.187,0.0461,-0.1553,-0.3968,2069
5,-0.1003,-1.0264,-0.168,0.1099,-0.1213,-0.4039,2112
5,-0.1555,-1.0308,-0.1504,0.1152,-0.1436,-0.406,2059
5,-0.2192,-1.0996,-0.1401,0.0533,-0.092,-0.4533,2032
5,-0.2625,-1.0679,-0.1372,0.0353,-0.0209,-0.5456,2017
5,-0.2039,-1.0615,-0.1042,0.0266,0.0292,-0.6172,2072
5,-0.1213,-1.0559,-0.0872,-0.0158,0.1017,-0.6584,2021
5,-0.0627,-1.0415,-0.0605,0.0037,0.1047,-0.6698,2017
5,-0.0332,-0.9836,-0.0964,0.0441,0.0638,-0.6735,2041
5,-0.0715,-0.9924,-0.1072,0.0771,0.0732,-0.7087,2040
5,-0.0337,-1.0032,-0.1248,0.1049,0.1188,-0.7088,2079
5,-0.0332,-0.9707,-0.0981,0.1302,0.1132,-0.7084,2079
5,-0.0156,-0.9465,-0.061,0.0692,0.0569,-0.6341,2039
5,0.0952,-1.0024,-0.0237,0.0344,-0.0089,-0.5991,2011
5,0.1157,-0.9766,-0.0032,-0.0198,-0.0979,-0.5201,2031
5,0.1431,-1.0247,0.0129,-0.0562,-0.0365,-0.4678,2067
5,0.2273,-1.0071,0.053,-0.0465,-0.0742,-0.4337,2067
5,0.2334,-1.0222,0.0386,-0.038,-0.0902,-0.3928,2131
5,0.2061,-1.0171,0.0166,-0.0411,-0.0591,-0.3321,2125
5,0.197,-1.0039,-0.0085,-0.0344,0.0361,-0.3059,2108
5,0.2253,-1.0039,0.0005,-0.0202,0.0985,-0.2533,2084
5,0.1963,-1.0171,-0.0146,-0.0124,0.1634,-0.2184,2112
5,0.1621,-1.0181,-0.0205,-0.0182,0.1659,-0.159,2113
5,0.1094,-1.0208,-0.0439,0.0037,0.1827,-0.1306,2034
5,0.0662,-1.0085,-0.0398,0.0382,0.1712,-0.1165,1987
5,0.0112,-1.0481,-0.0845,0.0862,0.2152,-0.1605,2041
5,-0.072,-1.0361,-0.0698,0.0566,0.2236,-0.1743,2049
5,-0.104,-1.0327,-0.0671,0.0696,0.2346,-0.2743,2068
5,-0.1555,-1.042,-0.0769,0.1032,0.1477,-0.3995,2079
5,-0.229,-1.0515,-0.1274,0.1547,0.0587,-0.5374,2084
6,-0.3037,-1.0378,-0.1782,0.2203,0.0154,-0.7323,2141
6,-0.2969,-1.0427,-0.2021,0.3209,-0.0499,-0.8993,2148
6,-0.2485,-1.0027,-0.252,0.4713,-0.1116,-1.0423,2067
6,-0.2795,-0.9709,-0.2266,0.5659,-0.1578,-1.1376,2052
6,-0.3171,-1.0,-0.2004,0.545,-0.2613,-1.1696,2155
6,-0.1716,-1.0918,-0.1492,0.4572,-0.2195,-1.1374,1922
6,-0.1028,-1.0247,-0.2236,0.4739,-0.1673,-1.1439,1880
6,-0.0769,-0.9788,-0.2061,0.581,-0.025,-1.2906,1632
6,-0.0601,-0.9507,-0.1741,0.7078,0.1647,-1.4436,1851
6,-0.1104,-0.9927,-0.0557,0.7545,0.4635,-1.6356,1930
6,-0.0549,-0.9663,0.0442,0.7961,0.828,-1.8168,2182
6,0.1177,-1.0745,0.1289,0.861,1.0412,-1.8752,2165
6,0.0325,-1.0723,0.1091,0.8608,1.1013,-1.8468,2220
6,0.064,-1.2046,0.0896,0.5766,0.9227,-1.8088,2211
6,0.0405,-1.1526,0.0593,0.5645,0.9235,-1.8301,2222
6,-0.0435,-1.1917,-0.0164,0.497,1.0187,-1.8006,2125
6,0.1663,-1.2297,0.0964,0.6333,0.8688,-2.0521,2063
6,0.1665,-1.2119,0.2175,0.7026,0.8256,-1.9614,2010
6,-0.0383,-1.5327,0.2703,0.805,0.5661,-1.97,2081
6,-0.175,-1.6897,0.2505,0.7954,0.4318,-2.0556,2139
6,-0.3176,-1.6091,0.3342,0.8082,0.3145,-2.149,2071
6,-0.5315,-1.5945,0.3252,0.747,0.338,-2.3079,2040
6,-0.5867,-1.5776,0.2051,0.7139,0.5606,-2.4912,2448
6,-0.405,-1.585,0.1501,0.7363,0.6859,-2.5935,1993
6,-0.1379,-1.4866,-0.0208,0.8774,0.9708,-2.5341,1729
6,-0.1279,-1.2812,0.1201,1.0577,1.1018,-2.1738,1756
6,-0.2075,-1.55,0.1609,0.6454,1.2974,-1.7398,1801
6,0.2385,-1.3816,0.1284,0.3101,1.4018,-2.1435,2122
6,0.8293,-1.4001,-0.0481,0.1973,0.7701,-2.1152,2204
6,0.6357,-1.4165,-0.0986,-0.1958,0.5299,-2.2047,2208
6,0.6589,-1.3386,-0.2515,-0.6301,0.2955,-1.9824,2206
6,-0.1169,-1.1665,-0.2932,-1.0525,0.708,-2.2499,2271
6,-0.5645,0.0171,-0.3464,-0.4103,2.219,-2.8171,2121
6,-0.7368,-0.0476,-0.0652,-0.3196,4.3634,-2.1984,2024
6,1.4104,-0.2473,-0.4429,0.4438,2.8036,-1.6102,1835
6,1.6094,-0.5281,-0.2009,0.4426,0.375,-0.8092,2043
6,0.676,-0.8135,0.8586,-0.4727,1.7659,0.5465,2222
6,0.5574,-0.3333,0.5603,-0.5602,2.7529,1.1584,2057
6,0.3005,-0.5586,-0.0168,-0.8096,2.2832,1.2756,2013
6,-0.2876,-0.396,-0.3093,-1.3448,1.2447,1.3524,2078
6,-0.0127,-0.3569,-0.4402,-1.1724,1.0826,1.3769,2114
6,0.1624,-0.3354,-0.0686,-0.9666,1.0246,1.5933,2083
6,0.1387,-0.3896,0.0393,-0.7921,1.2524,1.6673,2071
6,0.4351,-0.8362,0.2942,-1.1013,1.6847,1.7757,2032
6,0.4192,-0.5273,0.2126,-1.0228,1.3435,2.0262,2052
6,0.248,-0.6943,0.2041,-1.433,1.1175,2.1867,2055
6,0.4385,-0.6196,0.1909,-1.7302,1.0906,2.3591,2074
6,0.4358,-0.7783,0.3123,-1.8399,1.2625,2.5942,2042
6,0.377,-0.7302,0.3962,-2.0029,1.6247,2.7139,2046
6,0.2761,-0.7039,0.2395,-2.1136,1.7966,2.7275,2034
6,0.4551,-0.6819,0.1475,-2.0671,1.7375,2.7438,2057
6,0.3555,-0.6987,0.2576,-1.8785,1.7171,2.5496,2070
6,0.3979,-0.782,0.4246,-1.9205,1.3388,2.5473,2081
6,0.5325,-0.7998,0.6433,-1.8931,0.9552,2.8765,2059
6,0.7102,-0.7996,0.73,-1.958,0.3794,3.1112,2016
6,0.7664,-0.782,0.8247,-2.2092,-0.1469,3.2957,2014
6,0.781,-0.6785,0.8823,-2.2487,-0.8156,3.3986,2039
6,0.72,-0.6809,0.896,-2.2597,-1.6008,3.4573,2040
6,0.6479,-0.6765,0.7625,-2.01,-2.3775,3.677,2023
6,0.4841,-0.6165,0.7944,-1.592,-3.0272,3.7258,2041
6,0.3779,-0.6252,0.8367,-1.4162,-3.5063,3.7404,1966
6,0.3738,-0.7529,0.5493,-0.9473,-3.782,3.9354,1928
6,-0.4832,-1.9551,0.3101,-0.8384,-3.7059,3.1103,2032
6,-1.0588,0.6753,-0.1411,-3.0973,-1.7599,0.6332,2760
6,1.9999,-0.4316,0.1196,1.221,-4.3635,3.4239,1494
6,0.0032,-1.8621,0.8582,0.1109,-4.005,2.3362,2040
6,-0.1521,-1.3101,-0.0479,0.8154,-4.3635,1.341,2163
6,0.283,-1.4802,-0.7283,0.3903,-4.3635,0.8906,1932
6,-0.0332,-1.4839,-0.6362,-0.3786,-1.604,0.1256,2335
6,0.0083,-1.5017,-0.5925,-0.8907,-0.1916,-0.3485,2335
6,-0.5967,-0.5073,0.3228,0.3725,-0.8004,-0.2713,2367
6,-1.3809,-0.553,-0.282,0.7052,-0.5979,0.194,1867
6,-1.4341,-2.0,-0.364,-0.6939,-1.0021,-0.2081,1970
6,0.1345,-1.2544,0.21,-0.3738,-0.7737,-0.7939,1964
6,0.8032,-1.3738,1.0447,-0.7096,0.1952,-0.9859,1954
6,0.3574,-1.2439,0.9685,0.0965,-0.6152,-1.0513,1731
6,-0.9324,-1.2991,0.4651,0.008,-0.6646,-0.8614,1577
6,0.125,-1.1035,0.6868,-0.4385,0.035,-0.8096,2117
6,0.4561,-1.0251,0.1138,-0.3223,-0.4461,-0.6709,2161
6,-0.3164,-0.8162,-0.1599,0.1663,-0.2398,-0.8099,1840
6,-0.1902,-1.073,-0.0806,-0.0975,0.2192,-0.6787,2495
6,0.1145,-0.9487,-0.3958,-0.2727,0.191,-0.49,2339
6,0.2454,-0.7505,-0.1775,-0.0326,-0.1846,-0.4838,2643
6,0.2012,-0.8848,-0.0479,0.0543,-0.2163,-0.3713,1926
6,0.0981,-0.9595,0.0518,0.0618,-0.0105,-0.2936,1802
6,-0.0144,-0.9756,0.053,0.1514,-0.0653,-0.2583,1863
6,-0.1533,-1.0957,0.0935,0.1715,-0.134,-0.2324,2024
6,-0.2812,-1.1582,0.0654,0.1907,-0.0446,-0.2159,2454
6,-0.3147,-1.1819,-0.0112,0.0937,0.0388,-0.2261,2137
6,-0.2678,-1.1074,-0.0552,0.0269,-0.0252,-0.3027,3671
6,-0.241,-1.1062,-0.0906,-0.0056,0.0228,-0.334,1710
6,-0.2256,-1.1084,-0.0925,-0.0908,0.0064,-0.353,2355
6,-0.1396,-1.0645,-0.1545,-0.1011,0.027,-0.3689,2419
6,0.0081,-1.0493,-0.1504,-0.0582,0.014,-0.3595,2346
6,0.0183,-1.0339,-0.1479,-0.0052,0.0181,-0.3538,1032
6,0.0122,-1.0061,-0.1013,0.0326,0.0425,-0.333,1551
6,0.0022,-1.0276,-0.0461,0.0288,0.1224,-0.3208,1706
6,-0.0688,-1.0283,-0.0283,0.0158,0.2286,-0.2971,1784
6,-0.0388,-1.0061,0.0173,0.0499,0.3157,-0.3024,1727
6,-0.0383,-1.0417,-0.0046,0.0642,0.2731,-0.2939,1988
6,-0.0789,-1.0322,0.0459,0.0494,0.293,-0.2935,2160
6,-0.0281,-1.01,0.0264,0.0493,0.227,-0.3004,2124
6,0.0527,-0.9817,0.0439,0.1045,0.1748,-0.2791,2183
7,0.021,-0.9531,0.0449,0.1792,0.0671,-0.2686,2240
7,0.0066,-0.9707,0.0188,0.2256,0.0433,-0.2731,2064
7,0.0007,-0.9485,0.0029,0.2603,-0.0265,-0.3077,2247
7,-0.0586,-1.0039,-0.0991,0.2943,-0.1193,-0.3075,2136
7,-0.2131,-0.9875,-0.1118,0.2554,-0.1189,-0.346,2311
7,-0.1121,-1.0107,-0.1267,0.1533,-0.0025,-0.3846,2247
7,-0.0627,-0.9617,-0.0981,0.2001,0.0007,-0.4016,2072
7,-0.0791,-0.9717,-0.0503,0.241,-0.0093,-0.4069,2178
7,-0.1172,-0.9556,0.0251,0.2501,0.125,-0.4071,2097
7,-0.092,-0.9368,0.0706,0.2523,0.2942,-0.4761,1914
7,-0.0664,-0.9441,0.1167,0.3116,0.344,-0.5723,1993
7,-0.1526,-0.925,0.0837,0.4199,0.4774,-0.6377,1969
7,-0.0591,-0.9062,0.0171,0.604,0.5127,-0.6869,1693
7,-0.1995,-0.9668,-0.0378,0.5016,0.2333,-0.8939,2260
7,-0.0037,-1.0671,-0.0476,0.3203,0.249,-1.0242,2431
7,-0.0845,-0.8638,-0.0596,0.2899,0.1132,-1.0299,379
7,-0.3103,-0.9966,-0.0129,0.4991,-0.1222,-1.063,2631
7,-0.1577,-1.6689,-0.0427,0.3153,-0.163,-1.0073,2402
7,-0.208,-1.4395,0.0171,0.6681,-0.3711,-1.1857,2317
7,-0.2466,-1.2703,0.1125,0.8321,-0.3844,-1.241,2164
7,-0.4084,-1.4504,0.1536,0.7919,-0.1242,-1.3207,2029
7,-0.7327,-1.7329,0.429,0.8083,0.7303,-1.6046,1818
7,-0.4248,-1.3003,0.4209,0.9556,0.9473,-2.0054,1265
7,-0.5112,-1.7332,0.3245,0.8971,1.1468,-2.2494,2357
7,-0.6404,-1.6057,0.4421,0.9052,1.4331,-2.4112,2461
7,-0.5432,-1.4309,0.5144,0.8636,1.8618,-2.4791,2565
7,-0.2483,-1.217,0.4307,0.7301,1.8366,-2.3559,2413
7,0.3096,-0.9753,0.2783,0.6031,1.0753,-1.9618,2075
7,1.1409,-1.0823,0.2705,0.4276,0.0302,-1.8266,1821
7,-0.4976,-1.2,-0.2852,0.2972,0.6008,-3.071,2093
7,1.2646,-1.4944,-0.3186,-0.0258,0.4514,-2.3963,2525
7,1.3486,-0.7446,0.158,0.8995,-0.5608,-1.7547,2224
7,0.686,-1.1951,0.7244,-1.5811,0.3273,-2.3867,1632
7,1.7891,-1.2288,-0.7539,0.9274,-1.6635,-1.113,2068
7,0.1611,-0.7913,0.1401,0.0209,-0.5384,0.1013,2804
7,0.1995,-0.5959,0.2288,0.5641,-1.7723,-0.4919,1743
7,0.3772,-1.229,0.0303,-0.1491,-1.3703,-1.187,1636
7,-0.1318,-0.5613,-0.3416,0.4426,-0.3755,-1.0294,2054
7,0.0293,-0.5884,0.0383,0.3176,-0.2442,-0.6383,2175
7,0.3335,-0.6255,0.1001,0.1559,-0.9188,-0.5751,2133
7,0.6836,-0.2976,-0.1162,0.18,-0.9375,-0.1958,1996
7,0.5637,-0.0549,-0.1497,0.3193,-1.0491,0.3282,2032
7,0.2632,0.0369,-0.1033,0.3713,-1.4054,0.8404,2078
7,0.189,-0.0828,-0.0476,0.3638,-1.6761,1.1493,2071
7,0.1355,-0.1528,-0.0249,0.349,-1.7177,1.4086,2081
7,0.0579,-0.2356,0.0083,0.3678,-1.5229,1.6641,2089
7,0.0444,-0.2732,0.0388,0.3316,-1.4802,1.9765,2079
7,0.1152,-0.2722,0.0125,0.2794,-1.4798,2.2541,2056
7,0.1128,-0.3384,-0.0063,0.3021,-1.4842,2.4349,2070
7,0.3123,-0.3516,-0.0393,0.3516,-1.5073,2.6916,2031
7,0.3633,-0.4207,0.075,0.4508,-1.6852,2.9393,2045
7,0.437,-0.48,0.0679,0.4556,-1.9359,3.176,2019
7,0.5439,-0.595,0.1484,0.5,-2.3155,3.3741,2011
7,0.5725,-0.6677,0.189,0.4329,-2.8205,3.541,2021
7,0.5369,-0.7258,0.1777,0.3982,-3.2837,3.6006,1998
7,0.4683,-0.7659,0.1755,0.4454,-3.7043,3.6071,2017
7,0.418,-0.9028,0.1526,0.5546,-3.9685,3.5789,1964
7,0.3459,-1.1023,0.2268,0.5667,-4.0175,3.5022,2014
7,0.2549,-1.2319,0.2139,0.557,-3.8077,3.5742,2039
7,0.2051,-1.1765,0.1797,0.4288,-3.7765,3.6022,2081
7,0.012,-1.2175,0.0322,0.382,-3.697,3.4813,1983
7,-0.0151,-1.3591,-0.1064,0.2432,-3.2355,3.3409,1927
7,-0.1111,-2.0,-0.187,-0.3645,-2.9122,2.673,1936
7,-1.0271,1.4939,-0.8948,1.2973,-1.2593,1.4496,3886
7,1.5789,-1.0583,-0.5823,0.9785,-2.6633,1.6713,184
7,0.9253,-2.0,-0.2373,1.6542,-4.3635,2.3076,1566
7,-0.0273,-1.6199,-0.417,-0.3504,-4.0142,1.0164,3225
7,-1.1992,-2.0,0.1973,-1.9382,-1.1868,-0.1281,3428
7,-1.2083,1.0706,0.6089,-0.1173,1.5857,-0.1374,2735
7,-0.0845,-1.323,1.1943,-1.1532,2.6856,-0.1607,1057
7,0.4783,-1.146,0.7615,0.2402,-1.2679,0.1862,1716
7,-1.0537,-0.7827,0.3623,-0.0365,-1.8574,0.1559,1777
7,-0.6516,-1.1213,0.8367,-0.1035,-0.2429,-0.3095,1947
7,0.9819,-1.1108,1.0217,-0.4525,-0.4442,-0.2444,1940
7,0.2751,-0.7622,0.3713,-0.3641,-0.559,-0.0731,2370
7,-0.2483,-0.9448,0.074,-0.0989,-0.7641,-0.0534,2141
7,-0.4031,-1.1018,-0.2935,0.0959,-0.4586,-0.1585,2018
7,0.0806,-1.1143,-0.062,0.022,-0.2473,-0.1928,1915
7,0.2456,-1.0696,-0.1042,-0.0767,-0.0294,-0.145,2068
7,-0.0112,-1.0022,-0.0767,0.002,0.0305,-0.1768,2009
7,-0.1372,-0.9795,-0.0129,0.0521,0.0217,-0.176,2034
7,-0.1289,-0.9932,0.0901,0.0217,-0.0776,-0.1675,1964
7,-0.0864,-1.0317,0.2129,-0.0402,-0.2743,-0.1906,2047
7,-0.0461,-1.0088,0.3301,-0.0455,-0.3705,-0.1935,2046
7,-0.0789,-1.0024,0.3975,-0.0173,-0.4127,-0.2061,2017
7,-0.0981,-1.0403,0.354,-0.0457,-0.3532,-0.2497,2044
7,-0.094,-1.0361,0.2979,-0.0602,-0.2639,-0.2838,2048
7,-0.1145,-1.0559,0.1855,-0.0704,-0.1677,-0.3268,2034
7,-0.0867,-1.022,0.1475,-0.0647,-0.1329,-0.3766,1991
7,-0.1208,-1.0391,0.0964,-0.1041,-0.0783,-0.4195,2002
7,-0.095,-1.0107,0.0842,-0.1194,-0.1589,-0.4599,2125
7,-0.0688,-0.9978,0.0574,-0.1261,-0.2895,-0.4791,2032
7,-0.0505,-1.0083,0.0608,-0.1228,-0.3061,-0.4706,2056
7,0.0559,-0.9563,0.0693,-0.1205,-0.3526,-0.4703,2121
7,0.0764,-0.9785,0.0559,-0.1549,-0.3717,-0.4054,2158
7,0.0796,-0.9673,0.0916,-0.1465,-0.352,-0.361,2130
7,0.1494,-0.9802,0.1155,-0.1515,-0.3223,-0.3259,2144
7,0.1619,-0.9282,0.1304,-0.0951,-0.3115,-0.2891,2162
7,0.2268,-0.8892,0.165,-0.0806,-0.3535,-0.2317,2036
7,0.2744,-0.8984,0.2776,-0.1029,-0.4585,-0.1065,1987
7,0.1887,-0.8706,0.2632,-0.1649,-0.6576,0.0103,2053
8,0.1467,-0.9678,0.2393,-0.1659,-0.7122,0.1345,2092
8,0.0984,-1.0178,0.1936,-0.1388,-0.8349,0.1466,2050
8,-0.0061,-1.0339,0.1375,-0.0864,-0.868,0.1864,2036
8,-0.0527,-1.0579,0.0554,-0.0615,-0.7975,0.1687,2071
8,0.0022,-1.0381,0.0288,-0.0441,-0.5966,0.1136,2083
8,0.0029,-1.0144,0.0398,-0.0603,-0.4879,0.0678,2027
8,0.103,-0.9473,0.0996,-0.0474,-0.4485,0.0522,2097
8,0.0862,-1.0205,0.179,-0.0354,-0.4783,0.0569,2143
8,0.0632,-0.9648,0.1936,-0.016,-0.5686,0.0698,2063
8,0.0168,-1.0054,0.2014,0.0197,-0.6502,0.0784,2049
8,-0.0139,-1.0171,0.1616,0.0024,-0.6669,0.0477,2037
8,-0.0259,-1.019,0.1675,-0.0679,-0.6641,0.0304,2032
8,-0.0156,-1.0735,0.1274,-0.0625,-0.5738,0.025,2127
8,0.0508,-1.0156,0.1057,-0.0786,-0.5409,0.0016,2012
8,0.0986,-0.9924,0.1042,-0.1027,-0.5268,0.0395,2041
8,0.0583,-0.9827,0.1118,-0.1333,-0.4996,0.0622,2062
8,0.0818,-0.9788,0.1406,-0.1056,-0.4553,0.0224,1999
8,0.1377,-0.9438,0.1516,-0.1348,-0.4932,0.0362,2148
8,0.0845,-0.9714,0.188,-0.147,-0.5441,0.0499,2215
8,0.0479,-1.0327,0.1968,-0.1437,-0.5757,0.0649,1952
8,-0.0125,-1.0601,0.1951,-0.14,-0.5604,0.0872,1993
8,-0.0217,-1.0869,0.1714,-0.1264,-0.5328,0.0707,1987
8,-0.0107,-1.0693,0.1604,-0.1377,-0.4641,0.0587,2046
8,0.0173,-1.0129,0.176,-0.1784,-0.3675,0.0202,2120
8,0.0813,-0.9868,0.1494,-0.2015,-0.355,0.0131,2072
8,0.0852,-0.9858,0.1003,-0.2498,-0.3679,0.0226,2075
8,0.0554,-1.0193,0.0388,-0.2342,-0.3432,0.0431,2091
8,0.0603,-1.0349,-0.0059,-0.2229,-0.3129,0.0469,1948
8,0.0439,-1.0061,0.0122,-0.2163,-0.2598,0.0522,2131
8,0.0195,-1.0103,0.0249,-0.2346,-0.2175,0.0563,2148
8,-0.0171,-1.0237,0.0476,-0.2322,-0.189,0.0582,1976
8,-0.0154,-1.0261,0.1082,-0.2091,-0.2081,0.0501,2019
8,0.0044,-1.0725,0.1343,-0.2329,-0.1815,0.0549,2046
8,0.0422,-1.001,0.1633,-0.2016,-0.1681,0.0392,1963
8,0.064,-1.032,0.1299,-0.1421,-0.12,0.027,2084
8,0.0271,-1.0217,0.1396,-0.1446,-0.0973,0.021,1980
8,0.0168,-1.0012,0.1204,-0.1571,-0.0804,0.0076,2079
8,0.0637,-1.0234,0.1306,-0.1807,-0.0304,-0.0063,2135
8,0.0586,-0.9858,0.1033,-0.233,-0.017,-0.0089,2002
8,0.0667,-0.9976,0.0833,-0.2603,-0.0092,0.0136,2060
8,0.0503,-1.0332,0.0608,-0.2759,-0.0237,0.0197,2186
8,0.0378,-1.0317,0.0476,-0.2866,-0.0202,0.0277,2200
8,0.0247,-1.0276,0.0388,-0.2711,0.037,0.0498,2120
8,0.0837,-1.0183,0.05,-0.2966,0.0925,0.0538,2079
8,0.0935,-0.9773,0.0769,-0.3196,0.1133,0.0573,2075
8,0.1321,-0.9685,0.095,-0.3316,0.128,0.0734,1879
8,0.134,-0.9871,0.092,-0.3073,0.1085,0.0688,2081
8,0.0754,-1.0039,0.0649,-0.242,0.1063,0.0384,2021
8,-0.0508,-0.9138,0.0713,-0.1354,0.1704,0.0465,1895
8,-0.0305,-1.0095,0.0955,-0.1585,0.2621,-0.0862,2138
8,-0.04,-1.0295,0.0889,-0.1983,0.2366,-0.1081,2073
8,-0.064,-1.043,0.0625,-0.2116,0.2172,-0.1491,1997
8,-0.0347,-1.0269,0.0798,-0.2059,0.2332,-0.1854,2064
8,0.0,-1.0461,0.0598,-0.2023,0.222,-0.2092,2050
8,0.0256,-1.0349,-0.0332,-0.1739,0.186,-0.1999,2182
8,0.0581,-0.9805,-0.0706,-0.1458,0.175,-0.1469,2159
8,0.1272,-0.9646,-0.0498,-0.1589,0.1876,-0.1561,2070
8,0.126,-0.9753,-0.0447,-0.1743,0.176,-0.1108,1935
8,0.116,-0.9517,-0.0791,-0.1466,0.1775,-0.089,2025
8,0.126,-0.9692,-0.0667,-0.1056,0.19,-0.0597,1814
8,0.1086,-0.9851,-0.0415,-0.086,0.1944,-0.031,2044
8,0.1064,-1.0168,-0.0291,-0.0119,0.1848,0.0269,2084
8,0.0271,-1.0461,0.0203,0.0743,0.1702,0.0378,1914
8,0.0525,-1.0872,0.0552,0.1121,0.1471,0.0815,2071
8,0.0078,-1.062,0.0852,0.116,0.1325,0.0768,2127
8,0.0051,-1.0459,0.0791,0.0919,0.1161,0.0641,2139
8,-0.0068,-1.0486,0.0588,0.0756,0.1048,0.0503,2151
8,0.0259,-1.0325,0.0264,0.075,0.1061,0.0547,2013
8,0.0564,-1.0061,-0.0212,0.0642,0.1345,0.065,2079
8,0.1084,-0.967,-0.0388,0.0723,0.1828,0.0802,2068
8,0.127,-0.9485,-0.0381,0.0815,0.1792,0.0826,2085
8,0.0793,-0.9629,-0.0249,0.1503,0.1526,0.0478,2083
8,0.0754,-0.9995,0.0186,0.1867,0.1121,0.0807,2058
8,0.0486,-1.0696,0.0183,0.1465,0.0776,0.1288,2194
8,-0.0393,-1.0664,0.0796,0.1144,0.089,0.1598,2300
8,0.0049,-1.0259,0.0898,0.1185,0.118,0.1611,1997
8,0.0444,-1.0168,0.1038,0.0782,0.1254,0.161,1968
8,0.0732,-1.0032,0.0896,0.034,0.126,0.1561,2088
8,0.1016,-0.9854,0.075,0.0458,0.1602,0.1623,2004
8,0.1167,-0.949,0.0754,0.0361,0.1772,0.1554,1976
8,0.084,-0.959,0.0698,0.0284,0.1728,0.1124,2036
8,0.0098,-0.989,0.0503,0.0193,0.1579,0.0836,2049
8,-0.0676,-1.0715,0.0859,-0.0366,0.092,0.0692,2047
8,-0.0835,-1.0923,0.0964,-0.0824,0.0317,0.0799,2055
8,-0.0298,-1.0945,0.1218,-0.066,0.0276,0.1029,2007
8,0.0283,-1.0354,0.1013,-0.0634,0.0084,0.0895,1975
8,0.0667,-0.9854,0.0715,-0.0593,-0.033,0.0735,1960
8,0.094,-0.9741,0.0415,-0.038,-0.0577,0.0629,1929
8,0.0869,-0.9695,-0.0139,0.0128,-0.0458,0.0694,1919
8,0.0679,-0.958,-0.0098,-0.0238,-0.1264,0.0878,2220
8,0.0068,-0.9846,-0.053,-0.073,-0.123,0.1072,2204
8,-0.0557,-1.0461,-0.0618,-0.1314,-0.1397,0.0756,2061
8,-0.0779,-1.0896,-0.0627,-0.1794,-0.114,0.1186,2157
8,-0.0452,-1.0723,-0.0417,-0.121,-0.0322,0.1298,2087
8,0.0171,-1.0129,0.0422,-0.0722,0.0317,0.13,1947
8,0.082,-0.99,0.0903,-0.0491,0.0755,0.143,2007
8,0.1396,-0.9734,0.1089,-0.0237,0.0455,0.1679,2072
8,0.1233,-0.9863,0.0649,0.0011,0.0108,0.1915,2192
8,0.0679,-0.9712,0.0437,0.0152,0.0188,0.2147,2049
8,0.0518,-0.9746,0.009,0.0073,0.0598,0.2392,1959
8,0.0146,-1.0083,0.001,-0.0241,0.0834,0.2529,2015
8,-0.0386,-1.0386,0.0374,-0.0728,0.0426,0.2698,2035
9,-0.0286,-1.0706,0.0344,-0.0561,0.0603,0.2911,2063
9,0.0349,-1.0322,0.061,-0.0289,0.1119,0.306,2064
9,0.093,-0.9729,0.0791,-0.0168,0.1298,0.345,2070
9,0.0825,-0.9724,0.0647,-0.0089,0.0703,0.379,2119
9,0.0474,-0.9805,0.051,0.0036,0.0473,0.4039,2049
9,0.0564,-1.0042,0.0205,0.037,0.078,0.4324,2096
9,0.0574,-0.9812,0.0037,0.0656,0.126,0.4521,2040
9,0.0613,-0.9602,-0.0056,0.0538,0.1426,0.486,2005
9,0.0044,-0.9761,-0.019,0.0563,0.1256,0.5019,2090
9,-0.0991,-1.0144,0.0049,0.0469,0.1039,0.5127,2048
9,-0.116,-1.0557,0.0137,0.0389,0.0783,0.5265,2045
9,-0.0823,-1.0488,0.0212,0.0575,0.1127,0.5341,2061
9,0.0112,-1.0024,0.0327,0.0763,0.1385,0.5536,2057
9,0.0032,-0.9761,0.0498,0.1024,0.1173,0.5823,2127
9,-0.0366,-0.9763,0.0366,0.1141,0.0815,0.6035,2095
9,-0.0359,-0.9988,0.0178,0.132,0.0674,0.6276,2085
9,-0.0828,-0.9956,0.0269,0.1702,0.0614,0.643,2085
9,-0.0903,-0.9973,0.0286,0.1848,0.0848,0.6409,2091
9,-0.0798,-0.9924,0.0212,0.1871,0.0702,0.6493,1983
9,-0.1321,-0.9993,0.0095,0.1802,0.0724,0.6592,2024
9,-0.1296,-0.9956,0.0244,0.182,0.0663,0.6674,2042
9,-0.1477,-0.9856,0.0029,0.1726,0.0438,0.6862,2102
9,-0.1377,-1.0129,0.0342,0.1708,0.0591,0.7118,2046
9,-0.1116,-0.9973,0.0557,0.1876,0.0623,0.7237,2038
9,-0.1326,-0.9846,0.0789,0.2032,0.0289,0.7296,2049
9,-0.1016,-1.0071,0.095,0.2232,0.0205,0.7419,2087
9,-0.1277,-0.981,0.0811,0.2457,-0.0059,0.7449,1995
9,-0.1709,-0.9937,0.074,0.2595,-0.0081,0.7373,1993
9,-0.1714,-0.9976,0.0764,0.2705,-0.0085,0.7243,2150
9,-0.1709,-0.9658,0.0706,0.2879,0.0007,0.7285,2130
9,-0.1545,-0.9858,0.0759,0.3177,-0.0181,0.7236,2075
9,-0.0952,-0.9233,0.0571,0.3924,-0.1306,0.7126,2102
9,-0.2603,-1.0552,0.0337,0.3773,-0.1533,0.7753,2014
9,-0.3347,-1.0208,-0.0134,0.3249,0.072,0.7022,2040
9,-0.2358,-0.96,-0.0173,0.3754,0.1557,0.7131,2049
9,-0.2371,-0.9663,-0.0049,0.4022,0.1938,0.7008,2055
9,-0.1846,-0.9509,0.0181,0.4087,0.1526,0.7114,1990
9,-0.208,-0.9607,0.0735,0.4421,0.1607,0.74,2046
9,-0.1709,-0.9663,0.1138,0.5052,0.2562,0.7733,2068
9,-0.0898,-0.9705,0.1179,0.5617,0.2818,0.8195,2011
9,-0.0535,-0.9583,0.0989,0.6149,0.3063,0.8989,2155
9,0.0129,-1.0015,0.0913,0.6568,0.3816,0.9893,2200
9,0.0566,-0.9995,0.1106,0.7301,0.4746,1.0963,2075
9,0.0225,-1.0151,0.1355,0.7723,0.5966,1.2287,2076
9,0.0493,-1.0598,0.1379,0.7934,0.7384,1.3179,2028
9,0.0764,-1.0769,0.1655,0.8092,0.8236,1.3973,1955
9,0.0247,-1.0632,0.1897,0.8131,0.813,1.4414,1945
9,0.0181,-1.0986,0.2686,0.871,0.8295,1.4486,1935
9,-0.0498,-1.1147,0.3291,0.9275,0.6569,1.4704,1636
9,-0.2976,-1.2195,0.3691,0.8598,0.3723,1.4218,2286
9,-0.2419,-1.7559,0.3479,0.459,-0.5204,1.3236,2478
9,-0.6648,-1.4695,0.3105,0.6625,-0.7131,0.9028,2411
9,-0.8342,-1.3845,0.4468,0.8512,-0.1638,0.4591,2075
9,-0.8623,-1.3098,0.3938,0.6968,0.6699,0.102,1919
9,-1.2158,-1.1765,0.1365,0.7754,1.5141,-0.3911,1965
9,-1.4219,-1.1582,0.0332,0.6738,2.1936,-0.7702,1997
9,-1.0938,-1.0991,-0.0371,0.5674,2.7257,-0.954,2000
9,-0.6208,-1.8408,0.384,1.3499,2.7034,-0.3591,2007
9,-0.7908,-1.2102,0.4155,0.1353,3.5082,-1.585,2299
9,-0.1753,-1.2588,0.3062,-0.1019,3.9924,-1.7998,1977
9,0.5615,-1.1306,0.0847,-0.0172,3.4862,-2.2951,1887
9,0.5249,-1.334,0.3015,0.0807,3.3041,-2.9464,2057
9,0.8936,-1.072,0.3652,-0.4689,3.0971,-3.1224,2255
9,1.3213,-1.0703,-0.0969,0.5269,2.0169,-3.1525,1949
9,0.835,-1.0637,0.4417,0.7861,1.1135,-3.4738,2189
9,0.4036,-1.2927,0.3357,0.1654,0.5968,-3.5372,2090
9,0.3228,-1.0947,0.053,-0.196,0.3516,-3.55,2242
9,0.6155,-0.936,0.1052,-0.0505,0.0016,-3.7012,2250
9,0.5835,-0.9573,0.2695,0.208,-0.1682,-3.7098,2117
9,0.4517,-1.0195,0.2522,0.1659,-0.1932,-3.6978,2058
9,0.4153,-0.8447,0.177,0.5117,-0.2541,-3.8225,2195
9,0.0808,-0.7583,0.1199,0.8166,0.2987,-4.2778,2109
9,0.0942,-0.7634,-0.0222,1.0777,1.4022,-4.3635,1969
9,0.239,-0.697,-0.0029,1.3319,1.7487,-4.3635,1887
9,0.4209,-0.6372,0.1567,1.4249,1.8496,-4.3635,1948
9,0.4304,-0.6409,0.3376,1.1279,1.5972,-4.3635,1994
9,0.4766,-0.5574,0.27,0.4918,1.2657,-3.8929,1983
9,0.3916,-0.5796,0.2046,0.4006,1.2429,-3.8237,2049
9,0.2898,-0.5469,0.3406,0.3513,1.5403,-3.6451,2118
9,0.2207,-0.3916,0.1628,0.5682,1.4524,-3.7114,2087
9,0.4417,-0.2549,0.1831,1.0861,0.8817,-3.6367,2005
9,0.4138,-0.4189,0.2942,1.066,0.7051,-3.4989,1991
9,0.4587,-0.4209,0.3042,1.0216,0.4181,-3.2621,2027
9,0.4829,-0.4053,0.3579,1.1013,-0.0107,-3.0174,2068
9,0.4446,-0.4619,0.3984,0.9802,-0.3851,-2.7137,2068
9,0.4036,-0.51,0.3835,0.8313,-0.7493,-2.4049,2062
9,0.3181,-0.5129,0.313,0.6173,-1.1079,-2.1309,2032
9,0.2393,-0.4399,0.1914,0.4566,-1.4781,-1.8632,2061
9,0.2053,-0.2964,0.062,0.4902,-2.0564,-1.5299,2038
9,0.2725,-0.157,0.0266,0.5908,-3.0408,-0.9637,1991
9,-0.0583,-0.0144,0.2595,0.0409,-4.092,-0.1992,2146
9,-1.1597,0.0732,0.2498,-0.5572,-3.417,0.2325,2172
9,-1.2109,0.6992,-0.6985,-0.3396,-3.0757,0.4564,1999
9,1.5273,-1.5815,-2.0,-2.5882,-4.3635,2.3364,2763
9,1.9999,-2.0,1.9999,-0.6652,1.089,3.6612,798
9,-0.0503,-0.5269,-2.0,-3.0512,-3.6603,1.6783,3769
9,1.9999,-2.0,1.9999,0.5437,0.1008,2.7886,74
9,-1.6472,-2.0,0.4221,-2.4666,-0.6737,2.9154,2159
9,-1.2295,-0.9094,-0.3726,-1.4502,-0.5016,2.9774,4064
9,-1.0823,-2.0,-0.7107,-0.9168,-0.3381,2.3272,2038
9,-1.9771,-2.0,0.1013,-0.9291,0.9677,1.8647,1769
9,-0.5347,-1.6968,0.5942,-0.7036,1.4378,1.6504,950
9,-0.3167,-1.7363,0.8889,-0.8517,0.9191,2.0976,1579
10,0.176,-1.5347,0.7673,-0.2872,0.5016,2.2973,1665
10,0.3992,-0.8921,0.6746,-0.2113,0.0819,1.7813,1411
10,0.8457,-0.9492,0.2866,-0.4022,-0.1827,1.5202,2590
10,1.2207,-0.7407,-0.0718,-0.3984,-0.8661,1.4235,2457
10,0.3916,-0.761,-0.3677,-0.3799,-1.0367,1.2904,2222
10,0.1252,-0.752,-0.4697,-0.3955,-0.4164,1.3205,2236
10,0.3503,-0.8696,-0.406,-0.4378,-0.0068,1.3697,2104
10,0.5242,-0.8279,-0.2583,-0.3529,0.0306,1.3753,1689
10,0.5051,-0.7695,-0.2241,-0.3012,-0.0166,1.4861,1717
10,0.4341,-0.8721,-0.1968,-0.1446,-0.1302,1.5909,2049
10,0.2803,-1.0615,-0.1116,-0.0806,-0.149,1.4794,2084
10,0.209,-1.0083,-0.1245,0.0049,-0.1003,1.5213,2105
10,0.0396,-1.0608,0.0586,0.2011,-0.0642,1.4801,1924
10,0.0098,-1.1064,0.2629,0.3143,-0.0459,1.4368,1878
10,-0.22,-1.0715,0.3147,0.3651,-0.0887,1.3844,1967
10,-0.2607,-1.2815,0.2537,0.1682,-0.1958,1.1604,2283
10,-0.2673,-1.0984,0.0325,0.1218,-0.2758,0.9907,2341
10,-0.3228,-0.9702,-0.0586,0.0547,-0.2191,1.0905,2236
10,-0.543,-0.9268,-0.1423,0.2553,0.1904,1.0236,2054
10,-0.052,-1.074,-0.0566,0.1334,0.2958,0.8276,1857
10,-0.1189,-1.0002,-0.106,-0.0221,0.4963,0.8501,2138
10,0.0303,-0.8865,-0.1177,0.0127,0.2598,0.7428,2199
10,0.2024,-0.9221,-0.0352,0.0736,0.0128,0.6831,1836
10,-0.0486,-0.7917,-0.0369,0.1971,-0.1401,0.7195,2001
10,-0.0916,-1.009,0.0132,0.074,-0.1029,0.9132,2052
10,-0.0129,-0.9773,0.0188,-0.0451,-0.0012,0.9638,1944
10,0.1582,-0.9343,0.0081,0.0767,-0.1555,0.9453,1970
10,0.085,-0.938,0.0371,0.2043,-0.3567,0.9525,2168
10,-0.022,-1.0122,0.0251,0.2296,-0.4685,0.9468,2086
10,-0.0825,-1.0093,0.0312,0.2574,-0.4586,0.923,2032
10,-0.0769,-1.0371,0.0198,0.2669,-0.3594,0.8709,2009
10,-0.1113,-1.1042,0.0525,0.1804,-0.2855,0.8481,1940
10,-0.1616,-1.0256,0.0493,0.2197,-0.2216,0.7838,2139
10,-0.1406,-1.0564,0.0339,0.2085,-0.2169,0.7159,2077
10,-0.1992,-1.0281,0.0166,0.2119,-0.1935,0.6522,2061
10,-0.2124,-1.0364,-0.0083,0.2356,-0.1515,0.5815,2187
10,-0.1943,-1.0356,-0.0459,0.2417,-0.1726,0.5317,1888
10,-0.1802,-1.0593,-0.041,0.2595,-0.1599,0.4976,2056
10,-0.0879,-1.0278,0.0012,0.2875,-0.1372,0.4798,2049
10,-0.0886,-0.9937,-0.0012,0.3353,-0.134,0.4663,2062
10,-0.0925,-1.0186,0.011,0.3504,-0.1535,0.4549,1967
10,-0.0999,-1.0183,0.0107,0.3693,-0.1767,0.4497,2059
10,-0.0813,-1.021,0.0083,0.4,-0.1946,0.4518,2086
10,-0.1113,-1.0,0.0293,0.4406,-0.1685,0.4441,2079
10,-0.1357,-1.009,0.0413,0.4778,-0.1241,0.4295,2006
10,-0.1147,-1.0193,0.0461,0.5092,-0.0752,0.4281,2011
10,-0.0984,-0.9958,0.064,0.5309,-0.0672,0.4256,2121
10,-0.092,-1.0024,0.0818,0.5482,-0.0662,0.4404,2063
10,-0.0779,-1.0217,0.1123,0.5658,-0.0128,0.4587,2045
10,-0.0286,-0.9956,0.1431,0.5926,0.0181,0.5004,2059
10,0.0525,-0.9934,0.2024,0.6016,0.059,0.5536,2052
10,0.0681,-0.998,0.2268,0.6172,0.0894,0.6063,1999
10,-0.0012,-1.0195,0.2256,0.6205,0.1708,0.6544,2012
10,-0.0195,-1.0425,0.2036,0.6389,0.3401,0.6971,1969
10,-0.0107,-1.0525,0.1902,0.6622,0.5048,0.7259,1931
10,-0.062,-1.0754,0.1885,0.7063,0.6787,0.766,1945
10,-0.0996,-1.1411,0.2036,0.7717,0.8437,0.7991,1892
10,-0.1265,-1.2458,0.2681,0.8558,1.0302,0.7827,1895
10,-0.115,-1.3169,0.2832,0.9171,1.1223,0.6947,1550
10,0.4187,-1.7786,0.2688,1.7847,0.5783,1.0869,1606
10,-0.6292,-0.7561,0.1858,0.7911,1.3315,0.4729,1338
10,0.0073,-1.6382,0.8979,0.6352,0.8811,0.5564,2084
10,0.1465,-1.2124,0.1584,1.6785,0.4872,0.8657,2792
10,-0.6592,-0.9028,-0.241,0.0411,1.0881,-0.7379,2278
10,-0.4673,-1.4673,0.0764,-0.1045,1.097,-0.0162,2559
10,0.1907,-1.5352,-0.0537,0.4762,1.2375,-0.2754,2413
10,0.1179,-1.4182,0.3508,0.1625,1.5804,-0.7532,2313
10,-0.1809,-1.1638,0.1223,0.0872,1.9329,-1.1753,2214
10,-0.2939,-0.9846,0.1133,0.2449,2.2521,-1.3553,2112
10,-0.0225,-1.1838,0.2017,0.1365,2.2344,-1.8764,2071
10,-0.0925,-1.0757,0.3362,0.0912,2.5951,-2.1329,2060
10,0.2834,-1.0693,0.1282,0.3188,2.5265,-2.4168,1903
10,0.6089,-1.1423,0.0669,0.7106,2.1714,-2.7084,1886
10,0.9155,-1.3733,0.0574,0.8722,1.4198,-3.0352,1940
10,0.8245,-1.2815,0.3367,0.1466,0.913,-3.0939,2164
10,0.7539,-1.3008,0.1304,-0.1032,0.225,-3.0686,2205
10,0.5903,-1.1047,0.0801,0.0787,-0.5424,-2.9376,2319
10,0.678,-1.0806,0.22,0.2784,-0.9155,-2.9701,2345
10,0.5732,-1.0317,0.2561,0.3657,-0.803,-3.2401,2089
10,0.4551,-0.9553,0.2522,0.397,-0.2136,-3.6535,2065
10,0.5403,-0.874,0.365,0.4791,-0.3991,-3.7801,2015
10,0.5786,-0.7827,0.3247,0.3365,-0.7054,-3.7745,1961
10,0.4204,-0.7156,0.2825,0.4771,-0.77,-3.8139,1982
10,0.2947,-0.6743,0.3057,0.1252,-0.6929,-3.6304,1982
10,0.4785,-0.572,0.2004,-0.2947,-0.87,-3.3291,1984
10,0.4243,-0.4873,0.1968,-0.3992,-0.8351,-3.1082,2023
10,0.4062,-0.531,0.3206,-0.5557,-0.954,-2.9268,2074
10,0.637,-0.658,0.3743,-0.8351,-0.9412,-2.4746,1973
10,0.5452,-0.6455,0.3435,-0.8166,-0.97,-2.5577,2069
10,0.2126,-0.5796,0.1707,-0.5638,-1.3328,-2.5028,2118
10,0.1277,-0.3391,0.0911,-0.6978,-1.8706,-2.208,2089
10,0.2026,-0.3564,0.1091,-0.6762,-2.0728,-1.9805,2111
10,0.2271,-0.3784,0.1023,-0.5622,-2.0509,-1.7689,2036
10,0.1677,-0.4087,0.1069,-0.5116,-2.0331,-1.5182,1986
10,0.0588,-0.4277,0.0769,-0.5042,-1.9655,-1.2627,2068
10,-0.031,-0.4622,-0.0039,-0.5078,-1.8587,-0.9958,2057
10,-0.1025,-0.4868,-0.084,-0.4769,-1.6426,-0.7273,2045
10,-0.1492,-0.5171,-0.1045,-0.4931,-1.3259,-0.4429,2061
10,-0.2014,-0.677,-0.0942,-0.5658,-1.0364,-0.1152,2031
10,-0.5132,0.5361,-0.2922,-0.0787,-0.6339,-0.161,2050
10,-0.3403,-1.5176,-0.3835,-1.0927,-0.1225,0.7092,2155
10,-1.0681,0.1428,-0.1536,0.1035,1.1561,1.0284,2090
11,-0.5896,-0.5222,-0.7173,-0.6497,1.5984,1.7379,1787
11,-0.4949,-2.0,-1.1282,-1.7709,1.0146,2.0369,1973
11,1.2344,-1.9436,-0.0547,-1.6321,1.2025,1.8098,2931
11,1.5491,-2.0,1.9999,0.1491,1.2537,0.9271,779
11,-0.5818,-2.0,0.4131,-2.8557,2.1302,0.3153,1299
11,-0.917,-1.7258,0.6191,-2.1212,-0.2679,1.6733,4064
11,0.4026,-2.0,1.1807,-1.2953,0.2943,2.1969,1538
11,0.1252,-1.9746,1.2588,-0.5421,-0.7837,1.6623,1670
11,-0.4895,-1.811,0.8921,-0.4747,-0.719,1.6617,2588
11,0.3455,-1.5293,0.8074,-0.0152,-0.9264,2.0196,2165
11,0.7205,-0.939,0.5862,0.2895,-1.5308,2.1016,1992
11,0.4016,-0.7209,0.3381,0.0822,-1.7126,1.447,1737
11,0.583,-0.4824,-0.0398,-0.2764,-1.4751,1.3121,1797
11,0.6531,-0.5974,-0.3533,-0.4794,-1.2632,1.3749,1992
11,0.2183,-1.0391,-0.5566,-0.5529,-0.742,1.2694,2170
11,0.1597,-0.8088,-0.6121,-0.5975,-0.2071,1.3171,2038
11,0.395,-0.7922,-0.561,-0.4793,-0.0682,1.336,1987
11,0.4373,-0.7734,-0.3569,-0.3006,-0.1332,1.4427,1963
11,0.3779,-0.7886,-0.2898,-0.2215,-0.2284,1.4576,2040
11,0.3325,-0.9116,-0.2488,-0.1457,-0.3987,1.5042,2029
11,0.2473,-1.1121,-0.2161,-0.1454,-0.4926,1.6181,1987
11,0.1121,-1.1665,-0.1465,-0.1277,-0.5394,1.5551,2081
11,0.0396,-1.1235,-0.0779,-0.0667,-0.5149,1.4352,2152
11,0.032,-1.1147,0.0598,-0.0149,-0.4642,1.4059,2034
11,0.1394,-1.0649,0.1099,0.0593,-0.5048,1.272,2040
11,0.1016,-1.0222,0.1194,0.0684,-0.5821,1.2368,2014
11,-0.0557,-1.0007,0.1003,0.0437,-0.5087,1.2773,2070
11,-0.0337,-0.9758,0.0449,0.0502,-0.2497,1.4539,2222
11,0.0657,-0.9316,0.04,0.1208,-0.1306,1.4213,1939
11,0.2485,-0.9221,0.0422,0.1731,-0.2085,1.4657,1957
11,0.2036,-1.1528,0.0332,0.3326,-0.1975,1.71,1969
11,-0.2563,-1.1382,0.0684,0.6011,0.0141,1.742,2012
11,-0.063,-0.8223,0.0378,0.1715,0.185,1.0624,2108
11,0.0056,-0.8777,-0.0088,0.1589,0.1838,1.2619,2067
11,0.0259,-0.8972,-0.0481,0.1306,0.1091,1.258,2050
11,0.1013,-0.7271,-0.0591,0.1677,-0.1772,1.4141,2032
11,0.0449,-0.8503,-0.041,0.2935,-0.4951,1.5274,2082
11,-0.1421,-0.9971,-0.0474,0.3729,-0.6087,1.5378,2119
11,-0.2314,-1.1089,-0.03,0.3294,-0.5822,1.5103,2041
11,-0.3252,-1.0911,-0.0383,0.2855,-0.4806,1.48,1998
11,-0.2695,-1.0542,-0.0378,0.2658,-0.4249,1.3741,2075
11,-0.271,-1.0923,-0.0203,0.2559,-0.4753,1.2963,2042
11,-0.3813,-1.0818,-0.0273,0.1804,-0.3497,1.1954,2015
11,-0.3279,-1.0339,-0.0676,0.1774,-0.2309,1.0923,2001
11,-0.344,-1.0127,-0.0854,0.1759,-0.1707,0.9962,2067
11,-0.3108,-0.9951,-0.0989,0.2052,-0.1059,0.926,2037
11,-0.2412,-1.0049,-0.0613,0.2358,-0.0625,0.8565,2024
11,-0.2349,-1.0063,-0.0303,0.2758,-0.0134,0.7935,1995
11,-0.2175,-0.9883,-0.012,0.3207,0.0324,0.7701,2034
11,-0.2134,-0.98,-0.0469,0.3125,-0.0402,0.74,2072
11,-0.1567,-0.9761,-0.0481,0.336,-0.0796,0.7381,2086
11,-0.1047,-0.9788,-0.0173,0.3796,-0.1433,0.7457,2034
11,-0.0422,-0.9619,-0.001,0.4165,-0.2294,0.7974,2061
11,-0.2222,-1.0337,0.0063,0.3811,-0.0667,0.8268,2032
11,-0.092,-0.96,0.0059,0.4195,0.0683,0.8725,2009
11,-0.0291,-0.9954,0.0405,0.4356,0.1712,0.9404,2049
11,-0.0273,-0.9934,0.0786,0.4674,0.2722,1.0092,1979
11,-0.0044,-1.0266,0.1072,0.4842,0.3774,1.0674,1983
11,0.0015,-1.0889,0.1191,0.51,0.4633,1.1037,1991
11,0.0415,-1.1353,0.1785,0.599,0.59,1.1358,1927
11,0.0603,-1.106,0.2029,0.7087,0.663,1.1877,1899
11,0.0532,-1.1672,0.2302,0.7882,0.7411,1.207,1627
11,0.1504,-1.2935,0.2593,0.6968,0.7132,1.1816,1966
11,0.3611,-1.3049,0.1919,0.5228,0.3663,1.252,2551
11,0.3083,-1.2832,0.209,0.4726,0.1401,1.2266,2338
11,0.2578,-1.2434,0.198,0.4313,-0.1238,1.2625,2242
11,0.0249,-1.4795,0.1316,0.2983,-0.3963,1.2794,2237
11,-0.2754,-1.2361,0.042,0.4056,-0.6048,1.2805,2255
11,-0.6628,-1.0034,0.1624,0.7795,-0.6301,0.9441,2181
11,-0.7827,-1.0305,0.3372,1.1375,-0.4579,0.6299,2032
11,-1.1545,-1.1672,0.3315,0.9491,0.2292,0.1393,1882
11,-1.2566,-1.2366,0.0571,0.4899,1.189,-0.0574,1985
11,-1.0723,-1.3533,-0.0964,0.196,1.8438,-0.1959,2017
11,-1.0098,-0.9067,-0.075,-0.0802,2.4112,-0.4328,2065
11,-0.6428,-1.186,0.0757,-0.181,2.7164,-0.7159,2138
11,0.0247,-0.9807,-0.0662,0.0787,2.5027,-0.9028,2044
11,0.5483,-1.0234,0.1179,0.2322,2.1039,-1.5906,2028
11,1.1211,-1.1289,0.071,0.4275,1.2509,-1.97,1945
11,0.531,-1.2571,-0.1516,1.478,0.3272,-2.5233,2198
11,1.0237,-0.8926,0.9497,-0.4789,0.6709,-2.0823,2328
11,-0.1523,-1.4829,0.0217,-0.2091,0.3136,-2.5401,1987
11,0.4753,-0.5359,0.332,0.2878,0.5231,-2.9264,2232
11,0.5493,-1.2776,-0.051,1.4463,-0.4944,-2.7046,1685
11,0.0759,-1.2568,0.4246,1.2243,-0.2948,-3.7271,2200
11,0.2939,-1.0186,0.3984,0.6775,-0.0594,-3.4848,2218
11,0.5234,-1.094,0.1238,0.454,-0.194,-3.5234,2080
11,0.3667,-0.8586,0.2268,0.6743,0.1803,-3.7185,2211
11,0.4756,-0.8369,0.2712,0.4982,-0.092,-3.6372,2006
11,0.3801,-0.9382,0.1597,0.4983,-0.3197,-3.7031,1957
11,0.2688,-0.8533,0.0654,0.3569,-0.2348,-3.6154,2090
11,0.2666,-0.8416,0.0339,0.3783,-0.1856,-3.4833,2075
11,0.384,-0.7681,0.1587,0.3036,-0.1286,-3.2616,2044
11,0.4719,-0.7842,0.3625,-0.0459,-0.2384,-2.9688,2001
11,0.6768,-0.8455,0.4702,-0.5643,-0.4268,-2.5236,1965
11,0.2124,-0.7441,-0.0083,-0.1727,-0.747,-2.8569,2082
11,0.1089,-0.594,0.0583,-0.074,-0.8355,-2.6438,2160
11,0.2012,-0.6333,0.0361,0.1248,-0.8833,-2.7699,2087
11,0.3521,-0.5049,0.0806,0.3096,-0.8951,-2.635,1952
11,0.2688,-0.5081,0.1206,0.345,-0.9842,-2.4647,1966
11,0.1479,-0.511,0.0981,0.2689,-1.0973,-2.2981,1993
11,0.092,-0.5007,0.0645,0.2533,-1.1788,-2.0909,2012
12,0.0435,-0.3679,-0.0415,0.1763,-1.4705,-1.7363,2005
12,0.6282,-0.2151,0.0254,-0.0052,-2.2874,-1.0881,2075
12,-0.804,-0.3335,-0.0706,0.4785,-2.8786,-1.1529,2182
12,-1.6716,1.8728,0.5503,2.6887,2.0262,-4.2848,2202
12,-1.2256,-0.6467,-0.1616,-0.7146,0.7063,-0.666,1914
12,0.7356,-0.8308,-0.9014,-1.7707,-2.5673,1.9286,2212
12,-1.0405,-1.1116,-0.4209,-1.4898,-3.5159,1.5595,1801
12,-2.0,-2.0,-0.7942,-2.0458,0.6829,2.9415,2519
12,1.3459,-2.0,0.5906,-2.1193,0.6014,3.8129,2409
12,-1.4956,-2.0,-1.1313,-0.7094,0.4436,1.6207,3155
12,-0.9546,-1.6682,0.5566,-0.5201,0.2723,1.6515,2249
12,-0.032,-1.5037,0.4307,-0.5393,-0.1657,2.3232,1273
12,0.082,-2.0,0.7688,-0.0979,-0.4303,2.386,1411
12,0.2234,-1.0762,0.7949,0.1033,-0.8732,1.6187,1831
12,0.4211,-0.6333,0.4927,-0.0534,-1.1047,1.4259,2214
12,0.8035,-0.5139,0.5164,-0.1095,-1.5562,1.3701,1856
12,0.1738,-0.9373,0.2766,-0.4137,-1.2468,1.0279,2080
12,0.2871,-0.937,0.2109,-0.7433,-0.5328,1.1833,2151
12,0.6013,-0.8105,0.197,-0.7593,-0.4553,1.4249,2198
12,0.5273,-1.363,0.064,-0.6799,-0.956,1.5504,2043
12,-0.0364,-1.4377,-0.1643,-0.6147,-1.0404,1.8049,2077
12,-0.5771,-1.4072,-0.3811,-0.4635,-0.7432,1.5451,2182
12,-0.3159,-1.2114,-0.3179,-0.1695,-0.3104,1.1497,2018
12,0.0083,-1.0269,-0.0608,-0.1185,-0.1217,1.0286,1869
12,0.1919,-0.9109,0.0291,-0.1005,-0.053,1.0332,1878
12,0.1997,-0.9421,0.0828,-0.1294,-0.1184,1.0136,1916
12,0.2004,-1.0249,0.012,-0.1671,-0.1787,1.1106,2089
12,0.092,-0.99,-0.0459,-0.1663,-0.1392,1.1648,2103
12,-0.0522,-0.9365,-0.0769,-0.1107,0.033,1.3081,2178
12,-0.0728,-0.8911,-0.1033,0.0541,0.2149,1.2925,2060
12,-0.1025,-0.95,-0.0676,0.1386,0.3504,1.2945,1993
12,-0.0867,-1.0281,-0.0513,0.12,0.5621,1.3392,2004
12,-0.053,-0.9294,-0.0269,-0.0529,0.6426,1.2137,2068
12,-0.0093,-0.8745,-0.0144,-0.1224,0.5509,1.138,2130
12,0.0752,-0.8748,-0.0234,-0.1373,0.4283,1.188,2019
12,-0.0757,-0.8743,0.0039,-0.1782,0.1661,1.2451,2115
12,0.0317,-0.9131,-0.0867,0.0932,-0.1048,1.2782,2075
12,-0.0969,-0.9375,-0.1309,0.1473,-0.2468,1.2271,2095
12,-0.0957,-1.0237,-0.1169,0.2029,-0.2389,1.2528,2119
12,-0.1392,-1.0112,-0.1257,0.1882,-0.188,1.2386,2030
12,-0.1814,-1.0139,-0.1179,0.2242,-0.2172,1.2109,2025
12,-0.23,-1.0417,-0.1008,0.2534,-0.2159,1.1762,2041
12,-0.2441,-1.0696,-0.0562,0.2529,-0.1575,1.1055,2004
12,-0.2805,-1.0684,-0.0386,0.1958,-0.1031,1.0555,1942
12,-0.2871,-1.0359,-0.0159,0.1344,-0.0702,0.9772,2054
12,-0.2644,-1.0117,-0.0388,0.1043,-0.0133,0.9155,2058
12,-0.2285,-0.9822,-0.0679,0.0963,-0.0003,0.8637,2057
12,-0.2139,-1.0098,-0.0417,0.1028,-0.0089,0.8119,2071
12,-0.2046,-0.9773,-0.0425,0.123,0.0237,0.7731,2150
12,-0.155,-1.0022,-0.0417,0.159,0.1254,0.7721,2020
12,-0.1431,-0.9958,0.0173,0.2438,0.1669,0.7363,1997
12,-0.093,-0.9521,0.0608,0.3685,0.0498,0.7114,2030
12,-0.3037,-1.0735,0.0972,0.3622,0.1057,0.6934,2043
12,-0.2947,-1.0149,0.0632,0.3382,0.3019,0.6437,2013
12,-0.2781,-0.9902,0.0486,0.3257,0.3193,0.6004,2069
12,-0.2976,-0.998,-0.0125,0.2555,0.1767,0.5763,2088
12,-0.2651,-1.0198,-0.041,0.2125,0.1381,0.5414,2117
12,-0.2266,-0.9929,-0.0334,0.2217,0.1586,0.5332,2093
12,-0.2095,-0.9844,-0.0225,0.2434,0.1699,0.5341,1959
12,-0.2205,-0.9897,-0.051,0.2555,0.1655,0.548,1914
12,-0.1987,-1.0037,-0.0129,0.2887,0.1828,0.5549,1972
12,-0.2151,-0.9946,-0.0005,0.2895,0.1631,0.5468,2069
12,-0.2043,-1.0129,0.0381,0.3191,0.1297,0.5369,2182
12,-0.2485,-1.0249,0.0461,0.3793,0.1145,0.5328,2127
12,-0.2715,-1.0613,0.0537,0.4326,0.129,0.5155,2035
12,-0.2527,-1.0498,0.1018,0.4938,0.1209,0.4761,2109
12,-0.2058,-1.0706,0.1455,0.5466,0.09,0.4356,2024
12,-0.241,-1.1582,0.1455,0.5556,0.082,0.3605,2026
12,-0.1836,-1.1758,0.1787,0.645,0.1188,0.293,2064
12,-0.0808,-1.0823,0.3186,0.7012,0.1163,0.2883,2075
12,-0.0784,-1.0107,0.3674,0.6146,0.0883,0.2703,2077
12,-0.0349,-1.0762,0.3977,0.4651,-0.0365,0.2843,2039
12,-0.0308,-1.0232,0.3308,0.2892,-0.2223,0.2934,2040
12,0.0532,-1.1733,0.1609,0.1165,-0.5948,0.4452,2082
12,-0.3618,-1.1133,-0.0005,0.004,-0.7337,0.4726,2197
12,-0.614,-1.1533,-0.2275,-0.1278,-0.2792,0.3089,2145
12,-0.4502,-1.0635,-0.3782,-0.0764,0.1264,0.3368,2077
12,-0.5007,-1.0317,-0.3481,0.068,0.6482,0.2946,2072
12,-0.613,-1.0149,-0.3086,0.1348,1.232,0.2807,2037
12,-0.5857,-1.0151,-0.3083,0.0826,1.7646,0.2261,2018
12,-0.583,-0.989,-0.3008,0.1266,2.1217,0.1232,2035
12,-0.5273,-1.0188,-0.1938,0.1139,2.376,0.0182,2027
12,-0.5103,-0.9995,-0.0693,0.1333,2.4681,-0.0455,2046
12,-0.3894,-0.9175,0.061,0.1044,2.5689,-0.1923,2050
12,-0.2957,-0.9709,0.2026,0.0692,2.6862,-0.3512,2048
12,-0.1887,-0.938,0.2144,0.1008,2.6265,-0.4737,2032
12,-0.0869,-1.0022,0.1914,0.1316,2.3525,-0.5695,2014
12,-0.166,-1.011,0.1926,0.0324,2.0583,-0.606,2070
12,-0.0964,-0.9556,0.189,0.0031,1.6558,-0.6942,2086
12,-0.0781,-0.927,0.2083,-0.0178,1.2267,-0.7166,2079
12,-0.083,-0.8921,0.1917,-0.0001,0.8648,-0.7753,2064
12,-0.0261,-0.8491,0.1387,0.0649,0.4552,-0.82,2051
12,-0.1487,-0.876,0.1199,0.0194,0.1962,-0.8716,2065
12,-0.126,-0.8293,0.0608,0.0823,-0.0951,-0.9463,2058
12,-0.1812,-0.8357,0.002,0.1261,-0.4032,-0.9907,2031
12,-0.2253,-0.9111,-0.0737,0.1814,-0.5971,-1.0076,2048
12,-0.1313,-0.9761,0.2544,-0.1879,-0.2145,-1.1841,2141
12,-0.4717,-0.959,-0.1292,-0.1224,-0.557,-0.8545,2087
12,-0.3621,-0.7834,-0.2451,-0.1934,-0.4878,-0.7959,2104
12,-0.302,-0.7998,-0.219,0.1312,-0.4249,-0.9116,2013
12,-0.364,-0.8523,-0.0757,0.2107,-0.6672,-0.7665,2029
12,-0.4014,-0.8945,-0.041,0.0433,-0.6798,-0.6007,2074
13,-0.428,-0.8843,-0.0928,-0.0253,-0.3814,-0.4516,2090
13,-0.5137,-0.8479,-0.1101,-0.0635,-0.1498,-0.2606,2084
13,-0.5737,-0.8584,-0.1438,-0.0405,-0.0354,-0.0695,2068
13,-0.6226,-0.8738,-0.1694,0.0156,0.023,0.124,2061
13,-0.6953,-0.8997,-0.1658,0.0246,0.118,0.3164,2065
13,-0.6697,-1.0242,-0.0962,-0.0213,0.2566,0.5129,2081
13,-0.637,-0.9482,-0.094,-0.0027,0.3771,0.4292,2063
13,-0.5798,-0.79,-0.1223,0.1498,0.6789,0.3243,2001
13,-0.2329,-0.9556,-0.0723,0.4209,0.8313,0.1744,1881
13,-0.2539,-1.1133,-0.0149,0.4581,0.7624,0.1116,1973
13,-0.2708,-1.2031,0.0249,0.259,0.7377,0.0804,2082
13,-0.2854,-1.1711,0.0393,0.0806,0.807,0.0008,2170
13,-0.3049,-1.0808,0.0759,0.0095,1.014,-0.0928,2123
13,-0.2722,-0.998,0.0952,0.0466,1.1824,-0.1515,2068
13,-0.2815,-1.0469,0.1204,0.0634,1.2485,-0.2297,2047
13,-0.3049,-1.0332,0.2053,0.0389,1.3179,-0.3097,2079
13,-0.2554,-1.0154,0.2717,0.0756,1.3054,-0.361,2088
13,-0.3174,-1.0027,0.3008,0.0895,1.4704,-0.4183,2067
13,-0.292,-0.9729,0.2668,0.0882,1.5499,-0.4488,2030
13,-0.2588,-0.9614,0.2363,0.1005,1.5324,-0.4681,2032
13,-0.2327,-0.9509,0.2239,0.1136,1.4948,-0.4693,2056
13,-0.2107,-0.9678,0.2021,0.0891,1.4407,-0.4524,2054
13,-0.1929,-0.9482,0.1646,0.0933,1.4149,-0.4312,2075
13,-0.147,-0.9583,0.1033,0.0875,1.3788,-0.3894,2057
13,-0.1252,-0.9639,0.0403,0.1108,1.2718,-0.3296,2050
13,-0.1431,-0.9763,-0.0154,0.1268,1.1935,-0.2669,2072
13,-0.0962,-1.0017,-0.0371,0.1007,1.1041,-0.2031,2063
13,-0.0786,-1.001,-0.0642,0.0731,1.0158,-0.1318,2090
13,-0.0312,-0.9888,-0.1138,0.0392,0.8359,-0.0634,2067
13,-0.0413,-0.9976,-0.1145,0.0286,0.6678,-0.021,2073
13,-0.0002,-1.0032,-0.1431,0.0242,0.4445,0.0091,2061
13,0.0286,-1.0234,-0.1465,0.019,0.2473,0.0346,2050
13,0.0408,-1.0679,-0.1414,-0.0254,-0.017,0.0851,2063
13,-0.0103,-1.0259,-0.1321,-0.0571,-0.3139,0.1309,2108
13,-0.1157,-0.9717,-0.1289,-0.0593,-0.5136,0.1595,2067
13,-0.2058,-0.9651,-0.1167,-0.061,-0.6126,0.1723,2061
13,-0.2542,-0.9802,-0.0793,-0.0687,-0.6409,0.206,2079
13,-0.2944,-0.9609,-0.0513,-0.0517,-0.6577,0.2219,2037
13,-0.3066,-0.9583,-0.0198,-0.0337,-0.6288,0.2139,2020
13,-0.3171,-0.9619,0.0122,-0.0188,-0.5713,0.1989,2039
13,-0.3113,-0.9656,0.0183,-0.0166,-0.4753,0.1719,2063
13,-0.3274,-0.9727,0.0078,-0.0053,-0.3609,0.1205,2079
13,-0.3059,-0.99,0.042,0.0049,-0.1872,0.0609,2069
13,-0.1487,-1.054,0.0735,-0.0035,-0.1438,0.0401,2077
13,-0.1101,-1.0037,0.1047,-0.0116,-0.2083,0.0686,2082
13,-0.1775,-0.9792,0.0798,-0.0194,-0.2706,0.09,2052
13,-0.2495,-0.9956,0.0122,-0.0675,-0.328,0.0975,2042
13,-0.2695,-1.019,-0.0283,-0.0959,-0.3208,0.0874,2053
13,-0.2625,-1.0208,-0.0273,-0.1161,-0.2834,0.0672,2044
13,-0.2571,-1.0278,-0.0229,-0.1089,-0.2954,0.038,2081
13,-0.248,-1.0171,-0.0034,-0.0803,-0.296,-0.0044,2041
13,-0.2405,-1.04,0.043,-0.1024,-0.2546,-0.0312,2085
13,-0.259,-1.0325,0.0576,-0.1087,-0.2116,-0.0539,2073
13,-0.271,-1.0112,0.0662,-0.1176,-0.1976,-0.0807,2060
13,-0.2419,-1.0173,0.0312,-0.1286,-0.234,-0.0971,2051
13,-0.2212,-1.0229,0.0449,-0.1338,-0.2748,-0.1186,2081
13,-0.1992,-1.0259,0.0654,-0.1309,-0.2982,-0.1337,2048
13,-0.2166,-1.0251,0.0769,-0.1537,-0.2835,-0.1409,2057
13,-0.2275,-1.0215,0.0664,-0.1694,-0.2698,-0.1489,2037
13,-0.2527,-1.0149,0.0063,-0.1906,-0.2871,-0.165,2049
13,-0.2844,-1.0022,-0.0208,-0.2027,-0.3176,-0.2007,2063
13,-0.2876,-1.011,-0.0325,-0.2141,-0.353,-0.2328,2075
13,-0.2576,-1.0161,-0.0452,-0.2313,-0.367,-0.2625,2043
13,-0.2729,-1.0129,-0.062,-0.2229,-0.3697,-0.2971,2065
13,-0.3069,-1.0183,-0.0862,-0.2045,-0.3334,-0.3433,2063
13,-0.2866,-1.0042,-0.0918,-0.1892,-0.316,-0.3923,2123
13,-0.2947,-1.0164,-0.0908,-0.2004,-0.322,-0.4546,2070
13,-0.3015,-1.0237,-0.075,-0.2393,-0.3578,-0.507,2130
13,-0.2903,-1.0308,-0.084,-0.2422,-0.3754,-0.5331,2052
13,-0.2554,-0.9768,-0.0994,-0.2619,-0.4627,-0.5746,2096
13,-0.2014,-1.0156,-0.0039,-0.289,-0.4722,-0.5914,2087
13,-0.1851,-1.0225,-0.0134,-0.2717,-0.4324,-0.6185,1975
13,-0.1665,-1.0042,-0.0146,-0.2337,-0.404,-0.6417,2040
13,-0.1853,-1.0288,0.0024,-0.218,-0.3465,-0.697,2040
13,-0.1526,-0.9785,-0.009,-0.196,-0.3349,-0.7462,1986
13,-0.1733,-0.9663,0.0129,-0.177,-0.4854,-0.8068,2013
13,-0.1064,-0.9729,0.0635,-0.2465,-0.56,-0.8548,2061
13,-0.0652,-0.9863,0.0046,-0.2503,-0.6063,-0.8598,2122
13,-0.1238,-1.0063,0.0354,-0.3211,-0.6284,-0.8574,2125
13,0.0037,-0.9807,0.0415,-0.2932,-0.5143,-0.8076,2086
13,0.1001,-1.0178,-0.0242,-0.2262,-0.5172,-0.7304,2038
13,0.022,-1.052,-0.1086,-0.2012,-0.4958,-0.6064,1995
13,-0.0098,-1.0317,-0.1316,-0.1047,-0.4334,-0.5505,2010
13,-0.0073,-1.0337,-0.1367,-0.0515,-0.3297,-0.4912,2059
13,-0.0654,-1.0112,-0.1028,-0.024,-0.2822,-0.4649,2076
13,-0.093,-1.03,-0.1292,-0.0104,-0.2274,-0.4653,1994
13,-0.1328,-1.0229,-0.1716,0.0313,-0.1946,-0.4757,2010
13,-0.1497,-1.0186,-0.1819,0.0613,-0.145,-0.5156,2036
13,-0.1592,-1.0242,-0.1721,0.0981,-0.0774,-0.5392,2050
13,-0.1555,-1.0371,-0.1653,0.1289,-0.0153,-0.5787,2060
13,-0.1467,-1.0117,-0.123,0.189,0.0348,-0.6522,2002
13,-0.1609,-0.9919,-0.1301,0.2177,0.0714,-0.7138,2015
13,-0.1609,-1.0029,-0.1069,0.2123,0.0394,-0.7516,2001
13,-0.0962,-1.0149,-0.0791,0.2027,0.0057,-0.753,2151
13,-0.0513,-1.0195,-0.0667,0.2001,0.0264,-0.7473,2064
13,-0.0051,-1.0044,-0.0369,0.1831,0.0491,-0.7401,2065
13,0.0571,-0.9985,-0.0066,0.1593,0.0867,-0.7293,2024
13,0.0989,-0.9822,0.0005,0.1609,0.0949,-0.6817,1938
13,0.1362,-0.9817,0.0151,0.1808,0.1117,-0.649,1984
13,0.1445,-0.9749,0.0532,0.1932,0.1478,-0.6023,2000
13,0.1582,-0.967,0.0281,0.1862,0.1385,-0.5522,2488
14,0.1538,-0.9783,0.0115,0.184,0.1669,-0.5152,2368
14,0.1321,-1.0017,0.0273,0.1529,0.1771,-0.4806,2039
14,0.1523,-0.9963,0.0435,0.137,0.1432,-0.4199,1865
14,0.1829,-1.0129,0.0247,0.1447,0.1663,-0.3749,1973
14,0.1433,-1.0237,0.0271,0.1711,0.1858,-0.3593,2038
14,0.1382,-1.0317,-0.0298,0.1954,0.2157,-0.3183,1992
14,0.1067,-1.0161,-0.022,0.2405,0.2502,-0.3165,2131
14,0.0706,-1.0281,-0.0525,0.2763,0.2796,-0.3135,2080
14,0.061,-1.0374,-0.0623,0.3257,0.2756,-0.3225,2049
14,-0.01,-1.0447,-0.0967,0.3839,0.288,-0.3545,2074
14,-0.0388,-1.0496,-0.113,0.4329,0.2924,-0.3927,2080
14,-0.0828,-1.031,-0.0981,0.4622,0.285,-0.4446,2089
14,-0.1262,-1.0444,-0.1072,0.4998,0.2855,-0.5156,2081
14,-0.1689,-1.0454,-0.094,0.5316,0.3257,-0.5959,1966
14,-0.1731,-1.0078,-0.0479,0.5699,0.3438,-0.6747,1975
14,-0.157,-1.0237,-0.0234,0.563,0.3007,-0.7622,2028
14,-0.1235,-1.0471,0.0,0.5432,0.3132,-0.8554,2045
14,-0.0515,-1.0386,-0.0247,0.543,0.2402,-0.9421,2016
14,-0.042,-1.0571,-0.03,0.5581,0.2513,-1.0535,2027
14,-0.0583,-1.0645,-0.0142,0.6102,0.4213,-1.1991,1941
14,-0.0281,-1.0623,0.0498,0.5996,0.6449,-1.3137,1957
14,0.0195,-1.0525,0.0737,0.6063,0.8528,-1.3676,2082
14,0.0581,-1.0247,0.1116,0.6092,1.0132,-1.3962,2130
14,0.0977,-1.0266,0.074,0.6986,1.0808,-1.3924,2111
14,0.0676,-1.2363,0.0737,0.7375,1.0332,-1.36,2032
14,-0.0051,-1.4124,0.1006,0.5344,0.8407,-1.3454,2022
14,0.0042,-1.3865,0.1526,0.4368,0.7367,-1.3077,2095
14,0.0146,-1.3042,0.2258,0.4264,0.6697,-1.2945,2155
14,0.0071,-1.2935,0.3196,0.4341,0.6858,-1.3412,2048
14,0.0056,-1.2913,0.3003,0.345,0.7036,-1.3569,2195
14,-0.1375,-1.2605,0.219,0.3365,0.6574,-1.3873,2187
14,-0.207,-1.1797,0.2927,0.3421,0.7204,-1.4808,1917
14,-0.1985,-1.2219,0.2705,0.2113,0.7541,-1.5028,2029
14,-0.228,-1.3762,0.1946,0.0927,0.8159,-1.4259,1988
14,-0.1641,-1.1335,0.1917,-0.0939,1.0902,-1.505,2084
14,0.0037,-1.2205,0.0896,-0.184,1.2644,-1.5057,2070
14,-0.0256,-1.196,0.1067,-0.1931,1.5174,-1.6175,2146
14,-0.0752,-1.1633,0.0579,-0.236,1.7957,-1.6523,2067
14,0.2163,-1.2668,-0.0791,-0.3051,1.8925,-1.643,1939
14,0.2388,-1.123,-0.114,-0.3032,1.9422,-1.5862,1982
14,0.3242,-1.0955,-0.1755,-0.3224,2.0632,-1.5872,2014
14,0.3972,-1.1326,-0.2498,-0.444,2.1779,-1.5186,2019
14,0.301,-1.0027,-0.1455,-0.4223,2.3848,-1.4691,2064
14,0.1057,-0.6736,-0.1128,-0.4556,2.8895,-1.5261,2052
14,-0.094,-0.6187,-0.0835,-0.4938,3.4965,-1.613,2030
14,-0.1072,-0.5022,-0.1267,-0.4778,4.171,-1.5247,2119
14,0.4424,-0.3535,-0.1985,-0.1987,4.2126,-1.2055,2040
14,1.2649,-0.6953,-0.4512,0.1249,2.5413,-0.6395,2025
14,1.0486,-0.8074,0.3855,-0.509,3.3411,-0.2372,2256
14,0.8611,-0.9124,0.6582,-0.3603,4.1575,0.1527,2085
14,0.5188,-0.7732,0.4124,-0.8756,3.9531,0.5276,2056
14,0.2222,-0.5254,-0.0266,-1.2286,3.0212,0.8039,2127
14,0.1587,-0.5637,-0.2314,-1.2234,2.3718,0.9465,2083
14,0.196,-0.6538,-0.1465,-1.0391,2.3124,1.0299,2075
14,0.2256,-0.7195,0.0598,-0.848,2.2752,0.9471,2014
14,0.1738,-0.7544,0.2856,-0.8874,2.116,0.8457,2028
14,0.2944,-0.7893,0.4065,-1.0397,1.6787,0.9562,2086
14,0.3906,-0.821,0.4551,-1.1379,1.2868,1.0867,2026
14,0.4736,-0.8577,0.4697,-1.2781,0.8303,1.2391,2066
14,0.4993,-0.9209,0.4314,-1.3852,0.352,1.3946,2041
14,0.48,-0.9353,0.3257,-1.3828,-0.1762,1.5387,2024
14,0.4072,-0.9368,0.2163,-1.2129,-0.6397,1.605,2067
14,0.2944,-0.9321,0.1797,-1.0284,-1.0148,1.6134,2059
14,0.1863,-0.9316,0.1482,-0.9469,-1.2664,1.6564,2159
14,0.1028,-0.9397,0.178,-0.9947,-1.3725,1.6861,2075
14,0.0784,-0.9614,0.1597,-1.1472,-1.3314,1.7132,2048
14,0.1221,-1.0054,0.1255,-1.3143,-1.2282,1.7169,2027
14,0.167,-1.0803,0.0291,-1.2168,-1.1929,1.6523,2051
14,0.2244,-0.9751,0.0605,-1.1973,-1.2752,1.6546,2051
14,0.2024,-0.9893,-0.0056,-1.1778,-1.3659,1.8639,2110
14,0.1606,-1.0808,-0.0325,-1.0492,-1.3997,1.8755,2052
14,0.1301,-1.1001,-0.0193,-1.0646,-1.3318,1.9194,2050
14,0.0322,-1.1123,-0.0137,-1.0757,-1.2079,1.9209,2084
14,0.0098,-1.1194,0.0071,-1.1591,-0.9997,1.8836,2038
14,0.0435,-1.1008,0.0098,-1.2853,-0.8613,1.8218,2032
14,0.0408,-1.1084,-0.0237,-1.3186,-0.7719,1.7665,2053
14,0.0688,-1.1416,-0.0469,-1.337,-0.6918,1.7202,2018
14,0.0955,-1.1299,-0.032,-1.3685,-0.5924,1.674,2060
14,0.1313,-1.0972,-0.0205,-1.377,-0.605,1.6467,2035
14,0.1216,-1.0718,-0.0181,-1.3564,-0.6725,1.6044,2059
14,0.0874,-1.0315,-0.0159,-1.3018,-0.758,1.534,2048
14,0.0603,-0.9988,-0.031,-1.2568,-0.8324,1.4583,2038
14,0.0356,-0.9861,-0.0173,-1.176,-0.8883,1.374,2074
14,-0.0093,-1.0017,-0.0298,-1.1062,-0.8577,1.295,2042
14,-0.0625,-0.978,-0.0317,-1.0813,-0.8106,1.1986,2033
14,-0.0818,-0.9739,-0.0239,-1.0444,-0.7532,1.1103,2031
14,-0.0388,-0.967,-0.0193,-1.0092,-0.6769,1.0287,2057
14,-0.0261,-0.9673,-0.0098,-0.9235,-0.5942,0.9328,2027
14,-0.0295,-0.939,-0.0166,-0.8491,-0.5553,0.8364,2051
14,-0.0142,-0.915,-0.011,-0.806,-0.4813,0.746,2026
14,-0.0347,-0.9089,0.021,-0.7862,-0.428,0.6124,2027
14,-0.0161,-0.8811,0.0295,-0.7492,-0.3954,0.4976,2048
14,-0.0154,-0.8777,0.0449,-0.6882,-0.4077,0.3915,2037
14,-0.011,-0.8943,0.072,-0.6391,-0.4373,0.3041,2045
14,-0.0173,-0.9075,0.1084,-0.6203,-0.452,0.2136,2028
14,-0.0088,-0.8545,0.1057,-0.5955,-0.4663,0.1214,2040
14,0.0234,-0.8765,0.1262,-0.5542,-0.5235,0.0478,2039
14,0.0657,-0.8484,0.1531,-0.4864,-0.6039,-0.0229,2041
14,0.1084,-0.8201,0.1685,-0.3996,-0.7677,-0.0422,2032
14,0.1619,-0.8362,0.2126,-0.288,-1.0029,-0.0501,2077
15,0.2229,-0.897,0.2354,-0.2376,-1.3792,-0.0617,2037
15,0.2534,-0.9124,0.2166,-0.1995,-1.8717,-0.072,2078
15,0.2805,-0.9497,0.2495,-0.2104,-2.3651,-0.0621,2048
15,0.2371,-0.9578,0.2415,-0.1991,-2.8357,-0.0708,2091
15,-0.2834,-2.0,0.1279,-2.109,-2.9332,-0.818,2244
15,0.1345,0.2908,0.262,-0.7987,-3.7119,-0.2129,2643
15,0.0991,-0.9236,0.4285,0.4381,-4.3635,0.7731,1788
15,-1.0215,-0.813,0.5911,0.7106,-4.3635,0.5347,2002
15,-0.9778,-0.5894,0.2837,0.8873,-4.0623,0.6094,1965
15,-0.5679,-0.9236,0.2356,0.6626,-3.7757,0.6669,1825
15,-0.4529,-1.2842,0.3499,0.2165,-3.4228,0.4373,1952
15,-0.5042,-1.1448,0.1077,0.0217,-3.2411,0.3334,2018
15,-0.2859,-1.0029,-0.0889,0.0586,-3.3256,0.2914,2082
15,-0.4978,-1.7007,-0.7205,-0.85,-2.8763,0.0518,2231
15,-0.6816,-1.7148,-0.8728,-0.8416,-1.7968,-0.5509,2347
15,-0.0215,-1.3701,-0.3525,-0.2589,-0.5975,-0.5655,2150
15,0.1826,-0.896,0.1243,-0.1229,0.7508,-0.0562,1914
15,-0.583,-0.8125,-0.3157,0.0509,-0.1689,-0.0153,1902
15,-0.8538,-1.6809,-0.3499,0.0819,-0.8096,-0.4358,2146
15,-0.376,-1.8979,0.6814,0.1965,-0.5701,-0.9471,2265
15,0.0789,-1.3608,1.3347,-0.0166,-0.747,-0.9951,2187
15,-0.2375,-1.2424,0.7783,0.0332,-0.7253,-0.8168,1945
15,-0.2158,-1.0811,0.1714,-0.1374,-0.9405,-0.9135,2057
15,-0.1636,-1.001,0.0745,-0.121,-1.0597,-0.9404,2077
15,-0.3042,-0.8835,-0.2102,0.0011,-1.1192,-0.9998,2049
15,-0.2625,-0.9216,-0.3157,0.0799,-1.0266,-1.0549,2090
15,-0.2405,-0.8879,-0.2825,0.0321,-0.8773,-1.0844,2028
15,-0.1611,-0.854,-0.238,0.0004,-0.7244,-1.0967,1970
15,-0.0308,-0.96,-0.0793,-0.0571,-0.5453,-1.1005,1952
15,-0.0232,-0.9553,0.1099,-0.1669,-0.3683,-1.0244,1947
15,0.1782,-0.949,0.1355,-0.0185,-0.4831,-0.9709,1910
15,0.0354,-1.1001,0.1135,-0.0451,-0.5401,-0.8107,2078
15,-0.0237,-1.0437,0.0222,0.0076,-0.4336,-0.7612,1982
15,-0.0603,-1.0588,-0.1047,0.0238,-0.3935,-0.6517,2063
15,-0.0464,-1.0303,-0.1741,0.006,-0.3551,-0.585,2125
15,-0.0823,-1.0466,-0.196,0.0115,-0.3205,-0.5701,2292
15,-0.1338,-1.019,-0.1421,0.0205,-0.2782,-0.569,2323
15,-0.093,-1.0215,-0.116,0.0288,-0.2345,-0.5509,1692
15,-0.1389,-1.0308,-0.0999,0.0465,-0.2071,-0.5734,1702
15,-0.1428,-1.0466,-0.1111,0.0649,-0.1763,-0.5842,1772
15,-0.1685,-1.0464,-0.1228,0.1188,-0.153,-0.6345,1925
15,-0.1648,-1.019,-0.1372,0.1719,-0.1346,-0.6614,2075
15,-0.1797,-1.032,-0.1233,0.1381,-0.1025,-0.7162,2137
15,-0.1082,-1.0247,-0.1208,0.2039,-0.0706,-0.7617,2241
15,-0.0618,-1.0479,-0.0974,0.1824,-0.0945,-0.7927,2075
15,-0.0476,-1.0181,-0.085,0.137,-0.089,-0.7461,2157
15,-0.0078,-0.991,-0.0566,0.139,-0.0903,-0.7352,2130
15,0.002,-1.0095,-0.0347,0.1127,-0.1386,-0.7641,2252
15,0.0291,-1.0076,-0.0371,0.1467,-0.0649,-0.7673,2289
15,0.0698,-1.0149,-0.0623,0.1832,-0.0165,-0.7799,2190
15,0.0322,-0.9417,-0.0361,0.2017,-0.0353,-0.7925,1882
15,-0.093,-1.0364,0.0261,0.2854,-0.1209,-0.7668,2227
15,0.1528,-0.8596,0.0076,0.3722,-0.2768,-0.807,1921
15,0.041,-1.0403,-0.0654,0.2815,-0.1409,-0.7877,2210
15,0.1904,-0.7593,-0.084,0.2193,-0.335,-0.8139,2178
15,-0.3943,-1.4871,0.0396,0.2228,0.1121,-0.6546,1718
15,0.1853,-0.5671,-0.0452,0.2731,-0.0525,-0.8413,1996
15,0.2935,-1.022,-0.062,0.5177,-0.6397,-0.8525,2027
15,-0.1973,-0.9399,0.019,0.4763,-0.4199,-0.7869,2086
15,-0.2009,-0.9792,0.0393,0.2886,-0.0281,-0.6549,2108
15,-0.0515,-1.0737,0.0103,0.2131,0.1812,-0.7649,2005
15,0.1653,-0.9902,0.0256,0.3177,0.0723,-0.8483,2033
15,0.0881,-0.9624,0.0085,0.4389,0.018,-0.8135,1925
15,0.0127,-0.999,0.0232,0.465,0.076,-0.8047,2045
15,0.0164,-0.9739,-0.0427,0.5638,0.2079,-0.8325,2058
15,-0.0989,-0.9487,-0.0571,0.657,0.3497,-0.84,2069
15,-0.2395,-0.9644,0.0254,0.6257,0.2745,-0.8156,2025
15,-0.3579,-1.1553,0.0366,0.4171,0.0992,-0.9827,1984
15,-0.3291,-1.271,-0.0247,0.4155,-0.0413,-1.3408,1956
15,-0.4058,-1.1777,0.0234,0.4175,-0.1501,-1.691,1951
15,-0.5518,-1.1819,0.0911,0.443,-0.0533,-2.0354,2028
15,-0.5715,-1.292,0.1135,0.4751,0.065,-2.424,2077
15,-0.6331,-1.501,0.1475,0.5464,0.2481,-2.7248,2116
15,-0.7375,-1.5813,0.3328,0.6738,0.5723,-2.9316,1976
15,-0.8259,-1.8481,0.3584,0.6074,0.5486,-3.3358,1910
15,-1.0835,-2.0,0.4165,0.5578,0.3793,-3.7918,1797
15,-1.4329,-2.0,0.5688,0.4297,0.4578,-4.0676,1831
15,-1.3936,-2.0,0.6399,0.1942,0.6972,-4.1273,1878
15,-0.8894,-2.0,0.6155,-0.1019,0.8597,-4.1208,3479
15,-0.5356,-1.9854,0.3438,-0.324,1.617,-3.6434,2358
15,0.9885,-1.1438,0.2031,0.5291,0.6819,-3.3168,1031
15,1.8406,-1.1082,-0.0083,0.4886,-0.9127,-2.5132,1661
15,1.4463,-2.0,-0.3406,-0.1226,-1.7422,-2.9417,1882
15,0.0535,-1.1082,-0.571,-0.234,-0.2334,-3.4772,2093
15,-0.78,0.9739,-0.991,0.7633,1.8141,-3.271,2176
15,-1.9912,0.0796,-0.4595,0.6068,2.5549,-1.5556,2087
15,1.9999,-0.1199,-0.7527,1.0834,0.6711,-3.2296,2068
15,1.9999,-0.375,-0.4172,1.4237,-0.2189,-1.8775,2083
15,1.9999,-0.7949,1.0891,0.719,-1.6839,-0.3812,2064
15,1.9999,-0.0364,1.3325,1.1676,1.5079,1.1858,2144
15,1.5232,-0.0906,0.125,0.3055,0.1079,2.2654,1786
15,-0.457,-0.1111,-0.5786,-0.4157,-0.9223,2.8454,1997
15,-0.573,0.374,-0.762,-0.4706,-0.9244,2.7087,2116
15,-0.3535,0.5115,-0.5605,0.147,-0.5149,2.4834,2138
15,-0.1924,0.6084,-0.1465,0.2987,0.3409,2.7402,2152
15,-0.239,0.3728,-0.1262,0.4677,0.7846,3.5143,2115
15,0.0151,-0.375,-0.0449,0.87,1.3559,2.6508,2054
15,0.0476,-0.0486,0.209,0.8379,1.3055,3.0722,2124
15,-0.1128,0.113,0.3564,0.404,1.5071,3.3158,2086
15,0.1279,-0.0942,0.3494,0.2424,1.4362,3.4652,2072
15,0.3721,-0.2097,0.4802,-0.1474,1.4174,3.6591,2067
15,0.4729,-0.1355,0.4263,-0.6428,1.2404,3.9375,2069
15,0.5078,-0.1313,0.4036,-0.9005,0.8477,4.2532,2035
15,0.4851,-0.1936,0.3665,-1.0062,0.6018,4.3634,2003
15,0.4946,-0.3569,0.3879,-1.1323,0.3975,4.3634,2030
16,0.7368,-0.5479,0.5464,-1.2099,-0.0792,4.3634,2047
16,1.1729,-0.6829,0.7532,-1.3981,-1.1472,4.3634,2013
16,1.176,-0.6519,0.7056,-1.5838,-2.2585,4.3634,2066
16,1.0325,-0.8325,0.5254,-1.3845,-3.0408,4.3634,2033
16,0.8079,-0.8713,0.3591,-1.0816,-3.4332,4.3634,2052
16,0.6272,-1.1279,0.2659,-0.55,-3.4728,4.3634,2118
16,1.7664,-2.0,0.7314,-4.3635,-4.3635,3.8,3134
16,1.4839,1.9999,1.7034,3.3838,-3.2949,4.3634,1774
16,-0.9263,-1.8616,-0.292,0.2651,-4.3635,3.6841,1172
16,-0.678,-2.0,-0.176,-0.1374,-4.1757,3.3375,2425
16,0.5415,-2.0,-0.4097,-1.2307,-0.1442,1.6928,2261
16,1.3384,-0.031,-0.0925,-0.5857,-0.3775,0.3903,1623
16,-0.1243,-2.0,-0.5098,-0.1712,0.8512,-0.2924,1600
16,0.6355,-2.0,0.2329,-1.0449,-1.2515,-0.5067,3022
16,-2.0,1.9999,1.2461,0.2874,1.4532,-0.0164,2442
16,-0.3586,-2.0,0.5676,-0.5307,3.1606,-0.3137,1303
16,-0.3362,0.2183,0.0417,0.0443,-1.6,-0.0045,2084
16,0.6672,-1.9624,0.2966,-0.6285,-1.4965,-0.9749,2122
16,-0.0081,-0.8088,1.3223,-0.7,-1.0776,-0.6456,1895
16,-0.8682,-1.2288,-0.146,-0.7389,-1.2865,-0.4207,2252
16,-0.5291,-0.876,0.2085,-0.3614,0.0117,-0.5458,2138
16,0.2568,-0.8438,-0.2053,-0.2469,-0.8971,-0.7449,1760
16,0.0698,-1.0715,0.0952,-0.2282,-0.691,-0.7977,1835
16,-0.1719,-1.009,-0.0149,-0.248,-0.2786,-0.7072,1935
16,-0.0525,-0.9541,0.1404,-0.2382,0.0057,-0.6436,2002
16,0.062,-0.9319,0.0933,-0.1946,-0.3476,-0.6241,2095
16,-0.0427,-1.0032,0.0203,-0.1876,-0.4585,-0.6007,2134
16,-0.1179,-1.0366,-0.0298,-0.1996,-0.3337,-0.4754,2126
16,-0.0813,-1.0259,0.0215,-0.2575,-0.1366,-0.3842,2068
16,-0.0103,-1.0225,0.0405,-0.3137,-0.2292,-0.3029,2126
16,-0.0005,-1.0234,0.0564,-0.3374,-0.3052,-0.2329,2081
16,-0.0635,-1.0247,0.0725,-0.3828,-0.3065,-0.1724,2111
16,-0.1477,-1.04,0.1338,-0.4016,-0.3076,-0.1754,2128
16,-0.188,-1.0159,0.1702,-0.3713,-0.3322,-0.2093,2084
16,-0.292,-1.0215,0.1399,-0.3569,-0.3547,-0.2786,2138
16,-0.3254,-1.0293,0.0879,-0.3397,-0.3528,-0.3898,1988
16,-0.3635,-1.0269,0.0093,-0.2944,-0.3658,-0.5257,2045
16,-0.3835,-1.0022,-0.0481,-0.2392,-0.4164,-0.6955,2095
16,-0.3545,-1.0186,-0.0779,-0.2301,-0.4546,-0.8396,2093
16,-0.3174,-1.0154,-0.1099,-0.2547,-0.4296,-0.9424,2080
16,-0.2029,-0.9985,-0.0986,-0.2465,-0.3983,-0.9866,2082
16,-0.1301,-1.0149,-0.0891,-0.2145,-0.3882,-0.9953,1931
16,-0.0798,-1.0115,-0.054,-0.176,-0.3627,-0.985,1830
16,-0.0378,-0.968,-0.0088,-0.1483,-0.2916,-0.95,2134
16,-0.0042,-0.991,0.0476,-0.1,-0.2735,-0.9425,1873
16,0.0522,-0.9973,0.1055,-0.0812,-0.2438,-0.9044,1826
16,0.0317,-0.9736,0.1262,-0.0775,-0.2117,-0.8636,2202
16,0.054,-0.9304,0.1155,-0.066,-0.2027,-0.8245,2086
16,0.0908,-1.0029,0.1018,-0.1447,-0.2269,-0.7493,2039
16,0.0889,-1.0071,0.1096,-0.165,-0.231,-0.6903,2059
16,0.0815,-1.0051,0.0713,-0.2164,-0.1906,-0.6232,2018
16,0.2234,-0.9673,0.0674,-0.1935,-0.3128,-0.5516,1962
16,0.186,-1.0115,0.0688,-0.147,-0.4448,-0.5007,2071
16,0.0923,-1.0049,0.0635,-0.1595,-0.4992,-0.4626,2029
16,0.0491,-1.0195,0.0754,-0.1485,-0.4452,-0.4844,2155
16,0.05,-1.0149,0.0518,-0.1214,-0.4564,-0.4791,2036
16,0.01,-0.9792,0.0491,-0.0854,-0.4916,-0.5159,2045
16,0.0269,-1.0017,0.0508,-0.0917,-0.481,-0.5192,2060
16,0.0234,-0.9851,0.0171,-0.0631,-0.5036,-0.5538,2074
16,0.0129,-1.0269,0.0142,-0.0409,-0.502,-0.5765,2111
16,0.0554,-1.0576,0.0537,-0.0305,-0.4654,-0.5958,2027
16,0.0002,-1.0129,0.0125,-0.017,-0.4597,-0.6522,2144
16,0.0193,-0.9919,0.01,-0.0065,-0.4321,-0.7187,2427
16,0.0078,-1.0144,-0.019,0.0133,-0.4461,-0.738,1999
16,0.0046,-1.0142,-0.0327,0.073,-0.4462,-0.7712,1858
16,-0.0042,-1.0339,-0.0508,0.1077,-0.3434,-0.8083,1978
16,-0.0532,-1.0269,-0.0054,0.0935,-0.276,-0.8289,1977
16,0.0112,-0.9695,-0.0024,0.087,-0.2092,-0.797,2003
16,0.1038,-1.0161,0.0115,0.094,-0.2281,-0.7331,2058
16,0.1064,-1.0327,0.0408,0.1326,-0.3429,-0.6578,2033
16,0.0076,-1.062,0.0522,0.1663,-0.3306,-0.5979,1979
16,-0.1497,-1.1494,0.0754,0.2369,-0.1968,-0.722,2083
16,-0.1521,-1.0544,0.0974,0.3437,-0.0625,-0.8694,2073
16,0.1995,-1.0664,-0.0054,0.3791,-0.2823,-1.2621,2219
16,-0.1121,-1.0862,-0.019,0.4474,-0.3651,-1.3017,2212
16,-0.1726,-1.2427,-0.0789,0.3381,-0.2317,-1.4576,2063
16,-0.1938,-1.1436,-0.0452,0.3133,-0.1148,-1.6761,2004
16,-0.2244,-1.1631,-0.0857,0.2681,-0.066,-1.8403,1901
16,-0.2876,-1.2319,-0.0249,0.2115,-0.077,-1.9795,1930
16,-0.3496,-1.3125,0.0813,0.1874,-0.059,-2.2462,1959
16,-0.4597,-1.4617,0.1821,0.1661,-0.0414,-2.5723,1869
16,-0.5769,-1.583,0.2764,0.1136,-0.1084,-2.8472,1934
16,-0.7656,-1.7437,0.3218,-0.0213,0.0292,-3.1183,1773
16,-0.6931,-1.8389,0.4512,-0.0619,0.1878,-2.8606,2323
16,-0.8962,-1.9915,0.5813,0.1013,0.261,-2.581,3013
16,-0.9775,-1.9927,0.7515,0.5538,0.4833,-2.8754,2296
16,-0.4915,-1.6252,0.8203,1.0714,0.4932,-3.1259,1707
16,0.3633,-1.783,0.4622,0.9758,-0.7698,-2.4898,1506
16,-0.4331,-2.0,-0.134,0.5675,-0.5508,-3.8398,2161
16,0.4885,-1.5024,-0.0432,1.142,0.868,-3.8711,2164
16,0.3848,-0.7332,0.1428,1.4893,0.6506,-3.4619,1931
16,0.418,-0.4014,0.4756,1.456,0.6279,-3.2971,1905
16,0.3572,0.1304,0.0435,1.2279,-0.012,-2.6745,1993
16,0.3164,0.5579,-0.0801,0.8625,0.2878,-2.0285,1977
16,1.928,-0.3313,-0.5527,0.3215,-1.7054,-1.2356,2182
16,1.9999,-0.7703,0.3208,1.2663,-3.4979,-0.3543,1847
16,1.7644,-0.5413,0.9863,1.2552,-1.3786,0.6075,2224
16,0.9814,-0.2537,1.2729,0.3199,1.7969,1.1316,2228
16,0.5476,0.0361,-0.1262,-0.6368,0.644,1.8534,1948
16,-0.1753,0.542,-0.5066,-0.9138,1.0298,2.745,2117
16,-0.488,0.7686,-0.5901,-0.5377,1.4246,3.5037,2140
16,-0.4248,-0.1497,-0.4333,-0.3579,2.3807,3.1629,2161
17,-0.1677,-0.3691,-0.6357,-0.234,3.0175,3.1805,2245
17,-0.8076,-0.0911,0.1587,-0.2904,4.3634,3.4511,2379
17,-0.4893,-0.0447,-0.6619,-0.1811,3.9631,3.6284,1847
17,-0.2432,0.1118,0.0686,0.0553,4.3634,3.3656,2076
17,0.4133,-0.0042,0.3193,0.3733,4.3634,3.623,2030
17,0.1555,-0.5105,0.4951,0.604,4.3565,2.9296,1973
17,0.1594,-0.918,0.8718,-0.6561,4.3634,3.6039,2080
17,0.8015,-0.6843,0.6995,-1.0503,4.1365,4.0156,1983
17,0.5088,-0.5156,0.3232,-1.5922,3.8809,4.2371,2021
17,0.4175,-0.6887,0.2988,-1.7255,3.7091,4.2042,2113
17,0.561,-0.9836,0.5024,-1.8274,3.1955,3.8836,2114
17,0.6448,-1.1326,0.8796,-2.0953,2.5951,3.3115,2032
17,1.1287,-1.1306,0.9187,-2.4297,1.7338,3.2469,1900
17,1.313,-1.2832,0.718,-2.8039,-0.1984,4.2494,2021
17,0.6707,-1.0791,0.3757,-2.3522,-0.1253,3.8735,2211
17,0.1086,-1.3352,0.6978,-1.9048,0.5462,3.593,1979
17,-0.1086,-2.0,1.9999,-4.3635,0.5096,0.8791,1763
17,1.9999,1.9999,0.6509,0.8721,-1.8867,2.4242,718
17,1.5698,-2.0,0.5303,1.219,-4.3635,3.8012,1512
17,-0.2104,-2.0,1.4661,-1.4426,-2.8126,0.8883,3806
17,1.0356,-0.3997,0.7512,-1.033,-0.6014,0.9831,1976
17,-0.105,-1.9543,0.4265,-1.1178,-3.0327,0.5645,1887
17,-0.6772,-2.0,-0.7876,-2.5212,-4.3635,1.3886,2565
17,-2.0,-0.4915,-0.3206,-1.7235,-0.3662,-0.1505,2610
17,1.4028,-1.8401,-0.3755,-0.5007,-0.7106,-0.1127,1397
17,-0.8921,-0.7878,0.2957,-0.1198,0.593,-0.3763,2190
17,-0.321,-1.1108,0.0862,-0.0594,-0.8007,-0.5693,1817
17,-0.1899,-1.0032,0.1638,-0.2747,-0.8636,-0.6489,2079
17,-0.3599,-0.9292,0.0427,-0.3127,-0.9991,-0.7237,2087
17,-0.1396,-1.0474,0.2637,-0.6609,-0.6289,-0.6426,2202
17,-0.281,-0.9636,0.0232,-0.6992,-0.9539,-0.6863,2143
17,-0.144,-1.0095,0.1169,-0.7977,-1.1274,-0.758,2088
17,-0.0681,-0.9756,0.1621,-0.6577,-0.8516,-0.647,1966
17,-0.1165,-0.9355,-0.1726,-0.6364,-0.6783,-0.5999,2007
17,-0.1086,-0.9631,-0.1934,-0.503,-0.2868,-0.5842,2069
17,-0.0789,-0.96,-0.1626,-0.4189,-0.1019,-0.5702,2049
17,-0.0173,-0.9541,-0.0662,-0.3658,-0.018,-0.5665,1971
17,0.0254,-0.9814,0.0308,-0.3105,0.0549,-0.5466,1987
17,-0.0725,-1.0103,0.1084,-0.2891,0.1091,-0.5247,2035
17,-0.075,-1.001,0.1143,-0.2986,0.0571,-0.454,2017
17,-0.1169,-0.9919,0.0249,-0.3757,-0.0206,-0.3749,2115
17,-0.0771,-1.0266,0.0234,-0.3875,0.0545,-0.3023,2106
17,-0.0188,-1.0005,0.0107,-0.3611,0.1217,-0.228,2080
17,-0.009,-0.981,0.0083,-0.3382,0.1862,-0.163,2059
17,0.0005,-0.9868,0.0291,-0.3164,0.1908,-0.0991,2059
17,-0.0249,-0.9656,0.0588,-0.3132,0.1843,-0.0389,2060
17,-0.0166,-1.0068,0.0767,-0.3096,0.1882,0.0076,2045
17,-0.0146,-0.9861,0.1016,-0.2918,0.1848,0.0642,2016
17,-0.0325,-0.9963,0.1252,-0.3188,0.1354,0.1092,2062
17,-0.0796,-0.998,0.0789,-0.3508,0.0366,0.1571,2061
17,-0.1062,-0.9575,0.0134,-0.2526,-0.0144,0.1979,2047
17,-0.1509,-1.0042,0.0225,-0.3041,-0.0772,0.2063,2051
17,-0.0764,-0.9934,-0.0322,-0.312,0.035,0.2453,2021
17,-0.0894,-0.9744,0.0,-0.3313,-0.0184,0.2526,2073
17,-0.064,-0.9905,0.0176,-0.3124,0.0808,0.2779,2037
17,-0.0464,-0.9751,-0.0232,-0.3211,0.068,0.3108,1979
17,-0.1189,-0.9746,-0.0339,-0.2693,0.0229,0.3414,2051
17,-0.1326,-1.0,-0.0671,-0.2246,0.0615,0.3655,2029
17,-0.1245,-0.9939,-0.0654,-0.22,0.0983,0.3819,2053
17,-0.2517,-1.0256,-0.126,-0.1891,0.072,0.3405,2077
17,-0.3599,-1.0339,-0.1299,-0.2041,0.0696,0.2814,2133
17,-0.3657,-1.0334,-0.1567,-0.202,0.0337,0.2099,2018
17,-0.3386,-1.0361,-0.0476,-0.2012,-0.0393,0.1289,2075
17,-0.26,-1.0339,-0.0452,-0.204,-0.0201,0.0768,2100
17,-0.2034,-1.0342,-0.0549,-0.1763,0.0498,0.0441,2011
17,-0.1797,-1.0127,-0.0823,-0.1418,0.0563,0.0206,2016
17,-0.168,-1.0325,-0.0544,-0.0908,0.09,0.0084,2040
17,-0.1831,-1.0132,-0.0181,-0.1039,0.1055,0.0035,2031
17,-0.2065,-1.0195,-0.0461,-0.0925,0.1236,-0.0036,2042
17,-0.2017,-1.0251,-0.0188,-0.0864,0.0987,-0.0193,2065
17,-0.1685,-1.0115,-0.0222,-0.0932,0.0157,-0.0197,2069
17,-0.116,-1.0042,-0.0146,-0.092,0.0691,-0.0064,2055
17,-0.0835,-0.9868,-0.0066,-0.0839,0.1127,0.0226,2055
17,-0.0193,-0.979,-0.0171,-0.0521,0.119,0.0715,2030
17,-0.0271,-0.9731,-0.02,-0.0132,0.1155,0.1212,2045
17,-0.0886,-0.979,-0.0547,0.0134,0.1474,0.1645,2086
17,-0.1145,-0.9944,-0.0303,0.0398,0.2115,0.1916,2047
17,-0.0933,-0.9985,-0.0408,0.0543,0.277,0.2233,2094
17,-0.1375,-1.0012,-0.0591,0.0539,0.2441,0.2522,2081
17,-0.1763,-0.9763,-0.0754,0.0562,0.2477,0.2553,2085
17,-0.2075,-0.9993,-0.0703,0.0248,0.1822,0.2476,2066
17,-0.2117,-1.0271,-0.0994,0.0601,0.1872,0.2476,2040
17,-0.2539,-1.0168,-0.1108,0.0848,0.1609,0.2372,2065
17,-0.2979,-1.022,-0.1279,0.0864,0.1756,0.2189,2051
17,-0.2607,-1.0168,-0.1284,0.1262,0.1916,0.2073,2058
17,-0.2131,-1.0103,-0.0967,0.1558,0.2614,0.194,2050
17,-0.2424,-1.0193,-0.0784,0.1782,0.3424,0.1716,2061
17,-0.1946,-0.9871,-0.0515,0.1938,0.3872,0.1752,2024
17,-0.1711,-0.9861,0.0181,0.1686,0.3804,0.2036,2061
17,-0.1348,-0.98,0.0244,0.1711,0.3396,0.2398,2081
17,-0.1521,-0.9946,0.0759,0.173,0.2979,0.2775,2083
17,-0.1948,-1.0061,0.009,0.1771,0.2899,0.3059,2059
17,-0.167,-1.0093,-0.0168,0.1663,0.3137,0.3172,2082
17,-0.2295,-1.0049,-0.0422,0.2059,0.3651,0.3235,2044
17,-0.2959,-1.0056,-0.0623,0.2109,0.4801,0.3083,2057
17,-0.2827,-1.0029,-0.0847,0.2209,0.5111,0.3053,2066
17,-0.2891,-1.0308,-0.0437,0.2195,0.5697,0.2859,2042
17,-0.2986,-1.0076,-0.0527,0.2229,0.6104,0.2542,1978
17,-0.3425,-0.9961,-0.053,0.2133,0.5677,0.2156,2057
18,-0.3113,-0.9932,-0.0391,0.1752,0.5709,0.1912,2078
18,-0.3064,-0.9905,-0.0444,0.1764,0.5211,0.1526,2078
18,-0.3171,-0.9778,-0.0237,0.1824,0.4894,0.0993,2040
18,-0.3206,-0.9958,0.0093,0.1763,0.4944,0.0469,2050
18,-0.2458,-0.9944,0.0227,0.1647,0.4771,0.0276,2024
18,-0.2585,-0.9993,0.0061,0.1734,0.4635,0.0145,2081
18,-0.2505,-0.9688,0.0037,0.181,0.4328,-0.0189,2075
18,-0.2854,-0.9897,0.0303,0.1662,0.3675,-0.0431,2058
18,-0.2456,-0.9998,0.0051,0.1626,0.4438,-0.0406,2107
18,-0.2617,-0.9812,-0.0146,0.1523,0.4305,-0.0399,2121
18,-0.1816,-0.9868,-0.0361,0.1481,0.491,-0.0225,2063
18,-0.2285,-0.9756,-0.074,0.1579,0.5366,-0.0308,2113
18,-0.2603,-0.9717,-0.0283,0.1687,0.5958,-0.0419,2058
18,-0.2002,-0.9832,-0.0176,0.1738,0.6213,-0.0505,2085
18,-0.2395,-0.9709,0.0374,0.1755,0.5948,-0.0465,2117
18,-0.2346,-0.9792,0.0767,0.1499,0.5659,-0.0475,2041
18,-0.2324,-0.98,0.0725,0.1353,0.5489,-0.0515,1987
18,-0.2527,-0.98,0.0825,0.1069,0.5151,-0.0495,2037
18,-0.2517,-0.999,0.0669,0.0796,0.4713,-0.0443,1969
18,-0.2717,-1.001,0.072,0.0662,0.3999,-0.0459,2019
18,-0.2703,-1.0081,-0.0056,0.0756,0.3715,-0.045,1973
18,-0.3088,-1.0044,-0.0332,0.0577,0.3649,-0.0526,1942
18,-0.2466,-0.9995,-0.0283,0.0639,0.3398,-0.0694,2011
18,-0.2739,-0.991,-0.032,0.0633,0.2619,-0.0814,2144
18,-0.2932,-0.9897,-0.0098,0.0526,0.2294,-0.0987,2145
18,-0.2949,-0.9905,0.0178,0.0511,0.1796,-0.132,2065
18,-0.3179,-0.9907,0.0393,0.0373,0.1009,-0.1607,2082
18,-0.283,-0.9922,0.0696,0.0016,0.0104,-0.1784,2126
18,-0.3132,-0.9915,0.0452,-0.0306,-0.0848,-0.1975,2086
18,-0.2722,-0.9927,0.0515,-0.051,-0.1507,-0.2179,2014
18,-0.2666,-1.001,0.0132,-0.0551,-0.1783,-0.2354,2046
18,-0.2852,-0.9902,-0.0283,-0.0851,-0.245,-0.2527,2027
18,-0.3223,-0.9895,-0.011,-0.0937,-0.2587,-0.2742,2038
18,-0.2983,-0.9973,-0.0256,-0.096,-0.2226,-0.2976,2092
18,-0.2563,-0.9871,0.0156,-0.1083,-0.2293,-0.3143,2075
18,-0.2239,-0.9785,0.0232,-0.1085,-0.2362,-0.3352,2017
18,-0.2058,-0.9861,0.0317,-0.118,-0.2806,-0.3589,2050
18,-0.2119,-0.998,0.022,-0.1173,-0.3111,-0.3886,2046
18,-0.2551,-0.9858,0.011,-0.1522,-0.347,-0.4116,2057
18,-0.2507,-1.002,0.0095,-0.184,-0.3361,-0.4279,2072
18,-0.2524,-0.9941,-0.0417,-0.2051,-0.2752,-0.4321,2040
18,-0.1863,-0.9897,-0.0151,-0.2089,-0.2342,-0.4397,2076
18,-0.1685,-0.9846,-0.0364,-0.1947,-0.1902,-0.4425,2039
18,-0.1614,-0.9961,-0.0337,-0.1782,-0.1683,-0.4441,2045
18,-0.1538,-0.999,-0.0232,-0.184,-0.1756,-0.4309,2029
18,-0.1655,-0.998,-0.0217,-0.1736,-0.1599,-0.4181,1977
18,-0.2078,-1.0161,-0.0078,-0.195,-0.1673,-0.3912,2064
18,-0.178,-1.009,0.0325,-0.2526,-0.1557,-0.3779,2165
18,-0.1514,-1.0188,-0.0237,-0.2755,-0.1477,-0.3522,2228
18,-0.4219,-0.9421,0.0061,-0.191,0.0778,-0.3115,2066
18,-0.2249,-0.7512,-0.5881,-0.416,0.2234,-0.2922,2207
18,0.3767,-1.074,0.2993,-0.2067,0.3602,-0.3726,2140
18,-0.0635,-0.8623,0.0293,-0.2814,-0.0248,-0.2152,2053
18,0.0217,-1.0723,0.2195,-0.2402,-0.0718,-0.243,2171
18,0.0051,-0.9846,0.1531,-0.1065,-0.1053,-0.2133,1903
18,-0.2166,-1.0632,0.0481,-0.1694,-0.1687,-0.1746,2042
18,-0.1831,-1.064,-0.0745,-0.2389,-0.0772,-0.1429,1984
18,-0.1787,-1.0208,-0.0459,-0.2092,0.0146,-0.169,2026
18,-0.1438,-1.0269,-0.0918,-0.2798,0.1169,-0.1378,2071
18,-0.0645,-0.9763,-0.0444,-0.2783,0.149,-0.1115,2082
18,0.0142,-0.9834,-0.0371,-0.2598,0.0955,-0.0971,2095
18,-0.0105,-0.9612,0.0256,-0.2585,0.0518,-0.0754,2002
18,-0.0154,-0.9731,-0.021,-0.2747,-0.0605,-0.0288,2084
18,-0.1343,-0.9775,-0.0881,-0.2448,-0.0127,-0.0354,2075
18,-0.1887,-1.0037,-0.1331,-0.1839,0.0738,-0.0285,2207
18,-0.2095,-1.0522,-0.0908,-0.1944,0.1237,-0.0152,2009
18,-0.2151,-1.0522,-0.0569,-0.1735,0.1546,-0.025,2149
18,-0.1567,-1.0454,-0.0132,-0.195,0.1876,-0.0345,2141
18,-0.1555,-1.0156,-0.0083,-0.19,0.2032,-0.0469,2002
18,-0.165,-0.9988,-0.0647,-0.1602,0.1896,-0.0656,2007
18,-0.1838,-1.0193,-0.0874,-0.1495,0.2269,-0.0948,2040
18,-0.2151,-1.0117,-0.1272,-0.1502,0.2633,-0.1289,2094
18,-0.1716,-1.0139,-0.1257,-0.2132,0.2272,-0.1513,2155
18,-0.1885,-0.9824,-0.1382,-0.1899,0.185,-0.1924,1978
18,-0.2346,-1.0352,-0.1011,-0.2213,0.1537,-0.2075,2217
18,-0.2593,-1.0576,-0.1013,-0.22,0.141,-0.2333,2101
18,-0.2495,-1.0608,-0.0579,-0.1878,0.1482,-0.2702,1861
18,-0.2842,-1.0632,-0.115,-0.2111,0.1924,-0.3085,1729
18,-0.3533,-1.0723,-0.2405,-0.3031,0.357,-0.3551,2025
18,-0.2202,-1.009,-0.1912,-0.2856,0.5584,-0.4111,2134
18,-0.0955,-0.979,-0.2002,-0.3081,0.5879,-0.4059,2077
18,0.0129,-0.9724,-0.1609,-0.3334,0.4757,-0.418,2108
18,0.0491,-0.9468,-0.1431,-0.2916,0.3244,-0.4199,2119
18,0.0205,-0.9658,-0.0854,-0.2152,0.19,-0.4027,2175
18,-0.1047,-1.0547,-0.0486,-0.1902,0.0855,-0.3496,2094
18,-0.209,-1.1204,-0.0452,-0.2117,0.0933,-0.3517,2060
18,-0.2537,-1.1021,-0.1614,-0.3007,0.2574,-0.3562,2067
18,-0.1809,-1.0454,-0.2573,-0.3811,0.5019,-0.3663,2050
18,-0.0525,-0.9817,-0.261,-0.398,0.6387,-0.3506,2030
18,0.0312,-0.917,-0.229,-0.3939,0.6324,-0.3223,2163
18,0.1809,-0.9097,-0.1296,-0.3754,0.604,-0.2582,2012
18,0.2744,-0.9045,-0.0796,-0.3237,0.492,-0.1962,2026
18,0.2588,-0.8826,0.0928,-0.2426,0.2482,-0.1611,2066
18,0.2893,-0.978,0.2168,-0.2518,-0.2056,-0.0627,2065
18,-0.0381,-1.0549,-0.0984,-0.1578,-0.4003,0.1039,1994
18,-0.3193,-1.2207,-0.0625,-0.1561,-0.2168,0.0531,2174
18,-0.1753,-1.1311,-0.0798,-0.2373,0.021,0.0302,2075
18,-0.0007,-1.0256,-0.042,-0.1812,-0.0117,0.034,2155
18,0.0349,-1.0234,-0.0972,-0.1988,-0.0173,0.0463,2004
18,-0.0024,-1.0002,-0.1858,-0.1828,-0.0178,0.0645,2057
18,-0.0332,-1.0042,-0.2471,-0.1334,-0.0261,0.0626,2002
18,-0.0356,-1.0049,-0.2703,-0.0678,-0.0228,0.059,2014
18,-0.0479,-0.991,-0.2979,-0.0111,-0.0076,0.07,2090
18,-0.0264,-1.0015,-0.2534,0.026,-0.0165,0.0804,2000
18,-0.054,-0.9961,-0.2161,0.0613,-0.0686,0.0916,2007
19,-0.04,-1.0288,-0.1321,0.0337,-0.145,0.145,2080
19,-0.0339,-1.0474,-0.1206,0.0322,-0.1935,0.2306,2078
19,-0.0901,-1.0288,-0.0969,0.0723,-0.2149,0.2374,2051
19,-0.0725,-1.0349,-0.0771,0.0322,-0.1742,0.2541,2012
19,-0.0488,-1.0176,-0.0933,0.0381,-0.1603,0.2529,1960
19,-0.0615,-1.0142,-0.1003,0.0457,-0.1428,0.2517,1991
19,-0.0654,-1.0215,-0.1245,0.0634,-0.0766,0.2453,2021
19,-0.0112,-0.9902,-0.1467,0.077,-0.0176,0.2499,1918
19,-0.032,-0.9512,-0.1824,0.0806,-0.0117,0.2565,1925
19,0.0017,-0.957,-0.1707,0.0694,-0.0442,0.2999,1776
19,-0.0764,-0.9731,-0.1721,0.0368,-0.1208,0.3563,1686
19,-0.0415,-1.0371,-0.1428,-0.0349,-0.1859,0.481,2043
19,-0.0789,-1.0273,-0.1479,0.0208,-0.1996,0.5235,2314
19,-0.0762,-1.0212,-0.0623,0.0131,-0.1823,0.5361,2322
19,-0.0823,-1.0188,-0.0674,0.0029,-0.1324,0.5404,2197
19,-0.0796,-1.001,-0.0732,-0.0068,-0.092,0.5492,1948
19,-0.0852,-0.9968,-0.1057,-0.0309,-0.0774,0.562,2058
19,-0.0918,-0.9946,-0.1216,-0.0413,-0.0582,0.597,2091
19,-0.0913,-1.0061,-0.1438,-0.0458,-0.0113,0.5834,1963
19,-0.0959,-0.9841,-0.1353,-0.063,-0.0344,0.6168,2291
19,-0.114,-1.0063,-0.1353,-0.0802,-0.0272,0.6446,2220
19,-0.0823,-0.9927,-0.1477,-0.1213,-0.0602,0.6913,2746
19,-0.0752,-0.9929,-0.1345,-0.1081,-0.074,0.7219,2823
19,-0.1238,-0.981,-0.1572,-0.1075,-0.0671,0.75,1309
19,-0.1516,-0.9773,-0.1328,-0.0953,-0.0249,0.753,1326
19,-0.1536,-0.9915,-0.137,-0.0723,0.0316,0.7538,1627
19,-0.1035,-0.9866,-0.144,-0.0603,0.0393,0.7855,1710
19,-0.0901,-0.9929,-0.1443,-0.0301,0.0462,0.8123,1762
19,-0.1328,-0.97,-0.1572,-0.0101,0.0395,0.8598,2140
19,-0.1028,-0.9731,-0.1687,0.0146,0.08,0.8869,2085
19,-0.1023,-0.95,-0.2034,0.051,0.1229,0.9425,2058
19,-0.0845,-0.9426,-0.1892,0.096,0.1665,1.0037,2070
19,-0.0789,-0.9731,-0.1982,0.1288,0.2008,1.0752,2124
19,-0.072,-0.9966,-0.1824,0.143,0.2499,1.174,2348
19,-0.0254,-1.0427,-0.1218,0.1185,0.3245,1.2645,2091
19,0.0063,-1.0396,-0.0916,0.1083,0.4687,1.3725,1843
19,0.0652,-1.0344,-0.0396,0.1562,0.5741,1.4257,1734
19,0.0566,-1.0129,0.0103,0.2374,0.6652,1.5093,2098
19,0.1748,-1.1575,0.1272,0.3059,0.7481,1.5632,2084
19,0.2256,-1.272,0.356,0.4457,0.8597,1.6516,2123
19,0.1243,-1.2231,0.5415,0.5054,1.1354,1.6701,2096
19,0.2546,-1.4226,0.6233,0.463,1.2163,1.7163,1991
19,0.1055,-1.1226,0.5688,0.5458,1.1146,1.6632,2066
19,-0.1528,-1.4407,0.324,0.4598,0.5464,1.4386,1977
19,-0.269,-1.3315,0.2153,0.5137,-0.7741,1.3491,2387
19,-0.4858,-1.4348,0.0247,0.4261,-0.9444,1.1255,2360
19,-1.1655,-1.0823,-0.1274,0.4307,-0.3184,0.7984,2077
19,-1.4661,-0.8723,-0.5674,0.7729,0.5296,0.4251,1808
19,-1.3538,-1.2,-0.4375,0.72,0.9451,-0.1649,1921
19,-1.187,-1.4465,-0.3132,0.711,0.7861,-0.3749,2143
19,-1.0769,-1.5227,-0.1697,0.3623,1.179,-0.6978,2198
19,-0.2151,-1.0117,-0.2141,0.4892,1.405,-1.1363,2132
19,0.4321,-1.6311,-0.3787,0.3725,1.5435,-1.6463,1598
19,0.2234,-1.0439,0.3386,0.7769,1.2909,-2.6834,2413
19,0.1028,-1.0618,-0.0557,1.2065,0.0848,-2.2851,2212
19,1.0122,-1.0066,-0.0847,1.3781,0.0224,-2.4184,2021
19,1.0879,-0.9866,0.7539,2.5527,-0.8508,-2.7532,2172
19,0.7361,-1.3616,1.0962,1.8052,-1.3712,-2.8488,2019
19,0.3955,-1.3296,0.8655,1.227,-1.6681,-3.1449,2183
19,0.1448,-1.1145,0.5945,0.3185,-1.1915,-3.2235,2173
19,-0.0806,-1.0364,0.0498,0.8633,-1.2011,-3.5715,2023
19,0.0684,-0.9617,0.0527,1.1761,-0.887,-3.6667,2076
19,0.4446,-0.835,-0.0537,1.6078,-1.1324,-3.4806,2008
19,0.335,-0.9807,-0.02,1.5771,-1.2427,-3.7416,2078
19,0.0144,-0.9526,-0.2478,1.9237,0.2115,-4.3052,2210
19,0.135,-0.803,-0.2173,2.4072,1.0103,-4.3635,2121
19,0.3325,-0.7271,0.2251,2.3443,1.1417,-4.3635,1990
19,0.6719,-0.6934,0.6472,1.8548,1.1059,-4.0887,1971
19,0.8228,-0.7583,0.4033,1.0143,0.548,-3.5444,1940
19,0.7703,-0.8643,0.6235,0.3318,0.6288,-2.9883,2015
19,0.1072,-0.7649,0.04,0.2505,0.612,-3.6025,1943
19,0.3867,-0.3916,-0.1169,1.0207,0.0513,-3.573,2298
19,0.4253,-0.4897,0.155,0.9186,0.1641,-3.6468,2190
19,0.5857,-0.3904,0.2971,1.0866,0.0141,-3.5268,2016
19,0.5889,-0.4124,0.3499,1.2374,-0.5327,-3.4627,1948
19,0.5159,-0.47,0.2996,1.0262,-0.9351,-3.2698,1998
19,0.5146,-0.5271,0.2236,0.8794,-1.3728,-3.0132,2022
19,0.5454,-0.5488,0.1748,0.8404,-1.7974,-2.8171,2037
19,0.5376,-0.6135,0.1277,0.7841,-2.2523,-2.5895,2027
19,0.3999,-0.6582,0.0127,0.6843,-2.5698,-2.3091,2032
19,0.2236,-0.6511,-0.074,0.6108,-2.7634,-1.9761,2030
19,-0.1233,-0.605,-0.1423,0.3645,-2.853,-1.5708,1954
19,-1.4019,0.2856,-0.6372,0.2665,-2.4602,-1.5728,2018
19,1.626,-2.0,0.395,-0.5887,-3.7858,-1.0753,2245
19,-1.7588,1.5151,-1.6121,-0.0549,-1.3512,0.0357,2903
19,-0.6223,-0.3325,-0.7214,-0.3689,-0.2525,0.8829,2634
19,-2.0,-2.0,-0.3376,-3.2604,-2.3043,3.2372,634
19,1.0898,-2.0,-1.2131,-2.0663,0.2256,1.8536,2547
19,-1.532,-2.0,-1.3411,-2.9481,-0.9364,3.0172,1041
19,-2.0,-2.0,-0.7781,-1.8594,2.9316,1.6182,4064
19,0.0918,-2.0,0.5068,-2.0984,3.658,1.6853,1294
19,0.0093,-2.0,1.4033,-1.8086,2.4618,1.9437,946
19,0.6685,-1.575,1.4836,-1.117,1.5763,1.4174,2290
19,0.6123,-1.1558,1.4006,-0.7718,0.5745,1.3628,2260
19,0.8718,-1.5007,1.0664,-0.7035,-0.0152,1.589,2297
19,0.7751,-0.6365,0.5828,-0.7301,-0.2177,1.6784,2450
19,0.7153,-0.5139,0.0229,-1.2955,-0.5814,1.2913,2312
19,0.3455,-0.6001,-0.4631,-1.6173,-0.3396,1.5038,2222
19,0.4521,-1.0522,-0.4861,-1.5384,-0.1109,1.5102,1898
19,0.1382,-1.2603,-0.3557,-1.2971,0.2939,1.2166,1643
19,0.314,-0.9604,-0.1648,-1.1624,0.4615,1.2119,1722
19,0.3491,-0.8396,-0.2231,-1.0152,0.4486,1.2857,1940
20,0.3638,-0.8108,-0.2717,-0.8119,0.5252,1.3492,1894
20,0.4636,-0.8259,-0.2908,-0.5982,0.5541,1.3368,1911
20,0.4634,-0.8,-0.2634,-0.4924,0.5232,1.2168,1939
20,0.5342,-0.6641,-0.1733,-0.5448,0.4775,1.3247,2046
20,0.5867,-0.6768,-0.177,-0.6722,0.3342,1.5074,2247
20,0.4727,-0.8037,-0.1987,-0.7132,0.1677,1.5512,2204
20,0.3428,-0.8987,-0.2517,-0.6789,0.0623,1.6434,2214
20,0.1858,-0.9438,-0.3276,-0.6094,0.0084,1.6191,2053
20,0.0662,-0.9165,-0.3333,-0.4968,0.0193,1.4958,2046
20,-0.0132,-0.9077,-0.3328,-0.4008,0.0997,1.458,2022
20,-0.0483,-0.8579,-0.3188,-0.3173,0.2425,1.5239,2034
20,0.0186,-0.8748,-0.271,-0.2775,0.2983,1.5372,2016
20,0.0449,-0.8542,-0.2322,-0.2726,0.2884,1.5271,2015
20,0.1125,-0.8953,-0.1824,-0.2446,0.2545,1.6491,1914
20,0.1921,-0.991,-0.1709,-0.1517,0.1348,1.6468,2032
20,0.115,-1.1196,-0.1458,-0.0417,0.0774,1.7307,2062
20,-0.0681,-1.0498,-0.1733,0.0095,0.121,1.7484,2015
20,-0.293,-0.9614,-0.1501,-0.0655,0.3025,1.6262,2142
20,-0.05,-0.8904,-0.2402,-0.2786,0.3907,1.1986,2248
20,-0.0222,-0.9353,-0.1865,-0.2409,0.3738,1.2941,2022
20,-0.022,-0.9294,-0.2361,-0.232,0.3413,1.2897,2007
20,-0.0657,-0.7468,-0.0842,0.1322,0.1923,1.4153,2127
20,-0.0427,-1.136,0.0288,0.2533,-0.1507,1.3564,2054
20,-0.343,-1.0444,0.1716,0.3137,-0.2827,1.4206,1854
20,-0.3804,-1.1663,-0.0713,0.0454,-0.0731,1.2623,2237
20,-0.3376,-1.0547,-0.0381,0.1101,0.0752,1.1693,1983
20,-0.2053,-0.9712,-0.0891,0.0502,-0.1021,1.0388,2082
20,-0.3677,-1.1099,-0.1384,0.1241,-0.1758,0.942,1968
20,-0.5085,-1.0879,-0.248,0.0654,0.2662,0.8287,1997
20,-0.3904,-1.0681,-0.2163,0.0168,0.4474,0.6576,2281
20,-0.4424,-1.0234,-0.1643,-0.008,0.2113,0.4936,1958
20,-0.4255,-1.075,-0.1072,-0.1574,-0.0173,0.4193,2183
20,-0.3049,-1.0815,-0.1125,-0.283,-0.0305,0.3874,2064
20,-0.1929,-1.0249,-0.1707,-0.3024,-0.0971,0.3794,2058
20,-0.0308,-1.0154,-0.1799,-0.2531,-0.0071,0.3934,2022
20,0.189,-0.9502,-0.1765,-0.2345,0.0401,0.4886,2027
20,0.2273,-0.9519,-0.1384,-0.2157,0.0527,0.6381,2046
20,0.1736,-0.9768,-0.1394,-0.1589,0.1344,0.7942,2114
20,0.1384,-0.9692,-0.0688,-0.1148,0.2005,0.9304,2141
20,0.1245,-0.9878,-0.0898,-0.089,0.3389,1.0536,2070
20,0.1226,-0.9954,-0.1252,-0.0324,0.346,1.1469,2080
20,0.0435,-0.9731,-0.1973,0.0108,0.2657,1.2519,2375
20,-0.0759,-1.0457,-0.2097,0.0706,0.2487,1.3214,1936
20,-0.1448,-1.0979,-0.2537,0.1818,0.2842,1.3661,1895
20,-0.0662,-1.1128,-0.2388,0.2972,0.4197,1.4242,1822
20,-0.0002,-1.1233,-0.1675,0.3546,0.5103,1.4533,1919
20,0.0081,-1.0784,-0.1062,0.4034,0.6605,1.4595,1942
20,-0.084,-0.9919,-0.0049,0.3497,0.9617,1.4141,1964
20,-0.0803,-1.0791,0.0796,0.3658,1.1662,1.3667,2126
20,-0.0171,-1.0986,0.2122,0.4287,1.2106,1.375,2188
20,-0.1411,-1.1438,0.2612,0.5051,1.1485,1.3284,2234
20,-0.3174,-1.0994,0.3359,0.5846,1.1772,1.2513,2171
20,-0.2986,-1.0408,0.4109,0.5252,1.368,1.021,2176
20,-0.1868,-1.0122,0.3247,0.5753,1.321,0.8423,2106
20,-0.5247,-1.0671,0.2935,0.5063,1.0665,0.7026,2130
20,-0.6926,-1.2485,0.0115,0.3216,0.5493,0.7003,2143
20,-0.6726,-1.166,-0.1541,0.1707,0.3032,0.5485,2177
20,-0.5676,-1.0723,-0.1301,0.3385,0.2811,0.3747,2082
20,-0.907,-1.0183,-0.1819,0.5216,0.3155,0.1609,2032
20,-0.9978,-1.4001,-0.175,1.2457,0.3136,0.0898,2014
20,-1.3206,-1.3289,-0.511,0.9158,1.0102,-0.2574,2040
20,-1.2271,-1.5081,-0.6921,0.3615,1.8258,-0.6582,2038
20,-1.2048,-0.9675,-0.697,-0.083,3.0114,-0.9919,2208
20,-0.3296,-1.2415,-0.5061,0.2715,3.4471,-1.2347,2105
20,0.1541,-1.0198,-0.1118,0.9015,3.0697,-1.5267,1926
20,0.2727,-1.2627,0.2153,1.0208,2.3843,-1.9431,2004
20,0.1938,-1.2817,0.489,1.201,1.4243,-2.4851,2260
20,0.2939,-1.0911,0.3569,1.6044,0.6301,-2.3313,2278
20,0.8794,-1.0435,0.3669,1.8763,-0.3524,-2.1236,2189
20,0.8118,-1.229,0.7766,1.9001,-1.5514,-2.2238,2154
20,-0.1604,-0.8914,0.9287,1.385,-1.4061,-2.4519,2053
20,0.1074,-1.4331,0.6223,0.7629,-1.9403,-2.202,1730
20,0.3003,-1.1423,0.3948,0.7778,-1.6719,-2.4228,1967
20,0.127,-0.8755,0.1414,1.3861,-1.1581,-2.7428,2049
20,-0.1438,-1.1162,0.0073,1.5416,-0.7662,-3.1091,1992
20,-0.0137,-0.9048,-0.2505,1.4179,-0.3814,-3.1099,2063
20,0.3262,-0.8352,-0.093,1.3541,-0.2795,-2.9802,2086
20,0.5173,-0.8821,0.3232,0.7186,-0.3111,-2.6691,2070
20,0.4463,-0.8003,0.2253,0.7841,-0.1475,-2.5844,2002
20,0.3154,-0.6956,0.0698,0.7368,-0.2289,-2.4876,2049
20,0.342,-0.6885,0.0957,0.7291,0.0378,-2.1497,2060
20,0.3035,-0.6206,0.0459,0.7898,0.2159,-2.1907,2086
20,0.2786,-0.5918,-0.0049,0.9296,0.1254,-2.1466,2113
20,0.1763,-0.5144,-0.001,0.9083,0.2523,-2.1706,2029
20,0.27,-0.3689,-0.0046,1.1127,0.2523,-2.1513,2066
20,0.3752,-0.3367,0.0542,1.2451,0.1252,-2.114,2035
20,0.4707,-0.3757,0.0645,1.3488,-0.0941,-2.0403,2024
20,0.4873,-0.4143,0.0486,1.3587,-0.3175,-1.933,2030
20,0.502,-0.4346,0.0371,1.339,-0.6425,-1.7532,2032
20,0.4958,-0.5115,0.0923,1.313,-0.9843,-1.5563,2061
20,0.4614,-0.5764,0.1104,1.3154,-1.4011,-1.3548,2058
20,0.397,-0.6411,0.1006,1.2137,-1.689,-1.1451,2059
20,0.3359,-0.6758,0.1003,1.081,-1.9104,-0.9556,2055
20,0.2788,-0.709,0.0515,0.9214,-2.1431,-0.7718,2042
20,0.2097,-0.7473,0.0173,0.781,-2.2467,-0.5675,2040
20,0.0771,-0.7539,-0.0249,0.5822,-2.2997,-0.3998,2028
20,-0.0171,-0.6919,-0.1455,0.3269,-2.3333,-0.2366,1956
20,-0.2571,-0.5583,-0.3069,0.2097,-2.2794,-0.1784,2008
20,-0.0955,1.1125,-0.8198,2.2338,-1.8759,-1.1031,2010
20,1.9999,-2.0,0.4258,-0.7355,-1.9893,1.5151,2207
20,-1.2839,-1.6108,-0.6042,-1.4487,-1.4551,1.4049,2113
21,0.0637,-2.0,-1.5779,-3.2319,-2.389,2.4891,2414
21,-0.5315,-2.0,-1.395,-2.735,-0.3003,2.1355,2411
21,-1.5884,-2.0,0.1086,-3.3252,0.6722,2.9267,1569
21,-2.0,-2.0,-1.2791,-2.4878,2.0747,2.3684,2579
21,-0.5469,-1.5537,0.6316,-2.4136,2.5153,1.3262,1636
21,-0.1301,-2.0,0.4895,-1.5464,1.6972,1.1545,1704
21,-0.6721,-1.8025,0.457,-1.3089,1.7716,0.6168,1936
21,0.1313,-0.8313,0.8926,-1.1316,1.5908,0.5839,1849
21,0.5056,-0.7708,0.679,-0.9766,0.9533,0.6046,2080
21,0.8994,-0.5581,0.6602,-0.7602,0.3854,0.3053,1970
21,1.0916,-0.3425,0.7793,-0.6821,-0.153,0.3197,1960
21,1.0662,-0.425,0.6301,-1.042,-0.7399,0.4911,2168
21,0.6716,-0.8455,0.1289,-1.5034,-1.0312,0.8315,2593
21,0.3059,-0.9268,-0.4026,-1.6733,-1.1378,0.9927,2537
21,0.1487,-0.95,-0.6929,-1.5319,-1.0993,1.0345,2228
21,-0.0071,-1.1326,-0.7483,-1.2183,-0.7738,0.9882,1970
21,-0.1028,-1.2717,-0.5405,-0.9054,-0.3779,1.0034,1781
21,0.0205,-0.9207,-0.3818,-0.6215,-0.2843,0.9162,1795
21,0.1282,-0.9458,-0.2324,-0.2935,-0.333,0.824,1801
21,0.0874,-1.0366,-0.1331,-0.2979,-0.3052,0.8786,2007
21,0.1206,-0.9802,-0.0723,-0.35,-0.3002,0.9039,2018
21,0.2102,-0.9875,-0.075,-0.336,-0.3678,0.8981,2081
21,0.2161,-1.1438,-0.0757,-0.2915,-0.4594,0.8632,2061
21,0.1167,-1.1804,-0.0918,-0.2662,-0.4923,0.8265,1963
21,0.0234,-1.1184,-0.0974,-0.3152,-0.5329,0.7755,2057
21,-0.0889,-1.084,-0.124,-0.2988,-0.3453,0.7853,2065
21,-0.0225,-1.0303,-0.1108,-0.2864,-0.2317,0.6801,2042
21,0.1309,-0.9941,-0.135,-0.2381,-0.204,0.6718,2024
21,0.1345,-0.9885,-0.165,-0.1863,-0.234,0.6608,2028
21,0.0891,-1.0317,-0.1956,-0.1294,-0.1694,0.7644,2072
21,0.0557,-1.0203,-0.1699,-0.082,-0.1454,0.8245,2045
21,0.0112,-1.0032,-0.1423,-0.0872,-0.1053,0.9336,2005
21,-0.022,-0.9739,-0.1531,-0.0474,-0.0281,0.9931,2036
21,-0.0142,-0.9646,-0.1777,-0.03,0.0124,1.019,2003
21,-0.0293,-0.9668,-0.1799,-0.0049,0.0403,0.9998,1919
21,-0.0652,-0.9397,-0.1975,-0.0302,0.0662,1.023,2023
21,-0.1772,-0.9272,-0.1648,-0.1033,0.0882,0.8749,1994
21,-0.063,-0.9919,-0.1636,-0.173,0.1188,0.8752,2092
21,-0.0796,-0.9922,-0.1619,-0.1657,0.0621,0.8513,2091
21,-0.0942,-1.0168,-0.1782,-0.1301,0.0068,0.8355,2119
21,-0.1289,-0.9963,-0.187,-0.1148,-0.0103,0.7939,2063
21,-0.1499,-1.0142,-0.2009,-0.096,0.0302,0.7665,2086
21,-0.1208,-0.9966,-0.2151,-0.0372,0.1136,0.7179,2061
21,-0.1377,-0.9954,-0.2163,-0.0185,0.161,0.6802,2034
21,-0.1475,-0.9949,-0.2104,-0.0229,0.1883,0.6556,2085
21,-0.1746,-1.0083,-0.1931,-0.0605,0.0967,0.6245,2076
21,-0.1882,-1.0515,-0.1658,-0.088,0.0747,0.5979,1960
21,-0.165,-1.0564,-0.1443,-0.1141,0.0354,0.5754,2067
21,-0.1575,-1.0586,-0.1033,-0.1281,0.0115,0.5493,2047
21,-0.1418,-1.0354,-0.0908,-0.1177,-0.0192,0.5131,2113
21,-0.1597,-1.0017,-0.1367,-0.0996,-0.0101,0.4876,2070
21,-0.1245,-1.0186,-0.1841,-0.1113,-0.0107,0.4742,2068
21,-0.084,-1.0002,-0.1958,-0.063,0.0579,0.4607,2063
21,-0.0935,-1.0117,-0.1726,-0.0121,0.1819,0.456,1982
21,-0.2019,-0.9531,-0.1228,-0.043,0.2522,0.4651,2066
21,-0.178,-1.0469,-0.1355,-0.0734,0.1851,0.45,2058
21,-0.1882,-1.0112,-0.1487,-0.0851,-0.036,0.4251,2085
21,-0.157,-1.0679,-0.177,-0.0931,-0.0394,0.4321,2083
21,-0.0391,-1.0151,-0.1851,-0.0602,-0.0656,0.4679,2073
21,0.0752,-0.9951,-0.1267,-0.0164,-0.0418,0.4915,2086
21,0.0566,-0.9934,-0.1169,0.0101,0.0238,0.6074,2089
21,0.0181,-0.9875,-0.1782,0.0606,0.0599,0.6566,2081
21,-0.085,-0.9961,-0.2007,0.1752,0.1198,0.7323,1995
21,-0.093,-0.9875,-0.1919,0.2637,0.238,0.7629,1939
21,-0.0701,-0.9771,-0.2605,0.5609,0.3682,0.7773,1914
21,-0.1414,-0.9758,-0.1528,0.6757,0.3271,0.7926,1866
21,-0.3049,-1.0059,-0.1528,0.7018,0.2434,0.7396,2152
21,-0.5022,-0.9973,-0.2122,0.7299,-0.0328,0.6405,2231
21,-0.4758,-1.0105,-0.197,0.6529,-0.1704,0.556,2214
21,-0.312,-1.0408,-0.1472,0.4542,-0.1887,0.5351,2156
21,-0.199,-0.9985,-0.1785,0.3393,-0.2876,0.5227,2068
21,-0.0344,-0.9702,-0.1365,0.2918,-0.2972,0.5914,2071
21,-0.0195,-0.9575,-0.1101,0.2778,-0.293,0.679,2044
21,-0.0562,-0.948,-0.1406,0.3581,-0.3892,0.7624,2040
21,-0.1514,-1.0073,-0.1838,0.4735,-0.3123,0.8174,2039
21,-0.0884,-1.0149,-0.229,0.5853,-0.2683,0.8767,2019
21,-0.1499,-1.0774,-0.1309,0.6874,-0.1795,0.9353,2004
21,-0.0957,-1.0947,-0.0469,0.701,-0.0324,0.9636,1986
21,0.0166,-1.0105,0.0588,0.6921,0.0633,0.9503,1983
21,-0.05,-1.0046,0.1077,0.6779,0.0004,0.9421,1980
21,-0.1746,-0.9731,0.1829,0.5429,-0.2246,0.8605,2079
21,-0.3301,-0.8979,0.1077,0.3938,-0.4595,0.8186,2115
21,-0.489,-0.9404,0.0349,0.1898,-0.6387,0.783,2110
21,-0.4561,-0.9998,-0.0984,0.1712,-0.8072,0.7347,2122
21,-0.4561,-1.0151,-0.1091,0.2237,-0.7791,0.6986,2089
21,-0.4548,-1.033,-0.0471,0.3053,-0.7401,0.5936,2073
21,-0.4497,-1.0913,0.0352,0.3263,-0.6581,0.5056,2064
21,-0.3843,-1.1387,0.0237,0.3803,-0.6103,0.4252,2041
21,-0.4563,-1.1758,0.0701,0.3749,-0.5649,0.3281,2051
21,-0.5544,-1.0046,0.1018,0.4361,-0.2907,0.1944,2070
21,-0.4812,-0.9243,0.1748,0.4984,-0.1501,0.1665,2040
21,-0.457,-0.979,0.0906,0.3145,-0.3735,0.1747,2112
21,-0.2957,-1.0476,-0.0444,0.2384,-0.5337,0.1948,2120
21,-0.2158,-1.0139,-0.1577,0.2345,-0.8517,0.1915,2074
21,-0.2422,-1.0376,-0.2524,0.2776,-1.0882,0.2073,2031
21,-0.3589,-1.1067,-0.3137,0.2654,-1.3957,0.202,2061
21,-0.3523,-1.053,-0.2725,0.2448,-1.5909,0.1719,2080
21,-0.3118,-1.0039,-0.1877,0.2494,-1.6289,0.1879,2088
21,-0.3706,-0.9312,-0.0803,0.2826,-1.7499,0.2246,2026
21,-0.4043,-0.8208,-0.0215,0.2944,-2.056,0.2069,2032
21,-0.3184,-0.8535,0.105,0.2469,-2.4899,0.2011,2032
21,-0.2214,-0.8359,0.1824,0.2009,-2.9779,0.2388,2021
21,-0.0544,-0.5547,0.2085,0.2959,-3.4162,0.2143,2021
21,-0.0222,-1.0701,0.2874,0.0562,-3.7352,0.1617,1991
22,-0.1208,-0.9514,0.0835,0.0929,-4.206,0.2215,2028
22,0.1211,-0.9539,0.095,0.0838,-4.3635,0.125,2050
22,0.0964,-0.8025,0.2219,0.2188,-4.3635,0.073,2059
22,0.053,-1.0889,0.3174,0.0093,-4.3635,0.0308,2115
22,-0.1672,-1.0894,0.2502,-0.0549,-4.3635,0.1481,2156
22,-0.3955,-0.8149,0.2593,-0.0563,-4.3635,0.2108,2159
22,-0.3337,-0.6021,0.2151,-0.0405,-4.3635,0.124,2089
22,-0.4978,-0.9111,0.3892,-0.079,-4.3635,0.2715,2049
22,-0.6414,-0.5649,0.4019,0.034,-4.3635,0.3382,2090
