Timestamp,Ax,Ay,Az,Rx,Ry,Rz,EMG
0,0.5078,-0.7493,0.196,1.0078,0.7649,2.5362,2053
0,0.5933,-0.6733,0.2222,0.971,0.7672,2.5312,2070
0,0.5627,-0.7727,0.3726,1.0689,0.7186,2.548,2044
0,0.3481,-0.9792,0.5317,1.1464,0.6006,2.304,2050
0,0.0613,-1.1936,0.4771,1.2508,0.6208,1.9306,2065
0,0.1445,-1.271,0.196,1.2172,0.579,1.8101,1989
0,0.4216,-1.3259,0.3848,0.7819,0.8778,1.9403,2040
0,0.1702,-1.2822,0.5225,0.8058,0.9608,1.753,2115
0,0.0608,-1.1382,0.3943,0.7914,0.7368,1.5697,2068
0,0.2021,-0.8315,0.3274,0.6726,0.7568,1.6214,2049
0,0.1309,-0.7322,0.5225,0.5558,0.7299,1.6558,2126
0,0.0229,-0.8591,0.6272,0.5548,0.4275,1.7724,2012
0,0.0466,-0.9878,0.5659,0.5735,0.088,1.9784,2044
0,-0.0266,-1.2075,0.707,0.5421,0.049,2.129,2089
0,-0.1196,-1.4189,0.7402,0.4349,0.1087,2.121,2044
0,-0.2324,-1.4861,0.75,0.3055,0.4649,2.1149,2041
0,-0.1758,-1.3662,0.332,0.4538,0.5221,2.0321,2189
0,0.2808,-0.7332,-0.2981,0.9744,-0.1618,2.071,2016
0,0.1831,-0.8787,0.0269,0.7988,-0.32,2.1988,2151
0,-0.6169,-1.5188,0.375,1.0132,-0.9513,1.8229,2050
0,-0.6255,-1.3167,0.3035,0.9818,-1.3434,1.3182,2323
0,-0.208,-0.7659,0.321,0.4565,-1.1591,1.2969,2140
0,-0.1631,-0.4756,0.354,0.2113,-1.2519,1.2986,2050
0,-0.0981,-0.4163,0.502,-0.067,-1.2661,1.1057,1936
0,-0.0266,-0.3401,0.5586,-0.0936,-1.0575,0.7249,1966
0,0.1101,-0.2351,0.5742,-0.1693,-1.226,0.2763,2057
0,0.1309,-0.3528,0.6558,-0.3292,-0.9778,-0.0297,2113
0,-0.0171,-0.4417,0.511,-0.3709,-0.7854,-0.3647,1986
0,-0.022,-0.46,0.3445,-0.4275,-0.6737,-0.7403,2015
0,-0.0022,-0.5403,0.3413,-0.5994,-0.4501,-0.991,2116
0,-0.0195,-0.5996,0.3159,-0.6805,-0.4287,-1.221,2030
0,-0.0356,-0.574,0.2859,-0.7379,-0.3453,-1.4652,2094
0,-0.0598,-0.4775,0.2053,-0.7946,-0.5412,-1.7319,2050
0,-0.1228,-0.6545,0.3103,-1.0365,-0.3349,-1.8125,2106
0,-0.1716,-0.6296,0.1931,-1.1014,-0.3563,-1.8398,2066
0,-0.0374,-0.5037,0.084,-1.2075,-0.4289,-2.0225,2142
0,-0.0466,-0.3616,0.1414,-1.1029,-0.2372,-2.0811,2103
0,0.2288,-0.0784,-0.0095,-1.023,-0.488,-2.1164,2057
0,0.0693,-0.614,0.1719,-1.1428,-0.5432,-2.1554,2005
0,-0.0046,-0.8401,0.3796,-1.4231,-0.5578,-2.1387,2097
0,0.1594,-0.4277,0.2634,-1.6872,-0.6522,-2.1599,2103
0,0.2837,-0.2468,0.2773,-1.7096,-0.2537,-2.3856,1981
0,0.2546,-0.2959,0.2471,-1.3435,0.1562,-2.5955,2519
0,0.2695,-0.3289,0.2498,-1.0552,0.5172,-2.8216,2130
0,0.3591,-0.3328,0.2776,-0.9961,0.5966,-3.2003,2060
0,0.4038,-0.2764,0.1914,-0.7293,0.6581,-3.5147,2391
0,0.4565,-0.1716,0.1533,-0.589,0.5817,-3.6904,2045
0,0.3997,-0.1892,0.1187,-0.4204,0.6333,-3.7487,2156
0,0.3296,-0.2029,0.0469,-0.3036,0.6084,-3.8415,2029
0,0.407,-0.1628,0.0046,-0.1661,0.6139,-3.9889,2060
0,0.3984,-0.2588,0.1267,-0.2489,0.7548,-4.101,2061
0,0.2913,-0.4861,-0.0486,-0.1137,0.6862,-4.3016,2068
0,0.3481,-0.5999,0.0942,-0.3939,0.6806,-4.3635,2062
0,1.0535,0.1108,-0.8684,0.5096,0.0027,-4.3635,2051
0,0.8125,0.1733,0.344,-0.4615,0.1079,-4.3635,2009
0,0.6042,-0.1194,0.623,-0.2015,-0.2309,-4.3635,2141
0,0.9263,0.0273,0.8281,-0.5016,-0.6746,-4.3635,2066
0,0.8823,0.3076,0.5674,-0.2908,-0.4007,-4.3635,2073
0,0.9626,0.3284,0.4612,-0.2,-0.5267,-4.3635,2095
0,1.1543,-0.1807,0.5625,-0.4986,-0.7098,-4.3386,2047
0,1.1333,-0.0896,0.6633,-0.3995,-0.6905,-3.7833,2181
0,0.8938,-0.1182,0.6077,-0.9838,-1.0618,-3.4439,2040
0,0.9094,-0.3433,0.5361,-1.7334,-0.8826,-3.1304,2019
0,0.991,-0.2815,-0.0078,-1.6574,-0.3265,-2.5282,2092
0,0.9541,0.0237,-0.2456,-1.7136,-0.5887,-2.1166,2070
0,1.0901,0.1282,-0.2969,-1.6725,-1.1978,-2.1507,2057
0,1.1433,0.1025,-0.2249,-1.3495,-0.8421,-2.0558,2063
0,1.064,-0.0654,-0.428,-0.9496,-0.6092,-1.9833,2062
0,0.9956,-0.4404,-0.6055,-0.6486,-0.9392,-2.1547,2056
0,1.0469,-0.7927,-0.4587,-0.6349,-1.5265,-2.4305,2076
0,1.2334,-0.8872,-0.3206,-0.6187,-1.9686,-2.6671,2043
0,1.3318,-0.9111,-0.2104,-0.4895,-1.813,-2.7472,2055
0,1.2241,-0.7473,-0.0686,-0.0272,-1.3424,-2.6388,2058
0,1.1892,-0.5029,-0.1665,0.335,-1.1975,-2.4887,2117
0,1.4636,-0.312,-0.2847,0.7858,-1.2178,-2.2752,2072
0,1.6885,-0.2185,-0.0996,0.7823,-1.0746,-2.0272,2093
0,1.7148,-0.1824,-0.1064,0.8285,-1.4749,-1.8129,2159
0,1.7161,-0.113,-0.0615,0.9046,-1.96,-1.5057,2000
0,1.655,-0.0295,-0.084,0.4585,-2.5918,-1.2957,2028
0,1.5718,0.0664,-0.1218,0.1872,-2.6008,-1.0732,2089
0,1.5286,0.095,-0.1475,0.0004,-2.3497,-1.0033,2056
0,1.5776,0.0762,-0.2271,-0.0622,-1.9202,-1.113,2246
0,1.6802,0.1143,-0.3655,0.2005,-1.6026,-1.3724,2019
0,1.678,0.1042,-0.3442,0.3061,-1.2681,-1.6436,2213
0,1.5608,0.0723,-0.3142,0.5365,-1.0915,-1.9544,2106
0,1.5454,0.1396,-0.3501,0.7739,-0.9368,-2.2417,1939
0,1.561,0.2646,-0.3242,0.867,-0.7271,-2.4546,2066
0,1.4236,0.2705,-0.2722,0.8496,-0.5777,-2.4996,2052
0,1.3857,0.2998,-0.3667,0.8626,-0.7653,-2.4706,2025
0,1.4097,0.3567,-0.3596,0.7277,-0.8432,-2.2913,2097
0,1.3508,0.3936,-0.3718,0.7339,-0.9582,-2.0704,2059
0,1.1682,0.218,-0.3135,0.7064,-1.0674,-1.9363,2051
0,1.0193,-0.0422,-0.3391,0.5666,-1.1999,-1.8552,2056
0,1.0339,-0.0703,-0.4668,0.632,-1.2214,-1.702,2024
0,1.1545,0.0176,-0.4641,0.6963,-1.1635,-1.6568,2000
0,1.1023,0.071,-0.3496,0.8801,-0.9043,-1.6813,2068
0,1.0234,0.0212,-0.2915,1.033,-0.853,-1.6269,2094
0,1.0583,0.0396,-0.2026,1.1256,-0.964,-1.5395,2095
0,1.0254,0.0427,-0.0813,1.1772,-1.0429,-1.4657,2132
0,0.8916,-0.0591,0.0681,1.0792,-1.1701,-1.4342,2111
0,0.865,-0.2173,0.0532,0.9423,-1.0792,-1.3107,2104
1,0.9153,-0.1526,-0.0317,0.9301,-0.8918,-1.1686,2042
1,0.9429,-0.0579,-0.053,0.8058,-0.6922,-0.9521,2050
1,0.8833,-0.0283,-0.115,0.7251,-0.5016,-0.7541,2064
1,0.7939,-0.0337,-0.2202,0.708,-0.4167,-0.5738,2096
1,0.8303,-0.0251,-0.2822,0.6411,-0.3691,-0.4489,2105
1,0.8079,-0.0603,-0.3557,0.5434,-0.1434,-0.3529,2016
1,0.8049,-0.0244,-0.4839,0.4875,-0.1362,-0.2181,2045
1,0.8188,0.0476,-0.4846,0.3175,-0.1641,-0.1188,2049
1,0.7881,-0.0105,-0.4382,0.1163,-0.3128,-0.0073,2092
1,0.688,0.0088,-0.489,-0.0057,-0.4231,0.0767,2099
1,0.7139,0.1831,-0.5957,0.0055,-0.4658,0.1791,2097
1,0.8728,0.2556,-0.572,0.0037,-0.4275,0.2946,2036
1,0.9526,0.1997,-0.5947,-0.0019,-0.4437,0.4177,1998
1,1.0156,0.1711,-0.5513,-0.0169,-0.5437,0.4682,2048
1,1.1021,0.2039,-0.5396,-0.0293,-0.5762,0.5131,2092
1,1.1074,0.2087,-0.5393,-0.0614,-0.5577,0.522,2068
1,1.1064,0.2205,-0.4663,-0.1598,-0.547,0.4769,2100
1,1.145,0.1536,-0.4451,-0.2101,-0.4995,0.4678,2059
1,1.1306,0.1699,-0.5017,-0.2008,-0.4709,0.3874,2059
1,1.2524,0.228,-0.4648,-0.1641,-0.3481,0.322,2074
1,1.2383,0.1565,-0.4153,-0.1494,-0.2245,0.2726,2051
1,1.2444,0.136,-0.3682,-0.1157,-0.184,0.1987,2075
1,1.2002,0.1233,-0.3347,-0.0585,-0.0336,0.119,2067
1,1.2202,0.1023,-0.3679,0.0322,0.0549,0.0437,2010
1,1.2441,0.0659,-0.4048,0.0948,0.1306,0.0027,2055
1,1.1846,-0.0176,-0.4324,0.1257,0.1338,-0.0707,2054
1,1.1489,-0.0139,-0.4307,0.1175,0.0502,-0.1398,2055
1,1.1084,0.0161,-0.4497,0.1523,0.0019,-0.2092,2114
1,1.072,0.0039,-0.4761,0.2638,-0.0025,-0.2057,2014
1,1.0256,-0.0085,-0.4963,0.3622,-0.0642,-0.1791,2039
1,1.0093,0.0181,-0.5459,0.4401,-0.1698,-0.178,2055
1,1.0325,0.0813,-0.6243,0.5055,-0.3703,-0.1894,2060
1,1.0439,0.1301,-0.6694,0.5357,-0.5675,-0.238,2090
1,1.0249,0.1565,-0.7031,0.6283,-0.6798,-0.2892,2020
1,1.0549,0.2043,-0.7166,0.6689,-0.9082,-0.3505,2056
1,1.0845,0.2385,-0.6824,0.7209,-1.0682,-0.4024,2062
1,0.9849,0.3569,-0.6436,0.7553,-1.1785,-0.5016,2063
1,0.9651,0.5293,-0.7014,0.9729,-1.3306,-0.5505,2067
1,0.6995,0.5149,-0.5103,0.9252,-1.4107,-0.7825,2061
1,0.6326,0.3723,-0.4512,0.8978,-1.5378,-1.0324,2091
1,0.8071,0.2771,-0.4136,0.6458,-1.8303,-1.0392,2064
1,0.8374,0.2908,-0.4292,0.666,-1.7908,-0.8058,2063
1,0.7693,0.2844,-0.4236,0.6468,-1.6721,-0.4453,2068
1,0.8086,0.1938,-0.4907,0.7016,-1.7259,-0.1518,2064
1,0.7444,0.054,-0.4541,0.7213,-1.5514,-0.0035,2061
1,0.5889,0.0398,-0.396,0.6357,-1.4775,0.0178,2068
1,0.5757,0.1309,-0.429,0.6193,-1.6064,0.0278,2064
1,0.5276,0.156,-0.4448,0.5312,-1.6422,0.0136,2059
1,0.6135,0.1279,-0.4563,0.4514,-1.9045,-0.0352,2061
1,0.625,0.1125,-0.5625,0.4492,-2.0706,0.0142,2064
1,0.6172,0.1475,-0.6519,0.5633,-2.0912,0.038,2059
1,0.5681,0.2175,-0.7168,0.6721,-2.0034,0.0154,2063
1,0.614,0.2551,-0.6743,0.6512,-2.1965,-0.0395,2068
1,0.7363,0.2231,-0.6172,0.5894,-2.2543,0.0413,2062
1,0.7546,0.1838,-0.6147,0.5012,-2.1451,0.1629,2052
1,0.8027,0.1943,-0.6311,0.4621,-1.9877,0.2995,2058
1,0.7932,0.1956,-0.6296,0.4576,-1.9371,0.4068,2059
1,0.7771,0.1909,-0.5352,0.3639,-2.0481,0.3878,2056
1,0.8,0.1587,-0.4331,0.2587,-2.1047,0.3762,2059
1,0.822,0.1409,-0.3616,0.1904,-1.947,0.3541,2059
1,0.7969,0.1274,-0.3716,0.0992,-1.7104,0.2884,2061
1,0.8013,0.1418,-0.4736,0.1563,-1.4411,0.2132,2060
1,0.7646,0.1248,-0.6145,0.2839,-1.1147,0.0842,2063
1,0.7749,0.1677,-0.6687,0.4007,-0.9353,-0.1268,2065
1,0.8179,0.2158,-0.6802,0.4362,-0.8534,-0.3169,2064
1,0.8787,0.2651,-0.7014,0.4726,-0.82,-0.4582,2065
1,0.9634,0.2607,-0.6809,0.5233,-0.7135,-0.4729,2059
1,0.9214,0.2546,-0.6758,0.507,-0.5846,-0.5071,2058
1,0.8806,0.2849,-0.7043,0.495,-0.5368,-0.5699,2068
1,0.9465,0.262,-0.7664,0.4341,-0.4986,-0.5859,2059
1,1.0107,0.2432,-0.8472,0.3586,-0.4393,-0.5208,2058
1,0.9041,0.3286,-0.8921,0.2764,-0.3986,-0.4645,2059
1,0.8193,0.3484,-0.8679,0.1866,-0.4693,-0.4389,2058
1,0.7695,0.291,-0.8525,0.1732,-0.3908,-0.4565,2063
1,0.7256,0.2932,-0.8401,0.218,-0.2619,-0.5121,2061
1,0.7107,0.3081,-0.8364,0.2485,-0.1673,-0.604,2061
1,0.6919,0.281,-0.8889,0.2531,-0.1298,-0.6967,2061
1,0.6765,0.2998,-0.9456,0.3003,-0.0676,-0.7381,2063
1,0.6538,0.334,-1.0396,0.2583,0.0979,-0.7351,2061
1,0.6492,0.4326,-1.238,0.2776,0.1701,-0.6749,2062
1,0.594,0.5786,-1.3394,0.2709,0.1943,-0.6512,2058
1,0.5854,0.6492,-1.3975,0.1489,0.0607,-0.6689,2055
1,0.7148,0.7061,-1.5229,0.0136,-0.1036,-0.5171,2061
1,0.7976,0.8076,-1.7539,0.0354,-0.0814,-0.1646,2051
1,0.6729,0.7585,-1.7959,0.0036,-0.2709,0.1312,2064
1,0.7002,0.5945,-1.665,-0.2554,-0.5775,0.3003,2059
1,0.6057,0.3787,-1.3547,-0.711,-0.5168,0.4872,2055
1,0.533,0.322,-1.1912,-0.9086,-0.3317,0.6195,2057
1,0.5195,0.3359,-1.1135,-0.8171,-0.0579,0.9086,2068
1,0.5708,0.2021,-0.9624,-0.9626,0.1864,1.1885,2062
1,0.5251,0.1812,-1.0537,-1.1449,0.1522,1.4858,2060
1,0.4946,0.2061,-1.0784,-1.2604,0.2017,1.8211,2060
1,0.4998,0.2576,-1.0908,-1.3501,0.2922,2.0169,2065
1,0.4226,0.2415,-1.1687,-1.4378,0.235,2.1575,2062
1,0.3474,0.1892,-1.1838,-1.5257,0.231,2.1951,2065
1,0.3696,0.2432,-1.1926,-1.6197,0.1638,2.078,2061
2,0.4385,0.3022,-1.1665,-1.6486,0.0768,1.9726,2064
2,0.3772,0.3242,-1.1235,-1.6567,0.0356,1.7958,2064
2,0.3948,0.3225,-1.0757,-1.6724,-0.0401,1.6233,2061
2,0.428,0.2705,-0.9688,-1.6893,0.0623,1.4306,2059
2,0.4385,0.2354,-0.8691,-1.6683,0.1788,1.2998,2059
2,0.457,0.2124,-0.7979,-1.6432,0.2333,1.233,2057
2,0.4707,0.1951,-0.7451,-1.5849,0.3368,1.2051,2060
2,0.4731,0.1646,-0.6562,-1.5294,0.477,1.2106,2061
2,0.459,0.0955,-0.6431,-1.5063,0.5259,1.2328,2058
2,0.4553,0.0769,-0.6094,-1.4957,0.6492,1.2617,2061
2,0.4314,0.05,-0.5969,-1.5399,0.8204,1.3089,2054
2,0.4556,0.041,-0.6067,-1.5944,0.9203,1.3434,2065
2,0.4668,0.0491,-0.6177,-1.6604,0.9975,1.4054,2068
2,0.4614,0.0559,-0.6572,-1.6982,1.036,1.4593,2062
2,0.47,0.0605,-0.6965,-1.6797,1.0922,1.4872,2063
2,0.45,0.0667,-0.719,-1.6411,1.1477,1.474,2062
2,0.4277,0.0603,-0.7244,-1.6125,1.1524,1.4302,2057
2,0.4407,0.0632,-0.7451,-1.5543,1.2018,1.3988,2060
2,0.4397,0.0598,-0.7346,-1.4592,1.328,1.3611,2063
2,0.448,0.0569,-0.7415,-1.3703,1.4194,1.2955,2061
2,0.4583,0.0579,-0.7217,-1.3284,1.4878,1.268,2063
2,0.4966,0.0303,-0.7192,-1.2896,1.5418,1.1508,2065
2,0.5581,0.0642,-0.759,-1.2051,1.6548,1.0909,2055
2,0.5828,0.0898,-0.7898,-1.1007,1.6843,1.0339,2067
2,0.6152,0.0769,-0.7944,-0.9843,1.6135,0.9444,2067
2,0.6738,0.0208,-0.8005,-0.9222,1.4889,0.8477,2061
2,0.7585,-0.0171,-0.7502,-0.9227,1.3284,0.77,2057
2,0.8176,0.011,-0.7786,-0.8982,1.2326,0.7352,2066
2,0.8279,0.0525,-0.7842,-0.8164,1.1757,0.7328,2065
2,0.8433,0.0701,-0.7769,-0.832,1.1983,0.8315,2058
2,0.9307,0.041,-0.8193,-0.8669,1.3525,0.94,2061
2,1.1228,0.0227,-0.7852,-0.9155,1.5467,1.01,2062
2,1.3381,0.0286,-0.7891,-0.9776,1.6246,1.0381,2060
2,1.5923,0.0542,-0.7551,-1.1403,1.4033,1.2105,2058
2,1.6736,0.0938,-0.7573,-1.2463,1.0531,1.4775,2068
2,1.6533,0.0537,-0.4263,-1.5761,0.5385,1.8202,2056
2,1.7615,-0.0298,-0.3464,-1.7113,0.3255,2.1094,2103
2,1.5789,0.0696,-0.4067,-1.7837,0.5733,2.2269,2072
2,1.3328,0.3169,-0.5789,-1.9987,1.388,2.088,2071
2,1.2617,0.4807,-0.7422,-1.9651,1.9034,2.0975,2021
2,1.4607,0.4968,-0.9995,-1.5569,2.1961,2.2158,2019
2,1.906,0.1357,-1.2195,-1.2529,2.1543,2.2334,2062
2,1.9999,-0.0188,-1.4231,-1.0658,1.9959,2.4948,2128
2,1.9626,0.0762,-1.5007,-1.018,1.3894,2.846,2125
2,1.9033,0.0217,-1.5381,-0.5095,0.9251,2.959,2130
2,1.729,-0.0784,-1.178,0.0168,0.8806,2.907,2427
2,1.5088,-0.1748,-0.9153,1.1107,1.7293,2.8867,2097
2,1.2986,-0.4204,-0.6233,1.7636,1.9631,3.1456,2159
2,1.5178,-0.5066,-0.8057,1.6237,2.5746,3.5833,1706
2,1.5618,-0.3162,-1.0562,1.9983,3.0063,3.8921,2024
2,1.5632,-0.239,-1.1086,2.7586,2.9191,3.8945,2197
2,1.4062,-0.3013,-1.0264,3.4199,2.4266,3.7106,2274
2,1.2805,-0.3755,-0.9832,4.3634,2.3079,3.1732,1802
2,1.084,-0.5115,-0.8811,4.3634,2.4639,2.5141,2258
2,0.7783,-0.4634,-0.7561,4.3634,2.7362,1.9081,2016
2,0.6816,-0.4966,-0.5811,4.3634,2.9441,1.2268,2128
2,0.7241,-0.5901,-0.4661,4.3634,3.2761,0.6486,2134
2,0.6423,-0.6138,-0.3562,4.3634,3.6668,0.1396,2021
2,0.4336,-0.7202,-0.2585,4.3634,4.1446,-0.5545,1957
2,0.3169,-0.7627,-0.1602,4.3634,4.2746,-1.3782,1931
2,0.3953,-0.814,-0.0701,4.3634,4.2808,-2.1869,2156
2,0.2605,-0.9116,-0.0562,4.3634,4.15,-2.9047,1620
2,0.1172,-0.937,-0.063,4.3634,4.048,-3.5876,1989
2,0.0693,-0.8042,-0.1499,4.3634,4.1307,-4.1198,2104
2,-0.0635,-0.709,-0.2351,4.3634,4.2098,-4.3635,2071
2,-0.2192,-0.4675,-0.2759,4.3634,4.3634,-4.3635,1665
2,-0.3252,-0.4268,-0.2529,4.3634,4.3634,-4.3635,2415
2,0.406,-0.3223,1.9999,4.3634,4.3634,-4.3635,2217
2,1.9999,-0.178,-0.5059,1.9619,4.3634,-0.3494,2055
2,-2.0,-0.0232,-1.3174,3.6021,4.3634,0.4308,1323
2,-1.4026,-0.1333,-0.928,3.1722,4.3634,0.0141,2650
2,0.4124,0.1948,-1.4956,3.7187,4.3634,0.7155,2390
2,-0.2625,-0.3088,-1.4709,3.487,3.3537,2.0102,2236
2,-0.9849,-0.134,-1.1519,3.5017,1.4888,3.1501,2009
2,-1.2739,0.0854,-1.0085,3.4119,0.6905,4.3634,1672
2,-1.1465,0.2161,-0.854,3.0331,-0.2195,4.3634,2359
2,-0.562,0.4041,-0.8586,2.446,-1.7179,4.3634,2631
2,-0.2661,1.2498,-0.7822,2.1351,-3.8266,4.3634,2028
2,-0.2544,1.9999,-0.0312,1.0447,-4.3635,4.3634,2254
2,1.9999,1.9999,1.9999,-3.1192,-4.3635,4.3634,2323
2,0.5083,-0.1653,0.9912,-2.0201,-4.3635,4.3634,841
2,-0.2776,0.8162,0.0786,-1.635,-4.3635,4.3634,2311
2,-0.303,1.198,0.0518,-2.4605,-4.3635,4.3634,2219
2,-0.439,0.5583,-0.533,-2.3494,-4.3635,4.3634,1935
2,0.3523,0.0969,-0.9548,-1.6398,-3.8874,4.3634,2033
2,0.5061,-0.3315,-0.8098,-0.4011,-3.8617,2.4422,2306
2,0.7502,-0.885,-0.3186,-0.0286,-3.6818,0.6753,1987
2,1.0288,-0.7993,-0.2031,0.0651,-4.0432,-0.3931,2087
2,1.2629,-0.8708,-0.2751,-0.1466,-3.8125,-1.137,2003
2,1.5745,-0.9285,-0.3774,-0.1627,-3.9221,-1.2768,2028
2,1.9033,-0.6794,-0.5063,0.1875,-4.3502,-0.7458,1935
2,1.6687,-0.3354,-0.5288,0.5149,-3.905,-0.0158,1915
2,1.6567,-0.1213,-0.5574,0.622,-3.5463,0.5706,2180
2,1.5164,-0.2068,-0.1855,0.247,-3.5307,0.4627,2035
2,1.5591,-0.1707,-0.2407,-0.0148,-3.9013,0.1798,2030
2,1.2449,-0.3508,-0.1936,-0.5677,-3.8117,-0.2028,2004
2,1.5605,-0.2632,-0.5342,-0.763,-3.9207,0.1522,1979
2,1.3848,-0.3323,-0.8145,-1.1278,-3.858,0.2077,2032
2,1.7124,-0.2273,-1.0498,-1.5576,-3.8893,0.3077,2159
2,1.7092,-0.4304,-1.1133,-1.9037,-3.664,0.5691,2257
2,1.4192,-0.4414,-1.0308,-2.5235,-3.0918,0.4795,2023
2,1.759,-0.3618,-1.2297,-2.8719,-2.4486,0.5974,2047
2,1.9999,-0.2402,-1.3481,-3.0938,-2.0301,0.6414,1989
2,1.5991,-0.3809,-1.1584,-3.3358,-1.4229,0.9436,2095
2,1.7483,-0.3062,-1.3032,-3.2471,-1.148,1.1275,1967
3,1.5679,-0.4453,-1.1382,-3.2905,-0.611,1.2838,2040
3,1.3713,-0.4897,-0.9927,-3.1167,0.2847,1.4157,2001
3,1.3201,-0.6038,-0.9751,-2.8911,0.7477,1.5319,2038
3,1.231,-0.6116,-0.9167,-2.7006,1.3667,1.4221,2052
3,1.3042,-0.7449,-0.7444,-2.5437,1.5788,1.3458,2044
3,1.062,-0.7488,-0.6909,-2.3384,1.9162,1.1697,2049
3,1.1919,-0.8901,-0.646,-2.2858,1.6193,1.0859,2064
3,1.0886,-0.6565,-0.7307,-2.0939,1.7221,0.9875,2038
3,0.8599,-0.5713,-0.7085,-1.8884,1.7016,0.8574,2060
3,0.8767,-0.5813,-0.7344,-1.7587,1.7045,0.9343,2113
3,0.8379,-0.5874,-0.7056,-1.6993,1.9214,1.0508,2005
3,0.7263,-0.55,-0.7544,-1.5382,1.9559,1.0545,2035
3,0.7961,-0.5388,-0.7019,-1.502,2.0362,1.1098,2034
3,0.76,-0.573,-0.6069,-1.4221,2.2676,1.0782,2052
3,0.6406,-0.5889,-0.5659,-1.5014,2.2411,1.1423,1994
3,0.5322,-0.4326,-0.4897,-1.364,2.3787,0.8787,2028
3,0.6123,-0.5364,-0.4509,-1.3443,2.2346,0.9123,2037
3,0.5813,-0.533,-0.489,-1.1535,2.1871,0.8317,2065
3,0.5459,-0.49,-0.4463,-1.2667,2.162,0.75,2092
3,0.4944,-0.4749,-0.3989,-0.9702,2.2103,0.7028,2050
3,0.4043,-0.3943,-0.4846,-0.8558,2.1461,0.6116,1995
3,0.4819,-0.3855,-0.3508,-0.8704,2.0338,0.6677,2044
3,0.4629,-0.4504,-0.3745,-0.5634,2.0279,0.6516,2066
3,0.4102,-0.4409,-0.3916,-0.6556,1.8511,0.6494,2071
3,0.4331,-0.4148,-0.3308,-0.6295,1.6809,0.6028,2007
3,0.4097,-0.4275,-0.3442,-0.4875,1.5113,0.4971,2170
3,0.4424,-0.4124,-0.2727,-0.5553,1.3041,0.5006,2105
3,0.4224,-0.415,-0.3584,-0.4907,1.1692,0.4687,2059
3,0.4541,-0.4631,-0.2822,-0.6011,0.8617,0.3686,2017
3,0.467,-0.3296,-0.2976,-0.5062,0.7857,0.3124,2056
3,0.5339,-0.4202,-0.2712,-0.4887,0.6606,0.3643,2093
3,0.4944,-0.4912,-0.198,-0.6468,0.6472,0.3958,2047
3,0.5684,-0.3599,-0.2493,-0.5564,0.399,0.346,2098
3,0.6277,-0.426,-0.2651,-0.5654,0.2866,0.3948,1940
3,0.6626,-0.4373,-0.2029,-0.7377,0.1847,0.3501,2090
3,0.6953,-0.4067,-0.2202,-0.664,-0.0474,0.3294,2099
3,0.7815,-0.4182,-0.2358,-0.6497,-0.2132,0.3168,2146
3,0.873,-0.4016,-0.2051,-0.608,-0.4057,0.3461,2001
3,0.9011,-0.4246,-0.231,-0.5572,-0.5771,0.3916,2071
3,0.918,-0.499,-0.2583,-0.4229,-0.8562,0.2984,2064
3,0.9517,-0.436,-0.2517,-0.3136,-1.0465,0.2163,2056
3,1.0005,-0.6074,-0.2358,-0.3605,-1.0587,0.2256,2111
3,0.9971,-0.571,-0.2505,-0.2659,-1.1979,0.0979,2031
3,1.0247,-0.6301,-0.2747,-0.2698,-1.3039,-0.0021,2032
3,1.041,-0.6401,-0.2732,-0.3057,-1.2902,-0.0727,2072
3,1.1499,-0.7002,-0.3262,-0.2723,-1.3284,-0.0774,2040
3,1.0056,-0.6079,-0.3105,-0.3597,-1.2756,-0.1766,2091
3,1.0823,-0.6606,-0.3804,-0.2943,-1.2457,-0.0427,2062
3,1.1616,-0.6428,-0.3574,-0.2491,-1.2452,0.021,2045
3,1.0383,-0.6394,-0.3704,-0.271,-1.1601,0.0914,2056
3,1.032,-0.5706,-0.3887,-0.2328,-1.1641,0.1531,2055
3,1.0757,-0.5835,-0.4478,-0.245,-1.1857,0.3217,2131
3,1.0137,-0.6023,-0.4248,-0.3024,-1.1701,0.4376,2044
3,1.093,-0.52,-0.4941,-0.2346,-1.2565,0.5224,2056
3,1.0344,-0.5652,-0.5063,-0.2494,-1.2078,0.6695,2056
3,0.9541,-0.5249,-0.5227,-0.2197,-1.1268,0.7112,2097
3,0.9263,-0.6035,-0.5168,-0.2446,-1.1491,0.7431,2054
3,0.9204,-0.5298,-0.5322,-0.225,-1.1702,0.7068,2011
3,0.9368,-0.49,-0.5371,-0.1818,-1.2591,0.6104,2097
3,0.9753,-0.5469,-0.532,-0.1778,-1.1412,0.5749,2060
3,0.8772,-0.4412,-0.5156,-0.1136,-1.0544,0.4313,2114
3,0.8875,-0.3894,-0.5701,0.0294,-1.0685,0.289,2074
3,0.7883,-0.2161,-0.6055,0.1907,-0.9843,0.0836,2022
3,0.8953,-0.3801,-0.593,0.3522,-1.0295,0.0738,2096
3,0.7754,-0.509,-0.5422,0.2428,-0.8136,0.0232,2073
3,0.7825,-0.4119,-0.5725,0.292,-0.8866,-0.1225,2030
3,0.8413,-0.3892,-0.5217,0.3239,-0.906,-0.2148,2070
3,0.7192,-0.4475,-0.5278,0.3635,-0.8367,-0.2864,2075
3,0.7217,-0.3347,-0.4685,0.4116,-0.8424,-0.3587,2041
3,0.7417,-0.4272,-0.4292,0.4163,-0.7403,-0.3975,2057
3,0.6409,-0.2397,-0.3667,0.4643,-0.6008,-0.4576,2023
3,0.6675,-0.3413,-0.3845,0.5775,-0.6327,-0.4609,2060
3,0.6094,-0.3574,-0.3628,0.5561,-0.536,-0.4622,2112
3,0.6089,-0.2302,-0.3879,0.6082,-0.5991,-0.5675,2069
3,0.5662,-0.2532,-0.3918,0.5829,-0.51,-0.4884,2074
3,0.6196,-0.2356,-0.3872,0.4958,-0.6035,-0.424,2039
3,0.6021,-0.1982,-0.342,0.5288,-0.6749,-0.3741,2242
3,0.6465,-0.2637,-0.2834,0.5265,-0.7055,-0.2967,2092
3,0.5767,-0.1262,-0.3137,0.6087,-0.7709,-0.3224,2070
3,0.6199,-0.2842,-0.322,0.6039,-0.8489,-0.2814,2057
3,0.3872,0.0276,-0.2617,0.6197,-0.7229,-0.5505,2073
3,0.6172,-0.2786,-0.3953,0.6653,-0.7343,-0.2617,2052
3,0.7,-0.2761,-0.4216,0.5819,-0.6943,-0.1547,2069
3,0.5933,-0.302,-0.4121,0.5141,-0.704,-0.0987,2130
3,0.6726,-0.3765,-0.3828,0.432,-0.7436,0.0656,2058
3,0.6279,-0.3582,-0.3831,0.3378,-0.8605,0.0485,2082
3,0.7122,-0.3904,-0.3745,0.285,-0.8271,0.0863,2050
3,0.6365,-0.4641,-0.3994,0.2723,-0.9401,0.0782,2068
3,0.6663,-0.4385,-0.4465,0.1855,-1.0142,-0.0706,2041
3,0.6812,-0.5195,-0.4463,0.1928,-1.029,0.0001,2053
3,0.6311,-0.4983,-0.4419,0.0405,-1.0713,-0.1788,1973
3,0.7224,-0.5137,-0.5049,0.0929,-1.0788,-0.1005,2082
3,0.7073,-0.4514,-0.5181,0.0645,-1.0738,-0.1569,2053
3,0.7197,-0.4602,-0.5073,0.0831,-1.0128,-0.1685,2021
3,0.7312,-0.4561,-0.5449,0.0879,-1.0098,-0.165,2056
3,0.7627,-0.447,-0.6099,0.0735,-1.1284,-0.1571,2073
3,0.7725,-0.3933,-0.6753,0.0252,-1.2049,-0.1565,2049
3,0.8384,-0.3884,-0.7749,-0.0108,-1.3107,-0.0352,2052
3,0.873,-0.3704,-0.8835,-0.1217,-1.4122,0.0475,2137
3,0.9104,-0.3723,-0.9138,-0.2374,-1.3246,0.1346,1988
3,0.999,-0.4167,-1.0574,-0.3217,-1.4384,0.2918,1994
3,1.0112,-0.4167,-1.1511,-0.4988,-1.4061,0.3912,2055
3,1.0781,-0.4944,-1.2693,-0.6701,-1.384,0.3892,2040
3,1.095,-0.4541,-1.3245,-0.7857,-1.3456,0.4544,2102
3,1.0449,-0.5151,-1.3916,-0.9211,-1.0642,0.3581,2125
3,1.1106,-0.5081,-1.4653,-0.9512,-0.8987,0.4353,2020
3,1.0762,-0.5554,-1.5068,-1.0583,-0.5742,0.4213,2172
4,1.1106,-0.5769,-1.5491,-1.1121,-0.3132,0.3338,2016
4,1.0291,-0.5745,-1.4116,-1.0942,0.0064,0.3073,2052
4,0.9802,-0.5789,-1.3345,-1.0104,0.282,0.2466,2015
4,0.929,-0.6406,-1.2429,-0.9633,0.5521,0.1571,2044
4,0.8169,-0.6006,-1.2056,-0.8894,0.7466,0.0437,2045
4,0.7437,-0.5901,-1.1968,-0.8341,0.8995,-0.0368,2099
4,0.7024,-0.5278,-1.1824,-0.764,0.9705,-0.0895,2135
4,0.6707,-0.4958,-1.1628,-0.6885,1.0704,-0.0695,2004
4,0.5811,-0.543,-1.1553,-0.6481,1.1559,-0.0257,2106
4,0.595,-0.5085,-1.1011,-0.666,1.1947,0.0471,2042
4,0.5654,-0.4397,-1.0996,-0.6746,1.1435,0.0882,2045
4,0.5276,-0.4202,-1.052,-0.652,1.046,0.1028,2125
4,0.5168,-0.4224,-1.0288,-0.6723,0.9934,0.0923,2051
4,0.5315,-0.405,-1.0161,-0.6935,0.9922,0.0708,2020
4,0.5317,-0.397,-0.9067,-0.7008,1.167,0.1008,2053
4,0.502,-0.4636,-0.9172,-0.7004,1.1211,0.0092,2048
4,0.5315,-0.4167,-0.8682,-0.6632,1.1284,-0.072,2070
4,0.5337,-0.4756,-0.7883,-0.6624,1.3194,-0.0983,2050
4,0.4807,-0.3901,-0.7434,-0.6291,1.3808,-0.1365,2041
4,0.4629,-0.4463,-0.689,-0.5827,1.4876,-0.1651,2005
4,0.4553,-0.3828,-0.6072,-0.5239,1.548,-0.2201,2133
4,0.4368,-0.353,-0.5825,-0.4215,1.5511,-0.2974,2065
4,0.429,-0.3782,-0.5574,-0.3739,1.6093,-0.3057,2101
4,0.3992,-0.355,-0.5037,-0.3647,1.6656,-0.2874,2090
4,0.3726,-0.3406,-0.4658,-0.3583,1.6579,-0.2852,2069
4,0.3674,-0.2915,-0.4419,-0.3191,1.6238,-0.2731,2067
4,0.3726,-0.3005,-0.4224,-0.2693,1.5411,-0.2659,2091
4,0.3721,-0.301,-0.4255,-0.2494,1.4704,-0.2312,1988
4,0.3735,-0.2805,-0.4294,-0.259,1.4459,-0.179,2052
4,0.3435,-0.2314,-0.4622,-0.1712,1.2632,-0.1823,2091
4,0.4089,-0.2803,-0.4438,-0.2031,1.2515,-0.0675,2033
4,0.3967,-0.2812,-0.4851,-0.244,1.1378,-0.025,2100
4,0.4233,-0.261,-0.491,-0.2727,1.0732,0.0334,2053
4,0.4373,-0.2622,-0.5127,-0.3465,0.9445,0.0933,2021
4,0.4668,-0.2351,-0.5273,-0.3749,0.7925,0.116,2112
4,0.491,-0.2537,-0.5613,-0.3453,0.6492,0.1087,2053
4,0.5427,-0.2668,-0.5183,-0.3657,0.6392,0.1665,2003
4,0.5266,-0.2522,-0.552,-0.3317,0.5506,0.1458,2063
4,0.5767,-0.3032,-0.5603,-0.2831,0.4894,0.1353,2137
4,0.6331,-0.3457,-0.5466,-0.2899,0.4444,0.1051,2071
4,0.7004,-0.4202,-0.5359,-0.3039,0.4196,0.1361,2062
4,0.7134,-0.3745,-0.5693,-0.346,0.3392,0.1171,2169
4,0.7832,-0.3701,-0.6184,-0.339,0.2127,0.0983,2063
4,0.834,-0.4045,-0.6575,-0.3497,0.1273,0.0828,2167
4,0.8767,-0.4048,-0.7209,-0.357,0.1357,0.1309,2092
4,0.9268,-0.417,-0.8206,-0.4093,0.0493,0.1457,2038
4,0.9995,-0.4368,-0.8333,-0.5147,0.0332,0.2015,2093
4,1.0132,-0.4231,-0.8909,-0.6193,0.015,0.1915,1993
4,1.1465,-0.5139,-0.9331,-0.6775,-0.0764,0.2187,2048
4,1.1416,-0.5325,-0.9153,-0.7922,-0.004,0.2284,2067
4,1.2358,-0.5193,-0.9424,-0.8277,-0.1139,0.2462,2111
4,1.2246,-0.4719,-0.9602,-0.8915,-0.1807,0.249,2098
4,1.29,-0.4829,-0.9758,-0.8753,-0.2645,0.2818,2046
4,1.3003,-0.5,-0.9583,-0.9222,-0.2836,0.2934,2029
4,1.2795,-0.5012,-0.928,-0.8541,-0.2215,0.2798,2052
4,1.2375,-0.5269,-0.8772,-0.7395,-0.1611,0.2067,2071
4,1.251,-0.5977,-0.772,-0.6926,0.0546,0.0577,2051
4,1.1807,-0.5852,-0.7288,-0.4225,0.1451,0.0782,2073
4,1.1157,-0.5457,-0.7014,-0.2338,0.2334,0.0035,2110
4,1.0417,-0.532,-0.6836,-0.0541,0.367,0.0201,2121
4,0.9658,-0.488,-0.6333,0.1233,0.4492,0.0959,1942
4,0.8999,-0.3738,-0.5688,0.2711,0.5308,0.1916,2055
4,0.8557,-0.3416,-0.5393,0.3734,0.506,0.3072,2023
4,0.811,-0.2952,-0.5166,0.4292,0.4378,0.4036,2024
4,0.7786,-0.262,-0.5088,0.463,0.3496,0.4826,2022
4,0.7476,-0.2446,-0.5134,0.4409,0.2312,0.5666,2007
4,0.7227,-0.2131,-0.5232,0.3686,0.1447,0.6312,2056
4,0.7019,-0.2036,-0.5535,0.2998,-0.0333,0.646,2032
4,0.698,-0.217,-0.5488,0.2025,-0.1422,0.651,2094
4,0.6619,-0.26,-0.5403,0.1298,-0.173,0.605,1979
4,0.6196,-0.1892,-0.5464,0.1269,-0.2593,0.4735,2060
4,0.6763,-0.333,-0.5154,0.1726,-0.2904,0.4301,2023
4,0.6504,-0.2068,-0.5391,0.3605,-0.3939,0.2607,2052
4,0.7051,-0.3965,-0.4045,0.392,-0.1428,0.2486,1964
4,0.5825,-0.3345,-0.3596,0.4345,-0.1156,0.0944,1956
4,0.509,-0.4082,-0.3528,0.4501,-0.1577,-0.0521,2042
4,0.5217,-0.3667,-0.2979,0.4767,-0.2208,-0.187,2071
4,0.4785,-0.3992,-0.2708,0.5769,-0.1872,-0.29,1974
4,0.4656,-0.4346,-0.2473,0.649,-0.1839,-0.3421,2059
4,0.4241,-0.3384,-0.2019,0.6754,-0.1353,-0.3606,2034
4,0.396,-0.3259,-0.2197,0.8204,-0.1989,-0.4055,2069
4,0.4312,-0.3999,-0.239,0.8416,-0.2041,-0.3196,2062
4,0.373,-0.3423,-0.2397,0.8666,-0.2562,-0.2639,2129
4,0.3821,-0.3535,-0.2527,0.8638,-0.4069,-0.1382,2016
4,0.3831,-0.4126,-0.2407,0.7186,-0.4709,0.0228,2038
4,0.364,-0.3274,-0.2639,0.6918,-0.6947,0.108,2021
4,0.4365,-0.3511,-0.3015,0.6794,-0.7958,0.2304,2140
4,0.4231,-0.3032,-0.3225,0.7048,-0.8448,0.2699,2000
4,0.4583,-0.3545,-0.3982,0.7759,-0.928,0.3273,2053
4,0.5623,-0.3931,-0.3887,0.6882,-0.8716,0.4026,1997
4,0.5532,-0.47,-0.4109,0.561,-0.9017,0.3803,1984
4,0.5364,-0.2976,-0.4958,0.5745,-1.0561,0.2233,2077
4,0.6628,-0.4727,-0.4573,0.487,-1.0757,0.2047,2042
4,0.6638,-0.4397,-0.4648,0.4181,-1.0975,0.082,2125
4,0.6841,-0.4163,-0.4519,0.3926,-1.1226,-0.0708,2041
4,0.699,-0.3694,-0.4868,0.3884,-1.2304,-0.2531,2056
4,0.7058,-0.3513,-0.4714,0.4205,-1.3232,-0.4334,2041
4,0.738,-0.3342,-0.4958,0.4546,-1.3778,-0.5518,2036
4,0.7239,-0.4268,-0.5046,0.3783,-1.4292,-0.5944,2000
4,0.7368,-0.364,-0.5613,0.2654,-1.6095,-0.6465,2092
4,0.7839,-0.3857,-0.6548,0.1642,-1.851,-0.6835,2103
4,0.7764,-0.2769,-0.7341,0.0607,-1.9832,-0.7436,2045
5,0.8838,-0.3416,-0.8464,-0.0148,-2.0499,-0.687,2106
5,0.9473,-0.3215,-0.9695,-0.1053,-2.0997,-0.616,2054
5,0.998,-0.3457,-1.0527,-0.2209,-2.0841,-0.5011,2068
5,1.0371,-0.3535,-1.1389,-0.3346,-2.106,-0.4177,2068
5,1.0671,-0.344,-1.3088,-0.4494,-2.033,-0.3409,2104
5,1.1121,-0.3713,-1.396,-0.5272,-1.7962,-0.2915,2036
5,1.095,-0.3782,-1.5479,-0.4658,-1.7128,-0.2478,1992
5,1.1829,-0.3167,-1.5708,-0.501,-1.352,-0.0973,1943
5,1.1213,-0.3901,-1.5139,-0.4721,-1.0011,0.0099,2064
5,1.1494,-0.3491,-1.5454,-0.4116,-0.7107,0.1348,2034
5,1.104,-0.425,-1.4561,-0.3975,-0.276,0.2615,2059
5,1.0449,-0.3982,-1.365,-0.3635,-0.0519,0.2718,2066
5,1.0439,-0.4863,-1.3389,-0.335,0.1518,0.2846,2056
5,0.936,-0.4336,-1.3298,-0.3173,0.3357,0.2641,2116
5,0.9387,-0.5317,-1.313,-0.2715,0.507,0.2843,2122
5,0.8525,-0.4497,-1.2793,-0.2515,0.6954,0.283,2131
5,0.8152,-0.5112,-1.2727,-0.2365,0.7927,0.2944,2054
5,0.8103,-0.415,-1.2734,-0.2282,0.7694,0.2659,2088
5,0.8552,-0.5112,-1.1892,-0.1934,0.8228,0.2756,2050
5,0.7202,-0.3132,-1.1018,-0.2116,0.9403,0.2755,2007
5,0.6724,-0.4282,-1.1609,-0.1569,1.0059,0.1756,2099
5,0.7432,-0.4539,-1.127,-0.2852,1.0722,0.1019,2046
5,0.6353,-0.3879,-1.011,-0.3259,1.2105,-0.0005,2098
5,0.6072,-0.2954,-0.9602,-0.2456,1.2949,-0.0818,2054
5,0.6177,-0.3901,-0.8591,-0.1946,1.519,-0.0948,2093
5,0.5745,-0.3411,-0.7581,-0.1462,1.6306,-0.1152,2019
5,0.491,-0.3335,-0.6714,-0.1436,1.7548,-0.1204,2049
5,0.4438,-0.2637,-0.6553,-0.1092,1.6992,-0.1932,2062
5,0.4485,-0.3308,-0.5696,-0.1493,1.7632,-0.1147,2022
5,0.4136,-0.2556,-0.5164,-0.1645,1.774,-0.0996,2056
5,0.3474,-0.2708,-0.4543,-0.1824,1.8498,-0.0015,2143
5,0.3247,-0.2224,-0.407,-0.186,1.7777,0.0446,2107
5,0.3362,-0.228,-0.3806,-0.2115,1.7179,0.1056,2129
5,0.3242,-0.178,-0.3865,-0.2052,1.6004,0.1396,2054
5,0.3293,-0.1868,-0.3792,-0.235,1.5608,0.2208,2050
5,0.3096,-0.1677,-0.3835,-0.2824,1.4978,0.3017,2039
5,0.2964,-0.1602,-0.3909,-0.3286,1.423,0.3717,2068
5,0.304,-0.1448,-0.4141,-0.3786,1.3127,0.4208,2123
5,0.3303,-0.135,-0.4065,-0.4024,1.2158,0.4398,2067
5,0.3486,-0.1687,-0.4172,-0.4208,1.1689,0.4536,2059
5,0.355,-0.1604,-0.4321,-0.4494,1.1395,0.4686,2061
5,0.3831,-0.1799,-0.4519,-0.4615,1.0857,0.4611,2045
5,0.386,-0.218,-0.4658,-0.4645,1.013,0.4121,2062
5,0.4199,-0.2173,-0.4692,-0.4615,0.9304,0.3136,2028
5,0.4529,-0.3022,-0.4668,-0.4894,0.9198,0.2445,2067
5,0.4534,-0.3245,-0.4414,-0.5094,0.906,0.1258,2118
5,0.4775,-0.345,-0.4622,-0.4642,0.8668,0.0055,2053
5,0.5525,-0.406,-0.4797,-0.4561,0.7797,-0.1023,2068
5,0.5999,-0.4421,-0.4734,-0.4517,0.7301,-0.1663,2154
5,0.6069,-0.3967,-0.52,-0.4526,0.6434,-0.2101,2041
5,0.6819,-0.4719,-0.5913,-0.4767,0.5072,-0.1942,2109
5,0.7671,-0.4768,-0.6611,-0.542,0.3947,-0.1075,2148
5,0.7502,-0.4812,-0.7185,-0.6259,0.3285,-0.1072,2031
5,0.8591,-0.5261,-0.8093,-0.6522,0.1802,-0.0073,2086
5,0.8677,-0.5498,-0.825,-0.7911,0.1561,0.0758,2024
5,0.9753,-0.5718,-0.9402,-0.8465,0.0498,0.1843,2093
5,1.0261,-0.6045,-0.958,-0.997,0.0052,0.2675,1960
5,1.075,-0.6797,-0.9475,-1.1132,-0.0467,0.3686,2073
5,1.1077,-0.634,-0.947,-1.1677,-0.1441,0.4057,2053
5,1.1887,-0.655,-0.9084,-1.1633,-0.2321,0.4346,2118
5,1.2419,-0.7126,-0.9197,-1.1101,-0.3159,0.4446,1976
5,1.3384,-0.7371,-1.0166,-1.0608,-0.4586,0.4089,2062
5,1.3779,-0.708,-0.9863,-1.0468,-0.4288,0.3145,2010
5,1.3948,-0.7874,-1.0283,-0.9789,-0.4035,0.2381,2040
5,1.4019,-0.7639,-1.0125,-0.9184,-0.2643,0.1213,2067
5,1.364,-0.7754,-0.9404,-0.7163,-0.0278,0.0101,1982
5,1.332,-0.7192,-0.864,-0.4807,0.2068,-0.0602,2058
5,1.2898,-0.6616,-0.7756,-0.2113,0.4923,-0.0957,2120
5,1.1775,-0.5864,-0.7307,0.0152,0.7192,-0.0691,2103
5,1.0723,-0.5339,-0.6653,0.1682,0.8584,-0.0108,2052
5,0.9834,-0.437,-0.5854,0.2578,0.9823,0.043,2037
5,0.938,-0.3591,-0.5713,0.3321,0.9484,0.1545,2044
5,0.8774,-0.2961,-0.5164,0.3538,0.8857,0.2578,2011
5,0.8293,-0.2783,-0.4792,0.3567,0.8431,0.3932,2042
5,0.7791,-0.2683,-0.4619,0.3052,0.8227,0.5287,2070
5,0.7483,-0.2405,-0.4543,0.2348,0.7221,0.5898,2086
5,0.7371,-0.2302,-0.4575,0.1549,0.5686,0.6249,2052
5,0.741,-0.2451,-0.447,0.0866,0.4279,0.6395,2083
5,0.6887,-0.2441,-0.4143,0.0088,0.3783,0.6107,2098
5,0.6694,-0.2888,-0.4158,-0.0895,0.3003,0.5364,2049
5,0.6182,-0.2808,-0.4165,-0.1458,0.2209,0.361,2101
5,0.6667,-0.313,-0.376,-0.1531,0.2473,0.1963,2065
5,0.6328,-0.3574,-0.3616,-0.1473,0.2353,0.0029,2069
5,0.5662,-0.3523,-0.3533,-0.1123,0.2003,-0.214,2005
5,0.5466,-0.2988,-0.3201,0.0009,0.2119,-0.4065,2173
5,0.5544,-0.313,-0.3103,0.1965,0.2324,-0.5774,2106
5,0.4644,-0.2234,-0.2554,0.3264,0.39,-0.6996,2044
5,0.4763,-0.2664,-0.2395,0.4959,0.3852,-0.7992,2049
5,0.4211,-0.3193,-0.2046,0.5004,0.4137,-0.7983,2048
5,0.4163,-0.2776,-0.1418,0.4341,0.4152,-0.7839,2068
5,0.2949,-0.28,-0.1582,0.4179,0.2224,-0.8403,2102
5,0.3289,-0.2988,-0.1653,0.3569,-0.0332,-0.7973,2039
5,0.353,-0.2834,-0.1453,0.3685,-0.1289,-0.6819,2060
5,0.3342,-0.3291,-0.1814,0.418,-0.1792,-0.5635,2052
5,0.333,-0.3066,-0.1753,0.396,-0.1944,-0.3932,1979
5,0.3914,-0.3132,-0.2454,0.4384,-0.4096,-0.2755,2017
5,0.4185,-0.3396,-0.2163,0.3614,-0.5183,-0.1278,2057
5,0.3894,-0.311,-0.2351,0.3243,-0.6886,-0.0559,2127
5,0.4219,-0.2766,-0.2771,0.334,-0.8281,0.0053,2253
5,0.4917,-0.2756,-0.3296,0.4338,-0.9122,-0.0019,2023
5,0.6208,-0.4712,-0.3257,0.414,-0.8015,0.0923,2075
6,0.5286,-0.3423,-0.3406,0.3822,-0.8022,-0.0173,2141
6,0.6001,-0.417,-0.3894,0.2994,-0.8159,-0.1009,2035
6,0.6357,-0.3896,-0.3967,0.2507,-0.968,-0.2686,2065
6,0.7163,-0.3862,-0.4756,0.3473,-0.9645,-0.3578,2065
6,0.7375,-0.4688,-0.4822,0.3429,-0.9331,-0.3915,2045
6,0.7349,-0.4326,-0.4524,0.3029,-0.969,-0.4995,1973
6,0.7307,-0.342,-0.4646,0.314,-1.0861,-0.6337,2071
6,0.8132,-0.4478,-0.4492,0.289,-1.1122,-0.6675,2034
6,0.7957,-0.272,-0.5493,0.3856,-1.3607,-0.8385,2020
6,0.8835,-0.3413,-0.6155,0.4055,-1.3382,-0.7855,2201
6,0.9268,-0.3049,-0.6609,0.3237,-1.4593,-0.8191,2008
6,1.0217,-0.4104,-0.8423,0.2585,-1.4741,-0.6779,2018
6,0.9277,-0.2976,-0.7732,-0.0369,-1.5412,-0.6782,2169
6,1.0955,-0.2041,-1.0178,0.1481,-1.8623,-0.6823,2045
6,1.2295,-0.3721,-0.9521,0.1172,-1.6606,-0.4224,1991
6,1.1841,-0.3384,-1.0327,0.0742,-1.7128,-0.3346,2051
6,1.1367,-0.3823,-1.064,0.0076,-1.6297,-0.1926,1995
6,1.1311,-0.3945,-1.0542,-0.1053,-1.5848,-0.1582,2005
6,1.0664,-0.2937,-1.1477,-0.1534,-1.5486,-0.1742,2062
6,1.1423,-0.396,-1.2837,-0.0438,-1.5336,-0.0643,2048
6,1.1003,-0.333,-1.2852,-0.0095,-1.3272,0.0394,2065
6,1.0815,-0.2571,-1.3108,0.0899,-1.2133,0.1376,2182
6,1.0852,-0.3682,-1.2432,0.1875,-1.0641,0.2609,2027
6,1.0239,-0.3215,-1.1917,0.2109,-0.9738,0.2591,2077
6,0.9941,-0.3923,-1.2349,0.2127,-1.0042,0.2843,2071
6,0.937,-0.3535,-1.1553,0.1671,-0.9365,0.267,2055
6,0.9258,-0.3826,-1.1711,0.1782,-0.9387,0.2473,2055
6,0.8862,-0.3572,-1.0925,0.1635,-0.8568,0.1956,2117
6,0.9148,-0.375,-1.0967,0.243,-0.8694,0.1413,2099
6,0.8848,-0.3613,-1.03,0.2219,-0.6783,0.0787,2070
6,0.9255,-0.3508,-1.0938,0.2507,-0.7244,-0.0312,1999
6,0.9517,-0.3831,-0.99,0.1975,-0.5528,-0.0804,2052
6,0.9209,-0.3035,-0.9988,0.1659,-0.534,-0.2404,2086
6,0.9263,-0.3325,-0.9607,0.1155,-0.3803,-0.3137,2042
6,0.9075,-0.3049,-0.8909,0.1401,-0.234,-0.435,2053
6,0.8679,-0.3242,-0.8289,0.1618,0.0569,-0.4685,2121
6,0.8025,-0.2529,-0.7615,0.245,0.2587,-0.5275,2056
6,0.7666,-0.2598,-0.7085,0.3425,0.4975,-0.4793,2111
6,0.7209,-0.2983,-0.6367,0.3646,0.7653,-0.3962,2063
6,0.6218,-0.2588,-0.5854,0.363,0.9268,-0.2939,2052
6,0.5662,-0.2822,-0.509,0.2987,1.0092,-0.2015,2143
6,0.5332,-0.2295,-0.4355,0.2535,1.0343,-0.087,2038
6,0.489,-0.2195,-0.4517,0.2759,0.9634,-0.0474,2062
6,0.4741,-0.2146,-0.4092,0.2952,1.0545,0.0964,2072
6,0.4663,-0.2375,-0.3865,0.2844,1.142,0.1924,2056
6,0.439,-0.1875,-0.3757,0.255,1.1801,0.3253,2013
6,0.4309,-0.2183,-0.364,0.1806,1.1906,0.3922,2069
6,0.4175,-0.1384,-0.3757,0.1324,1.0957,0.42,2045
6,0.4536,-0.2046,-0.418,0.0924,1.0324,0.4505,2096
6,0.4011,-0.082,-0.4419,0.1063,0.9448,0.4366,2061
6,0.4429,-0.1331,-0.4773,0.138,0.9468,0.4553,2111
6,0.4434,-0.1582,-0.509,0.0858,0.9921,0.4711,2057
6,0.4565,-0.1387,-0.5374,0.0816,0.9874,0.412,2041
6,0.4373,-0.1382,-0.5684,0.0132,0.9598,0.3365,2012
6,0.49,-0.1409,-0.5928,-0.0461,0.8858,0.2503,2049
6,0.5032,-0.1685,-0.6389,-0.0823,0.7461,0.1389,2163
6,0.5498,-0.1833,-0.6685,-0.1147,0.7427,0.0526,2063
6,0.5959,-0.2329,-0.7156,-0.1775,0.6697,-0.0266,2072
6,0.6082,-0.198,-0.7847,-0.2535,0.5926,-0.1499,2072
6,0.6829,-0.1956,-0.856,-0.3027,0.4908,-0.2362,2110
6,0.7371,-0.2434,-0.8884,-0.4247,0.4834,-0.1819,2038
6,0.7346,-0.2388,-0.9399,-0.5398,0.4412,-0.1622,2071
6,0.8025,-0.2712,-0.9722,-0.6424,0.3003,-0.0755,2097
6,0.855,-0.3428,-0.925,-0.7682,0.218,0.0372,2070
6,0.9038,-0.3982,-0.9675,-0.921,0.0306,0.0704,2113
6,1.0195,-0.5222,-0.9753,-1.0528,-0.0615,0.1983,2093
6,1.0718,-0.532,-1.0107,-1.276,-0.232,0.2001,2164
6,1.1621,-0.5234,-1.0305,-1.3616,-0.3348,0.2264,2086
6,1.2244,-0.5107,-1.0479,-1.4207,-0.3996,0.223,2120
6,1.3091,-0.4475,-1.0769,-1.3394,-0.3952,0.2093,2068
6,1.3335,-0.4792,-1.0254,-1.1999,-0.2862,0.1826,2037
6,1.3435,-0.5276,-1.0183,-1.0132,-0.1473,0.1702,2050
6,1.2915,-0.5281,-0.9675,-0.8407,0.0711,0.0871,2074
6,1.271,-0.5823,-0.8672,-0.6536,0.3763,0.0611,2023
6,1.1997,-0.592,-0.7996,-0.5169,0.5353,0.0325,2047
6,1.113,-0.5698,-0.7449,-0.3844,0.6412,0.0559,2035
6,1.0486,-0.5376,-0.697,-0.1922,0.6827,0.1237,2040
6,1.0012,-0.5364,-0.6333,0.0017,0.8151,0.2718,2031
6,0.9309,-0.4868,-0.6003,0.0712,0.8798,0.4472,2022
6,0.8789,-0.405,-0.5869,0.1056,0.8443,0.5958,2068
6,0.845,-0.3906,-0.5564,0.0676,0.7755,0.7236,2084
6,0.804,-0.3452,-0.5591,0.0033,0.7099,0.8339,2056
6,0.7524,-0.3196,-0.5356,-0.0941,0.6951,0.9211,1981
6,0.7114,-0.2502,-0.5564,-0.1566,0.5815,0.917,2064
6,0.7297,-0.228,-0.5637,-0.1409,0.5288,0.8953,2048
6,0.7295,-0.292,-0.5437,-0.1465,0.5699,0.9001,2148
6,0.6616,-0.3555,-0.4717,-0.2723,0.6276,0.8744,1997
6,0.575,-0.3054,-0.4263,-0.3285,0.5204,0.7094,2045
6,0.5798,-0.321,-0.3965,-0.3204,0.4095,0.5417,2028
6,0.5554,-0.314,-0.3503,-0.2786,0.3932,0.3569,2046
6,0.5432,-0.3582,-0.3535,-0.1939,0.3681,0.2032,2073
6,0.4829,-0.2983,-0.2998,-0.1799,0.4285,0.0441,2150
6,0.4509,-0.2117,-0.3337,0.0075,0.3256,-0.2229,2034
6,0.4944,-0.322,-0.2883,0.0595,0.401,-0.2814,2015
6,0.4197,-0.2466,-0.2371,0.0427,0.4506,-0.4036,2053
6,0.3491,-0.2949,-0.2485,0.0787,0.3481,-0.5086,2063
6,0.3506,-0.22,-0.2192,0.0834,0.1782,-0.5735,2040
6,0.3667,-0.2822,-0.2192,0.1437,0.0637,-0.6072,2060
6,0.3652,-0.2473,-0.2122,0.1349,0.0426,-0.5187,2095
6,0.3267,-0.3254,-0.1941,0.0804,-0.0248,-0.4394,2028
6,0.3208,-0.1846,-0.2068,0.0744,-0.1629,-0.3695,2151
6,0.3467,-0.2356,-0.2913,0.1514,-0.3789,-0.3127,2068
6,0.3799,-0.2949,-0.2524,0.057,-0.363,-0.116,2099
6,0.3699,-0.241,-0.29,0.0212,-0.4907,-0.0389,2058
7,0.436,-0.2817,-0.3704,-0.004,-0.7119,0.0812,2032
7,0.4832,-0.2493,-0.3342,-0.0385,-0.7723,0.1497,2072
7,0.519,-0.3047,-0.4141,-0.0214,-0.8686,0.1779,2032
7,0.5876,-0.3489,-0.4492,-0.0952,-0.8927,0.2551,2054
7,0.6284,-0.3684,-0.4482,-0.1792,-1.008,0.1973,2050
7,0.7327,-0.4136,-0.4875,-0.2313,-1.1641,0.0957,2020
7,0.7371,-0.3135,-0.5312,-0.1702,-1.2414,-0.1143,2065
7,0.8792,-0.4763,-0.5837,-0.077,-1.223,-0.1886,2000
7,0.948,-0.4678,-0.603,0.0134,-1.1475,-0.2919,1992
7,0.9775,-0.5566,-0.5686,-0.0137,-1.0067,-0.3795,2028
7,0.9441,-0.4763,-0.6968,-0.0156,-1.0837,-0.5597,2108
7,1.0354,-0.5068,-0.7485,0.0181,-1.0572,-0.6343,2016
7,1.0583,-0.4446,-0.8118,0.0559,-1.0497,-0.6331,2098
7,1.0229,-0.4702,-0.833,0.0941,-0.9605,-0.5604,2059
7,1.0442,-0.4285,-0.864,0.1366,-1.0104,-0.4637,2053
7,1.052,-0.498,-0.8647,0.1445,-0.9784,-0.3445,2033
7,1.0398,-0.4893,-0.9338,0.0756,-1.0127,-0.2537,2042
7,0.9998,-0.4502,-1.0691,0.0194,-1.0377,-0.1826,2043
7,1.052,-0.439,-1.2539,0.0157,-1.0385,-0.0682,2010
7,1.1133,-0.3445,-1.3962,0.0099,-0.9729,0.0894,2049
7,1.1597,-0.4028,-1.5117,-0.0563,-0.8384,0.351,1998
7,1.0984,-0.2344,-1.5247,-0.1101,-0.914,0.4662,2041
7,1.2163,-0.344,-1.512,-0.1418,-0.9629,0.6118,2119
7,1.1355,-0.3374,-1.5168,0.0389,-0.5631,0.6714,2069
7,1.0535,-0.3711,-1.3853,0.047,-0.3907,0.6785,2054
7,1.0461,-0.3982,-1.3445,0.1172,-0.1487,0.6404,2039
7,1.0256,-0.4387,-1.2034,0.1871,0.0027,0.5147,2010
7,0.9287,-0.459,-1.1458,0.2629,0.2019,0.4119,2040
7,0.8303,-0.405,-1.062,0.3097,0.2574,0.3006,2065
7,0.8279,-0.4268,-0.9998,0.3585,0.3225,0.2778,2052
7,0.8064,-0.3633,-0.9829,0.3871,0.2357,0.1902,2045
7,0.7947,-0.3606,-1.0032,0.4091,0.1483,0.1603,2058
7,0.7473,-0.2908,-0.9495,0.3794,0.1511,0.1056,2090
7,0.707,-0.373,-0.9307,0.3184,0.1707,0.1181,2104
7,0.6641,-0.2812,-0.8479,0.21,0.194,0.0477,2075
7,0.6523,-0.3057,-0.8086,0.2233,0.1983,0.0127,2095
7,0.6101,-0.2493,-0.7214,0.2325,0.2994,-0.0045,2045
7,0.6143,-0.3193,-0.7117,0.2659,0.3362,0.0453,2059
7,0.5586,-0.2642,-0.6174,0.2416,0.447,0.0971,2056
7,0.5229,-0.2258,-0.5703,0.257,0.4318,0.1185,2044
7,0.5449,-0.3298,-0.5281,0.2454,0.4926,0.2511,2040
7,0.4407,-0.1775,-0.4377,0.1493,0.5546,0.2039,1966
7,0.4812,-0.2527,-0.4766,0.2169,0.4821,0.3103,2070
7,0.4231,-0.1682,-0.4153,0.1438,0.5128,0.3551,2052
7,0.4436,-0.2905,-0.4016,0.1009,0.4599,0.4506,2033
7,0.4236,-0.1331,-0.3604,-0.0048,0.5137,0.4404,2105
7,0.4526,-0.2258,-0.4172,0.035,0.4153,0.4938,2091
7,0.4565,-0.2668,-0.3423,-0.0286,0.5349,0.5397,2032
7,0.447,-0.167,-0.4014,-0.0276,0.4105,0.4243,2064
7,0.439,-0.1445,-0.3633,0.0003,0.5352,0.4132,2081
7,0.4878,-0.0371,-0.4167,-0.0944,0.4236,0.2429,2003
7,0.5046,-0.2039,-0.5535,0.074,0.4006,0.1567,2105
7,0.5647,-0.2593,-0.4666,0.0055,0.7268,0.1222,2074
7,0.5322,-0.2876,-0.5527,0.0095,0.7252,-0.0226,2098
7,0.5227,-0.2339,-0.5417,-0.0914,0.821,-0.1381,2136
7,0.5996,-0.1772,-0.5715,-0.0156,0.6184,-0.336,2044
7,0.6299,-0.1931,-0.6592,0.1228,0.5544,-0.4749,2123
7,0.6089,-0.2998,-0.6125,0.0554,0.8112,-0.4542,2072
7,0.5908,-0.3413,-0.5881,-0.0138,0.9974,-0.4699,2060
7,0.6602,-0.2939,-0.6021,-0.1008,0.9738,-0.5099,2039
7,0.6836,-0.3374,-0.6414,-0.063,0.7343,-0.5707,1990
7,0.7229,-0.3318,-0.6433,-0.1085,0.6453,-0.5863,2058
7,0.7473,-0.312,-0.7524,-0.1421,0.6508,-0.5252,2068
7,0.7534,-0.3699,-0.7678,-0.3987,0.7913,-0.3402,2055
7,0.803,-0.3667,-0.8564,-0.4721,0.6098,-0.2321,2041
7,0.8774,-0.3621,-0.8416,-0.5424,0.4038,-0.1182,2059
7,0.9976,-0.4717,-0.8608,-0.6758,0.2642,0.0546,2111
7,0.9185,-0.5015,-0.8831,-0.8331,0.2453,0.1739,2032
7,1.0227,-0.498,-0.9451,-0.9112,0.1229,0.2739,2039
7,1.0259,-0.5747,-0.8601,-1.0949,0.1952,0.3077,2029
7,1.146,-0.5439,-0.9434,-1.1095,0.1212,0.2862,2032
7,1.2151,-0.5757,-1.0386,-1.0842,0.185,0.359,2120
7,1.2122,-0.5923,-1.0349,-1.1468,0.3057,0.4737,2001
7,1.2124,-0.4751,-1.1208,-1.1736,0.2718,0.4506,2100
7,1.2014,-0.4946,-1.0635,-1.1288,0.3314,0.4935,2040
7,1.2651,-0.5181,-1.0369,-1.0288,0.328,0.5586,2067
7,1.2317,-0.5293,-1.051,-0.8999,0.4261,0.5637,2066
7,1.1509,-0.6106,-0.9097,-0.7963,0.5866,0.6055,2094
7,1.1123,-0.5122,-0.8123,-0.6695,0.6677,0.5332,2009
7,1.1348,-0.5496,-0.7603,-0.492,0.7352,0.5046,2087
7,1.0293,-0.4775,-0.7527,-0.314,0.8504,0.4923,2028
7,0.9939,-0.4348,-0.7939,-0.1344,0.8686,0.5327,2042
7,0.9089,-0.5178,-0.6882,-0.1228,1.0798,0.6791,2014
7,0.7903,-0.3379,-0.6338,-0.1434,0.9926,0.6638,2049
7,0.8235,-0.3176,-0.6287,-0.1112,0.8143,0.7335,2076
7,0.8164,-0.3457,-0.5759,-0.0984,0.8022,0.8096,2059
7,0.7578,-0.3142,-0.6147,-0.1151,0.8006,0.8565,2020
7,0.7139,-0.3025,-0.5969,-0.2143,0.7718,0.914,2015
7,0.7207,-0.2781,-0.5835,-0.2464,0.7,0.8885,2057
7,0.7156,-0.3174,-0.5732,-0.2838,0.7264,0.9027,2060
7,0.6484,-0.3591,-0.5071,-0.4231,0.7279,0.865,2017
7,0.5828,-0.2993,-0.4983,-0.4926,0.6175,0.7048,2019
7,0.6201,-0.344,-0.4338,-0.481,0.5739,0.6071,2091
7,0.5947,-0.3774,-0.394,-0.4516,0.5983,0.4976,2049
7,0.5657,-0.3303,-0.3762,-0.3859,0.6417,0.3547,2076
7,0.5078,-0.3582,-0.3232,-0.2922,0.6201,0.2052,2092
7,0.5127,-0.3721,-0.2815,-0.1559,0.656,0.0827,2069
7,0.4956,-0.4844,-0.2668,-0.1072,0.7393,-0.0218,2097
7,0.4333,-0.4944,-0.2222,-0.1436,0.8287,-0.0965,2068
7,0.3694,-0.4812,-0.1492,-0.1906,0.7923,-0.2217,2077
8,0.3098,-0.3477,-0.1313,-0.1037,0.6131,-0.4338,2095
8,0.3755,-0.5005,-0.1597,0.0137,0.5197,-0.4564,2129
8,0.3928,-0.4529,-0.1689,0.0815,0.4876,-0.4618,2148
8,0.3516,-0.3682,-0.1938,0.2105,0.4356,-0.5036,2139
8,0.3306,-0.3867,-0.1895,0.3289,0.403,-0.4583,2050
8,0.374,-0.4641,-0.1985,0.3751,0.3397,-0.4028,2049
8,0.3684,-0.4551,-0.1685,0.3227,0.4018,-0.3434,2023
8,0.3936,-0.4263,-0.2122,0.2908,0.179,-0.2562,2056
8,0.3123,-0.3699,-0.2012,0.2774,-0.0441,-0.2533,2073
8,0.4133,-0.4199,-0.231,0.3175,-0.2344,-0.1791,2005
8,0.4478,-0.4646,-0.2229,0.2429,-0.269,-0.0826,2123
8,0.4341,-0.3884,-0.2512,0.2312,-0.3762,-0.0818,2090
8,0.489,-0.4377,-0.291,0.2816,-0.5007,-0.0583,2032
8,0.5447,-0.4417,-0.2783,0.2192,-0.5131,-0.0674,2036
8,0.5557,-0.3704,-0.3442,0.2872,-0.6237,-0.2068,2056
8,0.6521,-0.4434,-0.4148,0.3382,-0.7046,-0.1517,1992
8,0.7146,-0.4497,-0.4011,0.2918,-0.7071,-0.2005,2095
8,0.7407,-0.4822,-0.4133,0.2626,-0.7303,-0.248,2166
8,0.7783,-0.4851,-0.4417,0.1703,-0.8597,-0.3731,2068
8,0.842,-0.6653,-0.4568,-0.0426,-0.9111,-0.4454,2044
8,0.7527,-0.384,-0.4756,-0.1602,-1.0334,-0.7702,2162
8,0.9875,-0.3997,-0.6758,0.0804,-1.3426,-0.9276,2091
8,1.1514,-0.5117,-0.761,0.2208,-1.1873,-0.7821,2035
8,1.1221,-0.717,-0.7515,0.03,-0.8483,-0.6078,1966
8,0.9207,-0.5315,-0.7661,-0.3476,-1.0552,-0.7308,2011
8,1.0374,-0.6113,-0.7761,-0.5782,-1.3569,-0.8696,2211
8,1.1694,-0.593,-0.8398,-0.5939,-1.4053,-0.9043,2065
8,1.231,-0.5105,-1.0073,-0.3891,-1.4099,-0.8471,2059
8,1.1772,-0.4788,-1.0723,-0.2226,-1.2668,-0.6759,2051
8,1.3062,-0.5884,-1.1338,-0.2137,-1.1152,-0.4938,2042
8,1.1782,-0.531,-1.1714,-0.3661,-1.0734,-0.456,2048
8,1.2319,-0.4878,-1.1904,-0.3983,-1.1999,-0.4769,2075
8,1.1917,-0.5217,-1.1562,-0.3284,-1.0274,-0.4004,2071
8,1.2124,-0.4673,-1.2627,-0.1972,-0.9075,-0.2947,2021
8,1.1621,-0.5239,-1.2053,-0.0941,-0.6891,-0.1673,2017
8,1.1484,-0.5457,-1.1628,-0.0818,-0.397,-0.0686,2204
8,1.0632,-0.3911,-1.1831,0.0117,-0.4239,-0.1201,2089
8,1.0305,-0.3757,-1.1023,0.2123,-0.2606,-0.0871,2057
8,0.9951,-0.4204,-1.0552,0.3715,0.0015,-0.0185,2092
8,0.8728,-0.3933,-1.0581,0.4287,0.1482,0.0281,2006
8,0.8291,-0.353,-0.9966,0.4461,0.1513,0.083,2092
8,0.832,-0.3657,-0.8975,0.4133,0.2048,0.1197,2096
8,0.782,-0.3281,-0.8975,0.4096,0.1075,0.1085,2033
8,0.7263,-0.355,-0.8599,0.3297,0.1101,0.1493,2064
8,0.7087,-0.2732,-0.8489,0.2848,0.0153,0.0851,2091
8,0.7161,-0.2744,-0.7852,0.2658,0.0622,0.0491,2095
8,0.7136,-0.1355,-0.7991,0.4073,-0.0449,-0.0787,2070
8,0.7043,-0.313,-0.7332,0.4649,0.2049,-0.0692,2061
8,0.5957,-0.1597,-0.6772,0.422,0.2511,-0.1675,2059
8,0.6199,-0.2588,-0.658,0.5112,0.2808,-0.2097,2127
8,0.5483,-0.2314,-0.5498,0.4618,0.2838,-0.2518,2062
8,0.5295,-0.2085,-0.4893,0.5269,0.3516,-0.3007,2040
8,0.4958,-0.2395,-0.5474,0.6212,0.2991,-0.2603,2065
8,0.4421,-0.196,-0.3989,0.6268,0.4396,-0.1724,2050
8,0.4446,-0.2168,-0.4458,0.6747,0.326,-0.1416,2075
8,0.4824,-0.3147,-0.3989,0.6239,0.4352,0.0756,2105
8,0.3369,-0.1484,-0.3276,0.4599,0.3225,-0.0165,2067
8,0.3987,-0.1663,-0.3462,0.4887,0.2185,0.0579,2064
8,0.3967,-0.1597,-0.3794,0.5209,0.0646,0.1538,2034
8,0.4424,-0.1643,-0.3718,0.5556,0.0221,0.226,1935
8,0.439,-0.1658,-0.4077,0.5966,0.0201,0.3135,2053
8,0.4143,-0.2725,-0.3628,0.4817,0.0609,0.384,2119
8,0.4421,-0.1768,-0.394,0.2999,-0.0282,0.297,1958
8,0.499,-0.1816,-0.4526,0.31,-0.1461,0.2168,2041
8,0.5413,-0.1702,-0.5474,0.3713,-0.2554,0.1451,2109
8,0.5945,-0.2056,-0.5757,0.3875,-0.1847,0.1076,2031
8,0.6218,-0.2729,-0.5671,0.3111,-0.0088,0.0759,2055
8,0.6331,-0.2117,-0.5505,0.2497,0.0443,-0.0153,1994
8,0.667,-0.334,-0.5645,0.2041,0.0051,-0.1242,2060
8,0.6677,-0.3582,-0.5774,0.1906,-0.0751,-0.2666,2059
8,0.7754,-0.075,-0.5166,0.267,-0.0277,-0.3701,2058
8,0.7446,-0.4434,-0.6404,0.3715,-0.1397,-0.3663,2029
8,0.8022,-0.2925,-0.521,0.2748,0.1063,-0.3593,2049
8,0.8137,-0.4497,-0.5735,0.139,0.1855,-0.3798,2085
8,0.8049,-0.3167,-0.6162,-0.0788,0.0882,-0.4026,2081
8,0.884,-0.3708,-0.6738,-0.2226,-0.1603,-0.4357,2111
8,0.9763,-0.3762,-0.7654,-0.28,-0.3366,-0.3725,2093
8,0.9893,-0.2136,-0.873,-0.2366,-0.4577,-0.3212,2089
8,1.0327,-0.4121,-0.9456,-0.3489,-0.3429,-0.0136,2068
8,1.0791,-0.4236,-0.9521,-0.5943,-0.2286,0.1726,2043
8,1.0461,-0.5334,-0.9106,-0.8794,-0.2754,0.218,2031
8,1.072,-0.4304,-0.8848,-1.0617,-0.5505,0.1304,2071
8,1.2678,-0.5239,-0.9778,-0.9945,-0.6685,0.1808,2109
8,1.2322,-0.5129,-1.0164,-1.0034,-0.445,0.2546,2056
8,1.2271,-0.4299,-1.1089,-0.9938,-0.3216,0.2999,1969
8,1.2583,-0.3882,-1.1313,-1.0062,-0.2289,0.3173,2038
8,1.2625,-0.428,-1.0518,-1.0047,-0.0876,0.3464,2055
8,1.2502,-0.3359,-1.092,-0.8219,-0.0244,0.3192,2071
8,1.2156,-0.4749,-1.0234,-0.6794,0.2051,0.4004,2070
8,1.1396,-0.3066,-0.9951,-0.4774,0.2574,0.4152,2099
8,1.1462,-0.4221,-0.9417,-0.3144,0.4316,0.5265,2034
8,1.1226,-0.5779,-0.8804,-0.2999,0.5662,0.648,2050
8,0.9626,-0.4131,-0.8806,-0.3228,0.6,0.6606,2091
8,0.9929,-0.4912,-0.8284,-0.2947,0.6159,0.7572,2104
8,0.907,-0.4119,-0.7219,-0.2659,0.6975,0.8131,2066
8,0.9128,-0.3337,-0.7844,-0.1236,0.6538,0.9074,2113
8,0.8594,-0.252,-0.6926,-0.0389,0.7377,0.9978,2141
8,0.8611,-0.3767,-0.718,0.0284,0.7829,1.0748,2067
8,0.7793,-0.3342,-0.707,-0.084,0.7548,1.0557,2043
8,0.7517,-0.3928,-0.6196,-0.2023,0.832,1.0353,2068
8,0.6982,-0.2871,-0.6243,-0.2308,0.7124,0.9236,2070
8,0.74,-0.364,-0.6042,-0.1863,0.7658,0.9449,2093
8,0.6809,-0.3713,-0.5718,-0.1981,0.7959,0.9021,2048
8,0.6389,-0.397,-0.5684,-0.2008,0.8423,0.8716,2061
9,0.5942,-0.3701,-0.4749,-0.2091,0.8666,0.799,2030
9,0.5984,-0.364,-0.4421,-0.0963,0.8626,0.7182,2057
9,0.5518,-0.3906,-0.4521,0.0202,0.9103,0.6678,2058
9,0.5046,-0.3245,-0.3657,0.0726,0.9617,0.5982,2048
9,0.4722,-0.3467,-0.3618,0.1562,0.8919,0.5075,2056
9,0.4417,-0.3821,-0.2993,0.2107,0.9186,0.4521,2033
9,0.4397,-0.3113,-0.2888,0.2855,0.8701,0.3726,2018
9,0.4116,-0.4233,-0.304,0.2931,0.8641,0.3404,2100
9,0.3711,-0.375,-0.2048,0.2068,0.8556,0.3268,2064
9,0.3586,-0.4241,-0.2163,0.2643,0.7276,0.2661,2047
9,0.3574,-0.4385,-0.1716,0.2236,0.7482,0.2685,2044
9,0.3567,-0.3354,-0.2222,0.3033,0.5003,0.1967,2029
9,0.3123,-0.4639,-0.2041,0.2763,0.487,0.1972,2054
9,0.4148,-0.4094,-0.198,0.2629,0.4084,0.2373,1969
9,0.3179,-0.3977,-0.2046,0.2233,0.3786,0.1679,2048
9,0.3191,-0.3755,-0.2039,0.2573,0.2741,0.1281,2050
9,0.3748,-0.4009,-0.2219,0.2971,0.1704,0.0822,2105
9,0.3918,-0.4844,-0.2385,0.2523,0.1899,0.0864,2116
9,0.4607,-0.3994,-0.2747,0.2662,0.1132,0.1076,2090
9,0.375,-0.4006,-0.2615,0.2273,0.039,-0.0196,2018
9,0.4912,-0.437,-0.2878,0.2631,-0.0469,-0.0119,2075
9,0.5361,-0.3997,-0.3582,0.3136,-0.2052,-0.125,2066
9,0.5691,-0.6152,-0.3833,0.1803,-0.1803,-0.0542,2063
9,0.5637,-0.4639,-0.3855,0.0792,-0.2248,-0.1409,2041
9,0.6582,-0.533,-0.4543,0.0567,-0.4493,-0.2429,2105
9,0.7175,-0.5552,-0.449,-0.0252,-0.5496,-0.2872,2075
9,0.7488,-0.6204,-0.4897,-0.1113,-0.644,-0.3476,2115
9,0.7585,-0.6287,-0.5032,-0.2111,-0.6789,-0.397,2067
9,0.7957,-0.6511,-0.488,-0.3185,-0.7998,-0.5164,2063
9,0.9189,-0.708,-0.5288,-0.3029,-0.9339,-0.6165,2064
9,0.9702,-0.7588,-0.5547,-0.3231,-0.9292,-0.6385,2087
9,0.9717,-0.8242,-0.6262,-0.403,-0.9329,-0.7099,2060
9,0.9573,-0.8252,-0.72,-0.5705,-0.9606,-0.8343,2071
9,1.0447,-0.8293,-0.7727,-0.6504,-0.9499,-0.8712,2097
9,1.1348,-0.7136,-0.9287,-0.6706,-1.06,-0.9601,2091
9,1.1902,-0.7336,-0.9841,-0.6015,-0.9036,-0.8817,2016
9,1.166,-0.6819,-1.0356,-0.561,-0.8333,-0.7961,2069
9,1.2197,-0.6833,-1.084,-0.5215,-0.6943,-0.7022,2062
9,1.2209,-0.6995,-1.1143,-0.5036,-0.6083,-0.6265,2023
9,1.2483,-0.7148,-1.2073,-0.4441,-0.563,-0.5473,2073
9,1.2129,-0.6528,-1.2126,-0.4023,-0.4538,-0.4578,2047
9,1.1689,-0.6646,-1.1858,-0.312,-0.3405,-0.3454,2070
9,1.1543,-0.6938,-1.1436,-0.2742,-0.1116,-0.183,2011
9,1.0876,-0.5664,-1.1467,-0.1803,0.0012,-0.1189,2058
9,1.0427,-0.6345,-1.1147,-0.089,0.09,-0.0366,2070
9,0.9453,-0.5974,-1.041,-0.0162,0.2733,-0.0059,2027
9,0.9224,-0.4888,-1.0442,0.1618,0.2514,0.0338,2055
9,0.8315,-0.5972,-0.8958,0.2484,0.4886,0.1293,2048
9,0.7295,-0.4797,-0.8713,0.3153,0.5335,0.0543,2049
9,0.7542,-0.5071,-0.8594,0.3859,0.4802,0.0937,2057
9,0.7058,-0.468,-0.7666,0.3832,0.4605,0.0418,2069
9,0.6736,-0.47,-0.7715,0.3757,0.4135,-0.031,2070
9,0.6575,-0.3767,-0.7549,0.2619,0.3304,-0.0854,2053
9,0.6238,-0.2927,-0.7039,0.2482,0.2731,-0.1931,2034
9,0.6284,-0.3196,-0.6914,0.2903,0.3137,-0.2289,2061
9,0.5864,-0.2498,-0.6433,0.2855,0.3928,-0.278,2061
9,0.5701,-0.2749,-0.5984,0.3243,0.4293,-0.3081,2068
9,0.5586,-0.1831,-0.5435,0.3089,0.4406,-0.3578,2041
9,0.5598,-0.2751,-0.5747,0.3988,0.3843,-0.361,2096
9,0.5132,-0.2161,-0.4768,0.3215,0.4819,-0.3406,2034
9,0.4373,-0.2039,-0.4705,0.3073,0.4461,-0.3496,2094
9,0.447,-0.2031,-0.4043,0.2959,0.4791,-0.29,2053
9,0.4175,-0.165,-0.4011,0.3462,0.4261,-0.2551,2123
9,0.4429,-0.2358,-0.384,0.4759,0.4028,-0.1068,2060
9,0.448,-0.1814,-0.4006,0.2963,0.4758,-0.0989,2028
9,0.3848,-0.1643,-0.3071,0.2285,0.4879,-0.0967,2054
9,0.4155,-0.1851,-0.4194,0.3065,0.3285,-0.0286,2061
9,0.4021,-0.1335,-0.2949,0.1313,0.3796,-0.0892,2119
9,0.4377,-0.1938,-0.374,0.195,0.2545,-0.0678,2042
9,0.4497,-0.1238,-0.3416,0.2176,0.3068,-0.021,2032
9,0.4602,-0.2488,-0.3928,0.2242,0.2566,-0.0123,2052
9,0.4749,-0.1753,-0.3914,0.2125,0.3601,-0.036,2038
9,0.4763,-0.23,-0.3779,0.1706,0.2816,-0.1254,2047
9,0.5215,-0.219,-0.3821,0.1605,0.2188,-0.2095,2012
9,0.554,-0.2974,-0.4688,0.2197,0.1145,-0.3091,2094
9,0.5969,-0.2822,-0.4373,0.1707,0.2308,-0.3858,2060
9,0.6169,-0.2822,-0.4426,0.1629,0.235,-0.4709,1979
9,0.6155,-0.3335,-0.4802,0.2268,0.2169,-0.5798,2061
9,0.7058,-0.2366,-0.447,0.2253,0.1975,-0.6766,2023
9,0.7168,-0.415,-0.5315,0.2651,0.1182,-0.7385,2002
9,0.7498,-0.3679,-0.4768,0.0505,0.2409,-0.7401,2074
9,0.7812,-0.2874,-0.6125,0.0734,-0.006,-0.8095,2040
9,0.8496,-0.4424,-0.6128,-0.0557,-0.0775,-0.7589,2090
9,0.8896,-0.3306,-0.6084,-0.2798,-0.1481,-0.7482,2061
9,0.9343,-0.439,-0.7327,-0.2966,-0.3791,-0.6805,2092
9,0.9998,-0.4609,-0.677,-0.5058,-0.4382,-0.541,2052
9,1.0527,-0.4712,-0.7278,-0.5687,-0.6672,-0.4982,2050
9,1.114,-0.5325,-0.7307,-0.707,-0.6634,-0.4055,2132
9,1.1636,-0.4795,-0.7478,-0.7628,-0.8263,-0.3892,2094
9,1.2307,-0.5442,-0.7229,-0.8136,-0.8132,-0.3259,2063
9,1.2673,-0.532,-0.7732,-0.8838,-0.8552,-0.334,2031
9,1.3682,-0.4778,-0.8716,-0.8689,-0.9127,-0.3121,2063
9,1.3962,-0.4788,-0.8867,-0.948,-0.877,-0.228,2224
9,1.4126,-0.3643,-0.948,-0.95,-0.9588,-0.2506,2063
9,1.4055,-0.4624,-0.8889,-0.8809,-0.7215,-0.0976,1975
9,1.3713,-0.3472,-0.9272,-0.7436,-0.7018,-0.0639,2065
9,1.3354,-0.4299,-0.8179,-0.6051,-0.3437,0.0099,2031
9,1.303,-0.3625,-0.8225,-0.3995,-0.2866,0.0716,2072
9,1.3071,-0.3445,-0.8113,-0.1791,-0.0906,0.1848,2124
9,1.2085,-0.3728,-0.7517,-0.008,0.1284,0.3988,2034
9,1.1289,-0.2869,-0.8289,0.1716,0.1206,0.5454,2020
9,1.1201,-0.4043,-0.7192,0.188,0.3278,0.7966,1942
10,0.9792,-0.2737,-0.7053,0.1132,0.2461,0.8979,2068
10,0.9905,-0.2424,-0.6882,0.0747,0.1344,1.0334,2114
10,0.9248,-0.175,-0.6301,0.1004,0.137,1.1331,2034
10,0.9878,-0.1719,-0.6636,0.1574,0.1646,1.234,2064
10,0.9175,-0.1541,-0.6541,0.2028,0.1979,1.3023,2042
10,0.9153,-0.2664,-0.6311,0.1218,0.3381,1.3391,2156
10,0.7939,-0.2715,-0.6162,-0.1047,0.332,1.2513,2043
10,0.7717,-0.2441,-0.5928,-0.2725,0.1985,1.1171,2188
10,0.7681,-0.2405,-0.5686,-0.2432,0.1209,0.9994,2102
10,0.7715,-0.2781,-0.5872,-0.137,0.2241,0.9604,2102
10,0.7227,-0.3582,-0.551,-0.1539,0.3326,0.9432,2137
10,0.6423,-0.3418,-0.4622,-0.2009,0.394,0.8339,2010
10,0.5891,-0.4351,-0.3931,-0.2505,0.4265,0.7162,2124
10,0.562,-0.2981,-0.356,-0.1392,0.3286,0.5108,2056
10,0.551,-0.3779,-0.3418,-0.0457,0.3959,0.4067,2042
10,0.5137,-0.3655,-0.3232,0.0736,0.3806,0.2779,2060
10,0.4717,-0.3875,-0.2866,0.0949,0.4837,0.2185,2059
10,0.4343,-0.343,-0.2458,0.0967,0.4852,0.0977,2024
10,0.4055,-0.3674,-0.1956,0.114,0.4778,0.0318,2047
10,0.376,-0.3418,-0.1707,0.1483,0.3967,-0.0523,2093
10,0.3752,-0.3672,-0.1311,0.2212,0.342,-0.0519,2130
10,0.3005,-0.3267,-0.1309,0.306,0.2449,-0.1096,2232
10,0.3347,-0.3916,-0.1445,0.351,0.1888,-0.0646,2092
10,0.3086,-0.3098,-0.176,0.4143,0.061,-0.0884,2065
10,0.304,-0.3689,-0.2046,0.4243,0.0142,-0.0395,2145
10,0.3247,-0.3882,-0.2168,0.3685,-0.1025,0.0354,2056
10,0.3215,-0.3594,-0.2805,0.3505,-0.2639,0.0623,1970
10,0.3965,-0.3345,-0.2827,0.341,-0.3695,0.1586,2025
10,0.4229,-0.377,-0.3479,0.3087,-0.5577,0.2096,2150
10,0.4397,-0.3674,-0.3569,0.2814,-0.5629,0.253,2097
10,0.499,-0.3477,-0.3882,0.2495,-0.6557,0.2747,2094
10,0.5461,-0.3796,-0.3982,0.1679,-0.62,0.2843,2162
10,0.5789,-0.3633,-0.4229,0.0866,-0.6569,0.1971,2018
10,0.6248,-0.4148,-0.4521,0.0348,-0.6585,0.1222,2132
10,0.7175,-0.4431,-0.4458,-0.0285,-0.7042,0.0563,2066
10,0.7192,-0.4475,-0.4412,-0.0783,-0.7197,-0.1137,2055
10,0.7749,-0.4851,-0.4836,-0.077,-0.7586,-0.2446,2129
10,0.8574,-0.6282,-0.5259,-0.1527,-0.7775,-0.3232,2050
10,0.832,-0.6079,-0.5505,-0.2698,-0.7593,-0.4847,2009
10,0.885,-0.6379,-0.6023,-0.3377,-0.8244,-0.6478,2127
10,0.9451,-0.6707,-0.6663,-0.3831,-0.8997,-0.7665,2052
10,1.0266,-0.738,-0.7124,-0.4152,-0.8706,-0.809,2032
10,1.0161,-0.7039,-0.7988,-0.4782,-0.9048,-0.8744,2158
10,1.0449,-0.7627,-0.8201,-0.556,-0.8958,-0.8993,2005
10,1.0859,-0.7307,-0.9304,-0.5995,-0.9582,-0.9564,2063
10,1.094,-0.7402,-0.9329,-0.6418,-0.8949,-0.913,2041
10,1.0996,-0.6855,-1.0374,-0.6682,-0.9802,-0.9187,1948
10,1.1208,-0.6328,-1.0613,-0.6469,-0.9228,-0.8476,2034
10,1.1394,-0.6284,-1.1394,-0.5817,-0.8445,-0.7719,2031
10,1.0894,-0.6074,-1.2031,-0.5799,-0.7131,-0.6253,2048
10,1.0503,-0.6548,-1.2227,-0.6723,-0.5261,-0.4895,2060
10,1.0327,-0.4736,-1.2546,-0.6942,-0.5827,-0.4044,2050
10,1.073,-0.5352,-1.2424,-0.5956,-0.5215,-0.2281,2040
10,1.0359,-0.5022,-1.2434,-0.4757,-0.3662,-0.0762,2071
10,0.9817,-0.4561,-1.21,-0.3594,-0.2215,0.0457,2166
10,0.9734,-0.4824,-1.1179,-0.3481,-0.1691,0.1328,2022
10,0.8735,-0.4858,-1.1541,-0.1854,0.0732,0.1461,2072
10,0.7961,-0.4114,-1.0137,-0.1716,0.0944,0.1092,2068
10,0.7827,-0.4839,-0.9849,-0.0953,0.224,0.0951,2098
10,0.7593,-0.4304,-0.9175,-0.1049,0.2326,0.0017,2072
10,0.74,-0.4277,-0.8882,-0.0549,0.2269,-0.0578,2067
10,0.7046,-0.3899,-0.8704,-0.0515,0.19,-0.1665,2021
10,0.7188,-0.3472,-0.8892,-0.0044,0.2284,-0.2393,2053
10,0.6843,-0.3447,-0.8416,-0.0071,0.3108,-0.289,2061
10,0.6487,-0.3486,-0.8259,-0.0346,0.3573,-0.377,2027
10,0.637,-0.353,-0.7754,-0.0816,0.4101,-0.4428,2096
10,0.6033,-0.335,-0.7029,-0.1161,0.4614,-0.5377,2101
10,0.5752,-0.3286,-0.6404,-0.1302,0.5372,-0.5845,2034
10,0.5432,-0.2881,-0.5894,-0.096,0.5524,-0.6183,2049
10,0.5186,-0.2625,-0.5413,-0.029,0.6256,-0.6079,2071
10,0.5051,-0.2117,-0.498,0.0682,0.6325,-0.5983,2026
10,0.47,-0.2156,-0.4539,0.1495,0.7086,-0.5397,1998
10,0.4502,-0.1582,-0.4294,0.2191,0.7253,-0.4952,2092
10,0.447,-0.2754,-0.4502,0.22,0.7142,-0.4035,2093
10,0.4329,-0.2505,-0.3809,0.0975,0.7383,-0.304,2071
10,0.3718,-0.1707,-0.3782,0.0389,0.5928,-0.3239,2148
10,0.4197,-0.2646,-0.3928,0.01,0.4711,-0.2503,2008
10,0.4277,-0.1204,-0.3716,0.0449,0.389,-0.2152,2045
10,0.4482,-0.147,-0.4492,0.1029,0.3731,-0.1739,2040
10,0.4551,-0.1965,-0.406,0.0241,0.4883,-0.0832,2022
10,0.4543,-0.1565,-0.4448,-0.0264,0.4164,-0.0975,1997
10,0.4875,-0.1531,-0.4341,0.0092,0.4312,-0.1111,2141
10,0.5203,-0.1189,-0.4692,0.0642,0.3277,-0.1581,2067
10,0.5486,-0.2197,-0.5227,0.0282,0.291,-0.1655,2009
10,0.5564,-0.1111,-0.5107,-0.0158,0.3534,-0.1864,2069
10,0.5989,-0.2104,-0.5618,0.0089,0.2539,-0.2219,2123
10,0.655,-0.1296,-0.595,-0.0153,0.2003,-0.2618,2040
10,0.7112,-0.177,-0.6665,-0.0063,0.1597,-0.2667,2061
10,0.7634,-0.2341,-0.7217,-0.1804,0.1189,-0.2382,2072
10,0.7603,-0.0415,-0.8005,-0.2374,-0.0083,-0.3104,2123
10,0.8699,-0.1377,-0.8318,-0.2952,-0.1141,-0.2639,2038
10,0.9336,-0.1006,-0.9299,-0.3019,-0.2517,-0.2551,2115
10,0.9839,-0.1484,-0.9612,-0.3898,-0.1638,-0.0972,2035
10,1.0083,-0.1733,-0.9871,-0.493,-0.2482,-0.0092,2056
10,1.0347,-0.2292,-0.9265,-0.6517,-0.2701,0.0957,2060
10,1.0896,-0.1667,-0.9026,-0.7336,-0.4313,0.1317,2172
10,1.1602,-0.2961,-0.9561,-0.8472,-0.5525,0.2025,2068
10,1.2366,-0.2456,-1.0901,-0.9411,-0.7565,0.2083,2200
10,1.282,-0.2251,-1.1458,-0.9602,-0.8228,0.2372,2113
10,1.3523,-0.261,-1.1287,-0.8942,-0.7718,0.2767,2089
10,1.3704,-0.1936,-1.1091,-0.7525,-0.6652,0.2444,2098
11,1.4136,-0.2192,-1.1292,-0.5739,-0.4998,0.1899,2100
11,1.2998,-0.3003,-1.0435,-0.2697,-0.0557,0.1993,1962
11,1.2468,-0.313,-0.9358,-0.1045,0.2043,0.2205,2005
11,1.1843,-0.3655,-0.853,0.0666,0.4747,0.3282,2078
11,1.0991,-0.3735,-0.7917,0.1879,0.5207,0.4043,2066
11,1.0144,-0.3611,-0.7686,0.2529,0.5189,0.5558,2042
11,0.9355,-0.313,-0.7361,0.2832,0.4657,0.7233,2035
11,0.9343,-0.2874,-0.7461,0.293,0.4554,0.9499,2047
11,0.8992,-0.2393,-0.7419,0.2382,0.4565,1.1653,2072
11,0.8572,-0.2112,-0.7905,0.1771,0.375,1.3194,2075
11,0.8296,-0.2175,-0.7634,0.067,0.3996,1.4665,2146
11,0.8174,-0.2356,-0.7883,-0.0123,0.3529,1.5206,2114
11,0.7668,-0.2317,-0.7415,-0.0696,0.3494,1.5175,2033
11,0.78,-0.2214,-0.7373,-0.0288,0.3071,1.4543,2074
11,0.7588,-0.2986,-0.6296,-0.0249,0.4046,1.4276,2089
11,0.7542,-0.2314,-0.6333,0.0788,0.3706,1.2985,2135
11,0.7058,-0.3535,-0.5847,0.1197,0.4647,1.2709,2034
11,0.6633,-0.3523,-0.5186,0.0222,0.6327,1.1014,2176
11,0.5413,-0.4084,-0.5024,0.0205,0.5179,0.9218,2067
11,0.5042,-0.4202,-0.4067,-0.0019,0.5593,0.7544,2074
11,0.5244,-0.3521,-0.4204,0.1276,0.5082,0.5944,2087
11,0.4631,-0.3105,-0.3977,0.2292,0.5609,0.4513,2032
11,0.4368,-0.2976,-0.3723,0.333,0.5292,0.3606,2182
11,0.4397,-0.3264,-0.3481,0.3135,0.6023,0.322,2060
11,0.3887,-0.3047,-0.3604,0.2715,0.5368,0.2276,2063
11,0.3501,-0.313,-0.3259,0.2721,0.4983,0.1922,2073
11,0.375,-0.3064,-0.3071,0.253,0.4385,0.2021,2000
11,0.3403,-0.2798,-0.2949,0.2854,0.2747,0.1779,2101
11,0.3188,-0.3142,-0.2659,0.3562,0.1776,0.1859,2066
11,0.3564,-0.3857,-0.2251,0.3409,0.1601,0.2575,2035
11,0.3369,-0.385,-0.2439,0.3386,0.0925,0.2546,2114
11,0.2969,-0.3423,-0.252,0.4313,-0.0463,0.2176,2111
11,0.386,-0.3667,-0.2705,0.5098,-0.1812,0.2587,2071
11,0.3906,-0.4302,-0.2913,0.4848,-0.1874,0.2954,2067
11,0.386,-0.3782,-0.2812,0.5006,-0.2155,0.3149,2052
11,0.4192,-0.4426,-0.2739,0.4522,-0.3364,0.3288,2052
11,0.4387,-0.4429,-0.3174,0.4024,-0.4051,0.292,2092
11,0.4739,-0.4019,-0.3469,0.385,-0.4747,0.2317,2100
11,0.5129,-0.479,-0.416,0.3908,-0.6104,0.2052,2100
11,0.5642,-0.4573,-0.4143,0.3614,-0.6442,0.1485,2047
11,0.6226,-0.5342,-0.4443,0.3165,-0.7024,0.0788,2020
11,0.635,-0.4868,-0.4656,0.2658,-0.7937,-0.065,2103
11,0.7207,-0.5515,-0.5076,0.2051,-0.9463,-0.1689,2069
11,0.7842,-0.5894,-0.5588,0.1506,-0.9833,-0.2494,2094
11,0.8181,-0.6055,-0.6143,0.0767,-1.0326,-0.3571,2027
11,0.8594,-0.6379,-0.6611,0.008,-1.0505,-0.4237,2036
11,0.9236,-0.6697,-0.729,-0.0839,-1.0963,-0.5188,2026
11,0.9778,-0.6641,-0.79,-0.1289,-1.0985,-0.5691,2057
11,0.9944,-0.7139,-0.8489,-0.1973,-1.0524,-0.5612,2129
11,1.0186,-0.6675,-0.8904,-0.2987,-1.04,-0.5799,2007
11,1.0283,-0.667,-0.9526,-0.3615,-1.0148,-0.5617,1991
11,1.0671,-0.6365,-1.0349,-0.4232,-1.0231,-0.5177,2091
11,1.0911,-0.6389,-1.095,-0.4743,-0.958,-0.3863,2067
11,1.0837,-0.571,-1.1687,-0.5662,-0.9138,-0.2719,2108
11,1.1106,-0.5193,-1.2605,-0.5683,-0.9556,-0.1589,2053
11,1.1182,-0.5242,-1.3127,-0.5421,-0.8493,0.0148,2062
11,1.0781,-0.4836,-1.3252,-0.5078,-0.6858,0.1888,2042
11,1.0271,-0.5901,-1.3132,-0.5594,-0.4173,0.3827,2118
11,0.9998,-0.5596,-1.3154,-0.6323,-0.3799,0.4815,2071
11,1.0269,-0.488,-1.2983,-0.5651,-0.4148,0.502,2097
11,0.9548,-0.552,-1.2444,-0.4699,-0.1999,0.5498,2108
11,0.9302,-0.4736,-1.2476,-0.387,-0.0908,0.5361,2035
11,0.8877,-0.5115,-1.1663,-0.2955,0.1292,0.5353,2099
11,0.8582,-0.5115,-1.0879,-0.2372,0.3298,0.4545,2108
11,0.8342,-0.4607,-1.0571,-0.1609,0.4627,0.3651,2116
11,0.7737,-0.5044,-1.0278,-0.1124,0.5822,0.2972,2063
11,0.74,-0.5298,-0.9578,-0.1887,0.6838,0.2248,2100
11,0.6978,-0.4854,-0.9163,-0.2996,0.7205,0.0944,2102
11,0.6702,-0.4626,-0.8628,-0.3358,0.6927,-0.0443,2098
11,0.6958,-0.4407,-0.8416,-0.3201,0.75,-0.1649,2007
11,0.6501,-0.4316,-0.8333,-0.3121,0.8849,-0.2566,2058
11,0.6211,-0.3989,-0.7747,-0.3385,1.0115,-0.353,2064
11,0.5234,-0.4358,-0.6492,-0.4225,1.1965,-0.4661,2067
11,0.5737,-0.3313,-0.6521,-0.3562,1.2519,-0.5428,2072
11,0.5234,-0.3782,-0.5842,-0.3119,1.3609,-0.5955,2045
11,0.522,-0.3274,-0.5471,-0.2087,1.3652,-0.6315,2074
11,0.4707,-0.3445,-0.4941,-0.1143,1.4141,-0.6512,2070
11,0.4387,-0.2983,-0.4358,-0.0519,1.4432,-0.6661,2097
11,0.4368,-0.3167,-0.4048,0.0276,1.4219,-0.6436,2095
11,0.4072,-0.3438,-0.397,0.0609,1.4524,-0.6231,2114
11,0.3838,-0.3616,-0.3752,0.0085,1.4779,-0.5815,2103
11,0.4412,-0.3044,-0.3767,-0.0061,1.3691,-0.5295,2066
11,0.293,-0.2529,-0.3066,0.0197,1.3692,-0.5485,2049
11,0.3687,-0.3076,-0.3354,0.0425,1.3264,-0.4332,2021
11,0.3804,-0.25,-0.3655,0.0048,1.2749,-0.3867,2045
11,0.3623,-0.2256,-0.3708,0.0503,1.2167,-0.3573,2115
11,0.3872,-0.2004,-0.3882,0.1426,1.0849,-0.3248,2063
11,0.426,-0.2144,-0.4609,0.198,1.0334,-0.2755,2060
11,0.4373,-0.2773,-0.4492,0.1292,1.135,-0.1973,2030
11,0.437,-0.2312,-0.4087,0.0643,1.1252,-0.1678,2085
11,0.4465,-0.2739,-0.4031,0.0414,0.9921,-0.179,2089
11,0.4661,-0.2561,-0.3853,0.0551,0.8517,-0.24,2121
11,0.4829,-0.2527,-0.4104,0.1226,0.7229,-0.2959,1999
11,0.5061,-0.2319,-0.4497,0.183,0.6261,-0.3448,2073
11,0.5535,-0.3564,-0.4336,0.1302,0.696,-0.3096,2103
11,0.5566,-0.2869,-0.459,0.1001,0.6534,-0.3642,2126
11,0.6028,-0.3611,-0.4573,0.0434,0.5616,-0.375,2066
11,0.6431,-0.3101,-0.5193,-0.0366,0.3504,-0.4288,2092
11,0.6851,-0.325,-0.5437,-0.1593,0.2571,-0.4429,2017
11,0.739,-0.282,-0.6375,-0.2432,0.0519,-0.4239,2056
11,0.8372,-0.3086,-0.6963,-0.3325,-0.0775,-0.3613,2089
11,0.9314,-0.355,-0.7478,-0.4268,-0.1593,-0.2633,2102
11,0.9678,-0.4214,-0.7886,-0.5332,-0.1904,-0.1691,2037
11,0.9995,-0.4492,-0.7795,-0.6457,-0.2546,-0.1217,2058
12,1.0491,-0.5183,-0.7246,-0.7207,-0.3113,-0.1171,2122
12,1.1165,-0.5269,-0.6802,-0.6926,-0.3798,-0.137,2051
12,1.1628,-0.6421,-0.6833,-0.6624,-0.3505,-0.1171,2068
12,1.1577,-0.6599,-0.7295,-0.7444,-0.4165,-0.1337,2010
12,1.2439,-0.6499,-0.7903,-0.8783,-0.5036,-0.194,2027
12,1.3108,-0.575,-0.9004,-0.9593,-0.6915,-0.2534,2058
12,1.3936,-0.4089,-1.0029,-0.8802,-0.8156,-0.2505,2092
12,1.4148,-0.4851,-0.9995,-0.7578,-0.6805,-0.135,2139
12,1.335,-0.4453,-0.9856,-0.701,-0.6039,-0.0538,2048
12,1.3381,-0.4807,-0.8391,-0.5793,-0.3779,-0.0321,2109
12,1.3069,-0.4897,-0.7695,-0.3666,-0.3466,0.0178,2010
12,1.3501,-0.521,-0.7063,-0.1673,-0.1439,0.1093,2039
12,1.2515,-0.4663,-0.7385,0.0384,-0.0395,0.185,2103
12,1.1995,-0.4321,-0.7361,0.1031,0.1204,0.3243,2026
12,1.1338,-0.3186,-0.7122,0.1626,0.1931,0.416,2094
12,1.1199,-0.2336,-0.7002,0.2333,0.1642,0.5096,2068
12,1.1011,-0.176,-0.6785,0.3377,0.2361,0.6332,2006
12,1.0222,-0.2073,-0.6121,0.3109,0.3996,0.8011,1984
12,0.9731,-0.1973,-0.6218,0.1816,0.3115,0.8495,2092
12,0.9053,-0.2256,-0.5164,0.0497,0.3942,0.8911,2128
12,0.8621,-0.0986,-0.5364,-0.0105,0.2348,0.7823,2074
12,0.9397,-0.2227,-0.5537,0.0272,0.2486,0.8292,2038
12,0.7808,-0.2246,-0.5337,-0.0662,0.2952,0.7581,2029
12,0.8435,-0.2212,-0.6172,-0.0979,0.2689,0.705,1963
12,0.7576,-0.3086,-0.5017,-0.3101,0.3781,0.6175,2091
12,0.7588,-0.2014,-0.5283,-0.3269,0.2575,0.4006,1997
12,0.7815,-0.2947,-0.4651,-0.3377,0.3453,0.2878,2093
12,0.7439,-0.1838,-0.4612,-0.2417,0.3125,0.0975,1963
12,0.738,-0.3259,-0.4343,-0.1679,0.4145,0.0047,2057
12,0.6807,-0.2656,-0.3542,-0.1004,0.4918,-0.1256,2059
12,0.6311,-0.2947,-0.3499,0.022,0.4817,-0.3064,2065
12,0.6018,-0.3931,-0.291,0.0964,0.5606,-0.3848,2051
12,0.5969,-0.293,-0.2681,0.1651,0.5394,-0.4854,2088
12,0.5005,-0.3176,-0.2515,0.2362,0.5176,-0.5882,2034
12,0.5366,-0.3662,-0.2083,0.3101,0.5521,-0.5309,2008
12,0.4829,-0.3206,-0.2505,0.4027,0.4516,-0.5719,2044
12,0.479,-0.3943,-0.1995,0.4603,0.5754,-0.4673,2062
12,0.418,-0.3469,-0.2195,0.4924,0.4549,-0.4219,2025
12,0.4363,-0.3562,-0.1934,0.5384,0.4301,-0.3173,2055
12,0.4111,-0.332,-0.2109,0.5951,0.2539,-0.2163,2068
12,0.4233,-0.3838,-0.2092,0.5845,0.1533,-0.0748,2092
12,0.4387,-0.3047,-0.2085,0.5659,0.0374,0.0668,2049
12,0.4465,-0.3577,-0.2168,0.5653,-0.138,0.1617,2058
12,0.4617,-0.282,-0.2026,0.5576,-0.2807,0.2503,2051
12,0.4954,-0.2498,-0.2759,0.6355,-0.5187,0.2593,2070
12,0.5085,-0.3271,-0.2939,0.5976,-0.4595,0.3445,2029
12,0.5488,-0.2705,-0.3323,0.5602,-0.5767,0.3175,2134
12,0.5881,-0.2888,-0.3376,0.5257,-0.5841,0.2654,2104
12,0.6472,-0.3076,-0.3811,0.5402,-0.6759,0.1674,2097
12,0.7021,-0.3328,-0.3765,0.5352,-0.6015,0.1056,2037
12,0.6843,-0.3472,-0.3757,0.5121,-0.5624,-0.0469,2096
12,0.7107,-0.3535,-0.3738,0.5176,-0.5834,-0.1569,2104
12,0.7871,-0.3997,-0.3958,0.4998,-0.6032,-0.2677,2083
12,0.783,-0.3608,-0.3984,0.5229,-0.6361,-0.3999,2137
12,0.8027,-0.4385,-0.3967,0.4888,-0.6412,-0.4626,2059
12,0.8196,-0.4131,-0.3958,0.3959,-0.7292,-0.5719,2064
12,0.8206,-0.4114,-0.3813,0.3063,-0.7742,-0.6833,2060
12,0.8889,-0.3491,-0.4414,0.2758,-0.9618,-0.7841,2146
12,0.949,-0.4548,-0.4846,0.2215,-0.9614,-0.7602,2066
12,0.9453,-0.4448,-0.5432,0.0872,-1.0174,-0.7315,2075
12,0.9609,-0.4158,-0.5945,-0.0945,-1.1283,-0.7155,2098
12,1.0276,-0.4019,-0.6885,-0.1669,-1.2773,-0.6893,2055
12,1.0781,-0.4346,-0.7744,-0.227,-1.3348,-0.6028,2005
12,1.1448,-0.4426,-0.8618,-0.2866,-1.3513,-0.475,2070
12,1.1321,-0.4019,-0.8977,-0.3871,-1.3877,-0.3775,2038
12,1.2236,-0.447,-0.9382,-0.4064,-1.419,-0.2681,2057
12,1.2461,-0.4548,-0.9756,-0.4449,-1.4115,-0.1667,2044
12,1.2349,-0.4312,-0.9949,-0.4862,-1.3516,-0.0638,2065
12,1.2463,-0.4165,-1.0344,-0.4974,-1.3438,0.017,2032
12,1.2332,-0.4214,-1.0811,-0.4844,-1.236,0.0976,2005
12,1.2251,-0.373,-1.1294,-0.4643,-1.0969,0.1594,2038
12,1.1833,-0.4238,-1.1501,-0.4249,-0.8629,0.2599,2008
12,1.1904,-0.3523,-1.187,-0.399,-0.6877,0.3625,2028
12,1.176,-0.3733,-1.1956,-0.3614,-0.5385,0.4638,2051
12,1.1228,-0.3569,-1.1489,-0.3184,-0.3871,0.5084,2034
12,1.1003,-0.3423,-1.1575,-0.2714,-0.2916,0.5442,2017
12,1.0452,-0.364,-1.0867,-0.2908,-0.1252,0.5525,2126
12,0.9919,-0.3569,-1.0596,-0.343,-0.0566,0.5082,2050
12,0.9622,-0.3008,-1.0403,-0.3392,-0.0112,0.4171,2097
12,0.9705,-0.3281,-1.012,-0.2675,0.1157,0.3554,2032
12,0.9292,-0.363,-0.9438,-0.2838,0.3196,0.2952,2094
12,0.8689,-0.3701,-0.8679,-0.3361,0.4189,0.1963,2075
12,0.8538,-0.3481,-0.8176,-0.3887,0.394,0.0509,2071
12,0.8735,-0.3442,-0.8005,-0.3681,0.4035,-0.0931,2060
12,0.823,-0.3115,-0.7747,-0.3119,0.4834,-0.2071,2076
12,0.7915,-0.3374,-0.7183,-0.2764,0.5826,-0.2926,2054
12,0.7466,-0.354,-0.6545,-0.2762,0.6964,-0.3935,2068
12,0.7124,-0.3096,-0.5864,-0.2215,0.7534,-0.5152,2057
12,0.6753,-0.3171,-0.5405,-0.1152,0.828,-0.5771,2066
12,0.6396,-0.3672,-0.4866,-0.0586,0.98,-0.5717,2053
12,0.5632,-0.2944,-0.4375,-0.0366,1.0822,-0.5908,2063
12,0.5146,-0.2637,-0.4019,0.0427,1.0572,-0.5942,2072
12,0.5349,-0.2698,-0.3496,0.1376,1.0696,-0.5315,2075
12,0.4883,-0.2839,-0.3394,0.19,1.1061,-0.4348,2104
12,0.4329,-0.2278,-0.3013,0.1878,1.135,-0.3446,2092
12,0.3828,-0.2026,-0.2744,0.2421,1.0465,-0.2595,2027
12,0.4031,-0.2375,-0.2849,0.2473,0.9963,-0.1044,2073
12,0.4133,-0.2119,-0.3059,0.2105,0.9345,0.0425,2054
12,0.3655,-0.186,-0.3008,0.1218,0.8456,0.1679,2105
12,0.3665,-0.0679,-0.3445,0.157,0.6063,0.2453,2046
12,0.4094,-0.1738,-0.3748,0.0738,0.5646,0.3982,2141
13,0.3748,-0.0828,-0.4119,0.0178,0.5044,0.4872,2017
13,0.3792,-0.0974,-0.4004,-0.0378,0.4783,0.5485,2046
13,0.3765,-0.1052,-0.4189,-0.0654,0.3634,0.5802,2205
13,0.4312,-0.1355,-0.4417,-0.0627,0.2722,0.5413,2051
13,0.4585,-0.2371,-0.4448,-0.1634,0.2864,0.5406,2051
13,0.4102,-0.1335,-0.4822,-0.1493,0.1762,0.3919,2125
13,0.4773,-0.2471,-0.479,-0.1025,0.112,0.2709,2064
13,0.5674,-0.2773,-0.499,-0.0795,0.1356,0.206,2036
13,0.5647,-0.3555,-0.5059,-0.1722,0.1538,0.0923,2042
13,0.5623,-0.2668,-0.5027,-0.2573,0.0489,-0.0578,2218
13,0.6702,-0.3418,-0.5522,-0.3342,-0.092,-0.1759,2045
13,0.7295,-0.3147,-0.6204,-0.4165,-0.1706,-0.247,2071
13,0.7695,-0.27,-0.6975,-0.4541,-0.2658,-0.3002,2039
13,0.8533,-0.311,-0.7644,-0.4778,-0.3799,-0.2848,2067
13,0.9128,-0.344,-0.8252,-0.5014,-0.4175,-0.2461,2065
13,0.9473,-0.395,-0.8997,-0.5485,-0.4392,-0.1955,2053
13,1.0027,-0.4475,-0.8767,-0.6344,-0.4534,-0.18,2073
13,1.0676,-0.4778,-0.8477,-0.6967,-0.5353,-0.1964,1978
13,1.1082,-0.5962,-0.7686,-0.8066,-0.5521,-0.227,2046
13,1.125,-0.6179,-0.7947,-0.9196,-0.7204,-0.2698,2043
13,1.1782,-0.657,-0.824,-1.1073,-0.8127,-0.3534,2049
13,1.2512,-0.5396,-0.9221,-1.1798,-1.0013,-0.4742,2128
13,1.3533,-0.5442,-1.0042,-1.0961,-0.9488,-0.5095,2090
13,1.3499,-0.51,-1.0728,-1.0262,-0.8937,-0.5153,2054
13,1.3955,-0.418,-1.0457,-0.9206,-0.7538,-0.5398,2058
13,1.437,-0.5081,-0.9785,-0.7373,-0.5562,-0.4882,2031
13,1.4177,-0.4583,-0.9485,-0.5681,-0.4904,-0.4326,2062
13,1.3376,-0.501,-0.8069,-0.346,-0.2452,-0.3377,2001
13,1.2458,-0.5405,-0.7864,-0.2173,-0.012,-0.1727,1878
13,1.2673,-0.3481,-0.814,-0.0365,0.012,-0.1004,2107
13,1.1548,-0.4956,-0.7344,0.0842,0.3473,0.1679,1995
13,1.0498,-0.1462,-0.8196,0.1571,0.204,0.2573,2056
13,1.0889,-0.2559,-0.7065,0.2807,0.335,0.5291,2102
13,1.0168,-0.2485,-0.7021,0.2502,0.3192,0.7237,2126
13,0.9084,-0.1187,-0.7019,0.1385,0.3157,0.8817,2029
13,0.9067,-0.1987,-0.6079,0.1005,0.3009,0.9922,2062
13,0.866,-0.1094,-0.6653,0.1036,0.2506,0.9931,2074
13,0.8608,-0.1562,-0.6682,0.0487,0.3316,1.0673,2178
13,0.8047,-0.1387,-0.6528,-0.0633,0.2541,0.9907,2032
13,0.7742,-0.21,-0.6519,-0.1891,0.331,0.9547,2057
13,0.7336,-0.2102,-0.6458,-0.3567,0.2839,0.8166,2024
13,0.7251,-0.1646,-0.5571,-0.4766,0.2962,0.6548,2007
13,0.7073,-0.2427,-0.5847,-0.4349,0.2165,0.4737,2091
13,0.7319,-0.1953,-0.5759,-0.3453,0.328,0.3948,2192
13,0.6467,-0.103,-0.5159,-0.3065,0.3892,0.1722,2030
13,0.6416,-0.1819,-0.4128,-0.2715,0.4743,0.0296,2070
13,0.6299,-0.0911,-0.3811,-0.1153,0.4293,-0.1759,2071
13,0.5864,-0.0862,-0.3757,0.0547,0.4346,-0.3496,1932
13,0.5671,-0.1462,-0.3396,0.1615,0.4702,-0.4377,2047
13,0.4763,-0.1304,-0.3276,0.2048,0.499,-0.5071,2062
13,0.4683,-0.0935,-0.313,0.2468,0.4565,-0.5458,2125
13,0.4241,-0.1938,-0.2996,0.1879,0.3802,-0.5332,2042
13,0.4062,-0.1016,-0.2959,0.1914,0.2826,-0.4817,2072
13,0.364,-0.0771,-0.2905,0.2152,0.1827,-0.3916,2087
13,0.4224,-0.2251,-0.303,0.1064,0.0894,-0.1935,2037
13,0.365,-0.0684,-0.3479,0.1168,-0.138,-0.1394,2043
13,0.4473,-0.22,-0.3364,0.0196,-0.1465,0.0892,2060
13,0.4053,-0.0911,-0.3733,-0.0201,-0.3634,0.1551,2048
13,0.4521,-0.2207,-0.384,-0.053,-0.4247,0.318,2060
13,0.4941,-0.1184,-0.3638,-0.0117,-0.5188,0.3594,2059
13,0.5542,-0.217,-0.4189,0.0362,-0.5902,0.4211,2098
13,0.5952,-0.2722,-0.4248,0.0148,-0.5327,0.4639,2015
13,0.6062,-0.2368,-0.4277,-0.0186,-0.5956,0.371,2032
13,0.6897,-0.3574,-0.4578,-0.0587,-0.5746,0.3388,2030
13,0.7063,-0.2573,-0.4648,-0.0618,-0.6658,0.1826,2035
13,0.8032,-0.3406,-0.5063,-0.0264,-0.6256,0.1087,2089
13,0.8354,-0.3486,-0.5698,0.0088,-0.6414,0.0309,2039
13,0.8855,-0.3508,-0.5889,-0.0137,-0.6066,-0.0679,1913
13,0.9465,-0.3447,-0.6724,-0.0189,-0.6508,-0.1531,2015
13,0.991,-0.3884,-0.7549,-0.0587,-0.644,-0.1999,2114
13,1.0354,-0.3044,-0.812,-0.0891,-0.6581,-0.2553,2164
13,1.0681,-0.3503,-0.864,-0.0908,-0.6316,-0.231,2041
13,1.105,-0.3784,-0.894,-0.1237,-0.6195,-0.2068,2013
13,1.1294,-0.4099,-0.9214,-0.1859,-0.6088,-0.1906,2038
13,1.1333,-0.4287,-0.9558,-0.2254,-0.6172,-0.1539,2071
13,1.1794,-0.4819,-1.0247,-0.2605,-0.61,-0.0953,2088
13,1.175,-0.4675,-1.0769,-0.3052,-0.5858,-0.0306,2055
13,1.1633,-0.4553,-1.1562,-0.3123,-0.5729,0.0395,2050
13,1.1616,-0.4651,-1.2412,-0.3103,-0.5184,0.1826,2053
13,1.1919,-0.4019,-1.3069,-0.3183,-0.4667,0.308,2062
13,1.1921,-0.3901,-1.321,-0.2622,-0.3549,0.4522,2029
13,1.1626,-0.344,-1.3149,-0.1655,-0.2069,0.5855,1999
13,1.1458,-0.3706,-1.2124,-0.082,0.0112,0.7247,2107
13,1.113,-0.4502,-1.1636,0.0007,0.1759,0.8408,2073
13,1.0356,-0.3479,-1.1123,0.0788,0.2416,0.8468,2094
13,1.0215,-0.3997,-1.0642,0.169,0.3168,0.8496,2097
13,0.9478,-0.3391,-1.0857,0.2346,0.3353,0.8144,2045
13,0.9248,-0.3469,-1.0532,0.2673,0.4377,0.8146,2071
13,0.9023,-0.2788,-1.0605,0.2826,0.4394,0.7822,2156
13,0.8833,-0.2883,-0.9888,0.3024,0.64,0.766,2067
13,0.8794,-0.2712,-0.9758,0.3185,0.6414,0.6685,2028
13,0.8406,-0.3159,-0.9158,0.2509,0.7116,0.6076,2032
13,0.8079,-0.2769,-0.8909,0.1778,0.713,0.479,2031
13,0.783,-0.2776,-0.8325,0.1059,0.7729,0.3811,2025
13,0.7539,-0.281,-0.7786,0.0248,0.8032,0.2053,2046
13,0.7424,-0.2449,-0.7896,0.0051,0.8618,0.0736,2047
13,0.7205,-0.2166,-0.7502,0.0194,0.9184,-0.0531,2000
13,0.6956,-0.2195,-0.697,0.0485,1.0142,-0.1422,2147
13,0.6477,-0.2002,-0.6021,0.0475,1.0947,-0.2121,2108
13,0.5928,-0.2568,-0.5767,0.0282,1.1147,-0.2617,2109
13,0.5928,-0.1919,-0.4963,-0.0236,1.0749,-0.3075,2092
13,0.5256,-0.2886,-0.446,-0.0747,1.0758,-0.3097,2088
13,0.4824,-0.2244,-0.4265,-0.1005,0.9887,-0.3345,2063
13,0.4768,-0.2837,-0.3831,-0.1401,0.9561,-0.2999,2094
14,0.446,-0.2349,-0.374,-0.1453,0.8463,-0.3043,2107
14,0.4392,-0.251,-0.3738,-0.1436,0.8114,-0.2582,2072
14,0.4143,-0.2551,-0.3572,-0.1198,0.7786,-0.1951,1942
14,0.4158,-0.2578,-0.3313,-0.1111,0.7995,-0.1083,2058
14,0.3794,-0.2852,-0.3501,-0.1226,0.706,-0.0595,2186
14,0.4084,-0.2332,-0.3132,-0.1186,0.6678,0.0,2073
14,0.3875,-0.2903,-0.3398,-0.0844,0.5414,0.0378,2070
14,0.3811,-0.2734,-0.3267,-0.0807,0.5369,0.1153,2039
14,0.4043,-0.231,-0.3513,-0.0423,0.4113,0.136,2166
14,0.3892,-0.2727,-0.3374,-0.0462,0.3737,0.1792,2157
14,0.418,-0.269,-0.3372,-0.0547,0.3045,0.2067,2065
14,0.3821,-0.3406,-0.3723,-0.0571,0.236,0.1996,2134
14,0.4126,-0.3108,-0.3694,-0.0803,0.1851,0.1884,2102
14,0.4343,-0.3286,-0.3967,-0.0284,0.0595,0.1244,2121
14,0.4644,-0.3267,-0.3953,0.0088,0.0834,0.108,2056
14,0.4751,-0.3884,-0.4043,0.015,0.0473,0.0521,2123
14,0.4956,-0.4111,-0.4141,-0.0265,0.0694,-0.0123,2051
14,0.5134,-0.4028,-0.4158,-0.0222,-0.0545,-0.1273,2032
14,0.5557,-0.4097,-0.4197,0.0007,-0.0726,-0.2129,2073
14,0.5757,-0.408,-0.4377,0.0447,-0.1108,-0.2859,2065
14,0.6045,-0.4343,-0.4592,0.0119,-0.1326,-0.3325,2007
14,0.6489,-0.4214,-0.5073,-0.0127,-0.2437,-0.3855,2042
14,0.7012,-0.457,-0.6057,-0.0898,-0.341,-0.3946,2065
14,0.7468,-0.4353,-0.6519,-0.2143,-0.4046,-0.4014,2058
14,0.791,-0.436,-0.7024,-0.2828,-0.5272,-0.3623,2011
14,0.8391,-0.4695,-0.7144,-0.3691,-0.5544,-0.2887,2068
14,0.8884,-0.4683,-0.7334,-0.448,-0.6269,-0.263,2068
14,0.9368,-0.4939,-0.7195,-0.5167,-0.6525,-0.2128,2146
14,1.0176,-0.5066,-0.7361,-0.5228,-0.7509,-0.2083,2058
14,1.0522,-0.5771,-0.7336,-0.5701,-0.7253,-0.1723,2072
14,1.0769,-0.5793,-0.749,-0.6577,-0.8384,-0.2322,2017
14,1.1426,-0.5454,-0.7883,-0.6982,-0.922,-0.29,2098
14,1.2397,-0.5476,-0.9336,-0.6883,-0.9729,-0.3181,2147
14,1.2717,-0.5049,-1.0144,-0.7404,-0.9459,-0.3345,2089
14,1.3213,-0.4844,-1.0732,-0.7998,-0.9146,-0.3268,2051
14,1.2939,-0.4697,-1.0891,-0.8392,-0.8644,-0.3365,2064
14,1.3391,-0.4348,-1.021,-0.7918,-0.7428,-0.3338,2127
14,1.2837,-0.4709,-0.9719,-0.6572,-0.5809,-0.3032,2102
14,1.2849,-0.3875,-0.9353,-0.4846,-0.496,-0.2738,2010
14,1.2827,-0.4495,-0.8901,-0.3252,-0.3115,-0.1667,2003
14,1.2358,-0.3376,-0.908,-0.2073,-0.2803,-0.0959,1994
14,1.1741,-0.2722,-0.8789,-0.1147,-0.2104,0.0168,2073
14,1.1499,-0.219,-0.874,-0.0515,-0.1513,0.1254,2020
14,1.1226,-0.1597,-0.8743,-0.0265,-0.084,0.2324,2094
14,1.0735,-0.0981,-0.8247,0.0024,-0.0312,0.3317,2065
14,1.0457,-0.0994,-0.8042,0.0209,0.039,0.4366,2099
14,0.9924,-0.1401,-0.7676,-0.0481,0.1455,0.532,2032
14,0.948,-0.0366,-0.7522,-0.0551,0.1181,0.549,2100
14,0.9167,-0.1038,-0.7014,-0.0498,0.2357,0.6071,2050
14,0.8857,-0.166,-0.7061,-0.1545,0.2675,0.5963,2031
14,0.8418,-0.1455,-0.6941,-0.3083,0.2938,0.5441,1988
14,0.8071,-0.2031,-0.6372,-0.4549,0.3803,0.4843,2112
14,0.8469,-0.084,-0.7148,-0.4201,0.2573,0.3574,2065
14,0.8164,-0.1047,-0.6702,-0.3896,0.4801,0.3324,1937
14,0.803,-0.1162,-0.6687,-0.3526,0.5011,0.2954,2032
14,0.7314,-0.1589,-0.6248,-0.3437,0.5888,0.223,2070
14,0.7122,-0.1875,-0.4929,-0.3444,0.7047,0.19,2042
14,0.647,-0.2249,-0.521,-0.3224,0.6189,0.0418,2062
14,0.6157,-0.26,-0.4138,-0.3147,0.7328,0.0395,1989
14,0.5681,-0.2327,-0.4358,-0.243,0.6311,-0.0951,2097
14,0.573,-0.125,-0.3606,-0.1726,0.6761,-0.0933,2115
14,0.5432,-0.2131,-0.3889,-0.0012,0.5618,-0.1549,2159
14,0.5227,-0.1914,-0.3279,0.0609,0.6951,-0.1001,2093
14,0.5044,-0.2595,-0.3557,0.1171,0.6486,-0.0718,2063
14,0.4646,-0.2549,-0.3362,0.1056,0.6076,-0.0149,2104
14,0.4653,-0.2285,-0.3376,0.1517,0.5141,0.0388,2071
14,0.4839,-0.2275,-0.3325,0.1344,0.4653,0.1483,2066
14,0.4219,-0.3115,-0.3313,0.0917,0.395,0.2437,2035
14,0.4583,-0.2339,-0.2754,0.01,0.3589,0.3223,2040
14,0.481,-0.1914,-0.3423,0.1314,0.0477,0.33,2028
14,0.533,-0.2058,-0.3499,0.1641,0.0651,0.4386,2064
14,0.5115,-0.2998,-0.3958,0.187,0.0462,0.4785,2005
14,0.5938,-0.1118,-0.3528,0.1842,0.0816,0.4635,2046
14,0.5498,-0.3423,-0.4072,0.1763,-0.1381,0.3926,2090
14,0.7012,-0.1409,-0.3845,0.2113,-0.085,0.3029,2070
14,0.6648,-0.27,-0.4316,0.2709,-0.121,0.2314,2051
14,0.697,-0.252,-0.4453,0.3115,-0.1105,0.1707,2070
14,0.7334,-0.3416,-0.4077,0.2752,0.0161,0.1125,2050
14,0.707,-0.2393,-0.4053,0.2207,-0.0736,-0.0635,2140
14,0.7917,-0.397,-0.4265,0.2244,-0.0663,-0.0454,2045
14,0.7708,-0.2749,-0.437,0.1318,-0.1057,-0.157,2031
14,0.8223,-0.3005,-0.4724,0.1256,-0.1711,-0.1447,2061
14,0.8503,-0.3423,-0.4934,0.0803,-0.2043,-0.1051,2200
14,0.8748,-0.2842,-0.5479,0.0447,-0.3232,-0.1216,2111
14,0.8806,-0.4294,-0.5417,-0.0184,-0.304,-0.0549,2034
14,0.9036,-0.3911,-0.5823,-0.078,-0.5121,-0.0763,2032
14,0.9487,-0.5303,-0.5891,-0.176,-0.4743,-0.0202,2154
14,0.9685,-0.5222,-0.6624,-0.2412,-0.708,-0.0403,2103
14,1.0376,-0.5955,-0.7061,-0.3007,-0.6891,-0.0182,2166
14,1.0234,-0.5701,-0.7529,-0.3207,-0.7296,-0.019,2029
14,1.1394,-0.4739,-0.8523,-0.2754,-0.8196,-0.0533,2095
14,1.1426,-0.5886,-0.8542,-0.2306,-0.6705,0.031,2041
14,1.126,-0.491,-0.9526,-0.2011,-0.6984,0.0282,2034
14,1.0977,-0.574,-0.9255,-0.2264,-0.5474,0.1019,1946
14,1.1157,-0.5137,-0.9517,-0.2204,-0.6217,0.1157,2103
14,1.1519,-0.5151,-0.9612,-0.1404,-0.5461,0.2109,2063
14,1.1235,-0.4668,-1.04,-0.0138,-0.5291,0.3132,1988
14,1.1055,-0.5586,-1.0762,0.0158,-0.3554,0.4669,2016
14,1.0415,-0.5215,-1.1604,-0.0553,-0.2963,0.5461,2063
14,1.0911,-0.4587,-1.2163,-0.1378,-0.3394,0.5915,2106
14,1.0757,-0.4558,-1.2292,-0.1635,-0.2554,0.6757,2101
14,1.0715,-0.3057,-1.2676,-0.1202,-0.2707,0.6887,2059
14,1.0859,-0.2866,-1.2361,0.0212,-0.1562,0.7151,2055
15,1.0498,-0.3459,-1.2122,0.1353,0.066,0.6918,2095
15,0.9973,-0.3269,-1.2202,0.1175,0.2727,0.5942,2090
15,0.9509,-0.323,-1.1409,0.1039,0.3926,0.4514,2033
15,0.9016,-0.3357,-1.0376,0.0964,0.5565,0.334,2054
15,0.8594,-0.2571,-0.9426,0.1645,0.6497,0.1878,2025
15,0.8391,-0.3364,-0.8794,0.2498,0.7316,0.147,2055
15,0.759,-0.3264,-0.7778,0.2048,0.8236,0.0413,2027
15,0.7603,-0.2983,-0.8057,0.1927,0.8019,-0.0336,2030
15,0.7002,-0.3879,-0.7527,0.0836,0.8807,-0.0754,2040
15,0.6555,-0.2993,-0.7302,-0.0686,0.8405,-0.2274,2099
15,0.6284,-0.2715,-0.6519,-0.1738,0.8074,-0.3139,2068
15,0.6379,-0.2832,-0.6174,-0.1269,0.7961,-0.3634,2096
15,0.647,-0.1814,-0.6125,-0.0029,0.7689,-0.4124,2095
15,0.5989,-0.3396,-0.5657,0.0146,0.8779,-0.3698,2035
15,0.5427,-0.2986,-0.5215,-0.0138,0.8878,-0.382,2029
15,0.5137,-0.304,-0.4954,-0.026,0.8188,-0.4337,2089
15,0.5435,-0.2166,-0.4397,0.1133,0.7213,-0.408,2063
15,0.4827,-0.3794,-0.4385,0.1637,0.7618,-0.3365,2097
15,0.4417,-0.2786,-0.4075,0.1547,0.7811,-0.2983,2022
15,0.4114,-0.3496,-0.3613,0.0963,0.7508,-0.2569,2045
15,0.4236,-0.1809,-0.3059,0.1758,0.5799,-0.2497,2068
15,0.4229,-0.3169,-0.3215,0.2378,0.5795,-0.1701,2100
15,0.3774,-0.1929,-0.3362,0.3517,0.496,-0.1072,2053
15,0.3899,-0.4292,-0.3091,0.2641,0.6011,0.0067,2043
15,0.3755,-0.1094,-0.2793,0.2563,0.4023,-0.0013,2112
15,0.3953,-0.2668,-0.3013,0.3356,0.2792,0.0615,2119
15,0.3733,-0.2368,-0.3323,0.3137,0.2362,0.1593,2120
15,0.4355,-0.2188,-0.3552,0.2819,0.2627,0.2476,2062
15,0.3665,-0.2007,-0.3201,0.1412,0.1426,0.2776,2094
15,0.4619,-0.1543,-0.3733,0.1176,-0.083,0.2497,2069
15,0.47,-0.24,-0.4475,0.1499,-0.1434,0.2406,2100
15,0.49,-0.1628,-0.4324,0.1701,-0.1043,0.2428,2012
15,0.4978,-0.282,-0.4597,0.1218,-0.084,0.2362,2091
15,0.499,-0.2571,-0.4714,0.0638,-0.1562,0.1148,2092
15,0.564,-0.3147,-0.4651,0.0244,-0.1946,-0.0202,2054
15,0.5955,-0.28,-0.4792,0.0385,-0.2205,-0.1386,2010
15,0.6196,-0.3511,-0.4802,0.0699,-0.2165,-0.1946,2115
15,0.6443,-0.4678,-0.4912,0.0148,-0.1894,-0.2501,2058
15,0.6924,-0.4055,-0.4575,-0.0553,-0.214,-0.3289,2011
15,0.719,-0.4785,-0.48,-0.0899,-0.3687,-0.4251,2052
15,0.7634,-0.4661,-0.4832,-0.1156,-0.3835,-0.4746,2041
15,0.8489,-0.4932,-0.5942,-0.1226,-0.504,-0.4833,2042
15,0.8418,-0.5405,-0.6055,-0.2236,-0.3979,-0.4301,2102
15,0.8757,-0.5413,-0.6609,-0.3124,-0.4809,-0.449,1998
15,0.9392,-0.5405,-0.6956,-0.388,-0.5151,-0.3988,2037
15,0.9727,-0.543,-0.7329,-0.4337,-0.538,-0.3559,2056
15,1.009,-0.563,-0.7571,-0.461,-0.5837,-0.3121,2007
15,1.0212,-0.6296,-0.7498,-0.5418,-0.5124,-0.2452,2048
15,1.0435,-0.5928,-0.7683,-0.62,-0.593,-0.2519,2094
15,1.1272,-0.5933,-0.8289,-0.6472,-0.6379,-0.2527,2023
15,1.2053,-0.5823,-0.9778,-0.7066,-0.6926,-0.2268,2044
15,1.2102,-0.5112,-1.1008,-0.8276,-0.7573,-0.2213,2034
15,1.281,-0.4004,-1.1326,-0.9159,-0.8284,-0.2159,2061
15,1.3218,-0.3831,-1.0803,-0.9331,-0.7966,-0.1683,2038
15,1.2988,-0.3594,-1.022,-0.823,-0.6332,-0.131,2149
15,1.231,-0.387,-0.958,-0.6698,-0.4257,-0.1208,2050
15,1.2378,-0.4126,-0.8872,-0.5484,-0.2693,-0.1265,2028
15,1.2356,-0.4492,-0.8496,-0.4334,-0.1442,-0.1178,2016
15,1.1897,-0.4006,-0.8716,-0.3406,-0.0915,-0.07,2019
15,1.1189,-0.3347,-0.866,-0.2702,-0.0498,-0.0023,2007
15,1.1128,-0.2317,-0.8584,-0.1783,-0.0534,0.0859,2111
15,1.1184,-0.1716,-0.8579,-0.0751,-0.0084,0.2127,2055
15,1.0632,-0.1841,-0.8083,-0.0953,0.1061,0.3386,2101
15,1.0225,-0.0857,-0.7649,-0.1218,0.1262,0.373,2120
15,1.0005,-0.0698,-0.7778,-0.0208,0.1691,0.4324,2092
15,0.989,-0.1331,-0.7556,-0.0083,0.3659,0.5469,2057
15,0.9128,-0.1431,-0.7581,-0.1119,0.3598,0.5733,2004
15,0.8521,-0.2429,-0.7048,-0.2835,0.3939,0.6047,2089
15,0.8291,-0.2505,-0.7109,-0.4228,0.3524,0.5414,2062
15,0.7649,-0.2209,-0.6384,-0.5006,0.4215,0.4722,2061
15,0.8245,-0.241,-0.675,-0.4606,0.4002,0.4334,2007
15,0.7695,-0.2651,-0.6511,-0.433,0.557,0.4063,2034
15,0.7566,-0.2227,-0.6223,-0.4133,0.5725,0.2947,2053
15,0.7297,-0.2732,-0.5684,-0.3714,0.6673,0.2522,2053
15,0.7124,-0.2063,-0.5342,-0.2726,0.6988,0.1065,2058
15,0.665,-0.311,-0.509,-0.2266,0.7719,0.0487,2042
15,0.6392,-0.2515,-0.4353,-0.171,0.8066,-0.0559,2062
15,0.5818,-0.3455,-0.406,-0.1944,0.8321,-0.1378,2058
15,0.5808,-0.158,-0.3723,-0.0611,0.7435,-0.2424,2119
15,0.5981,-0.2776,-0.3855,-0.0056,0.7678,-0.2631,2048
15,0.5378,-0.1677,-0.3928,0.1633,0.7078,-0.2721,2060
15,0.5056,-0.2786,-0.3291,0.1975,0.8269,-0.2031,2109
15,0.5178,-0.2336,-0.3442,0.1811,0.7377,-0.1621,2217
15,0.5017,-0.1843,-0.3213,0.2031,0.6709,-0.1185,2070
15,0.436,-0.3191,-0.3274,0.1281,0.5976,-0.0244,2113
15,0.5493,-0.1387,-0.3135,0.1639,0.5604,0.1148,2060
15,0.4558,-0.1506,-0.3235,0.246,0.439,0.1389,1997
15,0.5315,-0.2622,-0.2881,0.2203,0.4517,0.3301,2021
15,0.5537,-0.1536,-0.345,0.2618,0.3377,0.3461,2072
15,0.5361,-0.3423,-0.3259,0.1012,0.3376,0.4364,2093
15,0.595,-0.1453,-0.3071,0.1181,0.1976,0.3796,2127
15,0.6362,-0.2578,-0.3354,0.1449,0.0903,0.3108,2066
15,0.6887,-0.2805,-0.3713,0.1884,0.139,0.3168,2067
15,0.6965,-0.251,-0.4075,0.3192,0.1025,0.2128,2051
16,0.7727,-0.3689,-0.4214,0.3583,0.1942,0.2213,2026
16,0.793,-0.4277,-0.4224,0.3312,0.2,0.1459,2065
16,0.7803,-0.4089,-0.3914,0.1993,0.1708,-0.0012,2092
16,0.8374,-0.3828,-0.4543,0.1758,-0.0326,-0.1301,2054
16,0.8975,-0.3472,-0.4766,0.2091,-0.0132,-0.1762,2096
16,0.9456,-0.3657,-0.5056,0.2321,-0.0317,-0.19,2032
16,0.9485,-0.3923,-0.5356,0.2605,-0.0739,-0.169,2064
16,0.9609,-0.4141,-0.5127,0.2079,-0.0288,-0.1638,2057
16,0.9851,-0.522,-0.5491,0.0672,-0.1091,-0.1599,2000
16,0.9619,-0.4465,-0.5732,-0.0123,-0.3305,-0.1932,2022
16,1.1067,-0.4021,-0.624,0.0619,-0.4329,-0.1702,2158
16,1.1626,-0.5215,-0.7654,0.18,-0.4192,0.0024,2026
16,1.1025,-0.5537,-0.8135,0.0838,-0.3332,0.1443,2064
16,1.155,-0.4397,-0.8967,0.0438,-0.4988,0.1541,2064
16,1.1963,-0.634,-0.8916,0.0238,-0.3384,0.3297,2049
16,1.1663,-0.5193,-0.9739,-0.0216,-0.3706,0.4051,2060
16,1.1677,-0.6067,-0.9268,-0.0794,-0.3836,0.4797,2013
16,1.2019,-0.5515,-0.9866,-0.0762,-0.4645,0.5193,2085
16,1.2715,-0.5288,-1.0623,-0.0036,-0.4044,0.5797,2076
16,1.2336,-0.5676,-1.1208,0.1016,-0.2587,0.6349,2044
16,1.228,-0.5303,-1.1553,0.1519,-0.1092,0.6703,2046
16,1.2639,-0.5232,-1.1201,0.2706,-0.0273,0.6753,2056
16,1.2004,-0.644,-1.061,0.3003,0.2147,0.705,2003
16,1.2097,-0.3711,-1.1399,0.4444,0.0996,0.5549,2109
16,1.1306,-0.5933,-0.998,0.5536,0.499,0.6082,2037
16,1.0371,-0.4905,-1.0176,0.4883,0.6401,0.4605,1995
16,1.0239,-0.385,-0.9343,0.5035,0.6935,0.3127,2123
16,0.9956,-0.459,-0.8213,0.6147,0.9196,0.2768,2110
16,0.9219,-0.281,-0.8293,0.6939,1.0664,0.2124,2099
16,0.8965,-0.3557,-0.7988,0.7466,1.1144,0.204,2036
16,0.8323,-0.4202,-0.7297,0.608,1.2419,0.2229,2045
16,0.7424,-0.2959,-0.6782,0.4374,1.177,0.0963,2056
16,0.7336,-0.2964,-0.5913,0.3543,1.111,-0.0005,2091
16,0.7737,-0.2271,-0.6162,0.4211,1.0927,-0.0218,2106
16,0.7202,-0.3018,-0.624,0.4079,1.1529,-0.0384,2059
16,0.6445,-0.3379,-0.563,0.2968,1.2744,-0.0381,2050
16,0.5818,-0.3403,-0.468,0.1009,1.278,-0.1297,2094
16,0.592,-0.2908,-0.3948,0.0111,1.2073,-0.2297,2092
16,0.6267,-0.2979,-0.4033,0.0824,1.1661,-0.2665,2058
16,0.5972,-0.2122,-0.4036,0.2064,1.1147,-0.2762,2010
16,0.5698,-0.3298,-0.3618,0.2197,1.17,-0.2139,2100
16,0.5505,-0.2334,-0.3179,0.2836,1.0877,-0.1967,2069
16,0.5132,-0.3647,-0.2888,0.2886,1.0942,-0.2298,2113
16,0.4854,-0.2686,-0.2527,0.2948,1.0955,-0.2409,2077
16,0.4573,-0.2129,-0.2883,0.3971,0.9441,-0.2843,2039
16,0.4727,-0.3552,-0.2588,0.4442,0.9717,-0.2195,2040
16,0.438,-0.2576,-0.2468,0.5205,0.9649,-0.1943,2055
16,0.4556,-0.386,-0.1978,0.4746,1.0918,-0.0961,2010
16,0.407,-0.2732,-0.1855,0.45,0.9847,-0.0744,2097
16,0.4707,-0.25,-0.1941,0.4815,0.7854,-0.0566,2066
16,0.4575,-0.3655,-0.2375,0.5236,0.6341,-0.0041,2025
16,0.4971,-0.2275,-0.2258,0.5806,0.6349,0.0759,2014
16,0.4619,-0.3687,-0.2742,0.61,0.561,0.1852,2068
16,0.4905,-0.3545,-0.2134,0.532,0.5674,0.2326,2011
16,0.5315,-0.3381,-0.2214,0.5328,0.4842,0.2262,2053
16,0.53,-0.4231,-0.2468,0.4426,0.3581,0.2226,2108
16,0.5205,-0.4214,-0.2388,0.3722,0.3133,0.1691,2066
16,0.5508,-0.397,-0.2039,0.3659,0.2477,0.1177,2059
16,0.6089,-0.3799,-0.186,0.3615,0.1895,0.0786,2145
16,0.6357,-0.4619,-0.1721,0.3535,0.1437,0.0288,2024
16,0.6975,-0.3726,-0.1633,0.3669,0.0858,-0.0623,2103
16,0.7241,-0.4502,-0.1609,0.352,-0.0285,-0.1268,2040
16,0.7722,-0.4583,-0.2051,0.3543,-0.1361,-0.226,2071
16,0.8499,-0.4988,-0.2461,0.291,-0.1716,-0.2898,2067
16,0.8811,-0.4697,-0.2805,0.1839,-0.2413,-0.3878,2058
16,0.9512,-0.5842,-0.2993,0.1117,-0.2794,-0.3954,2009
16,0.9453,-0.5112,-0.3,0.0431,-0.304,-0.4504,2120
16,1.0029,-0.5522,-0.3184,0.0241,-0.3745,-0.4682,2043
16,1.0308,-0.5479,-0.2947,-0.0093,-0.4065,-0.4516,2008
16,1.0818,-0.5273,-0.2922,-0.0316,-0.4623,-0.4176,2061
16,1.0957,-0.6191,-0.2939,-0.1063,-0.4779,-0.351,2040
16,1.0881,-0.6301,-0.2881,-0.1875,-0.5569,-0.3007,2032
16,1.0813,-0.6643,-0.2754,-0.2902,-0.6521,-0.289,2093
16,1.1423,-0.7134,-0.2864,-0.3815,-0.7633,-0.236,2057
16,1.1675,-0.6941,-0.3037,-0.4802,-0.8673,-0.22,2097
16,1.2395,-0.6738,-0.4053,-0.4932,-0.9325,-0.1784,2055
16,1.2583,-0.6731,-0.4478,-0.5376,-0.9321,-0.1261,2060
16,1.2805,-0.5901,-0.5146,-0.5715,-0.9473,-0.1007,2095
16,1.2917,-0.5574,-0.5142,-0.6191,-0.9055,-0.0772,2092
16,1.2998,-0.5273,-0.5022,-0.5681,-0.8371,-0.024,2058
16,1.2793,-0.5146,-0.5068,-0.4743,-0.757,0.0225,2057
16,1.2168,-0.5239,-0.4888,-0.386,-0.6079,0.0827,2042
16,1.2002,-0.4751,-0.4832,-0.298,-0.5231,0.1208,2023
16,1.179,-0.4751,-0.4814,-0.2585,-0.456,0.1538,2032
16,1.1443,-0.3433,-0.5208,-0.2084,-0.4994,0.1498,2066
16,1.1431,-0.2615,-0.5601,-0.1171,-0.4942,0.2065,2029
16,1.1357,-0.2122,-0.5864,-0.0281,-0.4697,0.3007,2037
16,1.0891,-0.2756,-0.5437,-0.039,-0.3582,0.4309,2121
16,1.0369,-0.2542,-0.543,-0.136,-0.4277,0.4536,1987
16,1.0154,-0.2847,-0.4795,-0.2345,-0.4061,0.4678,2069
16,0.9956,-0.2998,-0.4487,-0.2948,-0.4137,0.4466,2137
16,0.9712,-0.2971,-0.4255,-0.3504,-0.3795,0.4328,2044
16,0.9519,-0.3196,-0.4087,-0.3996,-0.3566,0.3952,2064
16,0.9399,-0.3035,-0.4121,-0.4444,-0.3546,0.3224,2092
16,0.9419,-0.3721,-0.3977,-0.4935,-0.247,0.2693,2069
16,0.9033,-0.377,-0.4585,-0.541,-0.2563,0.1625,2057
16,0.8691,-0.4646,-0.395,-0.6048,-0.0921,0.127,2109
16,0.8328,-0.3325,-0.3679,-0.6407,-0.0808,-0.0245,2069
16,0.833,-0.5083,-0.3486,-0.6038,-0.0597,-0.1169,2016
16,0.7844,-0.4211,-0.2705,-0.4868,0.1478,-0.1505,2050
16,0.7234,-0.4114,-0.2959,-0.3412,0.089,-0.2878,2064
16,0.7065,-0.5024,-0.1729,-0.1783,0.2867,-0.276,2070
16,0.6843,-0.3953,-0.1519,-0.0281,0.3241,-0.3337,2066
16,0.6221,-0.2744,-0.158,0.1854,0.2599,-0.4121,2094
16,0.5884,-0.626,-0.1538,0.3342,0.3077,-0.4201,2095
16,0.6316,-0.3579,-0.0957,0.4388,0.4738,-0.3193,2065
16,0.4788,-0.2822,-0.2175,0.5444,0.2812,-0.4522,2093
17,0.5159,-0.4868,-0.1904,0.6255,0.3673,-0.3043,2053
17,0.5601,-0.3943,-0.2009,0.6272,0.3196,-0.2068,2094
17,0.5327,-0.3259,-0.3374,0.6437,0.0987,-0.1505,2057
17,0.5259,-0.3923,-0.2542,0.6349,0.127,0.0378,2089
17,0.5549,-0.283,-0.314,0.65,-0.0711,0.0738,2072
17,0.5872,-0.3799,-0.3628,0.6106,-0.1329,0.2396,2025
17,0.6077,-0.2471,-0.3628,0.6267,-0.3113,0.2485,2101
17,0.696,-0.4092,-0.4031,0.5954,-0.3583,0.3534,2029
17,0.6899,-0.2134,-0.4194,0.5731,-0.4358,0.3064,2147
17,0.7578,-0.2498,-0.4771,0.6391,-0.5133,0.2649,2059
17,0.8086,-0.2849,-0.4941,0.6058,-0.4123,0.255,2016
17,0.8572,-0.1892,-0.5579,0.6293,-0.456,0.151,2093
17,0.8701,-0.3071,-0.5103,0.567,-0.3168,0.1326,2051
17,0.8921,-0.2266,-0.5601,0.5714,-0.4095,-0.0312,2061
17,0.9529,-0.3459,-0.5078,0.5614,-0.3902,-0.0796,2065
17,0.9492,-0.2937,-0.4915,0.5227,-0.3468,-0.1808,2089
17,0.9885,-0.385,-0.5266,0.4694,-0.4284,-0.2116,2122
17,1.0234,-0.4177,-0.553,0.3808,-0.4791,-0.2634,2062
17,1.0913,-0.4988,-0.6453,0.2478,-0.5123,-0.271,2112
17,1.052,-0.4871,-0.717,0.0462,-0.5279,-0.3273,2019
17,1.1272,-0.5613,-0.8247,-0.1208,-0.5972,-0.3693,2067
17,1.1428,-0.5957,-0.8738,-0.2999,-0.5745,-0.3717,2107
17,1.1865,-0.5803,-0.9419,-0.3674,-0.5827,-0.3811,2062
17,1.2012,-0.6301,-0.8782,-0.3874,-0.4422,-0.3635,2088
17,1.2078,-0.6414,-0.8635,-0.3028,-0.3148,-0.4087,2039
17,1.2495,-0.7117,-0.8472,-0.1707,-0.127,-0.4404,2058
17,1.1797,-0.7722,-0.6748,-0.0762,0.1523,-0.4566,2055
17,1.1113,-0.7295,-0.6272,0.0204,0.3047,-0.5767,2060
17,1.0261,-0.7886,-0.521,0.1107,0.5107,-0.6389,2060
17,0.9827,-0.6702,-0.5891,0.2269,0.49,-0.7629,2036
17,0.9277,-0.7449,-0.5266,0.3426,0.6871,-0.7261,2111
17,0.8086,-0.5867,-0.5845,0.4069,0.6954,-0.7458,2029
17,0.8074,-0.6116,-0.6003,0.432,0.6642,-0.6875,2042
17,0.7239,-0.5342,-0.5813,0.3753,0.6384,-0.6279,2039
17,0.6855,-0.4714,-0.6265,0.324,0.4863,-0.5879,2062
17,0.7007,-0.4043,-0.647,0.3015,0.3561,-0.4952,2068
17,0.7102,-0.3127,-0.6746,0.3084,0.2643,-0.3767,2090
17,0.6887,-0.3586,-0.6018,0.1951,0.3366,-0.1876,1919
17,0.6318,-0.3164,-0.6145,0.0402,0.2449,-0.1045,2060
17,0.5796,-0.2917,-0.5293,-0.0822,0.2155,-0.0928,2056
17,0.6672,-0.2119,-0.5173,-0.0915,0.0153,-0.1348,2028
17,0.6956,-0.3276,-0.4819,-0.0903,0.1136,-0.0694,2087
17,0.5969,-0.2825,-0.5444,-0.079,0.1256,-0.1016,2016
17,0.594,-0.2817,-0.448,-0.1318,0.2641,-0.087,2052
17,0.603,-0.3088,-0.3723,-0.1968,0.2518,-0.1414,2044
17,0.4976,-0.4138,-0.3928,-0.2778,0.2394,-0.2406,2032
17,0.4905,-0.3682,-0.3267,-0.3895,0.2582,-0.2924,2061
17,0.5063,-0.3147,-0.3853,-0.3615,0.0997,-0.3904,2025
17,0.5413,-0.2913,-0.3438,-0.281,0.1831,-0.3575,2119
17,0.51,-0.335,-0.3831,-0.2967,0.1814,-0.3578,2097
17,0.509,-0.1824,-0.4128,-0.2266,0.0368,-0.3836,2061
17,0.5811,-0.3379,-0.427,-0.2257,0.0423,-0.3426,2069
17,0.5535,-0.1816,-0.4097,-0.2019,0.0465,-0.3015,2033
17,0.5776,-0.2488,-0.4741,-0.139,-0.1314,-0.2923,2049
17,0.6155,-0.3142,-0.4407,-0.1587,-0.1919,-0.2547,2054
17,0.6274,-0.4387,-0.3987,-0.2507,-0.082,-0.176,2107
17,0.5784,-0.2834,-0.4299,-0.336,-0.2583,-0.2373,2056
17,0.688,-0.438,-0.4211,-0.302,-0.382,-0.2559,2044
17,0.7256,-0.436,-0.4041,-0.2123,-0.3775,-0.2872,2057
17,0.7383,-0.488,-0.4294,-0.1385,-0.2622,-0.2715,2062
17,0.7815,-0.5239,-0.3821,-0.1156,-0.2268,-0.2729,2051
17,0.823,-0.634,-0.4229,-0.0206,-0.3069,-0.3738,2058
17,0.9077,-0.6172,-0.3696,0.0506,-0.1934,-0.4026,2062
17,0.8584,-0.5669,-0.4036,0.1007,-0.1847,-0.5211,2060
17,0.9375,-0.5852,-0.4724,0.1598,-0.1662,-0.548,2028
17,0.9453,-0.5649,-0.4861,0.1687,-0.0843,-0.5568,2032
17,0.9646,-0.5188,-0.4917,0.1352,-0.0639,-0.5477,1984
17,0.9666,-0.5002,-0.5278,0.0587,-0.1101,-0.5079,2115
17,0.998,-0.4382,-0.5667,-0.0099,-0.21,-0.4557,2070
17,1.0786,-0.4617,-0.6392,-0.0629,-0.344,-0.3292,2052
17,1.0867,-0.4075,-0.6262,-0.2246,-0.4634,-0.173,2034
17,1.1643,-0.363,-0.7109,-0.3306,-0.7474,-0.0883,2070
17,1.2632,-0.3433,-0.7241,-0.3635,-0.8778,0.0197,2058
17,1.3374,-0.3613,-0.7249,-0.348,-0.9216,0.1296,2061
17,1.3674,-0.3804,-0.6907,-0.3819,-0.8644,0.2009,2052
17,1.3655,-0.3989,-0.6311,-0.4112,-0.8168,0.1792,2070
17,1.3652,-0.4434,-0.5867,-0.4315,-0.7204,0.09,2093
17,1.3477,-0.4404,-0.5596,-0.4097,-0.6457,-0.0205,2097
17,1.3098,-0.4424,-0.5312,-0.3386,-0.5243,-0.0846,1977
17,1.271,-0.4744,-0.5366,-0.2685,-0.3944,-0.1097,2034
17,1.2104,-0.4268,-0.5635,-0.2188,-0.3408,-0.1011,2061
17,1.1799,-0.4351,-0.575,-0.1364,-0.3011,-0.0511,2067
17,1.1277,-0.3313,-0.5613,-0.1045,-0.3611,0.0051,2047
17,1.1401,-0.2959,-0.5786,-0.0427,-0.3948,0.1117,2086
17,1.1375,-0.1924,-0.6042,-0.0244,-0.428,0.2068,2137
17,1.136,-0.1543,-0.6067,0.0384,-0.4429,0.2986,2099
17,1.1184,-0.1724,-0.5757,0.0164,-0.3055,0.4249,2064
17,1.0618,-0.0129,-0.6099,0.039,-0.3526,0.4454,2088
17,1.0681,-0.2253,-0.4648,0.0146,-0.2191,0.5289,2047
17,0.9768,-0.1699,-0.4575,-0.1298,-0.2294,0.5088,2043
17,0.9702,-0.1501,-0.4717,-0.1381,-0.3052,0.4217,2023
17,0.9583,-0.2661,-0.4133,-0.1617,-0.1952,0.4054,2055
17,0.9905,-0.1038,-0.5823,-0.0952,-0.234,0.285,2103
17,0.8892,-0.2927,-0.448,-0.1561,0.1314,0.3959,2135
17,0.7761,-0.1172,-0.4446,-0.3635,0.0807,0.2296,2069
17,0.8052,-0.2053,-0.4551,-0.3223,0.0184,0.1115,2062
17,0.7852,-0.2756,-0.3396,-0.3739,0.212,0.0896,2099
17,0.6609,-0.0879,-0.4255,-0.3745,0.1638,-0.0625,2062
17,0.6975,-0.2266,-0.3198,-0.3541,0.2963,-0.022,2005
17,0.6604,-0.0947,-0.3257,-0.3585,0.2939,-0.1405,2020
17,0.5972,-0.2668,-0.2766,-0.3618,0.4228,-0.1093,2053
17,0.5171,-0.0969,-0.2485,-0.389,0.383,-0.1843,2054
17,0.509,-0.2017,-0.2258,-0.3574,0.3061,-0.2446,2032
17,0.5264,-0.1233,-0.2327,-0.2563,0.2879,-0.2277,2044
17,0.4749,-0.1887,-0.2393,-0.2602,0.2856,-0.2326,2091
18,0.449,-0.0427,-0.2942,-0.1433,0.1294,-0.2412,2059
18,0.5027,-0.2004,-0.2634,-0.1581,0.2072,-0.1434,2056
18,0.4597,-0.0686,-0.3313,-0.1024,0.0557,-0.1218,2004
18,0.4915,-0.2542,-0.2869,-0.1541,0.082,-0.0004,2061
18,0.4668,-0.1001,-0.3113,-0.1601,-0.1296,-0.0208,2026
18,0.5181,-0.2124,-0.3176,-0.133,-0.2369,0.0072,2108
18,0.5881,-0.1882,-0.365,-0.1035,-0.3135,0.0121,2033
18,0.6228,-0.3015,-0.3909,-0.1116,-0.2816,0.0663,2056
18,0.6118,-0.3179,-0.3716,-0.1774,-0.3051,0.0738,2058
18,0.6653,-0.4077,-0.3647,-0.2542,-0.3635,0.0079,2112
18,0.697,-0.4104,-0.3362,-0.333,-0.4742,-0.1209,2072
18,0.7751,-0.3721,-0.4341,-0.2501,-0.634,-0.3057,2061
18,0.8665,-0.4543,-0.4573,-0.1289,-0.5952,-0.3255,2070
18,0.8936,-0.4744,-0.4409,-0.1151,-0.4773,-0.3773,2067
18,0.8992,-0.45,-0.4685,-0.1136,-0.4928,-0.4677,2068
18,0.9963,-0.4658,-0.4946,-0.0816,-0.5936,-0.5809,2121
18,1.0505,-0.5037,-0.5293,-0.0282,-0.6044,-0.6351,2042
18,1.0303,-0.4988,-0.5413,-0.0266,-0.571,-0.5998,2076
18,1.0659,-0.5464,-0.5952,-0.0796,-0.6209,-0.5928,1980
18,1.0637,-0.4602,-0.6785,-0.1593,-0.643,-0.5112,2069
18,1.1248,-0.4187,-0.7783,-0.1732,-0.7778,-0.4526,1987
18,1.1843,-0.3936,-0.7246,-0.142,-0.8313,-0.265,2013
18,1.282,-0.3748,-0.7864,-0.1542,-0.8126,-0.0535,1986
18,1.1545,-0.3479,-0.8811,0.0256,-0.6995,0.214,2005
18,1.2261,-0.3994,-0.8901,-0.0574,-0.7067,0.4163,2091
18,1.2024,-0.4241,-0.9458,-0.0096,-0.6012,0.5835,2072
18,1.2339,-0.4944,-0.99,-0.0747,-0.6168,0.6931,2059
18,1.2493,-0.4771,-1.0842,-0.0908,-0.6578,0.7035,2068
18,1.3245,-0.4153,-1.137,-0.1067,-0.6405,0.7337,2061
18,1.3174,-0.3628,-1.2312,0.0236,-0.5627,0.7131,2097
18,1.2734,-0.3896,-1.2002,0.0948,-0.2493,0.728,2055
18,1.2322,-0.3083,-1.1807,0.2048,-0.0847,0.6304,2138
18,1.2393,-0.3293,-1.0886,0.3412,0.0979,0.4962,2064
18,1.1882,-0.3362,-1.0457,0.4488,0.2598,0.351,2073
18,1.0618,-0.1812,-1.0564,0.4576,0.2591,0.1996,2043
18,1.002,-0.261,-0.9473,0.4597,0.4457,0.0972,2062
18,0.9199,-0.1995,-0.938,0.3666,0.4646,-0.0044,2050
18,0.8518,-0.1775,-0.8691,0.3067,0.5413,-0.0766,2059
18,0.8032,-0.1938,-0.801,0.1962,0.4974,-0.0758,2066
18,0.8113,-0.0757,-0.824,0.1501,0.4537,-0.1658,2043
18,0.7727,-0.209,-0.7444,0.0353,0.5177,-0.0788,2040
18,0.7324,-0.0828,-0.7439,-0.1704,0.4006,-0.165,2073
18,0.7439,-0.1172,-0.6821,-0.1972,0.3659,-0.1983,2102
18,0.7717,-0.1562,-0.7219,-0.241,0.3618,-0.2511,2103
18,0.7166,-0.1829,-0.7009,-0.3205,0.4783,-0.2693,2129
18,0.6973,-0.1902,-0.6516,-0.4084,0.4868,-0.3414,2074
18,0.696,-0.2598,-0.562,-0.4778,0.5542,-0.3738,2070
18,0.6389,-0.1711,-0.542,-0.4315,0.4711,-0.4787,1994
18,0.6689,-0.3137,-0.4651,-0.3819,0.5339,-0.4907,2063
18,0.572,-0.2424,-0.4409,-0.3891,0.5952,-0.5369,2061
18,0.5374,-0.2539,-0.384,-0.3621,0.5617,-0.5939,2029
18,0.5784,-0.2947,-0.3674,-0.3111,0.5801,-0.6094,2089
18,0.5337,-0.1621,-0.4377,-0.1003,0.4661,-0.679,2022
18,0.5771,-0.3408,-0.3362,-0.0233,0.724,-0.4866,2053
18,0.4644,-0.2405,-0.3777,-0.0537,0.7245,-0.4421,2158
18,0.4626,-0.332,-0.3225,-0.1357,0.6726,-0.3382,2071
18,0.4109,-0.1899,-0.3484,-0.1337,0.4513,-0.3767,2097
18,0.5046,-0.2063,-0.3779,0.018,0.3288,-0.287,2069
18,0.5076,-0.2119,-0.4299,0.1325,0.3843,-0.1336,2043
18,0.5005,-0.1855,-0.5044,0.1551,0.4046,0.0138,2152
18,0.5076,-0.2446,-0.4751,0.0752,0.404,0.1433,2072
18,0.4756,-0.2322,-0.4512,-0.0535,0.3452,0.1973,2026
18,0.4824,-0.1479,-0.5098,-0.0152,0.1031,0.1281,2061
18,0.5703,-0.3101,-0.4619,0.0248,0.2037,0.2175,2066
18,0.5474,-0.2571,-0.5188,0.0252,0.229,0.184,2056
18,0.5532,-0.3599,-0.4285,-0.0344,0.3392,0.2004,2012
18,0.5781,-0.2383,-0.4421,-0.0302,0.2622,0.0754,2050
18,0.6482,-0.2681,-0.4392,0.1081,0.1866,-0.049,2120
18,0.7236,-0.3181,-0.4382,0.1858,0.2842,-0.0467,2059
18,0.6885,-0.2856,-0.4578,0.1147,0.2421,-0.0959,2055
18,0.7393,-0.2954,-0.4802,0.0197,0.0708,-0.1467,2095
18,0.8276,-0.24,-0.5776,-0.0033,-0.1529,-0.2602,2036
18,0.906,-0.3047,-0.6797,-0.0625,-0.235,-0.2236,2019
18,0.9033,-0.2446,-0.7712,-0.1816,-0.349,-0.2063,2094
18,0.999,-0.2627,-0.844,-0.2398,-0.4253,-0.1754,2142
18,1.0723,-0.3176,-0.8254,-0.3099,-0.3815,-0.072,2076
18,1.1145,-0.3179,-0.7852,-0.385,-0.4494,-0.0364,2116
18,1.1809,-0.4092,-0.7041,-0.4183,-0.5209,-0.0056,2089
18,1.2375,-0.4636,-0.6775,-0.4802,-0.6196,-0.0113,2106
18,1.2864,-0.4753,-0.676,-0.5453,-0.7303,-0.0686,2066
18,1.3835,-0.4175,-0.7412,-0.4719,-0.8172,-0.1645,2092
18,1.4636,-0.4424,-0.7703,-0.3513,-0.6934,-0.1742,2043
18,1.4241,-0.4448,-0.7461,-0.287,-0.5211,-0.1718,2032
18,1.3979,-0.4463,-0.7048,-0.2293,-0.4064,-0.1984,2015
18,1.3711,-0.4507,-0.6487,-0.133,-0.2878,-0.2079,2090
18,1.3293,-0.4075,-0.623,0.019,-0.2045,-0.1683,2065
18,1.3127,-0.3923,-0.6294,0.1815,-0.0674,-0.035,2055
18,1.2048,-0.3345,-0.6204,0.2719,0.0105,0.1293,2007
18,1.1379,-0.2297,-0.6384,0.3595,-0.0554,0.2334,2100
18,1.1306,-0.1355,-0.6538,0.4817,-0.11,0.3679,2106
18,1.0999,-0.1094,-0.6477,0.5325,-0.0666,0.5597,2067
18,1.0283,-0.0515,-0.6343,0.4541,-0.0961,0.6939,2016
18,1.0012,0.0674,-0.6174,0.4123,-0.2104,0.7263,2071
18,1.042,0.0134,-0.5972,0.4333,-0.1429,0.7789,2118
18,0.9431,0.0012,-0.6147,0.3248,-0.1019,0.8476,1971
18,0.9131,0.0679,-0.5974,0.2707,-0.1036,0.8062,2089
18,0.9055,-0.0408,-0.5911,0.2175,-0.075,0.806,2084
18,0.8416,-0.0356,-0.5696,0.0506,-0.016,0.7604,2101
18,0.7593,-0.0493,-0.5469,-0.0779,-0.0429,0.6899,2051
18,0.7715,-0.1511,-0.4993,-0.2164,-0.0003,0.6188,2075
18,0.6819,-0.0901,-0.4753,-0.2958,-0.0129,0.4673,2061
18,0.7178,-0.1194,-0.4666,-0.3031,-0.0019,0.3711,2077
19,0.6816,-0.043,-0.4631,-0.295,0.0312,0.2438,2024
19,0.6599,-0.1594,-0.4209,-0.3537,0.1107,0.1505,1971
19,0.5881,-0.2158,-0.3442,-0.5176,0.1695,0.0915,2009
19,0.5352,-0.1064,-0.3574,-0.5998,0.0131,-0.0985,2103
19,0.5667,-0.1814,-0.3079,-0.5556,-0.0377,-0.1771,2043
19,0.5725,-0.1716,-0.3328,-0.4952,-0.0427,-0.2301,2068
19,0.5134,-0.178,-0.3337,-0.4368,-0.0113,-0.2201,2052
19,0.4949,-0.1702,-0.3311,-0.3698,-0.0418,-0.2185,2030
19,0.5164,-0.2114,-0.2998,-0.2959,-0.0148,-0.1473,2027
19,0.4822,-0.1733,-0.3376,-0.1902,-0.0988,-0.1637,2061
19,0.5117,-0.3118,-0.2822,-0.1526,-0.0368,0.0048,2031
19,0.4517,-0.1548,-0.3313,-0.0732,-0.1511,-0.0152,2019
19,0.501,-0.2957,-0.3032,-0.0748,-0.1629,0.1278,2027
19,0.49,-0.187,-0.3372,-0.0357,-0.2872,0.1024,2071
19,0.5618,-0.3879,-0.3311,-0.0526,-0.1839,0.243,2093
19,0.5032,-0.2131,-0.3496,-0.0683,-0.2176,0.2055,2027
19,0.5823,-0.291,-0.396,-0.0222,-0.293,0.2176,2091
19,0.6794,-0.1975,-0.4602,0.1061,-0.434,0.1826,2096
19,0.7202,-0.408,-0.4893,0.1033,-0.3155,0.2585,2031
19,0.6768,-0.1936,-0.5044,0.098,-0.3635,0.1685,1968
19,0.8044,-0.5681,-0.5,-0.026,-0.3392,0.1518,2064
19,0.7429,-0.1978,-0.5303,-0.0554,-0.4085,-0.0132,2021
19,0.8525,-0.4497,-0.5713,-0.0666,-0.4662,-0.1268,2143
19,0.8921,-0.3982,-0.5269,-0.1216,-0.3662,-0.1635,1999
19,0.875,-0.3574,-0.5923,-0.246,-0.4072,-0.3064,2012
19,0.9363,-0.395,-0.6252,-0.2514,-0.4472,-0.3699,2053
19,1.0415,-0.3523,-0.6138,-0.2386,-0.4365,-0.4454,2137
19,1.0391,-0.2307,-0.7185,-0.0671,-0.5038,-0.4524,2048
19,1.1873,-0.3672,-0.7131,0.0225,-0.3762,-0.341,2033
19,1.1074,-0.3623,-0.7866,-0.0964,-0.2473,-0.2076,1989
19,1.1069,-0.3196,-0.8674,-0.2569,-0.4223,-0.1854,2182
19,1.1311,-0.4958,-0.8464,-0.4092,-0.371,-0.0537,2108
19,1.0879,-0.366,-0.9219,-0.5376,-0.45,0.0087,2061
19,1.1287,-0.425,-0.906,-0.4878,-0.4008,0.1145,2077
19,1.2141,-0.4956,-1.0237,-0.6276,-0.5452,0.2081,2020
19,1.1021,-0.4001,-1.1462,-0.501,-0.3926,0.339,2042
19,1.1846,-0.4043,-1.1572,-0.5356,-0.4725,0.3717,2070
19,1.1975,-0.3694,-1.3259,-0.4188,-0.314,0.4814,2054
19,1.2095,-0.3147,-1.2976,-0.2714,-0.2324,0.5016,2077
19,1.2258,-0.2993,-1.3232,-0.1148,-0.0832,0.5896,2073
19,1.1799,-0.3083,-1.2151,0.037,0.1599,0.6407,2070
19,1.0874,-0.3176,-1.1785,0.0902,0.2653,0.6456,2008
19,1.0667,-0.2434,-1.1768,0.2004,0.2012,0.5008,2108
19,1.0261,-0.3804,-1.0676,0.2575,0.3229,0.4874,2071
19,0.9429,-0.2346,-1.1243,0.2775,0.3301,0.3779,2128
19,0.8779,-0.2908,-1.0127,0.2722,0.487,0.3816,2033
19,0.8711,-0.1975,-0.998,0.2559,0.4814,0.2679,2098
19,0.8352,-0.1838,-0.8733,0.2762,0.5486,0.2527,2021
19,0.8301,-0.1516,-0.8857,0.2772,0.5119,0.1922,2061
19,0.7925,-0.158,-0.8486,0.2357,0.5702,0.186,1985
19,0.7668,-0.1692,-0.8542,0.0808,0.5412,0.1281,2096
19,0.7141,-0.2781,-0.75,-0.1739,0.6231,0.1218,2001
19,0.6487,-0.0161,-0.7605,-0.238,0.4597,-0.0943,2109
19,0.7603,-0.2139,-0.6921,-0.1722,0.5405,-0.1204,2058
19,0.7144,-0.1938,-0.7219,-0.2197,0.708,-0.1069,2045
19,0.6055,-0.1848,-0.6431,-0.3741,0.7688,-0.1169,2051
19,0.6057,-0.1604,-0.5503,-0.387,0.693,-0.1854,2016
19,0.6235,-0.2419,-0.5115,-0.3767,0.7243,-0.2468,2054
19,0.5498,-0.248,-0.4812,-0.3666,0.7412,-0.2722,2066
19,0.5061,-0.2378,-0.4399,-0.3951,0.7114,-0.3189,2095
19,0.4976,-0.2219,-0.4092,-0.3497,0.7064,-0.3468,2071
19,0.5105,-0.3274,-0.3853,-0.3589,0.7871,-0.299,2066
19,0.4158,-0.1272,-0.3687,-0.2549,0.6963,-0.3783,2069
19,0.4858,-0.3127,-0.343,-0.186,0.6713,-0.3184,2052
19,0.4556,-0.217,-0.3672,-0.1088,0.6734,-0.259,2055
19,0.4141,-0.1792,-0.3911,-0.0647,0.6032,-0.2019,2076
19,0.438,-0.2349,-0.3723,-0.0328,0.5078,-0.1213,2051
19,0.4785,-0.3252,-0.3577,-0.1024,0.5573,0.0365,2011
19,0.3181,-0.0369,-0.4519,-0.018,0.2987,-0.0224,2057
19,0.5164,-0.3206,-0.377,0.0241,0.355,0.1972,2140
19,0.4614,-0.3008,-0.4685,-0.1097,0.2819,0.2242,2061
19,0.3835,-0.0732,-0.5139,-0.0268,0.1043,0.2071,2049
19,0.5708,-0.3484,-0.4744,-0.0092,0.2147,0.377,2026
19,0.5115,-0.2478,-0.5322,-0.0527,0.2105,0.3396,2047
19,0.4827,-0.3164,-0.5288,-0.0614,0.2153,0.3706,2100
19,0.5498,-0.353,-0.5071,-0.0939,0.2959,0.3751,2030
19,0.5469,-0.2595,-0.5186,-0.0744,0.1895,0.2336,2044
19,0.605,-0.4255,-0.4749,-0.0627,0.2329,0.2093,2108
19,0.5964,-0.3499,-0.5215,-0.1027,0.2088,0.1087,2094
19,0.5935,-0.2671,-0.5156,-0.0886,0.0815,-0.03,2030
19,0.7415,-0.3789,-0.5459,-0.0281,-0.019,-0.0943,2063
19,0.7549,-0.406,-0.5774,-0.1163,0.0459,-0.072,2045
19,0.6931,-0.2886,-0.6787,-0.1923,-0.2073,-0.2424,2095
19,0.8481,-0.4961,-0.6829,-0.2386,-0.234,-0.1758,2065
19,0.8557,-0.3987,-0.7881,-0.3211,-0.3577,-0.2498,2089
19,0.884,-0.5723,-0.7856,-0.4129,-0.3742,-0.2071,2068
19,0.9165,-0.5051,-0.8101,-0.5032,-0.4409,-0.2213,2011
19,1.0205,-0.5002,-0.7915,-0.4934,-0.5012,-0.2189,2144
19,1.1052,-0.6218,-0.8125,-0.4414,-0.5002,-0.1567,1988
19,1.0903,-0.6108,-0.8232,-0.5681,-0.5432,-0.055,2011
19,1.1516,-0.5166,-0.7715,-0.616,-0.7625,-0.1092,2141
19,1.2808,-0.6587,-0.7896,-0.4927,-0.7036,-0.0819,2030
19,1.3254,-0.6196,-0.8816,-0.4529,-0.7059,-0.0807,2047
19,1.2776,-0.6038,-0.8254,-0.4072,-0.5998,-0.0823,2031
19,1.3433,-0.6067,-0.8181,-0.2919,-0.5509,-0.1109,2094
19,1.3245,-0.5103,-0.752,-0.0573,-0.4385,-0.1384,2095
19,1.3013,-0.6003,-0.7305,0.1943,-0.2064,-0.0903,2000
19,1.2173,-0.4519,-0.8188,0.2886,-0.1578,-0.0385,1998
19,1.1746,-0.407,-0.74,0.3808,-0.187,-0.0088,2110
19,1.1675,-0.3748,-0.7375,0.437,-0.1479,0.0611,2032
19,1.104,-0.1116,-0.7949,0.559,-0.2714,0.0766,2047
19,1.114,-0.144,-0.7532,0.6343,-0.126,0.2314,2056
19,1.0781,0.0664,-0.7705,0.6163,-0.1364,0.2752,2123
20,1.0403,-0.0308,-0.6858,0.5847,-0.0638,0.3866,2065
20,1.001,0.0215,-0.7383,0.4787,-0.0916,0.4137,2121
20,0.9263,0.1223,-0.6423,0.4183,-0.0462,0.3972,2140
20,0.9519,0.0056,-0.6362,0.3808,-0.0133,0.4358,2040
20,0.9128,0.0254,-0.6533,0.2325,-0.0027,0.3731,1993
20,0.7881,0.0012,-0.5908,0.0569,0.0427,0.3264,1982
20,0.8713,0.0684,-0.6372,0.0145,-0.0278,0.1795,2285
20,0.8142,-0.0569,-0.6025,-0.0011,0.1653,0.1896,2031
20,0.7312,-0.0168,-0.6406,-0.1254,0.1317,0.0955,2034
20,0.6907,-0.1211,-0.5679,-0.2713,0.2091,0.047,2103
20,0.6416,-0.1653,-0.5442,-0.4273,0.2137,-0.0599,2052
20,0.5967,-0.1409,-0.4463,-0.5309,0.2165,-0.1658,2069
20,0.6167,-0.1553,-0.4336,-0.5151,0.1437,-0.276,2076
20,0.6094,-0.1218,-0.4387,-0.456,0.1538,-0.3056,2064
20,0.5588,-0.1836,-0.4202,-0.4737,0.2241,-0.3043,2035
20,0.4998,-0.179,-0.3569,-0.4947,0.1888,-0.3512,2156
20,0.5066,-0.2102,-0.3411,-0.501,0.1186,-0.4059,2039
20,0.5044,-0.2031,-0.366,-0.4326,0.0664,-0.4168,2059
20,0.4771,-0.0679,-0.4038,-0.3131,-0.076,-0.4651,2037
20,0.5349,-0.2483,-0.3716,-0.2758,-0.0185,-0.3609,2060
20,0.4504,-0.1104,-0.4089,-0.1795,-0.0555,-0.3413,2128
20,0.491,-0.1694,-0.3794,-0.1189,-0.0983,-0.281,2135
20,0.533,-0.1396,-0.3989,-0.0366,-0.1727,-0.2288,2020
20,0.5342,-0.2007,-0.4072,-0.0111,-0.1589,-0.1245,2144
20,0.4812,-0.1951,-0.4258,-0.0413,-0.2169,-0.0449,2107
20,0.5037,-0.1084,-0.4006,0.0129,-0.3521,0.0059,2127
20,0.6013,-0.335,-0.4253,0.0286,-0.4179,0.0863,2049
20,0.5518,-0.2412,-0.4214,-0.0125,-0.285,0.1774,1986
20,0.533,-0.1643,-0.3865,-0.0362,-0.4109,0.1156,2026
20,0.7432,-0.4109,-0.394,-0.0365,-0.4284,0.1479,2026
20,0.6843,-0.2046,-0.4778,-0.0192,-0.4181,0.0443,2060
20,0.7014,-0.3555,-0.4934,-0.0442,-0.3956,0.0208,2119
20,0.7939,-0.2937,-0.5034,-0.084,-0.3464,-0.0238,2069
20,0.7839,-0.2361,-0.5391,-0.0768,-0.4016,-0.1611,2107
20,0.8799,-0.3096,-0.5774,0.0063,-0.3766,-0.2027,2042
20,0.8894,-0.3091,-0.6306,-0.0517,-0.3448,-0.2472,2027
20,0.8564,-0.259,-0.677,-0.0965,-0.4365,-0.2979,2075
20,0.9727,-0.3064,-0.6729,-0.1111,-0.4694,-0.3077,2104
20,0.991,-0.387,-0.7258,-0.153,-0.4639,-0.2763,2039
20,1.0115,-0.2937,-0.8079,-0.198,-0.5485,-0.2811,2021
20,1.0664,-0.3967,-0.7583,-0.243,-0.4883,-0.1718,2067
20,1.0752,-0.3269,-0.8569,-0.2619,-0.552,-0.1483,2061
20,1.1421,-0.4116,-0.8035,-0.2826,-0.5068,-0.0233,2108
20,1.1296,-0.3857,-0.8704,-0.297,-0.5327,0.0398,2023
20,1.1296,-0.4543,-0.863,-0.2958,-0.4746,0.104,2130
20,1.1558,-0.4812,-0.9495,-0.2967,-0.5165,0.1481,2016
20,1.1345,-0.4961,-0.9587,-0.2681,-0.4565,0.2112,2074
20,1.1733,-0.4788,-1.0952,-0.194,-0.4943,0.2547,2025
20,1.1763,-0.4604,-1.0957,-0.1394,-0.4061,0.3534,2047
20,1.231,-0.4177,-1.2524,-0.2053,-0.4942,0.4223,2061
20,1.0698,-0.2253,-1.314,0.1358,-0.328,0.4799,2095
20,1.1465,-0.3381,-1.1423,0.2135,-0.1473,0.6707,2071
20,1.0896,-0.1985,-1.22,0.4408,-0.0049,0.7196,2108
20,1.0244,-0.2708,-1.1431,0.4558,0.1305,0.8372,2004
20,0.9773,-0.1621,-1.2051,0.4144,0.0414,0.807,2153
20,0.9404,-0.1606,-1.1384,0.3806,0.0361,0.7749,2062
20,0.9451,-0.1311,-1.1653,0.3543,0.0336,0.7235,2105
20,0.8965,-0.0696,-1.1499,0.3269,0.1681,0.72,2076
20,0.8801,-0.0864,-1.1111,0.2642,0.3052,0.6944,2069
20,0.8496,-0.1006,-1.0225,0.1626,0.449,0.648,2071
20,0.8213,-0.0383,-0.9912,0.0898,0.3844,0.5385,2075
20,0.8428,-0.1382,-0.885,0.025,0.505,0.4856,2060
20,0.8208,-0.0698,-0.9075,-0.0639,0.459,0.3601,2010
20,0.8008,-0.1355,-0.8406,-0.1863,0.595,0.2775,2065
20,0.7812,-0.1731,-0.8354,-0.3508,0.6528,0.1782,2032
20,0.7297,-0.105,-0.7888,-0.4477,0.6862,0.0277,2125
20,0.771,-0.2429,-0.7671,-0.4739,0.7281,-0.0906,2068
20,0.7136,-0.2397,-0.7466,-0.4994,0.8616,-0.1136,1953
20,0.6309,-0.239,-0.697,-0.5329,0.8332,-0.2035,2058
20,0.6729,-0.406,-0.6223,-0.5867,1.0399,-0.1133,2036
20,0.5376,-0.3232,-0.583,-0.6691,1.0128,-0.1888,2035
20,0.5112,-0.2998,-0.4956,-0.611,0.854,-0.2906,2057
20,0.5999,-0.3997,-0.5015,-0.5192,0.8923,-0.2625,2059
20,0.4834,-0.3057,-0.4863,-0.5221,0.9459,-0.2742,2132
20,0.4678,-0.1538,-0.4468,-0.3522,0.7484,-0.3585,2097
20,0.6152,-0.4775,-0.4692,-0.231,0.9116,-0.2212,2038
20,0.4631,-0.4243,-0.5278,-0.3025,1.052,-0.1587,2140
20,0.3481,-0.2144,-0.4492,-0.2907,0.8503,-0.2039,2140
20,0.5039,-0.4097,-0.3599,-0.1887,0.7412,-0.1511,2088
20,0.4478,-0.2842,-0.4377,-0.0732,0.783,-0.1024,2064
20,0.4006,-0.3882,-0.3862,-0.0394,0.7929,0.0181,2059
20,0.4006,-0.3054,-0.3997,0.025,0.6718,0.0301,2059
20,0.4446,-0.344,-0.3823,0.0855,0.7295,0.1049,2036
20,0.4373,-0.2756,-0.4207,0.0969,0.6151,0.14,2072
20,0.4353,-0.165,-0.3997,0.234,0.3951,0.135,2074
20,0.4629,-0.3188,-0.5139,0.3153,0.3923,0.2192,2043
20,0.5264,-0.4375,-0.4873,0.1489,0.6914,0.4313,2030
20,0.2805,-0.1477,-0.438,-0.0399,0.5003,0.2369,2116
20,0.561,-0.3591,-0.3335,-0.015,0.3598,0.2437,2074
20,0.53,-0.127,-0.5222,0.1365,0.2104,0.0991,2158
20,0.6187,-0.4409,-0.4519,0.022,0.5116,0.3,2124
20,0.4697,-0.1072,-0.4851,-0.1127,0.3079,0.0356,2061
21,0.6851,-0.2522,-0.4185,-0.0477,0.2743,0.0162,2156
21,0.771,-0.3882,-0.5266,-0.0961,0.2902,-0.0688,2038
21,0.6384,-0.2126,-0.5581,-0.1595,0.2534,-0.1658,2082
21,0.7659,-0.3784,-0.5398,-0.2707,0.1808,-0.2027,2164
21,0.8206,-0.3635,-0.6277,-0.3962,0.1165,-0.2745,2065
21,0.8101,-0.3547,-0.6626,-0.5236,0.0569,-0.2784,2108
21,0.8682,-0.3176,-0.7009,-0.5288,-0.0719,-0.3285,2126
21,0.9561,-0.4832,-0.7043,-0.561,-0.0005,-0.1962,2037
21,0.9229,-0.3987,-0.7632,-0.6324,-0.0851,-0.2032,2074
21,0.99,-0.575,-0.6357,-0.7842,-0.0727,-0.1281,2073
21,1.0598,-0.4053,-0.7117,-0.7979,-0.3429,-0.2071,2069
21,1.1841,-0.6467,-0.7024,-0.8576,-0.3982,-0.1011,2004
21,1.1716,-0.4631,-0.9282,-0.9042,-0.642,-0.1445,2063
21,1.271,-0.5332,-0.8577,-0.9871,-0.6404,-0.1489,2117
21,1.3679,-0.4136,-0.9602,-0.8753,-0.7365,-0.2159,2094
21,1.3582,-0.4712,-0.9011,-0.7504,-0.5434,-0.2396,2030
21,1.3896,-0.3025,-0.908,-0.5074,-0.5476,-0.3318,2208
21,1.3748,-0.5054,-0.7561,-0.347,-0.19,-0.279,2030
21,1.293,-0.3179,-0.8542,-0.2103,-0.2115,-0.344,1945
21,1.2844,-0.3154,-0.679,-0.0276,-0.0633,-0.2779,2021
21,1.2307,-0.3176,-0.7444,0.1439,-0.0533,-0.1784,2033
21,1.123,-0.2134,-0.6992,0.1712,0.0376,-0.0378,2045
21,1.0989,-0.1038,-0.6987,0.2171,-0.0514,0.0827,2165
21,1.1333,-0.0498,-0.6936,0.2487,-0.0273,0.2908,2039
21,1.0581,-0.0186,-0.6882,0.2187,-0.0001,0.4813,2041
21,1.0168,0.0869,-0.7019,0.198,-0.0499,0.5861,2085
21,1.0166,0.0583,-0.6748,0.1538,0.0385,0.7167,2057
21,0.991,0.0891,-0.688,0.0807,0.0216,0.7561,2102
21,0.9646,0.0459,-0.6626,-0.0298,0.0787,0.7951,2029
21,0.9121,-0.0417,-0.6687,-0.1992,0.1205,0.7994,2122
21,0.8591,-0.0139,-0.6604,-0.3173,0.0746,0.7047,2038
21,0.8711,-0.0994,-0.6394,-0.3855,0.1229,0.6375,2059
21,0.8621,-0.0762,-0.6672,-0.3782,0.1657,0.5702,2159
21,0.8545,-0.0442,-0.6057,-0.3754,0.2137,0.473,2064
21,0.8389,-0.1646,-0.6038,-0.3185,0.2999,0.4245,2098
21,0.7615,-0.2148,-0.5703,-0.3952,0.438,0.3405,2030
21,0.6682,-0.2307,-0.4736,-0.4956,0.4442,0.1912,2029
21,0.6821,-0.2024,-0.4192,-0.445,0.3867,0.0108,2072
21,0.6726,-0.3223,-0.3992,-0.4438,0.4878,-0.0218,2022
21,0.5764,-0.2546,-0.4036,-0.4687,0.473,-0.128,2053
21,0.5466,-0.155,-0.3486,-0.4329,0.394,-0.2461,2092
21,0.603,-0.334,-0.365,-0.3446,0.5007,-0.1867,2051
21,0.5366,-0.1343,-0.4099,-0.2698,0.4171,-0.2739,2042
21,0.5029,-0.2214,-0.3445,-0.1855,0.3906,-0.2328,2049
21,0.5549,-0.3074,-0.3486,-0.1121,0.4565,-0.0868,1991
21,0.4744,-0.1282,-0.3555,-0.0578,0.3777,-0.1133,2035
21,0.49,-0.2488,-0.3057,0.0415,0.2551,0.0009,2115
21,0.5396,-0.2634,-0.3352,0.11,0.2962,0.128,2106
21,0.4614,-0.2039,-0.3391,0.1393,0.2647,0.2183,2066
21,0.5049,-0.3784,-0.2791,0.1242,0.2171,0.3466,2138
21,0.491,-0.2559,-0.3196,0.1083,0.0876,0.3689,2034
21,0.5232,-0.304,-0.28,0.153,0.0011,0.4124,2067
21,0.6133,-0.3035,-0.3379,0.2241,-0.1181,0.4139,2065
21,0.6445,-0.3037,-0.397,0.2268,-0.1206,0.3721,2020
21,0.679,-0.3347,-0.3989,0.2007,-0.1374,0.3203,2052
21,0.7151,-0.3196,-0.4697,0.1997,-0.1919,0.2149,2024
21,0.7717,-0.3835,-0.5017,0.1517,-0.1513,0.1326,2035
21,0.7981,-0.3301,-0.5134,0.1402,-0.2281,-0.0226,2222
21,0.8718,-0.312,-0.5344,0.1722,-0.2808,-0.1305,2062
21,0.9253,-0.3411,-0.5474,0.2064,-0.2085,-0.1589,1999
21,0.9243,-0.3066,-0.5447,0.1952,-0.2269,-0.2326,2086
21,0.9497,-0.3755,-0.5005,0.1796,-0.2119,-0.2493,2040
21,0.9858,-0.3635,-0.4988,0.1245,-0.2613,-0.2766,2100
21,1.0105,-0.3499,-0.5327,0.1257,-0.3746,-0.3105,2145
21,1.0706,-0.4041,-0.613,0.1337,-0.3666,-0.2385,2022
21,1.0552,-0.3999,-0.6799,0.0525,-0.3426,-0.1358,2001
21,1.0496,-0.3914,-0.6643,-0.0273,-0.3791,-0.0664,2025
21,1.0984,-0.4055,-0.6733,-0.0361,-0.4706,0.0085,2068
21,1.1438,-0.4131,-0.7192,0.0442,-0.4831,0.1254,2163
21,1.1125,-0.4314,-0.8284,0.0541,-0.4835,0.2799,2060
21,1.1074,-0.4641,-0.9255,-0.034,-0.4786,0.3939,2019
21,1.0996,-0.4458,-1.092,-0.142,-0.5639,0.4532,2043
21,1.137,-0.3645,-1.1655,-0.1238,-0.5885,0.5156,2030
21,1.2002,-0.3228,-1.2148,0.0072,-0.5474,0.6107,2055
21,1.2063,-0.2935,-1.1963,0.1758,-0.4289,0.6891,1962
21,1.1841,-0.4084,-1.155,0.1954,-0.1441,0.7911,1963
21,1.125,-0.2729,-1.1602,0.1858,-0.1577,0.6827,2075
21,1.0923,-0.3386,-1.0061,0.2184,-0.0807,0.5691,2057
21,1.1035,-0.2964,-1.0266,0.2633,-0.0417,0.4109,2041
21,1.0308,-0.2661,-0.9836,0.2815,0.0868,0.2836,2091
21,0.9734,-0.2239,-1.0273,0.3039,0.2137,0.1939,2009
21,0.9424,-0.2524,-0.9519,0.2477,0.4128,0.1491,2003
21,0.8972,-0.1709,-0.8579,0.2373,0.3509,0.03,2071
21,0.918,-0.134,-0.8396,0.3203,0.3566,-0.0138,2055
21,0.8923,-0.2336,-0.8645,0.2313,0.4466,0.0566,2010
21,0.7666,-0.2153,-0.7427,-0.0197,0.5313,0.0278,2058
21,0.7424,-0.0874,-0.7161,-0.0991,0.3638,-0.1091,2110
21,0.8625,-0.2397,-0.6992,-0.0927,0.4372,-0.1352,2130
21,0.7695,-0.2178,-0.7983,-0.1694,0.5127,-0.1377,2042
21,0.6914,-0.2034,-0.6836,-0.3096,0.6018,-0.1494,2112
21,0.7227,-0.2449,-0.6101,-0.3012,0.63,-0.1633,2169
21,0.72,-0.2969,-0.625,-0.2502,0.6618,-0.1843,2044
21,0.6689,-0.3647,-0.5754,-0.2814,0.7288,-0.1453,2023
21,0.5891,-0.2698,-0.4888,-0.3071,0.681,-0.2333,2059
21,0.6399,-0.4287,-0.4351,-0.3333,0.7285,-0.2302,2116
21,0.5461,-0.334,-0.4524,-0.3171,0.7243,-0.3268,2061
21,0.5361,-0.4263,-0.3596,-0.3353,0.7946,-0.3485,2129
21,0.5161,-0.3108,-0.3628,-0.2602,0.7481,-0.4625,2054
21,0.5396,-0.3269,-0.3296,-0.1637,0.7372,-0.497,2034
21,0.5378,-0.282,-0.3623,0.0004,0.7094,-0.5036,2068
21,0.5273,-0.3486,-0.3589,0.0361,0.7886,-0.4394,2047
21,0.4585,-0.3206,-0.3533,0.025,0.7508,-0.4161,1960
21,0.4631,-0.2009,-0.3257,0.0908,0.5927,-0.4125,2117
21,0.5156,-0.3691,-0.3416,0.1041,0.6072,-0.283,2069
21,0.447,-0.1033,-0.3918,0.2052,0.4035,-0.2649,2129
21,0.4629,-0.3445,-0.3743,0.1728,0.4332,-0.0896,2007
21,0.4673,-0.2661,-0.4121,0.1056,0.4576,0.0329,2009
21,0.439,-0.2886,-0.3613,-0.0602,0.3329,0.0542,2134
21,0.4771,-0.2202,-0.3464,-0.0439,0.1318,0.0503,2016
22,0.5635,-0.2129,-0.4102,0.0228,0.0957,0.0517,2041
22,0.5618,-0.2847,-0.4746,-0.018,0.1493,0.1302,2009
