Timestamp,Ax,Ay,Az,Rx,Ry,Rz,EMG
0,0.5525,-1.425,-0.7292,0.4332,3.9096,-0.4401,2098
0,1.8928,-2.0,-0.4343,-0.5572,4.1394,-1.2605,1931
0,1.9999,0.0505,0.6067,0.6988,3.4547,-1.415,2229
0,1.7375,-1.0881,1.1094,0.1796,2.7966,-0.6734,2195
0,-0.0845,-0.769,-0.259,-1.0576,0.9164,-0.6865,2057
0,-0.6545,-0.344,0.5068,-0.2799,-0.1089,0.562,1860
0,0.2798,-0.9631,0.2378,-0.1754,-0.6076,0.0767,2026
0,0.9141,-1.0212,0.5149,0.2209,0.8483,-0.2711,2007
0,0.4661,-0.9641,0.7034,0.1981,0.9293,-0.3698,2084
0,0.2642,-0.9202,0.386,0.3362,0.2622,-0.1466,2179
0,0.3538,-0.9854,0.4849,0.3332,-0.2007,-0.0535,2065
0,0.4504,-1.0007,0.3223,0.0491,-0.4257,0.068,2062
0,0.2124,-1.051,0.0659,-0.0671,-0.7063,0.0025,2048
0,-0.0823,-0.9548,0.0574,0.0376,-0.7753,0.0559,2083
0,-0.1389,-1.0115,-0.072,0.1049,-0.596,0.0321,1995
0,-0.0054,-1.0791,-0.0967,0.0531,-0.3171,-0.0004,1955
0,-0.0315,-1.0425,-0.1262,0.0221,-0.0467,-0.0208,2105
0,-0.0959,-1.043,-0.1216,0.0185,0.0241,-0.0435,1907
0,-0.0674,-1.0303,-0.0754,0.0184,0.1597,-0.0804,2089
0,0.0117,-1.0281,-0.0149,0.0269,0.2662,-0.1145,2062
0,0.0754,-1.0137,0.0459,0.0539,0.282,-0.1426,2053
0,0.1758,-0.9949,0.1064,0.0535,0.2903,-0.1487,2044
0,0.219,-0.9829,0.1431,0.0638,0.2348,-0.1377,2020
0,0.2131,-0.9883,0.1899,0.0513,0.0961,-0.1202,2102
0,0.2087,-0.9814,0.1638,0.0664,0.1091,-0.1107,1862
0,0.197,-0.9888,0.1995,0.0747,0.0213,-0.1036,2048
0,0.1914,-1.0115,0.1863,0.047,-0.0157,-0.0866,2049
0,0.1421,-1.019,0.1753,0.0324,-0.0169,-0.0847,2028
0,0.1179,-1.022,0.147,0.0252,-0.0342,-0.085,1994
0,0.1375,-1.0127,0.1191,0.025,-0.0535,-0.0875,2059
0,0.1421,-1.01,0.1045,0.0217,-0.0491,-0.0952,2078
0,0.1104,-1.0037,0.0969,0.017,-0.0475,-0.0995,2043
0,0.116,-1.0076,0.114,0.015,-0.0526,-0.1039,2099
0,0.1079,-1.0054,0.0957,0.0011,-0.0384,-0.1071,1983
0,0.0913,-1.012,0.1257,-0.0244,-0.0597,-0.1204,1987
0,0.1316,-1.0168,0.1165,-0.037,-0.0045,-0.1261,2071
0,0.1631,-1.0127,0.1067,-0.0325,0.0061,-0.121,2037
0,0.1853,-0.9875,0.123,-0.0161,0.0349,-0.1225,2145
0,0.1755,-0.9751,0.0969,0.0069,0.032,-0.1152,2214
0,0.1865,-0.9629,0.1025,0.0226,0.0161,-0.0635,1987
0,0.1523,-1.0063,0.0964,-0.0041,-0.0113,-0.096,2079
0,0.1699,-0.9863,0.0654,0.019,-0.0242,-0.1056,1999
0,0.1445,-1.0005,0.0649,0.0364,-0.0727,-0.1029,2082
0,0.1316,-1.0183,0.0701,0.0513,-0.0649,-0.0864,2030
0,0.1006,-1.04,0.0625,0.0558,-0.041,-0.0977,2034
0,0.0991,-1.0271,0.0615,0.0751,-0.0148,-0.1262,1914
0,0.1028,-1.0076,0.082,0.0884,0.0212,-0.1518,2152
0,0.1099,-1.0183,0.0999,0.1052,0.0607,-0.1704,2078
0,0.0828,-1.033,0.1208,0.1003,0.0317,-0.1836,1913
0,0.0488,-1.0398,0.1348,0.1092,-0.0162,-0.2161,1927
0,0.0466,-1.0486,0.1562,0.1003,-0.0157,-0.2522,2072
0,0.0608,-1.0884,0.1509,0.0925,-0.0545,-0.2674,2054
0,0.0056,-1.0796,0.1787,0.0919,-0.0796,-0.2249,2048
0,-0.0234,-1.0742,0.1335,0.0474,-0.0928,-0.348,2059
0,0.0032,-1.0789,0.1492,0.0264,-0.1249,-0.3994,2082
0,0.0317,-1.0361,0.1238,0.0434,-0.0975,-0.3924,2105
0,-0.061,-1.1421,0.1389,0.0128,-0.1137,-0.4172,2026
0,-0.0281,-1.1091,0.1277,-0.0148,-0.0812,-0.5251,2206
0,0.1523,-0.9717,0.1011,0.0546,-0.1669,-0.4103,1986
0,-0.0864,-1.1714,0.116,0.0092,-0.0023,-0.522,2071
0,-0.0833,-1.125,0.0881,-0.0361,0.0851,-0.7172,2168
0,-0.0366,-1.1399,0.0527,-0.0277,0.1341,-0.7706,2063
0,0.2495,-0.8967,0.0073,0.1202,-0.2535,-0.4489,2036
0,-0.1487,-1.3149,0.0198,-0.0875,-0.0088,-0.7702,2055
0,-0.0657,-1.2126,-0.0227,-0.1036,-0.0533,-0.8435,2041
0,-0.0505,-1.2349,-0.0852,-0.1683,-0.0649,-0.9011,2062
0,-0.0837,-1.1997,-0.1655,-0.1977,-0.1914,-0.9519,2050
0,-0.1572,-1.186,-0.1992,-0.2305,-0.2625,-0.9383,2045
0,-0.1895,-1.1667,-0.1406,-0.3309,-0.0622,-1.0473,2048
0,-0.1975,-1.0908,-0.1228,-0.5032,0.1924,-1.1951,2054
0,-0.2148,-1.0093,-0.1423,-0.6331,0.6802,-1.3605,2054
0,-0.1421,-0.9507,-0.207,-0.6826,0.8012,-1.4106,2066
0,0.1445,-0.8135,-0.2864,-0.5861,0.9773,-1.4147,2059
0,0.5652,-0.4778,-0.3792,-0.1274,0.8115,-1.085,2061
0,1.2646,-0.5928,-0.3945,0.5149,-0.3465,-0.4031,2058
0,1.3999,-1.0349,-0.0674,0.9194,-1.4083,0.7891,2060
0,0.9644,-1.0054,0.4333,0.8271,-0.969,1.0425,2082
0,0.2952,-0.7546,0.2751,0.1666,-1.1635,1.2109,2063
0,-0.0298,-0.554,0.0325,0.0091,-2.1086,1.5274,2054
0,0.1538,-0.488,-0.0896,0.0188,-3.3081,2.1951,2045
0,0.3171,-0.5642,-0.0266,0.1465,-4.3635,3.0256,2057
0,0.0999,-0.761,0.0312,0.1068,-4.3635,3.0554,2051
0,-0.2905,-0.8123,0.1125,0.022,-4.1699,2.7477,2038
0,-0.5481,-0.687,0.0964,-0.0457,-3.1865,2.6682,2016
0,-0.4656,-0.5803,-0.0457,0.2546,-2.6896,2.9608,2027
0,-0.2471,-0.7942,-0.1204,0.734,-2.5686,3.2351,2039
0,-0.2002,-0.9575,-0.0652,0.8373,-2.4023,3.2549,2058
0,-0.2761,-0.9692,-0.0576,0.8971,-2.0928,3.2665,2057
0,-0.377,-1.0266,-0.0559,0.9708,-1.8291,3.2124,2046
0,-0.3882,-1.0623,-0.084,1.0226,-1.5732,3.2095,2032
0,-0.3923,-1.146,-0.0593,1.0646,-1.3359,3.1573,2037
0,-0.4053,-1.2476,0.0198,0.9256,-1.0642,3.0168,2031
0,-0.3674,-1.1877,0.0149,0.8323,-0.8456,2.9961,2044
0,-0.3757,-1.1355,0.0547,1.0112,-0.7271,3.0927,2054
0,-0.4492,-1.2837,0.1631,0.8649,-0.5842,2.9865,2055
0,-0.4473,-1.1958,0.1187,0.6851,-0.3216,2.9727,2050
0,-0.4592,-1.1631,0.1013,0.6653,-0.1252,2.9432,2043
0,-0.4482,-1.2393,0.0806,0.5641,0.0778,2.8907,2044
0,-0.377,-1.2063,0.0903,0.4191,0.3139,2.8098,2050
0,-0.3096,-1.1868,0.0935,0.269,0.4694,2.7452,2051
0,-0.2554,-1.199,0.1042,0.1599,0.5596,2.6353,2047
0,-0.2043,-1.1377,0.1138,0.0256,0.5577,2.5211,2052
0,-0.167,-1.1316,0.1069,-0.059,0.4449,2.4361,2044
0,-0.0889,-1.0957,0.1055,-0.1217,0.32,2.3064,2052
0,-0.0349,-1.0574,0.1079,-0.2245,0.1521,2.1834,2058
0,-0.0286,-1.0298,0.134,-0.2928,-0.0338,2.0527,2048
0,-0.0039,-1.0032,0.1018,-0.4203,-0.3035,1.88,2051
0,0.0696,-0.8232,0.127,-0.3635,-0.6209,1.6901,2051
1,0.1577,-0.7747,0.0791,-0.2678,-1.0589,1.5494,2045
1,0.1682,-0.9031,0.0515,-0.1141,-1.5227,1.4067,2052
1,0.0933,-0.9368,0.0254,-0.1595,-1.6728,1.3644,2059
1,-0.0137,-0.9189,0.137,-0.297,-1.6835,1.1802,2047
1,0.053,-0.8911,0.1931,-0.3063,-1.7705,1.1107,2047
1,0.1353,-0.9163,0.1714,-0.3056,-1.882,1.0661,2053
1,0.1663,-0.9565,0.1294,-0.4056,-1.8804,0.9531,2041
1,0.1497,-0.9629,0.0984,-0.4611,-1.901,0.8379,2052
1,0.1392,-0.9915,0.1057,-0.4966,-1.9771,0.7048,2057
1,0.1221,-0.9727,0.1182,-0.4694,-2.006,0.5492,2054
1,0.2083,-0.9326,0.1851,-0.5084,-2.016,0.4046,2057
1,0.3323,-0.8669,0.2222,-0.426,-2.2244,0.3144,2060
1,0.2239,-1.0212,0.3345,-0.6582,-2.374,-0.0827,2054
1,0.1912,-1.0203,0.2549,-0.6573,-2.6188,-0.2836,2052
1,0.2605,-2.0,1.5833,-2.3808,-4.1542,-0.3625,2039
1,-1.2649,-0.1824,-0.623,-4.3494,-0.6316,-3.3604,1845
1,1.9999,0.1443,-0.7717,-0.0533,-4.3635,-0.7197,1934
1,0.0596,-0.5715,0.7749,-0.2147,-4.3635,-0.2016,2219
1,-2.0,-0.8037,1.8528,0.3012,-4.3635,0.3011,2163
1,-1.3696,-0.7512,1.2791,1.1059,-1.5165,0.7646,2111
1,-0.9946,-0.968,0.5703,1.0677,-2.2764,1.0078,2104
1,-0.5588,-1.4395,0.387,0.501,-2.4995,-0.0724,2054
1,-0.3723,-1.2913,0.9526,-0.2771,-0.8293,-0.7135,2058
1,-0.1758,-0.9849,0.9292,-0.938,0.5938,-1.2095,2041
1,-0.387,-0.8115,0.9187,-0.7917,1.9522,-1.1818,2053
1,-0.7026,-0.8892,0.6121,-0.6046,3.1883,-1.3232,2088
1,-0.4612,-1.1992,0.2554,-0.3417,3.6143,-1.4595,2061
1,0.05,-1.4644,0.1624,-0.5774,3.6669,-1.4342,2059
1,0.5808,-1.3059,-0.2144,-1.033,2.4264,-1.1974,2036
1,1.8345,-2.0,-0.8975,-2.7076,-0.2023,-0.4354,2012
1,1.0713,-0.8069,-1.5654,-1.7329,-1.8848,-0.7124,2010
1,0.2898,-0.0935,-1.2654,-0.1477,-2.2908,-0.1959,2083
1,-1.8298,-1.4382,-0.2734,-0.4581,0.8315,-0.6486,2106
1,-1.1912,-1.1511,-0.1848,0.1808,0.2646,-1.1347,1990
1,0.3975,-0.9321,-0.2048,0.1376,-2.0955,-1.016,1986
1,0.2129,-0.96,0.9319,-0.2049,-0.557,-0.8324,2012
1,0.1326,-1.0667,0.884,-0.7184,1.05,-0.8618,2005
1,-0.0676,-0.9402,0.3748,-0.6368,-0.171,-0.9123,2022
1,-0.0208,-0.9475,0.0942,-0.4422,-1.129,-0.9379,2127
1,-0.0305,-0.9309,0.0176,-0.2574,-0.7605,-0.8327,2072
1,-0.2227,-0.9553,0.1243,-0.208,-0.3666,-0.8376,2134
1,-0.3218,-0.9814,0.1455,-0.2378,-0.2643,-0.802,2030
1,-0.3,-0.9536,0.1179,-0.255,-0.3374,-0.7581,2045
1,-0.1516,-0.8792,0.1191,-0.2249,-0.2954,-0.717,2086
1,-0.1694,-0.9468,0.1782,-0.2711,-0.2806,-0.7632,2002
1,-0.1562,-1.0574,0.2903,-0.3713,-0.3056,-0.7881,2040
1,-0.0774,-1.0068,0.2468,-0.4124,-0.4183,-0.7689,2028
1,-0.1042,-0.9106,0.0894,-0.3135,-0.3247,-0.7232,2065
1,-0.116,-1.0479,0.1643,-0.4065,-0.4236,-0.8447,2083
1,-0.1443,-0.99,0.095,-0.4091,-0.4354,-0.8285,2030
1,-0.1582,-1.0217,0.0842,-0.3713,-0.4498,-0.8038,1909
1,-0.1521,-0.9189,0.02,-0.3264,-0.4747,-0.7753,2051
1,-0.146,-0.9785,0.1155,-0.4004,-0.5681,-0.7773,2111
1,-0.1418,-0.9463,0.0913,-0.3333,-0.5881,-0.6855,2045
1,-0.0876,-1.0686,0.0735,-0.3282,-0.6921,-0.801,2073
1,-0.1323,-1.0593,0.1113,-0.3972,-0.5572,-0.7753,2022
1,-0.1426,-0.9448,-0.0032,-0.3582,-0.4884,-0.7597,1974
1,-0.0891,-1.02,-0.032,-0.3385,-0.5161,-0.7641,2073
1,-0.0083,-1.0029,-0.0422,-0.3265,-0.6755,-0.7665,2004
1,-0.041,-0.9724,-0.0005,-0.2727,-0.6862,-0.7865,2028
1,-0.124,-1.0488,-0.0571,-0.2745,-0.785,-0.8889,2063
1,-0.0737,-1.0273,-0.0562,-0.242,-0.7472,-0.9158,1981
1,-0.0312,-0.938,-0.061,-0.1522,-0.6055,-0.8815,1954
1,0.1082,-0.8662,-0.0166,0.0008,-0.8015,-0.757,2141
1,0.0776,-0.897,0.0471,0.1036,-1.1207,-0.5059,2413
1,0.05,-1.0032,0.0464,0.1643,-1.3749,-0.4689,1729
1,-0.0784,-1.0688,0.0632,0.123,-1.6135,-0.7423,2355
1,-0.3235,-1.2239,0.271,-0.3211,-1.2046,-1.197,2109
1,-0.0388,-1.073,0.064,-0.3033,-0.5116,-1.1347,1671
1,0.0688,-1.0181,0.0781,-0.243,-0.5109,-1.2583,2279
1,0.1389,-1.0017,0.0,-0.2057,-0.4362,-1.2382,2088
1,0.0842,-1.0352,0.103,-0.1581,-0.5881,-1.2754,2103
1,0.1096,-0.9858,0.0747,-0.1356,-0.4611,-1.3524,2492
1,0.1968,-0.9717,0.1641,-0.1105,-0.5063,-1.5017,2055
1,0.082,-1.1604,0.1384,-0.1735,-0.8351,-1.3857,2066
1,0.0566,-1.0366,0.1833,-0.1434,-0.8963,-1.5133,2097
1,-0.0962,-1.106,0.158,-0.1389,-0.699,-1.6165,1985
1,-0.0623,-1.2227,0.1946,-0.1629,-0.5504,-1.5402,1927
1,0.2917,-1.0979,0.3623,-0.0779,-0.7588,-1.5456,2015
1,-0.0513,-1.1479,0.2305,-0.0386,-0.6201,-1.729,2106
1,-0.2986,-1.3274,0.1558,-0.0676,-0.1832,-1.7848,2185
1,0.0046,-1.2024,0.2317,-0.0502,-0.1433,-1.8579,1956
1,0.0269,-1.0889,0.2468,0.0284,-0.0605,-2.0118,1904
1,-0.1357,-1.2466,0.2141,0.0487,-0.0629,-2.0758,1993
1,-0.1189,-1.2839,0.1782,0.0945,0.0021,-2.18,2072
1,-0.3164,-1.4224,0.1499,0.1641,-0.0035,-2.2342,2192
1,-0.5486,-1.4712,0.3125,-0.0988,-0.2823,-2.345,2092
1,-0.6653,-1.3215,0.3257,-0.1065,-0.2811,-2.5183,2034
1,-0.4355,-1.2708,0.2913,-0.0153,-0.5633,-2.6996,2065
1,-0.1956,-1.3965,0.2058,0.0007,-1.3025,-2.8398,1981
1,-0.4028,-1.322,0.3293,0.0361,-1.3607,-3.5173,2053
1,-0.4636,-1.6145,0.4819,0.1786,-1.5266,-3.2508,2087
1,-0.301,-1.4119,0.4802,0.0241,-1.7899,-3.3529,2054
1,-0.4167,-2.0,0.4158,-0.5837,-1.9341,-3.4117,2115
1,-0.2854,-2.0,0.1887,-0.9951,-2.2953,-3.4798,1959
1,-0.4229,-1.9304,0.4038,-1.1326,-2.1438,-3.0882,2078
1,-1.304,-1.7642,0.3896,-1.3876,-0.8906,-1.7897,2121
1,-1.3516,-0.9529,0.0129,-0.8487,-0.6183,-2.5249,1959
1,-1.3928,-1.1045,-0.2795,-1.3125,-0.4287,-3.6765,1998
1,-2.0,-2.0,0.0713,-2.6163,4.3634,-4.3635,2098
2,1.9999,1.9999,-1.0452,1.1493,-2.8367,-3.5311,2367
2,1.9999,-1.1978,-0.5691,0.2005,-2.9933,-1.6471,1909
2,0.6741,-2.0,0.4045,1.1547,-4.3635,-1.4222,1936
2,0.2937,-0.6626,-1.0352,0.2898,-4.3635,-0.1478,2087
2,0.7324,-1.1221,-0.0688,0.8787,-4.3635,0.296,2080
2,0.6531,1.5771,-0.9097,3.042,-3.4387,1.3974,2085
2,0.0999,-0.5745,0.2075,2.2364,-4.3635,3.6113,2111
2,-0.8716,-0.7185,0.2927,-0.023,-2.5337,1.9326,1990
2,-0.8174,-0.8496,-0.5256,0.0149,-2.2052,2.0306,1939
2,-0.5229,-0.3726,-0.6365,0.2171,-1.1194,1.8876,2042
2,-0.179,-0.2373,-0.8074,1.3407,-0.7353,2.1672,2042
2,0.0642,-0.6445,-0.5735,1.0282,-0.3875,1.381,2038
2,0.2166,-0.4363,-0.6936,1.5519,-0.0848,1.9829,2041
2,0.2913,-0.3804,-0.6426,1.9975,0.0457,2.4768,2056
2,0.5269,-0.2175,-0.5466,2.3872,-0.1795,3.1455,2061
2,0.4077,-0.4177,-0.5012,2.7867,-0.3227,3.452,2071
2,0.3748,-0.6028,-0.51,2.8801,-0.297,3.6015,2066
2,0.3267,-0.6565,-0.364,2.7317,-0.2428,3.8294,2051
2,0.2625,-0.5684,-0.3672,2.7329,0.0128,3.8888,1977
2,0.04,-0.6763,-0.3015,2.8098,0.8834,4.0339,2025
2,0.1484,-0.7444,-0.2429,2.739,1.3153,4.1164,2015
2,0.355,-0.8989,-0.2881,2.7346,1.3041,4.3281,2027
2,0.6177,-0.8411,-0.2339,2.6229,1.0857,4.3634,2054
2,0.718,-0.6292,-0.1187,2.4364,0.6313,4.3634,2039
2,0.5759,-0.7654,0.1284,2.153,0.3954,4.3634,2053
2,0.4492,-0.8267,-0.0359,2.0821,-0.1574,4.3634,2054
2,0.4551,-0.7742,-0.1816,2.2168,-0.1534,4.3634,2032
2,0.5063,-0.8767,-0.1887,2.2193,-0.2709,4.3634,2051
2,0.5254,-0.9866,-0.2593,2.3076,-0.491,4.3634,2061
2,0.3433,-1.0344,-0.1899,2.3128,-0.2569,4.3634,2070
2,0.0825,-1.0491,-0.2522,2.4149,0.1699,4.3634,2068
2,-0.1038,-1.1653,-0.3274,2.3001,0.9955,4.3634,2054
2,-0.25,-0.9272,-0.438,1.3994,2.4444,4.3634,2018
2,0.5728,-1.6592,-0.8037,2.9502,0.6597,4.3634,1998
2,0.1267,-2.0,-0.2136,2.7336,0.6425,4.3634,2083
2,0.1853,-2.0,0.1213,1.6645,1.4388,4.3634,2077
2,0.3096,-1.5825,0.0405,1.3752,1.6764,4.1722,2043
2,0.3691,-1.571,0.0569,0.7504,1.4841,3.6431,2043
2,0.0286,-1.6328,-0.2227,0.4831,0.7154,2.8381,2053
2,0.2957,-1.4219,-0.2422,0.1677,0.5697,2.0126,2049
2,0.5923,-1.3479,-0.1047,-0.2999,0.4329,1.0632,2047
2,0.8755,-1.2136,-0.1709,-0.5711,0.0481,0.176,2054
2,0.9448,-1.2549,-0.3032,-0.8835,-0.6293,-0.5777,2028
2,0.7725,-1.3464,-0.2336,-1.2544,-1.1998,-1.3214,2035
2,0.74,-1.396,-0.1406,-1.7604,-1.321,-1.9531,2047
2,-0.4841,-2.0,1.1072,-4.3635,2.2949,-4.3635,2056
2,1.9999,0.7783,0.2432,-1.1114,-4.3635,-4.3635,1895
2,-1.832,-0.7708,1.9999,0.5446,-0.2891,0.0759,2136
2,-2.0,-1.5542,1.4678,-0.5272,1.1725,0.0429,2133
2,0.8579,-0.8601,0.1934,1.9158,-4.3635,1.6844,2088
2,1.7051,-0.8501,1.3594,0.2823,-4.3635,-0.8196,2131
2,1.9999,-2.0,1.9999,-0.0269,-4.3635,-1.7488,2081
2,0.3379,-1.9492,1.9999,-2.4784,-1.3375,-1.659,1998
2,-0.7031,-1.2957,0.7419,-3.4556,0.5115,-2.3972,2024
2,-1.385,-1.231,-0.5,-3.6896,1.2597,-2.3224,2042
2,-0.4172,-1.1777,-1.3613,-3.1401,0.6042,-2.0547,2056
2,0.8354,-1.8945,-1.4724,-2.278,-0.3157,-1.4729,2032
2,1.168,-1.2266,-2.0,-1.0576,-3.6846,-1.4229,2059
2,-0.4441,-0.0647,-1.874,-1.535,-1.591,-1.1531,2049
2,-0.7124,-0.582,-1.9541,-0.6833,-0.4634,-1.5829,2078
2,-0.5881,-0.6646,-0.3816,-0.1954,0.4863,-1.8001,2030
2,0.4497,-0.6428,-0.1328,0.7945,-0.4233,-1.3306,2028
2,0.449,-0.9646,0.2371,0.322,0.9056,-1.009,2032
2,0.6738,-1.1204,0.4355,0.2273,1.6142,-0.7781,2032
2,0.6936,-1.0522,0.6765,0.0996,1.5695,-0.724,2054
2,0.8423,-0.8391,0.625,-0.1919,0.612,-0.3655,2055
2,0.5908,-1.01,0.3215,-0.7251,0.3689,0.1822,2057
2,0.1924,-1.1692,0.0923,-0.985,0.2155,0.0756,2045
2,-0.0178,-1.1841,-0.0667,-1.1603,0.2828,-0.0896,2045
2,-0.2278,-1.1082,-0.4062,-1.1287,0.3314,-0.1859,2054
2,-0.3242,-0.9387,-0.4739,-0.7713,0.0912,-0.2048,2017
2,-0.3489,-0.8936,-0.3308,-0.3336,-0.0035,-0.3233,2054
2,-0.3406,-0.9312,-0.2019,-0.069,0.1188,-0.4618,1968
2,-0.2073,-0.991,-0.1833,0.0509,0.1454,-0.4963,2056
2,-0.147,-1.0034,-0.0168,0.1025,0.155,-0.3916,2118
2,-0.1296,-0.9109,0.0801,0.2393,0.5526,-0.2025,2074
2,-0.1406,-0.9463,0.3201,0.2669,0.8024,-0.1478,2075
2,-0.0906,-0.9099,0.2437,0.2224,0.7067,0.0614,1860
2,-0.0535,-0.9705,0.1387,0.3465,0.3687,-0.0362,2086
2,-0.2388,-1.0759,0.0984,0.1603,0.4789,-0.2582,2142
2,-0.4358,-1.1899,0.001,-0.075,0.2183,-0.7321,2071
2,-0.3521,-1.146,-0.0215,-0.1461,0.6086,-0.9653,1988
2,-0.1611,-1.0239,-0.0188,-0.1973,0.8131,-0.9957,2168
2,0.1177,-1.0303,0.0459,-0.2792,0.4878,-1.0384,2061
2,0.1099,-1.0283,0.0459,-0.3789,0.2603,-1.014,2001
2,-0.0527,-1.0476,0.0908,-0.4492,0.1233,-1.0612,2167
2,-0.1218,-1.0574,0.1265,-0.501,0.0864,-1.1071,2105
2,-0.0271,-1.0461,0.095,-0.5271,0.2312,-1.1057,1983
2,0.0103,-1.0469,0.0422,-0.5703,0.1878,-1.1292,2064
2,-0.0374,-1.0664,0.0115,-0.5749,0.1907,-1.1741,1853
2,0.4539,-0.9775,-0.165,-0.5702,0.0068,-0.5992,2141
2,0.1199,-1.1123,0.0781,-0.822,-0.267,-0.965,2108
2,-0.1201,-1.1257,-0.1096,-0.761,-0.4093,-1.1255,1849
2,-0.0688,-0.9963,-0.0806,-0.7685,-0.2501,-1.1078,2146
2,-0.145,-0.9768,-0.0486,-0.7497,-0.2891,-1.3865,2120
2,-0.155,-1.0674,0.0461,-0.8134,-0.3306,-1.3952,2085
2,-0.1399,-1.0037,0.0459,-0.8795,-0.1871,-1.4853,2043
2,-0.1602,-1.041,0.0645,-0.8889,-0.0288,-1.5962,2140
2,-0.0486,-1.1094,0.1362,-0.84,0.1193,-1.6313,1917
2,-0.0134,-1.2197,0.1506,-0.9005,0.1,-1.7379,2090
2,-0.0745,-1.2966,0.1602,-0.9823,0.1485,-1.7427,2199
2,-0.0686,-1.219,0.2026,-0.958,0.1013,-1.8245,1853
2,0.1069,-1.2622,0.2576,-0.9256,-0.2999,-1.8514,2031
3,-0.0315,-1.2476,0.2864,-1.0299,-0.4149,-2.0217,2085
3,-0.1863,-1.2466,0.2996,-1.0521,-0.5594,-2.1577,2085
3,-0.2039,-1.365,0.2629,-1.1492,-0.6347,-2.2686,2038
3,-0.1931,-1.4094,0.2749,-1.2111,-0.6167,-2.4349,2090
3,-0.2239,-1.3379,0.2581,-1.2153,-0.6866,-2.6003,2046
3,-0.1045,-1.4905,0.2214,-1.0697,-0.9796,-2.6373,2060
3,-0.5383,-1.8628,0.1643,-1.0945,-1.2953,-2.792,2053
3,-0.9319,-1.8748,0.4939,-1.4885,-1.3055,-3.4495,2041
3,-1.2429,-1.6094,0.4207,-1.6141,-0.6321,-3.8223,2139
3,-0.7708,-1.5337,0.3291,-1.6135,-0.365,-4.233,2034
3,-0.7336,-2.0,0.6179,-1.5688,0.2891,-3.6182,2082
3,-0.8342,-2.0,0.3044,-1.8515,0.3032,-3.5061,2027
3,0.0732,-2.0,0.4939,-1.9454,-0.903,-3.0584,2023
3,-0.1465,-2.0,0.3406,-1.9763,-0.9915,-2.7713,2013
3,-0.3901,-1.9868,-0.0845,-1.8278,-0.6309,-2.6775,2021
3,0.073,-1.5635,-0.3618,-1.4262,-0.498,-2.0269,2010
3,-1.2791,-0.4358,-0.3928,-0.9456,-0.5642,-2.6107,2029
3,0.1382,-0.5168,0.4775,-0.8532,0.1388,-2.4635,2110
3,-2.0,0.73,-2.0,-4.3635,1.4394,-4.3635,1766
3,1.9999,1.9999,-2.0,-0.6869,-4.2092,-1.1359,1817
3,1.9999,-1.9121,-2.0,-1.3852,3.0481,-0.19,2348
3,0.4841,0.0994,-0.6299,0.4882,0.8183,-0.3605,2306
3,1.4045,0.425,-0.7209,1.7851,-1.0934,2.3245,2202
3,-0.5549,-0.1921,0.115,2.5804,2.6006,1.9431,2133
3,0.0566,-0.1431,-0.3611,2.0366,1.7669,2.3662,2043
3,-0.4666,-0.3918,-0.064,1.2449,1.6181,3.2501,2011
3,-0.3591,-0.4272,-0.1917,0.9328,1.364,3.7661,1973
3,-0.3828,-0.093,-0.7297,0.9741,-0.5705,3.4421,2015
3,0.0891,-0.2778,-0.7214,1.4114,-0.846,2.8887,2021
3,0.3938,-0.4011,-0.5601,1.8138,-0.1055,2.6069,2046
3,0.51,-0.4014,-0.3804,1.6683,0.575,2.5457,2041
3,0.5288,-0.1973,-0.5142,1.7797,0.1855,3.0208,2052
3,0.554,-0.2339,-0.5879,2.0224,-0.1381,3.4959,2053
3,0.7466,-0.2083,-0.5518,2.3723,-1.4159,3.7147,2072
3,0.4441,-0.396,-0.3723,2.491,-1.3683,4.1635,2043
3,0.354,-0.3594,-0.2737,2.5485,-0.9626,4.3634,2087
3,0.2524,-0.2966,-0.3484,2.7252,-0.5821,4.3634,2063
3,0.179,-0.5698,-0.4121,3.3154,-0.2171,4.3634,2024
3,0.2654,-0.8345,-0.2654,3.3094,0.2043,4.3634,2054
3,0.5225,-0.8477,-0.1174,2.9076,0.2023,4.3634,2050
3,0.5269,-0.8601,-0.0566,2.2168,-0.7853,4.3634,2056
3,0.2063,-0.7649,-0.2742,2.1426,-2.1659,4.3634,2043
3,0.0276,-0.8726,-0.4731,2.7076,-1.5414,4.3634,2155
3,0.1909,-1.377,-0.4819,2.7075,-0.9597,4.3634,2063
3,0.2695,-0.9163,-0.6416,2.3776,-0.9598,4.3634,2046
3,0.0115,-1.0623,-0.7021,2.4968,-0.4691,4.3634,2069
3,-0.218,-1.416,-0.5505,2.6517,0.9644,4.3634,2050
3,0.1855,-0.7686,-0.6487,1.8739,3.1227,4.3634,2017
3,0.0559,-1.5884,-0.6855,2.8437,2.2799,4.3634,2051
3,-0.3652,-2.0,-0.4878,2.073,1.3157,4.3634,2078
3,-0.0481,-1.9487,-0.2515,2.2808,1.6424,4.3634,2081
3,-0.0859,-2.0,0.0891,1.7319,2.5452,4.3634,2061
3,0.1787,-1.9375,0.1799,1.0122,2.9803,4.3206,2038
3,0.5269,-1.7058,0.0159,0.6022,2.3386,3.5798,2030
3,0.397,-1.5515,-0.1123,0.3462,1.2656,2.7259,2057
3,0.718,-1.3508,-0.103,-0.055,1.0057,1.9552,2077
3,0.9094,-1.2002,-0.033,-0.4646,0.5513,0.8661,2058
3,1.0522,-1.1289,0.0796,-0.7931,-0.6803,-0.1393,2059
3,1.1794,-1.1191,0.0056,-0.9991,-1.9239,-0.8578,2043
3,0.8518,-1.5071,0.1638,-1.5984,-2.3256,-1.5396,2043
3,1.0986,-1.1414,0.094,-1.8763,-2.7436,-2.1546,2052
3,-0.6272,-2.0,1.863,-4.3635,-2.1675,-4.3635,1934
3,0.2002,-0.0369,0.0081,-3.0269,-2.098,-4.3635,1819
3,-1.1711,0.4109,1.3113,0.4386,-3.5047,-1.364,2118
3,-2.0,-0.3206,1.7659,-1.0967,0.2613,3.2102,2227
3,-1.4158,-1.0427,-0.6665,2.3719,-3.5693,0.4171,2065
3,1.9999,-1.9346,0.2424,-1.9855,-4.3635,0.0722,2071
3,1.9999,-1.4856,1.9999,2.1691,-4.3635,-2.3101,2119
3,-0.4043,-2.0,1.9999,-0.9176,0.2816,-2.2238,2101
3,-1.7324,-1.6685,0.8552,-3.9783,3.6078,-2.7868,2011
3,-0.5098,-0.9968,-0.6711,-2.1814,1.0698,-2.3028,1980
3,1.9999,-2.0,-1.2461,-4.3635,-2.7715,-0.3882,2014
3,-0.5703,-1.0276,-1.196,-2.3661,-2.4705,-3.0934,2027
3,-0.4248,-1.2302,-2.0,-2.5574,-0.8485,-2.2711,2108
3,-1.2817,-0.3577,-0.8176,-1.1617,2.3435,-2.0723,2117
3,0.7771,-0.4014,-0.9978,0.4416,-2.1301,-1.6321,1962
3,-0.5979,-0.7292,-0.0857,-0.0278,-0.1896,-1.4195,1998
3,0.792,-0.8501,-0.6416,-0.2013,0.6359,-1.5423,2051
3,0.6611,-1.1396,0.0662,0.5955,1.6056,-1.1465,2022
3,0.7334,-1.0635,0.7388,-0.124,1.0443,-0.8989,2036
3,1.0459,-1.1316,0.5513,-0.6384,0.9566,-0.3611,1982
3,0.2676,-1.0139,0.1494,-0.5669,0.1021,-0.2683,2062
3,-0.1296,-0.7361,0.0559,-0.1249,-0.6441,-0.479,2027
3,-0.1406,-0.9756,-0.2402,-0.0815,-0.6404,-0.4365,2070
3,-0.2961,-1.1238,-0.231,-0.1549,-0.0987,-0.3032,1874
3,-0.3457,-1.0129,-0.3306,-0.214,-0.0172,-0.3358,2057
3,-0.2966,-0.9529,-0.2285,-0.0843,0.0494,-0.3995,2078
3,-0.2173,-0.9756,-0.156,-0.0668,0.1836,-0.5545,2057
3,-0.1709,-0.9636,-0.0764,0.019,0.0811,-0.5248,1977
3,-0.1931,-1.0413,0.0283,-0.1075,0.0125,-0.5838,2058
3,-0.1133,-0.9158,0.158,-0.061,0.023,-0.5493,2020
3,-0.0095,-0.8965,0.1438,0.1072,0.0767,-0.4774,1970
3,0.0581,-0.8315,0.123,0.2253,0.1465,-0.0352,1998
3,-0.0059,-0.9136,0.0691,0.2591,0.1533,0.5337,1888
3,-0.1982,-1.1699,0.0154,-0.0253,-0.1756,0.3378,2114
3,-0.2588,-1.2529,-0.1157,-0.2799,-0.0883,-0.3951,2101
3,-0.0195,-1.1543,-0.136,-0.3785,-0.0336,-0.5593,1956
3,0.144,-1.0127,-0.1812,-0.3862,-0.2009,-0.6717,1830
3,0.0273,-1.0625,-0.1443,-0.3401,-0.1836,-0.7769,2153
3,-0.0522,-1.0935,-0.0989,-0.3376,-0.041,-0.7719,2120
4,-0.0239,-1.0312,-0.0132,-0.3269,0.1334,-0.811,2071
4,0.043,-1.0286,-0.0461,-0.3344,0.1167,-0.7895,1825
4,-0.0454,-1.043,-0.0449,-0.3554,0.1328,-0.8182,1900
4,-0.1021,-1.0566,-0.0034,-0.3445,0.2064,-0.8301,2025
4,-0.1179,-1.0505,-0.001,-0.3908,0.2987,-0.8421,2159
4,-0.1768,-1.0566,0.0183,-0.4911,0.2862,-0.9078,1812
4,-0.1741,-1.0979,-0.0027,-0.5067,0.3179,-0.9385,1812
4,-0.2419,-1.0378,0.0273,-0.573,0.2469,-1.0537,2081
4,-0.3857,-0.968,0.0366,-0.5855,0.2581,-1.2133,1975
4,-0.1567,-1.0676,0.1946,-0.7056,0.4589,-1.011,1988
4,0.0464,-0.9785,0.0105,-0.8889,-0.7196,-1.2978,1969
4,-0.2603,-1.0601,0.054,-0.9147,-0.6951,-1.3327,2023
4,-0.3704,-1.0898,0.115,-0.9146,-0.5918,-1.6536,2252
4,-0.0811,-1.1277,0.1138,-0.7589,-0.3808,-1.9491,2040
4,0.0,-1.2764,0.135,-0.7909,-0.172,-2.009,2088
4,-0.0618,-1.2744,0.1577,-0.8435,-0.1117,-2.1001,1938
4,-0.0857,-1.2798,0.1562,-0.797,-0.1061,-1.9451,1850
4,-0.0007,-1.2957,0.1292,-0.8094,-0.4396,-1.922,1998
4,0.0022,-1.2375,0.1062,-0.8978,-0.7281,-2.0434,1999
4,-0.0693,-1.1394,0.1143,-0.8959,-0.9284,-2.0816,2108
4,-0.0493,-1.2085,0.0706,-0.9086,-1.0572,-2.1382,2108
4,-0.1648,-1.3054,0.1165,-1.0084,-1.0424,-2.2312,2063
4,-0.2227,-1.2478,0.1143,-1.0254,-0.8492,-2.4084,2089
4,-0.2283,-1.3611,0.0225,-0.9309,-0.9275,-2.5099,2055
4,-0.2651,-1.645,0.0103,-0.9403,-1.1039,-2.7613,2036
4,-0.7983,-1.7629,0.0762,-1.2368,-1.5768,-3.0146,2035
4,-1.3303,-1.4646,0.2563,-1.4617,-0.6646,-3.3358,2049
4,-1.1492,-1.4595,0.3445,-1.3724,-0.0834,-3.6944,2054
4,-0.5195,-1.8657,0.3979,-1.338,-0.1518,-4.3213,2042
4,-0.8271,-2.0,0.7783,-1.6665,0.3325,-4.0511,2221
4,0.177,-2.0,0.426,-2.2571,-0.8299,-3.2969,1980
4,0.2432,-2.0,0.6482,-2.3768,-1.3424,-2.5606,1997
4,-0.5437,-1.9495,-0.0332,-2.2759,-1.3214,-2.6646,2137
4,-0.2432,-1.7883,0.0649,-1.1661,-0.7974,-2.8137,1958
4,-0.8196,-1.7402,0.0842,-0.8602,0.3717,-2.2117,1970
4,-0.083,-0.9663,-0.6118,-0.7245,-1.6807,-2.4609,2039
4,-0.0085,-0.8997,1.241,-1.7125,2.1973,-2.4353,2105
4,-2.0,-0.9736,-1.8281,-4.3635,3.1107,-4.3635,1788
4,1.9999,1.9999,-2.0,0.4223,-4.3635,-1.2504,1925
4,1.9999,-1.1272,-1.7771,-0.3972,3.0092,0.4854,2508
4,0.74,0.4622,-0.7004,1.6021,-1.904,0.4227,2296
4,0.2476,-0.0132,0.2205,2.428,0.3678,1.262,2167
4,-0.1975,0.0952,0.1907,3.2164,3.7978,0.4169,2032
4,0.1785,-0.3496,0.0383,1.7451,3.3583,1.802,1997
4,-0.3459,-0.4597,0.0186,0.7558,3.1925,3.2661,2002
4,-0.2427,-0.3384,-0.1248,-0.3469,2.0663,3.4378,2005
4,0.0938,-0.0481,-0.4319,0.4868,0.2606,3.218,2018
4,0.4783,-0.23,-0.3608,1.6319,0.3143,2.9859,2037
4,0.5835,-0.4907,-0.2,1.6775,0.9412,2.5057,2043
4,0.6865,-0.4814,-0.041,1.3279,1.2698,2.3563,2045
4,0.7136,-0.2478,-0.2261,1.5263,0.866,3.0296,2051
4,0.8853,-0.1992,-0.3003,1.9604,0.1434,3.7676,2061
4,0.6335,-0.2769,-0.2383,2.1256,-0.0494,4.308,2049
4,0.5332,-0.3708,-0.1667,2.1668,0.1325,4.3244,2047
4,0.5432,-0.323,-0.2185,2.2803,0.2912,4.3634,1953
4,0.4495,-0.3938,-0.2319,2.6734,0.5882,4.3634,2043
4,0.4165,-0.4902,-0.1929,2.8592,0.6456,4.3634,2004
4,0.4109,-0.5222,-0.2424,2.9878,0.8843,4.3634,2036
4,0.3728,-0.5039,-0.1284,2.9538,0.9091,4.3634,2004
4,0.2498,-0.605,0.1128,2.7169,0.0972,4.3634,2078
4,-0.0491,-0.666,0.0601,2.1305,-1.6157,4.3634,2046
4,-0.3076,-0.6738,-0.4514,2.8287,-1.6632,4.3634,2021
4,0.1594,-1.085,-0.7817,4.0096,0.397,4.3634,2073
4,0.4812,-1.6584,0.1111,3.4523,2.0309,4.3634,2074
4,-1.895,-0.6377,-0.2214,1.2792,3.3741,3.059,1995
4,1.0735,-1.5105,-0.5522,3.8199,2.1501,4.3634,1970
4,1.2893,-2.0,-0.5867,3.5095,1.2202,4.3634,2106
4,0.4907,-1.853,-0.6165,2.7594,1.9389,4.3634,2078
4,-0.6165,-2.0,0.165,2.0222,2.9703,3.7898,2061
4,0.5444,-1.7039,0.0586,1.7414,2.1478,4.3634,2082
4,0.6704,-1.6453,0.1704,1.144,2.121,3.6042,2081
4,0.387,-1.532,-0.2698,0.9401,1.4609,3.0987,2044
4,0.4546,-1.6597,-0.1931,0.6683,1.2057,2.388,2028
4,0.6089,-1.3186,-0.0471,0.1479,0.8742,1.5038,2041
4,0.7546,-1.2092,-0.0911,-0.1947,0.127,0.6858,2036
4,0.8572,-1.1855,-0.2051,-0.4739,-0.5096,-0.1384,2031
4,-0.4189,-2.0,1.7346,-4.3635,-0.1186,-2.1834,1959
4,0.8779,0.0046,-0.5142,-3.4571,-0.2551,-4.3635,1583
4,1.9999,0.877,-0.6797,0.5873,-4.3635,-2.3084,2278
4,-0.7488,-1.5479,1.8672,-0.8445,-2.1393,-2.5529,2270
4,-2.0,-1.1323,1.9709,0.5291,-0.343,-0.7842,2275
4,-1.9968,-2.0,1.6497,-0.7789,-0.9372,-0.8297,2048
4,0.1606,-0.9829,0.1453,-0.8146,-4.3635,-2.16,1935
4,1.9999,-0.8701,1.1248,-0.8353,-4.3635,-3.072,1986
4,1.4087,-1.5723,1.6023,-1.9883,-0.7751,-2.5215,2081
4,0.1174,-1.2988,0.3806,-2.5195,1.22,-2.4748,2089
4,0.7737,-1.4138,-0.7581,-2.826,-0.3509,-2.0567,2057
4,1.7041,-1.6523,-1.5757,-2.1,-4.3635,-1.2216,2067
4,-0.9463,-2.0,-1.5217,-3.2264,-1.6752,-1.9654,2029
4,-0.7366,-0.9297,-2.0,-2.7036,1.5199,-1.0879,2046
4,-0.7539,0.2517,-1.0994,-1.4785,0.5895,-0.9092,2049
4,-1.0032,0.3162,-0.7991,1.1704,-0.8139,-0.8612,2054
4,-0.3611,-0.6597,-0.2937,0.6489,-0.0633,-1.2252,2001
4,0.0166,-1.0945,-0.4158,0.4641,0.7755,-1.0513,2101
4,0.6846,-1.9712,0.7341,-0.0574,0.3328,-2.42,2073
4,1.1279,-0.8958,0.2639,0.0186,-0.5578,-1.5528,2032
4,1.2554,-0.4814,0.0579,0.2501,-0.9685,-0.5096,2023
4,0.9106,-0.5754,0.1511,0.4549,0.2498,1.0074,2014
4,0.5339,-1.0618,0.0864,0.5822,-0.2442,1.4009,2002
4,0.3403,-1.554,0.2498,-0.1593,-0.5545,0.5948,2028
4,0.187,-1.5522,-0.1196,-0.6874,-0.3715,-0.2838,2041
4,-0.1531,-1.2913,-0.2439,-0.6703,-0.1348,-0.2149,2037
4,-0.2893,-1.0186,-0.354,-0.5197,-0.308,-0.3795,2007
4,-0.4575,-0.8022,-0.2886,-0.2385,-0.1178,-0.5204,2075
4,-0.3547,-0.9106,-0.251,-0.0654,0.3701,-0.6088,2029
5,-0.0574,-1.0403,-0.1865,0.3053,0.9234,-0.5163,1998
5,0.2451,-1.0964,0.1045,0.2677,1.2146,-0.3583,2156
5,0.3989,-1.0742,0.0215,0.2954,1.0419,-0.3364,2161
5,0.3618,-1.0593,0.0886,0.3344,0.3659,-0.5316,2133
5,0.1138,-1.0144,0.1853,0.2117,-0.0229,-0.4706,2044
5,-0.1501,-0.9683,0.0005,0.185,-0.0228,-0.3864,1861
5,-0.2896,-1.0015,0.0098,0.2204,0.1121,-0.392,2108
5,-0.2183,-1.0913,-0.0798,0.1521,0.4043,-0.4338,2028
5,-0.0205,-1.0977,-0.0647,0.1634,0.503,-0.475,2032
5,0.0649,-1.0388,-0.0039,0.0823,0.3926,-0.4906,2065
5,0.0178,-1.0154,0.051,0.0445,0.3727,-0.4912,2231
5,-0.0286,-1.0312,0.0762,-0.0064,0.3843,-0.4963,2113
5,0.0115,-1.0325,0.0911,-0.0289,0.4416,-0.5259,2231
5,0.0732,-0.9934,0.0432,-0.0341,0.3717,-0.5014,2040
5,0.0149,-1.0286,0.0439,-0.0382,0.3093,-0.505,2149
5,-0.0764,-1.0486,0.0789,-0.0931,0.3589,-0.5674,1989
5,-0.1787,-0.9939,0.0903,-0.1549,0.3619,-0.6159,1947
5,-0.26,-0.9468,0.124,-0.1864,0.292,-0.6737,2099
5,-0.2966,-0.9297,0.1628,-0.2485,0.2436,-0.7926,1985
5,-0.2773,-0.8997,0.2043,-0.3675,0.0835,-0.7919,2123
5,-0.3044,-0.9731,0.2183,-0.4706,-0.149,-0.9644,2031
5,0.0015,-1.0708,0.2749,-0.6243,-0.1802,-0.7215,2087
5,-0.03,-1.1714,0.2544,-0.7969,-0.5293,-1.1148,1656
5,-0.3342,-1.0959,0.0615,-0.7855,-0.7801,-1.6004,1910
5,-0.3479,-1.0564,0.0813,-0.8365,-0.6614,-1.6719,1987
5,-0.4839,-1.0715,0.0776,-0.8737,-0.3239,-2.0161,1992
5,-0.408,-1.1492,0.0569,-0.8661,-0.0248,-2.126,2057
5,-0.2212,-1.1299,0.1113,-0.7986,0.1332,-2.288,2013
5,-0.0542,-1.1741,0.1357,-0.8259,0.1461,-2.2202,1703
5,-0.0564,-1.2175,0.0063,-0.8206,-0.1739,-2.1378,1933
5,0.1216,-1.3035,0.1167,-0.7708,-0.3036,-2.1146,2084
5,-0.0535,-1.332,0.1973,-0.8151,-0.1518,-2.2368,2048
5,0.0625,-1.3523,0.0798,-0.6984,-0.1736,-2.2084,2045
5,0.0959,-1.5405,0.0886,-0.6502,-0.3578,-2.3333,2029
5,-0.3098,-1.574,0.1609,-0.823,-0.444,-2.4699,2036
5,-0.5564,-1.4868,0.2329,-0.9629,-0.273,-2.508,2090
5,-0.3027,-1.3271,0.2854,-0.8626,-0.1744,-2.6469,2138
5,-0.0066,-1.5898,0.3833,-0.8537,-0.7345,-2.8916,2084
5,-0.2412,-1.8047,0.3701,-0.9488,-1.6922,-2.9869,2016
5,-1.1943,-1.7637,0.5442,-1.2314,-1.0512,-3.8438,2104
5,-1.1072,-1.7246,0.5925,-1.084,-0.3679,-3.8916,2014
5,-0.0183,-1.9238,0.6404,-1.3503,-0.1396,-4.0945,2053
5,-0.116,-2.0,0.1855,-1.8719,0.1581,-3.5412,2045
5,-0.3059,-2.0,0.1626,-2.4607,0.6894,-1.7366,2044
5,-0.4934,-1.4143,-0.0664,-1.9383,-0.0732,-1.4888,1959
5,-0.7283,-0.9822,-0.1394,-1.2756,-0.2582,-1.9626,1984
5,-0.8857,-0.6492,-0.0703,-0.9817,-0.6983,-2.4321,2079
5,0.592,-1.251,0.2393,-1.4629,-0.2617,-2.2117,2138
5,-0.5283,0.0076,-1.4138,-4.3635,-1.4279,-4.3599,1953
5,0.5273,-2.0,1.9999,-4.3635,4.3634,-4.3635,1728
5,1.9999,-0.2124,-2.0,-0.7336,0.4759,-2.3047,2143
5,1.9999,0.5652,-1.0273,0.7071,-1.166,-0.1815,2374
5,0.1743,-0.7563,-0.083,0.6255,-0.9099,0.9978,2257
5,0.1301,0.0676,-0.2395,1.9865,0.8794,1.5363,2195
5,0.1453,0.0134,0.0359,2.212,2.43,1.6946,2053
5,-0.0215,-0.4482,0.189,-0.2177,1.8488,2.1812,1974
5,-0.1838,-0.4866,-0.3499,-0.4854,1.9515,2.8331,1970
5,-0.1145,-0.0598,-0.5269,0.1904,0.3137,3.1678,1992
5,0.0811,-0.1331,-0.6033,0.5402,-0.4059,3.3476,2028
5,0.3093,-0.4233,-0.4841,0.9195,0.0826,3.2424,2040
5,0.4978,-0.5151,-0.363,0.9598,0.5084,3.1075,2045
5,0.6409,-0.4187,-0.3657,0.968,0.1522,3.2147,2046
5,0.7566,-0.3274,-0.3879,1.1395,-0.441,3.5179,2052
5,0.582,-0.2563,-0.2859,1.3589,-0.6024,3.7207,2062
5,0.5005,-0.3894,-0.2227,1.3969,-0.8042,4.2572,2053
5,0.4175,-0.3926,-0.3047,1.4656,-0.8813,4.3634,2035
5,0.3718,-0.363,-0.3201,1.66,-0.9252,4.3634,2010
5,0.3184,-0.4817,-0.3132,1.8857,-0.8166,4.3634,1981
5,0.2849,-0.6851,-0.3735,2.129,-0.6573,4.3634,2161
5,0.2954,-0.8665,-0.2986,2.2811,-0.5714,4.3634,2063
5,0.3662,-0.6587,-0.1978,1.9928,-0.719,4.3634,2057
5,0.3503,-0.6069,-0.0991,1.827,-1.0966,4.3634,2045
5,0.0564,-1.1348,-0.1218,1.87,-1.768,4.3634,1957
5,0.1165,-0.8389,-0.4114,1.9108,-1.5757,4.3634,2035
5,0.0154,-0.8315,-0.5027,2.3182,-0.6582,4.3634,2066
5,-0.3833,-1.0513,-0.4749,2.3594,0.2667,4.3634,2037
5,-0.6941,-1.272,-0.4338,2.447,1.3874,4.3634,2067
5,-1.5129,-1.4692,0.2507,0.9138,3.4671,4.1596,2062
5,0.574,-1.3506,-0.4277,1.8233,3.0345,4.3634,2068
5,0.0288,-2.0,-0.835,2.8858,2.6027,4.3634,2022
5,-0.1755,-2.0,-0.2207,1.9499,2.9945,4.3634,2066
5,-0.0723,-1.7102,0.2219,1.5022,3.8789,4.0583,2075
5,0.053,-1.7781,0.3647,1.0196,3.6472,4.1231,2068
5,0.7634,-1.6528,0.2395,0.6782,3.3319,3.5958,2040
5,0.5308,-1.583,0.1772,0.3027,3.4386,2.6876,2046
5,0.4666,-1.3875,0.0903,-0.0037,2.3408,1.9663,2060
5,0.5991,-1.2014,0.1594,-0.2424,1.4916,1.1704,2053
5,0.8528,-1.094,0.2019,-0.4251,0.6417,0.2922,2060
5,1.1208,-1.0349,0.3215,-0.7375,-0.2826,-0.4172,2031
5,1.1584,-1.0496,0.2454,-1.0039,-1.2986,-1.103,2052
5,1.2048,-1.0981,0.23,-1.2168,-2.219,-1.7404,2074
5,-0.1492,-2.0,1.9999,-4.3635,-2.2635,-4.3635,1919
5,0.5881,0.1804,0.3066,-3.034,-1.4653,-4.3635,1770
5,0.866,0.3367,0.5784,0.2055,-4.3635,-3.3825,2119
5,-2.0,-0.1338,1.3203,-0.7981,-1.1444,1.2573,2218
5,-2.0,-2.0,-0.2424,1.3836,-0.1111,0.0172,2153
5,0.3413,-1.6731,0.4131,0.0084,-3.6735,0.2701,2114
5,1.8682,-0.9265,0.8323,-0.8023,-4.3166,-2.1218,2061
5,1.4473,-2.0,1.7375,-0.0121,-2.3133,-2.9897,2034
5,-0.2549,-1.864,0.981,0.021,1.319,-2.934,2073
5,1.353,-2.0,0.1064,-2.9946,0.0634,-1.5472,2032
5,0.3823,-1.8628,-0.7576,-2.0884,-3.5107,-1.8507,1974
5,-0.1685,-0.7922,-1.6406,-4.0644,-1.7709,-2.3352,2034
