,Unnamed: 0,timestamp,node,accx,accy,accz,gyrox,gyroy,gyroz,q0,q1,q2,q3,timestamp.1,node.1,accx.1,accy.1,accz.1,gyrox.1,gyroy.1,gyroz.1,q0.1,q1.1,q2.1,q3.1,timestamp.2,node.2,accx.2,accy.2,accz.2,gyrox.2,gyroy.2,gyroz.2,q0.2,q1.2,q2.2,q3.2,timestamp.3,node.3,accx.3,accy.3,accz.3,gyrox.3,gyroy.3,gyroz.3,q0.3,q1.3,q2.3,q3.3,timestamp.4,node.4,accx.4,accy.4,accz.4,gyrox.4,gyroy.4,gyroz.4,q0.4,q1.4,q2.4,q3.4,timestamp.5,node.5,accx.5,accy.5,accz.5,gyrox.5,gyroy.5,gyroz.5,q0.5,q1.5,q2.5,q3.5,timestamp.6,node.6,accx.6,accy.6,accz.6,gyrox.6,gyroy.6,gyroz.6,q0.6,q1.6,q2.6,q3.6,timestamp.7,node.7,accx.7,accy.7,accz.7,gyrox.7,gyroy.7,gyroz.7,q0.7,q1.7,q2.7,q3.7,timestamp.8,node.8,accx.8,accy.8,accz.8,gyrox.8,gyroy.8,gyroz.8,q0.8,q1.8,q2.8,q3.8
0,0,0.048,0.0,7.23e-17,-8.42e-17,1.0,0.002877632,-0.004197796,-0.011622738,0.9999997987797304,0.0001438815710481,-0.0002098061428757,-0.0005811367950941,0.048,1.0,-5.38e-17,3.1e-17,1.0,-0.031446022,0.033516921,-0.007201201,0.9999972958422368,-0.0015722968482497,0.0016752753969661,-0.0003600599664539,0.048,2.0,1.23e-17,9.5e-18,1.0,-0.032066567,0.011286167,0.020833488,0.9999980119636332,-0.0016033251625249,0.0005659773709111,0.0010416750069006,0.048,3.0,1.93e-17,7.75e-17,1.0,-0.00913563,-0.015578473,-0.02602951,0.9999987449338364,-0.0004567809267089,-0.0007795171615842,-0.0013014741381137,0.049,4.0,4.94e-17,-8.25e-18,1.0,-0.023765953,-0.000174463,-0.093758145,0.9999883058091016,-0.0011882837538204,-1.429361201441318e-05,-0.0046878590482058,0.148,5.0,2.9e-17,-5.87e-17,1.0,-0.022679107,-0.012564765,-0.009912296,0.9999990365618132,-0.0011339542575041,-0.0006287996492438,-0.0004956149597937,0.0,6.0,-7.08e-17,9.51e-17,1.0,-0.014582154,-0.011993164,-0.002980421,0.9999995432375068,-0.0007291073669709,-0.000599766578444,-0.000149021061152,0.0,7.0,-1.05e-16,-1.75e-19,1.0,-0.006303018,5.76e-05,-0.02044696,0.9999994277393548,-0.0003151507196515,2.5578046439602765e-06,-0.0010223475164901,0.0,8.0,6.82e-18,1.25e-18,1.0,-0.013280693,-0.005899403,-0.001713424,0.999999732338842,-0.0006640344722637,-0.000295026959678,-8.567121484516897e-05
1,1,0.112,0.0,-0.000928464,-0.00027825,0.979787763,0.002785767,-0.001057911,-0.008418383,0.9999994466547903,0.0002546673074048,-0.0001943057279495,-0.0010020379032347,0.112,1.0,-6.15e-17,1.25e-17,0.98020253,-0.005254601,0.00452037,0.001168061,0.9999970440142416,-0.0016776180708329,0.0017339591771834,-0.0003015724776102,0.112,2.0,-0.001093265,-0.000883233,0.980297416,-0.008582121,0.007440443,0.025673997,0.9999950188279442,-0.0019168638553957,0.0009391280423971,0.0023250786609127,0.112,3.0,0.00161579,0.000327774,0.980119524,-0.005559702,-0.011244229,-0.031370678,0.9999947486412184,-0.0006719813312223,-0.001346914919649,-0.0028700089330754,0.113,4.0,0.002066218,0.000491163,0.978368279,0.009245343,-0.020114295,-0.001036073,0.9999879659418222,-0.0005873015431643,-0.0011264754619075,-0.0047385758902903,0.163,5.0,0.001273534,-0.001829171,0.980313232,-0.024792378,-0.011857553,-0.000355963,0.9999963499647376,-0.0023537821087323,-0.001223131220229,-0.0005135338398684,0.074,6.0,0.012234421,-0.024004474,1.008125044,-1.195204901,-1.000579543,0.47342682,0.9966041286925004,-0.0614191061907833,-0.0495386608994013,0.0235334898406879,0.074,7.0,0.068900695,-0.109202203,1.014794843,0.200762763,-0.260683238,1.551695635,0.9969329912727616,0.0043867391936569,-0.0166943429167821,0.0763326034258467,0.074,8.0,-0.083568169,0.095206547,1.05670198,0.762640042,1.05065492,-1.395782182,0.994955871894364,0.0418201929669622,0.0588245145761211,-0.0696675026681415
2,2,0.183,0.0,-0.000928464,-0.00027825,0.979787763,0.002012506,0.001542315,-0.012652073,0.9999986128716792,0.0003158739175434,-5.026549677838995e-05,-0.0016346105853365,0.183,1.0,-6.15e-17,1.25e-17,0.98020253,-0.002673885,-0.00286078,0.000137817,0.999997601273796,-0.0016435821792721,0.0014175770716711,-0.0002942099928788,0.183,2.0,-0.001093265,-0.000883233,0.980297416,-0.00054927,0.006044392,-0.037943849,0.9999975685895544,-0.0018003005407457,0.0011996099778273,0.000427397758133,0.183,3.0,0.00161579,0.000327774,0.980119524,-0.011160598,0.004751896,-0.032747929,0.9999886244867108,-0.0011434345978555,-0.0010573762952687,-0.0045083710879471,0.183,4.0,0.002066218,0.000491163,0.978368279,0.014848523,-0.009357945,-0.01585305,0.999983415008692,0.0002371185433046,-0.0015907592607908,-0.0055301869158939,0.227,5.0,0.008731502,0.002102078,0.978603261,-0.026901711,-0.034395286,0.039676786,0.9999879620122188,-0.0033596173030641,-0.0032593607683429,0.0014715194894652,0.148,6.0,-3.37e-17,3.65e-17,0.979998469,-0.007081425,-0.001854258,-0.007369575,0.99717909464977,-0.0556427673236033,-0.0447327893997384,0.0231670712554522,0.148,7.0,-1.02e-16,-3.61e-17,0.98026119,-0.019918855,-0.005802442,-0.00788465,0.996990412656196,0.0029839518667305,-0.0153893720129637,0.0759235163301286,0.148,8.0,0.000978728,0.000202547,0.980288223,-0.002484262,-0.011640031,-0.013042778,0.99544120344119,0.0374613791660602,0.0523716190403999,-0.0703609911926977
3,3,0.274,0.0,-0.000928464,-0.00027825,0.979787763,0.005820115,0.004611303,-0.003324982,0.9999981939188224,0.0005615549788361,0.0002323474442583,-0.0018007858739624,0.274,1.0,-6.15e-17,1.25e-17,0.98020253,0.002821106,0.002049261,0.001787346,0.9999981338641484,-0.001338012696164,0.001378360817503,-0.0002052113599098,0.275,2.0,-0.001093265,-0.000883233,0.980297416,0.003319741,-0.008256373,0.016653404,0.9999978210888204,-0.0014981809449897,0.0007238917982025,0.001260655437495,0.275,3.0,0.001171543,-0.000567874,0.980140962,-0.002846053,0.014405293,-0.01075307,0.9999865051543144,-0.0011968140606665,-0.0002910181068341,-0.0050470242545493,0.275,4.0,0.002373851,0.001432323,0.978508208,0.012641568,0.007554014,-0.016235784,0.9999787771732604,0.0009213682680449,-0.0011784393523388,-0.0063409434848494,0.291,5.0,0.001208195,-0.003039567,0.97958476,-0.01822709,-0.008984696,0.013448777,0.9999834059664252,-0.0040915813153983,-0.0034431410750755,0.0021427864253121,0.163,6.0,0.000365602,-0.000882135,0.980295409,-0.012774803,-0.005871965,0.001811227,0.9976130651976703,-0.050781819869447,-0.0406019813299,0.0232563546099181,0.163,7.0,0.000214755,-0.001137757,0.979449161,-0.013262307,-0.000440516,-0.00417984,0.9970307154284184,0.0019722835667137,-0.0139379575939192,0.0757073043235541,0.163,8.0,0.001222484,-0.001067532,0.979715962,-0.020443524,-0.00959936,-0.004177449,0.995880459071438,0.0326073568546303,0.0466953097078023,-0.0705579164226765
4,4,0.32,0.0,-0.000928464,-0.00027825,0.979787763,0.003805759,0.003476811,-0.003697018,0.9999977037021152,0.0006818430001532,0.0004301425607563,-0.0019856127510794,0.32,1.0,-6.15e-17,1.25e-17,0.98020253,0.0014107,-0.001909499,0.004973339,0.9999987009322014,-0.001133353670183,0.0011453175844674,4.3485613727609214e-05,0.32,2.0,-0.001093265,-0.000883233,0.980297416,-0.002978925,-0.00253673,-0.006114721,0.9999981860588774,-0.0015424897616785,0.0005797119920526,0.0009552687039284,0.32,3.0,0.001171543,-0.000567874,0.980140962,-0.004676759,0.007034675,-0.006547733,0.9999846587091082,-0.0013383669338487,3.093717274873156e-05,-0.0053749570482162,0.321,4.0,0.002373851,0.001432323,0.978508208,-0.002292128,0.005283921,0.015649651,0.9999838205952544,0.000787797925123,-0.0009180537291304,-0.0055583360367817,0.343,5.0,0.001674136,-0.005931937,0.98023059,-0.027439279,-0.012598142,-0.001763076,0.9999762642322914,-0.0053550903919458,-0.0038181744519399,0.0020531738307513,0.291,6.0,0.00075184,-0.002394599,0.978694386,-0.015978224,-0.008083,0.017407906,0.9979342882882792,-0.0466662731941819,-0.036978911104515,0.0241241650271255,0.291,7.0,0.000694563,-0.002007659,0.979563416,-0.024295597,-0.005507116,-0.005587126,0.9970680553000328,0.0004891161056541,-0.0129538369918995,0.0754138712229611,0.292,8.0,0.001423046,-0.001978637,0.980076048,-0.013497291,-0.01032325,-0.003576932,0.996221882949727,0.0285331759829883,0.0415121566399808,-0.0707429053087439
5,5,0.396,0.0,-0.000928464,-0.00027825,0.979787763,0.004155987,0.007563829,-0.006265813,0.9999967012788038,0.0008079682193026,0.0008125679523784,-0.0022987718873663,0.396,1.0,-0.00098394,-0.0001785,0.98020253,-0.004208524,0.01146518,0.00515478,0.999997818071533,-0.0012392813073924,0.0016545440717944,0.0003008619768365,0.396,2.0,-0.001093265,-0.000883233,0.980297416,-0.006214932,0.006270396,0.007998625,0.9999971637244464,-0.0017441566758653,0.0008913791500885,0.0013549552626224,0.397,3.0,0.001171543,-0.000567874,0.980140962,-0.008874798,0.009248408,-0.001054586,0.999983769619288,-0.0016750690005811,0.0004329457811219,-0.0054283699019967,0.397,4.0,0.002066218,0.000491163,0.978368279,-0.015016604,0.013706058,-0.013022747,0.9999806911347549,-1.2877228968521723e-05,-0.0002425256733771,-0.0062095388824533,0.389,5.0,0.00182945,-0.00689606,0.980445867,-0.029110922,-0.012251043,-0.00386698,0.9999677306921456,-0.0066245653565028,-0.0041471793996565,0.0018583894277064,0.343,6.0,0.001117442,-0.003276734,0.978991325,-0.009897365,-0.006925349,0.002192351,0.9982262404176336,-0.0426686476440339,-0.0337058262350274,0.0242420446274633,0.343,7.0,0.00117437,-0.002877562,0.979677672,-0.017136596,-0.001056149,-0.001762669,0.99708906199833,-0.0005509132634565,-0.0118467658223325,0.0753176810411556,0.343,8.0,0.001709995,-0.003607689,0.978571439,-0.013625536,-0.013898594,0.00247364,0.9965211143683456,0.0247735115615255,0.0366486848742017,-0.0706315484749755
6,6,0.453,0.0,-0.001856927,-0.0005565,0.980033796,0.000469527,0.010300047,-0.012826688,0.99999451745542,0.0007231365477317,0.0013415230119941,-0.0029398041845063,0.454,1.0,-0.00196788,-0.000357001,0.98020253,-0.006678789,0.019215267,0.002724466,0.999995575713037,-0.0014675955312449,0.0025503234976838,0.0004365406803105,0.454,2.0,-0.00218653,-0.001766467,0.980140346,-0.010905926,0.02376396,0.004506203,0.9999941105400793,-0.002206705923448,0.0021016089024384,0.0015787888221325,0.454,3.0,0.000727297,-0.001463522,0.980162399,-0.012945992,0.007540839,-0.002074785,0.9999819450984344,-0.0022277056005081,0.0007332741522759,-0.005532550399797,0.454,4.0,0.001758584,-0.000449997,0.97822835,-0.012930807,0.0080279,-0.010599599,0.9999770529780672,-0.000679052204245,9.702637208357676e-05,-0.0067396580986504,0.451,5.0,0.00064589,-0.007241409,0.979753104,-0.020314254,-0.005019473,-0.001338022,0.9999633329902378,-0.0073465337323513,-0.0040194655947505,0.0017902551512792,0.39,6.0,0.001483044,-0.004158869,0.979288264,-0.01808601,-0.007944549,0.009246698,0.9984373065835992,-0.0395311482614462,-0.0308244822765514,0.0246998872791361,0.39,7.0,0.002613793,-0.005487269,0.980020438,-0.013798923,0.001639687,-0.005946782,0.997122865893331,-0.0014555388072586,-0.0107868770136191,0.0750167648179012,0.39,8.0,0.002889286,-0.004316247,0.978898882,-0.013837245,-0.015436582,-0.013417367,0.99670822739437,0.0213019125089035,0.0321528164789041,-0.0713101280345898
7,7,0.509,0.0,-0.001856927,-0.0005565,0.980033796,-0.005670516,0.010725978,-0.019199942,0.9999906485888144,0.0003394754108949,0.0018396441459004,-0.003899128208197,0.509,1.0,-0.00196788,-0.000357001,0.98020253,-0.008351348,0.023545976,-0.003486732,0.99999203988477,-0.0017576132321448,0.0035724649919855,0.000261642319808,0.509,2.0,-0.00218653,-0.001766467,0.980140346,-0.015061925,0.029910883,-0.016688294,0.9999896028203172,-0.0028335249549186,0.0034948199202905,0.00074271213705,0.509,3.0,0.000727297,-0.001463522,0.980162399,-0.008841827,0.001007729,-0.01086211,0.9999781356246622,-0.002521998181455,0.0006747216847428,-0.0060755698041837,0.51,4.0,0.000571659,-0.001166158,0.978508208,-0.013383643,0.011969002,-0.018649662,0.9999694555487644,-0.0013361493932475,0.0006602114212341,-0.0076724699534386,0.513,5.0,0.001764111,-0.008106456,0.979717395,-0.015914581,-0.006889503,0.000895339,0.999959516519736,-0.0078206915077171,-0.0040538354388481,0.0018353539690819,0.514,6.0,0.001858964,-0.005356168,0.978636222,-0.016531438,-0.01272623,-0.002758159,0.9986186699059328,-0.0366623301136258,-0.0285107630252476,0.0245715701098552,0.514,7.0,0.003093601,-0.006357172,0.980134693,-0.016592039,-0.004783505,-0.023262957,0.9972141937854536,-0.0024183288799979,-0.010193430208465,0.0738518610384377,0.514,8.0,0.003089848,-0.005227353,0.979258969,-0.010626782,-0.01592801,-0.016448973,0.9968316553281636,0.0182846712483538,0.0280629950965595,-0.0721442308106722
8,8,0.564,0.0,-0.001856927,-0.0005565,0.980033796,-0.003595649,0.00931224,-0.015806361,0.9999865442521028,9.808743963717971e-05,0.0022169114845536,-0.0046890294369702,0.564,1.0,-0.002951819,-0.000535501,0.98020253,-0.010015267,0.019029097,0.001761884,0.9999883933714414,-0.002109900045881,0.0043172827844765,0.0003500193692117,0.564,2.0,-0.003279795,-0.0026497,0.979983276,-0.015172793,0.017839579,-0.001374077,0.9999850028610168,-0.0034450183380898,0.0042037418486479,0.0006741336460164,0.564,3.0,0.000727297,-0.001463522,0.980162399,-0.009586144,0.000916836,-0.013801017,0.999972934836649,-0.0028241619061423,0.000617407518292,-0.0067655385345921,0.565,4.0,-0.000307634,-0.00094116,0.978927995,-0.009774168,0.005972928,-0.018685315,0.9999610364534268,-0.0017374983302518,0.0009110326180229,-0.0086067818672206,0.553,5.0,0.002882332,-0.008971504,0.979681685,-0.015319715,-0.008607879,0.00249922,0.9999550118701808,-0.0082618911498284,-0.0042271494156217,0.0019612746245899,0.553,6.0,0.002224566,-0.006238303,0.978933162,-0.014537133,-0.013368328,-0.007121133,0.9987764697485848,-0.0340170246646278,-0.0264833555328987,0.0242288544763898,0.553,7.0,0.003093601,-0.006357172,0.980134693,-0.011770136,-0.004843923,-0.005782979,0.9972394101629808,-0.0030542980328444,-0.0096413377828066,0.0735613668108118,0.553,8.0,0.003089848,-0.005227353,0.979258969,-0.008580478,-0.008586827,-0.0111312,0.9969228991659214,0.0157065542343953,0.0247335068604522,-0.0727068835192376
9,9,0.604,0.0,-0.002785391,-0.000834749,0.98027983,-0.002507175,0.005001024,-0.008061848,0.9999841814591186,-7.8709197054494e-05,0.0023880925810694,-0.0050919200919587,0.604,1.0,-0.003771682,-0.001618437,0.979808734,-0.014120031,0.011344634,0.009279672,0.9999852667349438,-0.0026857538904889,0.0046462188287226,0.0008158980810047,0.604,2.0,-0.004373059,-0.003532933,0.979826206,-0.017693853,0.005688894,0.014494649,0.99998113721373,-0.0041627699693073,0.0042932585532631,0.0014016040499257,0.605,3.0,0.00028305,-0.00235917,0.980183837,-0.018262177,0.006343216,-0.01573095,0.9999647219327994,-0.0035736004249883,0.0008625595864698,-0.0075525003026414,0.605,4.0,-0.000307634,-0.00094116,0.978927995,-0.0046867,-0.00420508,-0.015046761,0.9999543033041934,-0.0018485023166006,0.0006264374642956,-0.0093585211820052,0.601,5.0,0.003037645,-0.009935627,0.979896962,-0.010477944,-0.003688943,0.005631659,0.9999530534548274,-0.0084670585825915,-0.0041435121532404,0.0022430141242934,0.601,6.0,0.002590168,-0.007120438,0.979230101,-0.007148057,0.000180983,-0.001241323,0.9989289389623592,-0.0313354670588737,-0.0239811158362037,0.0241654607029923,0.601,7.0,0.003093601,-0.006357172,0.980134693,-0.008061886,-0.00065581,0.001365979,0.9972398266070622,-0.0034609063830353,-0.0089206165526413,0.0736286150626585,0.602,8.0,0.005247866,-0.005733364,0.97955377,-0.010251704,-0.009651579,-0.003685178,0.9970178771251574,0.0132754418673678,0.0215752293304705,-0.0728946144472156
10,10,0.663,0.0,-0.002918673,-0.001888471,0.97858516,-0.013265417,-0.005037119,0.001703561,0.999985025645945,-0.0008309066869201,0.0020504943455875,-0.0050053522248756,0.663,1.0,-0.003607605,-0.002522872,0.979414938,-0.021720572,0.004352095,0.005774066,0.9999822890836524,-0.0036309690326507,0.0045834270577911,0.0011089541507908,0.663,2.0,-0.00447515,-0.004491428,0.979560003,-0.026739424,-0.00422607,-0.011244501,0.9999780054541182,-0.0053151251524612,0.0038758721731073,0.0008459713440623,0.664,3.0,0.00028305,-0.00235917,0.980183837,-0.02530579,0.011867086,-0.028608158,0.9999481450563872,-0.0045986653198386,0.0013590766690209,-0.0089840072447978,0.664,4.0,-0.000307634,-0.00094116,0.978927995,-0.003190254,0.002615625,-0.041761281,0.9999324842825044,-0.001871159213003,0.0007083135526706,-0.0114465685569934,0.721,5.0,0.003037645,-0.009935627,0.979896962,2.59e-05,0.001902824,0.013367577,0.9999555615076324,-0.008128649182519,-0.0037847249718722,0.0029113449315173,0.721,6.0,0.002590168,-0.007120438,0.979230101,-0.007684014,-0.002814522,-0.005953719,0.999056449162565,-0.0289387302594814,-0.0218851141440962,0.0238705478897366,0.721,7.0,0.003093601,-0.006357172,0.980134693,-0.004429413,-0.001176625,0.000477167,0.9972428457499546,-0.0036433559333841,-0.0082847481304322,0.0736532111078003,0.721,8.0,0.005448428,-0.006644469,0.979913856,0.001325415,-0.001493833,-0.001609806,0.997082215204539,0.0116495401382602,0.0190885229256663,-0.0729861125824133
11,11,0.738,0.0,-0.002918673,-0.001888471,0.97858516,-0.003827838,0.000214801,0.007788701,0.999986798975168,-0.0010340947113466,0.0020071528744493,-0.004615610562378,0.738,1.0,-0.003537312,-0.002910344,0.980334136,-0.000351096,-0.009797947,0.011276593,0.9999854259698808,-0.0034309353481464,0.0038173580791315,0.0016746067503154,0.738,2.0,-0.003399408,-0.004841686,0.980408589,-0.005748858,-0.002227265,0.018091921,0.999978024828826,-0.0053145166160256,0.0035546461739274,0.0017522166407894,0.738,3.0,0.00028305,-0.00235917,0.980183837,-0.008812443,0.003066655,-0.005647085,0.9999450903055724,-0.0046988771370903,0.0013657708801951,-0.0092666929016931,0.738,4.0,-0.000307634,-0.00094116,0.978927995,0.006659746,-0.005021912,0.011652072,0.9999399256271598,-0.0014014241481358,0.0003996681284658,-0.0108637660364262,0.823,5.0,0.002230052,-0.010998826,0.980363225,-0.012431643,-0.003655842,0.00718942,0.9999516774809336,-0.0084987659102494,-0.0037031639105923,0.0032711249014709,0.823,6.0,0.002590168,-0.007120438,0.979230101,-0.004377232,-0.002638692,-0.005976159,0.9991677966916044,-0.0266166066575124,-0.0199844635581469,0.0235773518609974,0.823,7.0,0.003093601,-0.006357172,0.980134693,-0.012105799,0.000728218,-0.000138165,0.9972464949298996,-0.0041970616880585,-0.0076458725778827,0.0736434223521653,0.823,8.0,0.005448428,-0.006644469,0.979913856,-0.003049666,-0.00694108,-0.000838374,0.99714160126345,0.0099487919499303,0.0165938518971707,-0.07303624201528
12,12,0.813,0.0,-0.002918673,-0.001888471,0.97858516,-0.004676898,0.001571402,0.001862496,0.9999869093480264,-0.0012597775098239,0.0020357735475045,-0.0045221365825539,0.814,1.0,-0.003537312,-0.002910344,0.980334136,-0.002085359,-0.000238247,0.002337546,0.9999863205119646,-0.003340381163127,0.0036040910699756,0.0017919738243215,0.814,2.0,-0.003399408,-0.004841686,0.980408589,7.33e-05,0.009650669,-0.034776476,0.9999799355276612,-0.0050336439784572,0.0038458876426326,1.0891879781981322e-05,0.814,3.0,0.00028305,-0.00235917,0.980183837,-0.006825826,-0.003945633,-0.005062689,0.999943163415891,-0.0046929130047958,0.00102057779212,-0.0095186620026441,0.814,4.0,-0.000615267,-0.001882319,0.978788066,0.003862296,-0.007984937,0.03024772,0.9999555971412498,-0.001167714268372,-7.387588989612069e-06,-0.0093509429844021,0.839,5.0,0.003037645,-0.009935627,0.979896962,-0.007770839,-0.004100562,0.007510303,0.9999500241562695,-0.008544582586943,-0.0036925844851998,0.0036474810637756,0.84,6.0,0.002590168,-0.007120438,0.979230101,-0.009457902,-0.003157283,-0.001261269,0.9992486842493083,-0.0247847414721022,-0.0182987719152147,0.0235146457039459,0.841,7.0,0.003093601,-0.006357172,0.980134693,-0.010208112,0.001667904,-0.00095291,0.9972530011804956,-0.0046039321371966,-0.0070172147043715,0.0735935740616232,0.841,8.0,0.005448428,-0.006644469,0.979913856,-0.005144743,-0.006989377,0.000206344,0.9971917226788852,0.0083141575031324,0.0143530087556237,-0.0730310491872531
13,13,0.873,0.0,-0.002918673,-0.001888471,0.97858516,0.001111858,0.001394837,0.001517009,0.999987321657244,-0.0011735518157043,0.002051336089075,-0.0044464953791639,0.874,1.0,-0.003537312,-0.002910344,0.980334136,0.001545295,0.003215218,0.001237147,0.9999871203980208,-0.0030779041881827,0.0035849168657825,0.0018530825529589,0.874,2.0,-0.003399408,-0.004841686,0.980408589,0.000264514,-0.002805102,0.013932486,0.9999822971404704,-0.0047612955564947,0.0034977267991686,0.0007080801721432,0.874,3.0,0.00028305,-0.00235917,0.980183837,-0.006390973,0.004440119,0.004217631,0.9999451687232508,-0.0046613040839687,0.0011312474823298,-0.0093087093842228,0.874,4.0,-0.000307634,-0.00094116,0.978927995,-0.001450791,0.006312422,-0.024300107,0.9999434406439788,-0.0011684398202573,0.0003243744661498,-0.0105662217785882,0.949,5.0,0.002074738,-0.010034703,0.980147948,-0.004460648,-0.003810825,0.011284152,0.9999490795377514,-0.0084260296613201,-0.0036176278294792,0.0042134456965291,0.949,6.0,0.00295577,-0.008002573,0.97952704,-0.00912907,-0.002430857,0.004018538,0.9993097278728954,-0.0231694584734421,-0.0167579932006494,0.0237152616796449,0.949,7.0,0.003093601,-0.006357172,0.980134693,-0.003061475,0.004300727,-0.010919289,0.9972978058954188,-0.0046199902130293,-0.0062960729119452,0.0730486243026021,0.949,8.0,0.005448428,-0.006644469,0.979913856,-0.018436546,-0.002590836,-0.002102967,0.9972236376590452,0.0061944395794768,0.0126045600767098,-0.0731284519023211
14,14,0.966,0.0,-0.002918673,-0.001888471,0.97858516,-0.001354927,0.000549638,-0.000235195,0.999987271155968,-0.0012196694018263,0.0020235250311777,-0.0044581699203962,0.966,1.0,-0.003537312,-0.002910344,0.980334136,-0.001582521,0.002856621,-0.004560956,0.9999878863483452,-0.0029990914090382,0.0035485619263791,0.0016249047799886,0.966,2.0,-0.003399408,-0.004841686,0.980408589,-0.005007763,0.006603302,-0.010053955,0.9999818761787602,-0.004784585186982,0.0036487222789091,0.0002046566069852,0.966,3.0,0.00028305,-0.00235917,0.980183837,-0.009212788,-0.006651629,-0.01289449,0.9999388302346544,-0.0047800885512898,0.000673452271304,-0.0099515327679046,0.966,4.0,-0.000307634,-0.00094116,0.978927995,-0.003918807,-0.010984215,0.028861358,0.9999575150791966,-0.0013007627321421,-0.0002370837137428,-0.0091224911217051,0.967,5.0,0.002074738,-0.010034703,0.980147948,-0.013489202,0.013626729,0.009954321,0.9999468501299869,-0.0087739528949806,-0.0026810370871659,0.0047039032570904,0.967,6.0,0.00295577,-0.008002573,0.97952704,-0.040803468,-0.010486674,-0.002662344,0.9993259582361312,-0.0232826426602897,-0.0158191085730772,0.0235648795911358,0.967,7.0,0.003929981,-0.005943017,0.979775605,0.000284842,-0.006128651,0.008662361,0.9972674863209536,-0.0044119584378109,-0.0061913036263555,0.0734830804283277,0.968,8.0,0.005892746,-0.008825653,0.979701681,-0.042268982,0.004870134,0.030049362,0.9973623815728384,0.0030327855457635,0.0114701571438225,-0.0716066863518025
15,15,1.023,0.0,-0.003847136,-0.002166721,0.978831193,-0.009638717,0.005908763,-0.016922469,0.9999818297064472,-0.0016898250215501,0.0023143298548719,-0.0053036426789091,1.024,1.0,-0.004521252,-0.003088845,0.980334136,-0.007487221,0.010960499,-0.017212513,0.9999865989262664,-0.0032353956510608,0.0039686682300369,0.000764104272615,1.024,2.0,-0.003399408,-0.004841686,0.980408589,-0.013398258,0.007560454,-0.018150131,0.9999787601169664,-0.0052263691889966,0.0038302999641999,-0.0007022693349235,1.024,3.0,-0.000605444,-0.004150466,0.980226712,-0.035361447,0.006122232,-0.021084769,0.9999192611023586,-0.0062790629269717,0.0009561571065189,-0.0110059260791639,1.024,4.0,-0.000922901,-0.002823479,0.978648137,-0.036860897,0.007228436,-0.044912103,0.9999303802079956,-0.0031535849979885,0.0002062176008169,-0.0113686900325041,1.063,5.0,-7.17e-05,-0.010479127,0.979706172,0.022004068,0.038165277,-0.113304856,0.999972553639166,-0.0073248023301982,-0.000539858218144,-0.0009735462461019,1.063,6.0,0.002390658,-0.009234721,0.979930102,-0.033581953,-0.008354701,-0.045776496,0.9993971903558908,-0.0230555341144187,-0.0148807848445035,0.0212664171374068,1.063,7.0,0.003112183,-0.001781399,0.97988578,0.140067187,0.013142475,0.150383793,0.9966987000971664,0.0028356679712049,-0.0045889068848884,0.0810098891826054,1.064,8.0,0.002622712,-0.01272813,0.979980161,-0.215881564,-0.016376114,0.039546364,0.9974910771793102,-0.0087308929760351,0.0102087402209422,-0.0695061441787823
16,16,1.113,0.0,-0.00348174,-0.002969837,0.979301821,-0.026475233,0.00362689,-0.042604532,0.999964906211592,-0.0029992050864752,0.0024434270914023,-0.0074310684386844,1.113,1.0,-0.005341115,-0.00417178,0.979940339,-0.033145653,0.024308033,-0.03107985,0.9999754660690058,-0.0047892495260637,0.0050508095845833,-0.0007871922204477,1.113,2.0,-0.004594764,-0.006683414,0.979985316,-0.033887358,0.005945445,0.007979756,0.9999693281019254,-0.0067371303461657,0.0039830728270627,-0.0002984307904696,1.113,3.0,-0.000222685,-0.005465281,0.979873503,-0.072952937,-0.006627926,-0.013864802,0.9998855555891206,-0.0095814097250494,0.0005771153431727,-0.0116935559089957,1.114,4.0,0.000639989,-0.006601313,0.979182319,-0.08330885,-0.008447577,-0.024454306,0.9998937479733542,-0.0073456762274609,-0.0002272105401944,-0.012588970566736,1.155,5.0,-0.007498672,-0.00852656,0.979873496,0.078962887,0.135027063,-0.065163487,0.9999641370944464,-0.0030704119901014,0.0066344020611945,-0.0042757226828431,1.155,6.0,0.003674192,-0.015507874,0.979919898,-0.105780512,-0.014250101,-0.183644187,0.9994642449575492,-0.0266709187721927,-0.0146661777908386,0.0120328040078192,1.156,7.0,0.007203957,0.021135831,0.979645027,0.502335829,-0.069205367,0.178877781,0.9955097175157708,0.0288979798749259,-0.0060765687652709,0.0899354457533831,1.156,8.0,0.003308344,-0.03590229,0.97928141,-0.368437453,0.00404749,0.136933592,0.9975959752279804,-0.0279891567369435,0.0108180461452461,-0.0624647676029379
17,17,1.179,0.0,-0.004111449,-0.004578063,0.979171148,-0.075646319,-0.004711339,-0.118415946,0.9998860184401936,-0.006729521304735,0.0021634230823516,-0.0133410371183221,1.179,1.0,-0.004848883,-0.006885086,0.978758951,-0.059002339,0.026037341,-0.092361546,0.999937918221847,-0.0076340121249157,0.006062493426734,-0.0053970116255716,1.18,2.0,-0.003723203,-0.008950662,0.980301496,-0.055869588,0.040890416,-0.076631432,0.9999312246311888,-0.0093277367275224,0.005784231069624,-0.004133038355251,1.18,3.0,0.001775864,-0.006452322,0.980051128,-0.112307872,-0.029392841,-0.046384496,0.9997951555556484,-0.0145861831207152,-0.0010048459770364,-0.0139957305628667,1.18,4.0,-0.000158612,-0.016053285,0.980193484,-0.157315662,-0.012868543,-0.057775838,0.9997629087871396,-0.0153008298517242,-0.0007745435663209,-0.0154729086338123,1.184,5.0,-0.0095798,-0.007760589,0.980160191,-0.062574294,-0.039073958,0.052566956,0.999968692201892,-0.0062766326320264,0.0045374698815873,-0.0016216861330467,1.184,6.0,0.001058459,-0.019869496,0.980286225,-0.033451485,0.055873071,0.167203516,0.99938069715774,-0.0268441363616362,-0.0102697881265149,0.0203013778681123,1.184,7.0,0.012169276,0.053618761,0.978547361,0.311800006,-0.00607319,-0.009833912,0.9949892365891968,0.0443282396606303,-0.0047190546834737,0.0894938923230585,1.185,8.0,0.004147638,-0.064911442,0.977618689,-0.392447751,-0.013314674,0.079233377,0.9970873583598796,-0.0480693971786069,0.0104822959995641,-0.0582773911940144
18,18,1.219,0.0,-0.002452193,-0.005906044,0.979866371,-0.059522808,-0.003767141,-0.175679372,0.999710000292244,-0.0093528224805409,0.0018453897304359,-0.022114125894362,1.219,1.0,-0.002318479,-0.009628863,0.97849676,-0.078095319,0.021772117,-0.162763374,0.999822887718514,-0.0113092455659829,0.006594641295309,-0.0135205349423073,1.22,2.0,-0.000953864,-0.011093439,0.979441691,-0.079190557,0.049904754,-0.193901107,0.9997911036576078,-0.0129650701599166,0.0076419964919514,-0.0138295297269208,1.22,3.0,0.002885919,-0.009230659,0.980271629,-0.127136905,0.000949479,-0.054834011,0.9996602470855276,-0.0199516384652873,-0.0009632184495311,-0.0167449911815841,1.22,4.0,0.000130134,-0.026644234,0.979328376,-0.20606352,0.039344681,-0.107210687,0.9994589096240388,-0.0253926734695099,0.0013068068616672,-0.0208660576780652,1.324,5.0,-0.004926968,-0.015569818,0.978990963,-0.251650734,-0.041528389,-0.100097009,0.9997946531738396,-0.0190490649781865,0.0021852579639072,-0.0065581442565516,1.325,6.0,-0.005070301,-0.023832051,0.97942806,-0.082254454,0.092787343,-0.015709056,0.9993647841882696,-0.0295775827142133,-0.0044794495083124,0.0193682538505502,1.325,7.0,0.011246826,0.064510112,0.977821024,0.042735193,0.022035038,-0.020861454,0.9950409187563596,0.0452594190264715,-0.0031893657264731,0.0885154389705511,1.325,8.0,0.001829809,-0.083576196,0.97611714,-0.224094604,0.047342502,0.087078201,0.9967443890320716,-0.0585118793454673,0.0128574902031688,-0.0539598726297545
19,19,1.293,0.0,0.000434282,-0.008285752,0.979938854,-0.064931544,0.009531114,-0.181050908,0.9994390854971292,-0.0120913512035886,0.0020866435239063,-0.0311602234513428,1.293,1.0,0.000188434,-0.012243148,0.980466761,-0.075645829,0.03271423,-0.211693184,0.9995746598004712,-0.0146305639426184,0.0074651032070114,-0.0240980978004829,1.293,2.0,1.98e-05,-0.012402191,0.980024074,-0.089833266,0.044958039,-0.237572144,0.9994871888059296,-0.0168495562083236,0.0089939480200469,-0.0257013767610902,1.293,3.0,0.007526682,-0.008220384,0.978708728,-0.061379152,-0.003036948,-0.079915836,0.9995536274683277,-0.0214495402339018,-0.0014303412598664,-0.0207464975969952,1.294,4.0,-0.00255135,-0.029017717,0.979748163,-0.196266481,0.084940376,-0.139815953,0.9990139228833036,-0.0340537882723787,0.0055465734889805,-0.0279420277028111,1.395,5.0,-0.005495662,-0.02904039,0.979460287,-0.191495586,0.013969404,-0.10330762,0.9995295545285864,-0.0282003194032578,0.0028720310874712,-0.0117116628568551,1.395,6.0,-0.009726336,-0.031638312,0.978808672,-0.166588282,0.072100795,0.092501526,0.9990429106976204,-0.0366563496656566,4.323532704162444e-05,0.0238657232180842,1.395,7.0,0.010729853,0.056228468,0.978204595,-0.170515098,0.02809877,-0.052225566,0.9956804431177844,0.0350334533573835,-0.0024255100453841,0.0859489920804662,1.396,8.0,-0.00377843,-0.096102491,0.975317402,-0.136544204,0.085922491,0.048200542,0.9964587938990204,-0.0640913469689283,0.0168349997437852,-0.0517566815845517
20,20,1.369,0.0,0.002291209,-0.007729253,0.979446787,-0.0225049,0.013220145,-0.189153203,0.9990950723317912,-0.0124034153140481,0.0023515667200708,-0.0406160296538366,1.369,1.0,0.00330433,-0.012612082,0.980072965,-0.066248527,0.017091515,-0.202478147,0.9992402024390462,-0.0171793205570098,0.0073254291503578,-0.0342085787856903,1.369,2.0,0.000687166,-0.01658643,0.979807848,-0.071402436,0.016458909,-0.220047015,0.9990950734758992,-0.0196556867384599,0.0087788878852229,-0.0366826834150081,1.369,3.0,0.010375504,-0.006250022,0.980123608,-0.044753697,0.025666569,-0.10747511,0.9994190748846352,-0.0218370542268949,-0.0005980474461332,-0.026159093231297,1.369,4.0,-0.005596438,-0.03113902,0.979271179,-0.117832453,0.081992111,-0.114059604,0.9986628224087784,-0.0380303663777515,0.0093637263082169,-0.0337428362964917,1.424,5.0,-0.006660976,-0.042039386,0.977826836,-0.200227593,0.032201972,-0.212361933,0.9990365429785496,-0.0375352214777329,0.0042772273112517,-0.0223337920786882,1.424,6.0,-0.015336185,-0.045220451,0.979043366,-0.258976161,0.057762051,0.057268795,0.9984707893092596,-0.0483126174909218,0.0034786454940942,0.0266434403342752,1.424,7.0,0.005002484,0.041634476,0.978665697,-0.273158954,0.085803544,-0.109068969,0.996551259860845,0.0196980768881563,0.0009548879013135,0.0806018636618692,1.425,8.0,-0.008718971,-0.102039114,0.974156558,-0.079813706,0.070732912,0.050873938,0.9963574931381592,-0.066618216167896,0.0197690615514139,-0.0494261403250038
21,21,1.443,0.0,0.00235785,-0.007202392,0.980294122,-0.019321226,0.039801825,-0.213758891,0.9985975278667992,-0.0124438278204104,0.0039047572005958,-0.0513116103693689,1.443,1.0,0.00625615,-0.012076581,0.980072965,-0.027632868,-0.01879089,-0.264417946,0.9987079114144218,-0.0175962536511988,0.00517142712551,-0.0473934159685901,1.443,2.0,0.007144664,-0.012245526,0.980484065,-0.03551245,-0.009889107,-0.266135815,0.9985229022142666,-0.0202350141255447,0.0068622691616609,-0.0499546516241491,1.444,3.0,0.009487011,-0.008041317,0.980166483,-0.109427014,0.055946236,-0.231472421,0.9989597672936952,-0.0254614455400986,0.0016318162736496,-0.0377946463825759,1.444,4.0,-0.006211705,-0.033021339,0.978991321,-0.061457645,0.040004813,-0.087807145,0.9984541088441892,-0.0389446200471731,0.0107314473539982,-0.0381778095131897,1.486,5.0,-0.012976088,-0.050220597,0.97825943,-0.061858478,0.183376896,-0.299142471,0.9984343109457448,-0.03927299876101,0.0132041115231991,-0.0375793790993995,1.486,6.0,-0.017238424,-0.069199762,0.977502547,-0.534142753,-0.050568217,0.092461277,0.99679334436114,-0.0735610460971971,0.0010232125480022,0.0314762477195305,1.486,7.0,0.000357965,0.023146718,0.979942907,-0.287402177,0.085887199,-0.181517156,0.9974149444928276,0.0042151694602074,0.0040997161096742,0.071616012012756,1.487,8.0,-0.013014633,-0.111068027,0.973143624,-0.183232544,0.060994831,-0.003893481,0.9957292836092456,-0.0745694544782144,0.0222153242874628,-0.0496897332317539
22,22,1.519,0.0,-0.001158333,-0.00643091,0.980090966,0.001466817,0.044087365,-0.241128123,0.9979093427264932,-0.0113846525428773,0.0056488007141932,-0.0633673767497713,1.519,1.0,0.008224029,-0.01171958,0.980072965,-0.014354324,-0.030385902,-0.307156857,0.9978793705423434,-0.0173204957646615,0.0025158078832097,-0.062693165362562,1.519,2.0,0.011024791,-0.012271579,0.979089813,-0.01941092,-0.043287868,-0.315964296,0.9976344641129083,-0.0200495114170634,0.0032181202010527,-0.06567447608058,1.52,3.0,0.003972707,-0.015385567,0.978880229,-0.151056319,0.070798278,-0.270104045,0.9981838708188242,-0.0311347664627344,0.0046941079882646,-0.0513570998466061,1.52,4.0,-0.005344774,-0.029004522,0.978654265,0.022783169,-0.005256145,-0.092068377,0.9984102034798856,-0.0354435314859567,0.0095191282408293,-0.0427809287018412,1.575,5.0,0.029799925,-0.030618661,0.974798678,-0.594071986,0.129259242,-0.737216107,0.9948870538108454,-0.0667395977092352,0.0154968765340597,-0.0741985382259891,1.575,6.0,-0.122254038,0.144033089,1.033049573,-1.100656716,-0.359154693,4.901636453,0.95701461511492,-0.1100440300153958,0.0148183631124224,0.2679435650077838,1.575,7.0,0.020886867,0.015319039,0.974173016,0.480977136,0.3873955,0.1750519,0.9961273842788028,0.0272570664326968,0.0234544639099647,0.0802320057212237,1.576,8.0,0.021566119,-0.145412701,0.969735556,-0.498246977,0.098885165,-0.06021961,0.9933601610121188,-0.0991425352443662,0.0251216314332434,-0.0526806591969918
23,23,1.566,0.0,-0.004111449,-0.004578063,0.979171148,0.014693862,0.062293886,-0.211057354,0.997183368621488,-0.0095958986364824,0.0082662611889141,-0.073925076936158,1.566,1.0,0.011175849,-0.011184079,0.980072965,-0.029923248,-0.06092103,-0.263014492,0.9969647404326364,-0.0179090261668594,-0.0014469340027528,-0.075752752410934,1.567,2.0,0.015278237,-0.010930632,0.980143406,-0.021322516,-0.091573136,-0.260044947,0.996705111567428,-0.0200572058102903,-0.0025981109009089,-0.0785485766274065,1.567,3.0,3.6e-05,-0.021235935,0.979404939,-0.120407358,0.078655636,-0.275528418,0.9972275279918787,-0.03496996442959,0.008027831550453,-0.0651913562030847,1.567,4.0,-0.006236427,-0.024537707,0.979156784,0.078399199,-0.013133538,-0.137658241,0.9983042453731475,-0.0293177305594674,0.0079139189004314,-0.0496636107470075,1.664,5.0,-0.035250528,-0.035094166,0.978460423,0.482199592,0.543752575,-0.638375564,0.992717045913253,-0.036202155766155,0.0398943269073157,-0.1077530201514534,1.664,6.0,0.002347768,-0.140739953,0.969861719,-1.669573496,-0.53892514,0.08726179,0.9447676156491376,-0.1772819376156417,-0.0357111281313111,0.2733312685066901,1.664,7.0,-0.006347601,0.005716757,0.980424411,-0.258928115,0.113254271,-0.427265968,0.9978323464515508,0.0109113079861348,0.0262912915766903,0.0593322822774703,1.664,8.0,-0.016665414,-0.123189228,0.972278601,-0.121875944,0.075253279,-0.150308231,0.992627375313116,-0.1015197443384474,0.0270917320858019,-0.0604208022211046
24,24,1.623,0.0,-0.008556095,-0.004084831,0.979214025,-0.035628663,0.058060511,-0.192932539,0.9963905870426776,-0.0104523984003104,0.0108140224360378,-0.0835440143827322,1.623,1.0,0.015674133,-0.013570854,0.979810774,-0.087947187,-0.10774322,-0.321036302,0.9955293187251884,-0.0216307914313026,-0.0074234217829719,-0.0916426605334513,1.624,2.0,0.02209684,-0.013649452,0.979804788,-0.084666714,-0.119626362,-0.396998328,0.9948459709778128,-0.0234624171177925,-0.0094891957620865,-0.0981884116176259,1.624,3.0,-0.004912231,-0.033298525,0.97930898,-0.230774612,0.065898905,-0.25425087,0.9959071824067446,-0.044529961273567,0.0110531783325958,-0.0778703655338917,1.624,4.0,-0.001093874,-0.014634948,0.979856429,0.122099067,-0.111952502,-0.146576094,0.9981528035354243,-0.0213706116435899,0.0011682270621371,-0.0568587108355687,1.694,5.0,-0.087236031,-0.001600235,0.975516947,0.688665622,0.995204317,-1.228513245,0.9816500021583076,0.0046027864454704,0.0856048383006479,-0.1703346684590429,1.694,6.0,0.0333467,-0.250250047,0.946503519,-0.845372196,0.342812334,-1.051818796,0.95135508856548,-0.2141332747054071,-0.0437813621795538,0.2171488624197911,1.695,7.0,-0.01038502,-0.025335815,0.979763363,-0.638986043,-0.016761944,-0.450497588,0.9987925527654508,-0.0239639154421524,0.0208199847073039,0.0374926063877006,1.695,8.0,-0.023626982,-0.119131037,0.97253872,0.069956821,0.062955443,-0.115720006,0.9929500148563832,-0.0938726549905525,0.0283312314471337,-0.0665998045524282
25,25,1.699,0.0,-0.011902309,-0.014010443,0.979747948,-0.241402962,0.033230309,-0.071091119,0.995884933096032,-0.021988400718133,0.0129818240602175,-0.0869550602911673,1.699,1.0,0.029895586,-0.024736395,0.978368215,-0.205956617,-0.21501936,-0.264763022,0.9938291203705047,-0.0319844598940402,-0.0182479427443269,-0.1046311923590408,1.699,2.0,0.035512343,-0.022237574,0.979286661,-0.237115363,-0.230826259,-0.446264469,0.9919077851620914,-0.0350993616983674,-0.0212942491561149,-0.120139649974847,1.699,3.0,-0.004209326,-0.048173531,0.978818978,-0.122765738,-0.061184478,-0.272420072,0.9945986209835084,-0.0490045988865243,0.0071215334438202,-0.0912217966666012,1.699,4.0,0.005272687,-0.016741475,0.980028021,-0.071764859,-0.11230172,-0.147087891,0.997645003714864,-0.0240090896916602,-0.0047428449240849,-0.0640742974754539,1.829,5.0,-0.17016654,0.046609039,0.963253314,1.397244866,1.314262541,-2.56061012,0.9420674262337728,0.0738176073736784,0.1437445769345395,-0.2939343836178597,1.829,6.0,0.012920117,-0.265582352,0.942943309,0.058944781,1.068017676,-2.321958853,0.9737990943812492,-0.2077857344202157,-0.0142716090777443,0.0913057146516172,1.83,7.0,-0.00501295,-0.065292155,0.976825371,-0.542917643,0.018553704,-0.413960844,0.9983178280242724,-0.0524622666166418,0.0176796979632801,0.0172236207073519,1.83,8.0,-0.032439243,-0.126236821,0.970576097,-0.126360409,0.116421902,-0.12555777,0.9920459963357888,-0.096883332233903,0.0331742548149582,-0.0731971987637494
26,26,1.758,0.0,-0.014981966,-0.029534211,0.979021078,-0.206800545,0.055347231,-0.043897036,0.9954034199265062,-0.0313048023884212,0.0161613045953895,-0.0890553377390301,1.759,1.0,0.038682139,-0.039556753,0.97797646,-0.250676792,-0.090732017,-0.175723861,0.9923438784373028,-0.0437521384077991,-0.0217493741236266,-0.1134298992240896,1.759,2.0,0.049169337,-0.040077406,0.978179011,-0.277202961,-0.133062636,-0.238064526,0.9897152473879506,-0.0481825712602061,-0.0269000231106814,-0.1319793835082121,1.759,3.0,0.000936048,-0.054092059,0.978114601,-0.143557332,-0.088833982,-0.124329954,0.9937770112390008,-0.0544429664868915,0.002516710554474,-0.0971436127646642,1.759,4.0,0.015212386,-0.020941334,0.979277307,-0.111770997,-0.102891884,-0.262122067,0.9965671864494244,-0.0285606897633167,-0.010117484021647,-0.0770439251959128,1.876,5.0,-0.244556096,0.062098093,0.946935131,0.364161414,0.805031568,-0.488105224,0.9274550461951176,0.0983512864375186,0.1747460497822202,-0.3156231611095849,1.876,6.0,0.058853288,-0.315616814,0.926339202,-1.312182246,-1.749803278,0.70810398,0.95120194181847,-0.2569250254116805,-0.0972769402528933,0.140504783167742,1.877,7.0,0.00069711,-0.10854021,0.973662948,-0.674601642,-0.094025999,-1.032787263,0.995615181598172,-0.0870741734809562,0.005993648308683,-0.0336537466532164,1.877,8.0,-0.024498947,-0.130092466,0.970283336,-0.17373367,-0.122959654,-0.662696296,0.9887632902381978,-0.1038413918368886,0.0227037502543263,-0.1051126107710234
27,27,1.834,0.0,-0.017730669,-0.042119776,0.978801588,-0.207575524,-0.021811871,-0.058889123,0.9948290079357912,-0.0407042511848767,0.0153572173797725,-0.0917745323023675,1.834,1.0,0.038777312,-0.05688805,0.977190908,-0.277480082,0.002259244,-0.126120813,0.9909923829434804,-0.0560854174132858,-0.0198792601003861,-0.1199722381196624,1.834,2.0,0.053617016,-0.058881875,0.976563434,-0.297584387,-0.034619705,-0.100842347,0.9882638588221868,-0.0615029698729398,-0.0265823752647643,-0.1372782115558503,1.835,3.0,0.006968793,-0.068254205,0.977915538,-0.229913036,-0.094043722,-0.047311868,0.9929805223651142,-0.0643775978232308,-0.0014546719430471,-0.0992123532205192,1.835,4.0,0.023085867,-0.025632356,0.979226238,-0.140622678,-0.150854924,0.030359492,0.9964029131027132,-0.0347016654992128,-0.0171005165623911,-0.0753962963633308,1.903,5.0,-0.28397236,0.069476302,0.934093005,0.044917029,0.308364751,-1.205208264,0.9053412721784226,0.0928904112896012,0.1887835440669717,-0.368902867798988,1.903,6.0,0.036341433,-0.136813569,0.969981107,4.430101871,0.78594069,-0.790897542,0.9946113642132598,-0.0121534144607682,-0.019052118497964,0.1011807564486568,1.903,7.0,0.009164172,-0.13299106,0.97075352,-0.280552439,-0.024063447,-0.550950489,0.9931918455364264,-0.0992860011690491,0.0016996015173028,-0.0609045095743249,1.903,8.0,-0.000413928,-0.152970412,0.96840946,-0.266981267,-0.223056883,-0.769997844,0.9830462792106448,-0.1163369145748026,0.0072347221629734,-0.1415393727290991
28,28,1.894,0.0,-0.02946975,-0.05050442,0.977857268,-0.226364849,-0.080769009,-0.00139068,0.9944379211169452,-0.0506904384925675,0.0125751332663505,-0.091463470923495,1.894,1.0,0.044705831,-0.072760872,0.975486158,-0.227190507,-0.116550446,0.092802061,0.990819084249233,-0.0664876839211059,-0.0238140337406229,-0.1152814901504952,1.894,2.0,0.056406144,-0.073426844,0.975273216,-0.231215567,-0.050186164,0.093663112,0.9882026453497248,-0.0713579302169441,-0.0268196484473026,-0.1328317882742035,1.894,3.0,-0.001876801,-0.077298357,0.976515971,-0.151891678,-0.141953658,-0.02506294,0.992490728633216,-0.0701015408217548,-0.007201691617699,-0.0999803140091466,1.894,4.0,0.031863362,-0.039032008,0.978589918,-0.2217443,-0.11178734,-0.022880232,0.9958253935068456,-0.0447829476246428,-0.0216426091045933,-0.0765367279162802,1.945,5.0,-0.297814069,0.066710679,0.931693332,1.137436604,-0.064405781,-0.881241692,0.8838540105852383,0.1331046131197698,0.1647160065842994,-0.4170777950377448,1.945,6.0,-0.088826024,0.173148612,0.960517827,4.518085236,2.757108608,-3.436760981,0.9590797372437274,0.2043329617612115,0.1779306962540995,-0.0821873814945187,1.945,7.0,0.017649818,-0.152866138,0.967595178,-0.369611775,-0.090085599,-0.345085,0.9902286061408828,-0.1158075415560821,-0.0042228334804893,-0.0775763403133743,1.945,8.0,0.022711475,-0.171651806,0.963802805,-0.266875051,-0.26727225,-0.436980159,0.9784553386445056,-0.1286598157767196,-0.0073835693752972,-0.1612987445259462
29,29,1.975,0.0,-0.044060862,-0.060250674,0.976803715,-0.161884486,-0.162891341,0.05613538,0.9944467463615048,-0.0572409869894004,0.0066401005064597,-0.0880627453850965,1.975,1.0,0.047846084,-0.084468519,0.975750389,-0.160697444,-0.043079235,0.184004805,0.99138245682563,-0.0728351021923214,-0.0238978782328318,-0.1062297679700982,1.975,2.0,0.057332536,-0.085629302,0.973775951,-0.12068965,-0.06184858,0.195547009,0.9891091739243858,-0.0755915694124308,-0.027975254263841,-0.123151702551196,1.975,3.0,-0.009749145,-0.078964179,0.977017202,-0.003055474,-0.210679815,0.139059769,0.9932679265132603,-0.0683072428788223,-0.0155585520893888,-0.0922544209630286,1.975,4.0,0.040333224,-0.05337282,0.97781367,-0.187117146,-0.13210902,-0.110752978,0.9948522424426236,-0.0528720343729729,-0.0274696418024304,-0.0819693995793112,1.949,5.0,-0.302802353,0.110216268,0.925745164,0.366886154,0.193078494,0.032497516,0.8814628377923358,0.1520565697652428,0.160642472477522,-0.4172482009770908,1.949,6.0,-0.162820222,0.204584994,0.942950452,-0.095723703,0.743635491,2.341714942,0.9599159036965,0.2130445785946046,0.1777751831528543,0.0396162796959566,1.949,7.0,0.030622248,-0.192654658,0.96027468,-0.64457962,-0.046210524,-0.594699576,0.9834910587403638,-0.1458607003020635,-0.0086986661896991,-0.1067442115136459,1.95,8.0,0.046217626,-0.182114476,0.960339653,-0.105929094,-0.342432791,-0.392536009,0.9745838141110804,-0.1331629400228009,-0.0259081965893536,-0.1782772728831985
30,30,2.059,0.0,-0.053281108,-0.062202413,0.976382089,-0.024548456,-0.246338941,0.036663004,0.9947271193090303,-0.056741423782886,-0.0030781514855518,-0.085375019307061,2.059,1.0,0.05110309,-0.091217509,0.974832211,-0.057177996,-0.075929573,0.233444218,0.9924282533662034,-0.0739770884135802,-0.0262041856940408,-0.0944822362270709,2.059,2.0,0.061058005,-0.090314322,0.974190045,-0.012157423,-0.093552466,0.193990469,0.9902686083680432,-0.0744432075130843,-0.0315342455496258,-0.113277903818879,2.06,3.0,-0.010291977,-0.070869268,0.977438807,0.074518838,-0.304031146,0.240046477,0.9944897628474636,-0.0629075812342827,-0.0278538666854687,-0.0791006316379061,2.06,4.0,0.046348543,-0.059468984,0.977005759,-0.101418243,-0.198329932,0.278452152,0.9954390048894216,-0.057042177592986,-0.0354894334020104,-0.0677338736306476,2.067,5.0,-0.312872919,0.139116163,0.918439018,0.562313868,0.115057938,0.095009712,0.8791145934947394,0.1781244971517445,0.1486656905352774,-0.4163264434031138,2.068,6.0,-0.168012339,0.241634768,0.934804521,0.783095757,-0.326762566,0.096436359,0.9571277222322798,0.2429328256289195,0.1540448457297287,0.0340639262343778,2.068,7.0,0.044042772,-0.230142919,0.951081212,-0.623188762,-0.19165909,-0.855526864,0.9733914153150348,-0.1741054085065395,-0.02224515690173,-0.1473146710758357,2.068,8.0,0.079424673,-0.189833728,0.958414773,-0.219888541,-0.476200681,-0.591914846,0.966965492777686,-0.1442046637270245,-0.0508927241410321,-0.2039428384770784
31,31,2.106,0.0,-0.035769079,-0.058577185,0.977471374,0.06953225,-0.347844971,0.015136768,0.994988353576303,-0.0519194573499017,-0.0182630831555503,-0.0834805725283614,2.106,1.0,0.055389972,-0.086836757,0.974175204,0.038413666,-0.223479179,0.147228167,0.9930809426548032,-0.0706036446108929,-0.0367351609567314,-0.0863475225642794,2.106,2.0,0.062594679,-0.083130127,0.974028895,0.066985911,-0.139659998,0.165744373,0.9913858155083768,-0.0693134646692419,-0.0377997332897698,-0.1045035338520128,2.106,3.0,0.012559538,-0.063242172,0.976641534,0.154005976,-0.43784634,0.212569518,0.9951674582452013,-0.0542399849055532,-0.0472680663329753,-0.0668242769685747,2.106,4.0,0.061983566,-0.066464351,0.975389936,-0.070289214,-0.310125348,0.268452056,0.995541698808278,-0.0599579907142321,-0.0492568369303167,-0.0536239619858525,2.133,5.0,-0.304616115,0.185858952,0.912787748,0.40945024,-0.112042742,0.144887981,0.8803888529241459,0.1925159968229695,0.1291703611677808,-0.4137246383888079,2.133,6.0,-0.118843191,0.281350468,0.931633088,0.168913421,-0.359168897,1.755582063,0.9547104320242492,0.2543816782081144,0.10578406062225,0.1123729740389689,2.134,7.0,0.076722247,-0.264056547,0.94074111,-0.529942858,-0.212849348,-1.160976383,0.9587837106236904,-0.1961575987720426,-0.0395584400370285,-0.2017204067725697,2.134,8.0,0.128901055,-0.208495031,0.94751324,-0.508649369,-0.755322797,-0.758777626,0.9526148255036,-0.1714759734026745,-0.0873299808074054,-0.2355726198617518
32,32,2.195,0.0,-0.018691331,-0.046666205,0.978163534,0.205963979,-0.382208697,0.013002906,0.9952334602157928,-0.0403769307866907,-0.0351431943358324,-0.0815169860766491,2.195,1.0,0.065486708,-0.080868039,0.974831191,0.078141068,-0.345667187,0.061924129,0.9930411514084474,-0.0656677652515974,-0.0533262753837431,-0.0819348800569274,2.195,2.0,0.069597676,-0.071529765,0.974653095,0.110730726,-0.241723405,0.144056605,0.9921626438114972,-0.0624278308655763,-0.0492867189142394,-0.0963684258305999,2.195,3.0,0.027463391,-0.044913767,0.97835756,0.268932567,-0.466118626,0.142908411,0.9952506149519622,-0.0396984366919095,-0.0675903334159524,-0.057721697745994,2.195,4.0,0.080971311,-0.070397254,0.974391027,-0.016093466,-0.286322241,0.231179116,0.9954327411189472,-0.0599086861668948,-0.0617754970599962,-0.0413327375474477,2.2,5.0,-0.294014268,0.155277084,0.921468196,-0.622780572,-0.46485196,-0.821803885,0.8726895228645035,0.1448489352245294,0.1250417269537818,-0.4492174853756935,2.2,6.0,-0.070578268,0.256614613,0.943534127,-0.95714554,-1.041578315,-0.718513816,0.976817393550396,0.1961265385990404,0.0508896013839109,0.069082624338953,2.2,7.0,0.113859142,-0.27197387,0.934563165,0.058198186,-0.363031408,-0.784260912,0.9508998784750672,-0.1907343429464578,-0.0637835180966782,-0.2352477297575808,2.201,8.0,0.20475064,-0.273632419,0.918188148,-1.435272677,-0.973853772,-0.725803836,0.924595839998598,-0.2446735329906806,-0.1223050032917373,-0.2651393616213056
33,33,2.269,0.0,0.000905251,-0.028322321,0.979378388,0.264209651,-0.350015879,0.038663766,0.9953294407095348,-0.0261268058026745,-0.050003412496853,-0.0783348786560858,2.27,1.0,0.090881234,-0.069588992,0.972204183,0.237550693,-0.393266471,-0.155459255,0.9920643459532792,-0.0524349712951598,-0.0732058455773656,-0.0877485694861808,2.27,2.0,0.08475177,-0.057381019,0.974245121,0.25866219,-0.415259266,0.047998337,0.992082741173559,-0.0487990642142279,-0.0700953501856439,-0.0920713195285294,2.27,3.0,0.049167754,-0.023307311,0.978071726,0.366168748,-0.299558301,0.104113228,0.9953733438577615,-0.0200513432074883,-0.0791232506319856,-0.0506888664542981,2.27,4.0,0.092393208,-0.068697976,0.973583116,0.084231841,-0.159170473,0.355293008,0.9959612108881312,-0.0548439415583558,-0.0672822920219403,-0.022945624002528,2.248,5.0,-0.235863643,0.170907734,0.935581578,0.148172236,-0.600571597,3.030192091,0.9364576218944088,0.1549749406711315,0.0631223002940259,-0.3082944458880804,2.248,6.0,-0.048909962,0.213844554,0.954812716,-0.588353059,-0.241230873,-1.391726116,0.9868529445268368,0.1549998589832907,0.045784605234833,-0.000281988231044,2.248,7.0,0.140395946,-0.229946052,0.941806133,0.889364368,-0.187472244,0.011699136,0.9591513469921328,-0.1442965555829033,-0.0808695522486025,-0.2294936014994712,2.248,8.0,0.287116107,-0.433990509,0.830368942,-4.02566518,-1.679500137,0.070584541,0.853981635131187,-0.4370890890248517,-0.1342935242248436,-0.2482614437752284
34,34,2.327,0.0,0.02597153,-0.005094479,0.978306458,0.452121947,-0.370742154,0.054692315,0.9950388250892936,-0.0029666758151191,-0.066500532973962,-0.0739365573563251,2.328,1.0,0.105686267,-0.055960245,0.972465354,0.132565971,-0.070740526,0.215045483,0.9932583347109344,-0.0450285247561982,-0.0746190681021392,-0.0764349864990536,2.328,2.0,0.112808645,-0.04297719,0.971726901,0.193527475,-0.317491385,0.118270104,0.9920007933340228,-0.0389164189800483,-0.0850235382393114,-0.0847993885809727,2.328,3.0,0.062840824,0.013448331,0.977807329,0.593676875,-0.092010367,0.170528619,0.995889698414812,0.01113328648657,-0.0805948137843182,-0.0398024435723941,2.328,4.0,0.097079106,-0.044624251,0.972877342,0.550310579,0.031273174,-0.12675274,0.9972419805414608,-0.0238354918870854,-0.0646513884388766,-0.0275771562197994,2.323,5.0,-0.19875245,0.174606457,0.943952885,-0.469069345,-0.511838909,2.505185488,0.97359542362862,0.1271700642201942,0.0295030822002621,-0.1872679737603961,2.324,6.0,-0.010873116,0.131853521,0.970864782,-0.554364623,-0.311468199,2.960619813,0.9818344779460736,0.1240676880013097,0.007665310197018,0.1433510018449613,2.324,7.0,0.120372917,-0.089208009,0.968374562,2.921736315,0.315996747,1.000333501,0.9819977321617428,0.0091491194187654,-0.094577944452474,-0.163253667849148,2.324,8.0,0.368883712,-0.678106187,0.60316068,-5.23622622,-1.375405747,-0.151626591,0.7229323788322952,-0.6372416147845281,-0.1196814641888736,-0.2386802194407679
35,35,2.395,0.0,0.040689184,0.02202839,0.979167065,0.231509035,-0.097558641,0.151827555,0.9954962446174034,0.0089523902572011,-0.0677854424712357,-0.0656674611227544,2.395,1.0,0.114915817,-0.04521137,0.971938932,0.379507009,-0.338792037,0.382222558,0.9939880725949612,-0.0271195073755239,-0.0905663660600155,-0.0552265986400243,2.395,2.0,0.120357143,-0.02411737,0.972299085,0.47568437,-0.134191845,0.644954818,0.9944726145065986,-0.0164008073268663,-0.0906218165214233,-0.0504273624711303,2.395,3.0,0.044111631,0.028337905,0.978527019,0.025902331,0.554236007,-0.170200074,0.9976373068176292,0.0144479775229724,-0.0470909601537367,-0.0478905153758286,2.396,4.0,0.083523352,-0.005589871,0.975969058,0.506272437,0.378711422,-0.519551858,0.9976438123558634,0.0056152816938214,-0.0440446329042842,-0.052300693990468,2.383,5.0,-0.112698866,0.185937985,0.9558431,-0.920320706,-0.445969063,0.982155866,0.987145794991283,0.0764464732980044,0.0131579810641587,-0.1397354059844556,2.384,6.0,0.023937302,0.190640385,0.961203542,-0.336992882,-0.705740659,-1.645226503,0.992213384368297,0.1086675272492362,-0.0214069181028773,0.0569711528695283,2.384,7.0,0.091185513,0.090486707,0.971186057,2.675219626,0.809082021,-0.338855478,0.9727355816549188,0.1501433092842369,-0.0692876210223629,-0.1626090416696006,2.384,8.0,0.422674402,-0.753098035,0.4639889,-1.258750163,-1.141033267,-0.411025103,0.6805761484520267,-0.6790679256043232,-0.1556356457881925,-0.2268488579070627
36,36,2.433,0.0,0.041847517,0.0284593,0.978617828,0.098221261,0.016536017,0.132563647,0.996193674184362,0.0138619828875673,-0.062830064364744,-0.0588080943187934,2.434,1.0,0.132812391,-0.020612844,0.971148279,0.306338931,-0.044981567,0.12014572,0.9946157744479044,-0.0112699278954301,-0.0912308465799803,-0.0478474929011693,2.434,2.0,0.118574447,0.005221508,0.97252755,0.406680358,0.070141765,-0.162654436,0.9947328354618834,0.0063365420990674,-0.0850896478930683,-0.0567995256108911,2.434,3.0,0.010624829,0.032696571,0.979806127,0.156060902,0.388763252,-0.209728069,0.9977656115452308,0.023848210430744,-0.0237216764695281,-0.0577263314484622,2.434,4.0,0.074308089,0.033512856,0.976204997,0.802224233,0.02910966,0.893087908,0.9979213255002888,0.0446931679110769,-0.0460707613858163,-0.0057475037320855,2.446,5.0,-0.16208474,0.198446509,0.954589189,-0.743182615,0.028210851,0.213371593,0.9904287117814164,0.0435140203049849,0.0246702773531555,-0.1286424281923343,2.446,6.0,0.019634626,0.229300828,0.956747413,-1.261475526,-1.425198883,-0.98855158,0.9944872310923696,0.0513052558369654,-0.0914229145091014,-0.0021837171055625,2.446,7.0,0.024024159,0.126440982,0.984325413,2.685829873,2.715940232,1.284868151,0.9562900951487882,0.284484744236913,0.0266809628109437,-0.0621756418564448,2.446,8.0,0.513818652,-0.821667613,0.228616984,-2.276401851,-1.265143099,-1.024392817,0.5883059663637736,-0.7460451223301875,-0.2045461528561978,-0.2355284202380919
37,37,2.493,0.0,0.047850335,0.029852544,0.978459591,0.156978281,0.050378567,0.232958655,0.9970419567029686,0.0210926736968153,-0.0572668710177961,-0.046721956017129,2.493,1.0,0.117185583,-0.012905082,0.972328647,0.028489922,0.227221127,0.11847607,0.9961216229349228,-0.009666102299726,-0.0767466034310914,-0.0419313444766243,2.493,2.0,0.114505396,0.018199743,0.972436776,0.06004303,0.048365282,-0.15652227,0.994652181697216,0.0100868596303214,-0.0801671020776211,-0.0643313955409262,2.494,3.0,-0.01567758,0.049053386,0.978181976,0.246421233,0.440672408,0.013183481,0.9977093713563806,0.0375510698675232,0.0005591174549755,-0.0562637969491182,2.494,4.0,0.068609995,0.07171559,0.974761788,0.49894543,0.238644581,0.205398879,0.997067581569332,0.0683191237684716,-0.0339194611192396,0.0061810410427626,2.508,5.0,-0.06958721,0.139460363,0.967428254,-0.541951935,-0.599740967,1.130405284,0.9972240840956608,0.0171420770670434,-0.0026191618460592,-0.0724114306212945,2.508,6.0,0.057357461,0.14661611,0.967757634,-0.891400591,-0.625981682,1.588975166,0.99072834382334,0.0019941689020531,-0.1161013928397214,0.0705254465858161,2.508,7.0,0.005126428,0.246947612,0.948408455,1.768441382,1.430282617,2.652113835,0.9299015134243184,0.3561356923259092,0.0366137965619598,0.0843206610744188,2.508,8.0,0.422522992,-0.786720907,0.403993237,0.750905993,0.005940841,0.832768717,0.6488796832686683,-0.7118555510951956,-0.1735431988782038,-0.2051818440779503
38,38,2.57,0.0,0.045492485,0.037054936,0.977707198,0.10562547,0.038331349,0.437696209,0.9979918256067906,0.0248662731761812,-0.0528149488553407,-0.0245879169056843,2.57,1.0,0.115452073,-0.01455399,0.972854049,-0.019643259,-0.019809635,0.425117983,0.9968448176849876,-0.0123395812632367,-0.0756046965988041,-0.0207863907649826,2.57,2.0,0.118230864,0.013514723,0.97285087,-0.054746582,-0.080128935,0.567175207,0.9959527381763454,0.0041185357555197,-0.0821234376357779,-0.0362894195758609,2.57,3.0,-0.037699841,0.061076948,0.977508224,0.178216034,0.322975207,0.244475595,0.997806669707472,0.0468154667035431,0.0172878166381634,-0.0434890027535536,2.571,4.0,0.059263907,0.101672885,0.972479004,0.464890196,0.126317191,0.529378682,0.9950351578108484,0.0888606353067396,-0.0294296197902124,0.0338041372057692,2.533,5.0,0.007307599,0.105641014,0.974169172,-0.464817786,-0.929366695,1.452674132,0.9988572479491412,-0.006031775898272,-0.0474105714163232,-0.0002315533608508,2.533,6.0,0.089110775,0.091893703,0.971523966,-0.575309753,-0.176124061,1.341856817,0.9837808536538464,-0.028728266044704,-0.1173985063365673,0.1325424815827638,2.533,7.0,0.020346724,0.328959433,0.922496993,1.18254002,0.224804644,2.348716846,0.8988072987142863,0.3931239349174598,0.0022885167306933,0.1938911402414084,2.533,8.0,0.333803058,-0.720823253,0.572934862,3.434628994,0.827486844,1.949857856,0.8170739795793432,-0.550700577916312,-0.1098611219219437,-0.1305738077374887
39,39,2.628,0.0,0.045391402,0.040269393,0.976896615,0.05144856,0.008857833,0.45245613,0.9984103608876498,0.0257581262726923,-0.0500964694319337,-0.0019010401280237,2.628,1.0,0.116647415,-0.021143017,0.973248865,-0.069977388,0.007334981,0.508005061,0.9971605110231144,-0.0177060842552613,-0.0730683396112211,0.0042927360653201,2.628,2.0,0.127392921,0.003585654,0.97127915,-0.042317252,-0.166553731,0.758854365,0.9960718685021775,-0.0018714854243437,-0.0885180718916802,0.001371593768581,2.629,3.0,-0.048481372,0.065265214,0.975714614,-0.025972326,0.073718681,0.506336445,0.9986201230298528,0.044860628850697,0.0204838877105137,-0.0180494931570005,2.629,4.0,0.065869771,0.105942672,0.972116415,0.212516298,-0.040864685,0.633348701,0.9927111562130466,0.0951580575804702,-0.0343310422266381,0.0655048391136174,2.612,5.0,0.071009689,0.081640598,0.974015111,-0.270715896,-0.757098851,0.635356022,0.995902112107788,-0.0162726120998866,-0.0834471096622872,0.030834478813555,2.612,6.0,0.151958887,-0.042532932,0.966270897,-2.088756646,-1.168165071,0.442123044,0.9656387900940988,-0.122585787244294,-0.1805043129632729,0.1411830189256429,2.612,7.0,0.046475736,0.403644145,0.891264501,1.166915702,0.614297417,1.093440167,0.8706780405033732,0.4206538154273388,0.0188713938170819,0.2541928162773876,2.613,8.0,0.160435517,-0.55374734,0.792312014,5.397795656,2.436633131,1.801637104,0.968704711861228,-0.2380581794549306,0.0068173372857627,-0.0699500416353781
40,40,2.706,0.0,0.05209057,0.043797724,0.977716386,-0.008728346,-0.055308496,0.431585411,0.9982215806591754,0.023885124495663,-0.0510173916920903,0.0195039093276228,2.707,1.0,0.113649659,-0.032629759,0.972987695,-0.149722797,-0.005796977,0.391035006,0.9968277142369746,-0.0264631034772458,-0.0713668253570376,0.0232591599568752,2.707,2.0,0.142484498,-0.008028478,0.969744147,-0.146009642,-0.185691942,0.540367093,0.9949418694729696,-0.0117238475314403,-0.0958529005319868,0.0276667531216975,2.707,3.0,-0.041475378,0.058481398,0.977416349,-0.189365866,-0.07296675,0.606992114,0.9992028524326072,0.0344694117513866,0.0159656499226692,0.012272626719708,2.707,4.0,0.079106222,0.105998615,0.971225772,-0.004666549,-0.118604966,0.947691175,0.9886511230250083,0.0897720897457318,-0.0446617411133616,0.1118716126852436,2.728,5.0,0.135418797,0.021706565,0.970357447,-0.852791288,-1.125826576,1.789942929,0.9824287493918056,-0.0608792895738357,-0.1327345176201116,0.116228276686847,2.67,6.0,0.155152976,-0.055738073,0.96015354,-2.452478712,-1.816911627,1.942690378,0.9155122005221904,-0.2287386029445024,-0.2481622255886111,0.2189328024963852,2.67,7.0,0.004754965,0.343008063,0.902383986,1.603001542,3.033801668,1.284982102,0.8190593257874128,0.4235879517654564,0.138088009657808,0.3614509227385639,2.671,8.0,0.150210149,-0.577188834,0.799791198,4.099787042,2.614376262,0.04482675,0.9882173472490132,-0.0277597621662992,0.1165221618610285,-0.0952809319634628
41,41,2.775,0.0,0.054841518,0.048373792,0.977015038,-0.014999924,0.102753531,0.462534598,0.9978787804271412,0.02198506622851,-0.0440537544433707,0.0425894723565915,2.775,1.0,0.116086802,-0.040461685,0.971675721,-0.138632757,-0.04248377,0.133770542,0.9964006763727746,-0.0330828468273296,-0.0722697217953754,0.0294670100501476,2.775,2.0,0.144588724,-0.019622698,0.969361672,-0.168262664,-0.029116147,0.030370851,0.994842665505549,-0.0198250179525728,-0.0953391697154575,0.0283810195546495,2.775,3.0,-0.031161362,0.050020914,0.977619495,-0.168509987,-0.140467828,0.661468538,0.9986161595809058,0.0257373389876154,0.0080132482208617,0.0451568716661189,2.775,4.0,0.083204344,0.084299162,0.972382995,-0.454231645,0.094592152,0.377369624,0.9886701749557008,0.0617013503049616,-0.0429348227529425,0.1299262464584492,2.751,5.0,0.192955765,-0.051418431,0.959033481,-0.677475215,-0.6526408,1.46716943,0.965495359154411,-0.0948487435163044,-0.1577934847846157,0.1841837220391662,2.728,6.0,0.187635569,-0.065191075,0.95943109,-0.045776973,-0.110591271,0.825782454,0.9123778976056388,-0.2196414572541836,-0.231097243687626,0.2567455280544433,2.728,7.0,0.031775669,0.430848511,0.880047082,0.081538467,0.602384334,1.352253383,0.7962243023084834,0.4055110153693732,0.1300148243107395,0.4297485570504178,2.728,8.0,-0.039112088,-0.03346661,0.978523495,5.481752978,1.950842837,1.304616262,0.9539356420153312,0.2522225800843261,0.1545411074620969,-0.0500760131479353
42,42,2.839,0.0,0.045124845,0.045867549,0.978157409,-0.03545102,0.236637596,0.514781953,0.9970156164991862,0.0188086873872352,-0.0305990891486033,0.0683358579282667,2.839,1.0,0.117047774,-0.045758805,0.971545136,-0.008055965,0.026806613,0.115018183,0.9964196000496248,-0.0327959642445306,-0.0695821743691598,0.0350817099964807,2.839,2.0,0.147034268,-0.025874452,0.968394773,-0.050600281,-0.008083433,-0.004595743,0.994965323787343,-0.0214393480252662,-0.0938456938886716,0.0278808994753191,2.84,3.0,-0.020243026,0.035675981,0.977732808,-0.236323577,-0.16570325,0.595446546,0.9971130811550184,0.0137558744035623,-0.0008818214897602,0.074669282170107,2.84,4.0,0.067997498,0.034426044,0.976790248,-0.848211247,0.270110773,-0.014334416,0.9911076515208032,0.0139043150135399,-0.0339030749805572,0.127917452397181,2.836,5.0,0.216132128,-0.108923932,0.94954804,-0.426421426,-0.281624989,1.382115107,0.9479469722452594,-0.1173298456991649,-0.1629415202551814,0.2471443021722049,2.751,6.0,0.188523008,-0.094176541,0.956421902,-0.64704959,-0.357363352,1.42076292,0.8888725954756783,-0.2418189564592531,-0.2264754655839334,0.3164458323281089,2.751,7.0,0.065671259,0.413559102,0.886143417,0.144162183,-0.156942889,2.256914198,0.7510804896792207,0.4098819363408464,0.0749470001781531,0.5121111631755317,2.751,8.0,-0.133693964,0.476342796,0.846498355,1.138012427,0.779118827,1.298245047,0.93513293681049,0.3167549550960719,0.1579270408257037,0.015866275250036
43,43,2.898,0.0,0.024758539,0.048890209,0.977879728,0.137433196,0.3984206,0.610276884,0.9947441197388172,0.0240317645515912,-0.0090619785632245,0.0991185708235457,2.898,1.0,0.103600247,-0.044461569,0.97312032,0.062272534,0.328468061,0.263002918,0.9970980006353404,-0.0299811685209787,-0.0510999620536841,0.0478069089278476,2.898,2.0,0.138883173,-0.028422836,0.969426948,-0.009172357,0.222062512,0.093001084,0.9960012442629642,-0.0217531448111571,-0.08044996726941,0.0321888937958858,2.898,3.0,-0.00663594,0.030081507,0.979329397,0.050249203,-0.093621516,1.094745292,0.9915190414147528,0.0166567644422647,-0.0057088132587823,0.1287631630609522,2.899,4.0,0.048083096,-0.015645682,0.978589918,-0.728208848,0.341232804,0.443374324,0.988335425082815,-0.0268886726249457,-0.0202059736469206,0.1485321697135674,2.894,5.0,0.204507692,-0.141225842,0.947979887,-0.31592633,0.260678542,1.015959708,0.9363669229699848,-0.1363726104456559,-0.1433582728194355,0.2899446538603327,2.836,6.0,0.197371068,-0.191173757,0.940258611,-1.345271718,-0.438510162,2.050538359,0.839817577570518,-0.2977579341836791,-0.2262638450663442,0.3935115264513202,2.836,7.0,0.061657473,0.454641759,0.865695805,0.566368875,0.61951754,0.639718497,0.7284773715348998,0.399363321402892,0.1016642772877038,0.547260478568682,2.837,8.0,-0.161584606,0.458771603,0.850898955,-0.201932129,0.451552408,0.522146959,0.9372648072149644,0.3033266749308199,0.1644091782058693,0.0499723078652444
44,44,2.973,0.0,0.000278539,0.055344303,0.978152304,0.104384837,0.44137414,0.817894153,0.9896964376799604,0.0270236317795234,0.0133664116853295,0.1399715099857797,2.974,1.0,0.085490359,-0.039873122,0.975351492,0.145727008,0.259555,0.475549001,0.9965026734071551,-0.0233728386296076,-0.036592045238048,0.0713943592455543,2.974,2.0,0.127073656,-0.027794686,0.971694263,0.055454262,0.253104563,0.378676772,0.9963299501957992,-0.0199523864696415,-0.0658444275455436,0.0509219400475091,2.974,3.0,-0.006154597,0.019776133,0.978576019,-0.228171643,-0.050426909,0.996912008,0.9840664558536906,0.0047495833220163,-0.0088826137059851,0.1775154953675148,2.974,4.0,0.020391331,-0.059553689,0.977470486,-0.941612587,0.579916169,0.36736418,0.9833280889021688,-0.077974370508922,0.0033271309290164,0.1642400600326436,2.998,5.0,0.159670832,-0.122178973,0.958790657,1.559830541,1.057807551,-0.147323985,0.9548115433632914,-0.0654941233499423,-0.0655144545925734,0.2824062547222877,2.894,6.0,0.186292744,-0.333022489,0.902946308,-2.094990887,-0.440100352,1.51415599,0.7803613174121923,-0.3719256503804771,-0.250374400734896,0.4359130467563554,2.894,7.0,0.068706882,0.425863962,0.879557417,-0.383351982,0.204332796,0.244871395,0.7358949749148834,0.3622377186248554,0.094298088579808,0.5642253907709914,2.894,8.0,-0.144251652,0.367550879,0.896476889,-2.579403534,0.03322618,1.732567654,0.9630711024678036,0.1773337781104228,0.1343814649313117,0.1516192752107974
45,45,3.033,0.0,-0.025162122,0.057251969,0.977786827,0.029071709,0.445818144,1.092739995,0.980093250271492,0.0260297175024639,0.034313766561258,0.193809803682332,3.033,1.0,0.063023297,-0.039277955,0.977320473,0.056717077,0.242736157,1.020018208,0.9920492489580532,-0.0226927485170779,-0.0228368019691511,0.1216626782638181,3.033,2.0,0.109130435,-0.027398464,0.973392455,0.214453965,0.195834763,1.092999766,0.9928799637648889,-0.012488351247925,-0.0538487341091702,0.1055165033166914,3.033,3.0,0.005933035,-0.0152065,0.980337983,-0.679185953,-0.01149355,1.573372445,0.9670348992950292,-0.0298662237857789,-0.0126247499366914,0.2525710353767164,3.034,4.0,0.035780525,-0.088699295,0.975301076,-0.24382182,-0.461260935,2.181631251,0.9594036638890648,-0.0815677908891385,-0.0147044636796598,0.2695831670442306,3.029,5.0,0.03447706,0.059740747,0.976615777,1.915649422,2.322845144,-0.647180084,0.967515122725928,0.0076292914904252,0.080273603931007,0.2396089099343226,3.0,6.0,0.191210891,-0.527451087,0.804237991,-3.443937797,-1.559276127,1.183881655,0.6800172723818518,-0.4561727265786728,-0.3494909904709969,0.4553449246096054,3.0,7.0,0.040867543,0.396437145,0.894953314,-0.565600181,-0.083924642,-1.040896252,0.7824148936849926,0.319564857921418,0.0932094449190826,0.5263242680130206,3.0,8.0,-0.106414745,0.255936855,0.940130963,-1.215370101,-1.978098823,-2.598727301,0.9937286107572028,0.1061938284580929,0.0328804248480011,0.0120497560883154
46,46,3.109,0.0,-0.026286012,0.047079741,0.978299312,-0.192937193,-0.044595622,1.362402278,0.9651966987594184,0.0189321926240849,0.0273082394704153,0.2594054063495817,3.109,1.0,0.075790158,-0.025618737,0.976662445,0.514498885,-0.453215738,1.554437643,0.9791551194119628,0.0049770410024288,-0.0439009932672226,0.1982503063865383,3.109,2.0,0.109656148,-0.007736815,0.973770851,0.609735054,-0.040028649,1.348104338,0.9833280492395547,0.0155451066927452,-0.0537300723960928,0.1730242080084554,3.109,3.0,-0.011537714,-0.047899351,0.978350414,-0.293239382,0.067548207,1.679092762,0.9426259011434766,-0.0450514111225271,-0.0081250781730906,0.3306973903041856,3.109,4.0,0.036364545,-0.094107269,0.974658628,0.11470209,-0.232089294,1.799043115,0.9326409960607702,-0.0702260592375471,-0.0191597162087647,0.3533864433527953,3.089,5.0,-3.992364695,-1.780863672,0.957358199,-80.15586777,7.938356261,-143.7859867,0.0073458219616606,-0.0314348862978902,-0.2253563314562544,-0.9737414496136668,3.029,6.0,0.26246754,-0.754152598,0.568388643,-2.409485236,-1.148694139,2.143876754,0.5689808340036341,-0.5252788149552438,-0.3831306781675404,0.5035413195981284,3.03,7.0,0.05280472,0.337128129,0.918404206,-1.646908118,-0.056171321,1.66740221,0.7671642430587655,0.249444945736948,0.0247107268582096,0.5904452753613171,3.03,8.0,-0.055501831,0.001265806,0.978334781,0.305774705,0.543718207,0.078505386,0.991930358087724,0.1106785557029507,0.0591543404373868,0.0180329148749246
47,47,3.199,0.0,-0.016631484,0.040745727,0.979118062,-0.042946863,-0.092836174,1.142489827,0.9492618812561304,0.0195289890915966,0.0198422895252604,0.3132519479995749,3.199,1.0,0.081362867,0.010889803,0.976395154,0.698711857,0.163258777,1.40622339,0.9626541100266196,0.0347572479454699,-0.0310300648283378,0.2666948316725758,3.199,2.0,0.102267727,0.027396103,0.974069692,0.848651754,0.30397908,1.140946124,0.9711775805582818,0.051753215010439,-0.0339966092466568,0.2301737220378887,3.199,3.0,0.002490351,-0.055974748,0.978313664,-0.01101857,-0.370846673,1.220288581,0.920957275536698,-0.0380495617911475,-0.0232845585307634,0.3871017396209316,3.199,4.0,0.052689691,-0.088881545,0.975084544,0.229523884,-0.517659613,2.104053093,0.8923414754378827,-0.048994039829399,-0.0350434614413558,0.4473234077093954,3.148,5.0,-0.09369787,0.212980519,0.951761004,2.786400341,1.15174808,0.492693923,0.0477114614607996,0.0332893377866907,-0.3506190871935224,-0.9347094158777792,3.148,6.0,0.241284958,-0.851023602,0.421190454,-2.318212412,-2.605053113,0.68031402,0.4584182527597412,-0.5142936877716289,-0.489536018734538,0.5345177215177271,3.148,7.0,0.069751506,0.223271271,0.951876918,-1.659827881,-0.445125112,0.602539358,0.7727860842497297,0.1855526480454372,-0.0454753814103661,0.6052304292406964,3.148,8.0,-0.019886862,0.016776221,0.978303159,-0.490720717,-0.681465535,0.472330558,0.9960325221501932,0.0779348940712221,0.0180000029404119,0.0390047048364339
48,48,3.253,0.0,-0.006184018,0.041645739,0.978916948,-0.022742553,-0.146340108,1.051817465,0.9319459439047209,0.021752215687041,0.0105004409353526,0.3617918455305574,3.254,1.0,0.068240718,0.044006834,0.976127862,0.724243239,0.13203389,0.981547704,0.9470477388210108,0.0653453523328878,-0.0179571139233688,0.3138600123973168,3.255,2.0,0.091734382,0.07694048,0.972519391,0.824115405,0.247501216,1.128171607,0.9544036051254235,0.0859516634540452,-0.017750229571413,0.2853261281818389,3.256,3.0,0.019023824,-0.051896163,0.978216685,0.109271185,-0.371944629,1.021188151,0.9001335803761092,-0.0253883404527924,-0.0361791373584023,0.433365941980148,3.256,4.0,0.062881054,-0.090946906,0.973716916,0.084583333,-0.317055903,1.2692735,0.8626777582856273,-0.0382898230872467,-0.0457359645496651,0.5022242490700187,3.179,5.0,-0.15747976,0.298306029,0.920036759,-0.232299515,0.951219653,-0.385688312,0.044595266864851,0.0893921414501298,-0.3177293779186014,-0.9429042102078404,3.179,6.0,0.350217395,-0.792766538,0.456769081,4.050775004,-0.279662512,-1.44346951,0.6233261654591936,-0.3233849887365906,-0.412967679860503,0.5799520117254584,3.179,7.0,0.059151577,0.06772079,0.976139839,-2.139953645,0.275396146,-0.802649644,0.8182057778363906,0.0771563933238877,-0.090937229227228,0.5624203200675374,3.179,8.0,0.056804555,-0.028057042,0.977666633,-0.629563681,-1.298345527,1.603267022,0.9911203098497252,0.0412308505194162,-0.0556617387264108,0.1135003048929064
49,49,3.303,0.0,0.01096486,0.038064584,0.978614766,-0.100714727,-0.25470379,0.883303884,0.9155128377859848,0.0220393452132399,-0.0048164167735898,0.4016557148119363,3.303,1.0,0.079224492,0.089903791,0.971788963,0.685028104,-0.219888473,0.446955553,0.9369927311487648,0.0995605821612071,-0.0203311532566121,0.3342438577765586,3.303,2.0,0.068711928,0.122870519,0.969989952,0.723525342,0.366819032,0.421768913,0.9449811630532252,0.112913790771714,0.0077304701080701,0.3069223308266178,3.303,3.0,0.043873888,-0.045256107,0.977597037,0.120626676,-0.436008176,0.664183665,0.8847316334693005,-0.010394534534117,-0.0518923279376399,0.4630864678348688,3.303,4.0,0.079426618,-0.090876978,0.972603613,0.039767249,-0.37013405,0.998877649,0.8363525348443901,-0.0277738742148737,-0.0600136330075747,0.5441887661682221,3.255,5.0,-0.283024626,0.294430817,0.89106316,-0.098313016,1.392930849,-3.156149215,-0.0862708170367483,0.2170828712779922,-0.2735725647397923,-0.933054352622186,3.255,6.0,0.395722593,-0.563702606,0.697318436,4.962513499,0.186837668,-0.625315938,0.736835699530451,-0.1109805000344715,-0.2591666721473984,0.6144828041187258,3.257,7.0,0.064724715,-0.041742044,0.977049801,-1.447732939,-0.361547302,-0.186454765,0.827113528515306,0.0206480649425685,-0.1410386163238535,0.5436588793228162,3.257,8.0,0.104729573,-0.058102822,0.972149052,-0.334796276,-0.431024003,-0.383069273,0.9923353092721692,0.0216705960468425,-0.0785917680204331,0.0928673959907652
50,50,3.364,0.0,0.005796162,0.023841154,0.979604004,-0.066901328,-0.216625081,0.685799472,0.9014112539370394,0.0222363573524363,-0.0159983776280217,0.4320964563620261,3.364,1.0,0.086929681,0.120259784,0.968765098,0.346707994,0.074714467,0.230363102,0.9315920855927562,0.1115670205449913,-0.0124304717463323,0.3457375729651257,3.364,2.0,0.052425773,0.152721052,0.966425278,0.381293684,0.401638423,0.017872254,0.9424609439513524,0.1216877073845149,0.0314915014719341,0.3097866303326687,3.364,3.0,0.070722502,-0.039603093,0.977155015,0.144053038,-0.406286066,0.510739373,0.8717252076127541,0.0048709828598027,-0.065326694831631,0.4855963950451603,3.365,4.0,0.099250046,-0.098083357,0.970345342,-0.13517057,-0.293202405,0.289786379,0.8273655737351554,-0.0249274073935952,-0.076426319113017,0.555881146923842,3.373,5.0,-0.320204258,0.269695733,0.886078125,0.239810971,-0.284023274,0.616684614,-0.0652633827883187,0.1883043032492702,-0.2787488781506078,-0.9394579517863532,3.373,6.0,0.216749511,-0.15628712,0.942582084,4.487208578,3.690143357,-2.353800298,0.8707329959044509,0.0186294307744269,0.0558897718482151,0.4882144278439903,3.373,7.0,0.094750447,-0.123045271,0.967138157,-1.03373474,-0.521421305,-0.096267363,0.8271445122649901,-0.0118759561548693,-0.1841074380852813,0.5308440154480352,3.374,8.0,0.140906146,-0.095862028,0.964766775,-0.470434045,-0.582706137,0.153514134,0.9891239896539707,-0.0058212866581611,-0.109280709176181,0.0982729480305012
51,51,3.438,0.0,0.023209352,0.022671342,0.978961867,0.062378495,-0.290216536,0.434255767,0.8915824169059892,0.0302682771728031,-0.0272230697029854,0.451024976843868,3.444,1.0,0.083086318,0.135843152,0.966924662,0.213501131,0.014055068,0.08681397,0.9291839794387344,0.1180448615254378,-0.0089212048034091,0.3501470478623139,3.444,2.0,0.039404156,0.170352112,0.964284434,0.26158488,-0.039606241,0.554340522,0.932426524727746,0.1321294766420932,0.0277099470047762,0.3351935802240504,3.444,3.0,0.079545952,-0.023900599,0.976394491,0.328015699,-0.412204011,0.509761222,0.8577707774397788,0.0276784975253223,-0.073364520229478,0.5080165758285814,3.444,4.0,0.112091646,-0.105065529,0.967635622,-0.138246908,-0.212214383,0.140982337,0.8225068222657043,-0.0240365871404463,-0.0889392074823097,0.5612437858697693,3.448,5.0,-0.225939661,0.29359945,0.906542681,-2.132272539,-1.771733301,-0.635308121,-0.1010013085798421,0.1182943516763885,-0.155813469311658,-0.9754626311692762,3.448,6.0,-0.177571967,0.390727155,0.880970764,0.428368974,1.495457107,-2.329869481,0.9155662007563308,0.0073463214770753,0.1478721531427897,0.3739229732422026,3.448,7.0,0.127999858,-0.17867526,0.955357623,-0.548339018,-0.330438979,-0.355205212,0.8338228681618645,-0.0255903212350669,-0.2049589617363669,0.5119339644850286,3.449,8.0,0.193091628,-0.127969407,0.951659842,-0.646454541,-1.070174729,-0.160781229,0.9818287750092032,-0.0363056683440433,-0.1646741940284453,0.0870434651832155
52,52,3.528,0.0,0.043336803,0.037828413,0.978575972,0.432579343,-0.279703172,0.181089751,0.8863411353992493,0.0551840294648334,-0.0287470930087897,0.4588329971075944,3.528,1.0,0.098103277,0.13709926,0.965217872,-0.061054004,-0.121052604,0.551748398,0.9198406450930188,0.1136593868637568,-0.0200058001922491,0.3749326597821021,3.528,2.0,0.071684742,0.176436673,0.960048644,-0.06556108,-0.41429485,0.349168568,0.9276653688538126,0.1330621157107439,0.0019388826151732,0.348894937661906,3.528,3.0,0.101794271,-0.000354141,0.975138862,0.52317027,-0.38965992,0.464375367,0.8437140415297092,0.0577746559320524,-0.075015001667417,0.5283762435825198,3.528,4.0,0.124669221,-0.109940383,0.965625547,0.154447899,-0.308956048,0.701975669,0.8015181577372027,-0.010980093896907,-0.0961210386948367,0.5900922184504739,3.524,5.0,-0.214393153,0.275770304,0.915912832,-0.182814778,-0.250043919,1.246457057,-0.0408744973747804,0.0947672132369241,-0.1524818731683288,-0.9829027058232896,3.524,6.0,-0.163054537,0.323987272,0.91066979,-1.054025973,-0.9308106,0.688491079,0.907380855437025,-0.0068080452392409,0.0857059570442289,0.4114220735856622,3.524,7.0,0.162948413,-0.173839874,0.950436486,0.313085825,-0.346277921,-0.572246379,0.8464996422800883,0.0018048584807965,-0.2028818822031558,0.4922134089795316,3.524,8.0,0.288813836,-0.253029671,0.901279398,-2.456329774,-1.525872699,0.491105578,0.9528197508240251,-0.1581090718161548,-0.242042172850634,0.0924750258762886
53,53,3.591,0.0,0.062531294,0.06102063,0.975627654,0.387882247,-0.363110067,0.219576051,0.8796480913339706,0.0789688424319377,-0.0352242930086506,0.4676990555041812,3.591,1.0,0.101174102,0.114569864,0.967453124,-0.638189389,0.09565647,0.297988649,0.917832067951733,0.0782664185168165,-0.0292925135759473,0.3880729460042258,3.591,2.0,0.089542615,0.156237316,0.962069135,-0.565481399,-0.423384794,0.213020337,0.9276362262734158,0.109989234819749,-0.0303696307541232,0.3556277343752033,3.591,3.0,0.124243133,0.03531594,0.97143833,0.648852578,-0.343880782,0.096619593,0.8380591401238526,0.0927861300789998,-0.0696595406290647,0.5330995780519615,3.591,4.0,0.137032906,-0.093885516,0.966242461,0.467706238,-0.248011397,0.577504,0.7835045620493964,0.0132303004796229,-0.0912808802898667,0.6145025315574455,3.615,5.0,-0.185339648,0.256183391,0.92800608,-0.400963194,0.024682123,1.50890756,0.0353860957028659,0.08344773685446,-0.1378824986506137,-0.9862924089795276,3.615,6.0,-0.070668205,0.240967344,0.94767597,-1.290773421,-1.624577912,0.836870833,0.8929791590884857,-0.0173595269796058,-0.0128236623443988,0.4495802730778366,3.615,7.0,0.17398144,-0.087315081,0.958964825,2.258329161,-0.025923816,1.393801092,0.8095636207568987,0.0800138921058784,-0.1433749082804213,0.56360283595155,3.616,8.0,0.358376658,-0.542111312,0.733720994,-5.393577896,-1.836201108,2.050525408,0.8526837246307916,-0.4096298991576049,-0.2937854650324155,0.1372002623961711
54,54,3.665,0.0,0.082619806,0.088232416,0.972470055,0.308096236,-0.238173194,0.077516401,0.8763583393632791,0.0959685380028658,-0.0369272528298323,0.4705555001702455,3.665,1.0,0.118561029,0.069148743,0.969823042,-0.551376614,-0.559854559,1.130547904,0.8958866688923769,0.0604985158652731,-0.0696849440260952,0.4345929298264063,3.666,2.0,0.110514896,0.091888158,0.967844008,-0.886845223,-0.140802274,1.29751076,0.9075287872987888,0.0655665949753842,-0.0572328889103986,0.4108733603852817,3.666,3.0,0.126183566,0.062223176,0.969639616,0.149620929,0.373893815,-0.003726774,0.8391426435974357,0.0859819533360075,-0.0467440975788607,0.5350343136083606,3.666,4.0,0.133133939,-0.068475787,0.96827807,0.468025181,0.224020675,-0.251911084,0.7920114440608702,0.0261617074231842,-0.0660795609315309,0.6063554478755965,3.628,5.0,-0.127404398,0.270759858,0.932908473,-0.006315677,-0.317618804,2.305808459,0.1480881615506536,0.0509227077485686,-0.1467793098570932,-0.9766947365691988,3.629,6.0,0.050562409,0.201672902,0.957829047,1.161672539,-0.589474193,2.056756906,0.8439255065962905,0.0550390457707301,-0.0136353024292758,0.5334552664324389,3.629,7.0,0.117024567,0.146034611,0.961764079,3.458980397,1.119363186,0.383475573,0.7905944061782187,0.1836791386078859,0.0084395963382108,0.5840815287043606,3.629,8.0,0.464309755,-0.740625331,0.441809427,-0.949307408,-1.26727419,-0.57272055,0.8158248499625611,-0.4296262684063958,-0.36768843141932,0.1210632110889195
55,55,3.71,0.0,0.08680014,0.085327842,0.972767133,-0.090123489,0.081774735,0.186525788,0.8728982329158098,0.0861235895571556,-0.0344518081753851,0.4790036275517059,3.71,1.0,0.166284808,0.0469789,0.964443542,-0.194743388,-0.393184529,0.633527065,0.881009125772166,0.058061882370464,-0.0926975011011216,0.4602813394125052,3.71,2.0,0.138954151,0.05311626,0.968818046,-0.165697437,-0.197187285,1.309854309,0.8794975702802649,0.0573740246232825,-0.0726370161487413,0.4668148552206164,3.71,3.0,0.088239341,0.062168043,0.97402513,0.02528143,0.677775578,-0.207767491,0.8462797350134804,0.0658869390036333,-0.0140911005696271,0.5284609373066105,3.711,4.0,0.114442158,-0.023570241,0.97175791,0.86236787,0.151217702,0.828888313,0.7660090769088007,0.0518256840953242,-0.0350748937297964,0.6397764800234707,3.703,5.0,-0.080639119,0.211298026,0.953385272,-1.500203131,-0.677748596,-0.286103078,0.1332022456190774,0.0106760531197132,-0.0736366256077234,-0.9882918754198722,3.703,6.0,0.070546698,0.183441162,0.959886193,-1.337349923,-0.678199754,0.362425487,0.8365549195445382,0.0212153913561864,-0.0747275135242944,0.542348202244565,3.704,7.0,-0.001285003,0.314242443,0.927544627,2.226009014,2.410628848,1.540531353,0.7248684153531121,0.1893708367133772,0.1541316951886579,0.6441644876615088,3.704,8.0,0.503405972,-0.776033517,0.322110863,-0.634481062,-1.343892118,1.54213996,0.7656418839046214,-0.4737883788514271,-0.3869696425336731,0.1989260501635723
56,56,3.768,0.0,0.08680014,0.085327842,0.972767133,0.064594332,-0.04029767,0.149948844,0.8692215951642301,0.0869908779993545,-0.0336690466729076,0.4855438197950728,3.769,1.0,0.161531962,0.011553296,0.96510463,-0.728456102,0.202120326,-0.379921158,0.8925333843835915,0.0211846699580567,-0.0977448153193084,0.4397514281929447,3.769,2.0,0.142905854,0.024310358,0.969595237,-0.756269026,0.101545854,-0.771880412,0.8993396395473771,0.0225262335601375,-0.0833405376998178,0.4286433672836817,3.769,3.0,0.054247928,0.073455511,0.974445714,0.296260211,0.436794778,0.118686432,0.8424778212218557,0.0648060111296379,0.0127888255536062,0.5346660150147003,3.769,4.0,0.120831362,0.037036492,0.971713991,1.026379108,-0.143482031,0.984881401,0.7313930107483901,0.0924336471910227,-0.0120552363133063,0.6755552945339123,3.766,5.0,-0.0431809015,0.202952809,0.9563415015,-0.8057325375,-0.847225385,0.625011816,0.1615216137338518,-0.0374649932338968,-0.042203336604638,-0.9852542925347912,3.766,6.0,0.0863552855,0.1428304575,0.964588241,-1.6271817565000002,-0.4267952084999999,0.5665521245,0.8211794874714294,-0.0299036323519508,-0.1279115799853391,0.5553455229260195,3.766,7.0,-0.0019367145,0.3663279665,0.906731807,1.668810014,1.48890901,2.1749013075,0.6304050740422852,0.2070446955463112,0.2300960992432545,0.7118832220111065,3.766,8.0,0.4732283025,-0.753354913,0.4004673509999999,2.0346180345,-0.1395818845000001,1.3396055145,0.7982834772734902,-0.4052934651096475,-0.3415862035896444,0.2860062281992722
57,57,3.872,0.0,0.087992916,0.088017433,0.972181145,0.000201063,0.054836304,0.301838939,0.8621996368938131,0.0825916779332385,-0.0309352508817901,0.4988320470150547,3.873,1.0,0.162120231,-0.019700528,0.966027908,-0.403081843,-0.179521036,-0.010482098,0.892398422706027,0.00783253710531,-0.1127275859442401,0.4368709167265235,3.873,2.0,0.160806346,-0.014250934,0.966339604,-0.431998377,-0.472286568,0.170061705,0.8939967625915258,0.0132418826539639,-0.1132128836359418,0.4333327635876204,3.873,3.0,0.026092089,0.088561952,0.975467572,0.090179436,0.466801809,0.203678676,0.8364412068717867,0.054286486003539,0.03417939154164,0.5442893110084926,3.873,4.0,0.116288945,0.068665094,0.969068618,0.632935294,0.072704211,0.3646198,0.7162992584320781,0.109852612046814,0.0091260643541245,0.6890315601955774,3.828,5.0,-0.005722684,0.194607592,0.959297731,-0.111261944,-1.016702174,1.53612671,0.2352452537605448,-0.0863621379974397,-0.0475048521040288,-0.9669253025597284,3.828,6.0,0.102163873,0.102219753,0.969290289,-1.91701359,-0.175390663,0.770678762,0.7970239633509391,-0.0965964497023455,-0.173426502410309,0.5703903715973738,3.828,7.0,-0.002588426,0.41841349,0.885918987,1.111611014,0.567189172,2.809271262,0.5167365757535247,0.2438047817006924,0.2448328318471812,0.783325873534182,3.828,8.0,0.443050633,-0.730676309,0.478823839,4.703717131,1.064728349,1.137071069,0.880717080110491,-0.217221353362265,-0.2120140399757782,0.363596418159291
58,58,3.94,0.0,0.082389936,0.082079755,0.972773258,-0.113449937,0.115742084,0.292268991,0.8557342596632055,0.0718879893233772,-0.0283341611950897,0.5116133003930591,3.94,1.0,0.173695051,-0.038686061,0.963667172,-0.301785937,-0.108203968,-0.015507964,0.8925040586644981,-0.0018499799363852,-0.1217466586003592,0.434293488278699,3.94,2.0,0.180806534,-0.037135083,0.962179288,-0.328749337,-0.277772832,0.204404187,0.888372199930349,0.0044809579971635,-0.1305729591681094,0.4401425425250586,3.94,3.0,0.001747759,0.085028007,0.976397554,-0.116161915,0.330668239,0.270398559,0.8288531673968128,0.0392070653210863,0.0430649305936448,0.5564266750238915,3.941,4.0,0.122413433,0.095589479,0.967466073,0.606914826,-0.154476937,0.966972071,0.6799261305523017,0.1332913827471798,0.0162875331866174,0.7208804204167388,3.91,5.0,0.082096265,0.136738949,0.966581431,-0.993032629,-0.905975911,0.474324879,0.2517254970722114,-0.1378084593339603,-0.0106446595829868,-0.9578777551870128,3.91,6.0,0.163615876,-0.071546806,0.963388239,-2.659924461,-1.749678253,2.231499187,0.7085245259383465,-0.1503139253695781,-0.2866979410485678,0.6270590168256432,3.91,7.0,0.047291774,0.489081099,0.846892653,1.363227678,0.611161177,2.421949865,0.4029141686141927,0.271864699560579,0.2748840083158688,0.8295712988254664,3.911,8.0,0.192144737,-0.594527014,0.754781445,4.98086756,4.355124266,1.205026544,0.9222170137710928,-0.0721372301756756,0.0871575270221925,0.3697506795356642
59,59,3.976,0.0,0.077085712,0.074812101,0.972988665,-0.114637135,0.157191195,0.24599203,0.850193027233263,0.0607669061520815,-0.0239339089206889,0.5224044099779602,3.976,1.0,0.17013477,-0.047072026,0.963668192,-0.17169166,0.054679053,-0.017176367,0.8936354263558748,-0.0087906827518393,-0.1197726685968245,0.4324268221511077,3.976,2.0,0.192209953,-0.055232896,0.959108264,-0.209030437,-0.139919625,0.11714738,0.8853300872313574,-0.0010950263448297,-0.138414134382876,0.4438817015413683,3.977,3.0,-0.012565603,0.075392748,0.976935535,-0.181155132,0.29191824,0.251811016,0.8215803612892699,0.0231146807571914,0.0481017763207178,0.567589323888388,3.977,4.0,0.137626115,0.125446856,0.961888319,0.574955571,-0.035321814,0.890629998,0.644420076493447,0.1502183583804642,0.0273588361804623,0.749272116056983,3.958,5.0,0.165685585,0.028655374,0.96570604,-1.074487622,-1.076240224,1.989546108,0.3405153522873343,-0.2033891350239901,0.0408369259089161,-0.9170684271596832,3.958,6.0,0.17425768,-0.051355706,0.963120892,0.436157465,0.078938415,-0.251368945,0.7286463474318968,-0.1153188145829363,-0.2531096947645673,0.6258686394072877,3.958,7.0,0.023524269,0.512356564,0.835087636,-0.391562408,0.828216991,0.274076861,0.390441268219698,0.2208766308732895,0.2679330249667709,0.8526318221467073,3.958,8.0,-0.108221224,0.057577213,0.972444873,5.28459949,2.56950544,-0.767888467,0.9101500256781336,0.1296673267367551,0.297315234510336,0.2577148937549015
60,60,4.038,0.0,0.066277347,0.066401808,0.975527608,-0.135034576,0.228766459,0.26344351,0.8440428690192643,0.0473621689050068,-0.0171584841043279,0.5339045295158901,4.038,1.0,0.164114379,-0.053101685,0.964850601,-0.098049055,0.131762186,-0.030568467,0.8954820554530789,-0.0137698527767484,-0.1127963989476759,0.4303478266477855,4.038,2.0,0.19354471,-0.063601374,0.958675811,-0.091186435,0.073114624,-0.019794074,0.8867965267298273,-0.0050011633782352,-0.1337099846462948,0.4423669840196784,4.038,3.0,-0.026656281,0.071222769,0.977188702,-0.059686206,0.199297074,0.372939797,0.8105704846997435,0.0158520974079321,0.0525783006363376,0.5830606509134255,4.038,4.0,0.119377937,0.124633586,0.964598039,-0.378607642,0.479670431,-0.273482142,0.6575050021054129,0.1131953572360165,0.0286845227946824,0.7443461435774441,4.055,5.0,0.220830798,-0.041775405,0.954238217,-0.664491421,-0.537870382,1.019188305,0.3818428479861711,-0.2297267088930417,0.067161762125101,-0.8926987041388784,4.055,6.0,0.189238966,-0.107738036,0.955664758,-1.146573497,-0.449164547,1.76307488,0.6667395309111851,-0.1501013192129134,-0.2777171008911159,0.6751305086896233,4.055,7.0,0.074175086,0.453497546,0.865683564,0.273992175,-0.142548826,1.773938634,0.3168171776568542,0.248179891889526,0.2490982793784966,0.880899349763593,4.056,8.0,-0.189021757,0.461732673,0.843124969,0.736286837,1.163550262,3.230475151,0.8416635099124979,0.1994724068090378,0.3094445479515095,0.3950409684408314
61,61,4.136,0.0,0.048071219,0.060337595,0.977189609,-0.009982885,0.33892949,0.349893584,0.83498210157545,0.0367716606732804,-0.0026443971132582,0.5490407472891982,4.136,1.0,0.14834785,-0.055828201,0.967082792,0.06977633,0.360438206,0.292424692,0.8915248736836802,-0.0179998892144248,-0.0917668988217435,0.4432135375552133,4.136,2.0,0.181428919,-0.06584871,0.960144518,0.055324902,0.266927402,0.078501807,0.8873020772802678,-0.0073621973237723,-0.1170851790516708,0.4460178051951799,4.137,3.0,-0.032814249,0.060894161,0.9778206,-0.20433019,0.048217588,0.01910085,0.8101026775793361,0.0061796494372577,0.0464876813131677,0.5844094105999219,4.137,4.0,0.083511978,0.085240322,0.972522924,-0.845997616,0.570694005,-0.428163739,0.6779421094353402,0.0573742318572413,0.0154193844138173,0.7327106771144063,4.103,5.0,0.223500121,-0.102818164,0.948351265,-0.613415011,0.036489006,0.889729958,0.4149928362165169,-0.2275524450144454,0.099529258339408,-0.8752683916327189,4.103,6.0,0.19755872,-0.243880387,0.928259613,-2.036560628,-0.400703808,1.970693517,0.586384240885688,-0.2129439226278034,-0.3275514004534752,0.7095903662802692,4.103,7.0,0.068458619,0.463546969,0.861174561,-0.204758825,0.314705153,0.077061038,0.315800242213424,0.2198405224477056,0.2409215893133734,0.89100905691838,4.103,8.0,-0.213855041,0.379950961,0.877752407,-2.318202542,-0.286367372,-1.14484628,0.8928300178159323,0.076069558539809,0.2420078836638839,0.3721561040677538
62,62,4.173,0.0,0.024255371,0.064658598,0.977556107,0.079254517,0.419218067,0.55186813,0.8195841600492719,0.0281885368137692,0.0169587391212499,0.5720136468267568,4.174,1.0,0.108519946,-0.043569067,0.97312032,0.319675081,0.669591293,0.268441345,0.8888230736491289,-0.0175910161479073,-0.0514401378810504,0.4550142988023321,4.174,2.0,0.158355384,-0.057332952,0.964627133,0.265350085,0.451230476,0.24044277,0.884832567199628,-0.0053557767222005,-0.0879851871357689,0.4574945360584119,4.174,3.0,-0.031665973,0.056949716,0.976760972,-0.005381299,-0.015195542,0.572539458,0.7933450316855738,0.0085393177406016,0.0438754973889569,0.6071290484577498,4.174,4.0,0.031646702,0.017304938,0.978908589,-1.091439676,0.791834709,-0.681203949,0.7057038664824058,-0.014723003063479,0.0009311070701987,0.7083533151275565,4.216,5.0,0.188011806,-0.115428316,0.954641223,0.124319147,0.662261517,0.191103695,0.4224576249682597,-0.1838744622749023,0.1015667485683537,-0.8817051280414249,4.216,6.0,0.202441908,-0.498555764,0.819000259,-4.193042067,-1.247766318,2.271047163,0.4529661795925632,-0.2941285649194696,-0.4732478341979579,0.6959500807318534,4.216,7.0,0.065794494,0.411405142,0.886731015,-1.248142018,-0.141972818,-1.251624571,0.3915364476512242,0.175896251964287,0.1899035829562703,0.8830041607410166,4.216,8.0,-0.195562386,0.235930716,0.930832987,-1.635602243,-0.379333062,-1.305622525,0.9269289877577208,-0.009162862874295,0.1825630460253145,0.3277032618457628
63,63,4.263,0.0,-0.001883884,0.072440674,0.977133461,0.140413817,0.487533633,0.602420297,0.8015492086377692,0.0205318130819248,0.0403842264705317,0.5962100511028904,4.263,1.0,0.059953337,-0.02795778,0.977975439,0.248071177,0.740647337,0.518618388,0.8787093693875972,-0.0229974728566782,-0.0108703233591121,0.4766789238709068,4.263,2.0,0.114995175,-0.041210723,0.972041041,0.239178679,0.73393712,-0.222603271,0.8930131182936766,-0.0090976452358028,-0.0471878888899197,0.4474573795890287,4.264,3.0,-0.009963858,0.058486345,0.977571516,-0.144992241,-0.371019766,0.773340874,0.7705908258392056,0.0171225224464437,0.0223977940134079,0.6367063194133188,4.264,4.0,0.024875699,-0.018792059,0.97930897,-0.522881792,-0.156891086,-0.031601816,0.7064803903474985,-0.0259444878466187,-0.0248416815725443,0.7068205093667492,4.262,5.0,0.078242982,0.02503977,0.975438386,3.110871916,2.133453804,-0.513253057,0.4240099932632147,-0.0129247465174092,-0.0035924826618837,-0.9055581541837684,4.262,6.0,0.321919743,-0.728284948,0.572035587,-3.3997548,-1.730118813,1.892715112,0.3120810872089046,-0.3210621717298943,-0.5945424951616173,0.6678650300304622,4.262,7.0,0.027155149,0.373034749,0.905644342,-0.671395984,0.564030055,1.787188919,0.3159601829180005,0.1501025030886284,0.1537940263781652,0.9241135205305376,4.262,8.0,-0.137634943,0.055734089,0.967501594,-3.511986799,-1.992011513,-4.613859759,0.9761324742775588,-0.18826629563369,-0.0320407375186055,0.103414630146817
64,64,4.326,0.0,-0.017601131,0.060531689,0.97751323,-0.269235257,0.100596192,0.795310787,0.7777557314763343,0.0085774212501088,0.034477279997561,0.6275617636252071,4.326,1.0,0.039592487,0.000242998,0.978365155,0.77153785,0.073732992,1.240636551,0.8489830921018875,0.0105506118722853,0.009364309020225,0.5282316760956431,4.326,2.0,0.087952414,-0.005122553,0.976437982,0.862279706,0.350684506,0.893464214,0.8732469891843546,0.0212497729132279,-0.0128964618027773,0.4866434262420128,4.327,3.0,-0.001490566,0.024162979,0.978625019,-0.465972496,-0.085924951,1.05023425,0.7374967842577507,0.0030871367946074,0.0028554601487226,0.6753375520013878,4.327,4.0,0.029482985,-0.056238256,0.978061865,-1.296979592,0.285820779,0.180603375,0.6988625920340992,-0.0799705233940445,-0.0605756578471953,0.7081852741478337,4.307,5.0,-0.096089625,0.215674737,0.951617146,2.51220452,2.043765037,-1.90666674,0.344365227567211,0.1338728433404397,-0.0791654029093749,-0.9258636459224032,4.307,6.0,0.313816286,-0.827887782,0.417456774,-2.582883497,-1.824307741,-0.814093538,0.2612884092188531,-0.2535970659152645,-0.7121116433211161,0.6002615286802493,4.307,7.0,0.046840355,0.273399324,0.93961896,-2.080258881,-0.278059069,-1.362693368,0.4009262189581274,0.1034069446355623,0.0571983579193561,0.908456668534282,4.307,8.0,-0.116058377,-0.003211853,0.972963071,-0.947808773,-0.7890847,0.236504439,0.9672655576800704,-0.2131682371579882,-0.0637275960369856,0.1220468643438446
65,65,4.39,0.0,-0.011164031,0.053639181,0.977752117,-0.014242737,-0.09508427,0.472199515,0.7630671352757897,0.0127476689484232,0.028840256598141,0.645549598092768,4.39,1.0,0.036682439,0.061101738,0.977043999,0.945444113,0.37937803,1.264846922,0.8139239173563612,0.0421192980653289,0.0462648946518055,0.5775927466724424,4.39,2.0,0.071230534,0.054125106,0.976132001,1.326198458,0.252294941,1.606778591,0.8308716785759074,0.071128860612449,0.0236126349383215,0.5513940355133508,4.39,3.0,0.020024836,-0.001001608,0.979536627,-0.426058514,-0.55756483,0.946740161,0.7056346731587465,0.0073750763202433,-0.0325926328786605,0.7077874232899711,4.39,4.0,0.049324609,-0.087702192,0.974550362,-0.233607345,-0.667899294,1.575797477,0.6410055028317748,-0.0623242953512821,-0.0840480502894909,0.7603706680237508,4.41,5.0,-0.19378355,0.326053703,0.903270678,0.806088369,0.48227083,-1.836523154,0.2572845140156214,0.1762650788996552,-0.0991695525834168,-0.9449342308587666,4.41,6.0,0.377818801,-0.821740797,0.377122018,1.826944628,0.437706781,-1.261183833,0.3590230123278495,-0.1722629990597996,-0.6505495116935531,0.6466941074489853,4.41,7.0,0.047415152,0.131666512,0.969643611,-2.028661158,0.061741175,-1.263742475,0.4715248319339806,0.0440809998810573,-0.0311395884136871,0.8801997070850136,4.41,8.0,-0.041671231,-0.031138389,0.977508521,-0.266708937,-0.932454539,0.348904775,0.9628232994876624,-0.2027593332010214,-0.0987317596266241,0.1487009966496485
66,66,4.444,0.0,-0.002472409,0.050768236,0.978853653,-0.009057842,-0.116865856,0.405415497,0.7501277777069013,0.0173883064272177,0.0227135513632763,0.6606739426499025,4.444,1.0,0.020161835,0.112951923,0.97296627,0.754968284,0.195379623,0.535959102,0.7961680651878897,0.0688582445505787,0.0719020910807163,0.5968291576578721,4.444,2.0,0.051573222,0.122507979,0.970355089,0.820551578,0.368530258,0.812429648,0.8047431993498861,0.0945087695877411,0.056127626950953,0.5833576647854859,4.444,3.0,0.054918573,-0.025075374,0.976729326,-0.303449184,-0.404330001,0.836310287,0.6755576022261548,0.0104028372570697,-0.0570582535459081,0.7350224913250901,4.444,4.0,0.071571332,-0.110443513,0.971401449,-0.426207082,-0.290234566,0.621542252,0.6155300671897375,-0.0618027380778127,-0.1054925336961528,0.7785720796983723,4.453,5.0,-0.295968767,0.290553874,0.887684029,0.535019995,1.075036616,-1.712749174,0.1777669831905999,0.2426898454788529,-0.0954922575534596,-0.9488844857705848,4.453,6.0,0.430234245,-0.520315924,0.709628659,5.365973166,1.439381361,-2.070333629,0.5492671101189301,0.0159953384766089,-0.4200098700872427,0.7222475336876654,4.453,7.0,0.034336003,0.005078493,0.979763363,-1.890519691,-0.071084441,-1.614762862,0.5486397556220585,-0.0046435620427414,-0.1142695268594568,0.8282000550071456,4.454,8.0,0.047739948,-0.078621403,0.97419124,-0.43318407,-1.031492498,1.12698975,0.9466931458673478,-0.2048954999903221,-0.1324831833608618,0.2103286185426818
67,67,4.553,0.0,0.011125844,0.051699881,0.978385066,0.002551555,-0.189961547,0.406284828,0.736887423154959,0.0248371541023429,0.0143557548639047,0.6754065099437733,4.499,1.0,0.016951289,0.125047042,0.971782842,0.704663658,-0.110081239,-0.140543335,0.7983727517051923,0.0984972960099335,0.0851668006896337,0.5879165315533346,4.499,2.0,0.058439863,0.150760994,0.967419715,0.573403396,-0.131967492,0.956792612,0.7743976343225335,0.1218637737024047,0.0584569131806759,0.6180940979463077,4.499,3.0,0.065209322,-0.03691243,0.975320571,-0.210194669,-0.221660544,0.752999785,0.6475328849475462,0.0096891627378304,-0.0703114870057395,0.7587249685043912,4.499,4.0,0.076048484,-0.121245475,0.969893893,-0.522517523,-0.015152058,0.224140882,0.6058697608677457,-0.0729501508073885,-0.1222241451376039,0.7827268787441899,4.513,5.0,-0.388471241,0.248794378,0.878884209,0.454253555,1.444878002,-1.529616985,0.1072648706477598,0.320521937466283,-0.0846305139192333,-0.9373353782086464,4.513,6.0,0.455738984,-0.288745031,1.009192393,6.50666273,2.73791772,-0.35833304,0.6282919349385876,0.1356565889823795,-0.0794202567794439,0.7619310711408732,4.513,7.0,0.040082672,-0.10513269,0.982999235,-1.736007883,-0.360569268,-2.177841226,0.6375524872116332,-0.0329585646398847,-0.1953150612795898,0.7445082846446297,4.514,8.0,0.113817072,-0.124652815,0.954218188,-0.0488263,-0.555851388,1.545907035,0.927550750977541,-0.1963444734110311,-0.1373987503957437,0.2867403625435952
68,68,4.594,0.0,0.022901612,0.048333709,0.978371795,-0.030068005,-0.120530554,0.45960535,0.7214686684023187,0.0282823405492111,0.0077207650304301,0.691826177239766,4.553,1.0,0.014958188,0.147237975,0.968234595,0.548451531,-0.004818854,-0.466444894,0.8096989408533115,0.1154614012357181,0.0991082683154249,0.5667749475384634,4.554,2.0,0.018830997,0.162680905,0.965986706,0.549046821,0.519924586,0.330791294,0.7598671168186878,0.1226401403631065,0.0917132442664494,0.6317832235628726,4.554,3.0,0.076634518,-0.038116338,0.975196029,-0.025128915,-0.35998391,0.518727785,0.6268497831226237,0.0214220210745954,-0.080136775770768,0.7747119100551282,4.554,4.0,0.081361319,-0.135320913,0.967126975,-0.215742847,-0.245246735,0.612111532,0.5806959850947794,-0.067277808986523,-0.1315354380643949,0.800602459305481,4.572,5.0,-0.348086983,0.271090533,0.875279598,0.504928926,-0.213512272,-0.428696086,0.0807792454112223,0.3029253821612358,-0.1055495902382,-0.9437002756987044,4.573,6.0,0.259946596,-0.172295113,0.929400431,4.577229106,3.746206546,-1.379396949,0.6653213025867575,0.1418240630048385,0.2222251876784318,0.6984622147534866,4.573,7.0,0.065318565,-0.121689861,0.969770108,-1.362021201,-0.369650888,-0.864725503,0.6653269086547936,-0.0540135721621273,-0.2480414879611783,0.7020669903165561,4.573,8.0,0.081612251,-0.09947388,0.97199094,-0.348809137,-0.452276081,-0.068906902,0.9260783770199872,-0.1901417789393372,-0.1560595640352373,0.2861299634623092
69,69,4.638,0.0,0.031425509,0.048150361,0.977815412,0.085574313,-0.139373183,0.444100288,0.70603207996859,0.0363547715730597,0.0047282199212191,0.7072302853918756,4.594,1.0,0.00914608,0.173673562,0.96350394,0.233102512,0.08396197,-0.300474161,0.8170916030354397,0.1171056126003652,0.1057429043194319,0.5544961910893166,4.595,2.0,-0.031371463,0.184746633,0.962137471,0.317462665,1.043432001,-0.334368094,0.7643503117743491,0.0942713524559834,0.1412746301501563,0.6220313431592589,4.595,3.0,0.098474563,-0.036701463,0.973778087,0.117153541,-0.373047091,0.373176228,0.6110770812860754,0.0384984526158889,-0.0843649537177947,0.7861203625764109,4.595,4.0,0.093028355,-0.147261062,0.964614381,-0.104814743,-0.258842859,0.467167448,0.5610004861965266,-0.0570004707749458,-0.1374138561891175,0.814338279184966,4.665,5.0,-0.250536732,0.36251234,0.875237767,0.285497689,-2.065759846,2.530833522,0.1914805469544319,0.1832841300104944,-0.1710862845853067,-0.948931826345351,4.665,6.0,-0.219116991,0.407599833,0.864377881,3.052461321,2.397375272,-5.944835268,0.8007936663009826,0.1068612155559784,0.4482025252577696,0.3826547804153077,4.665,7.0,0.097589778,-0.180155818,0.958009977,-0.637304323,-0.41255246,-0.131712321,0.6656162577483782,-0.056505984875108,-0.2703131420971949,0.6933201831072571,4.666,8.0,0.131086191,-0.137858079,0.961175094,-0.81730003,-0.940093759,-0.097101836,0.915356628261856,-0.1995922116825686,-0.204788385340879,0.2834553039938096
70,70,4.727,0.0,0.043594374,0.056562648,0.9763484,0.210051539,-0.140865563,0.460985696,0.6893933448126485,0.0486699542344551,0.0061774816823205,0.7227239378925464,4.638,1.0,0.011278037,0.173126128,0.963110144,-0.087011216,-0.094324842,0.332402814,0.8095636417411214,0.1139861856153722,0.0916292573619337,0.5685225929151907,4.638,2.0,-0.036428645,0.204242576,0.957740531,-0.023773734,-0.059704947,0.514539828,0.7495245489209768,0.0964787129136006,0.1298448138837857,0.6419074176443409,4.638,3.0,0.113208905,-0.029547127,0.971606768,0.149445218,-0.19171658,0.427923114,0.5935011040286119,0.0484121721793401,-0.0815887760370558,0.7992221047534108,4.638,4.0,0.101405164,-0.147683087,0.963329486,0.089838328,-0.192814001,0.249945006,0.5507517171268924,-0.0428591481851493,-0.1339901075965574,0.8227285643302328,4.724,5.0,-0.179969576,0.312378277,0.911026763,-0.210835928,-0.32601443,1.969856137,0.2861994002699817,0.1423858587680496,-0.1778995393016049,-0.9306814301490411,4.724,6.0,-0.194582314,0.3942698,0.875394224,-0.714176188,-0.610229108,2.155810551,0.7819266916943296,0.141342285143857,0.3702937262992526,0.4811398585751214,4.724,7.0,0.133185265,-0.210137316,0.947857581,-0.130660648,-0.236027847,-0.637310585,0.6870750433162695,-0.0409262800392518,-0.2700918101482392,0.6732780544061587,4.724,8.0,0.234887546,-0.21554708,0.926179409,-1.641179578,-1.488927485,-0.669190178,0.8932330243136266,-0.2321317198265106,-0.296048153784068,0.2461810706918046
71,71,4.773,0.0,0.052908964,0.071622823,0.975692991,0.190633153,-0.193103935,0.465539038,0.6722078939855773,0.0618178583721054,0.0052947343521526,0.7377581347826001,4.728,1.0,0.029318838,0.152111824,0.96810299,-0.525633873,-0.273490486,0.849223884,0.7898441223450259,0.1008113432082978,0.0557576003641709,0.602390592123735,4.728,2.0,-0.007260274,0.16697119,0.964301773,-0.893054996,-0.765708547,-0.096719583,0.7624754729064791,0.0828891481858172,0.0652750214921229,0.638357042647979,4.728,3.0,0.126312503,-0.018177885,0.971796643,0.34271074,-0.170674913,0.476015365,0.573344954444478,0.062853643032516,-0.0707862587213109,0.8138269400473543,4.728,4.0,0.111966656,-0.134226702,0.963946399,0.359585333,-0.213323839,0.550717283,0.5284379868866859,-0.0232679995263474,-0.1197178429259897,0.8401663717968821,4.833,5.0,-0.181332896,0.285998769,0.919288902,-0.964102664,-0.074388669,-0.260236018,0.2802771661233768,0.1269763505672886,-0.1263646151799148,-0.943055512987912,4.834,6.0,-0.072903552,0.298564472,0.929576962,-1.149348085,-1.950296127,-2.409703281,0.8872458570343343,0.0875384747693475,0.2402489067100728,0.3839430523333905,4.834,7.0,0.149502899,-0.174126019,0.952207442,0.970415315,-0.138367171,0.141437981,0.6854827719484925,-0.0019656002810342,-0.227376474046769,0.691671486203823,4.834,8.0,0.323556726,-0.434457761,0.817221206,-5.264674876,-1.727739455,1.220272168,0.783441794862728,-0.4273065724550494,-0.3912040721200007,0.2249164759543293
72,72,4.865,0.0,0.068194174,0.083808062,0.973995258,0.132685152,-0.171787508,0.164558561,0.6658252812322984,0.0718968330302901,0.004162517436523,0.7426238709607548,4.773,1.0,0.066103732,0.106206489,0.972049113,-0.724938125,-0.49486841,1.47140705,0.7501499843833008,0.0890538874932745,0.0039198116826045,0.6552320513592429,4.773,2.0,0.063381961,0.1018017,0.972764175,-1.098175559,-1.396114487,0.584508083,0.7525237317393652,0.085779574388548,-0.0304383009789488,0.6522448985007815,4.773,3.0,0.130978782,0.006278788,0.970749265,0.592669119,-0.097251388,0.386599882,0.5558602665887107,0.0812639226536794,-0.0475274104873156,0.8259277717544281,4.774,4.0,0.113203716,-0.114688138,0.965593884,0.290857128,0.027381858,0.126821372,0.5242939773892732,-0.0135114736117517,-0.1028165206740684,0.845199401579683,4.853,5.0,-0.136642735,0.297338036,0.923894396,0.767713286,-0.144331541,2.610197956,0.4001788852433605,0.1180948131928765,-0.1820751154171784,-0.8903702192055516,4.853,6.0,0.060012541,0.19675075,0.958512722,-1.564192829,-0.721622772,4.818161677,0.7984677481574769,0.0961843613425924,0.1346608497828135,0.5788473713520832,4.853,7.0,0.108331173,-0.004263809,0.974246466,3.317740973,1.049899296,0.791429099,0.6740624081801581,0.0682193766739378,-0.0620758469520244,0.7328932908341939,4.853,8.0,0.43229407,-0.699613083,0.532864308,-4.306460517,-1.112866077,-0.956178299,0.6797608138958383,-0.529772018527396,-0.4942956762513368,0.1137480932425219
73,73,4.938,0.0,0.068858325,0.08167497,0.97408918,-0.214078673,0.071763905,-0.026549078,0.6676808883298979,0.0602967700770455,-0.0009679699969511,0.7420010740634808,4.865,1.0,0.079977703,0.046536311,0.975208664,-0.732291515,-0.05149214,0.67740163,0.7312820394204066,0.0597578744858644,-0.0258888142346053,0.6789590153724955,4.866,2.0,0.126942717,0.038191738,0.970814059,-0.764117605,-0.233752058,1.507099376,0.7061610658140317,0.0613788930966808,-0.0688555098794319,0.7020171645835026,4.866,3.0,0.133992174,0.041608709,0.969902991,0.372466634,0.133974991,-0.369830915,0.5702718840933853,0.0860107122605123,-0.0240237928704636,0.8165874068127287,4.866,4.0,0.107086445,-0.090048931,0.970542469,0.336724977,0.301113964,-0.310896267,0.5398101325619568,-0.0119317532644151,-0.0772199228908211,0.8381525741511598,4.963,5.0,-0.096130899,0.302229019,0.925861475,-1.000322344,-0.948202838,0.594496135,0.4248040103931864,0.0483349683607894,-0.1535693196568975,-0.8908545041966981,4.963,6.0,0.08017324,0.175207427,0.960617827,-2.240259743,-0.834006456,-2.169185493,0.8739632598803301,0.0068856998433241,0.0220769287347808,0.4854414658170992,4.963,7.0,0.018994173,0.209788138,0.957344848,2.903409208,1.634913782,-0.297955149,0.6819403038268714,0.1096205938762252,0.1150971791601956,0.7139281383753576,4.963,8.0,0.488691886,-0.767436714,0.363166808,-2.04735627,-1.443462886,-0.56736076,0.6076800082110679,-0.5607355365372367,-0.5561337853337264,0.0837608410611683
74,74,4.999,0.0,0.059840246,0.073294317,0.97528872,-0.035124772,0.095925359,-0.209924676,0.6756726987755931,0.0543087230584834,0.0023838006167724,0.7351947253780342,4.938,1.0,0.106593315,0.023073285,0.974161942,-0.146465046,-0.689618,0.082406322,0.7279958275618913,0.0763281213747233,-0.0568767412068229,0.6789411824669163,4.938,2.0,0.134759289,-0.00550939,0.971149618,-0.406191216,-1.129080811,1.106883476,0.6649478209190581,0.0822240609111976,-0.1235145443213926,0.732002565981395,4.938,3.0,0.095321776,0.053052011,0.973166606,-0.024788369,0.688886593,-0.73229523,0.6016074829631602,0.0549894024893668,-0.0003769475448038,0.7968967687016567,4.938,4.0,0.08186949,-0.059090143,0.974976277,0.508636837,0.413610588,-0.29174497,0.5544206715867629,-0.0109263273150292,-0.0417210785902089,0.8311183344686588,4.979,5.0,-0.016812007,0.25129271,0.947098374,-0.358432388,-0.652364793,1.861685767,0.5049498008399645,-0.002821479224946,-0.1500091302525137,-0.8500088227351218,4.979,6.0,0.131061672,0.070832025,0.968437227,-0.634477464,-0.605845552,2.849504678,0.8019835447801208,0.0047470775506274,-0.0240026460562988,0.596844814117486,4.979,7.0,-0.057983033,0.365389219,0.907386735,1.370566737,0.934437439,2.122682863,0.5950116512189768,0.1292998479881026,0.1826290244302546,0.7719386786912377,4.979,8.0,0.441846487,-0.762375231,0.429836816,3.603042845,1.3024507,1.461233751,0.7558202627382875,-0.4488382251755106,-0.4352237098101231,0.1945772352425573
75,75,5.043,0.0,0.059311621,0.068471633,0.97596863,-0.087609453,-0.002086267,-0.102423032,0.6797210249372632,0.0505600333595286,-0.0003597709078465,0.7317259608964367,5.043,1.0,0.104699028,-0.016904966,0.973773247,-0.307965549,0.029503568,-0.439839998,0.7443496247066048,0.0604789423776287,-0.0636480464981186,0.6619930965689852,5.043,2.0,0.123674248,-0.032636371,0.971648366,-0.302145965,-0.120720936,-0.981681397,0.7022276412496488,0.0775546130667865,-0.1279118360970655,0.6960604744153291,5.044,3.0,0.012566387,0.06963872,0.977459224,0.118324216,0.556113872,-0.163015919,0.6080780186731712,0.0336021640326135,0.0240219402309201,0.7928019703345709,5.044,4.0,0.040160172,0.006012603,0.978971914,0.459918364,0.261883513,-0.044715478,0.557340746746811,-0.0059268087545548,-0.0120474584211538,0.8301752969700343,5.053,5.0,0.064369347,0.209093479,0.955023824,-0.86954567,-0.861138445,1.695939316,0.5718011183561924,-0.0743860256764558,-0.1273546121738814,-0.8070260237369732,5.053,6.0,0.170115628,-0.080893938,0.961294359,-2.34095265,-0.695679046,2.101027251,0.7376955608332622,-0.061799776634617,-0.1195229797196421,0.661589226373698,5.053,7.0,-0.015619354,0.456972855,0.866622089,1.39192488,0.345937646,2.535277727,0.4875648087442776,0.1747387116082422,0.2252972184040472,0.8252200332753965,5.054,8.0,0.260160609,-0.647555054,0.688254248,3.763288228,1.861965355,3.417794327,0.8375590397498914,-0.3536011631686421,-0.2308039833852654,0.3466851505220801
76,76,5.105,0.0,0.056494033,0.063368704,0.975822644,-0.124357594,0.040891315,0.104028417,0.6762730981896142,0.0441205613613333,-0.0033168946190089,0.7353210665690653,5.105,1.0,0.106643939,-0.022023586,0.973642661,-0.025932285,-0.064342544,0.081570517,0.7416675806256108,0.0581361614799117,-0.0655963681166178,0.6650161675231994,5.105,2.0,0.112327926,-0.038109451,0.97316705,-0.033292992,0.131435678,-0.013991764,0.7045747158977141,0.0668588986750203,-0.1171058429842414,0.6966997767507673,5.105,3.0,-0.017291122,0.068795439,0.976554763,-0.094380886,0.349941939,0.151100471,0.6019497765880946,0.015156989751275,0.0316083088009916,0.7977641549618307,5.105,4.0,0.036024966,0.040437504,0.978062887,0.670313366,-0.139676008,1.008681476,0.516068876722251,0.0196886387579886,0.0131557326960351,0.8562197140218871,5.129,5.0,0.135739836,0.089332853,0.966410026,-1.628283113,-0.667932637,1.203383397,0.6113691059345459,-0.1546222781386666,-0.0676781559544005,-0.7731361035539698,5.129,6.0,0.183463025,-0.118323757,0.954902512,-0.251040417,-0.272970432,0.052430307,0.7345737523097743,-0.0545194354539882,-0.1368593623843315,0.6623432256036677,5.13,7.0,0.000888081,0.510295476,0.835683396,0.092461575,0.786281567,0.080623409,0.4758216975472503,0.1420541392453918,0.2478887150880811,0.8318446481155505,5.13,8.0,-0.090278769,-0.028813727,0.974361592,5.109612654,3.504499131,-0.212917803,0.9479535434833616,-0.1233830344780756,0.0501459828381631,0.2892163318443745
77,77,5.198,0.0,0.055999851,0.054804702,0.976465801,-0.103705925,0.005030609,0.288248936,0.6659381550672329,0.0400232106236274,-0.0070905415594265,0.7448988122271514,5.199,1.0,0.109736868,-0.02786814,0.97311828,-0.070545605,-0.026688239,0.449845435,0.7269358448900864,0.051885133309731,-0.0686924144723465,0.6812881641048278,5.199,2.0,0.11954268,-0.045421015,0.970430564,-0.062765104,-0.161689123,0.790485898,0.6769295586739992,0.0617032276755236,-0.1217141504024363,0.7232874600597334,5.199,3.0,-0.027223504,0.065906195,0.976546596,-0.089750031,0.129973866,0.468457767,0.5831961431850801,0.0075012196487502,0.031996924237267,0.8116663028099561,5.2,4.0,0.050582233,0.065746524,0.975932289,0.304772498,-0.125335581,0.866459846,0.4789931522352386,0.0348723624491633,0.0219927686477395,0.8768499281953387,5.218,5.0,0.174494284,0.01004547,0.9642644,-1.088738791,-0.606697438,1.068098583,0.6428667391604787,-0.207937548987083,-0.0329882115740955,-0.7364754641531245,5.218,6.0,0.196104782,-0.142507244,0.948318828,-0.588243327,-0.193060456,0.565697357,0.7139165772902869,-0.0664856906085437,-0.160081154059968,0.6784370256178943,5.218,7.0,0.036190909,0.436357299,0.877190701,-1.076597381,-1.305171402,4.665911474,0.3113183182918589,0.2415776904365113,0.1243021784193542,0.9106426810881932,5.218,8.0,-0.196722767,0.500063171,0.819429666,1.039886468,1.274583382,4.066454223,0.8785290707647488,-0.0549045393141392,0.143333151614933,0.4523580120126751
78,78,5.253,0.0,0.056500774,0.047045811,0.977710261,-0.094341775,0.117272929,0.472517385,0.6486199659329368,0.0321725515309809,-0.0069953885749833,0.7603999811019377,5.253,1.0,0.110346717,-0.03683201,0.973644702,-0.104643375,-0.015709583,0.269484052,0.7180720118921172,0.0450486878232163,-0.0719834733382727,0.6907688332783781,5.253,2.0,0.119749127,-0.057139706,0.971224073,-0.177181545,0.06694725,0.113413039,0.6743680184472218,0.048946489179992,-0.1203444489334537,0.7268763515918122,5.253,3.0,-0.032492979,0.057368883,0.977135619,-0.136388259,0.053552887,0.322898192,0.5700960877598407,0.0015707888099007,0.0281076574712862,0.8210955747870742,5.253,4.0,0.056240476,0.075676465,0.975315375,0.015690698,0.080263641,0.329942211,0.4644132900703028,0.0329664789906432,0.0238325594197369,0.884683851090626,5.308,5.0,0.206783582,-0.077266911,0.954068852,-0.671612003,-0.215438906,1.480055326,0.690897001365651,-0.2311318293993429,0.0010797003777454,-0.6850096679533502,5.309,6.0,0.200558689,-0.271627364,0.919593273,-2.004077079,-0.66011261,2.273299888,0.62716365083646,-0.1219669594733316,-0.2365835201074918,0.7319959384312604,5.309,7.0,0.108285431,0.43507038,0.87096787,-0.464548134,-0.094614499,0.008419504,0.3206963746380455,0.2281083722130997,0.1085631838165762,0.9128715358361836,5.309,8.0,-0.176341482,0.464724757,0.843632966,-1.554319154,0.140644858,0.449471914,0.8607153527804461,-0.1004829599601541,0.1228190860028911,0.4837227804839181
79,79,5.298,0.0,0.044097542,0.040794259,0.97667202,-0.043991654,0.298969311,0.548789211,0.6280132273860556,0.0190748009609727,0.0010041050324047,0.7779682062716533,5.298,1.0,0.111073318,-0.040837223,0.972988715,0.013956354,-0.016309044,0.184211709,0.7117208139337973,0.0433805210839009,-0.0708385235868239,0.6975338823167957,5.299,2.0,0.120212324,-0.063240935,0.970475441,-0.03890885,0.075076631,0.084220273,0.6723619403743134,0.0418282391904721,-0.1139721008753748,0.7301987262138755,5.299,3.0,-0.030151016,0.046198222,0.978788353,-0.270593841,-0.083997157,0.140014937,0.5645134992517897,-0.0024975325153769,0.0146482946095313,0.8252900695869705,5.299,4.0,0.041627239,0.051560782,0.976689131,-0.557247529,0.226490038,-0.033833508,0.4666735807923124,0.0097204708700914,0.0034468219565305,0.8843694933990797,5.355,5.0,0.183759576,-0.111721853,0.955727809,-0.261347702,0.515056371,0.717299808,0.7139395198243761,-0.2104285589982308,0.0334712281209722,-0.6670006450363756,5.355,6.0,0.194449332,-0.458148449,0.844482952,-3.281637914,-0.698249685,1.613471078,0.5446039425465485,-0.2018324727913149,-0.3631599986986597,0.7285499392868605,5.355,7.0,0.116139506,0.4098769,0.882483168,-0.605520888,0.10555526,-0.347155335,0.3461099947011035,0.2019124694314221,0.0934748495915796,0.9114283728027884,5.355,8.0,-0.16673209,0.334537016,0.906001322,-2.155499742,-0.250705938,-0.857326542,0.8698037850603167,-0.173211175926778,0.0568147784731488,0.4584881077801864
80,80,5.373,0.0,0.022970497,0.040851072,0.978298291,-0.006854093,0.330666774,0.671580321,0.6019900147085605,0.0063355197232916,0.0112567170926715,0.7983991293214932,5.373,1.0,0.096641852,-0.039718488,0.974563899,0.063309983,0.401948999,0.224973464,0.7052888370970166,0.0284739672960451,-0.0526597470429304,0.7063878824655305,5.374,2.0,0.112589206,-0.059763353,0.972147115,0.153025342,0.097170676,0.144142228,0.6677945308926934,0.0405490701257461,-0.1002301913036637,0.736451048049343,5.374,3.0,-0.018443895,0.03260023,0.979807148,-0.230192909,-0.185038547,0.321747573,0.5513832081110052,-0.0005680084457805,0.0004976038367289,0.8342517531117589,5.374,4.0,0.023527391,-0.000154279,0.97840607,-1.233292072,0.518110499,-0.688595503,0.4983723410987578,-0.0439962908571985,-0.040696839965025,0.8648890699016917,5.428,5.0,0.111167427,-0.037515002,0.973468247,3.901334316,1.700805307,0.140706528,0.7569529596741708,0.0104334134319556,-0.0374734439557442,-0.6523105868547334,5.429,6.0,0.29535616,-0.692046137,0.628206083,-5.141615823,-2.9321883,-0.885582692,0.477590893612913,-0.1940505244260419,-0.6359302559436347,0.5743205044950602,5.429,7.0,0.084553227,0.388425507,0.895565395,-0.36543342,0.245097364,-1.467660126,0.4191348381955034,0.16866300072656,0.1028568946866635,0.886171111474617,5.429,8.0,-0.154557589,0.246039397,0.936348528,-2.280356196,-0.770368277,-1.842372574,0.8908703964274887,-0.2377708769111116,-0.044118005847995,0.384536797227582
81,81,5.433,0.0,0.007584203,0.03188029,0.979185441,-0.096007249,0.306895135,0.609745557,0.5775998836408367,-0.0076994810970992,0.0164778487884743,0.8161173769184379,5.434,1.0,0.061898248,-0.0330764,0.977844854,0.05764507,0.598419091,0.472087553,0.6901973292749721,0.006282457525515,-0.0283211799680834,0.7230394789735559,5.434,2.0,0.105444542,-0.047517827,0.972117536,0.127647745,0.177625011,0.077271921,0.6659574042647092,0.0361823399886158,-0.0851843857694738,0.7402264480542671,5.434,3.0,0.007613686,0.017436477,0.979556022,-0.274015063,-0.53920941,0.638973914,0.5249517870466681,0.0156050342209298,-0.0250974010997217,0.8506187304788867,5.434,4.0,0.006213093,-0.073965219,0.976936305,-0.884305895,-0.163675373,-0.018338412,0.4972684276461555,-0.0561036633654614,-0.0824573563670024,0.8618452727747947,5.533,5.0,-0.051173155,0.165685971,0.96475617,2.320681203,2.41565001,-1.673390956,0.704343211888095,0.1807270231129605,-0.0127806570777327,-0.6863490640982554,5.533,6.0,0.219835413,-0.812660921,0.500947721,-0.754369259,0.216390372,2.115339686,0.4237487382913373,-0.2851523157396451,-0.609322154989305,0.6065077699947519,5.533,7.0,0.051957036,0.367308307,0.9066808,-0.884154294,0.290736849,2.13662326,0.333246933116762,0.1465041855738212,0.0580782694955847,0.9295751286421244,5.533,8.0,-0.143417306,0.107686688,0.96331929,-2.34901854,-0.254142995,-1.633600352,0.8933771967297552,-0.3090682749554229,-0.1124781813225319,0.3061088768816399
