Timestamp,Ax,Ay,Az,Rx,Ry,Rz,EMG
0,0.1694,-1.1707,-0.6047,1.9897,-0.643,-0.5481,2046
0,0.1973,-1.1594,-0.5889,2.1126,-0.6388,-0.6082,2042
0,0.228,-1.1482,-0.5588,2.1766,-0.6617,-0.642,2045
0,0.2231,-1.165,-0.5266,2.2096,-0.6432,-0.6727,2043
0,0.2336,-1.1411,-0.4995,2.278,-0.6159,-0.6652,2045
0,0.2471,-1.1528,-0.4534,2.3242,-0.5865,-0.6513,2041
0,0.2327,-1.1921,-0.4375,2.3272,-0.5829,-0.645,2047
0,0.2354,-1.1921,-0.4392,2.3031,-0.5753,-0.6955,2033
0,0.2625,-1.1931,-0.4075,2.2615,-0.5497,-0.7011,2044
0,0.2852,-1.1875,-0.3923,2.2483,-0.4361,-0.7094,2048
0,0.3069,-1.1907,-0.3823,2.2286,-0.2697,-0.6861,2046
0,0.3354,-1.1567,-0.3503,2.2096,-0.1017,-0.6448,2044
0,0.3337,-1.1719,-0.334,2.1947,0.0714,-0.5613,2042
0,0.2959,-1.1577,-0.3269,2.1663,0.2326,-0.5271,2044
0,0.303,-1.1489,-0.3237,2.1346,0.3236,-0.5199,2044
0,0.303,-1.166,-0.333,2.1088,0.3773,-0.5027,2051
0,0.3335,-1.1846,-0.3411,2.0655,0.4145,-0.5263,2045
0,0.3457,-1.1699,-0.3687,2.0592,0.4631,-0.5691,2042
0,0.3496,-1.158,-0.3794,2.0458,0.4782,-0.5364,2043
0,0.3115,-1.1179,-0.3845,1.9985,0.5096,-0.54,2045
0,0.2859,-1.0735,-0.3921,1.9807,0.5406,-0.4922,2045
0,0.2708,-1.075,-0.3608,1.9114,0.5609,-0.4372,2045
0,0.2358,-1.0698,-0.3359,1.7917,0.6064,-0.4075,2048
0,0.219,-1.0803,-0.2959,1.7161,0.6422,-0.3478,2046
0,0.1885,-1.0767,-0.2585,1.615,0.7303,-0.3153,2040
0,0.1697,-1.0432,-0.2329,1.4707,0.8356,-0.2432,2046
0,0.1609,-1.0349,-0.1838,1.3364,0.9276,-0.1583,2046
0,0.1404,-1.0613,-0.1799,1.2286,1.04,-0.0726,2045
0,0.1165,-1.1067,-0.1765,1.152,1.1664,0.018,2040
0,0.0671,-1.1252,-0.166,1.065,1.2881,0.0989,2053
0,0.0183,-1.1394,-0.1523,0.9075,1.3696,0.1523,2047
0,-0.0186,-1.1284,-0.1221,0.7618,1.4354,0.2012,2047
0,-0.0415,-1.1108,-0.0969,0.5986,1.5095,0.2693,2044
0,-0.0635,-1.1216,-0.0396,0.3856,1.5033,0.2669,2045
0,-0.0906,-1.1641,0.0579,0.129,1.394,0.2578,2045
0,-0.1157,-1.1702,0.1895,-0.2069,1.2854,0.2021,2046
0,-0.1438,-1.1172,0.303,-0.554,1.1938,0.2497,2046
0,-0.1978,-1.0452,0.3977,-0.9103,1.1319,0.2104,2045
0,-0.1775,-1.002,0.481,-1.3029,0.8938,0.2079,2051
0,-0.1414,-0.978,0.5361,-1.7004,0.5645,0.2707,2046
0,-0.1287,-0.9561,0.5286,-1.9931,0.1883,0.3566,2045
0,-0.1042,-0.937,0.4758,-2.1097,-0.1434,0.4864,2043
0,-0.0989,-0.9495,0.4111,-2.077,-0.4211,0.6449,2036
0,-0.0955,-0.9612,0.3252,-1.9228,-0.5584,0.7665,2041
0,-0.1152,-0.9558,0.2256,-1.6515,-0.6297,0.7869,2043
0,-0.1709,-0.9695,0.1604,-1.3956,-0.6004,0.8171,2045
0,-0.2041,-1.0447,0.1648,-1.197,-0.4376,0.8015,2044
0,-0.1768,-1.1582,0.2139,-1.1031,-0.2017,0.7259,2044
0,-0.1294,-1.2319,0.2891,-1.1685,0.0077,0.6456,2047
0,-0.0627,-1.2693,0.386,-1.3584,0.1294,0.5794,2042
0,-0.0027,-1.2202,0.448,-1.5652,0.23,0.5239,2046
0,0.0051,-1.0916,0.4851,-1.6303,0.2974,0.4145,2043
0,0.0173,-0.9092,0.4695,-1.4776,0.3163,0.2938,2061
0,0.0188,-0.7795,0.4863,-1.1782,0.3089,0.202,2046
0,0.04,-0.7212,0.4937,-0.7412,0.2581,0.0834,2045
0,0.0779,-0.7036,0.5073,-0.2092,0.2017,-0.0376,2049
0,0.1262,-0.7542,0.5273,0.1627,0.1095,-0.0983,2047
0,0.1416,-0.7837,0.488,0.3867,0.0182,-0.1605,2042
0,0.1724,-0.8464,0.4309,0.4899,0.0878,-0.0972,2041
0,0.1179,-0.9006,0.3074,0.6682,0.3116,-0.0675,2042
0,0.064,-0.9478,0.2458,0.8863,0.6383,-0.085,2038
0,0.0142,-0.9929,0.2285,1.0416,0.9075,-0.149,2046
0,0.0232,-0.97,0.2043,1.1613,1.0937,-0.1996,2045
0,0.0396,-0.9209,0.1829,1.2379,1.1955,-0.285,2044
0,0.0452,-0.8743,0.1624,1.2967,1.2011,-0.3405,2047
0,0.0283,-0.821,0.1326,1.3781,1.1479,-0.3962,2045
0,-0.0154,-0.7844,0.095,1.4633,1.1167,-0.4072,2044
0,-0.0549,-0.7629,0.0505,1.5297,1.1026,-0.4057,2048
0,-0.0745,-0.8022,0.0195,1.554,1.121,-0.3892,2043
0,-0.1035,-0.8501,-0.0256,1.5475,1.1401,-0.3446,2046
0,-0.1348,-0.8845,-0.0549,1.5099,1.156,-0.2923,2044
0,-0.1689,-0.8691,-0.0703,1.4522,1.2316,-0.249,2046
0,-0.2073,-0.8499,-0.0803,1.3953,1.3581,-0.1906,2041
0,-0.2334,-0.8154,-0.0852,1.3408,1.4537,-0.139,2041
0,-0.2571,-0.7896,-0.0779,1.2604,1.5059,-0.0915,2043
0,-0.2783,-0.7744,-0.0864,1.1694,1.5041,-0.0477,2064
0,-0.3025,-0.7742,-0.105,1.0688,1.5197,0.0025,2045
0,-0.3113,-0.7986,-0.1169,0.9835,1.5512,0.0748,2046
0,-0.3179,-0.8352,-0.1387,0.8978,1.6054,0.1562,2045
0,-0.3357,-0.8591,-0.1572,0.7986,1.6908,0.2143,2042
0,-0.3198,-0.8765,-0.1597,0.6842,1.7318,0.2593,2044
0,-0.3184,-0.8792,-0.1687,0.5477,1.701,0.2963,2045
0,-0.3279,-0.8809,-0.1699,0.4449,1.6439,0.3136,2044
0,-0.3281,-0.8794,-0.178,0.3735,1.549,0.3083,2039
0,-0.3455,-0.8933,-0.1802,0.3267,1.4283,0.3123,2046
0,-0.3586,-0.9263,-0.2043,0.2919,1.3209,0.2758,2037
0,-0.3906,-0.9807,-0.2129,0.2517,1.2395,0.2452,2043
0,-0.4138,-1.0383,-0.2134,0.1511,1.1979,0.2285,2039
0,-0.4414,-1.0503,-0.1785,-0.0019,1.211,0.2345,2043
0,-0.4336,-1.0261,-0.1362,-0.2145,1.2126,0.2296,2044
0,-0.4355,-0.989,-0.1018,-0.4043,1.1575,0.2123,2045
0,-0.4509,-0.9683,-0.1116,-0.5694,1.0501,0.1878,2051
0,-0.4709,-0.9399,-0.1152,-0.7018,0.9172,0.143,2045
0,-0.4805,-0.9429,-0.1506,-0.8086,0.7805,0.0824,2049
0,-0.5129,-0.9771,-0.1973,-0.8646,0.6705,0.0374,2044
0,-0.533,-1.0808,-0.2515,-0.862,0.6181,0.0154,2044
0,-0.5273,-1.2009,-0.3091,-0.8327,0.6102,0.0193,2041
0,-0.4941,-1.3267,-0.3303,-0.8351,0.5721,0.041,2041
0,-0.4634,-1.4519,-0.3474,-0.8666,0.4765,0.0775,2056
0,-0.4404,-1.5459,-0.3584,-0.891,0.3617,0.1606,2045
0,-0.4307,-1.6567,-0.3081,-0.9408,0.2799,0.2738,2041
0,-0.4006,-1.7559,-0.2087,-1.0634,0.2767,0.3878,2048
1,-0.3354,-1.8108,-0.0918,-1.2372,0.2302,0.4846,2044
1,-0.3123,-1.9248,0.0535,-1.4856,0.1517,0.6335,2041
1,-0.3188,-2.0,0.1191,-1.8221,-0.0197,0.6976,2038
1,-0.3262,-2.0,0.0664,-1.9437,-0.2497,0.6877,2044
1,-0.3228,-2.0,-0.051,-1.9309,-0.5761,0.6103,2045
1,-0.3193,-2.0,-0.1428,-1.8875,-0.9226,0.4991,2046
1,-0.3213,-2.0,-0.1252,-1.9808,-1.1451,0.3791,2051
1,-0.3298,-2.0,-0.0564,-2.1052,-1.2517,0.3727,2047
1,-0.3496,-1.9324,0.054,-2.2795,-1.2581,0.4255,2046
1,-0.3845,-1.8018,0.1282,-2.5237,-1.315,0.4597,2043
1,-0.3989,-1.6614,0.176,-2.7769,-1.4133,0.5425,2044
1,-0.4133,-1.4673,0.1594,-2.9793,-1.4785,0.5979,2042
1,-0.4082,-1.2961,0.1233,-3.0678,-1.5374,0.6347,2044
1,-0.3652,-1.1558,0.075,-3.1268,-1.6795,0.7248,2046
1,-0.3052,-1.0444,0.0503,-3.2264,-1.7924,0.7954,2054
1,-0.2776,-0.9497,0.0396,-3.313,-1.8801,0.8455,2049
1,-0.2759,-0.8901,0.0144,-3.3857,-1.9303,0.9483,2050
1,-0.2104,-0.8633,-0.0081,-3.3982,-2.0182,1.0419,2048
1,-0.1841,-0.8567,-0.0244,-3.4039,-2.0431,1.1531,2044
1,-0.1829,-0.7939,-0.0352,-3.4063,-2.024,1.3023,2049
1,-0.1663,-0.728,-0.0613,-3.4198,-1.9979,1.4109,2047
1,-0.1758,-0.6772,-0.0989,-3.4252,-1.9161,1.5374,2041
1,-0.1614,-0.6123,-0.1489,-3.4483,-1.8415,1.6836,2042
1,-0.1658,-0.5237,-0.186,-3.4154,-1.7237,1.7271,2047
1,-0.1719,-0.5305,-0.2476,-3.2977,-1.6298,1.7773,2048
1,-0.1729,-0.5874,-0.2949,-3.1546,-1.5286,1.8682,2042
1,-0.208,-0.6404,-0.3516,-3.0198,-1.3515,1.9177,2038
1,-0.1946,-0.644,-0.4189,-2.8311,-1.1331,1.9664,2044
1,-0.1948,-0.6792,-0.4404,-2.5958,-0.8811,2.0501,2041
1,-0.2207,-0.7332,-0.509,-2.3284,-0.6634,2.0788,2042
1,-0.2349,-0.7839,-0.5608,-2.0762,-0.4757,2.1117,2044
1,-0.2825,-0.8435,-0.6179,-1.7776,-0.3252,2.0892,2042
1,-0.3191,-0.9451,-0.6714,-1.4434,-0.2139,2.0659,2044
1,-0.3589,-1.0378,-0.699,-1.1131,-0.1153,1.949,2041
1,-0.3994,-1.1199,-0.7078,-0.7894,-0.0156,1.7981,2043
1,-0.4485,-1.1992,-0.6763,-0.5095,0.1324,1.6345,2044
1,-0.4888,-1.2627,-0.6606,-0.2237,0.3376,1.4691,2047
1,-0.5562,-1.3411,-0.5945,0.025,0.5217,1.2639,2045
1,-0.5916,-1.3975,-0.5513,0.2606,0.6956,1.007,2045
1,-0.5889,-1.4407,-0.5112,0.5268,0.8829,0.7296,2046
1,-0.5801,-1.4695,-0.5017,0.828,1.025,0.383,2041
1,-0.561,-1.4365,-0.4744,1.0778,1.0467,0.0065,2042
1,-0.582,-1.3621,-0.4443,1.2576,0.9222,-0.4168,2047
1,-0.6013,-1.3176,-0.3914,1.4434,0.7447,-0.8259,2044
1,-0.5869,-1.3262,-0.3484,1.6183,0.5541,-1.1327,2044
1,-0.553,-1.3721,-0.3044,1.7407,0.4153,-1.3316,2046
1,-0.481,-1.4348,-0.2957,1.8578,0.3629,-1.3816,2044
1,-0.4048,-1.4978,-0.2939,1.9965,0.336,-1.342,2045
1,-0.3469,-1.5364,-0.3025,2.1748,0.3123,-1.2683,2042
1,-0.3159,-1.5359,-0.3374,2.3675,0.3047,-1.2588,2041
1,-0.334,-1.5142,-0.384,2.5276,0.2665,-1.3187,2038
1,-0.3552,-1.4531,-0.4033,2.6324,0.1582,-1.4294,2043
1,-0.3772,-1.3337,-0.4163,2.739,0.0625,-1.5845,2042
1,-0.3772,-1.2212,-0.4001,2.8002,0.0503,-1.6552,2047
1,-0.344,-1.1104,-0.3767,2.899,0.1349,-1.7054,2044
1,-0.3315,-1.0725,-0.3574,2.9621,0.2537,-1.6813,2049
1,-0.3513,-0.9949,-0.3589,3.0058,0.4057,-1.7048,2044
1,-0.3562,-0.9321,-0.3904,3.0902,0.5016,-1.7046,2045
1,-0.3533,-0.8884,-0.3916,3.1685,0.5983,-1.6922,2043
1,-0.345,-0.8452,-0.3914,3.2501,0.6948,-1.6356,2048
1,-0.3413,-0.7983,-0.3757,3.3324,0.8231,-1.5724,2046
1,-0.3137,-0.7393,-0.363,3.3721,0.9618,-1.4802,2044
1,-0.2766,-0.6909,-0.3464,3.3889,1.0622,-1.4019,2045
1,-0.2666,-0.6619,-0.335,3.427,1.0933,-1.3308,2050
1,-0.2559,-0.6809,-0.3333,3.4902,1.0427,-1.2426,2050
1,-0.2856,-0.6782,-0.3516,3.5431,0.9159,-1.2473,2046
1,-0.3347,-0.6946,-0.3608,3.5525,0.8292,-1.2925,2047
1,-0.3535,-0.7083,-0.3711,3.5367,0.787,-1.3475,2046
1,-0.3328,-0.7354,-0.3545,3.5118,0.7419,-1.3386,2052
1,-0.2854,-0.7827,-0.3416,3.4009,0.6897,-1.3055,2046
1,-0.2502,-0.8057,-0.3406,3.2821,0.6421,-1.309,2044
1,-0.269,-0.8057,-0.3232,3.1676,0.6038,-1.2555,2043
1,-0.2751,-0.8196,-0.3142,3.0365,0.5156,-1.232,2046
1,-0.2896,-0.8811,-0.2737,2.924,0.3524,-1.1649,2043
1,-0.3105,-0.9414,-0.2561,2.7825,0.2396,-1.1079,2043
1,-0.3342,-1.0361,-0.2207,2.62,0.1798,-0.9752,2043
1,-0.3433,-1.0942,-0.1985,2.4244,0.183,-0.838,2041
1,-0.3594,-1.1172,-0.1565,2.2052,0.1802,-0.8345,2041
1,-0.3855,-1.2192,-0.1243,1.9765,0.238,-0.6477,2041
1,-0.4336,-1.228,-0.1321,1.7868,0.3243,-0.5843,2042
1,-0.45,-1.3274,-0.1245,1.5676,0.4552,-0.4829,2045
1,-0.4414,-1.374,-0.1121,1.3214,0.5446,-0.4639,2043
1,-0.428,-1.417,-0.1218,1.0985,0.5971,-0.4293,2041
1,-0.4324,-1.4739,-0.1289,0.8879,0.5984,-0.4332,2039
1,-0.4189,-1.4907,-0.1575,0.7108,0.5631,-0.4169,2048
1,-0.3926,-1.5085,-0.1831,0.5144,0.4983,-0.3966,2046
1,-0.3916,-1.4771,-0.168,0.265,0.4328,-0.369,2057
1,-0.4055,-1.4844,-0.1736,-0.0073,0.3839,-0.2745,2043
1,-0.4226,-1.457,-0.1692,-0.2682,0.3125,-0.2071,2055
1,-0.3887,-1.5051,-0.1543,-0.5512,0.2406,-0.102,2046
1,-0.2947,-1.489,-0.1729,-0.8525,0.0569,0.0141,2043
1,-0.2065,-1.384,-0.1633,-1.0682,-0.1808,0.1161,2041
1,-0.1777,-1.2556,-0.1624,-1.2732,-0.4811,0.2349,2045
1,-0.1333,-1.2556,-0.1001,-1.4896,-0.7488,0.4128,2039
1,-0.1333,-1.3467,-0.0415,-1.7881,-0.9971,0.6036,2039
1,-0.1533,-1.4341,0.0056,-2.1257,-1.1804,0.767,2040
1,-0.1799,-1.5217,-0.0198,-2.424,-1.3434,0.8782,2032
1,-0.1868,-1.6282,-0.0935,-2.6192,-1.5344,0.959,2039
1,-0.1951,-1.7285,-0.1716,-2.7092,-1.748,1.0192,2043
1,-0.196,-1.8103,-0.2656,-2.7153,-1.971,1.0614,2044
1,-0.1902,-1.824,-0.3025,-2.7356,-2.2471,1.0983,2043
2,-0.2,-1.8088,-0.2854,-2.8111,-2.489,1.1652,2042
2,-0.2222,-1.7654,-0.2642,-2.9103,-2.6512,1.2704,2047
2,-0.2654,-1.7061,-0.2312,-3.0087,-2.7056,1.3896,2049
2,-0.3064,-1.6343,-0.1792,-3.1094,-2.7143,1.5067,2044
2,-0.344,-1.5469,-0.1277,-3.222,-2.6433,1.6117,2050
2,-0.3835,-1.4561,-0.0913,-3.3511,-2.5285,1.7017,2047
2,-0.4004,-1.342,-0.0789,-3.4801,-2.3384,1.7781,2052
2,-0.3657,-1.2224,-0.0537,-3.6126,-2.1988,1.8554,2052
2,-0.3169,-1.1138,-0.0459,-3.6785,-2.0828,1.9065,2066
2,-0.2817,-1.0171,-0.0361,-3.6992,-1.9869,1.9655,2049
2,-0.2373,-0.9448,-0.0349,-3.7478,-1.9787,1.9899,2044
2,-0.207,-0.8735,-0.054,-3.8121,-2.01,2.061,2047
2,-0.1492,-0.8245,-0.0808,-3.8111,-2.1337,2.1342,2041
2,-0.136,-0.7751,-0.1267,-3.7768,-2.2148,2.143,2042
2,-0.1294,-0.7693,-0.1433,-3.7214,-2.3193,2.1828,2041
2,-0.1172,-0.7671,-0.1814,-3.6607,-2.3543,2.278,2042
2,-0.1169,-0.7542,-0.2141,-3.6113,-2.4013,2.3313,2042
2,-0.1382,-0.7273,-0.2673,-3.5102,-2.435,2.323,2047
2,-0.1943,-0.7446,-0.3135,-3.3705,-2.3613,2.3401,2043
2,-0.2322,-0.7837,-0.3523,-3.2501,-2.2383,2.3775,2048
2,-0.2537,-0.8467,-0.4065,-3.1339,-2.1003,2.4547,2043
2,-0.2634,-0.908,-0.478,-2.9813,-1.908,2.4988,2048
2,-0.2571,-0.9705,-0.5339,-2.7761,-1.7599,2.5512,2046
2,-0.2739,-1.0239,-0.5566,-2.5884,-1.5962,2.5268,2042
2,-0.3003,-1.0535,-0.5698,-2.4027,-1.4213,2.5013,2044
2,-0.3093,-1.0842,-0.584,-2.1683,-1.1957,2.4304,2044
2,-0.356,-1.1409,-0.5996,-1.8787,-0.9636,2.3654,2044
2,-0.386,-1.2002,-0.6052,-1.6134,-0.7813,2.2474,2044
2,-0.3816,-1.2197,-0.6035,-1.4242,-0.6123,2.1141,2045
2,-0.4048,-1.217,-0.5886,-1.2122,-0.4854,1.9636,2055
2,-0.4055,-1.2476,-0.5913,-0.9983,-0.3555,1.794,2045
2,-0.4543,-1.272,-0.5859,-0.7641,-0.24,1.5862,2054
2,-0.4973,-1.2781,-0.5864,-0.5329,-0.1531,1.2962,2037
2,-0.5476,-1.2788,-0.5806,-0.3247,-0.0088,0.9927,2041
2,-0.5857,-1.2632,-0.5737,-0.1131,0.1447,0.7227,2048
2,-0.6067,-1.2437,-0.5696,0.106,0.3055,0.4757,2045
2,-0.6265,-1.21,-0.5513,0.3105,0.4322,0.2258,2047
2,-0.624,-1.1494,-0.5342,0.5063,0.5275,-0.0225,2046
2,-0.6052,-1.1001,-0.5408,0.6822,0.5501,-0.2776,2046
2,-0.5962,-1.0715,-0.5549,0.903,0.554,-0.5461,2047
2,-0.584,-1.0422,-0.5662,1.1508,0.5651,-0.8238,2044
2,-0.573,-0.9995,-0.5579,1.3629,0.5904,-1.1085,2044
2,-0.5347,-0.957,-0.4976,1.494,0.6175,-1.3471,2046
2,-0.4788,-0.9355,-0.4224,1.5715,0.6457,-1.5206,2048
2,-0.4417,-0.928,-0.3447,1.6143,0.6644,-1.6676,2046
2,-0.3977,-0.9072,-0.292,1.653,0.6871,-1.7932,2041
2,-0.3596,-0.8992,-0.26,1.7165,0.6934,-1.884,2040
2,-0.3472,-0.9441,-0.2852,1.8245,0.6315,-1.9893,2040
2,-0.3413,-0.9888,-0.3445,2.0168,0.5044,-2.1202,2040
2,-0.3386,-1.0459,-0.4268,2.2249,0.3334,-2.1968,2042
2,-0.375,-1.1035,-0.5327,2.5008,0.1892,-2.298,2040
2,-0.4006,-1.1528,-0.592,2.7915,0.0891,-2.3826,2040
2,-0.4197,-1.1895,-0.6082,3.0588,0.0794,-2.4802,2044
2,-0.4551,-1.2349,-0.5645,3.2377,0.1791,-2.5262,2043
2,-0.5046,-1.24,-0.519,3.3376,0.4036,-2.535,2063
2,-0.4827,-1.2524,-0.4585,3.3804,0.6448,-2.4615,2046
2,-0.502,-1.2261,-0.3904,3.3845,0.8825,-2.4169,2047
2,-0.4568,-1.1531,-0.3096,3.3235,1.1263,-2.3462,2049
2,-0.426,-1.0388,-0.2761,3.2594,1.3347,-2.3136,2047
2,-0.4026,-0.9675,-0.2463,3.2923,1.5233,-2.2577,2045
2,-0.3865,-0.9014,-0.2195,3.3236,1.6486,-2.2297,2045
2,-0.3318,-0.8413,-0.2214,3.4154,1.6603,-2.1585,2050
2,-0.2825,-0.8298,-0.2317,3.5242,1.5804,-2.0821,2045
2,-0.2273,-0.8289,-0.2031,3.6083,1.4731,-2.0005,2046
2,-0.2241,-0.853,-0.186,3.6535,1.3274,-1.8997,2043
2,-0.2144,-0.8772,-0.1697,3.6977,1.1512,-1.8495,2045
2,-0.261,-0.9592,-0.1641,3.672,0.9694,-1.7903,2042
2,-0.3594,-0.9763,-0.1987,3.5886,0.8537,-1.8126,2044
2,-0.4175,-0.9824,-0.218,3.4905,0.8224,-1.8161,2044
2,-0.4067,-1.012,-0.2329,3.379,0.8261,-1.8536,2047
2,-0.3889,-1.0005,-0.2461,3.2375,0.8585,-1.8062,2045
2,-0.3865,-1.0186,-0.2217,3.0479,0.8532,-1.7793,2044
2,-0.3855,-1.0449,-0.2026,2.8662,0.8791,-1.6897,2044
2,-0.3787,-1.0583,-0.1616,2.6777,0.9026,-1.5612,2042
2,-0.4058,-1.0723,-0.1372,2.5005,0.9182,-1.4098,2045
2,-0.3892,-1.0789,-0.1069,2.2931,0.9475,-1.2721,2048
2,-0.3879,-1.0791,-0.0916,2.0919,0.9267,-1.1379,2045
2,-0.3906,-1.136,-0.0942,1.9072,0.8965,-0.9873,2054
2,-0.3911,-1.188,-0.1074,1.7101,0.864,-0.8815,2045
2,-0.3889,-1.22,-0.1472,1.5993,0.8199,-0.81,2039
2,-0.3914,-1.3132,-0.1787,1.4597,0.7347,-0.7127,2043
2,-0.3738,-1.3735,-0.2246,1.3499,0.6142,-0.6783,2048
2,-0.3755,-1.4282,-0.2686,1.2643,0.4923,-0.6426,2040
2,-0.3892,-1.4739,-0.2966,1.1342,0.4018,-0.5787,2042
2,-0.4089,-1.4836,-0.3083,0.9851,0.3646,-0.5376,2044
2,-0.4392,-1.4792,-0.2874,0.8111,0.3683,-0.4954,2044
2,-0.4944,-1.4822,-0.2554,0.537,0.4454,-0.463,2042
2,-0.481,-1.4851,-0.2261,0.2478,0.5896,-0.3374,2042
2,-0.4641,-1.4097,-0.2087,-0.0268,0.7124,-0.2472,2047
2,-0.4243,-1.356,-0.1963,-0.2611,0.7566,-0.1884,2046
2,-0.3792,-1.3081,-0.1853,-0.4398,0.7525,-0.121,2044
2,-0.3245,-1.2483,-0.2043,-0.6022,0.6087,-0.0603,2041
2,-0.2979,-1.2466,-0.2356,-0.7484,0.3802,0.0104,2047
2,-0.2498,-1.2217,-0.282,-0.8604,0.0992,0.081,2050
2,-0.1631,-1.196,-0.303,-1.0144,-0.3153,0.1706,2043
2,-0.1108,-1.1426,-0.3274,-1.1128,-0.72,0.3033,2045
2,-0.103,-1.0964,-0.3223,-1.2214,-1.0858,0.4653,2042
2,-0.0984,-1.1294,-0.3291,-1.332,-1.4162,0.6365,2044
2,-0.1182,-1.2476,-0.2756,-1.4643,-1.719,0.8115,2037
2,-0.1719,-1.3796,-0.2556,-1.6163,-1.9245,0.9469,2044
2,-0.2039,-1.4895,-0.2695,-1.7564,-2.1021,1.0577,2044
2,-0.2024,-1.5999,-0.2905,-1.8848,-2.2079,1.1368,2038
2,-0.1868,-1.686,-0.3284,-1.9217,-2.3357,1.2081,2042
3,-0.1746,-1.7434,-0.3411,-1.9475,-2.4622,1.3054,2043
3,-0.207,-1.8008,-0.3169,-1.8841,-2.542,1.4752,2041
3,-0.2441,-1.8064,-0.2407,-2.022,-2.4759,1.5881,2048
3,-0.3018,-1.7688,-0.134,-2.3384,-2.3136,1.709,2045
3,-0.3047,-1.7039,-0.0818,-2.4918,-2.0727,1.8311,2048
3,-0.3301,-1.6055,-0.0574,-2.6782,-1.8967,1.874,2044
3,-0.3315,-1.5356,-0.0349,-2.8506,-1.7053,1.9303,2047
3,-0.2703,-1.3892,-0.0071,-2.9939,-1.5231,2.0161,2044
3,-0.2622,-1.2898,0.0156,-3.1355,-1.3206,2.0686,2049
3,-0.2253,-1.1418,0.0239,-3.2511,-1.2186,2.1044,2050
3,-0.1868,-1.072,0.042,-3.3708,-1.1597,2.1592,2050
3,-0.1575,-0.99,0.0259,-3.4813,-1.1512,2.2345,2045
3,-0.1267,-0.9448,0.0142,-3.5489,-1.2596,2.3045,2047
3,-0.1089,-0.8967,-0.0029,-3.6844,-1.2901,2.394,2045
3,-0.0728,-0.8428,-0.0447,-3.7559,-1.3893,2.4934,2081
3,-0.0435,-0.7966,-0.0796,-3.802,-1.5242,2.5513,2029
3,-0.0486,-0.7769,-0.1174,-3.8259,-1.6724,2.5982,2034
3,-0.0603,-0.7637,-0.1814,-3.8098,-1.8644,2.6245,2039
3,-0.1226,-0.7319,-0.2295,-3.7253,-2.0065,2.6131,2046
3,-0.1731,-0.718,-0.282,-3.6368,-2.0788,2.5741,2041
3,-0.1733,-0.7642,-0.3647,-3.4769,-2.1043,2.5746,2049
3,-0.2126,-0.8223,-0.416,-3.2897,-2.0535,2.5761,2044
3,-0.2712,-0.8662,-0.4932,-3.1067,-1.9979,2.4986,2042
3,-0.3118,-0.9375,-0.5557,-2.8899,-1.8943,2.5392,2044
3,-0.3711,-0.9709,-0.6255,-2.6623,-1.7322,2.4658,2044
3,-0.4053,-1.0107,-0.7007,-2.384,-1.5669,2.3695,2047
3,-0.4692,-1.0667,-0.7683,-2.0627,-1.3129,2.2551,2045
3,-0.519,-1.1077,-0.8049,-1.7536,-0.9909,2.0981,2047
3,-0.5457,-1.1472,-0.8,-1.4862,-0.6685,1.9562,2046
3,-0.533,-1.1624,-0.7393,-1.2499,-0.3798,1.8305,2048
3,-0.5339,-1.1726,-0.6641,-0.9998,-0.0216,1.6679,2045
3,-0.5566,-1.2417,-0.6108,-0.7307,0.3543,1.4944,2046
3,-0.5583,-1.3193,-0.5693,-0.4705,0.5907,1.28,2041
3,-0.5449,-1.3604,-0.5259,-0.2374,0.6863,1.0324,2043
3,-0.5701,-1.3743,-0.5,0.0027,0.8118,0.7303,2041
3,-0.5757,-1.3674,-0.4448,0.233,1.0312,0.4401,2046
3,-0.5637,-1.3455,-0.4011,0.3791,1.2131,0.1708,2047
3,-0.5369,-1.3022,-0.3799,0.5525,1.326,-0.0774,2044
3,-0.5244,-1.249,-0.3777,0.7781,1.3383,-0.2995,2043
3,-0.5095,-1.2048,-0.46,1.085,1.3049,-0.5015,2042
3,-0.5193,-1.1353,-0.5547,1.4005,1.2854,-0.7697,2044
3,-0.5183,-1.0623,-0.5962,1.6519,1.271,-1.0136,2050
3,-0.532,-1.0051,-0.5635,1.8353,1.2431,-1.2472,2044
3,-0.5063,-0.9651,-0.4861,1.978,1.2324,-1.4097,2052
3,-0.4399,-0.9563,-0.3857,2.0619,1.174,-1.4749,2048
3,-0.3823,-0.9607,-0.3062,2.1262,1.0774,-1.5194,2044
3,-0.3447,-0.9807,-0.2844,2.1985,0.9681,-1.5898,2043
3,-0.3313,-1.0164,-0.3213,2.351,0.8401,-1.6703,2038
3,-0.3311,-1.0588,-0.3865,2.5707,0.6485,-1.7586,2039
3,-0.3474,-1.0964,-0.46,2.8731,0.4389,-1.8362,2036
3,-0.3826,-1.1509,-0.5347,3.1881,0.2388,-1.9267,2041
3,-0.4324,-1.2073,-0.5757,3.4595,0.1076,-2.0841,2040
3,-0.4797,-1.2607,-0.5725,3.6537,0.0839,-2.1969,2039
3,-0.5396,-1.2666,-0.5396,3.7683,0.2099,-2.2794,2042
3,-0.5493,-1.2461,-0.4575,3.806,0.4281,-2.2718,2046
3,-0.5698,-1.1694,-0.3765,3.7745,0.7552,-2.2929,2048
3,-0.5415,-1.1084,-0.2996,3.7338,1.1413,-2.2261,2051
3,-0.5002,-1.0471,-0.2285,3.7163,1.4314,-2.1413,2050
3,-0.438,-0.9707,-0.2131,3.6721,1.6546,-2.0764,2047
3,-0.3394,-0.8867,-0.2114,3.6926,1.7539,-1.9771,2046
3,-0.2434,-0.8521,-0.1895,3.7323,1.7619,-1.8604,2046
3,-0.1943,-0.8369,-0.1843,3.7673,1.6976,-1.7777,2045
3,-0.177,-0.8147,-0.1821,3.8491,1.5307,-1.6946,2045
3,-0.1936,-0.8289,-0.2002,3.9139,1.3242,-1.6134,2046
3,-0.2483,-0.8728,-0.2073,3.9151,1.1652,-1.5535,2051
3,-0.2676,-0.8958,-0.2087,3.8635,1.0862,-1.491,2049
3,-0.2908,-0.9348,-0.2197,3.8291,1.0445,-1.5026,2043
3,-0.3359,-0.9587,-0.2253,3.7584,1.0636,-1.5265,2049
3,-0.3452,-0.9785,-0.2249,3.6275,1.0986,-1.5343,2044
3,-0.3384,-0.9915,-0.2405,3.5131,1.1595,-1.5058,2043
3,-0.3071,-1.0259,-0.241,3.3854,1.2231,-1.4549,2043
3,-0.2903,-1.0513,-0.219,3.2226,1.2264,-1.3716,2046
3,-0.2917,-1.0769,-0.1931,3.062,1.1608,-1.2744,2046
3,-0.2981,-1.1099,-0.1619,2.8706,1.0999,-1.1796,2041
3,-0.3091,-1.1448,-0.1423,2.6285,1.064,-1.0865,2044
3,-0.3037,-1.1519,-0.144,2.4474,0.9962,-1.0226,2048
3,-0.303,-1.2104,-0.1304,2.2482,0.9164,-0.9262,2048
3,-0.3276,-1.2065,-0.1526,2.066,0.8524,-0.8737,2043
3,-0.3367,-1.2637,-0.1487,1.8853,0.8116,-0.8444,2047
3,-0.3286,-1.2937,-0.1768,1.7207,0.7431,-0.7803,2041
3,-0.3181,-1.3267,-0.2004,1.5042,0.6927,-0.7152,2043
3,-0.321,-1.3528,-0.2251,1.3567,0.6305,-0.6536,2045
3,-0.3569,-1.3984,-0.2529,1.2248,0.5813,-0.6196,2044
3,-0.3542,-1.3887,-0.2834,1.0881,0.4959,-0.5855,2045
3,-0.3501,-1.3892,-0.3162,0.9499,0.3524,-0.5711,2046
3,-0.3591,-1.4409,-0.344,0.7723,0.2983,-0.5382,2045
3,-0.3909,-1.4375,-0.3521,0.6151,0.2968,-0.5235,2046
3,-0.4148,-1.4512,-0.3513,0.4031,0.2814,-0.493,2058
3,-0.416,-1.4546,-0.3354,0.1739,0.2783,-0.4452,2046
3,-0.3989,-1.4128,-0.3142,-0.079,0.3048,-0.3992,2040
3,-0.3787,-1.3875,-0.2927,-0.2748,0.2984,-0.3563,2039
3,-0.3164,-1.3564,-0.2554,-0.4963,0.1663,-0.2698,2042
3,-0.25,-1.2788,-0.2429,-0.6577,-0.0562,-0.1967,2045
3,-0.2251,-1.2258,-0.2207,-0.8007,-0.3212,-0.1048,2046
3,-0.1978,-1.1831,-0.1921,-0.9737,-0.5919,0.0169,2046
3,-0.1475,-1.1611,-0.1614,-1.1666,-0.8661,0.1316,2041
3,-0.1216,-1.1941,-0.124,-1.3992,-1.1078,0.2842,2037
3,-0.1228,-1.2612,-0.0874,-1.6225,-1.2728,0.445,2035
3,-0.1406,-1.3257,-0.0579,-1.8704,-1.4171,0.5934,2036
3,-0.1511,-1.4004,-0.0667,-2.1017,-1.5372,0.7244,2041
3,-0.1567,-1.4775,-0.0793,-2.28,-1.6179,0.8391,2043
3,-0.1599,-1.5486,-0.1223,-2.3947,-1.7072,0.9608,2042
4,-0.1819,-1.606,-0.1384,-2.4992,-1.799,1.1075,2043
4,-0.2168,-1.6843,-0.1597,-2.6546,-1.8169,1.2716,2033
4,-0.2209,-1.7046,-0.1516,-2.7938,-1.7988,1.4271,2040
4,-0.2502,-1.7295,-0.0935,-2.9899,-1.7403,1.5805,2047
4,-0.2488,-1.6545,-0.0803,-3.1732,-1.6543,1.6254,2046
4,-0.2747,-1.5972,-0.0522,-3.3741,-1.5408,1.6741,2044
4,-0.2708,-1.4836,-0.0479,-3.5284,-1.4656,1.709,2053
4,-0.27,-1.4304,-0.0342,-3.6157,-1.4002,1.7982,2051
4,-0.2668,-1.3582,-0.0247,-3.6781,-1.3111,1.8014,2064
4,-0.2615,-1.2942,-0.0178,-3.7573,-1.1849,1.8377,2047
4,-0.2346,-1.1941,-0.0115,-3.8491,-1.0882,1.8429,2047
4,-0.1711,-1.095,-0.0283,-3.9326,-1.1266,1.884,2048
4,-0.1135,-1.0127,-0.0396,-3.9918,-1.246,1.9614,2048
4,-0.0715,-0.946,-0.0596,-4.0331,-1.4242,2.066,2045
4,-0.0923,-0.8569,-0.0767,-4.0759,-1.5609,2.1019,2044
4,-0.1113,-0.8079,-0.1162,-4.0534,-1.6711,2.1395,2046
4,-0.1152,-0.8154,-0.1548,-3.9717,-1.7603,2.1728,2042
4,-0.1194,-0.8513,-0.1812,-3.8902,-1.7859,2.2146,2043
4,-0.1284,-0.8618,-0.207,-3.8183,-1.8028,2.2788,2043
4,-0.1416,-0.8616,-0.27,-3.7499,-1.7903,2.3029,2044
4,-0.1433,-0.8582,-0.3186,-3.6647,-1.7813,2.3513,2044
4,-0.1643,-0.8613,-0.3723,-3.5364,-1.7631,2.337,2045
4,-0.1892,-0.8743,-0.4387,-3.4005,-1.717,2.3192,2043
4,-0.2273,-0.9136,-0.5002,-3.2271,-1.6523,2.2788,2044
4,-0.2646,-0.9443,-0.5544,-3.0236,-1.5771,2.1985,2042
4,-0.2905,-0.9729,-0.6082,-2.7984,-1.4494,2.1458,2044
4,-0.3125,-0.9695,-0.6492,-2.5549,-1.2636,2.0935,2044
4,-0.3511,-0.9773,-0.6777,-2.259,-1.0536,2.0278,2045
4,-0.3716,-0.9839,-0.6792,-1.9909,-0.8405,1.9198,2046
4,-0.4038,-0.9724,-0.6921,-1.7104,-0.6325,1.7528,2043
4,-0.4065,-0.9817,-0.7109,-1.4122,-0.4719,1.584,2046
4,-0.4285,-1.0134,-0.6897,-1.1248,-0.3444,1.3997,2051
4,-0.4583,-1.0605,-0.7168,-0.8111,-0.2511,1.1591,2042
4,-0.4778,-1.1008,-0.7261,-0.4633,-0.1661,0.918,2041
4,-0.5203,-1.1292,-0.7058,-0.1308,-0.0875,0.6677,2044
4,-0.5537,-1.1482,-0.6875,0.1565,0.0228,0.3952,2045
4,-0.573,-1.1548,-0.6482,0.4097,0.1354,0.1447,2050
4,-0.5806,-1.1528,-0.6331,0.6727,0.2365,-0.1093,2045
4,-0.574,-1.1355,-0.6338,0.9282,0.3047,-0.3754,2045
4,-0.5642,-1.0852,-0.6448,1.1931,0.3613,-0.6482,2039
4,-0.5642,-1.0273,-0.6738,1.4677,0.3988,-0.9239,2048
4,-0.5601,-0.9893,-0.6631,1.7379,0.4165,-1.1967,2041
4,-0.5474,-0.9546,-0.6545,2.0138,0.4517,-1.4565,2045
4,-0.5234,-0.9326,-0.6287,2.2682,0.4938,-1.7025,2043
4,-0.491,-0.926,-0.5674,2.4827,0.5196,-1.9184,2047
4,-0.4365,-0.9429,-0.481,2.6449,0.5324,-2.0687,2042
4,-0.3816,-0.9744,-0.3889,2.7577,0.553,-2.1622,2044
4,-0.3167,-0.9783,-0.3091,2.818,0.5639,-2.2273,2041
4,-0.269,-0.9778,-0.2532,2.8383,0.5594,-2.2457,2040
4,-0.2302,-0.9961,-0.2183,2.8697,0.502,-2.2403,2045
4,-0.1826,-1.0371,-0.2378,2.957,0.3683,-2.2124,2040
4,-0.1914,-1.124,-0.3157,3.1656,0.1701,-2.182,2038
4,-0.229,-1.2432,-0.4138,3.4639,-0.061,-2.2268,2039
4,-0.2505,-1.3679,-0.501,3.7771,-0.2581,-2.2134,2040
4,-0.3301,-1.4868,-0.5562,4.0389,-0.3457,-2.1329,2047
4,-0.439,-1.4824,-0.512,4.1218,-0.2189,-2.233,2046
4,-0.4888,-1.4109,-0.4209,4.0885,0.1167,-2.2699,2044
4,-0.5027,-1.4194,-0.2734,3.9836,0.5584,-2.1469,2052
4,-0.5149,-1.4092,-0.1626,3.8095,1.0083,-2.0864,2050
4,-0.4973,-1.3147,-0.0857,3.627,1.4198,-2.0008,2047
4,-0.4692,-1.1692,-0.071,3.4813,1.7763,-1.9397,2048
4,-0.4028,-1.0454,-0.0823,3.4298,1.9857,-1.9403,2048
4,-0.3181,-0.9656,-0.092,3.5216,1.9937,-1.8912,2051
4,-0.2363,-0.9421,-0.1021,3.5898,1.8441,-1.7691,2048
4,-0.1987,-0.9451,-0.1025,3.6002,1.6368,-1.6685,2046
4,-0.1897,-0.929,-0.1389,3.5669,1.4306,-1.5972,2043
4,-0.207,-0.9138,-0.1582,3.4965,1.2402,-1.5487,2043
4,-0.2493,-0.9185,-0.1777,3.4324,1.0986,-1.4982,2043
4,-0.2966,-0.9231,-0.2029,3.3814,0.9544,-1.4531,2043
4,-0.3325,-0.9421,-0.2114,3.2824,0.8576,-1.417,2048
4,-0.3203,-0.969,-0.2043,3.1745,0.8103,-1.4014,2045
4,-0.3042,-1.0298,-0.2136,2.9922,0.7878,-1.3497,2045
4,-0.2986,-1.0398,-0.2241,2.8188,0.7998,-1.3109,2041
4,-0.3015,-1.0396,-0.2363,2.6345,0.7578,-1.2673,2046
4,-0.3042,-1.0442,-0.2312,2.4481,0.7002,-1.1814,2045
4,-0.2969,-1.0378,-0.2073,2.2517,0.6252,-1.1192,2044
4,-0.3003,-1.01,-0.1702,2.0314,0.5651,-1.018,2041
4,-0.2957,-0.9592,-0.1477,1.7907,0.5189,-0.8786,2044
4,-0.3252,-0.9573,-0.1345,1.6076,0.4958,-0.7686,2044
4,-0.3318,-0.9727,-0.126,1.3926,0.4586,-0.696,2044
4,-0.3203,-0.9768,-0.1492,1.2284,0.4509,-0.5851,2042
4,-0.3337,-1.0261,-0.1611,1.0495,0.4577,-0.51,2040
4,-0.3469,-1.0901,-0.2019,0.9128,0.4955,-0.4409,2047
4,-0.3477,-1.1792,-0.2124,0.7572,0.5137,-0.3426,2045
4,-0.3467,-1.2761,-0.2542,0.6341,0.5225,-0.2898,2041
4,-0.3467,-1.355,-0.2874,0.5529,0.5108,-0.2559,2040
4,-0.3408,-1.4329,-0.3218,0.4682,0.4667,-0.2574,2042
4,-0.3687,-1.4626,-0.3574,0.3373,0.3944,-0.2864,2041
4,-0.3477,-1.4595,-0.354,0.1691,0.2975,-0.2871,2043
4,-0.3447,-1.4639,-0.3252,-0.0238,0.1975,-0.2562,2047
4,-0.3696,-1.436,-0.2842,-0.2619,0.1483,-0.236,2045
4,-0.3809,-1.4294,-0.2344,-0.5311,0.1245,-0.1559,2046
4,-0.3667,-1.3806,-0.1924,-0.7819,0.0823,-0.1028,2044
4,-0.3286,-1.3691,-0.1755,-0.9901,-0.0174,-0.0563,2044
4,-0.272,-1.3577,-0.2117,-1.1439,-0.2394,-0.0197,2046
4,-0.2236,-1.3508,-0.2385,-1.2825,-0.5457,0.0372,2043
4,-0.1829,-1.3247,-0.2678,-1.3846,-0.8722,0.1029,2044
4,-0.155,-1.2795,-0.2583,-1.5107,-1.2256,0.1874,2043
4,-0.1301,-1.2258,-0.2605,-1.604,-1.5338,0.2968,2046
4,-0.1223,-1.199,-0.2417,-1.7143,-1.8375,0.433,2046
4,-0.1128,-1.1975,-0.2251,-1.8556,-2.0667,0.603,2042
5,-0.1304,-1.2834,-0.1921,-2.007,-2.2605,0.7926,2039
5,-0.1489,-1.394,-0.1912,-2.1586,-2.4444,0.9551,2040
5,-0.1885,-1.4973,-0.2122,-2.3108,-2.5515,1.0793,2038
5,-0.2058,-1.585,-0.2339,-2.4111,-2.6095,1.1958,2041
5,-0.1899,-1.6379,-0.2292,-2.5081,-2.6582,1.3089,2045
5,-0.1951,-1.7231,-0.2524,-2.522,-2.6637,1.5167,2041
5,-0.2095,-1.7202,-0.2361,-2.5932,-2.6061,1.6097,2041
5,-0.2268,-1.7207,-0.1699,-2.8175,-2.5084,1.7338,2047
5,-0.239,-1.72,-0.145,-2.8524,-2.341,1.9337,2038
5,-0.251,-1.7056,-0.1011,-2.971,-2.1691,2.009,2042
5,-0.2314,-1.6467,-0.073,-3.0926,-2.1402,2.0479,2043
5,-0.2058,-1.5623,-0.0442,-3.1652,-2.0831,2.1419,2046
5,-0.1799,-1.4563,-0.0076,-3.2589,-2.0013,2.1826,2048
5,-0.2131,-1.345,0.0083,-3.4146,-1.9317,2.2553,2047
5,-0.2131,-1.2583,0.0305,-3.4635,-1.8413,2.3032,2048
5,-0.2476,-1.1836,0.0254,-3.6319,-1.6925,2.3806,2047
5,-0.2334,-1.0999,-0.01,-3.7615,-1.5791,2.4175,2050
5,-0.1863,-1.0259,-0.0273,-3.7779,-1.5275,2.4498,2050
5,-0.1367,-0.9783,-0.0547,-3.7952,-1.5243,2.5203,2049
5,-0.0801,-0.9673,-0.0632,-3.8458,-1.6048,2.5754,2046
5,-0.1274,-0.9495,-0.1101,-3.8735,-1.6731,2.6542,2061
5,-0.1909,-0.8911,-0.1562,-3.868,-1.6518,2.7215,2043
5,-0.188,-0.8762,-0.229,-3.8388,-1.7113,2.6858,2046
5,-0.176,-0.8633,-0.313,-3.6952,-1.8088,2.6657,2047
5,-0.1804,-0.8691,-0.365,-3.5275,-1.9347,2.6565,2043
5,-0.2305,-0.8708,-0.4355,-3.3605,-1.9869,2.5469,2046
5,-0.248,-0.9062,-0.5015,-3.1624,-1.9812,2.5059,2042
5,-0.2737,-0.9348,-0.5642,-2.9116,-1.9477,2.4545,2043
5,-0.3152,-0.9463,-0.6367,-2.6521,-1.8165,2.3768,2046
5,-0.355,-0.9812,-0.6462,-2.4434,-1.6251,2.3209,2043
5,-0.4006,-1.0115,-0.6599,-2.2739,-1.3997,2.2603,2043
5,-0.4089,-1.0286,-0.6382,-2.0692,-1.1878,2.168,2049
5,-0.4321,-1.0579,-0.6311,-1.8198,-0.9865,2.0716,2044
5,-0.4346,-1.0918,-0.6272,-1.5575,-0.7995,1.931,2047
5,-0.4377,-1.1099,-0.6204,-1.3596,-0.6257,1.747,2043
5,-0.4473,-1.1226,-0.6233,-1.1697,-0.4545,1.5567,2042
5,-0.4314,-1.1282,-0.6001,-0.9693,-0.3017,1.4014,2044
5,-0.4548,-1.1707,-0.5623,-0.759,-0.1274,1.2129,2042
5,-0.4614,-1.2102,-0.5415,-0.5564,-0.0198,1.0116,2044
5,-0.4897,-1.2424,-0.51,-0.3658,0.0786,0.8038,2044
5,-0.4907,-1.2415,-0.4756,-0.1993,0.1919,0.601,2045
5,-0.5022,-1.2263,-0.478,-0.0164,0.3571,0.4465,2043
5,-0.4954,-1.1821,-0.489,0.2013,0.4829,0.2593,2045
5,-0.5212,-1.1389,-0.5273,0.4275,0.5617,0.0605,2060
5,-0.5422,-1.083,-0.5745,0.6815,0.6307,-0.1441,2044
5,-0.5745,-1.0488,-0.6455,0.975,0.6821,-0.3918,2046
5,-0.595,-1.0222,-0.6965,1.2884,0.7585,-0.6612,2041
5,-0.6067,-0.9834,-0.7114,1.585,0.9027,-0.9254,2048
5,-0.6008,-0.9731,-0.675,1.8337,1.1015,-1.1596,2044
5,-0.5754,-0.9736,-0.5979,2.0053,1.3262,-1.3311,2046
5,-0.5305,-0.9739,-0.4983,2.1278,1.5157,-1.4295,2046
5,-0.4592,-0.9736,-0.3882,2.2198,1.5925,-1.4968,2044
5,-0.396,-0.9668,-0.3611,2.3435,1.5769,-1.5874,2041
5,-0.355,-0.9917,-0.4084,2.529,1.5028,-1.6977,2041
5,-0.3472,-1.0461,-0.4858,2.795,1.3908,-1.8116,2042
5,-0.3513,-1.116,-0.5808,3.1417,1.2531,-1.9216,2039
5,-0.3782,-1.196,-0.658,3.5347,1.0891,-2.0477,2038
5,-0.4097,-1.2563,-0.6448,3.8708,0.9451,-2.1984,2043
5,-0.4365,-1.2883,-0.6118,4.1016,0.8749,-2.3362,2042
5,-0.4646,-1.2871,-0.5132,4.22,0.9558,-2.3712,2042
5,-0.4548,-1.2368,-0.4189,4.2611,1.1255,-2.3671,2045
5,-0.4285,-1.1863,-0.3674,4.2896,1.2127,-2.288,2046
5,-0.4636,-1.0962,-0.3118,4.324,1.2764,-2.2949,2044
5,-0.4524,-1.011,-0.2527,4.2873,1.3271,-2.3416,2044
5,-0.4287,-0.9263,-0.2263,4.2884,1.338,-2.339,2048
5,-0.418,-0.8699,-0.2341,4.3418,1.3247,-2.338,2041
5,-0.3616,-0.8423,-0.2441,4.3634,1.3477,-2.3397,2059
5,-0.3115,-0.8374,-0.2512,4.3634,1.3213,-2.2844,2047
5,-0.2578,-0.8354,-0.2617,4.3634,1.2371,-2.2107,2048
5,-0.2302,-0.8398,-0.2544,4.3634,1.0927,-2.1383,2043
5,-0.2517,-0.9065,-0.2395,4.3634,0.9802,-2.059,2045
5,-0.2559,-0.9746,-0.2344,4.3634,0.9309,-1.9911,2047
5,-0.2554,-1.019,-0.2288,4.3634,0.9154,-1.9246,2047
5,-0.3047,-1.0396,-0.2385,4.3634,0.9511,-1.9185,2042
5,-0.3298,-1.0901,-0.2278,4.3634,1.0443,-1.9216,2042
5,-0.3564,-1.1182,-0.2043,4.2014,1.1777,-1.8947,2045
5,-0.3247,-1.0833,-0.1887,3.9956,1.281,-1.7673,2047
5,-0.3411,-1.1101,-0.1609,3.8925,1.3684,-1.705,2045
5,-0.3362,-1.1023,-0.1196,3.6492,1.4205,-1.6273,2045
5,-0.3298,-1.1497,-0.092,3.3604,1.507,-1.4508,2046
5,-0.3223,-1.137,-0.0576,3.1693,1.5696,-1.3222,2046
5,-0.3218,-1.1646,-0.0342,2.9031,1.5506,-1.184,2046
5,-0.2993,-1.2102,-0.0398,2.6693,1.4805,-1.1113,2042
5,-0.2903,-1.1733,-0.095,2.5159,1.3525,-0.9618,2043
5,-0.2898,-1.2424,-0.1218,2.2884,1.2296,-0.8672,2040
5,-0.2896,-1.2712,-0.1443,2.0995,1.073,-0.7594,2043
5,-0.28,-1.3889,-0.1436,1.9028,0.9481,-0.6992,2043
5,-0.2722,-1.3931,-0.2004,1.7174,0.7887,-0.6011,2044
5,-0.2854,-1.4443,-0.2336,1.4784,0.6293,-0.5448,2044
5,-0.3232,-1.425,-0.29,1.3158,0.512,-0.5076,2060
5,-0.3484,-1.426,-0.3149,1.1215,0.4508,-0.5084,2046
5,-0.4006,-1.4314,-0.3508,0.8604,0.4344,-0.5221,2037
5,-0.3926,-1.438,-0.3521,0.5757,0.4432,-0.5108,2042
5,-0.4219,-1.4158,-0.355,0.2772,0.5062,-0.5035,2043
5,-0.384,-1.376,-0.3438,0.0079,0.5376,-0.4501,2044
5,-0.3403,-1.3203,-0.3208,-0.251,0.5018,-0.4012,2043
5,-0.26,-1.2507,-0.3013,-0.467,0.3574,-0.3553,2046
5,-0.1982,-1.2258,-0.2783,-0.6914,0.1073,-0.2963,2049
5,-0.1694,-1.1794,-0.2651,-0.9051,-0.1989,-0.2265,2045
5,-0.1465,-1.1226,-0.2595,-1.1001,-0.5292,-0.1376,2058
5,-0.1064,-1.0952,-0.2144,-1.3504,-0.8918,-0.0168,2045
5,-0.0659,-1.0701,-0.2188,-1.5659,-1.2127,0.1175,2032
5,-0.0718,-1.1006,-0.1926,-1.7807,-1.4798,0.2726,2033
5,-0.0774,-1.1848,-0.1555,-1.9995,-1.7074,0.4369,2041
6,-0.083,-1.293,-0.1394,-2.2341,-1.911,0.6328,2040
6,-0.1309,-1.4761,-0.1218,-2.4723,-2.015,0.8008,2036
6,-0.1768,-1.626,-0.1523,-2.6722,-2.0602,0.9313,2037
6,-0.1816,-1.7217,-0.1431,-2.8461,-2.0895,1.0263,2046
6,-0.1497,-1.7646,-0.1499,-2.9754,-2.1603,1.1415,2051
6,-0.1733,-1.7927,-0.1584,-3.0704,-2.2044,1.272,2045
6,-0.2139,-1.8008,-0.1372,-3.1471,-2.2204,1.4424,2042
6,-0.2705,-1.8103,-0.116,-3.3006,-2.1327,1.6442,2041
6,-0.2888,-1.772,-0.041,-3.6058,-2.003,1.7468,2060
6,-0.2737,-1.7437,-0.0251,-3.7635,-1.8943,1.8963,2043
6,-0.3252,-1.6833,0.001,-3.9788,-1.693,1.9869,2044
6,-0.3022,-1.5769,0.0015,-4.1333,-1.5997,2.0118,2051
6,-0.2512,-1.4885,0.0098,-4.2021,-1.5743,2.1339,2050
6,-0.2405,-1.3809,0.0125,-4.2997,-1.5874,2.1876,2052
6,-0.2236,-1.2788,0.0254,-4.3606,-1.6439,2.2763,2052
6,-0.2109,-1.2256,0.0229,-4.3635,-1.6918,2.3111,2046
6,-0.2014,-1.1213,0.0247,-4.3635,-1.6454,2.3959,2047
6,-0.1848,-1.0771,0.0061,-4.3635,-1.731,2.4927,2045
6,-0.1367,-1.0122,-0.0459,-4.3635,-1.8884,2.588,2049
6,-0.1167,-0.9622,-0.0596,-4.3635,-2.079,2.6341,2045
6,-0.1123,-0.9275,-0.0923,-4.3635,-2.2514,2.7267,2041
6,-0.1541,-0.9053,-0.1194,-4.3635,-2.3965,2.7801,2046
6,-0.2056,-0.8547,-0.2129,-4.3635,-2.5035,2.7995,2043
6,-0.2278,-0.792,-0.2869,-4.3614,-2.5964,2.7263,2050
6,-0.2368,-0.814,-0.3433,-4.1588,-2.6876,2.6769,2048
6,-0.27,-0.866,-0.4084,-3.9753,-2.714,2.6934,2043
6,-0.3125,-0.8904,-0.4805,-3.711,-2.7019,2.6526,2041
6,-0.335,-0.8994,-0.5571,-3.4141,-2.6097,2.6956,2045
6,-0.3816,-0.8816,-0.6021,-3.1672,-2.3727,2.6227,2044
6,-0.4148,-0.9131,-0.6692,-2.9438,-2.0619,2.6031,2046
6,-0.4436,-0.958,-0.6936,-2.6526,-1.774,2.5247,2046
6,-0.4534,-1.0034,-0.7393,-2.2647,-1.449,2.4164,2055
6,-0.4766,-1.0776,-0.7659,-1.8816,-1.1063,2.2686,2044
6,-0.4988,-1.1584,-0.7952,-1.5326,-0.7339,2.1172,2041
6,-0.489,-1.2031,-0.7815,-1.2428,-0.3681,1.9177,2044
6,-0.4773,-1.2231,-0.709,-1.0135,-0.1117,1.7498,2045
6,-0.448,-1.2332,-0.6387,-0.7771,0.1471,1.5841,2043
6,-0.4375,-1.231,-0.5623,-0.5714,0.4791,1.3568,2046
6,-0.4304,-1.2368,-0.481,-0.3988,0.8131,1.1291,2047
6,-0.3911,-1.2205,-0.4072,-0.1999,1.1315,0.8971,2044
6,-0.3833,-1.1836,-0.3867,0.0526,1.3653,0.6442,2046
6,-0.3647,-1.1145,-0.3601,0.3916,1.4588,0.3488,2044
6,-0.3535,-1.051,-0.3779,0.7514,1.5126,0.0822,2043
6,-0.3242,-0.9949,-0.4592,1.2018,1.5484,-0.1447,2042
6,-0.3091,-0.9573,-0.5576,1.7205,1.5828,-0.3816,2044
6,-0.3086,-0.9778,-0.625,2.1702,1.6213,-0.646,2040
6,-0.3591,-1.0251,-0.675,2.5393,1.5716,-0.9206,2044
6,-0.397,-1.1045,-0.6584,2.8032,1.3905,-1.1346,2050
6,-0.4277,-1.1426,-0.5703,2.9522,1.1919,-1.3322,2047
6,-0.4089,-1.1599,-0.45,3.0062,1.0957,-1.4965,2045
6,-0.376,-1.1423,-0.3623,3.0348,1.0437,-1.5743,2047
6,-0.3379,-1.136,-0.3359,3.0822,1.0116,-1.6837,2042
6,-0.301,-1.1409,-0.3406,3.1998,0.9017,-1.7976,2038
6,-0.3081,-1.1763,-0.4016,3.4115,0.6537,-1.922,2037
6,-0.3269,-1.2153,-0.4756,3.6997,0.3211,-2.0752,2056
6,-0.3809,-1.2871,-0.5532,4.0558,0.0084,-2.22,2037
6,-0.4316,-1.3442,-0.6045,4.3523,-0.2196,-2.4165,2039
6,-0.4851,-1.4331,-0.615,4.3634,-0.3434,-2.4763,2039
6,-0.5649,-1.3835,-0.614,4.3634,-0.2919,-2.6476,2044
6,-0.6328,-1.2932,-0.49,4.3634,0.0425,-2.8115,2052
6,-0.6575,-1.1948,-0.3762,4.3634,0.5287,-2.8966,2051
6,-0.6274,-1.1321,-0.2664,4.3634,0.8981,-2.8436,2054
6,-0.5151,-1.0774,-0.1953,4.3634,1.2581,-2.7437,2051
6,-0.3762,-1.03,-0.1763,4.3634,1.5422,-2.6384,2048
6,-0.325,-1.0217,-0.175,4.3634,1.7269,-2.5745,2042
6,-0.2896,-0.9946,-0.1855,4.3634,1.8032,-2.4218,2044
6,-0.2529,-1.0413,-0.1704,4.3634,1.8289,-2.3141,2044
6,-0.2261,-0.9626,-0.1951,4.3634,1.7919,-2.2254,2048
6,-0.1689,-0.8904,-0.1858,4.3634,1.6922,-2.1246,2046
6,-0.1646,-0.9324,-0.1453,4.3634,1.5946,-1.9247,2043
6,-0.2117,-1.0237,-0.1257,4.3634,1.5069,-1.8108,2045
6,-0.2476,-1.0728,-0.1226,4.2923,1.4591,-1.7672,2047
6,-0.2402,-1.051,-0.1187,4.0961,1.3906,-1.6771,2039
6,-0.241,-1.0576,-0.1245,3.9751,1.3388,-1.648,2047
6,-0.2292,-1.1084,-0.1091,3.8095,1.3119,-1.5162,2044
6,-0.2097,-1.1426,-0.1106,3.6406,1.2888,-1.4067,2044
6,-0.2512,-1.1658,-0.1035,3.42,1.2441,-1.3948,2045
6,-0.2712,-1.1631,-0.0894,3.1554,1.2039,-1.2659,2056
6,-0.3142,-1.2205,-0.092,2.75,1.1983,-1.069,2040
6,-0.2942,-1.1428,-0.0735,2.524,1.165,-1.0457,2043
6,-0.3081,-1.1316,-0.1167,2.3132,1.0883,-0.9768,2044
6,-0.3059,-1.2288,-0.1077,1.9765,1.0551,-0.8131,2042
6,-0.3259,-1.2349,-0.1479,1.7242,1.0355,-0.7176,2047
6,-0.3167,-1.2771,-0.1975,1.597,0.9441,-0.6717,2046
6,-0.3254,-1.3284,-0.25,1.4123,0.8396,-0.5819,2043
6,-0.354,-1.3845,-0.3057,1.2712,0.7458,-0.5363,2041
6,-0.3582,-1.386,-0.3679,1.1681,0.6537,-0.5116,2043
6,-0.3625,-1.4143,-0.415,1.0722,0.5861,-0.5066,2044
6,-0.4053,-1.4258,-0.4407,0.9505,0.5544,-0.5028,2045
6,-0.4512,-1.4272,-0.4468,0.7239,0.5837,-0.4967,2043
6,-0.448,-1.386,-0.4282,0.5253,0.5962,-0.4894,2045
6,-0.4263,-1.3352,-0.4072,0.2541,0.5869,-0.4698,2049
6,-0.4236,-1.2905,-0.3523,-0.0297,0.5831,-0.3982,2041
6,-0.415,-1.2424,-0.3179,-0.2678,0.5649,-0.3638,2044
6,-0.3662,-1.2056,-0.2825,-0.4789,0.4673,-0.314,2043
6,-0.2996,-1.188,-0.2593,-0.6837,0.2996,-0.2571,2046
6,-0.2532,-1.1511,-0.2744,-0.8461,0.0507,-0.1923,2047
6,-0.1846,-1.0996,-0.2715,-1.0055,-0.3095,-0.1127,2042
6,-0.1304,-1.064,-0.2817,-1.1465,-0.6879,0.0097,2042
6,-0.1045,-1.04,-0.2607,-1.2789,-1.0881,0.1517,2046
6,-0.0957,-1.0483,-0.2495,-1.4315,-1.4801,0.3053,2051
7,-0.1033,-1.1094,-0.2537,-1.5672,-1.8133,0.4765,2038
7,-0.1138,-1.241,-0.2241,-1.7378,-2.068,0.643,2044
7,-0.1577,-1.4236,-0.186,-1.9522,-2.2372,0.8031,2035
7,-0.1885,-1.5825,-0.1685,-2.1871,-2.3382,0.9275,2040
7,-0.1958,-1.6743,-0.1907,-2.3546,-2.4052,1.0375,2042
7,-0.1963,-1.7627,-0.1741,-2.4681,-2.4719,1.1392,2043
7,-0.156,-1.7896,-0.1504,-2.5357,-2.542,1.2762,2050
7,-0.1904,-1.8342,-0.1099,-2.7477,-2.5605,1.5142,2042
7,-0.2351,-1.835,-0.0691,-3.0012,-2.4725,1.6707,2042
7,-0.2747,-1.8059,-0.0376,-3.2195,-2.3457,1.7837,2044
7,-0.252,-1.7451,-0.0017,-3.4007,-2.2888,1.88,2043
7,-0.249,-1.6636,0.0107,-3.5711,-2.2134,1.9743,2043
7,-0.2651,-1.5952,0.0366,-3.7245,-2.1072,2.0642,2048
7,-0.2688,-1.5059,0.0466,-3.8531,-2.0214,2.1526,2045
7,-0.2717,-1.3589,0.0493,-3.9773,-1.9148,2.1792,2048
7,-0.2834,-1.2769,0.0664,-4.0916,-1.8028,2.3324,2051
7,-0.2419,-1.2161,0.0571,-4.1409,-1.7033,2.4288,2048
7,-0.2554,-1.157,0.0352,-4.2261,-1.6311,2.4599,2053
7,-0.2175,-1.0999,0.0381,-4.2787,-1.5852,2.5025,2049
7,-0.1853,-1.0393,-0.0022,-4.3635,-1.4721,2.5775,2053
7,-0.1707,-1.0146,-0.0366,-4.3635,-1.4886,2.6992,2047
7,-0.0789,-0.9851,-0.0784,-4.3635,-1.6021,2.7611,2045
7,-0.0273,-0.9617,-0.1042,-4.3635,-1.778,2.8616,2044
7,-0.1265,-0.9224,-0.1497,-4.3635,-1.9443,2.9166,2039
7,-0.1853,-0.8438,-0.2268,-4.3635,-2.0564,2.9232,2045
7,-0.1973,-0.8284,-0.3276,-4.333,-2.1538,2.8308,2046
7,-0.1833,-0.8669,-0.4058,-4.1137,-2.2256,2.7801,2047
7,-0.238,-0.8965,-0.4851,-3.8472,-2.2815,2.7494,2044
7,-0.2795,-0.9287,-0.562,-3.6041,-2.28,2.707,2042
7,-0.3274,-1.0049,-0.6128,-3.3247,-2.1577,2.6639,2043
7,-0.4001,-1.0884,-0.6653,-3.0198,-1.976,2.6116,2042
7,-0.4163,-1.1106,-0.7034,-2.7504,-1.717,2.5842,2046
7,-0.4487,-1.1204,-0.7188,-2.5012,-1.3929,2.5378,2046
7,-0.4995,-1.1414,-0.7222,-2.2399,-0.9939,2.3976,2044
7,-0.5256,-1.1689,-0.7109,-1.9622,-0.64,2.2274,2040
7,-0.5305,-1.1958,-0.7017,-1.6793,-0.3931,2.0406,2045
7,-0.5371,-1.2378,-0.6655,-1.4564,-0.2,1.841,2045
7,-0.5171,-1.2681,-0.6089,-1.2612,-0.0217,1.6366,2043
7,-0.4924,-1.2812,-0.5542,-1.0609,0.1587,1.4663,2044
7,-0.4756,-1.2874,-0.4968,-0.8345,0.3529,1.2758,2044
7,-0.4771,-1.2681,-0.4561,-0.647,0.5477,1.0336,2044
7,-0.4912,-1.2246,-0.4299,-0.4758,0.7427,0.7781,2043
7,-0.4724,-1.1665,-0.4233,-0.2919,0.8866,0.5364,2044
7,-0.4724,-1.105,-0.448,-0.0273,0.957,0.302,2046
7,-0.4631,-1.0479,-0.4778,0.2815,0.9829,0.0911,2043
7,-0.4485,-0.9675,-0.5205,0.6034,0.9497,-0.1751,2044
7,-0.4307,-0.9246,-0.5415,0.919,0.9997,-0.3753,2044
7,-0.416,-0.8992,-0.5876,1.2133,1.0096,-0.6165,2041
7,-0.418,-0.905,-0.5854,1.5173,1.0925,-0.8004,2040
7,-0.4231,-0.9146,-0.5908,1.7765,1.181,-0.9693,2050
7,-0.4216,-0.9338,-0.5471,1.9772,1.2568,-1.0966,2050
7,-0.4001,-0.9355,-0.4976,2.1324,1.2889,-1.2091,2042
7,-0.4021,-0.9302,-0.4475,2.2715,1.3198,-1.3268,2043
7,-0.3699,-0.9292,-0.4529,2.447,1.2912,-1.4511,2043
7,-0.3406,-0.948,-0.479,2.6701,1.1712,-1.5866,2041
7,-0.3445,-0.9824,-0.5208,2.9501,0.9649,-1.7213,2043
7,-0.3657,-1.0369,-0.6013,3.3019,0.7183,-1.8877,2040
7,-0.4106,-1.1089,-0.6819,3.698,0.4564,-2.0664,2040
7,-0.4692,-1.1909,-0.7061,4.064,0.2503,-2.2546,2039
7,-0.5298,-1.2412,-0.6826,4.3341,0.1975,-2.4028,2041
7,-0.5691,-1.2427,-0.5991,4.3634,0.3474,-2.485,2047
7,-0.5601,-1.2056,-0.5061,4.3634,0.5743,-2.4201,2045
7,-0.5674,-1.1543,-0.4053,4.3634,0.8015,-2.4742,2048
7,-0.582,-1.0872,-0.3118,4.3634,1.1215,-2.4883,2046
7,-0.5452,-1.0237,-0.2407,4.3634,1.3511,-2.4574,2047
7,-0.4875,-0.9397,-0.2285,4.3634,1.5576,-2.4345,2051
7,-0.3994,-0.8953,-0.241,4.3634,1.6773,-2.3531,2045
7,-0.2937,-0.8379,-0.2585,4.3634,1.7367,-2.2711,2045
7,-0.2253,-0.8169,-0.2615,4.3634,1.7129,-2.2077,2047
7,-0.2178,-0.8467,-0.2722,4.3634,1.531,-2.1865,2045
7,-0.2329,-0.9229,-0.2788,4.3634,1.317,-2.1101,2041
7,-0.2803,-0.9893,-0.2786,4.3634,1.2118,-2.0659,2046
7,-0.29,-0.9917,-0.2622,4.3634,1.1728,-2.0397,2047
7,-0.2981,-1.0076,-0.2361,4.3634,1.1967,-2.017,2049
7,-0.3464,-1.0518,-0.2078,4.3634,1.2916,-1.9327,2042
7,-0.3127,-1.1787,-0.167,4.3634,1.4205,-1.8218,2044
7,-0.3125,-1.2502,-0.1101,4.247,1.5673,-1.7173,2042
7,-0.2927,-1.187,-0.1191,3.9712,1.6345,-1.5672,2042
7,-0.3076,-1.1665,-0.1042,3.7592,1.6655,-1.4414,2042
7,-0.3147,-1.2114,-0.0691,3.5561,1.6594,-1.3661,2043
7,-0.3027,-1.2683,-0.0183,3.2866,1.6518,-1.2376,2050
7,-0.2385,-1.2329,0.0405,2.9726,1.6293,-1.1561,2045
7,-0.2424,-1.3459,0.0676,2.5934,1.548,-0.9247,2040
7,-0.2627,-1.2571,0.02,2.3087,1.4669,-0.9218,2039
7,-0.3042,-1.2527,-0.0149,2.0311,1.3671,-0.7988,2046
7,-0.2454,-1.2927,-0.0559,1.8066,1.1826,-0.6956,2043
7,-0.2388,-1.333,-0.1262,1.5711,0.9819,-0.6148,2041
7,-0.2385,-1.3501,-0.1831,1.3864,0.8058,-0.5276,2045
7,-0.2517,-1.3306,-0.2485,1.2592,0.6241,-0.4967,2059
7,-0.29,-1.3826,-0.3103,1.1344,0.4433,-0.4762,2035
7,-0.2883,-1.3848,-0.3662,1.0062,0.3325,-0.4508,2046
7,-0.3132,-1.4207,-0.4321,0.8779,0.2623,-0.4011,2046
7,-0.3567,-1.4126,-0.4812,0.7072,0.2505,-0.4342,2040
7,-0.3923,-1.4368,-0.4792,0.5036,0.2904,-0.3907,2043
7,-0.3979,-1.4353,-0.4604,0.2212,0.3883,-0.3783,2042
7,-0.4048,-1.4001,-0.4546,-0.031,0.4902,-0.3725,2039
7,-0.3958,-1.3301,-0.4377,-0.2539,0.556,-0.3658,2041
7,-0.3635,-1.2751,-0.4058,-0.4272,0.5339,-0.3691,2045
7,-0.2949,-1.2063,-0.396,-0.5801,0.3958,-0.3587,2044
7,-0.2517,-1.1514,-0.3708,-0.719,0.171,-0.3337,2054
7,-0.238,-1.1338,-0.3438,-0.8766,-0.0808,-0.2755,2040
7,-0.2205,-1.1282,-0.3054,-1.0452,-0.3513,-0.1968,2039
8,-0.1807,-1.105,-0.2883,-1.2065,-0.645,-0.1155,2041
8,-0.1504,-1.0532,-0.2568,-1.4042,-0.9826,-0.0085,2044
8,-0.1074,-1.0642,-0.2573,-1.5643,-1.2625,0.1278,2042
8,-0.0989,-1.1091,-0.2388,-1.7377,-1.5301,0.2827,2039
8,-0.0898,-1.2246,-0.2158,-1.9117,-1.7668,0.4506,2044
8,-0.1255,-1.3716,-0.1655,-2.1285,-1.9453,0.6295,2059
8,-0.1541,-1.501,-0.1641,-2.3269,-2.0443,0.7857,2034
8,-0.1775,-1.6062,-0.1489,-2.5131,-2.0802,0.9183,2033
8,-0.1716,-1.6648,-0.1431,-2.6322,-2.1206,1.046,2040
8,-0.1592,-1.7078,-0.1438,-2.7381,-2.1679,1.1721,2041
8,-0.1685,-1.7498,-0.146,-2.8241,-2.2368,1.3216,2050
8,-0.2017,-1.76,-0.1274,-3.0313,-2.2718,1.4792,2044
8,-0.2532,-1.7378,-0.1272,-3.1865,-2.2192,1.6101,2043
8,-0.2549,-1.6521,-0.0879,-3.303,-2.1457,1.6499,2045
8,-0.2527,-1.5298,-0.0537,-3.4933,-2.0631,1.6909,2047
8,-0.2668,-1.4924,-0.0193,-3.6296,-1.9114,1.8234,2046
8,-0.3015,-1.374,-0.0146,-3.7783,-1.808,1.9022,2046
8,-0.2932,-1.2644,-0.022,-3.8856,-1.715,1.9522,2049
8,-0.2656,-1.1897,-0.0286,-3.9512,-1.6736,2.0615,2052
8,-0.229,-1.0996,-0.0471,-3.9653,-1.6467,2.0981,2048
8,-0.2026,-1.0767,-0.0659,-3.9938,-1.6471,2.1756,2045
8,-0.1863,-1.0359,-0.0745,-4.0892,-1.6704,2.2422,2048
8,-0.166,-0.9861,-0.1223,-4.1402,-1.7418,2.3236,2045
8,-0.1685,-0.9707,-0.1348,-4.133,-1.8337,2.3746,2045
8,-0.1609,-0.9844,-0.1719,-4.1329,-1.9554,2.4904,2043
8,-0.1831,-0.9531,-0.2056,-4.1141,-2.0305,2.5199,2046
8,-0.1721,-0.9209,-0.2483,-4.0235,-2.1104,2.559,2044
8,-0.2087,-0.9021,-0.2898,-3.9419,-2.1337,2.5585,2044
8,-0.2322,-0.874,-0.3628,-3.7952,-2.1399,2.5024,2044
8,-0.2466,-0.8733,-0.4106,-3.601,-2.1419,2.4719,2044
8,-0.2693,-0.8906,-0.4817,-3.4231,-2.1623,2.4113,2045
8,-0.281,-0.9395,-0.5352,-3.1893,-2.1387,2.3791,2045
8,-0.3096,-0.9597,-0.5955,-2.9413,-2.0058,2.3586,2041
8,-0.345,-0.9958,-0.6453,-2.6583,-1.8383,2.2921,2064
8,-0.3796,-1.0369,-0.6648,-2.4116,-1.6105,2.2317,2043
8,-0.4099,-1.0464,-0.668,-2.1847,-1.328,2.1738,2045
8,-0.4297,-1.0818,-0.6672,-1.9539,-1.0589,2.0913,2046
8,-0.4336,-1.0964,-0.6838,-1.6717,-0.7854,1.976,2041
8,-0.4709,-1.1223,-0.7092,-1.3969,-0.5035,1.8081,2047
8,-0.4888,-1.1819,-0.7229,-1.1549,-0.2895,1.6564,2043
8,-0.4832,-1.1816,-0.7292,-0.8863,-0.1879,1.4159,2044
8,-0.4956,-1.208,-0.6841,-0.6058,-0.1095,1.1772,2041
8,-0.501,-1.2312,-0.6304,-0.3835,-0.0152,0.9525,2044
8,-0.5159,-1.2405,-0.5659,-0.1645,0.1232,0.7224,2046
8,-0.5015,-1.2278,-0.5283,0.0312,0.329,0.5091,2045
8,-0.4854,-1.2063,-0.5051,0.2061,0.5004,0.3164,2045
8,-0.4678,-1.1714,-0.5139,0.397,0.6106,0.133,2045
8,-0.4753,-1.113,-0.5459,0.6265,0.6909,-0.0654,2042
8,-0.4905,-1.0698,-0.6106,0.9106,0.7496,-0.2547,2044
8,-0.4873,-1.0093,-0.6846,1.2623,0.7858,-0.5117,2044
8,-0.5129,-0.9827,-0.6831,1.6398,0.8558,-0.7492,2043
8,-0.5291,-0.9712,-0.6575,1.9289,0.9345,-0.9861,2045
8,-0.5066,-0.9697,-0.592,2.1367,1.0246,-1.1541,2044
8,-0.4731,-0.9619,-0.4802,2.2458,1.1311,-1.2926,2046
8,-0.4211,-0.9622,-0.4043,2.3329,1.1934,-1.3645,2042
8,-0.3428,-0.9514,-0.3503,2.4109,1.2247,-1.4075,2042
8,-0.2981,-0.9438,-0.3257,2.4691,1.2445,-1.4613,2059
8,-0.2747,-0.9563,-0.3206,2.5578,1.1829,-1.5099,2040
8,-0.2749,-1.0063,-0.373,2.7497,1.0083,-1.5492,2041
8,-0.2864,-1.071,-0.46,3.0537,0.7211,-1.6157,2043
8,-0.3337,-1.1807,-0.5803,3.4387,0.4002,-1.719,2041
8,-0.3945,-1.2778,-0.6611,3.7902,0.1511,-1.9001,2041
8,-0.4646,-1.3462,-0.689,4.0451,0.0474,-2.0554,2042
8,-0.5129,-1.3284,-0.6211,4.1592,0.18,-2.1569,2044
8,-0.5295,-1.2886,-0.5266,4.1666,0.4446,-2.1652,2049
8,-0.5359,-1.2126,-0.3938,4.1414,0.766,-2.1755,2053
8,-0.5278,-1.1287,-0.2422,4.0739,1.1195,-2.1718,2052
8,-0.4946,-1.0686,-0.1667,3.8932,1.3789,-2.1463,2051
8,-0.4363,-0.9854,-0.1675,3.7532,1.5138,-2.0957,2046
8,-0.3708,-0.9124,-0.1897,3.7476,1.5913,-2.065,2043
8,-0.2947,-0.8496,-0.2068,3.7989,1.5838,-2.0446,2048
8,-0.2239,-0.8271,-0.2126,3.9153,1.4334,-2.0041,2048
8,-0.1995,-0.8401,-0.2292,4.0118,1.2426,-1.9755,2042
8,-0.198,-0.8621,-0.23,4.0423,1.0461,-1.9543,2044
8,-0.2192,-0.8806,-0.2498,4.0351,0.8673,-1.9419,2046
8,-0.2339,-0.9285,-0.2717,4.0415,0.703,-1.9361,2042
8,-0.2703,-0.9573,-0.2944,4.0651,0.5878,-1.9518,2046
8,-0.2698,-0.9548,-0.2898,4.0077,0.5612,-1.8887,2045
8,-0.2747,-1.0151,-0.269,3.8836,0.6027,-1.8495,2046
8,-0.2603,-1.1008,-0.2498,3.6796,0.6751,-1.7495,2063
8,-0.2803,-1.1819,-0.2234,3.4382,0.7589,-1.6406,2042
8,-0.3147,-1.1702,-0.231,3.2123,0.8373,-1.5716,2041
8,-0.3445,-1.1177,-0.2256,3.0697,0.9223,-1.4973,2046
8,-0.3503,-1.1858,-0.1719,2.8717,1.0091,-1.4038,2043
8,-0.3455,-1.24,-0.1277,2.6397,1.0841,-1.3304,2047
8,-0.3127,-1.25,-0.0957,2.3627,1.1204,-1.2457,2047
8,-0.3245,-1.2253,-0.0862,2.1522,1.1489,-1.1484,2045
8,-0.3611,-1.2249,-0.1099,1.9242,1.1864,-1.0525,2045
8,-0.3811,-1.282,-0.1077,1.6503,1.1909,-0.8901,2049
8,-0.355,-1.2434,-0.146,1.4422,1.117,-0.8064,2040
8,-0.3091,-1.2412,-0.1829,1.3422,0.9766,-0.7632,2041
8,-0.293,-1.2749,-0.1997,1.2636,0.8288,-0.671,2039
8,-0.3296,-1.3452,-0.241,1.0544,0.7046,-0.5757,2043
8,-0.3276,-1.3481,-0.2961,0.8999,0.5271,-0.5022,2043
8,-0.3494,-1.437,-0.3384,0.7404,0.3726,-0.4393,2047
8,-0.345,-1.4343,-0.3704,0.5851,0.24,-0.4063,2046
8,-0.3599,-1.449,-0.4075,0.4366,0.1135,-0.3631,2046
8,-0.3894,-1.4524,-0.4238,0.2574,0.0629,-0.3123,2041
8,-0.4285,-1.4712,-0.405,0.0031,0.0796,-0.281,2039
8,-0.4475,-1.4207,-0.3782,-0.2368,0.1133,-0.2598,2044
8,-0.4226,-1.3362,-0.3684,-0.447,0.1084,-0.2507,2043
8,-0.3911,-1.2646,-0.3413,-0.6312,0.0399,-0.2103,2046
8,-0.3386,-1.2324,-0.3203,-0.7901,-0.1071,-0.1579,2045
9,-0.2747,-1.2036,-0.3225,-0.9236,-0.3653,-0.0839,2047
9,-0.2534,-1.1836,-0.2791,-1.0768,-0.6786,0.0065,2054
9,-0.2195,-1.1384,-0.2693,-1.2272,-1.003,0.127,2042
9,-0.1726,-1.0889,-0.2527,-1.3679,-1.2872,0.2755,2044
9,-0.1436,-1.0977,-0.2166,-1.5359,-1.5422,0.4469,2042
9,-0.1348,-1.1499,-0.1934,-1.6989,-1.7675,0.6169,2040
9,-0.1296,-1.2373,-0.1592,-1.8713,-1.9654,0.7763,2042
9,-0.1331,-1.3674,-0.1541,-2.0498,-2.1828,0.9439,2040
9,-0.1465,-1.5242,-0.1453,-2.2033,-2.3406,1.1037,2042
9,-0.1562,-1.6338,-0.1589,-2.3461,-2.4618,1.2452,2039
9,-0.155,-1.6929,-0.1965,-2.431,-2.5862,1.3766,2043
9,-0.1755,-1.7632,-0.1921,-2.528,-2.7123,1.552,2041
9,-0.1804,-1.7793,-0.1924,-2.5878,-2.8151,1.688,2045
9,-0.199,-1.7686,-0.1733,-2.7247,-2.83,1.7865,2047
9,-0.1965,-1.7466,-0.1531,-2.7971,-2.8553,1.8865,2044
9,-0.272,-1.6731,-0.1116,-2.9514,-2.7874,1.9467,2047
9,-0.2576,-1.5476,-0.0815,-3.0767,-2.7374,1.9956,2053
9,-0.2505,-1.4663,-0.0471,-3.2025,-2.6504,2.1032,2053
9,-0.3093,-1.3806,-0.0481,-3.2594,-2.5412,2.2021,2049
9,-0.3293,-1.2725,-0.0396,-3.3071,-2.3866,2.2293,2050
9,-0.2949,-1.1885,-0.0347,-3.4105,-2.2417,2.3049,2047
9,-0.2883,-1.1375,-0.0789,-3.471,-2.1204,2.3736,2050
9,-0.261,-1.0449,-0.0769,-3.4523,-1.9823,2.4028,2054
9,-0.2471,-0.9866,-0.0938,-3.4993,-1.8612,2.4422,2050
9,-0.2437,-0.9614,-0.134,-3.552,-1.8209,2.529,2043
9,-0.1841,-0.9326,-0.168,-3.5579,-1.812,2.5647,2044
9,-0.1221,-0.9231,-0.1843,-3.5563,-1.8222,2.6449,2043
9,-0.165,-0.897,-0.2241,-3.5362,-1.8893,2.6987,2045
9,-0.1838,-0.8535,-0.26,-3.4965,-1.916,2.7067,2042
9,-0.1851,-0.8384,-0.3086,-3.4344,-1.9088,2.6827,2045
9,-0.1592,-0.8411,-0.376,-3.3158,-1.9307,2.64,2044
9,-0.1626,-0.8398,-0.447,-3.1064,-1.9305,2.6064,2043
9,-0.1819,-0.8706,-0.4722,-2.9735,-1.92,2.5992,2045
9,-0.2,-0.9102,-0.519,-2.7855,-1.9021,2.5682,2045
9,-0.219,-0.9546,-0.5286,-2.5947,-1.7977,2.5474,2044
9,-0.2529,-0.9812,-0.583,-2.3945,-1.6452,2.5009,2045
9,-0.2898,-1.0168,-0.6311,-2.1534,-1.4448,2.4313,2042
9,-0.3325,-1.0623,-0.6665,-1.9168,-1.1559,2.3443,2041
9,-0.3691,-1.1345,-0.6799,-1.7114,-0.8259,2.2686,2043
9,-0.3965,-1.1843,-0.7051,-1.496,-0.5075,2.1453,2042
9,-0.4182,-1.1968,-0.6892,-1.2468,-0.2185,1.9971,2046
9,-0.4348,-1.2285,-0.6797,-1.0428,0.0273,1.8354,2041
9,-0.4646,-1.271,-0.667,-0.834,0.2177,1.6074,2044
9,-0.4946,-1.314,-0.6589,-0.6429,0.3904,1.3768,2044
9,-0.5117,-1.3438,-0.6104,-0.4932,0.5713,1.1736,2044
9,-0.498,-1.3291,-0.542,-0.3594,0.7044,0.9657,2048
9,-0.5032,-1.3252,-0.4456,-0.2808,0.8437,0.7933,2047
9,-0.4861,-1.2976,-0.3579,-0.2148,0.9568,0.6079,2051
9,-0.4634,-1.2598,-0.3352,-0.136,1.0198,0.4219,2046
9,-0.446,-1.2212,-0.3445,-0.0277,1.042,0.2201,2042
9,-0.436,-1.1599,-0.3879,0.1416,0.9629,-0.0206,2039
9,-0.4407,-1.0928,-0.4417,0.3533,0.8401,-0.2356,2044
9,-0.4446,-1.0386,-0.4922,0.5746,0.7159,-0.4518,2046
9,-0.4604,-1.0056,-0.53,0.8263,0.6616,-0.6771,2046
9,-0.4895,-0.9827,-0.5498,1.0485,0.6813,-0.9274,2046
9,-0.4946,-0.9812,-0.5454,1.2295,0.7562,-1.1441,2041
9,-0.4973,-1.01,-0.5186,1.3934,0.8745,-1.3062,2046
9,-0.4834,-1.0225,-0.5081,1.5512,1.026,-1.4455,2043
9,-0.4863,-1.01,-0.4736,1.7029,1.1065,-1.5546,2046
9,-0.4639,-0.9807,-0.4233,1.8342,1.132,-1.6651,2044
9,-0.4238,-0.9861,-0.4351,2.0222,1.1058,-1.7736,2048
9,-0.377,-1.0171,-0.4658,2.2226,0.991,-1.8724,2046
9,-0.3472,-1.0637,-0.5122,2.4522,0.8349,-1.9888,2042
9,-0.3328,-1.1377,-0.572,2.7454,0.6368,-2.0667,2038
9,-0.3577,-1.2327,-0.6184,3.0712,0.4576,-2.1204,2041
9,-0.3906,-1.3049,-0.6255,3.3373,0.3657,-2.1863,2044
9,-0.4292,-1.3467,-0.5901,3.5587,0.3912,-2.2051,2039
9,-0.4263,-1.3521,-0.5522,3.7283,0.5028,-2.1754,2042
9,-0.4883,-1.3115,-0.4753,3.8403,0.6705,-2.2342,2051
9,-0.5149,-1.2522,-0.3865,3.872,0.8869,-2.283,2044
9,-0.5649,-1.1831,-0.3074,3.8732,1.1214,-2.2925,2045
9,-0.5647,-1.1128,-0.2473,3.8507,1.3484,-2.2935,2047
9,-0.5137,-1.0366,-0.2263,3.8591,1.5608,-2.2529,2048
9,-0.4531,-0.9868,-0.2234,3.8486,1.7796,-2.2308,2044
9,-0.4141,-0.9136,-0.2051,3.8352,1.9434,-2.1913,2047
9,-0.3494,-0.8538,-0.1877,3.8757,1.953,-2.1292,2043
9,-0.3164,-0.8125,-0.2043,3.9865,1.8725,-2.056,2046
9,-0.3052,-0.8145,-0.2056,4.0696,1.7458,-2.027,2045
9,-0.2957,-0.8301,-0.2363,4.1104,1.5834,-1.9599,2044
9,-0.3074,-0.8389,-0.2561,4.1121,1.4788,-1.9329,2043
9,-0.312,-0.8203,-0.3079,4.1026,1.3468,-1.8947,2042
9,-0.304,-0.8069,-0.312,4.0626,1.2252,-1.847,2045
9,-0.27,-0.8103,-0.314,3.9908,1.1298,-1.77,2048
9,-0.252,-0.811,-0.3286,4.0555,1.0677,-1.69,2043
9,-0.2661,-0.9307,-0.2795,3.9828,1.1015,-1.5503,2042
9,-0.2971,-1.0991,-0.2393,3.7291,1.1601,-1.4106,2039
9,-0.3098,-1.1584,-0.2024,3.5051,1.2433,-1.3464,2037
9,-0.3152,-1.1392,-0.1804,3.3159,1.2936,-1.279,2040
9,-0.3123,-1.1567,-0.1753,3.113,1.2948,-1.1914,2043
9,-0.3142,-1.2217,-0.188,2.9613,1.2877,-1.1234,2049
9,-0.2913,-1.2676,-0.189,2.7432,1.29,-1.0869,2039
9,-0.2854,-1.3535,-0.1614,2.4723,1.2488,-0.9207,2048
9,-0.2527,-1.2622,-0.1677,2.3412,1.1873,-0.9672,2043
9,-0.2812,-1.3496,-0.1052,2.0552,1.1087,-0.8228,2043
9,-0.2925,-1.3779,-0.1174,1.7677,1.0174,-0.7225,2043
9,-0.3066,-1.3149,-0.1477,1.5685,0.9174,-0.6573,2044
9,-0.2947,-1.3667,-0.1655,1.3444,0.7894,-0.5798,2047
9,-0.2725,-1.4143,-0.197,1.119,0.6851,-0.505,2044
9,-0.2825,-1.4485,-0.228,0.8994,0.5793,-0.4494,2045
9,-0.2915,-1.5093,-0.2563,0.6652,0.4657,-0.4153,2043
9,-0.3162,-1.5032,-0.2883,0.4176,0.3982,-0.3812,2043
9,-0.3462,-1.5203,-0.2935,0.1768,0.3738,-0.3741,2052
9,-0.3601,-1.51,-0.3135,-0.0952,0.3959,-0.3558,2042
10,-0.3704,-1.4846,-0.2952,-0.3653,0.4328,-0.3532,2054
10,-0.3455,-1.4314,-0.3103,-0.5898,0.4315,-0.3417,2043
10,-0.3059,-1.3674,-0.2888,-0.7801,0.3417,-0.3151,2043
10,-0.239,-1.3235,-0.2908,-0.9826,0.136,-0.2606,2046
10,-0.179,-1.2461,-0.3066,-1.1259,-0.1288,-0.1846,2042
10,-0.1541,-1.1838,-0.2898,-1.2993,-0.4211,-0.0902,2046
10,-0.1182,-1.114,-0.2637,-1.4683,-0.73,0.0297,2045
10,-0.0889,-1.0671,-0.2188,-1.6563,-1.0214,0.1796,2041
10,-0.0715,-1.1113,-0.1877,-1.837,-1.2934,0.3496,2045
10,-0.0767,-1.2024,-0.1704,-2.0289,-1.5273,0.5216,2047
10,-0.083,-1.2927,-0.1541,-2.2249,-1.7407,0.6799,2039
10,-0.105,-1.426,-0.1375,-2.4345,-1.8937,0.813,2044
10,-0.144,-1.5259,-0.146,-2.6208,-2.0244,0.9275,2043
10,-0.1555,-1.6077,-0.1865,-2.7477,-2.1222,1.0401,2043
10,-0.1641,-1.6509,-0.2036,-2.8229,-2.2177,1.1549,2049
10,-0.1831,-1.6831,-0.2134,-2.8746,-2.2933,1.3244,2045
10,-0.2227,-1.6794,-0.1953,-2.9851,-2.3378,1.501,2048
10,-0.2585,-1.7136,-0.1694,-3.064,-2.3023,1.6673,2047
10,-0.2644,-1.6777,-0.1396,-3.1624,-2.2068,1.7594,2047
10,-0.2827,-1.5986,-0.0867,-3.3552,-2.1542,1.802,2047
10,-0.29,-1.5515,-0.0823,-3.4352,-2.0623,1.8869,2048
10,-0.2815,-1.4265,-0.0552,-3.3784,-1.9789,1.9053,2047
10,-0.2869,-1.3652,-0.0295,-3.5596,-2.0137,2.0533,2045
10,-0.2815,-1.2744,-0.0488,-3.7254,-1.9992,2.1218,2049
10,-0.2583,-1.1689,-0.0237,-3.7576,-1.962,2.1754,2049
10,-0.2158,-1.0701,-0.0251,-3.7498,-1.8538,2.2067,2045
10,-0.2822,-1.0356,-0.0249,-3.8583,-1.7175,2.2345,2045
10,-0.2917,-0.9812,-0.0625,-3.9942,-1.5395,2.2991,2045
10,-0.238,-0.9448,-0.0942,-4.0993,-1.5556,2.388,2044
10,-0.1587,-0.9119,-0.1216,-4.1267,-1.6893,2.4613,2057
10,-0.0781,-0.8677,-0.146,-4.0142,-1.9377,2.4808,2041
10,-0.0767,-0.8245,-0.1746,-3.9755,-2.0964,2.565,2040
10,-0.187,-0.7893,-0.238,-3.9361,-2.1121,2.6096,2050
10,-0.176,-0.7571,-0.3259,-3.7281,-2.179,2.5352,2048
10,-0.1855,-0.7451,-0.385,-3.5503,-2.2842,2.4835,2045
10,-0.2178,-0.7917,-0.4395,-3.3612,-2.4214,2.4543,2046
10,-0.2419,-0.8196,-0.5056,-3.1126,-2.5112,2.4225,2040
10,-0.2993,-0.8552,-0.5835,-2.8476,-2.5089,2.3812,2041
10,-0.3369,-0.8745,-0.647,-2.6016,-2.3991,2.3294,2040
10,-0.3782,-0.863,-0.7256,-2.2981,-2.1774,2.1923,2044
10,-0.4226,-0.8962,-0.7683,-2.021,-1.9261,2.1445,2043
10,-0.4749,-0.9316,-0.8179,-1.6379,-1.608,1.9769,2043
10,-0.5127,-1.0007,-0.8267,-1.2858,-1.2487,1.8345,2046
10,-0.5347,-1.0767,-0.8311,-0.9694,-0.9139,1.7136,2048
10,-0.552,-1.1707,-0.8245,-0.6802,-0.6116,1.5592,2045
10,-0.5479,-1.2361,-0.8069,-0.4099,-0.3203,1.3676,2044
10,-0.5205,-1.2791,-0.7627,-0.181,-0.0501,1.1818,2042
10,-0.4924,-1.2986,-0.6924,0.0093,0.1755,0.9439,2042
10,-0.4558,-1.2891,-0.6108,0.1758,0.4099,0.7384,2043
10,-0.4209,-1.2615,-0.51,0.2876,0.6777,0.5453,2043
10,-0.4043,-1.2175,-0.4229,0.3947,0.9248,0.369,2041
10,-0.3774,-1.1907,-0.3877,0.5153,1.1073,0.2012,2043
10,-0.3591,-1.1836,-0.3699,0.6951,1.1926,0.037,2046
10,-0.345,-1.1455,-0.4019,0.9025,1.1531,-0.1731,2041
10,-0.3694,-1.1243,-0.4507,1.1508,1.0757,-0.4063,2042
10,-0.4053,-1.1418,-0.5098,1.4512,0.997,-0.6047,2053
10,-0.3909,-1.1433,-0.5486,1.7407,0.9483,-0.7883,2044
10,-0.429,-1.1206,-0.5422,1.967,1.0176,-1.0067,2047
10,-0.4395,-1.1055,-0.4617,2.102,1.1431,-1.1444,2050
10,-0.4451,-1.1074,-0.3601,2.1588,1.3179,-1.2364,2044
10,-0.3872,-1.0955,-0.2751,2.177,1.4423,-1.2929,2048
10,-0.3271,-1.0818,-0.2437,2.1873,1.4781,-1.3424,2042
10,-0.2803,-1.1003,-0.2336,2.2455,1.4021,-1.3813,2043
10,-0.2534,-1.136,-0.271,2.3394,1.2432,-1.4763,2042
10,-0.25,-1.2019,-0.3521,2.5322,0.9745,-1.5584,2042
10,-0.2681,-1.2971,-0.4568,2.8233,0.6725,-1.6507,2041
10,-0.313,-1.3896,-0.5513,3.1491,0.3575,-1.7639,2038
10,-0.3809,-1.4712,-0.5996,3.4031,0.1329,-1.9326,2041
10,-0.4138,-1.5105,-0.6123,3.566,0.0024,-2.0319,2043
10,-0.4854,-1.4744,-0.5581,3.6442,0.0565,-2.1166,2046
10,-0.5281,-1.3572,-0.4619,3.6736,0.3271,-2.192,2049
10,-0.5627,-1.2822,-0.3875,3.6809,0.6545,-2.2246,2050
10,-0.5723,-1.2063,-0.2981,3.6166,0.9752,-2.2527,2049
10,-0.5383,-1.124,-0.2563,3.548,1.227,-2.2225,2049
10,-0.4753,-1.0537,-0.2654,3.5212,1.425,-2.1909,2047
10,-0.4111,-0.9683,-0.2642,3.5105,1.5989,-2.2128,2042
10,-0.3606,-0.9033,-0.2637,3.5537,1.6628,-2.1506,2047
10,-0.2959,-0.8611,-0.2449,3.6862,1.6691,-2.0907,2046
10,-0.26,-0.8689,-0.2251,3.7539,1.6126,-2.0248,2061
10,-0.2661,-0.8521,-0.251,3.7791,1.5077,-1.9571,2042
10,-0.2747,-0.8506,-0.249,3.8293,1.4086,-1.9305,2045
10,-0.2556,-0.8752,-0.271,3.7973,1.2597,-1.9032,2045
10,-0.2666,-0.8413,-0.2966,3.7564,1.142,-1.8607,2040
10,-0.2568,-0.8232,-0.3086,3.743,1.0684,-1.8017,2043
10,-0.2698,-0.8342,-0.3098,3.7225,1.0315,-1.705,2044
10,-0.2686,-0.887,-0.2852,3.7242,1.0119,-1.6893,2046
10,-0.2932,-0.9514,-0.2871,3.6097,0.9999,-1.6414,2040
10,-0.3062,-1.0364,-0.269,3.4342,1.0223,-1.551,2041
10,-0.3159,-1.0764,-0.2632,3.2335,1.0753,-1.4644,2039
10,-0.3223,-1.0745,-0.2334,3.05,1.1219,-1.3607,2045
10,-0.3281,-1.0947,-0.2092,2.8636,1.1525,-1.293,2047
10,-0.3425,-1.1516,-0.1841,2.6699,1.1519,-1.1994,2042
10,-0.3499,-1.1768,-0.207,2.5045,1.1218,-1.1328,2041
10,-0.3186,-1.2085,-0.2153,2.3316,1.0769,-1.0931,2041
10,-0.2998,-1.3193,-0.2146,2.1169,0.9614,-0.9127,2041
10,-0.3113,-1.2891,-0.259,1.9743,0.8461,-0.8814,2046
10,-0.3035,-1.3193,-0.2493,1.8812,0.7008,-0.8598,2042
10,-0.3105,-1.4165,-0.2661,1.6912,0.581,-0.751,2042
10,-0.345,-1.4885,-0.2593,1.4018,0.4992,-0.6614,2042
10,-0.3386,-1.5066,-0.2678,1.1493,0.4334,-0.5737,2042
11,-0.3721,-1.5742,-0.2454,0.8869,0.4109,-0.5176,2046
11,-0.3914,-1.585,-0.2612,0.6313,0.4115,-0.4863,2061
11,-0.3867,-1.6042,-0.218,0.3302,0.4161,-0.4505,2045
11,-0.3948,-1.5579,-0.2253,0.0117,0.4123,-0.4124,2045
11,-0.3982,-1.5083,-0.2173,-0.2775,0.4111,-0.3711,2043
11,-0.3882,-1.4033,-0.2358,-0.4975,0.3811,-0.3513,2044
11,-0.3552,-1.3259,-0.2251,-0.7276,0.2579,-0.3037,2045
11,-0.3406,-1.2678,-0.2434,-0.9448,0.1021,-0.2294,2043
11,-0.3157,-1.1938,-0.2678,-1.1131,-0.1053,-0.1527,2042
11,-0.2493,-1.1741,-0.2742,-1.2914,-0.3759,-0.0445,2046
11,-0.1907,-1.144,-0.2634,-1.466,-0.7095,0.0775,2044
11,-0.1594,-1.1128,-0.2612,-1.635,-1.0493,0.2349,2041
11,-0.1436,-1.1008,-0.2327,-1.796,-1.3507,0.4236,2042
11,-0.1338,-1.1257,-0.2063,-1.9674,-1.5977,0.612,2042
11,-0.1182,-1.1929,-0.167,-2.1402,-1.8098,0.7867,2047
11,-0.0957,-1.3152,-0.1553,-2.3176,-2.02,0.9752,2039
11,-0.1304,-1.4604,-0.1177,-2.5169,-2.173,1.1573,2041
11,-0.1414,-1.5693,-0.1194,-2.6931,-2.2983,1.3073,2041
11,-0.1692,-1.6724,-0.1201,-2.8508,-2.3956,1.4763,2042
11,-0.2097,-1.6907,-0.1482,-2.9886,-2.5065,1.6076,2047
11,-0.1912,-1.667,-0.1689,-3.0684,-2.6228,1.6602,2045
11,-0.2048,-1.6873,-0.1685,-3.0742,-2.7247,1.7868,2049
11,-0.2131,-1.594,-0.1562,-3.0909,-2.7903,1.8331,2048
11,-0.239,-1.552,-0.134,-3.1404,-2.8387,1.9269,2044
11,-0.3499,-1.4995,-0.1631,-3.0975,-2.8357,2.0361,2064
11,-0.3428,-1.4077,-0.134,-2.9766,-2.7751,2.0726,2056
11,-0.2739,-1.3391,-0.1025,-3.1032,-2.7853,2.1822,2056
11,-0.3362,-1.2896,-0.1174,-3.2958,-2.5699,2.3266,2046
11,-0.377,-1.1958,-0.1243,-3.3921,-2.3614,2.4278,2047
11,-0.3582,-1.0994,-0.0906,-3.3071,-2.1787,2.4449,2054
11,-0.3816,-1.0659,-0.0903,-3.3212,-2.0028,2.5065,2041
11,-0.3376,-1.0337,-0.115,-3.4797,-1.8198,2.5179,2049
11,-0.2861,-0.9749,-0.1421,-3.5465,-1.6419,2.5582,2044
11,-0.2148,-0.9417,-0.1799,-3.5676,-1.58,2.6645,2041
11,-0.1443,-0.9343,-0.186,-3.5515,-1.6669,2.6954,2046
11,-0.136,-0.8901,-0.208,-3.4886,-1.7358,2.7132,2040
11,-0.1562,-0.8445,-0.2507,-3.452,-1.7879,2.7063,2042
11,-0.1372,-0.8247,-0.3142,-3.3461,-1.8813,2.6446,2043
11,-0.1106,-0.8044,-0.3799,-3.157,-1.9262,2.6137,2045
11,-0.1328,-0.7983,-0.3911,-3.0448,-1.9475,2.6321,2043
11,-0.1729,-0.856,-0.4207,-2.8795,-2.0076,2.6356,2046
11,-0.219,-0.8608,-0.4751,-2.6432,-1.9855,2.5675,2044
11,-0.2412,-0.8767,-0.5388,-2.4051,-1.8787,2.5241,2044
11,-0.2969,-0.9426,-0.6067,-2.1333,-1.7273,2.4558,2042
11,-0.3367,-0.9866,-0.6812,-1.8695,-1.499,2.3878,2042
11,-0.3806,-1.0305,-0.7048,-1.6823,-1.2184,2.3095,2044
11,-0.4219,-1.0498,-0.7566,-1.3958,-0.9363,2.1498,2043
11,-0.4524,-1.0811,-0.772,-1.0898,-0.6375,1.988,2056
11,-0.4944,-1.1211,-0.7625,-0.85,-0.3278,1.7634,2045
11,-0.5051,-1.1689,-0.7412,-0.6094,-0.0662,1.5328,2043
11,-0.4905,-1.2166,-0.6824,-0.3488,0.2119,1.354,2043
11,-0.4717,-1.2708,-0.6086,-0.1483,0.4513,1.1881,2044
11,-0.4636,-1.3181,-0.5156,-0.0253,0.6814,1.0468,2044
11,-0.4346,-1.344,-0.4358,0.0723,0.9018,0.8688,2045
11,-0.4116,-1.365,-0.4141,0.1944,1.0927,0.6866,2043
11,-0.4121,-1.3501,-0.3923,0.3249,1.2295,0.4722,2039
11,-0.4224,-1.3162,-0.4116,0.4866,1.327,0.2276,2045
11,-0.4375,-1.2876,-0.4358,0.7225,1.3519,-0.0003,2047
11,-0.4514,-1.2336,-0.4692,0.9937,1.3239,-0.2502,2041
11,-0.4561,-1.1846,-0.4768,1.2742,1.3085,-0.4801,2043
11,-0.4658,-1.1375,-0.4824,1.5346,1.2975,-0.7183,2050
11,-0.4673,-1.1143,-0.4998,1.747,1.279,-0.9576,2043
11,-0.4751,-1.1152,-0.4636,1.8982,1.2186,-1.1532,2048
11,-0.4602,-1.1255,-0.4392,2.0001,1.1483,-1.3318,2047
11,-0.4355,-1.1128,-0.3784,2.0947,1.1121,-1.4869,2047
11,-0.3901,-1.0789,-0.3325,2.1638,1.0568,-1.6189,2042
11,-0.3267,-1.0459,-0.2991,2.1959,0.9925,-1.7162,2044
11,-0.2783,-1.0383,-0.2861,2.2538,0.8825,-1.7962,2045
11,-0.2285,-1.0852,-0.2966,2.3627,0.7205,-1.8703,2042
11,-0.2083,-1.1318,-0.3459,2.5088,0.4637,-1.9631,2044
11,-0.2209,-1.2241,-0.4294,2.7534,0.1625,-2.0299,2049
11,-0.2581,-1.3308,-0.4893,3.0431,-0.1077,-2.1318,2043
11,-0.2961,-1.4207,-0.5361,3.299,-0.2831,-2.2132,2038
11,-0.335,-1.4937,-0.55,3.4375,-0.339,-2.2451,2043
11,-0.4316,-1.4756,-0.5378,3.5102,-0.283,-2.3304,2047
11,-0.5149,-1.4028,-0.4719,3.5145,0.0084,-2.4559,2044
11,-0.5767,-1.3098,-0.3992,3.4974,0.3922,-2.478,2046
11,-0.6138,-1.2341,-0.3286,3.4958,0.7427,-2.4482,2055
11,-0.5503,-1.1682,-0.2703,3.4484,1.0749,-2.4153,2050
11,-0.5046,-1.1091,-0.2546,3.3552,1.4137,-2.3985,2045
11,-0.4131,-1.012,-0.2432,3.3528,1.659,-2.3585,2044
11,-0.3125,-0.9185,-0.2356,3.4121,1.786,-2.2423,2046
11,-0.2366,-0.8645,-0.2256,3.5155,1.778,-2.1473,2041
11,-0.2026,-0.8567,-0.2231,3.6029,1.6853,-2.0624,2040
11,-0.2205,-0.8767,-0.2351,3.5746,1.5809,-1.9771,2042
11,-0.2454,-0.8291,-0.2573,3.6125,1.4624,-1.908,2046
11,-0.2886,-0.8062,-0.2756,3.6448,1.366,-1.8434,2047
11,-0.3142,-0.7925,-0.2954,3.6689,1.3103,-1.7563,2048
11,-0.3232,-0.8501,-0.3259,3.6455,1.2957,-1.7202,2043
11,-0.3167,-0.8569,-0.3345,3.6711,1.3085,-1.6696,2044
11,-0.2954,-0.9219,-0.3264,3.6077,1.3786,-1.6199,2042
11,-0.3159,-1.0051,-0.3279,3.4957,1.4789,-1.5359,2039
11,-0.3069,-1.04,-0.3013,3.3465,1.5677,-1.4109,2037
11,-0.3301,-1.0325,-0.2695,3.1753,1.5981,-1.3205,2049
11,-0.3367,-1.0405,-0.2278,2.9895,1.6131,-1.2476,2044
11,-0.3411,-1.0554,-0.1997,2.8046,1.5954,-1.1678,2040
11,-0.3613,-1.0828,-0.1665,2.5783,1.5679,-1.1146,2044
11,-0.3469,-1.124,-0.1284,2.3886,1.474,-1.0536,2041
11,-0.3267,-1.1621,-0.1533,2.157,1.3786,-0.9788,2042
11,-0.3257,-1.2073,-0.1404,1.9253,1.2651,-0.925,2041
11,-0.3047,-1.2583,-0.1243,1.7527,1.1535,-0.7614,2039
11,-0.3391,-1.3464,-0.1118,1.4776,1.0688,-0.6574,2036
11,-0.3723,-1.3811,-0.1528,1.2306,0.9838,-0.5261,2041
11,-0.3591,-1.4055,-0.1694,1.0279,0.9068,-0.4224,2044
11,-0.3652,-1.4639,-0.1631,0.7983,0.82,-0.3622,2046
12,-0.3665,-1.4773,-0.208,0.6083,0.7556,-0.3199,2043
12,-0.3726,-1.4634,-0.2285,0.4346,0.7007,-0.2663,2045
12,-0.3813,-1.4822,-0.2295,0.2113,0.6616,-0.2374,2042
12,-0.4023,-1.4263,-0.2654,-0.0035,0.6621,-0.1984,2044
12,-0.4207,-1.408,-0.2625,-0.2008,0.6809,-0.1493,2042
12,-0.4189,-1.3984,-0.2776,-0.3778,0.6618,-0.1189,2047
12,-0.4067,-1.3894,-0.2583,-0.6006,0.5762,-0.0816,2049
12,-0.3772,-1.3721,-0.2864,-0.746,0.4767,-0.0474,2043
12,-0.3447,-1.364,-0.2437,-0.9131,0.3044,0.0017,2045
12,-0.3083,-1.3464,-0.207,-1.1047,0.0145,0.0704,2049
12,-0.2476,-1.3433,-0.1455,-1.3093,-0.3714,0.1653,2048
12,-0.1868,-1.3474,-0.0515,-1.5687,-0.8292,0.3489,2043
12,-0.2004,-1.3589,0.031,-2.0383,-1.3267,0.6312,2049
12,-0.1882,-1.314,0.106,-2.424,-1.7375,0.7766,2043
12,-0.1865,-1.3362,0.1709,-2.748,-2.1024,0.9754,2051
12,-0.1963,-1.4585,0.2148,-3.0123,-2.4663,1.1348,2051
12,-0.2202,-1.6157,0.2537,-3.2626,-2.7916,1.2756,2043
12,-0.2329,-1.7502,0.22,-3.4663,-3.1356,1.3444,2040
12,-0.2351,-1.8628,0.1475,-3.4712,-3.4995,1.3474,2040
12,-0.2205,-1.9326,0.0835,-3.4753,-3.9008,1.3557,2034
12,-0.2197,-1.9619,-0.0078,-3.5222,-4.1916,1.4222,2032
12,-0.248,-1.9397,-0.0671,-3.5059,-4.2256,1.5054,2035
12,-0.2861,-1.8872,-0.0566,-3.5051,-4.0479,1.6475,2046
12,-0.3345,-1.7996,-0.0471,-3.5395,-3.6454,1.7638,2050
12,-0.4028,-1.7075,-0.0615,-3.5435,-3.1556,1.8932,2061
12,-0.4124,-1.6238,-0.0632,-3.5264,-2.7288,2.1189,2066
12,-0.437,-1.4978,-0.0732,-3.556,-2.4003,2.2614,2059
12,-0.384,-1.2854,-0.1055,-3.6545,-2.2047,2.2875,2050
12,-0.3569,-1.0964,-0.1013,-3.7422,-2.0329,2.4242,2053
12,-0.345,-0.9375,-0.0737,-3.8214,-1.9073,2.3752,2048
12,-0.3486,-0.803,-0.1135,-3.7868,-1.7819,2.279,2040
12,-0.2942,-0.7078,-0.1392,-3.7281,-1.6155,2.231,2047
12,-0.1975,-0.6416,-0.1638,-3.7704,-1.546,2.2407,2065
12,-0.1174,-0.5698,-0.1968,-3.7829,-1.5214,2.2164,2037
12,-0.0964,-0.4912,-0.2417,-3.6957,-1.5191,2.1574,2042
12,-0.0645,-0.4392,-0.2527,-3.5499,-1.593,2.1341,2039
12,-0.009,-0.3596,-0.292,-3.4339,-1.6704,2.0494,2043
12,0.0918,-0.2136,-0.3032,-3.3235,-1.6503,1.8176,2048
12,0.1416,-0.2261,-0.3853,-3.1568,-1.8856,1.8785,2039
12,0.0579,-0.2988,-0.4719,-2.8496,-2.2039,1.8584,2041
12,0.0068,-0.2593,-0.5278,-2.5009,-2.3993,1.656,2037
12,0.0312,-0.2971,-0.5583,-2.1836,-2.4558,1.5998,2045
12,0.0271,-0.4419,-0.6177,-2.0256,-2.5745,1.6604,2071
12,-0.062,-0.552,-0.6929,-1.9253,-2.5725,1.5825,2066
12,-0.1355,-0.6194,-0.7966,-1.662,-2.483,1.3792,1987
12,-0.2424,-0.7188,-0.8699,-1.4701,-2.3522,1.1275,1991
12,-0.363,-0.866,-0.9353,-1.2914,-2.2655,0.8726,2027
12,-0.4575,-1.0527,-1.0056,-1.2588,-2.169,0.6441,2038
12,-0.4744,-1.2273,-1.0977,-1.2793,-1.9403,0.4944,2026
12,-0.481,-1.3892,-1.1741,-1.2825,-1.3242,0.4432,2036
12,-0.4927,-1.47,-1.1501,-1.3579,-0.6534,0.3926,1979
12,-0.5137,-1.4839,-1.0898,-1.3711,-0.2421,0.2682,2019
12,-0.5063,-1.449,-1.0479,-1.3185,-0.0483,0.0667,2050
12,-0.4475,-1.4292,-1.1067,-1.1989,0.0048,-0.1529,2055
12,-0.4392,-1.4675,-1.1519,-1.1937,0.0633,-0.3284,2042
12,-0.521,-1.4832,-1.1543,-1.2424,0.2495,-0.4127,2066
12,-0.6587,-1.429,-1.0664,-1.3528,0.441,-0.479,2056
12,-0.7878,-1.2844,-1.0464,-1.4527,0.6794,-0.5252,2035
12,-0.7886,-1.2395,-1.0588,-1.5956,0.9721,-0.5478,2070
12,-0.7898,-1.2217,-1.1245,-1.6639,1.1692,-0.5811,2046
12,-0.7698,-1.2244,-1.1396,-1.6101,1.2182,-0.547,2048
12,-0.7126,-1.2207,-1.0691,-1.5287,1.3018,-0.5926,2040
12,-0.6692,-1.1931,-0.8628,-1.5904,1.5012,-0.5755,2049
12,-0.6606,-1.1311,-0.6497,-1.7459,1.5817,-0.5113,2047
12,-0.6328,-1.1433,-0.54,-1.9485,1.5028,-0.2159,2053
12,-0.541,-1.1494,-0.4351,-2.1921,1.2845,-0.018,2035
12,-0.4438,-0.9363,-0.3291,-2.2796,0.8435,0.084,2023
12,-0.4697,-0.801,-0.3081,-2.1284,0.2911,0.2702,2035
12,-0.6936,-0.8594,-0.3359,-1.9065,-0.1405,0.4187,2090
12,-0.7993,-0.8401,-0.4478,-1.4965,-0.3812,0.54,1961
12,-0.8115,-0.7798,-0.5498,-1.0144,-0.365,0.6597,2062
12,-0.8181,-0.7312,-0.626,-0.3017,-0.0479,0.7186,2043
12,-0.8137,-0.7878,-0.7065,0.3836,0.2543,0.7576,2052
12,-0.8826,-0.7781,-0.751,0.9865,0.3185,0.6987,2064
12,-0.8857,-0.8047,-0.7173,1.2809,0.3209,0.6656,2057
12,-0.7092,-0.8909,-0.7891,1.4613,0.2814,0.6711,2069
12,-0.6428,-0.9241,-0.8945,1.3624,0.2647,0.6914,2007
12,-0.6582,-0.8164,-0.8552,1.1809,0.2854,0.6861,2084
12,-0.6399,-0.7178,-0.7915,1.075,0.2484,0.6562,2066
12,-0.5972,-0.6143,-0.7322,1.0263,0.142,0.6313,2038
12,-0.5457,-0.509,-0.7161,0.9745,0.0971,0.5948,2038
12,-0.5181,-0.4297,-0.6951,0.8465,0.1242,0.5147,2031
12,-0.4885,-0.365,-0.657,0.6954,0.1751,0.4309,2023
12,-0.4512,-0.3159,-0.573,0.6008,0.2004,0.3302,2054
12,-0.4197,-0.3057,-0.5444,0.5128,0.1887,0.2365,2002
12,-0.3892,-0.3003,-0.5129,0.3657,0.1747,0.1296,2052
12,-0.366,-0.283,-0.5088,0.1818,0.1784,0.0205,1999
12,-0.3535,-0.2815,-0.5171,-0.0005,0.1254,-0.0766,2057
12,-0.3354,-0.2791,-0.4995,-0.1428,0.1322,-0.1806,2017
12,-0.3384,-0.22,-0.4719,-0.2285,0.2185,-0.3059,2040
12,-0.3701,-0.1619,-0.4338,-0.1772,0.3284,-0.39,2074
12,-0.3777,-0.1658,-0.4099,-0.1032,0.4255,-0.4328,2028
12,-0.3784,-0.1931,-0.4463,0.0166,0.4631,-0.4706,2073
12,-0.3682,-0.2131,-0.5122,0.0952,0.4553,-0.5135,2101
12,-0.3867,-0.2502,-0.553,0.0803,0.4739,-0.5601,2053
12,-0.396,-0.2847,-0.5642,0.0875,0.5079,-0.5865,2061
12,-0.4172,-0.3447,-0.626,0.0984,0.4773,-0.5613,2040
12,-0.4104,-0.4087,-0.7222,0.0898,0.3791,-0.5015,2076
12,-0.4414,-0.4868,-0.814,0.0766,0.2859,-0.3922,2005
12,-0.4851,-0.5864,-0.9001,0.0218,0.2372,-0.2329,2051
13,-0.5464,-0.6807,-1.0032,0.0509,0.2899,-0.073,2050
13,-0.6453,-0.7427,-1.0667,0.1716,0.4542,0.1008,2053
13,-0.7239,-0.7812,-1.1445,0.3661,0.7425,0.3251,2038
13,-0.7627,-0.8501,-1.2026,0.5923,1.0124,0.5177,2097
13,-0.7822,-0.928,-1.2642,0.8166,1.1681,0.6622,2056
13,-0.8223,-0.969,-1.2644,1.0138,1.2063,0.7613,2016
13,-0.8835,-1.0325,-1.2395,1.0859,1.2469,0.8468,2042
13,-0.947,-1.0728,-1.2134,1.1118,1.3042,0.9275,2065
13,-0.9844,-1.0867,-1.1899,1.0906,1.3055,1.0234,2076
13,-1.0085,-1.0249,-1.168,1.0455,1.2375,1.089,2045
13,-1.0583,-0.9736,-1.1421,1.0079,1.2255,1.1148,2146
13,-1.0549,-0.9189,-1.1018,0.9834,1.1765,1.0882,2074
13,-1.0608,-0.8062,-1.0671,1.0066,1.1407,1.0369,2058
13,-1.0647,-0.748,-1.0342,0.9746,1.0744,1.0067,2044
13,-1.0154,-0.7249,-1.0137,0.8738,0.9131,0.9804,2051
13,-1.0007,-0.6123,-0.9497,0.8144,0.6898,0.8688,2040
13,-0.8806,-0.6228,-0.8464,0.7076,0.4196,0.7553,2039
13,-0.7844,-0.6045,-0.7258,0.5899,0.1093,0.6725,2043
13,-0.7302,-0.5837,-0.6594,0.4401,-0.2044,0.6401,2036
13,-0.7222,-0.5618,-0.6541,0.2478,-0.5666,0.5942,2032
13,-0.7068,-0.5366,-0.7061,0.0831,-0.8859,0.5155,2032
13,-0.6882,-0.5083,-0.8018,-0.0036,-1.1306,0.3751,2031
13,-0.6794,-0.5066,-0.9382,-0.006,-1.2983,0.2292,2058
13,-0.6521,-0.5012,-1.0884,0.0419,-1.3929,0.0819,2054
13,-0.6477,-0.5056,-1.2136,0.1164,-1.4854,-0.0229,2060
13,-0.6519,-0.5403,-1.271,0.1693,-1.5625,-0.0483,2079
13,-0.6541,-0.5896,-1.3135,0.2117,-1.5921,-0.0895,2070
13,-0.6074,-0.6301,-1.2764,0.1892,-1.5861,-0.0866,2033
13,-0.5962,-0.677,-1.241,0.0639,-1.5932,-0.0495,2042
13,-0.5549,-0.6819,-1.1995,-0.1159,-1.6126,0.0129,2039
13,-0.4897,-0.6951,-1.1377,-0.3089,-1.576,0.0653,2034
13,-0.446,-0.6707,-1.0728,-0.539,-1.5135,0.1241,2034
13,-0.3953,-0.6416,-1.0054,-0.7331,-1.4801,0.1483,2036
13,-0.3809,-0.5881,-0.9441,-0.8625,-1.4659,0.1265,2033
13,-0.373,-0.53,-0.8774,-0.9215,-1.4483,0.1244,2030
13,-0.344,-0.4617,-0.7993,-0.9243,-1.4025,0.1443,2037
13,-0.2983,-0.4365,-0.7393,-0.9083,-1.3624,0.163,2040
13,-0.2893,-0.439,-0.678,-0.8436,-1.3326,0.191,2033
13,-0.3035,-0.4482,-0.6353,-0.7508,-1.3363,0.2314,2041
13,-0.3035,-0.499,-0.6074,-0.6196,-1.3516,0.2971,2042
13,-0.3154,-0.5332,-0.5845,-0.5341,-1.3623,0.4093,2046
13,-0.3262,-0.5818,-0.5647,-0.479,-1.319,0.5397,2041
13,-0.3269,-0.6189,-0.5713,-0.4179,-1.1947,0.6751,2040
13,-0.3728,-0.6638,-0.5603,-0.385,-1.02,0.8108,2041
13,-0.4319,-0.6489,-0.5759,-0.3803,-0.853,0.8854,2043
13,-0.4827,-0.6157,-0.5757,-0.3613,-0.6899,0.9196,2040
13,-0.5085,-0.606,-0.6084,-0.3211,-0.5312,0.9211,2043
13,-0.5039,-0.6245,-0.6785,-0.2156,-0.3729,0.868,2042
13,-0.4917,-0.6531,-0.7395,-0.0438,-0.2494,0.7783,2043
13,-0.4797,-0.6726,-0.7722,0.1439,-0.149,0.6512,2054
13,-0.4998,-0.7,-0.8005,0.3647,-0.0463,0.5016,2048
13,-0.5303,-0.718,-0.8188,0.5939,0.0149,0.3374,2047
13,-0.561,-0.7385,-0.8337,0.8437,0.0549,0.1784,2047
13,-0.6018,-0.7661,-0.8513,1.0797,0.1149,0.0149,2047
13,-0.624,-0.7986,-0.8672,1.3033,0.1906,-0.1651,2045
13,-0.6716,-0.8337,-0.875,1.541,0.2583,-0.367,2043
13,-0.7065,-0.8672,-0.9272,1.8082,0.3658,-0.5691,2043
13,-0.7256,-0.9023,-0.9307,2.1324,0.4765,-0.7791,2047
13,-0.7654,-0.9128,-0.9199,2.4678,0.6004,-0.9821,2045
13,-0.7676,-0.9121,-0.8899,2.8064,0.7043,-1.226,2044
13,-0.771,-0.9304,-0.8557,3.1598,0.8472,-1.4525,2048
13,-0.7534,-0.9941,-0.825,3.5544,0.9821,-1.6311,2043
13,-0.7327,-1.0154,-0.7754,3.8583,1.1187,-1.8399,2044
13,-0.7034,-1.0398,-0.7188,4.0727,1.2158,-1.9872,2040
13,-0.6604,-1.0818,-0.7,4.3353,1.2708,-2.0948,2042
13,-0.6716,-1.1125,-0.678,4.3634,1.3412,-2.2515,2046
13,-0.6201,-1.1382,-0.6331,4.3634,1.3579,-2.4063,2043
13,-0.6108,-1.1348,-0.5623,4.3634,1.3271,-2.4864,2041
13,-0.6016,-1.2117,-0.4028,4.3634,1.2909,-2.6192,2042
13,-0.4966,-1.2449,-0.2593,4.3634,1.2288,-2.5334,2044
13,-0.418,-1.3113,-0.1484,4.3634,1.0906,-2.4602,2045
13,-0.3691,-1.4192,-0.0208,4.3634,1.0516,-2.2418,2047
13,-0.322,-1.5166,0.0454,4.3463,0.9974,-2.0813,2045
13,-0.3169,-1.5457,0.0569,4.213,0.9914,-2.0277,2039
13,-0.2686,-1.6155,0.0427,4.137,0.972,-1.9638,2055
13,-0.2578,-1.679,-0.0129,4.2801,0.8122,-1.8322,2045
13,-0.2786,-1.7522,-0.0244,4.3634,0.6858,-1.7915,2039
13,-0.3013,-1.7954,0.0203,4.3634,0.7016,-1.7424,2041
13,-0.3865,-1.74,0.0808,4.3634,1.0162,-1.5992,2038
13,-0.4465,-1.7612,0.1821,3.9404,1.3331,-1.6981,2048
13,-0.4272,-1.709,0.2148,3.5378,1.7667,-1.7801,2047
13,-0.4204,-1.5681,0.2307,3.178,2.1346,-1.7511,2045
13,-0.3391,-1.3782,0.2168,2.8927,2.355,-1.6026,2040
13,-0.1897,-1.1562,0.1504,2.6806,2.3682,-1.3334,2045
13,-0.1169,-1.0251,0.0674,2.5352,2.2248,-1.0794,2043
13,-0.1062,-0.9607,-0.01,2.4333,2.0001,-0.8851,2040
13,-0.1143,-0.9087,-0.0667,2.3396,1.7275,-0.7629,2040
13,-0.1084,-0.8584,-0.1294,2.2409,1.4676,-0.6412,2041
13,-0.1216,-0.8311,-0.1482,2.1522,1.2663,-0.5809,2043
13,-0.1768,-0.8154,-0.208,2.0076,1.1748,-0.5734,2046
13,-0.2043,-0.7859,-0.2642,1.9437,1.0602,-0.5769,2046
13,-0.2087,-0.7527,-0.321,1.8831,0.9733,-0.6071,2047
13,-0.2034,-0.7546,-0.3767,1.8081,0.8963,-0.6279,2047
13,-0.1943,-0.7693,-0.4285,1.7739,0.8023,-0.6269,2047
13,-0.2161,-0.752,-0.4753,1.7406,0.689,-0.5932,2042
13,-0.2324,-0.7783,-0.4966,1.7109,0.5958,-0.6556,2056
13,-0.2532,-0.79,-0.5317,1.6595,0.5012,-0.6715,2044
13,-0.2703,-0.7966,-0.5388,1.5892,0.4207,-0.6887,2044
13,-0.2974,-0.8113,-0.5242,1.4862,0.3976,-0.6835,2047
13,-0.3396,-0.8369,-0.499,1.3766,0.4377,-0.6532,2044
13,-0.3477,-0.8577,-0.4304,1.266,0.5044,-0.6414,2046
13,-0.3684,-0.9048,-0.3684,1.0989,0.6055,-0.6027,2040
13,-0.3782,-0.9546,-0.3027,0.9428,0.6815,-0.5161,2045
14,-0.385,-1.0161,-0.2429,0.7259,0.7581,-0.4532,2047
14,-0.373,-1.0393,-0.2185,0.5971,0.814,-0.3983,2045
14,-0.3718,-1.116,-0.1912,0.4717,0.8047,-0.3357,2041
14,-0.3804,-1.1797,-0.1965,0.3787,0.7352,-0.2978,2045
14,-0.3987,-1.2825,-0.2212,0.2956,0.6147,-0.3091,2043
14,-0.3911,-1.3306,-0.2708,0.3125,0.4189,-0.3414,2045
14,-0.4294,-1.4075,-0.3044,0.2533,0.2039,-0.4171,2042
14,-0.4648,-1.4158,-0.3176,0.1475,0.026,-0.4713,2044
14,-0.4944,-1.3906,-0.3037,0.0297,-0.1069,-0.4875,2042
14,-0.5095,-1.3691,-0.2791,-0.1225,-0.1639,-0.5043,2045
14,-0.5115,-1.3899,-0.21,-0.347,-0.1518,-0.4777,2045
14,-0.5251,-1.4443,-0.167,-0.6473,-0.1067,-0.3999,2046
14,-0.5024,-1.3616,-0.1492,-0.9176,-0.1241,-0.3294,2041
14,-0.46,-1.3315,-0.1531,-1.0885,-0.2013,-0.2847,2041
14,-0.397,-1.2908,-0.2085,-1.1902,-0.3735,-0.2559,2042
14,-0.3752,-1.2354,-0.2507,-1.2463,-0.5818,-0.2318,2050
14,-0.342,-1.1921,-0.2903,-1.2998,-0.8379,-0.227,2046
14,-0.3147,-1.1409,-0.3198,-1.3384,-1.1415,-0.2131,2044
14,-0.2915,-1.0769,-0.3252,-1.3857,-1.4653,-0.1775,2041
14,-0.2517,-1.0308,-0.3662,-1.4379,-1.7464,-0.0973,2045
14,-0.2239,-1.0332,-0.3706,-1.4929,-1.9635,0.0225,2042
14,-0.2183,-1.0813,-0.3896,-1.5498,-2.2057,0.1626,2046
14,-0.2168,-1.1807,-0.4124,-1.5864,-2.4358,0.3176,2044
14,-0.2224,-1.2722,-0.4058,-1.6314,-2.5995,0.4595,2046
14,-0.2568,-1.4207,-0.4014,-1.7229,-2.6594,0.5825,2045
14,-0.2822,-1.55,-0.4292,-1.7852,-2.6496,0.6793,2047
14,-0.2993,-1.625,-0.4568,-1.7263,-2.6187,0.7528,2049
14,-0.2537,-1.7126,-0.4336,-1.6193,-2.6075,0.8114,2045
14,-0.2214,-1.7585,-0.4075,-1.6383,-2.5908,0.981,2048
14,-0.2078,-1.7715,-0.342,-1.5942,-2.5016,1.1639,2054
14,-0.2373,-1.7778,-0.2271,-1.6965,-2.3505,1.3727,2046
14,-0.2366,-1.801,-0.0955,-1.961,-2.1646,1.5536,2044
14,-0.2397,-1.7622,-0.0349,-2.1927,-1.9666,1.6719,2047
14,-0.2463,-1.6711,0.0298,-2.481,-1.8145,1.7,2024
14,-0.2256,-1.5403,0.0662,-2.7607,-1.6283,1.7942,2032
14,-0.1792,-1.3972,0.1096,-2.9684,-1.4672,1.8654,2037
14,-0.1533,-1.2917,0.1411,-3.1618,-1.3813,1.9675,2042
14,-0.1594,-1.2283,0.1499,-3.2789,-1.3527,2.0413,2047
14,-0.1741,-1.1541,0.1631,-3.4829,-1.3094,2.088,2050
14,-0.1421,-1.0718,0.1379,-3.6612,-1.2838,2.1614,2047
14,-0.071,-1.0029,0.1243,-3.7366,-1.3122,2.2261,2049
14,-0.0715,-0.9829,0.0886,-3.8317,-1.3424,2.3157,2051
14,-0.0427,-0.9341,0.0393,-3.8568,-1.47,2.3716,2047
14,-0.0544,-0.9177,-0.0015,-3.8835,-1.6032,2.4168,2044
14,-0.0415,-0.8918,-0.0598,-3.9004,-1.8049,2.4265,2045
14,-0.0398,-0.9092,-0.1538,-3.8764,-1.9979,2.5252,2047
14,-0.1638,-0.9255,-0.2256,-3.8428,-2.0449,2.6486,2046
14,-0.2725,-0.8855,-0.3403,-3.73,-2.0418,2.6618,2043
14,-0.2498,-0.8662,-0.4275,-3.4825,-2.0386,2.5972,2046
14,-0.2964,-0.9202,-0.5264,-3.2364,-1.9635,2.5782,2043
14,-0.3665,-0.9758,-0.6035,-3.0139,-1.7913,2.5076,2044
14,-0.4148,-0.9983,-0.7009,-2.75,-1.5648,2.4104,2045
14,-0.4426,-1.0229,-0.7183,-2.5842,-1.2745,2.3232,2045
14,-0.4856,-1.0173,-0.7795,-2.3661,-0.9556,2.176,2042
14,-0.51,-1.0322,-0.7908,-2.0249,-0.6397,2.0365,2043
14,-0.5234,-1.052,-0.7681,-1.7404,-0.3051,1.911,2046
14,-0.5359,-1.0784,-0.7437,-1.5119,-0.0117,1.7233,2042
14,-0.519,-1.1099,-0.7156,-1.2517,0.1561,1.5543,2043
14,-0.5029,-1.1445,-0.6953,-0.9808,0.2693,1.3813,2046
14,-0.4785,-1.1531,-0.6724,-0.771,0.3751,1.2043,2041
14,-0.4856,-1.136,-0.635,-0.6104,0.4858,1.0142,2042
14,-0.4937,-1.1042,-0.5874,-0.4569,0.651,0.8208,2045
14,-0.48,-1.052,-0.5537,-0.2229,0.7681,0.6119,2044
14,-0.467,-1.0391,-0.5288,0.004,0.8224,0.4357,2042
14,-0.4617,-1.0266,-0.5347,0.2324,0.7865,0.2253,2043
14,-0.4714,-1.002,-0.5642,0.477,0.7367,0.0132,2044
14,-0.4851,-0.9668,-0.6162,0.7472,0.7038,-0.1802,2044
14,-0.5059,-0.9104,-0.6824,1.0477,0.6942,-0.4016,2040
14,-0.5347,-0.8943,-0.7261,1.3804,0.7178,-0.6299,2049
14,-0.5737,-0.8694,-0.7417,1.7181,0.7825,-0.851,2043
14,-0.5935,-0.8938,-0.7273,1.9836,0.8829,-1.0709,2045
14,-0.5774,-0.9189,-0.7166,2.2523,0.9965,-1.2315,2047
14,-0.5735,-0.9373,-0.6492,2.4868,1.1307,-1.3865,2049
14,-0.5503,-0.9314,-0.5713,2.6334,1.2733,-1.4981,2045
14,-0.5144,-0.9131,-0.498,2.7542,1.3692,-1.5793,2046
14,-0.45,-0.9099,-0.4629,2.9024,1.376,-1.6506,2043
14,-0.4043,-0.95,-0.4658,3.093,1.291,-1.7038,2043
14,-0.3833,-0.9836,-0.4634,3.3176,1.154,-1.7658,2044
14,-0.3691,-1.0762,-0.498,3.5813,0.9561,-1.7567,2047
14,-0.3774,-1.1865,-0.5225,3.8464,0.763,-1.752,2045
14,-0.3784,-1.311,-0.5352,4.1076,0.6104,-1.7494,2046
14,-0.4241,-1.3896,-0.4871,4.2736,0.5578,-1.8058,2044
14,-0.4614,-1.4067,-0.405,4.2796,0.6967,-1.8245,2045
14,-0.4885,-1.3674,-0.2915,4.1937,0.9693,-1.8164,2043
14,-0.4973,-1.3174,-0.2095,4.1389,1.2619,-1.7877,2055
14,-0.4905,-1.2585,-0.1169,3.9487,1.545,-1.7619,2043
14,-0.4502,-1.1084,-0.0955,3.837,1.7499,-1.7128,2040
14,-0.4089,-1.05,-0.0881,3.799,1.9339,-1.7747,2045
14,-0.3411,-1.0027,-0.0938,3.7848,1.982,-1.7769,2047
14,-0.2854,-0.9724,-0.1067,3.7572,1.9339,-1.7093,2046
14,-0.2446,-0.9451,-0.1284,3.6123,1.7966,-1.5747,2042
14,-0.2041,-0.8667,-0.1746,3.5969,1.6386,-1.4577,2043
14,-0.1523,-0.8206,-0.1943,3.6434,1.4165,-1.3736,2045
14,-0.1694,-0.8418,-0.2161,3.6438,1.2437,-1.2808,2047
14,-0.1497,-0.8804,-0.2256,3.6431,1.0066,-1.2246,2043
14,-0.2004,-0.9111,-0.2424,3.6278,0.8416,-1.1403,2044
14,-0.2324,-0.9917,-0.2883,3.5671,0.7518,-1.12,2041
14,-0.2244,-1.0569,-0.2966,3.4632,0.6818,-1.1292,2047
14,-0.2395,-1.1077,-0.3257,3.2874,0.6541,-1.077,2046
14,-0.2415,-1.1687,-0.3389,3.1511,0.6737,-1.0974,2049
14,-0.28,-1.2368,-0.3655,2.9344,0.7272,-1.0773,2057
14,-0.3049,-1.241,-0.374,2.8051,0.7813,-0.9997,2035
14,-0.2971,-1.25,-0.3418,2.6326,0.8456,-0.9774,2044
15,-0.2859,-1.2134,-0.3242,2.5575,0.8933,-0.9504,2045
15,-0.3049,-1.207,-0.3108,2.4222,0.8756,-0.8838,2042
15,-0.2883,-1.1814,-0.2849,2.3341,0.8367,-0.8862,2043
15,-0.3049,-1.1763,-0.2544,2.1952,0.7987,-0.8352,2043
15,-0.2778,-1.1787,-0.2388,2.0236,0.7685,-0.8212,2046
15,-0.2878,-1.1758,-0.2446,1.8865,0.7007,-0.7827,2054
15,-0.2896,-1.2666,-0.27,1.7078,0.6201,-0.7076,2043
15,-0.325,-1.3674,-0.2695,1.4731,0.5569,-0.6524,2041
15,-0.343,-1.3538,-0.3198,1.294,0.5071,-0.6232,2049
15,-0.343,-1.3342,-0.3428,1.1469,0.459,-0.6285,2052
15,-0.342,-1.386,-0.3469,0.9955,0.4207,-0.6019,2040
15,-0.3616,-1.3933,-0.3481,0.8261,0.3926,-0.5964,2037
15,-0.3662,-1.3909,-0.3638,0.6629,0.401,-0.6008,2039
15,-0.3892,-1.3838,-0.375,0.4365,0.4089,-0.5545,2071
15,-0.3723,-1.3816,-0.3201,0.2003,0.4007,-0.5542,2039
15,-0.3716,-1.2979,-0.3389,-0.0522,0.3971,-0.5228,2041
15,-0.345,-1.2166,-0.3081,-0.2499,0.3598,-0.4927,2039
15,-0.3103,-1.1589,-0.2803,-0.4582,0.267,-0.4259,2040
15,-0.2573,-1.1028,-0.2661,-0.6299,0.1081,-0.3562,2045
15,-0.2107,-1.0813,-0.2598,-0.823,-0.1601,-0.2836,2047
15,-0.1599,-1.1006,-0.2668,-0.9933,-0.4723,-0.1594,2046
15,-0.1177,-1.1155,-0.2566,-1.1786,-0.8264,-0.0314,2049
15,-0.1001,-1.1414,-0.2439,-1.3468,-1.1917,0.1075,2041
15,-0.0911,-1.1956,-0.2417,-1.5038,-1.5352,0.2606,2045
15,-0.1003,-1.3206,-0.2375,-1.668,-1.8371,0.4111,2038
15,-0.1243,-1.4668,-0.2292,-1.851,-2.0423,0.5637,2049
15,-0.1453,-1.5774,-0.2319,-2.0249,-2.1921,0.6845,2043
15,-0.1565,-1.6719,-0.2339,-2.1842,-2.3057,0.7834,2045
15,-0.1689,-1.7122,-0.2358,-2.3095,-2.4128,0.8787,2046
15,-0.1719,-1.7239,-0.2351,-2.3842,-2.5051,0.9773,2038
15,-0.1562,-1.7034,-0.2117,-2.4203,-2.6159,1.1078,2049
15,-0.1753,-1.6907,-0.1865,-2.4884,-2.7095,1.2641,2047
15,-0.2202,-1.6665,-0.1633,-2.5254,-2.6955,1.48,2044
15,-0.3157,-1.6729,-0.1133,-2.7312,-2.5526,1.7295,2045
15,-0.2947,-1.5999,-0.0708,-2.9738,-2.4007,1.7905,2045
15,-0.2651,-1.4714,-0.0315,-3.1877,-2.2648,1.8773,2045
15,-0.2859,-1.3784,-0.001,-3.3553,-2.0853,1.9623,2041
15,-0.2937,-1.2686,0.0139,-3.5107,-1.9032,2.0373,2046
15,-0.2808,-1.1682,-0.0061,-3.6191,-1.7579,2.1281,2049
15,-0.2515,-1.0867,-0.0076,-3.6749,-1.6482,2.1807,2046
15,-0.238,-1.0149,-0.0195,-3.7709,-1.5724,2.2304,2049
15,-0.1826,-0.9915,-0.0291,-3.809,-1.5414,2.2997,2046
15,-0.1379,-0.9248,-0.0569,-3.8736,-1.5504,2.3622,2046
15,-0.116,-0.8806,-0.1011,-3.9032,-1.6056,2.4292,2044
15,-0.0837,-0.8608,-0.1301,-3.9121,-1.6916,2.4824,2046
15,-0.0864,-0.8535,-0.1597,-3.8813,-1.8093,2.5658,2049
15,-0.1177,-0.8635,-0.1604,-3.9149,-1.8967,2.6698,2046
15,-0.1709,-0.8215,-0.2112,-3.9387,-1.945,2.6734,2042
15,-0.1858,-0.7869,-0.2925,-3.7998,-1.9835,2.6819,2059
15,-0.2161,-0.7766,-0.3757,-3.6288,-1.9988,2.6243,2044
15,-0.2524,-0.7771,-0.4937,-3.3844,-2.0706,2.5392,2040
15,-0.2666,-0.8259,-0.5449,-3.1368,-2.0792,2.4911,2043
15,-0.3025,-0.8716,-0.6257,-2.9588,-2.0884,2.4133,2040
15,-0.3457,-0.8933,-0.7336,-2.5464,-2.0458,2.3141,2041
15,-0.377,-0.9556,-0.783,-2.1767,-1.931,2.2276,2040
15,-0.4309,-1.0112,-0.8145,-1.874,-1.6692,2.0956,2040
15,-0.4692,-1.0603,-0.8191,-1.5946,-1.3737,1.9638,2044
15,-0.519,-1.0962,-0.8296,-1.2944,-1.0287,1.8113,2046
15,-0.5332,-1.1497,-0.8179,-0.979,-0.6779,1.6651,2047
15,-0.5535,-1.219,-0.7773,-0.7035,-0.3356,1.5106,2043
15,-0.5762,-1.2744,-0.7454,-0.4679,0.0128,1.327,2044
15,-0.5527,-1.3147,-0.6904,-0.2876,0.2661,1.1513,2045
15,-0.5225,-1.314,-0.6453,-0.1312,0.4753,0.963,2046
15,-0.51,-1.2808,-0.6047,0.0033,0.6368,0.7371,2043
15,-0.5034,-1.2271,-0.5479,0.1439,0.7937,0.5244,2042
15,-0.5032,-1.2,-0.4954,0.2811,0.925,0.3297,2048
15,-0.491,-1.2046,-0.4973,0.4549,0.974,0.1148,2046
15,-0.499,-1.241,-0.5291,0.7271,0.9905,-0.1305,2045
15,-0.5134,-1.2642,-0.5754,1.052,0.9267,-0.3919,2042
15,-0.5205,-1.2239,-0.5996,1.3041,0.8316,-0.7022,2044
15,-0.5237,-1.1802,-0.6106,1.5371,0.7858,-0.9388,2042
15,-0.5371,-1.1431,-0.5549,1.7576,0.7951,-1.1549,2060
15,-0.5264,-1.1169,-0.48,1.9098,0.8411,-1.34,2045
15,-0.4492,-1.0994,-0.384,1.988,0.8313,-1.4717,2044
15,-0.3733,-1.0635,-0.2854,1.9953,0.7814,-1.537,2043
15,-0.3132,-1.0393,-0.2395,1.9856,0.7604,-1.5669,2046
15,-0.2732,-1.0327,-0.2173,1.9783,0.7384,-1.5688,2044
15,-0.2329,-1.0671,-0.2168,1.9975,0.7196,-1.511,2043
15,-0.2461,-1.1008,-0.261,2.0925,0.6757,-1.5318,2046
15,-0.2632,-1.1628,-0.3269,2.22,0.6185,-1.5295,2044
15,-0.2722,-1.2212,-0.3994,2.4149,0.5386,-1.5783,2040
15,-0.2849,-1.2651,-0.4717,2.6239,0.4249,-1.636,2043
15,-0.2947,-1.3035,-0.5012,2.8268,0.3176,-1.6317,2047
15,-0.3384,-1.2671,-0.5193,2.9462,0.2858,-1.7563,2049
15,-0.3926,-1.2083,-0.4836,3.0291,0.3775,-1.8796,2045
15,-0.4219,-1.1328,-0.4365,3.1208,0.6075,-1.9465,2045
15,-0.4331,-1.1074,-0.3706,3.1726,0.8762,-1.9483,2044
15,-0.428,-1.0247,-0.325,3.1501,1.1563,-1.9116,2041
15,-0.3992,-0.9653,-0.312,3.1206,1.3766,-1.8639,2044
15,-0.3665,-0.9224,-0.3074,3.0951,1.5219,-1.7977,2048
15,-0.3445,-0.8892,-0.3108,3.0913,1.6069,-1.76,2043
15,-0.3152,-0.8601,-0.3176,3.1096,1.6376,-1.7218,2041
15,-0.2727,-0.8225,-0.3071,3.209,1.6125,-1.6708,2045
15,-0.2429,-0.8289,-0.3135,3.3136,1.5548,-1.6395,2046
15,-0.2676,-0.856,-0.3123,3.3379,1.493,-1.6422,2061
15,-0.2759,-0.8879,-0.3411,3.3722,1.3712,-1.6151,2049
15,-0.2937,-0.8926,-0.3608,3.4187,1.2692,-1.6395,2046
15,-0.291,-0.9146,-0.3694,3.4335,1.1842,-1.6616,2041
15,-0.2996,-0.9348,-0.3865,3.4069,1.1336,-1.7129,2044
15,-0.312,-0.9341,-0.3928,3.3644,1.1007,-1.7106,2039
15,-0.3291,-0.9863,-0.3987,3.2971,1.1073,-1.7709,2043
15,-0.2563,-1.0188,-0.3643,3.1951,1.0339,-1.645,2041
16,-0.2808,-1.0833,-0.3552,3.038,1.0007,-1.5744,2044
16,-0.2744,-1.1501,-0.3547,2.9116,0.9441,-1.5102,2044
16,-0.3152,-1.1865,-0.3176,2.7549,0.9562,-1.3744,2045
16,-0.3113,-1.1726,-0.2654,2.7047,0.9064,-1.2833,2042
16,-0.3091,-1.1392,-0.2114,2.7004,0.8538,-1.2459,2043
16,-0.3225,-1.1726,-0.179,2.6119,0.832,-1.2255,2040
16,-0.3376,-1.2847,-0.1309,2.422,0.8415,-1.1266,2040
16,-0.3616,-1.4255,-0.1399,2.025,0.8572,-1.0327,2047
16,-0.3308,-1.4102,-0.1733,1.7596,0.8369,-0.9485,2050
16,-0.3057,-1.3772,-0.2175,1.5989,0.7562,-0.9411,2039
16,-0.3105,-1.3801,-0.2505,1.5053,0.6485,-0.874,2036
16,-0.3062,-1.4788,-0.2493,1.3805,0.5428,-0.8066,2043
16,-0.3276,-1.4893,-0.2725,1.2657,0.424,-0.7568,2043
16,-0.3208,-1.5254,-0.2893,1.1128,0.3244,-0.6641,2043
16,-0.3655,-1.5054,-0.2898,0.8837,0.2911,-0.6245,2062
16,-0.3684,-1.5071,-0.2729,0.614,0.2942,-0.5377,2047
16,-0.384,-1.4797,-0.2356,0.3296,0.3478,-0.4382,2018
16,-0.387,-1.4294,-0.2197,0.0344,0.3876,-0.3771,2034
16,-0.3799,-1.4399,-0.2166,-0.2021,0.4123,-0.3168,2041
16,-0.3081,-1.4158,-0.2134,-0.4207,0.3288,-0.2611,2044
16,-0.2512,-1.3579,-0.2261,-0.5891,0.1507,-0.19,2036
16,-0.146,-1.2776,-0.2407,-0.7255,-0.1935,-0.0937,2036
16,-0.094,-1.2007,-0.2537,-0.8377,-0.6393,0.0241,2029
16,-0.0876,-1.1326,-0.229,-0.9846,-1.079,0.1599,2035
16,-0.0964,-1.1233,-0.2219,-1.1423,-1.456,0.3225,2052
16,-0.1362,-1.1584,-0.1895,-1.3332,-1.7464,0.4773,2053
16,-0.1887,-1.2188,-0.1794,-1.5198,-1.9579,0.5944,2058
16,-0.2219,-1.2954,-0.2092,-1.7108,-2.1316,0.6802,2053
16,-0.2217,-1.3555,-0.2522,-1.8345,-2.2543,0.7569,2052
16,-0.1736,-1.3889,-0.2964,-1.8885,-2.4083,0.844,2045
16,-0.145,-1.4263,-0.3335,-1.8803,-2.5911,0.9568,2044
16,-0.157,-1.4827,-0.3262,-1.8659,-2.7477,1.1399,2046
16,-0.1743,-1.5139,-0.2947,-1.8707,-2.8313,1.3673,2051
16,-0.2241,-1.5623,-0.228,-2.0164,-2.7982,1.6596,2054
16,-0.2456,-1.5022,-0.1665,-2.1964,-2.6948,1.8046,2050
16,-0.2297,-1.4751,-0.1213,-2.3369,-2.6341,1.9258,2049
16,-0.2512,-1.4312,-0.1184,-2.4361,-2.5598,2.0132,2053
16,-0.282,-1.3818,-0.1157,-2.5512,-2.4619,2.0632,2059
16,-0.2766,-1.312,-0.1274,-2.5653,-2.3208,2.115,2060
16,-0.2712,-1.2471,-0.1147,-2.5645,-2.1964,2.1204,2057
16,-0.2478,-1.1799,-0.1206,-2.6821,-2.0555,2.1903,2061
16,-0.2483,-1.1116,-0.1162,-2.799,-1.9654,2.2364,2062
16,-0.2366,-1.0852,-0.1199,-2.7926,-1.7977,2.2927,2054
16,-0.2268,-0.9937,-0.1238,-2.8072,-1.703,2.3131,2047
16,-0.1819,-0.9404,-0.156,-2.8426,-1.6285,2.3438,2043
16,-0.1731,-0.8867,-0.2053,-2.8285,-1.6101,2.3967,2045
16,-0.1426,-0.8672,-0.2288,-2.8153,-1.6013,2.4589,2038
16,-0.1135,-0.8613,-0.2551,-2.7697,-1.6859,2.5024,2038
16,-0.1152,-0.8735,-0.2537,-2.7327,-1.817,2.5515,2039
16,-0.1833,-0.8811,-0.2893,-2.7416,-1.8852,2.6051,2039
16,-0.1821,-0.8621,-0.3577,-2.6774,-1.9305,2.5987,2034
16,-0.1848,-0.8818,-0.4265,-2.5602,-1.9266,2.5757,2042
16,-0.2097,-0.9319,-0.4656,-2.4093,-1.9266,2.5332,2038
16,-0.2244,-0.9851,-0.5032,-2.2254,-1.8927,2.4988,2036
16,-0.25,-1.0422,-0.5579,-2.0124,-1.8094,2.4471,2043
16,-0.293,-1.1033,-0.5818,-1.7908,-1.6617,2.3751,2044
16,-0.2976,-1.1611,-0.5977,-1.584,-1.448,2.3229,2042
16,-0.3145,-1.2202,-0.6021,-1.3825,-1.1553,2.2878,2044
16,-0.3542,-1.251,-0.5759,-1.2516,-0.8231,2.2218,2043
16,-0.3782,-1.2751,-0.5393,-1.1294,-0.4891,2.1499,2046
16,-0.3787,-1.3005,-0.5127,-1.0445,-0.2004,2.0526,2045
16,-0.386,-1.3264,-0.5073,-0.9443,0.0691,1.9514,2042
16,-0.397,-1.3525,-0.4956,-0.8457,0.2734,1.805,2045
16,-0.4109,-1.3743,-0.4839,-0.7577,0.4586,1.6803,2040
16,-0.3752,-1.3809,-0.4734,-0.6267,0.5955,1.5205,2042
16,-0.3696,-1.3826,-0.4749,-0.461,0.6984,1.338,2039
16,-0.3982,-1.385,-0.4717,-0.2535,0.842,1.1343,2040
16,-0.4312,-1.3545,-0.468,-0.0358,1.0208,0.8756,2043
16,-0.4521,-1.3374,-0.4409,0.153,1.164,0.6169,2044
16,-0.4551,-1.3142,-0.4246,0.3404,1.201,0.3707,2046
16,-0.4536,-1.2905,-0.4138,0.559,1.1979,0.1212,2045
16,-0.4448,-1.2646,-0.4312,0.7708,1.1896,-0.1409,2045
16,-0.4316,-1.2209,-0.4463,0.9452,1.1681,-0.3715,2049
16,-0.4324,-1.1716,-0.4646,1.0981,1.115,-0.598,2046
16,-0.4268,-1.1123,-0.4609,1.2216,1.0156,-0.8452,2044
16,-0.416,-1.0859,-0.4075,1.3082,0.8887,-0.9987,2044
16,-0.3923,-1.0872,-0.3408,1.3416,0.7588,-1.1287,2044
16,-0.3518,-1.1018,-0.2917,1.3837,0.6279,-1.2264,2044
16,-0.3198,-1.1401,-0.2812,1.4757,0.4737,-1.3255,2039
16,-0.2944,-1.1877,-0.2761,1.5756,0.3208,-1.4246,2042
16,-0.3005,-1.2329,-0.3054,1.6724,0.155,-1.5314,2040
16,-0.2939,-1.2637,-0.3533,1.8279,-0.0208,-1.6338,2043
16,-0.3333,-1.2915,-0.3767,2.018,-0.1759,-1.7415,2053
16,-0.3284,-1.3079,-0.4136,2.1847,-0.2752,-1.835,2047
16,-0.3713,-1.3206,-0.4006,2.2832,-0.2847,-1.8694,2049
16,-0.3899,-1.2976,-0.3774,2.3132,-0.2232,-1.9326,2046
16,-0.4102,-1.2278,-0.3662,2.3185,-0.0818,-2.0189,2043
16,-0.4385,-1.156,-0.3367,2.3467,0.1276,-2.1201,2045
16,-0.479,-1.0857,-0.3276,2.3642,0.3474,-2.2118,2042
16,-0.5105,-1.0107,-0.3403,2.4056,0.5859,-2.2519,2045
16,-0.4819,-0.9277,-0.3394,2.4234,0.8276,-2.2221,2044
16,-0.3989,-0.8735,-0.3284,2.4336,1.0485,-2.1719,2044
16,-0.321,-0.8188,-0.3125,2.4217,1.2278,-2.1084,2044
16,-0.2451,-0.7554,-0.3313,2.4771,1.3163,-2.021,2042
16,-0.1921,-0.7075,-0.3401,2.5882,1.2465,-1.9445,2044
16,-0.1909,-0.6702,-0.3726,2.742,1.1023,-1.925,2043
16,-0.2043,-0.6792,-0.3926,2.911,0.9296,-1.9216,2040
16,-0.2275,-0.6743,-0.4136,3.0365,0.7859,-1.9189,2042
16,-0.2664,-0.6951,-0.4404,3.1297,0.6982,-1.9317,2047
16,-0.3196,-0.719,-0.4668,3.2224,0.6814,-1.9752,2047
16,-0.3574,-0.7488,-0.4561,3.2489,0.7052,-2.0046,2041
17,-0.3865,-0.8193,-0.4583,3.2608,0.8323,-2.0471,2043
17,-0.3792,-0.8811,-0.4695,3.2559,0.9407,-2.0425,2047
17,-0.3564,-0.9631,-0.4597,3.1738,1.0049,-2.0391,2040
17,-0.3259,-1.0454,-0.4434,3.1219,1.0576,-2.0309,2043
17,-0.3301,-1.1768,-0.4097,3.0059,1.1262,-1.8476,2046
17,-0.3267,-1.2178,-0.343,2.9666,1.1776,-1.6821,2037
17,-0.3757,-1.2761,-0.292,2.779,1.2507,-1.5119,2044
17,-0.3921,-1.1074,-0.2385,2.9132,1.3346,-1.4981,2027
17,-0.4099,-1.1387,-0.1096,2.8175,1.3985,-1.3794,2020
17,-0.4246,-1.3782,-0.0146,2.3489,1.4261,-1.1991,2038
17,-0.4033,-1.3708,-0.0186,1.9176,1.4512,-1.0425,2042
17,-0.4062,-1.2834,0.0022,1.6547,1.4166,-0.9557,2030
17,-0.3918,-1.3071,-0.0063,1.4483,1.3691,-0.8875,2034
17,-0.3494,-1.3633,-0.0405,1.2629,1.2741,-0.7809,2035
17,-0.3235,-1.4167,-0.073,1.0688,1.1188,-0.663,2030
17,-0.3071,-1.4595,-0.0957,0.875,0.9242,-0.575,2037
17,-0.3289,-1.5056,-0.1357,0.6885,0.7375,-0.4777,2044
17,-0.3589,-1.5486,-0.1418,0.4697,0.577,-0.341,2052
17,-0.3911,-1.4741,-0.1982,0.2265,0.4946,-0.3025,2056
17,-0.3989,-1.4417,-0.196,-0.028,0.4791,-0.2356,2056
17,-0.3982,-1.4092,-0.1997,-0.2883,0.518,-0.1767,2058
17,-0.3809,-1.3481,-0.2083,-0.5063,0.5111,-0.1172,2047
17,-0.3274,-1.2444,-0.2214,-0.706,0.4201,-0.0766,2047
17,-0.2871,-1.1699,-0.2417,-0.8637,0.2896,-0.0055,2045
17,-0.2458,-1.1062,-0.2546,-1.0047,0.1143,0.0766,2046
17,-0.2004,-1.0601,-0.2563,-1.1283,-0.1551,0.1722,2052
17,-0.145,-1.0247,-0.27,-1.2475,-0.4935,0.2856,2045
17,-0.106,-1.0195,-0.3025,-1.3399,-0.8648,0.4111,2062
17,-0.0667,-1.0425,-0.323,-1.4098,-1.275,0.551,2047
17,-0.073,-1.1121,-0.3333,-1.4877,-1.6602,0.6976,2048
17,-0.1223,-1.2151,-0.3547,-1.5463,-1.9696,0.8369,2049
17,-0.1865,-1.3721,-0.3789,-1.6115,-2.1863,0.9412,2044
17,-0.229,-1.5269,-0.3726,-1.6857,-2.3305,1.0336,2045
17,-0.2188,-1.6917,-0.3701,-1.7607,-2.4262,1.1158,2046
17,-0.2075,-1.7969,-0.3474,-1.8136,-2.5104,1.1911,2046
17,-0.2192,-1.8481,-0.374,-1.8225,-2.5951,1.2785,2052
17,-0.2283,-1.8186,-0.3142,-1.8399,-2.6309,1.4138,2042
17,-0.2498,-1.8301,-0.2917,-1.8678,-2.6329,1.6527,2044
17,-0.3049,-1.7349,-0.1934,-2.0287,-2.5149,1.7812,2053
17,-0.3232,-1.7012,-0.1328,-2.2099,-2.3759,1.8744,2042
17,-0.3394,-1.5867,-0.0771,-2.3208,-2.1758,1.9703,2048
17,-0.3218,-1.4739,-0.0376,-2.4908,-1.9865,2.0072,2048
17,-0.2715,-1.3557,-0.0093,-2.5946,-1.9093,2.0153,2048
17,-0.2595,-1.2581,0.0039,-2.8129,-1.7498,2.1105,2050
17,-0.2256,-1.1421,0.0142,-2.9612,-1.6498,2.1724,2056
17,-0.1995,-1.0613,0.0225,-2.9706,-1.5693,2.2075,2051
17,-0.1909,-0.9995,0.0073,-3.0642,-1.5077,2.2574,2055
17,-0.1555,-0.9348,-0.0205,-3.2026,-1.4641,2.3607,2052
17,-0.123,-0.8933,-0.0525,-3.271,-1.4966,2.4381,2051
17,-0.0791,-0.8535,-0.0857,-3.282,-1.5494,2.5053,2051
17,-0.0762,-0.8264,-0.1099,-3.2903,-1.6737,2.5832,2057
17,-0.0598,-0.8123,-0.1501,-3.295,-1.8259,2.6201,2049
17,-0.093,-0.8276,-0.2097,-3.2818,-1.8692,2.7793,2054
17,-0.1785,-0.8208,-0.2583,-3.2796,-1.9265,2.9217,2037
17,-0.3174,-0.7983,-0.2864,-3.2365,-1.9217,3.0814,2038
17,-0.426,-0.7832,-0.4058,-3.0718,-1.7532,3.1958,2047
17,-0.5164,-0.814,-0.5442,-2.9131,-1.4454,3.2644,2055
17,-0.5913,-0.8862,-0.6335,-2.7208,-1.2515,3.2248,2040
17,-0.5513,-0.936,-0.6316,-2.5762,-1.1303,3.1385,2045
17,-0.5171,-0.99,-0.7241,-2.3703,-0.791,2.93,2027
17,-0.4419,-1.0718,-0.7883,-2.235,-0.4406,2.6386,2015
17,-0.3586,-1.1323,-0.8501,-2.0682,-0.1734,2.2664,1988
17,-0.2236,-1.1665,-0.8518,-1.88,-0.2484,1.9098,1986
17,-0.1443,-1.1401,-0.8396,-1.5819,-0.1653,1.627,2006
17,-0.1614,-1.0923,-0.7954,-1.277,-0.127,1.5418,2026
17,-0.22,-1.1038,-0.7576,-0.9646,-0.2297,1.4672,2056
17,-0.2478,-1.1306,-0.739,-0.6726,-0.3563,1.3291,2065
17,-0.3394,-1.1465,-0.6919,-0.3695,-0.3213,1.1102,2055
17,-0.4175,-1.1526,-0.6204,-0.1566,-0.239,0.908,2067
17,-0.4761,-1.1733,-0.4919,-0.0083,-0.2095,0.6775,2069
17,-0.4863,-1.1465,-0.3811,0.0703,-0.1623,0.4385,2054
17,-0.4722,-1.134,-0.3359,0.1429,0.1269,0.2484,2050
17,-0.4304,-1.1375,-0.3491,0.3099,0.3382,0.0569,2047
17,-0.4248,-1.1709,-0.4116,0.5123,0.2661,-0.163,2058
17,-0.489,-1.1895,-0.47,0.7299,0.1541,-0.4731,2039
17,-0.5974,-1.2019,-0.5266,0.9867,0.2606,-0.7331,2056
17,-0.6929,-1.1802,-0.5364,1.2523,0.456,-0.9248,2064
17,-0.748,-1.1677,-0.4399,1.3889,0.5725,-1.1164,2066
17,-0.6819,-1.1338,-0.3472,1.4249,0.6337,-1.3027,2057
17,-0.5454,-1.1194,-0.2683,1.4475,0.7319,-1.4418,2039
17,-0.3936,-1.1038,-0.2124,1.5022,0.8164,-1.5307,2019
17,-0.2852,-1.103,-0.1797,1.5331,0.8179,-1.603,2022
17,-0.2158,-1.1238,-0.198,1.578,0.7698,-1.6229,2036
17,-0.2063,-1.1646,-0.2566,1.6804,0.7546,-1.6163,2041
17,-0.2288,-1.2114,-0.292,1.7876,0.7356,-1.6403,2053
17,-0.3088,-1.2708,-0.3401,1.9101,0.6494,-1.6703,2057
17,-0.3984,-1.3335,-0.4031,2.0893,0.5847,-1.6949,2062
17,-0.4612,-1.353,-0.4619,2.2668,0.6022,-1.8346,2061
17,-0.5027,-1.3464,-0.4756,2.4264,0.6783,-1.9485,2064
17,-0.5132,-1.3069,-0.4519,2.493,0.8183,-2.045,2056
17,-0.4812,-1.219,-0.4282,2.4848,1.0226,-2.1415,2046
17,-0.4548,-1.1074,-0.4192,2.581,1.3559,-2.0965,2042
17,-0.439,-1.0374,-0.3491,2.6051,1.5753,-2.0752,2044
17,-0.4124,-0.9827,-0.3328,2.6365,1.6997,-1.967,2044
17,-0.3938,-0.936,-0.3267,2.7465,1.7471,-1.87,2057
17,-0.3774,-0.8835,-0.2996,2.7944,1.6816,-1.7978,2048
17,-0.4043,-0.8218,-0.3269,2.862,1.6636,-1.752,2053
17,-0.3657,-0.728,-0.3008,2.9498,1.6135,-1.6476,2041
17,-0.343,-0.7573,-0.3257,2.9957,1.6625,-1.7145,2039
17,-0.3132,-0.813,-0.3496,2.9841,1.5978,-1.6515,2038
17,-0.3594,-0.7844,-0.3589,3.0071,1.5376,-1.5973,2035
17,-0.405,-0.7415,-0.4016,3.0222,1.5605,-1.5371,2035
18,-0.4385,-0.7529,-0.4673,3.0596,1.6484,-1.5014,2038
18,-0.4634,-0.8015,-0.4973,3.1846,1.6753,-1.4936,2041
18,-0.4844,-0.8179,-0.49,3.2098,1.7254,-1.5018,2042
18,-0.4524,-0.8425,-0.48,3.1696,1.7313,-1.4632,2041
18,-0.4207,-0.915,-0.5115,3.1407,1.674,-1.468,2040
18,-0.4272,-0.9629,-0.5576,3.238,1.5776,-1.4672,2038
18,-0.426,-1.0488,-0.5571,3.2919,1.4962,-1.4944,2042
18,-0.3936,-1.1028,-0.5681,3.2681,1.4066,-1.5123,2042
18,-0.3442,-1.2036,-0.5491,3.2567,1.3119,-1.5032,2041
18,-0.3396,-1.2964,-0.4597,3.1055,1.2057,-1.3737,2037
18,-0.3677,-1.2222,-0.4353,2.9787,1.1151,-1.2308,2034
18,-0.4065,-1.1577,-0.3823,3.0323,1.0967,-1.2664,2027
18,-0.4023,-1.1465,-0.323,3.0296,1.0275,-1.278,2019
18,-0.3811,-1.2793,-0.2439,2.8433,0.9461,-1.1612,2029
18,-0.3679,-1.4453,-0.196,2.4802,0.8826,-1.1254,2025
18,-0.3655,-1.4739,-0.189,2.1984,0.8162,-1.0559,2023
18,-0.3386,-1.4377,-0.177,1.9851,0.7064,-1.0168,2021
18,-0.3508,-1.4873,-0.1499,1.7551,0.6052,-0.9448,2032
18,-0.3582,-1.5469,-0.1448,1.497,0.532,-0.8652,2050
18,-0.3586,-1.5339,-0.1279,1.2623,0.4301,-0.7767,2058
18,-0.3562,-1.5562,-0.0969,0.9692,0.3302,-0.6608,2061
18,-0.3752,-1.5525,-0.0977,0.6245,0.2538,-0.5376,2054
18,-0.3748,-1.4683,-0.0957,0.3565,0.2079,-0.4621,2047
18,-0.3794,-1.4272,-0.1086,0.0731,0.183,-0.3894,2050
18,-0.3616,-1.4048,-0.1038,-0.2004,0.1433,-0.3043,2050
18,-0.3374,-1.356,-0.1567,-0.4362,0.0779,-0.2337,2048
18,-0.2786,-1.2952,-0.2083,-0.6079,-0.0609,-0.1573,2048
18,-0.2205,-1.22,-0.2405,-0.7373,-0.2848,-0.0626,2051
18,-0.1592,-1.1199,-0.2683,-0.8447,-0.5446,0.0583,2041
18,-0.135,-1.071,-0.2263,-1.0018,-0.8003,0.1946,2049
18,-0.1321,-1.0918,-0.2119,-1.1882,-1.0227,0.3589,2045
18,-0.1687,-1.1589,-0.188,-1.4165,-1.1929,0.5052,2046
18,-0.1802,-1.2527,-0.1912,-1.6327,-1.3488,0.6225,2048
18,-0.1743,-1.344,-0.2073,-1.8249,-1.5189,0.7095,2047
18,-0.1545,-1.4343,-0.26,-1.9704,-1.7302,0.7841,2049
18,-0.1294,-1.4934,-0.3015,-2.0616,-1.9746,0.8582,2047
18,-0.1038,-1.5291,-0.3433,-2.0973,-2.2656,0.9549,2052
18,-0.1028,-1.5754,-0.3433,-2.1365,-2.5554,1.1292,2049
18,-0.134,-1.5818,-0.3428,-2.1783,-2.8092,1.3158,2067
18,-0.1855,-1.5593,-0.3003,-2.2194,-2.9668,1.4379,2066
18,-0.2312,-1.5474,-0.2793,-2.273,-3.0548,1.5311,2048
18,-0.2834,-1.5183,-0.2429,-2.2972,-3.0923,1.6165,2047
18,-0.3252,-1.4519,-0.2129,-2.3471,-3.073,1.6483,2049
18,-0.3503,-1.3726,-0.1899,-2.4465,-2.9849,1.6989,2051
18,-0.364,-1.2839,-0.1729,-2.5357,-2.7879,1.7994,2060
18,-0.3398,-1.147,-0.1362,-2.5562,-2.6008,1.8467,2052
18,-0.3325,-1.0544,-0.1021,-2.571,-2.4731,1.9496,2047
18,-0.3245,-1.0181,-0.1091,-2.7067,-2.3659,2.0442,2048
18,-0.3115,-0.9543,-0.1174,-2.7223,-2.225,2.1072,2053
18,-0.2576,-0.8838,-0.1248,-2.6761,-2.1173,2.151,2047
18,-0.2131,-0.8455,-0.157,-2.6591,-2.086,2.1704,2050
18,-0.1841,-0.8398,-0.2031,-2.6401,-2.0855,2.2138,2049
18,-0.1477,-0.8213,-0.2185,-2.5936,-2.1114,2.2481,2044
18,-0.1392,-0.8171,-0.2676,-2.5555,-2.1696,2.3005,2045
18,-0.1689,-0.8188,-0.2898,-2.5028,-2.1941,2.3554,2045
18,-0.1628,-0.8076,-0.3271,-2.4298,-2.2032,2.37,2040
18,-0.1704,-0.8196,-0.3691,-2.3457,-2.1434,2.3581,2042
18,-0.166,-0.8633,-0.4097,-2.2735,-2.0816,2.3487,2042
18,-0.176,-0.9065,-0.4619,-2.135,-2.012,2.3037,2040
18,-0.1865,-0.9604,-0.4839,-1.9586,-1.9098,2.2983,2035
18,-0.2351,-1.0229,-0.5322,-1.7892,-1.7775,2.2911,2039
18,-0.272,-1.0806,-0.5894,-1.589,-1.5925,2.2662,2041
18,-0.3154,-1.1399,-0.6245,-1.3849,-1.3023,2.2232,2039
18,-0.3403,-1.2144,-0.6013,-1.1826,-0.9487,2.1973,2034
18,-0.3506,-1.2747,-0.5723,-1.0473,-0.5799,2.1355,2036
18,-0.3792,-1.3201,-0.5417,-0.9313,-0.1772,2.0608,2034
18,-0.3799,-1.373,-0.5068,-0.8423,0.183,2.0108,2040
18,-0.3796,-1.416,-0.4731,-0.7842,0.4795,1.869,2037
18,-0.3643,-1.467,-0.4521,-0.7285,0.7582,1.7482,2042
18,-0.3552,-1.481,-0.436,-0.6375,0.9155,1.5961,2033
18,-0.3264,-1.5056,-0.4236,-0.5674,1.0191,1.4162,2036
18,-0.3311,-1.5166,-0.426,-0.4821,1.0852,1.2203,2040
18,-0.3506,-1.5071,-0.4292,-0.3693,1.1179,1.0191,2048
18,-0.3652,-1.4502,-0.4138,-0.2336,1.1669,0.8002,2045
18,-0.4189,-1.4045,-0.4062,-0.1108,1.2182,0.5879,2047
18,-0.4336,-1.3572,-0.4202,0.0262,1.2231,0.3504,2050
18,-0.4543,-1.3179,-0.4368,0.2217,1.1745,0.1107,2055
18,-0.4426,-1.2478,-0.4761,0.4549,1.1049,-0.1502,2054
18,-0.4268,-1.1912,-0.4866,0.6873,1.0276,-0.3935,2053
18,-0.4343,-1.145,-0.4746,0.8783,0.9412,-0.6654,2044
18,-0.4182,-1.0984,-0.4504,0.9966,0.8545,-0.9183,2048
18,-0.3889,-1.0466,-0.3831,1.0666,0.7498,-1.1152,2044
18,-0.3513,-0.9983,-0.3196,1.1319,0.6536,-1.258,2048
18,-0.3027,-0.9917,-0.2773,1.2009,0.5958,-1.3937,2068
18,-0.2485,-1.0002,-0.2634,1.3078,0.5279,-1.487,2042
18,-0.2468,-1.0461,-0.2708,1.4058,0.4157,-1.5865,2036
18,-0.2393,-1.0752,-0.3252,1.5171,0.2714,-1.7032,2039
18,-0.2466,-1.1248,-0.3948,1.7088,0.1064,-1.7962,2044
18,-0.2676,-1.1724,-0.4473,1.9339,-0.0374,-1.8986,2043
18,-0.3003,-1.2092,-0.4729,2.1284,-0.1342,-1.9767,2045
18,-0.332,-1.2397,-0.491,2.2545,-0.1888,-2.0551,2050
18,-0.3706,-1.2271,-0.4751,2.3296,-0.176,-2.1025,2050
18,-0.4055,-1.1907,-0.459,2.3458,-0.0724,-2.1839,2048
18,-0.4392,-1.127,-0.4084,2.326,0.1254,-2.2435,2053
18,-0.4724,-1.0776,-0.3633,2.3222,0.3686,-2.2823,2047
18,-0.4917,-1.0117,-0.3564,2.3392,0.6193,-2.3055,2048
18,-0.4709,-0.9468,-0.3323,2.3409,0.8582,-2.2742,2051
18,-0.4045,-0.8909,-0.3259,2.3674,1.06,-2.2318,2046
18,-0.325,-0.8193,-0.3384,2.4024,1.2187,-2.1734,2041
18,-0.2576,-0.7649,-0.3242,2.4728,1.3009,-2.1185,2035
18,-0.2161,-0.7346,-0.3281,2.5874,1.2724,-2.0515,2037
18,-0.2048,-0.718,-0.3398,2.7585,1.1806,-2.0188,2040
18,-0.2209,-0.7146,-0.3677,2.9229,1.0356,-2.0256,2042
19,-0.2646,-0.7539,-0.3887,3.0759,0.9124,-2.0318,2046
19,-0.3167,-0.8032,-0.3948,3.1733,0.8706,-2.0501,2047
19,-0.3535,-0.8511,-0.3884,3.205,0.9272,-2.0201,2047
19,-0.3921,-0.9138,-0.3787,3.1686,1.0211,-2.0082,2041
19,-0.4202,-0.9697,-0.3547,3.1076,1.1408,-2.0126,2038
19,-0.4104,-1.0171,-0.335,2.9933,1.2684,-1.9407,2032
19,-0.366,-1.1023,-0.3054,2.8341,1.4013,-1.9042,2034
19,-0.3662,-1.1433,-0.2839,2.6364,1.5519,-1.697,2035
19,-0.3574,-1.1458,-0.2576,2.5625,1.609,-1.5579,2032
19,-0.3677,-1.2207,-0.1829,2.3575,1.6113,-1.428,2040
19,-0.3704,-1.1726,-0.1597,2.1883,1.6032,-1.2637,2037
19,-0.3801,-1.1243,-0.1157,2.1088,1.5852,-1.2115,2032
19,-0.3579,-1.126,-0.0706,2.0433,1.5676,-1.1131,2039
19,-0.3672,-1.1387,-0.0774,1.9734,1.507,-1.0722,2041
19,-0.3218,-1.2249,-0.0837,1.7949,1.3575,-0.9565,2039
19,-0.311,-1.335,-0.0898,1.5017,1.2117,-0.8281,2039
19,-0.2939,-1.364,-0.1304,1.2463,1.0593,-0.6865,2043
19,-0.3027,-1.3738,-0.1526,1.0842,0.9196,-0.6056,2041
19,-0.3091,-1.4253,-0.1724,0.9376,0.7842,-0.5384,2043
19,-0.3081,-1.4478,-0.2227,0.7959,0.6546,-0.4446,2054
19,-0.3406,-1.4998,-0.2476,0.6331,0.5566,-0.4088,2046
19,-0.3281,-1.5291,-0.272,0.4369,0.499,-0.3237,2055
19,-0.3105,-1.4927,-0.2893,0.2112,0.4641,-0.2607,2050
19,-0.3284,-1.468,-0.2839,-0.026,0.4605,-0.1681,2059
19,-0.3108,-1.3826,-0.2632,-0.2272,0.4549,-0.0916,2047
19,-0.303,-1.3914,-0.2437,-0.4334,0.4474,-0.0113,2053
19,-0.2739,-1.4011,-0.2532,-0.6252,0.3719,0.0395,2044
19,-0.2,-1.3367,-0.2522,-0.7807,0.1719,0.0971,2046
19,-0.1282,-1.2844,-0.2788,-0.8794,-0.1234,0.1731,2041
19,-0.0635,-1.2188,-0.2812,-0.9472,-0.5251,0.2591,2047
19,-0.0276,-1.1653,-0.2876,-1.0279,-0.9537,0.391,2050
19,-0.0498,-1.1426,-0.2651,-1.1468,-1.3414,0.5452,2046
19,-0.0974,-1.1648,-0.2712,-1.2472,-1.6735,0.6765,2051
19,-0.1367,-1.2302,-0.2605,-1.3685,-1.9473,0.8067,2051
19,-0.1675,-1.3071,-0.2671,-1.4889,-2.1104,0.8942,2048
19,-0.1785,-1.3762,-0.2932,-1.5874,-2.2264,0.9602,2048
19,-0.1868,-1.438,-0.2988,-1.661,-2.3188,1.0331,2045
19,-0.2063,-1.4846,-0.3313,-1.697,-2.3846,1.1385,2041
19,-0.2146,-1.5171,-0.3394,-1.7333,-2.4151,1.2785,2049
19,-0.2349,-1.5684,-0.3313,-1.7763,-2.3838,1.427,2047
19,-0.2268,-1.5715,-0.2991,-1.8443,-2.3332,1.5452,2044
19,-0.2246,-1.5691,-0.2942,-1.876,-2.3035,1.6665,2046
19,-0.2463,-1.5476,-0.238,-1.9081,-2.2158,1.7749,2049
19,-0.2434,-1.5024,-0.2087,-2.0081,-2.1317,1.8588,2045
19,-0.2363,-1.45,-0.1863,-2.0311,-2.0473,1.8893,2046
19,-0.2278,-1.3782,-0.155,-2.1857,-1.9757,1.9526,2048
19,-0.2136,-1.2837,-0.1262,-2.3204,-1.9066,2.0,2048
19,-0.2288,-1.2087,-0.1216,-2.3366,-1.8161,2.0226,2051
19,-0.2256,-1.1299,-0.106,-2.3988,-1.6938,1.9985,2071
19,-0.2214,-1.1003,-0.1064,-2.4968,-1.5671,2.077,2053
19,-0.1807,-1.0154,-0.1111,-2.5437,-1.4775,2.068,2051
19,-0.1594,-0.9861,-0.1367,-2.5824,-1.4143,2.177,2051
19,-0.1458,-0.9399,-0.158,-2.5824,-1.4218,2.2093,2048
19,-0.1221,-0.9294,-0.1702,-2.6044,-1.4399,2.2399,2049
19,-0.0823,-0.9189,-0.2092,-2.6105,-1.5005,2.2471,2040
19,-0.0688,-0.9106,-0.241,-2.5959,-1.5958,2.3063,2046
19,-0.0793,-0.9211,-0.2637,-2.6037,-1.7066,2.33,2049
19,-0.1111,-0.939,-0.2917,-2.5605,-1.7949,2.3816,2047
19,-0.1316,-0.9456,-0.3162,-2.5305,-1.813,2.4048,2048
19,-0.1438,-0.9602,-0.3555,-2.4601,-1.7903,2.4213,2045
19,-0.1785,-0.9761,-0.3933,-2.3386,-1.7125,2.3884,2043
19,-0.2229,-0.9954,-0.4536,-2.1627,-1.6321,2.3341,2046
19,-0.2583,-1.0427,-0.4941,-1.9983,-1.517,2.2555,2046
19,-0.2971,-1.0706,-0.5498,-1.843,-1.3587,2.1742,2041
19,-0.3379,-1.0742,-0.5981,-1.6362,-1.1636,2.0526,2040
19,-0.3662,-1.1057,-0.6257,-1.4331,-0.9471,1.933,2040
19,-0.3872,-1.1208,-0.6453,-1.221,-0.7004,1.8331,2042
19,-0.3992,-1.1184,-0.6392,-1.0493,-0.4593,1.7018,2037
19,-0.3994,-1.1128,-0.6365,-0.8881,-0.2075,1.5769,2042
19,-0.4053,-1.0938,-0.6123,-0.694,0.0463,1.4187,2042
19,-0.4263,-1.0808,-0.5974,-0.4928,0.3151,1.2652,2044
19,-0.4187,-1.0884,-0.5757,-0.2807,0.5689,1.083,2057
19,-0.4243,-1.0862,-0.5647,-0.0635,0.7648,0.8826,2042
19,-0.4072,-1.0791,-0.54,0.1341,0.8734,0.6726,2042
19,-0.3894,-1.0691,-0.5083,0.3292,0.8986,0.469,2040
19,-0.4021,-1.075,-0.4937,0.5167,0.9356,0.2627,2043
19,-0.4075,-1.0745,-0.4929,0.7019,0.9612,0.0398,2045
19,-0.4263,-1.0776,-0.5046,0.8736,0.9552,-0.1746,2045
19,-0.437,-1.0867,-0.5142,1.0401,0.9286,-0.375,2047
19,-0.4478,-1.1133,-0.533,1.1969,0.8949,-0.5833,2043
19,-0.4307,-1.147,-0.5039,1.3513,0.8447,-0.7945,2043
19,-0.4041,-1.1692,-0.4314,1.4408,0.7846,-0.9622,2040
19,-0.3467,-1.1699,-0.2959,1.4544,0.7393,-1.0818,2038
19,-0.3,-1.1829,-0.1682,1.4143,0.7213,-1.1184,2037
19,-0.2668,-1.2273,-0.0869,1.3516,0.7506,-1.1111,2038
19,-0.2739,-1.2754,-0.0393,1.274,0.7783,-1.0798,2041
19,-0.2795,-1.2778,-0.0515,1.2371,0.7486,-1.1166,2041
19,-0.3232,-1.2649,-0.1194,1.2736,0.6537,-1.2137,2050
19,-0.3418,-1.3293,-0.2166,1.4077,0.4698,-1.268,2054
19,-0.3645,-1.4011,-0.3213,1.5977,0.2008,-1.3302,2053
19,-0.3723,-1.4668,-0.4185,1.8126,-0.0116,-1.4523,2043
19,-0.4143,-1.52,-0.4768,2.0054,-0.1172,-1.5456,2044
19,-0.4578,-1.53,-0.488,2.149,-0.0567,-1.6334,2047
19,-0.4971,-1.5081,-0.4438,2.2242,0.1428,-1.6747,2047
19,-0.4814,-1.458,-0.3667,2.2245,0.4468,-1.6387,2045
19,-0.4705,-1.3928,-0.3135,2.1935,0.7723,-1.5926,2045
19,-0.4487,-1.3018,-0.2605,2.1272,1.0693,-1.5683,2048
19,-0.4126,-1.1992,-0.2471,2.0391,1.2816,-1.5491,2044
19,-0.3872,-1.0935,-0.2371,1.9875,1.4278,-1.5424,2046
19,-0.3459,-0.9763,-0.2649,2.0249,1.5482,-1.5324,2044
20,-0.3132,-0.915,-0.2793,2.1331,1.6431,-1.547,2048
20,-0.2932,-0.8584,-0.3069,2.2489,1.6675,-1.5398,2047
20,-0.29,-0.8098,-0.3289,2.3537,1.6341,-1.5336,2048
20,-0.3076,-0.7632,-0.3591,2.4772,1.5418,-1.5506,2051
20,-0.3242,-0.729,-0.3962,2.614,1.4336,-1.5772,2052
20,-0.3262,-0.7126,-0.4116,2.7027,1.3342,-1.5869,2050
20,-0.334,-0.7014,-0.4514,2.7887,1.2929,-1.5932,2042
20,-0.3582,-0.7017,-0.4534,2.8675,1.2668,-1.5858,2044
20,-0.3384,-0.7063,-0.4614,2.9229,1.2391,-1.5949,2044
20,-0.3467,-0.7361,-0.4722,2.945,1.193,-1.6141,2042
20,-0.3552,-0.7566,-0.4832,2.9945,1.1635,-1.594,2040
20,-0.3555,-0.8118,-0.4871,3.0163,1.15,-1.5765,2039
20,-0.3506,-0.8567,-0.4766,3.0146,1.1243,-1.5312,2038
20,-0.3098,-0.8743,-0.4504,2.9975,1.0946,-1.4701,2035
20,-0.3313,-0.9431,-0.4109,2.9827,1.0629,-1.4185,2038
20,-0.3635,-1.019,-0.4087,2.9653,1.04,-1.3809,2035
20,-0.4055,-1.0955,-0.3975,2.8576,1.0573,-1.3343,2033
20,-0.4197,-1.1658,-0.3835,2.716,1.0641,-1.205,2052
20,-0.4167,-1.1929,-0.4006,2.6318,1.0982,-1.2162,2033
20,-0.4131,-1.2771,-0.3372,2.5926,1.1415,-1.0793,2036
20,-0.4385,-1.3889,-0.3098,2.4112,1.2105,-0.9525,2044
20,-0.4133,-1.4124,-0.2922,2.2579,1.2472,-0.8878,2040
20,-0.3872,-1.4402,-0.2432,2.1475,1.2483,-0.8689,2036
20,-0.3491,-1.4692,-0.2246,2.0117,1.1753,-0.7785,2038
20,-0.3521,-1.4395,-0.1868,1.9269,1.0564,-0.7656,2036
20,-0.3113,-1.4771,-0.1545,1.7819,0.8893,-0.71,2033
20,-0.3225,-1.5801,-0.0942,1.4432,0.7224,-0.6012,2053
20,-0.3545,-1.6506,-0.0615,1.0013,0.5654,-0.4895,2048
20,-0.3757,-1.6121,-0.0615,0.5227,0.4393,-0.3882,2048
20,-0.3774,-1.5381,-0.0598,0.2452,0.3473,-0.3256,2053
20,-0.3813,-1.5486,-0.061,-0.1257,0.2878,-0.2306,2051
20,-0.3752,-1.4697,-0.1067,-0.4243,0.2145,-0.1334,2051
20,-0.3599,-1.4224,-0.1208,-0.6719,0.0882,-0.0557,2049
20,-0.3362,-1.3999,-0.1802,-0.8754,-0.0719,0.0226,2049
20,-0.2815,-1.343,-0.2422,-1.0067,-0.3119,0.1008,2046
20,-0.2476,-1.3074,-0.2749,-1.1178,-0.5871,0.2179,2047
20,-0.1853,-1.2773,-0.3042,-1.2149,-0.8989,0.341,2043
20,-0.1465,-1.168,-0.2942,-1.3134,-1.237,0.4629,2042
20,-0.147,-1.0901,-0.2539,-1.4576,-1.5261,0.6229,2045
20,-0.1589,-1.1177,-0.1912,-1.6475,-1.7037,0.8348,2046
20,-0.1821,-1.1963,-0.1384,-1.8755,-1.8041,1.0264,2054
20,-0.188,-1.2734,-0.1157,-2.1017,-1.9224,1.1712,2051
20,-0.1797,-1.3745,-0.1189,-2.3325,-2.0603,1.3215,2043
20,-0.1731,-1.4663,-0.1318,-2.6031,-2.225,1.5058,2045
20,-0.1702,-1.4983,-0.2283,-2.742,-2.3589,1.5628,2048
20,-0.1545,-1.4873,-0.2817,-2.7865,-2.5514,1.5679,2050
20,-0.1511,-1.4595,-0.3154,-2.7424,-2.7806,1.6139,2047
20,-0.1392,-1.4614,-0.3289,-2.6424,-2.9925,1.6623,2049
20,-0.1741,-1.437,-0.3298,-2.5437,-3.1428,1.7359,2047
20,-0.2314,-1.4382,-0.3091,-2.4461,-3.2278,1.8727,2053
20,-0.2793,-1.4087,-0.2927,-2.3787,-3.2284,1.9358,2051
20,-0.3225,-1.3533,-0.2822,-2.3537,-3.1768,2.0232,2053
20,-0.3577,-1.302,-0.2593,-2.3495,-3.0002,2.1232,2047
20,-0.3772,-1.2554,-0.229,-2.3882,-2.7404,2.2021,2050
20,-0.3928,-1.2109,-0.189,-2.4627,-2.4345,2.263,2050
20,-0.3848,-1.134,-0.1697,-2.5356,-2.1335,2.2739,2048
20,-0.3657,-1.0867,-0.1663,-2.5983,-1.869,2.3457,2049
20,-0.3479,-1.0435,-0.1589,-2.693,-1.5652,2.3416,2047
20,-0.2971,-0.9993,-0.1624,-2.7062,-1.344,2.3702,2045
20,-0.2305,-0.9595,-0.1616,-2.7264,-1.2043,2.3827,2041
20,-0.1648,-0.9521,-0.1802,-2.7333,-1.1666,2.4037,2042
20,-0.1226,-0.9451,-0.2129,-2.6938,-1.2292,2.3902,2056
20,-0.0991,-0.9678,-0.248,-2.6599,-1.3496,2.4075,2038
20,-0.1038,-1.001,-0.2773,-2.64,-1.444,2.4217,2043
20,-0.0842,-0.9946,-0.325,-2.6083,-1.5732,2.416,2046
20,-0.0884,-0.988,-0.3616,-2.4912,-1.6578,2.4032,2043
20,-0.104,-1.0007,-0.4021,-2.3922,-1.735,2.4008,2045
20,-0.1401,-1.0244,-0.4329,-2.2533,-1.7811,2.3582,2041
20,-0.165,-1.0481,-0.4634,-2.129,-1.7725,2.3072,2047
20,-0.2131,-1.0684,-0.4988,-1.9807,-1.7443,2.232,2044
20,-0.2556,-1.0759,-0.5388,-1.8048,-1.6661,2.1592,2046
20,-0.313,-1.0754,-0.561,-1.6562,-1.5294,2.0567,2048
20,-0.3401,-1.0991,-0.5527,-1.4759,-1.3287,1.9554,2043
20,-0.3293,-1.1079,-0.5359,-1.3866,-1.1152,1.9005,2041
20,-0.3745,-1.1072,-0.5366,-1.2555,-0.8642,1.7777,2039
20,-0.4014,-1.0911,-0.5469,-1.1062,-0.6304,1.6516,2044
20,-0.4253,-1.1106,-0.5491,-0.9678,-0.4311,1.5141,2044
20,-0.4377,-1.113,-0.5813,-0.7723,-0.2454,1.3364,2043
20,-0.4573,-1.1411,-0.5798,-0.5821,-0.0891,1.165,2044
20,-0.4753,-1.1736,-0.5706,-0.3938,0.0589,0.9874,2044
20,-0.498,-1.1887,-0.5613,-0.2037,0.2413,0.7998,2046
20,-0.5066,-1.1804,-0.5242,-0.0595,0.443,0.6083,2042
20,-0.4993,-1.1641,-0.4878,0.0653,0.6497,0.4141,2045
20,-0.5046,-1.1504,-0.4646,0.2041,0.8271,0.2264,2045
20,-0.5122,-1.1531,-0.4666,0.3679,0.9569,0.0288,2058
20,-0.5159,-1.1575,-0.5129,0.5782,1.0264,-0.189,2043
20,-0.5344,-1.1389,-0.5422,0.7939,1.0529,-0.4386,2045
20,-0.5459,-1.113,-0.5625,0.9801,1.042,-0.6909,2043
20,-0.5408,-1.0833,-0.5469,1.1347,1.0127,-0.9276,2044
20,-0.5337,-1.0684,-0.5042,1.2781,0.9905,-1.099,2046
20,-0.5032,-1.0625,-0.4395,1.3924,0.9879,-1.225,2047
20,-0.4658,-1.0471,-0.3706,1.4494,0.9969,-1.3335,2042
20,-0.4136,-1.0186,-0.3162,1.5069,0.9845,-1.3858,2040
20,-0.3611,-0.9998,-0.2776,1.5613,0.9367,-1.4278,2038
20,-0.3325,-0.9956,-0.2593,1.6347,0.8569,-1.4645,2041
20,-0.3357,-1.0132,-0.2854,1.7572,0.7269,-1.5219,2044
20,-0.3425,-1.0422,-0.3269,1.9145,0.5647,-1.5961,2042
20,-0.3604,-1.0818,-0.4133,2.1126,0.382,-1.6882,2048
20,-0.3796,-1.1313,-0.4529,2.3103,0.227,-1.8194,2047
20,-0.4221,-1.1726,-0.4841,2.4818,0.1593,-1.9482,2044
20,-0.4556,-1.1731,-0.4775,2.6007,0.2236,-2.0644,2049
20,-0.4912,-1.1628,-0.4517,2.6544,0.4028,-2.1056,2047
20,-0.5181,-1.1528,-0.3938,2.6832,0.6525,-2.1248,2053
20,-0.5383,-1.114,-0.3318,2.6722,0.9411,-2.1577,2050
20,-0.511,-1.053,-0.2927,2.6474,1.2105,-2.1501,2046
21,-0.488,-0.9958,-0.2915,2.6611,1.4014,-2.1415,2049
21,-0.4331,-0.9446,-0.2817,2.6854,1.534,-2.1194,2048
21,-0.377,-0.9087,-0.2886,2.7287,1.5868,-2.0855,2057
21,-0.3054,-0.8694,-0.2837,2.8241,1.5559,-2.0423,2038
21,-0.282,-0.8545,-0.2776,2.9269,1.4422,-2.0069,2037
21,-0.2905,-0.8452,-0.2927,3.0207,1.3304,-1.972,2041
21,-0.2966,-0.8484,-0.2942,3.1096,1.2087,-1.9559,2042
21,-0.3066,-0.8647,-0.2937,3.1772,1.0869,-1.9528,2045
21,-0.3333,-0.9011,-0.2996,3.2155,1.027,-1.9323,2042
21,-0.3818,-0.959,-0.3181,3.2307,1.0318,-1.9338,2041
21,-0.4177,-1.0225,-0.3352,3.2409,1.0797,-1.9233,2038
21,-0.4412,-1.0593,-0.3289,3.1973,1.1479,-1.9238,2035
21,-0.4265,-1.1106,-0.3306,3.1107,1.229,-1.9736,2036
21,-0.3757,-1.1021,-0.3184,3.0112,1.2974,-1.8893,2031
21,-0.3645,-1.1606,-0.2954,2.9038,1.339,-1.8092,2032
21,-0.3796,-1.1807,-0.2708,2.752,1.3327,-1.6467,2041
21,-0.3862,-1.2009,-0.2463,2.5775,1.3287,-1.5178,2044
21,-0.4209,-1.1924,-0.1958,2.4313,1.3818,-1.443,2046
21,-0.4226,-1.1692,-0.1558,2.3073,1.407,-1.2967,2044
21,-0.4121,-1.2053,-0.1023,2.0875,1.4094,-1.1832,2046
21,-0.4016,-1.1748,-0.1089,1.8905,1.3647,-1.0874,2046
21,-0.3606,-1.1211,-0.1414,1.7646,1.2668,-1.0504,2039
21,-0.344,-1.1316,-0.1545,1.6081,1.1483,-0.9557,2042
21,-0.3657,-1.1399,-0.1968,1.4973,1.021,-0.8714,2045
21,-0.3557,-1.2063,-0.2158,1.4237,0.856,-0.7983,2048
21,-0.3245,-1.2383,-0.2585,1.346,0.6751,-0.7253,2059
21,-0.3618,-1.2375,-0.3159,1.2953,0.5091,-0.6743,2046
21,-0.3345,-1.2646,-0.3262,1.3573,0.3416,-0.5918,2046
21,-0.3911,-1.3245,-0.343,1.3099,0.2473,-0.622,2041
21,-0.3909,-1.4736,-0.3113,1.0274,0.2396,-0.456,2047
21,-0.4226,-1.5015,-0.2854,0.5493,0.3294,-0.336,2049
21,-0.4363,-1.365,-0.2654,0.1708,0.4109,-0.2143,2043
21,-0.4285,-1.2778,-0.2283,-0.0637,0.4771,-0.1498,2047
21,-0.3838,-1.252,-0.2087,-0.2836,0.4761,-0.1017,2045
21,-0.325,-1.2332,-0.2085,-0.4723,0.3904,-0.0431,2045
21,-0.2761,-1.2004,-0.2188,-0.6268,0.1867,0.0101,2045
21,-0.2275,-1.1667,-0.2402,-0.7597,-0.1077,0.0854,2046
21,-0.178,-1.1655,-0.2612,-0.8843,-0.4552,0.1776,2043
21,-0.1323,-1.1628,-0.2717,-0.9815,-0.8273,0.2884,2046
21,-0.1077,-1.1597,-0.2788,-1.1021,-1.2174,0.4213,2046
21,-0.114,-1.186,-0.2913,-1.2168,-1.5648,0.5667,2047
21,-0.1448,-1.2493,-0.3013,-1.335,-1.8518,0.704,2048
21,-0.1858,-1.3159,-0.3047,-1.4415,-2.0543,0.8098,2048
21,-0.2124,-1.4084,-0.2881,-1.5631,-2.2063,0.8902,2045
21,-0.2314,-1.4822,-0.2656,-1.68,-2.2981,0.9629,2047
21,-0.2266,-1.5359,-0.2666,-1.7603,-2.3735,1.0323,2045
21,-0.2295,-1.5667,-0.2678,-1.8219,-2.4413,1.1429,2043
21,-0.2512,-1.5981,-0.2559,-1.912,-2.4655,1.3428,2046
21,-0.2456,-1.5779,-0.2354,-2.0232,-2.446,1.482,2068
21,-0.248,-1.5903,-0.2097,-2.1627,-2.3976,1.6257,2046
21,-0.252,-1.5674,-0.1763,-2.2678,-2.3605,1.7235,2044
21,-0.259,-1.5391,-0.1399,-2.4025,-2.2808,1.8169,2047
21,-0.2666,-1.4661,-0.1323,-2.5087,-2.2072,1.8707,2047
21,-0.2605,-1.397,-0.1079,-2.5523,-2.1257,1.9237,2046
21,-0.2637,-1.3069,-0.0991,-2.6316,-2.0435,1.9672,2044
21,-0.2634,-1.228,-0.0984,-2.6875,-1.9366,2.0354,2049
21,-0.2659,-1.1863,-0.0916,-2.754,-1.7788,2.0726,2048
21,-0.2595,-1.0957,-0.0999,-2.8321,-1.6462,2.0827,2047
21,-0.2224,-1.0461,-0.0947,-2.9108,-1.5627,2.1142,2049
21,-0.1777,-0.9741,-0.1267,-2.949,-1.4994,2.1651,2049
21,-0.1868,-0.9326,-0.1672,-2.9934,-1.4095,2.1857,2048
21,-0.1589,-0.9067,-0.1714,-3.0075,-1.3617,2.2598,2051
21,-0.1079,-0.8943,-0.1702,-3.0461,-1.3833,2.3056,2048
21,-0.1091,-0.8923,-0.2163,-3.0421,-1.4601,2.3325,2045
21,-0.1118,-0.8982,-0.2642,-3.0319,-1.5539,2.3718,2049
21,-0.1477,-0.8894,-0.3003,-3.0383,-1.6195,2.3823,2051
21,-0.1577,-0.8892,-0.3635,-2.9296,-1.6829,2.393,2045
