Timestamp,Ax,Ay,Az,Rx,Ry,Rz,EMG
0,-0.717,0.7329,0.6287,-0.1703,0.1422,-0.6605,2072
0,-0.6914,0.6555,0.5481,-0.0601,-0.2063,-0.6236,2034
0,-0.6541,0.5298,0.4829,-0.0385,-0.4618,-0.5697,2102
0,-0.6382,0.4473,0.4036,-0.0407,-0.5616,-0.4994,2128
0,-0.6257,0.4048,0.3484,0.0461,-0.669,-0.4321,2144
0,-0.5994,0.4023,0.2786,0.125,-0.7701,-0.389,2092
0,-0.5369,0.3804,0.2261,0.212,-0.8094,-0.3746,2091
0,-0.5369,0.3594,0.1997,0.3189,-0.7303,-0.4115,2095
0,-0.5193,0.3418,0.187,0.456,-0.6577,-0.4709,2069
0,-0.5122,0.3467,0.1816,0.5713,-0.5572,-0.5529,2069
0,-0.5012,0.3376,0.1719,0.6513,-0.5109,-0.6102,2072
0,-0.5022,0.3501,0.197,0.6958,-0.4774,-0.628,2071
0,-0.5159,0.4207,0.2336,0.7662,-0.4252,-0.618,2070
0,-0.5244,0.4565,0.2192,0.826,-0.3691,-0.618,2118
0,-0.5354,0.4788,0.2083,0.8381,-0.3504,-0.6164,2026
0,-0.5396,0.5012,0.1909,0.7409,-0.2986,-0.6064,1972
0,-0.5408,0.5056,0.2129,0.6,-0.2095,-0.5847,2073
0,-0.5371,0.5305,0.241,0.4876,-0.1486,-0.5297,2070
0,-0.5237,0.5613,0.2686,0.3926,-0.0802,-0.4578,1931
0,-0.4949,0.564,0.2756,0.3195,-0.0214,-0.3743,2065
0,-0.5056,0.5854,0.4062,0.4028,-0.0041,-0.3449,2023
0,-0.4692,0.5886,0.4272,0.4895,-0.1442,-0.3257,2029
0,-0.4778,0.5652,0.4883,0.5938,-0.3603,-0.2926,1990
0,-0.4827,0.5674,0.4939,0.697,-0.5295,-0.2458,2095
0,-0.4756,0.5608,0.5083,0.8269,-0.6389,-0.234,2057
0,-0.481,0.5728,0.4812,0.9312,-0.7431,-0.2269,2014
0,-0.5115,0.541,0.4548,0.9632,-0.8182,-0.2356,2128
0,-0.481,0.5371,0.4138,0.9055,-0.8488,-0.2657,2112
0,-0.4746,0.5369,0.3696,0.8312,-0.8344,-0.3253,1937
0,-0.4783,0.561,0.3638,0.7297,-0.7506,-0.4285,2124
0,-0.4617,0.5691,0.3716,0.6509,-0.6861,-0.5165,2067
0,-0.4438,0.5706,0.3853,0.5991,-0.658,-0.595,2068
0,-0.4302,0.5872,0.4141,0.5513,-0.6578,-0.6733,2061
0,-0.4421,0.5986,0.4453,0.5117,-0.6966,-0.7537,2059
0,-0.4399,0.6321,0.4495,0.4757,-0.6934,-0.8146,2060
0,-0.4397,0.613,0.4507,0.4372,-0.6624,-0.7907,2042
0,-0.4363,0.6182,0.4509,0.3277,-0.685,-0.7493,2070
0,-0.4087,0.5969,0.4629,0.2211,-0.7323,-0.6806,2042
0,-0.364,0.5479,0.4426,0.0937,-0.8207,-0.6351,2070
0,-0.3501,0.5024,0.4036,-0.0368,-0.7829,-0.6416,2033
0,-0.3794,0.5081,0.3696,-0.0406,-0.6582,-0.6414,2077
0,-0.3618,0.501,0.3276,-0.0715,-0.455,-0.645,2094
0,-0.3372,0.5376,0.3372,-0.0019,-0.2031,-0.6232,1995
0,-0.3633,0.5886,0.3718,0.1147,0.0084,-0.5826,2096
0,-0.3936,0.6204,0.3401,0.2445,0.1522,-0.5414,2061
0,-0.4077,0.6526,0.3301,0.331,0.2988,-0.4867,2030
0,-0.4905,0.7512,0.3271,0.3984,0.4421,-0.4594,2071
0,-0.5837,0.8425,0.2273,0.5873,0.5352,-0.4248,2104
0,-0.6753,0.9871,0.115,0.8379,0.7138,-0.4377,2086
0,-0.7493,1.0415,0.0825,1.1187,0.9076,-0.4581,2032
0,-0.7849,1.0378,0.1067,1.3505,1.032,-0.4514,2008
0,-0.822,1.0427,0.1238,1.5028,1.1041,-0.4545,1979
0,-0.8074,1.0435,0.1646,1.5245,1.1946,-0.4501,2047
0,-0.8079,1.0137,0.2407,1.5133,1.3045,-0.4044,2076
0,-0.8459,1.0264,0.2556,1.4122,1.3817,-0.3454,2041
0,-0.8071,1.0349,0.2161,1.2511,1.4408,-0.3185,2101
0,-0.8191,1.0234,0.2068,1.0353,1.4085,-0.3036,2060
0,-0.8262,0.9749,0.2104,0.7943,1.3591,-0.2794,2072
0,-0.7915,0.9048,0.2058,0.5446,1.326,-0.2254,2054
0,-0.7007,0.8828,0.1353,0.3264,1.4195,-0.2148,2045
0,-0.6663,0.877,0.0605,0.178,1.586,-0.2511,2066
0,-0.6028,0.8728,0.0823,0.0676,1.7488,-0.277,2071
0,-0.5681,0.782,0.1033,0.0354,1.748,-0.2886,2060
0,-0.5667,0.7947,0.1028,0.0368,1.6327,-0.2605,2051
0,-0.5552,0.7944,0.0244,0.1073,1.5474,-0.218,2061
0,-0.5447,0.793,-0.0266,0.204,1.5539,-0.2181,2097
0,-0.5635,0.729,-0.0217,0.2832,1.5616,-0.2156,2060
0,-0.5522,0.6763,-0.0342,0.3228,1.5511,-0.1892,2088
0,-0.5295,0.6326,-0.0625,0.3047,1.6253,-0.1565,2065
0,-0.4958,0.5818,-0.0796,0.2645,1.7377,-0.1598,2057
0,-0.467,0.5222,-0.0447,0.1675,1.857,-0.2189,2060
0,-0.4521,0.4744,0.0247,0.0214,1.8992,-0.2996,2036
0,-0.4844,0.4336,0.0388,-0.1983,1.8682,-0.383,2058
0,-0.5051,0.5066,0.1482,-0.2457,1.8447,-0.4472,2089
0,-0.5149,0.49,0.155,-0.2225,1.656,-0.435,2067
0,-0.5112,0.4556,0.1289,-0.1043,1.4577,-0.4083,2065
0,-0.5393,0.4707,0.1479,0.0999,1.2584,-0.4027,2062
0,-0.5339,0.469,0.1184,0.2506,1.1106,-0.3731,2063
0,-0.5505,0.4758,0.0537,0.396,0.9339,-0.3358,2056
0,-0.5254,0.5059,0.0576,0.5608,0.8713,-0.3289,2058
0,-0.5391,0.4741,0.0481,0.6664,0.7911,-0.3558,2059
0,-0.553,0.4917,0.0771,0.8889,0.6694,-0.4107,2063
0,-0.5718,0.5261,0.053,1.1391,0.5486,-0.5177,2058
0,-0.5669,0.5696,0.0171,1.4432,0.4466,-0.6714,2061
0,-0.5898,0.5659,0.0076,1.7776,0.3209,-0.8584,2064
0,-0.6387,0.5435,-0.0339,2.1399,0.2135,-1.0355,2060
0,-0.6538,0.4988,-0.0623,2.4242,0.1076,-1.2583,2063
0,-0.6941,0.4495,-0.0735,2.648,0.0641,-1.503,2060
0,-0.7407,0.3945,-0.095,2.8295,0.0354,-1.8173,2062
0,-0.5837,0.3247,-0.1206,3.0497,-0.0953,-2.0074,2060
0,-0.7798,0.2542,-0.126,3.1688,-0.1,-2.4302,2065
0,-0.7314,0.2458,-0.1426,3.2859,-0.1522,-2.7297,2057
0,-0.8188,0.1807,-0.2,3.4569,-0.1177,-3.191,2059
0,-0.8196,0.1025,-0.2217,3.6784,-0.1422,-3.5974,2060
0,-0.9136,0.0723,-0.2688,3.9319,-0.114,-4.0582,2068
0,-0.8689,0.0288,-0.3542,4.1876,-0.1559,-4.3635,2058
0,-0.8879,-0.0103,-0.3757,4.3634,-0.2261,-4.3635,2064
0,-0.8506,0.0164,-0.436,4.3634,-0.2803,-4.3635,2056
0,-0.907,0.0217,-0.4634,4.3634,-0.4193,-4.3635,2067
0,-1.0012,0.022,-0.4756,4.3634,-0.4826,-4.3635,2072
0,-0.9958,0.0132,-0.4426,4.3634,-0.4365,-4.3635,2106
0,-1.126,-0.1208,-0.4939,4.3634,-0.3659,-4.3635,2053
0,-0.9863,-0.5154,-0.5493,4.3634,-0.1483,-4.3635,2036
1,-0.8806,-0.728,-0.5938,4.3634,0.1297,-4.3635,2057
1,-0.7495,-0.7542,-0.5652,4.3634,0.7588,-4.3635,2098
1,-0.6772,-0.8906,-0.4822,4.3634,1.4882,-4.3635,2027
1,-0.6594,-1.0742,-0.3511,4.1349,1.9106,-4.3635,2050
1,-0.5896,-0.9524,-0.3687,3.9262,1.7677,-4.3635,2059
1,-0.3833,-0.907,-0.4062,4.2571,1.6996,-4.3635,2039
1,-0.2358,-1.1692,-0.3406,4.3634,1.4403,-4.3635,2041
1,-0.1296,-1.3328,-0.2849,4.3634,0.9921,-4.3635,2066
1,-0.0674,-1.4204,-0.1982,4.1231,0.8493,-4.3635,2067
1,-0.5024,-1.2405,-0.2671,3.8044,0.8895,-4.3635,2075
1,-0.498,-1.2175,-0.3745,3.9571,1.2222,-4.1642,2068
1,-0.7065,-1.2776,-0.4297,3.9504,1.6852,-3.9895,2058
1,-0.7695,-1.2397,-0.5151,4.1839,2.2361,-3.9598,2064
1,-0.8066,-1.0042,-0.5115,4.2989,2.7333,-3.9673,2060
1,-0.6562,-1.1868,-0.416,4.3634,3.2923,-3.5352,2063
1,-0.6362,-1.1646,-0.3562,4.3397,3.6804,-3.5687,2053
1,-0.5688,-1.1328,-0.3752,4.3551,3.78,-3.1642,2065
1,-0.6462,-1.1687,-0.302,4.3397,3.9861,-3.1307,2055
1,-0.6689,-1.1624,-0.2117,4.0905,4.1398,-3.0638,2057
1,-0.5532,-1.0347,-0.1501,3.8864,4.1651,-2.9185,2062
1,-0.5435,-0.9927,-0.126,3.6533,4.0194,-2.8003,2062
1,-0.5308,-1.103,-0.0298,3.3806,3.8849,-2.64,2064
1,-0.3613,-0.9976,-0.104,3.0441,3.268,-2.5783,2054
1,-0.3552,-0.8079,-0.095,2.8652,2.5847,-2.5938,2065
1,-0.3643,-0.887,-0.0737,2.7396,1.9595,-2.4703,2058
1,-0.4617,-1.0017,-0.0117,2.396,1.3414,-2.3602,2045
1,-0.4915,-0.8572,-0.0542,1.9952,0.8067,-2.1895,2071
1,-0.5828,-0.8267,-0.0071,1.7911,0.6709,-1.9981,2056
1,-0.6167,-0.7952,-0.0347,1.615,0.6404,-1.7539,2072
1,-0.6897,-0.8149,-0.0024,1.323,0.6312,-1.5884,2063
1,-0.6572,-0.8413,-0.021,1.0235,0.5332,-1.4203,2063
1,-0.6121,-0.8762,-0.0232,0.6966,0.3812,-1.2133,2060
1,-0.6597,-0.7866,-0.0715,0.4426,0.3175,-1.1223,2054
1,-0.6033,-0.8145,-0.1055,0.2302,0.1057,-0.9259,2064
1,-0.5889,-0.8298,-0.136,0.0418,-0.1093,-0.7452,2066
1,-0.5615,-0.8569,-0.1704,-0.1338,-0.3012,-0.5608,2061
1,-0.6189,-0.8289,-0.1882,-0.3095,-0.4205,-0.4502,2060
1,-0.6038,-0.8359,-0.1948,-0.4946,-0.5878,-0.2836,2063
1,-0.572,-0.9375,-0.1707,-0.7664,-0.7347,-0.1565,2063
1,-0.564,-0.7761,-0.2207,-0.8084,-0.7598,-0.024,2066
1,-0.5339,-0.8364,-0.2031,-1.0191,-0.8572,0.1586,2062
1,-0.4888,-0.8347,-0.1851,-1.2596,-0.966,0.2309,2061
1,-0.5142,-0.7881,-0.1973,-1.3692,-1.1155,0.2918,2057
1,-0.5278,-0.7908,-0.2019,-1.4314,-1.1733,0.3678,2061
1,-0.4929,-0.8342,-0.2275,-1.4451,-1.1188,0.4299,2056
1,-0.4382,-0.9099,-0.2295,-1.4483,-1.138,0.5907,2059
1,-0.4172,-0.9644,-0.2454,-1.4595,-1.1046,0.7011,2061
1,-0.4292,-1.0251,-0.2625,-1.4282,-1.01,0.8345,2057
1,-0.446,-1.1191,-0.259,-1.3921,-0.8766,0.9689,2065
1,-0.4553,-1.2097,-0.2329,-1.3656,-0.7182,1.1075,2060
1,-0.4873,-1.3259,-0.2163,-1.4031,-0.4613,1.2408,2063
1,-0.5178,-1.4348,-0.2209,-1.4837,-0.1388,1.3181,2060
1,-0.5706,-1.4656,-0.2271,-1.5193,0.1784,1.34,2060
1,-0.5386,-1.499,-0.2524,-1.5817,0.3962,1.286,2064
1,-0.4731,-1.5212,-0.2375,-1.6523,0.5693,1.3279,2056
1,-0.4314,-1.5908,-0.2417,-1.7069,0.5438,1.286,2066
1,-0.3538,-1.5864,-0.2615,-1.774,0.4536,1.2944,2060
1,-0.2751,-1.6318,-0.2258,-1.8471,0.225,1.2647,2057
1,-0.1497,-1.5974,-0.1882,-1.9409,-0.057,1.3858,2062
1,-0.134,-1.5476,-0.1189,-2.0592,-0.3044,1.4872,2066
1,-0.0896,-1.5378,-0.0439,-2.1634,-0.5605,1.5661,2060
1,-0.104,-1.5754,0.0298,-2.2389,-0.8646,1.666,2056
1,-0.1636,-1.4678,0.0007,-2.3792,-0.9363,1.6499,2072
1,-0.1116,-1.4866,0.032,-2.423,-1.1224,1.6416,2060
1,0.3176,-1.4648,0.2693,-1.6576,-1.3316,1.4153,2037
1,-0.366,-1.5146,-0.1523,-3.0237,-1.7764,1.5552,2067
1,-0.0706,-1.3271,0.0364,-2.5266,-1.6523,1.4179,2070
1,-0.1548,-1.2551,0.0061,-2.6195,-2.0333,1.4383,2058
1,-0.0994,-1.1553,-0.0176,-2.685,-2.3623,1.4103,2058
1,-0.1809,-1.0588,-0.0315,-2.7048,-2.4748,1.4408,2063
1,-0.2527,-1.0491,-0.022,-2.7681,-2.632,1.4786,2061
1,-0.1665,-0.9612,-0.0376,-2.8251,-2.746,1.4129,2061
1,-0.238,-0.8503,-0.051,-2.7802,-2.777,1.401,2062
1,-0.2307,-0.7871,-0.0352,-2.7831,-2.7995,1.5008,2063
1,-0.2415,-0.7432,-0.0549,-2.8129,-2.7087,1.521,2056
1,-0.2556,-0.6948,-0.0479,-2.7609,-2.6546,1.5751,2064
1,-0.2517,-0.6616,-0.1064,-2.7633,-2.482,1.608,2058
1,-0.2185,-0.5967,-0.1196,-2.7654,-2.3221,1.5621,2060
1,-0.2524,-0.5596,-0.1135,-2.7441,-2.1714,1.5696,2048
1,-0.238,-0.5283,-0.1475,-2.6827,-1.9479,1.5707,2065
1,-0.2834,-0.5139,-0.1553,-2.6575,-1.7503,1.5391,2058
1,-0.2798,-0.4644,-0.1938,-2.5956,-1.5209,1.4676,2059
1,-0.2349,-0.4678,-0.1941,-2.4856,-1.4038,1.4206,2061
1,-0.2642,-0.4314,-0.2537,-2.4543,-1.1706,1.3617,2059
1,-0.2417,-0.4011,-0.3167,-2.3969,-0.9573,1.2908,2061
1,-0.2549,-0.4055,-0.3501,-2.332,-0.8529,1.1232,2065
1,-0.2437,-0.4243,-0.3767,-1.9636,-0.8332,1.1375,2053
1,-0.3215,-0.3252,-0.45,-1.6539,-0.7689,0.9508,2062
1,-0.3269,-0.3884,-0.4519,-1.3912,-0.6769,0.7971,2065
1,-0.3655,-0.4502,-0.5293,-1.1537,-0.4702,0.6292,2066
1,-0.3669,-0.5017,-0.5134,-0.8674,-0.3203,0.5063,2058
1,-0.3916,-0.5437,-0.5125,-0.6015,-0.1621,0.3619,2063
1,-0.3894,-0.5923,-0.4827,-0.3394,0.0085,0.2357,2064
1,-0.3928,-0.6257,-0.4265,-0.1507,0.1325,0.0748,2054
1,-0.3694,-0.6389,-0.3755,0.0051,0.2763,-0.0606,2064
1,-0.3662,-0.6462,-0.3286,0.2009,0.4048,-0.2059,2061
1,-0.4048,-0.7039,-0.3108,0.3629,0.655,-0.355,2056
1,-0.4495,-0.7549,-0.3369,0.6114,0.9214,-0.5251,2062
1,-0.5347,-0.8584,-0.3911,0.7899,1.2057,-0.6988,2060
1,-0.5962,-0.876,-0.4827,1.1003,1.4612,-0.8459,2061
1,-0.6089,-0.8801,-0.4915,1.4133,1.5126,-1.0901,2068
1,-0.658,-0.9004,-0.5461,1.7744,1.6491,-1.3455,2069
1,-0.6758,-0.9478,-0.5645,2.051,1.8305,-1.5246,2065
2,-0.6443,-1.0181,-0.4863,2.3238,1.712,-1.6962,2053
2,-0.6562,-1.0723,-0.5205,2.8869,2.0648,-1.9655,2063
2,-0.6787,-1.1365,-0.4929,3.283,2.296,-2.1157,2053
2,-0.6968,-1.1863,-0.5071,3.6928,2.3611,-2.1165,2060
2,-0.6909,-1.2417,-0.4822,4.0634,2.3109,-2.2595,2063
2,-0.728,-1.3599,-0.4153,4.3634,2.3639,-2.4191,2053
2,-0.6826,-1.5007,-0.2859,4.3634,2.4931,-2.5595,2055
2,-0.5754,-1.625,-0.1042,4.3634,2.7227,-2.7671,2061
2,-0.4556,-1.5791,0.124,4.1161,2.8328,-2.6396,2060
2,-0.2705,-1.4858,0.2839,3.4239,2.9328,-2.3253,2063
2,-0.1765,-1.3079,0.4729,2.9111,2.8952,-2.0462,2072
2,0.0554,-1.3052,0.5029,2.7675,2.6754,-1.8301,2058
2,0.0894,-1.2754,0.4351,2.71,2.1289,-1.5854,2060
2,0.3083,-1.3508,0.2964,2.7096,1.5227,-1.4657,2077
2,-0.0337,-1.2073,0.2053,2.7983,0.9931,-1.2435,2049
2,0.0784,-1.3372,0.1628,2.8327,0.0417,-1.3689,2054
2,0.0889,-1.3618,-0.0122,2.6615,-0.051,-1.3326,2068
2,-0.0369,-1.2122,-0.0928,2.4234,-0.3436,-1.2215,2056
2,-0.1492,-1.1226,-0.1235,2.4056,-0.078,-1.3683,2066
2,-0.2209,-1.1279,-0.084,2.1704,0.1996,-1.3806,2088
2,-0.2312,-1.0481,-0.105,1.8969,0.4119,-1.281,2044
2,-0.2166,-0.9868,-0.1726,1.702,0.5552,-1.1749,2059
2,-0.1057,-0.9312,-0.1851,1.4611,0.6874,-1.0741,2065
2,-0.0259,-0.8774,-0.2217,1.2441,0.7882,-0.9656,2066
2,0.0083,-0.7812,-0.2554,1.1186,0.7389,-0.8829,2059
2,-0.0088,-0.7664,-0.2605,0.9605,0.5793,-0.8283,2062
2,-0.1531,-0.6448,-0.3411,0.8629,0.4968,-0.7241,2060
2,-0.178,-0.6116,-0.3337,0.8726,0.5116,-0.6839,2063
2,-0.1699,-0.5979,-0.3508,0.8393,0.5867,-0.6409,2060
2,-0.1973,-0.5554,-0.3921,0.8247,0.7114,-0.5984,2056
2,-0.2253,-0.5603,-0.4182,0.8717,0.7846,-0.5866,2072
2,-0.2615,-0.5881,-0.4377,0.8536,0.842,-0.5754,2060
2,-0.2759,-0.5566,-0.4753,0.7983,0.8809,-0.5235,2063
2,-0.2827,-0.5691,-0.4822,0.8075,0.9409,-0.5024,2059
2,-0.3235,-0.5793,-0.4695,0.7694,1.0405,-0.4517,2060
2,-0.3438,-0.606,-0.4539,0.7686,1.1545,-0.4322,2060
2,-0.3528,-0.6519,-0.4045,0.7285,1.3414,-0.4195,2057
2,-0.3682,-0.686,-0.4014,0.6761,1.5219,-0.3839,2067
2,-0.3528,-0.7595,-0.3491,0.6195,1.6791,-0.3638,2061
2,-0.3372,-0.8167,-0.3064,0.5285,1.7571,-0.3758,2060
2,-0.3457,-0.8535,-0.2766,0.4496,1.825,-0.3481,2061
2,-0.374,-0.8889,-0.2368,0.3681,1.8741,-0.3224,2058
2,-0.3948,-0.9424,-0.1912,0.2803,1.9494,-0.2899,2061
2,-0.4209,-0.9912,-0.1274,0.1325,2.0526,-0.2786,2058
2,-0.4241,-1.0049,-0.0632,-0.0688,2.1515,-0.2639,2056
2,-0.4084,-0.9912,-0.0105,-0.2891,2.2033,-0.2543,2063
2,-0.3823,-0.9897,0.0254,-0.5083,2.177,-0.2482,2070
2,-0.3718,-1.0049,0.0222,-0.6805,2.0607,-0.2613,2054
2,-0.3279,-1.0227,-0.0024,-0.7967,1.8536,-0.2626,2061
2,-0.311,-1.0972,-0.0461,-0.8624,1.5423,-0.2617,2062
2,-0.3137,-1.2158,-0.1113,-0.863,1.2216,-0.2386,2062
2,-0.365,-1.3535,-0.186,-0.8244,0.9831,-0.167,2062
2,-0.427,-1.5437,-0.2305,-0.8048,0.8726,-0.0691,2056
2,-0.457,-1.7292,-0.2529,-0.8032,0.9084,0.012,2059
2,-0.4712,-1.8445,-0.2263,-0.8465,1.1014,0.1024,2064
2,-0.4604,-1.9153,-0.1597,-0.9393,1.3735,0.185,2064
2,-0.3767,-1.9348,-0.022,-1.1565,1.5966,0.2551,2060
2,-0.2832,-1.8425,0.093,-1.4468,1.7412,0.2822,2063
2,-0.1934,-1.7358,0.2124,-1.78,1.7258,0.2627,2066
2,-0.1003,-1.5964,0.3064,-2.0205,1.5226,0.2711,2059
2,-0.0471,-1.4648,0.3455,-2.2543,1.1444,0.2768,2060
2,-0.0037,-1.3843,0.343,-2.3698,0.6717,0.238,2067
2,0.0095,-1.3105,0.3281,-2.3218,0.0562,0.2293,2063
2,-0.05,-1.2585,0.209,-2.308,-0.4797,0.3269,2060
2,-0.0632,-1.1936,0.0745,-2.2894,-0.9624,0.3808,2057
2,-0.0161,-1.0996,0.0503,-2.2442,-1.6836,0.4155,2070
2,-0.0735,-0.999,0.0432,-1.902,-2.3318,0.4835,2060
2,-0.2517,-0.9233,0.0896,-1.5059,-2.4502,0.5016,2053
2,-0.3284,-0.8406,0.084,-1.22,-2.2772,0.3289,2064
2,-0.3792,-0.78,0.0803,-0.9962,-1.9064,0.1416,2057
2,-0.3777,-0.7036,0.03,-0.7865,-1.5627,-0.0855,2062
2,-0.3872,-0.5991,0.0173,-0.5,-1.2457,-0.1854,2056
2,-0.3918,-0.5503,-0.01,-0.3674,-1.0447,-0.331,2057
2,-0.3398,-0.5151,-0.0605,-0.1755,-0.8136,-0.596,2066
2,-0.2112,-0.5293,-0.0703,0.0415,-0.5703,-0.8044,2061
2,-0.0808,-0.5269,-0.1008,0.2638,-0.5369,-0.9428,2057
2,-0.0017,-0.5198,-0.1458,0.4401,-0.6999,-1.0026,2055
2,0.0625,-0.522,-0.1821,0.6152,-0.9597,-0.9573,2061
2,0.0881,-0.5349,-0.2122,0.7397,-1.2717,-0.9168,2072
2,0.0974,-0.5623,-0.2593,0.8257,-1.6282,-0.8345,2063
2,0.0601,-0.6038,-0.2786,0.9116,-1.8433,-0.7774,2061
2,-0.0203,-0.6162,-0.2625,0.9196,-1.896,-0.7123,2062
2,-0.0786,-0.6294,-0.2715,0.9303,-1.8198,-0.6143,2060
2,-0.1162,-0.6553,-0.2549,0.8797,-1.6502,-0.5472,2061
2,-0.1714,-0.7002,-0.2698,0.8239,-1.451,-0.4032,2059
2,-0.2112,-0.7583,-0.3069,0.7901,-1.1674,-0.2617,2060
2,-0.2222,-0.8188,-0.3264,0.7486,-0.7909,-0.1305,2057
2,-0.2109,-0.8423,-0.3469,0.6845,-0.4382,-0.0208,2062
2,-0.1477,-0.8818,-0.3174,0.6201,-0.1689,0.0947,2063
2,-0.1448,-0.9426,-0.2739,0.6055,0.0547,0.1826,2062
2,-0.1379,-0.9983,-0.2371,0.5956,0.186,0.229,2063
2,-0.1091,-1.1001,-0.2092,0.5813,0.2555,0.2461,2062
2,-0.0664,-1.2007,-0.1858,0.5418,0.2848,0.2167,2062
2,-0.0256,-1.2363,-0.1536,0.4524,0.2742,0.1848,2058
2,-0.0103,-1.261,-0.1028,0.3754,0.2473,0.1401,2064
2,-0.0347,-1.2939,-0.0559,0.2457,0.1942,0.1362,2062
2,-0.0486,-1.3022,-0.033,0.1033,0.1092,0.0972,2066
2,-0.0466,-1.3362,-0.0215,-0.0329,0.0671,0.114,2062
2,-0.0525,-1.3572,-0.0396,-0.1015,0.0372,0.1056,2059
2,-0.0752,-1.3525,-0.0757,-0.0979,0.055,0.11,2065
2,-0.0923,-1.3223,-0.1233,-0.0601,0.1397,0.0963,2062
2,-0.1199,-1.312,-0.1606,-0.0092,0.2432,0.0921,2069
2,-0.126,-1.3396,-0.2283,0.0814,0.328,0.0423,2061
3,-0.1692,-1.3835,-0.2712,0.231,0.3492,-0.0587,2064
3,-0.2327,-1.4165,-0.3145,0.4237,0.3902,-0.206,2062
3,-0.2395,-1.4353,-0.3125,0.5651,0.463,-0.3231,2060
3,-0.2451,-1.3779,-0.2559,0.5924,0.581,-0.4694,2066
3,-0.2781,-1.2959,-0.1135,0.3807,0.6857,-0.5751,2059
3,-0.1318,-1.2236,0.0093,0.1218,0.7139,-0.5325,2062
3,-0.0803,-1.1951,0.1189,-0.0599,0.7668,-0.5751,2058
3,0.0256,-1.1042,0.1606,-0.2366,0.7259,-0.5051,2061
3,0.1108,-1.0427,0.2207,-0.4382,0.495,-0.5019,2059
3,0.2029,-1.0225,0.2451,-0.5954,0.2398,-0.4769,2056
3,0.3462,-1.0264,0.2546,-0.6292,-0.0419,-0.3264,2061
3,0.4119,-1.0283,0.1926,-0.5299,-0.3064,-0.2117,2060
3,0.2742,-1.0759,0.063,-0.3571,-0.4895,-0.186,2070
3,0.1526,-1.0803,-0.0171,-0.1872,-0.4189,-0.1615,2055
3,0.0813,-1.0759,-0.0652,-0.1273,-0.2577,-0.1091,2057
3,0.0193,-1.0596,-0.0942,-0.1378,-0.0341,-0.13,2062
3,-0.0459,-1.0288,-0.0701,-0.2611,0.233,-0.1828,2056
3,-0.0881,-0.97,-0.0312,-0.4683,0.4984,-0.2035,2063
3,-0.0964,-0.8525,-0.0366,-0.6261,0.6899,-0.1599,2059
3,-0.1094,-0.7175,-0.0479,-0.6561,0.7966,-0.1241,2060
3,-0.0686,-0.7585,-0.0347,-0.7431,0.7588,-0.1836,2059
3,-0.0107,-0.7061,-0.0466,-0.7126,0.7171,-0.1297,2063
3,0.0112,-0.5884,-0.0916,-0.6608,0.6497,-0.0649,2056
3,0.0259,-0.5842,-0.1023,-0.536,0.5537,-0.0433,2061
3,0.0161,-0.5972,-0.061,-0.4509,0.3892,0.0411,2061
3,-0.0288,-0.5842,-0.0693,-0.4566,0.281,0.0973,2066
3,-0.0959,-0.5803,-0.0771,-0.4183,0.2707,0.1621,2057
3,-0.1575,-0.5955,-0.0642,-0.404,0.2891,0.2462,2059
3,-0.1926,-0.6121,-0.0645,-0.4121,0.3151,0.3368,2061
3,-0.2114,-0.6255,-0.0796,-0.4625,0.3665,0.4038,2059
3,-0.2156,-0.6584,-0.0798,-0.494,0.4257,0.4895,2063
3,-0.2158,-0.6995,-0.0894,-0.4599,0.5038,0.5602,2055
3,-0.2324,-0.7415,-0.0977,-0.3803,0.5699,0.6088,2062
3,-0.2327,-0.7871,-0.0764,-0.334,0.6018,0.6173,2064
3,-0.2329,-0.8054,-0.0598,-0.3044,0.5695,0.6284,2060
3,-0.2341,-0.8269,-0.0093,-0.318,0.5428,0.628,2063
3,-0.2319,-0.8406,0.0039,-0.3124,0.4998,0.6287,2061
3,-0.2415,-0.8359,0.0068,-0.2819,0.4598,0.6217,2062
3,-0.2397,-0.8494,-0.011,-0.2394,0.4377,0.6116,2062
3,-0.2417,-0.8506,-0.0256,-0.1663,0.4288,0.5922,2059
3,-0.2327,-0.8845,-0.0476,-0.0973,0.43,0.5727,2060
3,-0.2537,-0.8875,-0.0979,-0.0236,0.424,0.5348,2062
3,-0.2815,-0.8906,-0.1228,0.0256,0.4542,0.5095,2060
3,-0.2642,-0.9194,-0.1233,0.0887,0.4733,0.4838,2061
3,-0.2913,-0.9458,-0.1362,0.1297,0.5236,0.4398,2066
3,-0.3025,-0.9551,-0.1086,0.1222,0.556,0.3785,2060
3,-0.3364,-0.9563,-0.1077,0.1128,0.5617,0.2991,2064
3,-0.3523,-0.9731,-0.0869,0.1342,0.6115,0.2209,2056
3,-0.3452,-1.0122,-0.0867,0.141,0.6891,0.131,2065
3,-0.345,-1.0684,-0.1111,0.1819,0.7783,0.0208,2060
3,-0.3335,-1.1562,-0.1365,0.2338,0.8837,-0.0746,2061
3,-0.3435,-1.2434,-0.1729,0.346,0.954,-0.0876,2060
3,-0.3579,-1.376,-0.2305,0.4939,0.9901,-0.0679,2057
3,-0.408,-1.5452,-0.3142,0.5984,1.0254,-0.0647,2063
3,-0.4255,-1.6353,-0.3506,0.6863,1.0957,-0.0509,2057
3,-0.4185,-1.6658,-0.3481,0.6963,1.1813,0.004,2059
3,-0.4016,-1.7117,-0.3162,0.7087,1.2982,0.0772,2062
3,-0.2974,-1.7292,-0.2156,0.6622,1.3189,0.1477,2057
3,-0.2615,-1.6697,-0.1121,0.5331,1.1919,0.1443,2061
3,-0.1965,-1.5361,-0.0303,0.3255,1.0087,0.1739,2064
3,-0.0942,-1.3948,0.0627,0.137,0.7384,0.2554,2061
3,-0.0071,-1.3152,0.1101,0.0527,0.3998,0.316,2060
3,0.0186,-1.29,0.1025,0.0482,-0.0325,0.3657,2058
3,-0.0044,-1.2952,0.0571,0.0683,-0.4568,0.3943,2063
3,-0.0413,-1.3079,-0.0134,0.0923,-0.8504,0.4209,2065
3,-0.1323,-1.302,-0.0535,0.0278,-1.0266,0.4803,2066
3,-0.1584,-1.2693,-0.0779,-0.0337,-1.1343,0.5105,2065
3,-0.1868,-1.2285,-0.0723,-0.0923,-1.1911,0.5492,2058
3,-0.2271,-1.1973,-0.0586,-0.2286,-1.1022,0.5633,2054
3,-0.2522,-1.1108,-0.063,-0.3791,-0.9289,0.5839,2063
3,-0.2412,-0.9993,-0.0664,-0.5003,-0.7781,0.5955,2063
3,-0.2178,-0.9331,-0.0459,-0.6051,-0.6972,0.6392,2065
3,-0.188,-0.8828,-0.0203,-0.6927,-0.6814,0.6745,2059
3,-0.1589,-0.842,0.0085,-0.836,-0.6862,0.7095,2050
3,-0.1262,-0.7698,0.009,-0.9846,-0.7453,0.7617,2066
3,-0.1191,-0.6956,-0.0042,-1.0987,-0.7869,0.7897,2054
3,-0.1147,-0.6614,-0.0327,-1.109,-0.8621,0.8047,2018
3,-0.0996,-0.6355,-0.0386,-1.2496,-0.9859,0.8331,2056
3,-0.0742,-0.6165,-0.0356,-1.4119,-1.1593,0.8387,2063
3,-0.0532,-0.5947,-0.0295,-1.4242,-1.3652,0.8347,2063
3,-0.0674,-0.5928,-0.0627,-1.3411,-1.6097,0.8594,2088
3,-0.1519,-0.6353,-0.0945,-1.2433,-1.906,0.8692,2070
3,-0.2312,-0.7183,-0.0803,-1.2762,-2.2241,0.8166,2046
3,-0.2185,-0.7922,-0.0515,-1.4098,-2.4127,0.7213,2092
3,-0.1602,-0.8354,-0.0278,-1.6142,-2.4955,0.6474,2057
3,-0.1318,-0.8413,-0.043,-1.751,-2.5406,0.5024,2028
3,-0.1414,-0.8076,-0.137,-1.7638,-2.4955,0.3726,2058
3,-0.1731,-0.7205,-0.229,-1.657,-2.5561,0.1816,2057
3,-0.1929,-0.6289,-0.2983,-1.5375,-2.5831,0.0256,2039
3,-0.2559,-0.5618,-0.3977,-1.393,-2.4007,-0.1428,2060
3,-0.2971,-0.5725,-0.5022,-1.1385,-2.0849,-0.3943,2059
3,-0.2424,-0.6135,-0.571,-0.9272,-1.7451,-0.7123,2062
3,-0.1697,-0.5994,-0.6887,-0.6509,-1.3609,-0.9525,2064
3,-0.0808,-0.7043,-0.7749,-0.3191,-1.0657,-1.2118,2068
3,0.0156,-0.8589,-0.8462,0.0099,-0.681,-1.4557,2063
3,0.1636,-0.9768,-0.8147,0.1549,-0.371,-1.6311,2056
3,0.3416,-1.0149,-0.741,0.2285,-0.2125,-1.7057,2059
3,0.4631,-1.0017,-0.5955,0.3253,-0.3045,-1.701,2058
3,0.407,-0.9417,-0.4753,0.4572,-0.3812,-1.6819,2057
3,0.3042,-0.906,-0.4336,0.4854,-0.4352,-1.7804,2060
3,0.2122,-0.8904,-0.4055,0.4821,-0.4309,-1.835,2056
3,0.1064,-0.8728,-0.4307,0.6757,-0.4378,-1.9562,2064
4,-0.2207,-0.9189,-0.4487,0.9967,-0.225,-2.2324,2089
4,-0.2969,-1.1143,-0.4998,1.1324,0.1947,-2.296,2094
4,-0.3496,-1.321,-0.5364,1.405,0.8107,-2.2554,2088
4,-0.3887,-1.6125,-0.4644,1.5672,1.3571,-2.2959,2054
4,-0.4436,-1.948,-0.2979,1.4874,1.907,-2.1919,2044
4,-0.3975,-1.9072,0.0715,1.1214,2.4617,-1.8674,2041
4,-0.0833,-1.8604,0.3945,0.7209,2.8126,-1.5653,2071
4,0.0552,-1.9402,0.6536,0.3049,3.1435,-1.4166,2038
4,0.2666,-1.9326,0.7546,-0.4018,2.8718,-1.3031,2071
4,0.3708,-1.7632,0.8577,-0.6369,1.9796,-0.9236,2061
4,0.1995,-1.5691,0.8579,-0.406,1.1761,-0.6653,2063
4,0.0818,-1.5552,0.6318,-1.1559,0.7957,-0.3147,2099
4,-0.0681,-1.4436,0.249,-2.159,0.8737,-0.0394,2072
4,-0.4766,-0.9299,-0.0784,-1.2328,1.0697,0.6767,2059
4,-0.4648,-1.1597,0.0264,-0.9001,1.2536,0.8444,2065
4,-0.4475,-1.1689,0.1221,-0.671,1.1158,1.1989,2065
4,-0.3655,-1.1587,0.0908,-0.53,1.0875,1.3934,2076
4,-0.2573,-1.1179,0.0657,-0.4524,1.1098,1.4583,2039
4,-0.1841,-1.0952,0.0779,-0.3401,1.2852,1.5623,2050
4,-0.1069,-1.0842,0.1277,-0.43,1.5616,1.4588,2068
4,-0.0151,-1.0273,0.0613,-0.664,1.6329,1.3346,2060
4,0.082,-0.9253,-0.0569,-0.8015,1.2782,1.3027,2063
4,0.1528,-0.8574,-0.0764,-0.8521,0.7516,1.1868,2057
4,0.2334,-0.8247,-0.062,-0.8985,0.4446,1.0559,2063
4,0.2488,-0.7661,-0.1235,-0.9947,0.2059,0.9935,2065
4,0.2463,-0.6064,-0.2297,-0.9841,-0.019,1.1135,2046
4,0.1091,-0.5249,-0.3025,-0.9899,-0.2446,1.114,2064
4,0.0486,-0.4666,-0.2935,-0.9148,-0.4813,1.0018,2065
4,-0.04,-0.363,-0.2688,-0.5316,-0.6185,0.8597,2058
4,-0.1123,-0.4204,-0.2026,-0.3695,-0.4928,0.6538,2076
4,-0.2449,-0.5576,-0.2773,-0.5586,-0.2442,0.6264,2058
4,-0.29,-0.5054,-0.3291,-0.4133,0.446,0.679,2029
4,-0.2446,-0.3757,-0.2905,-0.4621,0.6585,0.5537,2104
4,-0.1868,-0.3232,-0.2302,-0.3812,0.5078,0.392,2091
4,-0.1343,-0.3628,-0.2576,-0.3386,1.0128,0.0284,1914
4,-0.04,-0.3848,-0.2126,-0.0952,0.9738,-0.0767,2064
4,-0.061,-0.5256,-0.3037,-0.0947,0.9155,0.0023,2066
4,-0.1997,-0.6172,-0.3735,0.0883,1.1035,-0.0196,2051
4,-0.2375,-0.6682,-0.2861,0.2956,0.9732,-0.0935,2101
4,-0.1694,-0.7861,-0.3223,0.2926,1.1682,-0.1755,2067
4,-0.1509,-0.877,-0.3213,0.3571,0.8234,-0.1685,2064
4,-0.1519,-0.9558,-0.2451,0.1834,0.5677,-0.3027,1954
4,-0.1992,-0.9583,-0.1863,0.4292,0.4806,-0.2705,2053
4,-0.2495,-1.127,-0.0828,0.2155,0.509,-0.306,2163
4,-0.3345,-1.3308,-0.1494,-0.3501,0.7637,-0.1188,2065
4,-0.3796,-1.4226,-0.3884,-1.0571,0.9989,0.066,2069
4,-0.334,-1.2737,-0.4446,-1.0308,0.7612,-0.1498,2023
4,-0.2505,-1.0898,-0.4338,-0.9087,0.8242,-0.2959,2102
4,-0.219,-0.9763,-0.4275,-0.9878,0.3577,-0.1216,2031
4,-0.4658,-0.9141,-0.5217,-0.8919,0.2746,-0.0399,2057
4,-0.6206,-0.781,-0.3782,-0.5446,0.434,0.2597,1993
4,-0.6841,-0.761,-0.1865,-0.104,1.0575,0.3622,2071
4,-0.6702,-0.8987,-0.2087,0.179,1.8586,0.4598,1957
4,-0.5806,-1.073,-0.2979,0.2798,2.1952,0.5377,2080
4,-0.4402,-1.0989,-0.4165,0.3512,2.2012,0.7412,2099
4,-0.2703,-1.1101,-0.5325,0.432,1.6546,0.822,2202
4,-0.1143,-1.2114,-0.6411,0.4119,1.1577,0.8059,2027
4,-0.0264,-1.3047,-0.6675,0.3979,0.6638,0.6445,2050
4,0.0547,-1.2959,-0.6221,0.4578,0.1019,0.428,2063
4,-0.0303,-1.2715,-0.5759,0.5667,-0.0293,0.1332,2098
4,-0.1702,-1.3049,-0.5569,0.5906,0.2872,-0.0458,2086
4,-0.2153,-1.3291,-0.4734,0.6269,0.755,-0.1458,2065
4,-0.1294,-1.2722,-0.344,0.699,0.9421,-0.1377,2026
4,0.054,-1.335,-0.3809,0.5807,0.8345,-0.0716,2123
4,0.1421,-1.3091,-0.3567,0.4967,0.6894,-0.228,2065
4,0.0427,-1.02,-0.3108,0.8722,0.3963,-0.1069,2026
4,-0.1926,-0.8184,-0.3474,0.652,0.1639,0.1293,2031
4,0.002,-0.8516,-0.5354,0.1671,0.0625,0.0181,2053
4,0.158,-0.9324,-0.4819,0.2268,-0.3274,-0.5474,2067
4,0.0479,-0.7087,-0.2949,0.3746,-0.2923,-0.6759,2022
4,-0.1946,-0.5708,-0.2651,0.3738,-0.5329,-0.5907,2093
4,-0.2332,-0.5071,-0.2017,0.3717,-0.8183,-0.4601,2098
4,-0.1445,-0.5112,-0.1995,0.329,-0.7288,-0.4874,2043
4,-0.1392,-0.5078,-0.1418,0.3597,-0.7445,-0.5397,2035
4,-0.1577,-0.4875,-0.0728,0.386,-0.9276,-0.607,2089
4,-0.1682,-0.5061,-0.0037,0.45,-0.9104,-0.5727,2059
4,-0.2141,-0.6216,-0.0244,0.5737,-0.4057,-0.4923,2066
4,-0.1687,-0.8562,-0.1982,0.4706,0.3493,-0.3253,2072
4,0.0051,-0.9592,-0.4109,0.2137,0.9578,-0.1264,2071
4,0.3901,-0.9404,-0.4175,0.0027,1.2318,-0.1186,2099
4,0.6169,-0.8647,-0.2964,-0.3975,0.8805,-0.2461,2070
4,0.491,-0.6992,-0.3572,-0.5574,0.7689,-0.4533,2108
4,0.2607,-0.5674,-0.21,-0.8811,0.8682,-0.544,2119
4,0.0618,-0.4104,-0.4165,-0.5637,1.2331,-0.7557,2116
4,-0.0679,-0.3726,-0.3987,-0.2714,1.7668,-0.7204,2107
4,-0.1052,-0.4709,-0.2488,-0.0043,1.6127,-0.4221,2110
4,0.0264,-0.6626,-0.1553,0.3119,1.2797,-0.3907,2136
4,0.2437,-0.9565,-0.0403,0.6936,1.5102,-0.7923,2098
4,0.4331,-0.9292,-0.0881,0.9349,1.4082,-1.3431,2040
4,0.4929,-1.2869,-0.1917,0.8682,0.7359,-1.4942,2045
4,0.2063,-1.5251,-0.241,0.6761,-0.1497,-1.1604,2046
4,-0.3862,-1.4048,0.1804,1.6655,-0.9835,-0.7457,1974
4,-0.8508,-1.3511,0.5774,1.6249,-0.5265,-0.6918,2012
4,-0.2603,-1.1287,0.2761,0.7331,0.6327,-0.9106,2230
4,-0.1243,-1.0742,0.0227,0.6566,0.7098,-0.8223,2047
4,0.0334,-0.9836,0.0046,0.7795,-0.2875,-0.5577,1970
4,-0.0217,-1.0764,-0.019,0.8439,-1.2007,-0.5191,2040
4,0.0964,-1.1917,0.106,1.082,-1.9955,-0.7794,2096
4,0.1697,-1.3164,-0.0811,1.1813,-3.1525,-0.8106,2092
4,0.1978,-1.2935,-0.001,1.3633,-3.7087,-0.9239,2042
4,-0.1152,-1.606,-0.1577,1.3414,-3.7067,-1.0533,2041
5,-0.5474,-1.5876,-0.3413,1.1838,-3.012,-0.9031,2093
5,-0.7808,-1.418,-0.3262,1.0103,-1.9172,-0.9955,2054
5,-0.5667,-1.5098,-0.2778,0.5742,-1.0439,-0.9384,2019
5,0.0117,-1.7249,-0.6343,0.2131,-0.8208,-0.7536,2054
5,0.2983,-1.4673,-0.7764,0.3674,-0.412,-0.7151,2070
5,0.1848,-1.3818,-0.5835,0.4814,-0.5935,-0.6412,2060
5,0.5488,-1.4685,-0.2795,0.1469,-1.8582,-0.5863,1980
5,0.7085,-1.4868,0.0159,0.2725,-2.0272,-0.4903,2063
5,0.2554,-1.4082,0.0054,0.0682,-1.2874,-0.2659,2064
5,-0.1128,-1.1807,-0.0178,-0.3799,-0.889,0.0133,2074
5,0.1414,-0.7588,0.0288,-0.4599,-0.6898,0.2306,2064
5,0.2461,-0.8052,0.2056,-0.3918,-0.4761,0.3827,2070
5,0.3318,-0.8701,0.1614,-0.4334,-0.1462,0.4072,2073
5,0.2598,-0.8528,-0.0447,-0.3777,0.1388,0.4886,2050
5,0.1479,-0.8779,-0.0435,-0.3116,0.1887,0.6015,2050
5,0.0664,-0.8965,-0.0525,-0.2926,0.2035,0.6948,2063
5,-0.0906,-0.926,-0.165,-0.2369,0.6654,0.7878,2060
5,-0.1924,-0.8879,-0.2576,-0.2249,1.2599,0.8921,2041
5,-0.1528,-0.9224,-0.282,-0.239,1.6783,0.9858,2068
5,0.0063,-0.9822,-0.2642,-0.2075,1.9391,1.0661,2051
5,0.2129,-0.9863,-0.1995,-0.2967,1.9678,1.118,2073
5,0.3547,-1.0452,-0.1731,-0.4706,1.5988,1.1144,2070
5,0.5037,-1.0713,-0.0195,-0.6624,0.9492,1.172,2105
5,0.3474,-0.9707,-0.0735,-0.5713,0.6038,1.2183,2070
5,0.1187,-0.8662,0.1069,-0.501,0.2915,1.2374,2015
5,-0.0957,-0.897,0.2576,-0.5971,0.4365,1.2391,2026
5,-0.1265,-0.9873,0.3657,-0.6209,0.7457,1.0441,2072
5,0.062,-0.9453,0.3557,-0.5207,1.2456,0.8363,2098
5,0.3137,-0.7671,0.3369,-0.5018,1.0057,0.5781,2095
5,0.21,-1.0293,0.2065,-0.0141,0.3783,0.6103,1991
5,0.1353,-0.9832,0.1594,-0.051,0.1208,0.6341,2046
5,0.177,-0.9158,-0.0415,-0.135,-0.1754,0.5389,2057
5,0.1909,-0.7124,-0.282,-0.0181,-0.4245,0.346,2063
5,0.0479,-0.6829,-0.3591,-0.0136,-0.6652,0.2595,2075
5,-0.071,-0.6292,-0.416,-0.1268,-0.9521,0.0662,2057
5,-0.114,-0.6111,-0.3928,-0.1846,-1.0031,-0.096,2052
5,-0.0667,-0.6565,-0.3711,-0.1686,-0.7879,-0.1954,2056
5,-0.083,-0.6548,-0.2996,0.0017,-0.4701,-0.2322,2013
5,-0.125,-0.7041,-0.1711,0.0951,-0.2031,-0.2215,2021
5,-0.1677,-0.7688,-0.0879,0.2477,-0.1077,-0.1439,2014
5,-0.2634,-0.8464,0.1809,0.39,-0.151,-0.1726,2020
5,-0.2075,-0.8652,0.1711,0.1049,0.0449,-0.2264,2048
5,-0.1077,-0.8853,0.0813,0.0013,0.2598,-0.263,2076
5,-0.1182,-0.9185,0.1411,-0.0814,0.2968,-0.2645,2040
5,-0.1064,-1.0142,0.1729,-0.1629,0.1871,-0.2408,2060
5,-0.0928,-1.0374,0.1499,-0.222,0.1413,-0.2381,2057
5,-0.0684,-1.0859,0.1101,-0.1896,0.1653,-0.2783,2059
5,-0.0042,-1.1313,0.0176,-0.0646,0.2051,-0.371,2058
5,0.0527,-1.2554,-0.0938,0.061,-0.0113,-0.302,2062
5,-0.0459,-1.5208,-0.1025,-0.0976,0.1989,-0.02,2039
5,0.0066,-1.5427,-0.0793,-0.1948,0.2031,0.2318,2069
5,-0.1362,-1.5725,-0.0452,-0.416,0.0675,0.6448,2052
5,-0.0757,-1.6191,-0.1116,-0.661,0.049,0.9455,2064
5,-0.2253,-1.709,-0.1357,-0.9907,0.2721,1.0757,2054
5,-0.3884,-1.6553,-0.3025,-1.029,0.4833,1.1896,2061
5,-0.5684,-1.6501,-0.0444,-1.0311,0.6387,1.0673,2060
5,-0.6189,-1.3088,-0.5469,-0.7664,0.9865,1.0886,2116
5,-0.2996,-1.0889,-0.2671,-0.0241,1.1055,0.646,2091
5,-0.1003,-1.6709,-0.166,-0.1626,0.7179,0.3436,2067
5,0.1189,-1.5291,-0.3711,0.0007,0.819,0.2639,2061
5,0.3684,-1.4331,-0.2585,0.0663,0.3199,0.1645,2073
5,0.2866,-1.3164,-0.0959,-0.0891,-0.4136,0.4508,2046
5,0.0425,-1.2747,-0.1165,-0.2485,-0.8841,0.4285,2057
5,-0.0417,-1.2131,-0.1218,-0.0253,-0.7333,0.1882,2055
5,0.0522,-1.3015,-0.106,0.1292,-0.3884,-0.019,2088
5,0.1309,-1.377,-0.1785,0.0996,-0.4127,-0.1631,2106
5,0.1685,-1.3455,-0.228,0.0398,-0.8027,-0.2804,2048
5,0.1431,-1.2151,-0.2168,-0.0164,-1.0822,-0.361,2070
5,0.1199,-1.0315,-0.1343,0.0141,-1.1724,-0.4735,2031
5,0.0564,-0.9536,-0.0757,0.0822,-1.0724,-0.6763,2047
5,0.0942,-0.9028,-0.1316,0.0491,-1.0063,-0.8568,2088
5,0.217,-0.8376,-0.2388,0.0345,-1.2589,-0.9689,2063
5,0.2756,-0.76,-0.3206,-0.0852,-1.4632,-1.0122,2072
5,0.239,-0.7197,-0.3242,-0.0668,-1.8855,-1.0043,2043
5,0.0491,-0.6028,-0.2981,-0.1225,-1.9345,-0.8748,2032
5,-0.2,-0.4863,-0.323,-0.1514,-1.5721,-0.8369,2025
5,-0.175,-0.4573,-0.2747,-0.1479,-1.2408,-0.8722,2037
5,-0.1782,-0.4075,-0.2542,-0.1412,-0.6269,-0.8239,2094
5,-0.2273,-0.4143,-0.2854,-0.0838,-0.0142,-0.708,2019
5,-0.0745,-0.3889,-0.2495,-0.2233,0.5488,-0.5612,2068
5,0.0212,-0.3984,-0.2058,-0.073,0.6252,-0.5193,2048
5,0.0366,-0.4033,-0.1672,-0.0752,0.7593,-0.4482,2072
5,0.0808,-0.4199,-0.2275,0.0718,0.7992,-0.4259,2065
5,0.0461,-0.4614,-0.1982,0.0842,0.544,-0.4815,2053
5,0.02,-0.4656,-0.231,0.3723,0.6714,-0.5027,2092
5,-0.1628,-0.3682,-0.1338,0.7119,1.0267,-0.3733,2063
5,-0.1953,-0.5178,-0.0149,0.6975,0.9196,-0.2023,2059
5,-0.2556,-0.5544,-0.0483,0.7644,1.1919,-0.1703,2068
5,-0.1184,-0.8184,0.0305,0.6139,1.3081,-0.1626,2046
5,0.0693,-0.9951,0.0056,0.3236,1.1713,-0.1698,2066
5,0.084,-1.0066,-0.1172,0.1365,1.1487,-0.1325,2073
5,0.0054,-1.0381,-0.1401,0.1739,0.8717,-0.0667,2052
5,0.1736,-1.1411,-0.1511,0.1607,0.6371,-0.1273,2077
5,0.3145,-1.2341,-0.196,0.0672,0.143,-0.2519,2051
5,0.4121,-1.2437,-0.1582,0.0567,-0.2547,-0.3757,2060
5,0.228,-1.1726,-0.2251,0.1931,-0.387,-0.4132,2094
5,0.0039,-1.1667,-0.2847,0.3085,-0.3502,-0.3995,2045
5,-0.1111,-1.272,-0.2048,0.2902,-0.1103,-0.3257,2057
5,-0.1416,-1.345,-0.1467,0.3444,0.3703,-0.2988,2062
5,-0.1638,-1.3481,-0.2588,0.4578,1.1435,-0.2314,2057
5,-0.23,-1.4194,-0.2466,0.4273,1.6394,-0.0365,2091
5,-0.3108,-1.4929,-0.1772,0.4793,1.7077,0.1518,2056
5,-0.1548,-1.4468,-0.1455,0.6468,1.7976,0.2542,2067
5,-0.1113,-1.5261,-0.1064,0.6944,1.719,0.2904,2098
6,-0.1267,-1.6074,-0.0898,0.7272,1.6554,0.3286,2053
6,-0.1873,-1.5935,-0.1116,0.6341,1.5126,0.4536,2044
6,-0.0403,-1.5398,-0.0754,0.4007,0.9826,0.4896,2049
6,0.2305,-1.4875,0.0225,0.1718,0.6118,0.4651,2021
6,0.2695,-1.4241,0.0085,-0.0165,0.3729,0.5064,2066
6,0.2908,-1.2825,0.0151,-0.1109,0.0971,0.512,2037
6,0.1824,-1.0596,0.0952,-0.1715,0.1609,0.5984,2122
6,0.0107,-1.0039,0.2368,-0.4458,0.1581,0.7191,2075
6,0.1001,-0.9685,0.1387,-0.6135,0.5199,0.7982,2034
6,-0.2141,-1.1294,0.188,-0.9813,1.6458,0.9602,2186
6,-0.0356,-0.8452,0.137,-0.8746,1.9266,0.8938,2093
6,0.2114,-0.9861,0.1074,-0.6658,1.9963,0.9905,2148
6,0.4209,-1.1196,-0.0171,-0.747,2.0216,0.9796,2121
6,0.4324,-1.1782,-0.0449,-0.6032,1.8423,0.9392,2070
6,0.4167,-1.1943,-0.0835,-0.4609,1.5291,0.9002,2161
6,0.377,-1.0583,-0.0884,-0.3834,1.065,0.6887,2050
6,0.2319,-0.9451,-0.0273,-0.3811,0.7506,0.6036,2031
6,0.0979,-0.9084,0.2261,-0.4735,0.3441,0.4988,2075
6,0.1172,-0.915,0.2659,-0.4959,-0.0294,0.3951,2055
6,0.1819,-0.8962,0.1426,-0.5585,0.0623,0.2328,2055
6,0.0706,-0.7471,0.0151,-0.4251,0.2914,0.2619,2060
6,-0.0215,-0.6665,-0.0137,-0.2563,0.4429,0.3553,2023
6,-0.0518,-0.6982,-0.0496,-0.131,0.6617,0.3822,2045
6,-0.0815,-0.7107,-0.1082,0.0117,0.9798,0.1931,2021
6,-0.1238,-0.7185,-0.1292,0.1017,1.2753,0.1007,2089
6,-0.0918,-0.6873,-0.1912,0.0083,1.3254,0.0426,2097
6,0.103,-0.6936,-0.2131,-0.0968,1.1983,-0.0912,2103
6,0.1526,-0.6453,-0.2437,-0.1413,1.1934,-0.112,2062
6,0.155,-0.6343,-0.2039,-0.1896,1.0075,-0.0553,2045
6,0.0051,-0.6257,-0.2991,-0.2808,0.5323,-0.0043,2097
6,-0.1099,-0.5815,-0.251,-0.0173,0.5044,0.028,2054
6,-0.1257,-0.5037,-0.1453,0.0344,0.4337,-0.0257,2057
6,-0.2144,-0.6155,-0.0417,0.1493,0.0656,-0.0225,2045
6,-0.1465,-0.8718,-0.0581,0.0964,-0.1732,0.0302,2089
6,-0.0769,-0.8989,-0.0256,0.0149,-0.2525,-0.018,2076
6,-0.0947,-0.8518,-0.0203,-0.0943,-0.2922,0.0425,2065
6,-0.1672,-0.8989,0.1133,-0.0824,-0.4966,0.1742,2107
6,-0.0708,-0.918,0.1479,0.0526,-0.5731,-0.0232,2054
6,-0.0403,-0.8467,0.1316,0.057,-0.3783,-0.1108,2072
6,-0.1687,-0.7153,0.042,0.2137,-0.2179,-0.136,2045
6,-0.1099,-0.8552,0.0779,0.4502,-0.0056,-0.3394,2069
6,0.0757,-1.0344,0.033,0.4128,0.0667,-0.3621,2036
6,0.1418,-1.1057,-0.1096,0.1173,-0.0245,-0.4224,2061
6,0.3206,-0.9607,-0.0881,0.1557,-0.4416,-0.4261,2087
6,0.2483,-1.0786,-0.0415,0.2087,-0.9087,-0.3566,2092
6,-0.0183,-1.1704,-0.2634,0.1635,-0.8918,-0.2984,2067
6,-0.2808,-1.2776,-0.3237,-0.1109,-0.5071,-0.3006,2075
6,-0.5432,-1.2246,-0.5342,-0.3274,0.076,-0.1795,2039
6,-0.4839,-1.1223,-0.5061,-0.3898,0.6462,-0.1197,2053
6,-0.3408,-1.2209,-0.3748,-0.4572,0.61,-0.0654,2017
6,-0.1199,-1.2649,-0.1387,-0.7304,0.6481,-0.1071,2042
6,-0.9912,-1.1028,0.1807,-1.5273,0.2868,-0.285,2049
6,-0.7139,-1.3601,-0.1907,-1.1974,1.2238,-0.193,2045
6,-0.3433,-1.4124,-0.2305,-1.1587,1.6896,0.2277,2014
6,-0.2488,-1.4937,-0.105,-1.1716,1.3798,0.3175,2057
6,-0.0896,-1.6628,0.0325,-1.0725,0.3434,0.2915,2067
6,0.0942,-1.6775,0.1587,-0.9475,-0.4593,0.1181,2073
6,0.207,-1.6309,0.0837,-0.7598,-0.5845,0.0049,2070
6,0.3059,-1.7764,0.0598,-0.4023,-0.4939,0.1141,2064
6,0.3274,-1.6687,0.095,-0.0664,-0.6095,0.4081,2040
6,0.0679,-1.4001,0.0498,0.3429,-0.1402,0.6661,2145
6,-0.062,-1.551,0.1248,0.966,0.7051,0.757,2060
6,-0.0613,-1.5471,0.2727,1.2754,1.6321,0.9392,2063
6,-0.1882,-1.7778,0.4417,0.7201,2.8283,0.8327,2066
6,-0.032,-1.8013,0.2734,-0.1417,2.7928,0.3868,1951
6,0.2241,-1.675,0.1233,-0.8072,2.578,0.4056,2050
6,0.4561,-1.4543,0.0393,-0.5244,2.5268,0.2915,2072
6,0.5273,-1.2397,-0.0039,-0.1786,2.2903,0.1248,2072
6,0.4458,-1.1938,-0.0781,-0.0265,1.8363,-0.0306,2040
6,0.4641,-1.2114,-0.0635,0.1421,1.2821,-0.1883,2059
6,0.4409,-1.104,-0.1401,0.3418,1.1154,-0.2968,2097
6,0.3191,-1.0105,-0.1265,0.3317,1.1227,-0.3176,2026
6,0.1301,-0.9026,-0.1184,0.4038,1.2671,-0.2936,2039
6,-0.0593,-0.8794,-0.071,0.437,1.5443,-0.3185,2061
6,-0.1133,-0.895,-0.1199,0.2416,1.935,-0.3308,2037
6,-0.0793,-0.8108,-0.1262,0.0914,2.312,-0.4309,2048
6,0.0818,-0.655,-0.1963,0.0699,2.2325,-0.4819,2066
6,0.1875,-0.5466,-0.2625,-0.0165,2.0343,-0.4817,2127
6,0.2002,-0.4365,-0.366,-0.0494,1.4929,-0.5112,2060
6,0.2661,-0.4077,-0.4065,0.0084,0.8967,-0.5273,2088
6,0.1704,-0.3359,-0.4163,-0.0154,0.6424,-0.4292,1954
6,0.1069,-0.2695,-0.4468,-0.1443,0.0794,-0.3675,2099
6,0.0889,-0.1577,-0.5732,0.0036,-0.3663,-0.3868,2067
6,0.0342,-0.1011,-0.5916,0.1701,-0.494,-0.4027,2074
6,-0.0945,-0.0208,-0.6418,0.349,-0.9614,-0.4015,2042
6,-0.1907,-0.0459,-0.6213,0.5589,-1.3205,-0.3887,2050
6,-0.2168,-0.1191,-0.5911,0.5947,-1.6438,-0.3743,2008
6,-0.1777,-0.2368,-0.5718,0.569,-1.8331,-0.2996,2065
6,-0.1812,-0.3206,-0.5383,0.5096,-1.829,-0.3269,2061
6,-0.1416,-0.3523,-0.5637,0.3128,-1.9305,-0.4767,2045
6,-0.0469,-0.345,-0.5371,0.2185,-2.2224,-0.7745,2066
6,0.0432,-0.3584,-0.4109,0.3131,-2.6288,-1.0838,2052
6,0.0884,-0.4558,-0.3198,0.4958,-3.1003,-1.3268,2091
6,0.1301,-0.6125,-0.282,0.5031,-3.6857,-1.4308,2054
6,0.0393,-0.8508,-0.3015,0.5466,-4.0213,-1.5229,2042
6,-0.0774,-1.1216,-0.3503,0.4894,-3.9037,-1.474,2034
6,-0.1873,-1.2227,-0.4353,0.3686,-3.2901,-1.4005,2061
6,-0.2402,-1.1711,-0.4189,0.3799,-2.5021,-1.2187,2063
6,-0.3345,-1.2163,-0.3501,0.6015,-1.6274,-0.972,2078
6,-0.2905,-1.252,-0.2532,0.7468,-0.8288,-0.6628,2058
6,-0.1812,-1.321,0.1436,2.0354,-1.2403,-0.636,2090
7,-0.1069,-1.5176,0.3286,1.1215,-0.1397,-0.4268,2102
7,0.3447,-1.6516,0.1182,0.086,-1.3978,-1.1672,2075
7,0.1765,-1.5081,0.0308,0.3445,-1.1212,-0.8806,2077
7,0.3564,-1.7395,0.2205,0.2208,-1.1082,-0.4629,2075
7,0.2603,-1.4429,0.1062,0.3705,-0.6725,0.1217,2030
7,0.1697,-1.4507,0.0354,0.4293,0.0443,0.4047,2058
7,0.1526,-1.3169,-0.1946,0.4991,0.9855,0.7501,2135
7,-0.1855,-2.0,0.3804,-0.3955,0.9485,0.4201,2066
7,0.0703,-1.4705,-0.1172,-0.2976,0.7134,0.2884,2047
7,0.1421,-1.1536,-0.1499,0.0914,1.2155,0.4333,2108
7,0.2256,-1.353,-0.0942,-0.0369,1.2224,0.6084,2035
7,0.2458,-1.2502,-0.1011,-0.1795,1.0272,0.6574,2047
7,0.196,-1.1331,-0.0923,-0.2651,0.9549,0.7344,2058
7,0.2769,-1.0439,0.0127,-0.3947,0.7396,0.8304,2062
7,0.3193,-1.0034,0.1138,-0.503,0.6691,1.0251,2042
7,0.4258,-1.0754,0.2097,-0.5019,0.6637,1.1087,2069
7,0.3997,-1.1426,0.2544,-0.595,0.7524,1.2619,2087
7,0.2761,-1.3633,0.2905,-0.779,0.8889,1.4117,2032
7,0.3218,-1.6445,0.3467,-1.0479,0.9172,1.582,2076
7,0.5886,-1.8638,0.3562,-1.6241,0.4717,1.6195,2092
7,0.719,-1.9282,0.3435,-2.2222,-0.0288,1.6799,2157
7,0.7542,-1.9014,0.3701,-2.7293,-0.5569,1.6547,1921
7,0.6978,-1.709,0.3738,-2.6986,-1.1295,1.5492,2013
7,0.4138,-1.4788,0.4128,-2.4213,-1.5716,1.6014,2151
7,-0.0017,-1.248,0.564,-1.9049,-2.0363,1.6135,2100
7,-0.3533,-1.1238,0.5576,-1.4584,-1.7032,1.6368,2047
7,-0.7144,-1.0911,0.4377,-1.2664,-0.805,1.686,2059
7,-0.7258,-1.1931,0.3591,-1.3981,-0.1424,1.6171,2098
7,-0.5515,-1.1797,0.2368,-1.5053,0.2896,1.6048,2005
7,-0.134,-1.0947,0.1052,-1.615,0.3477,1.3833,1998
7,0.0344,-0.9807,0.0259,-1.4712,-0.027,1.4652,2094
7,0.0928,-0.9287,-0.0068,-1.1512,-0.7076,1.4664,1929
7,0.1025,-0.9602,-0.0786,-0.923,-1.064,1.4487,2163
7,-0.1433,-0.9321,-0.1624,-0.734,-1.0966,1.3616,2129
7,-0.3008,-0.7446,-0.2175,-0.4281,-1.062,1.3342,2067
7,-0.283,-0.637,-0.3247,-0.5634,-0.6734,1.3215,1967
7,-0.3425,-0.8345,-0.5601,-0.7291,-0.0521,1.0893,2166
7,0.0483,-0.9419,-0.2446,-0.6617,-0.2935,0.7349,2088
7,0.2722,-0.8801,-0.479,-0.8658,-0.0643,0.3313,2117
7,0.1318,-0.7717,-0.5786,-0.7981,-0.8694,0.5096,2040
7,0.1409,-0.6873,-0.4788,-0.5331,-1.8594,0.6285,2060
7,-0.1411,-0.6013,-0.4561,-0.0724,-1.9065,0.6581,2120
7,-0.4048,-0.5117,-0.28,0.5484,-1.5013,0.7082,2188
7,-0.658,-0.6101,-0.2251,0.7612,-0.961,0.9187,2113
7,-0.7319,-0.7786,-0.1826,0.549,-0.346,0.9993,2031
7,-0.3733,-1.1506,-0.312,0.2795,0.785,1.0078,2087
7,-0.0674,-1.0754,-0.2424,0.6103,0.8084,1.2368,2060
7,-0.1504,-0.6953,-0.0676,0.877,-0.2012,1.5546,2047
7,-0.353,-0.384,-0.022,1.1156,-0.3225,1.4186,2056
7,-0.301,-0.1951,0.0056,1.4552,-0.0807,1.5332,2070
7,-0.467,-0.2361,-0.092,1.6161,0.497,1.7257,2066
7,-0.7417,-0.2158,-0.2905,1.8769,0.9411,1.9791,2056
7,-0.7026,-0.2654,-0.2341,2.1852,0.8524,2.2298,2065
7,-0.6873,-0.3081,-0.2422,2.2126,0.7221,2.5505,2075
7,-0.741,-0.3467,-0.3613,2.0237,0.6721,2.9103,2062
7,-0.802,-0.2996,-0.4697,1.8913,0.6718,3.2176,2040
7,-0.7925,-0.2722,-0.5132,1.6249,0.5028,3.4564,2050
7,-0.8347,-0.2095,-0.4934,1.4953,0.4609,3.6455,2055
7,-0.9482,-0.1895,-0.4663,1.1371,0.4737,3.8147,2050
7,-1.1211,-0.2561,-0.6387,0.6087,0.4769,4.0498,1999
7,-1.2495,-0.3108,-0.7781,0.0728,0.5424,4.2385,2063
7,-1.3018,-0.2673,-0.823,-0.2702,1.0013,4.3634,2072
7,-1.385,-0.1838,-0.7808,-0.4247,1.625,4.3634,2057
7,-1.4141,-0.2725,-0.7351,-0.83,1.8508,4.3634,2050
7,-1.3101,-0.4771,-0.8838,-1.3081,1.8369,4.3634,2034
7,-1.1404,-0.6653,-1.0315,-1.77,1.7475,4.3634,2069
7,-1.0764,-0.7368,-1.1099,-2.2712,1.6444,4.3634,2068
7,-1.0044,-0.71,-1.1248,-2.6908,1.5585,4.153,2067
7,-0.9727,-0.6179,-1.0142,-3.016,1.5261,3.8306,2071
7,-1.0193,-0.4932,-0.9304,-3.1464,1.6044,3.7081,2071
7,-1.1028,-0.3892,-0.8945,-3.2732,1.4444,3.5503,2057
7,-1.082,-0.4402,-0.8835,-3.2742,1.3689,3.3997,2058
7,-0.9771,-0.5408,-0.884,-3.218,1.3825,3.2124,2063
7,-0.9058,-0.5781,-0.938,-3.2232,1.5138,2.9881,2057
7,-0.8586,-0.6143,-0.938,-3.2001,1.5122,2.6627,2060
7,-0.8186,-0.6082,-0.9062,-3.1384,1.4155,2.3808,2057
7,-0.8113,-0.5535,-0.8696,-3.0907,1.3408,2.09,2060
7,-0.7329,-0.5242,-0.8657,-2.9641,1.2641,1.852,2072
7,-0.7192,-0.5154,-0.8174,-2.8791,1.1318,1.5265,2039
7,-0.7737,-0.5129,-0.7302,-2.8705,1.0714,1.2118,2025
7,-0.8301,-0.4873,-0.6926,-2.9095,1.072,0.9568,2105
7,-0.7935,-0.4595,-0.6011,-2.6598,1.284,0.748,2057
7,-0.8523,-0.5164,-0.4407,-2.3834,1.5648,0.6102,2067
7,-0.7383,-0.5073,-0.3494,-2.0831,1.6901,0.4141,2063
7,-0.6689,-0.5276,-0.2444,-1.9459,1.7721,0.1238,2054
7,-0.6089,-0.5752,-0.2446,-1.8849,1.6515,-0.0666,2050
7,-0.5798,-0.6399,-0.2729,-1.8145,1.5281,-0.2197,2070
7,-0.5906,-0.6301,-0.2766,-1.8538,1.1841,-0.3092,2068
7,-0.5054,-0.5305,-0.2727,-1.9547,0.7098,-0.2818,2060
7,-0.4771,-0.3467,-0.2722,-1.9101,0.2774,-0.2607,2059
7,-0.5132,-0.2412,-0.2502,-1.7261,0.0117,-0.3356,2069
7,-0.5474,-0.2092,-0.2812,-1.4592,-0.1935,-0.3798,2093
7,-0.6094,-0.2959,-0.3262,-1.3653,-0.3537,-0.4075,2067
7,-0.6843,-0.3196,-0.3865,-1.4045,-0.4667,-0.4296,2061
7,-0.7561,-0.217,-0.4856,-1.4203,-0.5907,-0.4046,2105
7,-0.7847,-0.1958,-0.5166,-1.3236,-0.5829,-0.3619,2105
7,-0.8298,-0.1421,-0.5176,-1.2832,-0.5454,-0.3259,2095
7,-0.8542,-0.219,-0.4565,-1.3119,-0.54,-0.2871,2060
7,-0.7998,-0.2058,-0.4199,-1.248,-0.4951,-0.2149,2069
7,-0.7866,-0.2107,-0.4119,-1.2198,-0.488,-0.1193,2054
7,-0.813,-0.2615,-0.4395,-1.1824,-0.4386,0.1539,2071
7,-0.8984,-0.2881,-0.4934,-1.1701,-0.3934,0.3766,2060
8,-0.9211,-0.2249,-0.551,-1.2034,-0.3464,0.5486,2070
8,-0.9409,-0.1292,-0.5242,-1.1844,-0.4163,0.6508,2110
8,-0.9309,-0.0723,-0.5349,-1.2134,-0.5556,0.6786,2073
8,-0.9333,-0.0288,-0.5874,-1.1878,-0.7205,0.6987,2058
8,-0.9258,-0.0012,-0.5684,-1.0236,-0.7967,0.6225,2065
8,-0.925,0.0166,-0.469,-0.8662,-0.7601,0.5532,2058
8,-0.9626,0.0798,-0.4141,-0.7063,-0.695,0.5705,2075
8,-0.8992,0.0027,-0.3569,-0.7277,-0.8054,0.4199,2067
8,-0.876,-0.0188,-0.3845,-0.8576,-0.9862,0.3245,2059
8,-0.8811,0.0063,-0.5115,-0.9708,-1.201,0.1988,2057
8,-0.8867,0.0896,-0.6802,-0.8935,-1.2344,0.0831,2062
8,-0.926,0.1753,-0.7498,-0.691,-1.0652,-0.0426,2060
8,-0.9976,0.2778,-0.7161,-0.4213,-0.8797,-0.1318,2059
8,-1.1487,0.3174,-0.6982,-0.2678,-0.6601,-0.1645,2094
8,-1.2947,0.2666,-0.6038,-0.1618,-0.3526,-0.1695,2067
8,-1.3352,0.1997,-0.4944,-0.1814,-0.0981,-0.0495,2050
8,-1.2869,0.1641,-0.459,-0.2826,0.4522,0.0162,2071
8,-1.2241,0.1924,-0.4985,-0.1139,1.0299,0.039,2061
8,-1.144,0.2087,-0.4526,0.1828,1.348,0.1164,2045
8,-1.1121,0.1294,-0.4265,0.2438,1.5692,0.2373,1963
8,-1.0347,-0.0083,-0.5078,-0.0867,1.5408,0.4056,2093
8,-0.8635,-0.1069,-0.6677,-0.3497,1.3238,0.594,2042
8,-0.7324,-0.0771,-0.6575,-0.276,1.0267,0.6911,1971
8,-0.7073,-0.0974,-0.532,-0.1278,0.9616,0.5464,2110
8,-0.73,-0.1028,-0.4556,-0.0229,0.9634,0.5216,2057
8,-0.8132,-0.0798,-0.4592,0.0121,0.6859,0.3107,2061
8,-0.9128,-0.1746,-0.4819,-0.0409,0.3505,0.351,2067
8,-0.8875,-0.198,-0.5325,-0.11,0.2958,0.3578,2066
8,-0.8372,-0.134,-0.4746,-0.1927,0.5771,0.3095,2064
8,-0.8464,-0.0342,-0.3738,-0.2563,0.6762,0.3906,2047
8,-0.7671,0.0664,-0.3413,-0.2915,0.436,0.2005,2007
8,-0.6587,0.114,-0.4436,-0.3039,0.2703,0.1987,2029
8,-0.5986,0.1084,-0.5195,-0.2258,0.129,0.2112,2053
8,-0.6118,0.1108,-0.4619,-0.1623,0.0646,0.2412,2056
8,-0.6243,0.165,-0.3479,-0.1101,-0.1322,0.3013,2071
8,-0.6282,0.2234,-0.2632,-0.0726,-0.292,0.3416,2033
8,-0.623,0.241,-0.2688,-0.0835,-0.3381,0.4139,2044
8,-0.6465,0.27,-0.2883,0.0602,-0.3171,0.405,2067
8,-0.7366,0.2698,-0.2634,0.1704,-0.1651,0.4255,2057
8,-0.7544,0.2842,-0.2302,0.3239,-0.0744,0.3669,2051
8,-0.7209,0.3035,-0.2097,0.4915,-0.0778,0.2971,2062
8,-0.7246,0.2556,-0.2683,0.5208,-0.0079,0.2269,2060
8,-0.7419,0.1548,-0.3611,0.3117,-0.1221,0.206,2057
8,-0.7273,0.0266,-0.5303,0.0246,-0.4291,0.2919,2062
8,-0.6875,-0.0093,-0.5862,-0.2437,-0.4374,0.3461,2020
8,-0.6958,0.1028,-0.5195,-0.3176,-0.3573,0.2705,2089
8,-0.7329,0.165,-0.3215,-0.1385,-0.4107,0.2617,2076
8,-0.7083,0.1311,-0.1741,-0.1298,-0.7385,0.0714,2065
8,-0.7651,0.1211,-0.1565,-0.1884,-0.925,-0.0132,2056
8,-0.937,0.1667,-0.2441,-0.1469,-0.7979,-0.0097,2062
8,-0.9412,0.1594,-0.3064,-0.0844,-0.6566,-0.0378,2055
8,-0.9045,0.1628,-0.2803,-0.0445,-0.5363,-0.0462,2062
8,-0.874,0.197,-0.2874,-0.0365,-0.2236,-0.0527,2053
8,-0.8191,0.1616,-0.3169,-0.0695,-0.1832,-0.0658,2067
8,-0.7612,0.1189,-0.3899,-0.1927,-0.4434,-0.1209,2056
8,-0.741,0.1528,-0.4561,-0.3199,-0.7498,-0.0742,2060
8,-0.7917,0.2112,-0.374,-0.3356,-0.8058,0.0344,2057
8,-0.8691,0.2805,-0.3074,-0.3542,-0.7778,0.1775,2048
8,-0.9243,0.323,-0.3149,-0.3354,-0.7163,0.3023,2060
8,-0.9377,0.3096,-0.3591,-0.2996,-0.6701,0.4461,2033
8,-0.8772,0.3232,-0.4534,-0.1732,-0.6269,0.5954,2073
8,-0.8943,0.3025,-0.4819,-0.1794,-0.2763,0.7327,2004
8,-0.9539,0.2776,-0.5205,-0.2112,-0.212,0.8814,2071
8,-0.9199,0.334,-0.6521,-0.0703,-0.1155,1.0326,2074
8,-0.9592,0.3481,-0.6782,0.2125,0.1426,1.0689,2018
8,-0.9265,0.3047,-0.6121,0.3553,0.1392,0.9921,2122
8,-0.9539,0.3467,-0.5864,0.5007,0.0672,0.9503,2089
8,-1.0862,0.4475,-0.5208,0.6831,-0.0993,0.8062,2090
8,-1.1531,0.4656,-0.481,0.899,-0.057,0.4918,2057
8,-1.1951,0.4009,-0.4731,1.0662,0.0306,0.3338,2063
8,-1.323,0.3369,-0.5408,1.0979,0.0446,0.242,2041
8,-1.4377,0.3015,-0.5896,1.0805,0.0228,0.0285,2060
8,-1.3567,0.3108,-0.4836,1.0087,-0.0772,-0.1635,2068
8,-1.2065,0.3877,-0.3774,0.9128,0.0514,-0.3738,2047
8,-1.1575,0.4866,-0.4219,0.9179,0.0927,-0.5574,2054
8,-1.186,0.4829,-0.5249,0.9328,-0.1603,-0.7273,2010
8,-1.1794,0.4458,-0.6892,0.8222,-0.4457,-0.8499,2066
8,-1.1343,0.397,-0.782,0.6833,-0.6978,-0.8945,2065
8,-1.0796,0.364,-0.8071,0.5369,-0.8441,-0.8901,2062
8,-1.0347,0.3625,-0.7798,0.4006,-0.9947,-0.9431,2062
8,-0.9541,0.335,-0.7598,0.2413,-1.1772,-0.9592,2064
8,-0.9087,0.3186,-0.7446,0.0138,-1.3901,-0.9234,2041
8,-0.8455,0.2686,-0.7488,-0.2573,-1.6101,-0.8592,2077
8,-0.8445,0.2405,-0.7485,-0.5245,-1.8215,-0.7684,2091
8,-0.8628,0.2651,-0.6658,-0.6464,-1.9208,-0.7186,2057
8,-0.8281,0.2927,-0.5823,-0.5469,-1.7608,-0.6367,2103
8,-0.7673,0.2686,-0.4817,-0.6444,-1.8379,-0.6629,2068
8,-0.7646,0.272,-0.4165,-0.5962,-1.9582,-0.5924,2063
8,-0.8147,0.262,-0.3281,-0.5678,-1.9449,-0.5879,2070
8,-0.7676,0.2336,-0.3091,-0.3896,-1.9054,-0.467,2062
8,-0.7708,0.2305,-0.2791,-0.3041,-1.8132,-0.3433,2045
8,-0.7649,0.2207,-0.2517,-0.0964,-1.7636,-0.1904,2065
8,-0.6909,0.2263,-0.2251,0.0487,-1.864,-0.1649,2062
8,-0.6963,0.323,-0.1975,0.3665,-1.8752,-0.1197,2062
8,-0.7266,0.3701,-0.1558,0.7827,-1.7953,-0.2701,2070
8,-0.697,0.2092,-0.0769,0.9222,-1.9193,-0.3862,2056
8,-0.7129,0.1792,-0.0701,1.0591,-2.0258,-0.3649,2068
8,-0.655,0.1111,-0.084,1.2503,-1.9807,-0.2441,2057
8,-0.6013,-0.0581,-0.106,1.3892,-2.1337,-0.0392,2050
8,-0.5999,-0.2205,-0.1492,1.5568,-2.2244,0.1996,2075
8,-0.5884,-0.3162,-0.0781,1.2785,-2.1482,0.4293,2067
8,-0.6143,-0.311,-0.0308,0.8962,-1.9941,0.6377,2055
8,-0.7358,-0.239,-0.0417,0.5056,-1.7006,0.7758,2062
8,-0.8401,-0.0884,-0.0115,0.2358,-1.3399,0.5257,2054
8,-0.7988,-0.0337,0.0566,-0.0587,-1.0271,0.3212,2071
9,-0.6807,-0.054,0.0684,-0.348,-0.8365,0.1478,2064
9,-0.47,-0.0798,0.0776,-0.5276,-0.5594,0.0663,2071
9,-0.3396,-0.0811,0.0205,-0.599,-0.4818,-0.0252,2024
9,-0.2966,-0.1267,-0.0439,-0.5995,-0.8886,0.0205,2075
9,-0.3538,-0.1758,-0.1501,-0.599,-1.4105,0.1237,2051
9,-0.594,-0.2822,-0.2241,-0.6448,-1.6398,0.2888,1989
9,-0.8413,-0.384,-0.2932,-1.0809,-1.4761,0.4894,2058
9,-1.1768,-0.3523,-0.3835,-1.3117,-0.7645,0.8962,2064
9,-1.3962,-0.2451,-0.3074,-1.3086,0.3199,1.27,2062
9,-1.4167,-0.1306,-0.1196,-1.2616,1.2161,1.5852,2055
9,-1.2515,-0.0078,0.0845,-1.3216,1.5772,1.7145,2069
9,-0.9937,0.1479,0.0557,-1.4516,1.7903,1.7225,2055
9,-0.8335,0.2419,-0.1665,-1.6141,1.7723,1.6792,2059
9,-0.7839,0.3035,-0.3604,-1.7282,1.5301,1.5017,2051
9,-0.8032,0.353,-0.4739,-1.7484,1.303,1.2571,2053
9,-0.7791,0.3748,-0.4609,-1.8134,1.0606,1.0259,2070
9,-0.855,0.4575,-0.394,-1.7721,0.9604,0.7891,2052
9,-0.906,0.5134,-0.2607,-1.6484,0.9625,0.5176,2062
9,-0.9785,0.4812,-0.0833,-1.5751,1.06,0.2768,2055
9,-0.9749,0.4141,0.062,-1.5834,0.8176,0.1866,2075
9,-0.9722,0.4426,0.0249,-1.5285,0.5826,0.1189,2056
9,-0.8877,0.4863,-0.0469,-1.3643,0.5513,0.0554,2061
9,-0.8831,0.4602,-0.0391,-1.0836,0.7482,0.0168,2061
9,-0.9595,0.4426,-0.0193,-0.82,1.0062,-0.0995,2099
9,-1.0159,0.3506,0.0105,-0.6835,1.0998,-0.237,2104
9,-0.9558,0.3003,-0.0132,-0.4908,0.9949,-0.4324,2066
9,-0.8787,0.2505,-0.0249,-0.1606,0.9247,-0.6883,2069
9,-0.8499,0.165,-0.0234,0.2071,1.0503,-0.932,2089
9,-0.8855,0.0769,-0.02,0.5272,1.2645,-1.1262,2076
9,-0.8752,-0.0879,0.0007,0.6221,1.3007,-1.1945,2086
9,-0.8149,-0.2007,-0.0112,0.5473,1.3201,-1.2089,2074
9,-0.812,-0.2756,-0.0217,0.4872,1.4319,-1.164,2091
9,-0.8091,-0.3389,0.0244,0.3867,1.5113,-1.0774,2060
9,-0.8572,-0.3459,0.02,0.3259,1.5246,-0.9146,2067
9,-0.9512,-0.1951,-0.1421,0.389,1.3877,-0.7625,2068
9,-0.9338,-0.0603,-0.2292,0.5734,1.3137,-0.5956,2037
9,-0.853,-0.0115,-0.2244,0.5481,1.2503,-0.4717,2042
9,-0.8406,0.032,-0.2236,0.5002,1.2392,-0.3647,2059
9,-0.8745,0.0935,-0.2046,0.5498,1.2275,-0.2954,2061
9,-0.8877,0.1208,-0.1323,0.6626,1.1383,-0.2188,2061
9,-0.8821,0.104,-0.0288,0.7167,1.0143,-0.1428,2059
9,-0.9094,0.0959,0.0066,0.6936,0.9343,-0.0407,2061
9,-0.9304,0.0696,-0.113,0.5721,1.0308,0.0477,2091
9,-0.9656,0.0464,-0.2163,0.6023,1.2993,0.1605,2061
9,-0.9651,0.043,-0.252,0.575,1.5074,0.1551,2055
9,-0.9817,0.1467,-0.1802,0.7138,1.4763,0.1438,2068
9,-0.9265,0.2573,-0.1965,0.7561,1.7658,0.0611,2061
9,-0.8503,0.2842,-0.1604,0.6751,1.9969,0.0525,2026
9,-0.7725,0.2629,-0.1089,0.6883,1.8467,0.0985,2060
9,-0.717,0.2261,-0.075,0.6177,1.5751,0.0461,2041
9,-0.7041,0.1741,-0.1055,0.453,1.3363,-0.0501,2091
9,-0.7603,0.0945,-0.25,0.3003,1.0365,-0.186,2065
9,-0.781,-0.009,-0.3831,0.0401,0.9397,-0.2774,2103
9,-0.8154,-0.1006,-0.5632,-0.3232,1.0768,-0.2523,2165
9,-0.8936,-0.0908,-0.6912,-0.6277,1.377,-0.1651,2090
9,-0.9468,-0.0125,-0.6052,-0.6493,1.6341,-0.1603,2030
9,-0.9084,0.0796,-0.3613,-0.634,1.5487,-0.1784,2070
9,-0.7556,0.2107,-0.2161,-0.7108,0.9789,-0.157,2069
9,-0.5601,0.3186,-0.1279,-0.7838,0.6582,-0.1252,2069
9,-0.5681,0.4146,-0.219,-0.7014,0.4223,-0.0864,2051
9,-0.7256,0.4956,-0.3286,-0.5421,0.1077,-0.1814,2056
9,-0.8098,0.5208,-0.4448,-0.4404,-0.0843,-0.3886,2005
9,-0.917,0.4827,-0.4731,-0.3581,-0.0563,-0.6465,2077
9,-0.918,0.303,-0.543,-0.5289,0.1876,-0.8861,2046
9,-0.9392,0.1191,-0.5415,-0.6442,0.3444,-1.0973,2074
9,-0.9165,-0.0125,-0.5564,-0.6333,0.5408,-1.1544,2053
9,-0.8298,0.0208,-0.593,-0.5344,0.5899,-0.9644,2086
9,-0.9482,0.0923,-0.6106,-0.3835,0.6408,-0.6913,2105
9,-1.2031,0.1711,-0.6614,-0.0835,0.7119,-0.5695,2056
9,-1.3926,0.2209,-0.7803,0.2651,0.7903,-0.524,2087
9,-1.425,0.1689,-0.8582,0.5406,0.8143,-0.5208,2059
9,-1.4431,0.1194,-0.907,0.6718,0.9765,-0.5645,2059
9,-1.3953,0.1812,-0.9419,0.8071,1.2808,-0.7558,2009
9,-1.3477,0.2017,-0.9272,1.1348,1.4226,-1.0302,2065
9,-1.2034,0.0847,-0.7991,1.4296,1.4422,-1.2774,2067
9,-1.0869,-0.0325,-0.7024,1.4524,1.4636,-1.2607,2067
9,-1.0737,-0.2539,-0.5205,1.2041,1.4753,-1.2702,2086
9,-1.1812,-0.3613,-0.3838,0.607,1.4343,-1.4033,2055
9,-1.5181,-0.2737,-0.0166,-0.3457,1.2155,-1.8194,2086
9,0.5049,-0.3203,-2.0,-1.9811,1.4901,-1.5021,2062
9,0.1016,0.4436,-1.2834,1.0175,2.3579,-1.1436,2049
9,-0.4722,0.1384,-0.6992,1.5294,2.2442,-1.2315,2069
9,-0.8584,-0.0549,-0.4475,1.409,1.6183,-1.2243,2066
9,-1.0786,0.0322,-0.5176,1.1652,1.076,-1.1258,2062
9,-1.1414,0.0706,-0.5688,1.0069,0.6645,-1.1347,2060
9,-1.0374,0.0652,-0.77,0.9841,0.8234,-0.9871,2113
9,-0.9368,-0.0427,-0.9534,0.9263,1.2407,-0.7637,2047
9,-0.9192,-0.0642,-0.9717,0.7323,1.5222,-0.6502,2070
9,-0.8752,-0.075,-0.8301,0.3418,1.5608,-0.6757,2118
9,-0.7659,-0.1094,-0.6934,-0.0795,1.546,-0.873,2088
9,-0.6382,-0.0876,-0.6077,-0.3231,1.6507,-0.8893,2055
9,-0.5364,-0.0735,-0.5776,-0.4252,1.6837,-0.861,2058
9,-0.5269,-0.0457,-0.5593,-0.3896,1.3643,-0.8003,2070
9,-0.6458,0.0752,-0.4502,-0.4807,0.754,-0.7171,2064
9,-0.6404,0.345,-0.4258,-0.643,-0.3863,-0.4236,2046
9,-0.2817,-0.1885,-0.7415,0.012,0.2979,-0.6602,2048
9,-0.4971,-0.0576,-0.6328,0.0746,0.1871,-0.6783,2077
9,-0.5959,0.0203,-0.5283,0.0403,-0.0025,-0.6381,2060
9,-0.7185,-0.0784,-0.5442,-0.0547,-0.0846,-0.6675,2095
9,-0.668,0.0115,-0.5303,-0.1699,-0.2441,-0.594,2032
9,-0.6533,-0.0212,-0.5872,-0.334,-0.2542,-0.6606,2041
10,-0.5903,-0.0522,-0.6606,-0.6217,-0.3031,-0.7127,2018
10,-0.5239,-0.0476,-0.6309,-0.4522,-0.2215,-0.9155,2091
10,-0.5725,-0.0432,-0.5796,-0.0783,0.0852,-1.0302,2040
10,-0.6448,-0.0601,-0.6206,0.0787,0.3298,-0.9315,2065
10,-0.6946,-0.0774,-0.6838,0.0551,0.4586,-0.6933,2044
10,-0.645,-0.0715,-0.7007,0.0477,0.4169,-0.5754,2050
10,-0.5471,-0.1345,-0.7261,0.0421,0.2654,-0.4321,2060
10,-0.4509,-0.1582,-0.7886,-0.1005,0.0466,-0.3381,2067
10,-0.4893,-0.0576,-0.8457,-0.0301,-0.1015,-0.3566,2050
10,-0.5811,-0.1333,-0.8135,0.0212,-0.1089,-0.4666,2063
10,-0.679,-0.0974,-0.7866,0.0708,-0.0025,-0.5461,2070
10,-0.6499,-0.1091,-0.7932,0.0121,-0.012,-0.6034,2077
10,-0.6179,-0.1404,-0.9146,-0.1345,0.0028,-0.6851,2053
10,-0.627,-0.1355,-0.9868,-0.1253,0.0257,-0.6885,2092
10,-0.646,-0.2114,-0.9766,-0.2212,-0.0578,-0.6959,2062
10,-0.655,-0.1277,-1.0276,-0.1045,0.0111,-0.524,2066
10,-0.6995,-0.1833,-0.9827,-0.2099,0.0134,-0.5751,2063
10,-0.8196,-0.1985,-1.0139,-0.1296,0.1601,-0.5039,2063
10,-0.6672,-0.1655,-0.9963,0.0449,-0.0246,-0.5372,2066
10,-0.8047,-0.2478,-1.0261,0.295,-0.1562,-0.7548,2047
10,-0.936,-0.3486,-1.1165,0.3926,-0.1638,-0.8012,2032
10,-0.9294,-0.2471,-1.0044,0.6165,-0.363,-0.7452,2062
10,-1.1284,-0.2473,-0.9104,1.1573,-0.3763,-0.6272,2065
10,-1.23,-0.5747,-0.7942,1.3704,0.4119,-0.7779,2065
10,-0.9951,-0.6455,-0.8987,1.3027,0.4299,-0.4293,2039
10,-1.0374,-0.8049,-0.7734,1.0328,0.3148,-0.5047,2105
10,-0.8164,-0.8748,-0.8647,0.7923,0.2377,-0.5979,2059
10,-0.55,-0.8735,-0.7703,0.5951,-0.077,-0.4472,2066
10,-0.2852,-0.7915,-0.7324,0.3621,-0.9191,-0.2404,2047
10,-0.1387,-0.8699,-0.6416,0.242,-1.986,-0.4115,2027
10,-0.1926,-0.9456,-0.5007,-0.2714,-2.756,-0.3816,2095
10,-0.4583,-0.9011,-0.5662,-0.5904,-2.3843,-0.4135,2019
10,-0.9407,-0.7981,-0.7415,-0.6699,-1.8265,-0.5055,2062
10,-0.8647,-0.7778,-0.7522,-1.0595,-1.3532,-0.5898,2096
10,-0.877,-0.813,-0.7832,-1.2172,-0.912,-0.2858,1950
10,-0.8186,-0.6064,-0.7979,-1.309,-0.919,-0.0454,2057
10,-0.8127,-0.4456,-0.8916,-1.2196,-0.8287,0.0838,2045
10,-0.8323,-0.4038,-0.8818,-1.1074,-0.765,0.1722,2070
10,-0.854,-0.4878,-0.7224,-1.1121,-0.7783,0.3013,2073
10,-0.8115,-0.5789,-0.6257,-1.2993,-0.7771,0.3037,2116
10,-0.7947,-0.3748,-0.6858,-1.1896,-0.6022,0.4184,2102
10,-0.7112,-0.2375,-0.6165,-0.9593,-0.4955,0.4079,2066
10,-0.6165,-0.2568,-0.562,-0.8971,-0.5233,0.5111,2060
10,-0.6055,-0.2117,-0.5212,-0.7401,-0.6845,0.51,2053
10,-0.4812,-0.0852,-0.4502,-0.5392,-0.8826,0.4083,2071
10,-0.5042,-0.1199,-0.2996,-0.5522,-0.6721,0.4489,2064
10,-0.5432,-0.092,-0.2871,-0.5686,-0.3389,0.422,2016
10,-0.5908,-0.0295,-0.2874,-0.5339,-0.0108,0.3657,2138
10,-0.5691,-0.0234,-0.2556,-0.4674,0.1385,0.3453,2067
10,-0.489,-0.061,-0.1343,-0.0643,0.0936,0.1948,2054
10,-0.4453,-0.0339,-0.1521,0.3241,0.131,0.2044,2097
10,-0.4197,-0.0859,-0.2603,0.4288,0.1148,0.3868,2020
10,-0.5149,-0.1392,-0.332,0.4372,0.0264,0.4318,2045
10,-0.5378,-0.0459,-0.2839,0.6411,-0.2404,0.3377,2063
10,-0.6309,-0.0427,-0.2432,0.646,-0.295,0.1208,2088
10,-0.7434,-0.0586,-0.2222,0.5854,-0.2665,-0.0063,1939
10,-0.75,-0.03,-0.2419,0.5312,-0.2121,-0.0985,2102
10,-0.7732,0.0408,-0.3533,0.662,-0.018,-0.0668,2096
10,-0.894,0.1389,-0.3174,0.9982,0.0732,0.1135,2005
10,-1.062,0.178,-0.2627,1.0935,0.1979,0.4851,2070
10,-1.1221,0.1514,-0.3779,1.0497,0.571,0.8206,2067
10,-1.1101,0.093,-0.3374,1.417,0.8954,1.0376,2058
10,-0.9651,-0.0698,-0.2014,1.7038,1.123,1.0665,2184
10,-0.6272,-0.3311,-0.2061,1.5953,1.0487,0.9468,2064
10,-0.4729,-0.5127,-0.4131,1.3874,1.0557,0.628,2034
10,-0.5388,-0.6292,-0.6284,1.0832,1.2488,0.3994,2067
10,-0.7949,-0.7898,-0.7769,0.6661,1.1272,0.0985,2074
10,-0.5747,-0.7634,-0.8438,0.1742,0.7031,-0.3345,2125
10,-0.5237,-0.6951,-0.9849,-0.2414,0.6424,-0.5022,2115
10,-0.6841,-0.5498,-1.1274,-0.8998,1.25,-0.2177,2064
10,-0.9512,-0.3457,-1.3545,-1.491,2.1327,0.4484,2092
10,-1.2275,-0.1909,-1.5359,-1.3037,2.7522,1.5102,2074
10,-1.2454,-0.2358,-1.2549,-1.0345,2.7377,2.1917,2054
10,-0.6362,-0.3965,-1.002,-1.3288,2.8914,1.9897,2040
10,-0.252,-0.4639,-1.2166,-1.8006,3.0666,1.6402,2058
10,-0.5396,-0.386,-1.384,-1.8302,2.7962,1.4356,2059
10,-0.8091,-0.2463,-1.3191,-1.8191,2.4127,1.3093,2061
10,-0.7559,-0.1318,-1.1294,-1.7109,1.9289,1.1499,2050
10,-0.772,0.0083,-1.0337,-1.6966,1.6446,0.9794,2056
10,-0.7246,0.1816,-1.0381,-1.3688,1.6347,0.7469,2130
10,-0.7456,0.1321,-0.9558,-1.0645,1.5034,0.6606,2108
10,-0.9253,-0.1558,-1.0234,-1.3151,1.2268,0.6972,2062
10,-0.8027,-0.2161,-0.9954,-1.2978,0.9207,0.8622,2069
10,-0.9651,-0.0178,-1.0354,-0.8889,1.3703,1.4242,2092
10,-0.7959,-0.051,-1.177,-0.2057,1.7839,1.8759,2260
10,-0.6699,-0.1069,-1.0562,-0.3325,1.4954,1.6731,2099
10,-0.6135,-0.1426,-0.8618,-0.4735,0.6782,1.2483,2122
10,-0.5149,-0.0999,-1.0386,-0.1943,0.0169,0.8315,1809
10,-0.5835,-0.1655,-1.0129,-0.2077,-0.6946,0.487,2237
10,-0.5828,-0.0049,-0.9736,-0.1027,-0.8253,0.1354,2059
10,-0.4626,0.0227,-0.8828,0.1883,-0.9196,-0.0977,1980
10,-0.5364,0.0449,-0.7043,0.4255,-1.2244,-0.3184,2646
10,-0.5725,0.0535,-0.5588,0.9352,-1.1543,-0.3512,1557
10,-0.6353,-0.0601,-0.5164,1.4186,-0.8915,-0.2778,2059
10,-0.7964,-0.1516,-0.4482,1.7777,-0.6604,-0.225,2052
10,-0.8816,-0.2422,-0.5059,1.9654,-0.3271,-0.1834,2049
10,-0.7024,-0.3281,-0.6836,1.5964,-0.5269,-0.0446,2088
10,-0.4431,-0.1926,-0.8057,1.033,0.0204,-0.0953,2071
10,-0.3484,-0.3428,-0.7485,0.9032,0.3179,-0.1308,2020
10,-0.1235,-0.4009,-0.8413,0.5671,-0.5885,-0.2309,2086
10,0.1509,-0.3135,-0.8828,0.2657,-1.8727,-0.3224,2054
10,0.1362,-0.1396,-0.7998,0.2168,-3.0162,-0.4884,2092
11,0.0024,0.0925,-0.6313,0.2886,-3.101,-0.4361,2103
11,-0.3677,0.1135,-0.6282,0.2927,-2.7015,-0.2148,2051
11,-0.782,0.0288,-0.5457,0.2464,-2.6518,-0.1258,2059
11,-0.8457,-0.1558,-0.5898,-0.188,-2.0702,0.0776,2071
11,-0.7922,0.0291,-0.7207,-0.2864,-1.6768,0.2595,2072
11,-0.8931,0.2468,-0.657,-0.0744,-1.0604,0.4232,2060
11,-0.8127,0.1599,-0.7041,-0.0547,-0.269,0.3462,2061
11,-0.5605,-0.0356,-0.6216,-0.138,-0.0132,0.4506,2052
11,-0.499,-0.0991,-0.5522,-0.0505,0.2703,0.5047,2041
11,-0.6509,-0.1772,-0.5039,0.1164,0.6594,0.4593,2047
11,-0.7761,-0.2832,-0.5618,0.0345,0.5088,0.4397,2015
11,-0.7551,-0.387,-0.6919,-0.2545,-0.0521,0.3836,2062
11,-0.5972,-0.3774,-0.6909,-0.3864,0.0364,0.1874,2116
11,-0.5317,-0.4055,-0.7083,-0.6922,0.1551,0.2362,1793
11,-0.6089,-0.2915,-0.71,-0.7344,-0.0763,0.457,2009
11,-0.7974,-0.1858,-0.6431,-0.6096,-0.239,0.4583,2289
11,-1.0405,-0.2239,-0.6611,-0.508,-0.1831,0.5027,2092
11,-1.1873,-0.2546,-0.6184,-0.4979,-0.0668,0.4538,2048
11,-1.0337,-0.2371,-0.6204,-0.3727,0.4185,0.541,2039
11,-0.8462,-0.1233,-0.6445,-0.1867,0.8234,0.4746,2054
11,-0.6528,-0.0442,-0.7166,-0.1478,0.6315,0.503,2051
11,-0.6841,0.0986,-0.9087,-0.0822,0.5586,0.5221,2052
11,-0.7708,0.1575,-1.0676,-0.1316,0.6881,0.504,2035
11,-0.8105,0.2014,-1.1008,0.049,0.7068,0.34,2070
11,-0.5776,0.0142,-1.0125,0.3356,0.7126,0.3385,2054
11,-0.53,-0.1282,-1.0894,0.3404,0.4783,0.5311,2057
11,-0.6021,-0.2095,-1.2793,0.2087,0.388,0.6281,2068
11,-0.7266,-0.1846,-1.2229,0.3294,0.1839,0.5879,2069
11,-0.7871,-0.1724,-1.0195,0.3878,0.0764,0.4213,2035
11,-0.812,-0.1423,-0.9155,0.3061,0.0238,0.3453,2061
11,-0.7576,-0.21,-0.9961,0.1333,0.2306,0.3705,2076
11,-0.6838,-0.2324,-1.1335,-0.1744,0.2561,0.3838,2095
11,-0.582,-0.1892,-1.2666,-0.5891,-0.0053,0.1831,2051
11,-0.7678,-0.0776,-1.2891,-0.8793,0.5871,0.1663,2055
11,-0.8447,-0.0835,-0.4961,-0.2004,0.1716,0.2545,2071
11,-0.6213,-0.0718,-0.2102,0.0284,-0.1691,0.4693,2066
11,-0.4749,-0.2217,-0.5513,-0.0262,-0.2816,0.1539,2062
11,-0.5112,-0.5422,-0.7654,-0.1955,0.0603,0.0254,2058
11,-0.8113,-0.5022,-0.9221,-0.4019,0.3224,0.194,2051
11,-0.8828,-0.4189,-0.7676,-0.3545,0.1766,0.2196,2062
11,-0.8074,-0.4199,-0.6277,-0.4076,0.0824,0.2497,2074
11,-0.7109,-0.3557,-0.7603,-0.5789,0.6134,0.2916,2064
11,-0.8364,-0.1895,-0.6533,-0.2124,0.9838,0.3811,2064
11,-0.8867,-0.0813,-0.4182,0.3211,1.0842,0.4179,2061
11,-0.8142,-0.0811,-0.4265,0.408,1.058,0.4625,2051
11,-0.7603,-0.1045,-0.5779,0.4196,1.2801,0.359,2087
11,-0.7888,-0.1389,-0.7327,0.3025,1.3572,0.3629,2055
11,-0.7332,-0.0251,-0.7725,0.059,1.2995,0.2908,2065
11,-0.5212,0.0837,-0.7327,0.1806,0.9126,0.2113,2062
11,-0.3315,0.123,-0.6797,0.1754,0.2157,0.3599,2048
11,-0.3799,0.2048,-0.6565,0.089,-0.1346,0.5036,2095
11,-0.6917,0.5127,-0.5383,0.3272,-0.1044,0.7481,2067
11,-0.8579,0.4409,-0.4749,0.6227,-0.1839,0.8789,2047
11,-1.02,0.1594,-0.5625,0.4718,-0.3032,0.6525,2061
11,-0.8845,0.062,-0.6277,0.279,-0.2213,0.5492,2060
11,-0.7346,0.0986,-0.7295,0.0036,-0.0649,0.5352,2093
11,-0.5605,0.0483,-0.7351,-0.0253,0.2051,0.4643,2062
11,-0.5806,-0.1045,-0.7041,0.0104,0.2991,0.4711,2043
11,-0.6877,-0.2244,-0.657,-0.065,0.4856,0.5256,2172
11,-0.5798,-0.1138,-0.6267,-0.2851,0.801,0.565,2053
11,-0.5271,-0.2659,-0.5132,-0.4015,1.2286,0.6902,2069
11,-0.606,-0.4065,-0.6589,-0.5105,1.6135,0.7054,2082
11,-0.4636,-0.3496,-0.4631,-0.5478,1.6745,0.8429,2066
11,-0.1685,-0.3398,-0.4771,-0.6742,1.9796,0.7416,1999
11,-0.1138,-0.3081,-0.667,-0.7815,1.7966,0.8166,2120
11,-0.3113,-0.1531,-0.6179,-0.6877,1.5928,0.7965,2075
11,-0.3069,-0.0415,-0.4922,-0.5881,1.6787,0.8897,2074
11,-0.2261,0.0071,-0.6089,-0.316,1.7259,0.8589,2064
11,-0.4736,0.136,-0.7139,-0.2807,1.3477,0.9614,2065
11,-0.5383,0.2954,-0.8052,-0.1385,0.6135,0.8115,2069
11,-0.4612,0.2729,-0.7607,-0.3667,0.0107,0.6464,2074
11,-0.5989,0.3623,-0.7637,-0.1876,-0.2515,0.4231,2054
11,-0.731,0.3264,-0.6824,-0.1723,-0.4521,0.1934,2059
11,-0.6995,0.2732,-0.6323,0.1218,-0.4815,0.0461,2058
11,-0.6362,0.1943,-0.7717,0.1116,-0.5355,-0.035,2094
11,-0.6123,0.2229,-0.9995,-0.0362,-0.2874,-0.0152,2102
11,-0.5649,0.3579,-0.9436,0.2566,-0.2156,0.0196,2063
11,-0.437,0.375,-0.8972,0.652,-0.5693,-0.004,2012
11,-0.4097,0.2117,-1.0012,0.8985,-1.1017,0.0284,2090
11,-0.3271,0.2131,-1.0193,1.2379,-1.7149,0.0518,2088
11,-0.4592,0.1204,-1.0237,1.3615,-2.0068,-0.1619,2066
11,-0.8591,-0.0786,-0.958,1.4528,-1.8279,-0.2948,2048
11,-1.0852,-0.0703,-0.9463,1.5028,-1.5964,-0.4404,2076
11,-1.1902,-0.0146,-0.8933,1.6209,-1.1937,-0.6967,2049
11,-1.2078,0.0122,-1.0747,1.7041,-0.536,-0.9036,2065
11,-1.0466,-0.0708,-1.1279,1.9089,0.4003,-0.8608,2073
11,-0.8855,-0.2246,-1.2117,1.9595,0.9584,-0.8476,2053
11,-0.6572,-0.2488,-1.28,1.9752,0.8606,-0.7846,2046
11,-0.5254,-0.2593,-1.2136,1.8463,0.646,-0.7512,2072
11,-0.5386,-0.3604,-1.1277,1.4346,0.4219,-0.7028,2095
11,-0.4324,-0.4749,-1.2234,0.8224,0.1475,-0.6534,2053
11,-0.4404,-0.386,-1.2209,0.3409,0.2139,-0.5355,2052
11,-0.5688,-0.2314,-1.2466,0.0792,0.172,-0.4578,2043
11,-0.6497,-0.1118,-1.1572,-0.0237,0.0301,-0.3597,2040
11,-0.6738,-0.0225,-1.1528,-0.1169,-0.0467,-0.2053,2117
11,-0.7019,0.0366,-1.1174,-0.1509,-0.2412,-0.1602,2097
11,-0.6775,0.0789,-1.0017,-0.0826,-0.4955,-0.1716,2146
11,-0.6692,-0.0505,-0.8745,-0.1317,-0.8328,-0.2962,2058
11,-0.6084,-0.1948,-0.8813,-0.1104,-1.2027,-0.393,2117
11,-0.4929,-0.3237,-0.9036,-0.1075,-1.443,-0.4874,2056
11,-0.5662,-0.3074,-0.8232,-0.1887,-1.2544,-0.5512,2069
11,-0.658,-0.2563,-0.7705,-0.0653,-1.3721,-0.5296,2044
11,-0.5168,0.0247,-0.7124,0.1265,-1.7534,-0.5324,2063
12,-0.4084,-0.0176,-0.6968,0.1067,-2.0257,-0.6505,2052
12,-0.4133,-0.1785,-0.8289,0.0141,-2.2843,-0.819,2053
12,-0.2122,-0.2131,-0.7957,0.0145,-2.469,-0.8618,2058
12,-0.2864,-0.2212,-0.7329,-0.0719,-2.3782,-0.87,2068
12,-0.3411,-0.2024,-0.6482,-0.2695,-1.9604,-0.8941,2041
12,-0.4312,-0.1812,-0.592,-0.2027,-1.7562,-0.9477,2056
12,-0.3862,-0.137,-0.5542,-0.1405,-1.4177,-0.8612,2056
12,-0.3718,-0.1067,-0.6323,-0.1712,-0.9176,-0.7103,2075
12,-0.479,-0.1597,-0.6553,-0.2376,-0.4337,-0.5155,2053
12,-0.5261,-0.1982,-0.6736,-0.2701,0.0872,-0.2756,2045
12,-0.5901,-0.1533,-0.5793,-0.3542,0.4798,-0.139,2052
12,-0.5598,-0.1292,-0.4463,-0.4167,0.7979,-0.0724,2032
12,-0.5549,-0.1548,-0.2822,-0.4522,0.9741,-0.0345,2054
12,-0.5376,-0.2324,-0.2454,-0.6003,0.8244,0.0597,1979
12,-0.5027,-0.3413,-0.3081,-0.8793,0.5312,0.1658,1978
12,-0.5454,-0.3726,-0.4104,-1.097,0.5055,0.2495,2038
12,-0.7224,-0.2583,-0.5447,-1.1524,0.7349,0.2651,2041
12,-0.8479,-0.0808,-0.5918,-1.0961,0.5557,0.245,2002
12,-0.8904,0.0657,-0.6384,-1.0076,0.5642,0.2426,2126
12,-1.0781,0.1885,-0.7017,-0.8517,0.7304,0.353,2100
12,-1.2817,0.2715,-0.6062,-0.4726,0.9439,0.454,2109
12,-1.0261,0.2305,-0.6924,-0.2848,0.9673,0.2804,2087
12,-0.5879,0.0381,-0.895,-0.456,0.9443,0.1583,2064
12,-0.3589,-0.1172,-0.9531,-0.6024,0.9095,0.2582,2059
12,-0.4546,-0.2065,-0.8535,-0.6703,0.3563,0.2782,2064
12,-0.4338,-0.2031,-0.7439,-0.6168,-0.1969,0.1475,2074
12,-0.4854,-0.0422,-0.8049,-0.4081,-0.3132,-0.0597,2073
12,-0.6187,0.0745,-0.7939,-0.0148,-0.2595,-0.2286,2099
12,-0.78,0.0129,-1.0164,0.0477,-0.028,-0.1908,2055
12,-0.968,-0.2161,-1.2158,-0.2525,0.0123,0.0955,2048
12,-0.8245,-0.3196,-1.3093,-0.6478,-0.389,0.2381,2052
12,-0.5571,-0.3157,-1.3738,-1.0114,-0.3674,0.2262,2040
12,-0.7148,-0.3201,-1.4644,-1.4234,-0.0252,0.261,2075
12,-0.9607,-0.2522,-1.3694,-1.6984,-0.1699,0.1513,2062
12,-1.0471,-0.0342,-1.1001,-1.2884,-0.2465,-0.1545,2066
12,-1.1736,0.155,-0.811,-0.7688,0.0981,-0.4132,2051
12,-1.0503,0.0547,-0.6577,-0.2907,0.5959,-0.4843,2075
12,-0.9636,-0.2158,-0.679,-0.1198,0.6604,-0.3147,2071
12,-0.8899,-0.386,-0.8821,-0.2477,0.3101,-0.2116,2058
12,-0.8704,-0.373,-0.8896,-0.3687,-0.0226,-0.1883,2011
12,-0.9058,-0.2998,-0.824,-0.5643,0.0266,-0.174,2112
12,-0.9587,-0.3008,-0.7563,-0.7055,0.1104,-0.1804,2097
12,-0.8657,-0.334,-0.7485,-0.8431,0.3015,-0.1328,2196
12,-0.7942,-0.323,-0.783,-0.9188,0.5975,-0.0087,2168
12,-0.6477,-0.2522,-0.7793,-0.7782,0.6766,0.1695,2037
12,-0.6833,-0.2017,-0.8079,-0.6576,0.7197,0.3049,2070
12,-0.6956,-0.2292,-0.7231,-0.6224,0.6477,0.3683,2064
12,-0.6973,-0.2773,-0.6384,-0.6529,0.6931,0.4657,2022
12,-0.7322,-0.217,-0.6021,-0.6723,0.9661,0.4879,1974
12,-0.7634,-0.0898,-0.7019,-0.6426,1.5837,0.5453,2011
12,-0.7429,0.0195,-0.6702,-0.424,1.4074,0.6211,2089
12,-0.5928,0.0767,-0.5359,-0.0084,1.1524,0.598,2049
12,-0.3643,-0.1143,-0.4761,0.0037,1.0517,0.655,2053
12,-0.3572,-0.1729,-0.5991,0.0575,0.7942,0.5885,2056
12,-0.4333,-0.0596,-0.6316,0.0842,0.5386,0.6697,2031
12,-0.4773,-0.1177,-0.6211,0.1657,0.6552,0.6256,2065
12,-0.4854,-0.2432,-0.6382,-0.1225,0.5906,0.6738,1990
12,-0.437,-0.0818,-0.6426,-0.0285,0.2012,0.7247,2058
12,-0.4097,0.0996,-0.5464,0.153,0.0907,0.5931,2060
12,-0.292,-0.0239,-0.6057,0.2406,-0.0274,0.3786,2056
12,-0.3281,-0.1536,-0.6704,0.0784,-0.0089,0.3284,2070
12,-0.2451,-0.1194,-0.7693,-0.228,-0.3289,0.3528,2100
12,-0.4468,0.0134,-0.7617,-0.7291,0.0883,0.3129,2061
12,-0.6245,0.0146,-0.8486,-1.018,0.2221,0.6028,2054
12,-0.7451,0.0872,-0.7966,-1.0475,-0.0049,0.6686,2096
12,-0.6794,0.1873,-0.7043,-1.0621,-0.2264,0.6003,2060
12,-0.6509,0.3005,-0.5989,-0.8305,0.0411,0.3722,2059
12,-0.5649,0.1689,-0.3564,-0.3091,0.3535,0.1617,2093
12,-0.5569,0.072,-0.3936,-0.0834,0.4129,0.0598,2055
12,-0.5112,0.0457,-0.5178,0.0674,0.2978,0.0021,2035
12,-0.4778,0.0271,-0.5659,0.0827,0.0478,0.0551,2100
12,-0.4651,-0.0408,-0.7354,0.0277,-0.1916,0.0088,2055
12,-0.637,-0.0378,-0.7217,-0.0787,-0.1534,0.081,2066
12,-0.8025,0.0173,-0.5933,-0.0895,-0.0527,0.1951,2054
12,-0.9263,0.0339,-0.6096,-0.0915,0.2039,0.277,2176
12,-0.7915,0.0337,-0.6499,-0.2141,0.4261,0.2742,2076
12,-0.5359,0.1243,-0.6357,-0.0852,0.6758,0.2952,1981
12,-0.5405,0.1885,-0.6003,0.0868,0.6574,0.3793,2184
12,-0.4778,0.1025,-0.7051,0.1077,0.2056,0.3976,2269
12,-0.4607,0.1316,-0.9292,0.134,0.0543,0.392,1885
12,-0.6331,0.1963,-0.9678,0.1297,0.3035,0.488,2034
12,-0.7769,0.2197,-0.8833,0.3297,0.422,0.5345,1973
12,-0.7881,0.4045,-0.8035,0.8283,0.6533,0.433,2115
12,-0.7969,0.2026,-0.9412,0.9115,1.1813,0.4328,2033
12,-0.7314,-0.0261,-1.1743,0.9291,1.2153,0.3742,2054
12,-0.6033,-0.3279,-1.312,0.4185,0.8881,0.51,2062
12,-0.6824,-0.0798,-1.3657,0.2013,0.7027,0.5482,2025
12,-0.7065,0.0283,-1.1587,0.2534,0.7289,0.5366,2094
12,-0.7141,0.0674,-1.1501,0.1858,0.9139,0.5757,2056
12,-0.7756,0.2219,-1.178,0.2626,0.4661,0.551,2077
12,-0.884,0.1448,-1.1021,0.5801,0.4002,0.3761,2076
12,-0.7563,0.0579,-1.272,0.6849,0.5778,0.34,2055
12,-0.6685,-0.0757,-1.3613,0.6273,0.3549,0.4151,2038
12,-0.4126,-0.124,-1.4817,0.2577,-0.0917,0.4687,2067
12,-0.2676,0.0234,-1.5957,-0.4579,0.006,0.4774,2096
12,-0.4858,0.1997,-1.6411,-0.8835,0.2007,0.5621,2088
12,-0.4995,0.4333,-1.3818,-0.8433,0.0081,0.4484,2051
12,-0.2236,0.4382,-1.0176,-0.4334,-0.442,0.016,2063
12,-0.0278,0.345,-0.8723,-0.3236,-0.3091,-0.1559,2058
12,-0.2275,0.0947,-0.9895,-0.2914,0.0766,-0.0989,2063
12,-0.3711,-0.084,-1.1123,-0.3223,0.4087,-0.0541,2070
12,-0.3464,-0.1091,-1.1936,-0.575,0.4079,-0.0401,2033
12,-0.1953,0.0486,-1.1577,-0.6975,0.532,-0.2321,2026
12,-0.0771,0.1465,-1.0305,-0.5388,0.9248,-0.2385,2055
13,-0.2388,0.0544,-0.9529,-0.3635,0.8024,-0.2627,2057
13,-0.4338,-0.0735,-0.9099,-0.2995,0.7305,-0.3587,2063
13,-0.4656,-0.0833,-0.9023,-0.2651,0.5513,-0.3871,2027
13,-0.5374,0.0159,-0.7078,-0.1494,0.453,-0.3261,2000
13,-0.5415,0.0591,-0.5903,0.0818,0.545,-0.3333,2038
13,-0.4529,-0.0381,-0.6938,-0.1428,0.271,-0.3999,2040
13,-0.3943,-0.0588,-0.6226,-0.3879,-0.0362,-0.2863,2061
13,-0.4399,-0.0334,-0.6409,-0.6112,0.0393,-0.3577,2137
13,-0.4836,0.0366,-0.4607,-0.449,0.4533,-0.4034,2159
13,-0.3384,0.0339,-0.4229,-0.388,0.4887,-0.567,1738
13,-0.1594,0.061,-0.4697,0.0758,0.5252,-0.5915,1997
13,-0.1482,0.1504,-0.5837,0.1816,0.6289,-0.3779,2086
13,-0.208,0.2607,-0.6399,0.661,0.6783,-0.1533,2098
13,-0.3149,0.2117,-0.5918,0.7634,0.5133,0.125,2071
13,-0.1167,-0.2036,-0.8384,0.4783,0.2515,-0.1862,1995
13,-0.0486,-0.5247,-1.208,-0.7813,-0.1245,-0.4132,2121
13,-0.186,0.0566,-1.1763,-1.2391,0.3799,-0.2677,2087
13,-0.4841,0.2202,-0.7515,-0.9686,0.8709,-0.0838,2072
13,-0.533,0.3071,-0.6345,-0.7686,1.0563,-0.2024,2032
13,-0.1541,0.1316,-0.8516,-0.6638,0.9778,-0.1009,2072
13,-0.126,0.384,-1.0322,-0.7068,0.5107,-0.1143,2068
13,-0.2104,0.4121,-1.0254,-0.4778,0.5288,-0.2818,2038
13,-0.3113,0.3948,-0.9375,-0.4032,-0.1657,-0.2507,2034
13,-0.4226,0.502,-0.9766,-0.7464,-0.2238,-0.3729,2027
13,-0.4717,0.4512,-1.0093,-0.6514,0.0431,-0.2619,2075
13,-0.5632,0.3325,-1.0039,-0.6223,-0.0826,-0.2507,2015
13,-0.4814,0.3406,-0.9597,-0.4679,-0.2711,-0.3643,2071
13,-0.4287,0.283,-1.0051,-0.6091,-0.2759,-0.4275,1989
13,-0.4558,0.2068,-1.0652,-0.6107,-0.1969,-0.4841,2054
13,-0.488,0.2515,-0.9109,-0.4594,-0.0888,-0.5472,2068
13,-0.4749,0.1968,-0.8047,-0.1892,-0.0543,-0.587,2071
13,-0.4399,0.1741,-0.8088,0.2208,0.027,-0.6039,2053
13,-0.3162,0.1213,-0.9556,0.6006,0.1048,-0.6956,2055
13,-0.3186,0.137,-1.0696,0.6389,-0.0445,-0.7325,2041
13,-0.4324,0.1404,-1.1953,0.8624,-0.0108,-0.691,2052
13,-0.6243,0.0901,-1.3701,1.081,-0.0752,-0.5705,2067
13,-0.7075,0.0298,-1.4136,1.2766,-0.0882,-0.6122,2065
13,-0.6685,0.0161,-1.239,1.595,-0.0478,-0.7786,2074
13,-0.5581,-0.083,-1.1125,1.6993,0.0132,-0.9396,1999
13,-0.3694,-0.4097,-1.156,1.6029,-0.0278,-1.0617,2076
13,-0.3723,-0.5225,-1.1951,1.326,-0.2011,-0.9376,2070
13,-0.5569,-0.4954,-1.207,1.2161,0.0493,-0.6576,2021
13,-0.7043,-0.5635,-1.2317,1.0866,0.269,-0.5145,2059
13,-0.7517,-0.3413,-1.1672,0.9692,0.5316,-0.3786,1973
13,-0.6814,-0.1931,-1.1465,0.9297,0.85,-0.2982,2032
13,-0.6184,-0.3716,-1.0403,0.873,0.8845,0.0764,2115
13,-0.4514,-0.2529,-1.0581,0.7637,0.6541,0.0812,2044
13,-0.4604,-0.1565,-1.1638,0.7729,0.7197,0.091,1971
13,-0.5947,-0.2886,-1.022,0.5113,0.7913,0.4153,2038
13,-0.7485,-0.2063,-0.8442,0.6417,0.4497,0.5341,1928
13,-0.801,-0.2344,-0.7922,0.8051,0.2437,0.4217,2132
13,-0.7129,-0.2493,-0.8872,0.6347,0.4269,0.3008,2054
13,-0.6755,-0.1526,-1.0579,0.5794,0.3622,0.2329,2072
13,-0.6057,-0.3347,-1.2168,0.3545,-0.0533,0.1944,2058
13,-0.4233,-0.2119,-1.3313,-0.2384,-0.6461,0.1144,2043
13,-0.3291,0.0723,-1.1389,-0.22,-0.5319,0.1902,2050
13,-0.4199,0.1118,-0.8188,-0.0494,-0.2101,0.2954,2057
13,-0.4492,0.0876,-0.7061,0.0686,-0.1914,0.3255,2057
13,-0.3699,0.0742,-0.7471,0.2468,-0.0306,0.5578,2046
13,-0.395,-0.1191,-0.8032,0.106,-0.0638,0.696,2038
13,-0.3469,-0.0317,-0.8157,0.2429,-0.1659,0.7196,2109
13,-0.2419,-0.0391,-0.8098,-0.1722,-0.1637,0.7002,2140
13,-0.2854,-0.0081,-0.7981,-0.3224,-0.1677,0.6569,2187
13,-0.3528,0.0,-0.6963,-0.3733,-0.3755,0.5259,2059
13,-0.3149,-0.0681,-0.5967,-0.191,-0.3071,0.3927,2042
13,-0.127,-0.217,-0.3899,-0.0254,-0.1891,0.2293,2071
13,-0.1709,-0.2646,-0.4517,-0.0134,0.057,0.2498,2063
13,-0.2729,-0.2493,-0.5066,0.145,0.076,0.2529,2096
13,-0.3845,-0.176,-0.5842,0.2687,-0.0896,0.2567,2065
13,-0.3933,-0.03,-0.5872,0.4976,-0.1787,0.1831,2023
13,-0.3093,0.1123,-0.5503,0.6589,-0.212,0.0036,2057
13,-0.3237,0.0581,-0.5767,0.8917,-0.3669,-0.1867,2054
13,-0.301,-0.1545,-0.6868,1.0821,-0.5834,-0.228,2058
13,-0.4133,-0.2822,-0.7944,0.9138,-0.4653,0.0458,2105
13,-0.665,-0.1882,-0.8389,0.9034,-0.3132,0.2129,2111
13,-0.8579,-0.2747,-0.7522,1.0987,-0.2995,0.208,2074
13,-0.801,-0.1094,-0.7178,1.0716,-0.2836,0.1144,2071
13,-0.5774,-0.1025,-0.7012,1.0793,0.0929,0.1004,2090
13,-0.5024,-0.1619,-0.7627,1.0247,0.1743,0.1413,2060
13,-0.4912,-0.1272,-0.8674,0.8375,0.1918,0.2245,2142
13,-0.3767,-0.2146,-0.7947,0.5995,-0.082,0.2557,2096
13,-0.4214,-0.3044,-0.8906,0.4643,-0.024,0.3362,2038
13,-0.6572,-0.0513,-0.9924,0.4135,0.22,0.3,2286
13,-0.6001,-0.1267,-0.9075,0.3746,-0.0558,0.2899,2123
13,-0.5862,-0.1106,-0.9285,0.5208,0.2093,0.2075,2023
13,-0.5959,-0.186,-1.0027,0.5133,0.6052,0.2661,2060
13,-0.5693,-0.1438,-1.1335,0.4493,0.5422,0.3013,2107
13,-0.4028,-0.313,-1.1873,0.2723,0.4043,0.2346,2063
13,-0.3394,-0.344,-1.1611,0.1129,0.6944,0.237,2057
13,-0.4526,-0.1816,-0.9939,0.2105,0.901,0.2699,2105
13,-0.6328,-0.2195,-0.9238,0.3144,0.821,0.304,2040
13,-0.7905,-0.0161,-1.0757,0.4827,0.5998,0.2543,2007
13,-0.8103,-0.1648,-1.1104,0.5243,0.514,0.1309,2068
13,-0.7107,-0.0774,-1.2471,0.5791,0.5674,-0.0128,2040
13,-0.5303,-0.2739,-1.2952,0.5521,0.4301,-0.0615,2139
13,-0.3215,-0.2742,-1.4397,0.3758,0.1847,-0.1169,2013
13,-0.2512,-0.2883,-1.4565,0.2408,0.1623,0.0016,2218
13,-0.3545,-0.3396,-1.498,0.1626,0.076,0.1834,2077
13,-0.532,-0.3406,-1.4702,-0.023,-0.1085,0.3227,2056
13,-0.707,-0.4917,-1.283,-0.1657,0.1649,0.384,2110
13,-0.6011,-0.6052,-1.0029,-0.1851,0.7431,0.2996,2051
14,-0.4028,-0.4709,-0.9436,-0.1268,1.0881,0.3629,2055
14,-0.4189,-0.323,-1.0662,-0.1475,0.8475,0.3806,2058
14,-0.2874,-0.2505,-1.2202,-0.2948,0.3743,0.249,2075
14,-0.2676,-0.1904,-1.3022,-0.4952,0.1835,0.2103,2089
14,-0.1973,-0.2043,-1.3083,-0.6315,0.0142,0.2111,2033
14,-0.1648,-0.26,-1.406,-0.8508,-0.287,0.2818,2057
14,-0.1616,-0.3159,-1.4412,-1.2239,-0.4934,0.3466,2074
14,-0.2266,-0.2275,-1.3025,-1.4355,-0.5105,0.4382,2120
14,-0.4043,-0.1143,-1.1213,-1.4253,-0.44,0.5181,2149
14,-0.5,0.0093,-0.8992,-1.1949,-0.4631,0.5321,2007
14,-0.5269,-0.0298,-0.7554,-0.9244,-0.6682,0.4683,2071
14,-0.4219,-0.1274,-0.7769,-0.7388,-0.7918,0.3605,2076
14,-0.3022,-0.2429,-0.7974,-0.8835,-1.026,0.2951,2051
14,-0.231,-0.3533,-0.8057,-1.2204,-1.4552,0.4077,2065
14,-0.292,-0.3599,-0.7839,-1.4962,-1.5293,0.5886,2075
14,-0.3428,-0.3457,-0.75,-1.6693,-1.4985,0.6347,2068
14,-0.2009,-0.1733,-0.7246,-1.7823,-1.7483,0.6417,2091
14,-0.321,-0.1809,-0.7263,-1.965,-1.7377,0.5978,2045
14,-0.3821,-0.2229,-0.7288,-2.1811,-1.433,0.5239,2057
14,-0.147,-0.064,-0.8479,-2.3423,-1.2535,0.4586,2089
14,-0.0315,-0.0833,-0.8193,-2.3333,-1.3383,0.3151,2067
14,0.0491,-0.0669,-0.7769,-2.478,-1.2746,0.4297,2057
14,0.0837,-0.0137,-0.7793,-2.5318,-1.0495,0.2842,2123
14,0.0503,0.085,-0.791,-2.5792,-0.8036,0.0237,2039
14,0.002,0.1934,-0.7356,-2.489,-0.434,-0.0802,2062
14,-0.0847,0.2407,-0.624,-2.2559,-0.1004,-0.0631,2046
14,-0.2727,0.179,-0.5806,-2.0883,0.1502,0.1165,2066
14,-0.4827,0.2676,-0.5723,-1.9269,0.4987,0.1225,2055
14,-0.5488,0.2249,-0.6775,-1.8448,0.9259,0.1113,2057
14,-0.584,0.2852,-0.7434,-1.8068,1.4249,0.0433,2065
14,-0.6199,0.3579,-0.7798,-1.6848,1.5707,-0.0698,2059
14,-0.5696,0.3049,-0.781,-1.6214,1.3013,-0.1428,2062
14,-0.5869,0.3501,-0.708,-1.4394,0.9345,-0.0376,2072
14,-0.7866,0.4316,-0.657,-1.395,0.9211,0.0732,2060
14,-0.8408,0.5776,-0.6914,-1.2979,0.934,0.316,2050
14,-1.1594,0.5615,-0.7983,-1.244,0.8573,0.3264,2045
14,-1.2397,0.5227,-0.9067,-1.3382,1.079,0.5336,2013
14,-1.1831,0.387,-0.9609,-1.2973,1.1957,0.5661,2076
14,-0.8767,0.4675,-0.7793,-0.9644,1.0445,0.2851,2091
14,-0.429,0.4529,-0.6741,-0.7774,1.2432,-0.0288,2055
14,-0.156,0.4319,-0.8962,-0.6288,0.8705,-0.1115,2087
14,-0.1128,0.4692,-1.0193,-0.1489,0.1517,-0.3653,2059
14,-0.0701,0.4895,-1.0532,-0.0216,-0.3061,-0.4586,2075
14,-0.0601,0.5283,-1.1804,0.0807,-0.5253,-0.5593,2112
14,-0.0444,0.4414,-1.3015,0.1047,-0.5646,-0.5747,2038
14,-0.1531,0.2358,-1.3186,0.0617,-0.4163,-0.56,2051
14,-0.2583,-0.0398,-1.252,-0.0803,-0.2063,-0.6968,2044
14,-0.3069,-0.2075,-1.1584,-0.1855,0.0153,-0.8468,2069
14,-0.425,-0.1602,-1.0439,-0.0969,0.3694,-0.9079,2022
14,-0.4846,-0.0396,-0.9297,-0.1031,0.4324,-0.7718,2054
14,-0.7375,0.0725,-0.9238,-0.1617,0.2341,-0.4975,2074
14,-0.9387,0.2244,-0.9868,-0.2701,0.0987,-0.2156,2067
14,-1.2024,0.3628,-1.1458,-0.4233,0.4244,0.0358,2095
14,-1.4846,0.3337,-1.2068,-0.4991,0.9333,0.2682,2098
14,-1.5127,0.2034,-1.0649,-0.447,1.2596,0.4794,2103
14,-1.1506,0.0991,-1.073,-0.6532,1.5476,0.717,2070
14,-0.7783,0.1167,-1.1602,-0.8525,1.6072,0.8993,2051
14,-0.4717,0.1357,-1.0989,-0.8689,1.4667,0.8589,2072
14,-0.25,0.1338,-0.8088,-0.6774,1.1821,0.6998,2074
14,-0.2683,0.1353,-0.6506,-0.4991,0.4026,0.7797,2144
14,-0.5171,-0.041,-0.8665,-0.1234,0.2491,0.6709,2063
14,-0.793,-0.0732,-1.0242,-0.4922,0.2466,0.613,2042
14,-0.7419,-0.0107,-1.0051,-0.6397,0.4016,0.4512,2075
14,-0.6733,0.0903,-0.9902,-1.0608,0.6917,0.6861,2114
14,-0.4414,0.2869,-0.8684,-0.5747,1.1718,0.6521,2054
14,-0.1716,0.6321,-0.592,-0.0806,0.4757,0.8146,2070
14,-0.1125,0.6904,-0.6289,-0.2723,-0.5767,0.4759,2058
14,-0.3447,0.6025,-0.675,0.0285,-0.6034,0.3996,2064
14,-0.5583,0.4829,-0.6814,0.0388,-0.2223,0.2741,2002
14,-0.6018,0.3525,-0.7048,0.1606,0.0626,0.2366,2048
14,-0.4241,0.2478,-0.6548,0.5245,0.5304,-0.1177,2147
14,0.0024,0.2034,-0.512,0.5914,0.9259,-0.2675,2009
14,0.0796,0.3025,-0.6448,0.5513,0.9544,-0.1449,2074
14,0.0791,0.3135,-0.6533,0.6592,0.4766,-0.1483,2064
14,0.0754,0.2373,-0.6758,0.632,0.3227,-0.0951,1953
14,-0.1482,0.2522,-0.7188,0.4954,0.3783,0.0241,2063
14,-0.3286,0.2517,-0.7107,0.3312,0.5252,0.0011,2071
14,-0.3745,0.228,-0.655,0.44,0.8289,0.1719,2068
14,-0.25,0.179,-0.6196,0.4713,0.9942,0.351,2087
14,-0.3105,0.3374,-0.6536,0.6157,0.8036,0.4633,2052
14,-0.301,0.324,-0.6025,0.8158,0.5678,0.5188,2066
14,-0.3,0.0181,-0.6133,1.0785,0.5261,0.298,2055
14,-0.2483,0.1133,-0.5864,1.1849,0.0931,0.2224,2133
14,-0.2151,0.0066,-0.5833,1.272,-0.2084,0.1293,2024
14,-0.3206,0.2239,-0.6831,1.33,-0.4999,0.1997,2066
14,-0.3794,0.1248,-0.7312,1.6202,-0.6067,0.1984,2104
14,-0.3567,0.1323,-0.7637,1.7402,-0.562,0.1782,2073
14,-0.1777,0.1963,-0.834,1.5576,-0.66,0.1085,2070
14,-0.0974,0.2109,-0.8618,1.479,-0.8455,0.1844,2058
14,-0.4104,0.1023,-0.8699,1.601,-0.8955,0.0828,2068
14,-0.45,0.2529,-0.9158,1.3107,-0.7335,0.3567,2057
14,-0.4277,0.2356,-1.0979,1.4198,-0.5473,0.4537,2062
14,-0.2854,0.1387,-1.1594,1.0792,-1.1311,0.4576,2057
14,-0.2217,0.4451,-1.2605,0.6774,-1.244,0.6668,2070
14,-0.3613,0.5425,-1.2915,1.0429,-1.4648,0.832,2069
14,-0.4839,0.4712,-1.1567,1.1027,-2.2963,0.6693,2072
14,-0.5796,0.1128,-1.0381,1.0228,-3.0082,0.4361,2067
14,-0.7227,-0.0115,-1.0259,0.595,-3.0628,0.3247,2068
14,-0.7827,-0.0889,-1.0234,0.3155,-2.6674,0.2175,2049
14,-0.8027,-0.0798,-1.0515,0.1173,-2.0394,0.2132,2093
15,-0.8948,-0.0881,-1.1252,-0.0213,-1.4372,0.3095,2109
15,-0.9453,-0.0486,-1.2461,-0.2261,-1.1524,0.367,2054
15,-0.8918,-0.0115,-1.375,-0.4283,-0.5867,0.4814,2044
15,-0.8704,0.1128,-1.4116,-0.5448,-0.278,0.5749,2075
15,-1.0381,0.1174,-1.377,-0.5269,-0.1313,0.5087,2050
15,-0.6863,0.3542,-1.3628,-0.6725,0.0288,0.5971,2068
15,-0.5674,0.4893,-1.3284,-0.4477,-0.403,0.5862,2068
15,-0.6599,0.4692,-1.2659,-0.0819,-0.7618,0.5867,2064
15,-0.7588,0.3281,-1.2756,0.0618,-0.9472,0.4529,2102
15,-0.646,0.2139,-1.2097,0.3313,-1.3215,0.1441,2100
15,-0.3406,0.1736,-1.1624,0.3208,-1.7178,0.1101,2066
15,-0.3967,0.1768,-1.1619,0.3313,-2.1165,0.0634,2052
15,-0.4719,0.1072,-1.0803,0.3096,-2.4658,-0.0882,2056
15,-0.5752,0.0918,-0.9958,0.2152,-2.3755,-0.2248,2090
15,-0.7146,0.0452,-0.9402,0.0581,-1.8116,-0.2607,2039
15,-0.759,0.0073,-0.9412,-0.1438,-1.268,-0.2611,2031
15,-0.7004,-0.0076,-0.9404,-0.3,-0.8492,-0.2867,2065
15,-0.5132,0.0078,-0.9165,-0.4216,-0.5308,-0.2899,2067
15,-0.4299,0.0303,-0.8623,-0.4798,-0.3196,-0.2694,2064
15,-0.3228,0.0627,-0.8228,-0.5553,-0.2638,-0.2364,2063
15,-0.2986,0.0662,-0.7639,-0.6263,-0.2731,-0.2262,2057
15,-0.3208,0.1189,-0.7253,-0.6437,-0.4268,-0.2136,2060
15,-0.3506,0.1631,-0.7073,-0.6677,-0.6771,-0.2104,2057
15,-0.3616,0.1504,-0.6963,-0.6933,-0.8673,-0.2268,2069
15,-0.415,0.187,-0.6465,-0.6958,-0.9459,-0.2093,2057
15,-0.4329,0.1919,-0.5583,-0.6974,-0.9686,-0.2175,2074
15,-0.4919,0.1851,-0.52,-0.6387,-0.9022,-0.2113,2061
15,-0.5203,0.1689,-0.5188,-0.6075,-0.8032,-0.1545,2063
15,-0.4802,0.1555,-0.5222,-0.6004,-0.6673,-0.0674,2061
15,-0.4846,0.1431,-0.5322,-0.6434,-0.5019,0.0246,2071
15,-0.5005,0.1172,-0.5361,-0.6367,-0.3305,0.0591,2056
15,-0.4089,0.1433,-0.4995,-0.5996,-0.2055,0.037,2065
15,-0.3435,0.1948,-0.4714,-0.5392,-0.1193,0.0212,2073
15,-0.3784,0.2231,-0.4758,-0.4629,-0.171,0.0483,2067
15,-0.4507,0.2688,-0.5146,-0.3621,-0.3737,0.0891,2070
15,-0.4802,0.2693,-0.5188,-0.2804,-0.5048,0.0831,2067
15,-0.5527,0.3347,-0.5845,-0.3761,-0.5554,0.0065,2064
15,-0.6008,0.3706,-0.5862,-0.336,-0.6308,-0.1009,2069
15,-0.7109,0.4517,-0.6035,-0.2356,-0.783,-0.1748,2061
15,-0.7366,0.4636,-0.6045,-0.0527,-1.0784,-0.2862,2041
15,-0.687,0.416,-0.5852,-0.0603,-1.1902,-0.4469,2062
15,-0.6729,0.3965,-0.6182,-0.137,-1.3179,-0.6815,2061
15,-0.5955,0.3914,-0.7029,-0.1716,-1.5696,-0.8918,2007
15,-0.5308,0.3403,-0.698,0.0553,-1.7198,-1.156,2069
15,-0.6838,0.5,-0.5696,0.127,-1.708,-1.0511,2057
15,-0.6897,0.4148,-0.5933,0.2952,-1.9638,-0.9311,2053
15,-0.856,0.1741,-0.7788,0.138,-1.9337,-0.6139,2064
15,-1.0203,0.1904,-0.9285,-0.0609,-1.7704,-0.353,2062
15,-0.9646,0.3105,-0.9641,-0.182,-1.6267,-0.2902,2007
15,-0.9478,0.3157,-0.9021,-0.2013,-1.4406,-0.2804,2074
15,-0.9709,0.2612,-0.781,-0.2533,-1.1584,-0.3243,2061
15,-0.9253,0.1648,-0.7424,-0.292,-1.0379,-0.238,2056
15,-0.8979,0.1885,-0.7761,-0.2236,-1.1134,-0.1716,2063
15,-0.9248,0.1111,-0.728,-0.1758,-1.1276,-0.1602,2054
15,-0.9668,0.0889,-0.71,-0.0399,-1.1117,-0.2248,2053
15,-1.0681,0.0,-0.6885,-0.0209,-0.8088,-0.246,2068
15,-1.1167,-0.0398,-0.7146,-0.0822,-0.5369,-0.3537,2074
15,-1.0544,-0.0884,-0.6968,-0.1694,-0.2305,-0.4015,2054
15,-0.9929,-0.1633,-0.6179,-0.2265,0.0523,-0.3525,2064
15,-1.0105,-0.1755,-0.5596,-0.2719,0.1735,-0.2432,2059
15,-1.0957,-0.1672,-0.4998,-0.251,0.1772,-0.1545,2089
15,-1.1509,-0.127,-0.4692,-0.2195,0.3084,-0.088,2072
15,-1.1313,-0.0554,-0.3777,-0.1774,0.4248,-0.0822,2055
15,-1.1685,-0.0864,-0.3577,-0.1045,0.4846,-0.0822,2075
15,-1.0671,-0.2141,-0.3496,-0.0214,0.3962,0.0043,2068
15,-1.0178,-0.2949,-0.3833,0.0228,0.2433,0.1655,2065
15,-1.0452,-0.2993,-0.4485,0.0041,0.1483,0.248,2054
15,-1.0386,-0.2747,-0.4226,0.0318,0.0995,0.2904,2054
15,-0.9944,-0.2026,-0.3379,0.0467,0.2597,0.2662,2065
15,-0.9749,-0.1042,-0.2468,0.1482,0.5008,0.2709,2067
15,-0.9651,-0.0581,-0.2451,0.2442,0.6465,0.3036,2057
15,-0.9365,-0.0134,-0.2961,0.2902,0.6839,0.3822,2054
15,-0.8931,0.0166,-0.353,0.3532,0.7453,0.4583,2053
15,-0.9021,0.0457,-0.394,0.4594,0.8336,0.4819,2067
15,-0.8813,0.0449,-0.3794,0.5147,0.7773,0.4923,2043
15,-0.8042,0.0474,-0.373,0.4679,0.6821,0.4959,2059
15,-0.7065,0.0574,-0.4033,0.3793,0.6494,0.4863,2051
15,-0.6885,0.1189,-0.3943,0.2665,0.883,0.597,2063
15,-0.6401,0.1611,-0.3481,0.2482,0.8839,0.6175,2063
15,-0.5503,0.1443,-0.2964,0.2179,0.7084,0.6116,2058
15,-0.4331,0.144,-0.2908,0.1934,0.5345,0.5742,2062
15,-0.3823,0.1335,-0.343,0.084,0.493,0.5979,2052
15,-0.364,0.1531,-0.3784,0.089,0.4199,0.565,2066
15,-0.3669,0.1655,-0.3579,0.1682,0.2774,0.4749,2056
15,-0.417,0.156,-0.3491,0.1736,0.0878,0.4056,2049
15,-0.4714,0.1184,-0.3738,0.2189,-0.0314,0.2918,2062
15,-0.5283,0.0806,-0.3997,0.2023,-0.0402,0.2518,2055
15,-0.6333,0.0403,-0.3718,0.2382,0.125,0.1894,2054
15,-0.7319,0.0244,-0.3735,0.1788,0.3619,0.0995,2076
15,-0.7856,0.0203,-0.3955,0.0917,0.6328,0.0003,2054
15,-0.7444,0.0083,-0.4448,0.0205,1.0451,-0.1669,2066
15,-0.6819,0.0317,-0.5107,0.0252,1.3455,-0.2988,2062
15,-0.5815,0.0637,-0.4983,0.1712,1.4551,-0.341,2067
15,-0.5415,0.0859,-0.4692,0.3104,1.3665,-0.2378,2054
15,-0.5076,0.1558,-0.4526,0.3418,0.9958,-0.106,2064
15,-0.6128,0.2454,-0.4155,0.4235,0.6203,-0.0479,2069
15,-0.8423,0.3022,-0.3872,0.4932,0.4232,-0.0064,2065
15,-1.0386,0.3035,-0.4358,0.604,0.4643,0.0326,2069
15,-1.0654,0.2812,-0.4719,0.7303,0.5538,0.0983,2056
15,-0.9888,0.2292,-0.5002,0.7981,0.4691,0.1744,2054
15,-0.9211,0.2224,-0.5828,0.8108,0.3057,0.2952,2066
15,-0.949,0.2952,-0.6526,0.871,0.1956,0.3504,2067
15,-0.9441,0.2466,-0.6731,0.8853,-0.0158,0.2169,2061
15,-0.8889,0.1572,-0.6697,0.9311,-0.2294,-0.0024,2073
15,-0.8386,0.1128,-0.699,0.9987,-0.2141,-0.2017,2067
16,-0.8635,0.0366,-0.7927,1.0236,-0.01,-0.3097,2065
16,-0.9099,0.0134,-0.8445,1.0023,0.159,-0.3735,2055
16,-0.9487,0.0134,-0.885,0.9556,0.3302,-0.4113,2084
16,-0.9785,0.0083,-0.9172,0.9127,0.5797,-0.408,2070
16,-1.0271,-0.0071,-0.9448,0.9337,0.9893,-0.4541,2094
16,-1.0869,0.0127,-0.9944,0.8678,1.4245,-0.4496,2086
16,-0.9795,0.136,-1.0557,0.9142,1.5097,-0.4502,2076
16,-0.8591,0.0386,-1.1641,0.9431,1.5657,-0.3223,2058
16,-0.76,-0.1177,-1.2693,1.0318,1.5677,-0.2011,2058
16,-0.635,-0.1018,-1.3174,0.9289,1.4304,-0.1322,2051
16,-0.6709,-0.1616,-1.2891,0.8409,1.1927,-0.1454,2054
16,-0.6082,-0.1921,-1.2537,0.7359,0.9465,-0.2541,2070
16,-0.5757,-0.1245,-1.2295,0.563,0.7625,-0.3329,2041
16,-0.5964,-0.0913,-1.2205,0.4212,0.6255,-0.3812,2068
16,-0.5459,-0.0239,-1.2131,0.2301,0.5259,-0.4152,2063
16,-0.5945,0.0676,-1.1672,0.1384,0.4966,-0.3894,2060
16,-0.6555,0.1523,-1.0564,0.1497,0.435,-0.351,2066
16,-0.6484,0.1646,-0.9722,0.142,0.3926,-0.2959,2059
16,-0.6692,0.1743,-0.9568,0.0932,0.5039,-0.261,2066
16,-0.7581,0.1277,-0.9167,0.0004,0.6501,-0.29,2062
16,-0.7554,0.1104,-0.8433,0.0028,0.719,-0.2963,2069
16,-0.6721,0.0745,-0.8062,-0.0272,0.7279,-0.2976,2059
16,-0.5093,0.0527,-0.7778,-0.0727,0.5699,-0.2661,2068
16,-0.4163,0.0286,-0.7451,-0.2041,0.2986,-0.2417,2059
16,-0.3403,-0.0085,-0.7087,-0.2469,-0.0963,-0.2045,2070
16,-0.3242,-0.0469,-0.645,-0.32,-0.504,-0.2064,2062
16,-0.3386,-0.0503,-0.563,-0.4235,-0.7855,-0.1996,2072
16,-0.3911,-0.0676,-0.498,-0.4852,-0.9218,-0.1928,2056
16,-0.5078,-0.0825,-0.4211,-0.5735,-0.9613,-0.1708,2058
16,-0.5359,-0.1272,-0.3921,-0.6743,-0.9857,-0.1609,2060
16,-0.4998,-0.127,-0.4221,-0.8367,-0.952,-0.0487,2051
16,-0.4832,-0.0735,-0.4568,-0.9508,-0.7927,0.0851,2061
16,-0.4949,-0.0281,-0.4861,-1.046,-0.6865,0.1543,2061
16,-0.4607,0.0178,-0.49,-1.1308,-0.7453,0.1254,2062
16,-0.4468,0.127,-0.481,-1.1796,-0.8003,0.0971,2061
16,-0.4529,0.2166,-0.5059,-1.123,-0.7998,-0.0308,2061
16,-0.4692,0.2112,-0.5901,-1.1528,-0.8504,-0.1455,2068
16,-0.5671,0.1982,-0.7166,-1.2192,-0.9244,-0.1755,2056
16,-0.6885,0.2559,-0.8459,-1.2331,-0.9415,-0.1614,2069
16,-0.855,0.3906,-0.9292,-1.0698,-0.8142,-0.1433,2061
16,-0.9385,0.4441,-0.9041,-0.912,-0.6758,-0.1381,2057
16,-0.929,0.4253,-0.8726,-0.8909,-0.4679,-0.2169,2087
16,-0.8984,0.3765,-0.8362,-0.9413,-0.1831,-0.3081,2049
16,-0.854,0.3394,-0.8625,-0.9477,0.0606,-0.3297,2072
16,-0.7559,0.2705,-0.8982,-0.9632,0.142,-0.2906,2066
16,-0.6375,0.1768,-0.9268,-0.9733,0.0434,-0.1739,2047
16,-0.541,0.1101,-0.8909,-0.9022,-0.0072,-0.0435,2058
16,-0.5205,0.061,-0.804,-0.8798,-0.0397,0.0365,2065
16,-0.5027,0.0569,-0.7791,-0.7673,-0.2332,-0.0076,2061
16,-0.5725,0.0593,-0.7305,-0.648,-0.3866,-0.1559,2067
16,-0.781,0.0488,-0.7551,-0.5361,-0.4715,-0.2655,2065
16,-0.9187,0.0952,-0.865,-0.5687,-0.496,-0.2802,2058
16,-1.0286,0.1521,-0.9453,-0.4472,-0.4236,-0.2706,2065
16,-1.1904,0.187,-0.9919,-0.2297,-0.1959,-0.2001,2062
16,-1.3628,0.1968,-0.9812,0.0353,0.1746,-0.0541,2057
16,-1.4084,0.0334,-0.9575,0.176,0.3777,0.0354,2064
16,-1.3411,-0.1265,-0.9309,0.1887,0.549,0.0246,2059
16,-1.2766,-0.1914,-0.8252,0.1392,0.8305,-0.0738,2069
16,-1.1687,-0.1692,-0.7456,0.2193,1.0765,-0.1441,2071
16,-1.053,-0.1575,-0.6892,0.3646,1.1766,-0.1807,2062
16,-0.9148,-0.1926,-0.7166,0.3926,1.1451,-0.2276,2063
16,-0.7258,-0.1858,-0.7634,0.3759,1.127,-0.2595,2065
16,-0.625,-0.2751,-0.8953,0.3016,1.1923,-0.2511,2050
16,-0.5601,-0.3955,-1.0825,0.1071,1.3079,-0.185,2090
16,-0.5447,-0.4482,-1.0688,0.076,1.2653,-0.1286,2041
16,-0.5186,-0.4556,-0.8718,0.0395,1.1322,-0.0871,2067
16,-0.4849,-0.3606,-0.6506,0.1936,1.1588,-0.0562,2106
16,-0.6516,-0.1936,-0.4995,0.5245,1.2978,0.0326,2046
16,-0.8257,-0.1069,-0.459,0.757,1.4854,0.07,2142
16,-0.8486,0.052,-0.4849,1.0569,1.448,0.0415,2009
16,-0.7317,0.2507,-0.5183,1.484,1.3814,-0.0422,2064
16,-0.5952,0.2651,-0.5359,1.5961,1.4296,-0.0134,1998
16,-0.6145,0.1545,-0.5337,1.5877,0.9142,0.1194,2095
16,-0.6318,0.0393,-0.6782,1.3703,0.1033,0.1903,1999
16,-0.4766,-0.0859,-0.6907,1.0465,-0.2972,0.2694,2143
16,-0.4775,-0.2275,-0.4922,1.1653,-0.0052,0.1209,2138
16,-0.5125,-0.1973,-0.3367,1.5502,0.5267,-0.1541,2050
16,-0.3582,-0.0664,-0.4373,1.6676,0.8411,-0.2998,2055
16,-0.292,-0.0229,-0.7048,1.5014,1.1527,-0.1168,2010
16,-0.1895,-0.0547,-0.7319,1.1501,1.2605,-0.0277,2057
16,-0.0923,-0.1968,-0.6631,0.8625,0.9554,0.0871,2065
16,-0.2119,-0.0996,-0.5215,0.8601,0.783,0.3416,2059
16,-0.561,-0.0002,-0.4497,0.9608,0.7897,0.5813,2090
16,-0.7395,-0.0437,-0.47,0.8887,0.5794,0.4689,2072
16,-0.6279,-0.071,-0.521,0.8268,0.6452,0.2898,2078
16,-0.55,-0.0359,-0.4814,0.9456,0.7845,0.2731,2092
16,-0.5178,-0.0508,-0.4514,1.0921,0.4272,0.1288,2059
16,-0.3174,-0.2253,-0.554,1.0604,-0.3293,0.1302,2090
16,-0.2007,-0.2905,-0.6704,0.9032,-0.7427,0.1549,2017
16,-0.4158,-0.2424,-0.6616,0.8487,-0.505,0.1625,2035
16,-0.738,-0.1311,-0.5562,0.7276,-0.1425,0.2629,2040
16,-0.8906,-0.1948,-0.71,0.9511,-0.3056,0.3585,2113
16,-0.8877,-0.2229,-0.8242,0.3492,-0.1332,0.3456,2095
16,-0.688,-0.2288,-0.8311,0.3024,0.6979,0.2266,2092
16,-0.6013,-0.1423,-0.5149,0.5983,0.749,0.1619,2087
16,-0.5044,-0.1931,-0.5139,0.507,0.3988,0.2802,2063
16,-0.5637,-0.196,-0.876,0.1977,0.3231,0.3779,2060
16,-0.5999,-0.3081,-0.9875,-0.0194,0.2144,0.2253,2052
16,-0.5,-0.2456,-1.0256,-0.2495,-0.0305,0.0783,2056
16,-0.6064,-0.1499,-1.1387,-0.5163,0.1681,0.0961,2070
16,-0.7644,-0.0605,-1.1418,-0.5028,0.4916,0.1475,2045
17,-0.8411,-0.0142,-1.0215,-0.5156,0.6747,0.1827,2069
17,-0.8452,-0.0977,-1.0398,-0.5386,0.6598,0.2344,2059
17,-0.8674,-0.2344,-1.1104,-0.8216,0.4235,0.345,2088
17,-0.8096,-0.26,-1.1262,-1.0838,0.2565,0.4117,2074
17,-0.7678,-0.2329,-1.145,-1.2926,-0.2519,0.4215,2087
17,-0.7837,-0.207,-1.0881,-1.4358,-0.8909,0.2553,2063
17,-0.6653,-0.2263,-1.0576,-1.5318,-1.4755,0.1145,2066
17,-0.6797,-0.2754,-1.1162,-1.5801,-1.7893,0.0831,2034
17,-0.6736,-0.3501,-1.1897,-1.7084,-2.1957,0.1103,2064
17,-0.6704,-0.3665,-1.1951,-1.6378,-2.6986,0.1057,2061
17,-0.7422,-0.3423,-1.2349,-1.3735,-2.9024,-0.0145,2002
17,-0.8987,-0.229,-1.127,-0.9247,-3.1288,-0.1526,2127
17,-0.9854,-0.2761,-1.0493,-0.6251,-3.0002,-0.2306,2004
17,-0.9551,-0.3994,-1.1021,-0.3847,-2.5615,-0.2952,2104
17,-0.9993,-0.3254,-1.0332,-0.0731,-2.0972,-0.2388,2067
17,-0.9551,-0.4211,-0.9771,-0.1577,-1.7108,-0.1409,2104
17,-0.8274,-0.5068,-1.0022,-0.3257,-1.4444,-0.1079,2094
17,-0.7942,-0.3333,-1.0806,-0.5661,-1.0789,-0.2481,1926
17,-0.7319,0.0027,-1.1611,-0.5103,-0.6634,-0.3428,2093
17,-0.6809,0.106,-1.2,-0.4364,-0.3943,-0.3448,2054
17,-0.6091,0.1196,-1.1101,-0.338,-0.2884,-0.3583,2090
17,-0.5393,0.123,-0.9666,-0.4163,-0.2256,-0.3842,2071
17,-0.5142,0.1194,-0.8872,-0.6456,-0.1693,-0.4022,2068
17,-0.533,0.2012,-0.8601,-0.923,-0.1723,-0.4693,2070
17,-0.5303,0.3293,-0.8164,-1.2058,-0.1906,-0.5509,2061
17,-0.511,0.448,-0.7417,-1.4432,-0.1381,-0.6131,2064
17,-0.49,0.4902,-0.6663,-1.7143,-0.108,-0.6664,2063
17,-0.4561,0.3994,-0.5166,-2.2971,-0.1278,-0.8247,2060
17,-0.3516,0.531,-0.5212,-2.5561,-0.3053,-0.7022,2064
17,-0.2334,0.5281,-0.448,-2.74,-0.6196,-0.5337,2060
17,-0.1665,0.5449,-0.4309,-2.9078,-0.9612,-0.2866,2067
17,-0.3086,0.6072,-0.5212,-2.8042,-1.1078,-0.1706,2068
17,-0.3472,0.5559,-0.478,-2.6778,-1.162,-0.0238,2060
17,-0.4736,0.5283,-0.4893,-2.5358,-1.2802,0.0332,2057
17,-0.48,0.4854,-0.4614,-2.3143,-1.332,0.0559,2059
17,-0.5129,0.3872,-0.4026,-2.1895,-1.3391,0.1264,2061
17,-0.5469,0.3145,-0.4348,-1.994,-1.3946,0.1927,2060
17,-0.6541,0.3091,-0.4551,-1.8977,-1.3057,0.2535,2072
17,-0.7212,0.248,-0.4202,-1.8301,-1.1684,0.1804,2108
17,-0.7871,0.2605,-0.385,-1.7643,-1.0626,0.1237,2046
17,-0.8057,0.281,-0.3574,-1.6017,-0.8586,0.1266,2059
17,-0.8713,0.2881,-0.2849,-1.3081,-0.3947,0.1912,2042
17,-0.9338,0.2615,-0.2502,-0.9935,-0.1483,0.2068,2043
17,-0.9504,0.1565,-0.2612,-0.7325,-0.2016,0.0716,2056
17,-0.8386,0.0422,-0.3376,-0.5914,-0.5521,-0.1004,2057
17,-0.7148,-0.0762,-0.4404,-0.5825,-0.6329,-0.1089,2065
17,-0.8494,-0.0444,-0.6157,-0.4717,-0.4749,0.3088,2073
17,-1.1436,0.0339,-0.7761,-0.3667,-0.2197,0.6761,2051
17,-1.4243,0.1521,-0.761,-0.3653,0.078,0.7779,2060
17,-1.4119,0.1787,-0.6428,-0.2041,0.184,0.6849,2071
17,-1.3267,0.0645,-0.5674,-0.0687,0.3334,0.6493,2051
17,-1.2131,0.0598,-0.5662,-0.0527,0.5027,0.5883,2070
17,-1.1147,0.0906,-0.6829,-0.0001,0.5834,0.6114,2041
17,-1.0811,0.1216,-0.8882,0.0808,0.6532,0.7293,1990
17,-1.1299,0.155,-1.0715,0.14,0.8572,0.8565,2071
17,-1.1892,0.1323,-1.0608,0.3613,0.7865,0.8669,2023
17,-1.1633,0.0737,-0.8909,0.6554,0.6301,0.7653,2068
17,-1.0869,0.0327,-0.7449,0.6959,0.6192,0.6416,2087
17,-1.0818,-0.0063,-0.6797,0.6725,0.8598,0.5405,2065
17,-1.0479,-0.019,-0.6184,0.6889,1.0419,0.4264,2077
17,-1.0112,-0.1475,-0.5884,0.508,0.9622,0.2304,2074
17,-0.9146,-0.2021,-0.5901,0.2377,0.761,0.019,2056
17,-0.7637,-0.1157,-0.6475,0.1831,0.2586,-0.1005,2063
17,-0.7043,-0.0903,-0.6624,0.2232,-0.4115,-0.2069,2054
17,-0.7114,-0.0942,-0.6453,0.29,-0.8629,-0.2402,2061
17,-0.8159,-0.0825,-0.6047,0.3253,-1.0929,-0.1767,2044
17,-0.917,-0.1038,-0.5735,0.4036,-1.1025,-0.1261,2075
17,-0.9658,-0.1069,-0.4819,0.4366,-1.0816,-0.1565,2057
17,-0.9058,-0.094,-0.3853,0.4805,-0.9087,-0.1836,2076
17,-0.814,-0.0649,-0.3198,0.514,-0.6504,-0.1744,2068
17,-0.8157,-0.063,-0.3699,0.4418,-0.3273,-0.1205,2066
17,-0.8831,-0.0034,-0.4463,0.4955,-0.0357,0.1341,2069
17,-0.8198,0.0503,-0.4204,0.6297,0.0894,0.406,2052
17,-0.7407,0.0837,-0.3462,0.7199,0.129,0.5617,2108
17,-0.6343,0.0989,-0.2847,0.7741,-0.0189,0.5742,2048
17,-0.5415,0.1433,-0.2876,0.7826,0.0011,0.5699,2032
17,-0.51,0.1875,-0.3213,0.8223,0.0975,0.6589,2060
17,-0.5454,0.1841,-0.3684,0.8593,-0.0131,0.7086,2058
17,-0.5232,0.1387,-0.3589,0.8018,-0.3667,0.5629,2063
17,-0.4829,0.0935,-0.3853,0.5819,-0.5019,0.2553,2063
17,-0.4739,0.0725,-0.4739,0.3273,-0.5035,-0.0112,2065
17,-0.5103,0.1157,-0.532,0.1639,-0.4573,-0.0977,2056
17,-0.5559,0.1667,-0.4824,0.1136,-0.4702,-0.0405,2063
17,-0.5847,0.2029,-0.4011,0.1312,-0.4779,0.0499,2063
17,-0.6074,0.2087,-0.3455,0.1649,-0.3108,0.1087,2069
17,-0.6543,0.2129,-0.3477,0.2011,-0.0471,0.1449,2059
17,-0.6877,0.2297,-0.3691,0.2405,0.1659,0.1784,2064
17,-0.7317,0.2627,-0.4285,0.2954,0.3288,0.2397,2050
17,-0.7898,0.2905,-0.4675,0.324,0.4273,0.3927,2059
17,-0.8628,0.3203,-0.4529,0.3622,0.3533,0.6102,2054
17,-0.8564,0.3254,-0.3962,0.4847,0.3007,0.7855,2060
17,-0.8518,0.3069,-0.3625,0.6096,0.3428,0.879,2062
17,-0.8457,0.2615,-0.3306,0.7344,0.4007,0.8793,2089
17,-0.8567,0.2434,-0.3125,0.8131,0.4809,0.8267,2055
17,-0.8904,0.2305,-0.3308,0.8373,0.5,0.7857,2062
17,-0.8916,0.2329,-0.3296,0.8412,0.4055,0.751,2058
17,-0.8667,0.2275,-0.3386,0.8407,0.2667,0.7034,2063
17,-0.8279,0.2336,-0.3938,0.8933,0.1711,0.6269,2067
17,-0.823,0.2461,-0.4458,0.9712,0.0732,0.571,2070
17,-0.8413,0.2278,-0.5056,1.0252,0.0611,0.4565,2097
17,-0.8862,0.1858,-0.5137,1.1062,-0.077,0.3488,2015
17,-0.8909,0.1206,-0.532,1.2178,-0.2398,0.2554,2040
17,-0.9668,0.0317,-0.5876,1.231,-0.3954,0.2061,2004
17,-1.0,-0.0847,-0.709,1.0589,-0.7505,0.1394,2057
17,-0.9548,-0.2383,-0.9231,0.6582,-1.0621,0.0204,2058
18,-0.926,-0.3784,-1.1309,0.2498,-1.1238,-0.1704,2023
18,-0.9534,-0.4246,-1.1824,-0.1811,-0.8218,-0.5177,2062
18,-1.0173,-0.2671,-1.1174,-0.2378,-0.186,-0.9042,2093
18,-1.1108,-0.0234,-0.988,0.1169,0.3195,-1.0397,2104
18,-1.0056,0.1101,-0.9854,0.3537,0.1297,-1.0349,2008
18,-0.7871,-0.0022,-1.1064,0.3306,-0.3013,-1.0377,2087
18,-0.5686,-0.2358,-1.2488,-0.03,-0.5143,-0.9215,2121
18,-0.5603,-0.3052,-1.2539,-0.34,-0.5297,-0.7726,2062
18,-0.8196,-0.1956,-1.0764,-0.4541,-0.4669,-0.695,2076
18,-1.0833,-0.0308,-0.9331,-0.5079,-0.4525,-0.6815,2114
18,-1.144,0.0513,-0.8403,-0.5449,-0.5042,-0.7002,1976
18,-1.0947,0.1023,-0.8093,-0.8055,-0.4472,-0.5984,2075
18,-1.0483,0.2153,-0.8411,-1.2151,-0.1647,-0.4959,2060
18,-1.0398,0.3809,-0.8516,-1.3591,0.1806,-0.2173,2046
18,-1.0884,0.5349,-0.7949,-1.401,0.4797,-0.0868,2095
18,-0.9961,0.5881,-0.6843,-1.3886,0.6,0.1441,2048
18,-0.9207,0.5791,-0.5786,-1.3363,0.6769,0.2807,2040
18,-0.8896,0.571,-0.5166,-1.3731,0.6509,0.3547,2064
18,-0.8071,0.5784,-0.4851,-1.4013,0.6143,0.2999,2060
18,-0.7744,0.5859,-0.4307,-1.4759,0.5866,0.231,2059
18,-0.7109,0.5872,-0.3977,-1.5854,0.4794,0.1603,2041
18,-0.6079,0.574,-0.3599,-1.7355,0.2108,0.1044,2074
18,-0.5435,0.5215,-0.3574,-1.9655,-0.161,0.0212,2065
18,-0.469,0.5005,-0.3701,-2.1017,-0.4537,-0.0136,2092
18,-0.4712,0.481,-0.2725,-2.1836,-0.6556,-0.0563,2042
18,-0.5039,0.4246,-0.1943,-2.216,-0.8517,-0.1171,2091
18,-0.4919,0.3884,-0.1335,-2.0726,-0.9754,-0.2001,2065
18,-0.4199,0.3215,-0.1011,-1.9334,-1.0883,-0.3378,2054
18,-0.4819,0.3569,-0.1555,-1.7241,-1.1913,-0.4795,2072
18,-0.5303,0.3323,-0.1331,-1.5366,-1.2925,-0.6785,2062
18,-0.5444,0.324,-0.1897,-1.4149,-1.3368,-0.8267,2072
18,-0.574,0.3247,-0.1995,-1.3312,-1.1923,-0.9274,2056
18,-0.6089,0.2686,-0.1973,-1.1701,-0.9983,-1.0223,2060
18,-0.634,0.2036,-0.1777,-0.979,-0.8685,-1.0721,2052
18,-0.6267,0.0857,-0.1699,-0.904,-0.8678,-1.1074,2059
18,-0.5747,0.0056,-0.196,-0.7938,-1.0226,-1.2106,2097
18,-0.564,0.0764,-0.2666,-0.4778,-0.9315,-1.1749,2068
18,-0.7056,0.1785,-0.3308,-0.0392,-0.4526,-0.8341,2072
18,-0.9438,0.1816,-0.3457,0.2763,-0.0819,-0.2896,2061
18,-1.2046,0.0723,-0.439,0.4707,0.1699,0.2802,2058
18,-1.2454,0.0334,-0.5876,0.5934,0.3125,0.7217,2066
18,-1.1655,-0.0198,-0.647,0.5955,0.4619,0.7757,2056
18,-1.0947,-0.0278,-0.5935,0.6146,0.711,0.5647,2063
18,-1.0415,0.0115,-0.4539,0.6958,0.9521,0.2599,2049
18,-0.9766,0.0686,-0.3916,0.7363,1.0887,0.0113,2036
18,-0.9014,0.0977,-0.3594,0.6678,1.1656,-0.1089,2075
18,-0.8748,0.1523,-0.4434,0.6925,0.8833,-0.1787,2058
18,-0.855,0.1831,-0.5833,0.7959,0.4675,-0.2049,2051
18,-0.9111,0.1997,-0.77,0.8207,0.151,-0.304,2049
18,-1.0596,0.2234,-0.856,0.9303,0.1145,-0.4506,2050
18,-1.3223,0.238,-0.7981,1.0844,0.4761,-0.5301,2070
18,-1.5359,0.1946,-0.7571,1.2314,0.9274,-0.4665,2070
18,-1.6111,0.1917,-0.6782,1.4387,1.3206,-0.3028,2064
18,-1.5667,0.1108,-0.5605,1.492,1.668,-0.0878,2052
18,-1.425,0.0129,-0.5029,1.4055,1.9466,-0.0212,2065
18,-1.2461,-0.1086,-0.5513,1.1848,2.0952,-0.1396,2062
18,-1.1096,-0.1497,-0.6025,1.0336,1.9548,-0.1462,2064
18,-1.0237,-0.1663,-0.7166,0.9879,1.7077,-0.1281,2067
18,-0.9587,-0.1648,-0.8474,1.034,1.4061,-0.1302,2056
18,-0.8586,-0.2373,-0.8862,1.0476,1.1155,-0.0268,2053
18,-0.7632,-0.3794,-0.8623,0.9698,0.7496,0.0376,2089
18,-0.7412,-0.4727,-0.7593,0.7953,0.4413,0.0968,2071
18,-0.7886,-0.4697,-0.6458,0.4895,0.291,0.1416,2053
18,-0.9219,-0.3767,-0.5547,0.2574,0.3193,0.2607,2065
18,-0.9905,-0.2852,-0.4946,0.0385,0.432,0.3683,2061
18,-1.0249,-0.2097,-0.5017,-0.2095,0.5922,0.4841,2038
18,-0.9312,-0.1321,-0.5293,-0.4084,0.7317,0.6291,2063
18,-0.7827,-0.0581,-0.5146,-0.4617,0.8681,0.6746,2065
18,-0.627,0.0332,-0.436,-0.393,0.852,0.7381,2056
18,-0.5164,0.1287,-0.3987,-0.4019,0.6899,0.7154,2056
18,-0.4348,0.2166,-0.4028,-0.4209,0.3575,0.7178,2061
18,-0.4275,0.272,-0.3711,-0.3757,-0.0455,0.7718,2067
18,-0.4553,0.2632,-0.3877,-0.3832,-0.2871,0.7606,2055
18,-0.5173,0.2468,-0.3806,-0.3904,-0.4615,0.704,2086
18,-0.5217,0.2461,-0.3325,-0.4022,-0.4224,0.6007,2103
18,-0.4934,0.2393,-0.3362,-0.4292,-0.4112,0.4798,2075
18,-0.3484,0.1946,-0.3259,-0.5012,-0.56,0.2922,2042
18,-0.1653,0.1848,-0.3816,-0.5525,-0.9616,0.0655,2068
18,-0.125,0.1833,-0.4331,-0.4518,-1.1853,-0.0459,2099
18,-0.2092,0.1433,-0.4094,-0.2746,-1.3567,-0.0687,2053
18,-0.3386,0.0916,-0.3872,-0.2103,-1.6317,-0.1305,2058
18,-0.3989,0.0105,-0.374,-0.2292,-1.7483,-0.1952,2055
18,-0.46,-0.0476,-0.4194,-0.2754,-1.6123,-0.2095,2094
18,-0.5322,-0.0823,-0.4626,-0.3436,-1.2888,-0.1304,1980
18,-0.6348,-0.0798,-0.4487,-0.434,-0.8564,-0.043,2033
18,-0.7285,-0.0215,-0.51,-0.3907,-0.5048,0.0415,2005
18,-0.7524,0.0413,-0.4827,-0.2788,-0.1649,0.0623,2126
18,-0.6978,0.0237,-0.3835,-0.227,0.0198,0.0061,2027
18,-0.7107,-0.0745,-0.4221,-0.2742,0.3164,0.2332,2050
18,-0.7458,-0.0889,-0.4102,-0.3991,0.4777,0.4208,2063
18,-0.7007,0.0203,-0.4104,-0.5265,0.3221,0.508,2051
18,-0.688,0.2363,-0.3049,-0.3878,0.3546,0.3255,2024
18,-0.5835,0.3755,-0.1772,-0.0463,0.1205,0.1603,1999
18,-0.6814,0.3145,-0.1929,0.1835,-0.2984,0.2705,2103
18,-0.9404,0.0842,-0.3865,0.1983,-0.5086,0.436,2088
18,-1.0803,0.0342,-0.5093,0.0988,-0.4813,0.1907,2072
18,-1.0984,0.0522,-0.5972,-0.0071,-0.1121,-0.0843,2068
18,-1.1772,-0.0076,-0.7131,-0.09,0.3353,-0.3605,2146
18,-1.2263,-0.03,-0.699,-0.278,0.5556,-0.6437,2072
18,-1.1917,0.0037,-0.6963,-0.3481,0.8862,-0.8203,2046
18,-1.1094,0.1858,-0.7036,-0.3561,1.1664,-0.9071,2116
18,-1.0388,0.3223,-0.6228,-0.1951,0.9437,-1.0343,2072
19,-0.8877,0.3005,-0.6316,0.0807,0.6324,-1.1635,2048
19,-0.936,0.2515,-0.7056,0.3167,0.2666,-1.3126,2074
19,-1.0037,0.2048,-0.7805,0.4834,0.0411,-1.4956,2059
19,-1.0667,0.1111,-0.8091,0.6229,-0.1035,-1.6929,2050
19,-1.0974,0.0408,-0.782,0.7349,-0.094,-1.851,2115
19,-1.0767,-0.0435,-0.7751,0.8321,-0.1059,-1.8997,2015
19,-1.1726,-0.134,-0.7922,0.8405,0.0559,-1.8614,2101
19,-1.3191,-0.1614,-0.9287,0.759,0.5497,-1.5103,2039
19,-1.2656,-0.092,-1.0024,0.7332,1.0371,-1.0191,2100
19,-1.2209,0.0349,-0.927,0.7666,1.279,-0.6626,2088
19,-1.1582,0.05,-0.8313,0.8066,1.3179,-0.4428,2068
19,-1.094,-0.0459,-0.8027,0.7082,1.3306,-0.3177,2067
19,-1.1353,-0.158,-0.72,0.4168,1.2407,-0.4325,2056
19,-1.0798,-0.1614,-0.7124,-0.0855,1.0013,-0.5363,2056
19,-0.9502,0.0779,-0.8123,-0.1296,0.9038,-0.5253,2050
19,-1.0447,0.4102,-0.5842,-0.2476,0.4203,-0.4944,2066
19,-0.7976,0.467,-0.937,0.0973,0.3248,-0.2052,2033
19,-0.469,-0.0681,-0.9863,0.4992,0.4553,-0.2302,2101
19,-0.5073,-0.2673,-0.6692,0.3812,0.3193,-0.7054,2060
19,-0.6958,-0.022,-0.3962,-0.2432,-0.1529,-0.8634,2094
19,-0.7612,0.175,-0.366,-0.5489,-0.4416,-0.9713,2033
19,-0.8916,0.3022,-0.3467,-0.807,-0.6352,-0.9929,2051
19,-0.7314,0.2129,-0.488,-1.0829,-0.4485,-0.7914,2073
19,-0.678,0.24,-0.51,-1.2436,-0.3048,-0.5817,2110
19,-0.6355,0.3491,-0.4302,-1.3165,-0.4081,-0.369,2046
19,-0.6084,0.4092,-0.3643,-1.2933,-0.5572,-0.1788,2055
19,-0.5413,0.3958,-0.3491,-1.2784,-0.6644,-0.0358,2073
19,-0.5027,0.4192,-0.3293,-0.9971,-0.7742,0.0423,2073
19,-0.6055,0.4409,-0.2275,-0.6418,-0.6809,0.1079,2129
19,-0.6182,0.3359,-0.1956,-0.2345,-0.6584,0.2332,2099
19,-0.6064,0.1008,-0.2148,-0.1136,-0.8203,0.1768,1990
19,-0.6113,-0.248,-0.3157,-0.3598,-0.9806,0.1061,2071
19,-0.6506,-0.4417,-0.5347,-0.921,-0.9138,0.0795,1982
19,-0.7012,-0.2307,-0.5779,-1.1376,-0.8393,-0.0638,2032
19,-0.8169,0.072,-0.4534,-1.1497,-0.7967,-0.2653,2124
19,-0.7986,0.1135,-0.4631,-1.0595,-0.7332,-0.4022,2072
19,-0.738,-0.0312,-0.5432,-1.0508,-0.883,-0.4213,1951
19,-0.71,-0.0557,-0.5525,-0.9818,-0.7745,-0.4992,2030
19,-0.7871,0.0403,-0.4688,-0.8054,-0.7168,-0.6364,2093
19,-0.8801,0.0337,-0.4211,-0.6413,-0.7146,-0.6705,2000
19,-0.8901,0.0024,-0.4492,-0.5594,-0.8027,-0.6103,1972
19,-0.906,-0.0542,-0.501,-0.4223,-0.7987,-0.5212,2034
19,-0.9658,-0.1179,-0.5305,-0.3591,-0.7423,-0.436,2055
19,-1.052,-0.1689,-0.5762,-0.3385,-0.6466,-0.3598,2064
19,-1.0933,-0.197,-0.6001,-0.3742,-0.5758,-0.3033,2020
19,-1.0791,-0.1912,-0.6292,-0.4253,-0.4817,-0.2697,2050
19,-1.0769,-0.1396,-0.626,-0.4362,-0.3711,-0.2747,2055
19,-1.0803,-0.0742,-0.647,-0.4263,-0.2936,-0.2689,2009
19,-1.0679,0.021,-0.6667,-0.3385,-0.295,-0.4107,2032
19,-1.084,0.0049,-0.7324,-0.3024,-0.2579,-0.5136,2035
19,-0.9802,-0.1094,-0.7605,-0.308,-0.3125,-0.6829,1984
19,-1.0837,-0.2073,-0.8765,-0.3946,-0.3277,-0.9456,2046
19,-1.0234,-0.3159,-0.894,-0.5237,-0.3508,-1.2302,2093
19,-0.9895,-0.3303,-0.8125,-0.583,-0.2248,-1.4543,2122
19,-0.9229,-0.3687,-0.6887,-0.6948,-0.2362,-1.4802,2046
19,-0.9397,-0.2434,-0.6758,-0.6359,-0.225,-1.4905,2036
19,-0.8428,-0.2944,-0.5728,-0.4762,-0.2057,-1.501,2122
19,-0.8401,-0.3689,-0.4719,-0.2481,-0.0543,-1.3065,2054
19,-0.897,-0.4778,-0.4177,-0.0611,0.1405,-1.1537,2026
19,-0.8445,-0.4951,-0.3616,0.1868,0.1061,-0.8301,2187
19,-1.1001,-0.3979,-0.4604,0.4936,0.332,-0.5405,2039
19,-1.0845,-0.3992,-0.52,0.6201,0.691,-0.1904,2127
19,-0.97,-0.4392,-0.5498,0.7975,0.9005,0.0368,2044
19,-0.9714,-0.4753,-0.4141,0.7753,0.8424,0.0497,2128
19,-1.2366,-0.2366,-0.6067,0.0834,0.2193,-0.2731,1957
19,-0.3193,-0.7539,-0.6877,1.1947,1.5173,0.193,2104
19,-0.4656,-0.6731,-0.4204,0.9408,0.895,0.1242,2094
19,-0.8994,-0.4172,-0.426,0.7971,0.3571,-0.0759,2069
19,-0.8794,-0.324,-0.4106,0.6833,0.3151,-0.1768,2018
19,-0.7515,-0.25,-0.4368,0.6027,0.4743,-0.1577,2015
19,-0.8005,-0.2261,-0.354,0.5853,0.7449,-0.1574,2064
19,-0.6699,-0.2117,-0.3254,0.5417,0.6149,-0.1517,2047
19,-0.6619,-0.1606,-0.3191,0.5215,0.5104,-0.1738,2061
19,-0.6294,-0.0837,-0.2861,0.489,0.3016,-0.0912,2108
19,-0.7444,-0.0198,-0.3074,0.4817,0.2527,-0.0507,1997
19,-0.7715,-0.0105,-0.27,0.4047,0.2976,0.0482,2120
19,-0.7161,-0.0115,-0.2502,0.3559,0.1683,0.1188,2049
19,-0.6931,-0.0229,-0.2473,0.3021,0.0654,0.1827,2054
19,-0.688,-0.0356,-0.2698,0.2368,0.0093,0.261,2110
19,-0.7007,-0.0479,-0.2688,0.2073,-0.0213,0.3228,1987
19,-0.6992,-0.0603,-0.291,0.1638,-0.0361,0.3808,2137
19,-0.6682,-0.1108,-0.3274,0.1445,-0.092,0.4101,1991
19,-0.6602,-0.1033,-0.3394,0.1433,-0.1537,0.4239,2066
19,-0.6799,-0.084,-0.3433,0.176,-0.1977,0.4039,2113
19,-0.6912,-0.0986,-0.3271,0.2045,-0.2545,0.3802,2100
19,-0.6909,-0.1367,-0.3225,0.2328,-0.2541,0.3365,1999
19,-0.6982,-0.2007,-0.3252,0.2197,-0.2261,0.2956,2051
19,-0.6992,-0.2378,-0.3113,0.1728,-0.2207,0.2441,2056
19,-0.71,-0.2183,-0.3257,0.1282,-0.2116,0.1791,2028
19,-0.7217,-0.1414,-0.2993,0.1489,-0.2057,0.1344,2065
19,-0.7771,-0.0789,-0.2913,0.2229,-0.1402,0.1325,2032
19,-0.8027,-0.0813,-0.2905,0.2754,-0.0601,0.1867,2040
19,-0.8289,-0.1086,-0.2969,0.2846,0.0071,0.2372,2010
19,-0.8503,-0.1284,-0.332,0.2609,0.0446,0.2587,2051
19,-0.9019,-0.1377,-0.3877,0.1665,0.0128,0.2766,2201
19,-0.9333,-0.1697,-0.4602,0.0647,-0.0064,0.2569,1953
19,-0.9858,-0.1702,-0.4797,-0.0141,0.0201,0.2125,2102
19,-1.0364,-0.1846,-0.4873,-0.084,0.0723,0.1819,2050
19,-1.0779,-0.2014,-0.5251,-0.1776,0.1071,0.1695,2185
19,-1.1072,-0.1965,-0.5698,-0.2389,0.1662,0.1577,2135
19,-1.1445,-0.1931,-0.5635,-0.2149,0.3011,0.1428,1996
20,-1.197,-0.2053,-0.5535,-0.1354,0.4344,0.171,2117
20,-1.2158,-0.2192,-0.5725,-0.0473,0.5894,0.2381,2037
20,-1.1599,-0.2725,-0.6162,0.0103,0.426,0.2662,1974
20,-1.251,-0.2627,-0.6035,0.0764,0.5011,0.2266,2072
20,-1.2146,-0.3176,-0.6592,0.0915,0.408,0.1284,2032
20,-1.27,-0.3025,-0.6372,0.1017,0.4585,0.0928,2100
20,-1.3286,-0.2617,-0.676,0.1186,0.4896,0.0471,1993
20,-1.2241,-0.2983,-0.7231,0.0437,0.3954,0.0527,2098
20,-1.1038,-0.3208,-0.7397,0.0361,0.226,0.0063,1952
20,-1.0703,-0.2849,-0.7183,-0.0189,-0.0128,-0.0161,2116
20,-1.1211,-0.2439,-0.7244,-0.0583,-0.2361,-0.0364,2074
20,-1.1311,-0.199,-0.7395,-0.1314,-0.3404,-0.0742,2072
20,-1.1782,-0.1379,-0.699,-0.2073,-0.3107,-0.1198,2111
20,-1.3145,0.0928,-0.478,-0.259,-0.4907,-0.028,2058
20,-0.7063,-0.4011,-1.1301,-0.1902,-0.0188,-0.1791,2072
20,-1.092,-0.093,-0.7043,-0.116,-0.019,-0.2578,2138
20,-1.0862,-0.0239,-0.6328,-0.1944,-0.2444,-0.2376,1956
20,-0.9797,-0.1313,-0.709,-0.3016,-0.3079,-0.2388,2111
20,-0.9121,-0.1194,-0.7227,-0.4677,-0.2661,-0.1924,2087
20,-0.9177,-0.0708,-0.6936,-0.5958,-0.2896,-0.1128,2016
20,-0.8569,-0.0874,-0.5999,-0.7002,-0.2872,0.0234,2112
20,-0.8176,-0.2732,-0.6379,-1.0194,-0.2085,0.123,2043
20,-0.7024,-0.1208,-0.5208,-1.1601,-0.2711,0.1186,2056
20,-0.6895,0.2566,-0.3616,-1.023,-0.3336,0.0932,2084
20,-0.6628,0.1677,-0.2627,-0.9074,-0.2618,0.2682,2075
20,-0.5752,0.041,-0.1772,-0.8035,-0.2542,0.4362,2068
20,-0.4045,-0.043,-0.1118,-0.704,-0.2574,0.4498,2046
20,-0.4138,-0.0952,-0.0244,-0.6923,-0.4594,0.3995,2110
20,-0.4229,-0.1399,-0.0525,-0.7413,-0.6493,0.3024,2075
20,-0.4543,-0.1968,-0.1116,-0.7978,-0.7308,0.2763,2092
20,-0.4768,-0.1577,-0.1592,-0.8845,-0.738,0.2337,2085
20,-0.4937,-0.0847,-0.1812,-0.8618,-0.6626,0.2404,2049
20,-0.5425,-0.0127,-0.1934,-0.8228,-0.575,0.2278,2036
20,-0.5664,-0.0068,-0.2458,-0.7485,-0.5564,0.2874,2057
20,-0.5618,-0.0049,-0.2642,-0.7159,-0.4988,0.335,2088
20,-0.5522,-0.0369,-0.2822,-0.6478,-0.5256,0.3926,2073
20,-0.6028,-0.1018,-0.365,-0.6608,-0.6396,0.4213,2090
20,-0.6663,-0.1199,-0.4153,-0.66,-0.7128,0.4015,1988
20,-0.7288,-0.0969,-0.4526,-0.6303,-0.7,0.3593,2145
20,-0.7988,-0.0708,-0.4338,-0.603,-0.6086,0.3072,2062
20,-0.8767,-0.0398,-0.4185,-0.5715,-0.4594,0.2424,2091
20,-0.9136,-0.0549,-0.4236,-0.5627,-0.306,0.1984,2119
20,-0.8879,-0.0688,-0.4167,-0.5315,-0.1843,0.175,2044
20,-0.9004,-0.031,-0.439,-0.4846,-0.1346,0.1136,2135
20,-0.897,-0.0127,-0.4519,-0.4224,-0.1381,0.1157,2051
20,-0.9431,-0.0132,-0.4937,-0.2946,-0.1858,0.1406,2067
20,-1.0256,-0.0305,-0.4924,-0.2187,-0.227,0.153,2098
20,-1.093,-0.0386,-0.5422,-0.1891,-0.1768,0.1663,2098
20,-1.1665,-0.021,-0.5708,-0.2163,-0.0067,0.163,1961
20,-1.1797,0.0049,-0.5505,-0.2296,0.1951,0.0856,1995
20,-1.1531,0.0269,-0.5403,-0.2618,0.3069,0.0192,2094
20,-1.0918,0.0154,-0.5391,-0.2725,0.2713,-0.1213,2065
20,-1.0354,0.0061,-0.5686,-0.2289,0.1523,-0.1983,2057
20,-1.064,0.0056,-0.6089,-0.1133,0.0378,-0.2831,2041
20,-1.1506,-0.0872,-0.646,0.0205,0.0174,-0.3147,2029
20,-1.2068,-0.1914,-0.6833,0.1494,0.1422,-0.3398,2044
20,-1.2566,-0.2981,-0.677,0.2358,0.357,-0.3465,2045
20,-1.2708,-0.365,-0.6541,0.2449,0.6098,-0.3396,1975
20,-1.2007,-0.4058,-0.6128,0.2033,0.8682,-0.3288,2111
20,-1.0911,-0.384,-0.5803,0.126,1.0236,-0.3309,2092
20,-1.0029,-0.3228,-0.5879,0.1292,0.9605,-0.3667,2055
20,-0.9043,-0.2886,-0.5264,0.1337,0.7879,-0.2952,2070
20,-0.8894,-0.2395,-0.4795,0.1728,0.5634,-0.0895,2064
20,-0.8667,-0.3589,-0.4331,0.2706,0.4731,-0.0707,2048
20,-0.9136,-0.3047,-0.5168,0.4825,0.314,0.0154,2093
20,-0.9924,-0.3911,-0.6072,0.4428,0.3566,0.0914,2165
20,-0.9988,-0.3582,-0.6274,0.4641,0.4895,0.1629,2041
20,-1.0273,-0.3501,-0.5742,0.5157,0.6845,0.2627,2071
20,-0.9548,-0.4219,-0.5754,0.4532,0.8031,0.2589,2058
20,-0.8516,-0.4109,-0.5308,0.3599,0.7476,0.2051,2043
20,-0.7654,-0.3494,-0.52,0.2525,0.6741,0.0433,2069
20,-0.7356,-0.2563,-0.4526,0.2112,0.571,-0.0791,2046
20,-0.7563,-0.1443,-0.4316,0.1497,0.5683,-0.1013,2065
20,-0.7112,-0.0681,-0.3884,0.1828,0.6372,-0.0965,2062
20,-0.6885,-0.0088,-0.3264,0.2429,0.753,0.027,2015
20,-0.6748,0.0361,-0.3213,0.343,0.7605,0.2242,2141
20,-0.6743,0.0044,-0.2932,0.3619,0.7564,0.4685,2018
20,-0.6594,-0.0276,-0.2649,0.3687,0.6801,0.6436,2072
20,-0.6079,-0.053,-0.2747,0.2831,0.6163,0.8537,2059
20,-0.6553,0.0369,-0.2891,0.24,0.4532,0.9704,2026
20,-0.6995,0.2021,-0.3135,0.2513,0.3309,1.0713,2101
20,-0.7251,0.2271,-0.2427,0.2211,0.2796,1.0885,2063
20,-0.7517,0.2156,-0.1941,0.1344,0.3168,1.0349,2026
20,-0.7249,0.3557,-0.2668,0.2871,0.2641,1.0544,2144
20,-0.6914,0.2524,-0.2024,0.3075,0.2093,1.0601,2054
20,-0.5715,0.0698,-0.1646,0.3123,0.1216,0.8905,2061
20,-0.5557,-0.0876,-0.1814,0.2232,-0.0875,0.6492,2041
20,-0.5835,-0.1499,-0.2471,0.1025,-0.2963,0.4356,2064
20,-0.6326,-0.155,-0.2344,0.0128,-0.447,0.22,2021
20,-0.7324,-0.1318,-0.2415,-0.0225,-0.4478,0.0561,2067
20,-0.7673,-0.1448,-0.2859,-0.0558,-0.3852,-0.0846,2023
20,-0.7842,-0.1279,-0.2498,-0.0149,-0.2944,-0.1473,2035
20,-0.8091,-0.083,-0.2771,0.1356,-0.2261,-0.1137,2157
20,-0.8625,-0.1033,-0.2764,0.2362,-0.1571,-0.0394,2051
20,-0.9075,-0.1414,-0.3235,0.3646,-0.1222,0.0222,1905
20,-0.8777,-0.2065,-0.3242,0.3235,-0.0192,0.0297,2091
20,-0.8774,-0.2622,-0.3625,0.2526,0.0123,-0.0262,2059
20,-0.885,-0.2332,-0.4402,0.1738,0.041,-0.0687,1918
20,-0.9211,-0.1418,-0.4839,0.1148,0.0964,-0.0943,2097
20,-1.0352,-0.0723,-0.5444,0.1416,0.2517,-0.0763,2069
20,-0.9343,0.0405,-0.5874,0.1954,0.3535,0.0192,2131
20,-1.0103,-0.0107,-0.6074,0.2746,0.4751,0.1912,2097
20,-1.0388,-0.0168,-0.5811,0.3978,0.5195,0.2033,2059
20,-0.926,0.0051,-0.6904,0.4169,0.6002,0.2092,1984
21,-1.1309,-0.0508,-0.7253,0.4145,0.6785,0.3136,2033
21,-1.1826,-0.0903,-0.801,0.4552,0.6962,0.3412,2022
21,-1.2629,-0.1504,-0.8484,0.4528,0.8116,0.346,2069
21,-1.2927,-0.1494,-0.8804,0.4217,0.9662,0.4257,2028
21,-1.3384,-0.1018,-0.856,0.5,1.056,0.4163,2095
21,-1.2905,0.0278,-0.821,0.6106,1.0199,0.4775,1961
21,-1.344,-0.0493,-0.7905,0.6771,0.973,0.5052,2127
21,-1.2439,0.0159,-0.845,0.8471,0.8861,0.5514,2103
21,-1.23,-0.002,-0.8264,0.9271,0.6898,0.5892,2066
21,-1.1804,-0.0305,-0.8167,0.9439,0.5056,0.5561,2000
21,-1.0144,0.0151,-0.8337,0.846,0.3919,0.4406,2117
21,-1.1235,0.0437,-0.9055,0.6556,0.2428,0.5681,1962
21,-1.3884,0.0337,-0.8982,0.3851,0.3183,0.1626,2213
21,-0.9038,0.2324,-0.8584,0.3796,0.077,0.3271,2103
21,-0.9512,0.1912,-0.71,0.3148,-0.0964,0.0772,2059
21,-0.7852,0.2161,-0.7371,0.138,-0.3136,-0.1899,1901
21,-0.6213,0.1965,-0.74,-0.083,-0.4548,-0.5602,2131
21,-0.7388,0.0227,-0.6206,-0.2944,-0.4589,-1.3364,2020
21,-0.5967,-0.0486,-0.6316,-0.4501,-0.6798,-1.1219,2079
21,-0.6252,-0.1245,-0.6562,-0.6291,-0.5315,-1.2122,2003
21,-0.6436,-0.1135,-0.6096,-0.7026,-0.3316,-1.1541,1993
21,-0.5828,-0.0857,-0.5481,-0.7188,-0.1546,-1.0347,2060
21,-0.5159,-0.0464,-0.5386,-0.7191,-0.0639,-0.9368,2037
21,-0.4666,-0.04,-0.4685,-0.7051,-0.1141,-0.889,2178
21,-0.4131,-0.0137,-0.4062,-0.718,-0.2252,-0.8851,2018
21,-0.3723,-0.0005,-0.3962,-0.7259,-0.3421,-0.8608,2064
21,-0.3608,-0.0063,-0.3379,-0.7534,-0.4441,-0.8247,2100
21,-0.3621,-0.0017,-0.2605,-0.7494,-0.4811,-0.7873,1985
21,-0.4092,0.0205,-0.2625,-0.706,-0.4742,-0.6508,2098
21,-0.4155,0.0322,-0.2832,-0.7148,-0.4602,-0.4734,2131
21,-0.4204,0.0571,-0.3611,-0.7108,-0.3482,-0.3386,2179
21,-0.6399,0.0391,-0.4709,-0.7196,-0.1642,-0.3171,2206
21,-0.3845,0.0769,-0.5054,-0.7518,-0.1337,-0.1342,1914
21,-0.4751,-0.0044,-0.4436,-0.7975,-0.0326,-0.2041,2059
21,-0.4673,-0.0444,-0.467,-0.9144,-0.0423,-0.2,2118
21,-0.4651,-0.0173,-0.4832,-0.9822,-0.0441,-0.2366,2148
21,-0.5674,0.0056,-0.4326,-0.9038,-0.0658,-0.2642,2162
21,-0.7351,-0.0435,-0.4648,-0.7714,-0.0366,-0.1763,1955
21,-0.887,-0.0679,-0.4976,-0.6087,0.0487,-0.045,1906
21,-0.9751,-0.0852,-0.501,-0.4561,0.2101,0.0346,1838
21,-1.0015,-0.0979,-0.5046,-0.3625,0.3472,0.0434,2091
21,-1.0034,-0.0837,-0.509,-0.3333,0.3852,0.0282,2174
21,-1.0115,-0.0676,-0.5198,-0.3488,0.3208,0.0392,2024
21,-1.0239,-0.0669,-0.6741,-0.4876,0.2112,0.0579,2158
21,-0.875,0.0237,-0.657,-0.5494,-0.0272,-0.1136,2201
21,-0.9082,0.0977,-0.5693,-0.5729,-0.3498,-0.2466,2162
21,-0.8618,-0.0283,-0.6792,-0.6679,-0.5007,-0.3998,2051
21,-0.8718,0.092,-0.5254,-0.6416,-0.6879,-0.7062,2037
21,-1.0054,0.0994,-0.4385,-0.4866,-0.8115,-0.8688,1974
21,-1.0471,-0.0784,-0.564,-0.4992,-0.5999,-0.8782,2207
21,-1.0444,-0.2131,-0.615,-0.4944,-0.4224,-0.9341,2259
21,-1.1272,-0.3562,-0.6614,-0.5402,-0.2818,-0.9545,1802
21,-1.2219,-0.4077,-0.7725,-0.5265,-0.1064,-0.8593,2306
21,-1.2542,-0.3516,-0.884,-0.4149,-0.0021,-0.765,2026
21,-1.2493,-0.321,-0.9636,-0.3195,0.0181,-0.7359,1905
21,-1.2327,-0.2812,-0.9731,-0.2305,-0.0487,-0.7733,2185
21,-1.1365,-0.3787,-0.9045,-0.2462,-0.1701,-0.8877,2048
21,-1.0918,-0.4197,-0.7456,-0.2541,-0.2643,-0.9971,2038
21,-1.0679,-0.4495,-0.6248,-0.2242,-0.3639,-0.9388,2017
21,-1.0322,-0.4722,-0.5557,-0.1815,-0.3281,-0.773,2160
21,-0.9692,-0.4482,-0.4673,-0.1268,-0.224,-0.5815,1982
21,-0.9121,-0.4319,-0.5439,-0.1531,-0.2266,-0.3848,1869
21,-0.8499,-0.4021,-0.6836,-0.1214,-0.2968,-0.2631,1989
21,-0.8171,-0.3718,-0.8008,-0.2225,-0.3027,-0.1875,2074
21,-0.782,-0.2664,-0.7717,-0.0629,-0.3685,-0.1848,2029
21,-0.8386,-0.4534,-0.8176,-0.0629,-0.3043,-0.0415,2184
21,-0.8276,-0.4802,-0.7595,-0.0081,-0.0976,0.0963,2016
21,-0.8538,-0.4705,-0.6499,0.0341,0.1575,0.2373,2113
21,-0.8494,-0.4187,-0.5535,0.1051,0.4204,0.3807,1964
21,-0.7251,-0.406,-0.4917,0.1798,0.5296,0.4617,2163
21,-0.6643,-0.3826,-0.4402,0.2796,0.5032,0.5437,1905
21,-0.6763,-0.3313,-0.4265,0.3461,0.4739,0.6227,2169
21,-0.6865,-0.2014,-0.4097,0.4105,0.4546,0.6683,2062
21,-0.7195,-0.0266,-0.3694,0.4655,0.4514,0.6897,2193
21,-0.6445,0.1318,-0.2993,0.5006,0.4303,0.6633,2071
21,-0.5654,0.1416,-0.2134,0.5512,0.3557,0.5841,1864
21,-0.4946,-0.0376,-0.2168,0.4778,0.2212,0.4432,2104
