Timestamp,Ax,Ay,Az,Rx,Ry,Rz,EMG
0,0.8528,-1.3064,-0.0703,0.1956,0.903,2.5313,1880
0,1.1365,-1.449,0.0029,0.0605,0.8356,2.7899,1961
0,0.9399,-1.3757,0.0471,0.2675,0.2858,3.0577,1884
0,0.3525,-1.2612,-0.0264,0.5703,-0.3394,3.3611,2219
0,-0.6946,-1.2671,0.0349,1.0278,-0.1172,3.4195,2237
0,-1.0457,-1.8286,0.1936,1.3247,0.6947,3.155,2312
0,-1.4722,-1.4668,0.4263,1.4611,1.5217,3.1652,1971
0,-1.1523,-1.5308,0.741,1.6217,1.7671,2.7926,1755
0,-0.9219,-1.2627,0.4763,1.4553,3.2489,2.5719,1798
0,-1.0874,-1.1738,0.5039,1.6796,4.2026,2.006,2058
0,-0.9397,-1.4592,0.5486,1.8112,4.3634,1.709,2223
0,-0.9475,-1.3743,0.4265,1.9156,4.3634,1.5135,2236
0,-0.8679,-1.0806,0.2292,2.6237,4.3634,1.4736,2035
0,-0.4553,-0.9929,0.2158,2.8,4.3634,1.6149,1869
0,-0.8391,-0.9482,0.1841,3.0002,4.3634,2.0872,1902
0,-1.6003,-1.3169,0.26,3.5551,4.3634,2.2461,1995
0,-1.5049,-1.4902,0.2981,3.0502,4.3634,2.3579,2263
0,-1.2261,-1.1167,0.4324,3.165,4.3634,1.9711,1970
0,-0.6631,-1.0403,0.3701,3.1424,4.3634,1.5434,2103
0,0.7258,-1.2498,0.2485,2.6372,4.3634,1.7329,2020
0,0.0278,-1.446,-0.3379,1.8856,4.3634,1.2885,1583
0,0.3621,-1.3528,-0.4661,1.4456,4.3634,1.1826,2750
0,0.7151,-1.0095,-0.1819,1.8524,4.3634,1.5375,2885
0,0.7729,-0.6355,-0.2612,1.9715,4.3634,1.8543,1955
0,0.6755,-0.6448,-0.5552,1.956,4.3634,1.9703,1370
0,0.5474,-0.7725,-0.8538,1.9124,4.3634,1.9415,2116
0,0.3665,-0.5293,-1.0017,2.2077,4.0819,1.9674,2378
0,0.032,-0.1738,-1.0032,2.4948,3.6957,1.9301,2644
0,0.2883,-0.3362,-0.8071,2.6896,2.7739,1.6345,2319
0,0.1711,-0.3447,-0.644,2.612,2.0758,1.3659,1905
0,-0.0779,-0.0974,-0.5754,2.5927,1.7357,0.958,1685
0,-0.3071,0.04,-0.4246,2.527,1.3876,0.5923,2095
0,-0.2537,-0.1721,-0.3364,2.599,1.0286,0.2521,2177
0,-0.4746,0.0828,-0.4211,2.7743,1.2822,0.012,2234
0,-0.3635,-0.0925,-0.1978,2.8056,1.3663,-0.5,1781
0,-0.3245,-0.0303,-0.1396,2.7774,1.5412,-0.8255,1751
0,-0.3018,-0.0789,-0.1587,2.7244,1.6968,-1.1786,1764
0,-0.2031,-0.0229,-0.0774,2.8264,1.6616,-1.4065,2048
0,-0.2659,-0.0896,-0.2114,2.7352,2.1619,-1.7628,2075
0,-0.3831,-0.0479,-0.0454,2.8426,2.3601,-2.0108,2167
0,-0.4297,-0.1372,0.0276,2.9203,2.6726,-2.2589,1967
0,-0.3042,-0.1089,0.0334,2.9688,2.947,-2.5862,1983
0,-0.127,0.0386,-0.0383,3.0233,2.9609,-2.8152,1967
0,-0.1755,-0.1694,-0.0242,3.0168,2.9725,-3.0132,2018
0,0.0029,-0.1658,-0.0383,3.0821,2.8151,-3.1702,2136
0,-0.0791,-0.2307,-0.0364,3.1119,2.6277,-3.3101,2116
0,-0.094,-0.2576,-0.0537,3.1501,2.5923,-3.4199,2122
0,-0.0103,-0.2354,-0.0508,3.2503,2.4675,-3.5697,2167
0,-0.1216,-0.1392,0.032,3.2879,2.2539,-3.6283,1924
0,-0.3296,-0.3591,-0.041,3.3023,2.4506,-3.7475,2009
0,-0.5515,-0.4341,-0.0867,3.3895,2.9726,-3.7312,2034
0,-0.7769,-0.4834,0.0203,3.5386,3.1752,-3.6134,2142
0,-0.8733,-0.4954,0.1692,3.4853,3.1886,-3.6455,1843
0,-0.8447,-0.533,0.1394,3.291,2.9395,-3.7697,2174
0,-0.8354,-0.3499,0.1509,3.1114,2.198,-3.5299,2053
0,-1.231,-0.5359,-0.1682,3.5018,2.4586,-3.0413,2236
0,-2.0,-2.0,-2.0,0.0529,4.0085,-4.3635,2841
0,-2.0,-2.0,0.0674,1.1748,4.3634,-2.3417,4064
0,-2.0,-2.0,1.2783,1.7283,1.5241,2.0688,431
0,0.3408,-2.0,-2.0,-3.2206,0.081,-4.3635,81
0,1.9999,-2.0,-2.0,-2.0698,4.3634,-4.3635,2230
0,1.9999,-0.7881,1.9999,1.0419,-1.7116,-1.089,4064
0,0.6572,-0.5769,1.9999,4.0888,-4.3635,0.5051,81
0,-2.0,-0.8445,0.5791,1.2195,-0.0671,-0.0518,4064
0,-1.8943,-1.3013,-0.2849,-0.2511,-0.6426,0.5522,2281
0,-1.2856,-2.0,0.1111,0.571,-0.6658,1.6687,653
0,-0.8887,-0.9998,0.7781,-1.9652,-0.9953,-1.1541,848
0,0.2441,-0.5564,-0.124,-2.3792,0.1156,-2.6426,2074
0,0.9102,-0.9861,-0.2119,-0.8811,0.2107,-1.4941,2560
0,0.4258,-1.323,-0.1121,-0.6952,-0.3537,-0.3808,1810
0,0.4131,-0.9172,-0.2754,-0.5412,-0.3131,-0.3466,1810
0,0.4053,-1.0437,-0.2007,-0.6359,0.2372,-0.4213,1869
0,0.4807,-0.866,-0.4919,-0.1578,0.7895,0.0361,2312
0,0.4116,-0.865,-0.2778,0.1045,0.5771,0.1266,2238
0,0.2793,-1.0532,-0.1335,0.0407,0.4871,0.0537,2153
0,-0.0002,-1.0474,0.1187,-0.0265,0.2816,0.0542,2144
0,-0.0874,-0.9199,0.1909,-0.0625,0.339,-0.0229,2125
0,-0.0132,-0.9861,0.291,-0.0814,0.567,-0.0808,1809
0,0.115,-1.1016,0.3286,-0.186,0.8207,0.0699,1892
0,0.1074,-1.0469,0.3174,-0.2838,0.9415,0.1348,1962
0,0.0549,-0.999,0.2214,-0.4397,1.2592,0.1514,1890
0,0.2188,-1.0061,0.1113,-0.7084,1.4853,0.2441,2140
0,0.3596,-0.9753,0.1289,-0.9702,1.5368,0.2261,2032
0,0.1987,-0.9709,0.136,-0.8937,1.3398,0.1683,2130
0,-0.012,-0.9768,0.0659,-0.7324,1.1231,0.2642,2083
0,-0.0505,-1.0137,0.0139,-0.6377,0.6683,0.4056,2011
0,0.0479,-1.0208,-0.0164,-0.5968,0.5096,0.3871,1944
0,0.0637,-1.0164,0.1313,-0.6119,0.5189,0.4267,2039
0,0.1719,-1.0378,0.3037,-0.7143,0.4811,0.5891,2058
0,0.2485,-0.9478,0.2769,-0.7466,0.5871,0.7947,2113
0,0.2429,-0.8884,0.1182,-0.8487,0.5054,0.7436,2015
0,-0.0127,-1.01,0.0361,-0.9351,0.7745,0.697,2049
0,-0.0273,-1.1077,-0.0806,-0.8329,0.8328,0.8861,2131
0,-0.145,-1.1506,-0.0801,-0.6626,0.6034,0.9654,2205
0,-0.2788,-1.1167,-0.0212,-0.5593,0.0671,0.747,1967
0,-0.208,-0.9565,0.0273,-0.5237,-0.1571,0.599,1848
0,-0.0298,-0.8921,0.0396,-0.5494,-0.1751,0.5068,2020
0,0.1091,-0.99,0.0913,-0.5825,-0.2392,0.5279,2106
0,0.27,-0.9768,-0.0417,-0.4955,-0.153,0.6763,2006
0,0.2422,-0.9841,-0.1418,-0.51,0.065,0.5827,1982
0,-0.001,-0.9695,-0.1851,-0.5023,0.1763,0.647,2146
1,-0.1152,-1.0808,-0.1287,-0.3854,0.29,0.7453,2078
1,-0.1389,-1.082,-0.0701,-0.3116,0.1208,0.7502,2036
1,-0.2158,-0.8198,-0.0867,-0.2293,-0.1533,0.7297,2091
1,-0.2993,-0.7734,-0.063,-0.2183,-0.2621,0.6357,2070
1,-0.2415,-0.8901,-0.0112,-0.2212,-0.1963,0.6002,1861
1,-0.0845,-0.9561,-0.0415,-0.232,-0.0983,0.59,1790
1,0.0344,-0.9307,-0.0635,-0.2095,-0.0698,0.6063,2153
1,0.0969,-0.8887,-0.0942,-0.1645,-0.0858,0.6637,1938
1,0.1042,-0.821,-0.1387,-0.1015,-0.3922,0.9469,2051
1,-0.0879,-1.0859,-0.1418,-0.0032,-0.0142,0.8797,1832
1,-0.0969,-1.1931,-0.1045,-0.0433,0.3289,0.8906,2134
1,-0.1272,-0.8643,-0.1799,0.0206,0.5898,0.8503,2470
1,-0.0657,-0.8877,-0.1152,0.1196,0.4713,0.9765,2008
1,-0.0784,-0.8123,-0.1213,0.0839,0.4723,1.0334,2259
1,0.0281,-0.7935,-0.1233,0.1558,0.3448,0.9507,1419
1,-0.0532,-1.0266,-0.1331,0.1101,0.2812,1.1191,1992
1,-0.1211,-0.9448,-0.1042,0.11,0.3583,1.0633,2138
1,-0.1196,-0.9709,-0.0266,0.2099,0.2558,1.2635,1776
1,-0.2512,-0.9038,-0.1047,0.296,0.7182,1.2898,2219
1,-0.1582,-1.0327,-0.0715,0.2296,0.8238,1.1716,2104
1,-0.2144,-0.957,-0.0676,0.206,0.7684,1.2227,1955
1,-0.2017,-0.936,-0.043,0.2133,0.7489,1.2429,1900
1,-0.1306,-0.877,-0.0039,0.2049,0.481,1.28,2103
1,-0.2063,-0.8201,-0.0447,0.1835,0.4133,1.3103,1968
1,-0.2852,-0.9031,-0.0425,0.1651,0.3209,1.3764,2174
1,-0.3828,-1.0168,0.0159,0.1165,0.4036,1.3479,2140
1,-0.2847,-0.9458,0.072,0.1302,0.4168,1.3547,1997
1,-0.3716,-0.9524,0.0627,0.1228,0.5975,1.3027,1918
1,-0.3135,-0.998,0.1245,0.0907,0.5385,1.2505,2266
1,-0.2656,-0.9897,0.157,-0.0065,0.3738,1.2447,1842
1,-0.2771,-0.8689,0.0688,-0.0328,0.3036,1.2524,1879
1,-0.3877,-0.8176,-0.0251,-0.0541,0.2803,1.2667,1924
1,-0.397,-0.8745,0.0315,-0.0435,0.1519,1.3033,1975
1,-0.4285,-0.8577,0.0825,-0.0471,0.0641,1.3592,1990
1,-0.4136,-0.8867,0.1028,-0.0433,0.078,1.3732,1989
1,-0.4741,-1.0127,0.1211,-0.0374,-0.0073,1.3491,2195
1,-0.4565,-0.8008,-0.0178,-0.0641,0.0708,1.3454,2022
1,-0.5288,-0.9041,-0.1272,-0.0266,0.0264,1.3224,2027
1,-0.4663,-0.9619,-0.064,0.0694,0.0525,1.2403,2082
1,-0.373,-0.781,-0.1321,0.0116,-0.0758,1.2202,2056
1,-0.4233,-0.8801,-0.1125,0.1432,-0.0647,1.186,2053
1,-0.7317,-0.6213,-0.1843,0.1695,0.1912,1.2284,1885
1,-0.4717,-1.0439,-0.0754,0.1483,-0.269,1.3769,1962
1,-0.6677,-0.4724,0.0525,0.3831,-0.1879,1.3976,1932
1,-0.6885,-0.865,-0.0027,0.3634,-0.1699,1.4315,1888
1,-0.6294,-0.7822,0.0027,0.4522,-0.1152,1.4198,2030
1,-0.5356,-1.0276,0.1045,0.4117,-0.0465,1.331,2178
1,-0.6292,-0.5613,-0.0461,0.3642,0.1265,1.2299,2209
1,-0.614,-0.9512,-0.0034,0.4204,0.2037,1.219,2188
1,-0.6731,-0.6331,0.0603,0.4634,0.3646,1.1395,2068
1,-0.7056,-0.8054,0.0056,0.6269,0.1483,1.1114,2063
1,-0.761,-0.6128,-0.0562,0.5734,0.1653,1.1119,2039
1,-0.6892,-0.6287,0.1184,0.6203,0.0653,1.0849,2077
1,-0.7368,-0.7571,0.0408,0.5088,-0.018,0.9725,2057
1,-0.5706,-1.1257,0.0422,0.3836,-0.259,0.9278,2146
1,-0.6606,-0.5222,0.0134,0.5568,-0.0694,0.8207,2086
1,-0.491,-1.3923,0.2371,0.3705,-0.1782,0.7981,2093
1,-0.5962,-0.7844,-0.0576,0.5359,-0.1071,0.6648,2038
1,-0.7498,-0.7183,-0.0151,0.5938,-0.0695,0.6015,2079
1,-0.709,-0.5461,0.1577,0.5912,-0.1602,0.5809,1768
1,-0.7776,-0.5557,0.0635,0.5734,-0.1619,0.4417,1855
1,-0.7974,-0.9878,0.2102,0.4751,-0.2127,0.3072,1892
1,-0.7739,-0.7661,0.0442,0.5389,-0.194,0.1649,1977
1,-0.7668,-0.9197,0.1189,0.4908,-0.2095,0.0398,1917
1,-0.8232,-0.7009,0.1069,0.5514,-0.1934,-0.0613,2154
1,-0.8003,-0.7102,0.2498,0.5609,-0.1607,-0.1934,2123
1,-0.7971,-0.8962,0.1968,0.349,-0.1156,-0.3911,2162
1,-0.8105,-0.6831,0.2285,0.4055,-0.0513,-0.4586,1950
1,-1.0015,-0.6846,0.2893,0.3268,0.0844,-0.6695,2081
1,-0.9365,-0.8359,0.3684,0.1954,0.1346,-0.803,2020
1,-0.8296,-0.679,0.3684,0.1539,0.2517,-0.9096,1977
1,-0.7351,-0.678,0.3555,0.112,0.3257,-1.001,2023
1,-0.7744,-0.6184,0.3835,-0.0433,0.3868,-1.0561,2068
1,-0.7483,-0.6108,0.4236,-0.1172,0.3585,-1.0457,1998
1,-0.7288,-0.6045,0.4126,-0.1791,0.3984,-1.0768,2109
1,-0.7415,-0.6279,0.3899,-0.2593,0.4095,-1.1118,2002
1,-0.7383,-0.6768,0.342,-0.3397,0.4794,-1.1473,2090
1,-0.6897,-0.7375,0.321,-0.441,0.553,-1.2061,1858
1,-0.6333,-0.7844,0.3088,-0.5589,0.5935,-1.2671,2124
1,-0.5842,-0.8086,0.282,-0.6454,0.6015,-1.3086,1956
1,-0.5532,-0.8018,0.2544,-0.7279,0.6168,-1.3415,1954
1,-0.5554,-0.8032,0.2214,-0.8018,0.6356,-1.3576,2125
1,-0.5183,-0.7947,0.1807,-0.8681,0.696,-1.3924,2032
1,-0.4585,-0.7756,0.1624,-0.9242,0.7248,-1.3948,2047
1,-0.4285,-0.7957,0.1602,-0.9849,0.7244,-1.3659,2200
1,-0.4038,-0.7932,0.1729,-0.9966,0.7038,-1.307,2089
1,-0.363,-0.8267,0.1775,-0.9983,0.6713,-1.264,2122
1,-0.354,-0.8638,0.1367,-1.0041,0.6248,-1.1872,1894
1,-0.3857,-0.8835,0.0593,-1.0065,0.6199,-1.1484,2079
1,-0.3877,-0.9153,-0.0078,-1.0051,0.6391,-1.137,2176
1,-0.4026,-0.8652,-0.04,-0.9911,0.6537,-1.1276,2091
1,-0.3977,-0.8477,-0.0481,-0.9756,0.679,-1.122,2123
1,-0.386,-0.8313,-0.0315,-0.9576,0.6999,-1.0903,2182
1,-0.3713,-0.8079,-0.0061,-0.9325,0.7038,-1.0501,2005
1,-0.3782,-0.8027,-0.022,-0.9036,0.6994,-0.9878,2221
1,-0.3335,-0.8645,-0.04,-0.8736,0.6785,-0.9279,2058
1,-0.2598,-0.9397,-0.0752,-0.8809,0.6506,-0.8878,2152
1,-0.2373,-0.8999,-0.0996,-0.8957,0.6183,-0.9034,2034
1,-0.2141,-0.9209,-0.1282,-0.9123,0.5509,-0.8682,2038
1,-0.1851,-0.9656,-0.0989,-0.9341,0.4263,-0.8592,2114
1,-0.0874,-0.9756,-0.0557,-1.0128,0.2043,-0.7935,1777
1,-0.0671,-0.9006,0.012,-1.1228,0.0096,-0.6411,2103
1,-0.1575,-0.8809,0.0195,-1.1332,-0.2386,-0.4144,2133
1,-0.3191,-0.8552,-0.0068,-1.0998,-0.4167,-0.2541,1908
2,-0.4575,-0.8674,-0.1296,-1.0424,-0.4675,-0.2204,2133
2,-0.4524,-0.9155,-0.2837,-0.9744,-0.384,-0.2597,1947
2,-0.3652,-0.9666,-0.394,-0.8902,-0.2795,-0.3294,2033
2,-0.2878,-0.9744,-0.4155,-0.8199,-0.1758,-0.4117,1971
2,-0.2625,-0.9417,-0.396,-0.7416,-0.1559,-0.4721,2124
2,-0.2959,-0.9258,-0.3406,-0.6711,-0.1278,-0.4848,2139
2,-0.2976,-0.876,-0.2949,-0.5959,-0.0664,-0.4793,2085
2,-0.2915,-0.8684,-0.2581,-0.5241,-0.0437,-0.4213,1991
2,-0.2131,-0.8647,-0.3096,-0.4532,-0.0649,-0.3645,2104
2,-0.1841,-0.8945,-0.3086,-0.4179,-0.032,-0.2999,1853
2,-0.196,-0.9014,-0.3093,-0.3674,-0.0144,-0.2718,2054
2,-0.2085,-0.8923,-0.3152,-0.3197,-0.0208,-0.2129,1965
2,-0.2285,-0.915,-0.3025,-0.2707,0.0027,-0.1591,2109
2,-0.2349,-0.8928,-0.3154,-0.2161,0.0399,-0.133,2022
2,-0.2229,-0.9241,-0.312,-0.1968,0.0687,-0.0949,2109
2,-0.2356,-0.9307,-0.2927,-0.1238,0.0704,-0.0795,1954
2,-0.2434,-0.9292,-0.2788,-0.0951,0.1035,-0.08,2080
2,-0.2695,-0.937,-0.2737,-0.0487,0.1181,-0.0904,2007
2,-0.2681,-0.9397,-0.217,-0.018,0.1539,-0.108,1950
2,-0.2983,-0.9907,-0.2566,-0.1198,0.1839,-0.2286,1959
2,-0.3389,-1.0212,-0.2317,0.0242,0.1242,-0.2294,1937
2,-0.363,-1.021,-0.218,0.0216,0.1575,-0.3232,1933
2,-0.3938,-1.0176,-0.1948,0.0626,0.1406,-0.4307,2026
2,-0.3457,-1.0137,-0.1917,0.068,0.1487,-0.5169,1994
2,-0.3206,-0.9949,-0.1919,0.0422,0.1577,-0.6106,1993
2,-0.3184,-1.0029,-0.1841,0.0872,0.1129,-0.613,2130
2,-0.29,-0.9883,-0.1697,0.1101,0.0972,-0.6429,2111
2,-0.2798,-1.0347,-0.165,0.055,0.0398,-0.6783,2046
2,-0.2957,-1.0405,-0.1514,0.0743,0.0506,-0.6879,2129
2,-0.2246,-1.0742,-0.1272,0.0305,0.0771,-0.7088,2192
2,-0.2686,-1.1316,-0.1882,0.0712,0.0184,-0.7328,2035
2,-0.2227,-1.2095,-0.2351,0.1253,0.1029,-0.789,1949
2,-0.1736,-1.2048,-0.2468,0.0972,0.1272,-0.9842,1995
2,-0.1904,-1.179,-0.2834,0.0848,0.155,-1.1697,2011
2,-0.0488,-1.1436,-0.0935,0.2294,0.1698,-1.3472,2068
2,0.2188,-0.9309,0.2478,0.2476,0.0795,-1.8631,2259
2,0.7048,-0.9929,0.2092,-0.0438,-0.0573,-2.5983,2940
2,0.6162,-1.1865,0.123,-0.0487,0.0085,-3.1154,1137
2,0.7715,-1.0112,0.3745,-0.0658,-0.1609,-3.5695,1638
2,0.9888,-0.9092,0.3188,-0.0565,-0.343,-3.8933,1690
2,1.0837,-0.6465,0.4915,-0.3209,-0.4465,-4.3635,1912
2,1.262,-0.6406,0.1731,-0.7734,-0.3264,-4.3635,2053
2,0.7922,-0.9187,-0.4873,-1.2275,0.5616,-4.3635,80
2,0.5972,-0.8037,-0.4792,-1.2067,0.969,-4.3635,3309
2,0.9358,-0.3582,-0.0703,-0.5813,0.4172,-4.3635,3245
2,1.0483,-0.5063,-0.3374,-1.0856,0.2254,-4.3635,2520
2,1.0596,-0.9285,-0.624,-2.2188,0.6502,-4.3635,2314
2,1.0962,-0.8291,-0.9729,-1.8266,0.6261,-4.3635,2411
2,1.0063,-0.6506,-0.4358,-1.5291,-0.0461,-4.3635,2538
2,0.8208,-0.6416,-0.1865,-1.1371,-0.4888,-4.3635,2288
2,0.6746,-0.7595,-0.1245,-0.5207,-1.0282,-4.0439,1560
2,0.3831,-0.7954,-0.0864,0.0281,-1.4937,-3.4399,2023
2,0.0579,-0.7476,-0.0464,0.5926,-1.4912,-2.7207,2264
2,-0.1711,-0.5825,0.0369,1.2159,-0.769,-2.086,2336
2,-0.4338,-0.5679,0.2122,1.5396,0.0011,-1.5567,2193
2,-0.5732,-0.5774,0.293,1.8133,0.6654,-1.1347,2083
2,-0.5759,-0.7139,0.3267,1.9947,1.2769,-0.9887,1979
2,-0.5371,-0.876,0.2783,2.1555,1.8768,-0.8842,2028
2,-0.4507,-1.0681,0.1941,2.2168,2.3361,-0.7838,1828
2,-0.259,-1.0303,0.1592,2.2659,2.3274,-0.7441,2150
2,-0.3118,-0.7537,-0.0103,2.172,2.614,-0.2096,2386
2,-0.6816,-0.9221,-0.1204,2.1799,3.0817,-0.0884,1868
2,-0.6829,-1.0217,-0.3213,2.4527,4.2382,0.1501,2328
2,-0.3984,-1.3452,-0.0435,2.3081,4.3634,0.3699,2717
2,-0.1072,-1.2988,0.1418,2.0798,4.3634,0.4902,2273
2,0.0688,-1.0342,0.0303,1.8896,3.8137,0.7225,1208
2,-0.0398,-0.9741,-0.0342,2.0212,3.3575,1.1569,1738
2,0.0388,-1.1687,0.0229,2.0248,3.1162,1.2439,2230
2,0.3083,-1.2285,0.083,1.7989,2.781,1.4616,2357
2,0.4358,-1.1458,0.0083,1.3149,2.2318,1.6602,1957
2,0.3186,-1.0322,-0.1594,0.9662,1.931,1.8953,2184
2,0.1714,-0.9106,-0.199,0.8198,1.7892,2.1883,2151
2,0.2571,-0.949,-0.1257,0.5964,1.3834,2.4059,2077
2,0.2214,-0.8694,-0.1506,0.2401,0.9368,2.5241,2063
2,0.0522,-0.7112,-0.1804,-0.0558,0.6359,2.5931,2090
2,-0.0039,-0.5742,-0.1133,-0.2111,0.4292,2.6462,2172
2,-0.0632,-0.5627,-0.0051,-0.3385,0.2709,2.598,2119
2,-0.0613,-0.5593,0.0564,-0.4645,0.2864,2.4883,1988
2,0.0647,-0.4849,0.0667,-0.5899,0.1872,2.4309,1927
2,0.0024,-0.4363,-0.0076,-0.7632,0.1109,2.3783,2096
2,-0.1611,-0.4116,-0.1145,-1.0701,0.5674,2.1614,1963
2,-0.3569,-0.6624,-0.5876,-0.3231,1.187,2.1228,2753
2,0.3955,-0.8462,0.6555,-0.2807,1.0646,2.8193,1504
2,0.8467,-0.3586,1.9999,-0.4233,-0.9774,2.804,1267
2,1.9999,0.1782,1.9999,-3.8269,-4.3635,-4.3635,73
2,1.9999,-2.0,-0.6707,-4.3635,3.486,-4.3635,77
2,-1.4565,-2.0,-2.0,-0.4769,4.3634,4.3634,4064
2,-2.0,-2.0,1.9999,4.3634,3.5778,1.6339,4064
2,0.1753,0.4731,1.9999,2.9887,-3.6765,4.3634,72
2,0.2642,0.7668,-1.0762,-1.8656,-2.3382,1.5386,3176
2,1.4919,0.3174,-0.8882,-0.5585,-2.7755,-1.5873,2568
2,0.5586,0.2241,0.5125,-1.9225,-0.7019,-0.0658,2170
2,0.1426,-0.1226,0.509,-1.752,1.1342,-0.7484,1785
2,0.1008,-0.6743,0.7991,-0.7917,0.5225,-0.7122,1831
2,0.1116,-0.9661,0.4883,-0.3184,-0.4185,-0.0975,1861
2,-0.1533,-1.7341,0.0935,-0.634,0.0932,-0.1766,1984
2,-0.3323,-1.9526,-0.6475,-0.4235,1.7648,0.3707,2017
2,-0.0227,-1.4382,-0.1121,0.8393,1.5752,0.2426,2617
2,0.1868,-0.7717,0.3086,0.6726,0.6147,0.405,2185
2,0.6963,-0.531,0.407,0.0722,-0.2171,-0.159,1660
2,0.5171,-0.6455,0.2937,-0.5429,-0.5249,-0.3832,1726
3,0.137,-0.9526,0.2798,-0.5697,-0.281,-0.369,1897
3,0.1465,-1.0503,0.3259,-0.3385,-0.0037,-0.1775,2154
3,0.1646,-0.9355,0.2925,-0.2304,-0.2226,-0.0637,2187
3,0.1853,-0.7974,0.3462,-0.2137,-0.498,-0.0354,2041
3,0.2144,-0.8704,0.3979,-0.3962,-0.5942,-0.1033,2227
3,0.1616,-1.3054,0.2744,-0.5528,-0.2223,-0.102,2064
3,0.0779,-1.2991,0.2578,-0.4625,0.0454,0.1589,2378
3,0.0764,-0.8462,0.291,-0.4903,-0.2643,0.2007,2127
3,0.165,-0.7537,0.2593,-0.643,-0.4976,-0.0819,1994
3,0.2874,-0.8862,0.1494,-0.7898,-0.3514,-0.1835,1753
3,0.3376,-0.9429,0.083,-0.7634,0.0933,-0.125,1972
3,0.3149,-0.8999,0.0139,-0.6349,0.3559,-0.0718,2002
3,0.2656,-0.9175,0.0271,-0.4847,0.2807,-0.0658,2131
3,0.1953,-0.9749,0.1055,-0.3713,0.1178,-0.0811,2068
3,0.2002,-1.0247,0.1328,-0.3615,-0.0419,0.075,2065
3,0.1475,-1.0212,0.177,-0.3083,-0.1958,0.0767,2066
3,0.1614,-0.949,0.1785,-0.2511,-0.3558,0.1324,2143
3,0.1736,-0.916,0.1609,-0.2181,-0.3987,0.0984,2103
3,0.1809,-0.9243,0.1384,-0.2035,-0.3686,0.0478,2037
3,0.1636,-0.9521,0.124,-0.2124,-0.2812,-0.0169,1992
3,0.1648,-0.9514,0.1133,-0.2073,-0.2044,-0.0333,2113
3,0.1716,-0.9663,0.1133,-0.1827,-0.1465,-0.0469,1931
3,0.1851,-0.9587,0.1208,-0.1549,-0.0949,-0.0393,2050
3,0.1782,-0.9585,0.1179,-0.1285,-0.0834,-0.0366,1941
3,0.1917,-0.9646,0.127,-0.0923,-0.078,-0.025,2107
3,0.2039,-0.9658,0.1289,-0.0587,-0.0794,-0.0124,2109
3,0.2144,-0.9688,0.124,-0.0399,-0.0618,-0.0079,2079
3,0.2358,-0.9512,0.1255,-0.0365,-0.0317,-0.0005,2046
3,0.2271,-0.9451,0.1348,-0.0124,0.0075,0.0052,2027
3,0.2434,-0.9521,0.1184,-0.0068,0.0277,0.0486,2034
3,0.229,-0.9446,0.1174,0.0105,0.0423,0.0637,2016
3,0.2109,-0.9448,0.1257,0.0381,0.0575,0.0738,2057
3,0.2073,-0.9617,0.146,0.0639,0.0824,0.0931,2043
3,0.2112,-0.9631,0.156,0.0642,0.1031,0.1136,1968
3,0.2,-0.9622,0.1665,0.0671,0.1109,0.118,2126
3,0.199,-0.969,0.167,0.0637,0.1252,0.1257,2015
3,0.187,-0.9609,0.1689,0.0647,0.132,0.135,2030
3,0.1765,-0.9524,0.1721,0.0557,0.1269,0.1292,2058
3,0.1694,-0.95,0.1841,0.0539,0.1273,0.1308,2072
3,0.1628,-0.9595,0.1882,0.0438,0.1141,0.1164,2022
3,0.1621,-0.96,0.1848,0.0362,0.1069,0.1035,2051
3,0.1719,-0.9639,0.1877,0.0266,0.0949,0.087,2040
3,0.167,-0.9612,0.2039,0.0254,0.079,0.0776,2037
3,0.1677,-0.9592,0.2036,0.0198,0.0662,0.0696,2128
3,0.166,-0.9634,0.1936,0.0097,0.0676,0.0639,2009
3,0.1689,-0.9502,0.1809,0.0108,0.0732,0.0513,1984
3,0.1638,-0.9563,0.1853,0.0025,0.0658,0.0364,2023
3,0.1685,-0.9597,0.1814,0.0007,0.0533,0.0286,2072
3,0.1663,-0.9617,0.2039,0.002,0.026,0.0197,2063
3,0.1633,-0.9561,0.2244,-0.0047,0.0166,0.0141,2036
3,0.1609,-0.9736,0.2241,-0.0156,-0.0037,0.0084,2028
3,0.1606,-0.9624,0.2271,-0.0348,-0.0218,-0.0081,2064
3,0.1582,-0.9558,0.2244,-0.0594,-0.0334,-0.0256,2237
3,0.1667,-0.9624,0.2224,-0.0808,-0.0409,-0.0421,1973
3,0.1726,-0.9561,0.2297,-0.0951,-0.0433,-0.0523,2158
3,0.168,-0.9651,0.2224,-0.1131,-0.0414,-0.0591,2099
3,0.1716,-0.9673,0.2124,-0.131,-0.0409,-0.0674,1927
3,0.1794,-0.9602,0.21,-0.1392,-0.0466,-0.0771,2125
3,0.1814,-0.9546,0.2078,-0.145,-0.0546,-0.0795,2050
3,0.1919,-0.9641,0.1907,-0.1569,-0.0513,-0.0796,2159
3,0.189,-0.9546,0.1946,-0.1509,-0.0629,-0.0787,1943
3,0.188,-0.9539,0.1877,-0.1482,-0.0722,-0.0775,2072
3,0.186,-0.958,0.1848,-0.1394,-0.085,-0.0774,2046
3,0.1914,-0.9558,0.197,-0.1332,-0.0882,-0.0799,1998
3,0.1904,-0.9539,0.1926,-0.1302,-0.0917,-0.0738,2118
3,0.1855,-0.9541,0.1934,-0.1254,-0.0977,-0.0735,1990
3,0.188,-0.959,0.1931,-0.1317,-0.1003,-0.0842,2138
3,0.1841,-0.9675,0.1858,-0.1264,-0.0818,-0.088,2001
3,0.199,-0.9749,0.1868,-0.1232,-0.0723,-0.0936,2105
3,0.1924,-0.9666,0.1697,-0.12,-0.0566,-0.0891,2024
3,0.1968,-0.967,0.1633,-0.1071,-0.0413,-0.0855,2139
3,0.207,-0.9636,0.1638,-0.0792,-0.035,-0.0811,1948
3,0.2163,-0.9565,0.1526,-0.0515,-0.0245,-0.0723,1965
3,0.2107,-0.948,0.1536,-0.029,-0.006,-0.0594,2037
3,0.2178,-0.9473,0.1433,0.0005,0.0095,-0.0482,2015
3,0.2283,-0.9458,0.1609,0.037,0.0096,-0.0437,2007
3,0.2163,-0.9521,0.1633,0.0672,0.027,-0.0266,2111
3,0.2073,-0.8899,0.1838,0.0459,0.0894,0.0302,2123
3,0.2034,-0.9082,0.1914,-0.0354,0.0896,0.0174,2095
3,0.2073,-0.991,0.23,-0.0442,0.0344,0.0017,1983
3,0.2036,-0.9766,0.2698,-0.0109,0.0364,0.0205,1992
3,0.1687,-0.9524,0.2703,-0.0511,0.0606,0.0297,2051
3,0.1631,-0.9712,0.2546,-0.0847,0.0442,0.0095,2297
3,0.1538,-0.9617,0.2458,-0.1103,-0.0019,-0.0289,2002
3,0.1731,-0.9749,0.2415,-0.1534,-0.0216,-0.0662,2078
3,0.1885,-0.9631,0.2395,-0.1828,-0.0234,-0.0762,2045
3,0.1841,-0.9446,0.2292,-0.2095,-0.0478,-0.0968,2032
3,0.1919,-0.957,0.2329,-0.2144,-0.0744,-0.1115,2000
3,0.1965,-0.9575,0.2354,-0.2169,-0.0984,-0.1198,2070
3,0.1975,-0.949,0.2405,-0.2436,-0.1121,-0.1173,1980
3,0.2065,-0.9517,0.2332,-0.2779,-0.1349,-0.1184,2056
3,0.2029,-0.9058,0.2385,-0.3221,-0.1337,-0.0919,2056
3,0.2185,-0.9326,0.2515,-0.4183,-0.1497,-0.1165,2040
3,0.219,-0.9941,0.2529,-0.4615,-0.1615,-0.1248,2046
3,0.2029,-0.988,0.2671,-0.4549,-0.167,-0.1141,2116
3,0.188,-0.969,0.2529,-0.4661,-0.2104,-0.1198,2045
3,0.1882,-0.9573,0.2327,-0.4695,-0.2533,-0.1462,2081
3,0.1863,-0.9644,0.1965,-0.4906,-0.2486,-0.1498,2004
3,0.1875,-0.9585,0.1748,-0.4986,-0.2273,-0.155,2132
3,0.1682,-0.9382,0.1638,-0.4839,-0.1748,-0.1626,1979
3,0.2095,-0.9866,0.1606,-0.4657,-0.143,-0.1723,2007
3,0.2253,-0.9563,0.1201,-0.4565,-0.1884,-0.1687,2125
4,0.2429,-0.9641,0.104,-0.4485,-0.2151,-0.1724,2058
4,0.2471,-0.9451,0.1016,-0.4305,-0.2422,-0.1617,1980
4,0.2666,-0.9519,0.1084,-0.3998,-0.2695,-0.1446,1990
4,0.2556,-0.9443,0.0945,-0.3622,-0.243,-0.127,2051
4,0.2561,-0.9412,0.0908,-0.3228,-0.208,-0.0983,2045
4,0.2363,-0.9512,0.0957,-0.2796,-0.1674,-0.0832,2051
4,0.2517,-0.9551,0.1006,-0.2523,-0.1598,-0.0639,2018
4,0.2495,-0.9473,0.0955,-0.2334,-0.1634,-0.0543,2115
4,0.2332,-0.95,0.0862,-0.2191,-0.124,-0.0538,2082
4,0.2288,-0.9434,0.0952,-0.1975,-0.0871,-0.0494,2058
4,0.2256,-0.9504,0.0862,-0.1839,-0.0614,-0.0459,2000
4,0.2346,-0.9458,0.0916,-0.1595,-0.0415,-0.0475,1989
4,0.2463,-0.9529,0.0977,-0.1366,-0.0181,-0.0406,2040
4,0.2537,-0.949,0.0928,-0.122,-0.0012,-0.0329,2033
4,0.2642,-0.9521,0.0942,-0.1049,0.0156,-0.0158,1969
4,0.26,-0.9463,0.0986,-0.0842,0.0305,-0.0076,2042
4,0.2512,-0.9521,0.113,-0.0667,0.0465,0.0092,2004
4,0.2507,-0.9558,0.1238,-0.0529,0.0611,0.0237,2021
4,0.2407,-0.9568,0.1216,-0.0441,0.0711,0.0357,2039
4,0.2388,-0.9607,0.135,-0.0429,0.0783,0.0449,2056
4,0.2297,-0.9563,0.1345,-0.0483,0.0779,0.0441,2063
4,0.2258,-0.9604,0.1389,-0.0559,0.0768,0.0366,2064
4,0.2234,-0.9573,0.146,-0.0602,0.0772,0.0277,2054
4,0.2153,-0.9575,0.1426,-0.0706,0.0775,0.0166,2001
4,0.2156,-0.9622,0.1445,-0.0779,0.0746,0.0089,1969
4,0.2197,-0.9622,0.1448,-0.0838,0.0631,0.0032,2066
4,0.2249,-0.9639,0.1482,-0.0883,0.0589,0.0009,2047
4,0.2275,-0.9597,0.135,-0.0907,0.0557,0.0008,2136
4,0.2263,-0.9626,0.1411,-0.0891,0.0445,0.0008,2102
4,0.2354,-0.9609,0.1399,-0.094,0.0362,0.0015,2094
4,0.2344,-0.9609,0.1445,-0.0961,0.0324,0.0004,1992
4,0.2329,-0.9587,0.1462,-0.0985,0.0288,-0.0001,2050
4,0.2312,-0.9609,0.1409,-0.1061,0.0266,-0.0037,2036
4,0.2239,-0.9661,0.1519,-0.112,0.0173,-0.0116,2077
4,0.2192,-0.9646,0.1519,-0.1216,0.0105,-0.0101,1956
4,0.229,-0.9619,0.1528,-0.1298,0.0025,-0.0138,2101
4,0.228,-0.9573,0.1565,-0.138,-0.0024,-0.0177,2004
4,0.2383,-0.9521,0.1482,-0.1467,0.0019,-0.0189,2042
4,0.23,-0.9539,0.1423,-0.1493,0.0103,-0.019,2044
4,0.2334,-0.9644,0.1382,-0.1449,0.0055,-0.0124,2081
4,0.2273,-0.9548,0.1387,-0.1473,-0.0028,-0.0113,1975
4,0.2249,-0.9531,0.1445,-0.1445,-0.0077,-0.0121,2057
4,0.2278,-0.9553,0.1321,-0.1446,-0.0109,-0.0165,2038
4,0.2261,-0.9563,0.1252,-0.1474,-0.0053,-0.0221,2079
4,0.2236,-0.9619,0.1304,-0.1433,-0.0065,-0.026,1936
4,0.231,-0.9573,0.1279,-0.1392,-0.0093,-0.0272,2070
4,0.2368,-0.9556,0.1301,-0.1329,-0.0089,-0.027,2025
4,0.2334,-0.9541,0.1323,-0.1292,-0.0007,-0.0261,2004
4,0.2388,-0.9619,0.1292,-0.1294,0.0021,-0.018,2019
4,0.2363,-0.9551,0.1313,-0.1258,0.0056,-0.0129,2055
4,0.2375,-0.9563,0.1392,-0.1248,0.0036,-0.0156,2062
4,0.2366,-0.9561,0.1404,-0.1245,0.0024,-0.0134,2151
4,0.2363,-0.949,0.134,-0.1248,0.0,-0.0113,2009
4,0.2334,-0.957,0.147,-0.126,0.0064,-0.0166,2129
4,0.2322,-0.9553,0.1389,-0.1296,0.0005,-0.015,2025
4,0.2339,-0.9558,0.1445,-0.1304,0.0041,-0.0149,2010
4,0.2339,-0.9539,0.1389,-0.1314,0.0007,-0.0161,2019
4,0.2332,-0.9622,0.1384,-0.1318,0.0029,-0.0192,2086
4,0.2285,-0.9624,0.1404,-0.137,-0.0004,-0.0192,2010
4,0.2327,-0.9636,0.1345,-0.1337,0.0047,-0.0213,2077
4,0.2327,-0.9485,0.1362,-0.135,0.0057,-0.0216,2036
4,0.2397,-0.957,0.1331,-0.134,0.0008,-0.0181,1981
4,0.2346,-0.9602,0.1379,-0.1321,-0.0009,-0.0206,2052
4,0.2356,-0.9634,0.1343,-0.1364,-0.0007,-0.0204,2037
4,0.2375,-0.9514,0.1355,-0.137,-0.0005,-0.0176,2008
4,0.2368,-0.9561,0.1377,-0.1326,0.0021,-0.0182,2010
4,0.2383,-0.9663,0.1289,-0.1337,0.0001,-0.0173,2074
4,0.239,-0.9602,0.134,-0.1332,0.0087,-0.019,2019
4,0.2314,-0.9614,0.1318,-0.1324,0.0104,-0.0212,2035
4,0.238,-0.967,0.1294,-0.1345,0.0051,-0.0154,1998
4,0.2407,-0.957,0.1401,-0.1342,0.0019,-0.023,2028
4,0.2356,-0.9702,0.1392,-0.1385,0.0008,-0.0248,2039
4,0.2422,-0.9553,0.1265,-0.1447,0.0072,-0.018,2047
4,0.24,-0.9561,0.1201,-0.1408,0.0097,-0.0221,2141
4,0.2307,-0.9624,0.1287,-0.1344,0.0044,-0.017,2078
4,0.2327,-0.9614,0.1282,-0.1353,0.0033,-0.0162,2017
4,0.2354,-0.9597,0.1265,-0.1317,-0.0009,-0.0165,2066
4,0.2341,-0.9614,0.1262,-0.1333,0.0043,-0.0117,2063
4,0.239,-0.9578,0.1233,-0.1342,0.0037,-0.0205,1948
4,0.2324,-0.9583,0.1228,-0.1334,-0.0001,-0.0198,2046
4,0.2339,-0.9597,0.1282,-0.133,0.0011,-0.0213,2005
4,0.2349,-0.9553,0.1277,-0.1285,0.0036,-0.0154,2039
4,0.2336,-0.9626,0.1248,-0.1254,0.0044,-0.0158,1998
4,0.2349,-0.9597,0.1311,-0.1257,0.0115,-0.0162,2056
4,0.2354,-0.9558,0.1311,-0.1264,0.0108,-0.0168,2062
4,0.2422,-0.9634,0.1204,-0.1236,0.0112,-0.0112,2042
4,0.239,-0.9602,0.1174,-0.1192,0.0095,-0.0124,2029
4,0.2397,-0.9539,0.1331,-0.1167,0.0099,-0.0108,2079
4,0.2424,-0.9592,0.1284,-0.1185,0.0123,-0.0115,2042
4,0.2378,-0.9575,0.1213,-0.119,0.0128,-0.0115,2041
4,0.2329,-0.96,0.1282,-0.1163,0.0193,-0.0108,2110
4,0.2356,-0.9626,0.1255,-0.1221,0.0178,-0.0097,2068
4,0.238,-0.9607,0.1272,-0.1168,0.0185,-0.006,2100
4,0.2351,-0.9585,0.1272,-0.1198,0.0205,-0.0061,1963
4,0.239,-0.9595,0.125,-0.1198,0.0217,-0.0087,1993
4,0.2358,-0.9622,0.1272,-0.1167,0.0188,-0.0101,2014
4,0.2366,-0.959,0.1208,-0.1149,0.0201,-0.0087,2030
4,0.2371,-0.9602,0.125,-0.1135,0.0209,-0.004,2040
4,0.2356,-0.9604,0.1294,-0.1177,0.0246,-0.0077,1998
4,0.2446,-0.96,0.1294,-0.1155,0.0213,-0.0071,1931
4,0.238,-0.9641,0.1238,-0.1186,0.02,-0.0036,2065
4,0.2354,-0.9561,0.1313,-0.1165,0.0229,-0.0091,2037
4,0.2368,-0.9612,0.134,-0.1167,0.029,-0.0068,2041
5,0.2397,-0.9619,0.1309,-0.12,0.0184,-0.01,2073
5,0.2383,-0.9541,0.1265,-0.1197,0.018,-0.0092,1986
5,0.24,-0.959,0.1377,-0.1222,0.0134,-0.0112,2049
5,0.251,-0.9556,0.1313,-0.1248,0.0157,-0.0107,2072
5,0.2432,-0.9558,0.1245,-0.125,0.02,-0.0105,2112
5,0.2393,-0.9578,0.1245,-0.1214,0.0229,-0.0053,1998
5,0.2383,-0.957,0.1279,-0.1185,0.0174,-0.0051,2056
5,0.2405,-0.9597,0.1318,-0.1172,0.0188,-0.0065,2138
5,0.2336,-0.9636,0.1345,-0.1182,0.0146,-0.0065,2032
5,0.2412,-0.9587,0.1245,-0.118,0.0176,-0.0095,2063
5,0.2368,-0.9578,0.1309,-0.122,0.0192,-0.0108,1999
5,0.2295,-0.9626,0.1289,-0.1208,0.014,-0.0146,2086
5,0.2427,-0.9592,0.1313,-0.1186,0.0157,-0.0145,2038
5,0.2451,-0.9602,0.1267,-0.122,0.02,-0.0142,2073
5,0.2419,-0.9612,0.1294,-0.1209,0.019,-0.0161,1982
5,0.241,-0.9602,0.1257,-0.1213,0.019,-0.0117,2074
5,0.241,-0.9585,0.1189,-0.1234,0.0157,-0.0089,1969
5,0.2327,-0.959,0.1284,-0.1186,0.0222,-0.0091,2072
5,0.2429,-0.9514,0.124,-0.1168,0.0214,-0.0084,2039
5,0.241,-0.9573,0.1272,-0.1177,0.0221,-0.0051,2047
5,0.2368,-0.957,0.1272,-0.1143,0.0222,-0.0071,2017
5,0.2385,-0.9602,0.125,-0.1221,0.0214,-0.0052,2045
5,0.2356,-0.9653,0.1265,-0.1201,0.0234,-0.0112,2012
5,0.239,-0.9573,0.1243,-0.1222,0.0232,-0.0047,2032
5,0.2424,-0.9602,0.1282,-0.1205,0.0229,-0.0119,1993
5,0.2419,-0.9583,0.1321,-0.1229,0.0213,-0.0101,2074
5,0.2373,-0.957,0.1257,-0.1222,0.0205,-0.0104,2063
5,0.2427,-0.9568,0.1289,-0.12,0.0236,-0.0127,2063
5,0.2395,-0.9622,0.1309,-0.1205,0.0205,-0.0107,2138
5,0.2412,-0.9604,0.1194,-0.1201,0.0201,-0.0063,2043
5,0.2412,-0.9485,0.1284,-0.12,0.0262,-0.0101,2119
5,0.2417,-0.9607,0.1208,-0.1172,0.024,-0.0057,2010
5,0.2363,-0.9541,0.124,-0.1177,0.02,-0.0071,2047
5,0.2363,-0.9644,0.1279,-0.1163,0.0192,-0.0055,2007
5,0.239,-0.9595,0.1301,-0.1144,0.0277,-0.0088,2051
5,0.2368,-0.9648,0.136,-0.1196,0.0221,-0.0067,2054
5,0.2351,-0.9619,0.1284,-0.1177,0.0141,-0.0092,1955
5,0.2461,-0.9636,0.1345,-0.1241,0.0111,-0.0109,2053
5,0.2419,-0.9548,0.1294,-0.1264,0.0212,-0.0112,1990
5,0.2393,-0.9597,0.1174,-0.1242,0.0294,-0.0085,2089
5,0.24,-0.957,0.1165,-0.1188,0.034,-0.0036,2049
5,0.2336,-0.9683,0.1174,-0.1137,0.0306,-0.0037,2084
5,0.2412,-0.9595,0.1267,-0.1151,0.0252,0.0005,2006
5,0.2332,-0.9624,0.1233,-0.1119,0.0228,-0.0017,2060
5,0.2329,-0.9597,0.1257,-0.112,0.0184,-0.0037,2084
5,0.2314,-0.9592,0.1299,-0.1156,0.0229,-0.012,2008
5,0.2354,-0.9604,0.1257,-0.1116,0.0164,-0.014,2108
5,0.2366,-0.9568,0.1323,-0.1139,0.0198,-0.0134,2015
5,0.2476,-0.9543,0.1282,-0.1145,0.0245,-0.0134,2075
5,0.2473,-0.9624,0.124,-0.1148,0.0209,-0.0076,2038
5,0.2429,-0.9636,0.1277,-0.1145,0.023,-0.0065,2052
5,0.2434,-0.9631,0.1233,-0.1171,0.0244,-0.0043,2040
5,0.2397,-0.9578,0.1238,-0.1157,0.0193,-0.0079,2082
5,0.2329,-0.9558,0.1262,-0.1159,0.0196,-0.0047,2055
5,0.2314,-0.9585,0.1296,-0.1157,0.0181,-0.0073,2018
5,0.2388,-0.9587,0.1331,-0.1173,0.0127,-0.0113,2067
5,0.2417,-0.9673,0.1318,-0.12,0.016,-0.0152,2090
5,0.241,-0.9583,0.1304,-0.1188,0.0149,-0.015,2003
5,0.2393,-0.9558,0.1396,-0.124,0.0123,-0.0174,2013
5,0.2378,-0.9602,0.1296,-0.1269,0.0124,-0.0144,2112
5,0.2341,-0.9587,0.1235,-0.1277,0.0115,-0.0105,2025
5,0.2419,-0.957,0.1277,-0.1285,0.0091,-0.0141,1997
5,0.2397,-0.9624,0.126,-0.1272,0.0099,-0.0148,2072
5,0.2468,-0.9548,0.1169,-0.1284,0.0124,-0.0178,1970
5,0.2458,-0.9622,0.1208,-0.1285,0.0121,-0.014,2020
5,0.2354,-0.9656,0.1191,-0.1285,0.0075,-0.0156,2034
5,0.2371,-0.96,0.126,-0.132,0.0075,-0.0144,2063
5,0.2397,-0.9595,0.1318,-0.1293,0.0109,-0.016,2084
5,0.2312,-0.9604,0.1294,-0.1316,0.0083,-0.0142,2002
5,0.2349,-0.9595,0.1294,-0.132,0.0115,-0.012,2085
5,0.2402,-0.9592,0.1326,-0.1322,0.0081,-0.0136,2047
5,0.2441,-0.959,0.1272,-0.1349,0.0005,-0.0166,2138
5,0.2463,-0.9565,0.1313,-0.1361,0.0044,-0.0185,1987
5,0.2488,-0.9563,0.1213,-0.1397,0.0138,-0.0129,2081
5,0.2461,-0.9575,0.1157,-0.1348,0.0165,-0.0075,2016
5,0.2422,-0.9644,0.1157,-0.1285,0.0192,-0.0089,2061
5,0.2402,-0.9612,0.1218,-0.127,0.0154,-0.0067,1984
5,0.2444,-0.9585,0.1206,-0.1257,0.0125,-0.0016,2050
5,0.2322,-0.9597,0.1284,-0.1252,0.0107,-0.0041,1964
5,0.2407,-0.9558,0.1191,-0.1258,0.0129,-0.0108,2032
5,0.2366,-0.9543,0.1248,-0.1242,0.0116,-0.0064,2130
5,0.2449,-0.9592,0.1252,-0.1252,0.0112,-0.0141,1994
5,0.2417,-0.9595,0.1162,-0.1246,0.0176,-0.0148,2043
5,0.2498,-0.9614,0.1248,-0.1202,0.0208,-0.0116,2103
5,0.2507,-0.9631,0.1196,-0.1237,0.0226,-0.0103,2040
5,0.2458,-0.9597,0.1194,-0.1221,0.0222,-0.0044,2069
5,0.2393,-0.9551,0.1179,-0.1194,0.0182,-0.0045,2015
5,0.2402,-0.9529,0.1279,-0.1206,0.0193,-0.0051,2021
5,0.239,-0.96,0.1191,-0.1193,0.0213,-0.0073,1980
5,0.2375,-0.9551,0.1292,-0.1172,0.016,-0.0071,2023
5,0.2368,-0.957,0.1252,-0.1222,0.0192,-0.0057,1987
6,0.2402,-0.9575,0.1187,-0.1213,0.0253,-0.0068,2075
6,0.2456,-0.9629,0.1262,-0.1218,0.0246,-0.006,2066
6,0.2407,-0.9626,0.1284,-0.1204,0.027,-0.006,2112
6,0.2432,-0.9556,0.1179,-0.118,0.0217,-0.0061,2081
6,0.2351,-0.9539,0.1199,-0.1178,0.0266,-0.0047,2045
6,0.241,-0.9634,0.1213,-0.1165,0.0226,-0.0047,2061
6,0.2427,-0.9602,0.1252,-0.1144,0.0256,-0.0036,2027
6,0.2419,-0.9595,0.1187,-0.1141,0.0277,-0.0055,1981
6,0.2441,-0.9617,0.1248,-0.1147,0.0274,-0.0092,2070
6,0.2434,-0.9592,0.126,-0.1186,0.0216,-0.0068,2037
6,0.24,-0.958,0.125,-0.1156,0.025,-0.0007,2070
6,0.2397,-0.9583,0.1262,-0.118,0.0249,-0.0021,2072
6,0.2383,-0.9663,0.1226,-0.1177,0.0288,-0.0049,2052
6,0.2412,-0.9644,0.1277,-0.1194,0.0212,-0.0104,2024
6,0.2339,-0.9602,0.1262,-0.1185,0.0213,-0.0096,2104
6,0.2385,-0.9626,0.1318,-0.1224,0.0165,-0.0128,2031
6,0.2468,-0.9648,0.1294,-0.1238,0.0168,-0.0095,2051
6,0.2439,-0.9524,0.1179,-0.1246,0.0258,-0.0115,2019
6,0.2454,-0.9578,0.1196,-0.1276,0.0256,-0.0093,2079
6,0.2356,-0.9585,0.1226,-0.1222,0.0228,-0.0071,2021
6,0.2402,-0.9644,0.1184,-0.1208,0.0173,-0.0055,2006
6,0.2378,-0.9558,0.1208,-0.1175,0.0186,-0.0059,2067
6,0.2305,-0.9597,0.1155,-0.1221,0.0209,-0.0059,2049
6,0.2422,-0.9553,0.1228,-0.1228,0.0193,-0.0112,2063
6,0.2375,-0.9597,0.1191,-0.1213,0.0169,-0.0128,1983
6,0.2422,-0.9678,0.1228,-0.1206,0.0154,-0.0108,2044
6,0.239,-0.9609,0.1201,-0.1178,0.0165,-0.0117,1997
6,0.2451,-0.957,0.1211,-0.1185,0.023,-0.0095,2079
6,0.2407,-0.9604,0.126,-0.1222,0.018,-0.0084,2032
6,0.2366,-0.9631,0.1211,-0.123,0.0204,-0.0076,2037
6,0.2354,-0.9666,0.1143,-0.1196,0.018,-0.0111,2065
6,0.2432,-0.9541,0.1294,-0.1213,0.0157,-0.0103,2035
6,0.2419,-0.9631,0.1174,-0.1194,0.0192,-0.0091,2075
6,0.2358,-0.9583,0.124,-0.1206,0.0218,-0.0121,2048
6,0.2356,-0.9568,0.1265,-0.1232,0.0168,-0.0096,2056
6,0.2402,-0.9656,0.1248,-0.1225,0.0178,-0.0079,2018
6,0.2388,-0.9573,0.1196,-0.1248,0.022,-0.0089,2063
6,0.2407,-0.9539,0.1326,-0.1257,0.0189,-0.0108,2065
6,0.2397,-0.9604,0.1191,-0.1222,0.0201,-0.0092,2023
6,0.2434,-0.9575,0.1211,-0.1248,0.0184,-0.012,2079
6,0.2419,-0.9658,0.1187,-0.126,0.0178,-0.0096,2013
6,0.2395,-0.9604,0.1194,-0.1268,0.0174,-0.0116,2017
6,0.24,-0.9597,0.1211,-0.1266,0.0201,-0.012,2087
6,0.2446,-0.9619,0.1245,-0.1265,0.015,-0.0133,2039
6,0.2393,-0.9609,0.1267,-0.125,0.0164,-0.0101,2090
6,0.238,-0.9541,0.1277,-0.1277,0.0158,-0.0128,1977
6,0.2397,-0.9597,0.1208,-0.1254,0.018,-0.0095,2040
6,0.2385,-0.9609,0.1191,-0.1304,0.0221,-0.0157,2126
6,0.2358,-0.9595,0.116,-0.1262,0.0162,-0.0146,2032
6,0.2397,-0.9629,0.1248,-0.1302,0.0133,-0.017,2067
6,0.2441,-0.9556,0.1228,-0.1309,0.0089,-0.0146,2168
6,0.2427,-0.9529,0.1169,-0.1317,0.0075,-0.0169,2056
6,0.2466,-0.9543,0.1125,-0.1328,0.0115,-0.0154,2037
6,0.2446,-0.9553,0.1111,-0.1329,0.0248,-0.0092,2018
6,0.2366,-0.9561,0.1091,-0.127,0.0244,-0.0065,2065
6,0.2419,-0.9595,0.1189,-0.1233,0.02,-0.0045,1943
6,0.2395,-0.9597,0.1121,-0.1175,0.0186,-0.0025,2033
6,0.2439,-0.9565,0.1211,-0.1206,0.0188,-0.0027,2064
6,0.2397,-0.9648,0.1096,-0.1208,0.0216,-0.01,2076
6,0.2424,-0.9583,0.123,-0.1161,0.0202,-0.0124,2028
6,0.2427,-0.9565,0.1174,-0.1182,0.0172,-0.0125,2080
6,0.24,-0.9546,0.1208,-0.1163,0.0222,-0.0136,2013
6,0.251,-0.9592,0.1221,-0.114,0.0264,-0.0113,2094
6,0.2456,-0.9656,0.1208,-0.1148,0.0246,-0.01,1997
6,0.2473,-0.9592,0.1169,-0.1156,0.026,-0.0048,2060
6,0.239,-0.9607,0.1208,-0.1147,0.0252,-0.0036,2040
6,0.2393,-0.96,0.1187,-0.1139,0.0284,-0.0016,2083
6,0.2378,-0.9573,0.1216,-0.1155,0.0281,-0.004,2053
6,0.2295,-0.9636,0.1221,-0.1155,0.0225,-0.006,2062
6,0.2393,-0.9624,0.1174,-0.1168,0.0237,-0.0076,1956
6,0.2371,-0.96,0.124,-0.1178,0.0233,-0.0103,2067
6,0.2476,-0.9612,0.1211,-0.1185,0.0238,-0.0072,2066
6,0.2419,-0.9604,0.1299,-0.1185,0.028,-0.0128,2061
6,0.2415,-0.9602,0.1174,-0.1192,0.0276,-0.0076,2019
6,0.2444,-0.9668,0.1257,-0.1178,0.0253,-0.0075,2062
6,0.2429,-0.9612,0.1113,-0.1159,0.0274,-0.012,2006
6,0.2397,-0.9565,0.1162,-0.1148,0.02,-0.0075,2071
6,0.238,-0.9556,0.1167,-0.1182,0.0289,-0.0083,2066
6,0.2361,-0.9543,0.1172,-0.1173,0.0224,-0.0104,2021
6,0.2434,-0.9617,0.1257,-0.1171,0.0233,-0.0047,2042
6,0.239,-0.9631,0.1206,-0.1155,0.0182,-0.0085,2136
6,0.2402,-0.9558,0.1208,-0.1208,0.024,-0.0083,2053
6,0.2397,-0.9658,0.1162,-0.1178,0.0248,-0.0103,2071
6,0.2395,-0.9595,0.1194,-0.1193,0.0182,-0.0144,2005
6,0.239,-0.9578,0.1243,-0.1245,0.0174,-0.0077,2059
6,0.2402,-0.9583,0.1218,-0.1262,0.0115,-0.0141,2000
6,0.2424,-0.9551,0.1179,-0.1237,0.0177,-0.014,1996
6,0.2529,-0.9585,0.1133,-0.1269,0.0238,-0.0105,2069
6,0.2405,-0.9644,0.1123,-0.1202,0.0292,-0.0063,1998
6,0.2402,-0.9602,0.1042,-0.1159,0.0286,-0.0053,2009
6,0.2402,-0.9573,0.1174,-0.1135,0.0192,-0.0019,2046
6,0.2368,-0.96,0.123,-0.1161,0.0164,-0.004,2159
6,0.2354,-0.9585,0.1211,-0.1184,0.0127,-0.0041,2040
6,0.2363,-0.9495,0.1155,-0.1213,0.0165,-0.015,1943
6,0.2358,-0.9639,0.1157,-0.1204,0.0108,-0.0197,1944
6,0.2434,-0.9617,0.1187,-0.1208,0.0069,-0.0218,2030
6,0.2427,-0.9614,0.1211,-0.124,0.0158,-0.0184,2039
6,0.2407,-0.957,0.126,-0.1234,0.0134,-0.0125,1905
6,0.248,-0.9561,0.114,-0.1246,0.0148,-0.0124,2111
6,0.2417,-0.9648,0.1238,-0.1272,0.0134,-0.0097,2067
6,0.2437,-0.9568,0.1304,-0.1256,0.0068,-0.0109,1967
6,0.2363,-0.9609,0.1196,-0.1337,0.0053,-0.0087,2031
6,0.2402,-0.9592,0.1238,-0.1328,0.0069,-0.0182,2005
6,0.2422,-0.9597,0.1216,-0.1345,0.0077,-0.0178,2062
6,0.2383,-0.9607,0.1177,-0.1365,0.0072,-0.0229,2059
6,0.2405,-0.9604,0.1191,-0.1372,0.0104,-0.0182,2040
6,0.2461,-0.9587,0.1194,-0.1346,0.0141,-0.0141,2038
6,0.24,-0.9587,0.1143,-0.1376,0.0097,-0.0196,2079
6,0.2444,-0.9551,0.1101,-0.1332,0.0116,-0.0208,2032
6,0.2471,-0.9543,0.1143,-0.1286,0.0117,-0.0164,2057
6,0.2434,-0.9595,0.105,-0.1306,0.0119,-0.016,2026
6,0.2456,-0.957,0.1104,-0.1272,0.0093,-0.0153,2052
6,0.2471,-0.9636,0.1106,-0.1289,0.0104,-0.0134,2063
6,0.2451,-0.9636,0.1169,-0.1288,0.0142,-0.0099,2046
7,0.2429,-0.9614,0.1194,-0.1264,0.0115,-0.0111,2057
7,0.2476,-0.9619,0.123,-0.1298,0.0099,-0.0119,2022
7,0.2419,-0.9617,0.1189,-0.1328,0.0115,-0.0136,2067
7,0.24,-0.9622,0.1128,-0.1301,0.0115,-0.0113,2031
7,0.2424,-0.958,0.1177,-0.1316,0.0115,-0.0146,2112
7,0.2427,-0.9604,0.1206,-0.1361,0.0096,-0.0111,1958
7,0.2429,-0.9634,0.1233,-0.1348,0.0036,-0.0156,2059
7,0.248,-0.9619,0.1191,-0.1377,0.0027,-0.0173,2144
7,0.2402,-0.9595,0.1138,-0.1385,0.0113,-0.0127,2003
7,0.2498,-0.9592,0.1135,-0.1364,0.0164,-0.0127,2051
7,0.2439,-0.96,0.1211,-0.1325,0.012,-0.0061,2008
7,0.2473,-0.9604,0.1174,-0.1322,0.0116,-0.01,2070
7,0.2441,-0.9602,0.1172,-0.1317,0.0105,-0.0071,2026
7,0.2424,-0.9565,0.1174,-0.1332,0.0124,-0.0093,2088
7,0.2395,-0.9609,0.1099,-0.1302,0.0131,-0.0093,2057
7,0.239,-0.9585,0.1006,-0.1236,0.0169,-0.0081,2049
7,0.2449,-0.9568,0.1099,-0.1228,0.0226,-0.0138,2084
7,0.23,-0.958,0.1052,-0.1189,0.0394,-0.0117,2068
7,0.2351,-0.9624,0.1143,-0.125,0.0474,-0.0057,2075
7,0.2627,-0.9612,0.1221,-0.1233,0.049,-0.0164,2065
7,0.2395,-0.9507,0.1106,-0.127,0.055,0.0017,2021
7,0.2437,-0.9705,0.1226,-0.1312,0.0651,-0.0027,2054
7,0.2346,-0.9646,0.1304,-0.1424,0.0722,0.0012,2082
7,0.2451,-0.9512,0.1267,-0.1591,0.0457,-0.0009,1970
7,0.2534,-0.9568,0.1343,-0.1574,0.0172,-0.0109,2049
7,0.2488,-0.9597,0.1445,-0.1799,0.0261,-0.0029,2138
7,0.2319,-0.981,0.1345,-0.1985,0.0475,0.0067,1999
7,0.2263,-0.9724,0.1218,-0.1931,0.0509,0.0113,2073
7,0.2166,-0.9509,0.1194,-0.2133,0.0298,-0.0072,1989
7,0.2341,-0.9492,0.1196,-0.2334,0.023,-0.0257,2006
7,0.2412,-0.9714,0.1165,-0.2462,0.0128,-0.0397,2076
7,0.2334,-0.9795,0.1248,-0.2476,0.0009,-0.0446,1969
7,0.2175,-0.9707,0.125,-0.2537,-0.0193,-0.0457,2074
7,0.2178,-0.9729,0.1326,-0.2677,-0.0422,-0.0522,2053
7,0.2227,-0.9702,0.1287,-0.2928,-0.0658,-0.0653,2047
7,0.2517,-0.9854,0.1318,-0.3176,-0.0876,-0.0891,1987
7,0.2798,-0.9751,0.1184,-0.3416,-0.0999,-0.1081,2068
7,0.2563,-0.969,0.1101,-0.3545,-0.0884,-0.0981,2067
7,0.2446,-0.9685,0.1125,-0.3602,-0.0826,-0.0855,2016
7,0.2251,-0.967,0.113,-0.3657,-0.0989,-0.0923,2111
7,0.2334,-0.9736,0.1084,-0.3804,-0.1107,-0.1024,2009
7,0.2527,-0.9675,0.1047,-0.3943,-0.1479,-0.1185,2091
7,0.2417,-0.9629,0.1013,-0.4064,-0.1706,-0.1274,1983
7,0.2439,-0.9619,0.1028,-0.4232,-0.1992,-0.1348,2071
7,0.2461,-0.9673,0.0906,-0.4354,-0.2318,-0.1493,2079
7,0.2402,-0.9636,0.0964,-0.4532,-0.2578,-0.1626,2085
7,0.2366,-0.9626,0.0911,-0.4691,-0.2735,-0.1697,2182
7,0.2471,-0.9675,0.1047,-0.486,-0.2776,-0.1744,2061
7,0.2397,-0.9597,0.0847,-0.4851,-0.2872,-0.1739,1977
7,0.2468,-0.9561,0.0732,-0.4876,-0.2963,-0.1732,2094
7,0.2346,-0.9695,0.0535,-0.4888,-0.2939,-0.1814,1963
7,0.2493,-0.969,0.0344,-0.4751,-0.2948,-0.1876,2043
7,0.2734,-0.9475,0.0198,-0.4617,-0.3057,-0.1996,1929
7,0.3069,-0.9382,0.0002,-0.4389,-0.2936,-0.1963,2191
7,0.2915,-0.9514,-0.0269,-0.4256,-0.2519,-0.188,2325
7,0.3179,-0.9292,-0.0288,-0.3919,-0.2481,-0.1626,2087
7,0.3215,-0.9304,-0.0142,-0.3667,-0.2393,-0.1474,2070
7,0.3191,-0.9565,-0.0149,-0.3337,-0.2016,-0.1226,2104
7,0.3135,-0.9453,-0.0312,-0.3083,-0.1858,-0.096,2025
7,0.2986,-0.9417,-0.019,-0.2968,-0.1903,-0.08,2003
7,0.3005,-0.9519,0.001,-0.2843,-0.1999,-0.0778,1941
7,0.2861,-0.9543,0.0037,-0.267,-0.1795,-0.071,2030
7,0.2859,-0.9563,0.011,-0.2687,-0.1677,-0.07,2113
7,0.2815,-0.9597,0.0198,-0.2642,-0.163,-0.0686,2048
7,0.291,-0.9697,0.0247,-0.2594,-0.1643,-0.0667,2042
7,0.2764,-0.9656,0.0183,-0.2701,-0.1683,-0.0646,2021
7,0.2766,-0.9563,0.0188,-0.2778,-0.1687,-0.075,2064
7,0.2793,-0.9731,0.0234,-0.2882,-0.1665,-0.0767,2078
7,0.2966,-0.9824,0.0049,-0.2854,-0.1701,-0.081,1918
7,0.2949,-0.9624,0.0129,-0.2911,-0.2103,-0.1045,2088
7,0.2893,-0.9578,0.0054,-0.3346,-0.2581,-0.1083,2044
7,0.2786,-0.9558,0.0212,-0.345,-0.2606,-0.0955,2032
7,0.2683,-0.9194,0.0493,-0.3228,-0.2902,-0.075,2042
7,0.2788,-0.9829,0.0261,-0.341,-0.2734,-0.1067,2052
7,0.2646,-0.9958,-0.0352,-0.3308,-0.2063,-0.1036,2027
7,0.2773,-0.9399,-0.0598,-0.3281,-0.2123,-0.1184,2059
7,0.3125,-0.9377,-0.0532,-0.3514,-0.2461,-0.1406,2074
7,0.3293,-0.9512,-0.0427,-0.3289,-0.2382,-0.1386,1995
7,0.3269,-0.9634,-0.0461,-0.3099,-0.1816,-0.1131,2033
7,0.3118,-0.9578,-0.0527,-0.2922,-0.1523,-0.0834,1989
7,0.3181,-0.946,-0.0586,-0.2595,-0.1662,-0.0731,2060
7,0.3062,-0.9631,-0.0527,-0.2461,-0.1734,-0.0597,2095
7,0.3035,-0.9536,-0.0647,-0.222,-0.187,-0.0561,2032
7,0.2954,-0.9517,-0.0674,-0.2216,-0.1518,-0.0723,2072
7,0.2991,-0.9121,-0.061,-0.206,-0.1108,-0.0526,2066
7,0.293,-0.9604,-0.0352,-0.1787,-0.1261,-0.0495,2102
7,0.3013,-0.9607,-0.0544,-0.1659,-0.0975,-0.0463,2056
7,0.3057,-0.949,-0.0701,-0.1752,-0.0459,-0.047,2042
7,0.3083,-0.9512,-0.0581,-0.153,-0.0561,-0.0466,2060
7,0.3083,-0.9573,-0.0466,-0.1382,-0.0535,-0.0471,2045
7,0.311,-0.958,-0.0466,-0.1349,-0.0328,-0.0338,2004
7,0.3052,-0.9478,-0.0649,-0.125,-0.0127,-0.0381,2009
7,0.2944,-0.947,-0.0667,-0.1108,0.0025,-0.0292,2046
7,0.2996,-0.9475,-0.0647,-0.1008,0.0005,-0.0316,2080
7,0.2969,-0.9509,-0.0691,-0.0935,0.019,-0.032,2120
7,0.2922,-0.9404,-0.0588,-0.0723,0.0421,-0.0282,2042
7,0.3066,-0.9517,-0.0667,-0.0683,0.053,-0.0312,2079
7,0.3181,-0.9417,-0.0522,-0.0627,0.0376,-0.0273,2022
7,0.325,-0.9448,-0.0381,-0.0506,0.0551,-0.0137,2028
7,0.3171,-0.9578,-0.0383,-0.0414,0.1127,0.0009,2073
7,0.3672,-0.9224,-0.0388,0.0217,0.0104,-0.0116,2008
8,0.2942,-0.9927,-0.061,-0.0019,0.0981,0.0542,2053
8,0.3125,-0.9875,-0.0874,0.0189,0.1972,0.076,2058
8,0.2839,-0.9353,-0.0808,0.0483,0.2032,0.0549,2105
8,0.3013,-0.9248,-0.0596,0.0599,0.161,0.0562,2050
8,0.3306,-0.9385,-0.0269,0.0798,0.127,0.0402,2098
8,0.3254,-0.9556,-0.0237,0.085,0.1784,0.0565,1975
8,0.301,-0.9524,-0.021,0.0972,0.1996,0.0662,2065
8,0.2822,-0.959,-0.0278,0.1081,0.1948,0.0794,2060
8,0.2761,-0.9597,-0.0273,0.1144,0.1981,0.0826,2131
8,0.2817,-0.9546,-0.0308,0.124,0.2017,0.0726,1984
8,0.2913,-0.9436,-0.0366,0.1381,0.2233,0.0708,2002
8,0.3049,-0.9443,-0.0417,0.1533,0.2493,0.07,2090
8,0.312,-0.9419,-0.0483,0.176,0.2603,0.0711,2055
8,0.3162,-0.9387,-0.0425,0.2072,0.2778,0.0866,2026
8,0.3235,-0.9404,-0.043,0.237,0.2887,0.1012,2048
8,0.3181,-0.9507,-0.0386,0.263,0.3045,0.1242,2029
8,0.311,-0.9453,-0.0254,0.2902,0.316,0.1522,2115
8,0.3069,-0.9404,-0.0166,0.3156,0.3308,0.1642,2029
8,0.3,-0.9451,-0.0171,0.3325,0.3594,0.1855,2021
8,0.3015,-0.9424,-0.0063,0.3493,0.3745,0.1959,2071
8,0.301,-0.9463,-0.0051,0.3681,0.3867,0.1995,2025
8,0.2908,-0.9412,0.0173,0.3811,0.379,0.2011,1857
8,0.2939,-0.957,0.0208,0.3878,0.3778,0.2093,2118
8,0.2727,-0.9709,0.0183,0.4026,0.3918,0.2119,2039
8,0.2781,-0.9573,0.0254,0.4168,0.3967,0.224,2061
8,0.2698,-0.9446,0.0312,0.4269,0.3915,0.2261,2094
8,0.2695,-0.9436,0.0378,0.4416,0.3974,0.2321,2074
8,0.2651,-0.9414,0.0547,0.4536,0.4084,0.2348,2096
8,0.2583,-0.9478,0.0789,0.4638,0.4248,0.2461,2116
8,0.2759,-0.9448,0.0891,0.4758,0.4634,0.2691,2059
8,0.2649,-0.9541,0.0757,0.481,0.4978,0.2733,2068
8,0.2625,-0.9534,0.0813,0.4939,0.5169,0.2896,2107
8,0.2676,-0.9456,0.0923,0.5003,0.5335,0.3099,2063
8,0.2576,-0.9597,0.0886,0.503,0.5592,0.3192,2044
8,0.2466,-0.9524,0.1174,0.4974,0.5818,0.3461,1952
8,0.2397,-0.9714,0.1223,0.5052,0.6003,0.3713,2077
8,0.2432,-0.9768,0.1292,0.5332,0.6082,0.3828,1986
8,0.2419,-1.01,0.1321,0.5416,0.6132,0.3906,2078
8,0.2712,-0.949,0.1265,0.5337,0.6291,0.445,2115
8,0.2456,-0.9473,0.1252,0.5227,0.6197,0.4248,2072
8,0.2227,-0.937,0.1453,0.5263,0.6521,0.4418,2061
8,0.2109,-0.946,0.1553,0.5116,0.6726,0.4388,1999
8,0.2156,-0.9595,0.1541,0.5023,0.7054,0.4313,2083
8,0.2095,-0.9465,0.1589,0.489,0.7409,0.4356,1955
8,0.2139,-0.948,0.1692,0.4814,0.7506,0.4293,2007
8,0.1963,-0.9548,0.2009,0.4681,0.7505,0.4165,2002
8,0.1797,-0.9529,0.2039,0.4715,0.744,0.4235,2080
8,0.1536,-0.9636,0.2168,0.4834,0.7215,0.4175,2036
8,0.1658,-0.9565,0.2361,0.4825,0.6597,0.3984,2048
8,0.1787,-0.9658,0.2405,0.4655,0.5602,0.3575,2067
8,0.186,-0.9136,0.2261,0.4313,0.4568,0.3324,2024
8,0.1274,-0.8953,0.2515,0.3828,0.4083,0.279,2085
8,0.0696,-0.8923,0.2566,0.3751,0.3718,0.2587,2023
8,0.0374,-0.9612,0.3,0.3963,0.4504,0.2123,2048
8,0.0847,-0.9917,0.3386,0.359,0.43,0.1754,2043
8,0.0181,-0.9712,0.3477,0.2995,0.3936,0.179,2034
8,0.0715,-0.9177,0.3896,0.2298,0.3123,0.169,2113
8,0.0742,-0.9709,0.4048,0.1322,0.1918,0.1358,2103
8,0.1108,-0.9414,0.4229,0.0553,0.0955,0.1039,2036
8,0.127,-0.9495,0.4116,-0.0381,0.0683,0.0567,2107
8,0.1355,-0.9453,0.3977,-0.1061,0.0591,0.0314,2004
8,0.1355,-0.9556,0.3921,-0.1633,0.0537,0.0111,2049
8,0.135,-0.9617,0.3789,-0.2152,0.0352,0.008,2075
8,0.144,-0.9592,0.3779,-0.2643,-0.0003,0.002,2008
8,0.1165,-0.9521,0.3589,-0.3183,-0.0422,-0.01,2083
8,0.0911,-0.9617,0.3496,-0.3602,-0.0764,-0.0376,2049
8,0.0605,-0.9639,0.3445,-0.3982,-0.1104,-0.0667,2061
8,0.0549,-0.9575,0.3237,-0.4283,-0.1722,-0.1129,2069
8,0.0686,-0.9497,0.3022,-0.4538,-0.2376,-0.1691,2099
8,0.0867,-0.9492,0.2793,-0.4844,-0.2565,-0.2112,1991
8,0.1104,-0.9473,0.2549,-0.5047,-0.2563,-0.2515,2061
8,0.1321,-0.9465,0.2419,-0.5058,-0.2577,-0.2669,2078
8,0.1511,-0.9482,0.2349,-0.4983,-0.276,-0.2639,2058
8,0.1677,-0.9617,0.2302,-0.4887,-0.2939,-0.2597,2031
8,0.1938,-0.9458,0.2202,-0.491,-0.297,-0.2456,2082
8,0.1772,-0.9514,0.2144,-0.5026,-0.2924,-0.236,2049
8,0.1777,-0.9446,0.229,-0.5048,-0.3059,-0.2285,2141
8,0.1726,-0.9497,0.2239,-0.5023,-0.3033,-0.232,2024
8,0.176,-0.9438,0.2256,-0.5059,-0.3049,-0.2234,2080
8,0.1597,-0.9524,0.2402,-0.5063,-0.3136,-0.2151,2068
8,0.1721,-0.9617,0.2422,-0.5184,-0.3108,-0.2226,2191
8,0.1799,-0.9551,0.219,-0.5468,-0.2864,-0.2332,2016
8,0.1907,-0.9473,0.1909,-0.5637,-0.2598,-0.2438,2025
8,0.1863,-0.9558,0.179,-0.5642,-0.2254,-0.2507,2128
8,0.1919,-0.9521,0.1736,-0.5497,-0.2055,-0.2442,2004
8,0.1926,-0.9663,0.1687,-0.5316,-0.1778,-0.2238,2047
8,0.1885,-0.9614,0.1528,-0.5094,-0.1724,-0.2108,2024
8,0.2061,-0.9629,0.1396,-0.4947,-0.1786,-0.1956,1983
8,0.2112,-0.9517,0.1226,-0.477,-0.2189,-0.1962,2058
8,0.209,-0.96,0.1155,-0.4599,-0.2289,-0.1948,2033
8,0.2134,-0.9617,0.116,-0.4321,-0.224,-0.1886,1973
8,0.2053,-0.9485,0.1323,-0.4097,-0.222,-0.1786,1977
8,0.2056,-0.9619,0.137,-0.3938,-0.2169,-0.1687,2059
8,0.209,-0.9587,0.146,-0.3747,-0.2152,-0.1567,2005
9,0.2126,-0.9521,0.1418,-0.3658,-0.1981,-0.1489,2007
9,0.2192,-0.9529,0.1248,-0.3625,-0.1714,-0.1389,2112
9,0.2346,-0.9524,0.1235,-0.3597,-0.1436,-0.1277,1951
9,0.2241,-0.9578,0.1135,-0.342,-0.1214,-0.1286,2046
9,0.2302,-0.957,0.0955,-0.3115,-0.0578,-0.1075,2067
9,0.2188,-0.9355,0.0806,-0.2888,-0.0225,-0.0782,2015
9,0.2515,-0.9521,0.0747,-0.2506,-0.0258,-0.0722,2048
9,0.2617,-0.939,0.0703,-0.1948,-0.0024,-0.0578,2022
9,0.2476,-0.9421,0.0437,-0.1494,0.0477,-0.0345,2024
9,0.2461,-0.9443,0.052,-0.089,0.0687,-0.0189,2034
9,0.2209,-0.9062,0.0696,-0.0276,0.0727,-0.0137,1997
9,0.2373,-0.9827,0.0945,-0.0051,0.1067,0.0109,2044
9,0.2249,-0.9526,0.1135,0.0154,0.0941,0.032,2007
9,0.2197,-0.9646,0.123,0.0214,0.0951,0.0306,2080
9,0.2224,-0.9597,0.1582,0.0304,0.0973,0.0409,1961
9,0.2056,-0.96,0.1541,0.019,0.1031,0.0431,2057
9,0.2102,-0.9629,0.1721,0.0052,0.1085,0.037,2042
9,0.1926,-0.9629,0.1643,-0.0032,0.1153,0.0353,1958
9,0.209,-0.957,0.1589,-0.0141,0.1262,0.029,2058
9,0.2083,-0.9653,0.1521,-0.0214,0.1314,0.0269,2128
9,0.2153,-0.9624,0.1472,-0.0198,0.1322,0.0308,1982
9,0.2214,-0.9551,0.1423,-0.026,0.1254,0.0305,2011
9,0.2251,-0.9558,0.1418,-0.0229,0.1175,0.0368,2074
9,0.2185,-0.9587,0.1409,-0.0184,0.1124,0.0386,2040
9,0.2173,-0.9639,0.147,-0.0131,0.1089,0.0473,2030
9,0.2097,-0.9702,0.155,-0.0064,0.106,0.0547,2085
9,0.2058,-0.9639,0.1545,-0.0053,0.0908,0.0563,2072
9,0.2087,-0.9602,0.1812,-0.0168,0.0811,0.049,2107
9,0.2068,-0.9597,0.1621,-0.0324,0.0779,0.0438,1938
9,0.1941,-0.9575,0.1775,-0.0403,0.0756,0.0336,2041
9,0.1838,-0.9631,0.1902,-0.0435,0.0683,0.033,2100
9,0.1848,-0.9653,0.178,-0.0479,0.0609,0.0261,2024
9,0.1892,-0.959,0.1802,-0.0591,0.0507,0.0156,2022
9,0.2036,-0.9629,0.1792,-0.074,0.0422,0.0015,2049
9,0.1982,-0.9548,0.1702,-0.0855,0.041,-0.0025,2103
9,0.2058,-0.9597,0.1689,-0.0907,0.0461,-0.0032,2056
9,0.2061,-0.9607,0.1687,-0.0919,0.0433,-0.0041,2219
9,0.2122,-0.9583,0.158,-0.0936,0.039,0.0016,2032
9,0.208,-0.9641,0.1589,-0.0992,0.0402,0.0075,2049
9,0.2141,-0.9668,0.1619,-0.1028,0.0433,0.0083,2065
9,0.2061,-0.9607,0.165,-0.1059,0.0426,0.0059,2057
9,0.2009,-0.9578,0.1748,-0.1103,0.036,0.0083,2043
9,0.199,-0.9614,0.166,-0.1073,0.0276,0.0035,2022
9,0.189,-0.9587,0.1736,-0.1053,0.0244,0.0047,2053
9,0.1934,-0.9631,0.1692,-0.1077,0.0274,0.0029,2064
9,0.1919,-0.9597,0.1611,-0.1148,0.0242,-0.0079,1995
9,0.1997,-0.957,0.1709,-0.1217,0.0225,-0.0206,1995
9,0.2109,-0.9609,0.1648,-0.1245,0.0238,-0.0226,1990
9,0.2192,-0.9629,0.1697,-0.1257,0.0352,-0.0176,2032
9,0.22,-0.9604,0.1641,-0.1244,0.0467,-0.0079,2016
9,0.2131,-0.9619,0.1626,-0.122,0.0459,-0.0008,1995
9,0.21,-0.9587,0.1531,-0.1197,0.0467,0.0087,2067
9,0.2004,-0.9563,0.1514,-0.1182,0.0483,0.0116,2076
9,0.2021,-0.9526,0.156,-0.1104,0.0419,0.01,2036
9,0.1958,-0.9656,0.1663,-0.1119,0.0346,0.0047,2079
9,0.1992,-0.9644,0.1719,-0.1172,0.0244,0.002,2077
9,0.2034,-0.9602,0.1794,-0.121,0.0252,-0.0055,2034
9,0.2061,-0.9519,0.1663,-0.1253,0.0277,-0.0032,2021
9,0.208,-0.9543,0.1648,-0.1284,0.038,-0.0049,2101
9,0.2146,-0.9507,0.1514,-0.1217,0.0551,-0.006,2012
9,0.2083,-0.9641,0.1426,-0.1087,0.0718,0.0021,2057
9,0.2134,-0.9622,0.1479,-0.1005,0.066,0.0121,2003
10,0.2019,-0.9602,0.1533,-0.0945,0.0578,0.0172,2001
10,0.2051,-0.9563,0.1531,-0.0843,0.0554,0.02,1938
10,0.2004,-0.9561,0.1611,-0.0819,0.0503,0.0249,2035
10,0.199,-0.9617,0.1626,-0.0779,0.0471,0.0188,2106
10,0.1985,-0.9626,0.1611,-0.0762,0.0505,0.0141,2060
10,0.1985,-0.9624,0.1755,-0.0828,0.0542,0.0137,2036
10,0.2158,-0.959,0.1716,-0.0803,0.0639,0.0233,2028
10,0.2021,-0.9563,0.1692,-0.0823,0.0666,0.0256,2058
10,0.2019,-0.9646,0.175,-0.0771,0.068,0.027,2078
10,0.1917,-0.9595,0.175,-0.0804,0.0656,0.0273,2007
10,0.1909,-0.9607,0.1682,-0.08,0.0579,0.0197,2086
10,0.1821,-0.959,0.1724,-0.0775,0.0454,0.0172,2045
10,0.1936,-0.9622,0.1775,-0.0802,0.0333,0.0097,2058
10,0.1956,-0.9607,0.1687,-0.0846,0.0366,0.0096,2074
10,0.198,-0.9578,0.1694,-0.0886,0.0368,0.0051,2102
10,0.1978,-0.9604,0.1724,-0.0933,0.0454,0.0049,2060
10,0.2007,-0.9592,0.1699,-0.0952,0.0601,0.0129,2049
10,0.1978,-0.9568,0.1746,-0.0907,0.0575,0.018,2057
10,0.1963,-0.9568,0.1736,-0.0858,0.0605,0.022,1985
10,0.1958,-0.9612,0.188,-0.0866,0.0527,0.0249,2020
10,0.1934,-0.9646,0.1687,-0.0895,0.0558,0.0285,2105
10,0.1919,-0.9609,0.1633,-0.0875,0.0538,0.0298,2064
10,0.1975,-0.9524,0.165,-0.0846,0.0525,0.0278,2004
10,0.199,-0.9548,0.179,-0.0775,0.0521,0.0264,2118
10,0.1982,-0.9526,0.1726,-0.0744,0.0575,0.0304,2031
10,0.2056,-0.97,0.1675,-0.0663,0.0695,0.0358,2065
10,0.2,-0.9639,0.1545,-0.0601,0.0738,0.0406,2113
10,0.1951,-0.9578,0.1558,-0.0527,0.0826,0.0459,2060
10,0.1956,-0.9622,0.1631,-0.0398,0.0936,0.0493,2039
10,0.2009,-0.9617,0.1641,-0.0302,0.1036,0.0582,2056
10,0.2012,-0.9561,0.1541,-0.016,0.1048,0.0585,2013
10,0.1968,-0.9543,0.1592,-0.0088,0.1088,0.0658,2100
10,0.1965,-0.9504,0.1543,0.0059,0.1168,0.0703,2057
10,0.1982,-0.9558,0.1565,0.0286,0.1237,0.0759,2066
10,0.1992,-0.9563,0.1482,0.0443,0.139,0.085,2046
10,0.1865,-0.9504,0.1636,0.0606,0.1276,0.087,2070
10,0.1924,-0.9531,0.1658,0.0691,0.1324,0.0919,2041
10,0.1846,-0.9482,0.1707,0.0875,0.13,0.0989,1994
10,0.1833,-0.96,0.1748,0.1043,0.1511,0.1077,2137
10,0.187,-0.9612,0.1655,0.1153,0.169,0.1222,2048
10,0.1938,-0.9575,0.1643,0.128,0.1843,0.1234,2068
10,0.1899,-0.947,0.1604,0.1329,0.19,0.122,2024
10,0.1892,-0.9468,0.1729,0.1361,0.2076,0.1213,2069
10,0.1877,-0.9492,0.1819,0.1486,0.2296,0.1273,2023
10,0.1877,-0.9509,0.1858,0.1505,0.2353,0.1264,2022
10,0.1807,-0.9561,0.1965,0.1542,0.2384,0.1342,2054
10,0.1667,-0.957,0.2092,0.1591,0.2345,0.1342,2235
10,0.1663,-0.9604,0.2173,0.1494,0.2301,0.1309,1975
10,0.1599,-0.9661,0.231,0.1473,0.2441,0.1237,1987
10,0.1621,-0.9568,0.2378,0.1426,0.2537,0.1282,2065
10,0.1523,-0.9485,0.2339,0.1298,0.242,0.1201,2059
10,0.1575,-0.9551,0.2297,0.1168,0.2386,0.1079,2011
10,0.1499,-0.9548,0.2432,0.1124,0.2362,0.0957,2032
10,0.1543,-0.9441,0.2451,0.1077,0.2223,0.098,2060
10,0.1484,-0.9553,0.2507,0.1041,0.2221,0.1021,1994
10,0.1511,-0.9702,0.2493,0.0936,0.2258,0.0933,2159
10,0.145,-0.9629,0.2402,0.0758,0.2168,0.086,2052
10,0.1309,-0.9536,0.2573,0.0747,0.1948,0.0766,1750
10,0.1362,-0.9409,0.2581,0.0659,0.1807,0.0662,2312
10,0.1445,-0.9275,0.2634,0.0523,0.1767,0.0559,2171
10,0.1431,-0.947,0.26,0.0364,0.1613,0.041,2016
10,0.1384,-0.959,0.2751,0.0205,0.1458,0.0368,1914
10,0.1387,-0.9641,0.2708,0.012,0.1365,0.0368,2123
10,0.1331,-0.9578,0.2854,-0.0007,0.1131,0.0353,2150
10,0.1348,-0.9509,0.3071,-0.025,0.0718,0.0324,2102
10,0.1433,-0.947,0.2983,-0.0509,0.0491,0.0217,2104
10,0.137,-0.9509,0.2886,-0.0683,0.0653,0.0123,2029
10,0.1265,-0.9446,0.2761,-0.0827,0.0815,0.0005,1981
10,0.1321,-0.948,0.2617,-0.091,0.081,-0.0121,2076
10,0.135,-0.946,0.262,-0.0931,0.0663,-0.02,2074
10,0.1445,-0.947,0.2539,-0.0975,0.0446,-0.0246,2093
10,0.1484,-0.9377,0.2607,-0.0968,0.016,-0.0306,2061
10,0.1516,-0.9343,0.2656,-0.0979,-0.0224,-0.0364,2002
10,0.1477,-0.9443,0.26,-0.0931,-0.0653,-0.0434,2060
10,0.1406,-0.957,0.2739,-0.0887,-0.0856,-0.0425,1943
10,0.1414,-0.96,0.2761,-0.0915,-0.1057,-0.0478,2060
10,0.147,-0.9514,0.2783,-0.1016,-0.1221,-0.0505,2072
10,0.1497,-0.9485,0.2849,-0.1196,-0.1405,-0.0538,2128
10,0.1472,-0.9441,0.2847,-0.1526,-0.1533,-0.0704,2038
10,0.1477,-0.9507,0.2898,-0.1779,-0.1645,-0.0771,2056
10,0.1472,-0.9485,0.2966,-0.2067,-0.1742,-0.0871,2000
10,0.1411,-0.9509,0.293,-0.2392,-0.1752,-0.1019,2064
10,0.1462,-0.947,0.2925,-0.2677,-0.179,-0.1041,2041
10,0.1436,-0.9519,0.2805,-0.2842,-0.1856,-0.1088,2065
10,0.1589,-0.9604,0.2766,-0.3045,-0.1807,-0.1085,2006
10,0.1611,-0.9443,0.2546,-0.3191,-0.1649,-0.104,2036
10,0.168,-0.9453,0.2544,-0.3232,-0.1559,-0.0907,2065
10,0.1663,-0.946,0.2429,-0.3197,-0.1398,-0.0852,2059
10,0.1738,-0.9597,0.2324,-0.3228,-0.1208,-0.0716,2090
10,0.1792,-0.96,0.2244,-0.3147,-0.0997,-0.0656,2095
10,0.1719,-0.9451,0.2139,-0.3135,-0.0842,-0.0615,2062
10,0.175,-0.9463,0.2083,-0.2967,-0.0682,-0.0605,2045
10,0.1699,-0.9446,0.1902,-0.2774,-0.0514,-0.0581,2011
10,0.1729,-0.9431,0.2039,-0.2569,-0.0463,-0.0481,2064
10,0.1667,-0.9465,0.1965,-0.2356,-0.0388,-0.0414,2048
10,0.1653,-0.9502,0.1946,-0.2131,-0.0455,-0.039,2001
10,0.1675,-0.948,0.1912,-0.1989,-0.0377,-0.0358,2058
10,0.1658,-0.9441,0.1946,-0.1776,-0.0285,-0.032,2053
10,0.1694,-0.9536,0.1963,-0.1618,-0.0225,-0.0285,2051
10,0.1787,-0.9502,0.2053,-0.1507,-0.0318,-0.0362,2102
10,0.1738,-0.9795,0.2026,-0.1172,-0.0565,-0.0526,2044
10,0.1912,-0.8967,0.2529,-0.0791,-0.0497,-0.0358,2028
10,0.1792,-0.9102,0.2515,-0.2076,-0.0325,-0.0519,2049
10,0.1711,-1.0249,0.2988,-0.2661,-0.1755,-0.0643,2035
10,0.1616,-0.9463,0.3752,-0.2155,-0.2884,-0.0482,2028
10,0.1233,-0.9431,0.3416,-0.3175,-0.2752,-0.0535,2031
10,0.0991,-0.9944,0.2893,-0.3962,-0.1606,-0.0839,2025
10,0.0974,-0.9771,0.2463,-0.452,-0.1208,-0.1394,2111
10,0.1389,-0.9604,0.2419,-0.5076,-0.1518,-0.2069,2059
10,0.2058,-0.9346,0.2434,-0.5344,-0.1462,-0.2203,2021
10,0.2366,-0.9285,0.2383,-0.545,-0.1309,-0.1894,2064
10,0.2119,-0.9814,0.2405,-0.5359,-0.0995,-0.141,2055
10,0.1609,-1.0166,0.2424,-0.5243,-0.1498,-0.1057,1943
10,0.1248,-0.9985,0.2192,-0.5332,-0.2513,-0.0992,2094
10,0.1394,-0.9788,0.188,-0.541,-0.3135,-0.1324,2109
10,0.1848,-0.9429,0.1604,-0.5645,-0.3209,-0.1834,2070
10,0.2144,-0.9316,0.1321,-0.5721,-0.2655,-0.2237,2007
10,0.2068,-0.9336,0.1311,-0.5561,-0.2048,-0.236,1941
10,0.1914,-0.9246,0.1406,-0.5176,-0.174,-0.2292,2017
10,0.1885,-0.98,0.1365,-0.4902,-0.1505,-0.1979,2021
10,0.2097,-0.9766,0.1096,-0.4558,-0.1962,-0.1673,2096
10,0.2168,-0.9666,0.0974,-0.4259,-0.2272,-0.175,2131
10,0.2407,-0.9753,0.0938,-0.4109,-0.2168,-0.1567,2005
10,0.2407,-0.9512,0.0996,-0.3923,-0.2458,-0.1511,2055
10,0.2366,-0.9561,0.1162,-0.3558,-0.2546,-0.1575,2063
10,0.2268,-0.9478,0.1292,-0.3328,-0.2594,-0.1422,2105
10,0.2029,-0.9607,0.1284,-0.3212,-0.2462,-0.1348,2064
10,0.1807,-0.9563,0.1272,-0.3076,-0.2326,-0.1192,2054
10,0.1863,-0.9607,0.1375,-0.3131,-0.244,-0.1204,2008
10,0.1936,-0.9541,0.1509,-0.32,-0.2468,-0.1442,2051
10,0.2229,-0.9683,0.144,-0.3369,-0.2215,-0.147,2017
10,0.2178,-0.9561,0.136,-0.335,-0.2024,-0.1513,2123
10,0.2244,-0.9675,0.1165,-0.3308,-0.1758,-0.1388,1971
10,0.2332,-0.9636,0.1052,-0.3221,-0.1752,-0.1232,1987
10,0.2417,-0.9604,0.0925,-0.3173,-0.1854,-0.116,2050
10,0.2407,-0.9553,0.1013,-0.3125,-0.1866,-0.1059,1958
10,0.259,-0.9541,0.0989,-0.302,-0.1776,-0.1031,2073
10,0.2522,-0.95,0.0896,-0.2851,-0.1735,-0.0955,2040
10,0.239,-0.9426,0.0811,-0.2665,-0.142,-0.0831,2024
10,0.2397,-0.959,0.0798,-0.2453,-0.1276,-0.0744,2014
10,0.2405,-0.9717,0.0781,-0.2301,-0.1222,-0.0609,1988
10,0.239,-0.9658,0.0896,-0.2264,-0.1186,-0.0605,2045
10,0.2283,-0.9563,0.1016,-0.2197,-0.1157,-0.0542,2015
11,0.2239,-0.9563,0.1113,-0.2281,-0.1092,-0.0567,2097
11,0.2241,-0.9561,0.1072,-0.2245,-0.1104,-0.0611,2026
11,0.22,-0.9531,0.0969,-0.2258,-0.1056,-0.0655,2031
11,0.229,-0.9619,0.0933,-0.2212,-0.0915,-0.0643,2080
11,0.2314,-0.9612,0.0825,-0.2145,-0.0739,-0.0643,2084
11,0.2393,-0.9578,0.083,-0.2083,-0.0645,-0.0649,2050
11,0.2437,-0.9626,0.0854,-0.2009,-0.0493,-0.0513,2047
11,0.2534,-0.9612,0.0823,-0.1852,-0.0451,-0.0477,2019
11,0.2429,-0.9607,0.0796,-0.1751,-0.0306,-0.0417,2068
11,0.2441,-0.9661,0.0735,-0.1686,-0.0182,-0.028,2046
11,0.2393,-0.9604,0.0789,-0.1667,-0.0269,-0.0237,2127
11,0.2397,-0.9685,0.0806,-0.1559,-0.0257,-0.0248,2071
11,0.2388,-0.9614,0.0835,-0.1503,-0.0194,-0.0192,2021
11,0.2366,-0.9626,0.0867,-0.147,-0.0218,-0.0216,2038
11,0.2366,-0.9663,0.0879,-0.1414,-0.0214,-0.0185,2169
11,0.2395,-0.9583,0.0869,-0.1376,-0.0189,-0.0176,2047
11,0.238,-0.9622,0.0715,-0.1376,-0.0055,-0.025,2061
11,0.2427,-0.9583,0.085,-0.1349,0.0041,-0.0232,2037
11,0.2397,-0.9556,0.0808,-0.1296,0.0164,-0.017,2066
11,0.241,-0.9602,0.0762,-0.12,0.0197,-0.0134,2061
11,0.2375,-0.968,0.0825,-0.1101,0.0213,-0.0112,2044
11,0.2476,-0.9656,0.0774,-0.104,0.0177,-0.0119,2030
11,0.238,-0.9614,0.0938,-0.1083,0.0173,-0.0097,2045
11,0.2388,-0.9639,0.0874,-0.1064,0.0141,-0.0075,2042
11,0.2397,-0.9663,0.0969,-0.1125,0.0201,-0.0117,2022
11,0.231,-0.9692,0.0881,-0.1128,0.0182,-0.0169,2038
11,0.2366,-0.968,0.0879,-0.1153,0.0266,-0.0196,2051
11,0.2402,-0.9683,0.092,-0.1149,0.0216,-0.0188,2018
11,0.2478,-0.9668,0.0947,-0.1149,0.0182,-0.0216,2029
11,0.2451,-0.9634,0.0923,-0.1201,0.0192,-0.0206,2079
11,0.2454,-0.9597,0.0981,-0.1244,0.0204,-0.0169,2058
11,0.2429,-0.9658,0.0859,-0.1238,0.029,-0.0134,2020
11,0.2354,-0.9644,0.0837,-0.1172,0.0201,-0.0099,2105
11,0.2407,-0.9658,0.0955,-0.1197,0.017,-0.0099,2040
11,0.2356,-0.9641,0.0959,-0.1184,0.0105,-0.018,2017
11,0.2349,-0.9595,0.0933,-0.1192,0.0099,-0.0174,2101
11,0.2412,-0.9556,0.0891,-0.1237,0.0134,-0.019,2072
11,0.239,-0.9563,0.0911,-0.1208,0.0133,-0.0209,2043
11,0.2429,-0.9602,0.0884,-0.1173,0.0237,-0.0201,2058
11,0.2405,-0.9641,0.085,-0.1163,0.02,-0.0213,2034
11,0.2461,-0.9614,0.0947,-0.1196,0.0228,-0.0161,2044
11,0.252,-0.9646,0.0874,-0.1175,0.0249,-0.0165,2044
11,0.2498,-0.9675,0.0908,-0.1196,0.0194,-0.0134,2059
11,0.2537,-0.9634,0.0889,-0.1213,0.0194,-0.0111,2015
11,0.2412,-0.9602,0.0852,-0.1222,0.0144,-0.0127,2041
11,0.2373,-0.9634,0.0906,-0.1198,0.015,-0.0123,2048
11,0.2349,-0.9592,0.0999,-0.1258,0.015,-0.0165,2066
11,0.2461,-0.9663,0.1021,-0.1264,0.014,-0.0182,2114
11,0.239,-0.9692,0.0869,-0.1272,0.0116,-0.0184,2003
11,0.2454,-0.9675,0.0962,-0.134,0.0113,-0.0192,2043
11,0.2434,-0.9607,0.0894,-0.1321,0.0142,-0.0204,2070
11,0.2395,-0.9648,0.0928,-0.1341,0.0116,-0.0237,2084
11,0.2476,-0.968,0.0913,-0.1357,0.0153,-0.0198,2051
11,0.2434,-0.9675,0.0784,-0.1368,0.0161,-0.0181,2019
11,0.2395,-0.9592,0.0867,-0.1308,0.0208,-0.0166,2068
11,0.2544,-0.9629,0.0798,-0.1294,0.0213,-0.0129,2028
11,0.2434,-0.958,0.0818,-0.1216,0.0131,-0.0134,2039
11,0.2473,-0.9656,0.0862,-0.1196,0.0164,-0.0095,2080
11,0.2429,-0.9663,0.0889,-0.1186,0.0224,-0.0136,2043
11,0.2493,-0.9673,0.0818,-0.118,0.021,-0.0087,2033
11,0.2385,-0.9609,0.0886,-0.1216,0.0116,-0.0137,2044
11,0.2346,-0.967,0.0898,-0.1236,0.0123,-0.0142,2022
11,0.2454,-0.9675,0.0911,-0.1252,0.0116,-0.0108,2069
11,0.2434,-0.9614,0.0913,-0.1286,0.0091,-0.0132,2067
11,0.2463,-0.9639,0.0884,-0.1325,0.0108,-0.0112,2058
11,0.2432,-0.96,0.0823,-0.138,0.0116,-0.0182,2125
11,0.2463,-0.9648,0.084,-0.137,0.0169,-0.0157,2047
11,0.2512,-0.9646,0.0764,-0.1337,0.0205,-0.0107,2010
11,0.2539,-0.9602,0.0842,-0.1238,0.0192,-0.0101,2007
11,0.2463,-0.9648,0.0825,-0.1226,0.0146,-0.0052,2043
11,0.2478,-0.9624,0.0786,-0.1222,0.0132,-0.0095,2073
11,0.2505,-0.9575,0.0891,-0.1175,0.0137,-0.0053,2016
11,0.2427,-0.9634,0.0913,-0.12,0.0146,-0.0097,2032
11,0.2456,-0.9609,0.0913,-0.1196,0.0152,-0.0107,2041
11,0.2449,-0.9609,0.0886,-0.1229,0.0134,-0.0119,2030
11,0.2461,-0.9634,0.0896,-0.1245,0.0142,-0.0133,1985
11,0.2495,-0.969,0.0916,-0.1242,0.0168,-0.0125,2052
11,0.25,-0.9639,0.0842,-0.1293,0.0242,-0.0079,2049
11,0.2439,-0.9636,0.0745,-0.1238,0.0209,-0.0091,2035
11,0.2507,-0.9614,0.0847,-0.1233,0.0236,-0.0049,2030
11,0.2429,-0.9634,0.0913,-0.1193,0.0226,-0.0029,2047
11,0.2473,-0.9629,0.082,-0.1202,0.0185,-0.0052,2064
11,0.2417,-0.9666,0.0835,-0.1218,0.0173,-0.0075,2036
11,0.2439,-0.9595,0.0847,-0.1205,0.0208,-0.0045,2054
11,0.2456,-0.9634,0.0894,-0.1217,0.0193,-0.0036,2036
11,0.2473,-0.9653,0.0833,-0.1306,0.022,-0.0084,2040
11,0.2434,-0.9626,0.0933,-0.1282,0.019,-0.0075,2019
11,0.2471,-0.9683,0.0889,-0.1318,0.0173,-0.0083,2074
11,0.2468,-0.9717,0.0923,-0.1266,0.0173,-0.0072,2055
11,0.2451,-0.9587,0.0923,-0.1278,0.0154,-0.0115,2020
11,0.2483,-0.9661,0.0803,-0.1274,0.0181,-0.008,1971
11,0.2476,-0.9641,0.082,-0.1276,0.0144,-0.0109,2052
11,0.2468,-0.9675,0.0881,-0.1268,0.0142,-0.0109,2053
11,0.2429,-0.9604,0.085,-0.128,0.0142,-0.0097,2075
11,0.2461,-0.9622,0.0864,-0.1292,0.0136,-0.0068,2038
11,0.2417,-0.9656,0.0798,-0.1276,0.0192,-0.0065,1997
11,0.2388,-0.9663,0.0801,-0.1273,0.0168,-0.0091,2025
11,0.2405,-0.9639,0.082,-0.1276,0.0127,-0.0083,2024
11,0.2483,-0.9592,0.0854,-0.1258,0.008,-0.0095,2042
11,0.25,-0.9651,0.0889,-0.1298,0.0068,-0.0134,2036
11,0.2517,-0.9644,0.0864,-0.13,0.0128,-0.0079,2027
11,0.2451,-0.9653,0.0715,-0.1256,0.0205,-0.0089,2020
11,0.2456,-0.9604,0.0718,-0.1185,0.0154,-0.0072,2077
11,0.2429,-0.9651,0.0793,-0.1168,0.0208,-0.0012,2030
11,0.2454,-0.9666,0.0962,-0.1144,0.023,-0.0011,2042
11,0.2422,-0.9622,0.0845,-0.1163,0.0214,-0.0011,1934
11,0.24,-0.9619,0.0835,-0.1111,0.0236,-0.0031,2043
11,0.2441,-0.9607,0.0894,-0.1149,0.0204,-0.0041,1973
11,0.2483,-0.9705,0.0796,-0.1112,0.0225,-0.0109,2073
11,0.2434,-0.96,0.0835,-0.112,0.0201,-0.0065,2041
11,0.2495,-0.9622,0.0835,-0.1141,0.0281,-0.0109,2068
12,0.248,-0.9619,0.0854,-0.114,0.0233,-0.004,2056
12,0.2434,-0.9656,0.0872,-0.1133,0.0261,-0.0041,2043
12,0.2412,-0.9651,0.0847,-0.1127,0.0286,-0.0031,2017
12,0.2439,-0.9653,0.0859,-0.1144,0.0268,-0.0055,2017
12,0.2405,-0.9675,0.084,-0.1101,0.0228,-0.0063,2045
12,0.2466,-0.9614,0.0837,-0.1131,0.0217,-0.0069,2038
12,0.2449,-0.9661,0.0859,-0.1152,0.021,-0.0123,2047
12,0.2556,-0.9646,0.0784,-0.1164,0.0202,-0.0081,2050
12,0.2407,-0.9658,0.0894,-0.1177,0.0184,-0.0079,2055
12,0.25,-0.9639,0.0789,-0.1159,0.0193,-0.0097,2060
12,0.2471,-0.967,0.0916,-0.1234,0.0261,-0.0079,2071
12,0.2488,-0.9653,0.0759,-0.1153,0.0229,-0.0063,2054
12,0.2495,-0.9644,0.082,-0.1184,0.0214,-0.0035,1988
12,0.2422,-0.9626,0.0806,-0.1156,0.0204,-0.0101,2102
12,0.2412,-0.9619,0.0793,-0.1204,0.0226,-0.008,2020
12,0.2437,-0.9663,0.0801,-0.1139,0.0294,-0.008,2027
12,0.2522,-0.9675,0.0833,-0.1164,0.0245,-0.0073,1987
12,0.2483,-0.9673,0.0872,-0.1101,0.0264,-0.0047,2033
12,0.2461,-0.9658,0.0859,-0.1152,0.025,-0.0045,2039
12,0.2432,-0.9651,0.0754,-0.1127,0.022,-0.0064,2003
12,0.2444,-0.9736,0.0845,-0.1112,0.0249,-0.0053,2033
12,0.2437,-0.9583,0.0869,-0.1123,0.0264,-0.0061,2069
12,0.2468,-0.9639,0.0818,-0.1165,0.0201,-0.0065,2068
12,0.2493,-0.9673,0.0903,-0.1177,0.015,-0.0076,2036
12,0.2478,-0.9614,0.0847,-0.1228,0.0273,-0.0113,2009
12,0.2471,-0.9683,0.0774,-0.122,0.0302,-0.0088,2077
12,0.2439,-0.9641,0.0776,-0.1226,0.0236,-0.0071,2049
12,0.2429,-0.9653,0.0808,-0.1148,0.0213,-0.0056,2063
12,0.2451,-0.9609,0.0886,-0.1148,0.017,-0.0041,2066
12,0.2446,-0.9653,0.0967,-0.1175,0.0174,-0.0071,2010
12,0.2517,-0.9675,0.0789,-0.1188,0.0192,-0.012,2002
12,0.2456,-0.9675,0.0879,-0.1185,0.0188,-0.012,1994
12,0.2415,-0.9604,0.0835,-0.1229,0.0229,-0.01,2057
12,0.2463,-0.9707,0.0854,-0.1177,0.0192,-0.0154,1972
12,0.249,-0.9573,0.0815,-0.1176,0.0245,-0.0105,2045
12,0.2417,-0.9675,0.0835,-0.1181,0.0172,-0.0085,2052
12,0.2437,-0.9612,0.0833,-0.1175,0.0161,-0.0093,2053
12,0.2446,-0.9678,0.0935,-0.121,0.0182,-0.01,2042
12,0.2407,-0.9634,0.0918,-0.1245,0.0166,-0.0124,2040
12,0.2488,-0.9648,0.0803,-0.1212,0.0149,-0.0107,2050
12,0.2473,-0.9639,0.0857,-0.121,0.0212,-0.0116,2064
12,0.2461,-0.9573,0.0835,-0.1242,0.022,-0.0112,2081
12,0.2461,-0.9622,0.0842,-0.1234,0.0257,-0.0064,2039
12,0.2466,-0.9597,0.0815,-0.1213,0.0229,-0.0119,2073
12,0.2432,-0.967,0.085,-0.127,0.0208,-0.0116,2002
12,0.2422,-0.9641,0.085,-0.1221,0.0208,-0.0127,2055
12,0.2378,-0.9619,0.0857,-0.1217,0.0194,-0.0112,2001
12,0.2485,-0.9646,0.0876,-0.121,0.0184,-0.0093,2055
12,0.2444,-0.9636,0.0872,-0.1209,0.017,-0.0136,2058
12,0.2476,-0.9631,0.0806,-0.1245,0.0172,-0.0134,2021
12,0.2424,-0.9648,0.082,-0.1212,0.021,-0.0131,2048
12,0.2415,-0.9663,0.0818,-0.1226,0.0213,-0.0131,2027
12,0.2449,-0.9666,0.0833,-0.124,0.0192,-0.0097,1992
12,0.2468,-0.9641,0.0835,-0.1194,0.0218,-0.0127,2054
12,0.2498,-0.9651,0.0754,-0.1224,0.0218,-0.0099,2050
12,0.2388,-0.9636,0.0762,-0.1221,0.0264,-0.006,2071
12,0.2468,-0.96,0.0815,-0.119,0.0208,-0.0101,2006
12,0.2471,-0.967,0.0825,-0.119,0.0164,-0.0099,2056
12,0.2429,-0.9661,0.0891,-0.1217,0.0161,-0.0087,2035
12,0.2556,-0.9609,0.0884,-0.1234,0.0194,-0.0121,2058
12,0.2461,-0.9668,0.0798,-0.1242,0.0233,-0.0107,2053
12,0.2466,-0.9683,0.0671,-0.1206,0.0328,-0.0124,2017
12,0.2444,-0.9673,0.0842,-0.1111,0.0314,-0.0053,2065
12,0.2444,-0.9629,0.0828,-0.1124,0.0304,-0.0024,2053
12,0.2434,-0.9651,0.0845,-0.1108,0.026,-0.0024,1974
12,0.2371,-0.9583,0.0815,-0.1121,0.0249,-0.0029,2040
12,0.2354,-0.9624,0.0776,-0.1084,0.0244,-0.0095,1958
12,0.2415,-0.9602,0.0881,-0.1081,0.0236,-0.0095,2042
12,0.2402,-0.9639,0.0825,-0.1063,0.0256,-0.0111,2060
12,0.2505,-0.9607,0.0833,-0.1093,0.0284,-0.0148,2157
12,0.2551,-0.9646,0.0859,-0.1093,0.0304,-0.0115,2016
12,0.2473,-0.9617,0.0867,-0.1115,0.0256,-0.0097,2024
12,0.2495,-0.9602,0.0898,-0.1137,0.0258,-0.008,2057
12,0.2458,-0.9622,0.0862,-0.1127,0.022,-0.0079,2050
12,0.2505,-0.9587,0.083,-0.1172,0.0226,-0.0087,2046
12,0.2483,-0.9644,0.0757,-0.1147,0.0288,-0.0103,2042
12,0.2441,-0.9651,0.0864,-0.1164,0.0238,-0.0104,2077
12,0.2473,-0.9656,0.0762,-0.1141,0.0238,-0.0121,2002
12,0.2478,-0.9644,0.0828,-0.1156,0.025,-0.0084,2065
12,0.2424,-0.9666,0.0803,-0.1201,0.0249,-0.0099,2073
12,0.2473,-0.9619,0.0815,-0.1161,0.0261,-0.0069,1940
12,0.25,-0.9688,0.0801,-0.1188,0.0216,-0.0097,2047
12,0.2476,-0.9631,0.0806,-0.1161,0.0264,-0.012,2061
12,0.2463,-0.9622,0.0789,-0.116,0.0238,-0.0095,2025
12,0.2468,-0.9639,0.0825,-0.1186,0.0244,-0.0089,2064
12,0.2488,-0.9648,0.0798,-0.1145,0.0272,-0.0081,2020
12,0.2444,-0.9626,0.0781,-0.1173,0.0328,-0.0085,2056
12,0.2515,-0.9646,0.0876,-0.1168,0.0262,-0.0072,2033
12,0.2434,-0.9602,0.082,-0.1116,0.0297,-0.0089,2022
12,0.2495,-0.9602,0.0745,-0.1132,0.0276,-0.0068,2085
12,0.2397,-0.9673,0.0767,-0.1131,0.0289,-0.0079,2038
12,0.2441,-0.9614,0.0811,-0.1141,0.0248,-0.0068,2084
12,0.2478,-0.9631,0.0811,-0.1111,0.0277,-0.0067,2081
12,0.2539,-0.9612,0.0911,-0.1111,0.0257,-0.0069,2003
12,0.25,-0.9622,0.082,-0.114,0.0238,-0.0075,2064
12,0.2539,-0.9604,0.0676,-0.1117,0.0364,-0.0065,2044
12,0.2449,-0.9634,0.0679,-0.1028,0.0427,-0.0024,1992
12,0.2485,-0.9587,0.0637,-0.0984,0.0439,0.0028,2054
12,0.2512,-0.9678,0.0806,-0.0956,0.0282,0.0052,1989
12,0.2422,-0.9661,0.085,-0.0949,0.0312,0.0036,2042
12,0.2417,-0.9624,0.0833,-0.0992,0.0273,-0.0043,2037
12,0.2419,-0.9675,0.0886,-0.1011,0.0229,-0.0088,2032
12,0.2395,-0.9695,0.0874,-0.1096,0.0177,-0.0123,2063
13,0.2429,-0.9634,0.0925,-0.1172,0.0172,-0.0152,2043
13,0.2432,-0.9673,0.0945,-0.1196,0.02,-0.017,2009
13,0.2451,-0.9631,0.095,-0.1268,0.015,-0.0201,2073
13,0.2439,-0.9673,0.0891,-0.1342,0.0182,-0.0132,2071
13,0.2456,-0.9658,0.0952,-0.1376,0.0039,-0.0154,1979
13,0.2371,-0.9622,0.0896,-0.1409,-0.004,-0.0145,2032
13,0.2458,-0.9607,0.0942,-0.145,-0.0041,-0.0184,2069
13,0.2485,-0.9607,0.0791,-0.1469,-0.0024,-0.021,2031
13,0.2393,-0.9636,0.0823,-0.1453,0.0036,-0.0236,2040
13,0.2485,-0.9663,0.0752,-0.1466,0.0008,-0.022,2032
13,0.2485,-0.9675,0.0806,-0.1417,0.0069,-0.021,2043
13,0.2505,-0.9587,0.0754,-0.1402,0.0081,-0.0154,2058
13,0.2473,-0.9629,0.0793,-0.1382,0.0093,-0.0134,2005
13,0.2578,-0.9604,0.0801,-0.1361,0.0099,-0.0149,2048
13,0.2488,-0.9663,0.071,-0.1306,0.0088,-0.0113,2067
13,0.2529,-0.9663,0.0693,-0.1334,0.0148,-0.0113,2004
13,0.2515,-0.959,0.0789,-0.1289,0.0137,-0.0115,2055
13,0.2471,-0.9639,0.0723,-0.128,0.0138,-0.0101,2060
13,0.2488,-0.9668,0.0842,-0.1268,0.0127,-0.0092,1992
13,0.2505,-0.9661,0.0728,-0.1246,0.0164,-0.0119,2038
13,0.2449,-0.9597,0.075,-0.1258,0.0165,-0.01,2011
13,0.2444,-0.9597,0.0833,-0.126,0.0201,-0.0105,2042
13,0.2441,-0.9714,0.073,-0.1252,0.0185,-0.0068,1989
13,0.2385,-0.9619,0.071,-0.1221,0.0194,-0.0073,2042
13,0.2471,-0.9666,0.0796,-0.122,0.02,-0.0075,2037
13,0.2522,-0.9697,0.0928,-0.1246,0.0162,-0.0079,2078
13,0.2427,-0.9624,0.0918,-0.1294,0.0141,-0.0138,2037
13,0.2549,-0.9592,0.0742,-0.1274,0.0218,-0.0091,2049
13,0.2517,-0.9607,0.074,-0.1256,0.0257,-0.0088,2036
13,0.2432,-0.9636,0.0752,-0.1186,0.0302,-0.0029,2105
13,0.2495,-0.9612,0.0696,-0.1125,0.0261,-0.0011,1941
13,0.2468,-0.9556,0.0811,-0.1097,0.0213,0.0017,2051
13,0.2419,-0.958,0.0815,-0.1129,0.0276,-0.0027,2035
13,0.2393,-0.967,0.0776,-0.1109,0.0284,-0.0029,2029
13,0.239,-0.9651,0.0742,-0.1064,0.0258,-0.0029,2076
13,0.2419,-0.967,0.0784,-0.1067,0.0272,-0.0076,2040
13,0.2495,-0.9685,0.0854,-0.1075,0.03,-0.006,2048
13,0.2458,-0.9648,0.082,-0.1093,0.0296,-0.0045,2064
13,0.2466,-0.9661,0.0789,-0.1101,0.0301,-0.0051,2000
13,0.2463,-0.9666,0.0771,-0.1097,0.0308,0.0009,2058
13,0.2476,-0.9648,0.0781,-0.1105,0.0294,-0.0033,2065
13,0.2441,-0.9658,0.0793,-0.1107,0.03,-0.0025,2041
13,0.2461,-0.9663,0.0779,-0.1132,0.0277,-0.0071,2051
13,0.2407,-0.9634,0.0781,-0.1156,0.0238,-0.0073,2044
13,0.2417,-0.9646,0.0847,-0.1186,0.0242,-0.0045,2065
13,0.2451,-0.9653,0.0718,-0.1173,0.0277,-0.0072,2050
13,0.2461,-0.9563,0.0791,-0.1194,0.0245,-0.0043,2037
13,0.2473,-0.9641,0.0854,-0.1212,0.0234,-0.0129,1971
13,0.249,-0.9741,0.0791,-0.1194,0.0237,-0.0053,2072
13,0.2473,-0.959,0.0803,-0.1197,0.0229,-0.0055,1992
13,0.2456,-0.9624,0.0718,-0.1217,0.0242,-0.0048,2119
13,0.2488,-0.9631,0.0806,-0.1201,0.0248,-0.0105,2069
13,0.2529,-0.9631,0.0867,-0.1147,0.0257,-0.0076,2049
13,0.2412,-0.9622,0.0811,-0.1147,0.0216,-0.0061,2050
13,0.2441,-0.959,0.0708,-0.1171,0.0281,-0.0037,2042
13,0.2471,-0.9675,0.0862,-0.1148,0.0209,-0.0077,2036
13,0.2461,-0.9641,0.0889,-0.1181,0.0261,-0.0053,2065
13,0.2419,-0.9626,0.0784,-0.1218,0.022,-0.0033,2060
13,0.2451,-0.9597,0.0806,-0.1224,0.0224,-0.0032,2032
13,0.2354,-0.9656,0.0857,-0.1205,0.014,-0.0124,2032
13,0.2424,-0.9651,0.0857,-0.1225,0.0117,-0.0124,2059
13,0.2488,-0.9634,0.0884,-0.1322,0.0095,-0.016,2008
13,0.2483,-0.9668,0.093,-0.1321,0.0084,-0.0169,2006
13,0.2559,-0.9553,0.0754,-0.1353,0.0169,-0.0168,2037
13,0.2524,-0.969,0.073,-0.1314,0.0165,-0.0136,2076
13,0.248,-0.9646,0.0818,-0.1252,0.0181,-0.0104,2063
13,0.25,-0.9658,0.0767,-0.1257,0.0157,-0.0108,2058
13,0.2476,-0.9609,0.075,-0.1217,0.0145,-0.0069,2068
13,0.251,-0.9626,0.0718,-0.1217,0.0209,-0.0081,2046
13,0.2449,-0.9641,0.073,-0.1188,0.0198,-0.0091,2064
13,0.2456,-0.96,0.0737,-0.1144,0.0193,-0.0107,2064
13,0.2515,-0.9666,0.0679,-0.1149,0.0242,-0.008,2013
13,0.2502,-0.9607,0.0754,-0.1113,0.0293,-0.004,2029
13,0.2539,-0.9607,0.082,-0.1116,0.0357,-0.0028,2042
13,0.25,-0.9592,0.0833,-0.1067,0.0314,-0.002,2060
13,0.2476,-0.9583,0.0718,-0.1036,0.0332,0.0003,2052
13,0.2476,-0.969,0.0884,-0.1,0.0362,-0.0024,2035
13,0.2483,-0.9683,0.072,-0.104,0.035,-0.0009,2029
13,0.2485,-0.9648,0.0791,-0.1001,0.0337,0.0033,2070
13,0.2458,-0.9636,0.0916,-0.102,0.0401,0.0003,2020
13,0.2412,-0.9634,0.0845,-0.1037,0.0395,0.0015,2033
13,0.2505,-0.9717,0.0823,-0.1001,0.0385,-0.0012,2057
13,0.2441,-0.9644,0.0742,-0.1019,0.0372,0.0032,1971
13,0.2429,-0.9636,0.0898,-0.1043,0.0398,-0.0017,2065
13,0.2478,-0.9639,0.0862,-0.1063,0.0336,-0.0021,2009
13,0.2444,-0.9583,0.0818,-0.1061,0.0357,-0.0031,2025
13,0.2463,-0.9702,0.0869,-0.1077,0.0329,-0.002,2050
13,0.2454,-0.9609,0.0813,-0.1119,0.0334,-0.0031,2061
13,0.2449,-0.9609,0.0854,-0.1077,0.0304,-0.0025,2047
13,0.2446,-0.9661,0.0903,-0.1135,0.0314,-0.0057,1958
13,0.2439,-0.9678,0.0916,-0.1139,0.0298,-0.0033,2054
13,0.2498,-0.969,0.0845,-0.1151,0.026,0.0,2034
13,0.2468,-0.9717,0.0837,-0.118,0.0254,-0.0047,2101
13,0.2429,-0.9673,0.0815,-0.1186,0.0242,-0.008,2015
13,0.2356,-0.9668,0.0759,-0.1178,0.0226,-0.0056,2029
13,0.2415,-0.969,0.0854,-0.1205,0.0181,-0.0059,2075
13,0.2512,-0.9717,0.0869,-0.122,0.0205,-0.0109,2031
13,0.2454,-0.9636,0.0823,-0.1238,0.0128,-0.012,2114
13,0.2485,-0.96,0.0781,-0.1237,0.0174,-0.0107,2053
13,0.2468,-0.9641,0.0798,-0.1244,0.0233,-0.0099,2064
13,0.2429,-0.9685,0.0847,-0.126,0.0145,-0.0116,2058
13,0.24,-0.9629,0.0857,-0.1237,0.0108,-0.0072,2060
13,0.2356,-0.9663,0.0774,-0.1238,0.0142,-0.0063,2056
14,0.2434,-0.9585,0.0818,-0.1244,0.0113,-0.0097,2048
14,0.2402,-0.9617,0.0784,-0.1276,0.0117,-0.0133,2091
14,0.2471,-0.9648,0.0813,-0.128,0.0105,-0.0162,2003
14,0.2446,-0.9675,0.0881,-0.1282,0.0142,-0.0166,2028
14,0.251,-0.9619,0.0835,-0.1292,0.014,-0.0136,2110
14,0.2493,-0.9644,0.0889,-0.1257,0.0158,-0.0134,2038
14,0.2493,-0.9641,0.0789,-0.1252,0.0128,-0.0132,2063
14,0.2485,-0.9683,0.0842,-0.127,0.0124,-0.0129,2064
14,0.2458,-0.96,0.0696,-0.1286,0.0152,-0.0129,2110
14,0.2522,-0.9629,0.0774,-0.1282,0.0138,-0.0174,1968
14,0.2417,-0.958,0.0798,-0.1262,0.0128,-0.0161,2035
14,0.2488,-0.9648,0.0793,-0.1274,0.0185,-0.0141,2021
14,0.2544,-0.9602,0.0828,-0.1269,0.0204,-0.0186,2084
14,0.2502,-0.9624,0.0862,-0.1262,0.0188,-0.0105,2032
14,0.2454,-0.9617,0.0835,-0.1254,0.0173,-0.0129,2076
14,0.2468,-0.9639,0.0776,-0.1232,0.019,-0.0095,2058
14,0.2507,-0.9668,0.0786,-0.1249,0.016,-0.0108,2081
14,0.2444,-0.9595,0.0886,-0.12,0.0192,-0.0092,2039
14,0.2446,-0.9688,0.0806,-0.1256,0.0166,-0.0117,2058
14,0.2524,-0.9617,0.0742,-0.1232,0.0189,-0.0101,2015
14,0.2493,-0.9619,0.0762,-0.1212,0.0212,-0.0107,2014
14,0.2493,-0.9673,0.0718,-0.1197,0.0206,-0.0103,2049
14,0.2415,-0.9678,0.0842,-0.118,0.0272,-0.0084,2005
14,0.2444,-0.9673,0.0747,-0.1194,0.0208,-0.0085,2047
14,0.2405,-0.9648,0.0811,-0.1168,0.0225,-0.0092,2067
14,0.2458,-0.9619,0.0801,-0.121,0.0225,-0.0128,2062
14,0.2427,-0.9668,0.0774,-0.1153,0.0272,-0.0087,2069
14,0.2454,-0.96,0.0813,-0.118,0.0232,-0.0138,2033
14,0.2517,-0.9629,0.0789,-0.1168,0.0168,-0.0101,2063
14,0.2471,-0.9624,0.0903,-0.1212,0.0165,-0.0128,2067
14,0.2539,-0.9602,0.0862,-0.1196,0.0202,-0.0099,2021
14,0.2532,-0.9617,0.0713,-0.1234,0.0261,-0.0077,2031
14,0.2539,-0.9656,0.0718,-0.1173,0.0306,-0.008,2058
14,0.2527,-0.9583,0.075,-0.112,0.0329,-0.0037,2069
14,0.2463,-0.9648,0.0747,-0.1105,0.024,-0.004,2053
14,0.2461,-0.9634,0.0742,-0.1083,0.026,-0.0017,2055
14,0.2485,-0.9624,0.0789,-0.1104,0.0249,-0.004,2045
14,0.2478,-0.9634,0.0793,-0.1056,0.0224,-0.0125,2026
14,0.2437,-0.9658,0.0806,-0.1136,0.0241,-0.0116,2003
14,0.2476,-0.9641,0.0842,-0.1116,0.023,-0.0142,2051
14,0.2522,-0.9602,0.084,-0.1089,0.0249,-0.0112,2037
14,0.2466,-0.9619,0.0837,-0.1119,0.0306,-0.0111,2055
14,0.2524,-0.9629,0.0747,-0.11,0.028,-0.0081,2049
14,0.249,-0.9641,0.0757,-0.1139,0.0292,-0.0065,2056
14,0.2439,-0.9629,0.084,-0.1141,0.0225,-0.0085,2001
14,0.2446,-0.9644,0.0784,-0.1133,0.0248,-0.0043,2049
14,0.2451,-0.9644,0.0798,-0.1131,0.024,-0.0055,2064
14,0.2478,-0.9634,0.0776,-0.1133,0.029,-0.0088,2026
14,0.2478,-0.9648,0.0784,-0.1107,0.0296,-0.0057,2065
14,0.2451,-0.9592,0.0693,-0.1159,0.0308,-0.0081,2015
14,0.2566,-0.9597,0.0793,-0.1144,0.0341,-0.0064,2030
14,0.2427,-0.9604,0.0862,-0.1089,0.0282,-0.0063,2054
14,0.2498,-0.967,0.0752,-0.1075,0.029,-0.0048,2086
14,0.2483,-0.9673,0.0806,-0.1103,0.0272,-0.0084,2040
14,0.2456,-0.9607,0.0762,-0.1119,0.027,-0.0091,2039
14,0.2441,-0.9624,0.0774,-0.1105,0.0321,-0.0069,2046
14,0.2554,-0.9709,0.0811,-0.1065,0.0324,-0.0045,2024
14,0.2478,-0.9539,0.083,-0.1091,0.0289,-0.0087,2061
14,0.2507,-0.9675,0.0774,-0.1095,0.027,-0.0052,2046
14,0.2444,-0.9644,0.0786,-0.1101,0.0305,-0.0051,2055
14,0.2473,-0.9597,0.0781,-0.1135,0.0313,-0.0047,2047
14,0.2463,-0.9619,0.0767,-0.1109,0.0264,-0.0073,2135
14,0.2449,-0.9678,0.073,-0.1125,0.0234,-0.0109,2013
14,0.2493,-0.9668,0.0837,-0.1156,0.023,-0.0057,2032
14,0.2463,-0.9597,0.0872,-0.1165,0.0189,-0.0095,1994
14,0.2524,-0.9646,0.0854,-0.1202,0.0192,-0.0104,2068
14,0.2461,-0.9622,0.0796,-0.1236,0.0268,-0.0124,2046
14,0.249,-0.959,0.0737,-0.1192,0.0328,-0.0096,2027
14,0.2571,-0.9658,0.0796,-0.1128,0.0349,-0.006,2039
14,0.2468,-0.9597,0.0776,-0.1113,0.0238,-0.0032,2082
14,0.2468,-0.9619,0.0791,-0.1085,0.0206,-0.0015,2007
14,0.2461,-0.9614,0.0752,-0.1116,0.0157,-0.0012,2044
14,0.2444,-0.9624,0.0747,-0.1119,0.0158,-0.0065,2037
14,0.2422,-0.9617,0.0867,-0.1148,0.0202,-0.0079,2097
14,0.2456,-0.9602,0.0823,-0.1184,0.0178,-0.0154,2050
14,0.2437,-0.9653,0.0825,-0.1213,0.018,-0.0161,2020
14,0.252,-0.9626,0.0986,-0.1244,0.0166,-0.0105,2035
14,0.2485,-0.9583,0.0837,-0.1264,0.0188,-0.0088,2025
14,0.2427,-0.9685,0.085,-0.1309,0.0133,-0.0096,2039
14,0.2432,-0.9641,0.085,-0.131,0.0095,-0.0112,2072
14,0.2461,-0.9595,0.0781,-0.1289,0.0081,-0.0144,2061
14,0.2495,-0.9634,0.0789,-0.136,0.0044,-0.0169,1999
14,0.2476,-0.9587,0.0833,-0.134,0.0101,-0.019,2027
14,0.2441,-0.9624,0.0742,-0.1358,0.0077,-0.0166,2064
14,0.2495,-0.9604,0.0786,-0.1361,0.0129,-0.02,2017
14,0.2534,-0.9622,0.0801,-0.135,0.0067,-0.012,2082
14,0.249,-0.9634,0.0811,-0.1337,0.0115,-0.0116,2053
14,0.2512,-0.9692,0.083,-0.1334,0.0111,-0.0103,2060
14,0.2461,-0.9695,0.0784,-0.1296,0.0111,-0.0136,2057
14,0.2488,-0.9592,0.0771,-0.1262,0.0112,-0.0115,2048
14,0.2483,-0.9648,0.0747,-0.125,0.0158,-0.0101,2011
14,0.2473,-0.9675,0.0801,-0.122,0.0164,-0.0119,2060
14,0.2529,-0.9626,0.0752,-0.1257,0.0212,-0.0088,2013
14,0.2537,-0.9629,0.0754,-0.1249,0.0164,-0.0041,2045
14,0.2473,-0.9634,0.0762,-0.1249,0.0238,-0.0069,2033
14,0.2515,-0.9614,0.0764,-0.125,0.022,-0.0037,2049
14,0.2463,-0.9624,0.0706,-0.1217,0.0204,-0.0065,2043
14,0.252,-0.9668,0.0742,-0.1225,0.023,-0.0063,2053
14,0.2478,-0.9609,0.0649,-0.1241,0.02,-0.0077,2051
14,0.2397,-0.9661,0.0803,-0.1172,0.0134,-0.0055,2067
14,0.2505,-0.9629,0.0796,-0.1218,0.0148,-0.0083,2045
14,0.2495,-0.9624,0.0862,-0.1246,0.0144,-0.006,2038
15,0.2534,-0.967,0.0767,-0.124,0.0257,-0.0095,2045
15,0.2451,-0.9644,0.0679,-0.1193,0.0248,-0.0076,2071
15,0.2537,-0.9644,0.0728,-0.1181,0.0257,-0.0035,2066
15,0.2512,-0.9602,0.0725,-0.1135,0.0237,-0.0023,2064
15,0.2515,-0.9646,0.0786,-0.1176,0.0204,-0.0008,2039
15,0.2458,-0.9524,0.0696,-0.1151,0.0225,-0.0088,2031
15,0.2461,-0.9651,0.0723,-0.116,0.0172,-0.008,2043
15,0.2488,-0.9646,0.0757,-0.1181,0.0193,-0.0089,2026
15,0.2505,-0.9644,0.0828,-0.1135,0.0193,-0.006,2072
15,0.2456,-0.9661,0.0764,-0.1149,0.0245,-0.0091,2074
15,0.2515,-0.9668,0.075,-0.1165,0.0277,-0.0064,2010
15,0.2502,-0.958,0.0708,-0.1208,0.0273,-0.0041,2056
15,0.241,-0.9614,0.0769,-0.1181,0.0302,-0.0036,2009
15,0.2419,-0.9597,0.0688,-0.1198,0.0333,-0.0033,2058
15,0.2371,-0.9575,0.0776,-0.1159,0.0285,-0.006,2051
15,0.2424,-0.9663,0.0771,-0.1213,0.0304,-0.0097,2042
15,0.2539,-0.9673,0.0896,-0.1268,0.0385,-0.0142,2041
15,0.2517,-0.9651,0.0815,-0.1313,0.0389,-0.0084,2045
15,0.2393,-0.9553,0.0693,-0.1338,0.0398,-0.0087,2032
15,0.2446,-0.9641,0.0869,-0.1332,0.0384,-0.0071,2069
15,0.2412,-0.9731,0.0896,-0.1346,0.0321,-0.0047,2042
15,0.2485,-0.967,0.0906,-0.1368,0.0338,0.0007,2028
15,0.2544,-0.9641,0.083,-0.1425,0.0262,-0.0027,2072
15,0.2458,-0.9702,0.085,-0.1518,0.0252,0.0007,2104
15,0.2463,-0.9685,0.0803,-0.1534,0.0261,0.0037,2015
15,0.2402,-0.9622,0.0713,-0.1555,0.0407,0.006,2067
15,0.2354,-0.9751,0.0696,-0.151,0.0381,0.0035,2020
15,0.2441,-0.9651,0.0757,-0.1482,0.0372,-0.0029,2056
15,0.262,-0.9509,0.0688,-0.1502,0.0273,-0.0031,2005
15,0.259,-0.9644,0.0574,-0.1518,0.028,-0.0056,2064
15,0.2563,-0.9583,0.0591,-0.1542,0.0224,-0.0059,2061
15,0.2495,-0.967,0.0776,-0.1559,0.0209,-0.0093,2085
15,0.2441,-0.9763,0.0713,-0.1502,0.0162,-0.0079,2017
15,0.2439,-0.9646,0.0728,-0.1525,0.0035,-0.0095,2040
15,0.2358,-0.9658,0.092,-0.157,-0.0033,-0.0119,2056
15,0.2371,-0.97,0.0862,-0.1625,-0.0043,-0.0091,2017
15,0.2385,-0.967,0.0791,-0.1691,0.01,-0.0149,2042
15,0.241,-0.9678,0.072,-0.1783,0.0051,-0.0246,2044
15,0.2434,-0.9729,0.0745,-0.1826,0.0096,-0.0242,2041
15,0.2505,-0.9607,0.0691,-0.1824,0.0233,-0.0281,2044
15,0.2454,-0.9575,0.0618,-0.1867,0.0282,-0.0286,2077
15,0.2444,-0.9614,0.0593,-0.1779,0.0189,-0.0306,2032
15,0.2478,-0.9653,0.0613,-0.1774,0.0,-0.0354,2050
15,0.2471,-0.9651,0.0696,-0.1815,-0.012,-0.0389,2065
15,0.2476,-0.9692,0.0691,-0.1858,-0.0217,-0.037,2004
15,0.2407,-0.9641,0.0728,-0.1883,-0.0222,-0.0397,2044
15,0.2432,-0.9678,0.0667,-0.1919,-0.0172,-0.045,2054
15,0.2483,-0.967,0.0669,-0.1965,-0.0092,-0.0437,2041
15,0.2473,-0.9644,0.0571,-0.1947,0.0019,-0.0423,2032
15,0.2385,-0.9678,0.0557,-0.194,0.0101,-0.036,2047
15,0.2478,-0.9639,0.0527,-0.1871,0.0277,-0.0286,2037
15,0.2515,-0.9563,0.0479,-0.1786,0.0288,-0.0316,1987
15,0.2571,-0.9553,0.0413,-0.171,0.0273,-0.0406,2061
15,0.2654,-0.9653,0.0391,-0.1635,0.0264,-0.0384,2109
15,0.2644,-0.9646,0.0378,-0.1465,0.034,-0.0377,2028
15,0.2551,-0.9663,0.0347,-0.1405,0.033,-0.0301,2032
15,0.2544,-0.9619,0.054,-0.1277,0.0302,-0.0289,2065
15,0.248,-0.9692,0.0603,-0.1209,0.024,-0.0314,2031
15,0.2517,-0.9746,0.0652,-0.1229,0.0238,-0.0332,2071
15,0.2424,-0.969,0.0632,-0.1256,0.0148,-0.0325,2029
15,0.2444,-0.9573,0.0713,-0.1376,0.0097,-0.0421,2053
15,0.2388,-0.968,0.0718,-0.1478,0.0043,-0.0449,2048
15,0.241,-0.9602,0.0759,-0.1591,0.0076,-0.0486,2051
15,0.2529,-0.9585,0.0613,-0.1599,0.0136,-0.0565,2064
15,0.2681,-0.9526,0.0549,-0.1518,0.0138,-0.0569,2051
15,0.2688,-0.9438,0.0513,-0.143,0.0165,-0.0569,2020
15,0.2783,-0.9456,0.0366,-0.1258,0.0361,-0.0537,2048
15,0.2671,-0.9595,0.0239,-0.0872,0.0477,-0.0389,2021
15,0.2793,-0.9624,0.0183,-0.0538,0.0541,-0.0293,2000
15,0.2676,-0.9565,0.0034,-0.0338,0.0475,-0.0256,2050
15,0.2588,-0.9497,0.0183,-0.0276,0.045,-0.0193,2034
15,0.2498,-0.95,0.0391,-0.0081,0.0581,-0.0144,2070
15,0.2551,-0.9602,0.0347,0.0165,0.0928,-0.0003,2033
15,0.2683,-0.9597,0.031,0.0336,0.0976,-0.0032,2037
15,0.2637,-0.9656,0.0542,0.041,0.0844,-0.0003,2058
15,0.28,-0.9561,0.0652,0.0469,0.0957,0.0028,1994
15,0.2708,-0.9561,0.0718,0.0475,0.1198,0.016,2075
15,0.2717,-0.9644,0.0681,0.0447,0.1405,0.0233,2054
15,0.2588,-0.9629,0.0583,0.0526,0.139,0.0357,2060
15,0.2656,-0.9578,0.0732,0.0575,0.1152,0.0388,2065
15,0.2568,-0.9624,0.0723,0.0615,0.1048,0.0459,1997
15,0.2588,-0.9653,0.0728,0.0595,0.0989,0.0453,2032
15,0.2571,-0.9602,0.0823,0.0679,0.0965,0.0505,2062
15,0.2527,-0.9673,0.0806,0.0605,0.0902,0.0467,2058
15,0.251,-0.9651,0.0872,0.051,0.0788,0.0539,2048
15,0.2542,-0.959,0.1006,0.0463,0.0811,0.0485,2032
15,0.2451,-0.9644,0.1011,0.03,0.0936,0.0502,2069
15,0.2463,-0.9636,0.1033,0.0205,0.1012,0.047,2052
15,0.2368,-0.9651,0.1074,0.0176,0.116,0.0409,2014
15,0.2407,-0.9709,0.0979,0.0069,0.125,0.0443,2071
15,0.2363,-0.9607,0.0996,0.0047,0.1184,0.0328,1985
15,0.2419,-0.9661,0.0908,-0.0007,0.1091,0.0305,2043
15,0.2402,-0.9578,0.0918,-0.0041,0.1024,0.0205,2066
15,0.2419,-0.9663,0.0876,-0.0097,0.1068,0.0206,2034
15,0.2424,-0.9583,0.094,-0.0031,0.104,0.0172,2044
15,0.2498,-0.9609,0.0908,0.0,0.0973,0.018,2023
15,0.2502,-0.9622,0.0864,0.0051,0.1023,0.0196,2031
15,0.2566,-0.958,0.0833,0.0116,0.1178,0.0306,2052
15,0.259,-0.9575,0.074,0.0241,0.1321,0.0406,2100
15,0.2554,-0.9558,0.0715,0.0423,0.1571,0.0439,2014
15,0.2561,-0.9458,0.0671,0.0695,0.1819,0.0575,2021
