Timestamp,Ax,Ay,Az,Rx,Ry,Rz,EMG
0,-0.1011,-0.9094,0.3101,0.675,1.0826,-0.5233,2063
0,-0.1047,-0.813,0.2429,0.601,1.0757,-0.5317,2043
0,-0.1436,-0.821,0.3765,0.6568,0.7391,-0.4789,2017
0,-0.124,-0.8228,0.2747,0.7244,0.4508,-0.4256,2044
0,-0.2617,-0.8774,0.2334,0.6759,0.3725,-0.3843,2032
0,-0.178,-0.9629,0.2261,0.5393,0.0731,-0.439,2047
0,-0.1169,-0.9487,0.1548,0.3464,0.0049,-0.4999,2048
0,-0.1323,-0.8889,0.0923,0.579,-0.1649,-0.52,2041
0,-0.1968,-0.9509,0.1204,0.8027,0.116,-0.4597,2075
0,-0.2737,-0.9792,0.1445,1.0349,0.5247,-0.4506,2054
0,-0.2466,-1.0271,0.2803,1.0544,1.1861,-0.4285,2032
0,-0.1504,-1.0774,0.3286,0.9286,1.8963,-0.4236,2048
0,-0.0288,-1.0442,0.3252,0.7364,2.3088,-0.4008,2050
0,0.1367,-1.0603,0.4336,0.509,2.5188,-0.4649,2052
0,0.281,-1.0532,0.4565,0.3939,2.2294,-0.4064,2049
0,0.2222,-1.0469,0.4087,0.1956,1.8258,-0.4498,2066
0,0.1677,-1.0464,0.3386,-0.0467,1.3532,-0.4871,2052
0,0.0449,-1.0723,0.3354,-0.2004,0.8004,-0.4517,2052
0,-0.1658,-1.1172,0.3167,-0.4357,0.3276,-0.457,2055
0,-0.4131,-1.0845,0.2976,-0.5746,-0.0743,-0.4055,2047
0,-0.4893,-1.0242,0.2732,-0.5714,-0.3607,-0.3689,2022
0,-0.4121,-1.0129,0.3086,-0.5869,-0.4687,-0.2927,2059
0,-0.3186,-1.1365,0.4026,-0.6528,-0.797,-0.1463,2023
0,-0.3071,-1.0938,0.4153,-0.8797,-1.1882,-0.0594,2012
0,-0.2737,-1.0229,0.4668,-0.7783,-1.4688,0.039,2048
0,-0.3081,-1.0981,0.6494,-0.7167,-1.952,0.1551,2052
0,-0.3687,-1.0938,0.6394,-0.6629,-2.2497,0.2312,2049
0,-0.3513,-1.0291,0.5227,-0.589,-2.2121,0.2521,2053
0,-0.2966,-0.9861,0.428,-0.5813,-2.1984,0.2491,2061
0,-0.3337,-0.866,0.3777,-0.3408,-2.0991,0.3023,2045
0,-0.356,-0.8967,0.4902,0.0621,-1.9996,0.4046,2051
0,-0.3206,-0.9875,0.6152,0.3476,-1.7708,0.4554,2038
0,-0.3071,-1.0752,0.5679,0.3268,-1.4392,0.5168,2028
0,-0.167,-1.1938,0.5076,0.1585,-1.3155,0.5739,2023
0,0.0042,-1.2717,0.3865,-0.1641,-1.4029,0.4235,2081
0,0.1416,-1.3044,0.2324,-0.3891,-1.7648,0.243,2057
0,0.0984,-1.2231,0.0098,-0.282,-2.0863,0.2417,2102
0,-0.0781,-1.1113,0.1311,-0.0403,-2.1846,0.3537,2051
0,-0.2043,-1.1213,0.2336,-0.0174,-1.605,0.3762,2034
0,-0.2637,-1.051,0.2014,0.1365,-1.1774,0.1911,2019
0,-0.2849,-1.1682,0.168,-0.0197,-0.8875,0.0666,2045
0,-0.2004,-1.1924,0.1484,-0.1372,-0.5556,-0.0615,2044
0,-0.071,-1.1812,0.1316,-0.2603,-0.4486,-0.1017,2047
0,0.0203,-1.1926,0.1985,-0.381,-0.5855,-0.0513,1974
0,0.0271,-1.2266,0.3228,-0.5251,-0.7219,0.0304,2067
0,-0.0383,-1.2275,0.3855,-0.6265,-0.8344,0.0723,2069
0,-0.1272,-1.1841,0.4573,-0.6665,-0.9907,0.0609,2046
0,-0.2029,-1.1006,0.4075,-0.4611,-0.9566,0.0208,2065
0,-0.1975,-1.0913,0.469,-0.3273,-1.0642,-0.0977,2072
0,-0.082,-1.1301,0.522,-0.3211,-1.4015,-0.1827,2017
0,0.0789,-1.187,0.5042,-0.3577,-1.8217,-0.1775,2058
0,-0.0288,-1.2542,0.4026,-0.1844,-2.0136,0.0867,2038
0,-0.4124,-1.238,0.502,-0.1819,-1.4354,0.2601,2005
0,-0.3867,-1.1006,0.449,-0.3035,-0.7339,0.188,1999
0,-0.2795,-1.0735,0.3052,-0.1819,-0.459,0.1888,2029
0,-0.134,-1.1294,0.1575,-0.1962,-0.1991,0.1258,2109
0,0.0137,-1.0764,0.1257,-0.216,-0.2545,0.0835,2064
0,0.1282,-1.0601,0.1792,-0.2268,-0.7094,0.0688,2061
0,0.1582,-1.085,0.1152,-0.2486,-0.977,0.0784,2099
0,-0.0005,-1.01,0.2083,-0.3657,-0.985,0.1268,2040
0,-0.064,-0.8821,0.1211,-0.3108,-0.768,0.0513,2107
0,-0.1423,-0.9045,0.1104,-0.299,-0.7939,0.0059,2042
0,-0.1213,-0.9397,0.1489,-0.1911,-0.697,-0.0225,2009
0,0.0164,-1.0049,0.1196,-0.1589,-0.6051,-0.0668,2159
0,0.1001,-0.9668,0.2515,-0.2896,-0.6947,-0.0486,2026
0,0.0723,-0.8645,0.2937,-0.3127,-0.6493,0.0284,2010
0,0.0728,-0.8462,0.2791,-0.3045,-0.4516,0.0659,1992
0,0.0425,-0.8311,0.2715,-0.3048,-0.4549,0.0435,2019
0,0.1187,-0.8066,0.2722,-0.2906,-0.5032,-0.0084,2125
0,0.1953,-0.8225,0.2449,-0.1244,-0.587,-0.0547,2077
0,0.1313,-0.8403,0.2451,-0.0352,-0.5237,-0.1252,2032
0,0.0852,-0.8115,0.2781,0.0655,-0.4918,-0.1605,2028
0,0.1277,-0.8752,0.325,-0.0166,-0.4936,-0.1743,2034
0,0.1641,-0.8652,0.2124,-0.051,-0.3159,-0.1718,2053
0,-0.0117,-0.8132,0.1355,-0.0354,-0.2879,-0.2333,2032
0,-0.1907,-0.8191,0.1313,-0.0224,-0.1376,-0.2188,2032
0,-0.155,-0.8262,0.1453,-0.0406,-0.086,-0.2226,2049
0,-0.0081,-0.9189,0.0994,-0.0642,0.0453,-0.1981,2021
0,-0.1138,-0.8525,0.0588,-0.0662,0.002,-0.1923,1933
0,-0.2219,-0.7832,-0.0645,0.0481,0.0716,-0.2108,2069
0,-0.209,-0.8557,-0.0557,0.0907,0.1167,-0.1743,2058
0,-0.1335,-0.8738,-0.0479,0.034,0.1689,-0.0735,2040
0,-0.0747,-0.8359,-0.0081,-0.1013,0.1441,-0.0166,2134
0,0.085,-0.9097,0.0576,-0.2482,-0.0569,-0.0338,2053
0,0.2634,-0.894,0.0984,-0.3605,-0.4524,-0.0286,2163
0,0.2502,-0.7974,0.2114,-0.4135,-0.9891,-0.092,2050
0,0.2668,-0.7571,0.2661,-0.3904,-1.4089,-0.1077,2062
0,0.1914,-0.8076,0.2737,-0.3722,-1.6052,-0.0687,2067
0,0.1758,-0.8528,0.1831,-0.3603,-1.6717,-0.0649,2071
0,0.0347,-0.905,0.0388,-0.2673,-1.6111,-0.0864,2101
0,-0.0835,-0.9407,0.071,-0.3045,-1.7998,-0.0429,2117
0,0.1208,-1.0872,-0.1035,-0.2189,-1.8825,-0.0376,2051
0,0.4219,-1.1265,-0.1909,-0.3706,-2.0712,-0.0561,2028
0,-0.198,-0.99,-0.0549,-0.447,-2.2148,0.1763,2055
0,-0.5139,-1.0037,0.2114,-0.6695,-2.0478,0.2128,2099
0,-0.2932,-0.9124,0.2549,-0.716,-0.9138,0.2703,2006
0,-0.1926,-0.7446,0.3416,-0.6942,-0.6905,0.236,2068
0,0.0332,-0.719,0.4565,-0.5979,-0.9819,0.2748,2188
0,0.1162,-0.6958,0.4463,-0.6291,-1.0999,0.4008,2028
0,0.1003,-0.7537,0.4768,-0.5593,-1.5077,0.5742,2063
0,0.1211,-0.9011,0.3752,-0.5369,-1.8908,0.7757,2046
0,0.0745,-0.9634,0.2793,-0.5762,-1.9707,0.8869,2057
0,-0.1152,-0.9097,0.1497,-0.6457,-1.7299,0.8875,2056
0,-0.1609,-0.8884,0.0549,-0.667,-1.322,0.8087,2005
0,-0.1243,-0.8596,-0.0295,-0.602,-1.0369,0.768,2028
1,0.0525,-0.8699,-0.0557,-0.5486,-0.9794,0.7725,2051
1,0.1226,-0.8521,-0.0581,-0.5826,-1.1521,0.7829,2074
1,0.0398,-0.8796,-0.0117,-0.6357,-1.4113,0.8195,2036
1,-0.0012,-0.9009,0.062,-0.7352,-1.6704,0.8521,2033
1,-0.0117,-0.8806,0.1582,-0.7763,-1.7673,0.8444,2046
1,-0.1206,-0.8018,0.1743,-0.6687,-1.7354,0.754,2036
1,-0.1426,-0.8525,0.2227,-0.6592,-1.543,0.7188,2043
1,-0.0933,-0.8892,0.2144,-0.5307,-1.3656,0.6909,2072
1,0.0212,-0.9573,0.1841,-0.4231,-1.3579,0.6913,2031
1,0.0723,-0.98,0.1013,-0.2172,-1.4142,0.6906,2059
1,0.0632,-1.0208,0.0537,-0.1373,-1.4921,0.7545,2040
1,0.0986,-1.0396,0.0664,-0.0068,-1.5061,0.7375,2073
1,0.1265,-1.0615,0.145,0.032,-1.4387,0.6923,2041
1,0.1733,-1.0586,0.2163,-0.038,-1.4512,0.6255,2027
1,0.1294,-1.0054,0.2378,-0.0695,-1.4672,0.5538,2012
1,0.0503,-0.9438,0.259,-0.1318,-1.4798,0.4797,2030
1,-0.0913,-0.8875,0.2964,-0.1372,-1.4667,0.4267,2058
1,-0.1875,-0.8657,0.3608,-0.0928,-1.4439,0.4044,2035
1,-0.2661,-0.8867,0.3743,-0.0606,-1.2936,0.428,2025
1,-0.3149,-0.8501,0.3169,-0.0442,-1.0331,0.4177,2029
1,-0.3459,-0.8679,0.251,0.0253,-0.7399,0.3879,2058
1,-0.2324,-0.9006,0.1663,0.0638,-0.5219,0.3401,2042
1,-0.1526,-0.9504,0.0459,0.1131,-0.3759,0.3079,2032
1,-0.1299,-0.9595,0.0225,0.1121,-0.3578,0.2599,2064
1,-0.126,-0.9773,0.0398,0.1031,-0.396,0.2148,2031
1,-0.0701,-1.0095,0.1011,0.0945,-0.4627,0.1579,2047
1,-0.0508,-1.0178,0.1829,0.0792,-0.589,0.1016,2047
1,-0.1169,-1.0271,0.2729,0.0719,-0.6578,0.0754,2038
1,-0.1797,-0.9954,0.386,0.1011,-0.6135,0.041,2025
1,-0.29,-0.9758,0.4375,0.1149,-0.3617,0.032,2025
1,-0.3591,-0.9465,0.4424,0.1289,0.0638,0.0188,2019
1,-0.4304,-0.96,0.4194,0.1241,0.5962,0.0107,2040
1,-0.4014,-0.9949,0.343,0.1703,1.0579,0.032,2057
1,-0.2888,-1.043,0.2812,0.2954,1.4952,0.081,2043
1,-0.1628,-1.1997,0.3157,0.4348,1.7394,0.1691,2079
1,-0.0544,-1.3938,0.3901,0.4707,1.898,0.3048,2045
1,-0.1013,-1.4937,0.365,0.4923,2.1565,0.3987,2037
1,-0.2495,-1.5674,0.3784,0.5066,2.4807,0.4947,2070
1,-0.2004,-1.6584,0.3491,0.5581,3.0605,0.4349,2041
1,-0.0085,-1.4827,0.168,0.8456,3.6555,0.2834,2088
1,0.1016,-1.4905,0.2144,0.694,3.4302,-0.1119,2028
1,0.3562,-1.3101,0.2039,0.7634,3.0488,-0.2883,2012
1,0.3813,-1.1934,0.2874,0.8084,2.5332,-0.2322,2033
1,0.1763,-1.0071,0.4055,0.6866,1.9731,-0.1649,2025
1,-0.0823,-0.7068,0.4846,0.6568,1.978,-0.1533,2028
1,0.0232,-0.9133,0.5142,0.7541,2.037,-0.2594,2073
1,0.1145,-1.1162,0.5513,0.8854,1.8526,-0.2019,2025
1,0.2363,-1.2903,0.3931,0.9383,1.6138,-0.3059,2041
1,0.2458,-1.2002,0.1868,1.1083,1.4209,-0.346,2107
1,0.2932,-1.2256,0.1255,1.1339,1.1785,-0.436,2064
1,0.1057,-1.0559,0.0657,0.9336,1.2247,-0.4651,2069
1,0.0305,-0.9973,0.1299,0.8268,1.2403,-0.4685,2124
1,-0.1401,-0.9167,0.105,0.8831,1.3089,-0.3601,2044
1,-0.0669,-0.9246,0.1577,0.8572,0.8999,-0.3482,2059
1,0.0044,-0.9062,0.2195,0.7998,0.5007,-0.3501,2075
1,0.0127,-0.8481,0.2173,0.7564,0.2499,-0.3141,2066
1,0.0403,-0.8362,0.2473,0.696,0.1011,-0.3595,2069
1,0.0642,-0.8655,0.2297,0.6636,0.0614,-0.3816,2028
1,0.0779,-0.9028,0.2131,0.6263,0.0743,-0.3763,2018
1,0.0959,-0.8826,0.2183,0.5795,0.1089,-0.3938,2046
1,0.0073,-0.8335,0.2202,0.5305,0.1001,-0.4292,2040
1,-0.0022,-0.7717,0.2031,0.5196,0.1206,-0.4554,2028
1,-0.0557,-0.7773,0.2156,0.5347,0.1649,-0.4743,2032
1,-0.0806,-0.7761,0.2268,0.5429,0.2908,-0.4583,2044
1,-0.1467,-0.7883,0.2373,0.5629,0.4605,-0.4576,2068
1,-0.1479,-0.7791,0.2593,0.5265,0.6723,-0.5083,2042
1,-0.137,-0.7456,0.238,0.5735,0.8626,-0.5113,2038
1,-0.2036,-0.7195,0.1724,0.6169,0.9789,-0.552,2025
1,-0.1965,-0.7285,0.1184,0.6733,1.0579,-0.5758,2045
1,-0.2932,-0.7178,0.1333,0.7078,1.1126,-0.5281,2030
1,-0.3071,-0.7239,0.1333,0.702,1.1682,-0.5056,2025
1,-0.313,-0.7053,0.1118,0.6934,1.3173,-0.4626,1997
1,-0.3171,-0.7036,0.1499,0.673,1.5013,-0.4564,2062
1,-0.3359,-0.7339,0.1963,0.6767,1.7552,-0.452,2069
1,-0.3164,-0.7651,0.218,0.7481,2.0656,-0.4358,2036
1,-0.3301,-0.8237,0.2861,0.7946,2.2995,-0.4192,2029
1,-0.2908,-0.8728,0.3315,0.8248,2.6175,-0.4265,2146
1,-0.2466,-0.8884,0.2485,0.85,2.8207,-0.4618,2029
1,-0.2178,-0.9036,0.1768,0.8806,2.7429,-0.4787,2078
1,-0.2349,-0.9224,0.2134,0.8483,2.6826,-0.4751,2083
1,-0.3193,-0.8989,0.2886,0.7721,2.6858,-0.4794,2083
1,-0.2859,-0.9741,0.4104,0.6829,2.6068,-0.5669,2103
1,-0.2361,-1.1411,0.5225,0.6167,2.6902,-0.5627,2126
1,-0.2078,-1.2266,0.6541,0.5448,2.9686,-0.5875,2118
1,-0.0459,-1.2764,0.6704,0.5718,3.0991,-0.6464,1994
1,0.0461,-1.1863,0.5134,0.5372,2.7802,-0.5191,1972
1,0.2375,-1.0679,0.5156,0.5157,1.9835,-0.4434,1994
1,0.1843,-0.948,0.5859,0.4646,1.6756,-0.1876,2090
1,0.1855,-0.8806,0.6543,0.3016,1.4992,0.008,2018
1,0.2002,-0.8596,0.6804,0.1836,1.4275,-0.0033,2063
1,0.124,-0.8667,0.7583,0.1432,1.2765,0.0776,2032
1,0.0771,-0.9534,0.7383,0.2755,1.1813,0.1008,2113
1,0.1099,-1.0073,0.7029,0.28,1.0914,0.0557,2074
1,0.0605,-0.9561,0.5784,0.2635,0.9997,0.0868,2122
1,0.0483,-1.0078,0.561,0.246,0.8483,0.0069,2033
1,-0.093,-1.0344,0.4124,0.091,0.7693,0.0397,2076
1,-0.1819,-1.0715,0.4194,0.0976,0.8244,-0.0089,2079
1,-0.1873,-1.1238,0.3621,0.047,0.7435,-0.0775,2064
1,-0.2268,-1.0955,0.2617,-0.0422,0.6485,-0.1985,2040
1,-0.2339,-1.0083,0.1973,-0.1348,0.31,-0.3755,2019
1,-0.2036,-0.9595,0.1521,-0.2009,-0.11,-0.542,2017
2,-0.2378,-0.9922,0.1389,-0.3035,-0.6243,-0.634,2010
2,-0.291,-1.0027,0.1711,-0.3848,-1.0499,-0.6753,1982
2,-0.3157,-0.9585,0.22,-0.3826,-1.1495,-0.6936,2049
2,-0.3208,-0.9036,0.239,-0.3268,-0.9865,-0.7269,2129
2,-0.4209,-0.7844,0.1333,-0.086,-0.7225,-0.8688,2033
2,-0.3298,-0.7856,0.2898,-0.0581,-0.6393,-0.8542,2068
2,-0.3367,-0.7673,0.3188,-0.0945,-0.4477,-0.7949,2061
2,-0.272,-0.7192,0.3462,-0.161,-0.2729,-0.7782,2053
2,-0.28,-0.7036,0.3435,-0.2081,-0.0988,-0.7023,2074
2,-0.2612,-0.6919,0.3735,-0.3402,0.1196,-0.66,2049
2,-0.2932,-0.6465,0.3418,-0.3349,0.4928,-0.5814,2049
2,-0.3022,-0.6814,0.2993,-0.2908,0.8099,-0.5706,2026
2,-0.3433,-0.6611,0.3054,-0.2543,1.0852,-0.548,2040
2,-0.3401,-0.6514,0.3228,-0.2641,1.3623,-0.5456,2101
2,-0.3499,-0.6646,0.311,-0.2733,1.5921,-0.4974,2045
2,-0.4014,-0.675,0.2839,-0.2999,1.7283,-0.4549,2067
2,-0.4158,-0.6848,0.2915,-0.3285,1.7325,-0.4313,2031
2,-0.4287,-0.7139,0.2776,-0.361,1.733,-0.4345,2057
2,-0.46,-0.6973,0.2422,-0.3163,1.8779,-0.4349,2038
2,-0.4114,-0.7241,0.2654,-0.3308,2.082,-0.3698,2065
2,-0.3584,-0.7092,0.2305,-0.3219,2.2679,-0.365,2055
2,-0.3066,-0.7537,0.2292,-0.2843,2.3166,-0.3649,2019
2,-0.2378,-0.8489,0.2405,-0.2501,2.3049,-0.3714,2015
2,-0.0737,-1.0208,0.2085,-0.2224,2.2133,-0.4105,2064
2,-0.0068,-1.2737,0.2346,-0.1763,1.7807,-0.5164,2066
2,0.1592,-1.4248,0.2888,-0.1955,1.0857,-0.7408,2027
2,0.1392,-1.4133,0.4229,-0.2649,0.6263,-0.9917,2018
2,0.0425,-1.3823,0.5725,-0.349,0.3614,-1.16,1987
2,-0.1453,-1.2224,0.6594,-0.4069,0.7389,-1.1043,2039
2,-0.165,-1.0837,0.5237,-0.3168,1.5185,-0.7614,2108
2,-0.0908,-1.0188,0.3423,-0.0755,1.9202,-0.4839,1986
2,0.012,-1.1975,0.4229,0.1614,1.5183,-0.4833,1996
2,0.127,-1.2742,0.5527,0.2281,0.9686,-0.6292,2011
2,0.2214,-1.165,0.4768,0.196,0.4,-0.6855,2067
2,0.2488,-1.1479,0.4082,0.1981,-0.0799,-0.6026,2054
2,0.3267,-1.2041,0.3459,0.2181,-0.2309,-0.4428,2041
2,0.2908,-1.1907,0.2742,0.3011,-0.2482,-0.294,2098
2,0.2566,-1.1909,0.314,0.3912,-0.1895,-0.1938,2057
2,0.2432,-1.2258,0.3618,0.4457,-0.0804,-0.1071,2040
2,0.1843,-1.2334,0.3936,0.455,0.1155,-0.0221,2040
2,0.04,-1.1704,0.3748,0.4317,0.4149,0.0334,2067
2,-0.001,-1.1289,0.3442,0.4117,0.6532,0.0,2041
2,-0.0229,-1.1377,0.2668,0.4135,0.7413,-0.0112,2065
2,-0.0688,-1.1543,0.1812,0.4524,0.7055,0.0426,2082
2,-0.1025,-1.1392,0.0833,0.4538,0.5216,0.021,1985
2,-0.1033,-1.1147,0.0261,0.5052,0.1453,0.0318,2030
2,-0.1128,-1.0164,0.0132,0.5235,-0.2188,-0.0185,2040
2,-0.1096,-0.9546,0.0359,0.503,-0.5229,-0.0216,1996
2,-0.1375,-0.949,0.0752,0.5139,-0.7404,0.0439,2035
2,-0.0657,-0.8882,0.1404,0.5179,-0.8393,0.0591,2056
2,-0.0464,-0.8625,0.167,0.4689,-0.8606,0.0808,1994
2,-0.1064,-0.814,0.176,0.522,-0.82,0.0316,2035
2,-0.1304,-0.78,0.1992,0.4576,-0.749,0.0016,2041
2,-0.0881,-0.7554,0.2288,0.4689,-0.677,-0.0421,1943
2,-0.0999,-0.7109,0.2197,0.4464,-0.5762,-0.0201,2114
2,-0.1887,-0.7056,0.2581,0.4184,-0.3405,-0.0364,2079
2,-0.1746,-0.7407,0.3132,0.4488,-0.1948,-0.0654,2089
2,-0.2861,-0.7483,0.3518,0.4035,0.1796,-0.1112,2069
2,-0.2415,-0.7759,0.3418,0.3541,0.4145,-0.1675,2055
2,-0.2712,-0.7732,0.3044,0.4149,0.5922,-0.181,2126
2,-0.2524,-0.8059,0.2715,0.3674,0.6138,-0.2581,2104
2,-0.1836,-0.7815,0.2156,0.4701,0.5873,-0.2822,2210
2,-0.2891,-0.7942,0.1846,0.4782,0.6638,-0.229,2035
2,-0.2817,-0.7866,0.1755,0.461,0.6313,-0.2975,2085
2,-0.2356,-0.7664,0.1421,0.4639,0.6229,-0.3393,2074
2,-0.2817,-0.7817,0.1118,0.4904,0.8132,-0.2179,1938
2,-0.1372,-0.7576,0.0854,0.5409,0.6199,-0.3217,1863
2,-0.0767,-0.7861,0.1719,0.42,0.4059,-0.2441,2228
2,-0.0701,-0.793,0.269,0.3155,0.4731,-0.2297,2274
2,-0.1692,-0.7979,0.3457,0.2487,0.6086,-0.1879,2205
2,-0.2095,-0.8054,0.479,0.2237,0.7984,-0.0497,2122
2,-0.1733,-0.8293,0.6589,0.2413,1.1403,0.0694,2022
2,-0.2244,-0.8894,0.5911,0.5347,1.6897,0.1116,2090
2,-0.2622,-0.9958,0.5415,0.7462,2.0011,0.0621,2053
2,-0.136,-1.009,0.4141,0.9678,2.0242,0.0533,2054
2,-0.084,-1.0554,0.366,0.9877,2.0718,0.0676,2005
2,-0.1626,-1.0439,0.3193,0.8694,1.9796,0.1296,2015
2,-0.4207,-1.0007,0.4243,0.7681,1.9844,0.0786,2063
2,-0.571,-1.0591,0.5249,0.7119,2.3182,-0.0977,2039
2,-0.6453,-1.2007,0.5239,0.708,2.7868,-0.4291,2121
2,-0.2637,-1.7222,0.3147,1.0958,2.8586,-0.6683,2415
2,-0.2729,-1.7688,0.2803,1.0214,2.4161,-0.6774,1980
2,-0.0537,-1.4836,0.4011,0.5854,1.8864,-0.8031,1974
2,0.1379,-1.1594,0.4116,0.1023,1.0017,-0.675,2032
2,0.3145,-0.7659,0.4082,-0.0989,0.1514,-0.424,1947
2,0.6167,-0.658,0.7546,-0.1465,-0.3995,-0.2675,2145
2,0.5559,-0.8943,0.8269,0.1935,-0.3153,0.0292,2135
2,0.6077,-0.9971,1.0413,0.0995,-0.145,0.5076,2065
2,0.3796,-0.865,0.8726,0.2775,0.3085,0.4137,1982
2,0.323,-0.9753,0.8027,0.2606,0.679,0.5414,2029
2,0.4871,-1.134,0.906,0.1558,0.4215,0.8058,2029
2,0.1208,-1.0439,0.6301,0.1607,0.2453,0.8786,2007
2,0.1343,-0.9885,0.5579,0.1641,0.4643,0.5473,2010
2,0.0798,-0.9644,0.4016,0.2928,0.1579,0.2172,2035
2,-0.1663,-0.9463,0.3276,0.2454,-0.0413,0.0418,2076
2,-0.2375,-0.8853,0.2412,0.3709,0.3783,-0.1479,1983
2,-0.4165,-0.9065,0.0173,0.0763,0.6681,0.0071,2023
2,-0.2361,-0.8901,0.0708,-0.053,0.5775,-0.0948,1995
2,-0.1841,-0.8894,0.0701,-0.2717,0.1756,-0.0438,2017
2,-0.2002,-0.8779,0.0959,-0.4076,-0.3729,-0.0405,2123
2,-0.2053,-0.8757,0.1982,-0.4681,-0.7813,-0.0906,2056
2,-0.2402,-0.8347,0.2581,-0.4962,-0.8945,-0.1212,2095
3,-0.2737,-0.8069,0.2925,-0.4947,-1.0079,-0.1579,2123
3,-0.2544,-0.7888,0.3657,-0.4562,-1.0452,-0.1874,1980
3,-0.2173,-0.7817,0.4539,-0.4155,-0.9031,-0.1919,2032
3,-0.1606,-0.7969,0.5029,-0.3855,-0.7036,-0.1658,2033
3,-0.1372,-0.7903,0.3679,-0.284,-0.5699,-0.1246,2042
3,-0.1208,-0.7551,0.3333,-0.1085,-0.5544,-0.1575,2041
3,-0.0347,-0.7419,0.4023,-0.0121,-0.453,-0.1617,2030
3,-0.04,-0.7305,0.3843,-0.1119,-0.3139,-0.0047,2046
3,-0.0754,-0.6975,0.3264,-0.1045,-0.1613,0.0803,2037
3,-0.1125,-0.6909,0.2947,-0.0794,-0.1,0.1412,2092
3,-0.1509,-0.7273,0.2615,-0.0059,-0.0796,0.2044,2048
3,-0.2407,-0.7288,0.2473,0.0614,-0.1101,0.2309,2093
3,-0.2881,-0.7463,0.2715,0.0718,-0.1514,0.2312,2066
3,-0.3032,-0.7837,0.3149,0.0565,-0.1201,0.2729,2094
3,-0.3083,-0.7957,0.3511,0.0418,-0.0101,0.3406,2055
3,-0.3386,-0.7688,0.3193,0.0212,0.2016,0.3538,2092
3,-0.3362,-0.7642,0.2493,0.035,0.4988,0.2824,2060
3,-0.333,-0.834,0.1462,0.0943,0.6558,0.2099,2078
3,-0.3193,-0.8689,0.0864,0.1429,0.7343,0.1601,2017
3,-0.3372,-0.9167,0.0847,0.1728,0.683,0.1266,2146
3,-0.2781,-0.9546,0.1799,0.1699,0.7244,0.1377,2086
3,-0.106,-1.0083,0.1992,0.1317,0.6847,0.1422,2055
3,-0.0244,-1.0981,0.3406,0.1221,0.4693,0.077,1971
3,-0.0627,-1.2834,0.489,0.0462,0.3267,-0.0645,1996
3,-0.0427,-1.4958,0.5798,-0.1955,0.4026,-0.2444,2059
3,-0.0103,-1.4817,0.6296,-0.3293,0.84,-0.5597,1992
3,-0.2285,-1.2764,0.4299,-0.4714,1.3711,-0.7448,2007
3,-0.0635,-1.1267,0.3159,-0.5051,1.8771,-0.7893,2005
3,-0.0464,-1.0259,0.4055,-0.3951,1.7632,-0.7231,2057
3,-0.0894,-1.011,0.6411,-0.2065,1.3965,-0.7501,1961
3,-0.0972,-1.0564,0.7488,-0.0595,1.1413,-0.7645,2051
3,0.1248,-0.9675,0.7271,0.0008,0.5039,-0.7634,2033
3,0.209,-1.0093,0.6479,0.034,-0.0587,-0.7253,2102
3,0.2112,-0.9365,0.5015,0.0929,-0.5466,-0.6821,2089
3,0.2078,-0.9729,0.4597,0.1121,-0.8842,-0.581,2047
3,0.1592,-1.0334,0.458,0.1402,-0.8305,-0.436,2048
3,0.1003,-1.0784,0.4956,0.1775,-0.4484,-0.3008,2103
3,0.051,-1.085,0.4917,0.2398,0.0129,-0.2555,1862
3,0.0024,-1.0815,0.4377,0.3278,0.386,-0.2265,1979
3,-0.0393,-1.0684,0.4424,0.3918,0.6871,-0.2301,2115
3,-0.042,-1.0317,0.3928,0.4354,0.9196,-0.2334,2127
3,-0.0601,-1.01,0.3391,0.4518,0.9528,-0.2597,2048
3,-0.0833,-0.9973,0.2805,0.4642,0.8031,-0.2795,2011
3,-0.0798,-0.9824,0.2405,0.4714,0.5528,-0.238,2073
3,-0.0432,-0.917,0.2563,0.4594,0.3009,-0.2173,2071
3,0.0125,-0.8582,0.2422,0.4508,0.0547,-0.2494,2036
3,-0.009,-0.8347,0.2212,0.4213,-0.121,-0.2585,2038
3,-0.0002,-0.8274,0.2117,0.3848,-0.1361,-0.2563,2031
3,-0.0415,-0.8042,0.1848,0.3512,-0.0792,-0.2336,2069
3,-0.0422,-0.7981,0.1545,0.2928,-0.0158,-0.2012,1998
3,-0.0493,-0.8232,0.1387,0.2703,0.0353,-0.1649,2016
3,-0.0598,-0.8271,0.1562,0.2887,0.1072,-0.1426,2016
3,-0.0718,-0.8003,0.1968,0.3031,0.1823,-0.1483,2079
3,-0.0793,-0.7791,0.2246,0.3276,0.2381,-0.159,2037
3,-0.0842,-0.7729,0.2644,0.3558,0.3376,-0.1904,1997
3,-0.1101,-0.7537,0.2632,0.3458,0.3653,-0.2104,2053
3,-0.1394,-0.7693,0.2263,0.3224,0.2883,-0.2364,2041
3,-0.1816,-0.7649,0.2212,0.3096,0.2356,-0.2571,2042
3,-0.1877,-0.7664,0.2139,0.2894,0.1575,-0.2751,2080
3,-0.1802,-0.7576,0.2434,0.2918,0.0941,-0.2962,2073
3,-0.177,-0.7446,0.2517,0.2847,0.1075,-0.3225,2037
3,-0.208,-0.7644,0.2405,0.2641,0.075,-0.3449,2044
3,-0.2056,-0.7915,0.2573,0.2745,0.1131,-0.3412,2095
3,-0.2117,-0.8286,0.2539,0.2872,0.2009,-0.337,2032
3,-0.2402,-0.8606,0.241,0.2972,0.1859,-0.3434,2032
3,-0.2795,-0.8755,0.2527,0.3008,0.2274,-0.3453,2055
3,-0.261,-0.9001,0.2886,0.3141,0.3895,-0.3247,2005
3,-0.252,-0.8696,0.3489,0.3316,0.7209,-0.3144,2038
3,-0.2305,-0.863,0.4072,0.3293,1.1569,-0.3228,2058
3,-0.2065,-0.8845,0.4458,0.3445,1.7852,-0.2954,2078
3,-0.1895,-0.9397,0.4258,0.3496,2.4579,-0.2643,2092
3,-0.2139,-0.99,0.3604,0.3976,2.9917,-0.2382,2032
3,-0.2231,-1.0435,0.3357,0.4911,3.2736,-0.231,2116
3,-0.2109,-1.0715,0.3496,0.6247,3.5981,-0.2029,2061
3,-0.2239,-1.1062,0.3459,0.7309,3.8344,-0.1671,2058
3,-0.2593,-1.1431,0.4539,0.7777,4.1751,-0.177,2034
3,-0.1409,-1.1877,0.5442,0.9182,4.0439,-0.2778,1992
3,0.261,-1.2322,0.6914,0.9764,3.0866,-0.4729,2045
3,0.0305,-1.3521,0.6021,0.8244,2.5207,-0.3916,2079
3,-0.1414,-1.4221,0.4565,0.6594,1.3002,-0.3477,2182
3,0.4688,-1.4243,0.6184,0.3577,-0.4785,-0.5549,2040
3,0.2847,-1.1443,0.2422,0.7453,-2.2959,-0.7803,1988
3,0.8101,-1.0693,0.5525,0.1743,-2.4944,-0.4573,1906
3,0.2773,-0.7224,0.6965,-0.0039,-2.9411,-0.1005,2008
3,-0.251,-0.6726,1.0034,-0.0929,-0.1007,0.0366,2082
3,-0.0693,-0.6614,0.9377,0.1036,-0.1565,0.2992,2107
3,0.0415,-0.7585,1.0037,0.1912,0.3637,0.1959,2103
3,0.2131,-0.7993,0.8853,0.3255,0.159,0.3257,2056
3,0.2341,-0.9746,0.7898,0.2445,-0.2631,0.3856,2077
3,-0.0513,-1.0461,0.5015,0.1803,-1.3571,0.7461,2018
3,-0.1436,-1.0269,0.6162,0.1392,-0.6289,0.2603,2079
3,-0.1504,-1.1182,0.5198,-0.1924,-0.7076,0.352,2037
3,-0.3298,-0.9771,0.4309,-0.1406,-0.1609,-0.0148,2032
3,-0.2773,-0.9502,0.3967,-0.2392,-0.1262,-0.1141,2030
3,-0.3821,-0.8401,0.1824,-0.1374,0.1016,-0.1787,2004
3,-0.291,-0.8438,0.1064,-0.1855,-0.0039,-0.1523,2042
3,-0.394,-0.7944,-0.0889,-0.0925,0.1305,-0.2999,1992
3,-0.3457,-0.7598,0.0186,-0.3271,0.1059,-0.3721,2048
3,-0.1104,-0.7622,0.095,-0.514,-0.292,-0.3701,2024
3,-0.1345,-0.717,0.1533,-0.5667,-0.7066,-0.3639,2002
3,-0.1304,-0.7053,0.3459,-0.5976,-0.9036,-0.3197,2086
3,-0.0938,-0.6335,0.3855,-0.5733,-0.7705,-0.3328,2049
3,-0.0664,-0.6038,0.385,-0.5288,-0.6087,-0.3814,2047
4,-0.071,-0.6262,0.3945,-0.4153,-0.4562,-0.3389,2023
4,-0.0806,-0.6331,0.3501,-0.3808,-0.4694,-0.2561,2055
4,-0.0869,-0.7085,0.2659,-0.3742,-0.5698,-0.1934,2030
4,-0.1382,-0.6633,0.2107,-0.3715,-0.6851,-0.1173,2031
4,-0.1013,-0.6472,0.2107,-0.3927,-0.7493,-0.0991,2044
4,-0.1423,-0.6189,0.2075,-0.3734,-0.6934,-0.0667,2030
4,-0.2002,-0.6084,0.2324,-0.3165,-0.6016,-0.0668,2013
4,-0.2483,-0.6462,0.2468,-0.2594,-0.4577,-0.0562,2095
4,-0.2781,-0.7109,0.2354,-0.1784,-0.2304,-0.0497,1978
4,-0.301,-0.7788,0.1978,-0.1083,-0.0732,-0.0653,2105
4,-0.2969,-0.822,0.1609,-0.0932,-0.0433,-0.0904,2076
4,-0.2563,-0.8491,0.1853,-0.153,-0.0269,-0.1541,2068
4,-0.2546,-0.8552,0.2102,-0.2723,-0.0067,-0.1959,2072
4,-0.26,-0.8706,0.2092,-0.367,0.0699,-0.2125,2126
4,-0.2808,-0.9192,0.1741,-0.4224,0.0886,-0.214,2117
4,-0.2925,-0.969,0.1819,-0.457,-0.0012,-0.2308,2061
4,-0.2302,-1.0066,0.2366,-0.5008,0.0743,-0.2353,2072
4,-0.2468,-0.97,0.3184,-0.3972,0.359,-0.1703,2147
4,-0.2837,-0.9556,0.3704,-0.1888,0.5753,-0.0916,2090
4,-0.2151,-1.033,0.3965,0.0043,0.6948,-0.0523,2080
4,-0.0798,-1.1543,0.3638,0.0993,0.9776,0.0028,1977
4,-0.123,-1.2419,0.2898,0.191,1.2224,-0.0704,2056
4,-0.0779,-1.3872,0.2844,0.1133,1.2721,-0.1582,1965
4,0.0571,-1.397,0.2561,0.0145,1.1714,-0.3039,2089
4,0.1313,-1.3413,0.301,-0.0731,1.058,-0.3634,2046
4,0.0874,-1.283,0.4207,-0.0276,0.9092,-0.4582,1976
4,0.1191,-1.2722,0.5466,-0.0154,0.755,-0.5658,2053
4,0.063,-1.3516,0.5178,0.0486,0.666,-0.5944,2041
4,-0.0251,-1.3677,0.5339,0.1469,0.4765,-0.6171,2005
4,0.0339,-1.3782,0.5017,0.2441,0.3057,-0.6263,2076
4,0.0095,-1.3323,0.5256,0.3221,0.0996,-0.6132,2101
4,0.0024,-1.2739,0.5989,0.3899,-0.0362,-0.5778,2077
4,-0.0042,-1.1799,0.6433,0.4449,-0.0537,-0.5473,2049
4,0.0024,-1.0642,0.6362,0.4675,-0.0056,-0.5236,2038
4,0.0286,-1.0042,0.4912,0.5028,-0.0044,-0.4974,2067
4,0.0295,-1.0044,0.4094,0.556,-0.1502,-0.4635,2061
4,0.0386,-1.0232,0.4121,0.5902,-0.2458,-0.4241,2053
4,0.0796,-0.9954,0.3928,0.5855,-0.2503,-0.4015,2032
4,0.0867,-0.9504,0.3894,0.5749,-0.234,-0.4,2031
4,0.1072,-0.9497,0.3853,0.5765,-0.1755,-0.4093,2069
4,0.1089,-0.9939,0.3464,0.5899,-0.118,-0.404,2001
4,0.0789,-1.0276,0.3113,0.6146,-0.1454,-0.3786,2028
4,0.0603,-1.019,0.2769,0.6343,-0.1723,-0.3707,2037
4,0.0669,-1.0,0.272,0.5984,-0.243,-0.3284,2033
4,0.0991,-0.9714,0.2881,0.583,-0.2816,-0.2859,1989
4,0.1404,-0.9016,0.3047,0.5898,-0.3514,-0.2811,2032
4,0.1411,-0.8376,0.3198,0.6161,-0.4474,-0.3167,1900
4,0.1484,-0.8418,0.3071,0.6345,-0.5104,-0.3406,2120
4,0.1013,-0.832,0.2456,0.6484,-0.558,-0.3298,2067
4,0.041,-0.8196,0.1782,0.6355,-0.7034,-0.3223,2028
4,0.0215,-0.8157,0.1333,0.5932,-0.8907,-0.3227,2006
4,-0.0117,-0.8167,0.1833,0.5498,-1.0947,-0.2677,2055
4,-0.009,-0.79,0.2256,0.5193,-1.2415,-0.2035,2037
4,0.0005,-0.7803,0.2356,0.5275,-1.2168,-0.1848,2072
4,-0.0149,-0.7742,0.2659,0.4971,-1.0786,-0.1642,2117
4,-0.0085,-0.7739,0.2773,0.5086,-0.853,-0.1714,2182
4,-0.0132,-0.7981,0.2058,0.5333,-0.7108,-0.1968,2695
4,-0.0291,-0.7886,0.1875,0.5215,-0.7652,-0.1894,1873
4,0.0015,-0.7878,0.228,0.4697,-0.87,-0.1988,1907
4,0.0505,-0.7917,0.2793,0.4163,-0.9737,-0.1595,1977
4,0.0708,-0.7847,0.2673,0.4057,-1.0375,-0.1486,2063
4,0.0732,-0.7891,0.2717,0.3911,-1.0652,-0.1394,2025
4,0.0728,-0.7605,0.2522,0.387,-1.0403,-0.1469,1973
4,0.053,-0.7698,0.178,0.3633,-1.0545,-0.1675,2016
4,0.041,-0.7773,0.1726,0.3256,-1.1619,-0.1667,2085
4,0.0383,-0.8467,0.2168,0.2655,-1.2268,-0.1173,2053
4,0.0425,-0.8674,0.239,0.1903,-1.1998,-0.0419,2041
4,0.053,-0.8647,0.2336,0.1815,-1.0356,0.0405,2056
4,0.0283,-0.8674,0.2517,0.1839,-0.6992,0.0831,2047
4,0.0173,-0.8711,0.219,0.2405,-0.3068,0.0983,2050
4,0.0305,-0.9131,0.1858,0.3103,0.0373,0.1001,2196
4,-0.0032,-0.9387,0.1958,0.3433,0.3807,0.0917,2107
4,0.0088,-0.9668,0.1941,0.3541,0.7243,0.1309,2247
4,-0.0159,-0.959,0.241,0.3859,1.0263,0.2289,2127
4,-0.0854,-0.958,0.3088,0.4115,1.2499,0.3325,2157
4,-0.0708,-1.0562,0.4412,0.4983,1.5238,0.4803,2057
4,-0.0476,-1.1697,0.4949,0.6715,2.0696,0.6815,2020
4,0.0017,-1.2273,0.5276,0.7669,2.5531,0.819,2081
4,0.0168,-1.2498,0.5488,0.6874,2.5888,0.7855,2074
4,0.0835,-1.2932,0.541,0.5098,2.3727,0.6564,2049
4,0.0779,-1.3645,0.5493,0.2784,1.8574,0.434,1908
4,0.1882,-1.3657,0.5923,0.0587,1.2268,0.2147,1929
4,0.2512,-1.2661,0.6226,-0.0731,0.5982,0.0236,2015
4,0.2502,-1.1372,0.6589,-0.2687,-0.4348,-0.1115,1999
4,0.4929,-0.9954,0.7847,-0.4863,-1.1018,-0.1132,2040
4,0.5356,-0.7759,0.7698,-0.6403,-1.0351,0.0009,2107
4,0.373,-0.5515,0.7825,-0.7255,-0.983,0.0759,2020
4,0.2371,-0.5432,0.8938,-0.6208,-0.7126,0.1582,2013
4,0.0579,-0.7058,0.8865,-0.3654,-0.1481,0.3163,2073
4,-0.061,-0.8137,0.7922,-0.0578,0.2494,0.4964,1991
4,-0.1394,-0.876,0.6509,0.1222,0.3308,0.5701,1959
4,-0.1892,-1.022,0.5464,0.2208,0.175,0.5894,2043
4,-0.2832,-1.1694,0.4648,0.2063,0.0088,0.5481,2160
4,-0.27,-1.1025,0.4563,0.0917,-0.1872,0.4536,2104
4,-0.2163,-0.9934,0.3909,-0.1595,-0.294,0.34,2130
4,-0.2256,-0.9595,0.3967,-0.2967,-0.389,0.2322,2015
4,-0.1533,-1.0042,0.3877,-0.3104,-0.496,0.1689,2043
4,-0.0918,-1.012,0.3672,-0.3225,-0.5782,0.1061,2064
4,-0.0156,-0.9622,0.3926,-0.3535,-0.6524,0.0338,2141
4,0.0173,-0.9331,0.3796,-0.4564,-0.6502,-0.0257,2137
4,0.0459,-0.8789,0.363,-0.541,-0.8642,-0.0487,2191
4,0.072,-0.8801,0.4043,-0.5932,-1.1187,-0.0241,2103
5,0.1208,-0.8879,0.4128,-0.5972,-1.2652,0.0405,2058
5,0.1001,-0.8577,0.3984,-0.6327,-1.3476,0.0878,1999
5,0.0535,-0.8621,0.4221,-0.6468,-1.2595,0.1449,2007
5,-0.0178,-0.8486,0.4092,-0.662,-1.0905,0.1827,2006
5,-0.0452,-0.811,0.3735,-0.6456,-0.921,0.2067,2051
5,-0.0825,-0.7849,0.2854,-0.6241,-0.8803,0.234,2020
5,-0.1038,-0.7571,0.24,-0.5695,-0.9444,0.212,2003
5,-0.1453,-0.7739,0.199,-0.4932,-1.0457,0.1701,1952
5,-0.1357,-0.7512,0.168,-0.4143,-1.1531,0.121,1962
5,-0.1309,-0.7639,0.1755,-0.3047,-1.2386,0.0791,1964
5,-0.1099,-0.7722,0.1877,-0.2197,-1.2981,0.0253,2014
5,-0.114,-0.8032,0.1965,-0.1623,-1.3195,-0.0068,2015
5,-0.1194,-0.8452,0.2434,-0.1308,-1.3308,-0.0076,2076
5,-0.1052,-0.8491,0.2466,-0.1167,-1.3025,0.019,2102
5,-0.0767,-0.8279,0.22,-0.124,-1.2585,0.0581,2112
5,-0.0735,-0.8108,0.1624,-0.1278,-1.1601,0.0876,2125
5,-0.0696,-0.8206,0.1067,-0.129,-1.0664,0.0985,2075
5,-0.0701,-0.8457,0.0813,-0.1418,-0.9335,0.0851,2043
5,-0.051,-0.875,0.0662,-0.1305,-0.781,0.0716,2024
5,-0.0571,-0.9446,0.0859,-0.1298,-0.6284,0.0728,2059
5,-0.082,-0.9673,0.061,-0.1551,-0.5159,0.0808,2045
5,-0.1011,-1.0254,0.0459,-0.1449,-0.4646,0.079,2057
5,-0.1687,-1.0496,0.1536,0.0345,-0.5136,0.1008,2054
5,-0.0955,-1.1633,0.3713,0.2181,-0.9142,0.1257,2082
5,0.1257,-1.2461,0.4778,0.4008,-1.4007,0.1671,2144
5,0.28,-1.4812,0.5481,0.5494,-1.6167,0.1686,2100
5,0.3909,-1.5925,0.5854,0.603,-1.4292,0.2324,2017
5,0.2864,-1.3167,0.4834,0.3923,-0.7562,0.1983,1646
5,0.0745,-0.999,0.4524,0.1654,-0.0984,0.0739,1793
5,-0.0208,-0.731,0.531,0.128,0.2374,-0.0439,1941
5,0.0552,-0.6238,0.6707,0.1856,0.2225,-0.1948,2343
5,0.1221,-0.6309,0.7195,0.2818,0.0105,-0.2669,2217
5,0.1526,-0.7439,0.6257,0.3671,-0.2751,-0.3256,2088
5,0.2192,-1.0098,0.5886,0.4144,-0.6215,-0.3345,2023
5,0.2688,-1.1843,0.5869,0.3908,-0.8476,-0.3598,2037
5,0.2432,-1.2124,0.5977,0.3385,-0.8188,-0.3535,2048
5,0.1814,-1.1372,0.6448,0.306,-0.7018,-0.3591,2052
5,0.1851,-1.0383,0.7202,0.3207,-0.5006,-0.4109,2145
5,0.1895,-1.0007,0.6963,0.3386,-0.3316,-0.4852,2107
5,0.2158,-1.0071,0.6333,0.3364,-0.1835,-0.5569,2064
5,0.2402,-1.0491,0.5635,0.3192,-0.0984,-0.6201,2065
5,0.2595,-1.0054,0.4668,0.2998,-0.0639,-0.6477,2063
5,0.2324,-0.9836,0.3462,0.3172,-0.1164,-0.6582,2020
5,0.189,-0.9265,0.2869,0.3361,-0.2854,-0.6687,2029
5,0.1619,-0.8589,0.2385,0.318,-0.5337,-0.6775,2104
5,0.1367,-0.8462,0.2297,0.2671,-0.8216,-0.649,2034
5,0.1216,-0.8486,0.2651,0.2498,-1.1111,-0.6175,2060
5,0.1143,-0.8623,0.2549,0.2598,-1.3748,-0.5895,2083
5,0.0928,-0.887,0.2473,0.2721,-1.5416,-0.5782,2000
5,0.0713,-0.946,0.2622,0.3012,-1.5295,-0.5627,2009
5,0.063,-0.9165,0.27,0.3537,-1.432,-0.5374,2008
5,0.0754,-0.938,0.2563,0.3884,-1.277,-0.5319,2055
5,0.0703,-0.9548,0.2681,0.4303,-1.1409,-0.5229,2034
5,0.0762,-0.9426,0.2571,0.4448,-0.9549,-0.5317,2048
5,0.0625,-0.9138,0.2678,0.4469,-0.803,-0.5232,2069
5,0.0779,-0.8838,0.2568,0.4312,-0.6582,-0.526,2053
5,0.05,-0.8838,0.2183,0.442,-0.547,-0.4958,2072
5,0.0442,-0.8408,0.1443,0.437,-0.4815,-0.4742,2031
5,0.052,-0.8306,0.0493,0.4595,-0.5348,-0.4259,2058
5,0.0269,-0.8167,-0.0007,0.488,-0.7329,-0.3505,2042
5,0.094,-0.7983,0.0325,0.5213,-0.9708,-0.2422,2061
5,0.1541,-0.8123,0.0752,0.5151,-1.1682,-0.0695,2047
5,0.2244,-0.853,0.1355,0.4677,-1.3423,0.1075,2043
5,0.2922,-0.8584,0.2024,0.4587,-1.3342,0.2223,2020
5,0.342,-0.8298,0.2183,0.4687,-1.0724,0.2871,2072
5,0.3413,-0.8052,0.2258,0.4267,-0.4706,0.3204,2032
5,0.3086,-0.8328,0.2092,0.2595,0.3766,0.3753,2072
5,0.3174,-0.8367,0.2078,0.1029,1.345,0.442,2140
5,0.2441,-0.76,0.5432,0.1099,1.315,0.4337,2074
5,0.366,-0.7339,0.677,0.0056,0.8548,0.3442,2045
5,0.3647,-0.9126,0.6802,-0.0649,0.7791,0.3663,1904
5,0.3752,-0.9995,0.7485,-0.0039,0.3289,0.4136,2277
5,0.4089,-0.843,0.7922,-0.0217,-0.1103,0.4315,2178
5,0.3586,-0.6782,0.7563,-0.1031,-0.1936,0.4558,2066
5,0.2192,-0.6609,0.7402,-0.2521,-0.2998,0.5183,2089
5,0.0706,-0.699,0.7024,-0.4028,-0.3634,0.545,2030
5,0.0142,-0.8433,0.6785,-0.4381,-0.435,0.5542,2062
5,-0.0334,-0.9553,0.658,-0.3832,-0.5596,0.5313,2045
5,-0.021,-0.9844,0.6282,-0.3855,-0.6008,0.5313,2049
5,0.0251,-1.0789,0.6365,-0.3927,-0.6691,0.5454,2009
5,0.0662,-1.125,0.6843,-0.3547,-0.5241,0.5924,2036
5,0.1448,-1.0642,0.675,-0.232,-0.2855,0.587,2076
5,0.1926,-0.9946,0.6531,-0.116,-0.0594,0.4826,2148
5,0.231,-0.8892,0.6333,-0.0507,0.1069,0.295,2100
5,0.3176,-0.8667,0.6604,-0.035,0.1751,0.1176,2047
5,0.1726,-0.918,0.4866,-0.0932,0.1703,0.0233,2072
5,0.1951,-1.019,0.4187,-0.2414,-0.0501,0.1157,2073
5,0.1785,-1.0293,0.439,-0.359,-0.3461,0.1518,2042
5,0.1519,-1.051,0.4646,-0.3786,-0.5018,0.194,1986
5,0.1018,-1.0706,0.4661,-0.3338,-0.5352,0.1782,2020
5,0.0608,-1.0022,0.4851,-0.2832,-0.4345,0.1095,2022
5,0.0247,-0.9912,0.491,-0.2762,-0.1736,0.0388,2134
5,0.1741,-1.0383,0.48,-0.1373,0.1089,-0.1143,2030
5,-0.0139,-0.9883,0.4248,-0.2207,0.1474,-0.0389,2002
5,-0.0562,-0.9775,0.3938,-0.2832,0.2136,-0.0546,1942
5,-0.0752,-0.989,0.3647,-0.3289,0.3402,-0.0481,1975
5,-0.1074,-0.9702,0.3242,-0.3152,0.5356,-0.0565,2026
5,-0.1028,-0.9231,0.2952,-0.2603,0.6825,-0.0787,2025
5,-0.105,-0.8533,0.2715,-0.2285,0.8123,-0.1164,2060
5,-0.0896,-0.8318,0.2651,-0.1871,0.8791,-0.1542,2079
5,-0.0657,-0.781,0.249,-0.1606,0.8134,-0.1973,2048
6,-0.052,-0.7834,0.2402,-0.1973,0.677,-0.2337,2047
6,-0.0647,-0.7954,0.2368,-0.18,0.5123,-0.2061,2052
6,-0.0698,-0.8174,0.2654,-0.1491,0.3745,-0.1439,2088
6,-0.0613,-0.7996,0.2332,-0.1557,0.3578,-0.0625,2051
6,-0.0601,-0.8076,0.2061,-0.1926,0.4022,-0.0124,2045
6,0.0359,-0.8435,0.2026,-0.1498,0.3374,-0.0382,2045
6,0.1316,-0.8564,0.2761,-0.0641,0.3743,-0.0332,2053
6,0.0532,-1.0034,0.3806,-0.1791,1.0003,0.0595,2044
6,0.021,-1.0544,0.4023,-0.2356,1.1412,0.1091,2044
6,0.1243,-1.0107,0.4849,-0.1361,0.9745,0.0071,2111
6,0.5955,-1.0298,0.5142,0.153,1.1262,-0.6007,2137
6,0.2024,-0.8008,0.5149,0.0337,0.7364,-0.3868,2111
6,0.3271,-0.7759,0.6995,-0.0198,0.3898,-0.336,2138
6,0.4348,-0.6736,0.7139,0.0349,0.1451,-0.3625,2042
6,0.499,-0.6431,0.6208,0.0931,-0.0707,-0.4167,1946
6,0.481,-0.7429,0.5264,0.1432,-0.2759,-0.4643,1944
6,0.4006,-0.8884,0.4834,0.1519,-0.399,-0.4762,1963
6,0.3508,-0.9963,0.4319,0.1178,-0.4402,-0.4384,1992
6,0.2717,-1.0911,0.4004,0.041,-0.4737,-0.3474,2022
6,0.3105,-1.0925,0.458,0.022,-0.5335,-0.2348,2028
6,0.2458,-1.134,0.4375,0.0217,-0.5461,-0.1667,2010
6,0.1921,-1.127,0.3936,0.0442,-0.5328,-0.1609,2082
6,0.1716,-1.1245,0.3901,0.1245,-0.5247,-0.2075,2030
6,0.1843,-1.113,0.3738,0.2276,-0.5731,-0.2493,2056
6,0.1982,-1.0625,0.3669,0.3049,-0.5549,-0.2638,2021
6,0.1868,-1.0881,0.3359,0.342,-0.5683,-0.2868,2027
6,0.1394,-1.1111,0.3101,0.3504,-0.6352,-0.279,2020
6,0.1582,-1.1011,0.3145,0.3478,-0.6948,-0.2661,2044
6,0.1414,-1.0635,0.3347,0.3481,-0.7325,-0.2557,2048
6,0.1433,-1.0735,0.3232,0.3563,-0.7348,-0.2655,2037
6,0.156,-1.0779,0.2778,0.3814,-0.7212,-0.2593,2050
6,0.1438,-1.0598,0.2874,0.3958,-0.6576,-0.2868,2040
6,0.1267,-1.0273,0.2893,0.3726,-0.5544,-0.3328,2063
6,0.126,-1.0205,0.2849,0.3629,-0.4577,-0.4047,2032
6,0.0786,-0.9688,0.2803,0.3437,-0.3812,-0.4872,2032
6,0.1135,-0.9565,0.2778,0.3129,-0.333,-0.5309,2077
6,0.0867,-0.9883,0.2727,0.2898,-0.3189,-0.5245,2029
6,0.0859,-0.9897,0.27,0.2811,-0.3173,-0.5092,2062
6,0.1062,-0.9536,0.2622,0.2517,-0.2296,-0.4976,2016
6,0.0959,-0.9048,0.2205,0.2232,-0.0764,-0.4843,2063
6,0.1025,-0.8628,0.1648,0.2296,0.0759,-0.4923,2056
6,0.0906,-0.8408,0.1309,0.2734,0.1669,-0.4918,2011
6,0.137,-0.824,0.1323,0.2895,0.242,-0.4502,2028
6,0.1892,-0.7998,0.1565,0.2743,0.3714,-0.3627,2030
6,0.2053,-0.7974,0.2029,0.2565,0.491,-0.2413,2059
6,0.2322,-0.8218,0.272,0.2204,0.6424,-0.118,2056
6,0.2622,-0.8352,0.3149,0.2336,0.767,0.0019,2044
6,0.3042,-0.8416,0.3213,0.2686,1.0806,0.131,2077
6,0.3401,-0.8115,0.3027,0.2742,1.7138,0.2923,2120
6,0.2107,-0.783,0.4558,0.2974,2.2594,0.4478,2044
6,0.2305,-0.7532,0.5679,0.2819,2.3731,0.4879,2020
6,0.293,-0.7515,0.5295,0.3157,2.7209,0.5352,2051
6,0.261,-0.7917,0.5171,0.3406,2.6681,0.5564,2035
6,0.2566,-0.687,0.5583,0.2285,2.2067,0.5885,2115
6,0.2595,-0.5693,0.6365,0.0138,1.3455,0.4841,1992
6,0.1909,-0.5864,0.7141,-0.0983,0.6565,0.5655,2036
6,0.1631,-0.7031,0.7629,-0.1706,0.1722,0.7106,2045
6,0.1265,-0.8853,0.7051,-0.186,-0.0956,0.761,2102
6,0.0557,-1.0496,0.6108,-0.1288,-0.3398,0.7636,1988
6,0.0557,-1.022,0.593,-0.0748,-0.6068,0.742,2132
6,0.1018,-0.9934,0.5308,-0.1301,-0.6879,0.6146,2112
6,0.0903,-1.01,0.5137,-0.2035,-0.6513,0.4643,2094
6,0.0713,-1.0083,0.5371,-0.2356,-0.4006,0.2931,2065
6,0.0923,-0.9578,0.5791,-0.1992,0.0338,0.1432,2109
6,0.2268,-0.9729,0.6047,-0.0519,0.454,-0.135,2075
6,0.1211,-0.9221,0.5029,0.0031,0.4749,-0.2177,1987
6,0.3135,-1.0645,0.4976,-0.0969,0.0053,-0.1659,2110
6,0.3716,-1.0513,0.488,-0.231,-0.4341,-0.0854,2160
6,0.3115,-1.0222,0.4319,-0.3442,-0.7558,0.0124,2126
6,0.1416,-0.9883,0.4236,-0.4088,-0.8951,0.0767,2157
6,0.0789,-0.9443,0.4482,-0.4328,-0.9111,0.1479,2084
6,0.0667,-0.9575,0.4409,-0.4119,-0.8289,0.0944,2058
6,0.0579,-0.9868,0.4534,-0.3994,-0.8259,0.0174,2041
6,0.0408,-1.0217,0.3967,-0.386,-0.8231,-0.0739,2035
6,-0.0098,-1.0354,0.3552,-0.3746,-0.8741,-0.1401,2000
6,-0.0208,-1.0288,0.3455,-0.3227,-0.881,-0.2043,2016
6,-0.0452,-0.9653,0.3369,-0.2364,-0.7721,-0.2354,2012
6,-0.0535,-0.936,0.2795,-0.1095,-0.5727,-0.2721,1999
6,-0.021,-0.8628,0.2485,0.0337,-0.3259,-0.3233,2042
6,0.0164,-0.8049,0.2456,0.123,-0.1911,-0.4159,2013
6,0.0476,-0.8379,0.2336,0.169,-0.1876,-0.5074,2019
6,0.042,-0.8557,0.2058,0.1618,-0.2571,-0.5244,2019
6,0.051,-0.8718,0.1824,0.1017,-0.3615,-0.4785,2032
6,0.031,-0.8523,0.1431,0.0425,-0.5377,-0.4027,2106
6,0.0205,-0.824,0.1182,-0.0108,-0.6697,-0.341,2045
6,-0.0042,-0.75,0.1616,-0.0569,-0.6369,-0.2822,2051
6,-0.002,-0.7371,0.1785,-0.1069,-0.4566,-0.2457,2032
6,-0.1042,-0.6841,0.2312,-0.1467,-0.0832,-0.196,2036
6,0.0354,-0.7793,0.3267,-0.1128,0.0306,-0.1539,2075
6,0.2629,-0.7175,0.4548,0.14,-0.2268,-0.145,2032
6,0.1931,-0.9021,0.5566,0.0674,0.4304,-0.0266,2069
6,0.074,-1.0513,0.5938,-0.0417,0.422,-0.0586,2088
6,0.2412,-0.8037,0.6216,-0.131,0.3276,-0.1213,2112
6,0.2771,-0.708,0.3616,-0.2414,0.4558,-0.1447,2076
6,0.2927,-0.6289,0.2795,-0.1457,0.2087,-0.2324,2134
6,0.4338,-0.6758,0.3445,0.0324,-0.0081,-0.302,2044
6,0.5437,-0.8052,0.47,0.1478,-0.2838,-0.3551,1968
6,0.4758,-0.8406,0.458,0.1746,-0.4522,-0.3754,2104
6,0.3572,-0.8657,0.4514,0.2031,-0.6925,-0.3623,2040
6,0.3896,-0.9524,0.4431,0.2039,-0.8947,-0.393,2029
6,0.3931,-1.1079,0.3711,0.2474,-0.9183,-0.339,2004
6,0.3127,-1.1472,0.3547,0.2658,-0.8708,-0.292,2048
6,0.2449,-1.2004,0.3674,0.2553,-0.8388,-0.291,2067
6,0.2825,-1.1885,0.3989,0.2914,-0.8899,-0.2735,2045
6,0.2888,-1.2039,0.3953,0.3224,-0.8504,-0.2958,2031
7,0.283,-1.2427,0.4111,0.3942,-0.742,-0.3381,2051
7,0.2346,-1.335,0.3896,0.43,-0.5436,-0.3012,2000
7,0.1892,-1.3403,0.3445,0.4504,-0.3044,-0.2922,2011
7,0.1731,-1.2791,0.3757,0.4446,-0.0653,-0.3532,2025
7,0.1606,-1.2219,0.3691,0.4373,0.1728,-0.4008,2007
7,0.1731,-1.188,0.3525,0.3991,0.3928,-0.4416,2025
7,0.1863,-1.1565,0.3452,0.3709,0.5613,-0.4626,2041
7,0.1392,-1.1626,0.2837,0.3702,0.6131,-0.4775,2036
7,0.1243,-1.1509,0.2505,0.3488,0.683,-0.507,2159
7,0.1418,-1.1118,0.2432,0.3,0.7921,-0.5845,2021
7,0.1428,-1.0503,0.1868,0.2691,0.952,-0.6501,2058
7,0.1001,-1.0227,0.1436,0.2678,1.1095,-0.7012,2132
7,0.1108,-0.9209,0.1243,0.2875,1.2105,-0.7043,2106
7,0.1548,-0.8225,0.0945,0.3208,1.2476,-0.6781,2039
7,0.2249,-0.8259,0.0315,0.3802,1.2439,-0.5915,2041
7,0.2441,-0.7996,-0.0046,0.4396,1.1403,-0.4682,2028
7,0.2974,-0.7668,0.115,0.5002,0.9104,-0.3429,2038
7,0.4309,-0.7024,0.2461,0.5229,0.8606,-0.1887,2070
7,0.5522,-0.6892,0.4048,0.3498,1.5418,0.1457,2056
7,0.4138,-0.606,0.4822,0.2478,2.1403,0.3069,2036
7,0.3113,-0.5254,0.5527,0.1898,2.8083,0.4179,2059
7,0.2122,-0.4148,0.6914,0.1581,3.6834,0.6534,2034
7,0.25,-0.5273,0.7327,0.2424,3.3409,0.5881,2033
7,0.4358,-0.5496,0.6252,0.3723,2.8412,0.659,2045
7,0.3474,-0.5964,0.5676,0.3734,2.8235,0.8505,2048
7,0.0522,-0.4868,0.6699,0.2297,2.5177,0.899,2052
7,0.0706,-0.478,0.7712,0.1916,1.847,0.8026,2021
7,0.1411,-0.5552,0.6643,0.4296,1.4645,0.7986,2050
7,-0.0247,-0.6956,0.7102,0.405,1.1323,0.9103,2145
7,-0.1045,-0.8396,0.6584,0.4244,0.7349,0.7998,2018
7,-0.0791,-0.9675,0.4902,0.2028,0.2582,0.626,2018
7,-0.1584,-1.0227,0.4512,0.1096,-0.4911,0.4288,1983
7,-0.0752,-1.0002,0.3816,-0.0774,-1.3292,0.2454,1950
7,0.0032,-1.0767,0.3584,-0.1081,-2.0738,0.2025,2027
7,-0.124,-1.0859,0.4619,-0.1487,-2.5043,0.1514,1998
7,-0.0576,-1.0708,0.5681,-0.2041,-2.6171,0.0071,2042
7,0.0818,-1.0083,0.7974,-0.1814,-2.4579,-0.1333,2148
7,0.1655,-0.9124,0.8806,-0.1792,-2.3053,-0.204,2130
7,0.2583,-0.9187,0.8525,-0.1683,-2.3016,-0.2285,2215
7,0.22,-0.9443,0.7769,-0.1981,-2.1651,-0.2225,2128
7,0.084,-0.9368,0.6692,-0.2535,-1.9908,-0.1426,2086
7,0.1638,-0.96,0.5779,-0.2304,-1.7986,-0.0324,2013
7,0.0833,-0.9329,0.531,-0.1832,-1.4605,0.0506,1960
7,0.1201,-0.9229,0.5222,-0.1362,-1.0452,-0.0353,1983
7,0.0938,-0.8596,0.5127,-0.0884,-0.6473,-0.1919,2011
7,0.1062,-0.8735,0.4832,-0.057,-0.3353,-0.32,2038
7,-0.0032,-0.9355,0.3691,-0.055,-0.1819,-0.3974,1991
7,-0.0686,-0.9636,0.3008,-0.0933,-0.181,-0.4433,2010
7,-0.0469,-0.9595,0.2642,-0.1653,-0.3793,-0.4381,2056
7,-0.0144,-0.9778,0.2007,-0.1862,-0.6906,-0.4426,2046
7,0.019,-0.9016,0.2405,-0.1028,-0.8834,-0.4577,2042
7,0.0703,-0.7883,0.2026,-0.0479,-0.9356,-0.5243,2029
7,0.1357,-0.7329,0.1902,-0.0815,-0.9833,-0.5821,2078
7,0.0889,-0.7871,0.2397,-0.1689,-0.844,-0.5837,1988
7,-0.0076,-0.7717,0.2446,-0.1591,-0.604,-0.444,1965
7,-0.0254,-0.7139,0.1921,-0.3133,-0.2397,-0.3065,2024
7,-0.1389,-0.772,0.2097,-0.4701,0.1798,-0.1498,2088
7,-0.1809,-0.7817,0.2415,-0.516,0.4972,-0.0372,2041
7,-0.0815,-0.804,0.3362,-0.3786,0.5709,0.0201,2075
7,0.1282,-0.8945,0.5913,-0.0919,0.4863,0.082,2051
7,0.3735,-1.178,0.9436,-0.1113,0.5817,-0.0925,2078
7,0.533,-1.1895,1.0996,-0.1995,0.5257,-0.1337,2075
7,0.5208,-0.645,0.8706,-0.5659,0.8641,-0.1535,2029
7,0.4292,-0.519,0.5361,-0.5801,0.8223,-0.0727,2079
7,0.4744,-0.647,0.4199,-0.3571,0.6604,-0.0602,2139
7,0.6421,-0.9192,0.6079,-0.1497,0.4132,-0.1358,2016
7,0.6526,-0.9812,0.5564,0.0063,0.2289,-0.2268,2049
7,0.4658,-0.9587,0.4661,0.1201,0.043,-0.3241,2145
7,0.3203,-0.9934,0.5078,0.198,-0.0968,-0.3547,2034
7,0.3052,-1.0454,0.521,0.236,-0.2121,-0.3384,2081
7,0.3188,-1.1333,0.5322,0.1727,-0.4121,-0.2476,2046
7,0.2969,-1.2349,0.4976,0.1687,-0.6035,-0.1132,1620
7,0.2974,-1.2668,0.4946,0.1469,-0.65,0.0076,2259
7,0.2454,-1.2305,0.5312,0.1169,-0.5429,0.0771,2061
7,0.2522,-1.2041,0.5051,0.1189,-0.3453,0.0602,2006
7,0.2021,-1.2441,0.4854,0.1252,-0.0427,0.0345,1977
7,0.1714,-1.2839,0.4641,0.0992,0.2709,-0.0149,1996
7,0.1807,-1.2515,0.4314,0.0397,0.5071,-0.0218,2020
7,0.1643,-1.1653,0.3396,-0.0067,0.726,-0.0085,2041
7,0.1333,-1.1287,0.2732,0.0172,0.8819,0.0027,2043
7,0.0999,-1.0901,0.2485,0.0766,1.0445,-0.0431,2060
7,0.1013,-1.0674,0.1978,0.0988,1.2272,-0.1115,2082
7,0.0642,-1.0298,0.1643,0.0967,1.3904,-0.1475,1808
7,0.0535,-0.9912,0.1167,0.0879,1.4605,-0.229,1951
7,0.0518,-0.9629,0.0933,0.1035,1.4342,-0.2537,2129
7,0.084,-0.9351,0.0811,0.1562,1.3736,-0.2262,2061
7,0.1475,-0.9026,0.1003,0.2321,1.3403,-0.1661,2073
7,0.1902,-0.8438,0.1628,0.2788,1.3786,-0.0888,2063
7,0.3303,-0.8804,0.2288,0.3091,1.2077,0.0623,2038
7,0.501,-0.7722,0.3213,0.4718,1.2419,0.3121,2041
7,0.6338,-0.6882,0.4673,0.5823,1.8398,0.6285,2057
7,0.5889,-0.531,0.6333,0.4197,2.8496,0.8356,2031
7,0.4302,-0.4299,0.6877,-0.1302,3.7193,1.0151,2058
7,0.1958,-0.2029,0.6086,-0.5401,4.2038,1.0123,2104
7,0.1145,-0.2095,0.5056,-0.8475,4.0144,1.3255,2055
7,-0.1042,-0.1223,0.3567,-0.6469,3.3632,1.527,2065
7,-0.0278,-0.4031,0.196,-0.1866,2.6647,1.5006,2035
7,-0.1375,-0.6794,0.1223,0.4357,2.2213,1.7813,2115
7,-0.219,-0.7402,0.2297,0.7782,1.409,1.8576,1993
7,0.0142,-0.6646,0.4739,0.7448,-0.0538,1.3391,2067
7,0.26,-0.7893,0.5767,0.332,-1.5332,1.0351,2060
7,0.0027,-0.7209,0.7754,-0.1453,-2.6721,0.6589,2057
8,-0.0371,-0.9011,0.8818,-0.5183,-3.4941,0.314,2114
8,0.0117,-1.0759,0.8965,-0.5923,-3.2156,0.2465,2034
8,0.0037,-1.0134,0.7412,-0.5421,-3.0281,0.0948,2045
8,-0.0571,-0.9692,0.6587,-0.3714,-2.9019,-0.078,1983
8,-0.0864,-0.9905,0.6453,-0.2041,-2.6832,-0.1899,2091
8,-0.0505,-1.0798,0.7034,-0.2784,-2.4192,-0.3236,2164
8,0.0154,-1.0959,0.7622,-0.3265,-2.2565,-0.5239,2130
8,0.1765,-1.1079,0.897,-0.4374,-2.3814,-0.6524,2142
8,0.2878,-1.0981,0.9932,-0.4378,-2.2835,-0.5657,2106
8,0.3252,-1.0618,0.9536,-0.3047,-1.8056,-0.3422,2087
8,0.2639,-1.0503,0.6555,-0.2342,-1.3513,-0.2887,2042
8,0.1414,-1.1392,0.4475,-0.276,-1.0247,-0.1886,1969
8,0.0398,-1.085,0.2893,-0.4277,-0.8913,-0.1408,2063
8,0.01,-1.019,0.2754,-0.59,-0.7552,-0.1068,2086
8,-0.1187,-0.9749,0.2815,-0.6187,-0.5197,-0.1202,2145
8,-0.2131,-0.9626,0.2322,-0.4958,-0.1995,-0.1631,2044
8,-0.2056,-0.9531,0.2109,-0.3329,0.0342,-0.2205,2036
8,-0.1201,-0.9595,0.2305,-0.2195,0.0663,-0.2282,2024
8,-0.0713,-0.8923,0.2192,-0.1651,-0.0486,-0.2715,1999
8,0.0205,-0.8176,0.2363,-0.1309,-0.2189,-0.3221,2056
8,0.0608,-0.7764,0.2622,-0.0633,-0.3939,-0.4016,2022
8,0.0654,-0.7561,0.2578,-0.014,-0.4699,-0.4595,2021
8,-0.0024,-0.7207,0.26,0.0499,-0.4697,-0.4674,2043
8,-0.0005,-0.6475,0.2107,-0.0067,-0.3618,-0.4509,2004
8,-0.0835,-0.6042,0.1584,-0.1075,-0.1101,-0.3726,2095
8,-0.1558,-0.5718,0.1948,-0.1701,0.2396,-0.2454,1976
8,-0.1841,-0.5664,0.2617,-0.2951,0.6581,-0.1298,2023
8,-0.2727,-0.5889,0.429,-0.271,0.9564,0.0253,2027
8,-0.0325,-0.6008,0.6755,0.1352,-0.092,0.0671,2077
8,0.5244,-0.5942,0.908,0.2183,-0.4462,0.0289,2099
8,0.532,-0.7698,0.8108,0.195,-0.4506,0.0073,2103
8,0.6399,-1.0735,0.8103,0.0109,-0.5397,0.0409,2049
8,0.3877,-0.7874,0.4521,-0.2725,0.2776,0.2076,2019
8,0.0718,-0.7605,0.4458,-0.3217,0.3124,0.2978,2014
8,0.1042,-0.8474,0.4963,-0.3346,0.3525,0.2434,2024
8,0.1873,-0.9639,0.6414,-0.2522,0.2494,0.0274,1994
8,0.3362,-1.0322,0.5537,-0.1324,0.0956,-0.2228,2071
8,0.4192,-0.9329,0.345,0.0345,-0.3217,-0.4293,2167
8,0.27,-0.9973,0.2258,0.2145,-0.8541,-0.4793,2095
8,0.1948,-1.1711,0.2329,0.3179,-1.1368,-0.3706,2050
8,0.1868,-1.2603,0.2815,0.3121,-1.427,-0.2472,2144
8,0.1819,-1.3152,0.4382,0.2537,-1.6187,-0.1956,2008
8,0.2085,-1.2903,0.5125,0.2505,-1.5767,-0.151,2143
8,0.2761,-1.3472,0.5664,0.2832,-1.328,-0.0864,2030
8,0.3306,-1.4038,0.5942,0.2996,-0.8995,0.0092,2075
8,0.2573,-1.5291,0.5508,0.2503,-0.3157,0.0586,2028
8,0.2336,-1.4204,0.5342,0.1297,0.3328,0.0635,2019
8,0.22,-1.2605,0.4968,0.0438,1.1083,0.0341,1978
8,0.2261,-1.1472,0.4292,-0.0087,1.8189,-0.0397,2038
8,0.165,-1.0979,0.3083,-0.0222,2.3385,-0.1084,2034
8,0.0493,-1.0608,0.1594,-0.0101,2.6016,-0.1582,1969
8,-0.0017,-1.0847,0.0667,-0.0077,2.6454,-0.159,2090
8,-0.0269,-1.0938,-0.0212,0.0441,2.6466,-0.1274,2022
8,-0.084,-1.0815,-0.1538,0.1306,2.5384,-0.0927,2040
8,-0.1123,-0.9912,-0.1743,0.2748,2.1686,-0.1254,2070
8,0.0244,-0.9897,-0.0515,0.4414,1.6484,-0.089,2068
8,0.1819,-0.9133,0.1125,0.6968,1.4956,0.1868,2026
8,0.3838,-0.7202,0.2869,0.814,1.702,0.5087,1992
8,0.4602,-0.592,0.4282,0.6914,2.5216,0.7797,1772
8,0.3997,-0.4753,0.5303,0.4181,3.0292,0.9388,2005
8,0.3044,-0.3257,0.5122,0.1165,3.2425,0.7793,2190
8,0.3047,-0.1697,0.457,-0.2566,3.0894,0.7028,2161
8,0.2683,-0.0796,0.3921,-0.5075,2.84,0.6799,2082
8,0.1897,-0.1355,0.3428,-0.5578,2.365,0.8771,2082
8,0.0791,-0.1223,0.3176,-0.2806,1.3115,1.1039,2109
8,-0.0706,-0.3323,0.2993,0.0945,0.6554,1.1853,2050
8,-0.3152,-0.6108,0.2515,0.4774,0.4378,1.4721,2064
8,-0.4153,-0.8337,0.5002,0.6165,-0.0341,1.6905,2061
8,-0.1799,-0.8728,0.6833,0.6425,-1.111,1.4009,2077
8,-0.0046,-0.9675,0.7046,0.4626,-1.7097,1.0086,2048
8,-0.1975,-0.9363,0.7917,0.1031,-1.941,0.487,2105
8,-0.3118,-1.0293,0.8481,-0.3228,-1.7587,0.087,2110
8,-0.2927,-1.0706,0.7739,-0.5111,-1.4725,-0.0622,1986
8,-0.1538,-1.0625,0.6028,-0.4998,-1.5157,-0.1389,1953
8,-0.1824,-1.1189,0.6504,-0.4169,-1.6596,-0.2372,2022
8,-0.0854,-1.1907,0.7805,-0.2914,-1.3327,-0.2939,2080
8,0.0149,-1.179,0.8923,-0.3251,-0.9761,-0.4405,2030
8,0.0803,-1.0361,1.0146,-0.3815,-0.6265,-0.691,2063
8,0.125,-0.9722,0.9927,-0.2203,-0.5066,-0.9601,2157
8,0.2102,-1.0425,0.8567,-0.1795,-0.7962,-0.7945,2152
8,0.1812,-1.0876,0.5603,-0.1265,-1.052,-0.5409,2073
8,0.1855,-1.1267,0.3684,-0.2204,-1.3826,-0.352,2042
8,0.0984,-1.1702,0.2864,-0.4223,-1.6917,-0.235,2046
8,0.0645,-1.1824,0.3894,-0.5854,-1.6741,-0.1032,2020
8,-0.0205,-1.1267,0.5161,-0.5883,-1.2838,-0.0739,2032
8,-0.0745,-1.0837,0.5125,-0.5237,-0.6665,0.0111,2026
8,-0.1477,-1.0466,0.2854,-0.3364,-0.2526,-0.0707,2051
8,-0.1865,-1.0315,0.1875,-0.1397,-0.2828,-0.2093,2051
8,-0.134,-1.0227,0.2207,-0.0266,-0.3316,-0.3373,2051
8,-0.0874,-0.9963,0.2249,-0.0107,-0.4204,-0.4245,2056
8,0.0042,-0.937,0.27,-0.0021,-0.5746,-0.5231,2051
8,0.0503,-0.9187,0.2993,0.0445,-0.6267,-0.5568,2043
8,0.0557,-0.8447,0.2439,0.1021,-0.6602,-0.559,2024
8,0.0464,-0.792,0.1733,0.0272,-0.6763,-0.5779,2044
8,-0.0591,-0.7583,0.1245,0.0085,-0.4602,-0.4995,2028
8,-0.0952,-0.6062,0.1179,-0.004,-0.2699,-0.3734,2028
8,-0.1086,-0.5847,0.1157,-0.1671,0.0274,-0.2444,2042
8,-0.1711,-0.5906,0.1567,-0.2655,0.2007,-0.1112,2046
8,-0.1689,-0.5876,0.2314,-0.3718,0.4309,0.0029,2018
8,-0.1946,-0.5586,0.3,-0.4313,0.7324,0.0929,2047
8,-0.3323,-0.5144,0.3455,-0.3878,0.9938,0.2325,2042
9,-0.5005,-0.4846,0.5068,-0.249,0.8395,0.2915,2048
9,-0.1143,-0.4128,0.9202,0.0024,-0.4841,0.1408,2108
9,0.6296,-0.521,0.7075,-0.1489,-0.1907,-0.1212,2058
9,0.751,-0.8528,0.7454,-0.1055,-1.2679,-0.4374,2074
9,0.9778,-1.0115,0.6919,-0.2286,-1.7827,-0.6217,2077
9,0.4021,-0.7468,0.4927,-0.3566,-1.548,-0.2422,2059
9,-0.0188,-0.6501,0.4858,-0.2987,-1.4544,-0.0547,2046
9,-0.0896,-0.8259,0.4651,-0.263,-1.3055,-0.0586,2081
9,-0.0432,-1.0103,0.5356,-0.225,-1.4081,-0.1804,1989
9,0.1252,-0.9836,0.501,-0.1635,-1.646,-0.3019,1988
9,0.2371,-0.8638,0.4636,-0.0095,-2.0158,-0.3887,2117
9,0.251,-0.9475,0.2415,0.1541,-2.3077,-0.2971,2096
9,0.2109,-1.0525,0.1958,0.2964,-2.6988,-0.1202,2136
9,0.2017,-1.1768,0.2998,0.2811,-2.91,0.0176,2015
9,0.2407,-1.2986,0.3599,0.2469,-2.9702,0.0522,2015
9,0.2039,-1.3137,0.4353,0.2734,-2.9355,0.089,1922
9,0.3513,-1.3276,0.5715,0.3678,-2.6838,0.053,1978
9,0.3518,-1.3687,0.6687,0.498,-2.1746,0.0583,2015
9,0.3018,-1.4124,0.6892,0.5315,-1.5438,0.0953,2037
9,0.3135,-1.3506,0.6812,0.479,-0.8602,0.0702,2010
9,0.2346,-1.3391,0.6467,0.3749,-0.2035,-0.0193,1996
9,0.0842,-1.3479,0.5686,0.2254,0.3438,-0.1325,2046
9,0.0144,-1.313,0.5183,0.133,0.7095,-0.2453,2018
9,-0.05,-1.3281,0.397,0.0903,0.9785,-0.3043,2031
9,-0.1255,-1.3206,0.2671,0.1378,1.0255,-0.3176,2017
9,-0.1731,-1.2207,0.209,0.1659,0.8825,-0.322,2048
9,-0.1882,-1.175,0.1353,0.1558,0.683,-0.3205,2079
9,-0.1807,-1.1523,0.0776,0.1348,0.5296,-0.3192,2041
9,-0.1709,-1.1069,0.0076,0.1356,0.3691,-0.3286,2032
9,-0.0623,-1.0825,-0.0542,0.1447,0.2966,-0.3097,2104
9,0.0503,-0.9939,-0.0764,0.1758,0.2661,-0.2629,2050
9,0.1807,-0.9004,-0.1104,0.2029,0.3145,-0.1601,2057
9,0.2942,-0.8306,-0.1006,0.2217,0.4843,-0.0527,2044
9,0.4026,-0.7834,0.0059,0.2615,0.8268,0.0653,2058
9,0.4473,-0.657,0.1396,0.3113,1.4201,0.1412,2028
9,0.5322,-0.5342,0.2654,0.3924,2.1571,0.2282,2059
9,0.5139,-0.498,0.3618,0.4131,3.0224,0.3639,2027
9,0.4973,-0.52,0.3926,0.367,3.6371,0.398,2023
9,0.4258,-0.468,0.4248,0.2935,3.9278,0.4263,2032
9,0.3098,-0.4285,0.394,0.2141,4.0008,0.5047,2030
9,0.2539,-0.3933,0.3889,0.0827,3.8211,0.6018,2089
9,0.1062,-0.3877,0.3464,-0.0017,3.2575,0.7889,2072
9,0.0176,-0.3789,0.3435,0.0607,2.4715,0.9119,2057
9,-0.0649,-0.3972,0.3032,0.1277,1.6655,1.0617,2033
9,-0.1348,-0.4805,0.4199,0.2982,0.8427,1.0243,2071
9,-0.2109,-0.6487,0.5818,0.4709,0.0463,1.1139,2108
9,-0.0879,-0.8389,0.7397,0.4647,-0.6095,1.1919,2073
9,-0.0134,-0.9319,0.761,0.4346,-0.8753,0.9815,2002
9,-0.0718,-0.9902,0.7012,0.2804,-0.9949,0.6577,2043
9,-0.0732,-1.0664,0.5796,0.1823,-1.3344,0.3975,2011
9,-0.0969,-1.1116,0.6458,0.0273,-1.752,0.1627,2044
9,-0.1003,-1.2156,0.6697,-0.1156,-1.8148,0.0128,2026
9,-0.1643,-1.1748,0.6436,-0.2369,-1.8397,-0.0945,2054
9,-0.1807,-1.1223,0.5769,-0.276,-1.8848,-0.1486,2139
9,-0.0505,-1.1226,0.7612,-0.2754,-1.5998,-0.2461,2013
9,0.2126,-1.0452,0.9458,-0.1641,-0.9331,-0.3468,2002
9,0.3669,-0.9968,0.9626,-0.0495,-0.3915,-0.5008,2087
9,0.3755,-1.0061,0.9058,-0.0491,-0.2968,-0.473,2008
9,0.2852,-1.0959,0.6201,-0.1155,-0.538,-0.365,2070
9,0.2607,-1.1521,0.4868,-0.2153,-0.9758,-0.1859,2075
9,0.2524,-1.1763,0.447,-0.33,-1.1026,-0.0302,2100
9,0.0928,-1.1484,0.4226,-0.4356,-1.0061,0.1341,2116
9,0.0391,-1.1497,0.5088,-0.3935,-0.5746,0.2249,2091
9,-0.0239,-1.1599,0.5442,-0.3192,0.0164,0.2827,2071
9,-0.0598,-1.1401,0.4619,-0.1886,0.4593,0.1939,2078
9,-0.1113,-1.1072,0.2754,-0.0756,0.7465,0.0477,2058
9,-0.1807,-1.0723,0.1829,-0.015,0.7727,-0.0997,2026
9,-0.2112,-1.0044,0.1362,0.0072,0.851,-0.1989,2056
9,-0.2239,-0.9185,0.1304,0.0928,0.7963,-0.2625,2062
9,-0.1716,-0.8203,0.1484,0.055,0.5771,-0.35,2046
9,-0.1702,-0.7859,0.2156,0.049,0.3641,-0.442,2045
9,-0.1084,-0.7388,0.2319,0.1891,0.157,-0.4847,2052
9,-0.05,-0.7058,0.2266,0.1694,0.0736,-0.5363,2054
9,-0.0725,-0.7039,0.1238,0.0911,0.0943,-0.4729,2036
9,-0.1494,-0.6516,0.0752,-0.0234,0.0633,-0.3894,2032
9,-0.155,-0.5935,0.1174,-0.1465,0.0976,-0.2831,2030
9,-0.1465,-0.6304,0.0867,-0.3249,0.4046,-0.1421,2027
9,-0.1204,-0.6624,0.1333,-0.4148,0.5211,-0.0384,2035
9,-0.0999,-0.6445,0.2444,-0.469,0.6861,0.0036,2032
9,-0.188,-0.6392,0.3989,-0.3586,0.6038,0.0007,2082
9,0.0757,-0.6897,0.5593,-0.3314,0.465,-0.0831,2072
9,-0.0127,-0.7253,0.5242,-0.3594,0.9702,-0.1851,2043
9,0.052,-0.9199,0.6069,-0.4075,0.8931,-0.5364,2115
9,0.3491,-0.8711,0.6274,-0.6112,0.6782,-0.7474,2091
9,0.4407,-0.6565,0.4751,-0.7548,0.6082,-0.618,2030
9,0.3328,-0.5271,0.3789,-0.5205,0.0706,-0.3918,1972
9,0.3169,-0.5002,0.321,-0.1322,-0.3509,-0.3272,1997
9,0.332,-0.5991,0.3848,0.1356,-0.9574,-0.4099,1952
9,0.334,-0.8276,0.4871,0.2152,-1.4011,-0.4622,1990
9,0.2742,-0.9473,0.5732,0.1786,-1.5042,-0.456,2063
9,0.2517,-1.0269,0.5652,0.1261,-1.5458,-0.4038,2022
9,0.269,-1.0593,0.5308,0.0646,-1.5118,-0.3547,2071
9,0.2507,-1.0576,0.45,0.0666,-1.4836,-0.2959,2058
9,0.2161,-1.1611,0.3704,0.0719,-1.4118,-0.2248,2065
9,0.1602,-1.2517,0.3203,0.0846,-1.2884,-0.1755,2034
9,0.063,-1.323,0.365,0.1168,-1.054,-0.1254,2054
9,0.0598,-1.313,0.4553,0.1763,-0.7513,-0.0723,2047
9,0.1296,-1.2832,0.499,0.2707,-0.5393,-0.0771,2073
9,0.0825,-1.3357,0.5115,0.3329,-0.276,-0.0875,2050
9,0.0464,-1.438,0.5042,0.3113,0.0557,-0.0965,2040
9,0.052,-1.4185,0.4817,0.2988,0.3251,-0.0662,2050
9,0.0247,-1.3948,0.4355,0.3083,0.5398,-0.0506,2092
9,0.0205,-1.3066,0.3845,0.3236,0.6251,-0.114,2063
9,0.0125,-1.2664,0.3242,0.3674,0.6613,-0.1711,2068
10,-0.0391,-1.2522,0.2451,0.4352,0.6842,-0.2208,1960
10,-0.0591,-1.26,0.1995,0.5169,0.6737,-0.2614,1963
10,-0.0195,-1.1946,0.144,0.5464,0.606,-0.3188,2009
10,0.0205,-1.123,0.1331,0.5392,0.5727,-0.3796,2018
10,0.0471,-1.0625,0.1609,0.5245,0.6749,-0.4091,2011
10,0.0515,-1.0671,0.1069,0.5344,0.8428,-0.3707,1983
10,0.043,-1.0593,0.0596,0.542,0.9247,-0.3029,1937
10,0.136,-1.0044,0.0444,0.5372,0.9674,-0.2417,2177
10,0.2644,-0.9656,0.0686,0.5341,1.1433,-0.1526,2081
10,0.3579,-0.8572,0.0601,0.5359,1.4705,-0.0293,2009
10,0.3818,-0.6765,0.137,0.4839,1.8401,0.1167,1999
10,0.4561,-0.5701,0.291,0.4461,2.2743,0.2613,2043
10,0.4614,-0.564,0.3816,0.4156,2.5547,0.4237,2045
10,0.4734,-0.6172,0.4756,0.3798,2.6223,0.6224,2058
10,0.4409,-0.6235,0.5232,0.3035,2.7208,0.8158,2074
10,0.366,-0.6667,0.6086,0.182,2.6472,0.9664,2057
10,0.3665,-0.7065,0.7419,-0.0702,2.1441,1.1656,2065
10,0.3267,-0.6362,0.7134,-0.0992,1.6538,1.3083,2034
10,0.5269,-0.6609,0.7161,0.1005,0.642,1.4729,2047
10,0.2661,-0.6946,0.6699,0.282,-0.0988,1.2207,2054
10,-0.0552,-0.5801,0.6101,0.3579,-0.3555,0.8187,2084
10,-0.6084,-0.45,0.5044,0.4888,-0.0518,0.6549,2036
10,-0.6033,-0.5105,0.3667,0.8251,-0.0308,0.7228,2043
10,-0.3975,-0.696,0.406,0.7718,-0.39,0.8285,2064
10,-0.3694,-0.8047,0.4265,0.5452,-0.9254,0.602,2032
10,-0.4412,-0.9692,0.4722,-0.0322,-1.3479,0.3678,2062
10,-0.4094,-0.9836,0.5552,-0.459,-1.7024,0.1104,2055
10,-0.3762,-0.8789,0.5854,-0.7861,-1.9599,-0.0927,2030
10,-0.344,-0.9546,0.542,-0.6553,-2.0828,-0.183,2071
10,-0.2346,-1.0515,0.4663,-0.5328,-2.1265,-0.2498,2004
10,-0.1548,-0.9778,0.5132,-0.3205,-2.333,-0.4311,2125
10,-0.0642,-1.0078,0.7529,-0.2651,-2.1529,-0.6332,2053
10,0.0928,-0.9031,0.8518,-0.3019,-1.5981,-0.606,2186
10,0.324,-0.9065,0.9072,-0.4798,-1.1746,-0.4244,2147
10,0.2771,-0.946,0.752,-0.4023,-0.9862,-0.4039,2013
10,0.1257,-0.9846,0.6165,-0.4284,-0.9999,-0.159,2059
10,0.0869,-1.062,0.4805,-0.389,-1.1282,-0.0557,2002
10,0.0315,-1.1394,0.4263,-0.3267,-1.2772,-0.0589,1961
10,-0.0105,-1.168,0.4031,-0.3393,-1.4005,-0.0434,2115
10,0.021,-1.1228,0.4126,-0.3677,-1.403,-0.066,2059
10,-0.0076,-1.0916,0.4163,-0.3243,-1.3266,-0.0995,2044
10,-0.0615,-1.0686,0.4058,-0.2184,-1.0662,-0.1418,2124
10,-0.0977,-1.0115,0.3369,-0.1703,-0.7646,-0.1904,2016
10,-0.1477,-0.9651,0.2581,-0.1376,-0.5281,-0.2514,2013
10,-0.2258,-0.9456,0.1826,-0.1302,-0.324,-0.2764,2068
10,-0.2395,-0.9658,0.1401,-0.1047,-0.1666,-0.2778,2152
10,-0.2153,-0.9548,0.1223,-0.0453,-0.086,-0.2674,2004
10,-0.1726,-0.9302,0.1658,0.0349,-0.0743,-0.2677,2106
10,-0.1172,-0.9141,0.167,0.1028,-0.1164,-0.2947,2025
10,-0.0859,-0.864,0.1614,0.0718,-0.2886,-0.3416,2005
10,-0.0366,-0.8843,0.1953,0.0264,-0.3597,-0.3703,2099
10,-0.0349,-0.8289,0.2144,0.0924,-0.3,-0.3278,1989
10,-0.0098,-0.7432,0.2219,0.0272,-0.277,-0.2876,2039
10,0.0132,-0.6733,0.1748,-0.1497,-0.1603,-0.2386,2040
10,-0.0388,-0.6072,0.1326,-0.2916,0.0076,-0.1482,2033
10,-0.0947,-0.6011,0.1824,-0.3634,0.1481,-0.0587,2048
10,-0.0762,-0.613,0.2893,-0.4373,0.2903,-0.0099,2049
10,-0.1655,-0.6792,0.5801,-0.3195,-0.1317,-0.0262,2063
10,0.1392,-0.7573,0.7427,-0.3734,-0.3233,-0.1004,2048
10,0.2083,-0.9326,0.5645,-0.3978,-0.1069,-0.3605,2078
10,0.436,-1.1646,0.7334,-0.4271,-0.4346,-0.4119,2071
10,0.5674,-0.9731,0.646,-0.5536,-0.3139,-0.3372,2068
10,0.2996,-0.6653,0.5298,-0.6199,-0.1171,-0.065,2066
10,0.1174,-0.4922,0.4526,-0.4894,-0.0494,-0.0373,2127
10,0.1445,-0.5884,0.4119,-0.3049,-0.2605,-0.1314,2013
10,0.2703,-0.7866,0.5002,-0.1337,-0.7287,-0.2731,2024
10,0.3232,-0.9199,0.498,-0.029,-1.1588,-0.3886,1997
10,0.26,-0.9502,0.4236,0.0204,-1.5206,-0.4189,2060
10,0.2517,-1.0244,0.3936,0.0333,-1.8281,-0.3496,2067
10,0.2673,-1.0901,0.3677,0.0173,-1.9897,-0.2472,2077
10,0.2908,-1.126,0.3386,0.0206,-2.0471,-0.1563,2044
10,0.2183,-1.0674,0.3176,-0.0352,-1.9438,-0.1254,2069
10,0.1057,-1.1074,0.3167,-0.0802,-1.6651,-0.077,2111
10,0.0928,-1.1306,0.3657,-0.0409,-1.3295,-0.0357,2035
10,0.1438,-1.1584,0.4089,0.0635,-1.0302,-0.0373,2023
10,0.1501,-1.1963,0.3831,0.1665,-0.763,-0.0242,2009
10,0.1187,-1.1973,0.3806,0.1831,-0.534,-0.0469,2026
10,0.1086,-1.1638,0.3438,0.2016,-0.3393,-0.0645,2047
10,0.113,-1.1616,0.3081,0.1681,-0.1394,-0.1193,2049
10,0.0857,-1.1736,0.2544,0.1571,-0.0378,-0.1477,2060
10,0.0283,-1.1331,0.166,0.1601,-0.0799,-0.1724,2036
10,0.0322,-1.1055,0.1519,0.2112,-0.2099,-0.2422,2033
10,0.0393,-1.083,0.1626,0.2418,-0.3598,-0.3145,2102
10,0.0161,-1.0312,0.1499,0.2854,-0.4384,-0.3581,2051
10,0.0056,-1.0115,0.1372,0.3433,-0.5377,-0.3526,2037
10,0.0427,-0.9331,0.1411,0.3422,-0.5789,-0.3344,2118
10,0.1145,-0.939,0.1729,0.3308,-0.5594,-0.3606,2024
10,0.1421,-1.012,0.1355,0.3341,-0.4481,-0.3701,2174
10,0.1262,-0.979,0.1282,0.3249,-0.2523,-0.3264,2031
10,0.1487,-0.9187,0.1235,0.3172,0.041,-0.2727,2056
10,0.1887,-0.8738,0.1338,0.347,0.4401,-0.2032,2054
10,0.105,-0.8154,0.1152,0.418,0.9741,-0.1107,2032
10,0.272,-0.7803,0.2214,0.5006,1.6946,0.0252,2066
10,0.3289,-0.7539,0.333,0.5352,2.4678,0.108,2001
10,0.2976,-0.7229,0.499,0.4473,3.3555,0.2128,2063
10,0.2449,-0.7207,0.5688,0.2278,3.9018,0.359,2076
10,0.228,-0.7698,0.5935,-0.0186,4.1484,0.5584,2042
10,0.2209,-0.7625,0.5718,-0.2723,3.9158,0.7132,2059
10,0.3955,-0.7371,0.5537,-0.2377,2.9176,0.9088,2016
10,0.6052,-0.677,0.4639,0.2224,1.0983,1.1389,2093
10,0.4634,-0.8896,0.3479,0.6167,-0.0356,0.7301,2063
11,0.199,-0.8909,0.1729,0.5815,-0.524,0.5702,2165
11,0.1057,-0.9297,-0.0532,0.7929,-0.7722,0.4445,2032
11,-0.1199,-0.8533,0.147,0.649,-0.4822,0.4221,2085
11,-0.0962,-0.7258,0.4016,0.4856,-0.3092,0.331,1959
11,-0.0657,-0.6335,0.6045,0.4666,0.1085,0.3205,2018
11,-0.1643,-0.6426,0.877,0.4679,0.2611,0.3217,2117
11,-0.0735,-0.8594,0.9939,0.3047,0.0712,0.2944,2072
11,0.0098,-1.0767,1.0552,0.2486,0.1333,0.3312,2069
11,-0.0186,-1.1929,1.0171,0.1123,0.2538,0.2352,2003
11,0.0068,-1.1609,0.8245,0.0543,0.3274,0.1229,2262
11,0.0449,-1.1147,0.6001,0.0169,0.3259,0.0852,2054
11,0.1431,-1.0645,0.4377,-0.1325,0.2264,-0.0123,2024
11,0.1733,-1.0415,0.3074,-0.1675,0.2336,-0.118,1973
11,0.0764,-1.0317,0.2632,-0.176,-0.1004,-0.263,2005
11,0.1255,-1.0417,0.3884,-0.0594,-0.7987,-0.4027,2131
11,0.1956,-1.0537,0.4539,-0.0181,-1.5479,-0.4912,2020
11,0.3091,-1.0608,0.6423,-0.0774,-2.335,-0.5413,2127
11,0.4082,-1.0371,0.7212,-0.2795,-2.7562,-0.3631,2082
11,0.3752,-0.9753,0.7192,-0.4293,-2.7847,-0.2012,2065
11,0.2063,-1.0181,0.6841,-0.3155,-2.4607,0.0202,2151
11,0.1328,-1.0381,0.6196,-0.1859,-1.9253,0.1398,2045
11,0.1475,-1.0186,0.5505,-0.1401,-1.46,0.1463,2047
11,0.115,-0.9763,0.4878,-0.2071,-1.0638,0.0859,2013
11,0.1216,-0.9592,0.4419,-0.3045,-0.8002,0.0213,2016
11,0.0579,-0.9326,0.3735,-0.3432,-0.6785,0.0023,2042
11,0.0166,-0.9023,0.3484,-0.3598,-0.5402,-0.01,2037
11,-0.0505,-0.8552,0.3069,-0.3457,-0.3417,-0.0369,2075
11,-0.0686,-0.7866,0.2688,-0.3084,-0.169,-0.0882,2052
11,-0.0464,-0.7573,0.2222,-0.243,-0.0395,-0.1477,2034
11,-0.0498,-0.7368,0.1648,-0.1784,0.015,-0.2095,2038
11,-0.0723,-0.7163,0.136,-0.1352,0.0188,-0.2426,2048
11,-0.0842,-0.6772,0.1345,-0.1683,0.0336,-0.2462,2040
11,-0.0996,-0.6992,0.1362,-0.1936,0.0892,-0.2021,2066
11,-0.1409,-0.7292,0.136,-0.1541,0.1316,-0.1173,2040
11,-0.1497,-0.7571,0.1118,-0.1281,0.1836,-0.0479,2052
11,-0.1157,-0.7407,0.0886,-0.121,0.2404,-0.0154,2037
11,-0.1057,-0.7905,0.2666,-0.0803,0.1064,0.0144,2046
11,0.0586,-0.7983,0.3525,-0.0991,0.0377,0.0244,2049
11,0.1829,-0.8413,0.2927,-0.1554,0.1815,0.0459,2063
11,0.1399,-0.9661,0.3508,-0.2073,0.3698,0.1008,2050
11,0.1753,-1.1699,0.4827,-0.2888,0.2324,0.021,2209
11,0.1406,-1.1145,0.3289,-0.2775,0.4069,-0.3874,2033
11,0.1985,-1.1338,0.3755,-0.4352,0.4236,-0.2305,2096
11,0.1973,-0.9917,0.6047,-0.3743,0.2493,-0.3462,2102
11,0.4014,-0.8787,0.8618,-0.3882,0.0646,-0.4276,2056
11,0.5474,-0.7671,0.886,-0.3075,-0.1352,-0.4107,2010
11,0.5557,-0.7725,0.7429,-0.18,-0.3832,-0.359,1953
11,0.5344,-0.8572,0.5657,-0.0348,-0.5795,-0.3248,2005
11,0.5134,-0.9958,0.4316,0.033,-0.7224,-0.2725,2068
11,0.4399,-1.1606,0.2769,0.0577,-0.7761,-0.2366,2021
11,0.2178,-1.2156,0.1936,0.0679,-0.7537,-0.1774,2054
11,0.1221,-1.2102,0.2454,0.0562,-0.6504,-0.1085,2033
11,0.1243,-1.1716,0.3071,0.0728,-0.4568,-0.0553,2012
11,0.0452,-1.1445,0.3306,0.0691,-0.2357,-0.0131,2051
11,0.1003,-1.0647,0.3445,0.1366,-0.1579,-0.0336,2053
11,0.1594,-1.136,0.342,0.1787,-0.2037,-0.0423,2039
11,0.1331,-1.1328,0.3049,0.1638,-0.2183,-0.0182,2034
11,0.1387,-1.0896,0.2317,0.1433,-0.2196,-0.02,2037
11,0.1221,-1.0649,0.178,0.1258,-0.1996,-0.0762,2059
11,0.1057,-1.0093,0.1418,0.122,-0.1803,-0.1177,2014
11,0.0869,-0.97,0.1431,0.1489,-0.2177,-0.1547,2081
11,0.1008,-0.9119,0.1545,0.172,-0.2934,-0.1976,2011
11,0.1211,-0.8835,0.1238,0.1884,-0.3951,-0.239,2044
11,0.0989,-0.8115,0.1243,0.2075,-0.5653,-0.2531,2006
11,0.0999,-0.7654,0.1265,0.2292,-0.7648,-0.2342,2030
11,0.0994,-0.7729,0.1487,0.2376,-0.9777,-0.1607,2005
11,0.0918,-0.7756,0.1812,0.227,-1.1529,-0.1084,2018
11,0.0876,-0.801,0.2126,0.22,-1.2713,-0.076,2069
11,0.1194,-0.7856,0.2305,0.2128,-1.3382,-0.034,2085
11,0.1396,-0.7754,0.2231,0.2362,-1.3685,-0.0326,2061
11,0.1252,-0.77,0.23,0.2333,-1.1866,0.0344,2033
11,0.1089,-0.7903,0.2407,0.2546,-1.022,0.1192,2083
11,0.1462,-0.7952,0.2031,0.2931,-0.8043,0.1659,2029
11,0.1257,-0.7974,0.1738,0.3464,-0.4803,0.0653,1970
11,0.0479,-0.8079,0.1423,0.4128,-0.1129,0.0459,2092
11,-0.0151,-0.7627,0.0828,0.4275,0.5309,0.1377,1998
11,-0.0271,-0.7456,0.0959,0.471,1.215,0.1238,2134
11,-0.0869,-0.7847,0.1357,0.4626,1.9419,0.1372,2063
11,-0.0964,-0.8203,0.2246,0.4727,2.565,0.1631,2098
11,-0.1033,-0.8032,0.2498,0.5195,3.1032,0.1883,2021
11,-0.0564,-0.8325,0.2351,0.5308,3.4536,0.2032,2044
11,0.0342,-0.863,0.156,0.5678,3.5492,0.2095,2022
11,0.1011,-0.9077,0.1538,0.6175,3.4651,0.2611,1973
11,0.1072,-0.9353,0.3389,0.5839,2.9625,0.2763,2122
11,0.1912,-0.9626,0.5059,0.5424,2.6903,0.2365,2003
11,0.2568,-1.0891,0.6228,0.5577,2.9645,0.2298,2059
11,0.2954,-1.2871,0.7615,0.589,2.9951,0.1999,2032
11,0.4788,-1.3506,0.854,0.5924,2.7996,0.161,2081
11,0.6338,-1.1807,0.8567,0.5039,2.6586,-0.0931,2028
11,0.6287,-0.9321,0.8215,0.4067,2.3264,-0.4474,2090
11,0.5146,-0.7036,0.8757,0.3723,1.7117,-0.6225,2040
11,0.2527,-0.582,0.9368,0.4307,1.1334,-0.6197,2106
11,0.1199,-0.7283,0.908,0.4758,0.5643,-0.2898,2112
11,0.0405,-0.925,0.8792,0.3848,0.2011,0.0828,2025
11,0.2744,-1.074,0.8484,0.3561,-0.2948,0.2551,2016
11,0.1902,-1.1477,0.8096,0.2448,-0.4619,0.2923,2045
11,0.1699,-1.2417,0.8281,0.0939,-0.5849,0.1286,2032
11,0.1116,-1.2209,0.8618,0.0232,-0.187,0.0417,2054
11,0.0195,-1.1418,0.7976,0.028,0.3059,-0.02,2047
11,-0.0078,-1.0945,0.7148,0.0711,0.7216,-0.0803,1957
11,0.0146,-1.0754,0.5764,0.0509,0.9919,-0.0919,2018
11,-0.0042,-1.0525,0.4792,0.0232,0.7233,-0.1493,2035
11,-0.0059,-1.0325,0.3186,-0.0555,0.1798,-0.2223,2067
12,0.0286,-0.9792,0.2595,-0.1767,-0.6379,-0.3583,2069
12,0.094,-1.0415,0.2883,-0.2767,-1.3271,-0.4718,2017
12,0.0276,-1.0464,0.3967,-0.3653,-1.7816,-0.4795,2111
12,-0.0044,-0.9878,0.5186,-0.4123,-2.0668,-0.4532,2002
12,0.0437,-0.9429,0.6008,-0.3928,-2.0735,-0.4227,2075
12,0.1274,-0.9468,0.6245,-0.3092,-1.7142,-0.3385,2151
12,0.1421,-0.8894,0.5659,-0.2462,-1.3836,-0.2003,2057
12,0.0752,-0.7847,0.4263,-0.1667,-1.1443,-0.1603,2005
12,0.1218,-0.7729,0.3452,-0.163,-0.967,-0.1237,2021
12,0.0586,-0.7998,0.29,-0.1786,-0.8143,-0.0997,2067
12,-0.0144,-0.7795,0.2607,-0.1815,-0.6725,-0.1245,2059
12,-0.0264,-0.8022,0.2327,-0.1714,-0.5598,-0.1812,2128
12,-0.0525,-0.7563,0.1982,-0.1409,-0.5066,-0.2337,2027
12,-0.0835,-0.6687,0.1858,-0.1362,-0.5718,-0.3115,2055
12,-0.0964,-0.6345,0.2156,-0.1661,-0.7179,-0.3561,2034
12,-0.0635,-0.6426,0.1877,-0.137,-0.9102,-0.346,2045
12,-0.1067,-0.6902,0.1917,-0.118,-0.9998,-0.2583,2051
12,-0.1091,-0.7007,0.1482,-0.1597,-0.881,-0.1515,2005
12,-0.1548,-0.7744,0.2158,-0.1863,-0.6456,-0.0844,2024
12,-0.2458,-0.8318,0.4397,-0.173,-0.6918,-0.0742,2036
12,0.0166,-0.7805,0.4834,-0.1304,-1.0158,-0.121,2056
12,0.2336,-0.96,0.2334,-0.2132,-0.2742,-0.0691,2034
12,0.3533,-1.1211,0.0596,-0.3216,-0.2234,-0.1482,2085
12,0.219,-1.1592,0.3572,-0.3328,-0.4778,-0.2416,2029
12,0.293,-1.0925,0.3704,-0.5968,-0.2751,-0.2085,2161
12,0.0479,-0.9275,0.4685,-0.6363,-0.1245,-0.2029,2032
12,0.1799,-0.9011,0.7671,-0.6116,-0.3296,-0.2796,2002
12,0.4463,-0.8542,0.8533,-0.5327,-0.5765,-0.3561,1992
12,0.5789,-0.7664,0.7297,-0.3867,-0.8939,-0.3589,2173
12,0.6008,-0.7693,0.5969,-0.2085,-1.3553,-0.2983,1956
12,0.5081,-0.8459,0.467,-0.0521,-1.7013,-0.1752,2045
12,0.4844,-1.085,0.3699,0.061,-1.8327,-0.1297,2010
12,0.4517,-1.1733,0.2583,0.1096,-1.7464,-0.026,2019
12,0.3643,-1.2021,0.2048,0.1811,-1.5592,0.027,2020
12,0.2273,-1.1333,0.2866,0.2422,-1.2873,0.0654,2012
12,0.1694,-1.0876,0.363,0.2244,-0.916,0.0443,2067
12,0.1487,-1.0989,0.3616,0.1806,-0.5002,0.0831,2056
12,0.1284,-1.1025,0.3213,0.1212,-0.2003,0.163,2054
12,0.1277,-1.0659,0.3176,0.1192,-0.074,0.1887,2054
12,0.2097,-1.0569,0.2805,0.0842,-0.021,0.1517,2057
12,0.1646,-1.071,0.2471,0.0806,0.0133,0.1526,2072
12,0.1445,-1.0371,0.2114,0.0847,-0.0232,0.1497,2054
12,0.1711,-0.9646,0.1775,0.0804,-0.0959,0.122,2047
12,0.2058,-0.9236,0.1602,0.0832,-0.1836,0.0792,2040
12,0.2021,-0.8889,0.1609,0.1197,-0.3113,0.0208,2057
12,0.1804,-0.9045,0.165,0.1178,-0.3844,0.0238,2103
12,0.1414,-0.8936,0.1794,0.1105,-0.4461,0.1104,2034
12,0.1658,-0.8684,0.1614,0.1214,-0.4629,0.1675,2035
12,0.114,-0.8242,0.1646,0.1349,-0.4742,0.2526,2036
12,0.124,-0.8572,0.1528,0.1416,-0.4289,0.2784,2016
12,0.1328,-0.863,0.1709,0.1396,-0.3974,0.2246,2053
12,0.105,-0.8511,0.1882,0.1067,-0.2306,0.3003,2036
12,0.0979,-0.8416,0.1648,0.1256,-0.1661,0.2417,2038
12,0.0459,-0.9065,0.1565,0.1011,-0.0029,0.3033,2052
12,0.053,-0.9214,0.1177,0.1719,0.1912,0.3079,2062
12,-0.0537,-0.8921,0.1282,0.2879,0.6335,0.4247,2080
12,-0.0315,-0.7952,0.1013,0.4084,1.1126,0.5128,2027
12,-0.198,-0.7654,0.0627,0.4461,2.0804,0.6493,2063
12,-0.0513,-0.7554,0.1155,0.4261,2.7449,0.7048,2051
12,-0.1025,-0.7654,0.1306,0.4028,3.1218,0.6064,2137
12,-0.0632,-0.7551,0.1223,0.3263,3.289,0.5084,2055
12,0.0359,-0.7537,0.1646,0.2731,3.169,0.3512,2007
12,0.011,-0.7578,0.2532,0.2462,2.8147,0.2848,2114
12,0.0088,-0.7976,0.3381,0.3115,1.841,0.2574,2071
12,0.1045,-0.9006,0.2351,0.3401,1.0536,0.2292,2002
12,0.1516,-1.0549,0.3325,0.3517,0.4972,0.2333,2062
12,0.2729,-1.1267,0.5786,0.2368,-0.0358,0.1748,1982
12,0.4636,-1.0681,0.7061,0.1081,-0.1513,0.1073,1955
12,0.458,-0.9758,0.8232,-0.0172,0.2462,0.0087,2059
12,0.2581,-0.8369,0.9778,-0.2108,0.9562,-0.2513,1994
12,0.1909,-0.8259,0.99,-0.2539,1.7219,-0.4548,2059
12,0.1897,-0.9309,1.0073,-0.0645,2.0317,-0.4042,2045
12,0.1333,-1.05,0.9412,0.1702,2.1049,-0.2721,2058
12,0.1628,-1.165,0.8232,0.3267,1.8716,-0.1455,2053
12,0.1875,-1.2053,0.7476,0.3983,1.5203,-0.0928,2022
12,0.1809,-1.1885,0.7043,0.3201,1.121,-0.1268,2032
12,0.251,-1.1106,0.7039,0.1377,0.8357,-0.1031,2085
12,0.1956,-1.0603,0.7751,0.1028,0.75,-0.0902,2056
12,0.1289,-0.9646,0.7314,0.1265,0.718,-0.0172,2080
12,0.1118,-0.8965,0.635,0.1522,0.7245,0.0715,2013
12,0.0581,-0.9363,0.4744,0.1855,0.5498,0.1228,2034
12,0.0234,-0.9827,0.4451,0.1834,0.3053,0.1494,2073
12,-0.0015,-0.95,0.4431,0.1087,0.2513,0.1575,2077
12,-0.0261,-0.9487,0.3884,0.02,0.2328,0.184,2040
12,-0.0894,-0.9375,0.3535,-0.0816,0.1015,0.176,2050
12,-0.1357,-0.9565,0.3662,-0.1294,-0.0968,0.1413,2038
12,-0.1489,-0.9736,0.4136,-0.1213,-0.2607,0.143,2052
12,-0.1631,-0.9548,0.4307,-0.1665,-0.3128,0.1599,2056
12,-0.1025,-0.9182,0.4233,-0.2051,-0.3571,0.1418,2065
12,-0.0181,-0.8645,0.3652,-0.2032,-0.4151,0.1123,2040
12,0.0164,-0.8081,0.3181,-0.1999,-0.4579,0.0497,2050
12,0.0325,-0.759,0.2822,-0.1666,-0.4809,-0.0386,2064
12,-0.002,-0.7529,0.2449,-0.1333,-0.4255,-0.1212,2036
12,-0.0383,-0.7466,0.1973,-0.1238,-0.3915,-0.1892,2104
12,-0.0618,-0.7451,0.1589,-0.1396,-0.4324,-0.235,2052
12,-0.0447,-0.7505,0.1404,-0.171,-0.454,-0.2575,2047
12,-0.0667,-0.7578,0.1313,-0.1689,-0.4574,-0.2534,2058
12,-0.0959,-0.7896,0.1455,-0.1635,-0.5312,-0.2457,2031
12,-0.0847,-0.8015,0.1257,-0.1483,-0.6458,-0.2312,2043
12,-0.1001,-0.7947,0.1345,-0.1443,-0.6689,-0.2456,2047
12,-0.0935,-0.8015,0.1123,-0.1306,-0.6616,-0.24,2065
12,-0.1143,-0.7961,0.0911,-0.139,-0.6351,-0.2461,2052
12,-0.1169,-0.8147,0.1218,-0.1681,-0.6581,-0.2357,2083
12,-0.061,-0.8,0.1494,-0.18,-0.6359,-0.2468,2055
13,-0.032,-0.8472,0.2219,-0.2033,-0.7175,-0.2755,2071
13,-0.0178,-0.9172,0.4006,-0.1575,-1.1524,-0.2906,2027
13,0.2129,-1.0977,0.4453,-0.1349,-1.2938,-0.3296,2043
13,0.2725,-1.376,0.3564,-0.0807,-1.2909,-0.4614,2073
13,0.3306,-1.5024,0.3389,-0.147,-1.2916,-0.4372,2063
13,0.272,-1.4006,0.3625,-0.1754,-1.223,-0.4228,2105
13,0.1838,-1.2239,0.457,-0.2911,-0.9001,-0.4116,2141
13,0.0669,-1.104,0.6514,-0.3671,-0.4618,-0.3629,2120
13,0.0701,-1.0669,0.8394,-0.3398,-0.1173,-0.3976,2006
13,0.1819,-1.1104,0.9768,-0.2772,0.0354,-0.4321,2004
13,0.3081,-1.1021,0.9563,-0.1338,0.0679,-0.4715,2118
13,0.3433,-1.04,0.8469,0.0205,-0.0533,-0.4606,2042
13,0.3345,-1.0298,0.6624,0.1317,-0.2225,-0.3665,2040
13,0.2837,-1.0115,0.4412,0.2033,-0.4516,-0.226,2049
13,0.2803,-1.0039,0.4326,0.2507,-0.6426,-0.1313,2023
13,0.2856,-1.0034,0.4175,0.3067,-0.6521,-0.0956,2039
13,0.2205,-1.0281,0.3945,0.2999,-0.6295,-0.0182,2031
13,0.0806,-1.1174,0.3979,0.2133,-0.4228,0.0406,2022
13,0.1311,-1.019,0.4368,0.1638,-0.1927,0.0517,2031
13,0.1541,-1.0015,0.4121,0.1755,-0.0832,0.0008,2035
13,0.1858,-0.9905,0.3835,0.1844,0.0033,-0.0574,2005
13,0.2029,-0.959,0.3406,0.2085,0.0549,-0.0906,2054
13,0.2405,-0.9482,0.3174,0.2408,0.0551,-0.1132,2035
13,0.2473,-0.9226,0.2546,0.286,-0.0372,-0.1224,2117
13,0.2578,-0.9004,0.252,0.2666,-0.2344,-0.1457,2040
13,0.2485,-0.8926,0.2312,0.2589,-0.4,-0.1515,2072
13,0.1968,-0.9019,0.1655,0.2356,-0.6414,-0.1262,2045
13,0.1792,-0.8865,0.1357,0.2357,-0.8742,-0.0888,2064
13,0.1619,-0.8271,0.1475,0.2462,-1.1107,-0.0119,2032
13,0.1826,-0.7776,0.1309,0.2472,-1.3059,0.0507,2049
13,0.2017,-0.7832,0.1511,0.1908,-1.4292,0.0802,2111
13,0.1777,-0.7456,0.1882,0.1629,-1.529,0.0856,2043
13,0.1282,-0.7874,0.1868,0.1574,-1.5711,0.2293,2065
13,0.1055,-0.7751,0.1831,0.132,-1.5344,0.3494,2017
13,0.0625,-0.7827,0.1597,0.1217,-1.5402,0.3637,2096
13,-0.0361,-0.7817,0.1636,0.0827,-1.3703,0.5501,2017
13,-0.1619,-0.7351,0.1292,0.1368,-1.0746,0.4682,2011
13,-0.073,-0.8013,0.1704,0.0756,-0.8789,0.6032,2036
13,-0.3499,-0.6802,0.146,0.0759,-0.4685,0.5245,2029
13,-0.1536,-0.7061,0.1265,0.0686,-0.2956,0.5164,2049
13,-0.0911,-0.7378,0.1575,0.0803,-0.3799,0.4337,2040
13,-0.1609,-0.7444,0.1897,0.0265,-0.3321,0.3219,2026
13,0.0747,-0.8245,0.1858,0.126,-0.477,0.1635,2134
13,0.0303,-0.8054,0.2405,0.1338,-0.3984,0.2324,2031
13,-0.0413,-0.7937,0.2009,0.1361,-0.1201,0.1674,2061
13,-0.0667,-0.7954,0.1643,0.1471,0.395,0.1771,2053
13,0.0022,-0.7937,0.1489,0.1811,0.8592,0.2362,2055
13,-0.1143,-0.8196,0.1384,0.1318,1.3545,0.2565,2084
13,-0.1516,-0.8367,0.1472,0.071,1.8811,0.3755,2117
13,-0.1443,-0.8438,0.0874,0.0771,2.3776,0.3188,2107
13,-0.1072,-0.811,0.1892,0.1091,2.4296,0.2908,2065
13,0.0208,-0.8459,0.2395,0.2019,2.2228,0.1894,2091
13,-0.0659,-0.8206,0.2939,0.2643,2.3924,0.1599,1976
13,-0.0691,-0.8447,0.3743,0.3336,2.8454,0.1169,2016
13,-0.0457,-0.9111,0.5718,0.4324,3.2839,0.0352,2014
13,-0.0244,-1.0178,0.6792,0.5299,3.5661,-0.0107,2066
13,0.0354,-1.2043,0.6721,0.6771,3.7664,-0.0975,2064
13,0.1301,-1.3931,0.7078,0.7682,3.811,-0.1589,2113
13,0.3013,-1.5044,0.7959,0.547,3.5444,-0.202,1978
13,0.5098,-1.4382,0.7358,0.3132,3.0211,-0.2493,1923
13,0.6094,-1.2437,0.554,0.2928,2.4352,-0.4311,1937
13,0.4346,-1.0637,0.4221,0.2875,1.6077,-0.4794,2054
13,0.4846,-0.876,0.4316,0.2907,0.7992,-0.3777,2102
13,0.5022,-0.7917,0.5933,0.2203,0.4681,-0.3667,2026
13,0.3989,-0.8445,0.7324,0.0965,0.2123,-0.237,2058
13,0.1499,-0.8408,0.8806,0.0346,0.0273,-0.1406,2069
13,0.0464,-0.9482,1.0254,0.092,-0.0759,-0.1449,2074
13,0.0251,-1.0688,1.071,0.1962,0.0555,-0.0775,2035
13,-0.0354,-1.134,1.0168,0.2364,0.1429,-0.0465,2054
13,0.0022,-1.0947,0.8647,0.2224,0.2811,-0.0089,2018
13,-0.0166,-0.9829,0.7375,0.1898,0.382,0.0328,2047
13,0.0667,-0.9404,0.563,0.1943,0.4076,0.0844,2030
13,0.0012,-0.9729,0.4114,0.1289,0.4699,0.0911,2047
13,-0.0872,-0.9995,0.3391,0.0629,0.5082,0.0736,2056
13,-0.156,-0.9961,0.2747,-0.0289,0.6185,-0.0192,2046
13,-0.0833,-0.9597,0.2656,-0.1704,0.6849,-0.1522,2046
13,-0.0581,-0.9148,0.2668,-0.2531,0.7195,-0.2084,2031
13,-0.0488,-0.9062,0.2993,-0.2525,0.5863,-0.2445,2082
13,-0.0688,-0.896,0.3206,-0.3048,0.3075,-0.2992,2072
13,-0.1162,-0.8577,0.3826,-0.3924,-0.1028,-0.3703,2040
13,-0.0972,-0.8542,0.4746,-0.4093,-0.5261,-0.4372,2062
13,-0.0723,-0.8733,0.5076,-0.4456,-0.8075,-0.4032,2045
13,-0.0486,-0.8811,0.5728,-0.405,-0.9539,-0.391,2035
13,0.0146,-0.8672,0.5112,-0.3128,-0.8859,-0.3304,2114
13,0.1123,-0.8196,0.4888,-0.2796,-0.7506,-0.294,2056
13,0.1008,-0.7859,0.4351,-0.2649,-0.5955,-0.284,2063
13,0.1328,-0.7974,0.4233,-0.2665,-0.4525,-0.2718,2084
13,0.0627,-0.8008,0.3552,-0.2626,-0.2621,-0.2318,2043
13,0.0083,-0.7803,0.2473,-0.245,-0.1097,-0.2104,2089
13,-0.0437,-0.7561,0.1802,-0.2611,-0.0013,-0.171,2062
13,-0.1018,-0.7629,0.1785,-0.287,0.1417,-0.1261,2048
13,-0.1477,-0.7888,0.1602,-0.328,0.3011,-0.0427,2048
13,-0.1995,-0.7783,0.1423,-0.367,0.4936,0.0403,2061
13,-0.2178,-0.7744,0.1572,-0.3521,0.6672,0.0573,2047
13,-0.2271,-0.812,0.1809,-0.3349,0.8815,0.0557,2060
13,-0.2458,-0.8435,0.1855,-0.2368,0.9769,0.025,2025
13,-0.2559,-0.8313,0.1697,-0.1473,1.0425,-0.0332,2083
13,-0.1904,-0.8552,0.1892,-0.1023,1.0519,-0.0864,2049
13,-0.0984,-0.8577,0.2102,-0.1048,1.0429,-0.1511,2051
13,0.0491,-0.8806,0.1895,-0.1535,1.0264,-0.2188,2028
13,0.0632,-0.936,0.1626,-0.2065,0.9375,-0.2274,2034
14,-0.002,-1.0371,0.2595,-0.21,0.7469,-0.2123,2062
14,-0.0149,-1.1125,0.2869,-0.2782,0.5817,-0.2148,2044
14,-0.0151,-1.2024,0.3464,-0.3606,0.4373,-0.257,2048
14,0.0393,-1.304,0.3298,-0.4452,0.28,-0.3635,2045
14,0.0835,-1.3704,0.3142,-0.5356,0.1967,-0.4354,2044
14,0.094,-1.3042,0.3044,-0.5783,0.3092,-0.4574,2032
14,0.0176,-1.2593,0.4036,-0.5975,0.5192,-0.485,2020
14,-0.2341,-1.1226,0.4136,-0.3183,0.9204,-0.8785,2105
14,0.054,-1.1121,0.5564,-0.4641,0.8629,-0.6526,2046
14,0.0942,-1.1194,0.5503,-0.4996,0.8456,-0.7321,2064
14,0.1147,-1.1975,0.533,-0.5031,0.6086,-0.7135,2026
14,0.1531,-1.196,0.5708,-0.3729,0.2404,-0.7324,2074
14,0.1128,-1.1584,0.6008,-0.1643,-0.1811,-0.6634,2159
14,-0.031,-1.0166,0.6348,0.176,-0.208,-0.6609,2032
14,0.1409,-1.0645,0.5984,0.1121,-0.4393,-0.2854,2025
14,0.085,-0.8958,0.5669,0.1888,-0.2707,-0.1257,2016
14,0.4883,-1.0071,0.5413,0.4884,0.2361,-0.42,1997
14,0.2703,-0.7791,0.3347,0.5545,0.2129,0.0627,1989
14,0.5171,-1.0662,0.2805,0.4683,-0.3551,0.0771,2025
14,0.4336,-1.0671,0.2808,0.4599,-0.5798,0.3357,2046
14,0.3022,-1.0361,0.2798,0.3674,-0.5998,0.4594,2095
14,-0.0156,-1.0164,0.2524,0.3528,-0.0531,0.5742,2018
14,0.0732,-1.02,0.2952,0.3139,0.1728,0.6251,1994
14,0.01,-0.967,0.292,0.344,0.4516,0.5605,2061
14,-0.0356,-0.8982,0.272,0.3903,0.802,0.4064,2048
14,-0.2405,-0.8755,0.2178,0.4203,1.4804,0.3858,2056
14,-0.2339,-0.873,0.2712,0.3682,2.1329,0.3735,2045
14,0.1809,-0.9724,0.2773,0.4121,1.906,0.3065,2021
14,0.3188,-1.0405,0.3254,0.3149,0.9519,0.3033,2032
14,0.3123,-1.0444,0.3628,0.1591,0.0764,0.0726,2056
14,0.053,-0.8647,0.2727,0.155,-0.3832,0.0507,2064
14,0.0532,-0.8496,0.3274,0.1304,-0.7035,0.0505,2064
14,-1.2014,-0.646,0.408,-0.0462,0.8419,0.5148,2114
14,-0.3657,-0.8047,0.3335,0.2898,0.7689,0.1755,2011
14,-0.437,-0.7759,0.2305,0.3823,1.5002,0.2497,2053
14,-0.2244,-0.8184,0.2563,0.4109,1.7221,0.2699,2017
14,-0.2363,-0.884,0.1997,0.3469,1.8869,0.2876,2043
14,-0.0249,-0.8503,0.2517,0.2547,1.8158,0.2855,2090
14,0.3223,-0.9592,0.2888,0.1533,1.2981,0.2289,2040
14,0.209,-0.8567,0.2156,0.0107,1.0897,0.2561,2061
14,0.2139,-0.8621,0.292,-0.1361,0.82,0.2276,2023
14,0.1157,-0.8403,0.2302,-0.0812,0.5514,0.1928,2048
14,0.0657,-0.8403,0.2747,-0.1004,0.276,0.089,2086
14,-0.2319,-0.803,0.2197,-0.0481,0.2068,0.0949,2048
14,-0.3052,-0.7874,0.175,-0.0136,0.2184,0.1109,2086
14,-0.3315,-0.8267,0.1428,0.0603,0.3228,0.0856,2005
14,-0.1855,-0.8906,0.0747,0.1293,0.2613,0.0997,2138
14,-0.134,-0.9209,0.0845,0.1597,0.1748,0.1874,2041
14,-0.1128,-0.8506,0.042,0.2324,0.0692,0.2779,2011
14,0.0649,-0.8982,0.0752,0.2788,-0.1217,0.2884,2114
14,0.1753,-0.9771,0.2031,0.306,-0.3373,0.2306,2018
14,0.1809,-0.9795,0.2742,0.396,-0.432,0.1911,2042
14,0.0757,-0.96,0.312,0.4906,-0.2694,0.1394,2058
14,0.032,-0.9326,0.3684,0.5396,-0.1505,0.1031,2004
14,-0.0105,-0.8938,0.425,0.5244,0.1567,0.1224,2030
14,0.0159,-0.9324,0.4849,0.5533,0.28,0.1685,2052
14,-0.2373,-0.9927,0.3875,0.6043,1.1762,0.1786,2120
14,-0.1282,-1.05,0.3669,0.5722,0.897,0.3133,2054
14,-0.1711,-1.062,0.2803,0.5747,1.034,0.3129,2070
14,-0.2341,-1.0408,0.2036,0.54,1.2445,0.2892,2005
14,-0.2505,-1.0337,0.1819,0.4872,1.3235,0.2613,2119
14,-0.5347,-1.04,0.2559,0.341,2.124,0.2579,1907
14,-0.0984,-0.9277,0.1384,0.4337,1.278,0.2671,2061
14,-0.2407,-0.9536,0.229,0.3553,1.2733,0.249,2121
14,-0.1858,-0.9636,0.2793,0.2705,1.1862,0.2005,2035
14,-0.1658,-0.9492,0.2849,0.2641,1.1132,0.1826,2015
14,-0.2012,-0.959,0.3135,0.3017,1.1102,0.1622,2066
14,-0.2227,-0.9426,0.3586,0.3128,1.0508,0.1433,2058
14,-0.1768,-0.939,0.3533,0.3766,0.9741,0.1317,2058
14,-0.175,-0.9312,0.3816,0.5007,0.9339,0.1228,2022
14,-0.1958,-0.8643,0.4226,0.5236,0.8419,0.1445,1987
14,-0.1863,-0.8921,0.491,0.5227,0.6586,0.2489,2053
14,-0.1472,-0.9819,0.5242,0.5577,0.4253,0.282,2059
14,-0.2288,-1.1633,0.5383,0.4264,0.4866,0.3128,2060
14,-0.0444,-1.1023,0.552,0.4176,0.1205,0.1823,2032
14,0.0674,-0.9878,0.6033,0.2883,-0.1406,0.1205,2072
14,-0.0061,-0.9436,0.7341,0.223,-0.145,0.1474,1989
14,-0.2458,-0.8723,0.7996,0.2189,0.0883,0.1529,2027
14,-0.3572,-0.8047,0.7844,0.12,0.5853,0.1181,1992
14,-0.3081,-0.8823,0.7866,0.1589,0.801,0.1133,2018
14,-0.2266,-0.9519,0.6643,0.1919,0.7951,0.004,2079
14,-0.2512,-1.0029,0.5664,0.0992,0.6815,-0.0101,2033
14,-0.2856,-0.916,0.4875,0.033,0.4967,-0.073,2060
14,-0.3088,-0.9961,0.4309,-0.1032,0.4923,-0.0559,2054
14,-0.2688,-0.9258,0.3945,-0.133,0.3566,-0.1135,2047
14,-0.2329,-0.9236,0.4602,-0.29,0.1943,-0.1344,2081
14,-0.2341,-0.9319,0.4546,-0.3428,0.0471,-0.1715,2031
14,-0.3022,-0.9529,0.4009,-0.3622,0.0041,-0.1907,2053
14,-0.3296,-0.9551,0.4375,-0.4152,-0.0447,-0.2436,2058
14,-0.2961,-0.9463,0.4912,-0.5456,-0.0594,-0.2603,2056
14,-0.2686,-0.9182,0.542,-0.6581,0.0213,-0.2549,2031
14,-0.2976,-0.8364,0.5459,-0.7257,0.0808,-0.2328,2094
14,-0.2903,-0.8376,0.6123,-0.7621,0.1007,-0.2144,2014
14,-0.2971,-0.8794,0.6697,-0.7783,0.0894,-0.2,2045
14,-0.3538,-0.8726,0.6243,-0.7834,0.183,-0.2105,2050
14,-0.4265,-0.8271,0.6389,-0.8184,0.2719,-0.2468,2061
14,-0.3933,-0.79,0.5579,-0.8367,0.3983,-0.2823,2044
14,-0.3782,-0.7671,0.5305,-0.8724,0.4911,-0.2984,2057
14,-0.3174,-0.7815,0.4585,-0.8983,0.4809,-0.3164,2036
14,-0.3086,-0.7466,0.3875,-0.9367,0.4412,-0.308,2042
14,-0.2705,-0.6951,0.3584,-0.9893,0.3532,-0.3221,2056
14,-0.2651,-0.6682,0.2876,-1.0393,0.3759,-0.3193,2059
15,-0.249,-0.6692,0.2646,-1.1132,0.4497,-0.3259,2072
15,-0.2229,-0.6399,0.2451,-1.1962,0.5068,-0.357,2034
15,-0.1975,-0.6162,0.166,-1.1889,0.5781,-0.3842,2035
15,-0.1826,-0.6016,0.1035,-1.1949,0.6488,-0.424,2046
15,-0.1377,-0.5742,0.074,-1.223,0.6119,-0.4775,2046
15,-0.1047,-0.5901,0.0667,-1.2264,0.5074,-0.4806,2049
15,-0.1277,-0.583,0.104,-1.2528,0.4192,-0.4825,2053
15,-0.1279,-0.6162,0.1301,-1.2806,0.3601,-0.5466,2043
15,-0.1038,-0.6443,0.0601,-1.2496,0.4015,-0.5755,2056
15,-0.123,-0.6843,0.0872,-1.3186,0.5062,-0.6199,2052
15,-0.1553,-0.6721,0.0913,-1.3884,0.5857,-0.6474,2056
15,-0.093,-0.5977,0.1228,-1.4278,0.5283,-0.717,2044
15,-0.1067,-0.5784,0.1047,-1.4459,0.5489,-0.7455,2053
15,-0.189,-0.5864,0.0481,-1.3898,0.6316,-0.7122,2052
15,-0.3066,-0.6138,0.0808,-1.2738,0.7127,-0.6461,2067
15,-0.3274,-0.6289,0.0217,-1.1601,0.8613,-0.5774,2053
15,-0.3386,-0.6875,0.1301,-1.1829,0.9582,-0.5765,2052
15,-0.2307,-0.6172,0.1108,-1.1668,1.0832,-0.5666,2045
15,-0.1831,-0.574,0.0708,-1.0722,1.2492,-0.5082,2049
15,-0.144,-0.6406,0.0898,-0.9886,1.425,-0.4642,2058
15,-0.0674,-0.6685,0.0378,-0.9541,1.4619,-0.4436,2043
15,0.0046,-0.6292,-0.042,-0.8673,1.5514,-0.3757,2050
15,0.0901,-0.7173,-0.0596,-0.8485,1.5933,-0.3164,2042
15,0.1069,-0.7927,-0.0569,-0.783,1.3724,-0.271,2053
15,0.0637,-0.8965,-0.0854,-0.6401,1.2713,-0.245,2051
15,0.0166,-1.0352,-0.136,-0.6104,1.2243,-0.2446,2056
15,-0.0063,-1.1018,-0.1741,-0.6055,1.129,-0.261,2051
15,-0.05,-1.1689,-0.1248,-0.6349,1.0258,-0.3013,2056
15,-0.0303,-1.1599,-0.1453,-0.6365,0.854,-0.3512,2044
15,-0.0352,-1.1455,-0.0886,-0.602,0.8503,-0.3294,2004
15,-0.0344,-1.2092,-0.0967,-0.5938,0.8787,-0.2832,2027
15,0.0046,-1.3428,-0.1335,-0.6545,0.916,-0.28,2056
15,0.0645,-1.5156,-0.1663,-0.7751,0.8372,-0.2495,2025
15,0.0173,-1.4871,-0.0842,-0.84,0.7569,-0.1178,2054
15,-0.1541,-1.4663,-0.0964,-0.8276,0.9861,0.1079,2058
15,-0.208,-1.5923,-0.0264,-0.8375,1.1296,0.3113,2049
15,-0.2529,-1.5508,-0.1416,-1.0018,1.4459,0.439,2043
15,-0.1396,-1.4517,-0.0786,-0.919,1.6643,0.486,2087
15,0.0159,-1.3997,-0.0659,-1.1174,1.5103,0.5099,2038
15,0.0938,-1.2844,-0.2305,-1.1628,1.2994,0.5939,2039
15,0.043,-1.2959,-0.28,-1.1862,0.9853,0.6899,2076
15,-0.0208,-1.3142,-0.3638,-1.2912,0.4902,0.6861,2051
15,-0.1057,-1.292,-0.4421,-1.3737,0.22,0.7838,2047
15,-0.2268,-1.2109,-0.6074,-1.2295,0.1077,0.8384,2064
15,-0.3445,-1.1667,-0.5654,-0.9963,-0.032,0.6705,2063
15,-0.3687,-1.1719,-0.5439,-0.9332,0.1863,0.5773,2045
15,-0.325,-1.144,-0.6252,-0.9943,0.5602,0.405,2047
15,-0.2366,-1.1851,-0.7966,-0.9303,0.4927,0.3271,2049
15,-0.208,-1.1958,-0.7761,-0.8789,0.4192,0.2495,2049
15,-0.2095,-1.1528,-0.7222,-0.7576,0.5402,0.2261,2050
15,-0.2515,-1.1033,-0.6753,-0.5863,0.6706,0.1641,2051
15,-0.269,-1.0928,-0.6597,-0.44,0.7146,0.0984,2052
15,-0.313,-1.0994,-0.604,-0.2404,0.6263,0.1232,2059
15,-0.3367,-1.1174,-0.5654,-0.1834,0.5357,0.1461,2084
15,-0.2527,-1.1213,-0.5288,-0.0806,0.5363,0.0846,2037
15,-0.2017,-1.0957,-0.5237,-0.0012,0.5936,0.0087,2012
15,-0.1235,-1.2041,-0.4895,-0.1076,0.6122,0.0273,2042
15,-0.1931,-1.0491,-0.4824,0.1305,0.4715,0.0192,2054
15,-0.29,-0.9963,-0.3918,0.2185,0.2667,0.0348,2055
15,-0.3472,-0.999,-0.3733,0.2729,0.1918,-0.0297,2063
15,-0.3774,-1.0205,-0.3618,0.4039,0.2618,-0.0282,2052
15,-0.3801,-0.9934,-0.376,0.4996,0.4237,-0.0461,2049
15,-0.3748,-0.9631,-0.3201,0.5417,0.5702,-0.0742,2050
15,-0.366,-0.9441,-0.3096,0.541,0.6476,-0.0549,2051
15,-0.311,-0.9419,-0.3154,0.451,0.5389,-0.0513,2039
15,-0.2104,-0.9304,-0.3579,0.3201,0.5289,-0.089,2029
15,-0.1147,-0.9233,-0.4163,0.2661,0.614,-0.1214,2035
15,-0.0073,-0.9424,-0.4863,0.0471,0.5974,-0.1477,2034
15,-0.0029,-0.9089,-0.5979,0.0638,0.2559,-0.1292,2045
15,-0.0583,-0.8303,-0.5339,0.2053,-0.3785,-0.2104,2051
15,-0.0847,-0.7705,-0.4646,0.3337,-0.9043,-0.3373,2054
15,-0.1162,-0.7773,-0.4404,0.4035,-1.1597,-0.4321,2054
15,-0.1704,-0.8093,-0.4778,0.465,-1.2477,-0.5018,2056
15,-0.3022,-0.842,-0.4963,0.3859,-1.2649,-0.5232,2042
15,-0.3494,-0.8215,-0.4775,0.2313,-1.0601,-0.4864,2053
15,-0.3032,-0.7581,-0.49,0.0722,-0.5892,-0.4529,2051
15,-0.1914,-0.738,-0.5454,0.2219,-0.1298,-0.4851,2047
15,-0.0566,-0.8005,-0.5552,0.2089,0.1494,-0.512,2044
15,0.0195,-0.8186,-0.5835,0.1651,0.1326,-0.4691,2043
15,0.0491,-0.7803,-0.5435,0.163,-0.1184,-0.4765,2059
15,0.0715,-0.7803,-0.5037,0.1731,-0.4112,-0.4971,2053
15,0.0928,-0.8076,-0.5227,0.1368,-0.5874,-0.4943,2052
15,0.0593,-0.8486,-0.6108,0.0314,-0.6887,-0.5026,2046
15,0.1067,-0.8193,-0.5691,0.0043,-0.7881,-0.4984,2044
15,0.103,-0.8577,-0.5535,0.0827,-0.7498,-0.4659,2067
15,0.0222,-0.8228,-0.5835,0.1752,-0.6777,-0.4188,2051
15,-0.1133,-0.8137,-0.5811,0.2714,-0.6723,-0.3115,2055
15,-0.2166,-0.8462,-0.5049,0.2499,-0.6486,-0.2442,2073
15,-0.27,-0.8594,-0.4839,0.3059,-0.3685,-0.1858,2037
15,-0.3101,-0.8564,-0.5044,0.3165,0.0999,-0.1547,2046
15,-0.2861,-0.8301,-0.5159,0.3729,0.4309,-0.1646,2050
15,-0.231,-0.7908,-0.4841,0.4627,0.8127,-0.1486,2047
15,-0.1687,-0.7715,-0.4148,0.5701,0.9708,-0.1834,2045
15,-0.0525,-0.825,-0.408,0.7051,0.8301,-0.2493,2051
15,0.0266,-0.8853,-0.4895,0.7758,0.6407,-0.3421,2056
15,0.0505,-0.8909,-0.5293,0.8764,0.591,-0.3622,2051
15,-0.0083,-0.9468,-0.4768,1.0099,0.4115,-0.4031,2048
15,-0.0637,-0.979,-0.4146,1.1635,0.3337,-0.43,2053
15,-0.1169,-1.011,-0.4041,1.2623,0.4703,-0.4332,2056
15,-0.1372,-1.0552,-0.4121,1.3386,0.6769,-0.4436,2054
15,-0.1204,-1.083,-0.4102,1.4788,0.8985,-0.4817,2049
15,-0.0823,-1.1067,-0.4395,1.6052,1.0943,-0.5642,2055
15,-0.0085,-1.1418,-0.4707,1.7538,1.1784,-0.7032,2045
