Timestamp,Ax,Ay,Az,Rx,Ry,Rz,EMG
0,0.3352,-0.6914,-0.6677,0.1718,1.6424,0.6554,2123
0,0.3347,-0.853,-0.7004,-0.0212,1.5809,0.7508,1932
0,0.1526,-0.8574,-0.646,-0.0959,0.8391,0.594,2124
0,0.1028,-0.5349,-0.7529,0.5277,1.599,0.2631,2067
0,0.7749,-0.4766,-0.9338,0.5939,0.9372,0.0959,2095
0,1.1514,-0.7878,-0.7087,0.5044,0.4651,-0.0305,2031
0,0.7952,-1.0039,-0.5779,0.1168,-0.149,-0.0707,2066
0,0.4097,-0.9573,-0.6702,-0.2689,-0.9162,-0.21,2062
0,0.4521,-0.8254,-0.6113,-0.4195,-1.2979,-0.3899,2044
0,0.426,-0.5808,-0.7031,-0.3525,-1.2216,-0.3545,2119
0,0.3486,-0.3567,-0.7878,0.0894,-0.762,-0.1253,2049
0,0.3225,-0.4004,-0.7695,0.2418,-0.8067,0.0691,2014
0,0.2739,-0.5212,-0.6155,0.3778,-0.9961,0.2128,2095
0,0.1667,-0.511,-0.5942,0.5749,-0.9558,0.3019,2011
0,0.3599,-0.5476,-0.8108,0.6885,-1.0005,0.2843,2065
0,0.3755,-0.6919,-0.7571,0.8939,-0.8247,0.1756,2025
0,0.3513,-0.7566,-0.697,1.024,-0.6211,0.0178,2021
0,0.2283,-0.8047,-0.7251,1.1186,-0.4971,0.0067,2032
0,0.2014,-0.8396,-0.8445,1.0737,-0.4863,-0.0064,2116
0,0.241,-0.8477,-0.9531,1.1199,-0.4269,0.112,1999
0,0.2971,-0.906,-0.8845,1.1559,-0.2473,0.2341,2065
0,0.2676,-1.0073,-0.8372,1.052,-0.2389,0.2976,2064
0,0.2185,-1.0789,-0.8352,0.8142,-0.3866,0.31,2029
0,0.1816,-1.0481,-0.8899,0.5581,-0.3951,0.2349,2064
0,0.2004,-0.9351,-0.9541,0.4661,-0.2466,0.1622,2004
0,0.2429,-0.842,-0.9519,0.4793,-0.1421,0.1574,2097
0,0.3372,-0.7659,-0.9207,0.5212,-0.0617,0.1557,1996
0,0.4536,-0.6885,-0.8796,0.6236,-0.0988,0.2076,2081
0,0.5266,-0.6475,-0.7825,0.8032,-0.1155,0.2667,2013
0,0.4751,-0.7666,-0.6729,1.031,-0.2454,0.2701,2060
0,0.509,-0.8069,-0.5962,1.1041,-0.3175,0.1353,2074
0,0.5449,-0.8999,-0.6648,1.167,-0.5943,-0.1489,2057
0,0.6123,-1.072,-0.6306,1.1911,-0.3409,-0.4211,2043
0,0.6179,-1.1082,-0.5845,1.0259,-0.3417,-0.5496,2066
0,0.5261,-1.0691,-0.5403,0.7642,-0.5803,-0.5528,2042
0,0.5061,-1.0754,-0.4927,0.4199,-0.8404,-0.551,2048
0,0.4497,-0.9666,-0.5759,0.3751,-0.763,-0.449,2056
0,0.3386,-0.9011,-0.6309,0.3927,-0.6758,-0.3265,2059
0,0.2666,-0.8784,-0.4739,0.514,-0.606,-0.2895,2090
0,0.3555,-0.9099,-0.4343,0.6529,-0.2135,-0.2862,2024
0,0.7578,-1.1055,-0.4861,0.7002,0.1879,-0.3779,1980
0,0.5913,-0.9644,-0.3259,0.5,0.1987,-0.6598,2049
0,0.3975,-0.8269,-0.3953,0.1443,-0.8391,-0.6827,2078
0,0.2788,-0.8577,-0.4507,-0.0533,-1.3447,-0.6339,2050
0,0.3062,-0.7656,-0.5015,0.0748,-0.877,-0.7429,2065
0,0.3726,-0.7661,-0.5024,0.2895,-0.3148,-0.6718,2071
0,0.3826,-0.7781,-0.4817,0.3659,-0.1145,-0.5608,2010
0,0.4019,-0.8269,-0.6003,0.4107,0.0217,-0.4746,2043
0,0.4336,-0.8884,-0.6536,0.3944,0.0072,-0.4714,2041
0,0.3865,-0.9058,-0.7051,0.3318,-0.0936,-0.5195,1973
0,0.375,-0.8691,-0.748,0.3709,-0.1116,-0.5456,2080
0,0.3406,-0.8176,-0.7795,0.3868,-0.1185,-0.5701,2132
0,0.3843,-0.8086,-0.7756,0.4638,0.069,-0.5181,2020
0,0.4534,-0.8015,-0.6936,0.4492,0.1639,-0.5058,2069
0,0.4751,-0.7822,-0.5742,0.4093,0.2031,-0.5165,2064
0,0.5088,-0.7656,-0.5098,0.3622,0.0874,-0.4797,2089
0,0.3972,-0.8018,-0.5637,0.352,0.1116,-0.4338,2201
0,0.3955,-0.8237,-0.6011,0.3706,0.2626,-0.3895,2069
0,0.3347,-0.8481,-0.5376,0.346,0.4143,-0.3609,2075
0,0.3188,-0.8479,-0.5352,0.3561,0.3591,-0.3671,2022
0,0.311,-0.8359,-0.4995,0.3353,0.2278,-0.4016,2075
0,0.3337,-0.8328,-0.4622,0.2932,0.0879,-0.445,2073
0,0.3691,-0.8352,-0.3999,0.2396,0.0474,-0.4091,2105
0,0.4048,-0.8618,-0.4067,0.1802,-0.0643,-0.3191,2052
0,0.3958,-0.9465,-0.4055,0.0718,-0.1165,-0.2268,2057
0,0.2397,-0.9473,-0.5115,0.0384,0.0157,-0.1623,1957
0,0.3059,-0.8955,-0.5654,0.0759,0.1268,-0.0799,2024
0,0.3794,-0.8379,-0.6182,0.1404,0.2916,-0.1081,2046
0,0.4382,-0.9292,-0.615,0.1558,0.4027,-0.0218,1967
0,0.4963,-0.9976,-0.6604,0.1639,0.4345,0.0044,2072
0,0.5396,-0.9954,-0.6536,0.1513,0.5272,-0.0478,2073
0,0.5142,-0.9817,-0.6582,0.1308,0.6067,0.0413,2055
0,0.4883,-0.9814,-0.6362,0.1332,0.7231,0.147,2010
0,0.4653,-0.9524,-0.5925,0.1202,0.7485,0.2372,2075
0,0.3694,-0.9214,-0.5249,0.1519,0.8039,0.2482,1986
0,0.3372,-0.9009,-0.4988,0.1649,0.8215,0.2858,2167
0,0.2766,-0.8447,-0.5115,0.1681,0.8367,0.3456,1989
0,0.3027,-0.8499,-0.4055,0.1348,0.86,0.3666,2041
0,0.145,-0.9197,-0.3337,0.0061,0.8778,0.4265,2095
0,0.1475,-0.8857,-0.3044,-0.0403,1.0368,0.4425,2004
0,0.1348,-0.885,-0.292,-0.1095,1.0808,0.6023,2013
0,0.1086,-0.7998,-0.2686,-0.1209,1.1122,0.6416,2104
0,0.1211,-0.7065,-0.3367,-0.1621,1.0776,0.7395,2066
0,0.1511,-0.6125,-0.4048,-0.1409,1.0108,0.698,2136
0,0.2217,-0.6309,-0.4097,-0.187,0.9313,0.6433,1935
0,0.2935,-0.688,-0.3872,-0.2377,0.8095,0.5729,2110
0,0.3049,-0.6733,-0.292,-0.3356,0.7271,0.5228,2116
0,0.4033,-0.5964,-0.1873,-0.4797,0.6672,0.5904,2026
0,0.4028,-0.5212,-0.1516,-0.6327,0.8697,0.6247,2058
0,0.3652,-0.5076,-0.2097,-0.771,1.1282,0.7172,2065
0,0.5674,-0.4092,-0.3376,-0.8548,1.3848,0.7174,2060
0,0.7827,-0.3862,-0.4897,-0.9372,1.468,0.8076,2050
0,0.8354,-0.3108,-0.854,-0.7867,0.9232,0.6797,2044
0,1.0293,0.0317,-1.2725,-0.6678,-0.3983,-0.3445,2052
0,0.6104,-0.0996,-0.5754,-0.6878,0.453,-0.652,2058
0,-0.1707,-0.5828,-0.3853,-0.5273,1.7265,0.1963,2072
0,-0.1553,-0.6724,-0.3777,-0.1979,2.3143,1.1456,2038
0,0.552,-0.1267,-0.5068,-0.2261,2.6974,0.9003,2051
0,0.6204,0.1104,-0.4229,-0.2803,3.1594,0.3385,1991
0,0.4812,-0.2791,-0.125,-0.1175,2.6722,0.2626,2050
0,0.582,-0.678,-0.063,-0.1701,2.8296,0.6882,2064
0,0.1606,-0.7544,-0.1323,-0.1261,2.7078,0.791,2014
0,0.6553,-0.4607,-0.3809,0.2372,2.7534,0.2348,2019
0,0.7317,-0.5977,-0.3521,0.3006,2.5167,-0.1762,2100
0,1.1887,-0.6943,-0.4563,0.2212,2.1935,-0.4092,2086
1,1.0027,-1.0925,-0.4268,-0.0394,2.1277,-0.6446,2059
1,0.3979,-0.74,-0.1477,-0.1176,1.4866,-0.5129,2052
1,0.1648,-0.2234,-0.2207,-0.1115,1.6076,0.1487,2056
1,-0.1726,-0.2471,-0.333,0.0537,2.1535,1.0858,2033
1,-0.6658,-0.4409,-0.4409,0.3417,2.2605,1.5495,2057
1,-0.6082,-0.5728,-0.3313,0.5809,2.3329,1.5087,2011
1,-0.4507,-0.8906,0.1782,0.7291,2.0406,1.1207,2044
1,-0.292,-0.9626,0.593,0.7383,1.7137,0.8794,2057
1,0.0867,-0.9829,0.7163,1.0624,1.0158,0.6225,2082
1,0.4883,-1.0923,0.8782,1.191,-0.1004,0.3887,2040
1,0.5869,-1.1057,0.6396,1.0758,-1.1087,0.151,2054
1,0.5354,-1.0276,0.1599,0.8052,-1.76,0.0304,2051
1,0.2969,-0.7432,-0.3159,0.6023,-2.0919,-0.0485,2052
1,0.1277,-0.6392,-0.6113,0.561,-1.8587,-0.0039,2058
1,0.1865,-0.5972,-0.5847,0.5512,-1.5398,0.0502,2057
1,0.2417,-0.5449,-0.5261,0.4188,-1.3471,0.0581,2065
1,0.335,-0.5786,-0.374,0.242,-1.307,-0.0024,2035
1,0.3936,-0.6357,-0.2822,0.0842,-1.2716,-0.0525,2053
1,0.3784,-0.6584,-0.2542,-0.0305,-1.1126,-0.0786,2038
1,0.3669,-0.6301,-0.2664,-0.0839,-0.851,-0.1067,2045
1,0.3882,-0.6345,-0.3145,-0.0716,-0.5223,-0.1574,2056
1,0.3804,-0.6567,-0.3611,-0.0172,-0.2281,-0.193,2049
1,0.4324,-0.7593,-0.457,0.086,0.0013,-0.2196,2057
1,0.4504,-0.8369,-0.5161,0.1755,0.1912,-0.2019,2035
1,0.4912,-0.9202,-0.5994,0.1976,0.2462,-0.1241,2053
1,0.5354,-0.9556,-0.6887,0.2246,0.2966,0.0204,2054
1,0.6497,-0.9587,-0.7168,0.1771,0.2947,0.2284,2052
1,0.7241,-1.0261,-0.7524,-0.0348,0.1798,0.455,2049
1,0.658,-0.9614,-0.7288,-0.1182,0.0202,0.6516,2057
1,0.5925,-0.884,-0.6255,-0.1388,-0.121,0.7827,2050
1,0.5032,-0.873,-0.5854,-0.2112,-0.2037,0.8732,2048
1,0.4399,-0.8828,-0.5625,-0.2621,-0.0859,0.9517,2039
1,0.3643,-0.9324,-0.4875,-0.2659,0.1185,0.9628,2048
1,0.3127,-0.9709,-0.3816,-0.2234,0.3029,0.909,2048
1,0.2947,-1.0569,-0.3245,-0.132,0.3871,0.7905,2053
1,0.3284,-1.1128,-0.3506,-0.0305,0.3838,0.6501,2042
1,0.3757,-1.1157,-0.3926,0.072,0.4235,0.4976,2058
1,0.4407,-1.0486,-0.3879,0.1918,0.4376,0.3647,2034
1,0.4873,-0.9976,-0.29,0.2998,0.3639,0.2752,2046
1,0.4846,-1.0188,-0.2148,0.4237,0.1091,0.174,2049
1,0.3555,-0.8284,-0.447,0.6616,0.0621,0.1412,2066
1,0.1958,-0.8374,-0.3081,0.7084,0.0656,0.1406,2037
1,0.1885,-0.8044,-0.0327,0.4862,-0.5172,0.2045,2043
1,0.3391,-0.8523,-0.2332,0.3404,-0.8345,0.3333,2034
1,0.2822,-0.9524,-0.4094,0.4898,-0.8662,0.2595,2063
1,0.2292,-0.8967,-0.4504,0.6521,-0.6633,0.1067,2050
1,0.1851,-0.8101,-0.4858,0.7602,-0.4054,0.0569,2065
1,0.1472,-0.8303,-0.4053,0.8002,-0.4136,0.0621,2049
1,0.0706,-0.8638,-0.4014,0.8885,-0.6734,-0.0336,2057
1,0.2339,-0.8806,-0.4175,0.8849,-0.985,-0.1533,2040
1,0.2239,-0.7537,-0.5107,0.8794,-1.1929,-0.2486,2030
1,0.1477,-0.7607,-0.469,0.8349,-1.177,-0.2739,2057
1,0.1353,-0.7429,-0.4883,0.7159,-1.2149,-0.2384,2058
1,0.1067,-0.78,-0.5264,0.6205,-1.0801,-0.1325,2053
1,0.0093,-0.9363,-0.4949,0.5187,-0.8114,0.0216,2052
1,0.0347,-1.0325,-0.5007,0.4846,-0.7136,0.1045,2053
1,0.1655,-1.0771,-0.4409,0.4356,-0.6364,0.2091,2051
1,0.1953,-1.1357,-0.3369,0.4161,-0.5277,0.3164,2060
1,0.1326,-1.1094,-0.2854,0.4787,-0.3862,0.4014,2052
1,0.1667,-1.0857,-0.2437,0.6347,-0.3563,0.4019,2052
1,0.2092,-1.1655,-0.095,0.6983,-0.3587,0.3671,2042
1,0.1907,-1.2212,0.0239,0.6843,-0.3577,0.3216,2166
1,0.1843,-1.3086,0.1221,0.6095,-0.3627,0.3061,2021
1,0.1738,-1.3333,0.1128,0.553,-0.465,0.2862,2030
1,0.1279,-1.3784,0.0684,0.53,-0.5863,0.2779,2053
1,0.1973,-1.321,-0.0103,0.5842,-0.7344,0.2304,2032
1,0.1997,-1.3271,0.0168,0.628,-0.8012,0.3068,2074
1,0.2031,-1.2605,0.0322,0.573,-0.9266,0.238,2045
1,0.3962,-0.9976,0.0012,0.7168,-1.0708,0.4778,2048
1,0.2468,-1.1604,0.1069,0.5747,-1.0198,0.1361,2043
1,0.3323,-1.054,0.1165,0.6634,-0.9585,0.1129,2045
1,0.3335,-1.1279,0.1787,0.7158,-0.8756,-0.0537,2085
1,0.5061,-0.9443,0.2148,0.8335,-0.9288,-0.0904,2001
1,0.2947,-1.1484,0.2539,0.832,-0.8843,0.049,2060
1,0.3264,-0.9829,0.199,0.8465,-0.9998,-0.0933,2044
1,0.3318,-0.9753,0.1365,0.936,-1.1782,-0.1372,2071
1,0.1394,-1.1934,0.1401,0.9551,-1.2172,-0.0021,2050
1,0.1038,-1.0781,0.1616,0.8582,-1.2135,-0.0085,2047
1,0.0852,-0.9331,0.0703,0.8166,-1.0673,0.1697,2071
1,-0.2021,-1.0632,0.1672,0.7002,-0.9377,0.2035,2016
1,0.0769,-0.7861,0.1917,0.6549,-0.9003,0.2111,2031
1,0.1147,-0.751,0.1929,0.62,-0.826,0.234,2061
1,0.0671,-0.7776,0.2375,0.7899,-0.993,0.4537,2057
1,0.2432,-0.603,0.2065,0.6835,-0.9572,0.0894,2026
1,0.2385,-0.5833,0.1807,0.7785,-0.9804,0.0161,2047
1,0.2664,-0.6299,0.1838,0.7525,-0.9064,0.0104,2053
1,-0.0239,-0.8396,0.3098,0.6185,-0.7359,-0.0683,2062
1,0.4092,-0.5779,0.1873,0.5478,-0.7269,-0.1601,2025
1,0.3052,-0.6868,0.157,0.4766,-0.5673,-0.151,2051
1,0.2808,-0.6333,0.1536,0.4139,-0.5058,-0.2593,2073
1,0.2803,-0.6182,0.1306,0.363,-0.3702,-0.2593,2065
1,0.2202,-0.6626,0.179,0.2862,-0.3241,-0.2554,2043
1,0.1592,-0.6875,0.1609,0.2286,-0.2783,-0.2229,2047
1,0.179,-0.5347,0.1741,0.1654,-0.3486,-0.2811,2045
1,0.2385,-0.4138,0.1021,0.096,-0.5849,-0.3096,2048
1,0.2949,-0.5132,-0.0127,0.0297,-0.9881,-0.3216,2031
1,0.3879,-0.7529,-0.1353,-0.0186,-1.3519,-0.2477,2044
1,0.429,-0.8337,-0.1904,-0.0551,-1.4982,-0.1474,2049
1,0.4309,-0.8848,-0.2651,-0.0987,-1.5506,-0.0939,2050
1,0.3284,-0.988,-0.3125,-0.1384,-1.4543,-0.0559,2062
1,0.2729,-1.1313,-0.3977,-0.1614,-1.3185,-0.055,2084
1,0.3262,-1.1812,-0.4312,-0.1569,-1.1615,-0.0487,2025
2,0.4939,-1.1628,-0.416,-0.1912,-1.0986,-0.0213,2057
2,0.5789,-1.1106,-0.335,-0.2458,-1.1926,0.0421,2053
2,0.6851,-1.0886,-0.2463,-0.2667,-1.3191,0.1059,2062
2,0.7751,-1.0227,-0.1636,-0.2633,-1.4029,0.1465,2041
2,0.813,-1.0234,-0.0649,-0.2598,-1.3814,0.1298,2034
2,0.7844,-1.031,0.0381,-0.2429,-1.2254,0.0687,2049
2,0.7432,-1.0488,0.0823,-0.2147,-1.0439,0.0088,2041
2,0.7195,-1.05,0.093,-0.178,-0.8119,-0.0407,2019
2,0.6758,-1.0564,0.1013,-0.1282,-0.6236,-0.0696,2058
2,0.6404,-1.052,0.0642,-0.0621,-0.5366,-0.1136,2043
2,0.5842,-1.0444,0.0415,0.0178,-0.5348,-0.1557,2052
2,0.5269,-1.042,-0.0042,0.0931,-0.5896,-0.1802,2049
2,0.4612,-1.0325,-0.0652,0.1973,-0.7158,-0.2063,2045
2,0.4402,-0.978,-0.26,0.4069,-0.7935,-0.2883,2050
2,0.3904,-0.9685,-0.2319,0.4216,-0.6628,-0.2659,2055
2,0.3882,-0.9126,-0.0989,0.3717,-0.975,-0.2555,2061
2,0.4783,-0.9053,-0.0996,0.2188,-1.4929,-0.1987,2049
2,0.5154,-0.9246,-0.208,0.2583,-1.5904,-0.2234,2071
2,0.5215,-0.9663,-0.1445,0.2951,-1.8078,-0.3594,2049
2,0.5269,-0.9519,-0.1443,0.3753,-1.9785,-0.4884,2051
2,0.5359,-0.8357,-0.2888,0.4847,-1.6835,-0.4469,2048
2,0.4563,-0.8513,-0.2305,0.5805,-1.4886,-0.4634,2047
2,0.4353,-0.9004,-0.1921,0.1256,-2.7976,-1.1078,2046
2,0.4141,-0.9053,-0.2686,0.6108,-1.7634,-0.4291,2051
2,0.3572,-0.8889,-0.3079,0.71,-1.6981,-0.4576,2053
2,0.2896,-0.8682,-0.3323,0.7305,-1.6438,-0.471,2051
2,0.1816,-0.7271,-0.4912,0.4755,-1.9562,-0.8176,2040
2,0.2327,-0.8994,-0.3174,0.7451,-1.3561,-0.3641,2059
2,0.2739,-0.8765,-0.3604,0.7514,-1.4019,-0.3477,2053
2,0.1899,-0.9216,-0.3213,0.7644,-1.4716,-0.3542,2052
2,0.2114,-0.9768,-0.3005,0.7486,-1.6399,-0.3741,2049
2,0.239,-0.9771,-0.313,0.8058,-1.8642,-0.4172,2046
2,0.2563,-1.0964,-0.2947,0.8275,-2.1403,-0.4063,2048
2,0.2661,-0.8135,-0.4187,0.8538,-2.43,-0.4855,2049
2,0.3042,-1.0366,-0.3865,0.7839,-2.3952,-0.4368,2048
2,0.4124,-1.135,-0.2324,0.5265,-2.7659,-0.5738,2057
2,0.2358,-0.7507,-0.3928,0.9198,-2.1891,-0.3932,2039
2,0.2366,-0.9199,-0.3508,0.9271,-2.0391,-0.3781,2058
2,0.2512,-0.9507,-0.3352,1.0507,-2.0718,-0.3108,2043
2,0.1987,-1.0999,-0.2678,1.1544,-2.1181,-0.295,2046
2,0.1489,-1.2048,-0.2219,1.0974,-2.0125,-0.285,2060
2,0.1208,-1.2278,-0.1667,1.0544,-1.8599,-0.2879,2038
2,0.072,-1.3186,-0.0405,0.912,-1.5994,-0.1981,2052
2,0.1035,-1.2915,0.073,0.8733,-1.5976,-0.1396,2047
2,0.1235,-1.2644,0.1936,0.98,-1.5225,-0.1563,2040
2,0.1348,-1.2949,0.3174,1.1388,-1.3727,-0.1459,2056
2,0.1436,-1.2373,0.3755,1.1842,-1.492,-0.1602,2092
2,0.1426,-1.2217,0.373,1.2011,-1.7121,-0.2185,2031
2,0.1853,-1.1619,0.3352,1.2026,-1.9466,-0.2149,2037
2,0.1909,-1.093,0.2925,1.2029,-2.0947,-0.2336,2060
2,0.2036,-0.9993,0.23,1.2408,-2.2321,-0.1996,2068
2,0.2395,-0.8992,0.1382,1.2473,-2.3314,-0.1999,2050
2,0.2512,-0.8206,0.0308,1.2291,-2.3992,-0.2192,2045
2,0.3525,-0.7678,-0.0591,1.2087,-2.3886,-0.2053,2065
2,0.396,-0.7314,-0.1125,1.1888,-2.3232,-0.2172,2048
2,0.4163,-0.6672,-0.1558,1.224,-2.2895,-0.0787,2071
2,0.4224,-0.6624,-0.1584,1.1708,-2.1298,-0.0519,2041
2,0.415,-0.6885,-0.167,1.117,-2.047,0.0326,2086
2,0.3628,-0.7146,-0.1887,1.0332,-1.646,-0.0329,2072
2,0.4712,-0.6421,-0.1904,0.9837,-1.4865,-0.1206,2074
2,0.3093,-0.8062,-0.1299,0.8614,-1.0577,-0.1358,2058
2,0.4126,-0.7048,-0.0779,0.811,-0.7745,-0.2699,2064
2,0.283,-0.7476,0.0137,0.7652,-0.7965,-0.2622,2065
2,0.4465,-0.6855,0.0342,0.7851,-0.5608,-0.2637,2018
2,0.3342,-0.7771,0.1013,0.7716,-0.5542,-0.1306,2050
2,0.3801,-0.7964,0.1624,0.6834,-0.6867,-0.2257,2035
2,0.3967,-0.7803,0.1143,0.7014,-0.7657,-0.2081,2026
2,0.3418,-0.7781,0.1121,0.7022,-0.7723,-0.134,2040
2,0.2937,-0.8311,0.1362,0.5988,-0.8357,-0.1378,2081
2,0.3328,-0.8059,0.1194,0.5549,-0.9937,-0.1286,2063
2,0.3188,-0.8267,0.1116,0.5167,-1.0796,-0.0992,2009
2,0.396,-0.7651,0.135,0.5112,-1.276,-0.1017,2065
2,0.3181,-0.8489,0.1282,0.4249,-1.2398,-0.0165,2063
2,0.3306,-0.8311,0.0791,0.3775,-1.2979,0.0317,2062
2,0.3589,-0.7788,0.0342,0.373,-1.2872,0.0727,1983
2,0.3037,-0.8391,0.0154,0.3488,-1.2924,0.1099,2054
2,0.3442,-0.866,-0.0059,0.3621,-1.2501,0.1059,2034
2,0.2974,-0.8599,-0.0459,0.367,-1.1841,0.0768,2050
2,0.3247,-0.7844,-0.094,0.4036,-1.0826,0.0653,2076
2,0.5757,-0.7922,-0.001,0.2741,-1.6371,-0.4642,2020
2,0.3691,-0.8503,-0.0142,0.3789,-0.8869,0.0658,2041
2,0.4404,-0.7888,-0.0505,0.333,-0.9616,0.0278,2048
2,0.5828,-0.7869,0.0508,0.2075,-1.4458,-0.3964,2037
2,0.4434,-0.9939,0.0454,0.1919,-1.1684,-0.11,2063
2,0.6521,-0.874,-0.0549,0.1009,-1.462,-0.1876,2073
2,0.7974,-0.8618,-0.1189,0.1075,-2.7369,-0.7095,2001
2,0.3657,-1.2231,-0.1707,-0.018,-1.7779,-0.1402,2058
2,0.8354,-1.1731,-0.2222,0.0403,-1.9375,0.0027,2069
2,0.7585,-1.0002,-0.1746,0.0775,-2.4277,-0.2224,2056
2,0.5542,-1.1343,-0.3215,0.2388,-2.7014,-0.0641,2048
2,0.687,-0.9976,-0.1235,0.2021,-2.1945,0.0953,2057
2,0.6626,-0.8938,-0.1545,0.2603,-2.2338,-0.0045,2064
2,0.5002,-1.0098,-0.1064,0.0658,-2.0904,-0.187,2059
2,0.3291,-1.052,-0.075,0.0848,-1.2351,0.0732,2047
2,0.7466,-0.9148,-0.0603,0.2982,-1.2979,-0.1942,2058
2,-0.4985,-1.2058,0.0762,0.0782,0.1096,0.0085,2045
2,0.3833,-0.9712,0.2251,-0.1225,0.2699,0.2555,2035
2,0.6782,-0.9507,0.1418,-0.3662,-0.0097,0.389,2062
3,0.7537,-0.8066,-0.0137,-0.4309,-0.3982,0.2906,2048
3,0.7622,-0.7444,-0.084,-0.3305,-0.5422,0.1742,2038
3,0.6494,-0.7288,-0.0898,-0.1723,-0.6586,0.0859,2062
3,0.7151,-0.7393,-0.0349,-0.1144,-1.027,0.0398,2062
3,0.7205,-0.7844,-0.1309,-0.0983,-1.1455,0.0003,2051
3,0.6384,-0.8018,-0.2502,-0.0724,-1.1545,-0.034,2027
3,0.594,-0.8337,-0.2778,-0.0635,-1.1091,-0.03,2052
3,0.5833,-0.7898,-0.2803,-0.0011,-1.1166,-0.0055,2065
3,0.5381,-0.7749,-0.2644,-0.0012,-1.0292,0.0205,2050
3,0.4812,-0.7739,-0.2576,0.0209,-0.9694,0.0531,2058
3,0.4854,-0.8022,-0.2158,0.032,-0.9593,0.0614,2047
3,0.5015,-0.7632,-0.1921,0.031,-0.9525,0.0435,2041
3,0.4402,-0.7236,-0.1448,0.0035,-0.7959,0.0248,2045
3,0.4026,-0.7314,-0.0969,-0.0518,-0.7244,0.0471,2054
3,0.3555,-0.7607,-0.0828,-0.047,-0.7032,0.0642,2060
3,0.3135,-0.7722,-0.1091,-0.0221,-0.6281,0.0594,2070
3,0.2485,-0.7476,-0.1213,-0.0033,-0.5819,0.0527,2054
3,0.2029,-0.7693,-0.2043,-0.0182,-0.5481,0.0606,2047
3,0.1543,-0.822,-0.2588,-0.0249,-0.4586,0.0784,2048
3,0.155,-0.7971,-0.3215,0.0032,-0.3786,0.0671,2058
3,0.1641,-0.8118,-0.354,0.0205,-0.306,0.1001,2044
3,0.1675,-0.8582,-0.3687,0.0176,-0.2236,0.1281,2057
3,0.1907,-0.8462,-0.3572,0.092,-0.0583,0.1292,2040
3,0.2651,-0.834,-0.3647,0.1739,-0.0036,0.0883,2059
3,0.4258,-0.8225,-0.2976,0.2975,-0.0676,0.0505,2026
3,0.502,-0.8613,-0.3003,0.3227,-0.2028,-0.0144,2040
3,0.519,-0.9893,-0.2966,0.324,-0.3597,-0.0534,2044
3,0.5581,-1.0601,-0.3662,0.2888,-0.5789,-0.2274,2062
3,0.5693,-1.1667,-0.3262,0.2185,-0.6273,-0.2252,2055
3,0.5073,-1.166,-0.5488,0.137,-0.6368,-0.3553,2046
3,0.4392,-1.1492,-0.7053,0.0459,-0.4755,-0.3514,2062
3,0.2524,-0.8591,-0.8337,0.1654,-0.1891,-0.1952,2026
3,0.0269,-1.0474,-0.6484,0.2515,-0.0678,0.0453,2058
3,-0.0701,-1.1521,-0.4202,0.2718,0.033,0.2558,2046
3,-0.1768,-1.2515,-0.2776,0.1916,0.1043,0.3513,2042
3,-0.1006,-1.2207,-0.2075,0.2317,0.1828,0.3806,2077
3,0.0779,-1.1411,-0.1172,0.285,0.24,0.3848,2042
3,0.2629,-1.0593,0.0823,0.241,0.2213,0.3574,2039
3,0.4072,-0.9705,0.2788,0.1985,0.0008,0.2304,2044
3,0.4702,-0.9558,0.3911,0.1308,-0.348,0.049,2050
3,0.4976,-0.9365,0.3906,0.0507,-0.6035,-0.081,2044
3,0.5027,-0.9158,0.2864,0.0419,-0.6462,-0.1466,2066
3,0.5149,-0.9226,0.1575,0.1193,-0.5229,-0.1301,2059
3,0.5088,-0.9192,0.0605,0.2236,-0.3384,-0.1233,2054
3,0.4922,-0.927,0.0432,0.281,-0.2659,-0.0807,2047
3,0.4341,-0.9634,-0.0071,0.3352,-0.259,-0.0361,2041
3,0.4199,-0.9644,-0.0667,0.3654,-0.2076,-0.0047,2051
3,0.4424,-0.9224,-0.0906,0.3267,-0.0296,-0.0064,2041
3,0.4502,-0.8738,-0.0764,0.2774,0.1075,-0.0007,2056
3,0.4709,-0.8367,-0.0227,0.2191,0.1428,0.03,2059
3,0.4978,-0.7922,-0.0398,0.1422,0.1281,0.0505,2061
3,0.5325,-0.7783,-0.0867,0.0995,0.1938,0.0538,2053
3,0.4897,-0.7263,-0.0903,0.0352,0.369,0.0499,2068
3,0.4502,-0.7375,-0.0129,0.0154,0.4161,0.0403,2056
3,0.4424,-0.6968,-0.0222,-0.002,0.3595,0.0218,2040
3,0.4167,-0.7136,0.0061,-0.0197,0.3316,-0.0364,2042
3,0.4006,-0.7024,-0.002,-0.021,0.3107,-0.0848,2083
3,0.3779,-0.7603,0.0198,-0.0272,0.2804,-0.0886,2048
3,0.3601,-0.7441,0.0513,0.018,0.2378,-0.1117,2052
3,0.3267,-0.707,0.0757,0.0134,0.1607,-0.0731,2051
3,0.332,-0.7209,0.0869,0.0095,0.033,-0.055,2050
3,0.3359,-0.7402,0.053,-0.0008,-0.0579,-0.0373,2071
3,0.3425,-0.7632,0.0364,-0.0101,-0.1205,-0.047,2057
3,0.3557,-0.7747,-0.0005,-0.0388,-0.1238,-0.0734,2030
3,0.3611,-0.8049,-0.0154,-0.0626,-0.0698,-0.1021,2047
3,0.354,-0.8208,-0.0488,-0.1016,0.0534,-0.1277,2059
3,0.3269,-0.8225,-0.0498,-0.1301,0.1517,-0.1373,2052
3,0.3188,-0.8235,-0.0525,-0.1433,0.2025,-0.1378,2061
3,0.2952,-0.8308,-0.0671,-0.1559,0.1547,-0.1285,2037
3,0.291,-0.8523,-0.0981,-0.1623,0.0545,-0.1421,2064
3,0.2725,-0.8953,-0.1013,-0.1695,-0.0505,-0.1494,2052
3,0.2466,-0.9182,-0.0842,-0.1795,-0.147,-0.1463,2051
3,0.2151,-0.9077,-0.0771,-0.1852,-0.2223,-0.1408,2057
3,0.1782,-0.9001,-0.0657,-0.1956,-0.2794,-0.1246,2052
3,0.2427,-1.0015,-0.0933,-0.2159,-0.3384,-0.0672,2061
3,0.4312,-1.2026,-0.1978,-0.3157,-0.5494,0.073,2040
3,0.51,-1.2385,-0.3101,-0.4091,-0.7986,0.1783,2043
3,0.4624,-1.1948,-0.3752,-0.4561,-1.148,0.1778,2039
3,0.4988,-1.0642,-0.4348,-0.4666,-1.2521,0.1349,2044
3,0.5215,-0.8884,-0.3911,-0.4156,-1.0869,0.0971,2050
3,0.5249,-0.7996,-0.3276,-0.4044,-0.6942,0.068,2025
3,0.5552,-0.8147,-0.2837,-0.3886,-0.2742,0.0561,2063
3,0.6353,-0.9277,-0.248,-0.3657,0.1646,0.0397,2034
3,0.6946,-1.0591,-0.2351,-0.3779,0.5273,0.0206,2070
3,0.77,-1.1321,-0.2559,-0.414,0.6863,0.0212,2056
3,0.9058,-1.1013,-0.261,-0.4095,0.5781,0.0429,2046
3,0.9368,-1.0168,-0.2605,-0.3587,0.3365,0.0124,2055
3,0.8994,-0.9412,-0.2471,-0.2721,0.0618,-0.0161,2055
3,0.8113,-0.8391,-0.2407,-0.2282,-0.1147,-0.0146,2071
3,0.6956,-0.7686,-0.2014,-0.2378,-0.112,-0.0053,2032
3,0.6184,-0.7458,-0.1562,-0.2603,-0.0619,-0.0044,2053
3,0.5945,-0.7441,-0.1057,-0.2597,0.0048,-0.0354,2049
3,0.5916,-0.7202,-0.0715,-0.2304,0.0863,-0.0691,2043
3,0.5542,-0.7258,-0.0474,-0.1976,0.0413,-0.104,2044
3,0.55,-0.708,-0.0439,-0.1493,-0.0442,-0.1357,2045
3,0.5601,-0.7019,-0.073,-0.1141,-0.13,-0.1474,2059
3,0.5208,-0.7039,-0.1533,-0.0967,-0.1258,-0.1328,2049
3,0.4526,-0.6897,-0.2339,-0.1091,-0.1178,-0.1105,2054
3,0.4121,-0.7131,-0.2783,-0.082,-0.1968,-0.1019,2051
3,0.3667,-0.7129,-0.3196,-0.0142,-0.2667,-0.1128,2045
3,0.3491,-0.6943,-0.3687,0.0376,-0.3089,-0.1168,2051
3,0.342,-0.6785,-0.3826,0.0939,-0.2563,-0.0952,2058
3,0.3433,-0.6499,-0.3262,0.1284,-0.2526,-0.0613,2046
3,0.3506,-0.6316,-0.2852,0.1317,-0.3108,-0.0334,2050
3,0.3665,-0.6106,-0.2729,0.122,-0.4169,-0.0088,2066
4,0.3923,-0.6196,-0.2688,0.092,-0.5289,0.0245,2056
4,0.4124,-0.6504,-0.251,0.0699,-0.6152,0.0254,2037
4,0.4226,-0.6973,-0.2617,0.0486,-0.7088,0.0129,2072
4,0.4368,-0.7249,-0.3115,0.0533,-0.7827,-0.0037,2045
4,0.4341,-0.7695,-0.3735,0.0718,-0.7999,-0.0071,2072
4,0.3921,-0.8242,-0.4358,0.0888,-0.8244,0.0051,2065
4,0.3513,-0.8496,-0.5281,0.1217,-0.8469,0.0113,2038
4,0.2808,-0.8389,-0.5898,0.1421,-0.7935,0.0302,2034
4,0.2061,-0.887,-0.5916,0.1172,-0.751,0.0686,2001
4,0.2222,-0.9265,-0.5476,0.0959,-0.5927,0.0831,2022
4,0.1499,-0.9934,-0.4717,0.0245,-0.5942,0.1069,2066
4,0.1648,-1.072,-0.3875,-0.0286,-0.7712,0.1009,1992
4,0.1707,-1.1414,-0.3362,-0.075,-0.7889,0.1225,2025
4,0.2195,-1.2466,-0.2009,-0.1129,-0.7415,0.1637,2071
4,0.2576,-1.2766,-0.0579,-0.1241,-0.7231,0.182,2055
4,0.3176,-1.1924,0.0317,-0.1135,-0.6867,0.1958,2035
4,0.4587,-1.1382,0.1533,-0.0957,-0.6075,0.179,2037
4,0.54,-1.134,0.24,-0.0561,-0.6172,0.0634,2030
4,0.583,-1.1526,0.2673,0.0365,-0.5745,-0.1336,2019
4,0.509,-1.1794,0.1892,0.1394,-0.3635,-0.3052,2047
4,0.3743,-1.2861,0.0632,0.2012,-0.0871,-0.3619,2056
4,0.303,-1.3098,-0.0994,0.2502,0.0429,-0.3791,2047
4,0.3665,-1.2627,-0.1831,0.3563,0.0831,-0.403,2037
4,0.4373,-1.1885,-0.1929,0.457,0.102,-0.3717,2050
4,0.5049,-1.0999,-0.1375,0.5056,0.0157,-0.3473,2064
4,0.5308,-1.0376,-0.0564,0.4987,-0.0896,-0.3131,2063
4,0.5645,-0.959,0.0537,0.4565,-0.1594,-0.3015,2012
4,0.5195,-0.9502,0.105,0.3923,-0.1001,-0.2979,2081
4,0.5479,-0.9304,0.1475,0.3864,0.0395,-0.3059,2073
4,0.5649,-0.8821,0.2041,0.3838,0.1846,-0.3348,2034
4,0.4866,-0.9478,0.2075,0.3715,0.3293,-0.4027,2059
4,0.4724,-0.8188,0.1907,0.4444,0.3769,-0.4906,2027
4,0.4028,-0.8262,0.116,0.4149,0.3345,-0.5042,2071
4,0.4001,-0.832,0.0496,0.3994,0.2394,-0.5457,2051
4,0.3413,-0.814,-0.0032,0.3613,0.149,-0.5536,2052
4,0.3198,-0.8687,-0.0496,0.3233,0.0597,-0.5325,2052
4,0.3225,-0.8228,-0.0596,0.2995,-0.0304,-0.5207,2045
4,0.3555,-0.7471,-0.0903,0.314,-0.0724,-0.489,2047
4,0.3572,-0.7219,-0.0972,0.3185,-0.0969,-0.4365,2019
4,0.4292,-0.7078,-0.0813,0.3177,-0.2052,-0.426,2032
4,0.4358,-0.7317,-0.1018,0.2888,-0.2916,-0.4256,2042
4,0.4165,-0.7417,-0.0942,0.2579,-0.2828,-0.4184,2046
4,0.3767,-0.7722,-0.0652,0.2393,-0.2105,-0.4042,2033
4,0.3455,-0.7988,-0.0662,0.2361,-0.0908,-0.3793,2045
4,0.3315,-0.8101,-0.0847,0.2353,0.0804,-0.3492,2035
4,0.3289,-0.8064,-0.0881,0.2348,0.2535,-0.2988,2083
4,0.3132,-0.8057,-0.0771,0.2224,0.34,-0.2739,2028
4,0.3076,-0.7964,-0.0574,0.1996,0.3677,-0.2406,2079
4,0.3066,-0.7913,-0.0757,0.1756,0.329,-0.2107,2025
4,0.2974,-0.7966,-0.0774,0.1467,0.2715,-0.2008,2029
4,0.2769,-0.7881,-0.1135,0.1269,0.2119,-0.1926,2089
4,0.269,-0.8071,-0.123,0.1135,0.2049,-0.1694,2043
4,0.2739,-0.8323,-0.1357,0.1075,0.1824,-0.1557,2047
4,0.2676,-0.854,-0.1523,0.0879,0.1304,-0.1459,2082
4,0.261,-0.8838,-0.1833,0.0591,0.0951,-0.1414,2034
4,0.2688,-0.9087,-0.2131,0.033,0.0522,-0.1204,2064
4,0.2585,-0.9282,-0.22,0.0182,0.0641,-0.1131,2038
4,0.2642,-0.9421,-0.1958,0.0324,0.1127,-0.1188,2063
4,0.3022,-0.9868,-0.1785,0.0186,0.1712,-0.1025,2056
4,0.3933,-1.0706,-0.1829,-0.0216,0.0876,-0.0598,2069
4,0.5532,-1.2305,-0.272,-0.1125,-0.1257,0.006,2015
4,0.6763,-1.2524,-0.3376,-0.1851,-0.3392,0.0586,2044
4,0.6453,-1.1711,-0.3416,-0.1899,-0.5237,0.0481,2050
4,0.562,-1.0798,-0.3403,-0.141,-0.5934,0.0762,2050
4,0.5476,-1.0417,-0.3252,-0.0451,-0.4972,0.1445,2069
4,0.5623,-0.9768,-0.2188,0.1202,-0.2626,0.1911,2049
4,0.6157,-0.9556,-0.0967,0.1811,-0.0433,0.2639,2046
4,0.676,-0.8022,0.0508,0.2794,0.1587,0.253,2052
4,0.7336,-0.8655,0.2009,0.3532,0.3685,0.2161,2047
4,0.8003,-0.915,0.2808,0.3753,0.5817,0.1497,2048
4,0.8364,-0.843,0.2722,0.4144,0.6452,0.0651,2050
4,0.8711,-0.7991,0.1956,0.4843,0.5753,-0.0112,2048
4,0.8127,-0.7754,0.0886,0.5102,0.3791,-0.0727,2053
4,0.7805,-0.7698,0.0007,0.5341,-0.0157,-0.1285,2049
4,0.698,-0.7727,-0.1345,0.5289,-0.4492,-0.1601,2049
4,0.6685,-0.7986,-0.2231,0.5253,-0.7188,-0.1587,2058
4,0.6316,-0.8025,-0.1909,0.3956,-0.971,-0.0967,2052
4,0.5598,-0.8013,-0.2886,0.3437,-0.9191,0.0072,2060
4,0.5146,-0.781,-0.269,0.3583,-0.7086,0.0622,2047
4,0.5029,-0.7581,-0.2324,0.3478,-0.4838,0.1128,2060
4,0.4983,-0.7466,-0.1682,0.3334,-0.2963,0.1237,2047
4,0.5034,-0.7297,-0.1299,0.3101,-0.2362,0.1278,2042
4,0.4988,-0.7207,-0.1199,0.297,-0.2709,0.1256,2054
4,0.4744,-0.6812,-0.1353,0.2947,-0.3697,0.1458,2050
4,0.4153,-0.646,-0.1484,0.2839,-0.5341,0.1783,2050
4,0.3752,-0.6042,-0.1655,0.3027,-0.7245,0.1768,2054
4,0.3293,-0.5857,-0.1804,0.3128,-0.8823,0.171,2072
4,0.2983,-0.5642,-0.1887,0.31,-1.0662,0.1517,2032
4,0.2891,-0.5808,-0.1772,0.3211,-1.2415,0.1045,2061
4,0.2754,-0.634,-0.1587,0.3243,-1.3786,0.0764,2052
4,0.3157,-0.7021,-0.1538,0.3285,-1.4406,0.0465,2062
4,0.325,-0.7544,-0.1533,0.3354,-1.4213,0.0361,2049
4,0.3345,-0.7949,-0.1785,0.3554,-1.3485,0.0312,2053
4,0.3193,-0.8262,-0.2043,0.3713,-1.2376,0.0366,2059
4,0.293,-0.8513,-0.2549,0.4035,-1.2019,0.0418,2042
4,0.2712,-0.8765,-0.2922,0.4019,-1.1477,0.0407,2049
4,0.2302,-0.9138,-0.3276,0.3838,-1.2102,0.0483,2065
4,0.1907,-1.0134,-0.3335,0.3364,-1.2878,0.1017,2037
5,0.2563,-1.2051,-0.3125,0.2854,-1.1572,0.1931,2042
5,0.272,-1.3689,-0.2498,0.1563,-1.0768,0.3083,2070
5,0.2974,-1.3484,-0.1887,0.1024,-1.0485,0.3565,2054
5,0.332,-1.2366,-0.0952,0.1052,-0.9305,0.3682,2047
5,0.3806,-1.1316,0.021,0.1052,-0.8558,0.3609,2062
5,0.47,-1.0442,0.1421,0.1209,-0.8761,0.2848,2079
5,0.519,-1.0088,0.2124,0.1236,-0.9507,0.1969,1995
5,0.5085,-1.0151,0.2776,0.0899,-1.025,0.1589,2045
5,0.4934,-1.0454,0.238,0.0742,-1.0091,0.1425,2075
5,0.4631,-1.0813,0.189,0.0585,-0.9013,0.1332,2042
5,0.4619,-1.105,0.0969,0.0662,-0.8219,0.1057,2070
5,0.4578,-1.0906,0.0078,0.0875,-0.764,0.0262,2019
5,0.4478,-1.0608,-0.0469,0.1293,-0.656,-0.0799,2065
5,0.4653,-0.9785,-0.0505,0.1593,-0.5505,-0.1678,2032
5,0.5134,-0.9375,-0.021,0.1577,-0.4996,-0.2277,2078
5,0.5562,-0.9319,0.0195,0.1445,-0.49,-0.2786,2042
5,0.5916,-0.9023,0.0598,0.1079,-0.5004,-0.3204,2066
5,0.6167,-0.884,0.1116,0.0828,-0.5277,-0.3526,2049
5,0.6201,-0.8562,0.1313,0.0734,-0.5528,-0.361,2055
5,0.6057,-0.8677,0.158,0.0728,-0.4918,-0.3493,2055
5,0.5742,-0.8796,0.1919,0.0553,-0.4719,-0.3325,2046
5,0.5188,-0.9031,0.1858,0.0459,-0.4304,-0.3061,2054
5,0.4812,-0.8608,0.1597,0.0445,-0.4326,-0.2779,2059
5,0.4529,-0.8435,0.1531,0.0458,-0.4413,-0.2667,2049
5,0.4509,-0.7861,0.1321,0.0366,-0.4811,-0.2752,2062
5,0.426,-0.7605,0.1389,0.0353,-0.51,-0.2906,2055
5,0.3726,-0.7771,0.1323,0.018,-0.4734,-0.2826,2057
5,0.3416,-0.7844,0.113,0.0192,-0.3726,-0.2886,2021
5,0.301,-0.7749,0.0769,0.0047,-0.2613,-0.3025,2095
5,0.2983,-0.7622,0.064,0.0069,-0.1312,-0.3281,2027
5,0.2856,-0.7593,0.054,0.0052,-0.031,-0.3445,2051
5,0.2754,-0.7585,0.0203,0.004,0.0084,-0.3541,2038
5,0.2825,-0.7444,-0.0183,0.014,0.0116,-0.3674,2063
5,0.2861,-0.7437,-0.053,0.0149,-0.0281,-0.3759,2070
5,0.2866,-0.7522,-0.0752,0.0077,-0.0603,-0.3573,2042
5,0.2859,-0.7888,-0.0752,0.0099,-0.045,-0.3374,2085
5,0.3184,-0.8455,-0.0227,0.0336,-0.0224,-0.3153,2048
5,0.3704,-0.915,0.022,0.0656,-0.0146,-0.3193,2046
5,0.4031,-0.9661,0.0564,0.1165,-0.0168,-0.3464,2036
5,0.4116,-1.0142,0.0535,0.1631,0.0497,-0.3786,2058
5,0.3652,-1.03,-0.0029,0.161,0.1405,-0.3803,2032
5,0.311,-0.9939,-0.0935,0.0884,0.1631,-0.3116,2097
5,0.2666,-0.9573,-0.1694,-0.0316,0.1065,-0.2008,2033
5,0.2151,-0.9348,-0.2646,-0.1543,0.0161,-0.0875,2029
5,0.2158,-0.9324,-0.2883,-0.2464,-0.061,0.0011,2084
5,0.2456,-0.9597,-0.2642,-0.3063,-0.0252,0.0615,2014
5,0.3296,-1.0388,-0.1558,-0.3184,0.2,0.0987,2030
5,0.4333,-1.2166,-0.1543,-0.4043,0.2452,0.181,2069
5,0.4861,-1.2622,-0.2703,-0.4705,0.1503,0.231,2040
5,0.4294,-1.1689,-0.3081,-0.4739,0.1177,0.2079,2044
5,0.4414,-1.0918,-0.3267,-0.4204,0.1774,0.1815,2059
5,0.447,-1.0044,-0.2961,-0.3935,0.22,0.175,2065
5,0.4524,-0.9128,-0.2422,-0.3384,0.2858,0.1732,2060
5,0.5142,-0.8462,-0.1611,-0.2671,0.4779,0.1738,2057
5,0.6316,-0.7844,-0.0598,-0.1771,0.7083,0.1402,2050
5,0.8369,-0.7812,0.0752,-0.0972,0.9709,0.0935,2056
5,0.9783,-0.8169,0.1951,-0.0286,1.0118,0.0194,2042
5,1.0554,-0.8706,0.1799,-0.0204,0.7737,-0.0565,2056
5,1.0547,-0.9045,0.0918,-0.0328,0.3815,-0.118,2046
5,0.9534,-0.9043,-0.0696,-0.0509,-0.0509,-0.1539,2046
5,0.8286,-0.8882,-0.2502,-0.0334,-0.3155,-0.1569,2057
5,0.6636,-0.8516,-0.335,-0.0007,-0.2968,-0.1085,2052
5,0.6167,-0.8035,-0.3279,0.0136,-0.1246,-0.0393,2046
5,0.5618,-0.7642,-0.197,-0.0401,0.0626,0.0494,2051
5,0.5413,-0.7439,-0.0872,-0.0763,0.2402,0.0924,2050
5,0.5461,-0.7393,0.0098,-0.0784,0.3782,0.0834,2048
5,0.582,-0.7334,0.0627,-0.0668,0.4524,0.0352,2045
5,0.6235,-0.687,0.0999,-0.0403,0.4377,-0.029,2045
5,0.6196,-0.678,0.0986,-0.0337,0.357,-0.114,2061
5,0.5742,-0.6555,0.0496,-0.0249,0.2015,-0.1818,2048
5,0.5059,-0.6475,-0.0029,-0.0164,-0.0671,-0.1902,2053
5,0.4233,-0.6536,-0.1077,-0.0039,-0.2872,-0.1686,2051
5,0.3259,-0.6431,-0.2307,-0.0023,-0.4657,-0.1481,2057
5,0.2529,-0.6533,-0.3215,0.0157,-0.5687,-0.1073,2076
5,0.2302,-0.677,-0.3525,0.0417,-0.5643,-0.0645,2032
5,0.2168,-0.7065,-0.356,0.0619,-0.4734,-0.0141,2055
5,0.2244,-0.7659,-0.3152,0.0715,-0.3183,0.0274,2048
5,0.2393,-0.8181,-0.2656,0.0764,-0.1842,0.068,2052
5,0.2603,-0.8381,-0.2375,0.066,-0.0518,0.1091,2062
5,0.2554,-0.8472,-0.1997,0.0666,0.0641,0.1521,2029
5,0.2615,-0.8137,-0.1567,0.0654,0.1627,0.1996,2065
5,0.2727,-0.7922,-0.1462,0.0735,0.187,0.2177,2051
5,0.3123,-0.7849,-0.1443,0.1116,0.1971,0.2278,2045
5,0.3567,-0.8376,-0.1384,0.1463,0.1017,0.1908,2065
5,0.3921,-0.9214,-0.1611,0.1911,-0.174,0.0523,2051
5,0.3784,-0.9951,-0.2615,0.2313,-0.4169,-0.0842,2045
5,0.3359,-1.0364,-0.3938,0.2519,-0.4135,-0.0956,2042
5,0.2,-1.0571,-0.4846,0.2341,-0.2326,0.0309,2048
5,0.0894,-1.0457,-0.457,0.1811,-0.0601,0.2562,2051
5,0.0193,-1.0273,-0.3921,0.142,0.0846,0.4773,2067
5,0.0139,-1.0183,-0.3564,0.1443,0.2088,0.6329,2025
5,0.0068,-1.0591,-0.2954,0.1028,0.2175,0.7425,2071
5,0.0635,-1.1189,-0.2817,0.077,0.134,0.767,2051
5,0.1538,-1.179,-0.2351,0.0519,0.0802,0.7562,2060
5,0.2419,-1.1934,-0.1653,-0.002,0.0965,0.7431,2077
5,0.3057,-1.1562,-0.1006,-0.0241,0.1637,0.6664,2028
5,0.3892,-1.0776,-0.022,-0.0418,0.2328,0.5596,2029
5,0.491,-0.9736,0.0078,-0.0467,0.2316,0.4317,2050
5,0.5354,-0.9277,0.0176,-0.0325,0.2597,0.3053,2043
5,0.5518,-0.8872,0.031,-0.0008,0.3011,0.2008,2100
5,0.5588,-0.8237,0.0459,0.0475,0.3474,0.1486,2029
5,0.5784,-0.8003,0.1265,0.0262,0.4623,0.1196,2090
5,0.5823,-0.8254,0.1924,-0.0016,0.5161,0.0675,2021
6,0.6094,-0.8501,0.1946,-0.006,0.5553,-0.0033,2068
6,0.6272,-0.8665,0.1482,0.07,0.554,-0.1338,2044
6,0.6614,-0.8792,0.1533,0.1221,0.4284,-0.2196,2030
6,0.6577,-0.9797,0.1218,0.1254,0.2136,-0.285,2046
6,0.5916,-0.9697,0.1084,0.149,0.0047,-0.3163,2034
6,0.5396,-0.9875,0.0835,0.1164,-0.2096,-0.32,2050
6,0.5107,-0.9958,0.0967,0.0498,-0.3248,-0.2778,2062
6,0.4858,-0.9365,0.1316,-0.0262,-0.3314,-0.2364,2061
6,0.4878,-0.8655,0.178,-0.0736,-0.3763,-0.2083,2037
6,0.4612,-0.8674,0.2043,-0.1015,-0.3694,-0.2016,2047
6,0.4482,-0.8716,0.2087,-0.1071,-0.2795,-0.1955,2036
6,0.4368,-0.8601,0.1938,-0.0859,-0.1539,-0.182,2068
6,0.4365,-0.8508,0.1631,-0.086,-0.063,-0.1699,2056
6,0.4006,-0.8445,0.1389,-0.0758,0.0356,-0.1751,2059
6,0.3596,-0.8186,0.1001,-0.0748,0.1011,-0.1792,2046
6,0.333,-0.7964,0.0999,-0.0647,0.1527,-0.1934,2054
6,0.3267,-0.7688,0.0691,-0.0447,0.1948,-0.2031,2031
6,0.3262,-0.77,0.0515,-0.0462,0.2261,-0.1981,2081
6,0.3296,-0.7925,0.0417,-0.0571,0.2537,-0.1972,2042
6,0.3394,-0.8066,0.0405,-0.0719,0.2678,-0.1999,2079
6,0.3596,-0.8213,0.0044,-0.1011,0.3524,-0.1727,2065
6,0.3262,-0.8601,0.032,-0.1498,0.2721,-0.1485,2047
6,0.2935,-0.8894,0.0007,-0.1715,0.2987,-0.1085,2057
6,0.262,-0.9248,-0.0049,-0.1613,0.3392,-0.0405,2038
6,0.2517,-0.9397,-0.0054,-0.1659,0.4267,0.0356,2012
6,0.2488,-0.948,-0.0071,-0.1578,0.5544,0.11,2068
6,0.2598,-0.9685,0.0105,-0.1577,0.6614,0.1465,2059
6,0.2969,-1.0034,0.0793,-0.1531,0.6863,0.1597,2050
6,0.3367,-1.0359,0.0959,-0.135,0.7452,0.1498,2057
6,0.3567,-1.0525,0.0889,-0.1161,0.8051,0.1076,2033
6,0.3455,-1.0603,0.0432,-0.1088,0.9186,0.0571,2056
6,0.3008,-1.0457,-0.043,-0.1345,0.9114,0.0643,2045
6,0.2944,-1.0208,-0.1086,-0.1738,0.9142,0.1238,2057
6,0.3252,-1.0488,-0.178,-0.2641,0.7867,0.2341,2050
6,0.4268,-1.1482,-0.2366,-0.3498,0.5926,0.3679,2060
6,0.5325,-1.1416,-0.2605,-0.4213,0.4052,0.4726,2023
6,0.5344,-1.0608,-0.2717,-0.4374,0.2169,0.4651,2073
6,0.5291,-0.9727,-0.2473,-0.4019,0.1358,0.4068,2043
6,0.5278,-0.9319,-0.196,-0.3465,0.2405,0.33,2047
6,0.5347,-0.8938,-0.1492,-0.3096,0.3207,0.2213,2048
6,0.5266,-0.886,-0.1521,-0.2611,0.4311,0.1213,2055
6,0.5527,-0.8669,-0.1353,-0.1874,0.5355,0.0169,2052
6,0.5591,-0.9194,-0.1384,-0.0957,0.5774,-0.0774,2045
6,0.6187,-0.9324,-0.1323,-0.045,0.5779,-0.1124,2047
6,0.6726,-0.9309,-0.1316,-0.0389,0.5112,-0.0991,2052
6,0.709,-0.9329,-0.135,-0.0458,0.4693,-0.078,2053
6,0.7229,-0.9414,-0.1309,-0.0686,0.4821,-0.0378,2052
6,0.7129,-0.9451,-0.0701,-0.0732,0.5417,-0.0153,2044
6,0.7341,-0.9382,-0.0159,-0.0627,0.5988,-0.0035,2049
6,0.74,-0.9058,0.0034,-0.0551,0.6384,-0.0016,2052
6,0.7397,-0.8784,0.0024,-0.0414,0.6481,-0.0093,2043
6,0.6931,-0.8269,0.0,-0.0354,0.5875,-0.0285,2051
6,0.6238,-0.7927,-0.0354,-0.0341,0.4758,-0.0555,2046
6,0.5586,-0.7717,-0.0405,-0.0337,0.373,-0.0968,2043
6,0.4966,-0.7922,-0.073,-0.0224,0.2879,-0.1204,2053
6,0.4475,-0.7942,-0.0952,-0.0127,0.2133,-0.1193,2053
6,0.4148,-0.7922,-0.1001,-0.0068,0.1338,-0.1148,2041
6,0.4092,-0.7725,-0.1189,0.0181,0.0637,-0.1217,2053
6,0.3772,-0.7808,-0.1194,0.0415,-0.0003,-0.1366,2047
6,0.3748,-0.7556,-0.1184,0.0774,-0.0419,-0.1477,2061
6,0.3757,-0.7524,-0.1174,0.1116,-0.0593,-0.1754,2053
6,0.3921,-0.7485,-0.1309,0.1294,-0.067,-0.2076,2052
6,0.4131,-0.7478,-0.1382,0.1605,-0.0744,-0.2417,2052
6,0.397,-0.7393,-0.1235,0.1834,-0.1416,-0.2742,2052
6,0.3987,-0.7358,-0.1436,0.1914,-0.2336,-0.312,2053
6,0.3745,-0.7524,-0.135,0.2149,-0.2863,-0.3149,2054
6,0.3638,-0.7598,-0.1482,0.2107,-0.3346,-0.2958,2050
6,0.3291,-0.7825,-0.1538,0.2092,-0.3902,-0.2812,2037
6,0.2986,-0.7893,-0.1736,0.2145,-0.4701,-0.2701,2048
6,0.2598,-0.8118,-0.2217,0.208,-0.53,-0.2393,2060
6,0.2305,-0.8213,-0.2561,0.2027,-0.5323,-0.1936,2060
6,0.2031,-0.8618,-0.2754,0.1943,-0.4751,-0.1436,2045
6,0.1853,-0.8958,-0.2915,0.184,-0.4318,-0.1164,2058
6,0.1875,-0.9299,-0.3069,0.1848,-0.3804,-0.0778,2052
6,0.1982,-0.9502,-0.2983,0.1858,-0.3115,-0.0286,2063
6,0.1917,-0.9275,-0.2444,0.1827,-0.2386,0.029,2038
6,0.1877,-0.9121,-0.2158,0.1756,-0.1673,0.0862,2048
6,0.1729,-0.9045,-0.1658,0.1723,-0.1989,0.1465,2054
6,0.1499,-0.9526,-0.1453,0.1738,-0.359,0.1852,2061
6,0.1377,-1.0522,-0.1531,0.1635,-0.5156,0.228,2043
6,0.1763,-1.1418,-0.1553,0.182,-0.5139,0.2655,2034
6,0.1819,-1.27,-0.1523,0.0868,-0.506,0.3603,2073
6,0.2219,-1.3052,-0.1914,-0.0277,-0.5549,0.4255,2001
6,0.2749,-1.2358,-0.1384,-0.1193,-0.5161,0.4303,2053
6,0.3281,-1.1213,-0.0813,-0.1593,-0.454,0.3747,2039
6,0.4119,-1.0264,-0.0154,-0.1743,-0.3581,0.3169,2059
6,0.5383,-0.926,0.0952,-0.1462,-0.2891,0.2599,2027
6,0.6436,-0.8364,0.1692,-0.1537,-0.2658,0.1985,2038
6,0.6934,-0.7637,0.2092,-0.1681,-0.2847,0.1198,2079
6,0.7051,-0.7495,0.1982,-0.1798,-0.2679,0.0154,2017
6,0.6621,-0.7896,0.176,-0.2109,-0.3136,-0.0852,2065
6,0.635,-0.8252,0.1006,-0.2081,-0.3711,-0.189,2056
6,0.5879,-0.814,0.0256,-0.1345,-0.4473,-0.2872,2052
6,0.5522,-0.8635,0.0266,-0.1157,-0.5667,-0.3364,2052
6,0.5332,-0.8904,0.0171,-0.0565,-0.6665,-0.3662,2050
6,0.5645,-0.9202,0.0737,-0.0216,-0.683,-0.3743,2049
6,0.5356,-0.9324,0.1084,-0.0017,-0.656,-0.3823,2055
6,0.5452,-0.8955,0.1509,-0.0048,-0.6083,-0.3762,2048
6,0.5662,-0.8706,0.1667,-0.0174,-0.5504,-0.3646,2040
6,0.6099,-0.8362,0.1831,-0.0242,-0.5141,-0.3458,2057
6,0.6274,-0.8091,0.178,-0.038,-0.4771,-0.3329,2047
6,0.6343,-0.7893,0.1472,-0.0615,-0.4514,-0.3143,2056
6,0.5781,-0.7644,0.1208,-0.0973,-0.4193,-0.2803,2064
6,0.512,-0.7612,0.0898,-0.1248,-0.3832,-0.2928,2050
6,0.4768,-0.7468,0.0696,-0.1397,-0.3028,-0.3076,2050
6,0.4377,-0.741,0.0369,-0.1551,-0.2039,-0.3052,2048
6,0.3945,-0.7341,0.0095,-0.18,-0.091,-0.2755,2057
6,0.3735,-0.7361,-0.0203,-0.1985,0.0342,-0.2421,2050
6,0.373,-0.7495,-0.0291,-0.2257,0.1274,-0.1892,2057
7,0.3284,-0.7847,-0.0344,-0.2501,0.218,-0.1232,2051
7,0.2969,-0.8091,-0.0605,-0.2559,0.2601,-0.067,2052
7,0.2874,-0.8284,-0.0872,-0.237,0.2892,0.0051,2048
7,0.2839,-0.8357,-0.0994,-0.2437,0.3634,0.1029,2044
7,0.3108,-0.8149,-0.0679,-0.2619,0.4469,0.1912,2061
7,0.343,-0.8054,-0.0271,-0.2393,0.5018,0.2412,2075
7,0.377,-0.8564,-0.0217,-0.2593,0.4892,0.2747,2033
7,0.3977,-0.9114,-0.0156,-0.3037,0.4722,0.3089,2053
7,0.3667,-0.9573,-0.0327,-0.3405,0.5168,0.31,2049
7,0.3662,-1.0039,-0.0393,-0.3278,0.6118,0.2767,2071
7,0.3472,-1.0894,-0.0928,-0.3036,0.5638,0.2613,2035
7,0.4314,-1.3281,-0.2087,-0.2651,0.3706,0.2776,2044
7,0.5278,-1.3826,-0.2742,-0.2237,0.275,0.3284,2051
7,0.4658,-1.2534,-0.3164,-0.232,0.0621,0.3607,2050
7,0.3818,-1.1255,-0.4021,-0.2476,-0.0808,0.3896,2042
7,0.3813,-1.0029,-0.4331,-0.2622,-0.0914,0.4177,2053
7,0.448,-0.9219,-0.4111,-0.2603,0.0205,0.3924,2046
7,0.5789,-0.8777,-0.3245,-0.2466,0.1228,0.3466,2045
7,0.6116,-0.9436,-0.2837,-0.1976,0.1872,0.2489,2057
7,0.6863,-0.9707,-0.2971,-0.1057,0.1898,0.1368,2052
7,0.7617,-0.9565,-0.2981,-0.0409,0.2256,0.0438,2058
7,0.791,-0.969,-0.2715,-0.0397,0.2433,-0.0091,2051
7,0.7939,-0.9832,-0.2026,-0.0483,0.2533,-0.0309,2053
7,0.7771,-0.9658,-0.1353,-0.0653,0.3336,-0.0073,2047
7,0.7712,-0.9338,-0.0776,-0.0569,0.4325,-0.0068,2050
7,0.7324,-0.8506,-0.0474,-0.0272,0.5376,-0.0137,2048
7,0.6541,-0.7732,-0.0623,0.014,0.5887,-0.0353,2062
7,0.5808,-0.7173,-0.0964,0.0451,0.5589,-0.0551,2049
7,0.5229,-0.6567,-0.1375,0.0794,0.4773,-0.0633,2046
7,0.4749,-0.637,-0.1624,0.0863,0.3689,-0.0658,2052
7,0.4468,-0.6467,-0.1421,0.0752,0.316,-0.0795,2046
7,0.4246,-0.6587,-0.1343,0.0609,0.2884,-0.0948,2057
7,0.4058,-0.6692,-0.1116,0.0462,0.2527,-0.1261,2053
7,0.3792,-0.6904,-0.1216,0.0545,0.2356,-0.165,2056
7,0.384,-0.687,-0.1338,0.0929,0.2487,-0.2049,2049
7,0.3665,-0.6826,-0.1343,0.1153,0.2191,-0.248,2048
7,0.3782,-0.6567,-0.134,0.1455,0.1398,-0.2943,2044
7,0.3948,-0.6562,-0.1599,0.18,0.0388,-0.3454,2059
7,0.4128,-0.6648,-0.1704,0.1888,-0.0975,-0.3723,2049
7,0.4312,-0.6848,-0.1824,0.2025,-0.245,-0.3745,2064
7,0.4133,-0.718,-0.1807,0.1852,-0.4004,-0.3647,2051
7,0.3601,-0.7542,-0.1941,0.1687,-0.5605,-0.3284,2045
7,0.3022,-0.7964,-0.2185,0.1637,-0.6122,-0.2682,2062
7,0.2346,-0.8306,-0.2344,0.1641,-0.5409,-0.1799,2049
7,0.1929,-0.8794,-0.2664,0.163,-0.3975,-0.0891,2051
7,0.1411,-0.8918,-0.262,0.1469,-0.1991,-0.0245,2056
7,0.1091,-0.896,-0.2366,0.1417,0.0213,0.0388,2035
7,0.0833,-0.8486,-0.1982,0.171,0.1286,0.087,2060
7,0.1174,-0.8628,-0.1589,0.2093,0.0625,0.1051,2068
7,0.1487,-0.9766,-0.1572,0.2366,-0.0935,0.0521,2029
7,0.239,-1.1199,-0.1724,0.3135,-0.2515,-0.0569,2042
7,0.386,-1.2815,-0.2129,0.3675,-0.3714,-0.1249,2040
7,0.4602,-1.4368,-0.3008,0.2731,-0.4991,-0.0345,2049
7,0.4448,-1.4578,-0.397,0.1128,-0.5763,0.1699,2055
7,0.4592,-1.3159,-0.3621,-0.0033,-0.5722,0.3995,2074
7,0.3718,-1.1885,-0.2473,-0.0639,-0.5111,0.565,2052
7,0.345,-1.0591,-0.1218,-0.1458,-0.4076,0.6477,2018
7,0.3667,-0.9182,-0.0073,-0.2112,-0.3661,0.6196,2058
7,0.4607,-0.804,0.1094,-0.2591,-0.3316,0.5102,2056
7,0.5718,-0.7241,0.2224,-0.2542,-0.2438,0.3633,2038
7,0.6309,-0.6946,0.2708,-0.2623,-0.1063,0.1918,2050
7,0.6169,-0.7131,0.2805,-0.2414,-0.0361,-0.0007,2070
7,0.6472,-0.7698,0.2258,-0.179,-0.006,-0.1706,2078
7,0.6396,-0.8521,0.1379,-0.0808,-0.0049,-0.2914,2059
7,0.594,-0.9482,0.0623,0.0101,-0.0819,-0.3703,2056
7,0.5872,-0.9397,0.0054,0.0597,-0.2168,-0.3868,2046
7,0.605,-0.907,-0.0156,0.0924,-0.3047,-0.3409,2042
7,0.6184,-0.8884,0.0242,0.1089,-0.3509,-0.2898,2032
7,0.5933,-0.8711,0.0447,0.088,-0.4107,-0.2334,2048
7,0.6133,-0.835,0.0979,0.0802,-0.3492,-0.1985,2036
7,0.6201,-0.8552,0.1394,0.0189,-0.2256,-0.1474,2065
7,0.6387,-0.7937,0.2078,-0.0073,-0.1824,-0.1281,2042
7,0.627,-0.7812,0.219,-0.0647,-0.175,-0.1112,2054
7,0.5823,-0.7705,0.1694,-0.1148,-0.1763,-0.1308,2036
7,0.5176,-0.7561,0.1348,-0.1479,-0.1061,-0.1306,2053
7,0.4358,-0.7542,0.0889,-0.1718,-0.0354,-0.1396,2039
7,0.3977,-0.7476,0.0291,-0.1783,0.0546,-0.1316,2048
7,0.3726,-0.728,-0.0188,-0.174,0.1482,-0.1296,2066
7,0.3708,-0.739,-0.0303,-0.1754,0.2515,-0.1121,2032
7,0.3716,-0.7454,-0.0449,-0.1744,0.3908,-0.0787,2017
7,0.3633,-0.7998,-0.0261,-0.1918,0.469,-0.0503,2034
7,0.3748,-0.8655,-0.0183,-0.2045,0.5173,-0.0001,2076
7,0.3677,-0.9102,-0.0312,-0.2067,0.5878,0.0571,2036
7,0.3572,-0.9326,-0.051,-0.1892,0.6288,0.1328,2059
7,0.3679,-0.9314,-0.0601,-0.176,0.6548,0.2228,2021
7,0.405,-0.9355,-0.0464,-0.1678,0.7329,0.2791,2045
7,0.3962,-0.8926,-0.0208,-0.1711,0.7392,0.3282,2048
7,0.4026,-0.8984,-0.0103,-0.1971,0.7156,0.3715,2055
7,0.3914,-0.8967,-0.033,-0.2473,0.7564,0.3955,2048
7,0.3669,-0.8923,-0.0491,-0.3069,0.7533,0.3984,2024
7,0.3459,-0.9026,-0.1172,-0.3312,0.7818,0.379,2068
7,0.3274,-1.0166,-0.1289,-0.3538,0.754,0.3667,2055
7,0.415,-1.1899,-0.2026,-0.3569,0.7726,0.4295,2038
7,0.4724,-1.2043,-0.2678,-0.4148,0.5946,0.5229,2046
7,0.4216,-1.0793,-0.3311,-0.4681,0.2385,0.5759,2043
7,0.45,-1.0442,-0.397,-0.4402,0.0571,0.5866,2047
7,0.509,-0.9502,-0.344,-0.4268,0.0463,0.5717,2054
7,0.5046,-0.8774,-0.3167,-0.4104,0.0137,0.5172,2048
7,0.5205,-0.8459,-0.2451,-0.3426,0.1181,0.446,2050
7,0.5002,-0.8665,-0.2305,-0.2325,0.2719,0.3129,2049
7,0.5002,-0.9026,-0.2329,-0.0976,0.5002,0.1772,2061
8,0.5195,-0.9121,-0.2075,-0.0088,0.7412,0.0935,2058
8,0.531,-0.9458,-0.1484,0.0201,0.8688,0.0653,2046
8,0.5522,-0.9778,-0.1082,0.0257,0.9255,0.0752,2067
8,0.5962,-0.9966,-0.0522,0.0312,0.9287,0.0987,2054
8,0.6541,-0.97,0.022,0.0176,0.8638,0.1105,2045
8,0.698,-0.9409,0.0886,0.0242,0.7887,0.0947,2046
8,0.7363,-0.8831,0.1077,0.0289,0.6299,0.0586,2074
8,0.7881,-0.8245,0.0469,0.0513,0.5259,0.0168,2063
8,0.7571,-0.8015,0.0095,0.0744,0.4564,-0.0381,2043
8,0.6738,-0.7529,-0.0837,0.0663,0.2996,-0.0714,2048
8,0.5906,-0.7258,-0.1821,0.0465,0.1245,-0.0876,2047
8,0.4875,-0.7136,-0.3025,0.0302,-0.0238,-0.1068,2049
8,0.418,-0.7346,-0.3484,0.0142,-0.0597,-0.1205,2049
8,0.3667,-0.7639,-0.3333,0.019,-0.0325,-0.1182,2058
8,0.344,-0.7866,-0.2905,0.028,0.0206,-0.092,2053
8,0.3284,-0.8123,-0.2551,0.0589,0.0633,-0.077,2052
8,0.321,-0.8152,-0.2141,0.0948,0.0866,-0.0959,2055
8,0.3379,-0.8079,-0.1946,0.1416,0.1202,-0.1281,2035
8,0.3564,-0.7957,-0.1626,0.184,0.1515,-0.1657,2064
8,0.3909,-0.769,-0.1331,0.2119,0.1633,-0.2104,2037
8,0.4048,-0.7561,-0.1028,0.2289,0.1345,-0.253,2053
8,0.4172,-0.7751,-0.082,0.2412,0.0738,-0.2856,2070
8,0.4189,-0.793,-0.0569,0.2523,-0.0236,-0.3105,2054
8,0.3867,-0.8044,-0.1001,0.2737,-0.1284,-0.3404,2048
8,0.3716,-0.8225,-0.1501,0.2946,-0.223,-0.363,2032
8,0.3359,-0.8359,-0.2166,0.2995,-0.2382,-0.3655,2061
8,0.2937,-0.8638,-0.2676,0.288,-0.171,-0.3442,2048
8,0.2625,-0.8994,-0.3223,0.2701,-0.0992,-0.3225,2041
8,0.2817,-0.9155,-0.364,0.2607,-0.045,-0.285,2074
8,0.2517,-0.918,-0.4019,0.2442,-0.0286,-0.2144,2059
8,0.1924,-0.9231,-0.4036,0.2356,-0.029,-0.1274,2057
8,0.1438,-0.9297,-0.3718,0.231,-0.0505,-0.0682,2011
8,0.1216,-0.9568,-0.3193,0.2472,-0.1044,-0.0024,2055
8,0.1194,-0.9592,-0.2437,0.2675,-0.2031,0.0433,2017
8,0.1343,-0.99,-0.2058,0.2864,-0.3534,0.0494,2071
8,0.1357,-1.1091,-0.1548,0.2558,-0.4666,0.0547,2074
8,0.2031,-1.1855,-0.1152,0.2609,-0.4342,0.0702,2045
8,0.2197,-1.2756,-0.1301,0.1948,-0.2919,0.1108,2055
8,0.2749,-1.2449,-0.1113,0.1294,-0.2003,0.1587,2027
8,0.342,-1.1301,-0.0212,0.0844,-0.1382,0.1798,2073
8,0.3904,-1.0295,0.0596,0.0292,-0.0272,0.1847,2041
8,0.4849,-0.9282,0.156,0.0149,0.1051,0.188,2051
8,0.5637,-0.8252,0.2505,-0.0121,0.1265,0.1591,2097
8,0.6384,-0.7842,0.3176,-0.0443,0.0451,0.0738,2064
8,0.6902,-0.7461,0.3208,-0.0679,-0.0437,-0.031,2067
8,0.6677,-0.7471,0.2798,-0.0699,-0.1081,-0.1338,2069
8,0.6599,-0.7888,0.2139,-0.0595,-0.232,-0.2224,2035
8,0.6194,-0.8452,0.1477,-0.0168,-0.3376,-0.3012,2045
8,0.5781,-0.8584,0.082,0.0232,-0.4413,-0.3497,2054
8,0.5186,-0.8789,0.0518,0.0594,-0.5869,-0.3823,2063
8,0.5217,-0.9336,0.0518,0.0505,-0.679,-0.3631,2062
8,0.5527,-0.8901,0.0952,0.0196,-0.7435,-0.3272,2047
8,0.5723,-0.863,0.1235,-0.0125,-0.779,-0.2952,2048
8,0.5889,-0.8589,0.1709,-0.0245,-0.7629,-0.2882,2047
8,0.6128,-0.8572,0.207,-0.0285,-0.7068,-0.2966,2064
8,0.5935,-0.8445,0.2021,-0.025,-0.6054,-0.3059,2038
8,0.5979,-0.8293,0.196,-0.0272,-0.4895,-0.296,2053
8,0.5691,-0.8003,0.178,-0.033,-0.386,-0.2954,2054
8,0.5164,-0.7749,0.144,-0.0565,-0.299,-0.2939,2032
8,0.4688,-0.7539,0.113,-0.0915,-0.2248,-0.2763,2055
8,0.4316,-0.7559,0.0728,-0.1272,-0.1687,-0.2487,2053
8,0.3965,-0.7617,0.054,-0.1626,-0.1377,-0.2141,2059
8,0.3757,-0.7717,0.0215,-0.2108,-0.143,-0.1716,2034
8,0.3643,-0.7908,0.01,-0.2551,-0.1302,-0.1228,2069
8,0.3359,-0.8066,-0.0181,-0.2956,-0.0834,-0.0674,2044
8,0.2915,-0.8271,-0.0344,-0.3348,-0.0301,-0.0079,2049
8,0.2581,-0.8494,-0.0664,-0.3571,0.0289,0.0395,2103
8,0.2361,-0.8428,-0.0886,-0.371,0.1097,0.0884,2034
8,0.2773,-0.8806,-0.0815,-0.3364,0.1716,0.126,2054
8,0.312,-0.9077,-0.092,-0.3541,0.1711,0.1748,2048
8,0.3604,-0.9421,-0.0935,-0.3282,0.1796,0.1818,2063
8,0.3762,-0.9673,-0.0713,-0.2987,0.1791,0.1645,2066
8,0.3674,-0.9868,-0.0752,-0.2766,0.1883,0.167,2035
8,0.3252,-0.9636,-0.1147,-0.3011,0.1992,0.1968,2049
8,0.2988,-0.8677,-0.1172,-0.371,0.2543,0.2911,2056
8,0.3203,-0.8506,-0.1165,-0.4638,0.2683,0.4285,2050
8,0.4065,-1.0188,-0.1492,-0.5505,0.2113,0.5714,2052
8,0.4629,-1.136,-0.2673,-0.6098,0.0859,0.6842,2046
8,0.4253,-1.0864,-0.3035,-0.6066,-0.0246,0.6976,2050
8,0.4243,-1.0259,-0.3237,-0.5658,-0.0384,0.6541,2038
8,0.5012,-0.989,-0.312,-0.5066,-0.0214,0.5886,2040
8,0.5461,-0.9355,-0.2759,-0.4318,-0.0606,0.4898,2041
8,0.5237,-0.9465,-0.2878,-0.3083,0.006,0.3646,2043
8,0.5137,-0.9636,-0.2837,-0.1338,0.1194,0.2571,2046
8,0.5667,-0.9817,-0.2515,-0.0278,0.2499,0.2196,2042
8,0.6165,-0.9834,-0.1914,0.041,0.4647,0.1989,2049
8,0.6836,-0.9487,-0.1006,0.0819,0.7199,0.2001,2051
8,0.7588,-0.9512,0.0105,0.0984,0.8448,0.1854,2055
8,0.832,-0.9346,0.0913,0.0887,0.8393,0.1454,2053
8,0.8889,-0.905,0.1296,0.1012,0.7186,0.0856,2043
8,0.8831,-0.8677,0.0979,0.1157,0.5797,0.0264,2056
8,0.8047,-0.8247,0.0027,0.1248,0.3699,-0.0389,2049
8,0.6943,-0.782,-0.0938,0.1095,0.1442,-0.1064,2045
8,0.5874,-0.7366,-0.1899,0.0894,-0.0523,-0.1587,2046
8,0.4885,-0.7012,-0.2468,0.0623,-0.2278,-0.1852,2050
8,0.4229,-0.6868,-0.283,0.0333,-0.3302,-0.1719,2049
8,0.3013,-0.7297,-0.3057,0.0177,-0.3084,-0.1659,2049
8,0.3682,-0.7429,-0.2771,0.0337,-0.2176,-0.1603,2058
9,0.3748,-0.761,-0.2761,0.0547,-0.0987,-0.1529,2060
9,0.3809,-0.7771,-0.2622,0.0764,0.0285,-0.1511,2053
9,0.3608,-0.7837,-0.2166,0.0996,0.1661,-0.1499,2052
9,0.376,-0.7654,-0.1868,0.1341,0.2768,-0.1645,2046
9,0.3875,-0.7383,-0.1726,0.1698,0.3486,-0.1768,2052
9,0.394,-0.7302,-0.1277,0.1758,0.3259,-0.2005,2049
9,0.3911,-0.7209,-0.0774,0.1919,0.245,-0.241,2052
9,0.3784,-0.7209,-0.0876,0.2119,0.1048,-0.288,2048
9,0.3567,-0.7454,-0.113,0.2346,-0.0376,-0.328,2044
9,0.3267,-0.7615,-0.1394,0.2527,-0.1442,-0.3517,2054
9,0.2725,-0.7939,-0.2021,0.2569,-0.2256,-0.3586,2049
9,0.2505,-0.8335,-0.2683,0.2428,-0.2561,-0.3493,2053
9,0.2368,-0.8672,-0.3228,0.2252,-0.2438,-0.338,2045
9,0.2559,-0.8992,-0.3816,0.2204,-0.1694,-0.3384,2053
9,0.2441,-0.9175,-0.4199,0.2254,-0.0153,-0.2903,2073
9,0.2202,-0.8982,-0.3943,0.227,0.1615,-0.1716,2039
9,0.1707,-0.907,-0.3577,0.2309,0.249,-0.0281,2053
9,0.146,-0.916,-0.3228,0.2388,0.2261,0.1033,2066
9,0.1484,-0.9229,-0.2739,0.2412,0.1277,0.1791,2032
9,0.1296,-0.9453,-0.2251,0.2537,-0.0847,0.1916,2052
9,0.1357,-1.0369,-0.2168,0.2561,-0.2726,0.1667,2049
9,0.2195,-1.1091,-0.228,0.2361,-0.3714,0.1432,2045
9,0.2703,-1.1985,-0.2002,0.1569,-0.3711,0.19,2055
9,0.2898,-1.2686,-0.168,0.0658,-0.3285,0.2409,2067
9,0.3315,-1.1965,-0.1028,0.0264,-0.3071,0.2638,2059
9,0.4048,-1.0757,-0.0295,0.0166,-0.2388,0.2662,2044
9,0.4854,-0.95,0.0432,0.0485,-0.1273,0.2413,2065
9,0.5835,-0.8638,0.1333,0.0981,-0.0731,0.1748,2052
9,0.668,-0.7781,0.1729,0.1053,-0.0967,0.0819,2053
9,0.7078,-0.7629,0.199,0.0746,-0.1715,-0.0281,2049
9,0.7512,-0.7693,0.2236,0.0277,-0.2005,-0.1292,2045
9,0.7004,-0.8103,0.2424,0.0052,-0.3241,-0.2685,2080
9,0.7031,-0.8706,0.1755,0.0152,-0.4264,-0.3866,2038
9,0.6797,-0.886,0.1089,0.1368,-0.4595,-0.4727,2041
9,0.7053,-0.9414,0.1052,0.2313,-0.5502,-0.4844,2067
9,0.6562,-1.0432,0.1165,0.22,-0.6458,-0.5043,2046
9,0.6416,-1.043,0.1206,0.1944,-0.6737,-0.4357,2047
9,0.5955,-1.0107,0.1445,0.1354,-0.6699,-0.392,2053
9,0.6172,-0.929,0.1401,0.0907,-0.658,-0.3382,2052
9,0.593,-0.8933,0.1414,0.0743,-0.6011,-0.3141,2054
9,0.6208,-0.8135,0.1487,0.0442,-0.5344,-0.3063,2047
9,0.5979,-0.7681,0.1504,0.0345,-0.4811,-0.3043,2041
9,0.5825,-0.7385,0.1367,0.023,-0.43,-0.3261,2050
9,0.5686,-0.708,0.1389,-0.0001,-0.3691,-0.3589,2056
9,0.5283,-0.7014,0.1284,-0.0366,-0.3392,-0.3959,2046
9,0.4924,-0.6897,0.105,-0.0654,-0.3143,-0.4328,2032
9,0.4382,-0.7017,0.0708,-0.098,-0.3105,-0.4461,2051
9,0.429,-0.7073,0.0503,-0.1297,-0.3385,-0.4289,2055
9,0.4348,-0.7209,0.0156,-0.1613,-0.2998,-0.3666,2046
9,0.4158,-0.7358,-0.0178,-0.1919,-0.2573,-0.2986,2061
9,0.386,-0.7593,-0.0476,-0.2201,-0.2209,-0.2203,2050
9,0.3472,-0.7859,-0.0769,-0.2497,-0.1222,-0.1381,2054
9,0.3154,-0.832,-0.1125,-0.2621,-0.0256,-0.0485,2051
9,0.2715,-0.8721,-0.134,-0.2784,0.0304,0.041,2049
9,0.2302,-0.896,-0.1396,-0.2718,0.1453,0.1268,2051
9,0.2512,-0.9067,-0.1184,-0.2509,0.2902,0.2027,2059
9,0.2908,-0.9143,-0.0679,-0.2365,0.4313,0.2763,2046
9,0.3506,-0.9309,-0.0393,-0.2076,0.4903,0.3112,2064
9,0.376,-0.9072,-0.0059,-0.1843,0.4516,0.2967,2055
9,0.4055,-0.9141,-0.02,-0.2095,0.4344,0.3135,2064
9,0.3999,-0.9348,-0.0559,-0.2318,0.4847,0.3521,2040
9,0.3867,-0.9404,-0.0784,-0.2589,0.4872,0.3808,2050
9,0.3484,-0.9436,-0.1628,-0.2942,0.4164,0.4105,2064
9,0.4048,-1.0938,-0.2151,-0.3019,0.3601,0.4205,2023
9,0.4929,-1.2312,-0.2446,-0.285,0.3139,0.4538,2054
9,0.519,-1.2053,-0.2598,-0.2783,0.151,0.4653,2044
9,0.4873,-1.1567,-0.3076,-0.2778,-0.0996,0.432,2053
9,0.5259,-1.0737,-0.3125,-0.2603,-0.0656,0.42,2039
9,0.5461,-0.9888,-0.311,-0.2325,-0.0101,0.4032,2065
9,0.6094,-0.9536,-0.3052,-0.1726,0.1245,0.3932,2048
9,0.6255,-0.9556,-0.2883,-0.0908,0.3755,0.3627,2050
9,0.6807,-0.9561,-0.2671,-0.0116,0.6628,0.3245,2043
9,0.7058,-0.9407,-0.251,0.0374,0.8817,0.2653,2044
9,0.7278,-0.9006,-0.2175,0.0871,0.9295,0.1775,2043
9,0.7378,-0.8589,-0.1917,0.1318,0.9124,0.1043,2054
9,0.7412,-0.8291,-0.1184,0.1527,0.8216,0.035,2054
9,0.7458,-0.7891,-0.0662,0.1533,0.6835,-0.0289,2041
9,0.7573,-0.7173,-0.0144,0.1349,0.4915,-0.0754,2049
9,0.7368,-0.6624,0.0051,0.1221,0.2481,-0.1485,2056
9,0.6963,-0.6536,0.0173,0.1128,-0.0629,-0.2232,2052
9,0.6313,-0.6477,-0.0305,0.1073,-0.304,-0.2939,2052
9,0.6282,-0.636,-0.0637,0.0782,-0.4149,-0.3125,2050
9,0.4985,-0.6731,-0.1414,0.0262,-0.4042,-0.2858,2053
9,0.4817,-0.7258,-0.1716,0.0344,-0.2999,-0.2437,2054
9,0.4333,-0.7524,-0.2053,0.0225,-0.147,-0.2296,2047
9,0.3962,-0.7546,-0.2427,0.0425,-0.0112,-0.2273,2056
9,0.3923,-0.7512,-0.2361,0.0699,0.1228,-0.2254,2041
9,0.3662,-0.7539,-0.2207,0.0985,0.18,-0.2309,2051
9,0.3501,-0.7551,-0.2002,0.1208,0.184,-0.2266,2053
9,0.3538,-0.7063,-0.1829,0.1561,0.2007,-0.2192,2047
9,0.3472,-0.6921,-0.1589,0.1645,0.1594,-0.2133,2050
9,0.376,-0.689,-0.1252,0.1565,0.0547,-0.1993,2049
9,0.3574,-0.6963,-0.1038,0.1671,-0.0276,-0.2248,2051
9,0.3447,-0.7141,-0.105,0.1975,-0.0981,-0.2534,2061
9,0.3228,-0.7446,-0.1306,0.2069,-0.143,-0.2574,2060
9,0.2935,-0.7764,-0.1675,0.2353,-0.1599,-0.2594,2049
9,0.2751,-0.8347,-0.1697,0.2534,-0.1827,-0.2289,2098
9,0.262,-0.864,-0.2168,0.2926,-0.2153,-0.2011,2051
9,0.2527,-0.907,-0.2488,0.3372,-0.218,-0.1834,2040
9,0.2605,-0.9768,-0.2827,0.3711,-0.2621,-0.187,2038
9,0.2742,-1.0251,-0.3486,0.3751,-0.2975,-0.1952,2033
9,0.2629,-1.0422,-0.4055,0.3695,-0.2755,-0.1396,2069
9,0.2124,-1.0889,-0.4287,0.3324,-0.1814,-0.0067,2057
9,0.198,-1.1641,-0.4153,0.2693,-0.1922,0.1755,2029
9,0.2087,-1.29,-0.3762,0.1517,-0.2903,0.3745,2059
9,0.2056,-1.3313,-0.2891,0.0341,-0.373,0.5404,2039
9,0.2505,-1.3066,-0.1274,-0.0415,-0.3895,0.6224,2052
10,0.2964,-1.1987,0.0234,-0.078,-0.3278,0.6261,2040
10,0.3706,-1.0747,0.1318,-0.1009,-0.2019,0.5592,2045
10,0.447,-0.9634,0.2549,-0.1321,0.0024,0.4457,2029
10,0.5637,-0.8445,0.3472,-0.1109,0.18,0.296,2037
10,0.6338,-0.7812,0.3923,-0.0346,0.2573,0.1349,2059
10,0.6719,-0.739,0.3669,0.0177,0.3199,-0.0144,2067
10,0.6973,-0.7756,0.2927,0.0332,0.283,-0.1181,2053
10,0.6919,-0.8728,0.2168,0.0506,0.1561,-0.2454,2045
10,0.7068,-0.9114,0.1311,0.0664,-0.092,-0.3196,2030
10,0.7007,-0.9045,0.0505,0.0872,-0.3011,-0.3318,2054
10,0.6658,-0.884,0.0332,0.1068,-0.4963,-0.3,2043
10,0.636,-0.8728,0.0547,0.1025,-0.6574,-0.2477,2070
10,0.6165,-0.8645,0.0828,0.1144,-0.7301,-0.2225,2047
10,0.6389,-0.8193,0.0928,0.1069,-0.7351,-0.195,2050
10,0.6309,-0.8049,0.1257,0.0641,-0.7179,-0.1911,2050
10,0.6379,-0.7852,0.1333,0.028,-0.7296,-0.1951,2032
10,0.6199,-0.7563,0.1157,-0.0004,-0.6966,-0.2087,2054
10,0.5791,-0.7227,0.1021,-0.0205,-0.6645,-0.2043,2056
10,0.531,-0.6956,0.0762,-0.0388,-0.6301,-0.2024,2051
10,0.4944,-0.6685,0.0747,-0.0525,-0.5735,-0.1959,2054
10,0.4492,-0.665,0.075,-0.0722,-0.481,-0.1844,2050
10,0.4214,-0.6694,0.0625,-0.0839,-0.347,-0.1731,2049
10,0.3884,-0.6812,0.071,-0.0904,-0.208,-0.142,2072
10,0.3711,-0.7,0.0513,-0.0875,-0.0827,-0.1061,2042
10,0.355,-0.7446,0.0339,-0.0914,0.0587,-0.0686,2055
10,0.3501,-0.7437,0.0078,-0.0956,0.1662,-0.0345,2049
10,0.3479,-0.7478,-0.0317,-0.0971,0.2438,0.0185,2057
10,0.3342,-0.748,-0.0845,-0.1123,0.2967,0.0945,2033
10,0.324,-0.7668,-0.1216,-0.1531,0.3485,0.1887,2062
10,0.3284,-0.7849,-0.1165,-0.1732,0.4552,0.2424,2046
10,0.3696,-0.8518,-0.0525,-0.193,0.5208,0.3071,2061
10,0.3726,-0.9187,-0.0481,-0.2396,0.4955,0.3594,2041
10,0.4126,-0.9509,-0.0688,-0.2658,0.4829,0.3944,2048
10,0.4121,-0.9824,-0.0405,-0.2491,0.4626,0.3852,2065
10,0.4077,-1.0088,-0.0435,-0.2302,0.4916,0.373,2044
10,0.3452,-0.9756,-0.073,-0.2306,0.5121,0.3779,2071
10,0.2708,-0.9319,-0.1216,-0.265,0.518,0.4213,2029
10,0.2585,-0.9766,-0.1831,-0.3465,0.5019,0.53,2090
10,0.3313,-1.1084,-0.2434,-0.4408,0.4133,0.6793,2049
10,0.4084,-1.1431,-0.3247,-0.5002,0.1378,0.7625,2043
10,0.428,-1.0654,-0.3357,-0.4751,-0.092,0.7516,2047
10,0.5002,-0.9944,-0.3037,-0.4068,-0.1875,0.6813,2060
10,0.5725,-0.9668,-0.2981,-0.3293,-0.2625,0.5685,2037
10,0.644,-0.937,-0.2568,-0.243,-0.3665,0.4085,2049
10,0.6265,-0.9893,-0.2415,-0.1494,-0.3193,0.2184,2051
10,0.5833,-1.0371,-0.2688,-0.015,-0.1416,0.0678,2052
10,0.5679,-1.0403,-0.2922,0.072,0.1422,0.041,2047
10,0.5723,-1.0454,-0.2979,0.073,0.4659,0.0766,2054
10,0.5955,-1.0322,-0.2258,0.0574,0.815,0.1112,2055
10,0.6296,-1.0051,-0.1099,0.051,1.0215,0.1538,2049
10,0.6987,-0.9736,-0.0164,0.0533,1.1168,0.1647,2064
10,0.7622,-0.9568,0.0813,0.063,1.069,0.142,2037
10,0.8398,-0.8794,0.1318,0.1012,0.8837,0.079,2051
10,0.8535,-0.8035,0.1033,0.1212,0.6096,-0.0052,2068
10,0.7808,-0.7493,0.0073,0.1301,0.2725,-0.0906,2043
10,0.6538,-0.7297,-0.092,0.1439,-0.0256,-0.1578,2048
10,0.5371,-0.7222,-0.1399,0.1555,-0.2262,-0.2077,2047
10,0.4563,-0.7258,-0.1707,0.1475,-0.3578,-0.2318,2048
10,0.4099,-0.7449,-0.1873,0.1451,-0.3396,-0.2362,2051
10,0.3716,-0.7742,-0.1807,0.1424,-0.2356,-0.2412,2053
10,0.3594,-0.7732,-0.1702,0.1471,-0.1465,-0.2553,2054
10,0.3572,-0.762,-0.1785,0.1756,-0.0425,-0.2754,2056
10,0.3687,-0.7466,-0.1843,0.2085,0.0226,-0.2902,2061
10,0.3843,-0.7288,-0.1606,0.2393,0.0792,-0.2986,2058
10,0.3806,-0.708,-0.1602,0.2523,0.0923,-0.3027,2049
10,0.3899,-0.698,-0.1357,0.2389,0.0539,-0.3037,2052
10,0.4141,-0.6914,-0.1196,0.2035,-0.0746,-0.3069,2057
10,0.4126,-0.7068,-0.1345,0.1701,-0.2081,-0.3068,2046
10,0.3804,-0.7119,-0.1323,0.1678,-0.3372,-0.3111,2058
10,0.3503,-0.699,-0.1697,0.1788,-0.4413,-0.3039,2043
10,0.3193,-0.7136,-0.1785,0.178,-0.4815,-0.2884,2050
10,0.3062,-0.7512,-0.2109,0.1804,-0.4464,-0.2627,2056
10,0.2903,-0.7891,-0.2092,0.1687,-0.3607,-0.2207,2046
10,0.2732,-0.8013,-0.1509,0.1506,-0.2495,-0.1629,2057
10,0.2549,-0.7666,-0.1392,0.169,-0.1681,-0.1293,2052
10,0.2178,-0.7822,-0.1294,0.2155,-0.1113,-0.0816,2046
10,0.1733,-0.9539,-0.1477,0.2205,-0.0995,-0.0466,2040
10,0.21,-1.1216,-0.1868,0.2282,-0.177,-0.019,2053
10,0.2581,-1.2522,-0.2422,0.0945,-0.3537,0.0984,2055
10,0.2986,-1.2683,-0.2529,-0.0065,-0.4149,0.2179,2045
10,0.3384,-1.292,-0.1567,-0.1084,-0.3823,0.3302,2058
10,0.4031,-1.3342,-0.052,-0.2065,-0.3092,0.3912,2040
10,0.4917,-1.2917,0.0232,-0.2822,-0.3589,0.4244,2074
10,0.5576,-1.2004,0.1226,-0.2717,-0.3164,0.3791,2063
10,0.5935,-1.126,0.2429,-0.2184,-0.1743,0.3328,2059
10,0.6165,-1.0081,0.3914,-0.1478,0.0316,0.3248,2047
10,0.6011,-0.9048,0.4966,-0.0542,0.043,0.2751,2067
10,0.5723,-0.8789,0.3562,-0.0075,0.0091,0.177,2067
10,0.5422,-0.8718,0.2278,-0.0121,-0.0772,0.0771,2045
10,0.605,-0.8589,0.1555,-0.035,-0.3177,-0.0161,2042
10,0.626,-0.8525,0.052,-0.0541,-0.6204,-0.1196,2051
10,0.5862,-0.876,-0.0759,-0.0518,-0.8347,-0.235,2046
10,0.5417,-0.8906,-0.0879,0.002,-0.8811,-0.3655,2043
10,0.5615,-0.853,-0.0105,0.0802,-0.7602,-0.4514,2066
10,0.5835,-0.8176,0.0156,0.1357,-0.5777,-0.4691,2047
10,0.5862,-0.7769,0.1062,0.1574,-0.3458,-0.4377,2050
10,0.5969,-0.7583,0.1672,0.1566,-0.1477,-0.379,2054
10,0.6145,-0.7305,0.1907,0.1171,-0.0679,-0.3212,2043
11,0.6191,-0.7319,0.1846,0.0478,-0.0455,-0.2816,2053
11,0.5901,-0.7112,0.147,-0.0345,-0.0178,-0.2541,2058
11,0.5251,-0.7292,0.1145,-0.12,0.0057,-0.2233,2046
11,0.4358,-0.7329,0.0676,-0.1854,0.014,-0.2151,2036
11,0.3582,-0.7446,-0.0078,-0.2193,0.0165,-0.2079,2090
11,0.301,-0.7466,-0.0425,-0.253,0.051,-0.1678,2047
11,0.2817,-0.7603,-0.0513,-0.2523,0.1096,-0.1202,2047
11,0.2747,-0.7671,-0.0442,-0.2402,0.2244,-0.0607,2060
11,0.2756,-0.7949,0.009,-0.2348,0.2878,-0.0075,2027
11,0.3008,-0.8345,0.0022,-0.2207,0.3798,0.0246,2071
11,0.3315,-0.8508,0.009,-0.2224,0.4894,0.0587,2038
11,0.334,-0.8503,0.0183,-0.2541,0.5441,0.0851,2061
11,0.3184,-0.8208,-0.0183,-0.2788,0.6027,0.1167,2050
11,0.3083,-0.8118,-0.053,-0.2605,0.6512,0.137,2049
11,0.301,-0.7839,-0.0686,-0.237,0.6594,0.1764,2046
11,0.2981,-0.7925,-0.0588,-0.2221,0.6155,0.2213,2050
11,0.3154,-0.8184,-0.0525,-0.214,0.5996,0.2598,2053
11,0.343,-0.8506,-0.0354,-0.2079,0.6462,0.2788,2057
11,0.3684,-0.9155,-0.0154,-0.2083,0.7297,0.285,2057
11,0.4631,-1.1201,-0.0764,-0.2187,0.7755,0.3121,2038
11,0.5608,-1.3354,-0.1609,-0.1942,0.7275,0.334,2063
11,0.5662,-1.3359,-0.2507,-0.2151,0.5709,0.3814,2055
11,0.4766,-1.2742,-0.3159,-0.2401,0.3582,0.4329,2037
11,0.4485,-1.1953,-0.3403,-0.2726,0.1722,0.5196,2054
11,0.4358,-1.0867,-0.3562,-0.3349,0.1045,0.592,2051
11,0.4902,-0.9429,-0.2839,-0.3769,0.0639,0.6055,2042
11,0.5198,-0.8691,-0.2607,-0.361,0.1073,0.5333,2042
11,0.5076,-0.8735,-0.2068,-0.2581,0.241,0.3983,2049
11,0.5503,-0.8831,-0.1475,-0.0925,0.4658,0.2748,2054
11,0.5916,-0.8794,-0.0771,0.0372,0.6625,0.1718,2045
11,0.6475,-0.9028,-0.0347,0.1193,0.7478,0.0883,2045
11,0.6941,-0.9373,0.0122,0.1726,0.7918,0.0314,2054
11,0.74,-0.9482,0.0737,0.1947,0.7135,-0.0213,2049
11,0.7363,-0.9551,0.0449,0.1771,0.5389,-0.0579,2041
11,0.7578,-0.906,0.0557,0.1487,0.3406,-0.0748,2052
11,0.7053,-0.8645,-0.001,0.1115,0.1605,-0.0929,2058
11,0.6111,-0.7949,-0.1135,0.1028,0.0272,-0.1214,2050
11,0.5283,-0.7485,-0.1982,0.0959,-0.0036,-0.125,2055
11,0.458,-0.7078,-0.2371,0.1178,0.037,-0.1064,2053
11,0.4189,-0.6833,-0.241,0.142,0.1278,-0.092,2056
11,0.4109,-0.7031,-0.186,0.1357,0.2151,-0.0678,2054
11,0.4065,-0.7334,-0.1467,0.1182,0.2441,-0.072,2055
11,0.4175,-0.7578,-0.0986,0.1147,0.2514,-0.1039,2044
11,0.3855,-0.7754,-0.0781,0.1185,0.2121,-0.1541,2049
11,0.373,-0.761,-0.0872,0.1437,0.1306,-0.1997,2050
11,0.3462,-0.7393,-0.0945,0.1679,0.0614,-0.2276,2052
11,0.3459,-0.7129,-0.0884,0.1775,-0.0559,-0.2662,2049
11,0.3494,-0.7102,-0.0972,0.1744,-0.1816,-0.285,2034
11,0.3242,-0.6992,-0.103,0.1599,-0.3689,-0.3145,2053
11,0.3359,-0.7224,-0.1353,0.1695,-0.5133,-0.3458,2057
11,0.3262,-0.7722,-0.1677,0.1948,-0.5363,-0.3551,2040
11,0.3022,-0.8125,-0.1736,0.2131,-0.4938,-0.3414,2055
11,0.2695,-0.8625,-0.207,0.1987,-0.4376,-0.3259,2051
11,0.2595,-0.9016,-0.2036,0.1912,-0.3317,-0.2914,2051
11,0.2107,-0.9319,-0.2058,0.1804,-0.286,-0.2559,2059
11,0.2,-0.9309,-0.1736,0.2049,-0.2907,-0.2208,2056
11,0.1907,-0.9146,-0.1326,0.2452,-0.2294,-0.1887,2043
11,0.1948,-0.9062,-0.1245,0.2968,-0.2418,-0.1662,2050
11,0.2192,-1.0559,-0.1035,0.3075,-0.3611,-0.1565,2067
11,0.324,-1.1926,-0.166,0.3404,-0.5446,-0.1879,2042
11,0.3564,-1.3325,-0.2737,0.2835,-0.6208,-0.1413,2054
11,0.3481,-1.4109,-0.3447,0.1487,-0.6734,-0.0266,2045
11,0.3501,-1.335,-0.3152,0.0609,-0.6091,0.0894,2044
11,0.2898,-1.3235,-0.1689,0.0044,-0.3705,0.2112,2058
11,0.2788,-1.2976,-0.0535,-0.1543,-0.3426,0.3753,2057
11,0.408,-1.0876,0.0566,-0.2717,-0.4168,0.4856,2063
11,0.4565,-0.9578,0.2241,-0.351,-0.3237,0.4859,2065
11,0.4966,-0.7666,0.4238,-0.3141,-0.1758,0.3975,2035
11,0.5234,-0.6216,0.5232,-0.2149,-0.0916,0.2633,2067
11,0.5332,-0.5737,0.4578,-0.1092,-0.0455,0.0699,2032
11,0.5703,-0.6362,0.2759,-0.0037,-0.0269,-0.1262,2026
11,0.6279,-0.7134,0.1379,0.084,-0.0019,-0.2784,2056
11,0.5774,-0.8062,0.0234,0.1324,-0.1477,-0.3789,2045
11,0.5583,-0.8416,-0.0544,0.1373,-0.4133,-0.3988,2052
11,0.5962,-0.8486,-0.0715,0.1289,-0.6291,-0.3828,2051
11,0.5825,-0.8411,-0.0366,0.1354,-0.7747,-0.3582,2047
11,0.5779,-0.814,-0.0042,0.1232,-0.7863,-0.3271,2050
11,0.5999,-0.7979,0.0693,0.1233,-0.6763,-0.2578,2043
11,0.6191,-0.7864,0.1057,0.0898,-0.5044,-0.1774,2062
11,0.6208,-0.7839,0.2126,-0.0033,-0.4818,-0.1269,2043
11,0.6528,-0.7578,0.1792,-0.0783,-0.4205,-0.1031,2044
11,0.6023,-0.7498,0.1641,-0.1334,-0.3282,-0.0971,2047
11,0.5276,-0.7678,0.1382,-0.1715,-0.2081,-0.0904,2046
11,0.4634,-0.7678,0.1042,-0.2012,-0.096,-0.0695,2054
11,0.3911,-0.7844,0.051,-0.2155,0.0447,-0.0413,2051
11,0.3635,-0.7739,0.0312,-0.2369,0.1281,-0.0059,2051
11,0.3347,-0.7839,0.0112,-0.2449,0.2103,0.0326,2043
11,0.2913,-0.8337,0.0022,-0.2401,0.2658,0.0776,2063
11,0.2976,-0.8486,-0.0107,-0.2234,0.3259,0.1216,2043
11,0.3081,-0.8557,-0.0366,-0.2029,0.4008,0.1579,2040
11,0.3372,-0.8596,-0.0427,-0.1852,0.4024,0.1979,2058
11,0.3455,-0.8733,-0.0415,-0.1494,0.4205,0.2091,2058
11,0.3728,-0.8584,-0.0034,-0.1204,0.4304,0.2217,2064
11,0.4209,-0.9407,0.0527,-0.0951,0.4858,0.1954,2046
11,0.4185,-0.9631,0.0608,-0.0917,0.5079,0.1874,2070
11,0.4207,-1.0029,0.0295,-0.0767,0.6721,0.1574,2049
11,0.3516,-0.9583,-0.0234,-0.0799,0.7268,0.1401,2051
11,0.2634,-0.9429,-0.1047,-0.1334,0.7485,0.1952,2062
11,0.3059,-1.0911,-0.1631,-0.2277,0.7387,0.3414,2053
11,0.4023,-1.1829,-0.2063,-0.3164,0.6153,0.5311,2037
11,0.373,-1.1125,-0.2585,-0.4014,0.3255,0.6496,2050
11,0.4009,-1.0706,-0.3538,-0.4104,0.1574,0.703,2050
11,0.4446,-1.0908,-0.3499,-0.3432,0.1501,0.6782,2060
11,0.5679,-1.0813,-0.3264,-0.2832,0.2207,0.607,2047
11,0.6743,-1.0537,-0.3052,-0.2326,0.2413,0.5117,2045
12,0.7256,-1.0486,-0.3101,-0.1487,0.2376,0.3693,2045
12,0.6704,-1.0188,-0.2842,-0.0132,0.3362,0.2252,2059
12,0.687,-0.9182,-0.1968,0.1293,0.5634,0.1486,2055
12,0.6636,-0.8679,-0.1008,0.1795,0.7704,0.1188,2064
12,0.679,-0.8572,-0.0122,0.1694,0.8882,0.132,2053
12,0.6868,-0.8911,0.0515,0.1204,1.0135,0.1092,2052
12,0.7266,-0.8765,0.1155,0.0858,1.0326,0.0646,2053
12,0.7495,-0.8442,0.1689,0.0767,1.0104,0.0142,2039
12,0.7087,-0.7856,0.1465,0.0719,0.9162,-0.0328,2043
12,0.6399,-0.7727,0.0757,0.0876,0.7574,-0.102,2051
12,0.5901,-0.7466,-0.0215,0.1167,0.5647,-0.1772,2046
12,0.5461,-0.7271,-0.1099,0.1224,0.3385,-0.2346,2046
12,0.5095,-0.7131,-0.1707,0.1059,0.1799,-0.2575,2046
12,0.4678,-0.7114,-0.1785,0.0774,0.1253,-0.2511,2054
12,0.4163,-0.7295,-0.1638,0.0491,0.1177,-0.2506,2049
12,0.3726,-0.7444,-0.1311,0.0226,0.118,-0.2559,2055
12,0.3425,-0.7576,-0.127,0.0238,0.1465,-0.2705,2053
12,0.3293,-0.7615,-0.114,0.0499,0.208,-0.2884,2058
12,0.3357,-0.7346,-0.0952,0.0767,0.2607,-0.306,2056
12,0.3381,-0.7151,-0.0496,0.1075,0.2514,-0.3163,2045
12,0.3254,-0.7236,-0.0461,0.1145,0.1756,-0.3376,2054
12,0.3196,-0.719,-0.0388,0.1167,0.0834,-0.3637,2048
12,0.3406,-0.7266,-0.0046,0.1334,0.0305,-0.3796,2046
12,0.3481,-0.7415,0.0139,0.1428,-0.0064,-0.4068,2062
12,0.3606,-0.7539,-0.0127,0.1534,-0.0479,-0.4123,2053
12,0.3354,-0.8015,-0.0396,0.1336,-0.059,-0.377,2054
12,0.2988,-0.8667,-0.0896,0.12,-0.1163,-0.3298,2061
12,0.2625,-0.8853,-0.1399,0.1004,-0.1503,-0.2936,2054
12,0.2463,-0.8687,-0.1824,0.0915,-0.1894,-0.2522,2055
12,0.179,-0.8394,-0.2278,0.1089,-0.2502,-0.1956,2043
12,0.1545,-0.8638,-0.2427,0.1534,-0.3354,-0.1654,2060
12,0.1011,-1.0474,-0.2498,0.1654,-0.3105,-0.1711,2040
12,0.1912,-1.2664,-0.2498,0.1968,-0.22,-0.1621,2061
12,0.2202,-1.4644,-0.2849,0.038,-0.151,-0.0595,2044
12,0.259,-1.4636,-0.3105,-0.1498,-0.1562,0.0892,2056
12,0.3159,-1.3552,-0.1934,-0.2578,-0.1,0.2051,2041
12,0.2715,-1.4053,-0.0063,-0.2606,-0.0431,0.2667,2065
12,0.3333,-1.3784,0.1431,-0.302,-0.3067,0.3152,2064
12,0.5042,-1.2012,0.1665,-0.3149,-0.7981,0.3048,2028
12,0.6011,-0.9727,0.2415,-0.3468,-0.9505,0.2998,2057
12,0.6528,-0.7556,0.3818,-0.3862,-0.9728,0.2984,2032
12,0.551,-0.6145,0.4268,-0.438,-0.916,0.231,2058
12,0.5552,-0.5247,0.394,-0.3402,-0.8447,0.0112,2038
12,0.5652,-0.606,0.3374,-0.1794,-0.795,-0.2216,2044
12,0.5757,-0.7151,0.2085,-0.0975,-0.7513,-0.3978,2043
12,0.6233,-0.8457,0.1167,-0.0358,-0.669,-0.4803,2044
12,0.6438,-0.8804,0.0554,0.0388,-0.6433,-0.5706,2047
12,0.6499,-0.8904,0.0544,0.0981,-0.5679,-0.6114,2048
12,0.6465,-0.8743,0.0454,0.1852,-0.4737,-0.6157,2055
12,0.6538,-0.877,0.0986,0.2338,-0.3639,-0.5639,2049
12,0.6892,-0.8159,0.1218,0.2513,-0.3394,-0.4829,2047
12,0.7012,-0.7617,0.1318,0.2128,-0.3271,-0.3935,2045
12,0.698,-0.6936,0.1814,0.1237,-0.3675,-0.2856,2053
12,0.6628,-0.6433,0.1895,0.0208,-0.3963,-0.1904,2054
12,0.6042,-0.6345,0.1924,-0.0906,-0.3866,-0.1368,2043
12,0.5381,-0.6257,0.1748,-0.165,-0.3517,-0.134,2057
12,0.4573,-0.6406,0.1572,-0.223,-0.2545,-0.1549,2053
12,0.4119,-0.6355,0.0947,-0.2446,-0.1184,-0.1952,2048
12,0.3762,-0.6414,0.0508,-0.2542,0.0079,-0.2236,2044
12,0.3679,-0.7122,0.0093,-0.2549,0.1687,-0.2049,2065
12,0.354,-0.7383,-0.0125,-0.2466,0.318,-0.1611,2048
12,0.3286,-0.7832,-0.0332,-0.253,0.4149,-0.0683,2052
12,0.3333,-0.8208,-0.0454,-0.2726,0.4675,0.0401,2053
12,0.3516,-0.823,-0.0713,-0.3051,0.5212,0.1429,2048
12,0.3838,-0.8276,-0.0823,-0.3314,0.5669,0.2306,2053
12,0.396,-0.8086,-0.0815,-0.3746,0.5434,0.2952,2058
12,0.3828,-0.8193,-0.103,-0.4003,0.5376,0.3518,2021
12,0.3628,-0.8552,-0.071,-0.3912,0.6127,0.398,2064
12,0.3672,-0.9243,-0.0112,-0.4155,0.6363,0.3976,2026
12,0.3582,-0.9558,-0.0068,-0.3721,0.612,0.3671,2050
12,0.3992,-1.1511,-0.071,-0.3557,0.5574,0.3722,2040
12,0.4937,-1.3723,-0.1062,-0.2533,0.6079,0.3697,2045
12,0.5403,-1.4158,-0.2048,-0.2468,0.3835,0.3935,2050
12,0.4446,-1.2686,-0.3069,-0.3164,0.096,0.4396,2047
12,0.4128,-1.1597,-0.3337,-0.3314,0.026,0.4906,2050
12,0.4238,-1.0276,-0.3042,-0.3743,0.0213,0.5337,2047
12,0.5044,-0.9248,-0.272,-0.4065,0.0105,0.5509,2042
12,0.6248,-0.8975,-0.2385,-0.3835,0.0732,0.491,2055
12,0.6997,-0.9062,-0.2112,-0.2892,0.1812,0.3445,2056
12,0.7053,-0.9041,-0.187,-0.1554,0.2964,0.2051,2064
12,0.7341,-0.876,-0.1758,-0.0533,0.3774,0.098,2054
12,0.74,-0.8535,-0.186,-0.0298,0.3886,0.0289,2050
12,0.7166,-0.8513,-0.1716,-0.0406,0.3338,-0.01,2048
12,0.6655,-0.8782,-0.157,-0.0506,0.3019,-0.0156,2052
12,0.6365,-0.905,-0.1313,-0.068,0.329,-0.0021,2054
12,0.6619,-0.9043,-0.0596,-0.0722,0.4446,0.0169,2057
12,0.6797,-0.8508,0.0159,-0.0828,0.5067,0.0329,2055
12,0.6687,-0.7898,0.0291,-0.0887,0.3827,0.0217,2045
12,0.6492,-0.7185,-0.0269,-0.0848,0.189,-0.0067,2038
13,0.6106,-0.677,-0.0854,-0.0736,0.0049,-0.0539,2063
13,0.5276,-0.6702,-0.1396,-0.0565,-0.1557,-0.1036,2044
13,0.4539,-0.6785,-0.1912,-0.0493,-0.2353,-0.1237,2055
13,0.3967,-0.7202,-0.1973,-0.0742,-0.2075,-0.1056,2048
13,0.3687,-0.7273,-0.1721,-0.0943,-0.135,-0.0807,2064
13,0.3459,-0.7285,-0.1658,-0.0824,-0.0449,-0.0864,2045
13,0.3198,-0.7415,-0.1584,-0.0655,-0.0064,-0.1181,2054
13,0.3313,-0.7383,-0.1416,-0.016,0.0246,-0.1743,2054
13,0.3418,-0.7476,-0.1101,0.0254,0.0662,-0.218,2051
13,0.3625,-0.739,-0.0635,0.0466,0.0415,-0.2666,2055
13,0.3965,-0.7502,-0.0432,0.0505,-0.043,-0.2954,2064
13,0.4216,-0.7427,-0.0403,0.0434,-0.1599,-0.3338,2048
13,0.4482,-0.7661,-0.0481,0.0522,-0.2646,-0.3517,2060
13,0.4434,-0.8003,-0.0823,0.0638,-0.3201,-0.3538,2051
13,0.3857,-0.821,-0.1265,0.0702,-0.3551,-0.3412,2050
13,0.3196,-0.8428,-0.1858,0.0851,-0.3687,-0.3161,2053
13,0.3005,-0.8645,-0.2656,0.098,-0.3033,-0.267,2033
13,0.2485,-0.8953,-0.2856,0.0719,-0.1602,-0.1542,2048
13,0.2212,-0.8416,-0.2861,0.0791,0.0895,-0.061,2053
13,0.2065,-0.7732,-0.2549,0.0862,0.1754,-0.0164,2039
13,0.2249,-0.7964,-0.2278,0.0838,0.1352,0.0105,2046
13,0.2095,-0.8914,-0.2207,0.0844,0.0461,0.0515,2063
13,0.2534,-1.0374,-0.2412,0.091,-0.0884,0.1495,2038
13,0.2568,-1.2278,-0.2593,-0.0332,-0.271,0.2959,2068
13,0.2896,-1.2668,-0.2368,-0.1674,-0.3156,0.4264,2053
13,0.3098,-1.3135,-0.1042,-0.2686,-0.1309,0.526,2047
13,0.2473,-1.4536,-0.0481,-0.334,0.0838,0.561,2048
13,0.3474,-1.3511,-0.0603,-0.4047,0.0639,0.6115,2055
13,0.4111,-1.2134,-0.0112,-0.4426,0.181,0.7058,2060
13,0.4802,-1.0667,0.1672,-0.4619,0.5078,0.8099,2050
13,0.4688,-0.8914,0.3276,-0.4597,0.7589,0.84,2079
13,0.4897,-0.759,0.4368,-0.3719,0.87,0.7304,2047
13,0.5227,-0.741,0.3796,-0.3002,0.8688,0.5155,2055
13,0.5676,-0.7952,0.3254,-0.2051,0.5727,0.2754,2039
13,0.7314,-0.8472,0.1597,-0.0976,0.518,0.1169,2056
13,0.7102,-0.8853,0.0574,-0.053,0.1814,-0.0205,2047
13,0.6997,-0.9033,-0.0298,-0.0009,-0.1426,-0.1465,2045
13,0.6484,-0.8743,-0.0256,0.0507,-0.3546,-0.1981,2066
13,0.6245,-0.8882,-0.012,0.0772,-0.4582,-0.1989,2059
13,0.5549,-0.8083,0.0693,0.0847,-0.4581,-0.1727,2049
13,0.5688,-0.793,0.1116,0.0479,-0.3446,-0.0995,2049
13,0.5718,-0.8025,0.1902,-0.012,-0.2032,-0.0332,2051
13,0.5977,-0.8254,0.2373,-0.0965,-0.142,0.0141,2053
13,0.6211,-0.8201,0.2227,-0.1609,-0.0767,0.0162,2049
13,0.5823,-0.8142,0.1506,-0.1972,0.0394,0.006,2052
13,0.5178,-0.7876,0.0798,-0.2265,0.1148,-0.0033,2050
13,0.4429,-0.762,0.0266,-0.231,0.1967,0.0012,2066
13,0.3713,-0.7332,0.0032,-0.2461,0.2618,0.0136,2044
13,0.3479,-0.7285,-0.0159,-0.2594,0.3145,0.0298,2051
13,0.3223,-0.7463,0.0178,-0.2766,0.3393,0.0313,2064
13,0.3145,-0.7791,0.0662,-0.28,0.3695,0.0277,2039
13,0.3174,-0.8145,0.0847,-0.2939,0.3972,0.034,2046
13,0.3152,-0.8364,0.0764,-0.3111,0.4264,0.0537,2039
13,0.3071,-0.8281,0.0474,-0.3133,0.4345,0.0794,2049
13,0.3088,-0.7715,0.0088,-0.3208,0.4615,0.1031,2050
13,0.3157,-0.7251,0.0051,-0.3091,0.5324,0.1202,2036
13,0.3286,-0.7385,0.0173,-0.2944,0.556,0.1712,2045
13,0.3132,-0.7542,0.0007,-0.334,0.5904,0.2408,2029
13,0.2976,-0.8696,-0.04,-0.3617,0.6372,0.2799,2052
13,0.3098,-0.9861,-0.1443,-0.4031,0.6436,0.3213,2046
13,0.3779,-1.1553,-0.2346,-0.4267,0.643,0.4084,2045
13,0.4221,-1.2092,-0.2861,-0.4474,0.6433,0.5203,2049
13,0.4124,-1.1655,-0.3076,-0.4625,0.54,0.5992,2044
13,0.3799,-1.2026,-0.2905,-0.4217,0.607,0.6506,2077
13,0.4565,-1.2615,-0.2788,-0.3553,0.754,0.6964,2056
13,0.6467,-1.26,-0.2905,-0.3404,0.7067,0.7677,2059
13,0.7981,-1.1331,-0.3135,-0.333,0.4891,0.7328,2064
13,0.8052,-0.9585,-0.2651,-0.2743,0.3181,0.575,2038
13,0.7612,-0.8789,-0.1887,-0.1638,0.2931,0.3789,2047
13,0.6736,-0.8228,-0.0476,-0.034,0.4615,0.222,2054
13,0.6294,-0.8914,0.0549,0.0507,0.717,0.1031,2049
13,0.6326,-0.9644,0.0818,0.0948,0.9618,-0.0121,2048
13,0.7283,-0.9441,0.1094,0.1043,1.1583,-0.0867,2047
13,0.7261,-0.8916,0.157,0.0898,1.0894,-0.1294,2057
13,0.7087,-0.8628,0.1516,0.0939,0.9637,-0.1818,2048
13,0.6584,-0.8521,0.1047,0.1224,0.8112,-0.2342,2050
13,0.6384,-0.8027,0.0674,0.1356,0.6649,-0.2752,2047
13,0.5935,-0.7991,-0.0315,0.1364,0.3691,-0.3079,2054
13,0.532,-0.7812,-0.1082,0.1192,0.2426,-0.3259,2056
13,0.4905,-0.8022,-0.1794,0.0723,0.1776,-0.3025,2060
13,0.4497,-0.8071,-0.1938,0.0378,0.2425,-0.2526,2053
13,0.3967,-0.8174,-0.2039,0.0104,0.2998,-0.2083,2056
13,0.3582,-0.8259,-0.1794,0.0059,0.3517,-0.1956,2045
13,0.3406,-0.834,-0.1724,0.034,0.3867,-0.1955,2050
13,0.3435,-0.821,-0.1624,0.0497,0.3907,-0.2097,2053
13,0.3213,-0.8125,-0.1455,0.0711,0.3876,-0.2341,2049
13,0.3005,-0.7864,-0.1338,0.0888,0.3581,-0.2574,2043
13,0.2888,-0.7842,-0.1082,0.1025,0.3043,-0.2582,2059
13,0.2544,-0.7983,-0.1213,0.0956,0.2711,-0.2498,2045
13,0.2566,-0.7815,-0.0659,0.0915,0.3159,-0.2466,2046
13,0.2664,-0.8032,-0.0352,0.0933,0.3851,-0.2284,2063
13,0.2576,-0.8425,-0.0264,0.1031,0.4337,-0.2333,2037
13,0.2271,-0.8579,-0.0618,0.1417,0.4381,-0.2661,2057
13,0.2554,-0.8772,-0.1331,0.1989,0.4232,-0.3308,2041
14,0.2512,-0.896,-0.2048,0.2382,0.4172,-0.3781,2058
14,0.2104,-0.895,-0.2581,0.2428,0.456,-0.3569,2052
14,0.1736,-0.8669,-0.2942,0.2079,0.4769,-0.2567,2044
14,0.1509,-0.8782,-0.2786,0.1654,0.4651,-0.1483,2075
14,0.168,-0.8943,-0.2554,0.119,0.4141,-0.0759,2051
14,0.1978,-0.8794,-0.2229,0.0899,0.3683,-0.0489,2061
14,0.2568,-0.8716,-0.1953,0.102,0.3305,-0.0395,2053
14,0.2979,-0.8152,-0.177,0.0977,0.3105,-0.0427,2031
14,0.3455,-0.7756,-0.1367,0.0985,0.2618,-0.0481,2075
14,0.3547,-0.7412,-0.1377,0.0599,0.2075,-0.0569,2037
14,0.3306,-0.7283,-0.1443,0.0313,0.1951,-0.0694,2065
14,0.3027,-0.7253,-0.1311,0.0241,0.2017,-0.0703,2051
14,0.2625,-0.7727,-0.1179,0.0256,0.2605,-0.0719,2037
14,0.2593,-0.8789,-0.1255,0.0595,0.3743,-0.0812,2048
14,0.3142,-1.019,-0.1118,0.1101,0.6118,-0.0912,2028
14,0.2954,-1.2783,-0.0757,0.0328,0.7767,-0.059,2076
14,0.3442,-1.4333,-0.0625,-0.063,0.732,-0.0308,2065
14,0.4795,-1.3833,-0.0251,-0.1302,0.6589,0.0032,2032
14,0.5886,-1.2175,-0.0317,-0.2398,0.5994,0.0613,2061
14,0.6919,-1.0161,0.01,-0.3278,0.559,0.091,2036
14,0.8328,-0.8394,0.1382,-0.3404,0.3812,0.0643,2052
14,0.8711,-0.803,0.2788,-0.3465,0.1807,0.0133,2033
14,0.8464,-0.79,0.3542,-0.3338,0.0983,-0.0288,2063
14,0.7834,-0.8164,0.406,-0.3203,0.178,-0.079,2020
14,0.7327,-0.821,0.4648,-0.316,0.2832,-0.1027,2091
14,0.677,-0.8909,0.4946,-0.2915,0.4516,-0.1242,2035
14,0.6885,-0.9985,0.4612,-0.2342,0.5902,-0.1491,2064
14,0.657,-1.053,0.415,-0.1882,0.6747,-0.1943,2037
14,0.655,-1.0623,0.262,-0.118,0.7522,-0.1918,2054
14,0.6072,-1.0229,0.2546,-0.0774,0.6183,-0.1622,2050
14,0.606,-0.9883,0.2268,-0.071,0.5052,-0.1225,2053
14,0.6304,-0.9275,0.2432,-0.0734,0.4472,-0.0398,2043
14,0.6162,-0.884,0.2949,-0.1092,0.344,0.0388,2047
14,0.6392,-0.8896,0.3188,-0.1762,0.2213,0.0931,2058
14,0.6328,-0.8767,0.3496,-0.251,0.1334,0.1225,2046
14,0.6167,-0.8792,0.3486,-0.3228,0.0341,0.1202,2040
14,0.5891,-0.9333,0.2383,-0.3812,0.0538,0.1159,2055
14,0.4861,-0.8477,0.2856,-0.4265,-0.0256,0.1001,2054
14,0.4165,-0.8057,0.2051,-0.4906,-0.0935,0.1398,2035
14,0.3323,-0.7908,0.1321,-0.5228,-0.1373,0.1923,2047
14,0.2686,-0.772,0.1497,-0.539,-0.165,0.2472,2040
14,0.2632,-0.7554,0.1458,-0.571,-0.1732,0.2812,2065
14,0.2517,-0.7402,0.1606,-0.5723,-0.2609,0.3035,2040
14,0.2847,-0.7458,0.1353,-0.5662,-0.33,0.2908,2046
14,0.3232,-0.7219,0.1472,-0.552,-0.3105,0.2658,2063
14,0.3513,-0.7102,0.1472,-0.5516,-0.2831,0.2264,2053
14,0.3577,-0.7322,0.1233,-0.5514,-0.2705,0.1911,2056
14,0.3335,-0.7368,0.1196,-0.5751,-0.3227,0.1553,2062
14,0.3298,-0.7498,0.1458,-0.5858,-0.398,0.1433,2046
14,0.3438,-0.7974,0.0842,-0.5624,-0.3892,0.118,2081
14,0.3132,-0.8276,0.0747,-0.571,-0.4031,0.1071,2033
14,0.3147,-0.8474,0.0696,-0.5546,-0.4105,0.0896,2050
14,0.2976,-0.873,0.0525,-0.5478,-0.4251,0.0792,2045
14,0.2886,-0.8645,0.0491,-0.5329,-0.4654,0.0605,2056
14,0.2744,-0.8416,0.061,-0.5123,-0.4397,0.0515,2049
14,0.2373,-0.918,0.0847,-0.5866,-0.4144,0.0947,2040
14,0.2556,-0.8848,0.0608,-0.5337,-0.3537,0.0579,2042
14,0.2722,-0.9014,0.1038,-0.4971,-0.3946,0.0221,2051
14,0.2776,-0.8948,0.1052,-0.4682,-0.4123,0.0269,2064
14,0.2749,-0.8696,0.0813,-0.4493,-0.4557,0.0313,2066
14,0.2585,-0.8696,0.0835,-0.4438,-0.4662,0.0433,2045
14,0.2512,-0.8611,0.0862,-0.4408,-0.4261,0.0706,2047
14,0.2419,-0.8723,0.0803,-0.4216,-0.3741,0.0835,2070
14,0.2375,-0.8665,0.0762,-0.4127,-0.3278,0.1104,2047
14,0.2314,-0.873,0.0439,-0.3887,-0.2462,0.1346,2048
14,0.2327,-0.8982,0.0398,-0.3514,-0.1872,0.1438,2037
14,0.2346,-0.8735,0.0474,-0.3045,-0.1348,0.1469,2066
14,0.2134,-0.8511,0.051,-0.2894,-0.1151,0.1622,2051
14,0.2488,-0.8728,0.054,-0.2526,-0.0113,0.1515,2052
14,0.2925,-0.8906,0.0896,-0.2088,0.1049,0.1631,2033
14,0.3225,-0.8699,0.0935,-0.1691,0.2152,0.1553,2035
14,0.301,-0.8459,0.0828,-0.1693,0.2682,0.2013,2057
14,0.2783,-0.8823,0.0925,-0.1265,0.4341,0.2296,2058
14,0.4092,-1.0129,0.1433,-0.017,0.979,0.3265,2058
14,0.5405,-1.2595,0.1514,0.0265,1.238,0.4777,2061
14,1.0002,-1.5334,-0.228,-0.1072,0.697,0.6457,2068
14,1.1711,-1.5144,-0.6831,-0.1056,0.4408,0.5896,2033
14,0.9653,-1.2913,-0.9602,-0.1481,-0.0716,0.4342,2041
14,0.6809,-1.0352,-0.9072,-0.1052,-0.335,0.3069,2081
14,0.4761,-0.7798,-0.8552,-0.0458,-0.2486,0.3621,1993
14,0.479,-0.6653,-0.5273,-0.057,0.3366,0.5333,2022
14,0.5676,-0.6538,-0.0706,0.004,1.0395,0.5223,2094
14,0.7798,-0.7266,0.1926,0.0333,1.6056,0.4287,2047
14,0.9209,-0.7693,0.2393,0.1294,1.7333,0.2746,2058
14,1.0667,-0.8535,0.1511,0.2497,1.6804,0.1284,2050
14,1.1616,-1.0608,0.0176,0.3811,1.4751,-0.0887,2046
14,1.1292,-1.115,-0.0198,0.4075,1.1842,-0.243,2053
14,1.0427,-0.9844,-0.1289,0.3691,1.0645,-0.2695,2043
14,1.021,-0.8823,-0.1653,0.3559,0.942,-0.3265,2050
14,1.0034,-0.7615,-0.1716,0.3003,0.8256,-0.3456,2064
14,0.9812,-0.6548,-0.2102,0.2289,0.7151,-0.4087,2040
14,0.9275,-0.541,-0.2495,0.1352,0.5916,-0.5103,2049
14,0.7939,-0.438,-0.3022,0.0651,0.5232,-0.5839,2051
14,0.6785,-0.4568,-0.3386,0.0453,0.448,-0.6357,2057
14,0.5957,-0.4846,-0.3306,0.039,0.4253,-0.5751,2048
14,0.5269,-0.627,-0.3191,-0.0019,0.4288,-0.4675,2055
14,0.4692,-0.7886,-0.2952,-0.0587,0.5148,-0.3757,2053
14,0.437,-0.8745,-0.2554,-0.0555,0.6323,-0.3437,2056
14,0.4404,-0.8914,-0.1589,-0.0519,0.7674,-0.3239,2060
14,0.4221,-0.8596,-0.0781,-0.0751,0.8175,-0.3184,2045
14,0.425,-0.8083,0.0015,-0.0838,0.754,-0.3228,2045
14,0.4614,-0.7446,0.0627,-0.0802,0.6486,-0.3159,2061
14,0.4587,-0.7117,0.135,-0.0722,0.4749,-0.3092,2049
14,0.51,-0.6638,0.1509,-0.0838,0.3108,-0.2923,2040
14,0.5076,-0.6482,0.1375,-0.1097,0.2266,-0.2477,2063
14,0.5161,-0.6797,0.115,-0.1455,0.2369,-0.1774,2057
14,0.491,-0.7415,0.0574,-0.1687,0.3235,-0.1044,2057
14,0.4778,-0.7898,0.0393,-0.1724,0.4312,-0.0185,2049
14,0.446,-0.8145,0.0193,-0.1471,0.5449,0.0511,2053
14,0.4202,-0.8345,0.0188,-0.1292,0.5924,0.1077,2041
14,0.405,-0.8337,-0.001,-0.1057,0.6142,0.1507,2067
14,0.3948,-0.8206,0.0012,-0.059,0.5593,0.1759,2045
14,0.4084,-0.8313,0.0232,-0.0277,0.4454,0.2105,2064
14,0.4277,-0.8406,0.0593,-0.0008,0.3043,0.239,2050
14,0.426,-0.854,0.0566,0.0189,0.1618,0.2887,2047
14,0.4456,-0.8647,0.061,0.0726,0.0437,0.3312,2055
14,0.4541,-0.9202,0.0396,0.106,-0.0142,0.381,2056
14,0.3738,-1.0173,-0.0186,0.0621,-0.0772,0.4453,2047
14,0.3655,-1.1248,-0.0598,-0.0222,-0.1041,0.5181,2052
14,0.4146,-1.1682,-0.1399,-0.0972,-0.124,0.5589,2050
14,0.4883,-1.1389,-0.1882,-0.1719,-0.1617,0.5735,2045
14,0.5166,-1.0918,-0.175,-0.2376,-0.2043,0.5731,2072
14,0.5291,-1.0303,-0.0854,-0.2856,-0.1942,0.5801,2025
14,0.5503,-0.9277,-0.0239,-0.2756,-0.2566,0.5785,2058
14,0.5769,-0.8286,-0.0056,-0.2127,-0.2968,0.5384,2028
