Timestamp,Ax,Ay,Az,Rx,Ry,Rz,EMG
0,0.1934,-0.2588,-0.1113,-2.4946,-4.2612,1.5186,2047
0,0.1675,-0.2383,-0.2063,-2.3762,-4.0263,1.8126,2038
0,0.0908,-0.2124,-0.2827,-2.2633,-3.7781,2.0746,2037
0,0.1089,-0.2463,-0.3757,-2.1129,-3.4109,2.3153,2044
0,0.0769,-0.2893,-0.4524,-1.9297,-2.8873,2.5394,2045
0,0.0493,-0.3606,-0.4976,-1.7403,-2.3185,2.7374,2033
0,0.0913,-0.4062,-0.5193,-1.5611,-1.759,2.926,2043
0,0.1033,-0.489,-0.5056,-1.4178,-1.142,3.0837,2044
0,0.1091,-0.6118,-0.5046,-1.2876,-0.5522,3.2158,2046
0,0.105,-0.7393,-0.5095,-1.1894,-0.0719,3.2941,2040
0,0.1223,-0.8081,-0.4807,-1.1674,0.335,3.326,2043
0,0.1602,-0.8845,-0.4138,-1.1473,0.7811,3.3401,2044
0,0.144,-0.9355,-0.3638,-1.1215,1.101,3.3005,2036
0,0.1211,-0.9329,-0.3174,-1.0782,1.284,3.2262,2024
0,0.1294,-0.9255,-0.2629,-1.036,1.3655,3.1337,2025
0,0.1641,-0.8953,-0.252,-0.9729,1.3724,3.0151,2033
0,0.1863,-0.9043,-0.2092,-0.8313,1.3611,2.879,2037
0,0.2517,-0.9492,-0.1235,-0.6782,1.4029,2.7224,2039
0,0.2844,-0.979,-0.0569,-0.4136,1.4383,2.5513,2045
0,0.3184,-1.0627,-0.0234,-0.1606,1.3406,2.3423,2036
0,0.3435,-1.1599,-0.0723,0.0862,1.0553,2.1337,2207
0,0.1274,-1.2974,-0.3279,0.6114,0.7769,1.8378,1976
0,0.2439,-1.1914,-0.1362,1.021,0.3986,1.4495,2009
0,0.3286,-1.1697,0.1086,0.8164,-0.0397,1.3828,2029
0,0.1772,-1.2686,0.0764,1.0005,-0.0089,1.173,2046
0,-0.0164,-1.2256,0.2104,1.1652,-0.1196,0.9175,2032
0,-0.0725,-1.2114,0.2537,1.2698,-0.3867,0.6745,2036
0,-0.0898,-1.2056,0.2898,1.1967,-0.6675,0.4722,2041
0,-0.175,-1.1438,0.3508,1.0705,-0.9893,0.1923,2032
0,-0.3352,-1.0967,0.4211,0.7965,-0.8147,0.1268,2044
0,-0.3523,-1.1282,0.4478,0.7584,-1.352,-0.027,2034
0,-0.2629,-1.2344,0.3877,0.4922,-1.4455,-0.2707,2031
0,-0.2637,-1.1995,0.2122,0.3549,-1.7171,-0.4421,2037
0,-0.2976,-1.1772,0.0198,0.2846,-1.8315,-0.6016,2173
0,-0.396,-1.0891,-0.1077,0.3908,-1.7865,-0.7401,2039
0,-0.5593,-0.9888,-0.1792,0.4482,-1.6467,-0.8958,2064
0,-0.6453,-0.9004,-0.2839,0.5671,-1.5306,-1.1018,1997
0,-0.4971,-0.885,-0.2427,0.7556,-1.5143,-1.1817,2057
0,-0.4402,-1.0696,-0.1829,0.7693,-1.4856,-1.0772,2106
0,-0.4792,-1.1631,-0.127,0.8967,-1.321,-0.9939,2245
0,-0.4941,-1.2888,-0.0908,0.8267,-1.0573,-0.8287,1939
0,-0.5269,-1.168,-0.1165,0.8693,-0.4822,-1.0208,2152
0,-0.5396,-1.0378,0.0095,0.7594,-0.3462,-1.0914,1950
0,-0.5437,-0.9766,0.0798,0.6761,-0.2807,-1.1248,2078
0,-0.0237,-0.9885,0.1765,0.6726,-0.4872,-1.1236,2112
0,1.9999,-2.0,0.7263,-3.3642,-4.3635,-3.8123,2172
0,1.3884,-1.0767,0.7437,-2.9391,-4.3635,-4.3635,1822
0,-2.0,-0.0701,-1.0037,1.816,-2.6524,1.2948,1902
0,1.364,-2.0,-1.2415,-1.8956,-4.3635,-1.7891,2019
0,-2.0,0.7896,-0.9343,-2.3613,1.0051,-1.6488,1949
0,-1.6208,-2.0,0.0352,-2.041,-1.5615,-2.533,2016
0,0.0217,-0.2383,-0.9717,-2.6821,0.0384,-2.3285,2236
0,-0.6731,-0.4004,-0.9128,-1.8768,0.3493,-2.1648,1959
0,-0.6484,-1.2498,0.1597,-1.4488,0.7328,-2.6847,1992
0,1.9999,-0.8242,0.0835,-0.5438,-0.3808,-2.7958,2093
0,0.6885,-0.9097,-0.4507,-0.711,-1.4583,-2.4659,2021
0,0.394,-0.7327,-0.6204,-0.6179,-0.1557,-2.173,2039
0,0.2576,-0.8264,-0.6865,-0.594,0.713,-1.8555,2086
0,0.8865,-0.7764,-0.5991,-0.3625,0.8031,-1.6269,2138
0,0.79,-0.9033,-0.4358,-0.1732,0.6237,-1.4111,2074
0,0.5889,-1.0288,-0.3477,0.0445,0.418,-1.2557,2014
0,-1.3201,-1.1453,-0.8008,-1.2422,1.6285,-0.9705,1983
0,1.1589,-0.9653,-0.2249,0.3406,0.5995,-0.6268,2061
0,-0.8149,-1.092,-0.4734,0.3215,0.5466,0.4311,1991
0,-0.4172,-0.9736,-0.5586,-0.0196,3.3769,1.6691,1979
0,-0.5217,-0.5178,-0.2446,1.2592,2.5983,0.4438,1958
0,-0.4785,-0.6267,-0.6008,1.7334,4.3634,0.718,2026
0,0.998,-1.6433,0.4001,1.8148,4.1046,-0.5786,2034
0,1.9999,-1.9402,0.5154,1.3347,1.4158,-0.7079,2100
0,0.908,-1.5396,0.322,0.7969,0.5295,-0.5666,2144
0,0.46,-1.5493,0.1746,0.4148,-0.3924,-0.8007,2009
0,0.5269,-1.1345,-0.061,0.2289,-0.5438,-0.6943,2011
0,0.4333,-1.0144,-0.2173,0.2168,-0.9617,-0.8305,2040
0,0.9263,-1.0728,-0.1755,0.8576,-1.857,-1.1236,2020
0,0.2915,-0.3003,-0.4031,1.2006,-1.148,-0.8484,2171
0,0.1091,-0.3955,-0.4963,1.8678,-2.3322,-1.1717,2014
0,-0.7798,-1.3782,-0.5747,0.3386,-0.9705,-0.8513,1988
0,-0.6191,-0.6853,-0.7363,0.7211,-0.5424,-0.7485,2015
0,0.3521,-0.801,-0.363,0.6906,-0.1557,-0.744,2023
0,0.5808,-1.019,-0.1086,0.6618,-0.0698,-0.695,2067
0,0.4927,-1.0447,0.0354,0.6637,-0.2313,-0.6786,2046
0,0.2358,-1.0439,-0.0269,0.6935,-0.2533,-0.6553,2029
0,0.1418,-1.0444,-0.1177,0.6717,-0.2256,-0.7144,2016
0,0.1575,-1.0298,-0.1904,0.677,-0.2645,-0.7436,1991
0,0.0066,-0.9143,-0.3362,0.7488,-0.3838,-0.8178,2030
0,0.0637,-0.9082,-0.3386,0.759,-0.5237,-0.9262,2041
0,0.2107,-0.9438,-0.2224,0.6329,-0.3313,-0.9497,2030
0,0.3359,-0.9678,-0.1543,0.6165,-0.2513,-0.9465,2029
0,0.4924,-0.9897,-0.0439,0.5775,-0.0944,-0.9287,2020
0,0.4531,-0.9465,-0.0388,0.5839,-0.0128,-0.897,2011
0,0.3489,-0.9668,-0.084,0.5589,-0.0787,-0.9481,2063
0,0.1995,-1.0308,-0.146,0.569,-0.1732,-0.9673,1998
0,0.0315,-1.0664,-0.2083,0.5276,-0.3013,-1.0917,2019
0,0.0654,-1.0461,-0.2344,0.4785,-0.2856,-1.2134,1991
0,0.1772,-1.0803,-0.1147,0.4562,-0.1852,-1.3378,2041
0,0.3918,-0.9509,-0.1528,0.4863,-0.1522,-1.3476,2045
0,0.5457,-0.8787,-0.1384,0.5071,-0.1481,-1.3858,2062
0,0.4753,-0.8979,-0.1658,0.5036,-0.1068,-1.3474,2045
0,0.4089,-0.8999,-0.2268,0.5292,-0.1494,-1.3693,2033
0,0.5188,-0.9399,-0.2366,0.5279,-0.2693,-1.4049,2033
0,0.2358,-0.9971,-0.2305,0.6078,-0.0631,-1.487,2062
0,0.1243,-0.863,-0.2727,0.6749,0.0001,-1.5566,2047
0,0.3672,-0.761,-0.2246,0.7211,0.0843,-1.6789,2038
1,0.4231,-0.7993,-0.1516,0.7633,0.2215,-1.6836,2046
1,0.4194,-0.7913,-0.1289,0.8211,0.2507,-1.7395,2035
1,0.4341,-0.8044,-0.1184,0.8684,0.3185,-1.8238,2043
1,0.3574,-0.8188,-0.0969,0.918,0.3614,-1.9158,2043
1,0.3738,-0.8613,-0.0427,0.9246,0.3149,-1.9987,2043
1,0.3608,-0.916,-0.0232,0.9778,0.3356,-2.1049,2037
1,0.3689,-0.9609,-0.0149,1.0086,0.31,-2.2033,2042
1,0.4104,-1.1572,-0.0183,1.0132,0.3137,-2.2984,2032
1,0.2385,-1.4409,0.02,1.0254,0.4204,-2.4336,2030
1,-0.0911,-1.9126,0.1111,0.9773,0.6189,-2.6661,2040
1,-0.3577,-2.0,-0.0232,0.8256,0.6933,-3.0265,2012
1,-0.3198,-2.0,-0.0789,0.6051,0.7684,-3.3752,2029
1,-0.1138,-2.0,-0.0889,0.5956,0.8301,-3.6949,2048
1,-0.103,-2.0,-0.093,0.465,1.0918,-3.8475,2078
1,0.4658,-2.0,-0.1445,0.3802,0.9468,-3.9957,2078
1,1.1943,-1.7788,-0.1326,0.1186,0.7363,-3.8656,2036
1,1.0,-1.3613,-0.394,-0.0747,0.6747,-3.5503,2020
1,1.1667,-0.6377,-0.5437,0.1003,0.6721,-3.0059,2023
1,1.2725,0.0637,-0.4246,0.4151,1.2186,-2.0983,1980
1,0.8955,-0.2937,-0.4949,0.4755,1.6163,-1.6106,2036
1,0.8665,-0.8071,-0.5278,0.0372,1.9853,-1.3169,2067
1,1.6003,0.4846,-0.2129,-0.8769,2.4639,-0.2164,2088
1,1.7212,1.9999,-0.0493,-0.6448,1.8069,1.4636,1942
1,1.9999,0.8774,0.5388,-1.4246,-0.5948,1.3007,2080
1,-0.134,0.877,-0.0608,-0.7134,-0.6031,2.0888,1950
1,0.5862,0.3616,0.2046,-0.306,-1.266,2.5679,2189
1,0.2517,0.04,0.1462,-0.8994,-1.3399,3.2427,2117
1,-0.1948,-0.1072,0.2212,-1.0166,-1.6142,3.7639,2034
1,-0.1077,-0.1077,0.1501,-1.3129,-1.9848,4.0487,2025
1,0.4351,0.0989,0.0178,-1.6293,-2.3804,4.3335,2041
1,0.6675,0.1831,-0.031,-1.7375,-2.5001,4.3634,2006
1,0.5598,0.2498,-0.0476,-1.6353,-2.7225,4.3634,2018
1,0.4658,0.2666,0.0254,-1.4261,-3.1328,4.3634,2030
1,0.4124,0.2954,-0.0029,-1.1817,-3.3909,4.3634,2062
1,0.4065,0.2566,-0.1775,-0.9202,-3.5708,4.3634,2027
1,0.4028,0.2856,-0.1931,-0.7957,-3.5593,4.3634,2033
1,0.5107,0.4111,-0.2876,-0.3537,-3.2588,4.3634,2032
1,0.4548,0.3218,-0.3772,-0.0015,-3.2287,4.3634,2051
1,0.3633,0.4326,-0.6501,0.0116,-2.4663,4.3634,2043
1,0.6528,-0.2122,-0.7004,-0.1201,-2.653,4.3634,2047
1,0.9111,-0.696,-0.6135,-0.2615,-2.0849,4.3634,2081
1,0.7822,-0.9253,-0.4729,-0.2911,-1.2378,4.3634,2071
1,0.6736,-0.9746,-0.4231,-0.2043,-0.4951,4.3634,2069
1,0.5784,-1.0203,-0.5422,-0.1546,0.4627,4.3634,2050
1,0.4976,-1.0754,-0.5149,0.0134,1.3865,4.3634,2019
1,0.626,-1.2471,-0.4949,0.4597,2.0069,4.3471,2034
1,0.3899,-1.5818,-0.3586,0.3155,2.1335,3.8467,2045
1,-0.0771,-1.7322,-0.176,0.3189,2.0667,3.3991,2017
1,-0.0847,-1.8652,-0.1873,0.7393,2.3558,2.9919,1980
1,-0.0549,-1.571,-0.2373,0.7561,2.7813,2.6018,2148
1,0.3936,-1.719,0.0276,0.6308,3.1799,2.1644,2209
1,0.2061,-1.5144,0.1111,0.7345,2.4441,1.8805,2042
1,0.3423,-1.6667,0.1973,0.2418,1.2712,1.5731,2081
1,-0.4229,-1.0183,0.5161,1.2856,1.4065,1.1865,1952
1,0.1553,-1.4224,0.4526,0.7681,1.0355,0.5079,2171
1,0.1633,-1.3113,0.4873,0.7027,0.4493,0.2045,1970
1,0.085,-1.1211,0.4136,0.7042,-0.1551,-0.2449,1856
1,-0.1621,-1.0715,0.3447,0.722,-0.7522,-0.6312,2061
1,-0.3545,-0.928,0.3188,0.8586,-1.1239,-0.9171,2027
1,0.6348,-2.0,0.9121,-0.1441,-3.0289,-2.1358,2062
1,1.9999,-2.0,-0.2131,-4.3635,-4.3635,-4.3635,2873
1,-2.0,0.7495,-1.0334,-0.9561,-4.3635,-0.3316,1489
1,-2.0,-2.0,0.6582,4.1234,0.5924,1.2853,1271
1,-2.0,-2.0,-0.3245,-2.1198,-0.6189,-3.0475,2418
1,0.7139,-1.3105,-0.0471,-1.9611,-0.3879,-2.8173,2415
1,0.8008,-1.9863,-0.3923,-1.6378,-0.3863,-3.219,1868
1,-2.0,-0.6492,0.7686,-1.6454,-1.7596,-3.223,1817
1,-1.3965,-0.6143,-0.0752,-0.8634,-2.2627,-4.3635,2163
1,0.1482,0.4204,-0.7546,-0.8139,-0.9115,-4.3635,2139
1,0.8892,-0.8799,-1.1907,-0.7673,-0.8315,-4.3635,2029
1,1.9999,0.1348,-0.6687,-1.3474,-0.4713,-3.544,2063
1,0.5713,-0.4141,-0.3054,-1.6147,1.3018,-2.088,1974
1,1.9999,-0.563,-0.2561,-0.6341,0.8573,-2.9918,2042
1,1.5356,-1.1379,-0.0715,-0.3405,0.2854,-1.8719,2121
1,1.1943,-1.0703,-0.2817,0.2145,-1.1224,-1.9662,1969
1,-0.019,-0.9597,-0.3877,0.0088,-0.7734,-1.744,1923
1,0.2317,-0.8669,-0.6125,0.3627,-0.2539,-1.7833,2153
1,0.5095,-0.9072,-0.658,0.4224,0.801,-1.6538,2115
1,0.645,-0.7583,-0.637,0.5767,0.6508,-1.5111,2063
1,0.3787,-0.7727,-0.5203,0.6011,0.7585,-1.4066,2060
1,0.3735,-0.7429,-0.4158,0.7046,1.0179,-1.3127,2040
1,0.459,-0.7253,-0.3608,0.7384,1.0929,-1.1696,2030
1,0.4004,-0.802,-0.1833,0.9107,1.1836,-1.0933,2015
1,0.8394,-0.9946,-0.2019,0.9107,0.5739,-1.3351,2045
1,0.3955,-0.9541,-0.2971,0.7889,0.4012,-1.2053,2054
1,0.2585,-1.0125,-0.2908,0.8503,0.3059,-1.2511,2047
1,0.1772,-0.9768,-0.3655,0.8148,0.4537,-1.2897,2028
1,0.189,-1.0256,-0.3547,0.7653,0.5219,-1.3183,2029
1,0.012,-0.9492,-0.374,0.6453,0.6449,-1.3857,1999
1,0.0151,-0.8928,-0.3433,0.5627,0.6718,-1.4909,2032
1,0.1858,-1.0483,-0.1943,0.4767,0.7329,-1.5419,2052
1,0.1687,-1.0688,-0.1055,0.4132,0.8059,-1.5933,2046
1,0.1306,-1.1062,-0.1077,0.2976,0.8252,-1.6343,2047
1,0.1121,-1.0996,-0.1968,0.1872,0.9017,-1.6913,2046
1,0.0627,-1.0964,-0.2893,0.0623,1.1114,-1.7728,2039
1,0.0388,-1.1211,-0.2742,0.0079,1.5332,-1.8105,2033
1,-0.1929,-1.0715,-0.3271,-0.0553,2.0379,-1.821,2031
1,-0.0522,-0.9053,-0.4399,-0.2149,2.3043,-1.9205,2052
1,0.084,-1.0122,-0.3022,-0.2,2.6241,-1.9739,2052
1,-0.1262,-1.126,-0.249,-0.2057,2.9664,-1.9743,2024
1,-0.1309,-1.2686,-0.2463,-0.3002,3.2632,-2.0923,2050
1,-0.2295,-1.5017,-0.2815,-0.3524,3.587,-2.1563,2046
1,-0.2458,-1.7034,-0.2959,-0.5236,3.7267,-2.3109,2042
2,-0.0059,-1.4277,-0.2861,-0.4111,3.8587,-2.2337,2061
2,0.2632,-1.3232,-0.2761,-0.3639,3.6973,-2.0473,2065
2,0.4854,-1.1497,-0.3423,-0.3208,3.3392,-1.5475,2036
2,0.6536,-0.6753,-0.4675,-0.1447,3.2276,-1.029,2040
2,0.2385,-0.2976,-0.5669,0.56,3.3918,-0.8147,2020
2,0.4951,0.126,0.051,1.9349,3.7514,0.196,1970
2,0.0903,0.0044,-0.0994,1.5502,3.8133,0.5794,2023
2,1.1035,1.7656,0.9646,4.3634,4.2564,1.1591,1842
2,1.9999,-1.4307,0.1528,-0.7329,2.689,1.0613,2319
2,1.9999,0.1423,0.6067,0.7287,-2.2846,0.6951,1917
2,1.9999,-1.311,1.5564,-1.4238,-3.2331,1.6977,2099
2,0.4609,-1.0923,1.5042,-2.9592,-4.3635,2.0883,1996
2,0.0325,-0.429,0.6521,-3.7563,-4.3635,2.6685,2042
2,-1.0603,-0.6245,-0.2256,-3.4921,-4.3635,3.0018,2067
2,-0.7649,-0.1946,-0.5002,-2.8281,-2.5625,3.1324,2039
2,-0.3083,-0.3306,-0.4204,-2.7679,-2.3376,3.318,1812
2,0.0237,-0.3806,-0.7075,-3.486,-3.6573,3.2681,2011
2,0.2708,-0.1958,-0.9438,-3.1046,-4.3635,3.5314,2126
2,0.5354,-0.0369,-0.8694,-2.4318,-4.3635,3.9752,2062
2,0.3416,0.0754,-0.7842,-2.0427,-3.3383,4.3634,2051
2,-0.054,0.2642,-0.7356,-1.6099,-2.3625,4.3634,2105
2,-0.2151,0.3801,-0.6479,-1.2398,-1.7484,4.3634,1985
2,0.0376,0.2664,-0.8093,-0.8333,-1.2959,4.3634,2072
2,0.2268,0.0007,-0.8081,-0.9367,-0.7866,4.3634,2023
2,0.28,-0.3477,-0.9185,-1.0584,0.1478,4.3634,2243
2,0.3406,-0.8459,-0.7922,-1.0785,1.2351,4.3634,2026
2,0.5676,-1.5403,-0.5669,-1.0557,2.0531,4.3634,1993
2,0.0869,-1.0281,-0.6814,-0.3803,3.428,4.3634,1980
2,-0.019,-0.72,-0.6069,0.2786,4.2415,4.3634,1886
2,-0.2622,-1.4231,-0.6106,0.5312,4.3634,4.3634,2143
2,-0.3049,-2.0,-0.4749,0.5484,4.3634,4.3634,1905
2,-0.637,-1.9817,-0.5337,0.8341,4.3634,4.3634,2097
2,-1.0315,-1.7378,-0.5107,1.0781,4.3634,4.2434,1954
2,-1.1023,-1.594,-0.2427,1.0769,4.3634,3.411,1817
2,-0.8169,-1.3611,0.1704,1.625,4.3634,2.6914,2263
2,-0.2751,-1.0828,0.3296,2.3726,4.3634,1.8988,2262
2,0.551,-1.1655,0.6943,2.431,4.3634,1.2572,1911
2,1.0127,-2.0,1.9999,-1.1215,-1.652,-2.8148,2076
2,1.9999,-1.3206,0.7908,-4.3635,-4.3635,-4.3635,1420
2,-2.0,0.061,-0.5728,-1.9919,-4.3635,0.6175,2412
2,0.9021,-0.8901,0.8049,-2.9062,-4.3635,-4.1142,1881
2,-2.0,-2.0,0.0151,-4.3635,2.0887,-4.3635,2258
2,-2.0,-2.0,1.9999,2.2451,-1.276,-1.2857,1991
2,-1.1714,-2.0,-1.8823,0.5795,-0.2715,-4.3635,2147
2,1.6262,0.2534,-2.0,-1.6109,1.4757,-3.3336,1962
2,-2.0,-2.0,1.9999,-0.2378,1.3224,-1.5312,2124
2,-1.2234,-2.0,1.0269,0.3071,-3.4129,-4.3635,2140
2,1.9999,0.2227,-0.4214,-0.0015,0.3537,-4.3635,2108
2,-0.1631,-0.7583,-1.0884,-0.3119,1.746,-0.9586,2008
2,-1.468,-0.4512,-1.3682,-0.231,0.6165,-2.5073,1932
2,1.9999,-0.4844,-0.6216,0.173,0.234,-2.7679,2120
2,1.9999,-0.8206,-0.4946,0.4241,0.4553,-1.712,2058
2,1.3606,-0.9683,-0.6284,0.505,0.3115,-1.1011,1986
2,1.3708,-0.5608,-1.0369,0.7721,1.0752,-0.545,2017
2,0.7649,-0.8938,-0.9663,0.5918,1.3565,-0.2967,2047
2,0.4905,-1.03,-0.7266,0.5537,1.1645,-0.1671,2028
2,0.5608,-1.0935,-0.3909,0.4998,0.8071,-0.0587,2038
2,0.3469,-1.092,-0.207,0.3846,0.4031,-0.0674,2031
2,-0.6016,-1.0732,-0.4407,-0.1357,1.2629,-0.1521,2058
2,-2.0,0.0159,-0.1648,-1.4145,-2.0869,-0.9846,1977
2,1.427,-0.9631,-0.843,-0.6749,-2.8272,-1.7584,1679
2,1.5938,-0.7961,0.0869,-0.025,2.1069,-0.7174,1844
2,1.0972,-0.9639,-0.321,0.8468,4.0407,-0.5321,1652
2,1.9999,-1.8599,-0.0393,1.9667,2.9719,0.0719,1875
2,1.9999,-1.9946,-1.4688,2.218,1.6291,1.5791,2870
2,1.9999,-2.0,-1.5442,2.7364,0.3622,3.9823,4043
2,0.8733,0.6138,-0.4575,0.2808,0.9491,2.5172,1586
2,-2.0,0.4346,-0.9131,-2.3155,-1.3772,1.9238,1794
2,-2.0,-0.4343,-1.5081,-1.3691,-1.5181,1.182,1369
2,-1.1638,-0.6562,-1.166,0.0306,-2.0624,0.1895,1820
2,0.9626,-1.1453,-0.5076,0.1554,0.0248,0.498,2047
2,0.6475,-0.8389,-0.2156,0.2049,0.4458,0.5181,2000
2,0.1357,-1.0334,-0.1548,0.0529,0.2132,0.6411,2002
2,-0.4055,-1.0239,-0.2876,0.1092,-0.2136,0.4698,2066
2,-0.1892,-1.033,-0.0989,0.2682,-0.367,0.2864,2089
2,0.2068,-1.0637,-0.1428,0.2745,-0.4207,0.2505,2140
2,0.2056,-0.9961,-0.4421,0.2752,-0.3131,0.2713,2189
2,-0.1299,-0.9143,-0.5608,0.1995,-0.2934,0.231,2037
2,-0.1377,-0.886,-0.5059,0.223,-0.259,0.1336,1956
2,0.1047,-0.948,-0.4639,0.2531,-0.1715,0.0866,2070
2,0.1975,-0.9158,-0.4026,0.2787,-0.2116,0.1064,1963
2,0.1152,-0.9788,-0.2571,0.226,-0.2755,0.0699,2013
2,0.0684,-1.0586,-0.2991,0.2197,-0.1792,0.0324,1965
2,0.1682,-1.001,-0.3267,0.2432,-0.3011,0.0458,2037
2,0.2053,-0.9692,-0.3843,0.2072,-0.2996,0.0621,2067
2,0.1152,-0.9885,-0.4358,0.1756,-0.2513,0.0463,1890
2,0.053,-1.002,-0.384,0.1882,-0.2526,0.0242,2154
2,0.1492,-0.9678,-0.4297,0.1911,-0.1995,0.0381,2078
2,0.0286,-0.9746,-0.3901,0.1491,-0.1221,0.0154,2089
2,0.0288,-1.0159,-0.3455,0.1382,-0.0354,0.0141,2057
2,0.0017,-0.9946,-0.3323,0.1606,-0.0048,-0.0241,2064
2,0.0237,-0.9675,-0.3386,0.1561,-0.0262,-0.089,2007
2,-0.1445,-1.054,-0.3284,0.1252,0.0786,-0.1703,2139
2,-0.1621,-1.0977,-0.3406,0.1161,0.0446,-0.2775,2027
2,-0.1851,-1.0166,-0.344,0.1442,0.0799,-0.3543,1997
2,-0.1851,-0.9788,-0.3745,0.0794,0.0304,-0.4978,2011
2,-0.1982,-1.0173,-0.3535,0.0333,0.0953,-0.613,2045
2,-0.332,-1.0332,-0.3662,-0.0031,0.1409,-0.7734,2009
2,-0.27,-1.0269,-0.3459,-0.0292,0.1866,-0.9219,2115
2,-0.3176,-1.031,-0.2952,-0.0796,0.2559,-1.0862,1970
2,-0.3884,-1.0298,-0.2432,-0.1242,0.3249,-1.2696,2118
2,-0.4092,-1.0723,-0.2271,-0.1823,0.3759,-1.4692,2061
2,-0.4292,-1.1614,-0.2383,-0.2531,0.3814,-1.6463,2043
2,-0.3848,-1.2183,-0.2539,-0.2606,0.4819,-1.76,2030
3,-0.446,-1.2605,-0.197,-0.2487,0.4907,-1.943,2034
3,-0.3213,-1.4126,-0.1709,-0.3603,0.5067,-2.0616,2023
3,-0.2981,-1.3259,-0.092,-0.4729,0.4766,-2.2969,2055
3,-0.2939,-1.3005,-0.074,-0.5984,0.5287,-2.4322,2081
3,-0.322,-1.373,-0.0244,-0.7048,0.5964,-2.5562,2014
3,-0.3213,-1.4475,-0.0164,-0.8112,0.7155,-2.6281,2015
3,-0.3215,-1.5527,0.0469,-0.8918,0.836,-2.7231,2018
3,-0.3579,-1.5171,0.0542,-0.8909,0.9445,-2.8137,2040
3,-0.4626,-1.5686,0.2266,-0.8861,1.0067,-2.9996,2032
3,-0.6287,-1.5217,0.3594,-1.1777,1.2623,-3.1424,2074
3,-0.7087,-1.563,0.1636,-1.746,2.2381,-3.5107,2137
3,0.1455,-1.5369,-0.3982,-1.8652,3.205,-3.5697,2002
3,0.9626,-1.6897,-0.3643,-1.1784,2.4852,-3.4792,1947
3,0.1418,-1.8723,-0.4492,-1.1881,2.8847,-3.4601,2011
3,0.0027,-1.6494,-0.4143,-0.5794,3.3623,-3.4455,2026
3,0.0608,-1.3789,-0.3333,-0.0808,3.9498,-3.2436,2094
3,-0.354,-1.387,-0.1768,-0.0081,4.3634,-2.7847,2053
3,-0.7708,0.1411,-0.5986,1.5523,4.3634,-1.8606,2135
3,1.9999,0.2722,-0.4148,1.5607,3.1585,-2.4316,2013
3,1.9999,-0.439,-0.5176,-2.39,1.0192,-1.9048,2196
3,1.7568,-1.2803,0.4993,-2.4301,3.2302,-0.6978,1859
3,0.9475,-0.1008,1.1482,-2.0611,3.7479,0.0671,1902
3,1.2734,-0.1216,0.936,-2.7227,3.6668,1.0371,2063
3,0.9812,0.1597,0.4236,-2.7801,4.3634,2.116,2003
3,1.2646,0.1648,-0.0439,-2.3523,4.0729,1.9658,2084
3,0.4062,-0.1482,-0.3271,-1.8041,4.3634,2.5211,2006
3,0.2029,-0.092,-0.2302,-1.4812,3.843,2.5089,2154
3,0.4937,-0.2207,-0.1128,-1.6917,2.5687,2.6048,2032
3,0.7146,-0.2654,0.2317,-1.8426,1.0717,2.826,2009
3,0.8464,-0.344,0.4524,-1.862,-0.0389,3.064,2004
3,0.9653,-0.3386,0.5237,-1.8234,-0.5759,3.3915,2023
3,0.9888,-0.3621,0.3938,-1.7369,-0.5755,3.7938,2055
3,0.8032,-0.3933,0.1951,-1.6596,-0.4593,4.1666,2043
3,0.7522,-0.4082,0.0991,-1.6808,-0.3567,4.3634,2068
3,0.6594,-0.4021,0.0847,-1.6853,-0.104,4.3634,2061
3,0.3833,-0.4465,-0.0591,-1.6294,0.0264,4.3634,2050
3,0.1865,-0.3452,-0.2859,-1.382,0.3591,4.3634,2026
3,0.1865,-0.426,-0.4033,-1.2256,0.6195,4.3634,2042
3,0.105,-0.376,-0.6057,-1.1555,0.9582,4.3634,2035
3,0.0684,-0.4534,-0.72,-1.0772,1.182,4.3634,2025
3,0.0779,-0.4863,-0.8193,-0.9761,1.4053,4.3634,2025
3,0.1428,-0.5554,-0.8542,-0.7708,1.711,4.3634,2033
3,0.1997,-0.6624,-0.8552,-0.5275,2.167,4.3634,2042
3,0.3035,-0.7239,-0.7314,-0.2822,2.6765,4.3634,2037
3,0.2529,-0.8328,-0.6841,-0.3781,3.2641,4.3634,2032
3,0.1655,-0.9287,-0.7686,-0.208,3.5885,4.3634,2039
3,-0.0354,-1.1677,-1.042,0.2392,3.7878,4.3634,2048
3,-0.467,-2.0,-0.1692,-0.0233,4.3634,4.3634,2031
3,-2.0,-2.0,-1.637,-3.2404,4.3634,3.9624,2333
3,1.9999,-0.1069,-0.1011,0.6522,2.9257,2.8129,2136
3,1.6765,-1.8337,0.5159,-0.4786,4.3634,3.1259,1917
3,-0.4731,-1.397,0.436,-0.2261,4.3634,2.1226,1872
3,-0.2649,-1.1714,0.1035,-0.0293,4.3237,1.2463,2081
3,0.5271,-0.9426,0.322,0.0372,3.3563,0.3248,2125
3,0.8457,-0.7842,0.6143,0.3317,3.5601,-0.2332,2048
3,0.3633,-0.5515,0.5837,0.6573,2.8228,-0.9349,1927
3,0.1482,-0.6492,0.5686,0.789,2.0363,-1.213,1962
3,0.0229,-1.9861,1.3748,1.7319,0.9846,-1.3089,2096
3,-0.1177,-1.2979,0.9924,1.3378,-1.2894,-0.9497,1999
3,-0.2371,-1.9658,-0.0171,-0.9951,-4.0763,-1.0754,2043
3,-1.7817,-2.0,-1.4077,-1.4675,-4.3635,-2.9847,2046
3,0.5139,-2.0,-1.2161,-1.2371,-1.1094,-3.6953,2400
3,1.7261,-0.4932,1.0933,1.3571,1.8965,-2.6599,2097
3,1.468,-0.2583,0.9495,0.2334,-0.7441,-1.8486,1867
3,-0.0371,-0.7603,-0.0698,-1.1271,-2.1474,-1.7591,1892
3,0.8013,-0.8926,-0.5793,-0.4257,-0.5409,-1.5145,2039
3,0.5417,-1.0991,-0.6963,0.0887,1.4877,-0.6219,2014
3,-0.0491,-1.1025,-0.3259,-0.3147,1.3909,-0.3653,2018
3,-0.0105,-1.0078,-0.0833,-0.4401,0.2621,-0.6656,2045
3,0.7988,-1.0034,-0.2163,-0.1021,-0.2153,-0.793,2086
3,0.5398,-1.1006,-0.1345,-0.0679,-0.0651,-0.6437,2038
3,0.2163,-1.0603,-0.1316,-0.0706,-0.4822,-0.6817,2009
3,0.5491,-0.9482,-0.5688,0.0439,-0.2449,-0.548,2045
3,0.3682,-0.9395,-0.6685,0.1876,0.4303,-0.3067,2060
3,0.043,-0.926,-0.6768,0.2567,0.4332,-0.2542,2032
3,0.0579,-0.8538,-0.748,0.1858,0.2606,-0.296,2028
3,0.1521,-0.8979,-0.696,0.1385,0.3541,-0.2814,2055
3,0.1475,-0.9417,-0.5413,0.0896,0.3669,-0.2992,2058
3,0.229,-0.9683,-0.3899,0.0702,0.2189,-0.2866,2047
3,0.3308,-0.9731,-0.2668,0.0904,0.1337,-0.2181,2054
3,0.312,-1.0015,-0.2009,0.0806,0.1132,-0.1365,2038
3,0.3044,-0.9893,-0.2185,0.076,0.1529,-0.0518,2039
3,0.2893,-0.9749,-0.3057,0.0834,0.2187,0.0206,2033
3,0.2053,-0.9675,-0.4087,0.1128,0.2549,0.0678,2035
3,0.1069,-0.9409,-0.4893,0.1364,0.2433,0.0835,2026
3,0.1116,-0.8975,-0.5439,0.1362,0.2167,0.0736,2042
3,0.0542,-0.9199,-0.5354,0.1277,0.2344,0.053,2035
3,0.0303,-0.9646,-0.5129,0.1369,0.1908,-0.0073,2020
3,0.0112,-0.9504,-0.415,0.1771,0.1625,-0.0103,2036
3,0.126,-0.9778,-0.4109,0.1743,0.1346,-0.1,2021
3,0.032,-0.9546,-0.374,0.126,-0.0004,-0.102,2076
3,-0.0408,-0.9985,-0.3706,0.0696,-0.3132,-0.1794,2041
3,0.0198,-0.9585,-0.4062,0.1284,-0.1629,-0.2076,2008
3,-0.0281,-1.002,-0.394,0.1209,-0.094,-0.2542,2057
3,-0.0208,-0.991,-0.3955,0.1164,-0.1586,-0.3452,1967
3,0.0708,-0.9912,-0.4167,0.1132,-0.1149,-0.3559,2054
3,-0.114,-0.9446,-0.3762,0.1378,-0.1899,-0.4364,1990
3,0.2268,-0.9617,-0.3484,0.1545,-0.1349,-0.4663,2026
3,0.231,-0.9685,-0.3274,0.1057,-0.1168,-0.435,2050
3,0.0903,-0.9714,-0.3359,0.1228,-0.1695,-0.4428,2044
3,0.0181,-0.97,-0.3896,0.1445,-0.2104,-0.4706,2130
3,0.0881,-0.9492,-0.4053,0.0635,-0.136,-0.5032,2133
3,0.1206,-0.9771,-0.3699,0.1376,-0.1349,-0.5144,2120
4,0.0347,-0.958,-0.3862,0.1342,-0.1478,-0.5477,2080
4,-0.0369,-0.9277,-0.3794,0.1694,-0.1221,-0.6122,2043
4,-0.1399,-1.0193,-0.2979,0.1186,-0.049,-0.7163,2042
4,-0.0588,-0.9663,-0.3062,0.137,-0.0036,-0.7963,1974
4,-0.0654,-0.9856,-0.2937,0.1023,0.0226,-0.8939,1924
4,-0.0581,-1.0042,-0.2854,0.0866,0.0085,-0.9752,2010
4,-0.0432,-1.0176,-0.3228,0.1099,0.0499,-1.0334,2090
4,-0.0134,-0.9985,-0.3459,0.0835,0.0996,-1.0732,2010
4,0.0625,-1.0227,-0.3792,0.0818,0.2179,-1.0886,2075
4,0.0242,-1.0278,-0.3682,0.0959,0.3305,-1.0966,2029
4,-0.155,-0.9353,-0.3496,0.2004,0.6586,-1.0437,2235
4,0.3025,-1.2434,-0.2856,0.0879,0.4256,-1.1857,2157
4,0.4138,-1.2197,-0.2812,-0.0265,0.3577,-1.1698,2034
4,0.1301,-1.1907,-0.3315,-0.0935,0.3446,-1.1282,2048
4,-0.0176,-1.0464,-0.3779,-0.1194,0.3641,-1.1821,2025
4,-0.0798,-1.0908,-0.3694,-0.1494,0.5348,-1.2681,2040
4,-0.1353,-1.175,-0.2852,-0.177,0.62,-1.3768,2031
4,-0.1313,-1.2385,-0.2688,-0.2139,0.6327,-1.4868,2028
4,-0.3999,-1.3667,-0.2334,-0.3313,0.8206,-1.7006,2058
4,-0.3728,-1.594,-0.0669,-0.3785,1.0092,-1.8728,2041
4,-0.5234,-1.6694,-0.1602,-0.4583,1.0021,-2.1523,2034
4,-0.606,-1.9172,0.0706,-0.6281,0.9887,-2.4005,2040
4,-0.7261,-2.0,0.2266,-0.9479,1.0632,-2.6444,2050
4,-0.8145,-1.9512,0.4048,-1.3213,1.3937,-2.8408,2074
4,-0.686,-1.7761,0.448,-1.6855,1.805,-2.9236,2102
4,-0.5686,-1.54,0.0505,-1.9361,2.595,-2.9305,2070
4,-0.0417,-1.4158,-0.4382,-1.6333,3.486,-3.0672,2080
4,0.1685,-1.4895,-0.5056,-1.343,4.1602,-2.9086,1957
4,0.4863,-1.7527,-0.4338,-1.2663,3.8696,-2.9383,1982
4,0.5845,-1.7629,-0.394,-1.1531,4.0964,-3.0038,2020
4,0.833,-1.627,-0.0913,-0.8849,4.3634,-2.7994,2032
4,0.0303,-1.0046,-0.0168,-0.8369,4.3634,-2.2779,1958
4,-0.9241,0.4241,-0.3171,0.538,4.3634,-1.4503,2037
4,1.5273,0.5327,-0.0935,1.0489,4.3634,-2.0148,2106
4,1.9999,-0.5276,-0.335,-2.5115,3.5761,-2.0738,2146
4,1.8044,-0.6133,0.2473,-3.2931,4.3634,-0.9447,1950
4,0.9351,-0.2336,0.8787,-2.5808,4.3634,-0.0951,2026
4,0.854,0.0188,0.759,-2.5743,4.3321,0.2983,2083
4,1.2078,-0.0422,0.564,-2.3213,3.7651,0.8925,2013
4,0.7302,-0.0576,0.2639,-2.1529,3.9353,1.3513,2020
4,0.6418,-0.0505,-0.1213,-2.0086,3.8142,1.4797,2056
4,0.571,-0.1399,-0.29,-1.8319,3.2472,1.6571,2062
4,0.6523,-0.2432,-0.123,-1.6841,1.9727,1.8073,2046
4,0.7815,-0.2983,0.2756,-1.7395,0.6458,2.035,2029
4,0.9055,-0.3267,0.533,-1.7269,-0.2782,2.3037,2008
4,0.9617,-0.3044,0.5415,-1.7383,-0.6497,2.6733,2038
4,0.8916,-0.2722,0.4395,-1.7571,-0.6373,3.0618,2041
4,0.7446,-0.2417,0.291,-1.8518,-0.5449,3.3806,2057
4,0.6074,-0.1843,0.1738,-1.8687,-0.4995,3.6374,2057
4,0.4517,-0.1313,0.0342,-1.7763,-0.4602,3.8227,2043
4,0.4053,-0.1428,0.0281,-1.7141,-0.4908,4.0266,2036
4,0.3262,-0.1196,-0.0669,-1.6567,-0.5365,4.2085,2031
4,0.3284,-0.0811,-0.2351,-1.5408,-0.6761,4.272,2032
4,0.4954,-0.144,-0.2441,-1.2115,-0.6683,4.3634,2028
4,0.4084,-0.0925,-0.2517,-1.0568,-0.8353,4.3634,2054
4,0.3459,-0.1699,-0.4314,-0.8981,-1.0295,4.3634,2063
4,0.4036,-0.1819,-0.4578,-0.5071,-1.1921,4.3634,2019
4,0.4636,-0.2634,-0.5042,-0.0557,-1.2553,4.3634,2017
4,0.5981,-0.3616,-0.5374,0.2281,-0.7568,4.3634,2033
4,0.4585,-0.6455,-0.3777,0.2713,-0.2902,4.3634,2028
4,0.4001,-0.9919,-0.3464,0.3638,0.0376,4.3634,2016
4,0.3013,-1.2837,-0.3608,0.416,0.5942,4.3634,2126
4,-0.0205,-1.3616,-0.2988,0.4637,1.0802,4.3634,2047
4,-0.063,-1.1082,-0.2661,0.6922,1.415,4.3634,1990
4,-0.061,-1.3254,-0.1355,0.7863,1.7215,3.4222,2051
4,0.2498,-1.3184,-0.2139,0.8147,1.9887,3.1445,2011
4,-0.0518,-1.325,-0.0557,0.9195,2.1429,2.5856,2032
4,-0.2925,-1.1089,-0.1138,1.0709,2.4767,2.137,1995
4,0.0632,-0.9202,0.093,1.0567,2.4346,1.3741,1967
4,0.4084,-1.0471,0.1819,0.9079,2.3874,1.2091,2043
4,0.28,-0.9614,0.1843,0.8885,2.1692,0.8829,2121
4,0.2607,-0.9434,0.2463,0.7243,2.1371,0.4765,2030
4,0.1555,-0.9744,0.2725,0.5992,1.8719,0.2452,2070
4,0.271,-0.8337,0.1831,0.5841,1.3785,0.0433,2010
4,0.3303,-0.8345,0.1448,0.6538,0.9858,-0.1378,2044
4,0.3254,-0.9319,0.1509,0.6681,0.6883,-0.3398,2034
4,0.3337,-0.8889,0.0593,0.6709,0.3381,-0.4263,2068
4,0.248,-0.7971,0.0188,0.6217,-0.0193,-0.4911,2072
4,0.1313,-0.8125,-0.0269,0.5209,-0.4307,-0.6014,1907
4,0.0913,-0.7754,-0.0154,0.4709,-0.7135,-0.5924,2069
4,0.0857,-0.8745,-0.0496,0.4623,-0.9094,-0.5402,1988
4,0.021,-0.8281,-0.0842,0.6347,-0.8111,-0.4533,2009
4,0.0349,-0.8701,-0.0725,0.8885,-0.9955,-0.5032,2006
4,-0.0146,-0.9575,0.0881,0.8481,-1.0557,-0.4409,1964
4,-0.1057,-0.9114,0.1807,0.927,-1.2521,-0.5071,2048
4,0.0261,-0.8867,0.1973,0.7851,-1.474,-0.7331,1730
4,1.9999,-2.0,0.7693,-4.3635,-4.3635,-4.3635,2347
4,-0.5557,0.3462,-0.6345,-4.3635,-4.3635,-2.3948,1857
4,-2.0,-2.0,0.4573,1.0413,-2.8092,-2.3131,1889
4,-2.0,-2.0,-0.6514,-3.3026,0.3501,-4.3635,2197
4,-2.0,-0.2764,-0.3086,-3.4689,-0.5055,-2.2117,1981
4,1.9999,1.9999,-2.0,-2.5079,0.4083,-4.3635,2417
4,-0.2527,-2.0,0.0156,-2.4776,-2.3246,-0.75,1832
4,-2.0,-2.0,-0.5359,-1.449,-1.0853,-1.2219,1722
4,-1.1824,-2.0,0.4541,-0.571,0.1808,-3.8709,1794
4,1.7429,0.4551,-0.0693,-0.6698,-0.0579,-3.0317,2385
4,0.1709,-0.6553,-0.4304,-0.3104,-0.7931,-3.33,2062
4,1.542,-0.6675,-1.1084,-0.3282,0.4091,-3.0115,2071
4,0.708,-0.3213,-0.9526,-0.2814,0.9507,-2.4107,2045
4,0.8518,-0.4976,-0.7004,-0.1686,1.1593,-2.1682,2124
5,1.3005,-0.8008,-0.6079,-0.0258,0.7686,-1.9702,2067
5,1.0503,-1.0671,-0.3809,0.0774,0.1977,-1.6351,2083
5,0.8086,-1.2397,-0.3767,-0.1441,-0.6092,-1.549,2047
5,0.0361,-1.1328,-0.4614,0.1393,0.0662,-1.4191,2068
5,0.082,-0.8008,-0.6077,0.42,0.5036,-1.2394,1956
5,0.429,-0.9541,-0.4785,0.3739,0.4141,-1.3986,1973
5,0.7373,-0.6211,-0.6467,0.5078,0.5643,-1.1323,2015
5,0.1716,-0.958,-0.2917,0.4769,0.2828,-1.3616,2038
5,0.3677,-1.2983,-0.0684,0.7907,0.9051,-0.9198,2032
5,0.8997,-0.9316,-0.458,-0.1101,0.1551,-1.3122,1996
5,0.29,-0.7302,-0.2158,0.6874,-0.1561,-1.0427,2081
5,-0.0884,-1.0425,-0.4497,0.1502,-0.0497,-1.1146,2017
5,0.7505,-0.8958,-0.3928,0.3213,0.1497,-1.2914,2014
5,0.3042,-0.9082,-0.2073,0.292,0.1294,-1.1099,2097
5,0.3127,-0.9832,-0.2922,0.248,0.4669,-1.1674,2053
5,0.145,-0.8677,-0.219,0.1867,0.5441,-1.1544,2029
5,0.2439,-0.9573,-0.1125,0.1249,0.6576,-1.2023,2035
5,0.2876,-0.9812,-0.0784,0.0844,0.6281,-1.3119,2044
5,0.3748,-0.9517,-0.1013,0.1289,0.5807,-1.4474,2045
5,0.3887,-1.0356,-0.0295,0.0911,0.661,-1.4941,2042
5,0.282,-1.1355,-0.2639,-0.1679,0.5815,-1.4596,2022
5,0.1318,-1.085,-0.4219,-0.1985,1.0591,-1.5206,2007
5,0.0266,-1.0269,-0.5789,-0.3498,1.2856,-1.6259,2000
5,-0.0229,-0.9343,-0.5974,-0.4416,1.6693,-1.6338,2048
5,0.1775,-1.0342,-0.3652,-0.3781,1.9125,-1.7202,2040
5,0.1926,-1.1106,-0.2454,-0.4093,1.9134,-1.8046,2057
5,0.3462,-1.1411,-0.2744,-0.4998,1.7596,-1.9947,2045
5,0.3567,-1.2603,0.021,-0.3715,1.7463,-2.0591,2049
5,0.2373,-1.3379,0.0505,-0.428,1.6765,-2.2138,2048
5,0.2715,-1.5034,0.1187,-0.475,1.5478,-2.4076,2021
5,0.0974,-1.7512,0.0664,-0.5569,1.3789,-2.6069,2033
5,0.0962,-2.0,-0.0066,-0.7453,1.1077,-2.8532,2018
5,0.1853,-2.0,-0.0339,-0.7186,0.9316,-2.9829,2056
5,0.2834,-1.8191,-0.1162,-0.6782,0.7352,-2.9469,2054
5,0.4382,-1.543,-0.2317,-0.7857,0.4239,-2.8155,2036
5,0.5637,-1.3369,-0.425,-0.9392,0.1198,-2.4964,2065
5,0.365,-0.9922,-0.6814,-0.9877,0.1051,-1.8675,2130
5,0.5227,-0.6694,-1.0178,-1.43,0.1156,-1.164,1986
5,0.5806,0.1228,-1.385,-1.4659,0.8303,-0.3221,2022
5,0.4397,0.4207,-1.3174,-0.3931,2.7534,0.257,2015
5,-0.3037,1.311,-0.7441,2.0802,4.3634,0.9584,1984
5,-0.304,1.0493,-0.2703,3.4913,4.3634,0.1614,2068
5,1.9999,1.1963,-0.1868,2.9656,4.3634,0.2111,2093
5,1.9999,0.7488,0.5117,4.3634,4.0399,1.4137,1959
5,1.9999,-1.5718,1.4424,-0.4994,1.5371,2.0078,2191
5,1.3135,-0.0803,0.8203,-1.7468,-1.2198,2.8257,1963
5,1.467,-0.238,0.7253,-2.8695,-3.3123,3.6077,2033
5,-0.0005,0.6228,-0.0754,-1.9564,-2.665,4.3634,2020
5,-0.512,0.2332,-0.2349,-0.8391,-2.5679,4.3459,2050
5,-1.2285,-0.1357,-0.3179,-0.7179,-0.6396,4.3541,2034
5,-0.7959,-0.1621,-0.3062,-0.4332,-0.4253,4.2037,2078
5,0.2434,-0.2476,-0.2673,-0.4741,-1.3307,4.0763,1993
5,0.4502,-0.0994,-0.2732,-0.6273,-2.406,4.1508,1941
5,0.7632,-0.1467,-0.1687,-0.5881,-3.3469,4.296,2006
5,0.9395,-0.0803,-0.1228,-0.2996,-3.1574,4.3634,2069
5,1.0222,0.0193,-0.1218,-0.0863,-2.3895,4.3634,2068
5,0.7749,-0.0256,-0.2405,0.0477,-1.6629,4.3634,2089
5,0.6243,-0.1228,-0.4211,0.1543,-1.6972,4.3634,2053
5,0.52,-0.3376,-0.6445,0.1988,-1.9375,4.3634,2017
5,0.4309,-0.5679,-0.8115,0.5026,-2.0441,4.3634,2033
5,0.3999,-0.7373,-0.7393,0.6007,-2.115,4.3634,2038
5,0.0688,-1.0247,-0.5515,0.4476,-1.8203,4.3634,2063
5,0.4221,-1.2134,-0.3091,0.6863,-0.4167,4.3634,2085
5,0.428,-1.4141,-0.2417,0.7447,0.9208,4.3634,2021
5,-0.0964,-1.8064,-0.3254,0.7817,1.26,4.3634,2000
5,-0.1506,-1.2344,-0.2837,0.8737,1.5356,4.125,1994
5,0.4607,-1.1311,-0.0449,1.0487,1.7596,3.5864,2036
5,0.1123,-1.5054,-0.0586,1.0753,1.7568,3.1445,2009
5,0.0894,-1.4978,-0.001,1.1375,2.0193,2.6187,2092
5,-0.0615,-1.2991,0.0801,1.0473,2.0192,1.9628,2007
5,0.0278,-1.2822,0.1462,0.7994,1.6202,1.4729,2020
5,0.1677,-1.2754,0.293,0.4794,1.277,1.2202,2059
5,0.1426,-1.1135,0.3665,0.3663,0.8734,0.9357,2009
5,0.2769,-0.8982,0.3923,0.5285,0.4461,0.4691,2211
5,0.2034,-0.9382,0.4351,0.71,-0.0181,0.131,2061
5,0.1584,-0.9343,0.291,0.8074,-0.4646,-0.0671,1986
5,0.0327,-0.9314,0.1138,0.7046,-0.9035,-0.2598,2071
5,0.054,-0.959,0.0276,0.6584,-1.3479,-0.4947,2281
5,0.0557,-1.0188,0.0576,0.5055,-1.8499,-0.6548,2033
5,-0.0244,-1.0676,0.083,0.3903,-2.1393,-0.7321,2204
5,-0.2058,-1.0549,0.1304,0.2308,-2.3059,-0.8355,1988
5,1.9999,-2.0,0.4807,-4.3635,-4.3635,-4.3635,3143
5,0.2805,0.3535,-0.3855,-4.3635,-4.3635,-2.6075,1101
5,-2.0,-1.0405,1.9365,0.5205,0.0517,-2.2447,1783
5,-2.0,-2.0,-0.051,-1.7531,0.116,-3.4641,1321
5,0.0994,1.2285,-0.228,-2.9533,-3.2796,-2.8046,2366
5,1.717,1.8218,-1.0767,-3.4493,-0.649,-4.3635,2557
5,1.1553,-1.5884,-0.2112,-2.0972,-2.7915,-3.5419,1977
5,-2.0,-2.0,-0.998,-2.2692,-2.3673,-2.8087,1751
5,-2.0,-1.4172,-0.6836,-0.8253,0.573,-4.1588,2132
5,1.1304,-0.5483,-0.3354,-0.7498,1.1892,-3.8161,2352
5,1.2192,0.2773,-0.4873,-0.6052,-0.4508,-3.7665,2079
5,1.5825,-0.6692,-0.7012,-0.606,-0.5878,-3.107,2022
5,1.8438,-0.7068,-0.5603,-0.1511,-0.8176,-2.6053,2130
5,0.2009,-0.4883,-0.738,-0.1057,0.29,-2.3125,1902
5,0.5747,-0.8672,-0.5901,0.0442,0.6019,-2.2932,1987
5,1.1145,-0.864,-0.5046,0.2225,0.5131,-1.9298,2117
5,0.9685,-1.0208,-0.4609,0.1882,0.1281,-1.7567,2042
5,0.5566,-1.0586,-0.4087,0.3785,0.1677,-1.5431,1978
5,0.29,-1.0857,-0.384,0.3846,0.114,-1.435,1981
5,0.6812,-0.6624,-0.5461,0.6263,0.3259,-1.0922,2027
5,0.1938,-1.0154,-0.4346,0.5179,0.2533,-1.541,2011
5,0.5679,-0.6914,-0.3745,0.6461,0.6967,-1.0625,2039
5,0.0173,-0.8315,-0.2756,0.5998,0.4653,-1.4015,2040
5,0.594,-0.687,-0.3318,0.2976,0.5288,-0.9062,2058
6,0.4907,-1.1152,-0.0957,0.4084,0.2096,-1.1709,2018
6,0.7583,-0.9885,-0.1943,0.2763,0.6514,-1.2617,2056
6,0.5122,-1.0222,-0.1455,0.4541,0.2756,-1.293,2090
6,0.2874,-0.9602,-0.2703,0.3296,0.3232,-1.2975,2053
6,0.02,-0.8232,-0.3159,0.1832,0.3211,-1.3319,2041
6,0.1262,-0.9448,-0.2734,0.1603,0.3734,-1.4632,2012
6,0.3223,-1.0164,-0.2302,0.0495,0.5999,-1.5301,2039
6,0.2437,-0.9915,-0.2979,0.0224,0.7416,-1.5386,2069
6,0.2246,-1.0012,-0.2915,0.0188,0.9503,-1.609,2030
6,0.1765,-0.9961,-0.3064,-0.0834,1.0879,-1.6082,2041
6,0.125,-1.0063,-0.3767,-0.184,1.2604,-1.6805,2021
6,0.1279,-1.0393,-0.374,-0.2601,1.5384,-1.7651,2032
6,0.0825,-1.1265,-0.3372,-0.2678,1.7757,-1.8622,2048
6,0.1475,-1.3372,-0.2166,-0.2084,1.8346,-2.0774,2011
6,0.1104,-1.4622,-0.0642,-0.1619,1.7283,-2.2494,2061
6,0.123,-1.5903,-0.0024,-0.1563,1.4233,-2.484,2046
6,0.1025,-1.719,0.0588,-0.1248,1.2945,-2.7352,2052
6,-0.051,-1.9446,0.1226,-0.1272,1.342,-2.9621,2035
6,-0.2388,-2.0,0.1663,-0.2468,1.4288,-3.2315,2033
6,-0.2659,-2.0,0.0061,-0.3924,1.2757,-3.479,2033
6,0.0024,-2.0,-0.0476,-0.4729,0.9416,-3.5294,2046
6,0.199,-1.7676,-0.0972,-0.5291,0.6256,-3.4784,2063
6,0.2224,-1.2998,-0.074,-0.532,0.6978,-3.1371,2092
6,0.0786,-0.5129,-0.3462,-0.1767,1.2605,-2.3692,2175
6,0.3623,-0.2136,-0.6062,-0.0932,0.9954,-1.5539,2057
6,0.1326,-0.0898,-1.0298,0.4855,1.2748,-1.0291,1917
6,-0.1665,1.5471,-1.4238,2.2778,2.5157,0.3836,1901
6,-0.9656,1.9999,-1.0442,4.3634,3.7277,0.1003,1830
6,1.9999,0.9463,-0.1604,3.6631,-1.3628,-0.1939,2617
6,1.9999,-1.7144,1.3337,1.4275,1.923,1.2679,1735
6,1.6458,-1.0237,1.2341,-1.7668,1.1953,1.9957,1875
6,1.9999,0.6521,0.9983,-2.016,-1.4027,3.5687,2004
6,1.1787,0.0327,0.3848,-2.8898,-2.0293,4.3634,2037
6,-1.1487,0.7151,-0.6235,-1.4697,-0.8514,4.3634,1996
6,-0.7134,0.0918,-0.8235,-0.9074,-0.0406,4.3634,2037
6,-1.2017,-0.1685,-0.936,-0.7134,1.347,4.3634,1993
6,-0.6184,-0.2781,-0.9285,-0.9468,0.8516,4.3634,2010
6,0.1538,-0.2759,-0.801,-1.1272,-0.3907,4.277,2088
6,0.478,-0.2324,-0.4175,-0.7514,-1.6917,4.2991,2001
6,0.9082,-0.248,0.0356,-0.3314,-2.1386,4.3634,2023
6,1.0967,-0.0386,0.3752,-0.0614,-1.2431,4.3634,2055
6,1.0156,0.0256,0.3081,-0.2152,-0.4888,4.3634,2072
6,1.1201,-0.2002,0.4504,-0.4719,-0.5385,4.3634,2050
6,1.1086,-0.2754,0.4375,-1.6146,0.2141,4.3634,2060
6,1.365,-0.4043,-0.033,-1.5422,0.0348,4.3634,2061
6,1.1387,-0.5647,-0.21,-0.934,-0.4806,4.3634,2024
6,0.9412,-0.6748,-0.3625,-0.451,-0.8132,4.3634,2220
6,0.3779,-0.6628,-0.8723,-0.026,-1.4388,4.3634,1995
6,0.0537,-0.644,-0.9875,0.242,-1.2868,4.3634,2058
6,-0.2378,-1.2002,-0.6975,0.9207,0.609,4.1626,2019
6,0.5254,-2.0,-0.2344,1.3062,-0.1254,4.3634,1954
6,0.6794,-1.834,0.2952,1.3769,0.3177,4.3634,2075
6,0.5278,-1.3835,0.4307,1.5506,0.3091,3.7403,2145
6,0.8289,-1.562,0.5933,1.4531,0.3175,2.7617,2003
6,0.1799,-1.6111,0.4053,0.7455,-0.3187,2.0077,1892
6,-0.3225,-1.4026,0.5586,0.7034,-0.4228,1.0387,2033
6,-0.1514,-1.1953,0.29,0.7762,-0.18,0.5741,1961
6,-0.0923,-0.9844,0.0979,0.8993,-0.0595,0.0434,2201
6,0.1267,-1.0291,0.0264,0.666,-0.3597,-0.2854,2366
6,0.1169,-0.9436,-0.0593,0.5091,-0.7304,-0.5474,1983
6,1.3074,-2.0,0.564,-1.7946,-4.2536,-2.4968,2021
6,1.9999,-2.0,0.7283,-4.3635,-4.3635,-4.3635,2177
6,-2.0,1.5276,0.0205,-2.5157,-3.3579,0.5679,1164
6,-2.0,-2.0,1.7664,-0.7965,-3.8906,-4.2354,1557
6,-2.0,-0.1184,0.2732,-2.5867,-0.974,-2.5302,2491
6,1.9999,-1.0085,-0.4377,-4.3635,-0.8154,-4.3635,2968
6,0.6072,-2.0,0.3208,-2.1941,-2.437,-2.0622,2068
6,-2.0,-2.0,-0.2566,-1.3984,-1.0042,-3.5788,1301
6,-0.1938,-0.8826,-0.043,-1.3689,0.4087,-4.2279,2158
6,1.1399,0.2227,-0.5833,-1.024,0.2049,-3.7548,2690
6,1.0156,-0.123,-0.7673,-0.8887,-0.2741,-3.8897,2207
6,1.5649,-0.9216,-0.8303,-1.3011,-0.3761,-3.189,2161
6,1.3728,-0.5254,-0.8228,-1.2866,0.1591,-2.3027,2098
6,1.0886,0.4346,-0.9397,-0.7014,0.8636,-2.2866,2202
6,1.5913,-0.1243,-0.5708,-0.1443,0.6088,-2.3148,2061
6,1.491,-0.2483,-0.6897,0.0997,0.5031,-2.1202,1945
6,0.9514,-0.9465,-0.6975,0.2633,0.5485,-1.8329,2030
6,0.4553,-1.511,-0.5652,0.4095,0.365,-1.7257,1933
6,0.0833,-1.6121,-0.3628,0.6715,0.1141,-1.5479,1955
6,-0.1292,-1.1355,-0.4238,0.7122,0.1052,-1.5518,2023
6,0.292,-0.9241,-0.4172,0.6814,0.1922,-1.5059,2081
6,0.5,-0.8796,-0.2422,0.7126,0.4296,-1.4123,2097
6,0.5674,-0.6697,-0.2197,0.6919,0.8779,-1.3185,2047
6,0.6665,-0.8484,-0.1499,0.4827,0.5289,-1.1841,2058
6,0.9116,-0.948,-0.1116,0.4675,0.6325,-1.2605,2057
6,0.4395,-0.8921,-0.0886,0.5746,0.4426,-1.3375,1939
6,0.3682,-1.0193,-0.0911,0.3851,0.2868,-1.2918,2060
6,0.1035,-0.9766,-0.1589,0.2537,0.5183,-1.3205,2046
6,0.1799,-0.9978,-0.1594,0.1181,0.573,-1.4191,2048
6,0.3157,-1.0603,-0.1709,0.0497,0.7313,-1.4853,2007
6,0.1777,-1.0811,-0.1648,-0.0169,0.9917,-1.496,1961
6,0.0005,-1.0979,-0.303,-0.1233,1.1714,-1.5648,2031
6,0.0173,-1.0039,-0.4221,-0.3739,1.38,-1.6311,2058
6,-0.0073,-1.0906,-0.4028,-0.4934,1.737,-1.6824,2088
6,0.0024,-1.1189,-0.3845,-0.6179,2.0535,-1.7732,2014
6,0.0005,-1.3928,-0.2773,-0.6823,2.3671,-1.899,2058
6,-0.0898,-1.6853,-0.1897,-0.6794,2.6433,-2.1387,2036
6,0.0242,-1.8367,0.0837,-0.6498,2.5649,-2.282,2058
6,-0.134,-2.0,0.0996,-0.7698,2.3274,-2.5197,1989
6,-0.0229,-2.0,0.0039,-0.8704,1.9583,-2.7598,2073
6,0.1311,-1.9119,0.0186,-0.8293,1.6885,-2.8807,2076
6,0.2334,-1.6074,-0.0259,-0.6919,1.6126,-2.8197,2066
6,0.3425,-1.1917,-0.1538,-0.4946,1.8437,-2.418,2060
7,0.405,-0.6663,-0.2495,-0.1312,2.077,-1.7945,2033
7,0.2693,-0.4539,-0.5715,-0.1682,1.9955,-1.0949,2046
7,-0.0979,-0.3584,-0.8145,0.0033,2.4665,-0.5168,2002
7,-0.5071,1.1282,-1.2998,1.5701,4.149,0.5319,2013
7,-0.3499,1.9999,-0.9165,4.3634,4.3634,0.0177,1868
7,1.9999,1.3562,0.5557,4.3634,1.017,2.6179,2793
7,1.9999,0.4685,1.3965,4.3634,2.5416,2.5729,1785
7,1.9319,-1.9956,1.8174,0.2121,0.0755,2.2322,1900
7,1.1367,-1.3972,1.0181,-1.8528,-1.8688,2.3567,1916
7,1.7124,-0.3552,0.6377,-3.8771,-3.0365,2.9962,2065
7,1.9409,1.2476,0.2585,-3.3857,-3.6657,4.3634,2146
7,-1.311,-0.2173,-0.1897,-3.5864,-1.578,4.3634,1767
7,-1.3232,-0.0032,-0.4592,-1.7116,-0.8468,4.3634,1912
7,-0.7192,-0.4258,-0.5957,-1.2734,0.4749,4.3634,2239
7,-0.8896,-0.4963,-0.6667,-1.4315,1.43,4.3634,1833
7,0.1233,-0.4207,-0.7898,-2.2264,0.2188,4.2775,2146
7,0.6597,-0.2859,-0.8337,-2.0722,-1.2013,4.2461,2145
7,0.7517,-0.3989,-0.6316,-1.2924,-1.6314,4.3634,2056
7,1.1907,-0.3354,-0.1055,-0.647,-1.6074,4.3634,2061
7,1.4128,-0.2205,0.02,-0.5012,-1.4793,4.3634,2077
7,1.2124,-0.1528,0.0103,-0.0621,-1.4035,4.3634,2036
7,1.3301,0.0046,-0.3621,-0.0527,-1.654,4.3634,2022
7,0.7922,-0.4668,-0.2798,-0.3328,-1.9876,4.3634,2091
7,0.3899,-0.7778,-0.2886,-0.602,-1.9622,4.3634,2073
7,0.1726,-0.8838,-0.4099,-0.8178,-1.5037,4.3634,2102
7,-0.0618,-0.9912,-0.8345,-0.2832,-0.7151,4.3634,1985
7,-0.3374,-1.4146,-0.8679,0.2988,0.4448,4.3634,1977
7,0.1636,-1.4229,-0.5652,0.9621,1.5018,4.0326,2051
7,-0.2705,-1.8386,-0.2922,1.1792,2.3762,4.0261,2005
7,-0.0298,-1.5195,-0.0212,1.2944,2.0153,2.9984,2041
7,0.5403,-1.5757,0.1714,1.1288,2.3294,2.6373,2168
7,0.1172,-1.5042,0.1023,1.1652,1.8483,2.172,2035
7,-0.0222,-1.3162,0.1162,0.9769,1.4922,1.5042,2063
7,-0.0376,-1.2808,0.386,0.6549,1.4011,0.8247,2081
7,-0.1621,-1.1975,0.4778,0.3067,1.252,0.5177,2081
7,-0.2207,-1.0535,0.4182,0.2677,0.7947,0.2737,2031
7,-0.0928,-0.8127,0.3003,0.6404,0.4496,-0.1113,2029
7,0.1572,-0.8933,0.2549,0.748,0.0454,-0.4549,2032
7,0.2993,-0.9214,0.0486,0.7337,-0.2678,-0.6039,2035
7,0.2063,-0.9299,-0.0776,0.6581,-0.5871,-0.6842,1890
7,0.0244,-0.9924,-0.1147,0.5237,-1.071,-0.7942,2059
7,-0.1199,-0.9929,-0.1631,0.5477,-1.3235,-0.8424,1965
7,-0.2664,-1.0205,-0.0894,0.543,-1.5587,-0.8492,1998
7,-0.3596,-1.052,-0.0037,0.5333,-1.5592,-0.7233,2067
7,-0.5471,-0.988,0.0806,0.406,-1.2069,-0.7943,2116
7,0.5886,-2.0,0.989,-1.2086,-3.725,-3.0007,2347
7,1.9999,-2.0,1.1982,-4.3635,-4.3635,-4.3635,2075
7,-2.0,-0.7258,-0.1548,-2.1237,-3.02,0.5223,1080
7,-2.0,-2.0,1.9999,2.208,-0.9475,-2.335,1944
7,-0.0239,-1.3284,-0.269,-2.8846,-2.0971,-3.0307,2097
7,1.9999,1.4958,-1.3159,-2.8878,-1.3656,-2.173,2731
7,0.6602,-1.082,-0.8137,-2.4759,-0.5548,-4.3635,2228
7,-2.0,-2.0,-0.7864,-2.3483,-2.6376,-1.539,1338
7,-2.0,-1.8921,-0.6531,-0.9561,0.1115,-3.3657,2033
7,1.0171,-0.748,0.4702,-0.819,0.6171,-4.0984,2563
7,0.8076,0.3979,-0.3752,-0.5434,-0.7407,-3.4294,2204
7,1.0498,-0.7437,-0.551,-0.3758,-1.1861,-3.2955,1983
7,1.9346,-0.6033,-0.5508,-0.2448,-0.9728,-3.0147,2138
7,0.4404,-0.3948,-0.6204,-0.4469,0.293,-2.3764,1976
7,0.7263,-0.7422,-0.4641,-0.0606,0.8472,-2.5199,1958
7,1.8018,-1.0586,-0.3857,0.0623,1.0228,-1.7969,2161
7,1.0129,-1.2505,-0.5024,0.0816,0.0115,-1.5809,2032
7,0.6318,-0.9368,-0.5637,0.1653,0.0471,-1.385,2010
7,0.0479,-0.8147,-0.4956,0.3581,-0.0134,-1.3641,1880
7,0.4097,-0.9663,-0.3889,0.4088,0.6964,-0.512,2024
7,0.8391,-0.8201,-0.5454,0.5111,1.3809,-1.3154,2070
7,0.3062,-0.918,-0.4023,0.4673,0.6204,-1.0909,2045
7,0.1226,-1.0752,-0.1697,0.5573,0.4533,-1.1138,2019
7,0.1482,-0.498,-0.2405,1.392,0.6518,-0.768,2070
7,-0.0125,-1.1914,-0.0195,1.2335,0.4629,-1.5945,1948
7,1.5205,-1.6379,-0.4146,-1.2005,0.136,-1.1367,2090
7,-0.4158,-0.6289,0.0098,1.0512,-0.267,-1.0688,2046
7,-0.0405,-1.1113,-0.6577,-0.1457,0.0774,-1.4786,1957
7,1.5671,-0.9175,-0.1704,0.5404,0.1306,-1.3422,2153
7,0.0559,-0.8521,-0.2297,0.1806,0.3041,-1.0981,2096
7,0.1511,-1.0208,-0.2839,0.3767,0.4437,-1.2398,1985
7,0.0742,-1.0332,-0.2739,0.3033,0.3227,-1.2985,1983
7,-0.0723,-1.1458,-0.2432,0.241,0.5305,-1.3619,2012
7,-0.2056,-1.2686,-0.2642,0.1313,0.6352,-1.5635,2020
7,-0.1079,-1.0137,-0.4211,0.0931,0.7259,-1.7524,2056
7,0.1521,-0.855,-0.3994,-0.088,0.9032,-1.8122,2065
7,0.3115,-0.7839,-0.2781,-0.1471,1.2294,-1.8162,2085
7,0.3508,-0.8569,-0.197,-0.2115,1.5285,-1.8082,2061
7,0.4341,-0.916,-0.1758,-0.2448,1.5767,-1.9267,2022
7,0.4243,-1.1316,0.0244,-0.1525,1.4636,-2.0148,2042
7,0.4097,-1.2815,0.0974,-0.1136,1.1588,-2.1924,2037
7,0.3262,-1.3076,0.1172,-0.0798,0.9184,-2.3314,2055
7,0.1924,-1.2688,0.0696,-0.1089,0.8234,-2.4537,2036
7,0.1755,-1.2092,-0.0168,-0.1766,0.7592,-2.6007,2036
7,0.2236,-1.2058,-0.0742,-0.2486,0.8536,-2.7265,2045
7,0.168,-1.2793,-0.0552,-0.3468,1.125,-2.8247,2048
7,0.0479,-1.4971,-0.0444,-0.534,1.3813,-2.9624,2047
7,-0.0032,-1.8062,-0.1042,-0.7578,1.46,-3.1262,2032
7,0.0088,-2.0,-0.1211,-0.9797,1.451,-3.2734,2051
7,0.1257,-2.0,-0.2134,-1.0662,1.1694,-3.3537,2074
7,0.3975,-1.7976,-0.2744,-1.015,0.7232,-3.1861,2120
7,0.5022,-1.5845,-0.303,-1.1404,0.3529,-2.7907,2074
7,0.3901,-1.1067,-0.5059,-1.23,0.3428,-2.1664,2113
7,0.3599,-0.3564,-0.7498,-1.3216,0.7292,-1.1868,2109
7,0.4392,0.446,-0.9583,-0.7513,1.3268,-0.9034,2040
7,-0.6687,0.3506,-1.4158,-0.0071,3.0744,0.3153,1822
7,-0.2629,1.9999,-0.7249,3.5246,4.3634,-0.0332,1795
7,1.9999,0.9998,0.3123,3.5936,4.3634,-0.7529,2345
8,1.9999,1.9999,0.5183,4.3526,3.9736,1.3328,2247
8,1.9999,-1.3428,1.7913,1.7861,1.4667,1.8663,2191
8,1.9999,-0.8738,0.814,-1.4848,-1.4233,2.981,1823
8,1.2615,-0.1545,0.4246,-2.6113,-2.8871,3.9567,1935
8,0.6116,0.7812,-0.0198,-2.1229,-2.8909,4.3634,2001
8,-1.1343,0.2573,-0.1963,-1.4287,-2.084,4.3634,1900
8,-0.9167,0.1609,-0.467,-1.0349,-0.7887,4.3634,2047
8,-0.5728,-0.3347,-0.4958,-0.4031,0.8827,4.3634,2084
8,-0.0322,-0.3223,-0.4062,-0.5557,1.0039,4.3634,1958
8,0.3044,-0.1958,-0.4341,-0.891,-0.0971,4.3634,2035
8,0.8418,-0.0969,-0.3682,-1.1376,-1.756,4.3634,2094
8,1.0205,-0.3989,-0.1675,-0.8593,-2.1724,4.3634,2068
8,1.2981,0.0042,-0.1211,-0.5002,-1.6946,4.3634,2093
8,1.0505,-0.0906,0.0303,-0.1802,-1.4557,4.3634,2020
8,1.0662,-0.1365,0.0713,-0.1073,-2.0449,4.3634,2002
8,1.0774,-0.7163,-0.0432,-0.4874,-2.4545,4.3634,2039
8,1.1731,-0.0798,-0.2493,-0.1135,-3.0628,4.3634,2061
8,1.2266,0.1355,-0.4429,0.328,-3.0473,4.3634,2089
8,0.2612,-0.7131,-0.095,0.0113,-2.2643,4.3634,2097
8,-0.1213,-0.9805,-0.1035,-0.0246,-1.205,4.3634,1963
8,0.022,-0.8354,-0.4629,0.2088,-0.7763,4.3634,2005
8,0.3674,-1.2595,-0.5098,0.4625,-0.1694,4.3634,2103
8,0.2874,-1.4663,-0.3008,0.8561,0.6377,4.3634,2050
8,0.8962,-1.4509,-0.1843,1.0784,1.0214,3.8531,2091
8,0.3064,-1.4165,-0.0347,0.9148,1.3428,3.4535,2019
8,0.4814,-1.5557,0.0259,0.9854,0.7257,2.6089,2027
8,0.4958,-1.2717,0.0803,0.8704,0.4761,1.9694,1976
8,0.4553,-1.3728,0.3352,0.7239,0.1041,1.482,1971
8,0.2471,-1.3413,0.4397,0.5823,-0.2422,1.099,1933
8,0.0608,-1.175,0.4106,0.5785,-0.3573,0.8684,1976
8,-0.1084,-1.0227,0.3547,0.5137,-0.5976,0.5027,2054
8,-0.0542,-0.9741,0.2068,0.6054,-0.7423,0.2573,2016
8,-0.1572,-1.0376,0.0715,0.6159,-0.7248,0.0161,1911
8,-0.0813,-0.9937,-0.0803,0.771,-0.8056,-0.2064,2048
8,-0.0894,-0.9937,-0.0051,0.7265,-0.8112,-0.504,1964
8,1.9999,-2.0,0.0999,-4.3635,-4.3635,-4.3635,3048
8,-0.1804,1.3701,-1.0916,-4.3635,-4.3635,-1.8973,1354
8,-2.0,-2.0,1.532,-1.2812,-0.0768,-4.3181,1216
8,-2.0,-2.0,1.0728,-1.6853,1.1441,-1.6119,1852
8,1.0422,1.0322,-0.6907,-3.6685,-3.3278,-2.6247,3033
8,0.7395,0.2773,-0.1694,-3.1051,0.1276,-4.3635,2296
8,-1.981,-2.0,0.9712,-1.6769,-2.7275,-1.2605,1772
8,-2.0,-1.9045,-1.7144,-1.4533,-2.0688,-3.3059,1605
8,0.0886,-1.0068,0.186,-1.131,0.6895,-3.89,2357
8,1.6865,0.4412,-0.7769,-0.8854,0.9104,-3.2068,2356
8,0.855,0.0645,-1.3506,-0.8027,-0.7525,-3.2646,1954
8,1.7183,-0.8435,-0.8372,-0.6656,-0.0554,-2.5773,2079
8,0.6045,-0.6714,-0.8887,-0.394,0.187,-2.2514,1928
8,0.5691,-0.3813,-0.8171,-0.0048,0.3032,-2.2826,1884
8,1.0588,-0.9919,-0.4507,0.1167,0.4374,-2.0883,2025
8,1.1157,-1.1226,-0.6086,0.1344,0.4144,-1.6567,2057
8,0.6055,-0.999,-0.5938,0.3549,0.1317,-1.3724,2005
8,0.5374,-0.8901,-0.4626,0.3862,0.1609,-1.2196,2063
8,0.6208,-0.8894,-0.4768,0.5082,0.2806,-1.1941,2065
8,0.3777,-0.9268,-0.4189,0.6879,0.6111,-0.9227,2011
8,-0.3347,-1.0969,-0.1648,1.0653,0.2748,-1.1752,2009
8,1.0271,-0.7227,-0.4133,0.7726,0.6036,-1.0535,2079
8,0.0354,-1.1477,-0.0154,0.7605,0.4617,-1.025,2016
8,1.1372,-0.8931,-0.1907,0.4565,0.3251,-0.9152,2084
8,-0.1506,-0.8652,-0.0874,0.6759,-0.1678,-0.893,1966
8,0.6445,-0.998,-0.3589,0.334,0.1382,-1.0665,2079
8,0.3818,-0.9629,-0.1758,0.4251,0.1748,-1.0345,2055
8,0.5894,-0.9407,-0.1953,0.526,-0.198,-1.1902,2036
8,0.1726,-1.0227,-0.238,0.4132,0.0513,-1.0512,2018
8,-0.0427,-0.9329,-0.3145,0.4344,0.2382,-1.179,2010
8,0.0115,-0.8792,-0.2986,0.3478,0.1902,-1.2844,2039
8,0.1602,-0.9575,-0.1824,0.214,0.2691,-1.3316,2054
8,0.1726,-0.9275,-0.1719,0.223,0.3847,-1.435,2050
8,0.3423,-1.0186,-0.0557,0.1466,0.43,-1.5295,2091
8,0.2275,-1.0642,-0.0303,0.0678,0.5188,-1.587,2033
8,0.0312,-1.0679,-0.1631,0.0233,0.534,-1.7036,1999
8,0.0466,-1.0073,-0.2969,-0.072,0.5593,-1.8326,2041
8,0.0249,-0.9758,-0.3923,-0.1116,0.742,-1.9462,2058
8,0.1936,-0.979,-0.3865,-0.1796,0.9461,-2.0414,2069
8,0.1907,-0.9395,-0.385,-0.2112,1.2176,-2.0904,2052
8,0.2385,-0.9749,-0.3633,-0.3131,1.381,-2.177,2055
8,0.3564,-1.135,-0.0437,-0.191,1.542,-2.2352,2029
8,0.3276,-1.1108,0.0352,-0.2233,1.427,-2.3807,2014
8,0.3542,-1.144,0.0947,-0.2286,1.2018,-2.5397,2037
8,0.3586,-1.2778,0.0964,-0.241,1.046,-2.7068,2046
8,0.2444,-1.4622,0.1453,-0.2457,1.0935,-2.8626,2043
8,0.0745,-1.6174,0.1116,-0.3473,1.209,-3.0146,2038
8,-0.0542,-1.9321,-0.0208,-0.5718,1.129,-3.2307,2040
8,0.0083,-2.0,-0.1799,-0.7706,1.0071,-3.424,2041
8,0.1404,-2.0,-0.2366,-0.8038,0.9463,-3.49,2055
8,0.3308,-1.9917,-0.2712,-0.8748,0.8764,-3.3862,2080
8,0.6294,-1.3032,-0.3701,-0.777,0.6027,-3.0726,2084
8,0.6794,-1.2229,-0.5205,-0.8468,0.2904,-2.6655,2059
8,0.5176,-0.9683,-0.625,-0.6283,0.4089,-1.9732,1990
8,0.4148,-0.2849,-0.7419,-0.8783,0.7267,-0.8227,1987
8,-0.0972,0.5388,-1.1492,-0.1372,1.6118,-0.5869,1954
8,-0.158,-0.0623,-1.1182,0.8404,3.1545,0.4366,1969
8,-1.2607,1.9999,-0.8694,4.3634,4.3634,0.4472,1864
8,1.9999,1.9999,0.4502,4.3634,2.6196,-0.0234,2450
8,1.9999,-1.3101,1.2642,3.6002,2.7532,0.8096,2347
8,1.6885,-1.4446,1.3149,-0.9712,1.7341,1.9535,1905
8,1.5378,-0.5015,0.9785,-2.5043,-0.0791,2.7698,1843
8,1.9999,0.4509,0.7136,-3.2714,-2.3095,4.0948,2068
8,-0.2678,0.5161,-0.0552,-2.9404,-1.2616,4.3634,1883
8,-0.8665,0.4719,-0.3574,-1.7182,-1.0003,4.3634,1916
8,-0.7795,0.0156,-0.5454,-1.1657,0.4361,4.3634,2059
8,-0.8325,-0.1252,-0.5254,-0.885,1.2568,4.3634,2019
8,-0.1248,-0.1152,-0.4421,-1.3636,0.1553,4.3634,2022
8,0.3218,-0.073,-0.3809,-1.5997,-1.8239,4.3634,2032
9,0.8953,-0.0327,-0.1987,-1.2433,-3.0897,4.3634,2087
9,1.1667,0.1255,0.1394,-0.8216,-2.6565,4.3634,2133
9,0.9792,0.1248,0.343,-0.7779,-2.0873,4.3634,2087
9,1.2112,0.0146,0.1746,-0.7694,-2.0454,4.3634,2132
9,1.0437,0.0029,-0.2214,-0.7982,-2.011,4.3634,2107
9,1.2109,-0.0862,-0.2747,-0.6454,-2.7155,4.3634,2111
9,0.6731,-0.4182,-0.2522,-0.455,-2.4442,4.3634,1935
9,0.177,-0.647,-0.5767,-0.134,-2.4662,4.3634,1938
9,0.1362,-1.0085,-0.7651,0.2999,-1.5684,4.3634,2054
9,0.0605,-1.1106,-0.813,0.5851,0.0711,4.3634,2101
9,0.188,-1.2161,-0.7009,1.3624,1.3985,4.3634,2069
9,0.6951,-1.3997,-0.3394,1.8642,1.8835,4.3634,2117
9,0.5708,-1.7009,-0.062,1.5179,1.7669,4.3634,1980
9,0.1589,-1.6096,-0.0374,1.5518,1.7871,4.1455,1999
9,-0.2375,-1.6602,-0.1697,1.9386,2.0276,3.0111,2076
9,0.0522,-1.4929,0.0464,2.0217,1.762,2.0032,2029
9,0.3936,-1.7822,0.5991,1.3924,1.3042,1.5392,2084
9,0.1172,-1.6057,0.8367,0.687,0.9934,1.1629,2156
9,-0.2539,-1.1802,0.6973,0.4907,0.4699,0.589,2148
9,-0.073,-0.8442,0.5698,0.8558,0.0209,-0.0898,1925
9,0.136,-0.9421,0.4216,1.0419,-0.3402,-0.6142,2016
9,0.3821,-1.075,0.1907,0.8653,-0.7449,-0.9774,1948
9,0.2925,-1.2537,0.0974,0.3326,-1.3937,-1.3025,1879
9,1.9999,-2.0,0.1816,-4.3635,-4.3635,-4.3635,2981
9,-1.5754,0.5098,-1.9443,-4.3635,-4.084,-0.822,1547
9,-2.0,-2.0,1.7041,0.3602,0.76,-3.7107,1169
9,-2.0,-2.0,0.6116,-2.5027,1.0256,-4.3635,2204
9,-0.4321,1.9999,-0.2856,-2.5562,-1.8827,-2.2694,2377
9,1.9999,1.9058,-1.5483,-2.9193,0.3754,-4.3635,2773
9,-0.3284,-2.0,0.8044,-1.507,-3.5537,-0.9734,1739
9,-2.0,-2.0,-1.2563,-1.6198,-1.9481,-2.5243,1523
9,-1.377,-1.9941,0.072,-1.0921,1.2125,-3.9571,2129
9,0.9185,0.3591,-0.178,-0.5871,0.8449,-3.895,2417
9,1.4299,0.2346,-0.76,-0.6542,-0.7911,-3.7316,2137
9,0.6133,-0.7485,-0.7283,-0.8463,-1.2708,-3.3256,1963
9,1.6426,-0.6365,-0.645,-0.93,-0.2606,-2.6983,2086
9,0.3625,-0.0664,-0.8813,-0.785,1.3596,-2.2447,2035
9,1.3252,0.2773,-0.6123,-0.1647,0.7549,-2.4398,1976
9,1.9963,-0.2954,-0.5725,-0.0385,0.6006,-2.2435,2114
9,1.0435,-1.3901,-0.3633,-0.1506,0.4101,-1.7808,1968
9,0.1624,-1.7146,-0.7109,0.1309,0.3655,-1.5771,1923
9,0.0042,-1.5825,-0.499,0.4024,0.3887,-1.4234,1989
9,-0.0408,-1.0273,-0.4187,0.4904,0.4898,-1.4671,2057
9,0.3845,-0.887,-0.4185,0.4123,0.4811,-1.5605,2144
9,0.5662,-0.8142,-0.3538,0.3535,0.5735,-1.5636,2116
9,0.6519,-0.8501,-0.2043,0.3754,0.7692,-1.4275,2059
9,0.4343,-0.6899,-0.1704,0.4587,0.7425,-1.4367,1999
9,0.5886,-0.8096,-0.2087,0.1682,0.8111,-1.3178,2068
9,0.7065,-0.6428,-0.2341,0.1703,0.7252,-1.5294,2030
9,0.7678,-0.5256,-0.251,0.2799,0.4465,-1.5105,2011
9,0.605,-0.6335,-0.2058,0.178,0.4733,-1.3841,2020
9,0.4492,-0.8662,-0.144,0.1932,0.5112,-1.3477,2032
9,0.2622,-1.0715,-0.1648,0.2,0.5465,-1.3687,2016
9,0.2434,-1.2646,-0.2112,0.1534,0.5786,-1.4524,2041
9,0.0808,-1.1819,-0.4067,0.1473,0.6312,-1.5631,2021
9,-0.0081,-1.114,-0.4561,0.0601,0.8761,-1.6847,2022
9,-0.0457,-1.1299,-0.3818,-0.0103,1.2842,-1.763,2049
9,0.0525,-0.9714,-0.3455,-0.0961,1.6227,-1.9188,2070
9,0.1584,-0.9133,-0.3406,-0.2521,1.8816,-1.9508,2062
9,0.3044,-1.1829,-0.0681,-0.2687,2.0726,-2.024,2074
9,0.3572,-1.4805,0.1238,-0.2819,1.8915,-2.1357,2053
9,0.2891,-1.7058,0.1685,-0.3481,1.6177,-2.3427,2017
9,0.2244,-1.9167,0.2002,-0.326,1.3844,-2.5876,1989
9,0.1794,-2.0,0.2222,-0.3645,1.1485,-2.8538,2054
9,0.1274,-2.0,0.1609,-0.4205,0.8874,-3.0997,2038
9,0.0312,-2.0,0.1602,-0.4318,0.714,-3.273,2045
9,0.0947,-2.0,0.0879,-0.4912,0.2607,-3.3087,2060
9,0.2156,-1.4597,-0.0642,-0.5526,-0.2791,-3.1626,2078
9,0.1807,-1.3679,-0.3064,-0.812,-0.5228,-2.8239,2039
9,0.1934,-0.6519,-0.6089,-0.803,-0.2815,-2.0437,2013
9,0.3469,0.0417,-0.8228,-0.7344,0.0698,-1.0549,2033
9,-0.1223,0.1951,-1.1995,-0.6608,0.5441,-0.8284,2068
9,-0.5969,1.4094,-1.533,1.2086,3.2894,0.1197,1930
9,-0.2476,1.9999,-0.9446,3.7187,4.3634,-0.3816,1920
9,1.9999,1.1401,-0.2893,3.371,3.0898,-1.5713,2289
9,1.9999,0.4888,-0.1858,3.2148,3.3958,0.8678,2166
9,1.9999,-1.1023,1.0889,1.2268,1.4713,1.2841,2122
9,1.9551,-0.2751,0.7954,-1.0017,-0.304,2.429,1962
9,1.0964,-0.2095,0.3782,-2.2366,-2.1993,3.4607,1969
9,0.2146,0.4436,-0.1477,-1.7343,-2.3352,4.2955,1961
9,-0.5627,0.2942,-0.5376,-0.7883,-1.748,4.3457,1936
9,-1.0664,-0.1323,-0.7783,-0.5315,0.0759,4.1781,1930
9,-0.9746,-0.3113,-0.7048,-0.2559,0.9887,4.1082,2033
9,-0.3606,-0.426,-0.5471,-0.2848,0.2514,3.9615,2085
9,0.0835,-0.5002,-0.373,-0.4,-0.9449,3.955,2025
9,0.4749,-0.4949,-0.1306,-0.3354,-1.8785,4.0606,2029
9,0.7197,-0.5112,0.0752,-0.2699,-1.901,4.3499,2037
9,0.9246,-0.428,0.1743,-0.2091,-1.1861,4.3634,2103
9,0.8044,-0.3428,0.0688,-0.1432,-0.5982,4.3634,2071
9,0.5232,-0.4939,-0.0476,-0.3261,-0.6677,4.3634,2043
9,0.5005,-0.4421,-0.1606,-0.2661,-0.8642,4.3634,2036
9,0.5471,-0.6748,-0.0652,-0.2089,-0.9537,4.3634,2049
9,0.4565,-0.8179,-0.0938,-0.2562,-0.9644,4.3634,2050
9,0.2708,-0.9006,-0.2659,-0.0348,-1.0299,4.3634,2038
9,0.0486,-0.98,-0.4309,0.344,-0.7959,4.3634,2035
9,0.0374,-0.8755,-0.6836,0.7315,-0.7251,4.3634,2050
9,-0.2407,-1.1833,-0.7563,1.0954,-0.507,4.3634,2037
9,-0.0305,-1.4377,-0.3418,1.3673,-0.3196,4.3634,1979
9,0.0935,-1.5181,0.053,0.9588,-0.0739,4.3634,2067
9,-0.1929,-1.4626,0.0779,0.9969,0.2225,4.3634,2023
9,-0.7175,-1.4385,0.0659,1.6307,-0.1514,4.3634,1931
10,-0.8562,-1.6953,0.2175,1.4764,-0.2714,4.3634,2008
10,-0.7112,-1.4702,0.1426,1.6376,-0.0656,4.2277,2080
10,-0.5864,-1.0642,0.5364,1.4147,-0.4085,3.7454,2075
10,-0.718,-1.2559,1.2244,0.0491,0.6802,2.9373,2159
10,-1.2825,-0.7192,0.4709,-0.0269,0.5881,2.854,1964
10,-0.5833,0.0962,0.2661,1.5012,0.3773,1.3764,2413
10,-0.0203,-0.8821,0.2334,1.5254,-0.5637,0.6657,1958
10,0.0059,-0.9119,-0.22,1.0202,-1.0256,-0.1622,2111
10,0.0344,-0.792,-0.0034,0.1027,-2.2032,-0.7155,1971
10,-0.7219,-2.0,1.728,-3.038,-3.1079,-2.4923,2359
10,-2.0,-2.0,-1.2688,-3.4224,-4.3635,-4.3635,1915
10,1.9999,-2.0,-1.8896,-4.3635,-4.3635,-4.3635,1965
10,-0.6968,-2.0,1.9999,0.4056,0.3923,-4.3635,2566
10,-2.0,0.2512,-2.0,-3.6122,-0.8332,-0.4916,1617
10,-2.0,-2.0,1.0881,-3.3985,-3.3638,-4.3635,1547
10,1.9999,0.1309,1.9999,-2.5027,0.0762,-4.3635,2200
10,1.9999,1.9999,-0.7334,-2.0632,0.0189,-4.3635,2702
10,-0.3862,-0.5278,-1.3733,-2.0206,-3.3334,-3.344,1650
10,-0.8398,-1.2979,-1.2305,-1.7748,-1.2312,-3.4752,1658
10,1.959,-0.8723,-1.2261,-1.7647,0.5822,-3.5062,2181
10,1.9999,0.4561,-0.927,-1.7447,1.0167,-2.074,2136
10,1.958,-0.7512,-0.9778,-0.942,0.2318,-2.0529,2019
10,1.1282,-1.0063,-0.4202,-0.9086,-0.3963,-1.6121,1969
10,0.6702,-1.0884,-0.5549,-1.0187,0.331,-1.2596,2050
10,0.7168,-1.053,-0.5505,-0.7669,0.7241,-0.938,2066
10,0.8462,-1.093,-0.4675,-0.5256,0.775,-0.6512,2120
10,0.3647,-0.9602,-0.5171,-0.4854,0.8544,-0.3822,2091
10,0.0251,-0.9446,-0.4644,-0.4545,0.6871,-0.3862,1934
10,0.2168,-1.0198,-0.2878,-0.338,0.5572,-0.4172,1986
10,0.5422,-0.9941,-0.1621,-0.288,0.5707,-0.3553,2081
10,0.6899,-0.9436,-0.2476,-0.1879,0.4651,-0.2545,2032
10,0.771,-0.9719,-0.3245,-0.1012,0.3093,-0.1396,2060
10,0.6135,-0.9819,-0.4683,0.0035,0.2437,-0.0005,2038
10,0.3699,-0.9351,-0.5337,0.1087,0.0618,0.038,2028
10,0.355,-0.8081,-0.6128,0.178,-0.035,0.074,1952
10,0.1978,-0.8848,-0.5601,0.2129,0.3208,0.1248,2140
10,0.0569,-1.0203,-0.5867,0.3425,0.3863,0.0511,2117
10,0.0352,-1.0042,-0.4678,0.3771,0.0297,0.0053,2031
10,0.1409,-0.8679,-0.3616,0.3936,-0.2135,-0.0149,2034
10,-0.1636,-1.188,-0.1721,0.2276,0.5537,-0.0284,2032
10,0.5208,-0.9368,-0.168,0.3173,0.045,-0.0691,2038
10,0.4268,-0.9858,-0.062,0.3191,0.0561,0.0145,2078
10,0.3059,-0.9895,-0.0918,0.2424,-0.0631,0.0052,2039
10,-0.0676,-1.0752,-0.1118,0.1301,0.382,-0.0157,2037
10,0.3711,-0.9211,-0.301,0.1609,-0.0099,-0.0261,1961
10,0.1963,-0.8591,-0.3562,0.2834,0.2538,-0.0013,1957
10,-0.0474,-1.0312,-0.3005,0.1107,0.2264,-0.0951,2006
10,-0.123,-1.1028,-0.2922,0.1847,0.1565,-0.1724,2027
10,-0.218,-1.054,-0.1558,0.1561,0.2429,-0.3075,2014
10,-0.1912,-1.1311,-0.165,0.1312,0.2197,-0.4653,2056
10,-0.2388,-1.1982,-0.2632,0.1178,0.1284,-0.6457,2053
10,-0.3586,-1.2175,-0.2163,0.0286,0.1497,-0.8351,2032
10,-0.5518,-1.2952,-0.1526,-0.0834,0.2549,-1.0704,1990
10,-0.7571,-1.3005,-0.0349,-0.1872,0.4373,-1.3838,2058
10,-0.8442,-1.3701,0.0212,-0.3147,0.6038,-1.8211,2059
10,-0.5508,-1.3291,0.1665,-0.3904,0.6126,-2.1969,2025
10,-0.0786,-1.47,0.1658,-0.6188,0.643,-2.2258,2055
10,0.2397,-1.4229,0.3425,-0.5225,0.6179,-2.4285,2045
10,0.4277,-1.2974,0.2002,-0.5062,0.5851,-2.5591,2065
10,0.2778,-1.2781,0.2388,-0.4107,0.8336,-2.6647,2049
10,0.0664,-1.5002,0.1707,-0.4368,1.0592,-2.6408,2034
10,-0.1868,-1.6702,0.0234,-0.3187,1.3796,-2.3931,2011
10,-0.4172,-1.6851,-0.1462,-0.1634,1.8578,-2.1527,2019
10,-0.1182,-1.4617,-0.2861,-0.0806,2.0022,-2.1525,2078
10,0.2102,-1.0564,-0.4846,0.0583,2.012,-2.0426,2093
10,0.6455,-0.7419,-0.5049,0.2633,1.6033,-2.0712,2103
10,1.5747,-0.6006,-0.5676,0.426,0.8416,-1.9502,2144
10,1.644,-0.6045,-0.4912,0.6405,0.1453,-1.7998,2069
10,1.2073,-0.7422,-0.3142,0.7039,0.3521,-1.6851,2013
10,1.0627,-0.5288,-0.1978,0.8822,0.5333,-1.1962,1946
10,0.9175,-0.4653,-0.1602,0.9501,0.5472,-0.8612,2135
10,0.7803,-0.5886,-0.2598,0.9286,0.1981,-0.6594,1868
10,0.709,-0.5515,-0.4434,0.9838,-0.4446,-0.3912,1954
10,0.6328,-0.2383,-0.616,1.0148,-1.1178,-0.3282,2026
10,0.7466,0.1206,-0.7312,1.2607,-1.7908,-0.3638,2041
10,0.9583,0.314,-0.667,1.6145,-2.2101,-0.3215,2041
10,0.9717,-0.1614,-0.4136,1.5771,-2.3202,0.0011,2087
10,0.7952,-0.5801,-0.1746,1.3371,-1.4986,0.2851,2069
10,0.6855,-0.5542,0.0715,1.2182,0.1328,0.5181,2046
10,0.6184,-0.4622,-0.0349,1.299,0.8035,0.9797,2060
10,0.2673,-0.5867,-0.1047,1.1963,1.4251,1.4994,2009
10,-0.03,-0.6633,-0.1858,0.968,1.9202,1.816,2014
10,-0.0613,-0.603,-0.3054,0.7809,2.2917,1.9748,2045
10,0.1003,-0.5928,-0.3547,0.7676,2.5047,2.1088,2043
10,0.1699,-0.6406,-0.3064,0.7963,2.6031,2.2309,2018
10,0.1895,-0.7397,-0.2004,0.7291,2.4562,2.3497,2047
10,0.2241,-0.8916,-0.0571,0.6542,2.1815,2.4325,2048
10,0.9233,-0.999,0.0256,0.4956,1.2275,2.1289,2142
10,0.4558,-1.0222,0.1423,0.1178,1.4632,2.7898,1980
10,0.0364,-0.9326,0.2354,0.4663,0.9737,2.7629,1963
10,0.533,-1.0132,0.1526,0.1832,0.587,2.7665,2100
10,0.2253,-1.0459,0.0317,0.1224,0.6871,3.0403,2025
10,0.4639,-0.9937,-0.1252,0.1859,0.167,3.0333,2058
10,0.3687,-0.9785,-0.2659,0.291,0.1226,3.2084,2021
10,0.3853,-0.9846,-0.207,0.4031,-0.5566,3.1284,2020
10,0.4211,-0.9922,-0.1421,0.399,-1.0875,3.1854,2043
10,0.3745,-0.9741,-0.0454,0.3425,-1.7295,3.2178,2041
10,0.4309,-1.0,0.0222,0.3044,-2.1116,3.2665,2048
10,0.3884,-0.9956,0.074,0.2862,-2.29,3.3664,2036
10,0.3208,-0.9878,0.1206,0.2332,-2.5618,3.4291,2033
10,0.197,-0.9475,0.0881,0.2703,-2.8582,3.4599,2032
10,0.2725,-0.8037,-0.156,0.4437,-3.2577,3.5347,2040
