Timestamp,Ax,Ay,Az,Rx,Ry,Rz,HR_value
0,-0.8837,0.1642,-0.0234,-0.2159,-0.2333,-0.2289,175
0,-0.8112,0.1796,-0.0367,-0.2027,-0.2398,-0.1613,175
0,-0.7775,0.2969,-0.0265,-0.1852,-0.2005,-0.1591,175
0,-0.7561,0.3275,-0.0347,-0.1852,-0.2005,-0.1591,175
0,-0.6377,0.2847,-0.0204,-0.2573,-0.206,-0.2027,175
0,-0.6377,0.2847,-0.0204,-0.3271,-0.1995,-0.2802,175
0,-0.6357,0.2836,-0.0357,-0.2878,-0.1373,-0.2682,175
0,-0.5388,0.3653,0.0204,-0.375,-0.0959,-0.3434,175
0,-0.5867,0.2969,-0.0153,-0.4851,-0.0021,-0.412,175
0,-0.5398,0.252,-0.0306,-0.4601,0.0435,-0.4524,175
0,-0.5714,0.2663,-0.0673,-0.3914,0.1024,-0.4927,175
0,-0.5632,0.2836,-0.0786,-0.4317,0.1221,-0.5309,175
0,-0.5948,0.2142,-0.0969,-0.5059,0.1602,-0.5723,175
0,-0.6061,0.151,-0.1153,-0.5059,0.1602,-0.5723,175
0,-0.6132,0.1214,-0.1102,-0.4851,0.1657,-0.5757,175
0,-0.6132,0.1214,-0.1102,-0.4109,0.182,-0.5702,175
0,-0.6387,0.0979,-0.0541,-0.4065,0.1886,-0.569,175
0,-0.6367,0.0428,-0.0388,-0.4382,0.1896,-0.5658,175
0,-0.6316,-0.0306,-0.0306,-0.3891,0.2268,-0.5549,175
0,-0.6837,-0.0755,-0.002,-0.2888,0.2573,-0.532,175
0,-0.7173,-0.0948,-0.0193,-0.2201,0.2899,-0.52,175
0,-0.7214,-0.1703,-0.0887,-0.1438,0.3489,-0.5124,175
0,-0.85,-0.1703,-0.1194,0.0381,0.3542,-0.4841,175
0,-0.8775,-0.0847,-0.1173,0.0381,0.3542,-0.4841,175
0,-0.8775,-0.0847,-0.1173,0.1438,0.3248,-0.4536,175
0,-0.9449,-0.1173,-0.1337,0.1221,0.2779,-0.4099,175
0,-1.0428,-0.1387,-0.152,0.1482,0.1907,-0.3085,175
0,-1.2153,-0.0887,-0.1724,0.2159,0.0402,-0.1591,175
0,-1.4337,0.0959,-0.203,0.2201,-0.0969,-0.0097,175
0,-1.4092,0.15,-0.1908,0.1274,-0.3008,0.1155,175
0,-1.4622,0.1867,-0.2051,0.0053,-0.4589,0.2125,175
0,-1.45,0.2918,-0.1632,-0.1123,-0.6869,0.2954,175
0,-1.2949,0.4214,0.0652,-0.339,-0.7632,0.2911,175
0,-1.1826,0.4041,0.2163,-0.339,-0.7632,0.2911,175
0,-1.1826,0.4041,0.2163,-0.6062,-0.7937,0.242,175
0,-1.2632,0.3479,0.3479,-0.8002,-0.6617,0.1449,175
0,-1.3387,0.2388,0.3489,-0.8624,-0.5549,0.0316,175
0,-1.4663,-0.1489,-0.0173,-0.8624,-0.5549,0.0316,175
0,-1.3091,-0.2479,-0.1479,-0.5124,-0.2682,-0.1852,175
0,-1.3255,-0.2826,-0.1622,-0.3434,-0.1962,-0.2256,175
0,-1.3541,-0.3184,-0.1091,-0.2768,-0.2518,-0.1951,175
0,-1.355,-0.3826,-0.0541,-0.2768,-0.2518,-0.1951,175
0,-1.3418,-0.3979,-0.1326,-0.1864,-0.2039,-0.1274,175
0,-1.3837,-0.3173,-0.1581,-0.0555,-0.2213,0.0316,175
0,-1.4132,-0.1969,-0.1826,-0.0555,-0.2213,0.0316,175
0,-1.4132,-0.1969,-0.1826,0.085,-0.1984,0.1776,175
0,-1.2867,0.0,-0.1694,0.1144,-0.2888,0.3565,175
0,-1.1602,0.1041,-0.0826,0.1144,-0.2888,0.3565,175
0,-1.0663,0.1806,0.0193,0.1318,-0.339,0.3771,175
0,-1.001,0.1694,0.0602,0.0621,-0.3281,0.3489,175
0,-0.8898,0.1041,0.0704,-0.0534,-0.3227,0.3237,175
0,-0.9081,0.1581,0.0347,-0.0425,-0.2039,0.3041,175
0,-0.7612,0.1326,0.0438,-0.0425,-0.2039,0.3041,175
0,-0.7836,0.0643,-0.0081,-0.1144,-0.1657,0.2966,175
0,-0.6091,-0.0173,0.0163,-0.1144,-0.1657,0.2966,175
0,-0.7316,-0.0847,0.0143,-0.1329,-0.0784,0.2747,175
0,-0.7316,-0.0847,0.0143,-0.1438,-0.0555,0.2485,175
0,-0.6316,-0.1744,-0.004,-0.1711,0.0425,0.218,175
0,-0.6285,-0.2133,-0.0081,-0.1024,0.0589,0.2224,175
0,-0.6041,-0.1459,-0.0071,0.049,0.1384,0.2442,175
0,-0.5418,-0.2194,-0.0449,0.1177,0.1362,0.2693,175
0,-0.6346,-0.2795,-0.0816,0.1057,0.2005,0.2758,175
0,-0.6041,-0.2592,-0.053,0.2039,0.206,0.3096,175
0,-0.6592,-0.2377,-0.105,0.4055,0.1732,0.3935,175
0,-0.6826,-0.1602,-0.102,0.5287,0.1112,0.4372,175
0,-0.605,0.0204,-0.0612,0.665,0.0152,0.4797,175
0,-0.4816,0.0295,-0.0745,0.665,0.0152,0.4797,175
0,-0.4816,0.0295,-0.0745,0.7272,-0.0545,0.4841,175
0,-0.4122,0.0591,-0.0469,0.6944,-0.1503,0.4721,175
0,-0.3561,0.0928,0.0071,0.7075,-0.1864,0.4557,175
0,-0.2428,0.0693,0.0643,0.6596,-0.2245,0.4469,175
0,-0.2765,-0.0204,0.0388,0.5516,-0.2289,0.4034,175
0,-0.2133,-0.1061,0.0071,0.471,-0.2213,0.3641,175
0,-0.2397,-0.049,0.0,0.5942,-0.2573,0.3771,175
0,-0.4836,0.3653,0.105,0.8155,-0.2922,0.4698,175
0,-0.6928,0.5591,0.2683,0.9365,-0.3085,0.5211,175
0,-1.2826,0.7428,0.3714,0.9365,-0.3085,0.5211,175
0,-1.2826,0.7428,0.3714,0.9017,-0.2714,0.4797,175
0,1.9776,1.302,0.6765,1.1676,-0.1547,0.4655,175
0,1.3113,1.1428,-0.3347,1.0717,-0.1242,0.1013,175
0,1.5837,1.3591,-0.7255,0.9594,-0.1264,-0.1972,175
0,1.9102,1.7806,-0.7755,1.3029,-0.1264,-0.2071,175
0,-1.6418,1.9999,-0.4203,1.5013,-0.1787,-0.2922,175
0,-0.952,1.4745,0.1898,0.6791,-0.4023,-0.5593,175
0,-0.8255,0.6785,0.0939,-1.0477,-0.2474,-0.6835,175
0,-0.6949,-0.0061,0.0092,-2.4847,-0.1112,-0.4448,175
0,-0.8918,-0.3347,-0.0163,-2.4847,-0.1112,-0.4448,175
0,-0.8439,-0.7367,-0.1561,-2.6821,0.0523,0.1253,175
0,-0.8439,-0.7367,-0.1561,-2.3462,0.1678,0.5865,175
0,-1.2918,-0.9061,-0.3877,-2.0944,0.3924,0.5221,175
0,-0.8775,-0.5908,-0.0867,-1.1066,0.3085,0.4622,175
0,-0.7959,-0.2551,0.1296,0.2234,0.0763,0.1341,175
0,-0.802,0.2602,0.1479,0.7893,0.2365,-0.255,175
0,-0.8724,0.3163,0.0857,0.9986,0.1526,-0.5647,175
0,-0.7836,0.4888,0.0806,1.0118,0.218,-0.7937,175
0,-0.6898,0.6867,0.1183,1.0009,0.2093,-0.8132,175
0,-0.5948,0.6122,0.0479,0.5538,0.2474,-0.6596,175
0,-0.6541,0.5357,-0.0275,0.5538,0.2474,-0.6596,175
0,-0.5571,0.3653,-0.0745,0.2115,0.267,-0.3281,175
0,-0.5571,0.3653,-0.0745,-0.1646,0.2856,-0.1024,175
0,-0.5561,0.3051,-0.0979,-0.3073,0.2693,-0.0969,175
0,-0.6194,0.4183,0.0061,-0.2125,0.2169,-0.0457,175
0,-0.6714,0.3734,-0.0051,-0.2779,0.1886,-0.0446,175
0,-0.7133,0.3408,-0.0673,-0.4731,0.0599,-0.036,175
0,-0.7632,0.5724,0.0061,-0.4884,-0.061,-0.0294,175
0,-0.9633,0.5571,0.0551,-0.5156,-0.2093,-0.0392,175
1,-1.2296,0.3826,0.105,-0.8601,-0.2256,-0.1428,175
1,-1.8479,0.1928,0.2734,-0.8601,-0.2256,-0.1428,175
1,0.9837,-0.1571,0.3979,-1.2047,-0.2321,-0.2442,175
1,0.9837,-0.1571,0.3979,-1.2157,-0.2191,-0.2812,175
1,1.7715,-0.2275,0.0602,-1.1371,-0.3619,-0.4012,175
1,1.8613,-0.0969,-0.249,-0.7664,-0.4448,-0.4393,175
1,-1.6224,0.0255,-0.0969,-0.4349,-0.1962,-0.4088,175
1,-1.153,-0.6163,-0.3479,-0.9136,-0.1787,-0.4513,175
1,-0.9275,-0.6143,-0.0775,-1.5055,0.0435,-0.35,175
1,-0.7377,-0.5153,0.1755,-0.8962,-0.1013,0.0021,175
1,-0.851,-0.4745,0.1469,-0.8962,-0.1013,0.0021,175
1,-0.6714,-0.3265,0.0836,-0.387,-0.1461,0.11,175
1,-0.7795,-0.2867,-0.0428,-0.1602,-0.1133,0.1188,175
1,-0.7795,-0.2867,-0.0428,-0.2016,-0.1123,-0.0566,175
1,-0.7112,-0.2786,-0.0173,-0.231,-0.025,0.036,175
1,-0.85,-0.2163,0.0561,-0.1253,0.0686,0.1242,175
1,-0.8193,-0.1091,0.153,0.0,0.0774,0.1362,175
1,-0.8602,-0.0591,0.1642,0.1123,0.1591,0.0992,175
1,-0.7092,0.0367,0.1959,0.2169,0.193,0.0631,175
1,-0.7112,0.0071,0.0989,0.2943,0.2758,-0.0011,175
1,-0.5745,-0.0143,0.0336,0.314,0.424,-0.0272,175
1,-0.7326,-0.0163,0.0163,0.314,0.424,-0.0272,175
1,-0.7326,-0.0163,0.0163,0.2453,0.424,-0.0457,175
1,-0.7265,-0.0388,0.0153,0.231,0.5582,-0.0185,175
1,-0.6418,-0.0714,-0.0081,0.2169,0.5647,0.0337,175
1,-0.6735,-0.1765,-0.0816,0.193,0.6345,0.0883,175
1,-0.7418,-0.2153,-0.0979,0.1047,0.6367,0.1274,175
1,-0.6918,-0.2133,-0.0948,0.1744,0.6508,0.1831,175
1,-0.6694,-0.2061,-0.1,0.2507,0.6203,0.2147,175
1,-0.6449,-0.2581,-0.0786,0.2954,0.6323,0.2213,175
1,-0.6367,-0.251,-0.101,0.3412,0.6127,0.23,175
1,-0.6459,-0.15,-0.0724,0.3412,0.6127,0.23,175
1,-0.6459,-0.15,-0.0724,0.4992,0.6138,0.2844,175
1,-0.65,-0.0255,-0.0081,0.6454,0.6072,0.3477,175
1,-0.8326,-0.0112,-0.0673,0.5757,0.5908,0.375,175
1,-0.8887,0.0132,-0.1071,0.5505,0.5418,0.4012,175
1,-0.9867,0.1091,-0.1082,0.6497,0.4109,0.4372,175
1,-1.0877,0.199,-0.1224,0.7903,0.2899,0.4633,175
1,-1.1,0.5163,-0.1581,0.858,0.1112,0.388,175
1,-1.1724,0.6102,-0.1234,0.8624,-0.0174,0.1384,175
1,-1.2643,0.7571,-0.0684,0.8907,-0.085,-0.0948,175
1,-1.8061,0.9633,0.1326,0.7751,-0.1232,-0.2617,175
1,1.8878,0.8622,0.1959,0.7751,-0.1232,-0.2617,175
1,1.8878,0.8622,0.1959,0.5091,-0.098,-0.3445,175
1,1.7603,0.6112,0.0,0.1591,-0.0828,-0.2268,175
1,1.9623,0.4581,-0.3347,0.0925,-0.1308,-0.1123,175
1,-1.6143,1.303,-0.299,0.6759,-0.1417,-0.025,175
1,-1.2479,1.299,-0.1408,1.003,-0.181,-0.0425,175
1,-1.1316,1.0428,-0.1703,0.3227,-0.2191,-0.4481,175
1,-1.2918,0.6428,-0.2163,-0.5734,-0.1297,-0.5854,175
1,-1.3184,-0.1265,-0.1306,-1.0041,-0.1907,-0.5713,175
1,-1.2571,-0.2112,-0.0928,-0.8056,-0.0795,-0.4742,175
1,-1.1489,-0.2898,-0.0918,-0.8056,-0.0795,-0.4742,175
1,-1.3765,-0.353,-0.1551,-0.5047,-0.1428,-0.2201,175
1,-1.3765,-0.353,-0.1551,-0.2768,-0.0523,-0.0806,175
1,-1.1285,-0.2888,-0.2204,0.0643,-0.0969,-0.0883,175
1,-1.1602,-0.049,-0.1826,0.6018,-0.1732,-0.194,175
1,-1.101,0.25,-0.0745,1.0694,-0.1428,-0.1667,175
1,-0.9826,0.3653,-0.0408,1.0423,-0.2049,-0.1558,175
1,-0.9235,0.1847,-0.153,0.6749,-0.1787,-0.218,175
1,-0.902,0.251,-0.1449,0.5679,-0.2344,-0.2104,175
1,-0.8857,0.4122,-0.0704,0.7838,-0.2474,-0.1875,175
1,-0.8,0.4387,-0.0786,0.7838,-0.2474,-0.1875,175
1,-0.7847,0.3071,-0.1949,0.7588,-0.2747,-0.2104,175
1,-0.7847,0.3071,-0.1949,0.5396,-0.2464,-0.3019,175
1,-0.7449,0.3561,-0.1816,0.5549,-0.2104,-0.3052,175
1,-0.7336,0.4203,-0.1224,0.6465,-0.2027,-0.3248,175
1,-0.7173,0.2101,-0.1102,0.4099,-0.1776,-0.4775,175
1,-0.704,0.1765,-0.0796,0.4219,-0.1776,-0.5145,175
1,-0.7173,0.1632,-0.0541,0.496,-0.1623,-0.5287,175
1,-0.7061,0.1112,-0.0622,0.4982,-0.1558,-0.5299,175
1,-0.7081,0.05,-0.105,0.5233,-0.1384,-0.5135,175
1,-0.7101,0.0826,-0.0887,0.6377,-0.1253,-0.4655,175
1,-0.7,0.0948,-0.1082,0.6988,-0.11,-0.4307,175
1,-0.6755,0.0704,-0.1224,0.6988,-0.11,-0.4307,175
1,-0.6755,0.0704,-0.1224,0.6803,-0.1144,-0.4065,175
1,-0.6602,0.0541,-0.1082,0.6988,-0.0925,-0.3783,175
1,-0.6714,0.0265,-0.1041,0.726,-0.0784,-0.3532,175
1,-0.6837,-0.0255,-0.1183,0.7283,-0.0381,-0.3412,174
1,-0.6837,-0.0826,-0.1275,0.7642,-0.0065,-0.3271,174
1,-0.6877,-0.1041,-0.1326,0.87,0.0349,-0.3019,174
1,-0.7214,-0.1296,-0.1163,0.9736,0.0643,-0.2779,174
1,-0.7357,-0.1887,-0.0867,1.0139,0.0894,-0.2485,174
1,-0.8081,-0.252,-0.0643,1.0684,0.1274,-0.193,174
1,-1.002,-0.2877,-0.052,1.0684,0.1274,-0.193,174
1,-1.2704,-0.249,-0.0663,1.1785,0.1537,-0.1003,174
1,-1.2704,-0.249,-0.0663,1.2962,0.1831,0.0294,174
1,-1.401,-0.1592,-0.0357,1.4183,0.1678,0.1798,174
1,-1.8418,-0.105,-0.0449,1.4347,0.1035,0.2976,174
1,-1.9408,-0.0622,-0.1204,1.3889,0.0402,0.3979,174
1,1.8582,0.1173,-0.0836,1.462,-0.0806,0.4992,174
1,1.8511,0.3765,-0.0367,1.5328,-0.2125,0.5908,174
1,-1.8398,0.5734,0.1908,1.3399,-0.3804,0.6333,174
1,-1.5214,0.3663,0.2173,0.8275,-0.508,0.6181,174
1,-1.5204,0.0541,0.2234,0.339,-0.4938,0.569,174
1,-1.3357,-0.1928,0.203,0.339,-0.4938,0.569,174
1,-1.2336,-0.3755,0.1387,0.1907,-0.4677,0.5822,174
1,-1.2336,-0.3755,0.1387,0.375,-0.4666,0.628,174
1,-1.3612,-0.3041,0.1,0.6476,-0.3771,0.6759,174
1,-1.1541,-0.1887,0.1204,0.9975,-0.3729,0.6966,174
1,-1.2285,-0.0255,0.1765,1.2352,-0.3466,0.6552,174
1,-1.1204,-0.0245,0.0867,1.256,-0.3117,0.5898,174
1,-1.2408,-0.0357,0.0092,1.2058,-0.2453,0.5211,174
1,-1.103,0.0541,-0.0183,1.3607,-0.2147,0.5135,174
1,-1.1775,0.1887,-0.0163,1.5099,-0.2027,0.5059,174
1,-0.9673,0.201,-0.0581,1.5099,-0.2027,0.5059,174
1,-0.9877,0.1826,-0.0979,1.4664,-0.243,0.4721,174
1,-0.9877,0.1826,-0.0979,1.3868,-0.2605,0.4164,174
1,-0.8979,0.1979,-0.1255,1.4118,-0.2922,0.3771,174
1,-0.9408,0.2724,-0.1132,1.5002,-0.3151,0.3445,174
2,-0.7918,0.2245,-0.1234,1.4609,-0.3891,0.3031,174
2,-0.8112,0.1306,-0.1408,1.3366,-0.4034,0.2365,174
2,-0.7693,0.0847,-0.1245,1.33,-0.4458,0.1995,174
2,-0.799,0.1091,-0.0857,1.4031,-0.4786,0.181,174
2,-0.7806,0.0591,-0.0469,1.4031,-0.4786,0.181,174
2,-0.8224,-0.0051,-0.053,1.4107,-0.5112,0.1657,174
2,-0.7795,-0.0581,-0.0826,1.3595,-0.5287,0.1384,174
2,-0.7795,-0.0581,-0.0826,1.3834,-0.5625,0.1329,174
2,-0.7877,-0.0591,-0.0724,1.4958,-0.5767,0.1449,174
2,-0.8041,-0.0061,-0.0908,1.5885,-0.6018,0.1646,174
2,-0.8377,0.0388,-0.103,1.6419,-0.6116,0.182,174
2,-0.8387,0.1,-0.1214,1.7018,-0.6257,0.2081,174
2,-0.855,0.1703,-0.1071,1.727,-0.6356,0.23,174
2,-0.8132,0.1663,-0.1173,1.6637,-0.6432,0.2376,174
2,-0.8041,0.1663,-0.1204,1.6157,-0.6356,0.2474,174
2,-0.7938,0.2122,-0.0959,1.6157,-0.6356,0.2474,174
2,-0.7938,0.2122,-0.0959,1.6539,-0.6213,0.2725,174
2,-0.7683,0.2173,-0.0377,1.6451,-0.6072,0.2844,174
2,-0.7745,0.1367,-0.0286,1.5372,-0.5669,0.2714,174
2,-0.7571,0.0786,-0.0204,1.4936,-0.5299,0.2649,174
2,-0.7826,0.0714,0.0051,1.5601,-0.4557,0.2714,174
2,-0.8163,0.0479,0.0398,1.6005,-0.3804,0.2758,174
2,-0.8204,-0.0734,-0.0245,1.5591,-0.2802,0.2583,174
2,-0.9571,-0.1377,-0.0591,1.5841,-0.1449,0.2409,174
2,-0.9041,-0.151,-0.1091,1.7455,-0.1047,0.2638,174
2,-1.002,-0.1183,-0.1561,1.7455,-0.1047,0.2638,174
2,-1.002,-0.1183,-0.1561,1.8905,-0.0349,0.2878,174
2,-0.9888,-0.103,-0.1826,1.9755,-0.0326,0.314,174
2,-1.0449,-0.052,-0.1663,2.0889,-0.0021,0.351,174
2,-0.95,-0.0357,-0.1703,2.1554,-0.0185,0.4012,174
2,-0.95,-0.053,-0.1806,2.1554,0.0043,0.4536,174
2,-0.9132,-0.0286,-0.1755,2.1947,-0.0011,0.5276,174
2,-0.9653,0.0734,-0.1551,2.3321,0.0337,0.6106,174
2,-0.9581,0.1969,-0.1439,2.4324,0.0479,0.6825,174
2,-0.9969,0.3428,-0.2061,2.4301,0.0686,0.714,174
2,-1.0,0.3775,-0.2408,2.3964,0.0795,0.7217,174
2,-1.0684,0.4663,-0.2255,2.3964,0.0795,0.7217,174
2,-1.0684,0.4663,-0.2255,2.3985,0.0774,0.714,174
2,-1.1112,0.4847,-0.2224,2.3561,0.049,0.6225,174
2,-1.3602,0.4061,-0.2316,2.2503,0.0414,0.5255,174
2,-1.4092,0.4642,-0.2255,2.2983,-0.0643,0.5833,174
2,-1.4571,0.5551,-0.2,2.3626,-0.1678,0.5734,174
2,-1.5275,0.6418,-0.2347,2.3778,-0.2791,0.5473,174
2,-1.4428,0.7857,-0.2663,2.3887,-0.4349,0.4372,174
2,-1.3316,0.851,-0.2418,2.4105,-0.5799,0.267,174
2,-1.2061,0.8837,-0.1938,2.367,-0.6759,0.0948,174
2,-1.0684,0.8683,-0.1214,2.367,-0.6759,0.0948,174
2,-0.9745,0.6806,-0.0652,2.2142,-0.7413,0.0349,174
2,-0.9745,0.6806,-0.0652,1.9799,-0.7478,0.1123,174
2,-0.9224,0.5979,-0.0581,1.8567,-0.7152,0.0784,174
2,-0.852,0.5826,-0.0581,1.9177,-0.7239,0.0457,174
2,-0.8683,0.5857,-0.0438,1.9483,-0.6934,0.036,174
2,-0.8326,0.502,-0.0898,1.8927,-0.6791,0.0316,174
2,-0.8102,0.449,-0.1183,1.8458,-0.6465,0.0228,174
2,-0.8347,0.4337,-0.1173,1.8731,-0.6203,0.0381,174
2,-0.8479,0.4551,-0.1041,1.9134,-0.5974,0.0511,174
2,-0.9,0.4214,-0.1326,1.9134,-0.5974,0.0511,174
2,-0.9,0.449,-0.1408,1.9046,-0.5723,0.0479,174
2,-0.9,0.449,-0.1408,1.921,-0.5757,0.0555,174
2,-0.9051,0.5102,-0.1214,1.9832,-0.5799,0.0643,174
2,-0.9153,0.553,-0.1346,1.9658,-0.5931,0.0599,174
2,-0.8704,0.5153,-0.1551,1.8708,-0.6159,0.049,174
2,-0.8745,0.4816,-0.1826,1.8054,-0.6356,0.0414,174
2,-0.8459,0.4765,-0.1816,1.8174,-0.6661,0.0402,174
2,-0.7888,0.4755,-0.1714,1.8305,-0.6923,0.037,174
2,-0.7612,0.4745,-0.1612,1.813,-0.7098,0.0196,174
2,-0.7418,0.499,-0.1428,1.813,-0.7098,0.0196,174
2,-0.7275,0.4979,-0.1143,1.7804,-0.7249,-0.0577,174
2,-0.7408,0.4724,-0.1296,1.7804,-0.7249,-0.0577,174
2,-0.7408,0.4724,-0.1296,1.7411,-0.7239,-0.098,174
2,-0.7479,0.4694,-0.1275,1.7542,-0.7184,-0.1396,174
2,-0.7632,0.502,-0.1194,1.7989,-0.7228,-0.1776,174
2,-0.7949,0.5204,-0.1183,1.7978,-0.7184,-0.2201,174
2,-0.8245,0.5204,-0.1346,1.7705,-0.7064,-0.267,174
2,-0.8357,0.5173,-0.1357,1.7619,-0.6978,-0.3085,174
2,-0.8673,0.5224,-0.1377,1.7586,-0.6846,-0.3422,174
2,-0.8785,0.5051,-0.151,1.7411,-0.6814,-0.3794,174
2,-0.8969,0.501,-0.1694,1.7313,-0.6803,-0.4153,174
2,-0.8989,0.5122,-0.1703,1.7313,-0.6803,-0.4153,174
2,-0.8989,0.5132,-0.1703,1.7487,-0.6791,-0.4426,174
2,-0.8989,0.5132,-0.1703,1.7378,-0.6846,-0.4742,174
2,-0.901,0.5,-0.1806,1.7018,-0.6901,-0.5112,174
2,-0.8969,0.4857,-0.1826,1.6833,-0.7054,-0.5418,174
2,-0.901,0.5071,-0.1694,1.6779,-0.7108,-0.5658,174
2,-0.8785,0.5326,-0.1449,1.6724,-0.713,-0.5887,174
2,-0.8806,0.5969,-0.0898,1.6398,-0.6966,-0.6138,174
2,-0.8837,0.5887,-0.0857,1.5536,-0.6682,-0.6476,174
2,-0.8826,0.5826,-0.105,1.4794,-0.6377,-0.6803,174
2,-0.8826,0.5898,-0.103,1.4424,-0.5942,-0.713,174
2,-0.8745,0.6183,-0.0591,1.4424,-0.5942,-0.713,174
2,-0.8571,0.5939,-0.0684,1.3933,-0.557,-0.7392,174
2,-0.8571,0.5939,-0.0684,1.305,-0.5059,-0.7762,174
2,-0.8683,0.5765,-0.0867,1.2439,-0.4513,-0.8035,174
2,-0.8653,0.5867,-0.0755,1.209,-0.4044,-0.822,174
2,-0.8622,0.5612,-0.0724,1.1196,-0.3641,-0.8373,174
2,-0.8541,0.4918,-0.0816,0.9899,-0.3161,-0.859,174
2,-0.85,0.4306,-0.0877,0.9038,-0.2758,-0.8613,174
2,-0.8377,0.3775,-0.0775,0.8754,-0.2289,-0.8504,174
2,-0.8184,0.2928,-0.0316,0.8613,-0.1831,-0.8351,174
2,-0.8214,0.2357,0.001,0.8613,-0.1831,-0.8351,174
2,-0.8408,0.2071,0.0541,0.8525,-0.1308,-0.8111,174
2,-0.8408,0.2071,0.0541,0.8819,-0.0643,-0.7676,174
2,-0.9938,0.1847,0.1632,0.9463,0.0196,-0.6966,174
2,-1.0112,0.1806,0.201,0.9997,0.086,-0.6497,174
2,-1.1245,0.1694,0.1581,1.0641,0.157,-0.5778,174
2,-1.2745,0.2653,0.1785,1.1764,0.2256,-0.5015,174
2,-1.3336,0.3377,0.2653,1.1556,0.1995,-0.4448,174
2,-1.2357,0.2479,0.2816,0.9855,0.2191,-0.4502,174
2,-1.302,0.1592,0.2867,0.9071,0.2039,-0.4448,174
2,-1.2847,0.1275,0.3122,0.9071,0.2039,-0.4448,174
3,-1.3867,0.0643,0.1918,0.967,0.2027,-0.4034,174
3,-1.3867,0.0643,0.1918,1.027,0.2365,-0.3575,174
3,-1.2326,0.0928,0.1541,1.1022,0.2039,-0.3008,174
3,-1.3081,0.1337,0.1408,1.1382,0.1766,-0.2573,174
3,-1.1887,0.1337,0.1724,1.0673,0.1123,-0.2224,174
3,-1.1245,0.0388,0.151,0.9582,0.0937,-0.1984,174
3,-1.0836,0.1194,0.1683,1.0128,0.0523,-0.1286,174
3,-1.0377,0.2418,0.2081,1.1033,0.037,-0.049,174
3,-0.9408,0.2826,0.2214,0.9746,0.0185,-0.0152,174
3,-0.8245,0.15,0.1938,0.9746,0.0185,-0.0152,174
3,-0.8245,0.15,0.1938,0.7795,0.0337,-0.0076,174
3,-0.8152,0.1602,0.2163,0.7598,0.0599,0.0097,174
3,-0.7918,0.1796,0.2408,0.8056,0.11,0.0621,174
3,-0.8867,0.1735,0.2234,0.7544,0.1722,0.0675,174
3,-0.9183,0.0948,0.1418,0.7435,0.1896,0.0043,174
3,-0.8837,0.103,0.1326,0.8329,0.2268,-0.0511,174
3,-0.9428,0.1132,0.1224,0.8994,0.2529,-0.0839,174
3,-0.9949,0.1163,0.102,0.8874,0.2659,-0.1079,174
3,-1.052,0.0755,0.0214,0.871,0.2758,-0.1242,174
3,-1.0183,0.0989,0.001,0.871,0.2758,-0.1242,174
3,-1.0183,0.0989,0.001,0.9114,0.2617,-0.1188,174
3,-1.0551,0.1255,-0.0051,0.9256,0.2485,-0.1232,174
3,-0.9928,0.0867,-0.0061,0.8525,0.1995,-0.1406,174
3,-1.0081,-0.0367,-0.0541,0.8122,0.1776,-0.1547,174
3,-0.9897,-0.0398,-0.0418,0.8874,0.1352,-0.1471,174
3,-1.0092,-0.0214,-0.0347,0.966,0.1035,-0.1352,174
3,-0.9959,-0.0255,-0.0469,0.9681,0.0654,-0.1341,174
3,-1.001,-0.0724,-0.0928,0.9801,0.0294,-0.1329,174
3,-0.9969,-0.0438,-0.0948,1.0662,-0.0162,-0.1198,174
3,-1.0143,0.0081,-0.0786,1.1306,-0.0457,-0.1112,174
3,-1.0071,0.0306,-0.0887,1.1306,-0.0457,-0.1112,174
3,-1.0071,0.0306,-0.0887,1.1218,-0.0904,-0.1144,174
3,-0.9836,0.0336,-0.0959,1.1142,-0.1308,-0.1188,174
3,-0.9796,0.0652,-0.0847,1.1382,-0.1623,-0.1177,174
3,-0.9581,0.0847,-0.0816,1.136,-0.2016,-0.1155,174
3,-0.9387,0.0847,-0.0867,1.1131,-0.2245,-0.1155,174
3,-0.9183,0.1153,-0.0928,1.1186,-0.2388,-0.1079,174
3,-0.9183,0.1326,-0.0887,1.1098,-0.2518,-0.098,174
3,-0.9173,0.1245,-0.1102,1.0673,-0.2638,-0.0959,174
3,-0.8979,0.0673,-0.1091,1.0357,-0.2682,-0.0969,174
3,-0.8989,0.0418,-0.1041,1.0357,-0.2682,-0.0969,174
3,-0.9051,0.0234,-0.0826,1.028,-0.2693,-0.0925,174
3,-0.9051,0.0234,-0.0826,1.0455,-0.2693,-0.0719,174
3,-0.9061,0.001,-0.0989,1.052,-0.2594,-0.0457,174
3,-0.8989,-0.0255,-0.0908,1.0618,-0.2529,-0.0108,174
3,-0.8806,-0.0245,-0.052,1.0935,-0.2464,0.0316,174
3,-0.8694,-0.0122,-0.0367,1.1131,-0.2321,0.0664,174
3,-0.8286,0.001,0.0,1.1251,-0.2104,0.0959,174
3,-0.7826,-0.0214,0.0204,1.1142,-0.1657,0.1112,174
3,-0.7306,-0.05,0.0357,1.0935,-0.1068,0.1198,174
3,-0.6785,-0.1102,0.0092,1.0935,-0.1068,0.1198,174
3,-0.7418,-0.0887,0.0204,1.0902,-0.0228,0.1635,174
3,-0.7418,-0.0887,0.0204,1.1077,0.0818,0.3117,174
3,-0.7479,-0.1612,-0.0428,1.0837,0.1503,0.3891,174
3,-0.7499,-0.2265,-0.1041,1.1186,0.2213,0.3804,174
3,-0.7908,-0.199,-0.1367,1.3203,0.2703,0.363,174
3,-0.801,-0.0908,-0.1204,1.5242,0.3008,0.3891,174
3,-0.8928,-0.0051,-0.1398,1.4958,0.3346,0.4197,174
3,-0.9132,-0.053,-0.1653,1.3933,0.3422,0.4469,174
3,-0.9622,-0.0479,-0.1296,1.4391,0.3412,0.495,174
3,-1.0398,0.0132,-0.0979,1.4391,0.3412,0.495,174
3,-1.1663,0.0755,-0.1061,1.5209,0.3216,0.5484,174
3,-1.1663,0.0755,-0.1061,1.5122,0.2888,0.5833,174
3,-1.2122,0.1255,-0.0979,1.5307,0.2333,0.6213,174
3,-1.1887,0.2092,-0.0775,1.5906,0.1558,0.6606,174
3,-1.2224,0.2949,-0.0204,1.5917,0.1373,0.6814,174
3,-1.2296,0.4102,0.0224,1.5471,0.1013,0.689,174
3,-1.3602,0.4826,-0.0561,1.4773,0.0457,0.6007,174
3,-1.4183,0.5622,-0.0796,1.4904,-0.0053,0.581,174
3,-1.3653,0.6316,-0.0469,1.3781,-0.0969,0.4938,174
3,-1.2877,0.5714,-0.001,1.1905,-0.1907,0.3804,174
3,-1.2194,0.4581,0.0286,1.0761,-0.2344,0.2605,174
3,-1.1673,0.3837,0.0643,1.0913,-0.2725,0.1646,174
3,-1.0632,0.2786,0.0908,1.1272,-0.2987,0.0948,174
3,-0.999,0.2265,0.0479,1.1382,-0.3073,0.0631,174
3,-0.999,0.2408,0.0245,1.1382,-0.3073,0.0631,174
3,-0.9959,0.3224,0.0479,1.2439,-0.3008,0.0828,174
3,-0.9959,0.3224,0.0479,1.3258,-0.2932,0.1297,174
3,-0.9969,0.4387,0.0724,1.2876,-0.2844,0.1613,174
3,-1.0326,0.4357,0.0377,1.2123,-0.2605,0.182,174
3,-1.0643,0.4806,0.0173,1.2298,-0.2485,0.2071,174
3,-1.0939,0.5939,0.0316,1.2232,-0.2365,0.2125,174
3,-1.0541,0.5765,0.004,1.1218,-0.2409,0.1984,174
3,-1.1418,0.5632,-0.001,1.0171,-0.2388,0.181,174
3,-1.0428,0.5255,-0.0092,0.9321,-0.2867,0.1831,174
3,-1.0428,0.5255,-0.0092,0.9321,-0.2867,0.1831,174
3,-0.9734,0.3775,-0.0418,0.846,-0.2844,0.1787,174
3,-0.9959,0.3969,-0.0153,0.8329,-0.3096,0.1864,174
3,-0.9071,0.3979,0.0255,0.8351,-0.3422,0.2071,174
3,-0.8255,0.3081,0.049,0.7075,-0.3466,0.1907,174
3,-0.7133,0.199,0.002,0.7249,-0.3357,0.1919,174
3,-0.7061,0.3214,0.0826,0.9376,-0.3193,0.2289,174
3,-0.6612,0.353,0.1265,0.9027,-0.3063,0.2224,174
3,-0.651,0.2438,0.0663,0.7293,-0.2659,0.1755,174
3,-0.6551,0.2826,0.0255,0.8645,-0.2453,0.1907,174
3,-0.6959,0.4387,0.1,0.8645,-0.2453,0.1907,174
3,-0.6959,0.4387,0.1,1.0467,-0.2147,0.2191,174
3,-0.6265,0.4398,0.0877,0.883,-0.2081,0.1831,174
3,-0.6857,0.3347,0.0071,0.7174,-0.1667,0.1417,174
3,-0.6449,0.4275,0.0153,0.8493,-0.1722,0.1635,174
3,-0.6775,0.5377,0.0622,0.8983,-0.1471,0.1581,174
3,-0.6091,0.5092,0.0367,0.6803,-0.1581,0.1035,174
3,-0.605,0.4265,0.0061,0.5549,-0.1297,0.0555,174
3,-0.553,0.4612,0.0693,0.6159,-0.1198,0.0326,174
3,-0.5418,0.4836,0.1,0.5843,-0.0872,-0.0141,174
3,-0.502,0.4275,0.0898,0.5843,-0.0872,-0.0141,174
3,-0.4928,0.355,0.0622,0.4502,-0.0425,-0.0818,174
3,-0.4928,0.355,0.0622,0.4208,0.0076,-0.1318,174
3,-0.4469,0.3796,0.0551,0.5004,0.049,-0.1613,174
3,-0.4285,0.4061,0.0643,0.5112,0.0925,-0.2027,174
3,-0.401,0.3816,0.0652,0.4263,0.1417,-0.267,174
4,-0.4214,0.3367,0.0367,0.3794,0.2049,-0.3281,174
4,-0.4438,0.2888,0.0367,0.4023,0.2495,-0.3891,174
4,-0.5092,0.2795,0.0234,0.4263,0.3073,-0.4524,174
4,-0.5643,0.2734,0.0122,0.4568,0.3466,-0.5124,174
4,-0.65,0.2888,0.0,0.4568,0.3466,-0.5124,174
4,-0.7683,0.3561,-0.0183,0.5047,0.3968,-0.557,174
4,-0.7683,0.3561,-0.0183,0.5156,0.4229,-0.5877,174
4,-0.8224,0.3387,-0.0551,0.4502,0.4481,-0.6148,174
4,-0.8275,0.2836,-0.0887,0.3739,0.4469,-0.6301,174
4,-0.8612,0.2285,-0.1173,0.3609,0.4393,-0.6213,174
4,-0.7908,0.1744,-0.0969,0.3456,0.4023,-0.5996,174
4,-0.8398,0.1275,-0.0948,0.3292,0.412,-0.5865,174
4,-0.7786,0.0908,-0.1102,0.3695,0.3838,-0.5614,174
4,-0.7908,0.1091,-0.0755,0.4426,0.3946,-0.5353,174
4,-0.8602,0.101,-0.0734,0.4426,0.3946,-0.5353,174
4,-0.999,0.0786,-0.0581,0.4721,0.3815,-0.5036,174
4,-1.1908,0.0734,-0.0989,0.4578,0.3695,-0.4481,174
4,-1.1908,0.0734,-0.0989,0.4763,0.2791,-0.3227,174
4,-1.6296,0.3591,-0.0745,0.545,0.1177,-0.1591,174
4,-1.7296,0.4745,-0.0663,0.412,-0.1242,-0.0196,174
4,-1.7377,0.4438,-0.1082,0.0511,-0.3729,0.0425,174
4,-1.6541,0.3541,-0.1316,-0.2245,-0.5679,0.0795,174
4,-1.5571,0.2204,0.1398,-0.3227,-0.6072,0.036,174
4,-1.5887,0.1082,0.2632,-0.4034,-0.545,-0.0523,174
4,-1.6112,-0.0632,0.2101,-0.4034,-0.545,-0.0523,174
4,-1.6112,-0.0632,0.2101,-0.4524,-0.4284,-0.1635,174
4,-1.4408,-0.351,-0.1653,-0.3565,-0.339,-0.2507,174
4,-1.4408,-0.351,-0.1653,-0.2005,-0.2268,-0.2529,174
4,-1.2388,-0.4061,-0.1428,-0.1013,-0.2791,-0.2104,174
4,-1.2397,-0.4775,-0.1214,0.049,-0.2878,-0.1875,174
4,-1.3204,-0.351,-0.052,0.4307,-0.3302,-0.1089,174
4,-1.2061,0.1806,0.0734,0.6291,-0.3325,0.0349,174
4,-1.1632,0.2255,-0.004,0.4077,-0.2844,0.0992,174
4,-1.1785,0.1408,-0.0693,0.1047,-0.2594,0.1297,174
4,-1.0214,0.0428,-0.1082,0.0763,-0.2529,0.1471,174
4,-1.0081,0.1255,0.0092,0.0763,-0.2529,0.1471,174
4,-1.0081,0.1255,0.0092,0.1547,-0.2268,0.1678,174
4,-0.9377,0.1245,0.0663,0.0948,-0.2354,0.1635,174
4,-0.9265,0.0469,0.0898,-0.0162,-0.2016,0.1308,174
4,-0.7755,-0.0367,0.1214,0.0131,-0.1602,0.1264,174
4,-0.603,-0.051,0.1082,0.1123,-0.0904,0.1286,174
4,-0.7438,-0.0632,0.0918,0.1493,0.0566,0.1188,174
4,-0.6234,-0.0979,0.0775,0.1297,0.0818,0.1428,174
4,-0.5806,-0.1265,0.0551,0.1852,0.1972,0.1493,174
4,-0.5541,-0.105,0.0836,0.2812,0.2714,0.1875,174
4,-0.6337,-0.0959,0.053,0.2812,0.2714,0.1875,174
4,-0.6337,-0.0959,0.053,0.3052,0.3641,0.2016,174
4,-0.5836,-0.1387,-0.001,0.2703,0.4055,0.2191,174
4,-0.6357,-0.1785,-0.0388,0.3096,0.4611,0.2398,174
4,-0.6632,-0.1755,-0.0459,0.3924,0.4775,0.2768,174
4,-0.6765,-0.1735,-0.052,0.4317,0.4862,0.2998,174
4,-0.6867,-0.1857,-0.0693,0.4677,0.4938,0.3248,174
4,-0.7061,-0.1561,-0.1,0.5625,0.4916,0.3663,174
4,-0.6683,0.0265,-0.0541,0.6171,0.4884,0.3848,174
4,-0.6703,0.0347,-0.0622,0.5167,0.4786,0.3761,174
4,-0.6489,-0.0132,-0.0928,0.5167,0.4786,0.3761,174
4,-0.7061,0.0438,-0.0663,0.4492,0.471,0.3739,174
4,-0.7061,0.0438,-0.0663,0.5179,0.4481,0.3935,174
4,-0.7847,0.1112,-0.0306,0.5582,0.4077,0.3946,174
4,-0.9469,0.1316,-0.049,0.5112,0.3314,0.3771,174
4,-1.0734,0.1592,-0.0796,0.5516,0.1951,0.3706,174
4,-1.2581,0.4469,-0.0204,0.6672,0.0272,0.3729,174
4,-1.4183,0.6194,0.0143,0.6759,-0.1013,0.3096,174
4,-1.4857,0.7101,0.0581,0.5908,-0.2289,0.1308,174
4,-1.5295,0.8,0.1428,0.5124,-0.3063,0.0043,174
4,-1.7806,0.9255,0.1194,0.5124,-0.3063,0.0043,174
4,-1.6714,1.0031,-0.2101,0.2758,-0.2027,0.1242,174
4,-1.5112,1.1479,-0.2847,0.2758,-0.2027,0.1242,174
4,-1.2153,1.2898,-0.1041,0.2289,-0.1852,0.1471,174
4,-1.1592,1.0796,0.0143,-0.036,-0.1274,-0.0228,174
4,-1.1592,1.0796,0.0143,-0.6574,-0.1047,-0.1766,174
4,-1.1785,0.5388,-0.0255,-1.3029,-0.0108,-0.339,174
4,-1.3398,0.0581,-0.0816,-1.2428,0.0555,-0.3193,174
4,-1.4285,-0.2101,-0.0806,-0.8242,0.0708,-0.085,174
4,-1.3377,-0.2592,-0.1224,-0.5723,0.0316,-0.0305,174
4,-1.302,-0.4183,-0.2255,-0.3357,0.049,-0.085,174
4,-1.2857,-0.3745,-0.2336,0.1003,-0.0425,-0.0883,174
4,-1.053,0.0071,-0.0224,0.4469,-0.0316,-0.0435,174
4,-1.053,0.0071,-0.0224,0.4469,-0.0316,-0.0435,174
4,-0.8887,0.151,0.0265,0.4578,-0.0566,0.0316,174
4,-0.7561,0.2101,0.0652,0.314,-0.0185,0.0511,174
4,-0.7928,0.2531,0.0,0.2976,0.0305,0.0698,174
4,-0.5826,0.4122,0.0193,0.3161,0.036,0.0534,174
4,-0.6132,0.4816,0.0193,0.231,0.1013,0.0479,174
4,-0.5347,0.4642,0.0153,0.0087,0.1417,0.025,174
4,-0.5245,0.3704,-0.0428,-0.0839,0.2039,-0.0141,174
4,-0.5316,0.4377,-0.0102,0.0043,0.2213,-0.0326,174
4,-0.4959,0.4857,-0.0051,-0.0305,0.2495,-0.0763,174
4,-0.5204,0.4622,-0.0081,-0.0305,0.2495,-0.0763,174
4,-0.5204,0.4622,-0.0081,-0.1657,0.2954,-0.1558,174
4,-0.4928,0.3959,-0.0336,-0.1919,0.338,-0.2224,174
4,-0.5561,0.4112,-0.0061,-0.1428,0.3848,-0.2703,174
4,-0.5887,0.4122,0.001,-0.1831,0.4328,-0.326,174
4,-0.6337,0.3448,-0.0153,-0.3085,0.4753,-0.3826,174
4,-0.6561,0.2275,-0.0581,-0.3205,0.5112,-0.4034,174
4,-0.7275,0.2122,-0.0857,-0.1951,0.5255,-0.3914,174
4,-0.7449,0.2663,-0.0561,-0.1701,0.5396,-0.387,174
4,-0.7469,0.2101,-0.0816,-0.3151,0.5473,-0.4065,174
4,-0.7908,0.0224,-0.1489,-0.3151,0.5473,-0.4065,174
4,-0.7724,0.0438,-0.1326,-0.3302,0.5528,-0.4044,174
4,-0.7724,0.0438,-0.1326,-0.1907,0.5255,-0.3663,174
4,-0.7755,0.0745,-0.0918,-0.1537,0.5059,-0.3346,174
4,-0.8041,0.0449,-0.1204,-0.2159,0.4687,-0.3117,174
4,-0.951,-0.0286,-0.1714,-0.2016,0.4317,-0.2659,174
4,-1.0163,0.0,-0.1969,-0.1341,0.3302,-0.1787,174
4,-1.1102,0.0989,-0.1785,-0.1024,0.2201,-0.0828,174
4,-1.2204,0.1775,-0.1367,-0.2453,0.0534,0.0053,174
4,-1.3163,0.0469,-0.1265,-0.4469,-0.1013,0.0751,174
4,-1.3612,0.0071,-0.0693,-0.4469,-0.1013,0.0751,174
5,-1.4071,0.0479,0.0398,-0.4513,-0.2268,0.1417,174
5,-1.4071,0.0479,0.0398,-0.3248,-0.3063,0.1776,174
5,-1.504,0.1041,0.151,-0.2966,-0.3063,0.1613,174
5,-1.6755,0.0867,0.0224,-0.3292,-0.2365,0.1112,174
5,-1.6285,0.0112,-0.1744,-0.3597,-0.1318,0.085,174
5,-1.7214,-0.0336,-0.3418,-0.3477,-0.0206,0.061,174
5,-1.5398,-0.0581,-0.3663,-0.387,-0.0719,0.0402,174
5,-1.4724,0.001,-0.2786,-0.2899,-0.1396,0.0294,174
5,-1.1683,0.1285,-0.1928,-0.181,-0.3041,0.0675,174
5,-1.3224,0.2908,-0.1071,-0.181,-0.3041,0.0675,174
5,-1.0591,0.3184,-0.0969,-0.2169,-0.2779,0.0708,174
5,-1.0061,0.1194,-0.1132,-0.4481,-0.3325,0.0925,174
5,-1.0061,0.1194,-0.1132,-0.6333,-0.2201,0.0751,174
5,-0.9326,0.0031,-0.1275,-0.6574,-0.1886,0.1035,174
5,-0.9785,-0.0541,-0.1296,-0.5189,-0.1297,0.1449,174
5,-0.9265,-0.0469,-0.1082,-0.3706,-0.1133,0.1744,174
5,-0.95,0.0173,-0.0857,-0.2966,-0.0937,0.1798,174
5,-0.8939,0.0663,-0.052,-0.2376,-0.0948,0.1886,174
5,-0.8857,0.1071,-0.0132,-0.2507,-0.0894,0.1842,174
5,-0.7775,0.1041,0.001,-0.2507,-0.0894,0.1842,174
5,-0.7214,0.0061,-0.0275,-0.314,-0.0457,0.1503,174
5,-0.6765,-0.0306,-0.0295,-0.3609,0.0097,0.1417,174
5,-0.6765,-0.0306,-0.0295,-0.3216,0.0523,0.1449,174
5,-0.6796,-0.052,-0.0204,-0.3216,0.0523,0.1449,174
5,-0.6642,-0.1,-0.0234,-0.2834,0.1177,0.1482,174
5,-0.6357,-0.1337,-0.0255,-0.2256,0.1406,0.1831,174
5,-0.5969,-0.1357,-0.0102,-0.2256,0.1406,0.1831,174
5,-0.5877,-0.1561,-0.0183,-0.1875,0.157,0.1864,174
5,-0.5939,-0.152,-0.0153,-0.1428,0.2169,0.1657,174
5,-0.6061,-0.0541,-0.0112,-0.0511,0.2539,0.1776,174
5,-0.6398,0.0,-0.051,-0.0511,0.2539,0.1776,174
5,-0.6398,0.0,-0.051,0.074,0.3542,0.182,174
5,-0.6703,0.0602,-0.0612,0.074,0.3542,0.182,174
5,-0.7224,0.0745,-0.0786,0.0774,0.3685,0.182,174
5,-0.7479,-0.0122,-0.1551,0.0108,0.3412,0.1798,174
5,-0.749,-0.0071,-0.1418,-0.0053,0.2714,0.2147,174
5,-0.8224,0.0622,-0.1285,0.1144,0.1089,0.3041,174
5,-0.8959,0.0857,-0.0765,0.1144,0.1089,0.3041,174
5,-0.9734,0.0622,-0.0734,0.0414,-0.0053,0.3085,174
5,-0.9663,0.1632,-0.0469,0.074,-0.1209,0.3237,174
5,-1.0295,0.3653,0.0295,0.074,-0.1209,0.3237,174
5,-1.0295,0.3653,0.0295,0.2659,-0.2344,0.3586,174
5,-1.2296,0.6112,0.2122,0.3227,-0.2867,0.3542,174
5,-1.5347,0.7377,0.3418,0.1744,-0.2922,0.2758,174
5,-1.9041,0.8091,0.2347,0.0925,-0.2125,0.2136,174
5,-1.8898,0.7377,-0.0796,0.0763,-0.1711,0.1198,174
5,-1.7255,1.0183,-0.5031,0.1984,-0.1602,-0.0261,174
5,-1.4102,1.3051,-0.5092,0.4906,-0.1864,-0.1406,174
5,-1.4377,1.4265,-0.3408,0.5233,-0.243,-0.3172,174
5,-0.8816,1.1612,-0.0939,-0.0784,-0.35,-0.5353,174
5,-1.1479,0.1326,-0.0031,-0.0784,-0.35,-0.5353,174
5,-1.1082,-0.2622,-0.1469,-1.0957,-0.231,-0.5767,174
5,-1.1082,-0.2622,-0.1469,-1.7411,-0.1035,-0.2932,174
5,-1.4612,-0.3255,-0.0948,-1.6703,-0.0108,0.1089,174
5,-1.2183,-0.5765,-0.2449,-1.3203,0.0032,0.3717,174
5,-1.4275,-0.4949,-0.2857,-0.8754,0.012,0.4229,174
5,-1.1918,-0.2734,-0.2275,-0.1732,-0.0751,0.3302,174
5,-1.2438,0.0724,-0.0979,0.4578,-0.169,0.0566,174
5,-1.1602,0.252,-0.0622,0.6879,-0.182,0.0577,174
5,-1.0541,0.3796,-0.1214,0.5593,-0.2234,-0.0915,174
5,-0.9408,0.5673,-0.0622,0.5942,-0.2071,-0.1701,174
5,-0.8979,0.6877,-0.0265,0.5942,-0.2071,-0.1701,174
5,-0.8193,0.6439,-0.0663,0.664,-0.2289,-0.1123,174
5,-0.8193,0.6439,-0.0663,0.4284,-0.1875,-0.2016,174
5,-0.7888,0.5765,-0.0612,0.1373,-0.1657,-0.1919,174
5,-0.6296,0.449,-0.0775,-0.0131,-0.0937,-0.0686,174
5,-0.6469,0.3489,-0.0734,-0.1842,-0.0904,-0.1253,174
5,-0.5765,0.2724,-0.0102,-0.0948,0.0141,-0.2289,174
5,-0.5551,0.2418,-0.0295,-0.0643,0.0501,-0.2594,174
5,-0.6112,0.2224,-0.0204,-0.0631,0.0969,-0.2834,174
5,-0.5898,0.1683,-0.0388,-0.0392,0.1341,-0.326,174
5,-0.6143,0.1337,-0.0336,0.0076,0.1482,-0.338,174
5,-0.6183,0.1489,-0.0255,0.0675,0.1755,-0.3422,174
5,-0.6346,0.15,0.004,0.1188,0.1755,-0.3401,174
5,-0.6337,0.0898,-0.0061,0.0894,0.1852,-0.3456,174
5,-0.6806,0.0571,-0.049,0.0894,0.1852,-0.3456,174
5,-0.6826,0.0898,-0.0418,0.086,0.2081,-0.3422,174
5,-0.6826,0.0898,-0.0418,0.1886,0.23,-0.2899,174
5,-0.7214,0.0632,-0.0622,0.2344,0.2388,-0.2693,174
5,-0.8193,0.0234,-0.0989,0.2027,0.2354,-0.2966,174
5,-0.9203,0.1041,-0.0561,0.3107,0.2125,-0.2966,174
5,-1.0183,0.1346,-0.0775,0.4164,0.1602,-0.2474,174
5,-1.0663,0.1112,-0.1337,0.3456,0.0555,-0.1951,174
5,-1.1,0.3448,-0.101,0.3227,-0.0686,-0.1144,174
5,-1.0693,0.3989,-0.0622,0.3227,-0.0686,-0.1144,174
5,-1.1224,0.3245,-0.0745,0.351,-0.2539,-0.0141,174
5,-1.1387,0.2632,-0.052,0.1253,-0.3674,0.0282,174
5,-1.1387,0.2632,-0.052,-0.1373,-0.4546,0.037,174
5,-1.3826,0.2347,0.2153,-0.2147,-0.5221,0.0457,174
5,-1.5877,0.1673,0.3214,-0.2409,-0.5309,0.0326,174
5,-1.8051,0.05,0.2296,-0.326,-0.4568,-0.049,174
5,-1.6959,-0.0887,-0.0193,-0.363,-0.3717,-0.1417,174
5,-1.5469,-0.0326,-0.2183,-0.1766,-0.242,-0.182,174
5,-1.302,-0.1541,-0.2693,-0.0469,-0.243,-0.242,174
5,-1.4214,-0.2336,-0.2204,-0.2169,-0.2474,-0.3128,174
5,-1.0918,-0.1857,-0.0898,-0.2169,-0.2474,-0.3128,174
5,-1.0918,-0.1857,-0.0898,-0.1438,-0.3161,-0.2844,174
5,-1.0989,0.1949,0.1194,0.1438,-0.2998,-0.1842,174
5,-1.1296,0.1551,-0.0132,0.1471,-0.2693,-0.086,174
5,-1.3061,0.1214,-0.1418,-0.0686,-0.1396,-0.036,174
5,-1.0418,0.1265,-0.1744,-0.1177,-0.1842,0.0774,174
5,-1.0286,0.2755,-0.1428,-0.036,-0.1264,0.1264,174
5,-1.0643,0.249,-0.1061,-0.1438,-0.231,0.1613,174
5,-1.0031,0.1959,-0.0663,-0.2409,-0.193,0.1274,174
5,-0.8347,0.1847,-0.0193,-0.2747,-0.2617,0.1352,174
5,-0.7888,0.0847,0.0143,-0.2747,-0.2617,0.1352,174
5,-0.7888,0.0847,0.0143,-0.3128,-0.2005,0.1013,174
5,-0.7418,-0.0071,0.0102,-0.3979,-0.2039,0.0925,174
5,-0.7663,-0.0326,0.0143,-0.387,-0.1503,0.086,174
5,-0.6204,-0.0398,0.0408,-0.3117,-0.1471,0.1079,174
5,-0.6214,-0.0612,0.049,-0.2768,-0.0784,0.1591,174
6,-0.5357,-0.1061,0.0418,-0.2922,-0.0402,0.1864,174
6,-0.6071,-0.1285,0.0336,-0.3041,0.0316,0.2159,174
6,-0.5245,-0.1703,0.0234,-0.2791,0.086,0.2333,174
6,-0.6153,-0.1918,-0.0081,-0.206,0.1581,0.2409,174
6,-0.5724,-0.1765,-0.0204,-0.0992,0.194,0.2398,174
6,-0.6265,-0.1112,-0.0295,-0.0992,0.194,0.2398,174
6,-0.6265,-0.1112,-0.0295,0.0131,0.231,0.2245,174
6,-0.6306,-0.0643,-0.0408,0.0872,0.2627,0.2388,174
6,-0.6837,-0.0051,-0.0449,0.0959,0.2911,0.242,174
6,-0.7092,0.0031,-0.0643,0.0675,0.2987,0.2485,174
6,-0.7173,0.0122,-0.0663,0.0577,0.3117,0.2594,174
6,-0.7388,0.0398,-0.0765,0.0719,0.3117,0.2802,174
6,-0.7194,0.0561,-0.0857,0.0915,0.3073,0.3031,174
6,-0.7081,0.0806,-0.0948,0.1079,0.2834,0.3325,174
6,-0.6837,0.1082,-0.0857,0.1274,0.2682,0.3619,174
6,-0.7347,0.0959,-0.0775,0.1274,0.2682,0.3619,174
6,-0.8387,0.1061,-0.0438,0.0959,0.2409,0.3783,174
6,-0.8387,0.1061,-0.0438,0.0577,0.2191,0.3717,174
6,-0.9081,0.1122,-0.0234,0.0872,0.1482,0.3565,174
6,-1.05,0.1234,-0.0112,0.1318,0.0643,0.3368,174
6,-1.2071,0.3122,-0.0255,0.2245,-0.0446,0.3302,174
6,-1.2949,0.4897,0.0081,0.3586,-0.1591,0.3314,174
6,-1.2979,0.6,0.0388,0.3695,-0.2539,0.2779,174
6,-1.3357,0.6592,0.1132,0.2201,-0.314,0.1526,174
6,-1.6622,0.6571,0.2449,0.0305,-0.2823,0.0643,174
6,-1.7632,0.6091,0.1071,0.0305,-0.2823,0.0643,174
6,-1.7377,0.6367,-0.0724,-0.0828,-0.1678,0.0872,174
6,-1.7377,0.6367,-0.0724,-0.0457,-0.1047,0.0654,174
6,-1.6326,0.7786,-0.2367,0.2027,-0.0545,0.036,174
6,-1.2469,1.0898,-0.2336,0.4088,-0.0305,-0.1286,174
6,-1.3765,1.1377,-0.0541,0.314,-0.0795,-0.412,174
6,-0.9367,0.7612,-0.0745,-0.2779,-0.1133,-0.5778,174
6,-1.2836,0.351,-0.1622,-0.9234,-0.0021,-0.5244,174
6,-1.1816,-0.0061,-0.1163,-0.9496,0.0381,-0.3903,174
6,-1.3489,-0.0347,-0.101,-0.6465,0.0751,-0.2747,174
6,-1.2469,-0.1775,-0.1673,-0.6465,0.0751,-0.2747,174
6,-1.3184,-0.2673,-0.2388,-0.5549,0.0708,-0.2365,174
6,-1.3184,-0.2673,-0.2388,-0.4448,0.0425,-0.2354,174
6,-1.1714,0.0847,-0.1551,-0.012,0.0,-0.1995,174
6,-1.1602,0.3571,-0.05,0.4164,-0.0523,-0.1274,174
6,-1.0438,0.454,-0.0428,0.3924,-0.086,-0.0959,174
6,-0.9663,0.402,-0.0887,0.0784,-0.1177,-0.1297,174
6,-0.8846,0.4642,-0.0745,-0.0228,-0.1274,-0.1515,174
6,-0.6969,0.5193,-0.0295,0.0479,-0.1678,-0.1503,174
6,-0.6102,0.4265,-0.0306,-0.1396,-0.2191,-0.2027,174
6,-0.6296,0.2938,-0.0591,-0.1396,-0.2191,-0.2027,174
6,-0.6296,0.2938,-0.0591,-0.3695,-0.1558,-0.2495,174
6,-0.4633,0.2683,0.0153,-0.3575,-0.169,-0.2485,174
6,-0.4194,0.3286,0.0734,-0.2464,-0.1352,-0.2409,174
6,-0.3479,0.3316,0.1,-0.2714,-0.0806,-0.2682,174
6,-0.3184,0.2397,0.0632,-0.3663,0.012,-0.3227,174
6,-0.2918,0.2643,0.0765,-0.3586,0.1035,-0.3609,174
6,-0.3245,0.2806,0.0622,-0.2856,0.1864,-0.4,174
6,-0.4214,0.2734,0.052,-0.2714,0.3107,-0.4568,174
6,-0.5663,0.1816,-0.0377,-0.314,0.3565,-0.5135,174
6,-0.6255,0.1744,-0.049,-0.3085,0.4187,-0.5484,174
6,-0.6255,0.1744,-0.049,-0.3085,0.4187,-0.5484,174
6,-0.6857,0.1673,-0.0571,-0.2605,0.3979,-0.5461,174
6,-0.7693,0.1296,-0.0652,-0.2867,0.3794,-0.532,174
6,-0.9285,0.0724,-0.051,-0.3314,0.3151,-0.4895,174
6,-1.0316,0.0541,-0.0836,-0.3575,0.2169,-0.412,174
6,-1.1132,0.101,-0.1061,-0.3761,0.1079,-0.3031,174
6,-1.0918,0.1694,-0.0826,-0.3838,-0.0479,-0.181,174
6,-1.1204,0.1071,-0.0418,-0.52,-0.1581,-0.1035,174
6,-1.2101,-0.052,0.0122,-0.797,-0.242,-0.0784,174
6,-1.3296,-0.1439,0.1255,-0.9017,-0.2495,-0.0795,174
6,-1.9357,-0.2775,0.0765,-0.6421,-0.218,-0.1274,174
6,1.7888,-0.2204,-0.251,-0.5887,-0.1732,-0.1787,174
6,-1.8326,-0.1194,-0.3234,-0.5887,-0.1732,-0.1787,174
6,-1.499,-0.1847,-0.3448,-0.3172,-0.1461,-0.2016,174
6,-1.499,-0.1847,-0.3448,-0.3695,-0.2136,-0.2682,174
6,-1.0816,-0.3357,-0.1265,-0.5734,-0.2005,-0.3357,174
6,-1.2551,-0.2531,-0.049,-0.4677,-0.3248,-0.2659,174
6,-1.0173,-0.0438,0.1245,-0.1286,-0.2495,-0.1177,174
6,-1.1285,-0.051,-0.0541,-0.1744,-0.2398,-0.0545,174
6,-1.0275,-0.1816,-0.1316,-0.2747,-0.1711,0.0185,173
6,-1.2673,-0.1694,-0.1694,-0.3826,-0.1972,0.0818,173
6,-1.0989,-0.101,-0.1296,-0.2081,-0.2081,0.1776,173
6,-1.0377,0.0163,-0.0193,-0.2081,-0.2081,0.1776,173
6,-0.8887,0.1122,0.0663,-0.036,-0.2605,0.2453,173
6,-0.8887,0.1122,0.0663,-0.0425,-0.2605,0.2703,173
6,-0.8928,0.0224,0.0898,-0.206,-0.2649,0.2573,173
6,-0.8255,-0.0867,0.0826,-0.3041,-0.1951,0.2485,173
6,-0.8367,-0.1183,0.0877,-0.2617,-0.1329,0.2638,173
6,-0.6857,-0.1765,0.0673,-0.2027,-0.0818,0.2867,173
6,-0.6847,-0.201,0.0418,-0.1711,0.0349,0.363,173
6,-0.6755,-0.2183,0.0224,-0.1396,0.1362,0.4307,173
6,-0.6663,-0.2388,0.0214,-0.0915,0.2049,0.4414,173
6,-0.7428,-0.3245,-0.0336,-0.0915,0.2049,0.4414,173
6,-0.7428,-0.3245,-0.0336,-0.0326,0.2703,0.399,173
6,-0.7183,-0.3275,-0.0551,0.1024,0.2812,0.3542,173
6,-0.7428,-0.2561,-0.0643,0.2878,0.2649,0.3674,173
6,-0.7499,-0.1673,-0.0857,0.4065,0.2388,0.412,173
6,-0.7224,-0.1408,-0.1112,0.4557,0.1864,0.4492,173
6,-0.6928,-0.101,-0.1071,0.5112,0.1286,0.4763,173
6,-0.6541,-0.0479,-0.0979,0.5843,0.0545,0.5112,173
6,-0.4867,0.053,-0.0275,0.6388,-0.0282,0.5233,173
6,-0.3541,0.0336,-0.0183,0.6356,-0.0708,0.5167,173
6,-0.3214,0.0632,0.0122,0.6159,-0.1024,0.5026,173
6,-0.3214,0.0632,0.0122,0.6159,-0.1024,0.5026,173
6,-0.249,0.1132,0.0816,0.6574,-0.1167,0.4895,173
6,-0.2438,0.004,0.0877,0.5789,-0.1144,0.4469,173
6,-0.2622,-0.0755,0.0214,0.4721,-0.1449,0.424,173
6,-0.3714,0.0286,0.0031,0.6138,-0.1581,0.4524,173
6,-0.4469,0.2643,0.0632,0.8939,-0.182,0.5179,173
6,-1.1357,0.7806,0.1775,0.9801,-0.1396,0.5299,173
6,-1.5979,1.0612,0.303,0.9822,-0.1167,0.4044,173
6,1.7704,1.2592,0.3357,0.9202,-0.0828,0.1232,173
6,1.3419,1.2622,-0.0265,0.7686,-0.0818,-0.0925,173
7,1.6235,1.4601,-0.6796,0.7686,-0.0818,-0.0925,173
7,1.6235,1.4601,-0.6796,0.7577,-0.11,-0.0774,173
7,1.9919,1.7745,-0.6183,0.9528,-0.1406,-0.0043,173
7,-1.5408,1.8418,-0.3152,0.7217,-0.2888,-0.1384,173
7,-1.0449,1.4979,-0.0551,-0.3771,-0.4219,-0.5364,173
7,-0.7683,0.1592,0.0132,-1.6692,-0.314,-0.5778,173
7,-0.7326,-0.2,-0.0193,-2.1619,-0.2474,-0.2867,173
7,-0.9561,-0.3143,0.1275,-1.8578,-0.0675,0.2529,173
7,-0.7418,-0.4306,0.0836,-1.6844,0.0152,0.4361,173
7,-1.052,-0.7734,-0.1887,-1.3683,0.2649,0.3848,173
7,-0.7101,-0.45,0.103,-1.3683,0.2649,0.3848,173
7,-0.7285,-0.2061,0.1132,-0.2562,0.1123,0.338,173
7,-0.7285,-0.2061,0.1132,0.4578,0.1177,0.0545,173
7,-0.8694,-0.0255,0.0948,0.6835,0.2802,-0.2093,173
7,-0.7531,0.2234,0.0663,0.8252,0.2594,-0.3314,173
7,-0.8193,0.3132,0.0428,0.8656,0.326,-0.4132,173
7,-0.799,0.3979,0.0071,0.7893,0.3532,-0.3532,173
7,-0.7602,0.4347,-0.0255,0.6476,0.339,-0.2649,173
7,-0.7673,0.4928,-0.0132,0.5757,0.3216,-0.1264,173
7,-0.6765,0.451,-0.0398,0.4197,0.2856,-0.0196,173
7,-0.651,0.4408,-0.0551,0.4197,0.2856,-0.0196,173
7,-0.5887,0.4398,-0.0571,0.2693,0.2605,-0.0435,173
7,-0.5887,0.4398,-0.0571,0.2071,0.218,-0.0435,173
7,-0.4183,0.4479,0.0398,0.0872,0.1613,-0.0621,173
7,-0.4663,0.3785,0.0408,-0.1352,0.1297,-0.1035,173
7,-0.4867,0.3489,0.0326,-0.2737,0.1242,-0.1384,173
7,-0.4326,0.3734,0.0347,-0.3128,0.0435,-0.1482,173
7,-0.6959,0.3418,0.004,-0.4208,0.0414,-0.206,173
7,-0.9112,0.1887,-0.0112,-0.6454,0.0162,-0.2779,173
7,-1.2531,0.0632,0.0051,-0.7468,0.0021,-0.3216,173
7,1.9827,-0.0306,0.302,-0.7468,0.0021,-0.3216,173
7,1.6245,-0.051,0.3193,-0.6333,-0.0501,-0.35,173
7,1.6245,-0.051,0.3193,-0.4895,-0.0751,-0.3619,173
7,1.8674,-0.0612,0.1285,-0.3346,-0.098,-0.339,173
7,1.9714,0.0061,-0.1755,-0.1482,0.0228,-0.2802,173
7,-1.3102,-0.0234,-0.2969,-0.194,0.1079,-0.2409,173
7,-1.4857,-0.2479,-0.3041,-0.6203,0.0577,-0.2987,173
7,-1.0908,-0.3837,-0.1122,-0.6629,-0.0523,-0.3586,173
7,-0.9296,-0.5092,-0.0081,-0.3914,-0.1657,-0.2485,173
7,-0.9551,-0.603,-0.105,-0.1396,-0.0774,-0.1167,173
7,-1.0336,-0.3683,-0.0663,-0.1396,-0.0774,-0.1167,173
7,-0.9816,-0.2275,-0.151,-0.1112,0.0534,-0.0545,173
7,-0.9816,-0.2275,-0.151,0.2682,0.0457,0.1449,173
7,-0.9938,-0.0867,-0.0745,0.3302,0.0894,0.2234,173
7,-0.9979,-0.1061,-0.0826,0.2376,0.0664,0.2049,173
7,-0.9255,-0.0693,-0.0459,0.3085,0.0839,0.1798,173
7,-0.9061,0.0408,0.0347,0.5255,0.0872,0.1864,173
7,-0.9265,0.1337,0.0561,0.5635,0.1297,0.1852,173
7,-0.8949,0.0663,-0.0377,0.4458,0.1875,0.1471,173
7,-0.8663,0.1326,-0.0316,0.4655,0.2943,0.1515,173
7,-0.7816,0.1826,-0.0224,0.5145,0.2911,0.1591,173
7,-0.7816,0.1826,-0.0224,0.5145,0.2911,0.1591,173
7,-0.8347,0.1673,-0.0326,0.3891,0.3619,0.1068,173
7,-0.704,-0.0143,-0.1041,0.2518,0.3717,0.0654,173
7,-0.6642,-0.0143,-0.0816,0.2932,0.4065,0.0621,173
7,-0.5908,0.0163,-0.0459,0.363,0.4132,0.0828,173
7,-0.5816,0.0,-0.0398,0.2834,0.4492,0.098,173
7,-0.5979,-0.1357,-0.103,0.2071,0.4884,0.1177,173
7,-0.6765,-0.0939,-0.1041,0.2976,0.5221,0.1798,173
7,-0.6887,-0.0469,-0.1163,0.4175,0.5341,0.2464,173
7,-0.8,-0.0112,-0.102,0.4426,0.5299,0.2987,173
7,-0.8224,-0.0836,-0.1234,0.4426,0.5299,0.2987,173
7,-0.8224,-0.0836,-0.1234,0.4208,0.4536,0.3336,173
7,-0.9438,0.0031,-0.1337,0.5418,0.3968,0.375,173
7,-0.9244,0.1826,-0.0857,0.7304,0.2529,0.4229,173
7,-0.9561,0.2816,-0.102,0.6737,0.1242,0.3958,173
7,-0.9214,0.3306,-0.1541,0.5408,-0.0185,0.3434,173
7,-0.9132,0.4888,-0.0826,0.5233,-0.2169,0.1133,173
7,-0.9316,0.5234,-0.0418,0.4338,-0.243,0.0131,173
7,-1.152,0.602,0.0939,0.3128,-0.2213,-0.0108,173
7,-1.3959,0.6132,0.1265,0.2093,-0.1667,-0.0076,173
7,-1.501,0.6102,0.0704,0.2159,-0.1209,0.025,173
7,-1.5684,0.7581,-0.2306,0.3422,-0.0915,0.025,173
7,-1.6622,0.8898,-0.3336,0.5179,-0.0675,-0.1167,173
7,-1.5295,1.0183,-0.3653,0.6345,-0.0828,-0.3968,173
7,-1.5061,1.0948,-0.3,0.4971,-0.1373,-0.665,173
7,-1.1714,0.6703,-0.1785,0.4971,-0.1373,-0.665,172
7,-1.1714,0.6703,-0.1785,-0.049,-0.2321,-0.6999,172
7,-1.3316,0.2643,-0.2051,-0.6312,-0.11,-0.6083,172
7,-1.105,-0.0286,-0.2142,-0.7478,-0.1167,-0.5713,172
7,-1.1775,-0.0989,-0.1296,-0.4655,-0.0555,-0.3794,172
7,-1.0969,-0.254,-0.1703,-0.2976,-0.0349,-0.2573,172
7,-1.1112,-0.3398,-0.2245,-0.1722,-0.0152,-0.2539,172
7,-1.0714,-0.3867,-0.2969,0.1581,-0.0282,-0.3172,172
7,-1.0031,-0.1898,-0.2245,0.7249,-0.0643,-0.3227,172
7,-0.9163,0.1694,-0.1122,0.9561,-0.1123,-0.2474,172
7,-0.8734,0.103,-0.1612,0.9561,-0.1123,-0.2474,172
7,-0.9142,0.0336,-0.202,0.7447,-0.1198,-0.2485,172
7,-0.9142,0.0336,-0.202,0.6171,-0.1209,-0.2474,172
7,-0.8184,0.0428,-0.1959,0.7566,-0.157,-0.2049,172
7,-0.8234,0.2388,-0.1255,0.9234,-0.1167,-0.1896,172
7,-0.7224,0.2438,-0.1346,0.895,-0.1352,-0.1995,172
7,-0.7469,0.2092,-0.1632,0.8187,-0.0643,-0.2474,172
7,-0.6816,0.1908,-0.1837,0.8481,-0.0305,-0.2659,172
7,-0.6714,0.2592,-0.1724,0.9212,0.0294,-0.2867,172
7,-0.6234,0.2112,-0.1765,0.8809,0.0708,-0.3227,172
7,-0.6724,0.1245,-0.2163,0.7981,0.1242,-0.3641,172
7,-0.6265,0.0765,-0.2163,0.7981,0.1242,-0.3641,172
7,-0.653,0.0836,-0.1744,0.8439,0.1167,-0.3695,172
7,-0.653,0.0836,-0.1744,0.9408,0.1547,-0.3674,172
7,-0.605,0.0428,-0.1683,0.9496,0.157,-0.3663,172
7,-0.6408,-0.0316,-0.1806,0.9278,0.1886,-0.3706,172
7,-0.6367,-0.0684,-0.1949,1.0171,0.2049,-0.3445,172
7,-0.6755,-0.0061,-0.1898,1.148,0.2398,-0.3117,172
7,-0.6581,-0.0061,-0.2133,1.185,0.2747,-0.2834,172
7,-0.6703,-0.0275,-0.252,1.1993,0.3019,-0.2562,172
7,-0.7081,-0.0163,-0.2347,1.2788,0.3205,-0.218,172
7,-0.8377,0.0132,-0.1541,1.2788,0.3205,-0.218,172
7,-0.9694,0.0031,-0.1551,1.3454,0.314,-0.1678,172
7,-0.9694,0.0031,-0.1551,1.3584,0.2878,-0.0948,172
7,-1.1041,0.0408,-0.1398,1.3846,0.2093,0.0316,172
8,-1.3408,0.3224,-0.0367,1.438,0.1188,0.182,172
8,-1.5357,0.4642,0.053,1.3868,0.0282,0.2878,172
8,-1.6796,0.4938,0.1337,1.16,-0.0631,0.2878,172
8,-1.9551,0.4612,0.2336,0.9017,-0.157,0.3314,172
8,1.4031,0.454,0.2816,0.7632,-0.2169,0.35,172
8,1.2317,0.4704,0.0847,0.7632,-0.2169,0.35,172
8,1.397,0.5132,-0.0979,0.7205,-0.2998,0.3804,172
8,1.5051,0.5663,-0.1561,0.7086,-0.4568,0.387,172
8,1.5051,0.5663,-0.1561,0.5799,-0.4753,0.2844,172
8,-1.8081,0.1949,-0.0591,0.2388,-0.5799,0.0937,172
8,-1.4203,-0.0071,0.0551,0.0654,-0.6432,-0.0698,172
8,-1.1938,-0.1785,0.0051,0.1623,-0.7054,-0.1133,172
8,-1.3653,-0.1234,0.0326,0.496,-0.5996,-0.0566,172
8,-1.3081,0.0234,0.002,0.6988,-0.5287,0.0414,172
8,-0.9663,-0.102,0.0031,0.6432,-0.5233,0.1047,172
8,-1.1581,-0.2367,-0.0561,0.4731,-0.4589,0.1155,172
8,-1.0388,-0.3418,-0.0734,0.4731,-0.4589,0.1155,172
8,-1.0388,-0.3418,-0.0734,0.6486,-0.4666,0.1732,172
8,-0.9877,-0.1255,0.0122,1.028,-0.4448,0.2737,172
8,-1.0336,-0.1163,-0.0765,1.148,-0.4568,0.2518,172
8,-0.9979,-0.1183,-0.0755,1.1873,-0.4611,0.2529,172
8,-0.8398,-0.1581,-0.0908,1.2701,-0.4818,0.2562,172
8,-0.8734,-0.0286,-0.101,1.3683,-0.5156,0.2768,172
8,-0.9653,-0.0132,-0.1112,1.3857,-0.52,0.2594,172
8,-0.8428,-0.0193,-0.1326,1.4021,-0.5713,0.2617,172
8,-0.7602,-0.0163,-0.1367,1.4435,-0.5865,0.2539,172
8,-0.6346,-0.0234,-0.1255,1.4435,-0.5865,0.2539,172
8,-0.6346,-0.0234,-0.1255,1.4576,-0.6051,0.2398,172
8,-0.6551,-0.0316,-0.1285,1.4587,-0.6039,0.2234,172
8,-0.6337,-0.0143,-0.1183,1.5122,-0.6192,0.2245,172
8,-0.5632,0.0,-0.0969,1.5526,-0.6356,0.231,172
8,-0.5336,-0.0286,-0.103,1.5492,-0.6268,0.2333,172
8,-0.4928,-0.0408,-0.1071,1.5743,-0.6377,0.2365,172
8,-0.5612,-0.004,-0.1082,1.6637,-0.6127,0.2495,172
8,-0.6061,0.0755,-0.0928,1.7432,-0.6116,0.2539,172
8,-0.6959,0.1337,-0.0979,1.7291,-0.6051,0.2485,172
8,-0.704,0.1367,-0.105,1.6953,-0.6083,0.2495,172
8,-0.7418,0.1887,-0.1,1.6953,-0.6083,0.2495,172
8,-0.7418,0.1887,-0.1,1.7258,-0.5865,0.2562,172
8,-0.7071,0.2408,-0.0632,1.7149,-0.5767,0.2638,172
8,-0.749,0.2183,-0.05,1.6125,-0.5189,0.2583,172
8,-0.7612,0.2101,-0.0224,1.5753,-0.4458,0.2693,172
8,-0.8184,0.2296,-0.004,1.582,-0.3489,0.2888,172
8,-0.9041,0.1296,0.0,1.5187,-0.2485,0.2693,172
8,-0.9714,0.0051,-0.0663,1.4446,-0.1602,0.2344,172
8,-0.9592,-0.0898,-0.1214,1.5024,-0.1133,0.2169,172
8,-1.0234,-0.1296,-0.1632,1.6735,-0.0479,0.23,172
8,-1.0326,-0.152,-0.1938,1.6735,-0.0479,0.23,172
8,-1.0714,-0.2367,-0.2326,1.7749,-0.0511,0.255,172
8,-1.0714,-0.2367,-0.2326,1.7727,-0.0196,0.2747,172
8,-1.0204,-0.2979,-0.2755,1.8567,-0.0305,0.3368,172
8,-1.0418,-0.2745,-0.2857,2.0475,-0.0043,0.4208,172
8,-1.0204,-0.204,-0.2806,2.1652,-0.0217,0.5156,172
8,-1.103,-0.1918,-0.3132,2.2437,0.0043,0.5952,172
8,-1.1163,-0.102,-0.3132,2.4193,0.0206,0.6879,172
8,-1.1469,0.052,-0.3163,2.5904,0.0152,0.7653,172
8,-1.1439,0.2786,-0.3357,2.597,-0.012,0.8046,172
8,-1.2133,0.3347,-0.3418,2.597,-0.012,0.8046,172
8,-1.2755,0.4398,-0.2826,2.5566,-0.0162,0.7947,172
8,-1.2755,0.4398,-0.2826,2.5501,-0.0795,0.7893,172
8,-1.1959,0.4601,-0.2377,2.4553,-0.1264,0.7369,172
8,-1.4071,0.3387,-0.2163,2.3506,-0.1613,0.6759,172
8,-1.5541,0.3673,-0.1979,2.4193,-0.2659,0.6879,172
8,-1.6724,0.5132,-0.1796,2.6014,-0.3826,0.7064,172
8,-1.6163,0.6122,-0.2469,2.6362,-0.5287,0.6377,172
8,-1.4285,0.7816,-0.3296,2.681,-0.6682,0.5135,172
8,-1.051,0.9051,-0.1143,2.4934,-0.883,0.2409,172
8,-0.9306,0.7877,-0.0377,2.1009,-0.8569,0.2714,172
8,-0.9326,0.3286,-0.1346,1.8861,-0.871,0.2398,172
8,-0.903,0.3296,-0.0826,1.8861,-0.871,0.2398,172
8,-0.903,0.3296,-0.0826,2.1161,-0.8962,0.2159,172
8,-0.9,0.403,-0.0357,2.3408,-0.8973,0.1744,172
8,-0.8643,0.453,-0.0214,2.3201,-0.9124,0.1537,172
8,-0.8765,0.4398,-0.0979,2.2775,-0.8787,0.1286,172
8,-0.8336,0.5,-0.0826,2.3626,-0.8613,0.1242,172
8,-0.8428,0.5836,-0.0652,2.4007,-0.8405,0.098,172
8,-0.8255,0.6153,-0.0714,2.3212,-0.8176,0.0414,172
8,-0.8091,0.6041,-0.0898,2.2569,-0.821,-0.0053,172
8,-0.8387,0.6346,-0.0652,2.271,-0.8012,-0.0392,172
8,-0.8132,0.6632,-0.0408,2.2481,-0.7926,-0.0708,172
8,-0.8193,0.6377,-0.0612,2.2481,-0.7926,-0.0708,172
8,-0.8193,0.6377,-0.0612,2.1335,-0.7762,-0.1047,172
8,-0.7765,0.5224,-0.1173,2.0845,-0.7903,-0.1221,172
8,-0.8081,0.5183,-0.1112,2.1096,-0.7795,-0.1264,172
8,-0.7449,0.4928,-0.0969,2.0955,-0.7926,-0.1297,172
8,-0.7112,0.4235,-0.101,2.0627,-0.797,-0.1471,172
8,-0.6908,0.403,-0.0928,2.077,-0.8012,-0.1581,172
8,-0.6938,0.4296,-0.0796,2.1347,-0.7937,-0.1711,172
8,-0.6765,0.453,-0.05,2.1402,-0.7827,-0.1896,172
8,-0.703,0.4132,-0.0693,2.0944,-0.7762,-0.2234,172
8,-0.7245,0.4061,-0.0673,2.0944,-0.7762,-0.2234,172
8,-0.7479,0.4316,-0.0755,2.0999,-0.7621,-0.2518,172
8,-0.7479,0.4316,-0.0755,2.1478,-0.7544,-0.2693,172
8,-0.7755,0.454,-0.0775,2.1522,-0.7369,-0.2922,172
8,-0.8051,0.449,-0.1275,2.1335,-0.7327,-0.3172,172
8,-0.8061,0.4663,-0.1183,2.1543,-0.7327,-0.3314,172
8,-0.8265,0.5112,-0.1102,2.1848,-0.7163,-0.3477,172
8,-0.8306,0.551,-0.105,2.1674,-0.7043,-0.3739,172
8,-0.7938,0.6091,-0.1234,2.1282,-0.6978,-0.3979,172
8,-0.7969,0.6163,-0.101,2.0747,-0.6726,-0.4372,172
8,-0.7836,0.5796,-0.1316,2.0747,-0.6726,-0.4372,172
8,-0.799,0.5704,-0.1296,1.9919,-0.6497,-0.4841,172
8,-0.799,0.5704,-0.1296,1.9744,-0.6236,-0.5167,172
8,-0.7959,0.5857,-0.101,1.9765,-0.5877,-0.545,172
8,-0.7755,0.5673,-0.0959,1.9232,-0.5461,-0.5778,172
8,-0.7786,0.5357,-0.102,1.8763,-0.508,-0.6072,172
8,-0.7683,0.5316,-0.0887,1.8773,-0.4698,-0.6345,172
9,-0.7561,0.5449,-0.0306,1.8676,-0.4252,-0.677,172
9,-0.7142,0.5245,-0.002,1.8076,-0.3794,-0.726,172
9,-0.702,0.4836,0.0061,1.7466,-0.3073,-0.7795,172
9,-0.6887,0.4653,0.0061,1.7466,-0.3073,-0.7795,172
9,-0.6938,0.45,-0.0204,1.727,-0.2201,-0.8264,172
9,-0.6938,0.45,-0.0204,1.6974,-0.1198,-0.859,172
9,-0.6908,0.4142,-0.0408,1.6321,-0.0196,-0.8885,172
9,-0.7255,0.3867,-0.0673,1.5896,0.0818,-0.9048,172
9,-0.7285,0.3816,-0.0745,1.5972,0.1722,-0.9048,172
9,-0.8224,0.4122,-0.0286,1.5982,0.2649,-0.9038,172
9,-0.8918,0.3908,0.0173,1.5645,0.35,-0.8983,172
9,-1.0418,0.3489,0.0622,1.5514,0.4317,-0.8798,172
9,-1.201,0.303,0.0847,1.6146,0.4797,-0.81,172
9,-1.5377,0.2775,0.0612,1.6146,0.4797,-0.81,172
9,-1.5377,0.2775,0.0612,1.6747,0.4807,-0.6999,172
9,-1.6785,0.2888,0.0336,1.6572,0.4448,-0.5658,172
9,-1.6918,0.3224,0.0643,1.5972,0.3325,-0.4469,172
9,-1.5806,0.303,0.1234,1.4075,0.2573,-0.4023,172
9,-1.3653,0.0071,0.15,1.2483,0.2125,-0.3979,172
9,-1.1489,-0.1,0.1255,1.305,0.1995,-0.3052,172
9,-1.2326,-0.0173,0.1418,1.4412,0.2256,-0.1318,172
9,-1.1275,-0.1041,0.1326,1.437,0.2289,-0.1581,172
9,-1.1867,-0.0806,0.1346,1.5526,0.2747,-0.1776,172
9,-1.0775,0.0051,0.152,1.5526,0.2747,-0.1776,172
9,-1.0775,0.0051,0.152,1.7182,0.2005,-0.1406,172
9,-1.3091,0.0989,0.1683,1.7171,0.193,-0.061,172
9,-1.303,0.1234,0.0745,1.5874,0.11,0.0185,172
9,-1.2826,0.1316,0.105,1.5765,0.085,0.098,172
9,-1.2531,0.2112,0.1285,1.6364,0.0349,0.1732,172
9,-1.2938,0.3928,0.05,1.6974,0.0,0.2289,172
9,-1.1265,0.7214,0.1826,1.6223,-0.024,0.2071,172
9,-0.952,0.5183,0.1592,1.1295,-0.0479,0.0969,172
9,-0.9285,0.2265,0.052,0.8449,-0.0011,0.0272,172
9,-0.9847,0.1673,0.0031,1.135,0.0174,0.0326,172
9,-1.0449,0.3541,0.1143,1.135,0.0174,0.0326,172
9,-1.0449,0.3541,0.1143,1.2701,0.0457,0.0217,172
9,-0.9418,0.1387,-0.0193,0.9463,0.0316,-0.0589,172
9,-1.0704,-0.0367,-0.1255,0.9637,0.0686,-0.073,172
9,-0.9612,0.0388,-0.0836,1.2897,-0.0076,-0.0021,172
9,-0.9173,0.1337,0.0286,1.2025,0.0032,-0.0206,172
9,-0.8214,-0.0887,-0.0622,0.9223,-0.0294,-0.0589,172
9,-0.951,-0.1418,-0.1357,1.1077,-0.0065,0.0141,172
9,-0.855,0.0081,-0.0704,1.3966,-0.0675,0.024,172
9,-0.8582,0.0571,-0.0245,1.2428,-0.0708,-0.024,172
9,-0.8489,-0.0928,-0.1337,1.2428,-0.0708,-0.024,172
9,-0.9265,-0.0673,-0.152,1.0816,-0.0925,-0.0534,172
9,-0.9265,-0.0673,-0.152,1.3388,-0.1057,-0.0185,172
9,-0.8602,0.1163,-0.0561,1.4893,-0.1438,-0.0065,172
9,-0.9051,0.1377,-0.1153,1.2592,-0.1623,-0.0599,172
9,-0.8928,0.0469,-0.1755,1.1785,-0.2005,-0.0818,172
9,-0.9102,0.1041,-0.1612,1.3607,-0.2376,-0.061,172
9,-0.8714,0.2306,-0.1061,1.3519,-0.2791,-0.0686,172
9,-0.8663,0.1806,-0.1428,1.1524,-0.2976,-0.1123,172
9,-0.852,0.1387,-0.1571,1.1306,-0.3205,-0.1242,172
9,-0.8448,0.1918,-0.1296,1.1306,-0.3205,-0.1242,172
9,-0.8306,0.2612,-0.0836,1.2222,-0.3456,-0.1133,172
9,-0.8306,0.2612,-0.0836,1.172,-0.3521,-0.1264,172
9,-0.7898,0.201,-0.0704,1.027,-0.3445,-0.1581,172
9,-0.7806,0.1285,-0.0775,0.9855,-0.3183,-0.1602,172
9,-0.7643,0.1153,-0.0612,1.0488,-0.2911,-0.1406,172
9,-0.7612,0.1255,-0.0204,1.04,-0.2289,-0.1362,172
9,-0.7724,0.0336,-0.0398,0.9714,-0.1678,-0.1286,172
9,-0.7663,0.002,-0.0286,0.9943,-0.1123,-0.1057,172
9,-0.7357,-0.0418,-0.0193,0.9943,-0.1123,-0.1057,172
9,-0.8163,-0.0663,-0.004,1.0324,-0.0305,-0.0795,172
9,-0.7969,-0.1581,-0.0081,1.0412,0.0228,-0.0457,172
9,-0.7969,-0.1581,-0.0081,1.0345,0.0872,-0.0076,172
9,-0.801,-0.2051,-0.0326,1.0673,0.1515,0.0479,172
9,-0.754,-0.2438,-0.0765,1.1501,0.2354,0.1581,172
9,-0.9296,-0.2592,-0.1489,1.2157,0.3412,0.3128,172
9,-0.9296,-0.2357,-0.2142,1.4304,0.3542,0.3281,172
9,-0.9622,-0.0806,-0.1847,1.6266,0.3597,0.399,172
9,-1.0286,0.0632,-0.1224,1.5318,0.35,0.4317,172
9,-1.0765,0.0122,-0.153,1.4042,0.3325,0.4568,172
9,-1.1602,0.0438,-0.1387,1.5002,0.2899,0.5179,172
9,-1.1887,0.1775,-0.052,1.5765,0.1951,0.5713,172
9,-1.2877,0.2408,-0.0734,1.4925,0.1493,0.5745,172
9,-1.2704,0.2245,-0.1439,1.4925,0.1493,0.5745,172
9,-1.2704,0.2245,-0.1439,1.5165,0.0643,0.5996,172
9,-1.2928,0.352,-0.1112,1.68,0.0261,0.5984,172
9,-1.3387,0.4949,-0.0541,1.656,-0.0185,0.532,172
9,-1.3796,0.5786,-0.0939,1.5667,-0.0806,0.4971,172
9,-1.2867,0.6143,-0.0632,1.486,-0.1951,0.4502,172
9,-1.2816,0.6112,-0.0316,1.3737,-0.2899,0.3489,172
9,-1.1898,0.6061,0.0295,1.2788,-0.399,0.2464,172
9,-1.0132,0.5367,0.153,1.184,-0.4143,0.1362,172
9,-0.9398,0.4897,0.1602,1.135,-0.3979,0.0414,172
9,-0.901,0.449,0.152,1.135,-0.3979,0.0414,172
9,-0.8908,0.4255,0.1112,1.1272,-0.3489,-0.0282,172
9,-0.8908,0.4255,0.1112,1.1272,-0.3019,-0.0654,172
9,-0.8959,0.3918,0.0612,1.1087,-0.242,-0.0708,172
9,-0.9132,0.3561,0.0408,1.0509,-0.2071,-0.0555,172
9,-0.9337,0.2938,0.0286,1.0324,-0.1623,-0.0272,172
9,-1.0031,0.2857,0.0286,1.1077,-0.1581,0.0196,172
9,-1.0684,0.401,0.0357,1.16,-0.1471,0.0446,172
9,-1.0786,0.4337,0.0143,1.1077,-0.1558,0.0425,172
9,-1.0989,0.4132,-0.0071,1.0314,-0.1613,0.0305,172
9,-1.0734,0.3846,-0.0306,1.0314,-0.1613,0.0305,172
9,-1.0143,0.3745,-0.0122,1.0063,-0.1896,0.0261,172
9,-1.0143,0.3745,-0.0122,0.9965,-0.2136,0.0217,172
9,-0.8775,0.3265,-0.0112,0.9223,-0.2507,0.0185,172
9,-0.9061,0.2867,-0.0031,0.9179,-0.2409,0.0206,172
9,-0.7918,0.2857,0.0132,0.9179,-0.2409,0.0206,172
9,-0.7867,0.3204,0.0551,0.9681,-0.2409,0.037,172
9,-0.7367,0.2826,0.0255,0.8983,-0.194,0.0316,172
9,-0.7816,0.3286,-0.0051,0.9866,-0.1732,0.0501,172
9,-0.7499,0.4633,0.0173,0.9845,-0.1787,0.0555,172
9,-0.6979,0.4867,0.0602,0.9845,-0.1787,0.0555,172
9,-0.6592,0.3,0.0071,0.9845,-0.1787,0.0555,172
10,-0.6694,0.2571,-0.0061,0.7205,-0.1776,0.012,172
10,-0.6694,0.2571,-0.0061,0.7348,-0.1286,-0.0053,172
10,-0.7,0.5581,0.1082,0.7348,-0.1286,-0.0053,172
10,-0.6224,0.5112,0.0877,0.8481,-0.0654,0.0,172
10,-0.6408,0.3428,0.004,0.5789,-0.0425,-0.0631,172
10,-0.6337,0.2949,-0.0224,0.4,0.0316,-0.1286,172
10,-0.5898,0.4969,0.0898,0.5799,0.0501,-0.1198,172
10,-0.5408,0.4041,0.051,0.6312,0.1057,-0.1493,172
10,-0.5939,0.2847,-0.0081,0.6312,0.1057,-0.1493,172
10,-0.5939,0.2847,-0.0081,0.3674,0.1471,-0.2278,172
10,-0.5989,0.3102,-0.0081,0.3128,0.2049,-0.2791,172
10,-0.6357,0.5143,0.0295,0.507,0.2256,-0.2693,172
10,-0.602,0.3887,-0.0347,0.4536,0.2714,-0.314,172
10,-0.6622,0.2622,-0.1041,0.1951,0.3052,-0.4,172
10,-0.6449,0.2673,-0.0847,0.1886,0.3368,-0.4393,172
10,-0.7234,0.3316,0.0224,0.3412,0.3314,-0.4382,172
10,-0.7388,0.204,-0.0122,0.2659,0.35,-0.4666,172
10,-0.7979,0.1132,-0.051,0.1003,0.3641,-0.496,172
10,-0.7928,0.1377,-0.0418,0.1875,0.3717,-0.4687,172
10,-0.7928,0.1377,-0.0418,0.1875,0.3717,-0.4687,172
10,-0.8112,0.2214,-0.049,0.3466,0.3771,-0.4307,172
10,-0.8204,0.1326,-0.102,0.3085,0.3826,-0.4382,172
10,-0.8245,0.0745,-0.1367,0.2125,0.3935,-0.4546,172
10,-0.801,0.0979,-0.1122,0.2888,0.4,-0.4404,172
10,-0.7877,0.0877,-0.102,0.3761,0.4044,-0.424,172
10,-0.7602,0.0193,-0.1234,0.3151,0.3968,-0.4263,172
10,-0.7795,0.0071,-0.0887,0.2737,0.3794,-0.4088,172
10,-0.8541,0.0377,-0.0673,0.3609,0.3804,-0.3597,172
10,-1.049,0.0275,-0.0877,0.3946,0.3619,-0.2932,172
10,-1.1387,0.0316,-0.1479,0.3946,0.3619,-0.2932,172
10,-1.1387,0.0316,-0.1479,0.3292,0.3237,-0.2081,172
10,-1.202,0.102,-0.1551,0.3542,0.2224,-0.073,172
10,-1.2826,0.1867,-0.1398,0.4088,0.1035,0.0763,172
10,-1.252,0.2122,-0.1183,0.3008,-0.0501,0.2027,172
10,-1.3336,0.2336,-0.0081,0.1341,-0.2159,0.2943,172
10,-1.4112,0.299,0.1969,0.0839,-0.2922,0.351,172
10,-1.6979,0.3193,0.4214,-0.0053,-0.326,0.3695,172
10,1.8959,0.0673,-0.0347,-0.1896,-0.2485,0.2987,172
10,-1.8418,0.0632,-0.4102,-0.2201,-0.1919,0.2354,172
10,-1.8132,0.2388,-0.3959,-0.2201,-0.1919,0.2354,172
10,-1.3653,0.1479,-0.3184,-0.0087,-0.1373,0.1875,172
10,-1.3653,0.1479,-0.3184,-0.0599,-0.1623,0.0523,172
10,-0.9653,-0.2918,-0.1755,-0.5331,-0.2093,-0.1417,172
10,-1.105,-0.1642,-0.052,-0.5593,-0.3641,-0.1635,172
10,-0.8347,0.0081,0.152,-0.0534,-0.2834,-0.037,172
10,-0.8918,0.0102,-0.0388,0.0784,-0.2388,0.0654,172
10,-0.9122,-0.1102,-0.1153,-0.182,-0.193,0.1297,172
10,-0.8785,-0.1418,-0.1449,-0.3237,-0.1623,0.2039,172
10,-0.9836,-0.0295,-0.0806,-0.157,-0.1526,0.2954,172
10,-1.0061,-0.0255,-0.0347,-0.157,-0.1526,0.2954,172
10,-0.9601,-0.0112,-0.0581,-0.0305,-0.1329,0.3237,172
10,-0.9601,-0.0112,-0.0581,-0.0457,-0.1024,0.3063,172
10,-0.9622,0.0612,0.0,0.0097,-0.1253,0.2899,172
10,-0.8632,0.0643,0.0398,0.0664,-0.1013,0.2627,172
10,-0.7836,-0.1183,-0.0336,-0.0784,-0.0992,0.2278,172
10,-0.6439,-0.0357,0.0418,-0.0675,-0.0174,0.2169,172
10,-0.5581,0.0031,0.0948,0.0992,-0.025,0.2737,172
10,-0.6449,-0.004,0.0918,0.0708,0.0915,0.2867,172
10,-0.5541,-0.0959,0.0153,-0.0566,0.1177,0.2867,172
10,-0.5306,-0.0775,0.0306,-0.0566,0.1177,0.2867,172
10,-0.5255,-0.0847,0.0265,-0.0282,0.2136,0.3205,172
10,-0.5255,-0.0847,0.0265,0.0534,0.2659,0.3401,172
10,-0.5193,-0.1765,-0.0224,0.0282,0.338,0.3248,172
10,-0.6826,-0.1326,-0.0826,0.0774,0.4229,0.3641,172
10,-0.7285,-0.0336,-0.0887,0.2758,0.4044,0.4307,172
10,-0.7857,0.0173,-0.0979,0.3663,0.3826,0.4568,172
10,-0.7479,-0.0031,-0.1255,0.2987,0.2878,0.4753,172
10,-0.703,0.0265,-0.0847,0.2725,0.1875,0.4851,172
10,-0.5816,0.1214,-0.0132,0.387,0.0698,0.508,172
10,-0.5826,0.1449,0.0224,0.387,0.0698,0.508,172
10,-0.7183,0.1255,0.0571,0.2245,-0.2201,0.4382,172
10,-0.7561,0.2367,0.0867,0.2998,-0.2268,0.4065,172
10,-0.8316,0.353,0.1357,0.2998,-0.2268,0.4065,172
10,-0.8316,0.353,0.1357,0.388,-0.2812,0.4164,172
10,-1.0684,0.4755,0.2357,0.3903,-0.2234,0.4088,172
10,-1.9306,0.7357,0.3755,0.3794,-0.1024,0.375,172
10,1.5939,0.8152,0.0939,0.4481,-0.0076,0.2779,172
10,1.246,1.052,-0.3,0.7043,0.0206,0.1711,172
10,1.6021,1.2714,-0.5561,1.0106,-0.1831,-0.0206,172
10,-1.6908,1.7551,-0.5173,1.0738,-0.3729,-0.2791,172
10,-0.855,1.7326,-0.1979,0.7369,-0.653,-0.4763,172
10,-1.0193,1.5071,0.0275,-0.1842,-0.5484,-0.6465,172
10,-0.8939,0.9612,0.1642,-0.1842,-0.5484,-0.6465,172
10,-0.9622,-0.1285,0.0081,-1.4751,-0.3052,-0.412,172
10,-0.9622,-0.1285,0.0081,-2.4139,-0.169,-0.0969,172
10,-1.0459,-0.3745,-0.0122,-2.5196,0.0196,0.3357,172
10,-0.8898,-0.6571,-0.1479,-2.2569,0.0425,0.5734,172
10,-1.2071,-0.5571,-0.1775,-1.6844,0.2268,0.6148,172
10,-0.902,-0.2479,0.0112,-0.5952,0.0032,0.5059,172
10,-1.1285,-0.0204,-0.0132,0.1755,-0.0751,0.0076,172
10,-1.0734,0.1571,0.0367,0.3609,-0.0337,-0.3031,172
10,-0.9306,0.3898,0.0112,0.399,-0.1297,-0.5189,172
10,-0.8489,0.5867,0.0286,0.399,-0.1297,-0.5189,172
10,-0.5979,0.6785,0.0877,0.4982,-0.0751,-0.5799,172
10,-0.5979,0.6785,0.0877,0.4666,-0.0719,-0.4568,172
10,-0.6245,0.7367,0.0347,0.1558,0.0152,-0.3041,172
10,-0.4714,0.5122,0.0081,-0.2682,0.1503,-0.2562,172
10,-0.4714,0.3857,-0.0193,-0.5299,0.193,-0.2376,172
10,-0.3867,0.299,-0.0081,-0.5963,0.3031,-0.3302,172
10,-0.3091,0.2377,0.0306,-0.5418,0.3586,-0.3729,172
10,-0.4092,0.1439,0.0541,-0.4992,0.4513,-0.3597,172
10,-0.4255,0.0408,-0.0102,-0.508,0.5059,-0.3193,172
10,-0.6367,0.001,-0.0857,-0.508,0.5059,-0.3193,172
10,-0.5969,0.0632,-0.0928,-0.4601,0.5494,-0.3237,172
10,-0.5969,0.0632,-0.0928,-0.2333,0.5167,-0.3412,172
10,-0.7755,0.2255,-0.0245,-0.0763,0.4317,-0.3422,172
10,-0.851,0.1398,-0.0224,-0.2136,0.3641,-0.3205,172
10,-1.0826,0.105,-0.0551,-0.4426,0.2464,-0.2834,172
10,-1.0295,0.15,-0.0326,-0.4677,0.0479,-0.1919,172
10,-1.1489,0.2581,0.052,-0.4448,-0.085,-0.1089,172
11,-1.1735,0.0581,0.052,-0.6726,-0.2081,-0.0839,172
11,-1.3163,-0.1459,0.1112,-0.9551,-0.2321,-0.1264,172
11,-1.4816,-0.2275,0.2612,-0.9551,-0.2321,-0.1264,172
11,-1.4816,-0.2275,0.2612,-0.8798,-0.2365,-0.1133,172
11,1.8449,-0.152,-0.1387,-0.5385,-0.2213,-0.0839,172
11,1.8449,-0.152,-0.1387,-0.3281,-0.2485,-0.0925,172
11,1.7827,0.0316,-0.3448,-0.2136,-0.1646,-0.1057,172
11,-1.5796,-0.0234,-0.3234,-0.2507,-0.2474,-0.157,172
11,-1.2816,-0.3602,-0.1714,-0.6541,-0.1766,-0.2791,172
11,-1.2581,-0.4459,-0.1714,-0.8132,-0.2878,-0.2911,172
11,-1.1346,-0.1428,0.0357,-0.2834,-0.2605,-0.1341,172
11,-1.1194,0.0867,-0.0122,0.0925,-0.3096,0.0511,172
11,-0.9908,0.1653,-0.051,-0.0446,-0.2976,0.1155,172
11,-0.9377,0.1071,-0.0663,-0.0446,-0.2976,0.1155,172
11,-0.9377,0.1071,-0.0663,-0.4143,-0.2737,0.0904,172
11,-0.9622,0.0408,-0.0775,-0.508,-0.2495,0.0795,172
11,-0.9377,0.0367,0.0316,-0.4229,-0.2049,0.0708,172
11,-1.0,0.0388,0.0857,-0.3292,-0.194,0.0511,172
11,-0.752,0.0428,0.1082,-0.23,-0.1984,0.0425,172
11,-0.8541,0.0775,0.1316,-0.2071,-0.1919,0.0402,172
11,-0.7714,0.0816,0.1418,-0.2409,-0.1461,0.036,172
11,-0.7092,0.0061,0.1602,-0.3183,-0.1003,0.0282,172
11,-0.5449,-0.1469,0.0898,-0.388,-0.0294,0.0261,172
11,-0.6337,-0.1632,0.1183,-0.388,-0.0294,0.0261,172
11,-0.6337,-0.1632,0.1183,-0.3914,0.0904,0.0479,172
11,-0.4653,-0.2224,0.0693,-0.3041,0.1602,0.0937,172
11,-0.4796,-0.2255,0.053,-0.2376,0.2605,0.1581,172
11,-0.453,-0.2204,0.0153,-0.1864,0.3609,0.1984,172
11,-0.4633,-0.1694,0.0347,-0.0698,0.4263,0.1907,172
11,-0.5183,-0.1765,0.0347,-0.0228,0.4927,0.1493,172
11,-0.6071,-0.1857,-0.0092,-0.0282,0.5582,0.169,172
11,-0.6387,-0.1551,-0.0102,0.0282,0.581,0.2093,172
11,-0.6816,-0.1071,-0.0193,0.1198,0.5757,0.2507,172
11,-0.7663,-0.0826,-0.0775,0.1198,0.5757,0.2507,172
11,-0.8051,-0.0724,-0.1163,0.1482,0.5767,0.2791,172
11,-0.8051,-0.0724,-0.1163,0.1482,0.5528,0.3096,172
11,-0.8091,-0.0367,-0.1102,0.1972,0.5179,0.3575,172
11,-0.7949,0.0,-0.0816,0.2464,0.4611,0.4143,172
11,-0.8152,0.1082,-0.0765,0.2453,0.4077,0.4601,172
11,-0.8979,0.2275,-0.004,0.2518,0.3346,0.4851,172
11,-0.903,0.3184,0.0398,0.2539,0.2529,0.496,172
11,-0.9408,0.2888,-0.0061,0.1133,0.1667,0.4546,172
11,-1.004,0.4387,-0.0632,0.086,0.1057,0.4219,172
11,-1.0163,0.552,-0.0347,0.086,0.1057,0.4219,172
11,-1.0132,0.704,0.1602,0.1984,0.0631,0.3271,172
11,-1.0132,0.704,0.1602,0.2518,0.0272,0.1503,172
11,-1.2602,0.8704,0.4918,0.1744,0.1024,0.0162,172
11,1.5806,0.6969,0.1602,-0.0011,0.2791,-0.0883,172
11,1.6102,0.4601,-0.4571,-0.2617,0.2693,-0.098,172
11,1.5358,0.6602,-0.7275,0.0806,0.2495,-0.1123,172
11,-1.8347,1.151,-0.7163,0.834,0.0523,-0.1177,172
11,-1.2336,1.3173,-0.1326,0.7588,-0.1047,-0.507,172
11,-0.7438,0.6724,0.0693,-0.4721,-0.2398,-0.9507,172
11,-1.3632,0.0826,-0.0847,-1.5328,0.0708,-0.8035,172
11,-1.1928,-0.1377,-0.0704,-1.5328,0.0708,-0.8035,172
11,-1.6703,-0.4203,-0.3448,-1.5961,0.1035,-0.2213,172
11,-1.6703,-0.4203,-0.3448,-1.2712,0.194,0.0883,172
11,-1.4,-0.4694,-0.3326,-0.8319,0.169,0.3096,172
11,-1.5836,-0.4745,-0.3694,-0.4622,-0.0631,0.1253,172
11,-1.2612,-0.3846,-0.2847,0.0784,-0.2627,-0.1972,172
11,-1.1602,0.1928,-0.0132,0.5984,-0.3706,-0.1264,172
11,-0.8969,0.303,0.0479,0.6988,-0.4437,-0.0839,172
11,-0.7714,0.3163,0.0377,0.5004,-0.4731,-0.2125,172
11,-0.7377,0.4326,0.0816,0.5004,-0.4731,-0.2125,172
11,-0.5745,0.5153,0.1275,0.4197,-0.388,-0.1657,172
11,-0.605,0.3734,0.0265,0.3019,-0.3368,-0.0883,172
11,-0.605,0.3734,0.0265,0.0097,-0.231,-0.0948,172
11,-0.5479,0.2571,0.0071,-0.1766,-0.1449,-0.1526,172
11,-0.5112,0.3152,0.0163,-0.0937,-0.0643,-0.1919,172
11,-0.5347,0.401,0.0153,0.0435,-0.0196,-0.2125,172
11,-0.4888,0.3765,-0.0367,-0.1112,0.0937,-0.3456,172
11,-0.4928,0.3357,-0.0224,-0.1657,0.1471,-0.4099,172
11,-0.5571,0.3398,0.001,-0.1471,0.1732,-0.4568,172
11,-0.5571,0.3051,0.0092,-0.2027,0.2256,-0.507,172
11,-0.5541,0.2133,0.0,-0.2932,0.242,-0.545,172
11,-0.6489,0.0663,-0.0122,-0.2943,0.314,-0.5757,172
11,-0.7388,0.0173,-0.0265,-0.2943,0.314,-0.5757,172
11,-0.7979,-0.0265,-0.0449,-0.2409,0.3216,-0.5702,171
11,-0.7979,-0.0265,-0.0449,-0.181,0.3521,-0.5538,171
11,-0.7786,-0.0806,-0.0867,-0.1242,0.3357,-0.5189,171
11,-0.8867,-0.0775,-0.1275,-0.024,0.3565,-0.4763,171
11,-0.9214,-0.0459,-0.1234,0.073,0.2812,-0.4153,171
11,-1.0102,-0.0265,-0.1275,0.1155,0.2573,-0.375,171
11,-0.9938,-0.0408,-0.1428,0.1362,0.1722,-0.3237,171
11,-1.1489,0.1204,-0.1418,0.2071,0.0969,-0.2714,171
11,-1.2867,0.2275,-0.1346,0.2344,-0.0469,-0.2071,171
11,-1.3918,0.3245,-0.1122,0.2344,-0.0469,-0.2071,171
11,-1.4785,0.3653,-0.1122,0.2071,-0.1177,-0.1744,171
11,-1.4785,0.3653,-0.1122,0.0457,-0.2693,-0.1352,171
11,-1.4387,0.3051,-0.0847,-0.193,-0.4307,-0.11,171
11,-1.401,0.2326,-0.0408,-0.4349,-0.5593,-0.0904,171
11,-1.2367,0.1816,0.0336,-0.5614,-0.6705,-0.0675,171
11,-1.1959,0.101,0.1357,-0.664,-0.6629,-0.0937,171
11,-1.2133,-0.1796,0.2316,-0.7708,-0.581,-0.1646,171
11,-1.151,-0.2938,0.2245,-0.7566,-0.4731,-0.2104,171
11,-1.2561,-0.4081,0.0826,-0.6106,-0.3336,-0.1896,171
11,-1.5183,-0.3632,-0.0275,-0.6106,-0.3336,-0.1896,171
11,-1.3939,-0.2888,-0.1306,-0.3542,-0.1842,-0.1068,171
11,-1.3939,-0.2888,-0.1306,-0.2049,-0.23,-0.1406,171
11,-1.2908,-0.2153,-0.0684,-0.1089,-0.1995,-0.0708,171
11,-1.2061,-0.1377,-0.0051,-0.0698,-0.2354,0.0217,171
11,-1.252,-0.1102,-0.0193,-0.0599,-0.1722,0.0925,171
11,-1.2051,0.0132,-0.1204,0.0021,-0.1776,0.1972,171
11,-1.0806,0.0877,-0.1194,0.0751,-0.1623,0.2823,171
11,-1.0204,0.101,-0.1122,-0.0087,-0.2191,0.3368,171
11,-0.9938,0.051,-0.0826,-0.1373,-0.2268,0.326,171
11,-0.903,-0.0796,0.0183,-0.1373,-0.2268,0.326,171
11,-0.901,-0.1041,0.0602,-0.1798,-0.2495,0.3357,171
11,-0.8377,-0.1551,0.0581,-0.1198,-0.2289,0.3434,171
11,-0.8377,-0.1551,0.0581,-0.0828,-0.2125,0.351,171
11,-0.8602,-0.1744,0.0428,-0.0316,-0.1722,0.3597,171
12,-0.704,-0.2051,0.0449,0.0469,-0.1547,0.3815,171
12,-0.7704,-0.1551,0.0388,0.1503,-0.036,0.387,171
12,-0.5826,-0.0989,0.0428,0.2474,-0.0337,0.4099,171
12,-0.5836,-0.1183,0.0102,0.2224,0.0643,0.3903,171
12,-0.5765,-0.1694,-0.0286,0.1744,0.0948,0.3794,171
12,-0.6306,-0.1296,-0.0102,0.2791,0.1798,0.3815,171
12,-0.5796,-0.0806,0.0,0.2791,0.1798,0.3815,171
12,-0.5796,-0.0806,0.0,0.3815,0.193,0.4088,171
12,-0.6224,-0.0479,-0.0173,0.3641,0.2507,0.4143,171
12,-0.6551,0.001,-0.0132,0.3609,0.2638,0.4414,171
12,-0.6683,0.0469,0.0,0.3946,0.2954,0.4666,171
12,-0.6826,0.0388,-0.0245,0.3412,0.3128,0.4797,171
12,-0.7285,-0.0071,-0.0806,0.2987,0.3302,0.4862,171
12,-0.7806,0.0143,-0.0918,0.3412,0.3314,0.5124,171
12,-0.7979,0.0459,-0.1122,0.4044,0.3107,0.5429,171
12,-0.8265,0.0541,-0.1255,0.412,0.2605,0.5679,171
12,-0.8184,0.0428,-0.1163,0.412,0.2605,0.5679,171
12,-0.8184,0.0428,-0.1163,0.3935,0.1842,0.5898,171
12,-0.8286,0.0479,-0.0877,0.4109,0.1112,0.6039,171
12,-0.9092,0.103,-0.0418,0.4687,0.0141,0.6138,171
12,-0.8306,0.1224,-0.0112,0.4666,-0.1341,0.6127,171
12,-0.8622,0.2234,-0.001,0.4916,-0.2081,0.5865,171
12,-0.8296,0.3694,0.0418,0.5865,-0.2899,0.5625,171
12,-0.9051,0.5061,0.0786,0.6072,-0.2899,0.5091,171
12,-0.9581,0.6173,0.1306,0.5156,-0.2802,0.3958,171
12,-1.2857,0.7959,0.3275,0.4252,-0.2256,0.2049,171
12,-1.5438,0.8591,0.3632,0.4252,-0.2256,0.2049,171
12,-1.8643,0.852,0.1653,0.3542,-0.1482,0.0894,171
12,-1.8643,0.852,0.1653,0.2878,-0.0577,0.0294,171
12,1.9316,0.8632,-0.1387,0.3968,-0.0196,-0.0141,171
12,-1.8286,1.2265,-0.4214,0.6606,-0.0937,-0.1242,171
12,-1.6061,1.403,-0.3204,0.701,-0.2081,-0.3151,171
12,-1.3663,1.3653,-0.0969,0.23,-0.3073,-0.4578,171
12,-0.803,0.9857,0.0673,-0.6661,-0.3107,-0.4655,171
12,-0.9673,0.1489,-0.0112,-1.2211,-0.0479,-0.2998,171
12,-1.0183,-0.0143,-0.0643,-1.2319,-0.0206,-0.0948,171
12,-1.0275,-0.1326,-0.102,-1.2319,-0.0206,-0.0948,171
12,-1.1408,-0.2806,-0.1694,-1.0477,0.1089,0.098,171
12,-1.1408,-0.2806,-0.1694,-0.9005,0.169,0.1493,171
12,-1.1459,-0.4408,-0.2153,-0.6291,0.0828,0.0883,171
12,-1.1143,-0.2438,-0.1346,-0.1449,0.0087,-0.0511,171
12,-0.9928,0.0398,-0.0245,0.3783,-0.1068,-0.0577,171
12,-1.0,0.249,0.0765,0.4088,-0.1155,-0.0097,171
12,-0.7112,0.2479,0.001,0.1657,-0.1547,-0.0631,171
12,-0.7928,0.3694,0.05,0.1907,-0.0621,-0.0152,171
12,-0.7275,0.452,0.0581,0.2159,-0.0435,-0.0305,171
12,-0.6204,0.4908,0.0061,0.1318,0.0087,-0.1384,171
12,-0.5714,0.5388,0.0193,0.1318,0.0087,-0.1384,171
12,-0.451,0.5245,0.0326,0.1242,0.0948,-0.206,171
12,-0.451,0.5245,0.0326,0.0654,0.1362,-0.3117,171
12,-0.4183,0.4979,0.0347,-0.0654,0.23,-0.3586,171
12,-0.4979,0.303,-0.0061,-0.2201,0.314,-0.387,171
12,-0.5286,0.2081,-0.0071,-0.267,0.3717,-0.4469,171
12,-0.5765,0.1826,-0.001,-0.1471,0.4229,-0.4721,171
12,-0.6316,0.1785,0.002,-0.0523,0.4382,-0.4818,171
12,-0.6796,0.1479,0.001,-0.0282,0.4414,-0.483,171
12,-0.6898,0.1398,-0.0377,-0.0065,0.4481,-0.4851,171
12,-0.7438,0.1459,-0.0622,-0.0065,0.4481,-0.4851,171
12,-0.7153,0.1439,-0.049,0.0206,0.4742,-0.4753,171
12,-0.7153,0.1439,-0.049,0.0021,0.4568,-0.4601,171
12,-0.8643,0.0286,-0.0602,-0.0708,0.4622,-0.4524,171
12,-0.9745,-0.0143,-0.0877,-0.1089,0.4088,-0.4055,171
12,-1.1091,0.0775,-0.0734,-0.0305,0.3041,-0.3161,171
12,-1.0816,0.203,-0.0459,0.0108,0.1384,-0.2245,171
12,-1.2479,0.2112,-0.0684,-0.1581,0.0349,-0.1831,171
12,-1.2602,0.1387,-0.0663,-0.3826,-0.1089,-0.1471,171
12,-1.2663,0.105,0.0,-0.4349,-0.2201,-0.0925,171
12,-1.2969,0.1122,0.1367,-0.4349,-0.2201,-0.0925,171
12,-1.2969,0.1122,0.1367,-0.4077,-0.2638,-0.0501,171
12,-1.7755,0.0602,-0.1285,-0.4338,-0.2485,-0.0589,171
12,-1.7265,0.1724,-0.1602,-0.2649,-0.1526,-0.0708,171
12,-1.7265,0.1724,-0.1602,-0.2191,-0.1635,-0.1057,171
12,-1.6367,-0.1398,-0.2367,-0.52,-0.1264,-0.2071,171
12,-1.4051,-0.2561,-0.1694,-0.5996,-0.1482,-0.2649,171
12,-1.3224,-0.2275,-0.1061,-0.3128,-0.1787,-0.2289,171
12,-1.4051,-0.0418,-0.0295,-0.0894,-0.182,-0.1471,171
12,-1.3939,-0.0122,-0.1265,-0.157,-0.1613,-0.073,171
12,-1.1346,-0.05,-0.1602,-0.2409,-0.1701,0.024,171
12,-1.2306,-0.0479,-0.1857,-0.23,-0.1646,0.1167,171
12,-1.1847,0.0122,-0.1122,-0.23,-0.1646,0.1167,171
12,-1.1439,0.0143,-0.0541,-0.1722,-0.2245,0.2005,171
12,-1.1439,0.0143,-0.0541,-0.169,-0.1951,0.2159,171
12,-0.8775,-0.0377,-0.0234,-0.1744,-0.2278,0.2354,171
12,-0.9061,-0.049,0.0234,-0.1352,-0.2115,0.255,171
12,-0.9173,-0.0214,0.0388,-0.0883,-0.2169,0.2844,171
12,-0.8745,-0.0408,0.0193,-0.0839,-0.1667,0.3063,171
12,-0.703,-0.0561,0.0153,-0.0686,-0.1623,0.3346,171
12,-0.6826,-0.0684,0.0122,-0.0446,-0.1057,0.3445,171
12,-0.5204,-0.1265,0.0367,-0.0425,-0.0631,0.3532,171
12,-0.5132,-0.1285,0.0398,-0.0425,-0.0631,0.3532,171
12,-0.5061,-0.1285,0.0408,-0.0053,-0.0043,0.4,171
12,-0.5061,-0.1285,0.0408,0.0501,0.086,0.4175,171
12,-0.454,-0.1214,0.0479,0.1286,0.1493,0.3935,171
12,-0.4122,-0.1122,0.0449,0.1646,0.2191,0.3859,171
12,-0.4449,-0.1439,0.0112,0.1744,0.3161,0.3794,171
12,-0.4969,-0.1387,-0.0061,0.2453,0.387,0.388,171
12,-0.5479,-0.1214,-0.0163,0.3248,0.4284,0.4055,171
12,-0.6959,-0.0295,-0.0591,0.4099,0.4633,0.4252,171
12,-0.7357,0.0714,-0.0551,0.5244,0.4687,0.4589,171
12,-0.7898,0.15,-0.0643,0.5244,0.4687,0.4589,171
12,-0.7898,0.15,-0.0643,0.5429,0.4698,0.4763,171
12,-0.8204,0.2101,-0.1398,0.4643,0.4546,0.4775,171
12,-0.8204,0.2101,-0.1398,0.4012,0.4187,0.4807,171
12,-0.7979,0.1959,-0.1612,0.3597,0.3674,0.4927,171
12,-0.7857,0.1898,-0.1346,0.2922,0.3117,0.4807,171
12,-0.6489,0.1071,-0.1418,0.193,0.2245,0.4698,171
12,-0.6908,0.053,-0.0775,0.2507,0.1864,0.4513,171
12,-0.7367,0.105,-0.0061,0.3891,0.0686,0.4437,171
12,-0.801,0.1234,0.0265,0.4044,-0.0131,0.412,171
13,-0.7816,0.1316,0.0163,0.4175,-0.1242,0.3968,171
13,-0.95,0.401,0.0255,0.4175,-0.1242,0.3968,171
13,-0.95,0.401,0.0255,0.5408,-0.1732,0.4055,171
13,-1.0806,0.5755,0.053,0.5833,-0.2115,0.3914,171
13,-1.2071,0.6622,0.101,0.4742,-0.2016,0.2627,171
13,-1.3439,0.7499,0.1857,0.4065,-0.1482,0.1831,171
13,-1.8632,0.9316,0.0541,0.4295,-0.0392,0.1373,171
13,-1.9847,1.0143,-0.2622,0.5265,0.0206,0.0501,171
13,-1.9438,1.202,-0.4938,0.7293,0.0261,-0.1537,171
13,-1.6061,1.3418,-0.5275,0.7632,-0.0381,-0.4317,171
13,-1.1173,1.2388,-0.1214,0.2081,-0.1133,-0.6083,171
13,-1.0428,0.6561,-0.0898,0.2081,-0.1133,-0.6083,171
13,-1.0428,0.6561,-0.0898,-0.9114,-0.1482,-0.6051,171
13,-1.2632,0.1581,-0.1041,-1.4685,0.049,-0.35,171
13,-0.954,-0.1673,-0.1592,-1.2668,0.0097,0.0131,171
13,-1.0,-0.3132,-0.1816,-0.966,0.0969,0.2594,171
13,-1.0612,-0.4571,-0.2275,-0.8035,0.1123,0.2136,171
13,-1.1571,-0.4877,-0.254,-0.3685,0.0948,0.1167,171
13,-1.1163,-0.3765,-0.204,0.2268,0.0043,-0.074,171
13,-1.2377,0.2479,-0.0928,0.6781,-0.0294,-0.0053,171
13,-1.1683,0.4163,-0.0591,0.6966,-0.1068,-0.0894,171
13,-1.0673,0.4326,-0.1173,0.6966,-0.1068,-0.0894,171
13,-1.0132,0.5357,-0.0887,0.5582,-0.169,-0.3063,171
13,-1.0132,0.5357,-0.0887,0.5843,-0.1972,-0.3172,171
13,-0.8775,0.7938,0.0286,0.5364,-0.2147,-0.2932,171
13,-0.6214,0.7214,-0.0071,0.1995,-0.2289,-0.2922,171
13,-0.6663,0.6612,-0.05,-0.0925,-0.0719,-0.242,171
13,-0.5428,0.5591,-0.0571,-0.2201,-0.0435,-0.2594,171
13,-0.5306,0.5173,0.002,-0.2758,0.0217,-0.3271,171
13,-0.5234,0.4142,0.0061,-0.3924,0.1003,-0.4263,171
13,-0.5183,0.2847,-0.002,-0.4643,0.1547,-0.4927,171
13,-0.5816,0.1571,0.0398,-0.4643,0.1547,-0.4927,171
13,-0.6194,0.0816,0.0255,-0.3717,0.23,-0.4557,171
13,-0.6194,0.0816,0.0255,-0.3161,0.2856,-0.424,171
13,-0.6703,-0.0275,-0.0306,-0.2954,0.3052,-0.4666,171
13,-0.6561,-0.0908,-0.0796,-0.0915,0.3096,-0.4666,171
13,-0.7867,0.0234,-0.0806,0.1318,0.2899,-0.4524,171
13,-0.8479,0.0306,-0.0714,0.1417,0.2136,-0.4012,171
13,-0.953,-0.0571,-0.103,0.0545,0.1396,-0.3314,171
13,-1.1612,-0.0643,-0.1337,0.1024,-0.0316,-0.1972,171
13,-1.0143,0.2693,-0.0989,0.218,-0.2812,-0.0294,171
13,-0.9775,0.453,-0.0102,0.1493,-0.4012,0.0589,171
13,-0.8469,0.4622,0.0336,0.1493,-0.4012,0.0589,171
13,-0.9285,0.3173,0.1112,-0.2507,-0.5015,0.0654,171
13,-0.9285,0.3173,0.1112,-0.6411,-0.4578,-0.0043,171
13,-1.3122,0.0122,0.5132,-0.702,-0.4055,-0.0316,171
13,-1.9387,-0.0092,0.5581,-0.5723,-0.242,-0.1035,171
13,-1.9724,-0.2551,0.0847,-0.495,-0.2049,-0.1396,171
13,1.7715,-0.2418,-0.4745,0.0511,-0.181,-0.1167,171
13,-1.4377,0.4244,-0.3367,0.351,-0.2911,-0.0992,171
13,-1.1469,0.251,-0.105,-0.3357,-0.3085,-0.314,171
13,-0.9469,-0.3061,-0.1194,-0.9582,-0.3019,-0.4448,171
13,-1.1132,-0.4653,0.001,-0.9582,-0.3019,-0.4448,171
13,-0.9255,0.1969,0.1449,-0.3641,-0.2093,-0.2878,171
13,-0.9255,0.1969,0.1449,0.339,-0.2344,-0.0316,171
13,-1.2877,0.2388,-0.0418,0.0915,-0.074,0.0828,171
13,-1.103,0.0112,-0.1918,-0.3729,-0.1274,0.1461,171
13,-1.2265,-0.0438,-0.2438,-0.2768,-0.1732,0.2256,171
13,-1.1183,0.2347,0.0071,-0.0511,-0.218,0.2812,171
13,-1.0153,0.1744,0.0051,-0.1308,-0.1776,0.2289,171
13,-1.0796,0.0724,0.0224,-0.2485,-0.1253,0.1581,171
13,-0.9071,-0.0479,-0.0286,-0.1537,-0.1047,0.1482,171
13,-0.9071,-0.0479,-0.0286,-0.1537,-0.1047,0.1482,171
13,-0.8428,0.0541,0.0255,-0.0381,-0.0948,0.1667,171
13,-0.9326,0.049,0.0112,-0.1013,-0.0294,0.157,171
13,-0.7459,-0.0551,0.0031,-0.1842,-0.0261,0.1667,171
13,-0.7602,-0.1255,-0.0306,-0.0763,0.0643,0.2027,171
13,-0.5745,-0.0061,0.0275,0.0599,0.0511,0.2507,171
13,-0.6357,0.0102,0.0214,0.0108,0.1286,0.2409,171
13,-0.5775,-0.0632,-0.001,-0.0883,0.1591,0.231,171
13,-0.6112,-0.0714,-0.0143,0.1167,0.2812,0.2922,171
13,-0.6632,-0.0061,-0.0193,0.1864,0.3292,0.3085,171
13,-0.6683,0.0326,-0.0306,0.1875,0.3575,0.3281,171
13,-0.7449,0.1316,-0.0459,0.1984,0.3914,0.3477,171
13,-0.7449,0.1877,-0.0316,0.1984,0.3914,0.3477,171
13,-0.752,0.2153,-0.0377,0.2049,0.399,0.3565,171
13,-0.752,0.2153,-0.0377,0.1678,0.4143,0.3456,171
13,-0.7479,0.2051,-0.0602,0.0915,0.4143,0.3292,171
13,-0.704,0.152,-0.1122,0.0511,0.4012,0.326,171
13,-0.7173,0.152,-0.1082,0.0599,0.3838,0.3281,171
13,-0.7418,0.1928,-0.0836,0.0435,0.3205,0.3357,171
13,-0.7397,0.201,-0.1132,0.0131,0.2495,0.3193,171
13,-0.8939,0.2449,-0.0612,0.0032,0.1449,0.3008,171
13,-0.9183,0.2755,-0.0418,-0.0174,0.0032,0.2725,171
13,-0.9316,0.3051,-0.0295,-0.0174,0.0032,0.2725,171
13,-0.9867,0.3826,-0.0031,-0.0206,-0.1068,0.2365,171
13,-1.0908,0.5132,0.0796,0.0162,-0.1798,0.1919,171
13,-1.0908,0.5132,0.0796,-0.0349,-0.2256,0.1297,171
13,-1.2071,0.552,0.1122,-0.1089,-0.2278,0.0675,171
13,-1.3826,0.6255,0.1816,-0.0904,-0.2104,0.0185,171
13,-1.6082,0.7081,0.203,-0.0479,-0.169,-0.0664,171
13,-1.8132,0.7306,-0.1469,-0.0305,-0.1471,-0.1384,171
13,-1.7888,0.8091,-0.352,0.0282,-0.1482,-0.1919,171
13,-1.5939,0.949,-0.3632,0.0643,-0.2081,-0.2442,171
13,-1.3132,1.002,-0.2663,0.0643,-0.2081,-0.2442,171
13,-1.0602,0.4642,-0.1041,-0.1995,-0.1755,-0.2693,171
13,-1.203,0.0,-0.1469,-0.9267,-0.2354,-0.3216,171
13,-1.203,0.0,-0.1469,-1.2222,-0.1089,-0.4065,171
13,-1.1581,-0.153,-0.1551,-0.8122,-0.1068,-0.2049,171
13,-1.2051,-0.052,-0.0816,-0.5179,-0.0969,-0.1221,171
13,-1.203,-0.3112,-0.15,-0.5276,-0.1242,-0.2768,171
13,-1.1612,-0.351,-0.1938,-0.2016,-0.1461,-0.2507,171
13,-1.0622,-0.1082,-0.1122,0.3227,-0.1526,-0.11,171
13,-1.0775,0.1806,0.0214,0.3838,-0.1329,-0.049,171
13,-0.9755,0.2183,-0.0336,0.1297,-0.0948,-0.0599,171
13,-0.9714,0.2469,-0.0724,0.1297,-0.0948,-0.0599,171
13,-0.9714,0.2469,-0.0724,0.1591,-0.049,-0.0349,171
13,-0.9235,0.4112,-0.0418,0.3063,-0.0545,0.0097,171
13,-0.8571,0.5183,0.0061,0.1384,-0.0589,-0.0162,171
13,-0.7173,0.3428,-0.0418,-0.1286,-0.0316,-0.0534,171
13,-0.6224,0.2795,-0.05,-0.1188,-0.0108,-0.0545,171
14,-0.6183,0.35,0.0,-0.0087,0.0305,-0.0523,171
14,-0.5173,0.3846,0.0286,-0.1167,0.0774,-0.0948,171
14,-0.5051,0.2061,-0.0408,-0.2344,0.1722,-0.1591,171
14,-0.4551,0.1571,-0.0438,-0.1406,0.2136,-0.1864,171
14,-0.4949,0.1918,-0.0081,-0.1406,0.2136,-0.1864,171
14,-0.4949,0.1918,-0.0081,-0.012,0.2725,-0.2213,171
14,-0.5714,0.1551,0.0122,-0.012,0.3248,-0.2682,171
14,-0.6061,0.102,-0.0081,0.0032,0.3609,-0.2987,171
14,-0.6337,0.0847,-0.0132,0.1057,0.3783,-0.2954,171
14,-0.7142,0.1204,-0.0163,0.2093,0.3914,-0.2834,171
14,-0.7693,0.1837,-0.0469,0.2268,0.3848,-0.2714,171
14,-0.7724,0.1877,-0.0857,0.2016,0.3609,-0.2583,171
14,-0.7612,0.202,-0.0979,0.2016,0.3281,-0.2442,171
14,-0.7979,0.2296,-0.0786,0.1744,0.2899,-0.231,171
14,-0.9071,0.1949,-0.0591,0.1744,0.2899,-0.231,171
14,-0.9235,0.1694,-0.101,0.085,0.2191,-0.2071,171
14,-0.9235,0.1694,-0.101,0.0065,0.0818,-0.1515,171
14,-0.9888,0.2296,-0.0908,0.012,-0.037,-0.0883,171
14,-0.999,0.3428,-0.0234,-0.0708,-0.1667,-0.0511,171
14,-1.0295,0.2204,0.0316,-0.3826,-0.243,-0.0784,171
14,-1.1296,0.0316,0.0367,-0.5582,-0.2758,-0.1068,171
14,-1.303,-0.0377,0.102,-0.4012,-0.2834,-0.0959,171
14,-1.4755,0.0081,0.1806,-0.1995,-0.2943,-0.0904,171
14,-1.6469,0.0224,-0.0031,-0.1995,-0.2812,-0.1308,171
14,-1.7795,-0.0408,-0.2204,-0.2081,-0.1678,-0.1919,171
14,-1.5092,-0.0591,-0.2979,-0.2081,-0.1678,-0.1919,171
14,-1.2428,-0.1194,-0.2734,-0.169,-0.2081,-0.2169,171
14,-1.2428,-0.1194,-0.2734,-0.1635,-0.1362,-0.267,171
14,-1.0122,-0.0989,-0.0632,-0.074,-0.231,-0.2529,171
14,-1.1724,0.0102,0.0193,0.1133,-0.1471,-0.2191,171
14,-1.2336,0.1479,0.0438,0.1177,-0.193,-0.1329,171
14,-1.1255,0.0898,-0.0816,-0.0599,-0.0751,-0.0904,171
14,-1.2581,-0.0286,-0.2449,-0.0818,-0.1515,0.0261,171
14,-1.355,0.0336,-0.2051,0.0501,-0.1232,0.1089,171
14,-1.3448,0.1326,-0.1469,0.1047,-0.2027,0.1657,171
14,-1.1234,0.1806,-0.0775,0.1047,-0.2027,0.1657,171
14,-1.0428,0.0255,-0.0734,0.0043,-0.2169,0.1493,171
14,-1.0428,0.0255,-0.0734,-0.0599,-0.1972,0.1253,171
14,-0.9092,0.0214,-0.0183,0.049,-0.1842,0.1209,171
14,-0.9173,0.0418,0.0193,0.0883,-0.1133,0.1133,171
14,-0.8908,-0.0092,-0.0081,0.098,-0.0751,0.1035,171
14,-0.7877,-0.053,-0.0193,0.1537,-0.0316,0.1112,171
14,-0.7826,-0.0724,-0.0408,0.1919,0.0282,0.1167,171
14,-0.7214,-0.0887,-0.05,0.23,0.0774,0.1209,171
14,-0.699,-0.0928,-0.0632,0.23,0.0774,0.1209,171
14,-0.5755,-0.0673,-0.0602,0.2856,0.1286,0.1352,171
14,-0.6367,-0.0612,-0.0612,0.3151,0.1613,0.1373,171
14,-0.6367,-0.0612,-0.0612,0.338,0.2376,0.1503,171
14,-0.6061,-0.0571,-0.0428,0.3565,0.2409,0.1581,171
14,-0.6245,0.0,-0.0398,0.4109,0.3073,0.1623,171
14,-0.5714,0.051,-0.0234,0.4349,0.3183,0.181,171
14,-0.6091,0.0602,-0.0408,0.3935,0.3609,0.1787,171
14,-0.6428,0.0398,-0.0786,0.375,0.3674,0.182,171
14,-0.7551,0.051,-0.153,0.4372,0.387,0.1875,171
14,-0.754,0.0887,-0.1642,0.508,0.3401,0.2071,171
14,-0.8152,0.1428,-0.1387,0.508,0.3401,0.2071,171
14,-0.8152,0.1428,-0.1387,0.5287,0.2844,0.2016,171
14,-0.8724,0.1877,-0.15,0.5396,0.1744,0.182,171
14,-1.0602,0.3286,-0.1173,0.5364,0.0076,0.1503,171
14,-0.9479,0.3408,-0.1337,0.4426,-0.2071,0.1089,171
14,-1.0071,0.3745,-0.1143,0.4077,-0.3248,0.0589,171
14,-0.8632,0.4438,-0.053,0.3761,-0.4502,0.0076,171
14,-0.855,0.4867,0.1245,0.1919,-0.4731,-0.0643,171
14,-0.9255,0.4387,0.1541,0.073,-0.4568,-0.1133,171
14,-1.0673,0.4571,0.1969,0.1329,-0.4088,-0.1013,171
14,-1.2397,0.5418,0.204,0.1329,-0.4088,-0.1013,171
14,-1.2397,0.5418,0.204,0.2115,-0.3554,-0.0698,171
14,-1.4999,0.5877,-0.0969,0.2485,-0.2856,-0.1047,171
14,-1.7561,0.7632,-0.2061,0.2485,-0.2856,-0.1047,171
14,-1.1173,0.7499,-0.1173,-0.4034,-0.2529,-0.5593,171
14,-1.1173,0.7499,-0.1173,-0.4034,-0.2529,-0.5593,171
14,-1.2408,0.2612,-0.1816,-0.87,-0.1678,-0.5702,171
14,-0.999,-0.1122,-0.1408,-0.87,-0.1678,-0.5702,171
14,-0.9755,-0.2071,-0.0928,-0.7304,-0.182,-0.4088,171
14,-0.8428,-0.3867,-0.1091,-0.5026,-0.1308,-0.1471,171
14,-0.8887,-0.603,-0.2071,-0.4307,-0.1242,-0.1732,171
14,-0.9224,-0.5204,-0.1408,0.4307,-0.1035,-0.2779,171
14,-0.7153,-0.3796,-0.0632,0.4307,-0.1035,-0.2779,171
14,-0.8387,-0.0275,0.0183,0.8351,-0.0686,-0.3357,171
14,-0.7449,-0.0153,-0.0336,0.9343,-0.037,-0.2583,171
14,-0.9438,0.1,-0.0724,0.9343,-0.037,-0.2583,171
14,-0.9438,0.1,-0.0724,0.9114,0.0185,-0.2453,171
14,-0.8714,0.251,-0.0571,1.1392,0.0305,-0.2409,171
14,-0.8673,0.3877,-0.0969,1.1392,0.0305,-0.2409,171
14,-0.7949,0.3898,-0.1439,1.1077,0.0664,-0.3532,171
14,-0.7816,0.3898,-0.1877,1.0248,0.0774,-0.4077,171
14,-0.6969,0.4071,-0.1816,0.979,0.085,-0.3597,171
14,-0.7,0.2561,-0.1663,0.8558,0.11,-0.2507,171
14,-0.6877,0.1102,-0.1785,0.6661,0.1657,-0.2594,171
14,-0.704,0.0347,-0.1541,0.6301,0.1744,-0.2791,171
14,-0.6877,0.0031,-0.0193,0.6301,0.1744,-0.2791,171
14,-0.6877,-0.0745,-0.0112,0.7915,0.1831,-0.2605,171
14,-0.6877,-0.0745,-0.0112,0.8897,0.1984,-0.2485,171
14,-0.6694,-0.151,-0.0418,0.8787,0.2245,-0.2344,171
14,-0.7051,-0.1316,-0.051,0.9561,0.2464,-0.1755,171
14,-0.6918,-0.1326,-0.101,1.1164,0.255,-0.1362,171
14,-0.5857,-0.1265,-0.0663,1.2461,0.3314,-0.1547,171
14,-0.5989,-0.1479,-0.0143,1.3311,0.3357,-0.1503,171
14,-0.7306,-0.2224,0.002,1.3683,0.4361,-0.1428,171
14,-1.1826,-0.2255,-0.1041,1.4118,0.4982,-0.0959,171
14,-1.4041,-0.0602,-0.2071,1.4118,0.4982,-0.0959,171
14,-1.7938,0.2316,-0.1551,1.6114,0.5265,0.0087,171
14,-1.7938,0.2316,-0.1551,1.8828,0.4797,0.1482,171
14,-1.9673,0.3489,-0.1551,1.9471,0.3565,0.2213,171
14,1.6143,0.4449,0.1887,1.6735,0.1449,0.2737,171
14,1.1725,0.3969,0.1285,1.256,-0.1667,0.375,171
14,1.2796,0.5316,-0.1632,1.1186,-0.2409,0.4568,171
14,1.7908,0.7531,-0.3489,1.3006,-0.5091,0.5244,171
14,-1.3939,0.602,0.0591,1.2102,-0.5887,0.255,171
15,-1.1306,0.1632,0.2265,0.6454,-0.6552,0.0152,171
15,-1.0347,-0.3214,0.2183,0.6454,-0.6552,0.0152,171
15,-1.1806,-0.4571,0.2397,-0.0076,-0.6323,-0.1722,171
15,-1.1806,-0.4571,0.2397,0.0011,-0.4666,-0.1089,171
15,-1.6918,-0.3663,0.001,0.5341,-0.3859,0.1024,171
15,-1.351,-0.2194,0.0163,1.1284,-0.2125,0.2954,171
15,-1.5541,-0.0724,-0.0092,1.3901,-0.4088,0.3336,171
15,-1.702,0.0316,-0.0204,1.4336,-0.3477,0.3783,171
15,-1.4959,0.1857,-0.0867,1.499,-0.4938,0.4044,171
15,-1.3061,0.2949,-0.0847,1.6201,-0.4219,0.3674,171
15,-1.1755,0.3653,-0.0438,1.6451,-0.4938,0.3521,171
15,-1.1337,0.3091,-0.0275,1.6451,-0.4938,0.3521,171
15,-1.1337,0.3091,-0.0275,1.5034,-0.4536,0.2737,171
15,-1.0,0.0684,-0.1173,1.2745,-0.4568,0.2016,171
15,-1.0479,0.1418,-0.0826,1.3126,-0.4382,0.193,171
15,-0.95,0.1949,-0.0714,1.498,-0.4546,0.2256,171
15,-0.9408,0.1112,-0.102,1.4412,-0.4872,0.2201,171
15,-0.8173,0.001,-0.1418,1.3704,-0.507,0.2071,171
15,-0.7847,0.0684,-0.0786,1.5187,-0.5221,0.2256,171
15,-0.754,0.1296,-0.0734,1.6419,-0.5582,0.2605,171
15,-0.7857,0.1581,-0.0877,1.6354,-0.5505,0.2605,171
15,-0.7306,0.1949,-0.0887,1.6354,-0.5505,0.2605,171
15,-0.7306,0.1949,-0.0887,1.6211,-0.557,0.2627,171
15,-0.6775,0.2153,-0.0765,1.6255,-0.556,0.2518,171
15,-0.6806,0.2051,-0.0867,1.6016,-0.544,0.2081,171
15,-0.702,0.204,-0.1082,1.5526,-0.5309,0.1701,171
15,-0.7194,0.2653,-0.0847,1.5928,-0.5353,0.1526,171
15,-0.7255,0.3091,-0.0918,1.6245,-0.532,0.1406,171
15,-0.6663,0.303,-0.0939,1.5536,-0.545,0.1264,171
15,-0.6642,0.299,-0.0989,1.4816,-0.5429,0.1253,171
15,-0.704,0.3265,-0.0796,1.438,-0.556,0.1155,171
15,-0.7418,0.352,-0.0643,1.4271,-0.5211,0.1035,171
15,-0.7245,0.3347,-0.0684,1.4271,-0.5211,0.1035,171
15,-0.7245,0.3347,-0.0684,1.3922,-0.5244,0.0992,171
15,-0.7795,0.2163,-0.0816,1.3006,-0.4906,0.0719,171
15,-0.8163,0.1928,-0.0561,1.2527,-0.4666,0.0479,171
15,-0.852,0.1642,-0.0132,1.2756,-0.4349,0.0282,171
15,-0.8724,0.0877,-0.0031,1.2537,-0.3935,0.0053,171
15,-0.9265,-0.1173,-0.0786,1.2069,-0.3434,-0.0152,171
15,-0.949,-0.1132,-0.0989,1.2974,-0.3107,0.0,171
15,-0.8949,-0.105,-0.1234,1.4729,-0.2888,0.0326,171
15,-0.9969,-0.0836,-0.1418,1.5841,-0.2268,0.0534,171
15,-0.9653,-0.0428,-0.152,1.5841,-0.2268,0.0534,171
15,-1.002,-0.0143,-0.1755,1.6625,-0.2213,0.0937,171
15,-1.002,-0.0143,-0.1755,1.7203,-0.1886,0.1297,171
15,-0.9408,0.0316,-0.1877,1.8021,-0.1744,0.1755,171
15,-1.0112,0.0836,-0.1908,1.8785,-0.1396,0.2104,171
15,-0.951,0.049,-0.251,1.8785,-0.1274,0.23,171
15,-0.9408,0.0306,-0.2683,1.8752,-0.0937,0.242,171
15,-0.8918,0.0286,-0.2418,1.9363,-0.0719,0.2638,171
15,-0.951,0.0326,-0.2061,1.9984,-0.0261,0.2725,171
15,-1.0204,-0.0877,-0.2418,2.0114,0.0206,0.2747,171
15,-1.0806,-0.0663,-0.2673,2.0114,0.0206,0.2747,171
15,-1.103,0.053,-0.2479,2.0682,0.0566,0.2998,171
15,-1.103,0.053,-0.2479,2.259,0.0621,0.3609,171
15,-1.1316,0.1908,-0.2326,2.4149,0.0425,0.4317,171
15,-1.1143,0.3439,-0.2255,2.3855,0.0141,0.4786,171
15,-1.0652,0.3989,-0.1867,2.3189,-0.0392,0.5145,171
15,-1.0571,0.4071,-0.1541,2.2678,-0.0872,0.5102,171
15,-1.0786,0.451,-0.0877,2.2372,-0.1003,0.4721,171
15,-1.3091,0.3887,0.0,2.1577,-0.1089,0.5004,171
15,-1.4224,0.2806,-0.0193,2.0126,-0.1089,0.4611,171
15,-1.6724,0.3326,-0.0928,2.0126,-0.1089,0.4611,171
15,-1.7877,0.4642,-0.2275,2.1096,-0.1701,0.4578,171
15,-1.7877,0.4642,-0.2275,2.3527,-0.2758,0.4687,171
15,-1.6918,0.7234,-0.2969,2.4792,-0.4589,0.4077,171
15,-1.3582,0.851,-0.1642,2.536,-0.7054,0.2987,171
15,-1.0989,0.8673,-0.0081,2.4116,-0.9321,0.1493,171
15,-0.8796,0.7183,0.1306,2.1598,-0.9311,0.0217,171
15,-0.8234,0.5214,0.1091,1.8883,-0.895,0.0839,171
15,-0.7928,0.3408,0.049,1.7215,-0.7903,0.0097,171
15,-0.8193,0.2908,0.0,1.7989,-0.7392,0.0174,171
15,-0.8949,0.2724,-0.0143,1.8195,-0.7152,0.0402,171
15,-0.8867,0.2683,-0.0336,1.8523,-0.6737,0.0545,171
15,-0.9867,0.3439,-0.0132,1.9471,-0.6421,0.085,171
15,-0.9959,0.4959,-0.0326,1.9471,-0.6421,0.085,171
15,-0.9959,0.4959,-0.0326,2.0572,-0.653,0.11,171
15,-0.9877,0.499,-0.0734,2.041,-0.6345,0.0937,171
15,-0.9806,0.4938,-0.1204,1.9788,-0.6421,0.0708,171
15,-1.0092,0.5734,-0.0969,2.0061,-0.6367,0.0534,171
15,-0.951,0.5541,-0.101,1.9734,-0.6901,0.0414,171
15,-0.851,0.4969,-0.1316,1.8544,-0.6585,-0.0053,171
15,-0.8132,0.4949,-0.0887,1.8088,-0.701,-0.0228,171
15,-0.7571,0.4867,-0.0775,1.813,-0.714,-0.0414,171
15,-0.6959,0.4438,-0.0591,1.7924,-0.7064,-0.0795,171
15,-0.6714,0.402,-0.0673,1.7542,-0.7054,-0.1198,171
15,-0.6571,0.3898,-0.0551,1.7542,-0.7054,-0.1198,171
15,-0.6571,0.3898,-0.0551,1.7564,-0.6901,-0.1602,171
15,-0.6632,0.3949,-0.049,1.7968,-0.6715,-0.1919,171
15,-0.6837,0.3908,-0.0622,1.8088,-0.6574,-0.2278,171
15,-0.699,0.3908,-0.0724,1.801,-0.6562,-0.2562,171
15,-0.7173,0.3846,-0.0775,1.8021,-0.6562,-0.2812,171
15,-0.7438,0.3928,-0.0745,1.8065,-0.6541,-0.2976,171
15,-0.7663,0.4285,-0.0602,1.8088,-0.665,-0.3052,171
15,-0.7908,0.4244,-0.0673,1.7781,-0.6617,-0.3172,171
15,-0.8,0.4285,-0.0704,1.7564,-0.6617,-0.3281,171
15,-0.7938,0.4418,-0.0652,1.7564,-0.6617,-0.3281,171
15,-0.8112,0.4714,-0.0602,1.7531,-0.6629,-0.3422,171
15,-0.8112,0.4714,-0.0602,1.7411,-0.6476,-0.3663,171
15,-0.8286,0.4622,-0.052,1.7281,-0.6301,-0.399,171
15,-0.8357,0.4377,-0.0652,1.7008,-0.6106,-0.4361,171
15,-0.8479,0.4235,-0.0652,1.6953,-0.5865,-0.4655,171
15,-0.85,0.4745,-0.0336,1.7378,-0.5669,-0.4841,171
15,-0.8469,0.4836,-0.0112,1.7367,-0.5353,-0.508,171
15,-0.8132,0.4673,-0.0132,1.6855,-0.5179,-0.5429,171
15,-0.803,0.4551,0.002,1.6625,-0.4753,-0.5887,171
15,-0.7479,0.449,0.0367,1.6625,-0.4753,-0.5887,171
15,-0.7133,0.4132,0.0398,1.6648,-0.4229,-0.6301,171
15,-0.7133,0.4132,0.0398,1.6386,-0.3368,-0.6846,171
15,-0.6969,0.3765,0.0081,1.6026,-0.2453,-0.7413,171
16,-0.6755,0.3837,0.0071,1.6245,-0.1286,-0.7838,171
16,-0.6979,0.3806,0.0183,1.6343,-0.0217,-0.8199,171
16,-0.6898,0.3234,0.0367,1.5711,0.098,-0.859,171
16,-0.7806,0.2786,0.0816,1.5253,0.2104,-0.8765,171
16,-1.0163,0.2214,0.1908,1.5536,0.3216,-0.8668,171
16,-1.2663,0.1663,0.1898,1.5536,0.3216,-0.8668,171
16,-1.4785,0.0765,0.1316,1.5688,0.3848,-0.8231,171
16,-1.6571,0.0571,0.0632,1.5776,0.4328,-0.7447,171
16,-1.6571,0.0571,0.0632,1.6583,0.387,-0.6203,171
16,-1.5877,0.2867,0.1449,1.8174,0.2649,-0.4492,171
16,-1.4581,0.3398,0.2214,1.8893,0.1602,-0.3183,171
16,-1.3224,0.251,0.1928,1.7203,0.1297,-0.2802,171
16,-1.2081,0.1673,0.1418,1.5732,0.1482,-0.2856,171
16,-1.0622,0.2724,0.1775,1.6659,0.1537,-0.2638,171
16,-1.0428,0.2643,0.2265,1.7041,0.1886,-0.2627,171
16,-1.0847,0.0847,0.1887,1.4587,0.1995,-0.2966,171
16,-1.1183,-0.0928,0.1346,1.4587,0.1995,-0.2966,171
16,-1.2101,0.0051,0.1489,1.2701,0.2005,-0.2791,171
16,-1.2101,0.0051,0.1489,1.437,0.1657,-0.1352,171
16,-1.2714,0.051,0.1418,1.5972,0.1406,-0.0316,171
16,-1.203,0.1071,0.1214,1.6081,0.085,0.0272,171
16,-1.251,0.1826,0.0867,1.619,0.0414,0.0969,171
16,-1.1255,0.4214,0.1091,1.6724,0.0053,0.1547,171
16,-1.1255,0.4734,0.1316,1.6354,-0.0065,0.1602,171
16,-1.0622,0.4203,0.0959,1.4336,-0.0228,0.1133,171
16,-1.0816,0.3214,0.0479,1.2722,-0.0152,0.049,171
16,-1.0449,0.2816,0.0071,1.28,-0.0185,0.012,171
16,-1.0449,0.2816,0.0071,1.28,-0.0185,0.012,171
16,-1.0245,0.2602,-0.0051,1.3029,-0.0087,-0.0305,171
16,-0.9888,0.1867,-0.0347,1.2352,-0.0305,-0.073,171
16,-0.9765,0.1275,-0.05,1.2069,-0.0402,-0.1079,171
16,-0.9326,0.0898,-0.053,1.2505,-0.0566,-0.1264,171
16,-0.8979,0.0908,-0.0459,1.2952,-0.0708,-0.1373,171
16,-0.8622,0.0745,-0.0418,1.3137,-0.0925,-0.1352,171
16,-0.8357,0.0153,-0.0377,1.2897,-0.1133,-0.1352,171
16,-0.8071,-0.0714,-0.0622,1.2995,-0.1232,-0.1013,171
16,-0.8469,-0.0092,-0.0459,1.4031,-0.1155,0.0152,171
16,-0.8673,0.0204,-0.0724,1.4031,-0.1155,0.0152,171
16,-0.8673,0.0204,-0.0724,1.487,-0.1297,0.0141,171
16,-0.9153,0.0693,-0.0948,1.5568,-0.1482,-0.0414,171
16,-0.9255,0.1785,-0.0867,1.6135,-0.1732,-0.025,171
16,-0.8724,0.1622,-0.1234,1.57,-0.193,-0.0282,171
16,-0.8653,0.1245,-0.1143,1.4893,-0.2169,-0.0381,171
16,-0.8602,0.252,-0.0898,1.5165,-0.2169,-0.0337,171
16,-0.9203,0.2765,-0.0939,1.5372,-0.2725,-0.0185,171
16,-0.8989,0.2397,-0.1163,1.4227,-0.2573,-0.036,171
16,-0.8336,0.201,-0.1194,1.3432,-0.2987,-0.0425,171
16,-0.803,0.2357,-0.0652,1.3432,-0.2987,-0.0425,171
16,-0.8245,0.2408,-0.0092,1.3595,-0.2802,-0.0446,171
16,-0.8245,0.2408,-0.0092,1.3443,-0.2976,-0.037,171
16,-0.7581,0.1735,-0.0102,1.2396,-0.2747,-0.0435,171
16,-0.7632,0.1122,-0.0092,1.1621,-0.2354,-0.0425,171
16,-0.6642,0.0775,0.0357,1.1905,-0.1766,-0.024,171
16,-0.7234,0.0438,0.0388,1.2025,-0.0992,-0.0174,171
16,-0.6183,-0.052,0.0306,1.1415,-0.0228,-0.0131,171
16,-0.7449,-0.102,0.0071,1.1741,0.1057,0.0043,171
16,-0.7142,-0.0367,-0.001,1.2909,0.1581,0.0631,171
16,-0.7571,-0.0796,-0.0408,1.2909,0.1581,0.0631,171
16,-0.7581,-0.1265,-0.0826,1.2952,0.267,0.0883,171
16,-0.7581,-0.1265,-0.0826,1.2571,0.3292,0.1198,171
16,-0.8122,-0.0765,-0.0816,1.3704,0.3914,0.1755,171
16,-0.8398,0.0643,-0.0969,1.474,0.4219,0.231,171
16,-0.8796,0.0684,-0.1153,1.4412,0.4622,0.2649,171
16,-0.8775,0.0561,-0.1153,1.3878,0.4601,0.3019,171
16,-0.9428,0.0673,-0.0939,1.3922,0.4677,0.3489,171
16,-1.0418,0.1459,-0.052,1.4086,0.4492,0.4077,171
16,-1.1408,0.1744,-0.0663,1.4118,0.4361,0.4492,171
16,-1.2061,0.2163,-0.0867,1.4118,0.4361,0.4492,171
16,-1.2551,0.2704,-0.1091,1.4162,0.4012,0.4906,171
16,-1.2551,0.2704,-0.1091,1.4576,0.3412,0.5047,171
16,-1.403,0.5684,-0.0877,1.5045,0.1701,0.3958,171
16,-1.4285,0.5622,-0.1163,1.5045,0.1701,0.3958,171
16,-1.3571,0.4888,-0.1408,1.3988,0.1079,0.2943,171
16,-1.3571,0.4888,-0.1408,1.2952,0.0,0.2027,171
16,-1.299,0.453,-0.0908,1.2342,-0.1308,0.1232,171
16,-1.2285,0.4122,-0.0245,1.1818,-0.2495,0.049,171
16,-1.1602,0.3643,0.0234,1.1579,-0.3368,-0.0108,171
16,-1.0469,0.3224,0.0224,1.2058,-0.3804,-0.0457,171
16,-1.0061,0.3745,0.0183,1.3094,-0.387,-0.0469,171
16,-0.9847,0.45,0.0061,1.3672,-0.3695,-0.0228,171
16,-0.9581,0.5112,0.0132,1.3214,-0.3281,0.0043,171
16,-0.9581,0.5112,0.0132,1.3214,-0.3281,0.0043,171
16,-0.9571,0.5255,-0.0061,1.2222,-0.2878,0.0206,171
16,-0.954,0.4724,-0.0204,1.1098,-0.255,0.0206,171
16,-0.9571,0.4296,-0.0224,1.0467,-0.2321,0.0206,171
16,-0.9745,0.4377,0.0173,1.0641,-0.2213,0.0282,171
16,-1.0102,0.4214,0.0143,1.0543,-0.2093,0.0316,171
16,-1.001,0.355,-0.0092,0.9681,-0.1907,0.0272,171
16,-0.9847,0.2775,-0.0673,0.8994,-0.1907,0.025,171
16,-0.9244,0.254,-0.0541,0.9397,-0.193,0.037,171
16,-0.9173,0.2459,-0.0377,0.9877,-0.2027,0.0511,171
16,-0.8591,0.2081,-0.0551,0.9877,-0.2027,0.0511,171
16,-0.8591,0.2081,-0.0551,0.966,-0.2191,0.0643,171
16,-0.8367,0.2214,-0.0745,0.9954,-0.2213,0.086,171
16,-0.7428,0.3714,-0.001,1.0782,-0.2398,0.1308,171
16,-0.6949,0.3041,0.0031,0.9931,-0.2539,0.1449,171
16,-0.652,0.1642,-0.0255,0.8231,-0.2495,0.1362,171
16,-0.6224,0.1245,-0.0612,0.8897,-0.2365,0.1602,171
16,-0.6653,0.4387,0.0469,1.1295,-0.2125,0.2169,171
16,-0.6694,0.4428,0.0357,1.0848,-0.2027,0.2256,171
16,-0.7,0.3296,-0.0428,0.8275,-0.1798,0.1896,171
16,-0.6796,0.2898,-0.0775,0.8275,-0.1798,0.1896,171
16,-0.602,0.4653,0.0561,0.8296,-0.169,0.1831,171
16,-0.602,0.4653,0.0561,0.9725,-0.1744,0.1951,171
16,-0.5306,0.3846,0.0591,0.8439,-0.1657,0.1396,171
16,-0.5857,0.3081,0.0224,0.6791,-0.1024,0.0566,171
16,-0.5204,0.3439,0.0255,0.7861,-0.0719,0.0282,171
16,-0.5418,0.5265,0.0663,0.8853,0.0032,-0.0141,171
16,-0.4888,0.4642,0.0204,0.7327,0.0523,-0.098,171
17,-0.5561,0.3837,-0.0367,0.5865,0.1396,-0.1864,171
17,-0.5469,0.402,-0.0428,0.6552,0.1776,-0.2201,171
17,-0.6112,0.4775,-0.0347,0.6552,0.1776,-0.2201,171
17,-0.6082,0.3837,-0.0734,0.6835,0.2409,-0.2573,171
17,-0.6082,0.3837,-0.0734,0.5244,0.2747,-0.3193,171
17,-0.6561,0.301,-0.0969,0.4611,0.3237,-0.3695,171
17,-0.6969,0.351,-0.0541,0.5734,0.3346,-0.375,171
17,-0.7561,0.3408,-0.0336,0.5473,0.3434,-0.3903,171
17,-0.7367,0.2408,-0.0959,0.4197,0.3903,-0.424,171
17,-0.7795,0.2194,-0.1326,0.4492,0.4023,-0.4109,171
17,-0.8204,0.2745,-0.1143,0.5614,0.4065,-0.3815,171
17,-0.9377,0.252,0.0071,0.4982,0.4065,-0.3804,171
17,-1.0153,0.1194,-0.0286,0.4982,0.4065,-0.3804,171
17,-1.1796,0.0357,-0.0755,0.3466,0.4088,-0.3859,171
17,-1.4112,0.0806,-0.152,0.3695,0.3641,-0.3271,171
17,-1.4112,0.0806,-0.152,0.545,0.2714,-0.206,171
17,-1.6408,0.2867,-0.1694,0.6083,0.085,-0.0654,171
17,-1.8081,0.2969,-0.1969,0.4295,-0.0937,0.0425,171
17,-1.6653,0.3051,-0.1673,0.231,-0.3935,0.1547,171
17,-1.3275,0.4581,0.053,0.1503,-0.6018,0.2409,171
17,-1.0336,0.4928,0.2561,0.0566,-0.7152,0.2539,171
17,-0.9581,0.3571,0.3663,-0.2344,-0.6617,0.1471,171
17,-0.9224,0.1102,0.3367,-0.2344,-0.6617,0.1471,171
17,-0.9734,-0.1326,0.1398,-0.4763,-0.4971,0.0162,171
17,-1.4367,-0.1204,0.049,-0.3641,-0.3237,-0.0631,171
17,-1.4367,-0.1204,0.049,-0.11,-0.0589,-0.0904,171
17,-1.4561,-0.1551,-0.0836,0.0294,0.012,-0.1089,171
17,-1.6245,-0.1959,-0.1928,0.0469,-0.0021,-0.0915,171
17,-1.5918,-0.0684,-0.2142,0.1701,-0.0631,-0.0162,171
17,-1.4592,0.0612,-0.1592,0.326,-0.2169,0.0894,171
17,-1.3806,0.1163,-0.1204,0.2737,-0.2682,0.1449,171
17,-1.2469,0.0877,-0.1112,0.1503,-0.3172,0.1984,171
17,-1.0408,0.1755,-0.0541,0.1461,-0.3368,0.2693,171
17,-1.1173,0.2888,0.0234,0.1461,-0.3368,0.2693,171
17,-1.1173,0.2888,0.0234,0.206,-0.3107,0.3031,171
17,-0.9826,0.25,0.0388,0.0818,-0.3412,0.3019,171
17,-0.8755,0.0867,0.0153,-0.1047,-0.3096,0.2245,171
17,-0.7265,0.0561,0.0377,-0.0152,-0.267,0.2191,171
17,-0.7734,0.2101,0.152,0.2201,-0.2398,0.242,171
17,-0.652,0.1234,0.1194,0.0969,-0.1678,0.2071,171
17,-0.7255,-0.0255,0.0408,-0.0414,-0.0664,0.1657,171
17,-0.6632,0.1112,0.0836,0.1678,-0.0228,0.1962,171
17,-0.5796,0.0836,0.0918,0.2159,0.0435,0.1886,171
17,-0.5541,-0.0765,0.0326,0.2159,0.0435,0.1886,171
17,-0.5541,-0.0765,0.0326,0.012,0.1112,0.1537,171
17,-0.5153,-0.1581,-0.002,0.0545,0.1732,0.2027,171
17,-0.5112,-0.0255,0.1306,0.206,0.2474,0.3193,171
17,-0.4071,-0.1755,0.0591,0.1057,0.3227,0.2682,171
17,-0.5367,-0.2347,0.004,0.1264,0.4382,0.2485,171
17,-0.4724,-0.1979,0.0051,0.3706,0.4502,0.2518,171
17,-0.5245,0.0,0.0031,0.545,0.5287,0.2201,171
17,-0.5377,0.0,-0.0224,0.5244,0.5582,0.2169,171
17,-0.6367,-0.0652,-0.0796,0.4317,0.5898,0.2005,171
17,-0.6857,-0.1041,-0.15,0.4317,0.5898,0.2005,171
17,-0.7581,0.0449,-0.1255,0.496,0.556,0.2256,171
17,-0.7581,0.0449,-0.1255,0.6617,0.495,0.2768,171
17,-0.7714,0.0877,-0.0877,0.677,0.4153,0.3063,171
17,-0.8602,0.1122,-0.0918,0.6225,0.314,0.3041,171
17,-0.8704,0.1887,-0.0551,0.6508,0.1438,0.3085,171
17,-0.9785,0.3704,0.0193,0.6726,0.0272,0.2911,171
17,-0.9306,0.4745,0.0745,0.6574,-0.1068,0.2725,171
17,-1.0224,0.5745,0.1122,0.6181,-0.1722,0.1482,171
17,-1.199,0.8336,0.1908,0.6268,-0.2104,0.0097,171
17,-1.4173,1.0357,0.2204,0.6585,-0.1907,-0.0479,171
17,-1.5561,1.0816,0.1367,0.6585,-0.1907,-0.0479,171
17,-1.6469,1.053,-0.0469,0.4568,-0.1471,-0.1646,171
17,-1.6469,1.053,-0.0469,0.2136,-0.0872,-0.1471,171
17,-1.7214,1.353,-0.2938,0.2213,-0.0162,-0.0108,171
17,-1.5775,1.452,-0.2194,0.1919,-0.0152,-0.0043,171
17,-1.5857,1.3439,-0.0989,-0.3248,0.0294,-0.218,171
17,-1.4316,0.8745,-0.0948,-1.2363,-0.0457,-0.3739,171
17,-1.1959,-0.1541,-0.1837,-1.1272,-0.0228,-0.2147,171
17,-1.1622,-0.0693,-0.0959,-0.7457,-0.0806,-0.0577,171
17,-1.0928,-0.2112,-0.1642,-0.7533,-0.0806,-0.1776,171
17,-0.9469,-0.3928,-0.1898,-0.6345,-0.1155,-0.255,171
17,-0.9316,-0.1714,-0.0295,-0.193,-0.1177,-0.206,171
17,-0.8775,0.0561,0.0347,-0.193,-0.1177,-0.206,171
17,-0.9581,0.2306,0.0704,0.1167,-0.1155,-0.1003,171
17,-1.001,0.3826,-0.0081,0.085,-0.061,-0.0784,171
17,-1.001,0.3826,-0.0081,0.036,0.012,-0.0675,171
17,-0.9122,0.5551,-0.0347,0.1373,0.0206,-0.0654,171
17,-0.9235,0.6408,-0.0132,0.0872,0.061,-0.2201,171
17,-0.9337,0.6673,-0.0612,-0.0501,0.0577,-0.314,171
17,-0.7092,0.5847,-0.1041,-0.2442,0.085,-0.3674,171
17,-0.6714,0.5479,-0.0969,-0.3783,0.1831,-0.3783,171
17,-0.5132,0.4663,-0.049,-0.4763,0.2147,-0.4349,171
17,-0.5551,0.3489,-0.0081,-0.6116,0.3193,-0.5255,171
17,-0.4908,0.103,-0.0031,-0.6116,0.3193,-0.5255,171
17,-0.4908,0.103,-0.0031,-0.64,0.3685,-0.5593,171
17,-0.5469,0.0775,0.0275,-0.5385,0.4601,-0.5255,171
17,-0.5602,0.0377,0.0153,-0.4655,0.5015,-0.5102,171
17,-0.5806,-0.0357,-0.0275,-0.4284,0.5233,-0.532,171
17,-0.752,-0.0367,-0.1102,-0.2388,0.5549,-0.5179,171
17,-0.7245,0.0561,-0.0775,-0.0818,0.4633,-0.4818,171
17,-0.8143,0.0541,-0.0541,-0.1471,0.4328,-0.4426,171
17,-0.903,-0.0265,-0.0786,-0.2485,0.3172,-0.3717,171
17,-0.9633,0.0398,-0.101,-0.1972,0.1406,-0.2453,171
17,-1.0255,0.2438,-0.0122,-0.1972,0.1406,-0.2453,171
17,-1.0255,0.2438,-0.0122,-0.085,0.0011,-0.1198,171
17,-1.0295,0.3571,0.0724,-0.2649,-0.1308,-0.0435,171
17,-1.1214,0.2632,0.0806,-0.664,-0.194,-0.0402,171
17,-1.3459,-0.0081,0.0867,-0.7337,-0.2278,-0.0108,171
17,-1.5163,0.0775,0.2234,-0.4895,-0.231,0.036,171
17,-1.7745,0.1918,0.3428,-0.4284,-0.1962,0.012,171
17,1.8755,0.0102,-0.1306,-0.5996,-0.1133,-0.0523,171
17,-1.8979,0.153,-0.2683,-0.4721,-0.0784,-0.0599,171
17,-1.6398,0.202,-0.2245,-0.4589,-0.1089,-0.1188,171
17,-1.5663,0.0388,-0.102,-0.4589,-0.1089,-0.1188,171
17,-1.251,-0.4694,-0.1102,-0.9517,-0.1112,-0.2791,171
18,-1.251,-0.4694,-0.1102,-1.1425,-0.1493,-0.3193,171
18,-1.1143,-0.1867,0.0132,-0.544,-0.0708,-0.1352,171
18,-1.0438,0.002,-0.0796,-0.157,-0.0392,0.024,171
18,-1.2581,0.1296,-0.0336,-0.3532,0.0305,0.1089,171
18,-1.1683,-0.1102,-0.2214,-0.6541,-0.0011,0.1701,171
18,-0.9153,-0.0887,-0.1837,-0.5233,-0.0577,0.2899,171
18,-1.0347,0.0571,-0.0438,-0.3346,-0.0326,0.3434,171
18,-0.9203,0.0071,-0.053,-0.4143,-0.0414,0.3412,171
18,-0.8347,-0.1316,-0.0581,-0.4109,-0.0282,0.3302,171
18,-0.8785,-0.0408,0.001,-0.4109,-0.0282,0.3302,171
18,-0.7724,-0.0122,0.0092,-0.242,-0.0261,0.3422,171
18,-0.7724,-0.0122,0.0092,-0.2027,-0.0349,0.3609,171
18,-0.7449,-0.0388,0.0122,-0.267,0.0032,0.3542,171
18,-0.5693,-0.1255,0.001,-0.2758,0.0043,0.3771,171
18,-0.6489,-0.0775,0.0479,-0.1995,0.0872,0.4175,171
18,-0.5031,-0.0887,0.0388,-0.182,0.0894,0.4263,171
18,-0.502,-0.1173,0.0367,-0.2049,0.1581,0.4492,171
18,-0.3918,-0.1337,0.0163,-0.1623,0.1787,0.4895,171
18,-0.452,-0.0989,0.0347,-0.086,0.2627,0.5135,171
18,-0.4306,-0.0847,0.0295,-0.086,0.2627,0.5135,171
18,-0.4581,-0.0388,0.0102,-0.0316,0.3041,0.4927,171
18,-0.4581,-0.0388,0.0102,0.0131,0.3542,0.496,171
18,-0.5684,0.0663,-0.0183,0.0469,0.4065,0.5047,171
18,-0.6755,0.152,-0.0255,0.0719,0.4393,0.5112,171
18,-0.704,0.203,-0.0377,0.0555,0.4414,0.4982,171
18,-0.7867,0.2418,-0.051,-0.0076,0.4458,0.4655,171
18,-0.8102,0.2857,-0.0857,-0.0511,0.4034,0.4437,171
18,-0.8132,0.2714,-0.0969,-0.0959,0.3815,0.4044,171
18,-0.8255,0.254,-0.1275,-0.1635,0.3346,0.3641,171
18,-0.7459,0.2408,-0.0806,-0.1635,0.3346,0.3641,171
18,-0.9244,0.2408,-0.0428,-0.2191,0.2867,0.3325,171
18,-0.9244,0.2408,-0.0428,-0.2354,0.2495,0.2943,171
18,-1.0336,0.2204,-0.0428,-0.2649,0.1635,0.2507,171
18,-1.1857,0.2061,-0.0745,-0.255,0.0534,0.2115,171
18,-1.2306,0.2643,-0.0939,-0.11,-0.0904,0.1907,171
18,-1.3448,0.5061,-0.051,-0.012,-0.1896,0.1406,171
18,-1.3173,0.5714,0.0132,-0.0763,-0.2714,0.036,171
18,-1.3357,0.6183,0.1112,-0.1864,-0.3107,-0.0097,171
18,-1.4061,0.6479,0.252,-0.2617,-0.2507,0.0043,171
18,-1.7938,0.5734,0.0286,-0.2617,-0.2507,0.0043,171
18,-1.7938,0.5734,0.0286,-0.3031,-0.1623,-0.025,171
18,-1.7173,0.549,-0.2755,-0.1308,-0.1188,-0.0501,171
18,-1.8061,0.7683,-0.4714,0.2791,-0.0959,-0.1438,171
18,-1.4347,1.0469,-0.3745,0.3586,-0.2256,-0.3532,171
18,-1.1234,0.9683,-0.0357,-0.3456,-0.2725,-0.5484,171
18,-1.0143,0.4,-0.0326,-1.2548,-0.2104,-0.4731,171
18,-1.2428,-0.0643,-0.1041,-1.3595,-0.0795,-0.23,171
18,-1.151,-0.1837,-0.0765,-0.8973,-0.0904,0.0511,171
18,-1.299,-0.2367,-0.153,-0.5963,-0.0141,0.1209,171
18,-1.4092,-0.2693,-0.2224,-0.3804,-0.0599,-0.0272,171
18,-1.4092,-0.2693,-0.2224,-0.3804,-0.0599,-0.0272,171
18,-1.1898,-0.2795,-0.2714,0.0708,-0.1308,-0.1144,171
18,-1.1214,0.3632,-0.0388,0.4481,-0.2201,0.0337,171
18,-1.1346,0.4479,0.0143,0.2725,-0.2278,0.0,171
18,-0.9469,0.353,-0.0265,-0.0097,-0.2758,-0.0435,171
18,-0.953,0.3816,-0.0275,0.0435,-0.2573,0.0152,171
18,-0.8163,0.5796,0.0326,0.0925,-0.2245,-0.0217,171
18,-0.6489,0.4847,-0.0092,-0.1047,-0.193,-0.1428,171
18,-0.6255,0.4479,-0.0428,-0.1896,-0.1133,-0.1493,171
18,-0.6,0.4622,-0.0031,-0.194,-0.025,-0.1831,171
18,-0.5265,0.3694,-0.0286,-0.194,-0.025,-0.1831,171
18,-0.5265,0.3694,-0.0286,-0.3019,0.0228,-0.2398,171
18,-0.5275,0.2918,-0.0357,-0.3575,0.0937,-0.3096,171
18,-0.5092,0.2561,-0.0183,-0.3019,0.1297,-0.3489,171
18,-0.5183,0.2357,0.0051,-0.2518,0.1635,-0.3859,171
18,-0.5102,0.1469,0.0357,-0.2409,0.2125,-0.4263,171
18,-0.5418,0.0939,0.0245,-0.2049,0.2834,-0.4524,171
18,-0.5428,0.0693,0.0286,-0.1198,0.3314,-0.4524,171
18,-0.5632,0.0306,-0.0031,-0.0228,0.4284,-0.4458,171
18,-0.6204,0.0428,-0.0367,0.0708,0.4393,-0.4252,171
18,-0.7265,0.0684,-0.0632,0.0708,0.4393,-0.4252,171
18,-0.7306,0.0857,-0.0765,0.1329,0.4721,-0.4077,171
18,-0.7245,0.1439,-0.0541,0.1886,0.4361,-0.3609,171
18,-0.8387,0.1173,-0.0673,0.1886,0.4361,-0.3609,171
18,-0.8765,0.0755,-0.0663,0.1471,0.4469,-0.363,171
18,-0.8765,0.0755,-0.0663,0.1155,0.412,-0.338,171
18,-0.9959,0.0898,-0.1234,0.1646,0.3663,-0.2834,171
18,-1.1765,0.2357,-0.1183,0.1515,0.2812,-0.231,171
18,-1.3806,0.1969,-0.1306,-0.0305,0.1896,-0.2049,171
18,-1.5051,0.049,-0.2071,-0.1962,0.0141,-0.1461,171
18,-1.5775,-0.0367,-0.2612,-0.0708,-0.1972,-0.0294,171
18,-1.4561,0.2194,-0.0693,0.1003,-0.3958,0.0686,171
18,-1.3734,0.2795,0.051,0.1003,-0.3958,0.0686,171
18,-1.2724,0.1775,0.0948,-0.0316,-0.4731,0.0621,171
18,-1.2408,0.0796,0.103,-0.267,-0.4546,0.0076,171
18,-1.2408,0.0796,0.103,-0.2344,-0.3227,-0.0577,171
18,-1.3061,0.0908,0.1275,-0.1984,-0.1831,-0.1373,171
18,-1.401,-0.1306,-0.0541,-0.3248,-0.036,-0.2289,171
18,-1.5887,-0.2418,-0.1612,-0.1875,-0.0097,-0.218,171
18,-1.5714,0.0326,-0.1316,0.1188,-0.0021,-0.1428,171
18,-1.3796,0.1847,-0.1112,0.157,-0.0523,-0.0631,171
18,-1.4398,0.2469,-0.1082,-0.0577,-0.073,-0.0316,171
18,-1.2938,0.1877,-0.1703,-0.2147,-0.1396,0.0131,171
18,-1.1408,0.2092,-0.1683,-0.2147,-0.1396,0.0131,171
18,-1.1408,0.2092,-0.1683,-0.1732,-0.1352,0.0457,171
18,-1.0193,0.2571,-0.1,-0.194,-0.1526,0.061,171
18,-0.9714,0.1775,-0.103,-0.3554,-0.1274,0.0228,171
18,-0.9112,0.0286,-0.102,-0.4143,-0.1144,0.0272,171
18,-0.8479,0.0388,-0.0286,-0.2125,-0.086,0.0686,171
18,-0.7877,0.0989,0.0163,-0.1471,-0.0839,0.0959,171
18,-0.754,0.0092,-0.0173,-0.2922,-0.0654,0.0708,171
18,-0.7265,-0.0786,-0.053,-0.2737,-0.0326,0.0719,171
18,-0.6357,-0.0643,-0.0051,-0.1449,-0.025,0.098,171
18,-0.6346,-0.1102,-0.0132,-0.1701,0.0206,0.1068,171
18,-0.6346,-0.1102,-0.0132,-0.1701,0.0206,0.1068,171
18,-0.6153,-0.1714,-0.0367,-0.2027,0.0381,0.1547,171
18,-0.5336,-0.2194,-0.0357,-0.1188,0.0686,0.2234,171
18,-0.553,-0.2142,0.0,-0.037,0.0948,0.2136,171
18,-0.4847,-0.2571,-0.0173,0.0511,0.1352,0.1623,171
18,-0.5347,-0.2,-0.004,0.2115,0.193,0.2201,171
19,-0.5326,-0.1163,0.002,0.2888,0.2388,0.2659,171
19,-0.6183,-0.0479,-0.0265,0.2638,0.2922,0.2844,171
19,-0.6877,0.0,-0.049,0.3008,0.3193,0.3096,171
19,-0.7479,0.0847,-0.0357,0.3456,0.3302,0.3271,171
19,-0.7949,0.1408,-0.0449,0.3456,0.3302,0.3271,171
19,-0.7949,0.1408,-0.0449,0.2856,0.3302,0.3237,171
19,-0.8489,0.1898,-0.1194,0.2213,0.3237,0.3073,171
19,-0.8489,0.2275,-0.1306,0.2005,0.314,0.2976,171
19,-0.7938,0.252,-0.1316,0.1482,0.2987,0.2911,171
19,-0.7857,0.2357,-0.1346,0.049,0.3117,0.2834,171
19,-0.6806,0.1744,-0.1061,-0.0511,0.2703,0.2878,171
19,-0.7857,0.1275,-0.1102,-0.0894,0.3008,0.2899,171
19,-0.8214,0.1143,-0.0765,-0.0643,0.2583,0.2966,171
19,-0.9102,0.102,-0.0724,-0.0469,0.2398,0.2899,171
19,-1.1653,0.1408,-0.152,-0.0469,0.2398,0.2899,171
19,-1.2816,0.2816,-0.1479,0.0501,0.1373,0.2911,171
19,-1.2816,0.2816,-0.1479,0.2115,0.037,0.2758,171
19,-1.353,0.4194,-0.1551,0.2398,-0.0839,0.1984,171
19,-1.2959,0.4959,-0.15,0.086,-0.2474,0.0751,171
19,-1.0102,0.4592,0.0755,-0.0686,-0.2539,0.0217,171
19,-1.153,0.4601,0.3643,-0.1995,-0.1711,0.0282,171
19,-1.4438,0.4428,0.5786,-0.2464,-0.0206,-0.0381,171
19,-1.8469,0.2255,-0.3,0.012,0.0708,-0.085,171
19,1.8225,0.5295,-0.5908,0.7054,0.2125,-0.0795,171
19,-1.7969,0.9653,-0.5989,0.7054,0.2125,-0.0795,171
19,-1.8,1.3459,-0.3755,1.1339,0.0414,-0.2768,171
19,-1.8,1.3459,-0.3755,0.7447,-0.0654,-0.6781,171
19,-1.0081,0.8326,-0.0622,-0.2191,-0.1831,-0.9397,171
19,-1.4479,0.449,-0.1796,-0.7566,0.037,-0.6007,171
19,-1.1765,0.1561,-0.1489,-0.8973,0.0162,-0.2779,171
19,-1.3347,-0.0939,-0.3163,-0.8504,0.1047,-0.0621,171
19,-1.4612,-0.35,-0.451,-0.6661,-0.0108,0.0185,171
19,-1.5581,-0.3561,-0.3949,-0.1984,-0.1352,-0.0414,171
19,-1.3908,-0.2,-0.355,0.4481,-0.314,-0.1177,171
19,-1.3102,0.1867,-0.2092,0.4481,-0.314,-0.1177,171
19,-0.9469,0.4908,-0.0224,0.7512,-0.4273,-0.0206,171
19,-0.9469,0.4908,-0.0224,0.4643,-0.4818,-0.0643,171
19,-0.8785,0.401,-0.0551,0.0719,-0.4536,-0.086,171
19,-0.8245,0.3316,-0.0622,0.0108,-0.4578,-0.086,171
19,-0.6694,0.3785,-0.0081,0.1198,-0.4284,-0.0883,171
19,-0.5581,0.4633,0.0643,-0.0131,-0.3674,-0.1602,171
19,-0.5469,0.3439,0.004,-0.2333,-0.2747,-0.2354,171
19,-0.5377,0.2602,-0.0388,-0.1744,-0.2125,-0.2594,171
19,-0.4816,0.3377,-0.0132,-0.0272,-0.1362,-0.2888,171
19,-0.499,0.45,0.0081,-0.1646,-0.0751,-0.3663,171
19,-0.4897,0.3479,-0.0449,-0.1646,-0.0751,-0.3663,171
19,-0.4979,0.2918,-0.0673,-0.1646,-0.0751,-0.3663,171
19,-0.4979,0.2918,-0.0673,-0.3357,-0.0217,-0.4404,171
19,-0.4683,0.3184,-0.0316,-0.2376,0.0392,-0.5102,171
19,-0.4847,0.2816,-0.0061,-0.2376,0.0392,-0.5102,171
19,-0.4581,0.1857,-0.0336,-0.3958,0.1068,-0.5919,171
19,-0.5306,0.1285,-0.0295,-0.3958,0.1068,-0.5919,171
19,-0.5214,0.1214,-0.0061,-0.3161,0.1613,-0.5908,171
19,-0.6285,0.0602,0.0122,-0.2354,0.181,-0.5833,171
19,-0.6551,-0.0163,-0.0173,-0.2539,0.2201,-0.5931,171
19,-0.6551,-0.0163,-0.0173,-0.2539,0.2201,-0.5931,171
19,-0.7214,-0.0652,-0.0418,-0.1286,0.2268,-0.5713,171
19,-0.752,-0.0673,-0.0673,-0.1286,0.2268,-0.5713,171
19,-0.7877,-0.002,-0.0796,0.0,0.2071,-0.5374,171
19,-0.8071,-0.0071,-0.1183,0.0337,0.1581,-0.5015,171
19,-0.802,0.0051,-0.1275,0.0217,0.1221,-0.4633,171
19,-0.8102,0.0367,-0.1285,0.074,0.0217,-0.338,171
19,-0.8887,0.1285,-0.0979,0.074,0.0217,-0.338,171
19,-1.0183,0.1418,-0.1082,-0.0162,-0.0784,-0.2649,171
19,-1.049,0.1928,-0.0887,-0.0818,-0.1449,-0.1875,171
19,-1.2122,0.2643,-0.0163,-0.0818,-0.1449,-0.1875,171
19,-1.2122,0.2643,-0.0163,-0.1047,-0.2779,-0.0872,171
19,-1.201,0.1479,-0.0234,-0.2878,-0.3935,-0.0141,171
19,-1.2643,0.0684,0.0092,-0.5461,-0.5124,0.0282,171
19,-1.2938,0.0561,0.1153,-0.5865,-0.5702,0.0631,171
19,-1.6122,-0.0388,0.2571,-0.5341,-0.5669,0.0599,171
19,-1.8132,-0.1806,0.1102,-0.5984,-0.4731,-0.0141,171
19,1.9348,-0.3132,-0.3296,-0.4916,-0.1972,-0.1602,171
19,-1.6561,-0.2765,-0.1755,-0.255,-0.2703,-0.1766,171
19,-1.299,-0.4061,-0.0663,-0.3586,-0.2856,-0.2159,171
19,-1.1255,-0.5388,-0.0806,-0.5244,-0.4284,-0.2365,171
19,-1.2,-0.2979,0.0612,-0.2954,-0.3575,-0.0719,171
19,-1.1837,-0.0836,-0.0173,-0.2954,-0.3575,-0.0719,171
19,-1.0275,-0.0847,-0.0857,0.0566,-0.3609,-0.0316,171
19,-1.0275,-0.0847,-0.0857,0.2409,-0.2583,0.0523,171
19,-1.153,-0.1489,-0.1459,0.0795,-0.2791,0.1209,171
19,-1.1735,-0.1796,-0.1346,-0.0174,-0.1995,0.1667,171
19,-1.1602,0.105,0.0,0.1886,-0.2638,0.2703,171
19,-0.9928,0.0939,-0.0061,0.3227,-0.2573,0.3107,171
19,-0.9296,-0.001,-0.0193,0.1657,-0.3085,0.2966,171
19,-0.8796,-0.0275,-0.0193,0.0915,-0.2758,0.2638,171
19,-0.7214,0.1214,0.0602,0.2136,-0.2693,0.2802,171
19,-0.6867,0.1041,0.0673,0.2136,-0.2693,0.2802,171
19,-0.6867,0.1041,0.0673,0.2693,-0.1962,0.2583,171
19,-0.5836,-0.0704,-0.0132,0.0872,-0.1428,0.2191,171
19,-0.6765,-0.1102,-0.0031,0.0261,-0.0305,0.193,171
19,-0.5959,-0.049,0.0765,0.1798,0.0011,0.23,171
19,-0.5571,-0.1703,0.0326,0.1798,0.0654,0.2485,171
19,-0.5255,-0.2469,-0.0143,0.0795,0.1123,0.2617,171
19,-0.5071,-0.1816,0.0143,0.2081,0.1602,0.3346,171
19,-0.4571,-0.1377,0.0459,0.3586,0.1984,0.4023,171
19,-0.4581,-0.1877,0.0153,0.3161,0.2856,0.387,171
19,-0.4377,-0.1755,-0.001,0.326,0.3466,0.4109,171
19,-0.4377,-0.1755,-0.001,0.326,0.3466,0.4109,171
19,-0.4734,-0.0877,0.0132,0.4818,0.4219,0.4622,171
19,-0.5765,0.002,-0.0377,0.5549,0.4895,0.5091,171
19,-0.6296,-0.0153,-0.0918,0.4971,0.5112,0.5364,171
19,-0.6979,-0.002,-0.1346,0.4698,0.5189,0.5635,171
19,-0.7234,0.0469,-0.1469,0.5396,0.4763,0.6039,171
19,-0.751,0.0908,-0.1255,0.5647,0.4077,0.6225,171
19,-0.8265,0.1194,-0.102,0.5179,0.3205,0.6181,171
19,-0.7663,0.1612,-0.0183,0.5276,0.1951,0.5984,171
19,-0.8857,0.1265,0.0031,0.5233,0.0643,0.5505,171
19,-0.8591,0.1602,-0.0102,0.5233,0.0643,0.5505,171
19,-0.8591,0.1602,-0.0102,0.5244,-0.0435,0.5047,171
20,-0.9704,0.3132,0.0132,0.6356,-0.1515,0.4687,171
20,-0.9928,0.4816,0.0663,0.7697,-0.1951,0.4361,171
20,-1.301,0.6877,0.2296,0.7195,-0.2169,0.3477,171
20,-1.499,0.7459,0.2775,0.5461,-0.1852,0.1875,171
20,-1.8316,0.7898,0.1367,0.4361,-0.1352,0.1144,171
20,1.9807,0.8387,-0.1183,0.4295,-0.0904,0.0818,171
20,-1.8755,1.1938,-0.5051,0.5614,-0.1188,0.0,171
20,-1.605,1.4,-0.4112,0.7588,-0.1623,-0.1678,171
20,-1.5836,1.5132,-0.105,0.7588,-0.1623,-0.1678,171
20,-1.049,1.1683,0.002,0.7413,-0.1972,-0.3532,171
20,-1.049,1.1683,0.002,-0.0011,-0.3205,-0.4927,171
20,-1.2163,0.1122,-0.1632,-1.0477,-0.1896,-0.4797,171
20,-1.105,-0.1653,-0.199,-1.4391,-0.1515,-0.3216,171
20,-1.3173,-0.1469,-0.102,-1.1306,-0.1167,-0.0261,171
20,-1.2847,-0.2643,-0.0969,-0.8853,-0.0872,0.1449,171
20,-1.3612,-0.6143,-0.1592,-0.8525,-0.1482,0.025,171
20,-1.1367,-0.4479,-0.0908,-0.4807,-0.11,-0.0925,171
20,-1.1214,-0.101,-0.0316,0.2725,-0.2147,-0.1613,171
20,-1.1153,0.2224,0.0224,0.2725,-0.2147,-0.1613,171
20,-0.9061,0.3459,-0.1122,0.7544,-0.1766,-0.0643,171
20,-0.9061,0.3459,-0.1122,0.665,-0.181,-0.1373,171
20,-1.0173,0.4357,-0.1122,0.4372,-0.182,-0.2682,171
20,-0.8408,0.5214,-0.0877,0.4578,-0.1602,-0.2844,171
20,-0.7071,0.5612,-0.0428,0.4164,-0.2201,-0.3314,171
20,-0.5755,0.5132,-0.0357,0.2638,-0.1438,-0.3924,171
20,-0.5102,0.4796,-0.0622,0.0654,-0.1318,-0.3575,171
20,-0.552,0.4438,-0.0326,-0.0686,-0.0675,-0.3609,171
20,-0.4203,0.4112,0.0092,-0.0686,-0.0675,-0.3609,171
20,-0.4194,0.2571,0.0224,-0.1144,-0.0305,-0.4164,171
20,-0.3755,0.202,0.052,-0.206,0.037,-0.4797,171
20,-0.3755,0.202,0.052,-0.2823,0.0763,-0.5145,171
20,-0.4347,0.1857,0.0652,-0.2268,0.1406,-0.5255,171
20,-0.4663,0.1744,0.0541,-0.1896,0.1852,-0.544,171
20,-0.5796,0.1275,-0.002,-0.194,0.2039,-0.5364,171
20,-0.5367,0.1908,0.0183,-0.1232,0.2289,-0.5112,171
20,-0.6194,0.2551,0.0693,-0.1003,0.181,-0.4666,171
20,-0.7071,0.2245,0.0551,-0.2268,0.1613,-0.4458,171
20,-1.0326,0.1898,-0.004,-0.3565,0.073,-0.4012,171
20,-1.1061,0.1949,-0.0092,-0.3565,0.073,-0.4012,171
20,-1.2602,0.1694,-0.0163,-0.3848,-0.0174,-0.3302,171
20,-1.4897,0.0561,0.0204,-0.4536,-0.1581,-0.2682,171
20,-1.4897,0.0561,0.0204,-0.569,-0.2354,-0.2289,171
20,-1.5775,0.0745,0.153,-0.6127,-0.3489,-0.2147,171
20,-1.701,0.1112,0.3245,-0.5505,-0.3935,-0.2289,171
20,-1.903,0.0775,0.3806,-0.5702,-0.3903,-0.2954,171
20,1.9276,-0.2928,-0.1489,-0.7566,-0.3477,-0.4219,171
20,-1.9949,-0.3846,-0.3173,-0.8939,-0.2693,-0.5179,171
20,-1.4214,-0.4398,-0.2101,-0.7457,-0.2802,-0.5647,171
20,-1.4,-0.5775,-0.1387,-0.7838,-0.2747,-0.5341,171
20,-1.0928,-0.7428,0.0469,-0.7838,-0.2747,-0.5341,171
20,-1.0928,-0.7428,0.0469,-0.8504,-0.2594,-0.351,171
20,-1.0857,-0.6541,0.0418,-0.6028,-0.2747,-0.2213,171
20,-1.1571,-0.3061,0.0908,-0.0457,-0.1623,-0.1068,171
20,-1.2377,-0.0316,0.0541,0.3292,-0.1417,0.0011,171
20,-1.2816,-0.1612,-0.1346,0.0664,-0.1329,0.1035,171
20,-1.2531,-0.2612,-0.1785,-0.3346,-0.1503,0.1057,171
20,-1.2418,-0.1296,-0.0939,-0.1755,-0.1995,0.1864,171
20,-1.0979,0.0591,0.0245,0.1547,-0.2911,0.2954,171
20,-0.9306,-0.0357,0.053,0.0479,-0.3183,0.3019,171
20,-0.8602,-0.1408,0.0255,0.0479,-0.3183,0.3019,171
20,-0.8602,-0.1408,0.0255,-0.2256,-0.3096,0.2703,171
20,-0.7949,-0.0928,0.0826,-0.1635,-0.2779,0.2954,171
20,-0.8193,0.0132,0.1418,-0.0021,-0.2354,0.3325,171
20,-0.6959,-0.1938,0.0591,-0.1198,-0.2147,0.3161,171
20,-0.6082,-0.1887,0.0786,-0.1602,-0.098,0.2943,171
20,-0.4857,-0.1775,0.0714,-0.0185,-0.0969,0.3183,171
20,-0.5806,-0.1143,0.1143,0.0479,0.0011,0.3237,171
20,-0.5255,-0.302,0.0295,-0.037,0.0425,0.3008,171
20,-0.4979,-0.3163,0.0183,0.0206,0.1362,0.3107,171
20,-0.4796,-0.2938,0.0367,0.0206,0.1362,0.3107,171
20,-0.5388,-0.2938,0.0622,0.1646,0.1449,0.351,171
20,-0.5388,-0.2938,0.0622,0.2714,0.2201,0.3903,171
20,-0.5857,-0.1683,-0.0071,0.4797,0.2899,0.4992,171
20,-0.5857,-0.1683,-0.0071,0.5702,0.3346,0.545,171
20,-0.6296,-0.1377,-0.0051,0.5789,0.3783,0.5734,171
20,-0.6959,-0.1,-0.0551,0.5843,0.4077,0.5854,171
20,-0.7142,-0.0602,-0.0847,0.6541,0.4393,0.6072,171
20,-0.7683,0.0122,-0.0898,0.7217,0.4611,0.6268,171
20,-0.7449,0.0591,-0.0959,0.7293,0.4524,0.6356,171
20,-0.7581,0.1132,-0.1204,0.6814,0.4524,0.6345,171
20,-0.6949,0.1459,-0.1061,0.6606,0.4307,0.6411,171
20,-0.7377,0.1755,-0.1153,0.6606,0.4307,0.6411,171
20,-0.7377,0.1755,-0.1153,0.6388,0.4164,0.6333,171
20,-0.6183,0.1143,-0.0887,0.5757,0.3848,0.5984,171
20,-0.7734,0.1224,-0.0847,0.4753,0.3783,0.5778,171
20,-0.8224,0.0867,-0.0806,0.4622,0.3663,0.5887,171
20,-0.9398,0.0693,-0.0939,0.4655,0.2911,0.5723,171
20,-1.1979,0.2786,-0.0857,0.5516,0.2005,0.5757,171
20,-1.3765,0.5051,-0.0112,0.6879,0.0435,0.5843,171
20,-1.3939,0.601,-0.0071,0.689,-0.1274,0.4763,171
20,-1.4377,0.7051,0.0541,0.5734,-0.2998,0.2442,171
20,-1.5306,0.9163,0.2663,0.4731,-0.3914,0.0457,171
20,-1.5306,0.9163,0.2663,0.4731,-0.3914,0.0457,171
20,-1.6796,0.9867,0.3102,0.3815,-0.3729,-0.0469,171
20,-1.801,0.9071,0.151,0.2147,-0.2737,-0.0162,171
20,-1.8071,0.7867,-0.0745,0.0402,-0.1919,0.0501,171
20,-1.6765,1.1112,-0.2602,0.2081,-0.1417,0.0545,171
20,-1.3602,1.2581,-0.2438,0.4807,-0.1286,0.0316,171
20,-1.4,1.3204,-0.1479,0.2747,-0.1907,-0.2333,171
20,-1.15,1.0755,-0.049,-0.3914,-0.2453,-0.4469,171
20,-1.3571,0.0775,-0.1214,-1.2102,-0.2071,-0.4469,171
20,-1.1214,-0.1479,-0.1357,-1.3769,-0.1515,-0.2966,171
20,-1.3796,-0.0939,-0.0398,-1.3769,-0.1515,-0.2966,171
20,-1.3796,-0.0939,-0.0398,-0.9889,-0.1537,-0.0381,171
20,-1.4142,-0.151,-0.0214,-0.7403,-0.1515,0.0698,171
20,-1.3612,-0.3622,-0.1346,-0.6606,-0.2321,-0.0162,171
20,-1.0755,-0.1173,-0.0652,-0.1461,-0.231,0.025,171
20,-1.1275,0.2418,0.0295,0.412,-0.3019,0.074,171
20,-1.0786,0.4,0.0979,0.3838,-0.2844,0.1232,171
