,Unnamed: 0,timestamp,node,accx,accy,accz,gyrox,gyroy,gyroz,q0,q1,q2,q3,timestamp.1,node.1,accx.1,accy.1,accz.1,gyrox.1,gyroy.1,gyroz.1,q0.1,q1.1,q2.1,q3.1,timestamp.2,node.2,accx.2,accy.2,accz.2,gyrox.2,gyroy.2,gyroz.2,q0.2,q1.2,q2.2,q3.2,timestamp.3,node.3,accx.3,accy.3,accz.3,gyrox.3,gyroy.3,gyroz.3,q0.3,q1.3,q2.3,q3.3,timestamp.4,node.4,accx.4,accy.4,accz.4,gyrox.4,gyroy.4,gyroz.4,q0.4,q1.4,q2.4,q3.4,timestamp.5,node.5,accx.5,accy.5,accz.5,gyrox.5,gyroy.5,gyroz.5,q0.5,q1.5,q2.5,q3.5,timestamp.6,node.6,accx.6,accy.6,accz.6,gyrox.6,gyroy.6,gyroz.6,q0.6,q1.6,q2.6,q3.6,timestamp.7,node.7,accx.7,accy.7,accz.7,gyrox.7,gyroy.7,gyroz.7,q0.7,q1.7,q2.7,q3.7,timestamp.8,node.8,accx.8,accy.8,accz.8,gyrox.8,gyroy.8,gyroz.8,q0.8,q1.8,q2.8,q3.8
0,0,0.0259999999998399,0.0,-6.93657350619419e-17,1.7943411839931315e-18,1.0,0.0142397644497077,-0.0036821509767541,-0.0273851746371398,0.9999987923341012,0.0007119873626414,-0.000183132431584,-0.0013692577723636,0.0259999999998399,1.0,-4.144712391921799e-17,-2.256086028995192e-17,1.0000000000000002,0.0086514797678182,0.0192065605958819,-0.0415670132446298,0.9999972847006454,0.000432572813823,0.00096122446021,-0.0020783454077877,0.0259999999998399,2.0,-6.82376008769989e-17,3.349883544390212e-17,1.0,0.0063689778875849,0.0201625149650627,-0.0260024022530728,0.9999985955655506,0.0003184484471386,0.0010085383536375,-0.0013001184185647,0.0259999999998399,3.0,-8.281709253816672e-17,-1.120585134444436e-16,1.0,0.0077766296892933,0.0199950253369989,-0.0299078335090955,0.999998305978096,0.0003888308257756,0.0010003310276294,-0.0014953893683162,0.0270000000000436,4.0,5.307334619211706e-17,1.7687738227397888e-17,0.9999999999999998,0.0025325837766909,0.014826755397578,-0.0155527937851257,0.9999994147574348,0.0001266291147257,0.0007414358078419,-0.0007776392466178,0.0,5.0,-2.049979840898179e-17,4.564501279323421e-17,1.0,0.0110101878586696,0.0036578702548923,-0.0209600913436777,0.9999992824826544,0.0005505089979334,0.0001834703174594,-0.001048004132831,0.0,6.0,1.2647830801394052e-17,6.646425500399849e-17,1.0,-0.0105419435220502,-0.0048750891668087,0.0098923759963211,0.9999997091158616,-0.0005270970227782,-0.0002434936753393,0.0004946187933599,0.0,7.0,4.398615634411344e-18,4.197782008464596e-17,1.0,-0.0467156693675224,-0.0106069017286656,-0.0764978400431307,0.9999898118232312,-0.0023357596710012,-0.0005392737116683,-0.0038248739014367,0.0,8.0,-8.420241050796523e-18,2.0811485048183068e-18,0.9999999999999998,-0.0038183601927826,-0.0134049672223241,0.0089971561053413,0.9999996560304328,-0.0001909179439691,-0.0006701622446439,0.0004498576669268
1,1,0.0810000000001309,0.0,-0.0009695717567265,0.0030097600551477,0.9801530499238468,0.0157406096783971,0.001317901144899,-0.0426029393867026,0.9999926252489864,0.0015818934460125,-4.73828084653494e-05,-0.0034992592981082,0.0810000000001309,1.0,-0.0028044577893931,-0.0001516833170517,0.9797148115695092,0.0020264367854313,0.0367223650920491,-0.0659569359811515,0.999981385831184,0.0004838357142724,0.0028457050417558,-0.0053754866721005,0.0810000000001309,2.0,-0.0009410905718725,0.0003367652307466,0.9797142445313914,-0.0133499782034281,-0.0013880244956274,-0.0416384764189015,0.9999938233760232,-0.0003658324671838,0.0008863941897877,-0.0033813727610911,0.0810000000001309,3.0,-0.0016309098908367,-7.388820592751427e-05,0.9795260765663472,0.0059582175622095,0.0220671403174081,-0.070601897345547,0.999984985280736,0.0006423236540904,0.0020887091535364,-0.0050253285943636,0.0819999999998799,4.0,-0.0014101273755267,-2.6656990979248737e-05,0.9802305906419108,0.0036131198539774,0.0256563021577157,-0.1004407044117819,0.999981093270682,0.0002905876335374,0.0020233213444416,-0.0057995543566652,0.0450000000000727,5.0,0.001213592490066,0.0007260089483571,0.9792767740043028,0.0349687028232787,-0.0278040939114309,-0.0599401045918371,0.9999883963335504,0.0022788661632127,-0.0012820708508266,-0.004046017992744,0.0459999999998217,6.0,-0.0001619876176369,-0.0009867738032314,0.9801428467511626,-0.0149420742112499,-0.0072710580346654,-0.0291632244514074,0.9999985614387468,-0.0012712966814985,-0.0005766810899305,-0.0009635165307377,0.0459999999998217,7.0,0.0001174568825643,-0.0031100319588648,0.9804408773123934,-0.0413525070021907,-0.0140027493545342,-0.0360384939852349,0.9999740891908572,-0.0043300789410429,-0.0011907416348507,-0.0056261441182607,0.0459999999998217,8.0,0.0009180101245367,-0.001069344429452,0.9802530355780096,-0.0065099190512975,-0.0248071022944343,-0.0375698650824052,0.9999970393660492,-0.0005500268594974,-0.0018915250975465,-0.0014285875525523
2,2,0.1869999999998981,0.0,-0.0002622975799566,0.0042339730378748,0.9801204031507018,0.0195874818223368,0.0025696971320679,-0.0513204265931182,0.999978171202236,0.0026196575884017,0.0001017573734236,-0.0060649945249833,0.1869999999998981,1.0,-0.003563217612667,0.0004934686324441,0.9798046029535448,0.0054695328253131,0.0172658308103909,-0.0661736664345113,0.9999555179107968,0.0007302984862364,0.0036070144874371,-0.0086843716156371,0.1869999999998981,2.0,-0.0009410905718725,0.0003367652307466,0.9797142445313914,0.0082130205322766,0.0181434285231283,-0.0497180411300567,0.9999812445776788,9.960789797328394e-05,0.0017517360053773,-0.0058678779904027,0.1869999999998981,3.0,-0.0023862886195556,0.0004930922450494,0.9798546129332976,0.001725622936571,0.0147652777444601,-0.0613572693682253,0.999963258841056,0.000687442213734,0.0027413813646899,-0.0080927881098527,0.1880000000001018,4.0,-0.0028202547510534,-5.3313981958528e-05,0.9803346588388876,0.0014437853054,0.0131733637139395,-0.0827197080032569,0.9999471464797728,0.0003272795938087,0.0026243962570223,-0.0099352744961381,0.1199999999998908,5.0,0.0026978791636567,0.0023804968360072,0.97952082912148,0.011772890575118,-0.0304903477128159,-0.0336735572329673,0.999975811264576,0.0027565503360101,-0.0028142852691825,-0.0057321997890739,0.1210000000000945,6.0,0.0006627017536389,-0.0021354180638257,0.9801204011834864,-0.01746999338348,-0.0113786093290102,-0.0129266505215994,0.9999958132825658,-0.0021268064290581,-0.0011221758153985,-0.0016096065334877,0.1210000000000945,7.0,0.0009055593823358,-0.0060963881078629,0.979762223202264,-0.0427533648487748,-0.0067512734352715,-0.0634025352391785,0.999940112874302,-0.0063440756856295,-0.0014617512727457,-0.0087969683323034,0.1210000000000945,8.0,0.0028808094925789,-0.0012156879667377,0.9798980676781822,-0.0123491023846681,-0.0281289325415748,-0.0262031623435981,0.9999902572696818,-0.0011742441648475,-0.0032563644351665,-0.0027390887211523
3,3,0.2309999999997671,0.0,-0.0010366970082942,0.0063064238689273,0.9797959758425724,0.0133872885447514,0.0070106830282215,-0.0511893740463654,0.999957077546744,0.0033510155438552,0.0004975665334548,-0.0086235831615707,0.2309999999997671,1.0,-0.0049654465073636,0.0004176269739182,0.9796372644651148,-0.0056081368929205,0.0140156393140734,-0.0761735418799183,0.9999130660371764,0.0003927463499977,0.0042041786984031,-0.0124912369247333,0.2319999999999709,2.0,-0.0022189304416608,-0.0002515512537702,0.9795692997790724,-0.0063923713033275,0.0176521633909754,-0.1056030034993387,0.9999345297240024,-0.0002461962722627,0.0025729998043059,-0.0111469872629395,0.2319999999999709,3.0,-0.003731297290326,0.0002532348054425,0.9802198800741928,0.0004759927433946,0.0128149064054274,-0.0672394697640124,0.9999287395136054,0.0006529200660429,0.0033001503363239,-0.0114541956451539,0.2319999999999709,4.0,-0.0035948707181507,0.0009478857796714,0.9797041279983812,0.0050212283037118,0.012451989917005,-0.0763575575984598,0.9999002305076546,0.0005919469487149,0.0031672203550332,-0.0137530849183555,0.181999999999789,5.0,0.0060679624503301,0.0036300447417861,0.9792359279595872,0.0216836623692648,-0.0415348469175218,-0.0512573638063153,0.9999464799565948,0.0037438844169479,-0.004916972827202,-0.0082972242409538,0.181999999999789,6.0,0.0016493787425519,-0.0022972885211884,0.9801040771342674,-0.0201799022885392,-0.0143214949726002,-0.0085472521838825,0.999991664434568,-0.0030411155839612,-0.0018096559989342,-0.0020366203751903,0.181999999999789,7.0,0.0019319520456754,-0.0089018459544954,0.9800377669763016,-0.0408673629968583,-0.0163455523031473,-0.0369958702902532,0.9999071498092332,-0.0082123087270072,-0.0022245532468831,-0.0106442993475278,0.181999999999789,8.0,0.004961427534812,-0.0023103928468223,0.9805855629784226,-0.0229815672921775,-0.0355576777136797,-0.0327641895133763,0.9999754023344763,-0.0023238986579065,-0.0049618738785159,-0.0043788158951359
4,4,0.306999999999789,0.0,-0.0012318693366831,0.0072437330930226,0.9800846957425742,-0.0023429646664076,-0.0021637167374392,-0.0356658793745546,0.9999404254619074,0.0032670132673965,0.0004061203659853,-0.0104070753633494,0.306999999999789,1.0,-0.0057242063306375,0.0010627789234141,0.9797270558491504,-0.0033589362004975,0.005603012501542,-0.0453164322791718,0.999881601888283,0.0002373989621213,0.004357936348705,-0.0147558204731062,0.306999999999789,2.0,-0.0031600210135333,8.521397697629478e-05,0.979599921909844,-0.0075780181173069,-0.0005480558509921,-0.0501766052411546,0.9999035852357724,-0.0006010549320814,0.0024522425153182,-0.0136545037355305,0.306999999999789,3.0,-0.0043209272323774,-0.0005536030851413,0.9802566108481374,0.0043544305928119,0.0036372455158289,-0.0260149180679384,0.9999126581675584,0.0007774114263978,0.0033712036986459,-0.0127556518212026,0.306999999999789,4.0,-0.0035948707181507,0.0009478857796714,0.9797041279983812,0.0051406345212627,-0.008622249451852,-0.0164078947211936,0.9998900628589296,0.0008321224747747,0.0025993645304909,-0.0145743978328557,0.2849999999998545,5.0,0.0087658416139868,0.0060105415777934,0.9794697715655852,0.037048344749781,-0.0399402707036632,-0.0432351229869486,0.9999064570808062,0.005518871193032,-0.0068755045427284,-0.01045689180147,0.2849999999998545,6.0,0.0032987574851038,-0.004594577042377,0.9800591859989152,-0.0195526962065048,-0.0231863166742656,-0.0217256905093989,0.9999829534113944,-0.0039497556147113,-0.0029580970230444,-0.0031212143808597,0.2860000000000582,7.0,0.002958344709015,-0.0117073038011279,0.980313310750339,-0.0352150827520244,-0.0079240557102698,-0.0559171884078501,0.9998589013724752,-0.0097482111990307,-0.0025512659813842,-0.0134402666096577,0.2860000000000582,8.0,0.007842237027391,-0.00352608081356,0.98011329246802,-0.0260935395187658,-0.0349296536230695,-0.0256464702081475,0.9999557090905572,-0.0035790332929501,-0.0066102207234352,-0.0056635112674481
5,5,0.3510000000001128,0.0,-0.0012318693366831,0.0072437330930226,0.9800846957425742,-0.0190898429960252,0.0087188908277584,-0.0224701699523347,0.9999303758184096,0.0023601352415297,0.0008730012055446,-0.0115287096498692,0.3519999999998617,1.0,-0.0049654465073636,0.0004176269739182,0.9796372644651148,-0.0060396666638985,-0.0132332394051474,-0.0278748843156492,0.9998634181445176,-7.906822446155324e-05,0.003518003682946,-0.0161481409042788,0.3519999999998617,2.0,-0.0028232717156173,0.0010102956922398,0.9797754887929347,-0.0074338012230355,-0.0169646269873411,-0.0076933304481946,0.999899954300118,-0.00087160854896,0.0015069709297566,-0.0140374758334902,0.3519999999998617,3.0,-0.0043209272323774,-0.0005536030851413,0.9802566108481374,0.0026217386789301,-0.0052366762661987,-0.0444340121505808,0.9998830284994212,0.0007944902315299,0.002993107094594,-0.0149779642814974,0.3519999999998617,4.0,-0.0035948707181507,0.0009478857796714,0.9797041279983812,0.0059271320131288,-0.0143339574219823,-0.049141414977312,0.9998527276530484,0.001079434056382,0.00180390468906,-0.0170324324378355,0.3150000000000545,5.0,0.0124066190841849,0.0081885684228651,0.9794391370320484,0.0279532412909796,-0.056340886252228,-0.0340686809310153,0.9998566420876468,0.0067580209366066,-0.0096452932916795,-0.0121652268188085,0.3159999999998035,6.0,0.0051101238452926,-0.005905091760334,0.98002041638202,-0.0353444230261441,-0.019438759584714,-0.0083624178554061,0.9999703367489,-0.005625818712853,-0.0038907952003392,-0.0035408330672741,0.3159999999998035,7.0,0.0046553829895619,-0.0143890858378935,0.9793499280737044,-0.031769822186496,-0.0232166460074865,-0.0116260216150973,0.999833295526104,-0.0111134153028131,-0.0036696456300354,-0.0140145231337943,0.3159999999998035,8.0,0.0096782572764646,-0.0056647696724642,0.9798786872468696,-0.0266071779183763,-0.0389910353087493,-0.0209120056574046,0.9999305507184858,-0.0048473497747448,-0.0083883157338894,-0.0067106705429153
6,6,0.4110000000000582,0.0,-0.0012318693366831,0.0072437330930226,0.9800846957425742,-0.0347266563716882,0.00393471899301,-0.0060234314559137,0.9999291988511342,0.0007601521252272,0.0010612491691286,-0.0118276457453289,0.4110000000000582,1.0,-0.0043078355086394,-0.0004804027706752,0.980509669389552,-0.0080907280757199,-0.0221146760201963,-0.0066625470181572,0.9998614514643532,-0.0005156159257437,0.0022870195233128,-0.0164797317184934,0.4110000000000582,2.0,-0.0009410905718725,0.0003367652307466,0.9797142445313914,-0.0121105924288155,-0.0306057616889487,-0.0014045530116146,0.9998995368325456,-0.0013936432608444,-0.0001176772639716,-0.0141053235547317,0.4110000000000582,3.0,-0.003731297290326,0.0002532348054425,0.9802198800741928,-0.0062652606451712,-0.0236005113206784,0.0034804918483791,0.999888874311441,0.0004004251921619,0.0017086348855444,-0.0148040283265297,0.4119999999998072,4.0,-0.0021847433426239,0.0009745427706507,0.9796000598014044,-0.0181606423524921,-0.0263384368203514,0.0289291936425916,0.9998784346937738,9.537773689807544e-05,0.0004327225798806,-0.0155858746493447,0.4259999999999309,5.0,0.016047396554383,0.0103665952679368,0.9794085024985116,0.0371757645553475,-0.0548438936689876,-0.0109141114213182,0.999808427453588,0.008431682942538,-0.0122659039963699,-0.0127107322641698,0.4270000000001346,6.0,0.0069214902054815,-0.007215606478291,0.9799816467651248,-0.033005462545449,-0.0198636281641452,-0.0017682127955407,0.9999565829181234,-0.0070859922849224,-0.0048414564482403,-0.0036306048405069,0.4270000000001346,7.0,0.0053396447651216,-0.0162593910689819,0.9795336239230628,-0.0379597477879487,-0.0249557257927618,-0.0062752231817853,0.9998046922833304,-0.0127496163139938,-0.004788495012082,-0.0143211342986471,0.4270000000001346,8.0,0.0124956772095592,-0.0078766303000112,0.9794665980758056,-0.0325624462999463,-0.0380118840050277,-0.010977000441237,0.9999023245092252,-0.0064050411048683,-0.0100775822511199,-0.0072635546025811
7,7,0.4710000000000036,0.0,-0.0010366970082942,0.0063064238689273,0.9797959758425724,-0.0406317301955415,0.0086836085145617,0.0120472190328784,0.9999354365049494,-0.0010191230197523,0.0014630124828499,-0.0112224687302821,0.4719999999997526,1.0,-0.0035490756853655,-0.0011255547201711,0.9804198780055164,-0.0142409673630845,-0.0314410922941621,0.0219830927635077,0.9998807298669292,-0.0012538206201642,0.0006814752229645,-0.0153782172617669,0.4719999999997526,2.0,0.0018821811437448,-0.0006735304614931,0.9796223781390764,-0.0164125706755704,-0.0329243354394223,0.0001756582026194,0.9998967067837164,-0.0021337709343257,-0.0018359340155951,-0.0140944006956265,0.4719999999997526,3.0,-0.0019346386128218,-0.0010466953301909,0.980506584170817,-0.0159453011084842,-0.0317898851556872,0.0245753531611952,0.9999077276666716,-0.0005101514623817,6.0281892299083527e-05,-0.0135746920426172,0.4719999999997526,4.0,2.3947723324467707e-17,-5.007988077655859e-17,0.980126522444934,-0.0074458261389882,-0.0343456433767277,-0.0157711098508523,0.999865009886314,-0.0003135076682968,-0.0013220450199654,-0.0163742454772305,0.4949999999998908,5.0,0.0199588682081057,0.0134731010523013,0.9796321345933308,0.0484203344626757,-0.0536089030978836,0.0117309142666741,0.9997606656592436,0.0106421570328904,-0.0147831929340541,-0.0121166456145307,0.4949999999998908,6.0,0.0095575459369463,-0.0096747654568423,0.9799204315805536,-0.0457265156234079,-0.0221440877148659,-0.0103236560960995,0.9999317436719768,-0.0091604575489624,-0.005946692412364,-0.0041510075845479,0.4960000000000946,7.0,0.0072749732092365,-0.018760274803382,0.9795244391305948,-0.0300774458710099,-0.0250197055335324,-0.0001834600175197,0.9997826157013688,-0.0139587597957787,-0.005896491977103,-0.0143215134904323,0.4960000000000946,8.0,0.014512905692308,-0.009967507840905,0.9802142747153846,-0.047483469756312,-0.0382793161922023,-0.0137195147829756,0.9998622682999732,-0.0086590884171685,-0.0117086871713327,-0.0079606069203356
8,8,0.5450000000000728,0.0,-0.0015487988566753,0.0041449016621049,0.9795399027157152,-0.0410369759241759,0.0084338234873662,0.0313238734607419,0.9999479282850536,-0.0027494783960714,0.0018423893009194,-0.0096533252634837,0.5459999999998217,1.0,-0.0020456979661192,-0.0007968352665475,0.9796250201854736,-0.0084399495882452,-0.0304528280743081,0.0386335834765584,0.9999080065093048,-0.0016115502080882,-0.0007945468574492,-0.0134443341153885,0.5459999999998217,2.0,0.0022189304416607,0.0002515512537703,0.9797979450221672,-0.0128556638140948,-0.0196964626956481,-0.0017875805325394,0.99989236467334,-0.0025655860117131,-0.0027416313058124,-0.0141830988911432,0.5459999999998217,3.0,0.0001657487866673,-0.0013738183415609,0.9798127806629712,-0.0111516226448425,-0.0164363007782221,0.0824118855463402,0.9999544190885616,-0.0010978101906452,-0.0007629382464601,-0.0094537020936256,0.5459999999998217,4.0,-0.0035431511585618,-0.0020509124209252,0.9796367897532784,-0.0442025430310151,0.0164984395523804,0.0425787556899635,0.9998951411842129,-0.0025830615185722,-0.000140773191637,-0.0142483196308424,0.5410000000001673,5.0,0.0221153590047131,0.0139966400097229,0.9793574449426168,-0.0087467739542741,0.0032266605483909,-0.0580703514496533,0.9997367734557632,0.0098862519993367,-0.0142468729616216,-0.0150223976941645,0.5410000000001673,6.0,0.0112069246794982,-0.0119720539780308,0.9798755404452012,-0.0497646170028435,-0.0310145140793559,0.1008547266857533,0.9999074163856816,-0.0113819111204628,-0.0074040393409872,0.0008893579673975,0.5419999999999163,7.0,0.0084221991535799,-0.018274802388784,0.980193908448256,0.0328474189106007,-0.0115728778648888,0.0201472941375858,0.99982116773469,-0.0118731133506923,-0.0063130828425659,-0.0132968685796819,0.5419999999999163,8.0,0.0172669360659184,-0.0131755411292613,0.9798623668836592,-0.0509394884105147,-0.0627060545574447,-0.0040750505214148,0.999800118350144,-0.0110413576236919,-0.0145299649342103,-0.0081665101404847
9,9,0.6509999999998399,0.0,-0.0009695717567265,0.0030097600551477,0.9801530499238468,-0.026808093071107,0.0178437872210927,0.1204137864764272,0.9999833081643892,-0.0036411435173638,0.0026331270607121,-0.0036320942130635,0.6509999999998399,1.0,-0.0020456979661192,-0.0007968352665475,0.9796250201854736,-0.0279147340496397,-0.0150116435435881,0.0780108533731913,0.9999493732968192,-0.0028984964401654,-0.0013306022871046,-0.0095435349445817,0.6509999999998399,2.0,0.0003367492979158,0.0009250817152635,0.9798591892837104,-0.0395184461619496,-0.0191252872856777,0.0274557690045634,0.999903043343029,-0.0042551228613711,-0.0034076201380715,-0.0128135072395266,0.6509999999998399,3.0,-0.0010135110974355,-0.0029874941227286,0.9798862422108608,-0.0246758135133995,0.0394432294313057,0.1471914159707001,0.9999940800104516,-0.0023606970119643,0.0013677250651089,-0.0020967550677657,0.6509999999998399,4.0,-0.0084209331734015,-0.004481586775457,0.9801836579256272,-0.0254056427000422,0.0018344574629303,0.2331455317311868,0.999989254310665,-0.0038176435509318,0.0004604322350534,-0.0025893750355585,0.6050000000000182,5.0,0.0120051091446928,0.0102479962923864,0.9802121484282956,-0.0335115957090716,0.2091090760099015,-0.0202092315602423,0.9998371405020572,0.0079065577843372,-0.0029544599383788,-0.0159514884303934,0.6050000000000182,6.0,0.0168030113777018,-0.0149168243286702,0.9797653531129727,-0.0919523695853589,-0.1757860006574748,0.1197858218665303,0.9997221175506384,-0.0156362843878186,-0.0162184388463907,0.0069394907591916,0.6050000000000182,7.0,0.0077379373780201,-0.0164044971576957,0.9800102125988976,0.0460073644533829,0.014758117080215,-0.0439187251455355,0.9998232594711284,-0.009204123510468,-0.005378350572211,-0.0154857119970317,0.6059999999997672,8.0,0.0207488078856126,-0.0204414368294974,0.979573700459374,-0.1480263368723996,-0.0619621209628359,-0.2216284499635233,0.9994960982249476,-0.0182497172726002,-0.017364244585969,-0.0193127021033952
10,10,0.6909999999998035,0.0,-0.0029633472102152,0.0016964756966507,0.9796051962620056,-0.0292233251503089,0.0527801309344458,0.2127082547691635,0.9999512786325552,-0.0046132035851686,0.0052138493940967,0.0069981774981281,0.6920000000000073,1.0,-0.0029338904685459,0.0028334855930811,0.9794464577740392,-0.0410467036719068,-0.030588121179147,0.2733355682256967,0.9999780321277506,-0.0045473670167693,-0.0024966662642597,0.004125939007184,0.6920000000000073,2.0,-0.0046362955374869,0.0047958365302701,0.980394055834522,-0.0406601436935511,-0.0311282719265416,0.2668600839413926,0.9999745353678542,-0.0056799904833308,-0.0042877880020534,0.0005302810604933,0.6920000000000073,3.0,-0.0027824009235898,-0.0054080077944802,0.979996434532695,-0.0514513866562621,0.0112646553392473,0.1342583035904376,0.9999750719324396,-0.0049623254284741,0.0019753768274716,0.0046183034161289,0.6920000000000073,4.0,-0.0077218137255531,-0.0051296815944597,0.9798816560991062,0.0042056868496606,-0.0403088430016848,0.2043096477284325,0.999964089607244,-0.003486644884327,-0.001171266665258,0.0076348502149664,0.6610000000000582,5.0,0.0009428983065413,-0.0002024699909356,0.9790225073759468,-0.2797837753694949,0.1613104299697822,0.2318691725493644,0.9999515569509566,-0.0067910445457062,0.0056606090197124,-0.0043270048372885,0.6610000000000582,6.0,0.027479719355016,-0.0116016598861396,0.9796327202130684,0.1148603431106275,-0.1721124412602318,0.2989308856080946,0.9994161592708424,-0.0090957668767656,-0.0244246754291986,0.0220916917283444,0.6619999999998072,7.0,0.0100187731083545,-0.0134395712875446,0.9799265289341902,0.0443217935850207,-0.0518300853839644,0.0786895638446655,0.9998788864523216,-0.0068225491861552,-0.007939557600439,-0.0115164523433645,0.6619999999998072,8.0,0.0290653281211504,-0.0320100706981743,0.979620621503604,-0.1319246137826777,-0.1242175482829768,-0.1128278055375704,0.9991121300561104,-0.0246970868538271,-0.0232949033717355,-0.0249470028776524
11,11,0.793999999999869,0.0,-0.0032256447901718,0.0059304487345256,0.979536842080733,-0.050902568394947,0.0473229407949561,0.2387408816547626,0.9997739977339072,-0.0063490448113022,0.0072825371036921,0.0189369411067121,0.793999999999869,1.0,0.001388086967395,0.0016948650111411,0.9796015519828278,-0.0199083640923241,-0.0623218216298466,0.279552188329135,0.9998089501212882,-0.0050227416664381,-0.005366671362547,0.0181117133923315,0.793999999999869,2.0,-0.0039320000930187,0.006821536280245,0.9797611984652412,-0.0095769299630808,-0.0616556977471412,0.2070468625784396,0.9999043060734776,-0.0052853692960353,-0.0066860635680277,0.0108967940737543,0.793999999999869,3.0,-0.0015753721881372,-0.0075147758206974,0.9803198694032644,-0.0420847018107184,-0.0602455823446182,0.1963310815924203,0.9998710140394306,-0.0069201345199574,-0.0010973558185175,0.0144520874683966,0.793999999999869,4.0,-0.0041905510468213,-0.0044016158025192,0.9798714533346968,-0.0102636188988391,-0.051310418332131,0.1077352389276267,0.999901888222952,-0.0038640108477227,-0.0033904098157543,0.0130302904658642,0.721,5.0,0.0067762438231334,-0.01553721531772,0.9737482618520148,-0.8002940586361723,-0.3082591123175498,0.4270208917724093,0.998707692448656,-0.0468120843859922,-0.0094763551592743,0.0173716001627508,0.721,6.0,0.0358443468361393,-0.0038537888585946,0.9795735455346496,0.5602644724713535,0.1974914325927489,1.038680960567319,0.9969619513358632,0.0181163263815645,-0.0142496046849269,0.0744017141828589,0.721,7.0,0.0158757361110752,-0.0077212789533242,0.9836678010661204,0.14394773389315,-0.1779034622797756,0.4629210998771916,0.9997875987745972,0.0003700159552182,-0.0169298811986259,0.0117473208570453,0.721,8.0,0.0440070483516762,-0.0451348909261706,0.9775030543770468,0.1398126003226792,-0.3437993281523029,0.6945589812103352,0.9989753780998432,-0.0188219406414298,-0.0398294798934805,0.0103701992353342
12,12,0.8209999999999127,0.0,-0.0027135429417906,0.008091970941348,0.9797929152075898,-0.0830984772972058,0.0084570118282264,0.2222510525111755,0.9994780550067816,-0.0093837536453776,0.0071486043401385,0.030074244518721,0.8209999999999127,1.0,0.0048360138282108,0.0025675419362146,0.9801933588321536,0.0211168915198388,-0.0687817154373342,0.2119691506473849,0.9995460416763136,-0.0033241640480726,-0.0084572019028893,0.0287251847438474,0.8220000000001164,2.0,0.0014469513621753,0.0069878735570391,0.9799592215775648,0.044775706327783,-0.0551390864756521,0.1300928924255967,0.9998070071345164,-0.0021746305819657,-0.0088052073575667,0.0174266402368168,0.8220000000001164,3.0,-0.0009857422460858,-0.0067079379301136,0.9802831386293196,-0.045091542489467,-0.087888998195004,0.2535926071636275,0.9995789408736868,-0.0087744666885876,-0.0052561617698388,0.0271536822478736,0.8220000000001164,4.0,0.0015771745341234,-0.0076468909818262,0.9803203749687144,-0.0622784093139902,-0.1087914236564242,0.2586251178490995,0.9996022905524584,-0.006951795160602,-0.0085246989476487,0.0259665703198447,0.7800000000002001,5.0,0.0026754685936211,-0.0030870483860495,0.9798455551769713,0.1844900604526678,-0.1749797407530697,0.7342729646684429,0.997833159749741,-0.0332532170339396,-0.0160118035273572,0.0544686240742591,0.7809999999999491,6.0,0.0396733210234272,-0.0237355843215333,0.9793429683394308,-0.2747985077789429,-0.1485610145481348,0.2275225111023397,0.9960691627636556,0.0019540227662755,-0.0233715231235041,0.0854176603122948,0.7809999999999491,7.0,0.011370304102682,-0.0215871629288614,0.9790376451297954,-0.2505157508982957,-0.0647152850440168,-0.0107724872423257,0.999667057202495,-0.0132364339548951,-0.0192178602231475,0.011011149290815,0.7809999999999491,8.0,0.0381186502475497,-0.0446958603143137,0.9785679580765294,-0.2160579099264689,-0.1581188108092153,-0.0723808372888661,0.9984801221585834,-0.0297579120248338,-0.0459276111921241,0.0065243280334407
13,13,0.9090000000001056,0.0,-0.0017439711850641,0.0050822108862002,0.9798286226157172,-0.1387503969750453,0.0441556121982629,0.2162372363236377,0.999010994225514,-0.0151086275540464,0.0086907349803883,0.0409051820125932,0.9090000000001056,1.0,0.0125917761976662,0.0039206216319634,0.9803249848382968,0.0025111179663516,-0.1649047632446821,0.4771517715556899,0.9984793866664408,-0.002612580842629,-0.0164119782246075,0.0525617331744699,0.9090000000001056,2.0,0.0091755842781781,0.0108688451030363,0.9788609078205546,0.042046332301408,-0.176695928459433,0.459697516255197,0.9990349007571104,0.0006579148347184,-0.0171860504816391,0.0404162576959268,0.9090000000001056,3.0,0.0014005463734697,-0.0072010301751631,0.9805331119519992,-0.0707320508648808,-0.0960937026699441,0.1987051883881527,0.9991966700954734,-0.0117173376098794,-0.0095921963679029,0.0371040191663068,0.9090000000001056,4.0,0.0072694035958192,-0.0105390612185061,0.9798367639357044,-0.0788370391782026,-0.1185499889867969,0.2631955094828188,0.9990801507020692,-0.0106804086211031,-0.0139401719655411,0.0391210039542427,0.8260000000000218,5.0,0.0138909057577756,0.0098430563105152,0.9796831921492256,0.2123888803746876,-0.1875691056281777,0.3688951125058445,0.9968609855900556,-0.0185853290057241,-0.0235159697772766,0.0732786470918098,0.8260000000000218,6.0,0.0521754147079243,-0.0399611059167318,0.9770127103134164,-0.2540299855352294,-0.1519400653035531,0.0515723390000092,0.99554510885999,-0.012101503826905,-0.0324778764318321,0.0876851034814735,0.8260000000000218,7.0,0.0165123966146985,-0.0164115655017378,0.9799163236092256,0.2015264746937997,-0.0579116623339626,0.2748925716881384,0.9994654289029202,-0.0029001003332991,-0.0208884233114103,0.0249823861454784,0.8260000000000218,8.0,0.0416639116267282,-0.0509655833537405,0.9782191103129056,-0.1305251058044423,-0.0846908884546897,0.3457172098777462,0.9979369679813374,-0.0366428602967049,-0.0471092988823519,0.0236605723579252
14,14,0.9510000000000218,0.0,-0.0050851697405251,-0.0019761632515306,0.9797031365814408,-0.1842439574992359,0.0801173965701215,0.2156314744159572,0.9983274861100008,-0.0229759499161984,0.0119467802025172,0.0516876256518638,0.9519999999997708,1.0,0.0278057041207078,0.0018073507428864,0.9792903432086136,-0.0564141962504882,-0.2537472884682518,0.5689583998100848,0.9962971471733244,-0.0047947714859888,-0.0288280727397314,0.0808575718334709,0.9519999999997708,2.0,0.0199334871885663,0.0112015196566245,0.9792569540452014,0.0004846237491097,-0.1723076691831801,0.559040246691606,0.9973514689424198,0.0010953007675789,-0.02507742250798,0.068263977286576,0.9519999999997708,3.0,0.0065224486878346,-0.0097960749904409,0.978525162976352,-0.0780779697963722,-0.1115203327142495,0.1553138101476389,0.998775977034378,-0.0147999606418446,-0.0145835435398164,0.0448868479829641,0.9519999999997708,4.0,0.0143717600330418,-0.0134045744642065,0.9792490847057176,-0.0905683723221862,-0.1397722332899357,0.1625293661320402,0.9985689979118412,-0.014628903210405,-0.0203424750773315,0.0472454792327249,0.9299999999998364,5.0,0.0306105064351754,0.0190787026482236,0.979285964364364,0.0753048154959876,-0.1938052052982569,0.5032867162508463,0.994562538024121,-0.0117811386268776,-0.0317102641351677,0.0984937656917993,0.93100000000004,6.0,0.0546638681367947,-0.0555633809967768,0.9758394192757996,-0.2030091823178369,-0.0770985884283464,0.1801012875796361,0.9943866562214184,-0.0235190319148668,-0.0367714964015854,0.0963840760653035,0.93100000000004,7.0,0.0210740680753672,-0.0104817137614355,0.9797489562798104,0.1258136694501131,-0.0967545289771307,0.3514645082043645,0.9987812069082156,0.0029197280267258,-0.0246110292560818,0.042683406075125,0.93100000000004,8.0,0.0443545524408543,-0.055169789302906,0.9779273838205188,-0.0220422001393328,-0.0993202016205464,0.4353352082253694,0.9970521693217694,-0.0377383972401851,-0.0488780100426422,0.0455381725453149
15,15,1.0270000000000437,0.0,-0.0077737260592518,-0.0151431288753268,0.979068564928433,-0.2536385286843686,0.0927097430033029,0.0184255251160724,0.9979079101609178,-0.0343546392394661,0.0151103533888658,0.0526425571326015,1.0270000000000437,1.0,0.0439219664734775,-0.0055552643584346,0.9790495390423362,-0.0944987826829655,-0.2197516730218608,0.3313707122949298,0.9944457446232524,-0.0087045841315721,-0.0393622001711922,0.0972240115068512,1.0279999999997926,2.0,0.0344557523864442,0.0101871332872263,0.9795305117467616,-0.0226852130287872,-0.2386681487842381,0.1151070742836636,0.996602959942647,0.001163389968785,-0.0362638234679745,0.0739332257163127,1.0279999999997926,3.0,0.0125298235137482,-0.0166094713141423,0.9797454409107392,-0.1924607165507008,-0.0994117445216496,0.1009228667506896,0.9982954901072004,-0.0235945641358819,-0.0190764874319832,0.049854775118533,1.0279999999997926,4.0,0.027293561610798,-0.0225141610898109,0.979042988864646,-0.1576075218134311,-0.2184003407761562,0.2587152221959655,0.9974773753238916,-0.021854008995563,-0.0307336291407749,0.0601392720908689,1.0349999999998545,5.0,0.0394847532350941,0.016633792195146,0.9787661984453552,0.0180419698221883,-0.2220397596209325,0.7661943969237333,0.989759318926298,-0.0087920346757062,-0.0410065243820852,0.1364465304905659,1.0349999999998545,6.0,0.0609521591548194,-0.0728085959647462,0.9755945585375144,-0.3165679803831247,-0.1243069852528066,0.2742738437351316,0.9922074749181754,-0.040168829987243,-0.0436848542521806,0.1095555809756865,1.0360000000000582,7.0,0.0340748206818135,0.0091781466905593,0.9790631584422064,0.4516221364151315,-0.3062202338950423,0.792329973528721,0.9954941533893152,0.0253238831637861,-0.0391234943663523,0.0825799230912904,1.0360000000000582,8.0,0.0495546258354312,-0.0636260125192473,0.9763616489750152,-0.094108681144161,-0.0325120848107557,-0.0398690908353136,0.9970057709191776,-0.0416150223265156,-0.048587799242213,0.0434385593156349
16,16,1.0859999999997854,0.0,-0.0181876663824122,-0.0344436328403287,0.9792695466256074,-0.2608760285775441,0.2488378150892665,-0.1644746854457544,0.9976072160293266,-0.0465105766278539,0.0257746944179041,0.0441845438544346,1.086999999999989,1.0,0.0564608692862787,-0.0108053874746962,0.9779485742312628,-0.1581095168796665,-0.2022189233217258,-0.3690604408801104,0.9955796108327608,-0.0142619166444476,-0.0494367265729079,0.0785738270257404,1.086999999999989,2.0,0.0564683816860625,0.003542151014766,0.9780177784866416,-0.2187734469370384,-0.387376039374795,-0.2233485138690009,0.996472950265406,-0.0076236245039534,-0.0556833224138547,0.0623129789348472,1.086999999999989,3.0,0.0147868826719051,-0.0344000370044944,0.979111835060192,-0.2679472383852977,-0.0067600653943065,-0.3823444503327002,0.9986940891716584,-0.0359429725582078,-0.0196972477003288,0.0304997936108319,1.086999999999989,4.0,0.0346027962863761,-0.0373748671378985,0.9781859566542488,-0.269734130977195,-0.0222674055231288,-0.3818764677645114,0.9980683839076387,-0.0342680221415631,-0.0321063993602361,0.0406741050623162,1.050000000000182,5.0,0.0583702261619963,0.011230161030727,0.9783924571362054,-0.5019552706913449,-0.0682843891472956,0.0115133021623364,0.9891386937502042,-0.0313227831560215,-0.0465561947850936,0.1358530401155334,1.050000000000182,6.0,0.0650752400431506,-0.0846256462892276,0.9744294295245072,-0.0495478487678824,-0.0943221811541029,-0.3916069603603951,0.9938754635511864,-0.0411654113882013,-0.0488507296918951,0.0901697181138111,1.050000000000182,7.0,0.0477597244992252,0.0545655318328027,0.9764730469662546,0.9970119870166904,0.0034257471582735,2.0217525482156784,0.9797390706019582,0.0704995922052695,-0.0400580990284075,0.1831297620189912,1.050000000000182,8.0,0.0451301395328382,-0.0330851963604389,0.9787454420264432,0.8408823540642436,0.2245073908191296,0.8143934168646083,0.995803951519753,0.0004403919507482,-0.0330302512223512,0.0853422445027286
17,17,1.1610000000000582,0.0,-0.0324736038472609,-0.0433818826500682,0.9778483917821345,-0.1026729853047597,0.2368274334528881,-0.1545536871476243,0.9974506917317028,-0.049988030750712,0.0359530324259007,0.0360651328154429,1.1610000000000582,1.0,0.0679471097842778,-0.0358766270807229,0.9767241462671404,-0.6156863500961149,-0.1547463346130618,-0.9691719289380116,0.9968915915809036,-0.042053849763669,-0.0601743403200495,0.028595054159675,1.1610000000000582,2.0,0.070245043592517,-0.0261824740212579,0.9772113957096548,-0.6544928119673511,-0.1059660205092989,-1.0692122388926026,0.997293834807785,-0.0372904396496927,-0.0629731535168245,0.0069865657702089,1.1610000000000582,3.0,0.0147222679412057,-0.0430487737271456,0.9786700454735784,-0.0650977318658776,0.0678117954850621,-0.5057620323956998,0.999157541861812,-0.0373680042347268,-0.0161960309505831,0.0050524629263802,1.1619999999998072,4.0,0.0326487081417677,-0.0457498239116654,0.9783900119424388,-0.1124263955803251,0.1314402467358121,-0.6394224703132003,0.9989194076712168,-0.0379435785457905,-0.0255146439384746,0.0083249486255327,1.125999999999749,5.0,0.0646101778441194,-0.0129857887333421,0.9775857477530676,-0.3902870782617127,-0.4863999927617521,1.8099909056346333,0.9713080798286684,-0.0481920589392547,-0.0669950985462338,0.2230466235689766,1.125999999999749,6.0,0.0716576377622186,-0.0938061161187398,0.9732500169684334,-0.345737902066745,-0.0405504598507786,0.5460095097071579,0.9901390375689948,-0.0597350392764303,-0.049959418798562,0.1164494218014769,1.125999999999749,7.0,0.0622715354535147,0.1950148670970195,0.9587984446605,2.1813913247977794,-0.5361037049383484,-0.3906243161187416,0.9684880161542098,0.1846806798697739,-0.0396027112421732,0.1623441847150375,1.125999999999749,8.0,0.0651361935941947,-0.0595992917908124,0.9763453286118048,-2.29104317233928,-0.7695437714537917,-0.5260292050592937,0.9888004491613918,-0.1114810684127591,-0.0836918248189781,0.053304048460216
18,18,1.2199999999998,0.0,-0.0484426771308235,-0.0488577993220583,0.977903483211817,-0.1078566120630965,0.2760049993756919,-0.0059632469983017,0.9967775984004142,-0.0534550846510533,0.0482828558927209,0.0352950290960972,1.2199999999998,1.0,0.0844224826990631,-0.0826921520672509,0.9734273739737408,-0.9151088268534308,-0.1864606899908868,-1.145025629724703,0.9932853075427392,-0.0835722110853541,-0.0737701399584827,-0.030950764199557,1.2199999999998,2.0,0.0872711696846974,-0.0792137689354762,0.973365256084735,-0.9895627438052672,-0.2070472393259109,-1.2041547941901138,0.9920685293256092,-0.0826849632886024,-0.0765564588537762,-0.0556986406966584,1.2210000000000036,3.0,0.00820856972729,-0.0482035467161831,0.9786771875685124,-0.0970062906648785,0.1378242793660249,-0.3116136260954556,0.9990736545742522,-0.0407125592301763,-0.0087802043032228,-0.0108272004216676,1.2210000000000036,4.0,0.0305911808779815,-0.0481271842842386,0.9787287437208336,0.037291401463072,-0.0699263499835889,0.5611805565911521,0.9983402903711396,-0.0354028653461152,-0.0270168518314194,0.0365156331462685,1.2019999999997708,5.0,0.0587431318916105,-0.2018050857660037,0.957539530157654,-2.680439543026245,0.208748173177168,1.5765396342726514,0.9382823236519764,-0.1854288396322441,-0.0700749663820229,0.2834288722791759,1.2019999999997708,6.0,0.0600226574580281,-0.127345923721942,0.970134164073754,-0.665519319249336,0.2374311461525581,0.7211850870803238,0.9834168395897828,-0.0957012753750353,-0.0374654880509145,0.1494286542398819,1.2019999999997708,7.0,0.0164670182053617,0.3080221960941482,0.9299490115187836,0.6153811861867807,0.8433108218261584,-1.7687911076315923,0.9742157973815082,0.207729565450843,0.0306947699748507,0.0825217478372042,1.2019999999997708,8.0,0.1190901478261949,-0.2958939667394297,0.9269915302406704,-4.397434154336572,-0.4680682203480595,1.395834941720495,0.9361917164187702,-0.3228181083908954,-0.0911509681224952,0.105000190543318
19,19,1.28,0.0,-0.0120703718685977,-0.0813486749048919,0.976354801910746,-0.4378222942320397,0.482900878665659,0.3258521861113219,0.9935956913037962,-0.0740797255452852,0.0683454649792522,0.0510753747165569,1.28,1.0,0.0761044084976531,-0.078833527328027,0.9756456293020758,-1.720878045680834,-0.7472039749162532,-2.068741685179779,0.9711319190508888,-0.1557961685299149,-0.1192837205054488,-0.1356530268527537,1.28,2.0,0.0783069360824946,-0.0342562709884407,0.9872023762427536,-1.897011036634895,-0.6980875423911198,-1.9253485838750728,0.9677012984741532,-0.1621885267591868,-0.1163353340328845,-0.1539973011925199,1.281,3.0,0.1041378047247345,-0.031289778895292,0.9843786199241616,0.4115058209952361,-0.365531206255256,0.1920166606918049,0.9993433799647112,-0.0179953142654367,-0.0314441519624524,-0.0004928413103685,1.282,4.0,0.1126692352414575,-0.0671037176756656,0.9809835546553314,0.4237875407169645,-0.3965861997160325,2.103742401023738,0.9886973468477728,-0.0160046275448819,-0.0470924086538422,0.1414344840571214,1.2449999999998909,5.0,0.0342183663768002,-0.2947521212725235,0.9336987150081392,-0.1844846575074028,-0.4405531005579207,1.8737672924098183,0.9061813609294156,-0.1891557348723949,-0.0737413330524649,0.370968549702858,1.2460000000000946,6.0,0.0375191130246559,-0.1590964720389122,0.9661980277058188,-0.3952315898562764,0.0604409946892063,1.7705985473065384,0.9650195429480962,-0.116403711038406,-0.0264317610431113,0.2334284039976594,1.2460000000000946,7.0,0.0038371824930772,0.3386747727159578,0.918907870439855,0.1111388757049409,-0.0804610015765689,1.1648950554956865,0.9674546160924568,0.2116517803382288,0.0131541752081294,0.1380654097000734,1.2460000000000946,8.0,0.0867316362126152,-0.3356220118034381,0.9165699583080908,3.5720750822419776,-0.0018958224215533,0.3437816944007336,0.9807071624196212,-0.1282572902499694,-0.0662066230990988,0.1318340325348664
20,20,1.3409999999998945,0.0,-0.0427594970936001,-0.0603230320253858,0.9774035794980324,-0.1525667089467374,0.2024721829871946,0.0102993769147736,0.9929371909214622,-0.0779390635551111,0.0732628784748452,0.0513204432436832,1.3409999999998945,1.0,0.0956452598935764,-0.1198816655543643,0.9679511199042036,-0.8538223626326745,-0.0388328216846036,-1.3729580378727184,0.9544621454233992,-0.1796580690329254,-0.1197106467298306,-0.2058988884007107,1.3409999999998945,2.0,0.1035101894481867,-0.1310306170217087,0.9646297829132744,-1.0703670992584355,-0.1170584472163676,-1.3314642345287664,0.9473717040431312,-0.197120630316456,-0.1192726898724954,-0.2222708638860179,1.3409999999998945,3.0,0.0009394927846553,-0.0527913392542436,0.9790128660303964,-0.0676325013263641,0.1857340089123625,-0.0611362772790035,0.9995642249646948,-0.0221674925296478,-0.0191310658133615,-0.0037369461491653,1.3420000000000982,4.0,0.0248353437768668,-0.0435590624759469,0.9787797575428812,0.0323834082235701,0.0469041431661027,0.8700860368534425,0.981909710558342,-0.0171982614034182,-0.0406563608785781,0.1841320190408054,1.321,5.0,0.0602512776970298,-0.2372980073652153,0.963620485064724,1.3398717447125177,-1.211681615199517,2.4503730693937142,0.8630117302662093,-0.1079257498839371,-0.0872769203201573,0.4857422414350457,1.321,6.0,0.1320962358017179,-0.0198678564114915,1.0139846412883329,0.5514708670313385,-0.9599608505892914,3.837422418769465,0.9083964353897556,-0.072072687800598,-0.0529173843607723,0.4084375035140595,1.321,7.0,0.0314218666315804,0.329628045919469,0.9200222919259616,-3.1679011512206543,-2.714479773160359,13.456847857429755,0.7765787098845214,0.0778053865394567,-0.1656032588349263,0.6028659800011862,1.321,8.0,0.012548719863056,-0.4435366405814386,1.012878461658421,19.11529051703203,-2.9243426815483127,-9.525536698224398,0.6303152369161336,0.5554974328152763,0.2059731347283742,-0.5016974905430193
21,21,1.3849999999997635,0.0,-0.0425455415684618,-0.0735665955973819,0.9755161879255808,-0.1272375535507566,0.243852968743927,0.0097514846778738,0.9922013751194272,-0.0809386781685982,0.0797590804990638,0.0512235362444045,1.3849999999997635,1.0,0.1090536153363223,-0.145231697878992,0.9626983239381186,-0.7851038126735443,-0.069329135601417,-1.2048747560436677,0.9353065910081422,-0.2003591829422789,-0.118987019990017,-0.2662702906847207,1.3859999999999673,2.0,0.1259925302922643,-0.1888908411760724,0.9529790828923524,-0.952393077030984,-0.1860493652592549,-1.0451089405339755,0.9262117085627564,-0.2282433021965595,-0.1215456430008776,-0.2743419810950799,1.3859999999999673,3.0,-0.0166578862162703,-0.0511193385537441,0.9782802911500534,0.0910895937117328,0.2815299904970553,-0.1606113876353559,0.9997676476589188,-0.0177950546654787,-0.0024446794504873,-0.0119168060481286,1.3859999999999673,4.0,0.0281716166970731,-0.0295129572526345,0.9795388432149472,0.3992999744141942,-0.1986808664397942,1.5241043429279395,0.9651053362832628,0.0013448181262807,-0.044227974342893,0.2580964308689715,1.3960000000001855,5.0,0.02427929474939,-0.3278660228197375,0.9236148477189176,-0.357576278212888,-0.2685899074988151,1.202897868879973,0.829547310755186,-0.1246485125062542,-0.100278120778869,0.5350311262364795,1.3960000000001855,6.0,0.0113622354005782,-0.1942824514309943,0.9592868333677184,-0.517477479910764,0.0678837091460397,1.5248116266937646,0.8738260413473086,-0.1015613884493997,-0.0520371543478678,0.4726578767003656,1.3960000000001855,7.0,0.0860788946490014,0.3023189414348943,0.9283182005894804,-1.147984392153135,-0.8427750847499651,3.735374556831249,0.6653857814945787,0.0395266837340015,-0.2160766320411772,0.7134495722499122,1.3960000000001855,8.0,0.0976410157462288,0.0386189819361355,0.97473063267667,5.819333705683217,-0.3262313471429027,0.0972738949235481,0.5023309873774112,0.6662185699644431,0.0372730656942768,-0.5499337366708082
22,22,1.4639999999999418,0.0,-0.0424721264316764,-0.0785400454764901,0.9743939550987178,0.0082755386216422,0.2830821390101685,-0.0259975489620796,0.9919391897609744,-0.0774129583889005,0.087749247161508,0.0486204413020721,1.4639999999999418,1.0,0.1253147040081461,-0.1793479138396954,0.95544154753742,-0.6880080804550287,-0.1099896671839035,-1.0874503032648168,0.9148065272871232,-0.2174726037476039,-0.1186931391221263,-0.3189774646859042,1.4650000000001455,2.0,0.1564342092420043,-0.2361194640730209,0.9383927412681208,-0.8107732570625836,-0.1486320825093087,-1.1281863627562272,0.9021331229223476,-0.2511196556016329,-0.1236768518107225,-0.3283272505033324,1.4650000000001455,3.0,-0.0348080492798978,-0.0378849952137921,0.97762934021181,0.1354249616808295,0.3142840892676212,-0.3069797371786728,0.99944931787557,-0.010933233814833,0.0150565710905527,-0.0274740798463439,1.4650000000001455,4.0,0.0346931694989879,-0.0007145369207553,0.9791919492250248,0.4701159773927991,-0.0365444385716531,1.047668171067052,0.9502192658209304,0.0221098279999378,-0.0383379523460228,0.3084229300464857,1.429000000000087,5.0,0.0157070419380489,-0.3577742770053515,0.9121687648384232,-0.6061588937411276,-0.0067838076484449,0.5286911917434743,0.8109838869175142,-0.1543121286958573,-0.1134288939635055,0.5528352269091842,1.429000000000087,6.0,-0.0082269957875224,-0.2325663873758366,0.9512492796335058,-0.6624486609219167,0.1231295654734473,0.7037372962889582,0.8536562370810832,-0.1350767868555649,-0.0577684912558513,0.4996879946160047,1.429000000000087,7.0,0.1761981448396072,0.2572964163650915,0.9290203269470276,1.3428913272361456,-1.1605228041751536,0.8540820810763091,0.6257126793181406,0.1243857536277105,-0.1867887848100848,0.7470754828691356,1.429000000000087,8.0,0.0881554166726661,0.1837820133222932,0.9582164651530848,1.0693795167031093,0.8944082682331094,-1.4867098145408657,0.4508659520522391,0.6780955502271367,0.0707493246381551,-0.5761083675016617
23,23,1.4960000000000946,0.0,-0.0547830716397859,-0.0738587565798318,0.9751193255895358,0.1547649604749393,0.3057933848587207,-0.1439703036947111,0.9922521419582538,-0.0672905115398216,0.0966825725644294,0.0394987847697935,1.4960000000000946,1.0,0.1440589677440714,-0.1968052183573385,0.9497061228821436,-0.448825440162029,-0.0610408174778836,-0.9496777637144846,0.896729138366658,-0.2233439502909997,-0.116993899684328,-0.3637399616611514,1.4960000000000946,2.0,0.1763344945584431,-0.2597097602265238,0.9276933687765048,-0.5664295153310774,0.010007756397073,-1.2398126967125285,0.8769218556115458,-0.2587969682818619,-0.1219908766722538,-0.386199966814674,1.4960000000000946,3.0,-0.0607891503768617,-0.0337657261098695,0.9777476949278542,-0.0326856441238416,0.5214936415325917,-0.5304821611963287,0.9975500344100552,-0.0127822498275999,0.0424022319628796,-0.0541534270606076,1.4969999999998436,4.0,0.0250321443221891,0.0227942598707885,0.9792245980711348,0.2967600209142625,0.2681532642210413,0.0144384202620284,0.9501262387280582,0.0313324628095562,-0.0180639901989696,0.3097613589730846,1.5300000000002,5.0,0.0033089933075761,-0.3826449252117876,0.9021318705006246,-0.2868251919512165,-0.113412026845128,0.8004883536122284,0.785669755311191,-0.1678575827855289,-0.1191185297507753,0.5834017855309204,1.5300000000002,6.0,-0.0367424035653552,-0.2815150944817085,0.938253295949018,-0.8945103772654713,0.2534007158274799,1.1557733295894037,0.8187295927542688,-0.1812111807886019,-0.0591225949219613,0.5416169132101799,1.530999999999949,7.0,0.2394763194988988,0.3219853841679719,0.8946661415195416,0.8450842502921115,-0.4146185832198056,-0.4582011901643213,0.6392201122734692,0.1797280532308992,-0.1424491432299833,0.7340325037353373,1.530999999999949,8.0,0.0525538265582637,0.2663441110140752,0.9414228114095206,1.2556503811654542,-0.1946845520251309,-1.6302851135539536,0.3890853758533442,0.6592378283451891,0.0742818954702077,-0.6391402475052984
24,24,1.606999999999971,0.0,-0.0750269800333464,-0.0564683323657967,0.9742490850428864,0.373983555387919,0.3123238209685871,-0.1644803833825697,0.9928097643913644,-0.0464456656280474,0.1065988544099809,0.0284298454447261,1.6080000000001746,1.0,0.1516665575618921,-0.208936558100194,0.9452390015263704,-0.2159485363360488,0.0918240351561418,-0.577747291621271,0.8872165657310243,-0.2186589626984986,-0.1071449616199972,-0.3918609201279363,1.6080000000001746,2.0,0.1866097699025619,-0.269287125878915,0.9242738975070032,-0.2066811578071465,0.3003896701926715,-0.8950840085287914,0.8617876421905726,-0.2473488108646945,-0.1076301113674998,-0.4296002614739133,1.6089999999999236,3.0,-0.0989788453177508,-0.041965874526498,0.9741001250152834,-0.1268576432032294,0.6421870874936679,-0.2843336574216903,0.9946404150764776,-0.0185338568606832,0.075315338688909,-0.0683706121409987,1.6089999999999236,4.0,-0.0134229430535461,0.032130230544021,0.9794388561237344,0.0816938975459208,0.7307043410871746,-0.3930397908969769,0.956085387303032,0.022471921194071,0.0215687147743455,0.2914284397351119,1.5599999999999454,5.0,-0.0189604030223226,-0.4006404669587752,0.8932304962059263,-0.190478126751283,-0.0460737129339257,1.1089252629289308,0.7511110019212589,-0.1808002764894258,-0.1161453246691693,0.6242225455490078,1.5599999999999454,6.0,-0.0981630104808206,-0.3502999553209779,0.909580103495818,-1.1547873098606132,0.7236880930067985,1.2030691934134103,0.7770975641056289,-0.2489247788218586,-0.0470962470935079,0.5761404115832306,1.5599999999999454,7.0,0.1840821666520823,0.3655017883389653,0.8908177134754858,-0.3709674403269286,0.7555067550918824,-1.3525468672409982,0.7025321499706735,0.1521423578914912,-0.0981409315717071,0.6882366153751469,1.5599999999999454,8.0,0.0913318557535369,0.2952976749975134,0.9298057728717746,0.2157290971763785,-0.245511134544674,2.5783793535810258,0.489227526626299,0.6295210147185576,-0.0393685633058495,-0.6023369783120284
25,25,1.6269999999999527,0.0,-0.0863387081677576,-0.0262050624903492,0.975725331316042,0.5544487833249265,0.0382637240286865,-0.2553891846660261,0.9944792392807922,-0.0170997121934151,0.1027455840258305,0.0127274288679988,1.6269999999999527,1.0,0.1333447253758081,-0.2077336039134618,0.948825555104612,0.0850752559829519,0.5924048835105796,-0.3555918096659749,0.8868682232659489,-0.1921601068409026,-0.0774560346716783,-0.4129646602227989,1.6269999999999527,2.0,0.1692102029163969,-0.2648525787185313,0.9285854935196524,0.0279214489048628,0.6395828469182719,-0.5844091392403027,0.8557300682828566,-0.2207833663060138,-0.07869349681274,-0.4612895933777232,1.6280000000001564,3.0,-0.1361740475386353,-0.0584089329924913,0.9687017215446788,-0.3629993161002682,0.6031460151878759,0.056621699159786,0.9916318976071056,-0.034891549433186,0.1061391589977085,-0.0646779587923244,1.6280000000001564,4.0,-0.0743401865178239,0.0171388768983356,0.976549433242966,-0.4012407214984843,1.0858694454200757,-0.6405685406223492,0.9628696303892909,-0.0158928913089448,0.069201567445069,0.2604623464974893,1.6109999999998763,5.0,-0.0491606556277215,-0.3928071959031288,0.896777975189497,0.2607850377471438,0.255017042550775,0.4296243951468276,0.7415918805626452,-0.1808762645299312,-0.0941556089208482,0.6391087395130833,1.6109999999998763,6.0,-0.1742415699764293,-0.420652829651949,0.8681129374672152,-1.320327373348481,1.0273686964817133,0.4815187113022252,0.7492106071278619,-0.3272832295831628,-0.039729045479327,0.5744482193775318,1.6109999999998763,7.0,0.1538337153103045,0.3296262035239634,0.9104129579395313,-0.3438067572489017,0.7075410319895571,0.6707431827914091,0.6881555826098338,0.1154282501924643,-0.0745453496098903,0.7124332979528437,1.6109999999998763,8.0,0.1151798560365957,0.2462736401967321,0.9410270426016668,-1.1812193697910454,0.342213060944892,0.2355432609641482,0.5603585179913544,0.5692794345909326,-0.0106511901643603,-0.601502958275721
26,26,1.7460000000000946,0.0,-0.0848398825572099,0.0121679089778344,0.976851644989548,0.7499064564075596,-0.0273859478276942,-0.2843234858748359,0.9951316477743182,0.0210506966910327,0.0961429671824213,-0.0051382514683758,1.7460000000000946,1.0,0.0869429300708094,-0.1785992307001008,0.9599188724595608,0.7249624551147928,0.8173804421630019,0.3737423173130022,0.9058113821996296,-0.1347089591346943,-0.0452512351362009,-0.3991385247318177,1.7469999999998436,2.0,0.1230346288471497,-0.2378339404197259,0.9431391715377272,0.5553320595786977,0.8395274367922687,-0.1453844199749284,0.863663912957208,-0.1685576376035558,-0.0485724948416959,-0.4725607696432343,1.7469999999998436,3.0,-0.1592728045315532,-0.0689958389724512,0.96430117076624,-0.1103351649248556,0.2388136423956356,0.4763499619618607,0.9916245914815208,-0.0365569566179491,0.1169337885277987,-0.0408747794180748,1.7469999999998436,4.0,-0.1287465882332809,-0.0143576762917767,0.971172576399164,-0.4598680199656325,0.9242202872155952,-0.8374009521355607,0.9684990016981,-0.0538799908850292,0.1048355980726245,0.2193538868330527,1.6709999999998215,5.0,-0.05498922369958,-0.3622271181276378,0.9093034148016074,1.06288140726429,0.7491230126685618,-2.6363004236010297,0.8376224816072271,-0.1454487895028792,-0.0486596694726607,0.524276133831313,1.6709999999998215,6.0,-0.2398917954661465,-0.5229122649746835,0.7932059566134605,-2.744202823020701,1.4227878978435209,-2.429259416255239,0.768941585376057,-0.4620088873618647,-0.1214560555179975,0.4248823988541031,1.6709999999998215,7.0,0.1066611019846088,0.2658316902597604,0.9374315557826436,-1.428533613663197,0.7015971986074193,-0.848486728658478,0.7309656662060747,0.0439662469869863,-0.0847684655682176,0.6756999860877596,1.6709999999998215,8.0,0.0563500915615591,0.1432373646028001,0.9680933449635156,-1.9062253484563485,0.5034458482782196,-1.8672118265758528,0.5785952403861635,0.4918269035807807,0.1017214722020649,-0.6426403246059678
27,27,1.775000000000091,0.0,-0.0803651299660118,0.04549083261871,0.9756029059167478,0.2813975677225296,-0.13221008484311,-0.0642629339481065,0.9957986887364412,0.0349518232047995,0.0840802036804569,-0.0096881842724914,1.775000000000091,1.0,0.0177887876705544,-0.1160824841957928,0.973236567282665,1.1333423157706213,0.8074611182124698,2.3661861567045266,0.9567158477120606,-0.0610341816406994,-0.015132334756766,-0.2841489536367371,1.775000000000091,2.0,0.0642678421953277,-0.1810289695587231,0.9615961504914958,1.38475445807472,0.9782519320902756,0.8441545315186003,0.8968286734224706,-0.0778725501477288,-0.0274478140463412,-0.4346042038048624,1.775000000000091,3.0,-0.1771017379253576,-0.0846903844671925,0.9595251498541436,-0.3841447626370944,0.2193060460334547,-0.1328149990915319,0.9894147442663828,-0.0561818917779382,0.1257436931421327,-0.0457228881362248,1.775000000000091,4.0,-0.1685077554243887,-0.0372393597893091,0.9646550504943808,-0.5286057048432956,0.9934908055207168,-3.7417746089002746,0.9860569327601022,-0.1073839249297819,0.123701903944602,0.0292960233290273,1.7550000000001091,5.0,0.0127294621029561,-0.1412394018767833,0.9702099732285058,4.407676700778952,-0.5594610982855768,-3.708661684490975,0.9409428810623892,0.0982691588909151,0.0571122800338768,0.3189166888988634,1.7550000000001091,6.0,-0.213199330529911,-0.6926615926250228,0.6593079428944904,-1.829438834082133,2.0761694472762136,-2.4035507062281503,0.7822502512101023,-0.5495887208648702,-0.1394289733970886,0.2580626740876747,1.7550000000001091,7.0,0.0361966876669604,0.1868220271704609,0.9616232786106312,-1.2989491831567337,0.4963079373991551,-2.815168320061681,0.8297470919120822,-0.0097547729965909,-0.0951286629136421,0.54988648406693,1.7550000000001091,8.0,0.0070122208207004,-0.0236661397524189,0.9781925897226889,-2.5045709819512214,0.3335458168014469,-3.1143959039549265,0.5523320579705484,0.3804019478460941,0.2444183681801739,-0.7003451414188987
28,28,1.8359999999997847,0.0,-0.0633047277341191,0.0519931298905654,0.976417034822054,0.009444704022564,-0.3381584660634718,-0.0141435255993462,0.9974223369842488,0.0343838388695498,0.0620280694591587,-0.0109065076281229,1.836999999999989,1.0,-0.0334779406873199,-0.025309276931286,0.9792321828803175,1.9199358724337985,0.429940871944342,3.1613787382014613,0.9916327090124942,0.0442655058368604,-0.0237235228272341,-0.1189215282201456,1.8380000000001928,2.0,-0.0058613838311513,-0.0666856018940358,0.9777666770143142,2.0519780872921904,0.7926075537640561,1.9094573955650755,0.940568198654645,0.0386321823831067,-0.0331883557982919,-0.3357641303106696,1.8389999999999416,3.0,-0.1751761763405356,-0.099733313474423,0.9594751551896078,-0.5535609592242767,-0.2589987357137607,1.2524392764483523,0.9902729093660138,-0.0752540760104121,0.1152129510999576,0.0205515186404545,1.8389999999999416,4.0,-0.168450692797795,-0.0925091159537632,0.9608800276628692,-1.0294784720060668,-0.2890290328678722,1.184455473201179,0.9785131962616525,-0.1440486035255494,0.1123894444946733,0.0955538451885766,1.836999999999989,5.0,-0.0217307316498636,0.1147448069063972,0.9727751048366604,2.795639990515777,1.453482533571829,-4.525657368746822,0.956914608682892,0.1887948909934861,0.2072669192701586,0.0755734411038853,1.836999999999989,6.0,-0.3037395948372133,-0.6968009559183378,0.6186345337591621,0.3747251181107437,0.6876041592409418,-0.6661614388755644,0.8119644864146083,-0.5272584485461453,-0.1106451159234625,0.224654978935382,1.8380000000001928,7.0,-0.0234523234268172,0.1042282530133952,0.974361565231131,-0.3750667795470647,0.4496058265457645,-5.17580785640683,0.9544993296559776,-0.0092465309684966,-0.0699944082591619,0.2897349032543151,1.8380000000001928,8.0,0.0158716169414879,-0.1523606728182054,0.9675517129094684,-1.8647650640153783,-0.1357907489791694,0.2107803414653839,0.6067179451529987,0.2876019911245069,0.2865299720274203,-0.6834317850821013
29,29,1.8949999999999816,0.0,-0.0495855240576875,0.0514370530246898,0.9771056776930832,-0.0049673745477315,-0.1369452016858471,0.097865804074458,0.9980977328921335,0.0335789570286327,0.0513353901791312,-0.0061682214299238,1.8949999999999816,1.0,-0.0210934272032177,0.1156890858334281,0.972900869949168,1.9382625141223204,-0.3667037611872397,1.0221316268932312,0.9866847689911996,0.1378036925903075,-0.057416574094135,-0.0645495621096825,1.8949999999999816,2.0,-0.0416187948823544,0.0949520229862021,0.974994353441787,2.491372171371005,0.2691444857709603,2.184572702420242,0.9605310581289954,0.1600815000708677,-0.0748219947948549,-0.214838704147023,1.896000000000185,3.0,-0.1608964813780637,-0.125152675288907,0.9570366399193856,-0.6726376900773385,-0.460866194663641,1.6160300282377755,0.9849886859094796,-0.0973926102267442,0.0958470732415435,0.1054765692206969,1.896000000000185,4.0,-0.1370848959527162,-0.1416374999996319,0.9601127797792752,-0.9730536627691966,-0.6494365089117067,1.1019996676525765,0.9683097975918624,-0.1750794835458728,0.0807648981037417,0.1587461544832168,1.905999999999949,5.0,-0.1153599143086473,0.241902598775713,0.94241934555497,1.65419889500894,0.0956141199474379,2.050842770789012,0.9310105568691316,0.278955048665461,0.1749581129366607,0.157458192990782,1.905999999999949,6.0,-0.2500652569701892,-0.6936200932091974,0.6458548858318696,2.1001987578037,0.0805996568142261,-0.6823353329560241,0.8790333506373009,-0.4191972114972754,-0.0871570878847737,0.2097086273182734,1.905999999999949,7.0,-0.0294195482568459,0.0040305973928837,0.9780793651156432,-2.346462266833143,-0.3042074301295443,-2.337793064435238,0.9735358533725396,-0.1101522498221782,-0.1216888084534544,0.1590165335884684,1.905999999999949,8.0,0.0082576500672674,-0.2556016881996091,0.9454763816219188,-0.4409419312584784,-0.5625247421500901,1.714427874733114,0.6856283776853624,0.2459499287174387,0.2436063069084593,-0.6403735843324944
30,30,2.000999999999749,0.0,-0.0446830333340193,0.0437210572177435,0.9777606535793072,-0.1870657818314074,0.0056069863771492,0.2633839241995212,0.9985118265290958,0.0238014539232974,0.04849010481927,0.0075055184552372,2.000999999999749,1.0,-0.0006567454329324,0.2342079795398838,0.951115235397521,1.6112965117898244,-0.2647565467808385,-0.0066734102536995,0.9724909107082892,0.2132090810481757,-0.0703158795180928,-0.0621207971290763,2.000999999999749,2.0,-0.0823127529689874,0.2179123826167383,0.9519563037245792,1.9193425751193207,0.9538295153495931,0.1582138822502223,0.9468174802166476,0.2558027470977476,-0.0427881409265338,-0.1904489136999602,2.000999999999749,3.0,-0.1457134864021242,-0.1536516122538716,0.9559020671242028,-0.626307676508358,-0.4485437257044653,1.1764183539077158,0.9758621059966868,-0.1186343706600025,0.0744665394372069,0.1675522923808058,2.000999999999749,4.0,-0.1224539296807535,-0.1962294662454145,0.9521974751503915,-1.1140853992963071,-0.3428255440864503,0.5475046399126812,0.9554093500105432,-0.2166830947026178,0.0579488117086386,0.1920503725695015,2.0,5.0,-0.0720357590331939,0.3494987528753165,0.9124179257111896,0.6629803390061327,-0.8681235480762922,0.8339820823330936,0.925437967621796,0.3129544887891174,0.1163014649516034,0.1791592176833011,2.0,6.0,-0.2342042733250084,-0.5137614828137551,0.8012006597184731,4.507569696776876,0.179709017164991,-0.9011603026902476,0.9681956643780602,-0.1778140173418161,-0.0273205854682932,0.1738761522635029,2.0019999999999527,7.0,-0.0459495918164586,-0.1898318763883093,0.9602720935853516,-2.5562099420553,0.8006079836152351,-2.028443673476016,0.9672662380789416,-0.2253200112908521,-0.1112348118425155,0.0354081038586185,2.0019999999999527,8.0,0.0461063666278838,-0.2438591527573284,0.94708495742085,-0.2841281483058342,-0.3684912749588537,-1.886273413923096,0.6390047820772065,0.172125906921303,0.2442748423997442,-0.7087844256327596
31,31,2.0549999999998363,0.0,-0.0529813545531841,0.0370458744181665,0.9765037528132204,-0.2663802347630926,0.2231559662850805,0.3570727844672858,0.997959358335206,0.0107774444760613,0.0571952668890245,0.0262615164688351,2.05600000000004,1.0,0.0156854814508354,0.3058117115898008,0.931119306386766,1.0553520189339245,-0.2601585486713551,0.2306701215904971,0.9615335769230964,0.2566268986356457,-0.0839053620893613,-0.050553986576522,2.05600000000004,2.0,-0.0888947292414699,0.3365056414504778,0.9149790600801134,1.5842348122133485,0.0177110124049947,1.3285827986573997,0.9369754240109576,0.3189151206324805,-0.0727563349067786,-0.1227872809471292,2.05600000000004,3.0,-0.1308897578508694,-0.1756824687283296,0.9549542090965724,-0.5781037007239637,-0.4710343760176659,1.3659072283734914,0.960443816472982,-0.1352449230059502,0.05374913041552,0.2374184432168294,2.05600000000004,4.0,-0.1023292813049128,-0.2582987793585612,0.9399337523301826,-0.901188224484982,-0.5119552331925021,0.5294876881197861,0.9426709949993765,-0.2450416014502919,0.0284511592723636,0.2247588491731091,2.025000000000091,5.0,-0.0637732877567991,0.3165874430768202,0.9254784485090776,-0.5908940301108822,-1.4883214514422984,-0.3198591387637918,0.948485675593161,0.2797560499437724,0.0394013431528611,0.143384133962558,2.025000000000091,6.0,-0.2091328956076754,-0.1893675732450492,0.937659508658676,5.529735026379601,0.3709973143664207,-1.2204325800894602,0.9879108090419966,0.1071276221334537,0.0551447663085215,0.0975446600424561,2.025000000000091,7.0,-0.0503961102521561,-0.3622254070030278,0.9091770930863488,-0.9031586899164916,1.417224702441168,-2.455177730188738,0.9604417000960884,-0.2517938537780854,-0.0620058220274677,-0.1015227755275308,2.025000000000091,8.0,0.1279167930489901,-0.3037423270055536,0.9226911145347142,-1.5385094861902373,-0.0420332079772252,-4.998903818707168,0.4839728574284015,0.0454975316930275,0.3030565703325394,-0.8196688130340868
32,32,2.1349999999997635,0.0,-0.0677794803253173,0.0186702062496897,0.977665773894854,-0.2163316771700044,0.2200565999222176,0.325403829708165,0.9969071850340552,0.0004172683708798,0.0656281427381115,0.0432300496799236,2.1349999999997635,1.0,0.0310577422501707,0.3362941457708561,0.9199606862070642,0.1623276865207531,-0.2366190527154459,-0.2558975819787453,0.9603192474158032,0.2566932877794931,-0.0867362908656488,-0.0661234822023867,2.135999999999968,2.0,-0.0775655349596525,0.4031348874393354,0.8896178113750295,0.4827674899900209,0.008587237389638,-0.1451221797373463,0.9320299004963004,0.3319509995859923,-0.0648966818415247,-0.1300662106032022,2.135999999999968,3.0,-0.1214294273562891,-0.2076256064174229,0.949649673159382,-0.591634678354398,-0.3987971504803413,1.1341632774571486,0.9426102652720268,-0.1534670533862662,0.0347240544056342,0.2944961652965467,2.135999999999968,4.0,-0.0918573268253333,-0.3134396651132357,0.923568518217358,-0.94988568925892,-0.4841560475638882,1.1228426194153591,0.9190528408742652,-0.2737920043971967,0.0090058989821229,0.2833702662465337,2.099999999999909,5.0,-0.1558652483352489,0.1252754788223595,0.9591355893549252,-5.548246843875304,3.0054869675313864,-3.9828925017935792,0.9876836314476802,-0.0615961665080069,0.1395652719493648,-0.0347633615684793,2.1010000000001128,6.0,-0.2195590268784358,0.1355763717787012,0.9446400802059576,5.356059600904048,1.221402410241924,-1.3010167859501207,0.9268903389717148,0.3377649611732717,0.1632549113690914,0.011703180695348,2.1010000000001128,7.0,-0.0228757361384952,-0.4164181045802428,0.8863783971159946,-0.8984172630963101,-0.7105651559331566,-0.6937633183101372,0.9436356875094216,-0.2918682760012516,-0.0918640221950954,-0.1261966724950295,2.1010000000001128,8.0,0.1964612406559072,-0.3510548755577827,0.8930064139002875,-1.3641279765725902,-0.8189484970638597,-0.51249572906159,0.4777962728001387,-0.0493600295997666,0.3215563731325387,-0.816012137210013
33,33,2.15099999999984,0.0,-0.0717545379207628,0.0054141692501235,0.9764507018068596,-0.2656382729441192,-0.1784645617699532,0.0788108350008163,0.9973494629074816,-0.0121097126922586,0.0533065313071908,0.0480189276917405,2.15099999999984,1.0,0.0468139904200853,0.3346489906947033,0.9201453707583191,-0.0828309754102268,-0.2273575687272273,0.2047135778201165,0.9635773497005468,0.242615238173264,-0.0949926451368293,-0.0602738311384683,2.15099999999984,2.0,-0.0738874732803268,0.3921481228658661,0.8948868593431388,-0.4601357669884359,-0.3824828231267097,-0.2454611380328305,0.9404710148322316,0.2963535809181566,-0.0692988529251614,-0.1512828289022743,2.15099999999984,3.0,-0.1165101197079412,-0.2212160134211761,0.9478886366085856,-0.2345148219001932,-0.2843811944027982,1.3593725581832576,0.91997591862937,-0.154782647944853,0.0275578063332382,0.3590643512621739,2.152000000000044,4.0,-0.088507948543344,-0.3504575148181227,0.9114251880171812,-0.67912031278312,-0.4474367820437211,1.1651717183972077,0.8943721897966165,-0.2885541428183704,-0.0055044809982333,0.3417668700586709,2.221000000000004,5.0,-0.2815739030579978,-0.0216431455128536,0.9372666170140672,0.3283445521949863,2.270159332026542,-4.010752732557025,0.9425059587428376,-0.0628930663136259,0.2305617163866223,-0.2335985335586859,2.221000000000004,6.0,-0.2092762863915286,0.2688323375310233,0.9186379103062188,1.1001317397559156,-0.6986042598658667,1.1892650250009322,0.918453720711498,0.3790054918707692,0.1039726665915061,0.044578970881503,2.221000000000004,7.0,0.0127295736543848,-0.4475905894977561,0.8718684660816841,-0.1942292690135589,0.0583453275644896,-0.5465902673236047,0.94037156784215,-0.2925753395752425,-0.0850944415545621,-0.1511949770430412,2.2219999999997526,8.0,0.2826196572399941,-0.4490531787744366,0.8238539749094629,-1.720177986630657,-1.2274258031333494,-0.2536915670018743,0.4803729965080626,-0.163701288139405,0.3441881640051768,-0.7899228951271826
34,34,2.224999999999909,0.0,-0.0396634441126558,-0.009809475533271,0.9782952444895582,-0.2310041585573714,-0.7908603908018904,-0.0822707290714046,0.9987167451924328,-0.0213426376655879,0.0097889626888683,0.0448723845943688,2.2260000000001128,1.0,0.0781398700290178,0.3020010221774957,0.9294081683069052,-0.692383130866121,-0.5661913022509001,0.3554142580948987,0.9717541747771782,0.1964255846892282,-0.1193956830187466,-0.0534367323019199,2.2260000000001128,2.0,-0.0467103439390228,0.3505737462837014,0.9137276356692456,-0.8417924085168111,-0.7061304508798387,-0.0826071000570229,0.951784807949834,0.2396456571545364,-0.0894027363705101,-0.1693599394553894,2.2260000000001128,3.0,-0.1141048127109549,-0.2104787014941323,0.9501077875344156,0.3047961455474847,-0.3543166764832323,0.8208655883578496,0.907839216655977,-0.1301075361194605,0.0210797786464168,0.3980648548648866,2.2260000000001128,4.0,-0.0922811464589451,-0.3693523284732225,0.9035037617296516,-0.2273483712130324,-0.279056996226509,1.1128111208455025,0.8736803034676465,-0.2848547004399851,-0.0073257504469234,0.3943182221890295,2.257999999999811,5.0,-0.2816505162209993,-0.0228829647194749,0.9379426190541146,0.8768184517164266,-1.416122118116121,0.9599969567447832,0.9712948797765724,-0.016877423408272,0.1426773333303403,-0.1895905790187229,2.257999999999811,6.0,-0.1526592306171964,0.2350932989942574,0.9384920351688456,-2.191613336312425,-1.149786665746055,0.8194898835312191,0.9648989068215916,0.251529863127542,0.0300774199162882,0.0692688702139488,2.257999999999811,7.0,-0.0073999719470491,-0.4216292689742978,0.8845496028823833,1.4747338542611843,1.1227282263963898,0.7253993062244632,0.9704892984417012,-0.2068060717493611,-0.0223313961481998,-0.1219962255309769,2.2590000000000146,8.0,0.3046665211449089,-0.6764178515471905,0.6394624312668741,-5.541461949184675,-2.11763034918152,2.4467586042626954,0.5529425254955449,-0.3710150243329638,0.529843281488522,-0.5252318652550452
35,35,2.331000000000131,0.0,0.0035863441299773,-0.036396808216653,0.9795480644090014,-0.6067636912671441,-0.4335545887389153,-0.3362026663969081,0.9981933890359984,-0.0505130723877556,-0.0153124904938883,0.0287039237326868,2.331000000000131,1.0,0.0810605412186256,0.2347347598294428,0.9473725672538535,-1.3164881183883783,0.4944013087585854,0.0334432720031222,0.9871426939811944,0.1241767582851556,-0.084357910052609,-0.054892416897926,2.331000000000131,2.0,0.0497980455476208,0.2704493470020294,0.940056543706714,-1.7763070714598947,-2.0372040326155565,0.2615621897938284,0.9602578116091968,0.1233764178368432,-0.1692263829384548,-0.1845145687549692,2.331000000000131,3.0,-0.0761883693355964,-0.1557480760639518,0.9641399634805936,0.9031411462994332,-0.6501543343122211,-0.7624089959769993,0.9285911425726364,-0.0716602589719229,0.0042971417419048,0.3640945368892158,2.331000000000131,4.0,-0.0956620245401555,-0.3445932033718255,0.9120802054922704,0.8938184549930008,-0.1737312897786401,0.1811492691472438,0.8848997340999187,-0.2317015184345578,0.002728381097699,0.4040537376161725,2.33199999999988,5.0,-0.1515074456019631,0.1372576471813164,0.9579367579425154,3.5546946934475447,-1.8447829600645511,1.2874855295482852,0.9779740411073492,0.1592263428990086,-0.0021383797871106,-0.1349413723772443,2.33199999999988,6.0,-0.0764176669901756,-0.0391129811305717,0.9759638901510946,-5.021834836315646,-1.0782383731013427,0.57051590626038,0.9952564868892356,-0.0296628167690597,-0.0401706183172526,0.0834922992271241,2.33199999999988,7.0,-0.109248010081587,-0.2227754844736003,0.9477409750616286,4.53676288239861,1.1079147576904866,-0.0741470581875718,0.9918552012724344,0.0404256183613732,0.0148789424439032,-0.1198651165296656,2.33199999999988,8.0,0.2298194697154245,-0.9339916622621208,0.1852932437099668,-3.721821461647055,-0.1599261132088727,-2.2172862606349715,0.4254091756802524,-0.5295888903508089,0.5579428036323306,-0.4767205348408452
36,36,2.3899999999998727,0.0,0.0208185632585045,-0.0611003472681585,0.9778789981319578,0.0177698756720351,-0.1969722483405047,-0.6179935974178519,0.9985559092135148,-0.0468806304040807,-0.0261825435241738,-0.0016664580078098,2.3899999999998727,1.0,0.0787040271576993,0.164685717527349,0.9630115734256066,-1.3615552562067148,-0.4787320653473432,-0.230492926191078,0.990867308409222,0.051802118690787,-0.0996012799930557,-0.074686696598217,2.3899999999998727,2.0,0.0879377975815352,0.1581863868322401,0.9628904458854444,-1.3398504588054638,0.5017590182384577,-0.7449247496627803,0.9644320124998964,0.0640062080684838,-0.1189596661457044,-0.2272062860587179,2.3899999999998727,3.0,-0.0466580298073001,-0.118753437858649,0.9712361449468678,0.9209195771788437,-0.1021451652435113,-2.722855462380549,0.9732708056826218,-0.0243205667176548,0.012153030291779,0.2280455057552319,2.3899999999998727,4.0,-0.0723712320628044,-0.2455698310860314,0.945545272755403,2.050305626723099,0.0301399864106011,-1.7476842120011302,0.9402235367900992,-0.1242836881706337,0.0321062346998198,0.3154400979806177,2.405999999999949,5.0,-0.0748689370439325,0.1415066632864393,0.9670188759850812,-0.6337016469824013,-0.4195893217401581,0.6026577420547857,0.9869933808384336,0.1166590590522664,-0.0191405615128707,-0.1089420443498769,2.405999999999949,6.0,-0.0195457987466083,-0.1426473826871329,0.9682038452536054,-1.122332121827594,-0.6906863343492745,0.6175642559065616,0.9871489790385264,-0.0877077305019625,-0.0717617633733491,0.1126698562657189,2.407000000000153,7.0,-0.2242124681014696,0.0297194965007142,0.9526864755393516,3.749728872977454,1.9334215825751144,3.8059222363449945,0.9675157149628252,0.2331090586623846,0.051500715013029,0.0831936561443024,2.407000000000153,8.0,0.2054531806251139,-0.9425934411507844,0.1667920719655082,-0.8913054120703685,0.0504366996662022,0.7660859983899526,0.4222094182553802,-0.5223167735825305,0.5881873311827113,-0.4505108862246819
37,37,2.4400000000000546,0.0,0.0359336185506299,-0.0396258476687642,0.9772617700771834,0.3669224615000775,-0.1467373741686321,-0.4241521017468985,0.9988815585634936,-0.025333698879001,-0.0332809427924694,-0.0220502723275301,2.4409999999998035,1.0,0.095196619981589,0.0617854103440235,0.9730375977384952,-2.2687117190334884,-0.3730402633587921,-1.901023301213452,0.976441505473788,-0.053961024771775,-0.1085945432576876,-0.1784864683059088,2.4409999999998035,2.0,0.0827510388731613,0.0594839710183675,0.974592182790986,-1.9082176780454108,-0.3317855285084219,-0.245200323013931,0.9622519328197746,-0.0347738489230426,-0.1061911885124397,-0.2481641164592513,2.4409999999998035,3.0,-0.0223515909707678,-0.0481923552711072,0.9784006864646502,1.2144081350236422,0.0586034974279519,-3.3614013305997603,0.99735940487846,0.0337129176727047,0.033510070196589,0.0549065740863285,2.4409999999998035,4.0,-0.0532566829246714,-0.0961472669742566,0.9737681596649388,2.456753820896564,-0.166890887437243,-0.7451490589786766,0.9611464700594252,0.0031049020750063,0.0601518147951167,0.2693874196250913,2.4609999999997854,5.0,0.006523356201483,0.0194099998732995,0.980122287129921,-3.3861029747171574,-0.8891604723580855,5.238645695272244,0.984948871595452,-0.0757544887053576,-0.0231985282141767,0.1536190290053004,2.461999999999989,6.0,0.0122038718632363,-0.1650706348392805,0.9655287416878394,0.1058141619056585,-0.3512117169744723,0.7262301026818606,0.9818859859941458,-0.0826438438614604,-0.0798474573127914,0.1506462383891104,2.461999999999989,7.0,-0.2967902491082601,0.346538554488173,0.8667321260271275,1.1261142923456604,0.8963515307343558,-0.2808644624331897,0.9515574769556726,0.2759547000380064,0.1139949756710266,0.0734337599367679,2.461999999999989,8.0,0.1852718685354405,-0.924191956375826,0.267351009909463,2.196786584711777,0.7745594829865775,0.599675818198193,0.4762968733605864,-0.4275280962713557,0.5543161161313354,-0.5320664044295521
38,38,2.5099999999997635,0.0,0.0307016185365342,-0.0316551111620782,0.9790206149803758,0.0815631121038818,0.1728183833767995,-0.4345752307268803,0.9985777304500306,-0.0194573325106038,-0.0233597474276821,-0.0437978385420155,2.5099999999997635,1.0,0.0882796028032583,-0.0627193522604342,0.97388551410365,-2.0659852992738705,-0.0568891370757581,-3.0912049078857926,0.9287725473150812,-0.1316307367769032,-0.1050664830499366,-0.3301756178595597,2.5099999999997635,2.0,0.1000420047579783,-0.0760915418279484,0.9722893985569576,-2.3351689214330142,-0.1741498537933792,-3.239211011370158,0.9021724587804956,-0.1261286922392575,-0.0979076446064039,-0.4007374461409814,2.510999999999968,3.0,-0.0484252868630502,0.0340284100540973,0.9774477269406388,1.4724238704677026,0.5563949785859625,-2.568473344908824,0.9892875215034648,0.0986303067163456,0.0765238289733037,-0.0756727559550724,2.510999999999968,4.0,-0.0293558235006126,0.0462143579025029,0.9785552967258722,2.520048502498496,-0.599578842921382,0.0016631909085536,0.955685732323523,0.1330649588443404,0.0608147186839129,0.2554605013547137,2.536999999999807,5.0,0.0395103516181821,-0.1985697527474988,0.9583350068784948,-2.086967935186597,-1.2953034602907905,4.468269973549275,0.916395472629842,-0.1667809230153635,-0.0614782447806385,0.3586417249573225,2.536999999999807,6.0,0.0041488343023444,-0.1586886159621002,0.9667061137377606,0.127076041351627,-0.0888076603008261,1.3445572008458335,0.9702323882830785,-0.0807439213508681,-0.0712015243237019,0.2169328809226016,2.536999999999807,7.0,-0.2754202082919667,0.4111350884864634,0.8460051110245359,0.7063096415463689,-0.000312734336923,2.8404186525506665,0.9245780260253528,0.3157663861946953,0.0751086758904423,0.1995137838511142,2.538000000000011,8.0,0.0968563714394284,-0.8406646840723802,0.4933839602835426,5.642655132040482,-1.208417017204699,1.8362567529820315,0.6948942007367923,-0.2064953963930007,0.370090444345978,-0.5809602086672275
39,39,2.574000000000069,0.0,0.0091164904673158,-0.0289624589445205,0.9799326842051173,0.0816479821192964,0.4342744286100197,-0.1498680244196364,0.998575634241259,-0.0137997583217911,-1.712009057189008e-05,-0.051539005392322,2.574000000000069,1.0,0.1446304754663868,-0.1658396993896061,0.9547864785766146,-1.8726730189235936,-0.697141086548258,-4.07463296357184,0.83243984713559,-0.1950869142995978,-0.1359860518618005,-0.5004925478655767,2.574000000000069,2.0,0.1463920441110364,-0.1851751892185323,0.9512315799629832,-1.8926027063857247,-0.5407328661160025,-2.386155632874605,0.8349942737332414,-0.2024812249947281,-0.099974748665874,-0.5017877698654344,2.574999999999818,3.0,-0.100962748782835,0.1263942647402981,0.9651041462966437,1.5248730631264786,0.7256270708055657,-1.1594872613541116,0.970220612797524,0.1674805349390863,0.1123883391923147,-0.1341308843365606,2.576999999999771,4.0,-0.004025146471202,0.1827264611250217,0.9627818229487982,1.735322027985375,-0.1609030206597412,-0.3943774664970899,0.9473948326077538,0.2114517252790376,0.0758273509730006,0.2279943242036131,2.5969999999997526,5.0,0.0396320766107208,-0.3218360238436289,0.9245798355253292,-1.325609568214841,-1.1839096211550906,3.7568461016117953,0.8255454290661431,-0.2083370811921295,-0.0956602706393148,0.5156738482505729,2.5969999999997526,6.0,-0.0558952513353318,-0.2085573502196012,0.9561791424976486,-1.533690100749813,0.1961825550474459,5.054299698085937,0.8857968611389506,-0.1689720753956133,-0.0271725860056838,0.4313629667723522,2.5969999999997526,7.0,-0.1880179679421512,0.4671952175042597,0.8407983542277254,-0.6845414937508719,-1.1347002791675784,1.81496532229349,0.919785887655282,0.2919908540268037,-0.0041578891492429,0.262141133728961,2.5969999999997526,8.0,0.0878803887344076,-0.4594948455540223,0.8613051283866678,6.424531266650344,-3.3651190883603173,4.696571387637515,0.9281536111791272,0.092229232862313,-0.0232335221214657,-0.3598400284996179
40,40,2.632000000000062,0.0,-0.0157489143321101,-0.0276721624612297,0.979716399333031,0.0701673695179732,0.3622927946197006,0.0724275432229089,0.998620268969688,-0.0093488147303816,0.0188021725534049,-0.0481314489010786,2.632000000000062,1.0,0.2194602614792931,-0.2154178870387439,0.9298765120031816,-1.0374146534641735,-0.3394093565781476,-1.95429518362614,0.771882945540351,-0.2258349455568561,-0.1362002943770001,-0.5784848965711222,2.632000000000062,2.0,0.2169583207658557,-0.2495649186918265,0.9216281454083324,-1.4826871524982146,-0.7708835840224543,-2.6804419125328995,0.7476692999859164,-0.2596935285620494,-0.1198978700988527,-0.5993115966067405,2.632000000000062,3.0,-0.1576101193491419,0.1832105582334551,0.9498731187008796,0.5807930780822506,0.4664124353874464,-0.2696035819694404,0.9620236461593806,0.1907543078072209,0.1290388759622578,-0.1465341829526337,2.632000000000062,4.0,0.0016719605012572,0.2783841845775098,0.9395623717056772,1.2993043240014086,-0.3014542872708483,-0.4987660234187898,0.940432647558904,0.2666642788668751,0.0787093771242675,0.1956564124542547,2.686999999999898,5.0,0.0088711524227662,-0.422494521818357,0.884409792849542,-1.2339161327508708,0.4519442075085287,0.9585877356890926,0.7901982043639549,-0.2709669596012364,-0.0989296513496412,0.5407186224907382,2.686999999999898,6.0,-0.1488592873937316,-0.2721797249337477,0.9300280156487866,-1.2170393882998158,0.3292292295964458,2.8273038820521275,0.8104230090346831,-0.2275205916675793,-0.0043703015522412,0.539842409651879,2.688000000000102,7.0,0.0173196666439647,0.3651372839213649,0.909476109107804,-1.8762237344188208,-4.231988652031214,3.5435174140047323,0.8758447553495593,0.2441241556044403,-0.2523343472396233,0.3310992877978486,2.688000000000102,8.0,0.203786544808613,0.3422890096480805,0.8955748310605335,1.0190688775047152,0.6346398670954106,-6.039717831010855,0.7950610786715578,0.1512222525347994,0.0180401691890049,-0.5870981722127506
41,41,2.7049999999999272,0.0,-0.0407485696346713,-0.0197885383503797,0.9787859662983956,0.2951139532028331,0.1807054572625666,0.0771075080140813,0.9986125699629612,0.0059212304070891,0.0273348302261372,-0.0446170505406239,2.7049999999999272,1.0,0.2674300072039636,-0.2431743898408191,0.9109958327964148,-0.6348815088508073,-0.2359690038723588,-1.2533751848516974,0.7293861087404104,-0.2430536460404775,-0.1323749680013702,-0.6256178525022992,2.7049999999999272,2.0,0.293672385391326,-0.2876634736398945,0.8897933782581203,-0.7573598261658976,-0.5624442112677047,-0.9887301398912036,0.7077056138569132,-0.2927937769118764,-0.122937935742557,-0.6311187148805262,2.706000000000131,3.0,-0.1483517304124171,0.2023530029896856,0.9472560510573146,-0.0985830264964186,0.0393937682649125,0.6180276164026881,0.969077749678764,0.1825887169431564,0.1191236489473991,-0.1155821430154809,2.706000000000131,4.0,0.0275489531532215,0.3352830410881731,0.9204077018032972,0.4042309220100533,-0.7739660840481611,0.0180237185225016,0.9398770096702594,0.2839138166297673,0.0404352456960163,0.1854430972711379,2.757999999999811,5.0,-0.044533316583238,-0.4727227746428256,0.8572420673579227,-0.6734643820413365,0.5908848794314708,0.1037407338908769,0.7825938757687784,-0.3087293006022007,-0.0944353261483981,0.5322734388771655,2.757999999999811,6.0,-0.2249533301085284,-0.3485977440309868,0.8865081004308927,-1.2085986463260403,1.336794807716429,0.5633379951034566,0.7808923010698506,-0.309545685825862,0.0241044283449229,0.5420402743805988,2.757999999999811,7.0,0.2229758268983844,0.3576397282585816,0.883643370025549,-1.4351656976634517,-1.3474392882858794,1.6621117791916755,0.8528737560015751,0.1810169491880824,-0.3296360877115135,0.3621867889758713,2.757999999999811,8.0,0.0138749826206146,0.433638326608474,0.8783150269427704,0.0156628988971045,0.9218022820515356,-2.1431502497729022,0.7315175285644003,0.17921455380633,0.0557627240387989,-0.6554805624233283
42,42,2.817000000000008,0.0,-0.0393590079041954,0.0039188241802188,0.9789594022807288,0.3559754032562929,-0.1877051029178424,-0.19276476367338,0.9981028480579892,0.0227003379239325,0.0166505417261395,-0.0547554455455904,2.817000000000008,1.0,0.2787406949165647,-0.2447565523201808,0.9065725867760228,-0.0406452006375936,0.2676314204468242,-0.4450931168696363,0.7198940979397013,-0.2281129982987796,-0.1166930951790941,-0.6450578805783613,2.8179999999997563,2.0,0.3098865030536114,-0.2921597283264517,0.8823848640867646,-0.0780355472566426,0.3772029282745875,-0.7443254452067843,0.689220515345281,-0.2721385925367537,-0.108185515368836,-0.6627303840504671,2.8179999999997563,3.0,-0.1715685846417907,0.1797010312132458,0.9481865639972488,-0.6079540766635644,0.577681951427557,-0.1869233361664869,0.9711320572428318,0.1471907511086244,0.1477262166727408,-0.1158204433204385,2.81899999999996,4.0,0.0678950896199059,0.3182106062915901,0.9246173623986536,-0.7177844568081098,-0.2355698836049415,0.2846510283468242,0.950101123280739,0.2408804647188056,0.0150605046260722,0.197630054541151,2.8229999999998654,5.0,-0.0589165043411358,-0.4818287382795985,0.8507455039458695,0.4948874868925707,-0.2127595850813676,0.1045306248379895,0.7890075193809335,-0.2761628368359438,-0.0901285655654897,0.5413668475074707,2.8229999999998654,6.0,-0.3242905796665446,-0.4049145393221859,0.8315123786120313,-1.4570907869532812,2.225114092574344,-0.0851986536334342,0.7567147101380478,-0.4205967321551083,0.0665939750022922,0.4960307237001838,2.8229999999998654,7.0,0.2654440607273961,0.2972954828710081,0.894958013813522,0.8918895006200268,0.5047325084521415,1.5677563328995183,0.831191983132131,0.1842114631773,-0.2830897650659542,0.441640361522649,2.8229999999998654,8.0,0.0501884275402962,0.2980586609218177,0.9321712055145908,-0.2920256176288837,-0.3691769790088753,-0.4732844500076931,0.7231001577234111,0.14780701931184,0.0387160260345219,-0.673632181736162
43,43,2.8409999999998945,0.0,-0.0160002633329409,0.0247357021103976,0.9791226361464545,0.2439526534515418,-0.3450465405412818,-0.6717062671707846,0.9955305727090484,0.0323611456400216,-0.001034234382316,-0.0887162071647659,2.8409999999998945,1.0,0.2212753779417099,-0.211888760657161,0.93099482287708,1.130214365447149,1.5163449390828216,0.3564336213775869,0.7558502402913768,-0.1317008337477278,-0.083224347695029,-0.6359394724282793,2.8409999999998945,2.0,0.2587358681118784,-0.2622761530113025,0.9084728780288296,0.8033750073295208,1.3211586150730783,0.0093141603948803,0.7112903770422537,-0.1920533466869307,-0.077736122693651,-0.6716685244836145,2.8420000000000982,3.0,-0.1972901512812568,0.114436613568476,0.9529778893984886,-1.2468248788074434,-0.0730843982695062,-0.3898483871962894,0.978223031379432,0.0749786492283038,0.147045504293585,-0.1258392733043972,2.8420000000000982,4.0,-0.0120066959662188,0.2281655154710048,0.952752505534268,-1.8041146302201083,1.8568413107355333,-0.6702114461665989,0.9713005137052776,0.1197424825177076,0.0928454217439381,0.1833487867905062,2.8969999999999345,5.0,0.0480687362213609,-0.3041851952979073,0.9298020023422486,4.4782941622309815,0.1105957322672818,-5.737770869642432,0.9724744044823272,-0.0085068127021108,0.0300441708660773,0.2309080218644734,2.8969999999999345,6.0,-0.412544344297905,-0.648469743906532,0.6076974207824222,-4.718363862939079,3.850257658209249,-0.9513034698980104,0.6607817098562879,-0.669630554629539,0.03873902500436,0.3368408231904918,2.8969999999999345,7.0,0.186186198668223,0.2690416748606984,0.92429934361852,-0.883831117708858,1.2955618547032397,-1.5692113667666248,0.8966425343270215,0.1368804224845171,-0.2075733699765405,0.3663457542440727,2.8969999999999345,8.0,0.0737996338426053,0.0752440570951421,0.9742920229153886,-3.1815322758828346,0.0926265069360564,0.1193735223384171,0.7516880978816569,0.0171876299117344,0.1397212692089166,-0.6443194516788416
44,44,2.9479999999998654,0.0,-0.0124950824984693,0.0610683858064211,0.9778381896655268,0.5456427080793086,0.1284653637625107,0.1670002959391529,0.9949790486743508,0.0599799149988755,0.0028992185686051,-0.0800668285090849,2.9479999999998654,1.0,0.0944444250271397,-0.1531872014827337,0.9632289093892384,0.9775485993248348,1.8136489273384693,2.7129242513177187,0.8538034409816601,-0.0395669942538702,-0.0207206635645231,-0.5186759983217238,2.9479999999998654,2.0,0.1370488220273293,-0.19056955896431,0.9520093820845832,1.3385384540633458,2.1882073077455706,0.2238398580097967,0.74206915653095,-0.0626715095309111,-0.0315687419372712,-0.6666401303184946,2.9479999999998654,3.0,-0.1628382376944002,0.0439538389448784,0.9651123086908536,-0.7043512846844421,-0.3623378520353814,0.4534923281339714,0.9863412175110964,0.0370152070538972,0.1258437162114155,-0.0996204606272506,2.949000000000069,4.0,-0.0972505227215302,0.1102921325440745,0.9686382097198464,-1.6829636989196215,1.062244690414892,-1.0031669518815056,0.9812181966239774,0.0148270702038365,0.1264441111977912,0.1449237570123027,2.9699999999998,5.0,0.1411289589836523,0.033910078230627,0.9687170502941422,3.801589043503112,-0.0732700349839114,-5.057756390995653,0.9779664122978712,0.1755113861687365,0.1011486220810907,-0.0504619261766332,2.9699999999998,6.0,-0.5443233793139032,-0.5940945935592392,0.5571540833880471,0.496753684613884,0.1211790853507631,1.1641375281223478,0.6680807287688337,-0.6329848044055212,0.0928701640980173,0.3799651429536866,2.9699999999998,7.0,0.1139666839089898,0.2494844155945633,0.9397542877445292,-0.2980738228420599,1.129704466196975,-1.401816925169411,0.937005856785416,0.1172228846413328,-0.131472297096801,0.3016518767756699,2.9699999999998,8.0,0.0446073618630155,-0.1684544318108095,0.9640520150235252,-0.5057525092857701,-0.2661013386415276,-1.4950103488598243,0.7061607709311197,-0.0292561139313546,0.1351698182882123,-0.6944135407806605
45,45,3.019999999999982,0.0,0.0039314606934387,0.061373020216441,0.9775627325171148,-0.2569577431105829,-0.377875229507308,0.5089890391115107,0.9973907314643784,0.0427972674288964,-0.0167493319521296,-0.0556738948586283,3.021000000000185,1.0,-0.0540323748487214,-0.0491773455505462,0.977034334684718,2.4290931720138365,1.8829192673460309,3.693264120650675,0.9388023738010124,0.1224994927154895,-0.0101726368651444,-0.3217770885088647,3.021000000000185,2.0,0.0151290128895421,-0.1144888643392705,0.9729447121554708,1.416246721262731,1.6099002878573525,2.594082211684824,0.8331454207400313,0.0469944481863558,-0.0106525352956597,-0.5509507720580403,3.021000000000185,3.0,-0.1616402859869474,0.02575744658124,0.9657877468117266,-0.5618385815720158,-0.0991728752920064,2.1927253570749463,0.9929368307435504,0.0205396140476796,0.116123697333343,0.0130330857957845,3.021000000000185,4.0,-0.131481204397751,0.0483268971286732,0.9693932142861488,-0.9063439692167304,0.7752297366194573,-1.3489657103896162,0.984299506323121,-0.0439544108996081,0.149078375994945,0.0836548230841389,3.0450000000000728,5.0,0.1407443236898048,0.3093335853763784,0.9190809367554602,3.269867553737281,-0.7503395733875867,0.4854380680828666,0.9436121879881956,0.3266592101967063,0.0307237757764938,-0.0441117747980044,3.0450000000000728,6.0,-0.5496865602517188,-0.5951979990921946,0.5502245244945752,-0.3431901610614815,-1.6527601184396497,1.7931600878524196,0.6375690297642007,-0.5858913651785468,0.0862654317956019,0.4927426465934045,3.0450000000000728,7.0,-0.0411631447854237,0.1621290624057878,0.9657115317913492,-3.961641489463388,0.2628957078725293,-2.435207305757363,0.9741615927896736,-0.0712278241458122,-0.1646433099778952,0.1372165029450257,3.0450000000000728,8.0,0.0451875598785638,-0.1918249749054023,0.9599923246749228,-0.386211912122666,-0.1380393444828958,0.5331850222593053,0.7249455234311246,-0.0500533324379252,0.1366018278346111,-0.6732671034598933
46,46,3.050000000000182,0.0,0.022827945985027,0.0382375062231722,0.978855340691329,-0.2918136557584848,-0.1878879521191115,0.7675466327679156,0.99920244631434,0.0246166790857973,-0.0258504174689988,-0.0178954269829962,3.050000000000182,1.0,-0.0541621746471583,0.1094799317838853,0.9719498975637,2.001237341975981,-0.9000082417272741,4.705766468707737,0.9694867551512192,0.1929515462658211,-0.1282494605674033,-0.080107479327205,3.050000000000182,2.0,-0.0837107896388927,0.081410527111322,0.973293804446268,2.732304635218102,0.9341752317398252,5.375923088908325,0.941785754634842,0.1971793663838289,-0.0893474537302096,-0.2572487557817944,3.050000000000182,3.0,-0.1280013440284522,-0.0258602432880119,0.9708902634922212,-1.466446383079268,-0.2584341773302044,2.7947446698090803,0.9814667252754556,-0.0389162211653764,0.1013584827569124,0.1579083686208481,3.050000000000182,4.0,-0.1108744963349688,-0.0570802820362624,0.971778620605088,-1.783240186670782,-0.6137083320623852,2.5017215483898223,0.9634567284334262,-0.1073706416543969,0.1144512968419667,0.2170796591076053,3.1210000000000946,5.0,0.0661419409472737,0.3923891771204638,0.895794606662963,0.7356722668936861,0.1178715547814284,0.849747820866844,0.9364705193741742,0.350513838546353,0.0127051321778099,-0.0012629120753034,3.1210000000000946,6.0,-0.406225789338531,-0.4589450523094891,0.7642715793727565,4.707981709389996,-2.7689315203623925,-1.6421782200567483,0.8376751693014224,-0.2992707972322597,0.0519501229017829,0.453914623459402,3.1210000000000946,7.0,-0.0478135736349661,-0.1633021057172529,0.965140033593346,-4.489949990226227,0.4106424769477095,-4.9487347616930455,0.9349586063066606,-0.2425738308358588,-0.2070439747729466,-0.1553806088189332,3.1210000000000946,8.0,0.0936146880399975,-0.2083859966100533,0.952882766451366,-0.0343283914340273,-0.8845614663437193,-3.622925357325534,0.6097806797386738,-0.1121237296697285,0.0822015337163529,-0.7802811670911132
47,47,3.125,0.0,0.0185358724106858,0.0146067416407734,0.9799347246284392,-0.3717590939169499,0.187680675545507,0.9565466627510868,0.9994473045078128,0.0032048983344473,-0.0146309394950664,0.0296774282616383,3.125,1.0,0.0385534065762446,0.2659797219158791,0.94280136952113,2.2707949660465507,-0.6909760997585163,1.6680407351390785,0.9426771392006495,0.2792358832447168,-0.1824741041715586,0.0095044223290528,3.125999999999749,2.0,-0.0692785950106399,0.2855758179650571,0.9349630626216956,2.8150317670910754,0.5224991491207286,3.6455757756117793,0.9380661404829,0.3100249935588535,-0.1456835579042081,-0.0518914290101966,3.125999999999749,3.0,-0.1170016229036533,-0.0836066301891931,0.9679987353433466,-1.1754075543119349,-0.4932206854075496,2.903295948419625,0.947993773294828,-0.077001607993033,0.074068762277065,0.2998205740363145,3.125999999999749,4.0,-0.0998610003140809,-0.1573508290076644,0.9608004461004748,-1.7872471059882291,-0.3251067164283135,2.447560288475452,0.9209093887860268,-0.1695228942851543,0.0920372607821048,0.3386990235986193,3.1959999999999127,5.0,-0.0007104035280442,0.396707315132842,0.896137713438576,-0.413405060534949,-0.0701249494138573,-2.516935639647286,0.9411467330407552,0.3127662505886883,0.0475228219342299,-0.1190028603640026,3.1959999999999127,6.0,-0.1781323281134088,-0.2106856024128126,0.9400060907339094,5.548017737988469,-0.9189286675259152,-5.810432718668619,0.9873793588060557,0.0173197586590287,0.1212987862951168,0.1003425742497541,3.1959999999999127,7.0,-0.0418704647428446,-0.3200994221041241,0.9252617057626584,-1.315899961777526,-0.0884141487301512,-1.3419713768718535,0.9117709820851256,-0.2817082840968593,-0.1960373769272617,-0.2255736370815684,3.1959999999999127,8.0,0.1713966094290009,-0.2568976014281522,0.9296966304428044,-1.3697038272682454,-0.3962215089918961,-2.7463047262143654,0.4986712208930304,-0.1777278460325103,0.0994625242083221,-0.8425242029020933
48,48,3.186000000000149,0.0,-0.0071273737077353,-0.0195749342960636,0.9800387862178388,-0.559073937229065,0.4813432737618074,0.8963696836811537,0.9968188228006326,-0.027358652431592,0.0115756402719666,0.0739577122400517,3.186000000000149,1.0,0.0515433348302026,0.3849268432420546,0.8995596756115118,1.6502101538564962,-0.0244083450208813,-0.1413032691874,0.9224046882222416,0.3488089071732014,-0.1651978304314239,0.0145469667978115,3.186999999999898,2.0,-0.0736099544826877,0.4394689595210413,0.8728491325644715,1.912977784569447,0.5370415390519341,0.7332009007804446,0.9144609580538852,0.385323471500405,-0.1236353231545485,0.0011337435853076,3.186999999999898,3.0,-0.1022337586091789,-0.1292370713657808,0.9650368065444116,-0.8052748132048639,-0.5104869654376566,2.25997319640237,0.9080647275282502,-0.0973327178742901,0.0452445931430935,0.4048428330124725,3.186999999999898,4.0,-0.1044902476878768,-0.254678543329941,0.940407160598783,-1.6341459946937678,-0.3646796787499959,1.618948605811453,0.878880135221434,-0.2243081402669939,0.0580030474753256,0.417002652997186,3.2730000000001382,5.0,-0.0858639161719774,0.1474588326692877,0.9648550567662598,-6.224589089454185,1.874742538435041,-2.0078596572332943,0.9729790207837624,-0.0234682136829208,0.166841681151631,-0.1578762853999959,3.2730000000001382,6.0,-0.0633947009107016,0.2091903884869835,0.954920150201632,5.562620937729523,-1.7801251357895662,3.611917415318029,0.9214408159213286,0.3097247669289037,-0.0047871927159136,0.2345090068440296,3.2730000000001382,7.0,0.0221691329224851,-0.3923979979750149,0.8978236690635113,-0.6236313533261016,-0.814282547515671,-0.7666835098951105,0.893090523538944,-0.3042702495416348,-0.2159655729250389,-0.2513320578835215,3.2739999999998872,8.0,0.2342160113652827,-0.3252927510955296,0.8939499348983923,-1.572053658151659,-1.001776838536527,-1.002724662842885,0.4485755017977912,-0.2623394360379816,0.1291761223353985,-0.8445540651163332
49,49,3.289999999999964,0.0,-0.0309248049905855,-0.0475267843121732,0.9784972463983936,-0.3419784440042599,0.1583037215801606,0.6337815119699995,0.9932460695681794,-0.044342688672595,0.0198071400468308,0.1053738508920213,3.289999999999964,1.0,0.0767413582170728,0.435051454664319,0.8748496989388859,0.4327434099670798,-0.5969708388614839,0.7307938965156989,0.9151977288966048,0.3515196522715863,-0.1931923976384026,0.0390352223521967,3.289999999999964,2.0,-0.0610898051159664,0.5200455810631787,0.8286716052378977,0.8272464127331397,0.0908959187171364,0.8103063004183042,0.904115808573978,0.4075032682132466,-0.1219520591636713,0.0405387018524866,3.289999999999964,3.0,-0.0752394729688603,-0.1614093186638744,0.9639165179390964,-0.3904835574561315,-0.8184624150921623,1.022543396363551,0.8863508928603697,-0.0950110705184931,0.0016352783545762,0.4531581590010913,3.291000000000168,4.0,-0.1012710342430413,-0.3324411067322524,0.916063364717736,-1.140973307579691,-0.5595478091821017,1.0081376489930007,0.8472992293139002,-0.2533068947820361,0.0153174578671674,0.4665672604721007,3.3449999999998,5.0,-0.2286701411610948,-0.021716310604504,0.9520038699475404,-1.842828719707956,3.130027746596448,-4.7142691402477785,0.8838785100101499,-0.115746248457558,0.2831516868234009,-0.3538173367138773,3.3449999999998,6.0,-0.0661333512243971,0.4157962029281116,0.8847451031152392,0.9739966588490404,-0.3646484813977328,-2.2620299343290213,0.9295191849480456,0.3472484803434242,0.037729262390181,0.1182754432339881,3.3449999999998,7.0,0.0486303364703161,-0.3847212915667705,0.8991922031412303,0.0344377940175652,0.0451481122103005,-0.7612397346373855,0.893166685380464,-0.2849007621452941,-0.2033688933881404,-0.2823577890860971,3.3449999999998,8.0,0.3315987691905618,-0.4586293155867064,0.8000140043497822,-2.0567667373487564,-1.8045779766250047,0.6237983726150207,0.4606403452244858,-0.38373917193971,0.1874368395959767,-0.7780887812022251
50,50,3.3350000000000364,0.0,-0.0194975230908853,-0.0648012313153642,0.9764945709082736,-0.2692865055867752,-0.5549688383177037,0.1500783139002275,0.9919700132071936,-0.0535711559633199,-0.0100810803706335,0.1141227232633117,3.3350000000000364,1.0,0.1137434977811947,0.4541609656877775,0.8608973422877113,0.1942773444527284,-0.2905088520593214,0.0358568692376215,0.9157505455831624,0.3502514445710445,-0.1936657887534097,0.0349059609029252,3.3350000000000364,2.0,-0.0402808949534618,0.5406781753409629,0.8167432645646459,0.1951807897918091,-0.1295859654152041,0.0539406077816663,0.9061709409238567,0.405324856412919,-0.1148322914643406,0.0371420440480518,3.3350000000000364,3.0,-0.0278095431472459,-0.166245974165858,0.9656510267087104,-0.1292475590211521,-0.6323597937410647,1.1692009410341009,0.8584823713099402,-0.0847734692499978,-0.0261380847800517,0.5051121435734963,3.3359999999997854,4.0,-0.0752442903536164,-0.3737071943536804,0.90262020233179,-0.4069991215593411,-0.8997665716005956,0.8372976704731449,0.8247478960429848,-0.2421222820120719,-0.0280183050430536,0.5102770650425619,3.4209999999998217,5.0,-0.2151456244369405,0.0383511894956653,0.9542361062912608,3.02694247122256,-2.464985806146296,3.312329624389418,0.9756522732511996,0.0565247193027647,0.0750143042264735,-0.1981929664971189,3.4209999999998217,6.0,-0.0009747570516861,0.2760513837804718,0.9405549868888988,-2.591789811855901,-0.7372308826672895,3.012164208420648,0.9461693419718772,0.207879195075996,-0.0460114088992671,0.2437883648129357,3.422000000000025,7.0,-0.0314858153930392,-0.3172652403878819,0.9263230595589504,2.270265050764089,0.9997320161727116,4.654198965624196,0.9758835800283764,-0.1847206581982922,-0.1101536256903546,-0.0373590071208848,3.422000000000025,8.0,0.253677451712777,-0.8187754803118621,0.4725510166453894,-4.929146246125689,-2.38138569351408,5.941304915849822,0.5886645191951426,-0.5464079332671606,0.4653799810866868,-0.3719326921732165
51,51,3.4400000000000546,0.0,0.0477028165933864,-0.0750603998061818,0.9755651580852988,-0.1803377625834296,-0.8185362289395894,0.3785369124506626,0.98793993834428,-0.0561332544909827,-0.0523086493402763,0.1344899296183427,3.4400000000000546,1.0,0.1310858199007251,0.4315443486861517,0.8692479410030259,-0.8901087780551016,-0.1206984609035766,0.3178442031865118,0.9355082757461078,0.2936351414384957,-0.193036544048145,0.0366000325804157,3.4400000000000546,2.0,-0.0122782988102277,0.5008258259879016,0.8420146883528,-1.6358581742458795,-0.640413185420464,-0.6266120022574787,0.9396065547464756,0.3177778400440781,-0.1258890917744077,-0.017569952378813,3.4400000000000546,3.0,-0.0085634267535648,-0.1667053103024872,0.9650378268436878,0.5223914487257886,-0.6990074309677565,0.5151352311130846,0.8463075117501683,-0.0447578673878765,-0.0426615609910155,0.5290938669800832,3.4400000000000546,4.0,-0.0402414119380716,-0.3662211196994242,0.9079827753054186,0.4631461839541298,-0.6825182317078383,0.2829540037902379,0.8237403204815256,-0.1992167156988808,-0.0465185966544175,0.5287727345130878,3.494999999999891,5.0,-0.0542180324850556,0.2224791610319358,0.952186655997644,1.8910896670188533,-1.3885748182348578,1.9033785788039912,0.9824115326905614,0.148343752242274,-0.033805333577417,-0.1082539192315198,3.494999999999891,6.0,0.0385394076999684,-0.0306430009441542,0.9793001177102308,-2.913072302223372,-0.8743308786474222,-1.682960365445621,0.9822989127933156,0.0541069191142178,-0.1158790512270868,0.1368697655282137,3.494999999999891,7.0,-0.1123024566360297,-0.0740766369745911,0.9706172315017116,4.63432832587415,2.3071153889810203,-0.3874990836261189,0.9960259635477032,0.073514027975311,0.0177561124913344,-0.0470392187319196,3.494999999999891,8.0,0.1955483115344164,-0.947779271844485,0.1536011384006532,0.260626865791315,-0.9798907064655064,1.2000288531802854,0.6402541864282126,-0.5306712519302936,0.4483005628199777,-0.3278554628356428
52,52,3.5039999999999054,0.0,0.082398362381019,-0.0984898321646799,0.971174167097282,-0.3625264996689953,-0.4557219618834142,0.044736994784572,0.9851509404305228,-0.069838803637425,-0.0766426854524313,0.1368432126266754,3.5039999999999054,1.0,0.0942164782758604,0.349900439082921,0.910429534863008,-1.471443593899945,0.8313136391761562,1.3221011773811575,0.9638891362407612,0.1962696193235327,-0.1535492751240024,0.0939073462330214,3.5039999999999054,2.0,0.0177679162014307,0.3494577832286931,0.9155465902370816,-3.1014295237498724,-0.7808016288808155,-0.6297692179439114,0.9745421066668531,0.1517132725314346,-0.1442512722055357,-0.0802641622283481,3.505000000000109,3.0,0.0605007520649599,-0.1003218217381999,0.9727431269778796,0.727061118428661,-0.6100241459042196,-1.6716009019999007,0.8889857895050507,0.0091140875457183,-0.0508678027297196,0.4550095231000567,3.505000000000109,4.0,0.0178382663178839,-0.2835229120810996,0.9378115773330084,2.144265074807408,-0.8886292401569386,-1.7580611699245834,0.8874123713497399,-0.0675505638450966,-0.0392965300906849,0.454303849006887,3.574000000000069,5.0,0.025566453659293,0.1733022728222697,0.9642311334332258,-2.232916581057042,-0.0971618124550919,0.2141982141995863,0.9942323286734104,0.0292828871920909,-0.0256054466873483,-0.0999447359208315,3.574000000000069,6.0,0.0964419302853571,-0.08469239294083,0.9719542955616742,-0.3482894228906188,-0.5541144893645025,0.5447295586926213,0.9766069423242472,0.0288452374661942,-0.1400389360392046,0.1606111106761016,3.574000000000069,7.0,-0.226882145689409,0.2416922732280611,0.921551049605621,3.775346343605285,1.816648083842052,4.7049383067414645,0.9443972984426008,0.2618738123809482,0.0416323065731537,0.1944289076572312,3.574000000000069,8.0,0.2050393435544398,-0.9449936374671176,0.1598589776691643,0.9134472509503304,-0.5974305189951536,0.0981289612256169,0.6767478875167585,-0.51317909558707,0.4011722246268049,-0.3431040057796203
53,53,3.5479999999997744,0.0,0.0972026915794665,-0.0890668462134467,0.9713720881594744,0.3891433475537182,-0.1977742488034801,0.2818724827416133,0.9838204759711624,-0.0472549116156897,-0.0808989359419293,0.1527075851146004,3.5479999999997744,1.0,0.1144066066150518,0.2565266352329141,0.9389372789376872,-1.426962319990672,-0.1002042247329045,1.0649114046303676,0.9717520476450622,0.1128042032936578,-0.1602893890364742,0.1314552447764094,3.5479999999997744,2.0,0.0667373286814121,0.2186465630684462,0.9526871519123292,-1.2817293497339783,-0.19281897329223,0.7346603247113355,0.9853377388678044,0.0778874755086957,-0.1413101048294741,-0.0554484967771716,3.5479999999997744,3.0,0.0697515814032778,-0.0561369011883407,0.9755918025571516,0.3954955229541355,0.4453897360208338,-2.5750290280454937,0.942892289296508,0.0222377595239963,-0.017079216399156,0.3319155211853374,3.5479999999997744,4.0,0.0829662265980012,-0.1127298730132356,0.9704012474098066,2.675200081062435,-0.4947535258442554,-2.0099405706432942,0.9324575747614652,0.0764628020179082,0.0033299938322773,0.3530796260315992,3.661000000000058,5.0,0.098301629257959,0.0146725067839952,0.9744385600077128,-4.08677741994922,-0.3535340369146809,5.221690486481041,0.9689042687435866,-0.180907827782163,0.0228131196677022,0.16726158383987,3.661999999999807,6.0,0.1081034854113416,-0.1119082440632123,0.9665408327394184,0.0479906441986503,-0.1906622504568584,0.7819140261178251,0.9693326386701472,0.0197264720021166,-0.1421676927183011,0.1994829543050592,3.661999999999807,7.0,-0.2098936441110481,0.4550594385343119,0.8422740442175701,-1.0625198254644863,-0.8279119955110548,4.755999326297219,0.8935145111153383,0.2217972479058259,-0.0490989984139659,0.3873333029865428,3.661999999999807,8.0,0.1616021313360088,-0.9018136459750372,0.3469811220814033,3.30979311728423,-0.9978810807994682,0.4163026393680775,0.7882020691379009,-0.3904651374261523,0.2986420780277798,-0.3702531348857927
54,54,3.606999999999971,0.0,0.0936413340725529,-0.0739289745619379,0.9717740515538232,0.090578559560159,0.0854010364933322,0.6526569960339581,0.9791582732865268,-0.0443754356050942,-0.0717757320848767,0.1847380330443234,3.606999999999971,1.0,0.072706813541455,0.1733378576236443,0.961537158085476,-1.6015945980897752,0.5637267689408781,-1.3907933336031917,0.990008277933462,0.0382476663473881,-0.1258571195988704,0.0508006996849036,3.606999999999971,2.0,0.083284553948072,0.099845305677302,0.9716463338107528,-2.4687792741978543,0.0371072276514214,0.1288960650369578,0.9892087735444226,-0.0485514136987951,-0.1218397916412268,-0.0652979918788494,3.608000000000175,3.0,0.0461942679133807,0.0219394008343677,0.978445579632805,1.4417116655888091,0.6727412226380854,-3.4470869619706384,0.9826580071019728,0.0842214998251592,0.054160557449787,0.1560660567269768,3.608000000000175,4.0,0.0866639923686545,0.0479575530786495,0.975184303364976,1.9666747662599189,0.5177410559156329,-2.073406083766651,0.9530502193655264,0.1562269060410731,0.0749200183890269,0.2483453724971418,3.728,5.0,0.1491200704220728,-0.0691695642046164,0.9551255289149484,-2.554638489108182,0.95264804401156,5.424932350054781,0.8695331195492418,-0.2733455615715278,0.1075884903416195,0.3970126883641393,3.729,6.0,0.0598267756576269,-0.1890536192297898,0.9575993347797028,-0.2303311831435273,0.4503755484841611,-7.770975070580042,0.9766614326181888,0.0436617351472193,-0.0862060371296413,-0.1918192328274833,3.729,7.0,0.023304293184066,0.4783762155535808,0.8424975408342895,-1.0122176086106316,-0.8831133356653317,-1.7853349264153504,0.9342371910861615,0.197378022777517,-0.0787809601666552,0.28641987925264,3.729,8.0,0.0640273834819046,-0.9123095035019236,0.3695644246738784,7.814726370790685,0.1512855554616168,-3.910060466955232,0.8084438441812767,-0.1147991794910343,0.1258363035094624,-0.563387010777369
55,55,3.7260000000001128,0.0,0.0813365922907577,-0.078200367882523,0.973859364188467,0.0409848339447658,0.2271260965637501,1.0168254924415945,0.96966025931619,-0.0468067953325033,-0.0555852043235351,0.2334060634899424,3.7260000000001128,1.0,0.053701896233069,0.0295073502738497,0.9768210801476332,-2.220273178506149,0.1135307654026389,-2.2917274032678314,0.9877432354801938,-0.0601626772212005,-0.1211352673906493,-0.0779102048957137,3.7260000000001128,2.0,0.0776046566751095,-0.0352761529397529,0.976835764238856,-2.449323047754461,0.2524189990260536,-2.2110044518014216,0.9648607951017572,-0.1492272700757778,-0.1084719723007677,-0.1871061173946945,3.7260000000001128,3.0,-0.0335570374932272,0.1133945197694946,0.97206666855773,1.3109879922704026,0.8239389373282959,-1.568580480197686,0.981564324936815,0.1344872477225936,0.1121849175350331,0.0765454145523716,3.7269999999998618,4.0,0.0532936690756325,0.1807624844883223,0.960614755788222,1.9437507673235253,0.4381140617897442,-0.413703958540681,0.9391266318572348,0.2342055069844786,0.1164230790753372,0.2227882772796786,3.7959999999998217,5.0,0.1105219591428346,-0.2279068235987685,0.9466009593827536,-1.8511275440835275,-1.3681782807329657,5.1134326528486085,0.745111994069384,-0.268366294665006,0.0710062748111407,0.6064204458287714,3.7959999999998217,6.0,0.0854541685156175,-0.126432763374126,0.96675712639157,0.1618899968885946,0.1875083908737391,2.184316180660115,0.9933191059395868,0.032255205489893,-0.0759966978460645,-0.080630375235879,3.7959999999998217,7.0,-0.0071553265691692,0.4659296002756395,0.8618958225265227,-0.2821625366793988,0.1511756064625222,2.85057930954039,0.8917771206323268,0.1738502319572671,-0.0865756862887767,0.4086738485745671,3.7970000000000255,8.0,0.166812121355508,-0.7303416227241577,0.6318867226691183,6.006922544788205,-3.367437233855532,2.388354531560363,0.8950178073708721,0.0525471515574863,-0.1945280650243935,-0.397920536376418
56,56,3.788000000000011,0.0,0.0536358008990344,-0.080130137264812,0.9752529733170984,0.0457795344771908,0.4139252372008187,0.844044461542756,0.9602660876089446,-0.0504060596237688,-0.0310753752884202,0.2727317201795559,3.788000000000011,1.0,0.0708413651744205,-0.0832353306346833,0.9739355115788516,-1.6170375871796785,-0.5192108454587209,-2.15879915442604,0.9631662674461114,-0.1250664858050542,-0.143670506764743,-0.1898101706133304,3.7950000000000728,2.0,0.0914241015095939,-0.173271117143887,0.959764947071351,-1.5909073915518517,-0.4106152774932631,-0.8490280668034469,0.94130336333908,-0.2176969432956021,-0.1141626386258019,-0.2313501912432358,3.7950000000000728,3.0,-0.0726435483838774,0.1872101043490154,0.9587436006085412,0.9714946570261008,0.4115040817263223,0.2820028230495527,0.9719621367633546,0.177494530589281,0.1266504063373652,0.0880055162128192,3.7959999999998217,4.0,0.018351514315492,0.2689433489159641,0.9421436711012784,0.8955322307034916,0.3398696968612968,-0.5344861644370347,0.9348413881679876,0.2595811380808279,0.140066595494751,0.1976627444596524,3.847999999999956,5.0,0.0919747027990297,-0.3406132585757512,0.9138250719516504,-2.1006776471810618,-0.6530719352587826,2.3690180445554385,0.6550127751727852,-0.2951883447689612,0.0024248866429992,0.6955689939882139,3.847999999999956,6.0,0.0190921998220506,-0.2208595049791678,0.9549385147570032,-1.5670835248324977,0.1786384767056586,5.743812942198886,0.9759164697901738,-0.0799303000572963,-0.0276735204940993,0.201078013190149,3.847999999999956,7.0,-0.0026616880103658,0.4329548757409684,0.8796010408071707,-1.3566328186182868,-0.7889851480851474,1.7709358086713551,0.8635875120376862,0.1266473015141113,-0.1428697036732115,0.46665331654675,3.847999999999956,8.0,0.3566463435461159,-0.0147029027236529,0.9132569245763672,6.410957990608599,-3.861366260401171,4.826106900312886,0.8442570431460373,0.1944987717072216,-0.4982003374469152,-0.0345933038386332
57,57,3.8299999999999272,0.0,0.0273495578608509,-0.0796114806816468,0.97658128889944,-0.0438593862484468,0.2347214880625509,0.666412883869336,0.9510342691127168,-0.0552037229100274,-0.0180047997463396,0.3035822707870268,3.8299999999999272,1.0,0.1249064143856062,-0.1647125868613998,0.9582056936664264,-1.0356429960381797,-0.4981484175185032,-1.3099915191247782,0.9394449021298312,-0.1657341498322568,-0.1583116225998763,-0.2547800965370831,3.831000000000131,2.0,0.141673675229864,-0.244616645152682,0.9374312063618908,-0.9734889479253755,-0.6704540366988052,-0.247626757820906,0.925743925451752,-0.2613555262461654,-0.1300255281953367,-0.2403847653394342,3.831000000000131,3.0,-0.0789853403015,0.2285771985471862,0.948867103614503,0.4521464930440801,0.0358385788294886,0.951174526473058,0.9644814106982338,0.1987004304665528,0.1134057250214465,0.1320336657156492,3.831000000000131,4.0,0.0527017286862062,0.3095376215327582,0.9279250986202108,0.6580984867828268,-0.5603384034761105,2.4225419084017736,0.903593556859126,0.3009135535927009,0.0712713201713963,0.2964626725034915,3.869999999999891,5.0,0.0431179776647113,-0.4385502337902385,0.875116296525572,-0.78742178184058,0.9258870515675888,0.5503247934411996,0.6309894990071416,-0.3390164951621196,-0.0036071708052899,0.6977872573137821,3.869999999999891,6.0,-0.0947400212741635,-0.300299545211701,0.9269652159140688,-1.2605489746213967,0.8698895920417745,-0.4914780407739868,0.9728242703845452,-0.1571939532026981,0.0026329612537558,0.1699884335545252,3.869999999999891,7.0,0.3439292112640156,0.3265815579179463,0.8572299479528226,1.1274918967192775,-1.741694353513251,5.3221225638745,0.7104836855736698,0.1766452350659234,-0.2178463045245595,0.6454086930520474,3.869999999999891,8.0,0.2985850650854586,0.3778501130824553,0.8529409422413066,3.2944266238957995,1.896753749447315,0.4104394801775017,0.8582556941627184,0.3247491544654135,-0.3899887735624148,0.0764454485666265
58,58,3.942999999999756,0.0,0.0164048189514632,-0.0814913563536554,0.9752856200902436,0.0160283760630249,-0.0384528847133839,0.9475213088961176,0.9359338479682338,-0.0528946103322301,-0.0172915142693112,0.3477513421389639,3.942999999999756,1.0,0.1581070979338991,-0.2057874189152581,0.9436258176836392,-0.56877073400591,-0.4653937798758379,-0.3214100157318064,0.9291417260029357,-0.1913666437860434,-0.1653297073615947,-0.2697045578222233,3.942999999999756,2.0,0.1796379888168388,-0.2854262952034639,0.9201603246066776,-0.3919859962680802,-0.3117870037245736,0.1082421521946785,0.9234381241704795,-0.2746570085071576,-0.1307973780064994,-0.2339179437602634,3.942999999999756,3.0,-0.077291870876907,0.2481570401643636,0.9433207567488432,0.038204488799298,0.3811110584201183,0.9972974096745486,0.9562233862961128,0.1958496336982943,0.1164551261959414,0.1836245083405972,3.94399999999996,4.0,0.0826075288381831,0.3346467121647517,0.916781639332164,0.3282018036310096,0.3882263277345393,0.6993179993536143,0.890023681443915,0.3003869080927663,0.0773710296041907,0.3341246409552521,3.915,5.0,0.0130818238431084,-0.4601234785590482,0.8639505196269397,-0.6023185926736755,0.5796218995186735,0.6566991506455881,0.6062719738668614,-0.3622656833943775,-0.011404453996897,0.707861431897103,3.915,6.0,-0.1308568893347056,-0.3393473932147668,0.907669169484117,-1.2925130439957826,1.143210490830954,0.0464039224450677,0.9580547979958614,-0.2310663043458758,0.0503066169211519,0.1618907388549348,3.915,7.0,0.3695131962848371,0.2811909764737627,0.8604941211426693,-0.048517436835108,-0.763793880451704,1.803661691582966,0.649064887210555,0.1856207554153657,-0.2457062233840374,0.6956207006262335,3.915,8.0,0.2085085307228953,0.4047165874361228,0.8621420570125543,0.699970826360671,1.5378455483503082,-0.232854243899897,0.8884457113481062,0.3440327958402102,-0.287088519291141,0.0994275387643978
59,59,3.972999999999956,0.0,0.0230934194886993,-0.0763272902954373,0.9768965343026226,0.0715288509869782,-0.22104286562434,0.8789959620890875,0.9200510866294744,-0.0444652653383876,-0.0249579314708688,0.3884661372977127,3.972999999999956,1.0,0.1777782856298146,-0.2160852761916895,0.9388301414908268,0.4314381574103049,-0.1081656496635526,0.5723432771535607,0.9425340439660718,-0.1712957847457881,-0.1606288706573218,-0.2376671958951033,3.97400000000016,2.0,0.186554808493259,-0.289619507841068,0.9175962315233978,0.3974728348646421,-0.155168724542077,0.812733804139291,0.9402721869568988,-0.2523889678744379,-0.1250908462472458,-0.1911551817652726,3.97400000000016,3.0,-0.0772164504753456,0.2309977122189379,0.9487569112926688,-0.5207520827374513,0.2957942320041505,1.1077918516030525,0.9495936496824114,0.1659591772874935,0.1109055124008145,0.241721780723229,3.97400000000016,4.0,0.0814125715263327,0.3144505212481765,0.9242439412212664,-0.7202381906636526,0.4167729152414753,1.4583028835156742,0.8757823225599317,0.2538505753303093,0.0592596514600872,0.4062677720479825,3.960000000000037,5.0,-0.0169543299784944,-0.481696723327858,0.8527847427283073,-0.417215403506771,0.2333567474697582,0.7630735078499766,0.5807386100570956,-0.3671017417700484,-0.0207974549475658,0.7263239248751575,3.960000000000037,6.0,-0.1669737573952477,-0.3783952412178327,0.8883731230541653,-1.3244771133701687,1.4165313896201333,0.5842858856641223,0.9309059169208168,-0.2995959344097502,0.1143705995285791,0.1748594175057077,3.960000000000037,7.0,0.3950971813056586,0.2358003950295791,0.8637582943325162,-1.2245267703894935,0.2141065926098429,-1.7147991807085683,0.7283441965957745,0.160811248582439,-0.2486584784347184,0.6179186311458357,3.960000000000037,8.0,0.118431996360332,0.4315830617897904,0.871343171783802,-1.8944849711744576,1.1789373472533011,-0.8761479679772958,0.9456247774022524,0.247914732494199,-0.205333707434457,0.0465847009917593
60,60,4.027000000000044,0.0,0.0415200280193137,-0.076386157592249,0.975689623907914,-0.1220017131358646,-0.2410981448515611,0.2057503616755344,0.9154662934397708,-0.0439526577739463,-0.0388759428488619,0.3980933188561018,4.027000000000044,1.0,0.1580680183845752,-0.1606923285594255,0.9533947121240622,1.613435860044647,0.4556830804653244,1.2008539342063975,0.9715928542249092,-0.089032841550296,-0.1411013462775794,-0.1678418565889599,4.027000000000044,2.0,0.1681781954854737,-0.2531683900163474,0.931653831022972,1.340295187504738,0.1628414757091421,1.1441014234791576,0.9684601279903312,-0.1812879706351172,-0.1124434425078293,-0.128748298757462,4.027000000000044,3.0,-0.0767054789261071,0.1692621313348306,0.9621156897165262,-1.151239434951587,-0.1718740210530427,0.8466842668751654,0.9490911182015696,0.1085827975690424,0.0788779476463077,0.2849808674246062,4.027999999999793,4.0,0.0405853306042739,0.223064654594519,0.9529973718800956,-1.930776143039028,1.485051696856187,1.2179732218043282,0.8680126063598154,0.1282195913827485,0.0736249137908402,0.4740181680646559,4.02599999999984,5.0,-0.0250341273531413,-0.4666885888302522,0.8616432286760538,0.9771493357758496,-0.9205149636081696,0.5878651092455918,0.585511397047007,-0.2884001411732076,-0.017698893706465,0.7574222809377231,4.02599999999984,6.0,-0.3507735388625035,-0.404548791580777,0.8199141416419213,-0.6987272382409431,2.2651757200058324,3.3260958777469645,0.8638161489625981,-0.3205365866112313,0.2600579639651388,0.2888733508189252,4.02599999999984,7.0,0.3316381779309684,0.301023538224367,0.8714326987057064,3.7015087544462326,2.3468310177981726,2.220333767859077,0.6645365461742236,0.1898487508723993,-0.0582210941517165,0.720388044589026,4.02599999999984,8.0,0.1379153361132006,0.2387570875071225,0.9402528453718706,-2.853924568305452,-1.081386493185796,2.34704501985267,0.95690494269654,0.0749645995289137,-0.2564316706385227,0.113824592043798
