Timestamp,Ax,Ay,Az,Rx,Ry,Rz,HR_value
0,-1.0806,0.3775,0.2101,-0.2943,0.8765,1.5154,154
0,-1.0939,0.3887,0.2316,-0.4109,0.7468,1.5122,154
0,-1.105,0.6041,0.1112,-0.2976,0.6486,1.2668,154
0,-1.0796,0.3,0.204,-0.5528,0.5265,0.9332,154
0,-1.0132,0.2643,0.1245,-0.652,0.4404,0.7304,154
0,-1.0704,0.3102,0.2122,-0.5996,0.424,0.6857,154
0,-1.0449,0.3,0.2296,-0.7249,0.4143,0.6083,154
0,-1.0755,0.0786,0.1775,-0.7249,0.4143,0.6083,154
0,-1.0755,0.0786,0.1775,-0.822,0.399,0.5364,154
0,-1.0989,0.0316,0.1898,-0.7544,0.3729,0.4666,154
0,-1.0908,-0.0214,0.1785,-0.6726,0.3227,0.3903,154
0,-1.0704,-0.1296,0.1663,-0.5702,0.2758,0.3216,154
0,-1.0724,-0.1663,0.1765,-0.4492,0.2409,0.2583,154
0,-1.0408,-0.1082,0.2183,-0.3489,0.1995,0.1886,154
0,-1.0051,-0.2316,0.1877,-0.2442,0.1711,0.1308,154
0,-0.9601,-0.2724,0.1918,-0.1155,0.1461,0.1177,154
0,-0.9285,-0.2449,0.1867,-0.0381,0.1188,0.1177,154
0,-0.9183,-0.2101,0.1663,-0.0381,0.1188,0.1177,154
0,-0.9183,-0.2101,0.1663,0.0511,0.1047,0.1373,154
0,-0.9367,-0.1908,0.1275,0.157,0.0969,0.1515,154
0,-0.9418,-0.1561,0.1041,0.2398,0.0937,0.1461,154
0,-0.9418,-0.1132,0.0887,0.326,0.0883,0.157,154
0,-0.9622,-0.0622,0.0806,0.3848,0.0894,0.1722,154
0,-0.9938,-0.002,0.0806,0.3968,0.0708,0.1831,154
0,-1.0347,0.0255,0.0693,0.3891,0.0589,0.1842,154
0,-1.0336,0.0561,0.0745,0.3804,0.0392,0.1875,154
0,-1.0357,0.0693,0.0755,0.339,0.0425,0.2093,154
0,-1.0643,0.1469,0.0704,0.339,0.0425,0.2093,154
0,-1.0704,0.1061,0.0398,0.2245,0.0185,0.0894,154
0,-1.0704,0.1061,0.0398,0.0948,-0.0065,0.0141,154
0,-1.0745,0.0836,0.0265,0.0664,-0.0152,-0.0511,154
0,-1.0551,0.0663,0.0377,0.0414,-0.0261,-0.1089,154
0,-1.0561,0.0551,0.0388,-0.0087,-0.0282,-0.1635,154
0,-1.0306,0.0408,0.0571,-0.061,-0.037,-0.2104,154
0,-1.0275,0.0081,0.0622,-0.0872,-0.0261,-0.2703,154
0,-1.0,-0.0418,0.1245,-0.0925,-0.024,-0.3314,154
0,-1.0306,-0.0622,0.1663,-0.1286,-0.0174,-0.4109,154
0,-1.0479,-0.0796,0.2204,-0.1286,-0.0174,-0.4109,154
0,-1.2092,-0.1571,0.3663,-0.2049,-0.0053,-0.483,154
0,-1.2092,-0.1571,0.3663,-0.1951,0.012,-0.4775,154
0,-1.2979,-0.1398,0.4592,-0.1667,0.0337,-0.5156,154
0,-1.3152,-0.1816,0.5173,-0.2464,0.0534,-0.5647,154
0,-1.3448,-0.2285,0.5449,-0.338,0.1047,-0.569,154
0,-1.204,-0.4102,0.3837,-0.2922,0.1547,-0.5887,154
0,-1.0867,-0.4836,0.353,-0.073,0.1907,-0.5767,154
0,-0.9663,-0.5867,0.3316,0.1024,0.23,-0.4938,154
0,-0.9357,-0.252,0.2092,0.1024,0.23,-0.4938,154
0,-0.9357,-0.252,0.2092,0.1962,0.2169,-0.2682,154
0,-0.6775,-0.2101,0.1551,0.3237,0.1438,-0.2191,154
0,-0.6775,-0.2101,0.1551,0.4099,0.086,-0.1438,154
0,-0.6714,-0.1796,0.151,0.4578,0.0282,-0.0839,154
0,-0.7336,-0.105,0.2632,0.5059,-0.0053,-0.0675,154
0,-0.7479,-0.0734,0.3459,0.5221,-0.0152,-0.0719,154
0,-0.7775,-0.0847,0.401,0.4589,0.0162,-0.0839,154
0,-0.7836,-0.1265,0.4235,0.3739,0.0631,-0.0925,154
0,-0.7724,-0.2836,0.3632,0.3521,0.1209,-0.0894,154
0,-0.7653,-0.3224,0.3265,0.3521,0.1209,-0.0894,154
0,-0.7653,-0.3224,0.3265,0.4557,0.194,-0.073,154
0,-0.7734,-0.3071,0.2969,0.6181,0.2485,-0.0414,154
0,-0.8152,-0.2326,0.2898,0.7293,0.2758,-0.0174,154
0,-0.8081,-0.2,0.2622,0.7359,0.2617,0.0228,154
0,-0.8112,-0.1959,0.2632,0.6978,0.2507,0.0523,154
0,-0.8316,-0.1918,0.2693,0.6596,0.2518,0.0795,154
0,-0.8377,-0.2112,0.3112,0.6421,0.2737,0.1047,154
0,-0.8428,-0.2051,0.3265,0.6629,0.3096,0.1253,154
0,-0.8663,-0.1837,0.3448,0.7064,0.3489,0.1341,154
0,-0.8622,-0.1296,0.3653,0.7064,0.3489,0.1341,154
0,-0.8367,-0.1061,0.3418,0.7337,0.3958,0.1253,154
0,-0.8367,-0.1061,0.3418,0.7435,0.4263,0.1035,154
0,-0.8132,-0.0806,0.3469,0.7632,0.4687,0.0654,154
0,-0.8122,-0.0571,0.3489,0.7478,0.5189,0.0141,154
0,-0.7795,-0.0224,0.3173,0.7163,0.5723,-0.0185,154
0,-0.7643,0.0,0.299,0.6955,0.6356,-0.0469,154
0,-0.754,0.0143,0.2847,0.6672,0.6988,-0.0719,154
0,-0.7245,0.0847,0.1622,0.5799,0.8056,-0.085,154
0,-0.7061,0.1337,0.1449,0.5059,0.8449,-0.11,154
0,-0.7071,0.1255,0.1489,0.3695,0.8656,-0.1493,154
0,-0.8448,-0.0652,0.1765,0.2234,0.8754,-0.1613,154
0,-0.8918,-0.1418,0.1908,0.2234,0.8754,-0.1613,154
0,-0.8918,-0.1418,0.1908,0.2049,0.8427,-0.1242,154
0,-0.8979,-0.1296,0.1837,0.2987,0.8231,-0.0479,154
0,-0.9418,-0.1173,0.1346,0.3935,0.8634,0.0566,154
0,-1.25,-0.1346,0.1265,0.4372,0.895,0.1493,154
0,-1.4285,-0.1755,0.151,0.4786,0.8187,0.2583,154
0,-1.5663,-0.2581,0.1622,0.5658,0.652,0.4143,154
0,-1.4398,-0.2071,-0.0092,0.7762,0.4295,0.6051,154
0,-1.3255,-0.1214,-0.0755,1.1001,0.3019,0.7718,154
0,-1.2469,-0.0377,-0.0979,1.3355,0.2539,0.979,154
0,-1.204,0.1785,-0.1837,1.3355,0.2539,0.979,154
0,-1.204,0.1785,-0.1837,1.3933,0.1852,1.1862,154
0,-1.0877,0.3296,-0.2408,1.5448,0.1112,1.0848,154
0,-1.0734,0.3173,-0.2112,1.595,0.0414,1.0761,154
0,-0.9642,0.401,-0.15,1.8611,0.1068,1.0412,154
0,-0.9928,0.8969,-0.7377,2.1194,0.3096,1.0499,154
0,-0.8755,0.8296,-0.1449,1.5328,-0.1852,0.8668,154
0,-0.7888,0.7775,-0.1163,1.1633,-0.4578,0.9191,154
0,-0.9214,0.8826,-0.3234,1.0499,-0.2878,0.9452,154
0,-1.0295,0.8387,-0.1755,0.8449,-0.3216,0.8144,154
0,-1.0898,0.8632,-0.1735,0.8449,-0.3216,0.8144,154
0,-1.1214,0.8826,-0.1346,0.6312,-0.3717,0.7947,154
0,-1.1214,0.8826,-0.1346,0.4927,-0.4775,0.7686,154
0,-1.1357,0.8765,-0.1143,0.387,-0.5179,0.713,154
0,-1.1163,0.9438,-0.0908,0.1503,-0.4862,0.6268,154
0,-1.1112,0.9285,-0.0979,-0.0915,-0.4797,0.5549,154
0,-1.0571,0.9255,-0.0969,-0.2867,-0.496,0.5091,154
0,-0.9847,0.902,-0.1367,-0.4841,-0.5047,0.4687,154
0,-0.9642,0.8561,-0.1581,-0.6923,-0.5112,0.4099,154
0,-0.9561,0.7918,-0.2133,-0.8493,-0.5255,0.3336,154
0,-0.9306,0.7632,-0.2101,-0.8493,-0.5255,0.3336,154
0,-0.9387,0.7255,-0.2296,-0.942,-0.544,0.2529,154
0,-0.9387,0.7255,-0.2296,-1.0215,-0.5582,0.1657,154
1,-0.95,0.6867,-0.2316,-1.1055,-0.5549,0.0381,154
1,-0.9438,0.6541,-0.1642,-1.2428,-0.5549,-0.061,154
1,-0.953,0.5388,-0.1551,-1.4086,-0.5244,-0.1984,154
1,-0.9132,0.4775,-0.1143,-1.449,-0.4916,-0.3336,154
1,-0.9,0.4408,-0.0867,-1.45,-0.4295,-0.4687,154
1,-0.8928,0.4041,-0.0673,-1.4696,-0.3597,-0.5799,154
1,-0.8448,0.3224,-0.0479,-1.4696,-0.3597,-0.5799,154
1,-0.8448,0.3224,-0.0479,-1.4816,-0.2768,-0.6749,154
1,-0.7969,0.2806,-0.0224,-1.4641,-0.182,-0.7544,154
1,-0.7969,0.2806,-0.0224,-1.4412,-0.0784,-0.8242,154
1,-0.7918,0.2531,-0.0112,-1.4162,0.0228,-0.8897,154
1,-0.8959,0.1755,0.0163,-1.3944,0.1112,-0.9408,154
1,-1.0153,0.1153,0.0398,-1.3432,0.182,-0.9877,154
1,-1.1479,0.0734,0.0898,-1.2439,0.2005,-1.0118,154
1,-1.2347,0.1102,0.2908,-1.1404,0.1711,-1.0499,154
1,-1.1744,0.0918,0.3571,-1.1077,0.1482,-1.1316,154
1,-1.0714,0.0602,0.3724,-1.1077,0.1482,-1.1316,154
1,-1.0714,0.0602,0.3724,-1.1654,0.1352,-1.2079,154
1,-0.8765,0.001,0.3704,-1.2722,0.1396,-1.2418,154
1,-0.7469,-0.2101,0.2428,-1.3323,0.1701,-1.2571,154
1,-0.7234,-0.4142,0.0887,-1.3105,0.1678,-1.2865,154
1,-0.6489,-0.6592,0.0092,-0.967,0.1428,-1.3464,154
1,-1.004,-0.4612,-0.0347,-0.3346,0.1144,-1.1753,154
1,-0.9449,-0.4387,0.1132,0.193,-0.1003,-1.2254,154
1,-1.0969,-0.1806,0.3612,0.3063,-0.2147,-1.0913,154
1,-1.2163,-0.3122,0.2602,0.0425,-0.2714,-1.0782,154
1,-1.4051,-0.6898,0.3989,0.0425,-0.2714,-1.0782,154
1,-1.4653,-0.8306,0.3734,-0.1919,-0.3641,-1.0587,154
1,-1.4653,-0.8306,0.3734,-0.1646,-0.4273,-0.991,154
1,-1.5071,-0.9938,0.351,0.1711,-0.4536,-0.9441,154
1,-1.5183,-1.1612,0.3041,0.6312,-0.4938,-0.8307,154
1,-1.4612,-0.9897,0.2214,1.0128,-0.5156,-0.5789,154
1,-1.3163,-0.9826,0.1622,1.3552,-0.5734,-0.5309,154
1,-1.2051,-0.9142,0.1153,1.68,-0.6127,-0.4263,154
1,-0.9663,-0.6765,0.0295,1.9765,-0.6291,-0.314,154
1,-0.8704,-0.5643,0.0132,1.9765,-0.6291,-0.314,154
1,-0.7836,-0.4633,0.0887,2.2481,-0.64,-0.2573,154
1,-0.7316,-0.4081,0.0684,2.4422,-0.6585,-0.2049,154
1,-0.7316,-0.4081,0.0684,2.5251,-0.6301,-0.1613,154
1,-0.65,-0.2969,0.102,2.5904,-0.5713,-0.0894,154
1,-0.6285,-0.2388,0.1112,2.6591,-0.496,-0.0545,154
1,-0.6194,-0.1837,0.1265,2.7409,-0.3968,-0.0818,154
1,-0.603,0.0286,0.1122,2.8216,-0.2922,-0.1112,154
1,-0.5714,-0.0081,0.1418,2.9208,-0.1798,-0.206,154
1,-0.605,0.0,0.1428,2.9458,-0.0523,-0.3368,154
1,-0.6194,0.0428,0.1102,2.9458,-0.0523,-0.3368,154
1,-0.6744,0.1326,0.0204,2.9578,0.085,-0.3674,154
1,-0.7101,0.2142,0.0173,3.0167,0.2398,-0.4164,154
1,-0.7101,0.2142,0.0173,3.093,0.375,-0.4546,154
1,-0.7326,0.2643,-0.0193,3.0767,0.4841,-0.4982,154
1,-0.7918,0.3612,-0.0602,2.9851,0.5745,-0.4698,154
1,-0.8193,0.4347,-0.0612,2.826,0.6333,-0.3542,154
1,-0.8428,0.4459,-0.0786,2.598,0.6574,-0.2627,154
1,-0.8316,0.4949,-0.1337,2.4225,0.6541,-0.2485,154
1,-0.7581,0.6071,-0.0908,2.2579,0.6181,-0.2844,154
1,-0.8163,0.3765,-0.1337,2.0933,0.6225,-0.3205,154
1,-0.8163,0.3765,-0.1337,2.0933,0.6225,-0.3205,154
1,-0.6337,0.6489,0.0612,1.9395,0.628,-0.2966,154
1,-0.7285,0.65,-0.0643,1.5514,0.6333,-0.4065,154
1,-0.6234,0.3867,-0.0449,1.4217,0.6225,-0.5135,154
1,-0.6082,0.4163,0.0286,1.4292,0.7108,-0.5593,154
1,-0.5867,0.3132,-0.0663,1.2897,0.7632,-0.5942,154
1,-0.5265,0.1418,-0.0388,1.2374,0.8285,-0.6388,154
1,-0.5479,0.1938,-0.1143,1.1436,0.8775,-0.5843,154
1,-0.5,0.1194,-0.0939,1.0106,0.9158,-0.5745,154
1,-0.5153,0.0622,-0.1337,0.9191,0.9648,-0.5331,154
1,-0.5306,-0.0551,-0.1255,0.9191,0.9648,-0.5331,154
1,-0.5306,-0.0551,-0.1255,0.9071,1.0106,-0.4916,154
1,-0.5224,-0.1082,-0.1755,0.9038,1.0509,-0.4731,154
1,-0.5939,-0.1632,-0.1959,0.9071,1.0761,-0.4349,154
1,-0.8785,-0.0948,-0.2388,0.9431,1.1665,-0.3783,154
1,-0.8714,-0.3439,-0.1296,0.7838,1.1938,-0.4153,154
1,-1.1398,-0.4775,-0.1214,0.6923,1.2962,-0.3761,154
1,-1.5959,-1.0316,-0.0265,1.4925,1.3693,-0.0883,154
1,-1.7,-1.0153,0.1714,2.1871,1.1938,0.2737,154
1,-1.8306,-0.9734,0.6296,2.7703,1.0761,0.3172,154
1,1.7745,-1.0969,-0.0398,2.8096,1.1339,0.4382,154
1,1.8041,-0.7867,-0.1224,2.8096,1.1339,0.4382,154
1,1.8041,-0.7867,-0.1224,3.2926,0.8744,0.5713,154
1,-1.6908,-0.3541,-0.4153,3.7134,0.6617,0.5647,154
1,-1.6908,-0.3541,-0.4153,3.7189,0.4971,0.7447,154
1,-1.1694,0.1408,-0.4601,3.5346,0.2245,0.9299,154
1,-1.0775,0.152,-0.5714,3.7647,0.0555,0.871,154
1,-0.9479,0.2377,-0.2357,4.1212,-0.0784,0.6606,154
1,-0.903,0.2847,-0.2612,4.1724,-0.0589,0.6291,154
1,-0.8694,0.4561,-0.1469,4.2291,-0.0774,0.5723,154
1,-0.8683,0.4928,-0.1398,4.239,-0.0806,0.4219,154
1,-0.8377,0.5857,-0.1,4.239,-0.0806,0.4219,154
1,-0.8377,0.5857,-0.1,4.2575,-0.0435,0.2147,154
1,-0.8724,0.7377,-0.1163,4.2859,0.012,0.1526,154
1,-0.8775,0.701,0.0408,4.131,-0.0555,0.2518,154
1,-0.7408,0.754,0.0,3.8748,0.0479,0.1024,154
1,-0.8653,0.5918,-0.1132,3.829,0.2245,-0.0294,154
1,-0.9092,0.7592,-0.05,3.7865,0.243,-0.0763,154
1,-0.952,0.6796,-0.1194,3.6186,0.3227,-0.1701,154
1,-0.9775,0.7071,-0.0908,3.5063,0.351,-0.1537,154
1,-1.0418,0.651,-0.1285,3.37,0.3903,-0.1766,154
1,-1.0704,0.6214,-0.153,3.37,0.3903,-0.1766,154
1,-1.0786,0.6337,-0.1489,3.2567,0.4055,-0.1766,154
1,-1.0786,0.6337,-0.1489,3.2195,0.3979,-0.1623,154
1,-1.0673,0.6816,-0.1398,3.1552,0.3597,-0.1428,154
1,-1.0255,0.7734,-0.1245,3.0341,0.3052,-0.1341,154
1,-0.9796,0.8306,-0.1122,2.8826,0.2409,-0.1329,154
1,-0.9255,0.8939,-0.1,2.7213,0.1842,-0.1503,154
1,-0.7969,1.0071,-0.049,2.5272,0.1537,-0.2049,154
1,-0.7367,1.0479,0.0061,2.2949,0.1613,-0.2529,154
1,-0.6898,1.1214,-0.0214,2.0257,0.2104,-0.2747,154
1,-0.6551,1.1867,0.0286,2.0257,0.2104,-0.2747,154
1,-0.7306,1.2133,0.0908,1.7128,0.2016,-0.4088,154
2,-0.8143,1.2214,0.0643,1.366,0.2911,-0.5614,154
2,-0.8143,1.2214,0.0643,0.9965,0.3565,-0.6814,154
2,-0.9418,1.1541,0.0469,0.5582,0.4273,-0.7751,154
2,-1.1245,1.0326,0.0286,0.0152,0.4153,-0.8329,154
2,-1.3602,0.4408,-0.0561,-0.3107,0.3597,-0.942,154
2,-1.2867,0.2816,-0.002,-0.4065,0.2016,-0.9997,154
2,-1.3071,0.2714,-0.0275,-0.5669,0.0806,-0.9452,154
2,-1.1,0.0469,-0.0275,-0.5669,0.0806,-0.9452,154
2,-1.0081,-0.1224,-0.0438,-0.7697,-0.0228,-0.8983,154
2,-0.9377,-0.2397,-0.1387,-1.027,-0.0654,-0.7903,154
2,-0.9377,-0.2397,-0.1387,-1.1894,-0.0087,-0.6562,154
2,-0.9275,-0.2663,-0.153,-1.2102,-0.0087,-0.5745,154
2,-0.8122,-0.4387,-0.2245,-1.3573,-0.0457,-0.5484,154
2,-0.8448,-0.4622,-0.2969,-1.5133,0.0206,-0.3729,154
2,-0.8632,-0.4102,-0.4244,-1.3889,0.0577,-0.2878,154
2,-0.903,-0.5112,-0.4459,-1.3399,0.0272,-0.1776,154
2,-0.8949,-0.5388,-0.4663,-1.3497,-0.0108,-0.1024,154
2,-0.9235,-0.5581,-0.5775,-1.3563,-0.0523,-0.0141,154
2,-0.9235,-0.5581,-0.5775,-1.3563,-0.0523,-0.0141,154
2,-0.8857,-0.6469,-0.5132,-1.2232,-0.0937,0.1024,154
2,-0.9418,-0.7347,-0.4745,-1.2167,-0.074,0.2136,154
2,-0.9142,-0.7285,-0.4785,-1.1022,-0.1188,0.2659,154
2,-0.9326,-0.7755,-0.5275,-1.027,-0.1526,0.2922,154
2,-0.9683,-0.8387,-0.4428,-0.7424,-0.1995,0.3456,154
2,-0.949,-0.855,-0.4041,-0.3456,-0.2365,0.412,154
2,-0.9592,-0.851,-0.3306,0.0469,-0.3063,0.4109,154
2,-0.9449,-0.8041,-0.2724,0.4284,-0.326,0.3325,154
2,-0.8785,-0.752,-0.1224,0.7457,-0.3336,0.1962,154
2,-0.8653,-0.7397,-0.0908,0.7457,-0.3336,0.1962,154
2,-0.8653,-0.7397,-0.0908,0.9714,-0.3216,-0.0174,154
2,-0.8898,-0.752,-0.0836,1.1938,-0.2834,-0.3172,154
2,-0.949,-0.7836,-0.1091,1.4412,-0.2507,-0.6028,154
2,-1.1837,-1.053,-0.0786,1.0488,-0.0555,0.0337,154
2,-1.2653,-1.3775,0.0602,1.1164,-0.036,0.2518,154
2,-1.6459,-1.4275,0.1469,1.5831,0.1526,0.6442,154
2,-1.7531,-1.2683,-0.1163,1.9995,-0.1079,0.9582,154
2,-1.8979,-0.9816,-0.3632,2.6711,-0.1482,0.6171,154
2,-1.3643,-0.5755,-0.1724,3.7363,-0.2823,0.3172,154
2,-1.2786,-0.3459,-0.1714,3.7363,-0.2823,0.3172,154
2,-0.7112,-0.1387,-0.3663,3.949,-0.2169,0.0523,154
2,-0.7112,-0.1387,-0.3663,3.8388,-0.3237,0.1253,154
2,-0.4377,0.1561,-0.3939,3.8792,-0.2398,0.4263,154
2,-0.5316,-0.2336,-0.1255,3.4921,-0.2115,0.7533,154
2,-0.5704,0.8367,-0.8459,3.4746,-0.1798,1.0913,154
2,-0.1673,0.5806,-0.5643,3.9424,-0.3151,0.6955,154
2,-0.2765,0.7643,-0.0847,3.5848,-0.2823,0.6127,154
2,-0.3255,0.5388,-0.0183,3.3493,0.0555,0.665,154
2,-0.5071,0.4877,-0.2377,3.3493,0.0555,0.665,154
2,-0.4367,0.5836,-0.0286,3.2369,0.2966,0.6749,154
2,-0.4969,0.7163,0.0398,3.4017,0.2737,0.6312,154
2,-0.4969,0.7163,0.0398,3.5978,0.4763,0.6846,154
2,-0.4867,0.85,0.0989,3.636,0.7163,0.8176,154
2,-0.551,1.1153,-0.0336,3.5749,1.0412,1.0009,154
2,-0.6194,1.2765,-0.0224,3.684,1.3769,1.1033,154
2,-1.2857,1.9949,-0.3469,3.2915,1.3824,0.846,154
2,-1.2765,1.605,-0.3632,2.7464,1.0226,0.0599,154
2,-1.5398,1.801,-0.3326,2.5751,0.8744,-0.2518,154
2,-1.452,1.9999,-0.2469,2.5751,0.8744,-0.2518,154
2,-1.452,1.9999,-0.2469,1.9658,0.6225,-0.2932,154
2,-1.3959,1.9938,-0.2418,1.0477,0.4611,-0.0599,154
2,-1.6153,1.6255,-0.2214,0.0654,0.3575,0.0402,154
2,-1.451,1.4255,-0.2245,-0.3859,0.1417,-0.0937,154
2,-1.3602,1.4132,-0.0948,-0.471,0.061,-0.2485,154
2,-1.1183,1.2571,-0.0347,-0.809,0.0032,-0.399,154
2,-1.1642,1.0459,-0.049,-1.2319,0.0217,-0.5505,154
2,-1.0255,0.952,-0.0581,-1.5034,-0.0414,-0.5734,154
2,-1.053,0.8877,-0.0622,-1.7291,-0.0174,-0.6138,154
2,-1.1418,0.6959,-0.1408,-1.7291,-0.0174,-0.6138,154
2,-1.1418,0.6959,-0.1408,-1.945,-0.0621,-0.726,154
2,-1.25,0.6061,-0.1398,-2.078,-0.1274,-0.87,154
2,-1.2653,0.5163,-0.1765,-2.2142,-0.2442,-0.9899,154
2,-1.2877,0.4183,-0.152,-2.3832,-0.3412,-1.0357,154
2,-1.2051,0.1245,-0.1663,-2.5915,-0.4295,-0.9866,154
2,-1.1683,0.0479,-0.1775,-2.681,-0.4753,-0.9191,154
2,-0.8367,-0.4092,-0.1163,-3.0625,-0.4938,-1.0019,154
2,-0.901,-0.5693,-0.2234,-3.1606,-0.5015,-0.9387,154
2,-0.6337,-0.5143,-0.2377,-3.189,-0.4687,-1.1087,154
2,-0.6041,-0.8286,-0.2561,-3.2544,-0.4208,-0.9246,154
2,-0.5428,-0.5388,-0.5581,-3.2544,-0.4208,-0.9246,154
2,-0.6122,-0.5398,-0.5704,-2.9372,-0.4328,-0.6574,154
2,-0.5092,-0.4867,-0.5286,-2.4607,-0.4143,-0.5124,154
2,-0.5092,-0.4867,-0.5286,-2.0148,-0.4414,-0.3935,154
2,-0.5183,-0.4326,-0.4633,-1.9832,-0.4426,-0.3019,154
2,-0.5347,-0.5469,-0.5275,-2.115,-0.4208,-0.2039,154
2,-0.5622,-0.6091,-0.5816,-2.1335,-0.4,-0.0784,154
2,-0.6041,-0.6091,-0.5816,-1.9734,-0.3979,0.0206,154
2,-0.6357,-0.6449,-0.4826,-1.8065,-0.3401,0.0774,154
2,-0.6275,-0.7643,-0.4235,-1.7018,-0.2529,0.1558,154
2,-0.6755,-0.8255,-0.3755,-1.6713,-0.1362,0.3193,154
2,-0.6755,-0.8255,-0.3755,-1.6713,-0.1362,0.3193,154
2,-0.6765,-0.9255,-0.2755,-1.5351,-0.0206,0.4469,154
2,-0.7602,-1.0398,-0.1928,-1.2756,0.182,0.5102,154
2,-0.851,-1.1265,-0.1224,-0.7184,0.3412,0.4992,154
2,-0.8837,-1.2051,-0.051,-0.0904,0.4633,0.3783,154
2,-1.0132,-1.6949,0.0204,0.3532,0.6181,0.2495,154
2,-1.5122,-1.1337,-0.1735,0.6171,0.665,0.6465,154
2,-1.3928,-1.0367,-0.2173,0.6116,0.4492,0.5974,154
2,-1.4061,-0.8887,-0.3714,0.6432,0.2737,0.495,154
2,-1.4755,-0.7632,-0.5163,0.665,-0.0511,0.424,154
2,-1.3908,-0.6744,-0.5847,0.665,-0.0511,0.424,154
2,-1.3908,-0.6744,-0.5847,0.9626,-0.3445,0.3968,154
2,-1.3265,-0.6326,-0.1071,0.9038,-0.4349,0.35,154
2,-1.1969,-0.8061,-0.254,0.9179,-0.4448,0.3838,154
2,-1.1785,-0.8428,-0.1918,1.1873,-0.5364,0.4884,154
2,-1.1816,-0.6653,-0.0693,1.4653,-0.4077,0.4742,154
2,-1.2459,-0.5755,0.0469,1.8054,-0.3685,0.4927,154
2,-1.1755,-0.3796,-0.0326,2.0802,-0.3281,0.5179,154
2,-1.1071,-0.3041,-0.0367,2.2111,-0.412,0.6192,154
2,-0.9836,-0.2438,-0.1653,2.3418,-0.496,0.6857,154
2,-0.7643,0.0551,-0.303,2.3418,-0.496,0.6857,154
3,-0.5918,-0.0479,-0.2,2.6024,-0.545,0.7217,154
3,-0.5918,-0.0479,-0.2,2.899,-0.5135,0.6988,154
3,-0.702,0.3152,-0.0602,2.8761,-0.4906,0.966,154
3,-0.7704,1.2214,0.2786,3.3307,-0.4458,0.7588,154
3,-0.35,1.2653,0.1816,3.0287,-0.3096,0.2594,154
3,-0.4642,0.8051,0.3051,1.4719,-0.1274,0.2834,154
3,-0.853,0.4796,0.1969,1.5154,0.1482,0.507,154
3,-0.7316,0.9081,0.0459,1.5099,0.1079,0.2725,154
3,-0.7336,0.8122,0.2316,1.4009,0.1995,0.037,154
3,-0.8316,0.7,0.1479,1.4009,0.1995,0.037,154
3,-0.8214,0.5479,-0.0081,1.2037,0.4187,-0.1035,154
3,-0.8214,0.5479,-0.0081,1.2386,0.4502,-0.085,154
3,-0.8704,0.7112,-0.0469,1.2941,0.495,-0.11,154
3,-0.8439,0.6744,-0.0969,1.1218,0.4862,-0.049,154
3,-0.9285,0.6337,-0.1775,1.0357,0.4992,0.0185,154
3,-0.8857,0.7234,-0.1326,0.9845,0.4775,0.085,154
3,-0.9306,0.8357,-0.0806,0.8634,0.4589,0.1831,154
3,-0.9479,0.8826,-0.0571,0.6552,0.4546,0.2594,154
3,-0.9949,0.853,-0.0693,0.6552,0.4546,0.2594,154
3,-0.9949,0.853,-0.0693,0.4568,0.4361,0.326,154
3,-1.0724,0.9592,-0.0591,0.3193,0.4077,0.351,154
3,-1.0724,0.9592,-0.0591,0.1384,0.3761,0.3346,154
3,-1.0918,0.9459,-0.0918,-0.049,0.3248,0.2758,154
3,-1.1091,0.9469,-0.102,-0.2245,0.2682,0.1951,154
3,-1.1071,0.9418,-0.0877,-0.4338,0.2169,0.0937,154
3,-1.0847,0.8949,-0.0857,-0.664,0.1722,-0.0097,154
3,-1.0245,0.8112,-0.0826,-0.8842,0.1428,-0.1068,154
3,-0.9877,0.7133,-0.105,-1.0292,0.1209,-0.1831,154
3,-0.9908,0.652,-0.0979,-1.0772,0.1024,-0.2518,154
3,-0.9908,0.652,-0.0979,-1.0772,0.1024,-0.2518,154
3,-1.0551,0.6785,-0.0765,-1.1698,0.0675,-0.3248,154
3,-1.1153,0.6785,-0.053,-1.4336,0.0053,-0.4055,154
3,-1.2316,0.4469,-0.0979,-1.7237,-0.0621,-0.5091,154
3,-1.2418,0.2928,-0.0867,-1.8763,-0.1352,-0.5963,154
3,-1.2388,0.1489,-0.0214,-1.9395,-0.1493,-0.6159,154
3,-1.2979,0.0918,0.0051,-1.9919,-0.1079,-0.6072,154
3,-1.3102,-0.2173,0.1306,-2.2023,-0.0675,-0.6585,154
3,-1.2612,-0.3602,-0.0286,-2.4258,-0.0305,-0.6356,154
3,-1.203,-0.2959,0.0388,-2.4258,-0.0305,-0.6356,154
3,-0.6653,-0.9561,-0.3612,-2.561,0.0011,-0.6083,154
3,-0.6653,-0.9561,-0.3612,-2.7496,0.0839,-0.726,154
3,-1.103,-0.8041,-0.6755,-2.8052,0.2278,-0.52,154
3,-1.0234,-0.4469,-0.8152,-2.4389,-0.0589,-0.5635,154
3,-0.6275,-0.6439,-0.5408,-1.6615,-0.2693,-0.6028,154
3,-0.6785,-0.3887,-0.5479,-1.2668,-0.2768,-0.4044,154
3,-0.5306,-0.2877,-0.5051,-1.0335,-0.4404,-0.2539,154
3,-0.5061,-0.2673,-0.4806,-1.0477,-0.4404,-0.2081,154
3,-0.452,-0.2275,-0.3469,-1.0662,-0.4687,-0.0894,154
3,-0.4714,-0.2755,-0.2724,-1.0662,-0.4687,-0.0894,154
3,-0.4683,-0.3673,-0.2081,-1.1491,-0.471,-0.0261,154
3,-0.4683,-0.3673,-0.2081,-1.2069,-0.4524,0.0349,154
3,-0.5173,-0.4653,-0.1602,-1.1207,-0.363,0.0959,154
3,-0.6387,-0.6275,-0.0367,-0.9191,-0.2485,0.1406,154
3,-0.7122,-0.7183,-0.0418,-0.6672,-0.0217,0.1657,154
3,-0.7806,-0.7326,-0.0591,-0.4546,0.2224,0.2039,154
3,-0.8591,-0.7479,-0.0806,-0.3695,0.4338,0.2256,154
3,-0.9928,-0.8143,-0.1439,-0.4197,0.5833,0.2518,154
3,-1.1204,-0.8152,-0.2469,-0.4775,0.6923,0.2725,154
3,-1.2101,-0.901,-0.3163,-0.4775,0.6923,0.2725,154
3,-1.4428,-0.9347,-0.4428,-0.3685,0.6715,0.2539,154
3,-1.4428,-0.9347,-0.4428,-0.0087,0.5255,0.3542,154
3,-1.4642,-0.8091,-0.3561,0.4524,0.2638,0.4153,154
3,-1.4653,-0.6714,-0.3061,0.6552,0.0698,0.3903,154
3,-1.3918,-0.5571,-0.351,0.6694,-0.0818,0.3619,154
3,-1.2296,-0.4908,-0.3643,0.6454,-0.1984,0.3466,154
3,-1.1071,-0.4908,-0.3541,0.7184,-0.2737,0.3336,154
3,-1.0612,-0.4979,-0.2959,0.8199,-0.3052,0.3336,154
3,-1.0551,-0.5326,-0.2357,0.9452,-0.2899,0.3456,154
3,-1.0928,-0.5541,-0.1949,0.9452,-0.2899,0.3456,154
3,-1.0928,-0.5541,-0.1949,1.0837,-0.2834,0.3695,154
3,-1.105,-0.5357,-0.1938,1.2603,-0.2954,0.4132,154
3,-1.1296,-0.5224,-0.1785,1.5154,-0.339,0.4536,154
3,-1.0724,-0.3918,-0.0969,1.7869,-0.4187,0.5059,154
3,-1.0295,-0.2857,-0.0939,2.0278,-0.4568,0.5538,154
3,-0.9061,-0.1265,-0.1418,2.4967,-0.4841,0.6869,154
3,-0.8326,0.0347,-0.1581,2.8477,-0.5408,0.8439,154
3,-0.7388,1.0755,-0.15,3.1694,-0.6846,0.9921,154
3,-0.6826,0.7693,0.203,3.1192,-0.6377,0.4023,154
3,-0.5816,0.7857,0.0959,2.6362,-0.2224,0.2693,154
3,-0.6571,1.2071,0.1581,2.6362,-0.2224,0.2693,154
3,-0.6346,0.8387,-0.0122,2.0616,0.1482,0.557,154
3,-0.751,0.4847,-0.1561,1.2842,0.2747,0.326,154
3,-0.751,0.4847,-0.1561,1.3922,0.3117,0.2398,154
3,-0.7857,0.7795,-0.0347,1.5711,0.4481,0.0675,154
3,-0.7683,0.7755,0.0632,1.3878,0.544,-0.0282,154
3,-0.7765,0.6449,-0.1071,1.2974,0.6247,-0.1133,154
3,-0.7714,0.751,-0.1163,1.354,0.652,-0.1547,154
3,-0.7704,0.7153,-0.1265,1.2069,0.6661,-0.1657,154
3,-0.7734,0.6418,-0.1887,1.0215,0.6726,-0.1493,154
3,-0.7949,0.5684,-0.1949,0.9648,0.6541,-0.098,154
3,-0.8357,0.5704,-0.1469,0.9648,0.6541,-0.098,154
3,-0.8785,0.5336,-0.153,0.9124,0.6421,-0.025,154
3,-0.8785,0.5336,-0.153,0.8449,0.6476,0.0566,154
3,-0.9367,0.5724,-0.1102,0.8275,0.653,0.1471,154
3,-1.0745,0.6969,-0.0612,0.7708,0.6345,0.2268,154
3,-1.1541,0.7397,-0.0673,0.6541,0.6213,0.2627,154
3,-1.2275,0.7806,-0.0724,0.5309,0.5647,0.2583,154
3,-1.2673,0.8091,-0.0796,0.375,0.4786,0.2049,154
3,-1.3336,0.8173,-0.1102,0.2005,0.3729,0.1373,154
3,-1.3255,0.801,-0.1285,0.0337,0.2747,0.0435,154
3,-1.3255,0.801,-0.1285,0.0337,0.2747,0.0435,154
3,-1.3,0.7928,-0.1204,-0.1188,0.1962,-0.0479,154
3,-1.2734,0.7765,-0.1112,-0.2758,0.1341,-0.1318,154
3,-1.1979,0.7397,-0.0867,-0.4328,0.0818,-0.2104,154
3,-1.1642,0.702,-0.1091,-0.6039,0.037,-0.2791,154
3,-1.15,0.6622,-0.1367,-0.7413,-0.0087,-0.338,154
3,-1.1714,0.6592,-0.15,-0.8601,-0.074,-0.3979,154
3,-1.2112,0.6316,-0.1714,-1.015,-0.1493,-0.4775,154
3,-1.2714,0.5673,-0.1887,-1.1611,-0.2573,-0.5854,154
3,-1.2255,0.4337,-0.2367,-1.2069,-0.3739,-0.7119,154
4,-1.2051,0.3152,-0.1306,-1.2069,-0.3739,-0.7119,154
4,-1.2051,0.3152,-0.1306,-1.3552,-0.4666,-0.7413,154
4,-1.1908,0.2051,-0.102,-1.5089,-0.5167,-0.7871,154
4,-1.1398,0.0796,-0.0836,-1.5667,-0.5461,-0.7861,154
4,-1.0908,-0.0602,-0.0071,-1.6779,-0.5167,-0.7554,154
4,-1.1224,-0.1887,-0.0357,-1.8174,-0.4077,-0.8067,154
4,-0.9724,-0.2949,0.0102,-2.0202,-0.3445,-0.8199,154
4,-1.0367,-0.2826,-0.1071,-2.308,-0.2529,-0.9278,154
4,-0.9051,-0.6837,-0.3939,-2.622,-0.0523,-0.8678,154
4,-0.8459,-0.6316,-0.5989,-2.597,-0.1547,-0.7054,154
4,-0.7255,-0.7612,-0.6132,-2.597,-0.1547,-0.7054,154
4,-0.6877,-0.6816,-0.6,-1.9809,-0.3336,-0.677,154
4,-0.6877,-0.6816,-0.6,-1.0793,-0.4197,-0.5429,154
4,-0.5183,-0.3571,-0.4122,-0.8166,-0.4655,-0.3859,154
4,-0.4918,-0.3071,-0.3255,-0.809,-0.4481,-0.3183,154
4,-0.4592,-0.3122,-0.3245,-0.8361,-0.4633,-0.2409,153
4,-0.3673,-0.3204,-0.2071,-0.8514,-0.4655,-0.1623,153
4,-0.3785,-0.3755,-0.1479,-0.8656,-0.3771,-0.0784,153
4,-0.4112,-0.4071,-0.1194,-0.8078,-0.2354,-0.0185,153
4,-0.454,-0.4775,-0.1102,-0.8078,-0.2354,-0.0185,153
4,-0.5724,-0.5847,-0.0867,-0.6966,-0.0708,0.0174,153
4,-0.6775,-0.5918,-0.1194,-0.6106,0.1112,0.1133,153
4,-0.6775,-0.5918,-0.1194,-0.5353,0.3422,0.2005,153
4,-0.7632,-0.5948,-0.1612,-0.4546,0.5516,0.2093,153
4,-0.85,-0.7306,-0.254,-0.3422,0.7086,0.2093,153
4,-0.9255,-0.7581,-0.2918,-0.1623,0.809,0.2453,153
4,-0.9796,-0.7826,-0.3091,0.0631,0.8395,0.2714,153
4,-1.0673,-0.7979,-0.3102,0.3019,0.8122,0.2856,153
4,-1.3071,-0.7734,-0.3632,0.5679,0.7108,0.3085,153
4,-1.3939,-0.5347,-0.3704,0.5679,0.7108,0.3085,153
4,-1.3939,-0.5347,-0.3704,0.8002,0.5189,0.3794,153
4,-1.4112,-0.4092,-0.3265,0.883,0.3085,0.3565,153
4,-1.4132,-0.3367,-0.3173,0.7676,0.1188,0.3281,153
4,-1.3184,-0.3367,-0.3387,0.7043,-0.012,0.3008,153
4,-1.2153,-0.3571,-0.301,0.7598,-0.0915,0.2812,153
4,-1.15,-0.3591,-0.2795,0.8416,-0.1013,0.2518,153
4,-1.0643,-0.3367,-0.2326,0.9517,-0.1123,0.2125,153
4,-1.0652,-0.3102,-0.2408,1.0804,-0.1079,0.1842,153
4,-1.0684,-0.2479,-0.2734,1.2243,-0.1297,0.1503,153
4,-1.0786,-0.2153,-0.251,1.2243,-0.1297,0.1503,153
4,-1.0786,-0.2153,-0.251,1.3355,-0.1852,0.1449,153
4,-1.152,-0.2561,-0.1826,1.3901,-0.2594,0.181,153
4,-1.2234,-0.2959,-0.15,1.5711,-0.3357,0.2583,153
4,-1.2949,-0.201,-0.153,1.9341,-0.3935,0.3815,153
4,-1.2388,0.4244,-0.0581,2.3124,-0.4666,0.496,153
4,-1.0643,0.4479,0.0734,2.379,-0.4807,0.4099,153
4,-0.9601,0.6143,-0.0877,2.2874,-0.2878,0.3456,153
4,-0.8979,0.9142,-0.1847,2.1009,-0.2464,0.2245,153
4,-0.5939,0.7847,-0.252,1.7171,-0.1896,0.1984,153
4,-0.7867,1.0663,-0.1061,1.7171,-0.1896,0.1984,153
4,-0.7949,0.8387,-0.0367,1.3126,-0.0664,0.4034,153
4,-0.7949,0.8387,-0.0367,0.7533,-0.0381,0.1831,153
4,-0.7194,0.5704,-0.1735,0.8144,0.0337,0.0523,153
4,-0.7479,0.8306,0.001,1.0433,0.1493,-0.0577,153
4,-0.6673,0.8673,-0.002,0.8024,0.2485,-0.1537,153
4,-0.702,0.7214,-0.1173,0.5112,0.3706,-0.2081,153
4,-0.6806,0.5479,-0.1949,0.4568,0.4426,-0.2136,153
4,-0.703,0.4683,-0.2061,0.3859,0.5059,-0.2093,153
4,-0.7092,0.3612,-0.2632,0.388,0.5461,-0.1962,153
4,-0.7347,0.3541,-0.2255,0.388,0.5461,-0.1962,153
4,-0.8724,0.4255,-0.1357,0.4818,0.5669,-0.1297,153
4,-0.8724,0.4255,-0.1357,0.4622,0.5887,-0.0621,153
4,-0.95,0.4224,-0.1275,0.4088,0.5713,0.0108,153
4,-1.0306,0.4938,-0.0959,0.3946,0.5299,0.085,153
4,-1.1979,0.6265,-0.0469,0.2627,0.4906,0.1242,153
4,-1.2561,0.6163,-0.0847,0.0818,0.4132,0.1242,153
4,-1.2673,0.6326,-0.0755,-0.0545,0.2966,0.0904,153
4,-1.2602,0.6204,-0.0786,-0.2191,0.1896,0.0272,153
4,-1.1806,0.4622,-0.1367,-0.2191,0.1896,0.0272,153
4,-1.1806,0.4622,-0.1367,-0.3445,0.1047,-0.0545,153
4,-1.0857,0.4469,-0.0632,-0.3532,0.0425,-0.1167,153
4,-1.0857,0.4469,-0.0632,-0.4469,0.0217,-0.1373,153
4,-1.0428,0.3755,-0.0969,-0.5614,0.0141,-0.1755,153
4,-1.0367,0.3663,-0.1163,-0.6007,-0.0043,-0.194,153
4,-1.0847,0.3724,-0.1541,-0.713,-0.0664,-0.2409,153
4,-1.2245,0.3775,-0.1673,-0.7729,-0.1461,-0.2823,153
4,-1.2806,0.3816,-0.1489,-0.8427,-0.2474,-0.351,153
4,-1.3255,0.3336,-0.1285,-0.9921,-0.3597,-0.4349,153
4,-1.3541,0.2459,-0.1082,-1.1306,-0.4721,-0.507,153
4,-1.3275,0.0684,-0.0612,-1.1306,-0.4721,-0.507,153
4,-1.3255,-0.0571,-0.0224,-1.2319,-0.5516,-0.5036,153
4,-1.2908,-0.1877,0.05,-1.2319,-0.5516,-0.5036,153
4,-1.3612,-0.249,-0.1714,-1.4358,-0.5189,-0.4851,153
4,-1.3612,-0.249,-0.1714,-1.4358,-0.5189,-0.4851,153
4,-1.0214,-0.6602,-0.0948,-1.763,-0.4295,-0.6454,153
4,-0.9551,-0.6153,-0.3061,-1.763,-0.4295,-0.6454,153
4,-0.9897,-0.5796,-0.5693,-1.8174,-0.2245,-0.5919,153
4,-0.7928,-0.6337,-0.5847,-1.2308,-0.4361,-0.4044,153
4,-0.704,-0.4765,-0.5847,-0.7577,-0.5276,-0.3063,153
4,-0.6234,-0.3112,-0.401,-0.4698,-0.5984,-0.2115,153
4,-0.4908,-0.2214,-0.3193,-0.4698,-0.5984,-0.2115,153
4,-0.4337,-0.1775,-0.2173,-0.4698,-0.5984,-0.2115,153
4,-0.3959,-0.1561,-0.1632,-0.4927,-0.5908,-0.1341,153
4,-0.3959,-0.1561,-0.1632,-0.3205,-0.6203,0.1133,153
4,-0.3448,-0.1469,-0.051,-0.3205,-0.6203,0.1133,153
4,-0.3663,-0.0541,-0.002,0.1722,-0.326,0.3826,153
4,-0.4102,-0.05,0.0173,0.1722,-0.326,0.3826,153
4,-0.4438,-0.0652,0.0643,0.2388,-0.1384,0.4065,153
4,-0.4673,-0.0061,0.1602,-0.9114,0.3554,0.086,153
4,-0.6744,-0.3816,-0.201,-1.2712,0.545,-0.061,153
4,-0.7571,-0.3918,-0.251,-1.2712,0.545,-0.061,153
4,-0.7571,-0.3918,-0.251,-1.4271,0.6148,-0.1264,153
4,-1.0663,-0.8336,-0.3336,-1.4271,0.6148,-0.1264,153
4,-1.0663,-0.8336,-0.3336,-1.4664,0.7369,-0.2703,153
4,-1.1408,-0.8755,-0.4255,-1.3126,0.8765,-0.2333,153
4,-1.2204,-0.9337,-0.4255,-0.9408,0.8242,-0.0883,153
4,-1.2551,-0.8663,-0.4479,0.1831,0.508,0.2027,153
4,-1.254,-0.5989,-0.4081,0.1831,0.508,0.2027,153
4,-1.199,-0.5255,-0.4357,0.4568,0.3521,0.2376,153
4,-1.1316,-0.4224,-0.4235,0.5299,0.2104,0.2703,153
5,-1.0081,-0.2938,-0.3224,0.6171,0.0784,0.3031,153
5,-1.0081,-0.2938,-0.3224,0.6171,0.0784,0.3031,153
5,-0.953,-0.254,-0.2693,0.7031,-0.0511,0.3336,153
5,-0.9255,-0.2347,-0.2316,0.7031,-0.0511,0.3336,153
5,-0.9102,-0.2071,-0.2173,0.7217,-0.0479,0.3445,153
5,-0.9357,-0.203,-0.202,0.7205,-0.0053,0.3357,153
5,-0.9918,-0.2643,-0.2265,0.7098,0.037,0.3052,153
5,-1.0571,-0.3132,-0.254,0.7773,0.0643,0.267,153
5,-1.1234,-0.3275,-0.2786,0.7773,0.0643,0.267,153
5,-1.303,-0.302,-0.2724,0.9005,0.0349,0.2737,153
5,-1.3898,-0.2581,-0.2755,0.9005,0.0349,0.2737,153
5,-1.4806,-0.2285,-0.203,1.04,-0.0196,0.2911,153
5,-1.4806,-0.2285,-0.203,1.2232,-0.1221,0.3107,153
5,-1.6724,-0.101,-0.1459,1.6386,-0.4252,0.4895,153
5,-1.6459,-0.0061,-0.101,1.6386,-0.4252,0.4895,153
5,-1.351,0.7275,-0.0908,1.9483,-0.5843,0.6629,153
5,-1.1316,0.6367,-0.1245,2.1009,-0.6018,0.7489,153
5,-0.7459,1.0173,-0.2418,1.9887,-0.5102,0.4263,153
5,-0.5704,1.0051,-0.1714,1.3497,-0.5015,0.3739,153
5,-0.6214,0.9642,-0.1449,1.3497,-0.5015,0.3739,153
5,-0.5622,0.551,-0.1418,1.3497,-0.5015,0.3739,153
5,-0.5286,0.5959,-0.0214,0.7621,-0.424,0.4044,153
5,-0.5286,0.5959,-0.0214,0.545,-0.3445,0.1362,153
5,-0.5081,0.6346,0.0183,0.7283,-0.2703,-0.0097,153
5,-0.4765,0.5979,0.103,0.713,-0.1503,-0.1776,153
5,-0.5183,0.4316,-0.0316,0.5887,0.0435,-0.2693,153
5,-0.5102,0.2969,-0.1847,0.4492,0.2844,-0.3117,153
5,-0.5408,0.2571,-0.1969,0.3401,0.4502,-0.3663,153
5,-0.6163,0.1887,-0.252,0.3489,0.5767,-0.3172,153
5,-0.6765,0.1714,-0.2296,0.5211,0.7577,-0.1558,153
5,-0.7571,0.1439,-0.2133,0.5211,0.7577,-0.1558,153
5,-0.852,0.1735,-0.2061,0.5211,0.7577,-0.1558,153
5,-0.852,0.1735,-0.2061,0.6062,0.8144,-0.0566,153
5,-1.1612,0.5796,-0.0102,0.7708,0.8504,0.0631,153
5,-1.2734,0.6703,0.0326,0.8056,0.8405,0.1732,153
5,-1.4408,0.6837,-0.0347,0.569,0.7457,0.2104,153
5,-1.4734,0.7163,-0.0275,0.3031,0.5984,0.2049,153
5,-1.4,0.6489,-0.1571,0.1318,0.4077,0.1417,153
5,-1.2602,0.603,-0.1642,-0.0577,0.1613,0.0806,153
5,-1.1622,0.5479,-0.1469,-0.231,0.012,0.0217,153
5,-0.9897,0.4877,-0.0541,-0.231,0.012,0.0217,153
5,-0.9897,0.4877,-0.0541,-0.3434,-0.0566,-0.036,153
5,-0.953,0.4479,-0.0306,-0.4317,-0.0763,-0.0937,153
5,-0.953,0.3673,-0.0561,-0.5528,-0.0774,-0.1526,153
5,-0.9408,0.2653,-0.0418,-0.6574,-0.0719,-0.2354,153
5,-1.053,0.2255,-0.1183,-0.7184,-0.0555,-0.2649,153
5,-1.1316,0.2347,-0.1234,-0.7249,-0.0664,-0.2954,153
5,-1.1796,0.2275,-0.0847,-0.7031,-0.0894,-0.3302,153
5,-1.3714,0.151,-0.0693,-0.7632,-0.1373,-0.3663,153
5,-1.451,0.1224,-0.0714,-0.8067,-0.1852,-0.4055,153
5,-1.5031,0.0684,-0.0969,-0.8067,-0.1852,-0.4055,153
5,-1.5031,0.0684,-0.0969,-0.8252,-0.2649,-0.4458,153
5,-1.4857,-0.001,-0.101,-0.8656,-0.3641,-0.4982,153
5,-1.3326,-0.1469,-0.05,-0.9311,-0.4753,-0.5167,153
5,-1.3347,-0.1673,-0.1255,-1.028,-0.5833,-0.507,153
5,-1.1714,-0.3632,-0.0561,-1.124,-0.6018,-0.5189,153
5,-1.0734,-0.449,-0.2786,-1.2308,-0.6421,-0.5723,153
5,-0.9061,-0.4235,-0.1938,-1.1404,-0.4906,-0.4643,153
5,-0.8816,-0.4357,-0.2571,-0.9954,-0.5353,-0.3466,153
5,-0.7724,-0.4826,-0.3418,-0.9822,-0.4492,-0.3052,153
5,-0.6622,-0.4418,-0.3541,-0.9822,-0.4492,-0.3052,153
5,-0.6091,-0.4051,-0.3428,-0.9387,-0.3958,-0.2649,153
5,-0.6091,-0.4051,-0.3428,-0.81,-0.424,-0.1438,153
5,-0.5857,-0.2826,-0.3184,-0.5723,-0.3968,-0.0196,153
5,-0.5367,-0.1377,-0.2438,-0.3008,-0.3456,0.0675,153
5,-0.4806,-0.0132,-0.1387,-0.1896,-0.3205,0.1384,153
5,-0.4479,0.0469,-0.1112,-0.1678,-0.2987,0.2234,153
5,-0.402,0.0939,-0.052,-0.1068,-0.2442,0.3073,153
5,-0.4061,0.0898,-0.0275,-0.0795,-0.1581,0.3205,153
5,-0.4418,0.0775,-0.0336,-0.0795,-0.1581,0.3205,153
5,-0.4683,-0.0102,-0.049,-0.1461,-0.0043,0.2529,153
5,-0.5418,-0.1194,-0.1469,-0.4153,0.1209,0.1907,153
5,-0.5418,-0.1194,-0.1469,-0.8373,0.2495,0.0915,153
5,-0.6041,-0.3336,-0.1703,-1.135,0.4132,0.0065,153
5,-0.8122,-0.4928,-0.3408,-1.4183,0.7031,-0.0654,153
5,-0.8775,-0.6367,-0.3541,-1.3649,0.7838,-0.0818,153
5,-1.0591,-0.7245,-0.4235,-1.0543,0.8231,-0.0043,153
5,-1.1357,-0.7234,-0.403,-0.5854,0.8012,0.0883,153
5,-1.1612,-0.5724,-0.3245,-0.085,0.6825,0.2027,153
5,-1.2245,-0.4173,-0.3163,0.2049,0.5614,0.2725,153
5,-1.2459,-0.3387,-0.3265,0.2649,0.4643,0.3031,153
5,-1.1806,-0.3367,-0.3357,0.2703,0.3281,0.3422,153
5,-1.1234,-0.3214,-0.3561,0.2703,0.3281,0.3422,153
5,-1.1234,-0.3214,-0.3561,0.2943,0.2081,0.3271,153
5,-1.0571,-0.1571,-0.303,0.3924,0.1428,0.3183,153
5,-1.0275,-0.1285,-0.2755,0.4807,0.1047,0.3085,153
5,-1.0153,-0.1632,-0.2704,0.4295,0.0751,0.2878,153
5,-1.0755,-0.2847,-0.2632,0.3609,0.0523,0.2737,153
5,-1.1449,-0.302,-0.2673,0.412,0.0446,0.2583,153
5,-1.2245,-0.3061,-0.2643,0.5418,0.0402,0.2495,153
5,-1.3275,-0.3143,-0.2316,0.6617,0.0011,0.255,153
5,-1.5204,-0.2653,-0.2296,0.7621,-0.0708,0.2747,153
5,-1.6102,-0.2755,-0.1694,0.7621,-0.0708,0.2747,153
5,-1.7,-0.1703,-0.1459,0.8819,-0.1471,0.3216,153
5,-1.7,-0.1703,-0.1459,1.1425,-0.2495,0.3641,153
5,-1.4999,0.1,-0.1653,1.3497,-0.3739,0.4666,153
5,-1.2693,0.2949,-0.2081,1.5122,-0.4775,0.5908,153
5,-1.0275,0.7234,-0.2531,1.6648,-0.5167,0.6923,153
5,-0.8612,0.7306,-0.3204,1.751,-0.4851,0.5026,153
5,-0.5622,0.8908,-0.2816,1.7029,-0.4786,0.2147,153
5,-0.6377,0.8939,-0.1663,1.3956,-0.4437,0.2539,153
5,-0.5887,0.7786,-0.1459,1.3956,-0.4437,0.2539,153
5,-0.4888,0.551,-0.2377,0.9048,-0.4458,0.3281,153
5,-0.5061,0.6061,0.105,0.4971,-0.4187,0.0414,153
5,-0.5061,0.6061,0.105,0.5385,-0.3456,-0.0784,153
5,-0.4755,0.4775,0.1694,0.5505,-0.231,-0.2518,153
5,-0.5286,0.2877,0.0826,0.3706,-0.0708,-0.3783,153
6,-0.5684,0.2969,0.1071,0.4382,0.1503,-0.3216,153
6,-0.6326,0.1969,-0.0581,0.5341,0.3434,-0.2627,153
6,-0.6418,0.1592,-0.0918,0.3761,0.5385,-0.3107,153
6,-0.702,0.0918,-0.1918,0.3205,0.6596,-0.2398,153
6,-0.855,0.1398,-0.2194,0.3205,0.6596,-0.2398,153
6,-0.855,0.1398,-0.2194,0.4208,0.7468,-0.1526,153
6,-0.9592,0.2949,-0.1602,0.5854,0.7718,-0.0708,153
6,-1.0612,0.3132,-0.1449,0.6562,0.7664,0.0108,153
6,-1.2632,0.5581,-0.0326,0.6312,0.7392,0.0698,153
6,-1.4041,0.6296,-0.1755,0.5112,0.6356,0.0698,153
6,-1.4561,0.6724,-0.0652,0.3336,0.5221,0.0469,153
6,-1.3816,0.6847,-0.1285,0.1581,0.3193,-0.0097,153
6,-1.2194,0.6143,-0.1663,-0.049,0.1493,-0.0751,153
6,-1.1377,0.6316,-0.1153,-0.2256,0.0174,-0.1274,153
6,-1.0438,0.6173,-0.0541,-0.2256,0.0174,-0.1274,153
6,-1.0438,0.6173,-0.0541,-0.3466,-0.074,-0.1776,153
6,-0.9673,0.4367,-0.0398,-0.5528,-0.1308,-0.2125,153
6,-0.9592,0.4092,-0.0214,-0.7195,-0.1558,-0.255,153
6,-0.9745,0.3571,0.0,-0.7751,-0.1776,-0.2812,153
6,-0.9857,0.2592,-0.0081,-0.8601,-0.182,-0.3063,153
6,-1.0214,0.1245,-0.0377,-0.9343,-0.1831,-0.3368,153
6,-1.0652,0.1775,-0.0714,-0.9267,-0.1732,-0.3434,153
6,-1.1,0.1285,-0.1245,-0.9452,-0.1581,-0.3237,153
6,-1.1296,0.0908,-0.1326,-0.967,-0.1602,-0.3357,153
6,-1.2765,0.0673,-0.1469,-0.967,-0.1602,-0.3357,153
6,-1.303,0.0061,-0.1653,-0.9736,-0.1787,-0.35,153
6,-1.303,0.0061,-0.1653,-1.0139,-0.2398,-0.3739,153
6,-1.303,-0.0969,-0.1673,-1.1152,-0.3107,-0.3914,153
6,-1.3724,-0.1285,-0.0969,-1.1459,-0.3456,-0.387,153
6,-1.249,-0.3387,-0.1775,-1.173,-0.3979,-0.4034,153
6,-1.3479,-0.4112,-0.3214,-1.3246,-0.3685,-0.4404,153
6,-1.2795,-0.3643,-0.3071,-1.2254,-0.3346,-0.3151,153
6,-1.1418,-0.3193,-0.4224,-1.1491,-0.3706,-0.1875,153
6,-1.0112,-0.3173,-0.4704,-1.1688,-0.3739,-0.2027,153
6,-0.8796,-0.3255,-0.5112,-1.1688,-0.3739,-0.2027,153
6,-0.7806,-0.4347,-0.6041,-1.3071,-0.3924,-0.182,153
6,-0.7806,-0.4347,-0.6041,-1.3944,-0.3685,-0.1232,153
6,-0.7051,-0.3387,-0.5836,-1.2319,-0.3674,-0.0021,153
6,-0.6377,-0.1061,-0.4806,-0.8548,-0.4546,0.1373,153
6,-0.5877,-0.002,-0.3887,-0.4034,-0.4568,0.1755,153
6,-0.4479,0.204,-0.1602,-0.2495,-0.4721,0.2409,153
6,-0.4316,0.1653,-0.1408,-0.3325,-0.4513,0.3193,153
6,-0.4061,0.1041,-0.0786,-0.4916,-0.3914,0.3663,153
6,-0.4285,0.1592,0.0081,-0.5004,-0.2714,0.3695,153
6,-0.4663,0.0163,-0.0459,-0.5004,-0.2714,0.3695,153
6,-0.5428,-0.0541,-0.1143,-0.6323,-0.1406,0.3193,153
6,-0.5428,-0.0541,-0.1143,-0.8264,0.0021,0.3085,153
6,-0.6,-0.1581,-0.2326,-1.0706,0.1798,0.2802,153
6,-0.7551,-0.2224,-0.3071,-1.1633,0.3248,0.2115,153
6,-0.701,-0.3479,-0.3387,-1.2276,0.424,0.1232,153
6,-0.7306,-0.5265,-0.3755,-1.293,0.5091,0.0228,153
6,-0.8959,-0.504,-0.504,-1.2037,0.64,0.0555,153
6,-0.9775,-0.7163,-0.3489,-0.8361,0.6291,0.0915,153
6,-1.0224,-0.7306,-0.3643,-0.5244,0.5614,0.1133,153
6,-1.0867,-0.6857,-0.3347,-0.5244,0.5614,0.1133,153
6,-1.0867,-0.6857,-0.3347,-0.2256,0.4884,0.1591,153
6,-1.1979,-0.5051,-0.3041,0.0589,0.4132,0.2333,153
6,-1.2071,-0.4408,-0.3112,0.2693,0.2682,0.3117,153
6,-1.1918,-0.4061,-0.3112,0.3063,0.1297,0.3422,153
6,-1.1837,-0.3755,-0.3163,0.3456,0.0326,0.3575,153
6,-1.1041,-0.1806,-0.2418,0.4666,-0.0446,0.35,153
6,-1.0806,-0.1459,-0.1826,0.5745,-0.1198,0.326,153
6,-1.0836,-0.1898,-0.1744,0.5287,-0.1547,0.2922,153
6,-1.0826,-0.2367,-0.1867,0.4589,-0.1581,0.2398,153
6,-1.1785,-0.25,-0.1459,0.4589,-0.1581,0.2398,153
6,-1.1785,-0.25,-0.1459,0.52,-0.1581,0.1907,153
6,-1.254,-0.3357,-0.1632,0.5679,-0.157,0.1406,153
6,-1.3347,-0.4173,-0.2092,0.5767,-0.1678,0.0937,153
6,-1.499,-0.3898,-0.2643,0.6857,-0.1972,0.0774,153
6,-1.4877,-0.3152,-0.2408,0.9267,-0.2605,0.085,153
6,-1.4235,-0.2418,-0.2459,1.1611,-0.3521,0.0806,153
6,-1.3102,-0.1785,-0.1969,1.3083,-0.4753,0.11,153
6,-1.1265,-0.001,-0.2122,1.4282,-0.5952,0.1787,153
6,-1.0286,0.1183,-0.1735,1.6713,-0.6737,0.2453,153
6,-0.851,0.801,0.0255,1.6713,-0.6737,0.2453,153
6,-0.7173,0.903,0.0,2.0572,-0.7903,0.3466,153
6,-0.7173,0.903,0.0,2.1859,-0.7795,0.1766,153
6,-0.5684,0.7622,0.0,1.5263,-0.5528,-0.0469,153
6,-0.5684,0.7622,0.0,1.1131,-0.4404,0.2268,153
6,-0.5632,0.3265,-0.1265,0.6934,-0.314,0.098,153
6,-0.5398,0.3,0.0591,0.6388,-0.1503,-0.0545,153
6,-0.6806,0.3867,-0.0183,0.8067,0.0065,-0.1591,153
6,-0.6041,0.2755,0.053,0.702,0.157,-0.35,153
6,-0.702,0.1479,-0.0826,0.6606,0.3248,-0.3958,153
6,-0.7602,0.0898,-0.1979,0.6879,0.4916,-0.3979,153
6,-0.7449,0.0948,-0.201,0.6879,0.4916,-0.3979,153
6,-0.7449,0.0948,-0.201,0.7577,0.5963,-0.3477,153
6,-0.7531,0.0714,-0.1969,0.8373,0.6367,-0.2605,153
6,-0.7806,0.1183,-0.1887,0.9191,0.6705,-0.1602,153
6,-0.8306,0.2163,-0.1694,1.0499,0.6934,-0.0589,153
6,-0.85,0.3867,-0.053,1.1862,0.7054,0.0337,153
6,-0.9663,0.5816,-0.0408,1.1415,0.6901,0.0992,153
6,-1.0153,0.6724,-0.0122,1.0183,0.6923,0.0806,153
6,-1.0877,0.6683,-0.0836,0.8024,0.6606,0.1318,153
6,-1.153,0.7122,-0.1082,0.6323,0.6442,0.1167,153
6,-1.1775,0.6592,-0.1735,0.6323,0.6442,0.1167,153
6,-1.1357,0.6326,-0.1449,0.4197,0.5734,0.0948,153
6,-1.1357,0.6326,-0.1449,0.2027,0.4731,0.0479,153
6,-1.1735,0.5847,-0.1663,0.0675,0.4023,-0.0076,153
6,-1.1367,0.4428,-0.1153,-0.0686,0.3314,-0.0664,153
6,-1.1387,0.3163,-0.151,-0.2234,0.2485,-0.1221,153
6,-1.1408,0.2806,-0.0979,-0.2779,0.1907,-0.1602,153
6,-1.1398,0.254,-0.0786,-0.2268,0.1406,-0.206,153
6,-1.1428,0.2153,-0.0877,-0.2747,0.0872,-0.2573,153
6,-1.1398,0.1949,-0.0969,-0.2747,0.0872,-0.2573,153
6,-1.1296,0.2051,-0.1489,-0.3346,0.0392,-0.2844,153
6,-1.0979,0.2173,-0.1694,-0.3717,-0.0053,-0.2899,153
6,-1.0979,0.2173,-0.1694,-0.3979,-0.0392,-0.3271,153
6,-1.0989,0.2418,-0.1949,-0.3979,-0.0763,-0.35,153
6,-1.1061,0.2449,-0.2061,-0.4502,-0.1155,-0.3729,153
7,-1.1346,0.251,-0.1969,-0.5124,-0.1701,-0.3946,153
7,-1.2122,0.2408,-0.1642,-0.5604,-0.2289,-0.4263,153
7,-1.2388,0.1581,-0.102,-0.6672,-0.3052,-0.4687,153
7,-1.2786,0.0755,-0.151,-0.8427,-0.3815,-0.5059,153
7,-1.2724,-0.0295,-0.1316,-0.9005,-0.4284,-0.5299,153
7,-1.2367,-0.1082,-0.1112,-0.9005,-0.4284,-0.5299,153
7,-1.2275,-0.1561,-0.1969,-0.9092,-0.4284,-0.5179,153
7,-1.2275,-0.1561,-0.1969,-1.0379,-0.3968,-0.4916,153
7,-1.2122,-0.2183,-0.2224,-1.1796,-0.3128,-0.4557,153
7,-1.1346,-0.4816,-0.4081,-1.4107,-0.3063,-0.4414,153
7,-0.9979,-0.4796,-0.5673,-1.5448,-0.1657,-0.3346,153
7,-0.9755,-0.5561,-0.5541,-1.4544,-0.1766,-0.1962,153
7,-0.7969,-0.4694,-0.6245,-1.2668,-0.3031,-0.0446,153
7,-0.7388,-0.301,-0.5367,-0.8264,-0.412,0.0032,153
7,-0.7122,-0.1765,-0.4642,-0.4219,-0.4742,0.1167,153
7,-0.7122,-0.1765,-0.4642,-0.4219,-0.4742,0.1167,153
7,-0.6428,-0.0347,-0.4173,-0.2539,-0.5112,0.2027,153
7,-0.5081,0.1285,-0.203,-0.2539,-0.5679,0.2627,153
7,-0.4888,0.1265,-0.1703,-0.4077,-0.5679,0.3302,153
7,-0.4918,0.101,-0.1449,-0.5745,-0.4698,0.3521,153
7,-0.4938,0.0928,-0.1306,-0.6411,-0.363,0.3597,153
7,-0.5602,0.102,-0.1255,-0.6388,-0.2398,0.3477,153
7,-0.5989,0.0418,-0.1346,-0.701,-0.1155,0.3281,153
7,-0.6694,-0.0857,-0.2316,-0.8885,0.036,0.2659,153
7,-0.7571,-0.2336,-0.2653,-0.9485,0.1776,0.2136,153
7,-0.8193,-0.3184,-0.2918,-0.9485,0.1776,0.2136,153
7,-0.8193,-0.3184,-0.2918,-0.9027,0.2888,0.1864,153
7,-0.8979,-0.3377,-0.3041,-0.846,0.375,0.1755,153
7,-0.9367,-0.4041,-0.3336,-0.7806,0.4055,0.1766,153
7,-1.1173,-0.4326,-0.3102,-0.6541,0.387,0.1635,153
7,-1.1153,-0.4377,-0.2816,-0.4666,0.2943,0.2049,153
7,-1.1469,-0.452,-0.2734,-0.3477,0.1341,0.2573,153
7,-1.0693,-0.355,-0.2428,-0.2539,-0.0065,0.314,153
7,-1.0224,-0.2336,-0.1969,-0.1144,-0.1242,0.3663,153
7,-0.9796,-0.1377,-0.1632,-0.0097,-0.2115,0.424,153
7,-0.9081,-0.0765,-0.1449,-0.0097,-0.2115,0.424,153
7,-0.8448,-0.0622,-0.105,-0.0152,-0.2899,0.4611,153
7,-0.8448,-0.0622,-0.105,-0.0925,-0.3368,0.4742,153
7,-0.8306,-0.0836,-0.0652,-0.1253,-0.3302,0.4601,153
7,-0.8479,-0.1153,-0.0306,-0.0925,-0.3183,0.4481,153
7,-0.953,-0.1928,0.0367,-0.0479,-0.2834,0.4307,153
7,-1.0326,-0.3152,0.0887,-0.0097,-0.2321,0.4034,153
7,-1.1214,-0.4235,0.102,-0.0392,-0.1623,0.3586,153
7,-1.2336,-0.501,0.0183,-0.1308,-0.0435,0.2954,153
7,-1.449,-0.6479,-0.0602,-0.1308,-0.0435,0.2954,153
7,-1.5377,-0.7051,-0.1735,-0.1221,0.0435,0.2659,153
7,-1.6132,-0.7867,-0.3102,-0.0806,0.0883,0.242,153
7,-1.6132,-0.7867,-0.3102,-0.0457,0.1167,0.1722,153
7,-1.6112,-0.7816,-0.4398,0.0774,0.0534,0.0915,153
7,-1.4755,-0.1489,-0.6387,0.4143,-0.1384,0.1722,153
7,-1.1367,-0.1387,-0.3602,1.0455,-0.3489,0.3729,153
7,-1.0255,-0.0336,-0.355,1.4675,-0.569,0.3674,153
7,-0.7081,0.252,-0.2531,1.5896,-0.6291,0.3794,153
7,-0.6581,0.499,0.0031,1.9504,-0.701,0.4414,153
7,-0.6428,0.5979,0.0684,1.9504,-0.701,0.4414,153
7,-0.6428,0.5979,0.0684,2.2514,-0.701,0.3575,153
7,-0.5836,0.6683,0.0704,2.2525,-0.5898,0.1732,153
7,-0.5836,0.6683,0.0704,2.0802,-0.4295,0.0228,153
7,-0.8469,1.05,0.0551,1.9646,-0.2278,0.1591,153
7,-0.6316,0.8347,0.2928,1.9025,-0.1406,0.483,153
7,-0.7765,0.6826,0.1418,1.6223,0.0577,0.2725,153
7,-0.7367,0.6041,0.0663,1.2254,0.3445,0.11,153
7,-0.8704,0.4938,-0.1337,1.0488,0.5963,-0.1198,153
7,-0.7459,0.4959,-0.1928,1.0509,0.7098,-0.1995,153
7,-0.7194,0.4203,-0.2357,1.0509,0.7098,-0.1995,153
7,-0.7194,0.4203,-0.2357,1.0238,0.665,-0.2812,153
7,-0.702,0.3928,-0.2847,0.8733,0.6356,-0.35,153
7,-0.6847,0.3867,-0.2285,0.8427,0.6138,-0.3771,153
7,-0.6642,0.4714,-0.1816,0.8907,0.5757,-0.3903,153
7,-0.6632,0.4908,-0.0765,0.8558,0.5669,-0.3761,153
7,-0.6908,0.5418,-0.0459,0.7718,0.6007,-0.3302,153
7,-0.7204,0.5551,-0.0122,0.7064,0.664,-0.267,153
7,-0.8204,0.5652,-0.0806,0.5963,0.7327,-0.1972,153
7,-0.8979,0.5806,-0.1316,0.4982,0.785,-0.1188,153
7,-0.9653,0.5959,-0.1,0.4982,0.785,-0.1188,153
7,-1.049,0.5286,-0.1744,0.3935,0.8024,-0.0589,153
7,-1.049,0.5286,-0.1744,0.2333,0.7795,-0.0402,153
7,-1.2938,0.401,-0.1285,0.0272,0.5974,-0.0969,153
7,-1.2938,0.401,-0.1285,-0.0654,0.4797,-0.1701,153
7,-1.303,0.3979,-0.1082,-0.1133,0.351,-0.2049,153
7,-1.2693,0.3489,-0.1143,-0.2234,0.2562,-0.242,153
7,-1.2561,0.3377,-0.1245,-0.3031,0.1896,-0.2693,153
7,-1.2204,0.3694,-0.1367,-0.314,0.1417,-0.2725,153
7,-1.203,0.3816,-0.2234,-0.3532,0.1057,-0.2779,153
7,-1.204,0.4122,-0.2551,-0.4164,0.0555,-0.2888,153
7,-1.2122,0.4642,-0.2479,-0.4611,-0.0021,-0.314,153
7,-1.3204,0.5418,-0.2428,-0.4611,-0.0021,-0.314,153
7,-1.3204,0.5418,-0.2428,-0.5385,-0.0839,-0.3663,153
7,-1.3683,0.5245,-0.2234,-0.6672,-0.1972,-0.4404,153
7,-1.4071,0.4102,-0.1796,-0.8481,-0.3172,-0.5309,153
7,-1.401,0.3214,-0.1551,-1.0532,-0.4317,-0.6356,153
7,-1.4122,0.1969,-0.1551,-1.1785,-0.5091,-0.6988,153
7,-1.3489,0.0765,-0.1357,-1.2451,-0.5582,-0.7392,153
7,-1.3,0.0,-0.1837,-1.4326,-0.5516,-0.7283,153
7,-1.3255,-0.1459,-0.2122,-1.6146,-0.4643,-0.7098,153
7,-1.3306,-0.2061,-0.3949,-1.7476,-0.3674,-0.6934,153
7,-1.0132,-0.4122,-0.402,-1.7476,-0.3674,-0.6934,153
7,-1.0132,-0.4122,-0.402,-1.9887,-0.3783,-0.6901,153
7,-1.1122,-0.4857,-0.4857,-2.2863,-0.424,-0.6944,153
7,-0.8939,-0.7204,-0.7653,-2.3495,-0.3542,-0.6213,153
7,-0.9,-0.5939,-0.603,-1.9887,-0.5374,-0.5364,153
7,-0.702,-0.4642,-0.499,-1.2756,-0.6737,-0.3096,153
7,-0.5948,-0.3306,-0.4092,-0.8939,-0.7827,-0.2638,153
7,-0.4581,-0.1796,-0.2847,-0.7283,-0.7512,-0.1951,153
7,-0.3989,-0.1418,-0.1949,-0.6682,-0.7751,-0.086,153
7,-0.3653,-0.0979,-0.1653,-0.6236,-0.7762,0.0272,153
7,-0.2734,-0.0887,-0.0684,-0.6236,-0.7762,0.0272,153
7,-0.3102,-0.0734,-0.0939,-0.6039,-0.7664,0.1623,153
7,-0.3102,-0.0734,-0.0939,-0.5364,-0.6062,0.2354,153
7,-0.3745,-0.0591,-0.0826,-0.4721,-0.4099,0.2844,153
8,-0.4265,-0.0479,-0.0693,-0.5233,-0.2638,0.2943,153
8,-0.5153,-0.2949,-0.1847,-0.7413,-0.1079,0.194,153
8,-0.5643,-0.3582,-0.1949,-0.8853,0.0959,0.1318,153
8,-0.6214,-0.45,-0.202,-0.8754,0.2562,0.1297,153
8,-0.65,-0.4959,-0.2194,-0.7981,0.3914,0.11,153
8,-0.803,-0.5908,-0.252,-0.6911,0.5189,0.1123,153
8,-0.8765,-0.6296,-0.25,-0.6911,0.5189,0.1123,153
8,-0.9377,-0.6398,-0.2449,-0.495,0.5931,0.073,153
8,-0.9377,-0.6398,-0.2449,-0.267,0.5919,0.1079,153
8,-1.0734,-0.6255,-0.2592,-0.0425,0.5494,0.1831,153
8,-1.1622,-0.5459,-0.2867,0.1461,0.507,0.2562,153
8,-1.2142,-0.4377,-0.3102,0.3052,0.4317,0.3456,153
8,-1.202,-0.4,-0.2867,0.4426,0.3063,0.3838,153
8,-1.199,-0.2969,-0.3265,0.4938,0.2049,0.3914,153
8,-1.2,-0.1898,-0.2795,0.5898,0.1341,0.3848,153
8,-1.2,-0.1683,-0.2336,0.5898,0.1341,0.3848,153
8,-1.2,-0.1683,-0.2336,0.6629,0.0784,0.3521,153
8,-1.2581,-0.251,-0.2908,0.6028,0.0228,0.3096,153
8,-1.2581,-0.251,-0.2908,0.6388,-0.0206,0.2573,153
8,-1.3081,-0.1775,-0.2938,0.797,-0.0631,0.2224,153
8,-1.3775,-0.1561,-0.2377,0.9092,-0.1352,0.1984,153
8,-1.504,-0.0775,-0.2061,0.9397,-0.2398,0.1886,153
8,-1.4408,-0.1255,-0.1,1.0357,-0.3466,0.2093,153
8,-1.4285,0.0061,-0.0775,1.305,-0.5179,0.2583,153
8,-1.1357,0.5734,0.151,1.5917,-0.726,0.4404,153
8,-1.0887,0.5316,0.0061,1.7422,-0.8176,0.5189,153
8,-1.0887,0.5316,0.0061,1.7422,-0.8176,0.5189,153
8,-0.9255,0.6071,-0.1837,1.5242,-0.6388,0.2758,153
8,-0.7245,0.7847,-0.1357,1.4063,-0.6301,0.1864,153
8,-0.6428,0.7571,-0.05,1.2832,-0.6039,0.2159,153
8,-0.5459,0.7,-0.004,0.9103,-0.5145,0.3434,153
8,-0.5081,0.4081,0.0061,0.5276,-0.4317,0.2714,153
8,-0.5214,0.3081,-0.0765,0.4372,-0.3151,0.1024,153
8,-0.5357,0.4092,0.1428,0.6421,-0.193,0.024,153
8,-0.5459,0.4296,0.053,0.7348,-0.085,-0.0654,153
8,-0.6479,0.3316,0.0071,0.6846,0.2224,-0.231,153
8,-0.6622,0.2969,-0.1326,0.6846,0.2224,-0.231,153
8,-0.6622,0.2969,-0.1326,0.5538,0.3958,-0.3041,153
8,-0.6296,0.2316,-0.1224,0.5156,0.5484,-0.3477,153
8,-0.6775,0.1367,-0.1847,0.4481,0.6323,-0.3063,153
8,-0.6744,0.0673,-0.1653,0.4753,0.713,-0.2453,153
8,-0.7459,0.1,-0.1346,0.6083,0.7478,-0.1547,153
8,-0.7826,0.1703,-0.0908,0.7533,0.7806,-0.0577,153
8,-0.853,0.2459,-0.0469,0.8319,0.7947,0.0316,153
8,-0.9969,0.4306,-0.0112,0.8624,0.797,0.1013,153
8,-1.0867,0.5714,-0.0377,0.8624,0.797,0.1013,153
8,-1.1887,0.5928,-0.0438,0.8329,0.7937,0.1396,153
8,-1.1887,0.5928,-0.0438,0.7457,0.7653,0.1526,153
8,-1.204,0.6551,-0.1703,0.5767,0.7152,0.1035,153
8,-1.2663,0.6337,-0.1346,0.3532,0.6051,0.0883,153
8,-1.2296,0.6122,-0.101,0.2354,0.4687,0.024,153
8,-1.2592,0.5571,-0.0969,0.0719,0.363,-0.0457,153
8,-1.1969,0.5663,-0.0541,-0.0316,0.2507,-0.1177,153
8,-1.1489,0.4337,-0.0388,-0.1657,0.1657,-0.1776,153
8,-1.1561,0.4,-0.053,-0.3172,0.1112,-0.2256,153
8,-1.1602,0.3785,-0.0714,-0.3172,0.1112,-0.2256,153
8,-1.1908,0.2888,-0.1143,-0.3761,0.0795,-0.2649,153
8,-1.1908,0.2888,-0.1143,-0.4404,0.0589,-0.3041,153
8,-1.1949,0.2928,-0.1061,-0.4687,0.0087,-0.3456,153
8,-1.2173,0.2857,-0.1163,-0.4862,-0.0337,-0.3794,153
8,-1.2388,0.2683,-0.1592,-0.5702,-0.074,-0.4153,153
8,-1.3081,0.2836,-0.1949,-0.6411,-0.1384,-0.4513,153
8,-1.3448,0.2775,-0.2296,-0.6955,-0.2049,-0.4884,153
8,-1.3122,0.1949,-0.203,-0.785,-0.2888,-0.5396,153
8,-1.2928,0.0612,-0.2388,-0.9517,-0.3914,-0.5723,153
8,-1.2928,0.0612,-0.2388,-0.9517,-0.3914,-0.5723,153
8,-1.203,0.0,-0.2459,-1.0837,-0.4666,-0.6291,153
8,-1.1694,-0.0591,-0.1898,-1.148,-0.5211,-0.6171,153
8,-1.0969,-0.1153,-0.1541,-1.256,-0.5265,-0.5408,153
8,-1.0245,-0.355,-0.2357,-1.4063,-0.4372,-0.4841,153
8,-1.1735,-0.3479,-0.351,-1.6779,-0.3739,-0.4458,153
8,-1.049,-0.3622,-0.4806,-1.7607,-0.2049,-0.3565,153
8,-0.9561,-0.3959,-0.5673,-1.812,-0.267,-0.2147,153
8,-0.8591,-0.4836,-0.5755,-1.6735,-0.2844,-0.1635,153
8,-0.7765,-0.351,-0.5438,-1.268,-0.3422,-0.0555,153
8,-0.7673,-0.2551,-0.4612,-1.268,-0.3422,-0.0555,153
8,-0.7673,-0.2551,-0.4612,-0.9485,-0.3924,0.1373,153
8,-0.4694,0.0989,-0.2765,-0.677,-0.4568,0.1362,153
8,-0.4398,0.0806,-0.2418,-0.8514,-0.4841,0.1493,153
8,-0.4398,0.0806,-0.2418,-0.9975,-0.4513,0.1537,153
8,-0.3734,0.0684,-0.1551,-1.0532,-0.3946,0.1471,153
8,-0.3969,0.0183,-0.1551,-1.1077,-0.2966,0.1167,153
8,-0.3969,-0.0612,-0.1428,-1.1796,-0.1831,0.0937,153
8,-0.4816,-0.2081,-0.1571,-1.2472,-0.0719,0.1188,153
8,-0.6112,-0.2163,-0.2449,-1.3573,0.074,0.157,153
8,-0.6214,-0.3296,-0.2551,-1.3649,0.2234,0.1274,153
8,-0.6775,-0.3571,-0.2602,-1.3649,0.2234,0.1274,153
8,-0.7357,-0.5112,-0.2786,-1.1873,0.3117,0.0479,153
8,-0.8071,-0.6418,-0.3204,-1.0923,0.4044,0.0043,153
8,-0.8071,-0.6418,-0.3204,-1.0171,0.5015,0.0065,153
8,-0.8663,-0.6938,-0.3408,-0.9103,0.581,0.0872,153
8,-1.0398,-0.7571,-0.3714,-0.7489,0.5952,0.1732,153
8,-1.0745,-0.7418,-0.3755,-0.4927,0.5625,0.1537,153
8,-1.1612,-0.6479,-0.3367,-0.1701,0.4698,0.2159,153
8,-1.1908,-0.651,-0.2479,0.0992,0.3271,0.3085,153
8,-1.2285,-0.6102,-0.3489,0.1962,0.2278,0.3368,153
8,-1.2592,-0.5173,-0.3439,0.3641,0.1396,0.3685,153
8,-1.2592,-0.5173,-0.3439,0.3641,0.1396,0.3685,153
8,-1.2877,-0.4612,-0.3377,0.5528,0.0698,0.3815,153
8,-1.3367,-0.454,-0.3357,0.6356,0.0065,0.3771,153
8,-1.4694,-0.5204,-0.3663,0.6901,-0.036,0.3663,153
8,-1.5632,-0.5102,-0.3908,0.8275,-0.0523,0.3565,153
8,-1.651,-0.4826,-0.3561,1.0455,-0.098,0.3554,153
8,-1.702,-0.351,-0.3326,1.2603,-0.1907,0.3542,153
8,-1.653,-0.2765,-0.3275,1.4511,-0.3019,0.3717,153
8,-1.5561,-0.1316,-0.2857,1.7476,-0.4568,0.3554,153
8,-1.4469,0.0336,-0.2979,2.065,-0.6106,0.3586,153
8,-1.0214,0.5806,-0.1041,2.065,-0.6106,0.3586,153
8,-1.0214,0.5806,-0.1041,2.3332,-0.7773,0.3489,153
8,-0.9275,0.8041,-0.0438,2.5131,-0.8863,0.2376,153
9,-0.6785,0.9275,0.0693,2.5076,-0.8929,0.037,153
9,-0.5326,0.9459,0.053,2.2699,-0.8601,-0.0185,153
9,-0.5438,0.8887,0.0398,1.9145,-0.7348,0.2638,153
9,-0.4367,0.8428,0.1918,1.7422,-0.6465,0.4393,153
9,-0.5224,0.7418,0.1041,1.6703,-0.4263,0.1919,153
9,-0.401,0.4612,0.2479,1.425,-0.3227,0.0904,153
9,-0.5438,0.5734,0.004,1.425,-0.3227,0.0904,153
9,-0.5541,0.6316,0.1143,1.5055,-0.1613,0.1089,153
9,-0.5541,0.6316,0.1143,1.5438,0.2224,-0.073,153
9,-0.5245,0.3755,-0.0989,1.0389,0.3205,-0.2943,153
9,-0.5081,0.2265,-0.1346,0.713,0.4492,-0.3924,153
9,-0.5581,0.1632,-0.2316,0.6213,0.5429,-0.3838,153
9,-0.5408,0.203,-0.1969,0.7817,0.6051,-0.338,153
9,-0.6592,0.2081,-0.1826,0.9103,0.6356,-0.2605,153
9,-0.7245,0.2663,-0.1765,0.9321,0.6574,-0.1635,153
9,-0.8132,0.454,-0.0755,1.0509,0.6934,-0.0577,153
9,-0.9306,0.6592,-0.001,1.0509,0.6934,-0.0577,153
9,-1.1071,0.8051,-0.0102,1.0837,0.7217,0.036,153
9,-1.1071,0.8051,-0.0102,0.8765,0.7098,0.0904,153
9,-1.2438,0.7918,0.0469,0.6039,0.7064,0.1155,153
9,-1.3091,0.8387,-0.0255,0.387,0.628,0.0686,153
9,-1.3459,0.801,-0.0684,0.218,0.4938,0.0,153
9,-1.252,0.7408,-0.0826,-0.0206,0.3554,-0.1013,153
9,-1.201,0.6755,-0.0887,-0.2268,0.2159,-0.2093,153
9,-1.1082,0.6041,-0.0622,-0.3958,0.1253,-0.2932,153
9,-1.0428,0.4306,-0.0755,-0.5429,0.0969,-0.35,153
9,-1.0643,0.4183,-0.0877,-0.5429,0.0969,-0.35,153
9,-1.0643,0.4183,-0.0877,-0.6083,0.098,-0.3838,153
9,-1.0734,0.4122,-0.1469,-0.64,0.1047,-0.4153,153
9,-1.1469,0.3816,-0.2449,-0.701,0.1057,-0.4153,153
9,-1.2163,0.3837,-0.2632,-0.7915,0.0806,-0.4187,153
9,-1.2643,0.3785,-0.2479,-0.8983,0.0076,-0.4338,153
9,-1.3245,0.3204,-0.2367,-1.0553,-0.1079,-0.4666,153
9,-1.3816,0.152,-0.1194,-1.2102,-0.2398,-0.5156,153
9,-1.3806,0.0826,-0.0898,-1.3071,-0.3521,-0.569,153
9,-1.4173,-0.0153,-0.0714,-1.4238,-0.4,-0.6268,153
9,-1.4938,-0.2214,-0.1439,-1.4238,-0.4,-0.6268,153
9,-1.4938,-0.2214,-0.1439,-1.6016,-0.3968,-0.652,153
9,-1.2795,-0.4398,-0.1898,-1.8468,-0.2791,-0.5952,153
9,-1.2673,-0.451,-0.2795,-2.2557,-0.2812,-0.6377,153
9,-1.2673,-0.3908,-0.5398,-2.5904,-0.1852,-0.5473,153
9,-1.0,-0.7643,-0.7806,-2.5784,-0.1646,-0.5494,153
9,-0.8949,-0.7071,-0.8061,-2.2743,-0.2474,-0.4633,153
9,-0.7622,-0.4857,-0.5551,-1.4784,-0.4012,-0.169,153
9,-0.7367,-0.3837,-0.549,-0.9616,-0.4643,-0.0446,153
9,-0.5724,-0.051,-0.3398,-0.6978,-0.5015,-0.0872,153
9,-0.4683,0.0275,-0.2918,-0.6978,-0.5015,-0.0872,153
9,-0.4102,0.0234,-0.2092,-0.6476,-0.5473,-0.0337,153
9,-0.4102,0.0234,-0.2092,-0.8132,-0.6159,0.0381,153
9,-0.3877,-0.0469,-0.1143,-0.9877,-0.5877,0.1035,153
9,-0.3928,-0.0979,-0.0908,-1.015,-0.4546,0.1362,153
9,-0.4224,-0.1398,-0.102,-1.0238,-0.3161,0.194,153
9,-0.5377,-0.1082,-0.1367,-1.0433,-0.1417,0.255,153
9,-0.5898,-0.3724,-0.3275,-1.172,0.0469,0.1657,153
9,-0.6561,-0.4194,-0.3653,-1.1959,0.2191,0.1198,153
9,-0.6928,-0.4724,-0.3846,-1.0935,0.3466,0.1144,153
9,-0.8184,-0.6194,-0.401,-1.0935,0.3466,0.1144,153
9,-0.8734,-0.6489,-0.3439,-0.9616,0.4448,0.0577,153
9,-0.8734,-0.6489,-0.3439,-0.7653,0.5047,0.0294,153
9,-0.9367,-0.6867,-0.2867,-0.508,0.4677,0.085,153
9,-1.0214,-0.7306,-0.2683,-0.3041,0.4307,0.1461,153
9,-1.1683,-0.7112,-0.3428,-0.1274,0.3729,0.2039,153
9,-1.2347,-0.5806,-0.355,0.0839,0.2922,0.2802,153
9,-1.2101,-0.4796,-0.3571,0.3248,0.1602,0.3368,153
9,-1.2316,-0.4571,-0.3714,0.4012,0.0326,0.3609,153
9,-1.1775,-0.4071,-0.4132,0.4404,-0.0631,0.363,153
9,-1.153,-0.2795,-0.3459,0.4404,-0.0631,0.363,153
9,-1.1867,-0.2101,-0.299,0.5963,-0.1079,0.363,153
9,-1.1867,-0.2101,-0.299,0.7478,-0.1623,0.3445,153
9,-1.2306,-0.301,-0.3051,0.713,-0.2268,0.3248,153
9,-1.2673,-0.2786,-0.3275,0.6814,-0.2899,0.3031,153
9,-1.3755,-0.1938,-0.3081,0.8307,-0.3477,0.3019,153
9,-1.3908,-0.1663,-0.1898,1.027,-0.4295,0.2878,153
9,-1.4704,-0.1153,-0.151,1.1142,-0.5461,0.3073,153
9,-1.5051,-0.0551,-0.1561,1.209,-0.6737,0.3456,153
9,-1.5336,0.0806,-0.1153,1.209,-0.6737,0.3456,153
9,-1.5336,0.0806,-0.1153,1.5274,-0.8122,0.4382,153
9,-0.7949,0.9387,-0.1306,1.5394,-0.8689,0.2485,153
9,-0.5469,0.9071,0.0102,1.5394,-0.8689,0.2485,153
9,-0.5469,0.9071,0.0102,1.2461,-0.846,0.2344,153
9,-0.5643,0.6439,0.0,0.9017,-0.714,0.4338,153
9,-0.4428,0.4979,0.0449,0.7741,-0.701,0.5059,153
9,-0.4194,0.3,0.0581,0.8361,-0.5908,0.193,153
9,-0.5234,0.3898,0.2734,0.9561,-0.3597,-0.074,153
9,-0.451,0.6959,0.2377,0.9582,-0.363,0.0643,153
9,-0.6632,0.2428,-0.0092,0.6007,0.0326,-0.0948,153
9,-0.5071,0.2275,-0.102,0.2354,0.1766,-0.2878,153
9,-0.5295,0.151,-0.1245,0.2354,0.1766,-0.2878,153
9,-0.5183,0.0979,-0.1602,0.2899,0.3794,-0.2844,153
9,-0.5183,0.0979,-0.1602,0.3031,0.5276,-0.2638,153
9,-0.5948,-0.0081,-0.1735,0.2398,0.6879,-0.2649,153
9,-0.5877,-0.0847,-0.1469,0.242,0.7304,-0.1896,153
9,-0.6938,-0.002,-0.1173,0.544,0.7598,-0.0053,153
9,-0.7612,0.2163,-0.0622,0.967,0.7991,0.1526,153
9,-0.8489,0.4224,0.002,1.2188,0.8067,0.2791,153
9,-1.0286,0.6479,0.0234,1.136,0.8035,0.3739,153
9,-1.1091,0.6724,-0.0898,0.8242,0.8427,0.3205,153
9,-1.1898,0.699,-0.0632,0.8242,0.8427,0.3205,153
9,-1.1898,0.699,-0.0632,0.6072,0.8199,0.2081,153
9,-1.252,0.7438,-0.0449,0.4458,0.7098,0.1613,153
9,-1.2581,0.8704,-0.1816,0.2027,0.5679,0.1013,153
9,-1.2377,0.5969,0.1041,0.2409,0.4284,0.0414,153
9,-1.0632,0.5551,-0.1489,-0.0708,0.2104,-0.0763,153
9,-0.9857,0.5551,-0.0051,-0.1864,0.2005,-0.1722,153
9,-0.9745,0.3979,0.0122,-0.3271,0.169,-0.2268,153
9,-0.9796,0.3479,-0.052,-0.532,0.1744,-0.2802,153
9,-1.0255,0.3051,-0.0745,-0.5429,0.1864,-0.3151,153
9,-1.1071,0.2826,-0.1183,-0.5429,0.1864,-0.3151,153
9,-1.1071,0.2826,-0.1183,-0.5299,0.2039,-0.3586,153
9,-1.1959,0.2367,-0.1826,-0.5593,0.1972,-0.4175,153
10,-1.2051,0.1959,-0.1367,-0.6062,0.169,-0.4666,153
10,-1.3051,0.2101,-0.1337,-0.6682,0.098,-0.5026,153
10,-1.45,0.0775,-0.1337,-0.7621,0.0097,-0.5702,153
10,-1.4959,0.0449,-0.1163,-0.7686,-0.0992,-0.6323,153
10,-1.5214,-0.004,-0.0796,-0.7676,-0.2289,-0.6759,153
10,-1.4836,-0.1387,-0.2101,-0.8819,-0.3325,-0.7043,153
10,-1.3837,-0.2928,-0.1959,-1.028,-0.3248,-0.7086,153
10,-1.2347,-0.3755,-0.2734,-1.028,-0.3248,-0.7086,153
10,-1.2449,-0.3132,-0.4051,-1.1633,-0.3783,-0.6508,153
10,-1.2449,-0.3132,-0.4051,-1.184,-0.35,-0.5124,153
10,-1.0295,-0.3489,-0.3837,-1.0335,-0.3859,-0.3859,153
10,-0.9112,-0.3694,-0.402,-0.9408,-0.3924,-0.338,153
10,-0.8479,-0.3306,-0.4479,-0.9103,-0.4055,-0.231,153
10,-0.8377,-0.3316,-0.4704,-0.8842,-0.3717,-0.1089,153
10,-0.7531,-0.3051,-0.4255,-0.7293,-0.3357,-0.0751,153
10,-0.7306,-0.1561,-0.3214,-0.471,-0.3412,-0.0469,152
10,-0.6867,-0.0061,-0.2316,-0.471,-0.3412,-0.0469,152
10,-0.6143,0.1224,-0.1581,-0.2529,-0.3336,0.0511,152
10,-0.5684,0.1744,-0.1255,-0.2834,-0.2856,0.1112,152
10,-0.5684,0.1744,-0.1255,-0.3586,-0.2093,0.1396,152
10,-0.5275,0.1612,-0.1143,-0.496,-0.1667,0.1384,152
10,-0.5204,0.0551,-0.1632,-0.6562,-0.0818,0.1024,152
10,-0.5326,0.0602,-0.1602,-0.7403,-0.0021,0.0654,152
10,-0.552,0.0193,-0.1744,-0.7686,0.0675,0.0305,152
10,-0.5755,-0.0765,-0.2092,-0.8373,0.1428,-0.0097,152
10,-0.6296,-0.1673,-0.2081,-0.8525,0.2289,-0.0152,152
10,-0.7071,-0.2367,-0.1857,-0.822,0.3096,-0.0076,152
10,-0.7071,-0.2367,-0.1857,-0.822,0.3096,-0.0076,152
10,-0.7826,-0.3724,-0.2367,-0.8395,0.3761,-0.0545,152
10,-0.7826,-0.3724,-0.2367,-0.7915,0.4643,-0.0414,152
10,-0.949,-0.4153,-0.2204,-0.6562,0.5047,0.0065,152
10,-0.9918,-0.3867,-0.2408,-0.5167,0.4721,0.0097,152
10,-1.001,-0.4092,-0.2092,-0.3848,0.3946,0.0555,152
10,-1.0377,-0.5612,-0.2795,-0.3838,0.338,0.1068,152
10,-1.1173,-0.5561,-0.3265,-0.3401,0.3073,0.1264,152
10,-1.1326,-0.4888,-0.3296,-0.1701,0.2747,0.1526,152
10,-1.1694,-0.3949,-0.2408,-0.1701,0.2747,0.1526,152
10,-1.1694,-0.3949,-0.2408,0.086,0.1886,0.2039,152
10,-1.1755,-0.4408,-0.2561,0.1646,0.1112,0.2518,152
10,-1.201,-0.3969,-0.204,0.2005,0.086,0.2779,152
10,-1.2306,-0.352,-0.2071,0.3248,0.074,0.3019,152
10,-1.3152,-0.3877,-0.2745,0.35,0.0599,0.3193,152
10,-1.3643,-0.4153,-0.3071,0.351,0.0294,0.3445,152
10,-1.453,-0.4092,-0.3479,0.4197,-0.0206,0.3619,152
10,-1.5673,-0.3816,-0.3806,0.5331,-0.0818,0.375,152
10,-1.6163,-0.3122,-0.3591,0.6661,-0.2245,0.3891,152
10,-1.5459,-0.2428,-0.3408,0.6661,-0.2245,0.3891,152
10,-1.4173,-0.1398,-0.3132,0.8122,-0.4044,0.4044,152
10,-1.4173,-0.1398,-0.3132,1.0139,-0.5679,0.4372,152
10,-1.1449,0.0612,-0.2449,1.1938,-0.7064,0.483,152
10,-0.9847,0.4357,-0.1428,1.3748,-0.8285,0.5396,152
10,-0.8837,0.4775,-0.0265,1.5808,-0.9059,0.5942,152
10,-0.8071,0.6949,0.0306,1.7357,-0.87,0.4437,152
10,-0.6285,1.0367,0.1214,1.7793,-0.8002,0.3031,152
10,-0.6867,0.7888,0.0122,1.5776,-0.6367,0.2398,152
10,-0.7081,1.1132,0.0122,1.1491,-0.4927,0.4502,152
10,-0.6173,0.7214,0.1265,1.1491,-0.4927,0.4502,152
10,-0.6755,0.4255,0.0031,0.7751,-0.3979,0.3445,152
10,-0.6755,0.4255,0.0031,0.5516,-0.1875,0.0937,152
10,-0.6346,0.5112,0.1326,0.5604,-0.1188,0.0011,152
10,-0.6908,0.4316,0.0112,0.5211,0.0883,-0.1232,152
10,-0.6642,0.3714,-0.1806,0.3227,0.2703,-0.2442,152
10,-0.5704,0.2826,-0.1622,0.3041,0.3357,-0.2812,152
10,-0.5745,0.1703,-0.2847,0.242,0.3663,-0.3216,152
10,-0.5928,0.1285,-0.2397,0.2922,0.412,-0.2976,152
10,-0.5755,0.1091,-0.1377,0.2922,0.412,-0.2976,152
10,-0.6234,0.1306,-0.0898,0.4426,0.4229,-0.2464,152
10,-0.6816,0.2051,-0.051,0.495,0.4513,-0.1471,152
10,-0.6816,0.2051,-0.051,0.5963,0.5015,-0.0294,152
10,-0.8377,0.3989,0.0031,0.6682,0.5461,0.0992,152
10,-0.9244,0.5031,0.0224,0.6923,0.6028,0.1919,152
10,-1.002,0.6214,0.0316,0.652,0.6148,0.2354,152
10,-1.0693,0.6112,0.002,0.4677,0.5919,0.206,152
10,-1.1867,0.6541,-0.0469,0.255,0.5429,0.1308,152
10,-1.1785,0.5714,-0.0224,0.0784,0.4307,0.037,152
10,-1.1367,0.5367,-0.0286,-0.0937,0.2987,-0.0828,152
10,-1.1367,0.5367,-0.0286,-0.0937,0.2987,-0.0828,152
10,-1.0234,0.3184,-0.0449,-0.3914,0.1253,-0.3183,152
10,-1.0367,0.3204,-0.051,-0.3914,0.1253,-0.3183,152
10,-1.0571,0.3571,-0.0959,-0.424,0.1242,-0.3542,152
10,-1.0571,0.3571,-0.0959,-0.4175,0.1232,-0.3859,152
10,-1.0857,0.3785,-0.1296,-0.4807,0.1242,-0.4109,152
10,-1.1245,0.3846,-0.1653,-0.544,0.0969,-0.4404,152
10,-1.1755,0.3643,-0.1612,-0.6432,0.0545,-0.4775,152
10,-1.2857,0.2826,-0.1612,-0.7413,-0.0162,-0.5287,152
10,-1.3081,0.2112,-0.0663,-0.8319,-0.1003,-0.5942,152
10,-1.3837,0.1612,-0.0367,-0.9441,-0.2049,-0.6541,152
10,-1.3949,-0.0693,-0.1041,-0.9441,-0.2049,-0.6541,152
10,-1.3439,-0.1346,-0.1082,-1.1131,-0.2638,-0.6944,152
10,-1.3785,-0.2438,-0.1775,-1.1272,-0.2922,-0.7424,152
10,-1.3785,-0.2438,-0.1775,-1.197,-0.2856,-0.7098,152
10,-1.4867,-0.1744,-0.2632,-1.354,-0.2169,-0.6606,152
10,-1.2204,-0.4683,-0.4061,-1.6703,-0.2495,-0.6781,152
10,-1.1979,-0.4235,-0.6418,-1.9908,-0.2005,-0.6356,152
10,-1.0153,-0.6469,-0.6673,-1.8785,-0.2016,-0.5582,152
10,-0.8479,-0.5092,-0.5836,-1.5099,-0.3456,-0.4099,152
10,-0.7918,-0.4214,-0.5173,-0.9551,-0.4753,-0.2093,152
10,-0.752,-0.3877,-0.4642,-0.9551,-0.4753,-0.2093,152
10,-0.752,-0.3877,-0.4642,-0.6944,-0.4753,-0.157,152
10,-0.5295,-0.0663,-0.2183,-0.5255,-0.4601,-0.1253,152
10,-0.5295,-0.0663,-0.2183,-0.4295,-0.4742,-0.0392,152
10,-0.4979,0.0081,-0.1898,-0.4492,-0.4753,0.0621,152
10,-0.5061,0.0663,-0.1785,-0.5189,-0.3674,0.1396,152
10,-0.4775,0.0969,-0.1744,-0.6083,-0.2812,0.1864,152
10,-0.4888,0.0357,-0.1683,-0.7676,-0.2125,0.2104,152
10,-0.5122,-0.0541,-0.2377,-0.9124,-0.0992,0.1972,152
10,-0.5551,-0.0969,-0.25,-0.966,0.025,0.169,152
10,-0.65,-0.2296,-0.3132,-0.966,0.025,0.169,152
10,-0.65,-0.2296,-0.3132,-0.9473,0.1384,0.1471,152
10,-0.6949,-0.3091,-0.3347,-0.9256,0.2268,0.1308,152
11,-0.7449,-0.3826,-0.3377,-0.8722,0.2911,0.1286,152
11,-0.8479,-0.4428,-0.3448,-0.7981,0.3466,0.1711,152
11,-1.0377,-0.4938,-0.3336,-0.6869,0.3695,0.1831,152
11,-1.0693,-0.5061,-0.3112,-0.4895,0.3281,0.1678,152
11,-1.151,-0.549,-0.3112,-0.3783,0.2474,0.2027,152
11,-1.1735,-0.5939,-0.35,-0.2768,0.1635,0.2474,152
11,-1.1816,-0.4949,-0.3387,-0.1013,0.073,0.2834,152
11,-1.1561,-0.3857,-0.2867,-0.1013,0.073,0.2834,152
11,-1.102,-0.3571,-0.299,0.1047,-0.0097,0.3183,152
11,-1.102,-0.3571,-0.299,0.1766,-0.0948,0.3412,152
11,-1.0061,-0.302,-0.3214,0.1701,-0.169,0.3542,152
11,-0.9969,-0.2622,-0.3224,0.2495,-0.2005,0.3729,152
11,-1.0306,-0.2561,-0.3234,0.2976,-0.2104,0.3838,152
11,-1.1571,-0.3643,-0.3275,0.3063,-0.2278,0.3979,152
11,-1.2531,-0.4183,-0.3428,0.339,-0.2442,0.4219,152
11,-1.452,-0.4633,-0.3275,0.4611,-0.2289,0.4611,152
11,-1.5745,-0.5031,-0.2847,0.4611,-0.2289,0.4611,152
11,-1.7479,-0.2867,-0.3234,0.6345,-0.2518,0.495,152
11,-1.6551,-0.2133,-0.2643,0.8395,-0.3554,0.5353,152
11,-1.6551,-0.2133,-0.2643,1.0935,-0.4589,0.5887,152
11,-1.5602,0.0398,-0.2183,1.4532,-0.628,0.5931,152
11,-1.3683,0.2683,-0.1847,1.6789,-0.7817,0.6181,152
11,-0.9122,0.7357,-0.0673,1.801,-0.9179,0.581,152
11,-0.6867,0.8479,-0.0388,1.8425,-0.9921,0.4536,152
11,-0.5071,0.9551,0.0286,1.7531,-1.0051,0.267,152
11,-0.4581,0.6744,-0.0326,1.5242,-0.9397,0.3445,152
11,-0.4877,0.6245,0.0928,1.2842,-0.8874,0.6356,152
11,-0.3837,0.4326,-0.0408,1.2842,-0.8874,0.6356,152
11,-0.2561,0.1377,0.3643,1.5143,-0.8012,0.6585,152
11,-0.2561,0.1377,0.3643,1.668,-0.6062,0.3674,152
11,-0.4612,0.451,0.1102,1.6245,-0.1875,0.4469,152
11,-0.4949,0.3245,0.0031,0.6247,0.0795,-0.0784,152
11,-0.5061,0.2397,-0.0459,0.483,0.2932,-0.1602,152
11,-0.4571,0.1346,-0.102,0.5473,0.4536,-0.2039,152
11,-0.4888,0.1245,-0.1642,0.6247,0.5843,-0.2583,152
11,-0.4816,0.102,-0.1387,0.7119,0.6944,-0.206,152
11,-0.5612,0.0612,-0.153,0.7632,0.7588,-0.1635,152
11,-0.5612,0.0612,-0.153,0.7632,0.7588,-0.1635,152
11,-0.6489,0.0143,-0.1918,0.8252,0.822,-0.1362,152
11,-0.7204,0.2173,-0.0652,1.028,0.8504,-0.0097,152
11,-0.7826,0.3989,0.0102,1.3279,0.8373,0.1962,152
11,-1.0265,0.5561,0.0398,1.2974,0.8427,0.3237,152
11,-1.0255,0.5632,0.0428,1.0935,0.9278,0.3237,152
11,-1.153,0.6489,0.0224,0.9889,0.9278,0.3063,152
11,-1.2673,0.7551,-0.0316,0.8809,0.8656,0.2976,152
11,-1.3898,0.6673,-0.1255,0.6345,0.7184,0.1984,152
11,-1.3163,0.6735,-0.0765,0.412,0.5593,0.1308,152
11,-1.3204,0.6418,-0.0796,0.412,0.5593,0.1308,152
11,-1.3204,0.6418,-0.0796,0.2878,0.3575,0.0479,152
11,-1.2081,0.6061,-0.0357,0.1253,0.2093,-0.0381,152
11,-1.1061,0.5051,0.0,-0.0272,0.1198,-0.1112,152
11,-1.103,0.453,0.0173,-0.1526,0.0686,-0.1591,152
11,-1.0775,0.4173,0.0173,-0.2376,0.0534,-0.2049,152
11,-1.105,0.3663,0.0234,-0.3031,0.0457,-0.242,152
11,-1.1337,0.3204,-0.002,-0.3914,0.0414,-0.2844,152
11,-1.1653,0.2786,-0.0112,-0.4437,0.0392,-0.3271,152
11,-1.1816,0.2673,-0.0102,-0.4404,0.0261,-0.3695,152
11,-1.2092,0.2326,-0.0551,-0.4404,0.0261,-0.3695,152
11,-1.2285,0.2357,-0.105,-0.4502,0.0141,-0.4132,152
11,-1.2285,0.2357,-0.105,-0.4938,-0.0141,-0.4622,152
11,-1.2408,0.2765,-0.1204,-0.507,-0.0555,-0.5047,152
11,-1.2316,0.2888,-0.1622,-0.5265,-0.0992,-0.5494,152
11,-1.2194,0.2479,-0.1469,-0.6203,-0.1766,-0.6018,152
11,-1.2275,0.1796,-0.1234,-0.738,-0.2649,-0.6629,152
11,-1.2296,0.1183,-0.1326,-0.8231,-0.3456,-0.7228,152
11,-1.2296,0.0204,-0.1377,-0.8689,-0.3771,-0.7489,152
11,-1.2377,-0.0398,-0.1285,-0.8689,-0.3771,-0.7489,152
11,-1.1541,-0.1204,-0.1387,-0.9288,-0.3695,-0.7598,152
11,-1.1541,-0.1204,-0.1387,-1.0063,-0.3674,-0.7348,152
11,-1.249,-0.101,-0.2081,-1.1535,-0.3227,-0.6715,152
11,-1.1122,-0.3969,-0.3234,-1.3988,-0.2998,-0.6301,152
11,-1.0939,-0.3612,-0.4612,-1.5645,-0.2365,-0.5429,152
11,-1.0877,-0.4112,-0.4122,-1.4784,-0.2507,-0.4143,152
11,-0.9438,-0.501,-0.5061,-1.3552,-0.2573,-0.3205,152
11,-0.8632,-0.453,-0.502,-1.2079,-0.3107,-0.255,152
11,-0.7653,-0.452,-0.5571,-1.0084,-0.387,-0.0806,152
11,-0.6959,-0.2367,-0.4306,-1.0084,-0.387,-0.0806,152
11,-0.4775,0.1112,-0.2734,-0.2333,-0.4414,0.1962,152
11,-0.4244,0.153,-0.2122,-0.2333,-0.4414,0.1962,152
11,-0.3877,0.0796,-0.1479,-0.3674,-0.4426,0.2474,152
11,-0.3877,0.0796,-0.1479,-0.5135,-0.3924,0.2562,152
11,-0.401,0.0418,-0.1245,-0.5996,-0.2987,0.2507,152
11,-0.4377,0.0153,-0.1194,-0.6127,-0.1951,0.2453,152
11,-0.4877,0.0153,-0.105,-0.5963,-0.0763,0.2485,152
11,-0.5969,-0.0847,-0.1082,-0.6072,0.0686,0.2398,152
11,-0.651,-0.1581,-0.1479,-0.6596,0.2562,0.1972,152
11,-0.6949,-0.2234,-0.1418,-0.6508,0.4099,0.2027,152
11,-0.8347,-0.3602,-0.2388,-0.6508,0.4099,0.2027,152
11,-0.8959,-0.3724,-0.2459,-0.6301,0.544,0.2104,152
11,-0.9449,-0.3826,-0.2357,-0.5353,0.6465,0.194,152
11,-0.9449,-0.3826,-0.2357,-0.351,0.6846,0.2049,152
11,-1.0031,-0.3928,-0.2714,-0.2256,0.6726,0.1984,152
11,-1.1479,-0.353,-0.2786,-0.1024,0.6192,0.2289,152
11,-1.2101,-0.3336,-0.2786,0.0065,0.5026,0.2605,152
11,-1.2377,-0.3112,-0.2857,0.0818,0.3685,0.2617,152
11,-1.2459,-0.2724,-0.2969,0.1515,0.2268,0.2562,152
11,-1.2194,-0.2183,-0.2745,0.218,0.1057,0.2365,152
11,-1.204,-0.1979,-0.2551,0.2562,0.0087,0.2147,152
11,-1.1877,-0.1785,-0.2326,0.2562,0.0087,0.2147,152
11,-1.2224,-0.2101,-0.1683,0.2966,-0.0621,0.1842,152
11,-1.2224,-0.2101,-0.1683,0.3314,-0.1089,0.1581,152
11,-1.2806,-0.2775,-0.1418,0.3466,-0.1503,0.1286,152
11,-1.3255,-0.3173,-0.1469,0.388,-0.1864,0.1079,152
11,-1.4408,-0.3347,-0.1632,0.4982,-0.2104,0.1133,152
11,-1.5132,-0.249,-0.1816,0.6606,-0.255,0.1308,152
11,-1.4653,-0.1357,-0.2285,0.8361,-0.3161,0.1678,152
11,-1.3479,0.0132,-0.1703,1.099,-0.4164,0.1907,152
11,-1.1132,0.2857,-0.1663,1.2232,-0.4938,0.2344,152
11,-1.1132,0.2857,-0.1663,1.2232,-0.4938,0.2344,152
11,-0.9734,0.4704,-0.1428,1.2647,-0.5582,0.2224,152
12,-0.85,0.6561,-0.0877,1.3464,-0.6018,0.1919,152
12,-0.7051,0.7836,-0.0541,1.3268,-0.6083,0.0577,152
12,-0.5704,0.8418,0.0153,1.1927,-0.5745,-0.0402,152
12,-0.6091,0.7806,-0.0245,0.954,-0.4731,0.0479,152
12,-0.5734,0.6581,0.0102,0.6988,-0.4055,0.1123,152
12,-0.5102,0.6969,0.1367,0.6814,-0.3292,0.086,152
12,-0.5306,0.3877,0.1326,0.5331,-0.1503,-0.1318,152
12,-0.5571,0.1796,0.1551,0.5364,-0.0992,-0.073,152
12,-0.7449,0.251,-0.0602,0.5364,-0.0992,-0.073,152
12,-0.7449,0.251,-0.0602,0.6508,0.3292,-0.0589,152
12,-0.7326,0.1592,-0.0673,0.5047,0.3729,-0.0719,152
12,-0.7316,0.0948,-0.0684,0.3325,0.5179,-0.085,152
12,-0.7643,0.0388,-0.1173,0.2791,0.5833,-0.0381,152
12,-0.851,0.0051,-0.1673,0.388,0.6377,0.0217,152
12,-0.8653,0.3091,-0.0643,0.6323,0.5865,0.1221,152
12,-0.9061,0.4357,-0.0255,0.7915,0.5494,0.2201,152
12,-0.9367,0.5051,-0.0245,0.7359,0.5364,0.2495,152
12,-1.0398,0.6153,-0.0295,0.6377,0.5233,0.2333,152
12,-1.053,0.5877,-0.0479,0.6377,0.5233,0.2333,152
12,-0.9847,0.8245,0.0163,0.532,0.495,0.1396,152
12,-0.9847,0.8245,0.0163,0.4426,0.4622,0.1613,152
12,-1.0275,0.6306,0.0836,0.206,0.4065,0.0469,152
12,-1.0265,0.6653,0.0428,-0.0501,0.3794,-0.0763,152
12,-1.0622,0.5571,0.0357,-0.1253,0.3227,-0.1635,152
12,-1.0275,0.3418,-0.0908,-0.4109,0.2856,-0.2376,152
12,-1.0418,0.3755,0.0234,-0.4448,0.2649,-0.2779,152
12,-1.1061,0.2775,0.0,-0.3968,0.2245,-0.2823,152
12,-1.1082,0.1979,-0.0143,-0.3968,0.2245,-0.2823,152
12,-1.1173,0.2388,-0.0408,-0.5179,0.218,-0.3008,152
12,-1.1173,0.2388,-0.0408,-0.4775,0.1842,-0.2932,152
12,-1.1489,0.2765,-0.0867,-0.4469,0.157,-0.2998,152
12,-1.1867,0.3102,-0.1316,-0.496,0.1373,-0.3183,152
12,-1.2,0.3928,-0.1367,-0.5047,0.1057,-0.3575,152
12,-1.2133,0.4081,-0.1602,-0.5669,0.0523,-0.4153,152
12,-1.2326,0.3857,-0.1489,-0.689,-0.0032,-0.4807,152
12,-1.2479,0.3336,-0.1683,-0.8275,-0.0654,-0.5549,152
12,-1.2561,0.2949,-0.1694,-0.9234,-0.1373,-0.6159,152
12,-1.2101,0.1551,-0.1489,-0.9234,-0.1373,-0.6159,152
12,-1.2101,0.1551,-0.1489,-1.0019,-0.2224,-0.6814,152
12,-1.1622,0.0643,-0.1387,-1.1339,-0.3031,-0.7522,152
12,-1.1357,0.0275,-0.2255,-1.3311,-0.3357,-0.7621,152
12,-1.1163,-0.0969,-0.2316,-1.4435,-0.3161,-0.7783,152
12,-1.1337,-0.1173,-0.3163,-1.4576,-0.2976,-0.7424,152
12,-1.0948,-0.3112,-0.2867,-1.6375,-0.3193,-0.6247,152
12,-0.9673,-0.3112,-0.3184,-1.7968,-0.3248,-0.4655,152
12,-0.9826,-0.4408,-0.5469,-1.9429,-0.2464,-0.3729,152
12,-0.9847,-0.5204,-0.6102,-1.8403,-0.2016,-0.2703,152
12,-0.9112,-0.5,-0.5449,-1.8403,-0.2016,-0.2703,152
12,-0.9112,-0.5,-0.5449,-1.5339,-0.2823,-0.1396,152
12,-0.7898,-0.4,-0.452,-1.1404,-0.3935,-0.0185,152
12,-0.7071,-0.2551,-0.3683,-0.9027,-0.3979,0.0818,152
12,-0.6632,-0.1102,-0.3224,-0.7554,-0.4153,0.1755,152
12,-0.5979,0.0102,-0.2531,-0.7054,-0.4426,0.2495,152
12,-0.5092,0.0724,-0.1867,-0.8046,-0.4578,0.3172,152
12,-0.4938,0.0643,-0.1816,-0.9365,-0.387,0.3597,152
12,-0.5051,0.0326,-0.1796,-1.0292,-0.2998,0.3815,152
12,-0.5306,0.0051,-0.1908,-1.1055,-0.2071,0.387,152
12,-0.6306,-0.1326,-0.2531,-1.1055,-0.2071,0.387,152
12,-0.6867,-0.2377,-0.2969,-1.1513,-0.0959,0.3771,152
12,-0.6867,-0.2377,-0.2969,-1.1894,0.025,0.3597,152
12,-0.7571,-0.2775,-0.2877,-1.1196,0.1253,0.363,152
12,-0.8163,-0.3418,-0.2877,-1.0009,0.2268,0.3597,152
12,-0.954,-0.452,-0.3102,-0.9256,0.3085,0.3412,152
12,-1.0153,-0.5102,-0.3081,-0.8199,0.3619,0.3237,152
12,-1.0867,-0.5295,-0.2979,-0.6356,0.3771,0.3019,152
12,-1.1938,-0.5714,-0.3234,-0.4677,0.3445,0.2812,152
12,-1.2285,-0.5428,-0.3398,-0.4677,0.3445,0.2812,152
12,-1.2397,-0.499,-0.351,-0.3161,0.2834,0.2911,152
12,-1.2275,-0.4387,-0.3571,-0.1417,0.1722,0.3292,152
12,-1.2275,-0.4387,-0.3571,0.0316,0.0511,0.3619,152
12,-1.1673,-0.2816,-0.3152,0.1907,-0.0643,0.3783,152
12,-1.1489,-0.2367,-0.2847,0.2922,-0.1515,0.3729,152
12,-1.1408,-0.204,-0.25,0.3368,-0.218,0.363,152
12,-1.1826,-0.2306,-0.1837,0.3674,-0.2682,0.3401,152
12,-1.2469,-0.2673,-0.1694,0.4012,-0.2888,0.3151,152
12,-1.3224,-0.2592,-0.1887,0.4895,-0.2911,0.2954,152
12,-1.3755,-0.2285,-0.2204,0.6301,-0.2911,0.2812,152
12,-1.4265,-0.0234,-0.1847,0.9332,-0.3826,0.2659,152
12,-1.3898,0.1673,-0.1091,1.1404,-0.4841,0.2725,152
12,-1.1653,0.6428,0.1061,1.1404,-0.4841,0.2725,152
12,-1.1653,0.6428,0.1061,1.4424,-0.64,0.2333,152
12,-1.0265,0.8286,0.1316,1.6408,-0.7327,0.1177,152
12,-0.8255,0.9897,0.1082,1.6277,-0.7075,-0.0631,152
12,-0.7285,0.9551,0.0796,1.2701,-0.6737,-0.1798,152
12,-0.6908,0.8745,0.0234,0.9975,-0.6454,-0.0108,152
12,-0.5847,0.4459,0.1755,0.8155,-0.64,0.1919,152
12,-0.6908,0.3857,0.0622,0.7272,-0.4589,-0.098,152
12,-0.6683,0.1285,0.1826,0.6923,-0.4307,-0.1515,152
12,-0.754,0.3612,0.1091,0.7239,-0.2398,-0.1406,152
12,-0.7531,0.1663,-0.0336,0.7239,-0.2398,-0.1406,152
12,-0.704,0.151,-0.0948,0.5211,-0.0011,-0.2943,152
12,-0.704,0.151,-0.0948,0.4034,0.1449,-0.3968,152
12,-0.5775,0.1,-0.1714,0.4458,0.2278,-0.4132,152
12,-0.551,0.0347,-0.1489,0.5135,0.2856,-0.3859,152
12,-0.549,-0.0245,-0.1357,0.5833,0.2932,-0.3554,152
12,-0.5418,0.0081,-0.1204,0.8012,0.3205,-0.2867,152
12,-0.5663,0.2142,0.0479,1.0967,0.3271,-0.1602,152
12,-0.5959,0.2673,0.0581,1.2003,0.3958,-0.0087,152
12,-0.6377,0.3459,0.0959,1.2003,0.3958,-0.0087,152
12,-0.7133,0.5398,0.0928,1.184,0.4938,0.1133,152
12,-0.7133,0.5398,0.0928,1.1284,0.6062,0.193,152
12,-0.8908,0.5449,-0.0122,1.0259,0.6944,0.2376,152
12,-0.9092,0.6602,0.0816,0.9038,0.7827,0.2289,152
12,-1.0265,0.5571,-0.0224,0.6999,0.7937,0.2115,152
12,-1.1806,0.7122,-0.0112,0.6356,0.7457,0.1776,152
12,-1.2092,0.6796,0.0459,0.544,0.6726,0.012,152
12,-1.2612,0.5765,-0.0867,0.3019,0.5156,-0.1047,152
12,-1.2531,0.6918,0.004,0.2093,0.3739,-0.1864,152
12,-1.0918,0.3775,-0.1245,0.2093,0.3739,-0.1864,152
12,-1.0918,0.3775,-0.1245,-0.0457,0.243,-0.3019,152
13,-0.9806,0.4479,-0.0673,-0.2191,0.1711,-0.3783,152
13,-0.9806,0.4479,-0.0673,-0.2071,0.1232,-0.4382,152
13,-0.9398,0.3714,-0.1357,-0.3248,0.1232,-0.4895,152
13,-0.9571,0.3367,-0.1592,-0.3717,0.1013,-0.5341,152
13,-1.002,0.3163,-0.103,-0.4077,0.0915,-0.5713,152
13,-1.0826,0.2847,-0.0652,-0.4906,0.061,-0.6268,152
13,-1.3245,0.1826,-0.0163,-0.5778,0.0272,-0.6835,152
13,-1.4714,0.1082,-0.004,-0.6421,-0.0032,-0.726,152
13,-1.5459,0.0652,0.0224,-0.6421,-0.0032,-0.726,152
13,-1.5459,0.0652,0.0224,-0.7588,-0.0511,-0.7413,152
13,-1.5898,-0.1755,-0.0867,-0.9168,-0.0294,-0.8078,152
13,-1.5153,-0.2622,-0.1489,-1.0761,0.0261,-0.8624,152
13,-1.5071,-0.2806,-0.3612,-1.2854,0.1167,-0.7871,152
13,-1.1887,-0.4888,-0.3306,-1.5133,-0.0599,-0.6596,152
13,-1.1439,-0.4142,-0.5295,-1.5885,-0.1526,-0.4851,152
13,-1.0295,-0.4153,-0.5347,-1.4784,-0.1581,-0.3826,152
13,-0.9785,-0.4326,-0.701,-1.3105,-0.2659,-0.2878,152
13,-0.799,-0.1255,-0.4673,-0.7588,-0.3586,-0.1526,152
13,-0.7316,-0.053,-0.4418,-0.7588,-0.3586,-0.1526,152
13,-0.6673,0.0357,-0.355,-0.5396,-0.4307,-0.0174,152
13,-0.6673,0.0357,-0.355,-0.5189,-0.4393,0.0566,152
13,-0.6357,0.1224,-0.3041,-0.557,-0.4481,0.1177,152
13,-0.5602,0.1744,-0.153,-0.6726,-0.4481,0.1547,152
13,-0.549,0.153,-0.1306,-0.8275,-0.3783,0.1657,152
13,-0.549,0.1245,-0.0989,-0.9528,-0.2976,0.1591,152
13,-0.5541,0.0898,-0.0877,-1.0509,-0.2005,0.1406,152
13,-0.6326,-0.0408,-0.1275,-1.136,-0.0577,0.1057,152
13,-0.6551,-0.1449,-0.1887,-1.136,-0.0577,0.1057,152
13,-0.6806,-0.204,-0.203,-1.2243,0.0686,0.0806,152
13,-0.7714,-0.3306,-0.2418,-1.2188,0.181,0.0698,152
13,-0.7714,-0.3306,-0.2418,-1.1545,0.2823,0.085,152
13,-0.8132,-0.4306,-0.2847,-1.099,0.3542,0.0839,152
13,-0.85,-0.4816,-0.302,-1.0128,0.3783,0.0479,152
13,-0.8928,-0.5092,-0.3102,-0.8471,0.3695,0.0435,152
13,-0.9796,-0.5704,-0.3459,-0.6978,0.339,0.0534,152
13,-1.0183,-0.5541,-0.3428,-0.5385,0.2703,0.1274,152
13,-1.0234,-0.5306,-0.3143,-0.3815,0.1635,0.2136,152
13,-1.0428,-0.5377,-0.3336,-0.2703,0.0818,0.2725,152
13,-1.0602,-0.4775,-0.3132,-0.2703,0.0818,0.2725,152
13,-1.0775,-0.4102,-0.2857,-0.1133,0.0196,0.3248,152
13,-1.0775,-0.4102,-0.2857,0.085,-0.0316,0.3695,152
13,-1.0948,-0.3408,-0.2745,0.2213,-0.0501,0.4012,152
13,-1.1367,-0.1938,-0.2255,0.2987,-0.0654,0.4338,152
13,-1.152,-0.2071,-0.2336,0.2878,-0.0631,0.4458,152
13,-1.1642,-0.2357,-0.2571,0.2507,-0.0686,0.4077,152
13,-1.2643,-0.2949,-0.2408,0.2966,-0.085,0.3717,152
13,-1.3448,-0.353,-0.2663,0.3586,-0.11,0.3422,152
13,-1.4398,-0.3775,-0.3418,0.4317,-0.1352,0.326,152
13,-1.4398,-0.3775,-0.3418,0.4317,-0.1352,0.326,152
13,-1.4745,-0.3479,-0.3448,0.6127,-0.2081,0.314,152
13,-1.4571,-0.1755,-0.3112,0.8525,-0.3271,0.3183,152
13,-1.3612,-0.1337,-0.25,1.04,-0.4601,0.3248,152
13,-1.2969,-0.0306,-0.2377,1.1764,-0.6062,0.3729,152
13,-1.2367,0.2357,-0.1387,1.4086,-0.7184,0.4492,152
13,-1.0479,0.7438,0.1418,1.7008,-0.797,0.3946,152
13,-0.8826,0.8816,0.1163,1.7378,-0.8111,0.2594,152
13,-0.699,0.9765,0.0663,1.5187,-0.7533,0.1188,152
13,-0.6143,0.6959,-0.1245,1.5187,-0.7533,0.1188,152
13,-0.6428,0.8193,-0.0092,1.1654,-0.6508,0.2125,152
13,-0.6428,0.8193,-0.0092,0.8199,-0.6018,0.4916,152
13,-0.4734,0.5459,0.1673,0.7489,-0.6106,0.4927,152
13,-0.5734,0.4469,-0.0326,0.8166,-0.3422,-0.0131,152
13,-0.4847,0.4806,0.049,0.8067,-0.3248,-0.0261,152
13,-0.6265,0.4214,0.101,0.6476,-0.1471,-0.024,152
13,-0.5898,0.2275,-0.0214,0.388,0.0664,-0.2005,152
13,-0.5388,0.1112,-0.1061,0.1155,0.2125,-0.3412,152
13,-0.5581,0.0316,-0.1439,0.0675,0.3521,-0.387,152
13,-0.5398,-0.0745,-0.1592,0.0675,0.3521,-0.387,152
13,-0.5704,-0.1337,-0.1306,0.0708,0.4753,-0.3586,152
13,-0.5704,-0.1337,-0.1306,0.0784,0.5047,-0.2453,152
13,-0.653,-0.2275,-0.1245,0.2834,0.5635,-0.11,152
13,-0.7163,-0.0857,-0.0898,0.6978,0.6192,-0.012,152
13,-0.7459,0.1612,-0.004,1.0816,0.6345,0.1493,152
13,-0.7285,0.1744,-0.0255,1.1818,0.6454,0.2495,152
13,-0.9449,0.4888,0.0796,1.3029,0.8122,0.1678,152
13,-1.0704,0.5887,0.0295,1.1371,0.653,0.4012,152
13,-1.1918,0.5295,-0.0826,1.1371,0.653,0.4012,152
13,-1.3296,0.7428,-0.0143,0.6486,0.5091,0.1341,152
13,-1.2673,0.6377,0.0316,0.4099,0.3586,0.025,152
13,-1.4306,0.6602,-0.1408,0.4099,0.3586,0.025,152
13,-1.4306,0.6602,-0.1408,0.2649,0.2474,-0.0011,152
13,-1.1765,0.551,-0.0673,0.0479,0.037,-0.098,152
13,-1.1642,0.3387,-0.0551,-0.3183,-0.0698,-0.1962,152
13,-1.0939,0.4265,0.0193,-0.3521,-0.0894,-0.2583,152
13,-1.0887,0.2571,-0.1132,-0.3729,-0.1221,-0.3128,152
13,-1.0112,0.2816,-0.101,-0.4622,-0.1396,-0.3848,152
13,-1.0183,0.302,-0.0989,-0.4175,-0.1613,-0.4393,152
13,-0.9428,0.2479,-0.1102,-0.4906,-0.1667,-0.5112,152
13,-0.9387,0.1867,-0.0673,-0.5538,-0.1657,-0.5473,152
13,-0.9581,0.1612,-0.0622,-0.5538,-0.1657,-0.5473,152
13,-0.9979,0.1112,-0.0347,-0.5833,-0.1842,-0.5778,152
13,-0.9979,0.1112,-0.0347,-0.6442,-0.181,-0.6018,152
13,-1.1959,0.0234,-0.1112,-0.7098,-0.169,-0.6268,152
13,-1.2775,-0.0265,-0.1367,-0.7806,-0.1438,-0.6291,152
13,-1.3918,-0.0704,-0.1357,-0.8548,-0.1133,-0.6345,152
13,-1.4296,-0.1714,-0.1847,-0.9855,-0.0162,-0.6508,152
13,-1.4755,-0.4173,-0.1847,-1.1535,0.0131,-0.6192,152
13,-1.5438,-0.5989,-0.3122,-1.5143,0.0021,-0.545,152
13,-1.5398,-0.5684,-0.5775,-1.6713,0.1155,-0.4055,152
13,-1.3408,-0.6673,-0.549,-1.6713,0.1155,-0.4055,152
13,-1.0469,-0.5418,-0.7101,-1.6909,-0.0959,-0.3031,152
13,-1.0469,-0.5418,-0.7101,-1.3378,-0.2899,-0.23,152
13,-0.9092,-0.3632,-0.5,-0.6999,-0.4992,-0.0818,152
13,-0.8541,-0.2551,-0.4653,-0.2812,-0.5843,0.0589,152
13,-0.6143,0.05,-0.3061,-0.1482,-0.6617,0.1493,152
13,-0.5193,0.15,-0.2693,-0.1493,-0.7031,0.2365,152
13,-0.4408,0.1785,-0.2092,-0.2812,-0.6966,0.3117,152
13,-0.4132,0.2163,-0.1592,-0.4055,-0.6247,0.3729,152
13,-0.3785,0.2704,-0.0796,-0.4055,-0.6247,0.3729,152
13,-0.3785,0.2704,-0.0796,-0.495,-0.5102,0.4099,152
14,-0.4592,0.1459,-0.1285,-0.6442,-0.3717,0.4219,152
14,-0.4592,0.1459,-0.1285,-0.8012,-0.2256,0.4132,152
14,-0.5928,-0.0204,-0.1857,-0.9103,-0.0806,0.3838,152
14,-0.6234,-0.1439,-0.2133,-0.9343,0.0457,0.3554,152
14,-0.7255,-0.153,-0.199,-0.9256,0.1482,0.3946,152
14,-0.8102,-0.2112,-0.1898,-0.9082,0.2398,0.4077,152
14,-0.8724,-0.4112,-0.2979,-0.8744,0.3193,0.2617,152
14,-0.9969,-0.4142,-0.2693,-0.7283,0.3597,0.3281,152
14,-0.9928,-0.5347,-0.2938,-0.5713,0.3346,0.2954,152
14,-0.9928,-0.5347,-0.2938,-0.5713,0.3346,0.2954,152
14,-1.0887,-0.5245,-0.3224,-0.4677,0.2638,0.2725,152
14,-1.1183,-0.4653,-0.2918,-0.2627,0.1657,0.3117,152
14,-1.1428,-0.4102,-0.2612,-0.0795,0.0534,0.3663,152
14,-1.1153,-0.3622,-0.2265,0.0228,-0.0698,0.4132,152
14,-1.0704,-0.2602,-0.1898,0.0872,-0.1547,0.4502,152
14,-1.0724,-0.1877,-0.1959,0.1657,-0.1962,0.4687,152
14,-1.0714,-0.1265,-0.199,0.2093,-0.2147,0.4731,151
14,-1.0826,-0.0928,-0.2,0.2289,-0.2256,0.4633,151
14,-1.2101,-0.1796,-0.1306,0.2289,-0.2256,0.4633,151
14,-1.3061,-0.2357,-0.1489,0.2115,-0.231,0.4349,151
14,-1.3061,-0.2357,-0.1489,0.2049,-0.2213,0.3848,151
14,-1.3796,-0.2377,-0.1877,0.2966,-0.2147,0.3357,151
14,-1.5622,-0.1642,-0.1439,0.4655,-0.2169,0.3041,151
14,-1.5581,-0.0632,-0.1785,0.6291,-0.2605,0.2802,151
14,-1.5826,0.0918,-0.2051,0.8024,-0.3368,0.2737,151
14,-1.3939,0.3112,-0.1143,1.0423,-0.4992,0.2703,151
14,-1.1234,0.5765,-0.0571,1.2428,-0.6552,0.1919,151
14,-0.9,0.7693,0.0928,1.3595,-0.6911,0.0523,151
14,-0.8173,0.8296,0.0031,1.3595,-0.6911,0.0523,151
14,-0.699,0.8387,-0.0255,1.2613,-0.7413,-0.1013,151
14,-0.699,0.8387,-0.0255,1.111,-0.7205,-0.2125,151
14,-0.6398,0.6653,0.103,0.9681,-0.6781,-0.0534,151
14,-0.6724,0.5286,0.1234,0.8252,-0.7239,0.0446,151
14,-0.6724,0.203,0.0143,0.8111,-0.4971,-0.1274,151
14,-0.8673,0.2775,0.1387,0.8569,-0.4578,-0.0904,151
14,-0.8255,0.1877,0.1214,0.9452,-0.0828,0.0818,151
14,-0.7979,0.105,0.052,0.7773,0.1112,-0.2495,151
14,-0.7531,0.0326,-0.0459,0.628,0.2737,-0.4044,151
14,-0.6489,-0.0295,-0.1735,0.628,0.2737,-0.4044,151
14,-0.6571,-0.0775,-0.2183,0.6367,0.3739,-0.3924,151
14,-0.6571,-0.0775,-0.2183,0.6312,0.4372,-0.4263,151
14,-0.6489,-0.0591,-0.251,0.6291,0.4536,-0.4458,151
14,-0.6041,0.1377,-0.1194,0.9931,0.4414,-0.3445,151
14,-0.6735,0.4122,-0.0377,1.4261,0.4382,-0.2016,151
14,-0.5643,0.4438,0.0183,1.4031,0.4349,-0.0719,151
14,-0.7,0.4102,-0.0602,1.1339,0.5364,0.037,151
14,-0.7367,0.5306,0.0357,1.1621,0.6083,0.0969,151
14,-0.7163,0.5948,0.0673,1.2264,0.6825,0.1341,151
14,-0.8377,0.6377,0.0112,1.2264,0.6825,0.1341,151
14,-0.8377,0.6377,0.0112,1.1186,0.7447,0.1449,151
14,-0.9734,0.7122,-0.0092,0.9431,0.7327,0.1428,151
14,-1.1061,0.6439,-0.1214,0.8155,0.6781,0.1221,151
14,-1.1837,0.7561,-0.0357,0.6901,0.6018,0.1242,151
14,-1.1214,0.6735,0.0295,0.4992,0.3958,0.0011,151
14,-1.1837,0.5234,-0.049,0.1984,0.2998,-0.1024,151
14,-1.0948,0.5071,0.0143,0.1264,0.2005,-0.169,151
14,-1.0234,0.3898,0.0061,-0.0131,0.1167,-0.2388,151
14,-0.9438,0.3286,0.0112,-0.1396,0.0479,-0.2867,151
14,-0.8877,0.3152,0.0295,-0.1396,0.0479,-0.2867,151
14,-0.8877,0.3152,0.0295,-0.1167,0.0686,-0.3281,151
14,-0.8602,0.303,0.0031,-0.1341,0.0774,-0.3804,151
14,-0.8785,0.2867,0.0122,-0.1787,0.1057,-0.4361,151
14,-0.9306,0.251,-0.0234,-0.2224,0.1449,-0.4763,151
14,-0.9908,0.2275,-0.0306,-0.2649,0.1701,-0.5179,151
14,-1.0765,0.2081,-0.0326,-0.3117,0.1842,-0.5625,151
14,-1.1785,0.1683,-0.0326,-0.3804,0.1831,-0.6106,151
14,-1.4153,0.0295,-0.0295,-0.4393,0.1547,-0.652,151
14,-1.5459,-0.0193,-0.0163,-0.4971,0.0937,-0.6759,151
14,-1.5786,-0.101,-0.0051,-0.4971,0.0937,-0.6759,151
14,-1.552,-0.3163,-0.0295,-0.5429,-0.0032,-0.713,151
14,-1.552,-0.3163,-0.0295,-0.6291,-0.0872,-0.7533,151
14,-1.5704,-0.3714,-0.101,-0.6781,-0.1329,-0.7195,151
14,-1.353,-0.4601,-0.1265,-0.8199,-0.1787,-0.7054,151
14,-1.3959,-0.4459,-0.3918,-0.8863,-0.1493,-0.6432,151
14,-1.1173,-0.4163,-0.3908,-0.7348,-0.2388,-0.5385,151
14,-1.0102,-0.4377,-0.4285,-0.6432,-0.3052,-0.4263,151
14,-0.901,-0.3571,-0.451,-0.545,-0.3302,-0.3128,151
14,-0.7704,-0.1,-0.3245,-0.1221,-0.2867,-0.0621,151
14,-0.7204,0.0449,-0.252,0.0631,-0.2638,0.0457,151
14,-0.6714,0.1163,-0.1949,-0.0446,-0.2409,0.1438,151
14,-0.6714,0.1163,-0.1949,-0.0446,-0.2409,0.1438,151
14,-0.601,0.1439,-0.1102,-0.2159,-0.1864,0.1886,151
14,-0.5724,0.1694,-0.0948,-0.3237,-0.1221,0.206,151
14,-0.5581,0.204,-0.0898,-0.3968,-0.0392,0.2027,151
14,-0.5724,0.0918,-0.2112,-0.5549,0.0457,0.1755,151
14,-0.5816,0.0071,-0.2479,-0.7501,0.1198,0.1396,151
14,-0.6255,-0.0643,-0.2826,-0.8373,0.1711,0.1155,151
14,-0.6806,-0.1102,-0.303,-0.8514,0.23,0.11,151
14,-0.7693,-0.2581,-0.3091,-0.8645,0.2703,0.11,151
14,-0.7969,-0.3122,-0.2928,-0.8645,0.2703,0.11,151
14,-0.8204,-0.403,-0.301,-0.87,0.2802,0.1428,151
14,-0.8204,-0.403,-0.301,-0.821,0.3052,0.1972,151
14,-0.8398,-0.4755,-0.3061,-0.7283,0.3325,0.2365,151
14,-0.9194,-0.5306,-0.3122,-0.5614,0.3609,0.2409,151
14,-0.9347,-0.4581,-0.2867,-0.3128,0.3619,0.2278,151
14,-0.953,-0.3989,-0.2316,-0.0719,0.3292,0.2758,151
14,-0.9673,-0.3714,-0.2836,-0.0152,0.2659,0.338,151
14,-0.9704,-0.3184,-0.2898,0.0326,0.2104,0.3729,151
14,-0.9857,-0.2285,-0.2693,0.1515,0.1755,0.4099,151
14,-0.9918,-0.1694,-0.2449,0.1515,0.1755,0.4099,151
14,-0.9877,-0.1439,-0.2581,0.2104,0.1471,0.4187,151
14,-0.9877,-0.1439,-0.2581,0.1842,0.11,0.4132,151
14,-0.9785,-0.1653,-0.2734,0.1776,0.0959,0.3914,151
14,-0.9836,-0.1306,-0.2551,0.2398,0.0839,0.3565,151
14,-1.0388,-0.1367,-0.2581,0.2779,0.0719,0.3271,151
14,-1.1061,-0.2092,-0.251,0.2409,0.0425,0.2932,151
14,-1.199,-0.3051,-0.2397,0.2147,0.0185,0.2562,151
14,-1.3265,-0.4081,-0.2592,0.255,0.0032,0.2398,151
14,-1.5673,-0.5408,-0.3347,0.255,0.0032,0.2398,151
14,-1.6755,-0.499,-0.3796,0.3783,-0.0131,0.231,151
15,-1.7061,-0.352,-0.4428,0.6062,-0.0577,0.218,151
15,-1.7061,-0.352,-0.4428,0.9256,-0.1297,0.2365,151
15,-1.5551,-0.1214,-0.2469,1.2734,-0.2758,0.2856,151
15,-1.4704,0.0275,-0.2377,1.4358,-0.4404,0.3542,151
15,-1.3877,0.3234,-0.1979,1.5917,-0.5669,0.4328,151
15,-1.2316,0.6418,-0.0591,1.9101,-0.6411,0.3903,151
15,-0.7867,0.9704,-0.0092,1.9614,-0.7075,0.231,151
15,-0.6357,1.0479,-0.0265,1.751,-0.7642,0.0686,151
15,-0.6979,1.204,0.0684,1.5045,-0.7195,0.2485,151
15,-0.6979,1.204,0.0684,1.5045,-0.7195,0.2485,151
15,-0.5541,0.7826,-0.0163,0.8939,-0.7413,0.4643,151
15,-0.5857,0.5234,-0.0286,0.5974,-0.6465,0.3891,151
15,-0.6061,0.3979,-0.0908,0.5822,-0.4568,0.0261,151
15,-0.5265,0.549,0.0887,0.6944,-0.4284,-0.0087,151
15,-0.6143,0.3887,-0.0153,0.665,-0.1503,-0.074,151
15,-0.605,0.2397,-0.0898,0.4295,0.0545,-0.1515,151
15,-0.5449,0.1275,-0.0928,0.1842,0.1678,-0.2682,151
15,-0.5398,0.0602,-0.102,0.1318,0.2932,-0.2617,151
15,-0.5898,-0.0306,-0.1102,0.2365,0.4034,-0.1646,151
15,-0.6357,-0.0948,-0.1122,0.2365,0.4034,-0.1646,151
15,-0.6357,-0.0948,-0.1122,0.3619,0.4731,-0.0828,151
15,-0.6928,-0.1367,-0.1806,0.5211,0.5528,-0.0425,151
15,-0.7673,0.0775,-0.103,0.7686,0.5919,0.0435,151
15,-0.8255,0.2255,-0.0948,0.9965,0.5984,0.2027,151
15,-0.7898,0.1602,-0.0234,1.04,0.6236,0.3117,151
15,-0.9724,0.3826,-0.0908,1.0902,0.6978,0.2834,151
15,-1.0255,0.6877,-0.0295,1.0881,0.701,0.2856,151
15,-1.1408,0.6377,-0.0684,0.7718,0.6791,0.2998,151
15,-1.1969,0.751,-0.1418,0.5843,0.6203,0.2464,151
15,-1.2786,0.7806,-0.0581,0.5843,0.6203,0.2464,151
15,-1.3102,0.8357,-0.0245,0.4807,0.5015,0.1198,151
15,-1.3102,0.8357,-0.0245,0.2823,0.2998,0.0545,151
15,-1.1561,0.6224,0.1479,0.1526,0.0795,-0.0196,151
15,-1.1398,0.3826,-0.1132,-0.2464,-0.0948,-0.1471,151
15,-1.0153,0.4173,0.0295,-0.2682,-0.0774,-0.2333,151
15,-0.9775,0.2531,-0.0551,-0.3891,-0.1384,-0.2966,151
15,-0.9775,0.1796,-0.0836,-0.5145,-0.1384,-0.351,151
15,-0.953,0.2326,-0.0673,-0.3729,-0.1417,-0.3935,151
15,-0.9438,0.2592,-0.0745,-0.3729,-0.1417,-0.3935,151
15,-0.9265,0.1969,-0.0724,-0.3227,-0.1264,-0.4578,151
15,-0.9265,0.1969,-0.0724,-0.4295,-0.1112,-0.5047,151
15,-0.9244,0.102,-0.0724,-0.545,-0.1112,-0.5418,151
15,-1.0714,0.0643,-0.0092,-0.5669,-0.0818,-0.5647,151
15,-1.1703,0.0438,-0.0081,-0.5505,-0.0643,-0.6018,151
15,-1.2847,0.0234,-0.0255,-0.6028,-0.0654,-0.6312,151
15,-1.3755,-0.0449,-0.1,-0.7086,-0.0534,-0.6781,151
15,-1.5132,-0.2285,-0.1091,-0.8078,-0.0402,-0.7293,151
15,-1.6275,-0.2581,-0.3286,-0.8689,-0.0196,-0.6869,151
15,-1.4347,-0.5602,-0.3653,-0.8689,-0.0196,-0.6869,151
15,-1.4347,-0.5602,-0.3653,-0.9889,-0.0217,-0.64,151
15,-1.4163,-0.4459,-0.3989,-0.8994,-0.0599,-0.508,151
15,-1.3051,-0.5102,-0.4398,-0.6835,-0.2344,-0.3609,151
15,-1.252,-0.4601,-0.5714,-0.702,-0.2278,-0.3227,151
15,-1.0918,-0.3683,-0.5591,-0.6759,-0.3445,-0.1995,151
15,-0.9326,-0.2612,-0.5786,-0.6682,-0.4677,-0.0589,151
15,-0.853,-0.0255,-0.4255,-0.3336,-0.5473,0.0011,151
15,-0.7714,0.1938,-0.3122,-0.0174,-0.5952,0.1242,151
15,-0.6847,0.3102,-0.2418,-0.1352,-0.6138,0.2268,151
15,-0.5622,0.3582,-0.1428,-0.1352,-0.6138,0.2268,151
15,-0.5622,0.3582,-0.1428,-0.399,-0.5877,0.2932,151
15,-0.5102,0.454,-0.0765,-0.5167,-0.5026,0.3193,151
15,-0.4918,0.4408,-0.0948,-0.6857,-0.3891,0.3107,151
15,-0.4918,0.2275,-0.2061,-0.9648,-0.2714,0.2791,151
15,-0.5286,0.1439,-0.2561,-1.1339,-0.1732,0.2125,151
15,-0.5765,0.1571,-0.1571,-1.0913,-0.073,0.1667,151
15,-0.5591,0.0092,-0.1663,-1.1447,0.025,0.0751,151
15,-0.6592,-0.1979,-0.2367,-1.3126,0.1242,0.0534,151
15,-0.7336,-0.2347,-0.2,-1.3149,0.2125,0.0806,151
15,-0.7877,-0.3143,-0.2173,-1.3149,0.2125,0.0806,151
15,-0.9867,-0.4306,-0.2643,-1.2157,0.2802,0.0894,151
15,-0.9867,-0.4306,-0.2643,-1.1818,0.3183,0.0326,151
15,-0.7673,-0.6091,-0.2173,-1.1545,0.3903,-0.0501,151
15,-1.0928,-0.4847,-0.4449,-1.0412,0.3815,-0.1722,151
15,-0.9081,-0.601,-0.3541,-0.7783,0.3041,0.0479,151
15,-0.9979,-0.4816,-0.301,-0.4797,0.1907,0.1188,151
15,-1.0418,-0.449,-0.2826,-0.2659,0.1047,0.1972,151
15,-1.002,-0.4581,-0.2949,-0.1581,0.0523,0.2627,151
15,-1.0449,-0.1949,-0.2979,0.1406,-0.0501,0.3477,151
15,-1.0704,-0.2051,-0.2786,0.1646,-0.074,0.3586,151
15,-1.1275,-0.2173,-0.2806,0.169,-0.1198,0.363,151
15,-1.3041,-0.2775,-0.2336,0.169,-0.1198,0.363,151
15,-1.3041,-0.2775,-0.2336,0.2159,-0.1581,0.3597,151
15,-1.4203,-0.3041,-0.2775,0.2693,-0.1711,0.3456,151
15,-1.5367,-0.3061,-0.2806,0.3946,-0.2016,0.3401,151
15,-1.6143,-0.2234,-0.2653,0.5865,-0.2922,0.3357,151
15,-1.6867,0.0469,-0.2357,0.7773,-0.412,0.3456,151
15,-1.6153,0.103,-0.1091,1.0488,-0.6072,0.338,151
15,-1.3755,0.6857,0.0612,1.3792,-0.9027,0.4307,151
15,-1.0102,0.803,0.049,1.5002,-0.9736,0.2278,151
15,-0.752,0.7602,-0.0632,1.1262,-0.8481,-0.0664,151
15,-0.6143,0.7653,-0.0153,1.1262,-0.8481,-0.0664,151
15,-0.6143,0.7653,-0.0153,0.8842,-0.846,-0.1297,151
15,-0.6908,0.8469,-0.0153,0.7762,-0.7915,0.1701,151
15,-0.6082,0.3969,0.0234,0.507,-0.7522,0.1264,151
15,-0.4897,0.15,0.1622,0.3739,-0.5679,-0.0392,151
15,-0.7081,0.1806,0.0459,0.35,-0.4884,-0.0566,151
15,-0.6439,0.2704,0.0775,0.4153,-0.3729,0.025,151
15,-0.6275,0.1857,0.0071,0.4055,-0.0643,-0.1329,151
15,-0.5908,0.1132,-0.0449,0.2737,0.1112,-0.2747,151
15,-0.5153,0.0326,-0.0755,0.2737,0.1112,-0.2747,151
15,-0.4979,-0.1285,-0.0388,0.1744,0.2256,-0.3128,151
15,-0.4979,-0.1285,-0.0388,0.2344,0.3073,-0.2976,151
15,-0.5173,-0.1357,-0.0173,0.3859,0.3401,-0.2147,151
15,-0.5051,-0.0989,0.0031,0.6541,0.3706,-0.1352,151
15,-0.5693,-0.0234,0.0275,0.8798,0.412,-0.0185,151
15,-0.6132,0.0959,0.0857,0.9921,0.4666,0.1384,151
15,-0.704,0.1785,0.0153,0.9845,0.5658,0.1798,151
15,-0.8877,0.3163,0.0193,1.0499,0.7598,0.1362,151
15,-0.9642,0.3214,-0.0388,0.9082,0.7054,0.3052,151
15,-0.9194,0.449,0.0234,0.9082,0.7054,0.3052,151
16,-1.0643,0.5673,0.0316,0.8514,0.8285,0.2922,151
16,-1.0643,0.5673,0.0316,0.9103,0.8231,0.2802,151
16,-1.0786,0.5948,0.0316,0.7762,0.7926,0.1787,151
16,-1.2265,0.5632,-0.0357,0.5625,0.6955,0.1047,151
16,-1.2561,0.5673,-0.0428,0.4328,0.5789,0.0228,151
16,-1.2857,0.5734,-0.0398,0.3445,0.4524,-0.0654,151
16,-1.2551,0.4979,-0.0143,0.2442,0.326,-0.1112,151
16,-1.0643,0.5163,0.0632,0.1089,0.2093,-0.1798,151
16,-1.053,0.2826,-0.0796,-0.1123,0.1144,-0.2256,151
16,-1.0989,0.3224,-0.0051,-0.1123,0.1144,-0.2256,151
16,-1.0989,0.3224,-0.0051,-0.1482,0.1591,-0.2954,151
16,-1.0847,0.254,-0.0887,-0.1396,0.1329,-0.3302,151
16,-1.0275,0.2673,-0.1173,-0.2495,0.1461,-0.388,151
16,-1.0918,0.3275,-0.1102,-0.2256,0.1047,-0.4263,151
16,-1.202,0.2347,-0.1224,-0.3271,0.0763,-0.4818,151
16,-1.2653,0.2183,-0.0357,-0.4099,0.0469,-0.5364,151
16,-1.3612,0.1663,-0.0143,-0.4601,-0.0011,-0.5833,151
16,-1.4173,0.0663,-0.0214,-0.5734,-0.036,-0.6301,151
16,-1.4734,-0.1183,-0.1112,-0.6944,-0.0511,-0.665,151
16,-1.4734,-0.2234,-0.1173,-0.6944,-0.0511,-0.665,151
16,-1.4734,-0.2234,-0.1173,-0.7447,-0.025,-0.7152,151
16,-1.3632,-0.1714,-0.1949,-0.821,-0.0108,-0.6749,151
16,-1.4877,-0.2459,-0.2795,-0.9637,0.0065,-0.6039,151
16,-1.3561,-0.3132,-0.4601,-1.1175,-0.0566,-0.5211,151
16,-1.0388,-0.3326,-0.4428,-1.1501,-0.1471,-0.3826,151
16,-1.1061,-0.3582,-0.5255,-1.1382,-0.2354,-0.3117,151
16,-0.8887,-0.2816,-0.551,-0.9071,-0.2768,-0.2388,151
16,-0.8184,-0.1459,-0.4826,-0.4426,-0.3674,-0.0828,151
16,-0.7602,0.0459,-0.4214,-0.2016,-0.4284,0.0349,151
16,-0.7133,0.1938,-0.2816,-0.2016,-0.4284,0.0349,151
16,-0.6204,0.2388,-0.1765,-0.1919,-0.4414,0.1167,151
16,-0.6204,0.2388,-0.1765,-0.4208,-0.4448,0.1962,151
16,-0.5989,0.2724,-0.1234,-0.6083,-0.3968,0.2333,151
16,-0.5714,0.2928,-0.0408,-0.7054,-0.338,0.2573,151
16,-0.6061,0.1469,-0.153,-0.8569,-0.2365,0.2539,151
16,-0.6194,0.101,-0.1673,-1.0292,-0.1089,0.2016,151
16,-0.6837,0.0081,-0.2612,-1.1001,0.0011,0.1362,151
16,-0.7051,-0.0857,-0.2531,-1.1142,0.0751,0.0904,151
16,-0.8081,-0.204,-0.2663,-1.1001,0.1253,0.0751,151
16,-0.8541,-0.3275,-0.2734,-1.1001,0.1253,0.0751,151
16,-0.801,-0.4561,-0.2612,-1.1001,0.1711,0.0828,151
16,-0.801,-0.4561,-0.2612,-1.1404,0.1755,0.0206,151
16,-1.0143,-0.5316,-0.3408,-1.0816,0.2234,0.0469,151
16,-0.9908,-0.6285,-0.25,-0.7817,0.1984,0.1003,151
16,-1.0061,-0.5786,-0.3398,-0.5156,0.1232,0.0818,151
16,-1.0143,-0.4826,-0.2806,-0.2649,0.0806,0.1635,151
16,-1.0051,-0.4755,-0.3102,-0.1297,0.0065,0.2617,151
16,-0.9633,-0.3887,-0.2745,-0.0087,-0.0643,0.3314,151
16,-0.9347,-0.3132,-0.2643,-0.0087,-0.0643,0.3314,151
16,-0.9347,-0.3132,-0.2643,0.1493,-0.1253,0.3914,151
16,-0.9408,-0.1194,-0.2133,0.2409,-0.1373,0.4328,151
16,-0.9408,-0.1194,-0.2133,0.2911,-0.1591,0.4786,151
16,-0.9724,-0.1428,-0.2071,0.2659,-0.181,0.4841,151
16,-1.0326,-0.201,-0.1969,0.2617,-0.1787,0.471,151
16,-1.2551,-0.2693,-0.1592,0.338,-0.1678,0.4643,151
16,-1.4051,-0.2561,-0.2173,0.4458,-0.1623,0.4786,151
16,-1.5408,-0.2214,-0.2133,0.5789,-0.1852,0.5015,151
16,-1.6592,-0.1346,-0.1775,0.7686,-0.2638,0.507,151
16,-1.751,0.0449,-0.0693,0.7686,-0.2638,0.507,151
16,-1.751,0.0449,-0.0693,0.9921,-0.4065,0.508,151
16,-1.6091,0.4979,0.004,1.2439,-0.6596,0.5625,151
16,-1.3939,0.5796,-0.052,1.3889,-0.7937,0.507,151
16,-0.8286,0.7745,-0.1592,1.2712,-0.7871,0.2234,151
16,-0.6306,0.9551,0.0204,1.2418,-0.8798,0.0643,151
16,-0.5612,0.8102,0.0479,1.0684,-0.8809,0.0763,151
16,-0.5591,0.5765,0.0357,0.6726,-0.8613,0.2376,151
16,-0.4775,0.2938,-0.1194,0.5494,-0.8296,0.2485,151
16,-0.5745,0.0449,0.351,0.6596,-0.7174,0.049,151
16,-0.5469,0.6469,0.2173,0.6596,-0.7174,0.049,151
16,-0.6337,0.2551,0.0388,0.8155,-0.5582,0.1068,151
16,-0.6337,0.2551,0.0388,0.4328,-0.2039,-0.2278,151
16,-0.6561,0.105,-0.0316,0.2911,-0.012,-0.4099,151
16,-0.6224,0.0428,-0.0306,0.3117,0.1755,-0.4414,151
16,-0.5969,-0.0071,-0.0704,0.3489,0.3554,-0.4404,151
16,-0.6214,-0.1326,-0.1418,0.4349,0.5244,-0.4263,151
16,-0.6581,-0.0806,-0.1857,0.5299,0.6116,-0.339,151
16,-0.704,0.0061,-0.1857,0.6432,0.6617,-0.2005,151
16,-0.8489,0.2234,-0.1234,1.0389,0.7337,-0.0011,151
16,-0.7755,0.4041,0.0428,1.3029,0.7369,0.1613,151
16,-0.8837,0.4316,0.0153,1.2276,0.7293,0.2605,151
16,-1.0183,0.5602,-0.0438,1.2276,0.7293,0.2605,151
16,-1.0183,0.5602,-0.0438,1.027,0.7522,0.2922,151
16,-1.0643,0.6183,-0.0652,0.9234,0.7249,0.2409,151
16,-1.1061,0.7133,-0.0061,0.8754,0.6465,0.1537,151
16,-1.1561,0.6918,-0.0734,0.6955,0.5528,0.0828,151
16,-1.0898,0.6561,0.0153,0.5047,0.4175,0.0435,151
16,-1.0173,0.5673,0.1316,0.4797,0.2278,0.0261,151
16,-1.0031,0.3214,-0.0755,0.1406,0.1373,-0.0784,151
16,-0.8867,0.35,0.0051,0.0577,0.1711,-0.1623,151
16,-0.9112,0.2693,-0.0306,0.0763,0.1591,-0.1886,151
16,-0.8663,0.1918,-0.0755,0.0763,0.1591,-0.1886,151
16,-0.8663,0.1918,-0.0755,-0.0435,0.1657,-0.2245,151
16,-0.8694,0.2101,-0.0745,-0.012,0.1755,-0.2518,151
16,-0.8765,0.204,-0.0408,0.036,0.1864,-0.2834,151
16,-0.9408,0.1683,-0.0122,0.0097,0.1798,-0.3237,151
16,-1.0031,0.1337,0.0163,-0.0294,0.181,-0.3575,151
16,-1.0918,0.1102,0.0326,-0.0479,0.169,-0.3848,151
16,-1.2653,0.0561,0.0193,-0.073,0.1526,-0.4153,151
16,-1.3796,0.0,0.004,-0.1177,0.1167,-0.4437,151
16,-1.4428,-0.052,-0.0031,-0.1875,0.0839,-0.4698,151
16,-1.5796,-0.1969,-0.1102,-0.1875,0.0839,-0.4698,151
16,-1.6683,-0.5081,-0.0714,-0.2605,0.0774,-0.5265,151
16,-1.6683,-0.5081,-0.0714,-0.3271,0.0708,-0.508,151
16,-1.4969,-0.4173,-0.3683,-0.3281,0.085,-0.3914,151
16,-1.5673,-0.3683,-0.4551,-0.2878,0.0643,-0.2954,151
16,-1.3184,-0.353,-0.5193,0.0065,-0.1024,-0.2464,151
16,-1.2428,-0.2979,-0.5908,-0.0032,-0.1526,-0.2453,151
16,-1.0959,-0.1071,-0.5316,0.0828,-0.3151,-0.1623,151
16,-0.9326,0.1316,-0.2969,0.2224,-0.4252,-0.1167,151
16,-0.8582,0.2397,-0.252,0.1558,-0.496,-0.061,151
17,-0.749,0.3673,-0.1112,0.1558,-0.496,-0.061,151
17,-0.6908,0.401,-0.0122,0.0523,-0.5156,0.012,151
17,-0.6908,0.401,-0.0122,-0.1123,-0.5145,0.0577,151
17,-0.5673,0.5143,-0.0652,-0.2758,-0.4132,0.1177,151
17,-0.5684,0.3704,-0.1642,-0.5713,-0.2802,0.0501,151
17,-0.5,0.401,-0.1969,-0.7806,-0.1732,-0.0065,151
17,-0.4765,0.0541,-0.2163,-0.9877,-0.0839,-0.0545,151
17,-0.5602,0.0581,-0.203,-1.1098,-0.024,-0.086,151
17,-0.4479,-0.0939,-0.0408,-1.1066,0.0326,-0.1013,151
17,-0.5826,-0.1653,-0.1703,-1.1066,0.0326,-0.1013,151
17,-0.5826,-0.1653,-0.1703,-1.281,0.1274,-0.1373,151
17,-0.7194,-0.3714,-0.1551,-1.3311,0.2693,-0.1188,151
17,-0.7194,-0.3714,-0.1551,-1.3071,0.3292,-0.0839,151
17,-0.7571,-0.6204,-0.0684,-1.4075,0.4502,-0.1024,151
17,-0.6581,-0.5765,-0.45,-1.3824,0.677,-0.3336,151
17,-0.9326,-0.6194,-0.5316,-1.4315,0.6442,-0.1755,151
17,-0.8448,-0.6561,-0.4183,-0.9048,0.4393,0.0087,151
17,-0.9132,-0.6489,-0.4479,-0.3794,0.3466,0.1341,151
17,-0.9163,-0.5418,-0.299,0.0185,0.2791,0.2354,151
17,-0.8898,-0.5469,-0.3591,0.0185,0.2791,0.2354,151
17,-0.8898,-0.5469,-0.3591,0.1962,0.2758,0.3107,151
17,-0.9132,-0.4255,-0.3591,0.3445,0.242,0.4,151
17,-0.8939,-0.2612,-0.2877,0.5778,0.193,0.4884,151
17,-0.9561,-0.1214,-0.3102,0.64,0.169,0.557,151
17,-0.9979,-0.1255,-0.3377,0.5931,0.1558,0.5658,151
17,-1.0591,-0.1418,-0.3071,0.6213,0.1242,0.5341,151
17,-1.2847,-0.1969,-0.2296,0.7054,0.0719,0.5244,151
17,-1.4387,-0.1683,-0.2214,0.7708,0.0228,0.5353,151
17,-1.5887,-0.1163,-0.2683,0.8765,-0.0043,0.5331,151
17,-1.7499,-0.0663,-0.2612,0.8765,-0.0043,0.5331,151
17,1.996,0.1316,-0.1622,0.9943,-0.0599,0.4895,151
17,1.996,0.1316,-0.1622,1.1621,-0.2169,0.4753,151
17,-1.9918,0.4836,-0.0622,1.3781,-0.4742,0.508,151
17,-1.8734,0.7571,0.0306,1.5852,-0.6955,0.5004,151
17,-1.4816,0.8152,-0.05,1.3966,-0.701,0.1776,151
17,-0.8683,0.9203,-0.4694,1.1894,-0.5996,-0.1384,151
17,-0.7296,1.1357,-0.249,0.9899,-0.689,-0.1308,151
17,-0.6724,0.9847,-0.2888,0.5353,-0.6978,-0.1035,151
17,-0.5449,0.6275,-0.2081,0.5353,-0.6978,-0.1035,151
17,-0.5724,0.6082,-0.0989,0.036,-0.677,-0.3422,151
17,-0.5295,0.402,-0.0306,0.0959,-0.6083,-0.4502,151
17,-0.5295,0.402,-0.0306,0.0708,-0.4818,-0.5702,151
17,-0.6306,0.3704,-0.0388,-0.0402,-0.2888,-0.6312,151
17,-0.6703,0.2092,-0.1357,-0.2191,-0.0828,-0.6203,151
17,-0.6765,0.1663,-0.1204,-0.242,0.1308,-0.6203,151
17,-0.6714,0.0734,-0.2142,-0.2474,0.3292,-0.6225,151
17,-0.6837,-0.0377,-0.251,-0.1951,0.4763,-0.5604,151
17,-0.7275,-0.0714,-0.2479,-0.1079,0.5822,-0.4307,151
17,-0.7643,-0.103,-0.2296,-0.0501,0.6312,-0.3401,151
17,-0.8408,-0.0469,-0.3132,-0.0501,0.6312,-0.3401,151
17,-0.9469,0.2428,-0.1326,0.1308,0.664,-0.2518,151
17,-0.9469,0.2428,-0.1326,0.35,0.6007,-0.061,151
17,-1.0347,0.2296,-0.101,0.3227,0.4666,0.0883,151
17,-1.1112,0.3826,-0.0622,0.2398,0.4099,0.1035,151
17,-1.1653,0.4387,-0.0479,0.1864,0.3128,0.085,151
17,-1.1694,0.4357,-0.0928,0.0457,0.2125,-0.0141,151
17,-1.1541,0.5051,-0.0693,-0.0381,0.1013,-0.1035,151
17,-1.0459,0.4071,-0.0775,-0.2464,-0.0545,-0.1547,151
17,-0.9449,0.2561,-0.101,-0.4862,-0.1602,-0.1875,151
17,-0.9449,0.2561,-0.101,-0.4862,-0.1602,-0.1875,151
17,-0.9163,0.2388,-0.0755,-0.5265,-0.2245,-0.2234,151
17,-0.9235,0.1653,-0.0693,-0.5745,-0.2321,-0.2354,151
17,-0.8796,0.0786,-0.1173,-0.6291,-0.2725,-0.2398,151
17,-0.9051,0.0755,-0.0847,-0.5778,-0.2844,-0.2495,151
17,-0.9224,0.0336,-0.0918,-0.5658,-0.3041,-0.2605,151
17,-0.9612,0.0541,-0.1214,-0.5255,-0.3107,-0.2779,151
17,-1.0316,0.0652,-0.0887,-0.4938,-0.338,-0.2932,151
17,-1.1163,0.0561,-0.105,-0.5287,-0.3739,-0.3085,151
17,-1.1673,0.1091,-0.0551,-0.5331,-0.3935,-0.3302,151
17,-1.3132,0.1826,-0.101,-0.5331,-0.3935,-0.3302,151
17,-1.3132,0.1826,-0.101,-0.5658,-0.4044,-0.3609,151
17,-1.3949,-0.05,-0.1296,-0.714,-0.4666,-0.388,151
17,-1.4642,-0.0928,-0.1326,-0.7991,-0.5233,-0.4372,151
17,-1.4408,-0.1551,-0.1775,-0.8416,-0.5745,-0.4818,151
17,-1.3326,-0.3816,-0.2714,-0.9431,-0.6192,-0.5331,151
17,-1.2479,-0.3806,-0.2693,-0.9528,-0.664,-0.5135,151
17,-1.1602,-0.3898,-0.2316,-0.9005,-0.7403,-0.3838,151
17,-0.8367,-0.3949,-0.3163,-0.8449,-0.7577,-0.3063,151
17,-0.7551,-0.3653,-0.3357,-0.797,-0.7686,-0.2539,151
17,-0.7051,-0.3367,-0.3479,-0.7632,-0.7512,-0.1482,151
17,-0.6102,-0.1459,-0.2316,-0.7632,-0.7512,-0.1482,151
17,-0.6102,-0.1459,-0.2316,-0.6432,-0.7272,-0.0599,151
17,-0.55,-0.0918,-0.1387,-0.5233,-0.6857,0.0282,151
17,-0.55,-0.0918,-0.1387,-0.5528,-0.6083,0.1155,151
17,-0.5336,-0.0704,-0.0877,-0.5745,-0.5047,0.1995,151
17,-0.5826,0.0357,-0.0622,-0.5374,-0.3663,0.2812,151
17,-0.5989,0.0939,-0.0663,-0.5211,-0.2136,0.3434,151
17,-0.6214,0.0959,-0.1082,-0.6562,-0.0937,0.3619,151
17,-0.6796,-0.0143,-0.2296,-0.9321,0.0349,0.3128,151
17,-0.7745,-0.1122,-0.2969,-1.0597,0.1209,0.2943,151
17,-0.8122,-0.1592,-0.3091,-1.0597,0.1209,0.2943,151
17,-0.8122,-0.1592,-0.3091,-1.0738,0.1646,0.2834,151
17,-0.853,-0.204,-0.2918,-1.0749,0.1787,0.2856,151
17,-0.9551,-0.3184,-0.2704,-1.0543,0.2049,0.2932,151
17,-0.9979,-0.3193,-0.2683,-0.9997,0.1896,0.3227,151
17,-1.0357,-0.2918,-0.2714,-0.9114,0.1591,0.3935,151
17,-1.0786,-0.2531,-0.2765,-0.8296,0.1232,0.4536,151
17,-1.1173,-0.1918,-0.2663,-0.7991,0.0698,0.496,151
17,-1.102,-0.1816,-0.2755,-0.822,-0.0021,0.5179,151
17,-1.0602,-0.1622,-0.2622,-0.8144,-0.0599,0.5341,151
17,-1.0071,-0.0449,-0.2071,-0.8144,-0.0599,0.5341,151
17,-0.9755,-0.004,-0.1796,-0.7861,-0.1035,0.5429,151
17,-0.9755,-0.004,-0.1796,-0.7708,-0.1396,0.5396,151
17,-0.954,-0.0132,-0.1908,-0.8405,-0.1581,0.5287,151
17,-0.9347,-0.0081,-0.1969,-0.9071,-0.1776,0.5135,151
17,-0.9244,0.0306,-0.2081,-0.9246,-0.1907,0.4938,151
17,-0.9357,0.0551,-0.2153,-0.9551,-0.1995,0.4731,151
17,-0.95,0.0836,-0.2163,-1.0095,-0.206,0.4578,151
18,-0.9683,0.1091,-0.2092,-1.0772,-0.2147,0.4361,151
18,-1.05,0.1204,-0.2163,-1.1611,-0.2191,0.3903,151
18,-1.0969,0.1275,-0.2122,-1.1611,-0.2191,0.3903,151
18,-1.1337,0.1398,-0.1877,-1.2439,-0.2268,0.3237,151
18,-1.1337,0.1398,-0.1877,-1.2974,-0.2539,0.2627,151
18,-1.151,0.1581,-0.1857,-1.3639,-0.2888,0.193,151
18,-1.1398,0.1581,-0.1979,-1.4282,-0.3161,0.1123,151
18,-1.1163,0.153,-0.202,-1.4958,-0.3542,0.0337,151
18,-1.1306,0.1449,-0.1969,-1.5459,-0.4023,-0.0446,151
18,-1.2867,0.0459,-0.1224,-1.57,-0.4469,-0.1112,151
18,-1.355,0.0622,-0.0724,-1.5328,-0.5145,-0.1406,151
18,-1.3714,0.1592,-0.0796,-1.5328,-0.5145,-0.1406,151
18,-1.3714,0.1592,-0.0796,-1.4206,-0.6127,-0.1133,151
18,-1.0255,0.4112,-0.1642,-1.3508,-0.7119,-0.0392,151
18,-1.0255,0.4112,-0.1642,-1.3334,-0.7064,-0.0185,152
18,-0.9275,0.2938,-0.151,-1.4565,-0.6715,-0.0589,152
18,-0.9408,0.2316,-0.1214,-1.5448,-0.5778,-0.1035,152
18,-0.9704,0.1214,0.0122,-1.5045,-0.4916,-0.1744,152
18,-1.0765,0.0265,-0.0224,-1.4773,-0.4143,-0.1852,152
18,-1.1408,-0.1153,-0.0031,-1.462,-0.3674,-0.169,152
18,-1.2224,-0.2326,-0.1,-1.2909,-0.351,-0.1635,152
18,-1.1796,-0.1112,-0.1377,-1.028,-0.3717,-0.1318,152
18,-1.1561,-0.2643,-0.1112,-1.028,-0.3717,-0.1318,152
18,-1.1561,-0.2643,-0.1112,-0.8275,-0.4601,-0.0457,152
18,-1.0153,-0.2459,-0.2673,-0.7283,-0.4611,-0.0381,152
18,-0.9428,-0.0132,-0.0898,-0.3706,-0.4763,0.11,152
18,-0.9214,-0.0796,-0.1541,-0.1972,-0.6411,0.2758,152
18,-0.8489,0.0245,-0.0816,-0.1232,-0.6454,0.314,152
18,-0.8959,0.1489,-0.0622,0.0305,-0.6694,0.3739,152
18,-0.8214,0.1837,0.0051,0.0425,-0.7239,0.4143,152
18,-0.8612,0.1765,0.0102,-0.0282,-0.726,0.4481,152
18,-0.8806,0.1918,0.0357,-0.0206,-0.7043,0.4666,152
18,-0.8796,0.2101,0.0541,-0.0206,-0.7043,0.4666,152
18,-0.8796,0.2101,0.0541,0.0131,-0.7369,0.4807,152
18,-0.8694,0.1969,0.0734,0.0479,-0.7337,0.4841,152
18,-0.8387,0.2173,0.0632,0.0839,-0.7522,0.4862,152
18,-0.8204,0.2133,0.0652,0.1428,-0.726,0.4742,152
18,-0.7571,0.299,0.1234,0.1984,-0.689,0.4655,152
18,-0.751,0.2786,0.0745,0.1013,-0.6388,0.3946,152
18,-0.6969,0.2704,0.0724,-0.0108,-0.5658,0.326,152
18,-0.6857,0.2275,0.0612,-0.073,-0.4992,0.2649,152
18,-0.701,0.1887,0.0581,-0.1177,-0.4382,0.206,152
18,-0.7275,0.1367,0.05,-0.1177,-0.4382,0.206,152
18,-0.7449,0.105,0.0398,-0.1623,-0.3761,0.157,152
18,-0.7449,0.105,0.0398,-0.1722,-0.3325,0.1253,152
18,-0.8081,0.1122,0.0714,-0.1274,-0.2791,0.1047,152
18,-0.8357,0.1132,0.0693,-0.1035,-0.231,0.1123,152
18,-0.8785,0.1061,0.0643,-0.1188,-0.1766,0.1373,152
18,-0.952,0.1346,0.0408,-0.1286,-0.1167,0.1711,152
18,-0.9755,0.1408,0.0245,-0.1417,-0.0469,0.2115,152
18,-0.9867,0.1571,0.0193,-0.1591,0.0108,0.2518,152
18,-0.9928,0.1887,0.0163,-0.1591,0.0108,0.2518,152
18,-1.0,0.2428,-0.0122,-0.1852,0.0599,0.2834,152
18,-1.0,0.2428,-0.0122,-0.2093,0.1035,0.2966,152
18,-1.0031,0.2622,-0.0265,-0.2507,0.1396,0.2802,152
18,-0.9775,0.302,-0.0122,-0.2834,0.1678,0.2354,152
18,-0.9571,0.2714,-0.0092,-0.351,0.2081,0.1623,152
18,-0.9102,0.1969,-0.0265,-0.4317,0.2529,0.0763,152
18,-0.8796,0.1918,-0.0204,-0.4317,0.2976,-0.0162,152
18,-0.8081,0.1632,-0.001,-0.4153,0.339,-0.1242,152
18,-0.8724,0.153,-0.0326,-0.4055,0.3979,-0.2333,152
18,-0.901,0.1622,-0.0602,-0.4055,0.3979,-0.2333,152
18,-0.901,0.1622,-0.0602,-0.3096,0.4153,-0.3281,152
18,-1.0673,0.2112,-0.0602,-0.2594,0.4458,-0.4307,152
18,-1.3336,0.3,-0.102,-0.2136,0.4414,-0.5287,152
18,-1.8234,0.2888,0.0102,-0.2115,0.3445,-0.6192,152
18,-1.903,0.0357,0.2316,-0.3357,0.0806,-0.7098,152
18,-1.7316,0.0326,0.4847,-0.3422,-0.1842,-0.7817,152
18,-1.204,-0.2133,0.6377,-0.2529,-0.1341,-0.9246,152
18,-0.7479,0.0602,0.8694,0.1602,0.0414,-0.9191,152
18,-0.5173,-0.4745,0.4142,-0.1318,0.339,-0.9997,152
18,-0.4959,-0.5551,0.3408,-0.1318,0.339,-0.9997,152
18,-0.4959,-0.5551,0.3408,-0.4666,0.4536,-0.8962,152
18,-0.4663,-0.4704,0.0275,-0.2474,0.4393,-0.4252,152
18,-0.6173,-0.4775,-0.0826,-0.0457,0.5102,-0.35,152
18,-0.6153,-0.5153,-0.1561,0.2888,0.5528,-0.5528,152
18,-0.799,-0.3724,-0.302,0.7283,0.5255,-0.6497,152
18,-0.8591,-0.3,-0.0612,1.2952,0.3161,-0.4721,152
18,-1.1061,-0.2836,-0.0591,1.6179,0.2485,-0.2562,152
18,-1.3255,-0.3724,0.2265,1.6539,-0.0457,0.2245,152
18,-1.3979,-0.2795,0.3428,1.8893,-0.0675,0.3685,152
18,-1.4449,-0.1255,0.1653,2.2111,0.0828,0.4481,152
18,-1.352,0.0581,0.1571,2.4269,0.1155,0.4633,152
18,-1.2092,0.0989,-0.1071,2.4269,0.1155,0.4633,152
18,-1.1642,0.1908,-0.2561,2.3778,0.0883,0.4557,152
18,-1.1642,0.1908,-0.2561,2.2405,0.1003,0.2812,152
18,-1.1061,0.3234,-0.2765,2.355,0.0305,0.2529,152
18,-1.0153,0.5632,-0.3439,2.4465,-0.0282,0.1493,152
18,-0.9418,0.6346,-0.3367,2.3767,-0.1024,0.0392,152
18,-0.7949,0.5622,-0.3132,2.1968,-0.1646,0.0457,152
18,-0.9377,0.8173,-0.2397,2.0791,-0.1221,0.1646,152
18,-0.9592,0.6255,-0.0877,1.8578,-0.1264,0.194,152
18,-0.8204,0.7408,-0.0367,1.2079,-0.2245,0.1133,152
18,-0.8204,0.7408,-0.0367,1.2079,-0.2245,0.1133,152
18,-0.8408,0.8051,0.053,1.2396,-0.2256,0.073,152
18,-0.8132,0.8459,0.15,1.0891,-0.1438,0.0162,152
18,-0.855,0.7071,0.0959,0.7718,-0.1373,-0.0643,152
18,-0.799,0.8428,0.105,0.5713,-0.0806,-0.1133,152
18,-0.799,0.8714,0.052,0.4655,-0.0501,-0.1537,152
18,-0.7571,0.703,-0.0591,0.1581,0.0206,-0.2256,152
18,-0.754,0.5775,-0.0969,-0.073,0.024,-0.3063,152
18,-0.6581,0.4918,-0.0898,-0.2049,0.0206,-0.4175,152
18,-0.7101,0.4041,-0.004,-0.2376,0.061,-0.5516,152
18,-0.5408,0.3489,0.0377,-0.2376,0.061,-0.5516,152
18,-0.5408,0.3489,0.0377,-0.3685,0.0806,-0.6192,152
18,-0.5408,0.3,0.0908,-0.496,0.1471,-0.6596,152
18,-0.4653,0.2255,0.1204,-0.5299,0.2191,-0.7708,152
18,-0.4306,0.0836,0.1122,-0.5822,0.3216,-0.8722,152
18,-0.4214,0.0214,0.103,-0.5745,0.4132,-0.9267,152
18,-0.4367,0.1214,0.1938,-0.4578,0.5265,-0.9387,152
19,-0.4949,-0.053,0.1683,-0.5745,0.6726,-1.0477,152
19,-0.7153,-0.2683,0.249,-0.6388,0.7937,-1.1404,152
19,-0.8755,-0.4704,0.2479,-0.5767,0.9496,-1.1306,152
19,-1.103,-0.4255,0.3275,-0.5767,0.9496,-1.1306,152
19,-1.1744,-0.7786,0.0295,-0.4633,1.0891,-0.979,152
19,-1.1744,-0.7786,0.0295,-0.5156,1.2079,-0.9572,152
19,-1.5684,-0.9408,-0.1653,-0.4775,1.3399,-1.0858,152
19,-1.8408,-0.5867,-0.501,-0.2278,1.4958,-0.5734,152
19,-1.6041,-0.7265,-0.4051,0.4307,1.1469,-0.4143,152
19,-1.7163,-0.6561,-0.4173,0.9605,0.6432,-0.2344,152
19,-1.6887,-0.7326,-0.5479,1.4849,0.4132,-0.1482,152
19,-1.5357,-0.3286,-0.5928,2.0126,0.1776,-0.1373,152
19,-1.3561,-0.1143,-0.4112,2.0126,0.1776,-0.1373,152
19,-0.9398,0.1132,-0.1724,2.622,-0.3804,0.049,152
19,-0.9398,0.1132,-0.1724,2.8118,-0.7249,0.1591,152
19,-0.851,0.2214,-0.1306,2.7922,-0.8548,0.3205,152
19,-0.8275,0.4367,-0.1204,2.9088,-0.6694,0.3826,152
19,-0.7061,0.4285,-0.0102,2.9895,-0.5549,0.2539,152
19,-0.6735,0.5602,-0.0132,2.8031,-0.4088,0.2234,152
19,-0.7347,0.5214,-0.0847,2.5402,-0.2779,0.1875,152
19,-0.7438,0.4928,-0.1714,2.3069,-0.1177,0.1057,152
19,-1.0051,0.4316,-0.3479,2.1881,-0.0032,0.1732,152
19,-1.2306,0.6959,-0.1775,2.1881,-0.0032,0.1732,152
19,-1.2306,0.6959,-0.1775,2.271,0.0511,0.1602,152
19,-1.2071,0.605,-0.2622,2.1652,0.0021,-0.0501,152
19,-1.355,0.5857,-0.2194,1.9406,-0.0577,-0.1318,152
19,-1.3173,0.5286,-0.249,1.8611,-0.1547,-0.1438,152
19,-1.2755,0.4306,-0.2806,1.6823,-0.242,-0.2256,152
19,-1.1755,0.4092,-0.2836,1.6037,-0.3325,-0.2802,152
19,-1.0571,0.3837,-0.2908,1.6081,-0.3619,-0.3161,152
19,-1.0173,0.3898,-0.2755,1.5896,-0.3848,-0.3456,152
19,-0.9897,0.3969,-0.2786,1.5492,-0.4132,-0.3554,152
19,-0.9928,0.3949,-0.2693,1.5492,-0.4132,-0.3554,152
19,-0.9928,0.3949,-0.2693,1.5045,-0.4361,-0.3422,152
19,-1.0367,0.4173,-0.25,1.4532,-0.4578,-0.3193,152
19,-1.0551,0.4235,-0.2306,1.3912,-0.4938,-0.2911,152
19,-1.0571,0.4203,-0.2183,1.3071,-0.5473,-0.2529,152
19,-1.049,0.4469,-0.1796,1.2287,-0.5898,-0.2159,152
19,-1.0316,0.4694,-0.1449,1.1459,-0.6203,-0.1852,152
19,-1.0031,0.4816,-0.1183,1.0587,-0.6486,-0.1667,152
19,-0.9633,0.4928,-0.1071,0.9234,-0.6574,-0.1722,152
19,-0.8663,0.4796,-0.0887,0.7827,-0.6486,-0.194,152
19,-0.8214,0.4785,-0.0898,0.7827,-0.6486,-0.194,152
19,-0.7643,0.4683,-0.0867,0.665,-0.6171,-0.231,152
19,-0.7643,0.4683,-0.0867,0.5473,-0.5647,-0.2987,152
19,-0.6826,0.4663,-0.102,0.4307,-0.4906,-0.375,152
19,-0.6428,0.4244,-0.103,0.3302,-0.388,-0.4742,152
19,-0.6061,0.3591,-0.0877,0.2234,-0.2812,-0.5778,152
19,-0.5979,0.302,-0.0714,0.1167,-0.169,-0.653,152
19,-0.7326,0.1326,-0.049,0.0217,-0.0414,-0.701,152
19,-0.8683,0.0786,-0.0316,0.0272,0.0664,-0.7283,152
19,-1.0255,0.049,-0.0173,0.0272,0.0664,-0.7283,152
19,-1.2765,-0.0336,0.0918,0.0719,0.1471,-0.7447,152
19,-1.3816,-0.1163,0.1581,0.1373,0.1547,-0.7435,152
19,-1.3816,-0.1163,0.1581,0.1581,0.1308,-0.7468,152
19,-1.3887,-0.1449,0.3479,0.218,0.0555,-0.738,152
19,-1.4183,-0.103,0.2612,0.2539,0.1003,-0.6978,152
19,-1.2255,-0.5602,0.1592,0.1198,0.1003,-0.7086,152
19,-1.0908,-0.5367,0.203,0.0904,0.1547,-0.7424,152
19,-0.9867,-0.4612,0.2918,0.3248,0.0719,-0.4763,152
19,-0.7734,-0.65,0.2285,0.4862,0.086,-0.4263,152
19,-0.7275,-0.6306,0.2316,0.6835,0.0795,-0.4775,152
19,-0.7101,-0.5918,0.2377,0.6835,0.0795,-0.4775,152
19,-0.6898,-0.5418,0.2449,0.9725,0.0937,-0.3979,152
19,-0.6898,-0.5418,0.2449,1.2897,0.11,-0.2638,152
19,-0.7367,-0.4745,0.351,1.5808,0.1623,-0.1428,152
19,-0.8051,-0.5347,0.2357,1.6005,0.2333,-0.0599,152
19,-0.8602,-0.5286,0.2469,1.5753,0.242,0.012,152
19,-0.9347,-0.5571,0.2061,1.6604,0.3041,0.1232,152
19,-1.05,-0.5102,0.1245,1.8502,0.3368,0.2115,152
19,-1.1173,-0.3796,0.0724,2.114,0.3663,0.3248,152
19,-1.1857,-0.2826,0.0306,2.3571,0.3717,0.3924,152
19,-1.2173,-0.1245,-0.0398,2.3571,0.3717,0.3924,152
19,-1.2173,-0.1245,-0.0398,2.465,0.3063,0.4143,152
19,-1.2061,-0.0928,-0.0918,2.4444,0.2495,0.4307,152
19,-1.1877,-0.0286,-0.1796,2.4061,0.2027,0.4721,152
19,-1.1204,0.3582,-0.3387,2.391,0.1232,0.5255,152
19,-1.0918,0.2734,-0.1949,2.4694,-0.0708,0.3761,152
19,-1.0286,0.2438,-0.2296,2.4204,-0.1286,0.2627,152
19,-0.9836,0.5234,-0.1908,2.4204,-0.255,0.1396,152
19,-0.9908,0.502,-0.0561,2.1074,-0.3695,0.1123,152
19,-0.9816,0.4928,-0.052,1.7531,-0.4753,0.0992,152
19,-0.95,0.4459,-0.0388,1.5765,-0.496,0.0555,152
19,-0.9775,0.453,0.0438,1.5765,-0.496,0.0555,152
19,-0.9908,0.4796,0.0765,1.4761,-0.4938,0.0032,152
19,-0.9908,0.4796,0.0765,1.3115,-0.5713,-0.025,152
19,-0.953,0.4244,0.0786,1.1425,-0.6138,-0.0577,152
19,-1.0173,0.3479,0.0265,0.9582,-0.5582,-0.1057,152
19,-0.9796,0.2581,-0.0122,0.834,-0.5843,-0.1123,152
19,-0.9377,0.2183,0.001,0.7554,-0.5789,-0.1155,152
19,-0.9173,0.1724,-0.0326,0.6552,-0.6247,-0.11,152
19,-0.8418,0.1153,-0.0214,0.6116,-0.6323,-0.1003,152
19,-0.8061,0.1408,0.0031,0.6127,-0.6356,-0.098,152
19,-0.7643,0.1387,0.0193,0.6127,-0.6356,-0.098,152
19,-0.7643,0.1387,0.0193,0.5919,-0.6268,-0.0992,152
19,-0.7163,0.0989,0.0214,0.5112,-0.6007,-0.1112,152
19,-0.6561,0.0112,0.0551,0.4361,-0.5635,-0.1221,152
19,-0.6316,-0.0367,0.0561,0.4,-0.5004,-0.1373,152
19,-0.5836,-0.0948,0.0908,0.3935,-0.4458,-0.1352,152
19,-0.6285,-0.0224,0.1357,0.3641,-0.3663,-0.1047,152
19,-0.5581,-0.1694,0.1387,0.2966,-0.2495,-0.1047,152
19,-0.5438,-0.3653,0.1418,0.2115,-0.1329,-0.1493,152
19,-0.6571,-0.1806,0.0295,0.387,0.0425,-0.1318,152
19,-0.5847,-0.2101,0.1153,0.387,0.0425,-0.1318,152
19,-0.5847,-0.2101,0.1153,0.4797,0.0872,-0.0381,152
19,-0.6183,-0.2765,0.1418,0.5265,0.2966,0.0131,152
19,-0.6091,-0.3102,0.0632,0.5713,0.4884,-0.0196,152
19,-0.7285,-0.3255,0.1091,0.665,0.6062,0.0076,152
19,-0.8081,-0.3439,0.2531,0.7773,0.6835,0.1013,152
19,-0.9796,-0.3704,0.2745,0.7697,0.8307,0.1744,152
20,-1.1806,-0.201,0.4826,0.7348,0.9637,0.3172,152
20,-1.7071,-0.5541,0.7183,0.7762,1.0509,0.4426,152
20,-1.8224,-0.6744,0.2775,0.8514,1.0575,0.483,152
20,-1.7214,-0.3796,0.053,0.8514,1.0575,0.483,152
20,-1.7265,-0.0591,-0.0887,1.413,0.9332,0.6388,152
20,-1.7265,-0.0591,-0.0887,2.4422,0.8798,0.726,152
20,-1.4459,0.6306,-0.0061,2.7703,0.6062,0.6694,152
20,-1.2224,0.4296,-0.0918,1.9101,0.3456,0.23,152
20,-1.4306,0.2092,-0.1724,1.3813,0.1995,0.4361,152
20,-1.3489,0.5765,-0.0786,1.5351,0.0545,0.4361,152
20,-1.351,0.4428,0.2867,1.6451,-0.0828,0.3804,152
20,-1.3041,0.6071,0.351,1.4881,-0.2583,0.2932,152
20,-1.3224,0.5765,0.3704,1.4336,-0.3063,0.2376,152
20,-1.2418,0.4847,0.3102,1.4336,-0.3063,0.2376,152
20,-1.1612,0.452,0.351,1.2657,-0.3521,0.1842,152
20,-1.1612,0.452,0.351,1.1905,-0.3946,0.1308,152
20,-1.1847,0.401,0.301,1.1087,-0.4219,0.074,152
20,-1.1296,0.2663,0.1112,1.0314,-0.4481,0.0217,152
20,-1.1122,0.3582,0.1214,1.1175,-0.3717,-0.0719,152
20,-1.0571,0.3918,0.1428,1.209,-0.4197,-0.0774,152
20,-1.0367,0.353,0.1143,1.0772,-0.4589,-0.1079,152
20,-0.9745,0.3326,0.0898,0.9582,-0.483,-0.1133,152
20,-0.9214,0.3571,0.101,0.9582,-0.483,-0.1133,152
20,-0.9214,0.3571,0.101,0.9246,-0.4992,-0.1221,152
20,-0.8694,0.3,0.0755,0.87,-0.4992,-0.1297,152
20,-0.8694,0.3,0.0755,0.8024,-0.496,-0.1384,152
20,-0.8224,0.3173,0.0684,0.7871,-0.4927,-0.1471,152
20,-0.8132,0.3377,0.0643,0.7783,-0.4971,-0.1515,152
20,-0.8081,0.3448,0.049,0.7304,-0.4938,-0.1515,152
20,-0.7908,0.3949,0.0173,0.6749,-0.4992,-0.1449,152
20,-0.7847,0.4275,0.0031,0.6213,-0.5112,-0.1297,152
20,-0.7714,0.4255,-0.0071,0.508,-0.5211,-0.1047,152
20,-0.7734,0.4255,-0.0306,0.3717,-0.5309,-0.073,152
20,-0.7734,0.4255,-0.0306,0.3717,-0.5309,-0.073,152
20,-0.7592,0.4112,-0.0449,0.267,-0.5374,-0.036,152
20,-0.7326,0.4581,-0.0112,0.1581,-0.5341,0.0108,152
20,-0.7347,0.4347,-0.0132,0.0294,-0.5385,0.0326,152
20,-0.7612,0.3887,-0.0092,-0.1144,-0.5309,0.0566,152
20,-0.7377,0.4,0.0408,-0.1558,-0.4916,0.0828,152
20,-0.7683,0.3479,0.0143,-0.2747,-0.4753,0.0969,152
20,-0.8,0.3152,0.0031,-0.3794,-0.4372,0.1188,152
20,-0.8224,0.3561,-0.0061,-0.3903,-0.4023,0.1438,152
20,-0.8336,0.3387,-0.049,-0.4568,-0.351,0.1657,152
20,-0.8173,0.3714,-0.0479,-0.4568,-0.351,0.1657,152
20,-0.8173,0.3714,-0.0479,-0.5189,-0.3085,0.1776,152
20,-0.8122,0.452,-0.0622,-0.5723,-0.2649,0.1875,152
20,-0.8152,0.5051,-0.0734,-0.6705,-0.2115,0.1896,152
20,-0.7734,0.5459,-0.0816,-0.7981,-0.1526,0.1744,152
20,-0.7693,0.5541,-0.0684,-0.9648,-0.0937,0.1438,152
20,-0.7418,0.4888,-0.0775,-1.1545,-0.0294,0.0774,152
20,-0.7357,0.4622,-0.049,-1.2854,0.0545,0.025,152
20,-0.7347,0.4061,-0.0265,-1.3912,0.1547,-0.0501,152
20,-0.7245,0.3347,-0.0275,-1.3912,0.1547,-0.0501,152
20,-0.7877,0.2806,0.0193,-1.5253,0.2693,-0.1167,152
20,-0.7877,0.2806,0.0193,-1.5841,0.3935,-0.1886,152
20,-0.9836,0.2133,0.0796,-1.6049,0.5221,-0.2649,152
20,-1.203,0.1245,0.1285,-1.6974,0.6106,-0.3401,152
20,-1.9173,-0.0684,0.3357,-1.7411,0.6138,-0.375,152
20,1.8419,-0.1316,0.4,-1.6844,0.5265,-0.4252,152
20,1.8041,-0.1694,0.3785,-1.5753,0.3325,-0.5484,152
20,1.8959,-0.0939,0.5234,-1.5404,0.1352,-0.6869,152
20,-1.4694,-0.8612,0.2938,-1.8076,-0.0915,-0.8078,152
20,-1.453,-0.7786,0.1581,-1.8076,-0.0915,-0.8078,152
20,-1.0377,-0.6847,0.3204,-1.5906,-0.1341,-0.665,152
20,-1.0377,-0.6847,0.3204,-1.2777,-0.2878,-0.3096,152
20,-0.7255,-0.7857,0.3152,-1.0629,-0.3968,-0.3554,152
20,-0.5867,-0.7561,0.4377,-0.6411,-0.4219,-0.4469,152
20,-0.5398,-0.6898,0.5112,-0.1852,-0.388,-0.4841,152
20,-0.5193,-0.6612,0.5979,0.1984,-0.3073,-0.471,152
20,-0.4888,-0.6755,0.7224,0.3739,-0.3008,-0.3903,152
20,-0.5224,-0.7071,0.7194,0.4731,-0.2474,-0.2159,152
20,-0.5908,-0.7765,0.6551,0.5919,-0.0937,-0.0479,152
20,-0.7571,-0.7826,0.5234,0.5919,-0.0937,-0.0479,152
20,-0.7571,-0.7826,0.5234,0.7871,0.0555,0.1242,152
20,-0.8571,-0.7306,0.4642,1.0618,0.1842,0.3096,152
20,-0.9479,-0.6367,0.4081,1.3388,0.2562,0.4775,152
20,-1.0898,-0.5122,0.3173,1.57,0.2812,0.6062,152
20,-1.1306,-0.3377,0.2275,1.8109,0.2398,0.6552,152
20,-1.1551,-0.2153,0.1724,2.0463,0.169,0.6629,152
20,-1.1326,-0.0939,0.1071,2.2361,-0.0097,0.7054,152
20,-1.1,0.5357,-0.0193,2.296,-0.0566,0.7981,152
20,-0.9897,0.5847,0.0286,2.3517,-0.1362,0.8427,152
20,-0.9755,0.5326,0.0806,2.3059,-0.2682,0.3521,152
20,-0.8286,0.8041,0.1275,2.3059,-0.2682,0.3521,152
20,-0.8387,0.8622,0.1867,2.1118,-0.3401,0.1701,152
20,-0.7979,0.7653,0.2,1.921,-0.3761,0.314,152
20,-0.7979,0.7653,0.2,1.5711,-0.3848,0.2224,152
20,-0.7836,0.7061,0.1785,1.2571,-0.3848,0.0435,152
20,-0.7888,0.8816,0.251,1.1741,-0.375,-0.0011,152
