Timestamp,Ax,Ay,Az,Rx,Ry,Rz,EMG
0,0.4663,-1.6138,0.3206,-0.8055,0.5566,2.7003,2057
0,0.8352,-1.707,0.4255,-0.9533,0.4296,2.5729,2069
0,0.9331,-1.3516,0.5669,-0.9296,-0.0559,3.3764,2056
0,1.4126,-2.0,0.3723,-1.0801,0.0892,3.0705,2057
0,1.4749,-1.6741,0.6133,-1.0507,-0.8919,3.931,2101
0,1.3008,-1.8379,0.6658,-1.012,-1.2099,4.2455,2118
0,0.9529,-2.0,1.1704,-1.3917,-1.388,4.3249,2033
0,1.2903,-1.8369,0.3767,-2.372,-1.6281,3.8004,1934
0,0.1909,-1.6628,0.1777,-2.3427,-0.3875,3.0532,1938
0,-1.0393,-1.8726,-0.0022,-2.0844,0.3534,3.2923,2004
0,-0.3259,-1.7571,0.0002,-1.8279,-0.2172,1.956,2128
0,-0.4204,-1.2058,-0.1816,-1.3635,0.7722,2.7251,2059
0,-0.1033,-0.5786,0.6846,1.031,-1.3777,2.8333,2105
0,0.6191,-0.5583,-0.2834,-0.6172,1.5009,1.5384,2137
0,1.9999,-2.0,0.5635,-4.3635,4.3634,4.3634,2175
0,-2.0,1.9999,-2.0,0.0791,1.4592,3.4824,1764
0,-2.0,-1.718,-1.5342,-3.5146,2.0185,1.2383,2158
0,-1.1772,0.4392,-1.6274,-0.948,-0.2803,-0.3461,2121
0,-0.7524,0.4663,-1.1638,1.0503,-0.5721,-1.0652,2108
0,0.6541,0.1379,0.1384,4.3634,-4.3635,-2.5854,2176
0,0.4543,-0.4805,1.1396,2.8994,-4.3635,-3.2986,2040
0,0.3809,-0.7734,0.2288,0.3702,-3.1545,-2.914,1952
0,0.0405,-0.3398,-0.3645,-0.3778,-0.7228,-3.4077,1981
0,0.0801,-0.1702,-0.5764,0.4864,0.3097,-3.6246,2027
0,0.002,-0.2249,-0.4956,1.3426,0.5393,-3.5601,2049
0,-0.3599,-0.3552,-0.2957,1.602,0.4269,-3.5031,2061
0,-0.6072,-0.4055,-0.1667,1.5134,0.1946,-3.4479,2072
0,-0.6487,-0.3672,-0.0437,1.4749,0.4778,-3.5918,2065
0,-0.4189,-0.3401,0.0027,1.4814,0.6299,-3.8434,2071
0,-0.2185,-0.2805,-0.0784,1.5864,0.4398,-4.158,2057
0,-0.2073,-0.2593,-0.1968,1.797,0.5207,-4.3635,2052
0,-0.2561,-0.3105,-0.2593,1.9795,0.7098,-4.3635,2053
0,-0.3787,-0.4988,-0.2734,2.2774,1.0403,-4.3635,2054
0,-0.3188,-0.4072,-0.1621,2.5388,1.1616,-4.3635,2061
0,-0.3975,-0.4197,0.0393,2.9018,1.0937,-4.3635,2054
0,-0.2695,-0.51,0.1279,2.7343,0.7585,-4.3635,2064
0,-0.1187,-0.6816,0.0935,2.4346,0.919,-4.3635,2046
0,-0.0237,-0.7053,-0.0769,2.6416,1.2351,-4.3635,2053
0,-0.1616,-0.8264,-0.1624,3.0797,1.385,-4.3635,2045
0,-0.448,-1.2485,-0.2847,3.3963,1.6813,-4.3635,2053
0,-0.4797,-1.8428,-0.2402,3.9195,2.2232,-4.3635,2075
0,-0.6079,-2.0,-0.5583,4.1259,2.1888,-4.3635,2127
0,-1.6499,0.6838,1.9999,-2.9216,2.9779,-4.3635,1905
0,1.9999,-0.6833,-2.0,4.3634,-1.0167,-4.3635,2297
0,0.3508,-2.0,0.3855,2.1684,-0.8596,-4.3635,2149
0,-1.8303,-1.7214,-0.9441,1.5359,1.4109,-4.1137,1854
0,0.1394,-0.6738,-0.0518,3.5579,0.1639,-2.6514,2032
0,0.1416,-2.0,1.168,0.6307,-0.9582,-2.9297,2053
0,-0.4937,-1.1077,-0.3291,0.8183,-3.3097,-1.5817,2016
0,0.8154,-1.6926,-0.1992,0.5063,1.0294,-1.7769,2126
0,0.2283,-1.3386,0.5518,-0.127,0.2128,-0.3726,1994
0,-1.3279,-1.7153,0.2664,-1.0975,-0.2843,0.6885,2041
0,-1.4841,-1.2488,-0.3086,-1.8676,0.1922,1.5265,2067
0,-0.4211,-1.3157,0.0366,-2.626,0.4779,2.0952,2101
0,1.9999,-2.0,1.9999,-4.3635,2.7706,4.3634,2086
0,-1.9631,-1.0337,-1.0127,-3.2858,0.2533,2.2897,1984
0,1.9999,0.1206,1.9999,1.4785,-4.2339,2.219,2243
0,1.9999,-2.0,1.9999,-1.2821,-4.3635,-1.3247,2228
0,-2.0,-0.771,0.1799,-0.2928,3.2704,0.2093,1729
0,-2.0,-1.2842,1.2175,0.455,2.3113,3.583,2067
0,-1.4304,-2.0,1.9999,0.0107,-3.8243,2.9781,2131
0,1.3926,-2.0,0.8257,-3.102,-4.1293,1.9204,2124
0,-2.0,-2.0,-0.9644,-4.3635,2.7087,0.4397,1880
0,-0.946,0.895,-2.0,-2.8068,4.3634,1.7538,2058
0,1.3313,-2.0,-1.647,-1.8357,3.2412,2.7456,2148
0,1.2869,-0.449,-0.2383,-2.3846,0.5148,3.3854,2055
0,-0.2854,-0.824,-0.9387,-2.2858,0.3457,2.9711,1971
0,-0.1938,-0.092,-0.8767,-0.4046,1.0885,2.5041,2073
0,-0.6602,-0.6008,-0.4558,-0.4208,0.1574,2.0567,2097
0,-0.6704,-1.1321,0.6016,0.2686,-0.6743,1.3896,2044
0,-0.7424,-1.0264,0.554,-0.3011,-0.2322,1.6791,2055
0,-0.3706,-1.4583,0.0559,-1.0878,0.1579,1.764,2066
0,-0.4258,-1.1819,-0.1584,-0.9096,0.5633,0.8819,2056
0,-0.7407,-0.8186,-0.2068,-0.4424,0.4003,0.5016,2030
0,-0.3962,-0.8574,-0.1323,-0.1413,0.2975,0.2669,2065
0,-0.0283,-0.9819,-0.1345,0.0425,-0.0176,0.1268,2082
0,0.3511,-0.926,-0.217,0.1502,-0.0421,0.0758,2053
0,0.5991,-0.9541,-0.1941,0.1918,0.1288,0.1151,2050
0,0.5459,-1.0037,-0.1008,0.1449,0.1694,0.2208,2035
0,0.2925,-0.9771,0.0073,0.1738,0.086,0.2163,2060
0,0.0071,-0.9092,0.1726,0.1844,-0.2947,0.157,2024
0,0.0308,-0.9766,0.1843,0.1579,-0.239,0.1958,2075
0,0.1187,-1.0098,0.2061,0.1686,-0.0859,0.2127,2049
0,0.1145,-1.0667,0.1838,0.1766,-0.0895,0.1381,2125
0,0.1506,-1.0815,0.1624,0.1023,-0.1618,0.016,2084
0,0.1101,-1.0466,0.1592,0.0864,-0.1874,-0.1309,2042
0,0.0942,-1.0266,0.1912,0.0611,-0.1891,-0.112,2077
0,0.3,-1.1343,0.23,-0.1286,-0.5833,0.3657,2076
0,0.2156,-0.9993,0.3037,-0.2236,-0.4231,0.2645,2162
0,0.2837,-0.9966,0.2756,-0.341,-0.5779,0.6127,2048
0,0.2725,-0.9724,0.3147,-0.4011,-0.4767,0.6384,1989
0,0.251,-1.0032,0.2209,-0.4806,-0.3891,0.8786,2004
0,0.2461,-1.073,0.2158,-0.5866,-0.242,0.9316,1994
0,0.1858,-1.0444,0.1052,-0.6414,-0.331,0.9404,2212
0,0.2446,-1.0732,0.1375,-0.6492,-0.2955,0.968,1849
0,0.2053,-1.1809,0.1182,-0.6474,-0.1228,1.2271,1915
0,0.4585,-0.9363,0.2327,-0.8503,0.0103,1.4065,2038
0,0.5305,-0.8484,0.2229,-0.8102,-0.1163,1.3145,2138
0,0.1772,-1.0564,0.1187,-0.813,0.0816,1.3993,2037
0,0.2979,-1.1738,0.1501,-0.9278,0.1804,1.5495,2076
1,0.4473,-1.1709,0.1196,-0.934,-0.0791,1.6486,1952
1,0.387,-1.179,0.1208,-0.9456,-0.2631,1.7418,2035
1,0.2771,-1.0857,0.186,-0.8903,-0.3709,2.0782,2054
1,0.1267,-1.1458,0.2734,-0.9078,-0.126,1.9931,2035
1,0.0601,-1.093,0.2388,-0.9054,0.0854,2.5658,2052
1,0.001,-1.3484,0.2207,-0.9195,0.2907,2.28,2032
1,0.084,-1.4395,0.0933,-1.031,0.5355,2.2967,2016
1,0.3633,-1.3167,0.1104,-1.021,0.2804,2.292,2041
1,0.2107,-1.3201,0.1843,-0.9159,0.1939,2.4069,2033
1,0.2634,-1.3928,0.2498,-0.9323,0.3782,2.6364,2051
1,0.6274,-1.3743,0.2903,-1.0005,0.3622,2.8141,2070
1,0.8218,-1.5576,0.3428,-0.9822,-0.0587,2.7994,2036
1,1.0964,-1.6584,0.4668,-1.0341,-0.2842,3.2096,2043
1,1.6436,-1.7922,0.6218,-1.1756,-0.4545,3.5347,2068
1,1.8259,-1.9465,0.8137,-1.2049,-0.9047,3.9006,2272
1,1.698,-2.0,1.1111,-1.3125,-1.6351,4.098,2288
1,1.489,-2.0,1.0432,-2.1313,-1.693,4.0877,1916
1,0.5583,-1.6333,0.821,-2.0676,-1.511,4.2045,1873
1,-0.311,-2.0,-0.1599,-2.6141,-0.2173,2.9441,1953
1,-0.6819,-2.0,0.0093,-2.1948,0.328,2.7544,2053
1,-0.5825,-2.0,-0.0317,-1.8153,-0.2368,3.2696,2140
1,-0.1709,-1.3223,0.1189,-1.1913,-0.964,3.134,2086
1,-0.031,-0.0466,0.55,0.3045,-1.5319,2.7717,2036
1,-0.2634,-0.2043,0.1616,-0.6738,0.7389,1.6325,2107
1,-0.5469,0.0125,-1.3782,-2.5714,3.5704,0.7957,2080
1,-2.0,-1.6638,-0.0208,-2.9276,1.7662,1.6076,2120
1,-1.5925,0.6643,-1.6614,-2.8486,0.3232,1.0236,1911
1,-1.6978,-0.4143,-1.5049,-1.2033,-0.5653,-0.2694,2158
1,-1.0718,0.5728,-1.0149,0.0945,0.4401,-0.6822,2125
1,0.5234,0.7437,-0.2412,4.152,-4.3635,-2.6958,2153
1,0.417,-0.2554,1.3293,4.2224,-4.3635,-3.3696,2068
1,0.3552,-0.7749,0.728,1.138,-4.2084,-2.8715,1985
1,-0.0662,-0.6133,-0.1091,-0.3468,-2.284,-3.2756,1965
1,-0.1926,-0.1736,-0.4341,0.1618,-0.3048,-4.2411,2020
1,-0.1531,-0.0229,-0.3516,1.1389,0.539,-4.2406,2046
1,-0.2612,-0.1008,-0.2043,1.5616,0.6456,-4.0921,2062
1,-0.6619,-0.2439,-0.0269,1.706,0.4739,-3.9752,2062
1,-0.6694,-0.2952,0.0481,1.8695,0.5189,-3.8222,2062
1,-0.5281,-0.3125,0.0745,1.8254,0.5121,-4.072,2059
1,-0.2205,-0.262,-0.052,1.6825,0.3982,-4.3635,2061
1,-0.0667,-0.1353,-0.1792,1.8558,0.2441,-4.3635,2048
1,0.0127,-0.0408,-0.1836,2.285,-0.1454,-4.3635,2044
1,-0.1978,-0.2444,-0.1848,2.8408,-0.2779,-4.3635,2044
1,-0.1309,-0.3123,-0.0085,3.103,-0.4311,-4.3635,2056
1,-0.2493,-0.2849,0.0139,3.1955,-0.4902,-4.3635,2059
1,-0.229,-0.4175,0.0813,3.3063,-0.3345,-4.3635,2064
1,-0.2129,-0.7068,0.1526,3.0684,-0.0622,-4.3635,2059
1,-0.3896,-0.8501,0.053,2.892,0.9068,-4.3635,2038
1,-0.7456,-0.9216,-0.1331,3.1256,2.1212,-4.3635,2042
1,-1.0088,-1.4695,-0.0791,3.6205,2.6746,-4.3635,2053
1,-0.5916,-1.7075,-0.1826,4.3634,2.4533,-4.3635,2122
1,1.9999,-2.0,1.9999,-4.3635,-0.5112,4.3634,2065
1,-2.0,1.9999,-2.0,4.3634,4.3634,-4.3635,1821
1,-2.0,-2.0,1.9999,4.3634,-0.1028,-4.3635,2168
1,1.0305,-2.0,0.5229,0.9953,-0.2097,-3.1548,2019
1,-0.0278,-1.0393,-1.1025,1.7644,2.1771,-4.125,1975
1,-0.3303,-1.7063,0.054,0.6243,1.5985,-3.3427,2050
1,-1.0884,-1.7009,-0.5051,-0.0999,1.8535,-1.011,2137
1,-0.3306,-1.0916,0.1208,1.3247,0.8242,-0.4623,2078
1,0.9858,-2.0,1.2983,-3.6463,0.3156,0.8319,1995
1,0.5291,-1.144,0.2837,-2.7354,2.0419,1.982,2318
1,-1.8855,1.0408,-0.9834,-1.1569,0.9017,2.6786,2029
1,-0.6855,0.0354,-0.1487,1.9466,-1.0026,0.6135,2019
1,1.1719,-2.0,1.9999,3.4045,-2.6649,-1.2961,2209
1,1.9999,-2.0,1.1785,-1.0628,0.3982,0.9792,1992
1,-0.697,-1.3401,0.1943,-2.8658,4.1813,2.6573,1798
1,-1.8442,-1.0549,0.9429,-0.4906,-0.4789,3.1452,1974
1,-1.218,-2.0,1.8604,-1.1051,-4.2142,2.6263,2118
1,-0.0947,-1.7881,0.8076,-2.4713,-3.0733,2.3531,2115
1,-2.0,-2.0,-0.4573,-4.3635,3.5239,1.3721,1931
1,-0.3845,0.1594,-0.7417,-3.3933,4.1418,2.1592,2103
1,1.4746,-1.718,-0.8899,-3.0332,1.4612,2.3586,2129
1,1.5493,-0.6177,-0.5786,-2.8995,-0.7163,3.0345,2011
1,-0.5696,0.0793,-1.5874,-2.2903,1.9454,3.1303,1937
1,0.0212,-0.0391,-1.0095,-0.4474,1.1505,2.6452,2134
1,-0.2566,-1.1536,-0.2583,-0.6148,-0.2216,1.9937,2080
1,-0.2856,-1.1177,0.0344,-0.6356,0.659,1.3059,2061
1,-0.6921,-0.5791,0.6782,-0.3002,0.4821,1.3328,2037
1,-0.8953,-1.0579,0.8254,-0.5417,-0.3153,0.9716,2041
1,-0.8721,-1.4478,0.2056,-0.9594,0.223,1.1505,2080
1,-0.6648,-1.0938,-0.0686,-0.9403,0.1008,0.7686,2032
1,-0.2378,-1.0469,-0.0371,-0.6778,-0.1477,0.3582,2069
1,0.0408,-0.896,-0.0007,-0.5188,-0.382,0.1024,2032
1,0.313,-0.8599,-0.2285,-0.414,0.021,0.2095,2128
1,0.5833,-0.8657,-0.1741,-0.3377,0.4569,0.4649,2075
1,0.6123,-0.8401,-0.1851,-0.225,0.5743,0.5355,2020
1,0.2883,-1.0481,-0.0698,-0.1669,0.1561,0.5461,2048
1,-0.0979,-1.053,0.1702,-0.2729,-0.1803,0.4737,2071
1,-0.1262,-1.0181,0.3447,-0.2581,-0.1511,0.3416,1992
1,-0.0613,-0.9812,0.2695,-0.3285,0.2205,0.4224,2014
1,0.0615,-0.9412,0.2373,-0.3191,0.204,0.5055,2012
1,0.1541,-1.0146,0.1829,-0.3771,0.0056,0.495,2101
1,0.1038,-0.9561,0.1633,-0.3935,0.09,0.4505,1994
1,0.009,-0.9036,0.1042,-0.1417,-0.1429,0.3128,2028
1,0.0154,-0.9424,0.1133,-0.0225,-0.2943,0.229,2159
1,0.1221,-1.0095,0.0769,0.0995,-0.4268,-0.0001,2112
1,0.0945,-1.1055,0.0432,0.0328,-0.5027,-0.0173,2064
1,0.054,-1.0557,0.0669,0.0437,-0.557,-0.0039,2051
1,-0.0098,-1.2395,0.1775,-0.1436,-0.3357,0.1443,2032
1,-0.021,-1.1636,0.1267,-0.3743,0.106,0.4986,1981
1,0.1123,-1.0056,0.1362,-0.3894,0.1739,0.5605,2003
1,0.1089,-0.9961,0.2039,-0.382,0.136,0.6147,1893
1,-0.012,-1.0366,0.1401,-0.4615,0.163,0.6436,2170
1,-0.0303,-1.0588,0.0696,-0.4378,0.2241,0.6851,2101
1,0.1067,-1.0559,0.0808,-0.4038,0.0888,0.7199,2025
1,0.2651,-1.0686,0.0884,-0.4177,-0.1593,0.7466,2050
1,0.3342,-1.0254,0.1445,-0.4795,-0.147,0.7641,1913
2,0.3606,-0.9963,0.2598,-0.5715,-0.0738,0.8518,1937
2,0.4172,-1.0334,0.3069,-0.6422,-0.0422,1.0203,2143
2,0.3909,-1.0767,0.3293,-0.7899,0.2147,1.2129,2018
2,0.5032,-1.1443,0.2695,-0.8491,-0.1332,1.4816,2275
2,0.6167,-1.2017,0.3025,-0.9327,-0.3466,1.7638,2031
2,0.1694,-1.1519,0.4229,-0.9516,-0.4145,1.8799,1996
2,0.0769,-1.2085,0.438,-0.9167,0.0241,2.3031,2012
2,0.5894,-1.4045,0.4915,-0.9718,-0.0614,2.1671,2022
2,0.5066,-1.4036,0.4417,-1.1003,0.1266,1.9742,2037
2,-0.0942,-1.2778,0.2996,-1.0461,0.2827,2.3029,2049
2,0.0796,-1.3008,0.2776,-1.0359,0.3195,2.4951,2064
2,0.1685,-1.2996,0.3958,-1.0472,0.3642,2.4844,2099
2,0.2317,-1.3054,0.3784,-0.9871,0.3617,2.6591,2076
2,0.3567,-1.4355,0.4502,-0.9078,0.4148,2.8903,2079
2,0.5852,-1.7561,0.3716,-1.0214,0.6104,2.6382,2042
2,0.9126,-1.5266,0.4734,-1.0784,0.4057,2.8842,2057
2,0.9575,-1.561,0.5723,-1.013,0.3276,3.4686,2055
2,1.6812,-2.0,0.4351,-1.2838,-0.2473,3.3959,2186
2,1.8176,-1.6108,0.6877,-1.1232,-1.0754,4.1556,2037
2,1.1523,-1.8997,1.0493,-1.1577,-1.8753,4.3634,2026
2,0.8777,-2.0,0.7988,-2.0028,-1.7094,4.3584,1973
2,0.5393,-1.6284,0.4429,-2.1503,-1.2002,3.7629,1965
2,-0.415,-1.6475,-0.1455,-1.9496,0.4307,3.4845,1973
2,-1.4285,-2.0,0.3118,-1.9128,0.8336,2.593,2063
2,0.3013,-1.1741,-0.0427,-1.2671,0.1449,2.4185,2128
2,-0.2673,-0.771,-0.0859,-0.6569,1.1223,2.4525,2042
2,-0.2344,-0.3491,0.771,1.4836,-0.4611,2.5393,2115
2,0.7598,-0.5994,-0.5522,-1.2625,1.7789,0.8451,2256
2,1.9999,-2.0,1.9999,-4.3635,3.1632,4.3634,2180
2,-2.0,1.0679,-2.0,-0.9923,1.1708,0.6138,1665
2,-2.0,-1.9714,-1.4673,-2.5773,2.2692,0.2852,2188
2,-1.2354,0.0432,-1.1855,-1.0078,0.6759,-0.7628,2126
2,-0.5164,0.7737,-1.0029,1.4412,-0.883,-1.3802,2159
2,0.636,-0.0222,0.3518,4.3634,-4.3635,-2.6449,2127
2,0.2134,-0.4102,1.314,3.3001,-4.3635,-3.3965,1978
2,0.5251,-0.5574,0.4365,0.7215,-3.4929,-2.9339,1983
2,0.3376,-0.3662,-0.2563,-0.0676,-1.2631,-3.6014,2024
2,0.1863,-0.2217,-0.4688,0.7827,-0.1056,-4.1363,1995
2,0.0085,-0.2832,-0.4189,1.6877,0.4223,-4.15,2038
2,-0.3879,-0.4219,-0.2832,1.9078,0.4115,-3.856,2053
2,-0.8284,-0.488,-0.1709,1.8982,0.3721,-3.7303,2067
2,-0.6831,-0.4536,-0.0747,1.8598,0.4541,-3.7217,2069
2,-0.5198,-0.384,-0.0105,1.8848,0.7329,-3.9903,2071
2,-0.2517,-0.3003,-0.0759,1.8859,0.6076,-4.3196,2061
2,-0.0608,-0.2104,-0.207,2.1261,0.5252,-4.3635,2048
2,-0.2004,-0.2954,-0.3198,2.5056,0.4839,-4.3635,2050
2,-0.1975,-0.2671,-0.2432,2.865,0.3956,-4.3635,2047
2,-0.178,-0.3362,-0.1724,3.2292,0.1509,-4.3635,2058
2,-0.1191,-0.4895,0.0566,3.4778,-0.2709,-4.3635,2079
2,-0.1565,-0.6997,0.0801,3.1809,-0.1491,-4.3635,2084
2,-0.2195,-0.9248,0.0322,3.0371,0.5201,-4.3635,2024
2,-0.3784,-0.9629,-0.0635,3.2147,1.0364,-4.3635,2028
2,-0.6206,-1.3274,-0.042,3.4073,1.4721,-4.3635,2045
2,-0.3513,-1.6829,0.0039,3.963,1.7198,-4.3635,2073
2,-1.1968,-2.0,-0.8921,4.3634,2.1949,-4.3635,2058
2,-1.4258,0.1011,-2.0,4.3634,0.5197,-4.1321,1922
2,1.8704,-2.0,-0.2415,4.3634,-1.5747,-4.3635,2375
2,-0.7896,-2.0,-0.8845,1.2698,0.7485,-4.3635,1862
2,-0.0449,-1.0427,-1.1746,2.1686,1.4336,-2.6617,1958
2,0.845,-1.054,0.1267,3.7869,-0.7403,-3.6174,2118
2,-0.8071,-1.4094,0.8958,1.0682,-0.7994,-2.7325,1983
2,-0.1221,-2.0,-0.2061,0.4019,-0.2782,-2.2089,2071
2,1.9999,-1.2275,-0.4277,0.1661,0.2582,-1.5167,2083
2,0.5547,-1.062,0.5186,-0.0069,-1.588,-0.7058,1996
2,-1.6064,-1.6692,0.5359,-0.9138,-0.9955,0.447,2030
2,-1.7607,-1.4583,-0.2866,-2.0072,0.4473,1.3258,2069
2,-1.0242,-1.9043,0.3438,-2.8794,0.77,1.0508,2102
2,0.3914,-0.4866,-0.1675,-3.2722,1.3327,2.5012,2016
2,1.6438,-2.0,1.9999,-4.3635,-1.6064,4.3634,2084
2,-0.7402,1.4065,-0.5991,-2.4997,1.1199,2.4145,2011
2,1.9999,-0.9966,1.9999,1.1777,-2.5096,0.1428,2572
2,0.7395,-2.0,-0.1052,0.336,-0.2008,-0.925,1532
2,-2.0,0.709,1.0762,0.0156,1.2632,2.3421,1611
2,-2.0,-2.0,1.394,-0.5249,4.3634,3.4764,2021
2,1.1096,-2.0,1.9999,-1.6717,-4.3635,2.6353,2076
2,0.4805,-1.0549,0.6243,-2.6073,-2.1736,2.3093,1970
2,-0.5569,-2.0,-0.9351,-3.9085,-0.4602,2.124,2025
2,-1.1462,-2.0,-2.0,-4.3635,4.3634,2.1114,2059
2,0.7939,0.9946,-2.0,-1.9869,3.2023,2.2375,2069
2,0.9954,-1.6685,-1.3132,-2.6197,1.9984,3.0874,2080
2,-0.0413,0.2205,0.1777,-2.0542,0.4504,2.1365,1935
2,-0.9592,-0.7275,-1.4817,-1.1424,2.0003,3.038,2050
2,0.2869,-0.5142,-0.333,-0.6496,0.842,2.7651,2119
2,-1.0103,-0.9517,0.7368,0.0545,-0.4894,1.802,2061
2,-0.8606,-1.2683,0.823,-0.7022,-0.4488,2.1577,2064
2,-1.0737,-1.0125,0.0718,-1.1906,0.4655,1.7539,2044
2,-0.729,-1.1975,-0.1145,-0.9556,1.2174,1.5295,2055
2,-0.8525,-1.0916,0.1179,-0.754,0.8214,0.7709,2040
2,-0.4119,-0.8198,-0.2854,-0.6155,0.3341,0.4256,2065
2,-0.0161,-0.9658,-0.3955,-0.2175,-0.027,0.1667,2074
2,0.1321,-0.9253,-0.2905,-0.0718,-0.0835,0.0678,2038
2,0.1423,-0.894,-0.2231,0.1068,-0.1791,0.0435,2004
2,0.125,-0.9475,-0.1985,0.1085,-0.0743,0.0382,2067
2,0.3506,-0.886,-0.1187,0.2338,0.0206,-0.1436,2108
2,0.0723,-0.9529,0.0376,0.3887,0.0764,-0.2635,2041
2,-0.2048,-1.0964,0.3579,0.389,-0.5516,-0.1413,2191
2,-0.1543,-1.0557,0.3823,0.2381,-0.5617,-0.2843,2173
2,0.0491,-1.0662,0.3206,0.1266,-0.1366,-0.2567,2132
2,0.0195,-1.1118,0.2378,0.0401,-0.1968,-0.2298,2107
2,0.1309,-1.1453,0.1819,0.0429,-0.1826,-0.3851,2106
2,0.4006,-1.377,0.2537,-0.2437,-0.1453,0.0052,2036
2,0.2307,-0.9148,0.1409,-0.2726,-0.1738,0.0654,2065
3,0.355,-0.856,0.1423,-0.2369,-0.3219,0.2049,2140
3,0.3782,-1.0037,0.158,-0.3742,-0.5191,0.5473,2152
3,0.2527,-0.9795,0.2434,-0.5621,-0.4549,0.5931,2010
3,0.1543,-0.9419,0.2683,-0.6428,-0.3008,0.789,2035
3,-0.033,-0.9165,0.1899,-0.5873,-0.0883,0.7323,1988
3,-0.0076,-1.0532,0.1272,-0.5982,0.0109,0.7604,2063
3,0.0591,-1.105,0.1001,-0.5968,-0.0808,0.7431,1983
3,0.1726,-1.019,0.1406,-0.6489,-0.122,0.8287,2003
3,0.2427,-1.019,0.1631,-0.7104,0.0527,0.8869,2033
3,0.3867,-1.0525,0.241,-0.7811,0.2195,1.1099,2038
3,0.4048,-0.9973,0.259,-0.8834,0.3176,1.0865,2000
3,0.4917,-1.0747,0.1865,-0.903,0.2445,1.2487,2078
3,0.5483,-1.1599,0.1704,-0.9629,0.1675,1.4311,2125
3,0.6248,-1.1086,0.2002,-0.9855,-0.3111,1.7013,2032
3,0.4963,-1.1887,0.2507,-1.0029,-0.2946,1.9403,2022
3,0.1174,-1.1116,0.2622,-1.0175,-0.1285,2.062,1993
3,0.2534,-1.2087,0.3254,-1.0208,-0.067,2.2718,2035
3,0.0886,-1.3818,0.2981,-0.9504,-0.0514,2.251,2022
3,0.0869,-1.4976,0.0955,-1.126,0.183,2.216,2019
3,0.3262,-1.2791,0.1707,-1.1597,0.1257,2.3055,2068
3,0.2852,-1.2183,0.2263,-1.1081,-0.0852,2.4137,2070
3,0.1677,-1.2854,0.2729,-1.1239,-0.0434,2.5207,2032
3,0.2615,-1.397,0.2952,-1.0978,0.0486,2.5647,2051
3,0.5168,-1.5613,0.458,-1.0363,-0.0834,2.7252,2061
3,0.665,-1.7822,0.4851,-1.0624,-0.1514,2.714,2060
3,0.9119,-1.8032,0.6501,-1.2516,-0.3891,2.9337,2059
3,1.4839,-1.5884,0.7249,-1.2061,-0.8222,3.7098,2207
3,1.9309,-2.0,0.853,-1.5055,-1.1228,3.6728,2263
3,1.4846,-1.8003,1.3152,-1.7753,-1.7098,4.1791,1847
3,0.9807,-1.5437,0.9412,-1.9642,-2.4479,4.3634,1922
3,0.6035,-1.8625,0.6067,-1.9869,-1.5508,3.5889,1991
3,-0.071,-1.8799,0.2424,-2.1241,-0.4244,2.9833,2001
3,-1.1848,-2.0,-0.0232,-2.0614,0.8337,3.0168,2019
3,-0.3267,-1.8794,-0.1453,-1.3086,-0.8488,2.3609,2123
3,-0.3413,-0.8711,-0.1089,-0.8713,0.0682,3.0533,2055
3,-0.4141,-0.4531,0.4387,0.3609,-0.3085,2.6264,2099
3,0.6167,-0.6592,0.0857,-0.3109,-0.3968,1.2816,2226
3,1.9999,-2.0,0.6521,-4.3635,1.8809,4.3634,1956
3,-2.0,1.9999,-2.0,1.3592,1.8433,3.2559,1651
3,-2.0,-1.8098,-1.6592,-3.1713,1.8434,1.1132,2133
3,-0.8994,-0.0554,-1.3594,-0.6537,-1.0063,-0.4542,2170
3,-1.2415,0.7952,-1.1943,-0.5477,-1.6519,-1.5434,2124
3,-0.175,0.7947,-0.6277,2.9741,-3.8028,-2.0604,2150
3,-0.1201,-0.063,0.7021,4.3634,-4.3635,-3.4396,2025
3,0.1902,-0.5327,0.7126,2.037,-4.2413,-3.6222,2036
3,0.3257,-0.4963,-0.1301,-0.1105,-1.8891,-3.4374,1989
3,0.3352,-0.2283,-0.5273,-0.2621,-0.4401,-4.2487,1993
3,0.1313,-0.106,-0.5552,0.7857,0.363,-4.3635,2032
3,-0.1372,-0.1113,-0.3789,1.6364,0.4129,-4.3635,2047
3,-0.5464,-0.1538,-0.2815,1.8849,0.0818,-4.0853,2069
3,-0.8157,-0.2397,-0.1064,1.8459,-0.0967,-4.108,2075
3,-0.6594,-0.2632,0.0044,1.7693,0.0218,-4.3132,2069
3,-0.3987,-0.2161,0.0312,1.6086,0.0668,-4.3635,2061
3,-0.269,-0.157,-0.0688,1.6313,0.2743,-4.3635,2054
3,-0.2766,-0.2104,-0.1821,1.867,0.3286,-4.3635,2051
3,-0.4207,-0.2185,-0.2449,2.0877,0.5967,-4.3635,2047
3,-0.5386,-0.1851,-0.218,2.4892,0.8311,-4.3635,2046
3,-0.3472,-0.3628,0.0239,3.0055,0.5308,-4.3635,2065
3,-0.2429,-0.5662,0.1196,2.7758,0.3875,-4.3635,2064
3,-0.2568,-0.7283,0.0408,2.6324,0.997,-4.3635,2044
3,-0.281,-0.8079,0.0371,2.6725,1.5443,-4.3635,2048
3,-0.4268,-0.99,-0.0464,2.9277,2.1152,-4.3635,2040
3,-0.3796,-1.5642,0.043,3.2254,3.0971,-4.3635,2077
3,-0.426,-2.0,-0.3853,4.3273,3.1335,-4.3635,2109
3,-2.0,1.9999,0.4111,2.4942,1.4471,-4.3635,1831
3,1.9999,-2.0,-2.0,4.3634,-0.9015,-4.3635,2378
3,0.7551,-2.0,0.6472,2.41,-1.4086,-3.8158,1916
3,-0.9392,-1.436,-1.4348,2.0702,2.8707,-4.3635,2003
3,0.2358,-1.0994,0.1111,4.1247,1.0383,-3.4413,2063
3,0.5864,-1.8374,1.1724,0.6847,-2.9676,-1.9825,2049
3,-0.1458,-0.8315,0.1523,0.4851,-2.6647,-1.7222,2034
3,1.5974,-1.5808,0.3169,-0.1679,-1.7659,-1.073,2142
3,1.4871,-1.5488,0.2922,-0.5528,-0.245,-0.5807,1933
3,-0.3748,-1.0251,0.0598,-0.7557,-0.1844,0.5875,1923
3,-0.6301,-1.6704,1.1074,-1.6435,-1.814,2.4257,2085
3,0.9067,-2.0,0.9695,-4.3635,-1.0517,4.3634,2129
3,-2.0,0.0715,-0.2842,-2.4233,1.6089,3.4231,2076
3,-0.8003,-1.2241,1.9999,-2.852,1.4107,3.6924,1989
3,1.9999,-0.4668,1.6704,0.7597,-1.0649,0.3247,2198
3,1.7126,-2.0,1.9999,-1.0135,-0.613,-1.3856,2206
3,-1.3679,-0.4185,1.2925,0.4299,0.8612,1.5407,1823
3,-1.0852,-1.3496,-0.3796,-0.3505,3.8056,2.1441,2041
3,-0.4216,-2.0,1.4312,-1.4054,-0.0131,2.1992,2082
3,1.0146,-2.0,0.897,-2.6067,-3.7708,2.2652,2053
3,-1.887,-2.0,-0.936,-4.3635,0.4649,0.714,1986
3,-0.2004,-1.1169,-1.7668,-4.3635,3.7087,2.0841,2061
3,0.0176,0.5503,-1.8025,-0.5681,2.3441,1.925,2054
3,0.7944,-0.5056,-0.2585,-1.2577,1.0066,2.6088,2107
3,0.7039,-0.1287,-0.1514,-1.1242,2.0162,2.5617,2000
3,0.3804,-1.8357,-1.1528,-1.3122,2.1394,3.2158,2080
3,-0.2578,-1.0415,-0.6338,-0.7506,1.277,2.2487,2047
3,-0.7249,-0.6162,0.1062,-0.4651,-0.0782,1.3173,2039
3,-0.8486,-1.1477,0.8821,-0.2838,-0.4508,1.7832,2063
3,-1.0588,-0.9338,1.0117,-0.3816,-0.0775,1.3781,2055
3,-0.8242,-0.9822,0.4487,-0.8244,0.8182,1.4153,2059
3,-0.5735,-1.2224,-0.0208,-1.384,0.7477,1.5463,2061
3,-0.116,-1.0444,-0.4375,-1.2717,0.1954,1.0629,2066
3,0.2607,-0.8997,-0.2625,-0.6524,0.1404,0.5386,2041
3,0.4001,-0.918,-0.2664,-0.4276,-0.0326,0.4521,1993
3,0.1821,-0.7908,-0.3286,-0.082,0.3268,0.3452,2075
3,0.3569,-0.6885,-0.2097,0.3413,0.393,0.4131,1975
4,0.3274,-0.9353,-0.1233,0.3603,0.4771,0.5105,1998
4,0.3218,-1.2864,0.0166,0.0257,0.3442,0.7674,2035
4,-0.1858,-1.0747,0.1677,0.2248,-0.0914,0.3911,2041
4,-0.2612,-1.1074,0.3867,-0.0029,-0.3954,0.5064,2051
4,0.1199,-0.9751,0.2434,0.0008,-0.0687,0.5339,2188
4,0.0618,-1.0469,0.1887,-0.116,0.0041,0.382,2110
4,0.0488,-1.0312,0.0508,0.0021,-0.4414,0.2613,2020
4,0.0535,-1.0396,0.1165,-0.0613,-0.5197,-0.0162,2040
4,0.072,-1.1787,0.1428,-0.0956,-0.3189,0.0132,2023
4,-0.0164,-1.208,0.1201,-0.3948,-0.002,0.3727,2197
4,0.0725,-0.9778,0.043,-0.4035,0.1748,0.2988,1997
4,0.1687,-1.01,0.1729,-0.514,0.3918,0.4778,2094
4,0.3965,-0.9517,0.1421,-0.603,0.3939,0.6903,1976
4,0.3694,-0.9336,0.1536,-0.5935,0.1261,0.6859,1990
4,0.1624,-0.928,0.125,-0.4982,-0.085,0.7393,2113
4,-0.0125,-0.95,0.0752,-0.4209,-0.1314,0.7758,2047
4,-0.0986,-1.0659,0.0371,-0.4035,-0.1506,0.7974,2048
4,-0.0933,-1.1025,0.051,-0.4537,-0.1306,0.767,1979
4,-0.0525,-1.1233,0.0054,-0.4799,-0.1574,0.7554,2119
4,0.0244,-1.1301,0.1064,-0.5647,-0.0458,0.876,2064
4,0.2842,-0.9646,0.1641,-0.6251,0.0629,0.9118,1979
4,0.3962,-0.97,0.1846,-0.6015,0.0305,0.9899,2110
4,0.3833,-1.0557,0.2415,-0.6686,0.1089,1.1444,2243
4,0.5513,-1.1091,0.2461,-0.7674,-0.1382,1.4372,2056
4,0.5933,-1.1794,0.1953,-0.7959,-0.1525,1.5865,2027
4,0.3306,-1.1648,0.2761,-0.8365,-0.1533,1.7659,2030
4,0.3953,-1.2341,0.2976,-0.8654,-0.189,1.9078,2048
4,0.3093,-1.3032,0.2361,-0.8329,-0.261,2.1005,2032
4,0.2341,-1.4431,0.1316,-0.9391,-0.08,2.045,2018
4,0.1384,-1.3083,0.2954,-0.9142,-0.136,2.1782,2025
4,0.1658,-1.3127,0.282,-0.9076,-0.227,2.3125,2072
4,0.0654,-1.2786,0.3042,-0.9258,-0.0525,2.3719,2054
4,0.0198,-1.3196,0.3481,-0.8614,0.1965,2.4622,2067
4,0.342,-1.4282,0.3577,-0.9086,0.5574,2.6076,2050
4,0.8508,-1.4709,0.4653,-0.9933,0.6172,2.8181,2043
4,1.0933,-1.7056,0.6338,-1.1023,0.2152,2.5555,2064
4,1.2617,-1.5652,0.4395,-1.2343,0.0201,2.998,2044
4,0.5972,-1.1838,0.6492,-0.6733,-0.5719,4.0132,2079
4,1.6907,-2.0,0.6445,-1.124,-0.0633,3.6125,2402
4,1.4065,-1.8442,1.1663,-1.4399,-0.8171,4.3634,2122
4,1.2837,-1.9036,0.6858,-2.0198,-1.4243,4.3634,1851
4,0.6216,-1.4543,0.7141,-1.9096,-1.6052,3.9359,1910
4,-0.4221,-1.8755,0.145,-2.3561,0.2248,3.0335,1947
4,-0.9624,-2.0,0.1079,-2.6087,0.6573,1.9078,2048
4,-0.23,-1.4739,-0.1313,-1.6262,0.3927,2.5824,2105
4,-0.2493,-1.4072,-0.137,-0.9781,0.3899,2.2651,2076
4,-0.0752,-0.1677,0.9148,1.5938,-2.2029,2.9618,2101
4,0.6252,-0.2278,-0.634,-2.0065,2.1748,1.2587,2171
4,1.9999,-2.0,1.9999,-4.3635,4.3634,4.3634,2270
4,-2.0,1.9999,-2.0,-0.8501,1.2709,0.426,1630
4,-2.0,-1.4985,-1.5657,-3.3059,1.6937,0.3165,2195
4,-0.8838,0.7458,-1.4839,-0.6245,-0.4425,-0.9733,2172
4,-0.1008,0.8818,-1.0908,2.1603,-2.3388,-2.0683,2139
4,0.7302,-0.0596,0.9353,4.3634,-4.3635,-3.4102,2110
4,0.3369,-0.5991,1.5251,2.2099,-4.3635,-3.5121,2010
4,0.3962,-0.7012,0.3894,-0.3883,-4.3635,-3.0428,2004
4,-0.1733,-0.3352,-0.2507,-0.7957,-2.6958,-3.9231,1956
4,-0.3147,-0.2139,-0.3081,0.2756,-1.3318,-4.3635,2007
4,-0.3169,-0.2925,-0.1304,1.1603,-0.7056,-4.3635,2047
4,-0.5388,-0.4702,0.0349,1.215,-0.3852,-4.3465,2071
4,-0.7871,-0.6221,0.0938,1.048,-0.0093,-4.269,2065
4,-0.8821,-0.6123,0.1475,1.0705,0.1164,-4.2453,2063
4,-0.6191,-0.4944,0.1077,1.0026,0.2289,-4.3635,2073
4,-0.4436,-0.3459,-0.0188,1.0894,0.4277,-4.3635,2052
4,-0.3391,-0.2971,-0.1089,1.3258,0.4228,-4.3635,2047
4,-0.3948,-0.3804,-0.2078,1.7683,0.314,-4.3635,2055
4,-0.3181,-0.415,-0.126,2.1417,0.1771,-4.3635,2057
4,-0.2712,-0.4119,-0.0522,2.3453,0.0487,-4.3635,2059
4,-0.1831,-0.4915,0.0566,2.5746,0.0732,-4.3635,2069
4,-0.0723,-0.5996,0.0549,2.3398,0.4252,-4.3635,2052
4,-0.0315,-0.6785,0.0356,2.4115,1.2125,-4.3635,2034
4,-0.1021,-0.7305,0.0803,2.5169,1.8141,-4.3635,2037
4,-0.2507,-1.002,0.1106,2.9046,1.7713,-4.3635,2045
4,0.3135,-1.2212,0.1052,3.409,1.4549,-4.3635,2066
4,-0.3738,-2.0,-0.873,3.9351,1.8036,-4.3635,2048
4,-0.9307,0.4587,1.9999,-1.4177,1.7982,-4.3635,1860
4,0.5894,-2.0,-1.9224,4.3634,-0.3145,-4.3635,2394
4,-1.2615,-2.0,-0.1553,3.5812,-1.1469,-4.3635,1919
4,-2.0,-1.9656,-0.7402,2.4968,2.811,-4.0662,2008
4,0.2961,-0.9819,0.1484,3.0979,1.4101,-2.7847,2075
4,0.5625,-1.7908,0.7913,0.6823,-0.6281,-1.9161,2020
4,-0.1064,-0.8645,-0.4036,0.7449,-3.1235,-1.7511,1999
4,0.9019,-1.6299,0.4875,0.6561,-0.3683,-1.4841,2119
4,1.3201,-1.2124,0.0364,0.0178,0.3888,-0.5891,2069
4,-0.7947,-1.5,0.3208,-0.318,-0.8187,0.194,2043
4,-0.6538,-2.0,1.0903,-2.526,-0.9961,0.7423,2120
4,1.9999,-2.0,0.4343,-4.3635,1.124,4.3634,2128
4,-2.0,1.0342,-2.0,-1.2579,2.3513,3.764,1899
4,-1.0278,0.5298,1.676,-1.1833,0.8761,2.637,2137
4,1.9999,-2.0,1.9999,-0.3605,-4.3635,0.294,2230
4,1.9999,-1.78,1.6106,0.7248,-0.9178,-1.5094,2125
4,-2.0,-1.3533,0.5818,-0.3741,3.6037,1.7765,1737
4,-2.0,-1.4829,0.0012,-1.2192,3.8878,3.537,2028
4,-1.5024,-2.0,1.9358,-1.6583,-3.7739,2.5153,2144
4,0.2053,-2.0,0.8481,-2.9894,-4.056,2.1691,2139
4,-1.4299,-2.0,-1.0198,-4.3635,3.5243,0.8962,1977
4,-0.4116,0.2949,-1.5063,-3.47,3.9293,2.4131,2070
4,1.7644,-1.2053,-1.2461,-2.2238,2.0218,3.165,2083
4,0.7844,0.127,-0.1206,-2.0033,1.3756,3.6633,2001
4,0.1555,-1.0042,-1.2434,-2.0583,2.0188,3.3198,2027
4,-0.0256,-0.4792,-1.1499,-0.7355,1.5546,2.4864,2049
4,-0.3955,-0.3894,-0.8691,-0.685,-0.3461,1.0859,2054
4,-0.2046,-1.3101,0.0215,-0.1615,-0.3498,1.8243,2071
5,-0.6313,-1.1001,0.8433,-0.2108,0.4321,1.5532,2046
5,-0.8906,-1.0461,0.6562,-0.2515,0.0969,1.2921,2053
5,-0.9385,-1.1199,0.1101,-0.7259,0.559,1.4304,2062
5,-0.6404,-1.1523,-0.1406,-1.0589,0.0272,1.0621,2060
5,-0.2588,-0.9343,-0.2932,-0.6244,0.0792,0.3414,2063
5,-0.031,-0.9429,-0.0955,-0.42,0.2282,0.0581,2008
5,0.1399,-0.9546,-0.3767,-0.0132,0.08,0.0558,1950
5,0.3843,-0.8484,-0.272,-0.0096,0.2091,0.1289,2046
5,0.7661,-0.7271,-0.2136,0.1626,0.1313,-0.034,2008
5,0.4375,-1.0215,-0.1619,0.3184,0.1177,0.08,1962
5,-0.2649,-1.2808,0.2659,0.0932,-0.6803,0.1234,2048
5,-0.0972,-0.9595,0.1726,0.1003,-0.7522,0.0181,2042
5,0.0728,-1.0017,0.3486,-0.0836,-0.4055,0.1131,1981
5,-0.0107,-1.0413,0.2495,-0.181,-0.4038,0.1779,2208
5,0.1592,-1.1189,0.1521,-0.1553,-0.4071,0.2774,1965
5,0.1636,-1.1697,0.1328,-0.2553,-0.4964,0.3743,2034
5,0.1731,-0.9966,0.095,-0.2293,-0.5859,0.2477,2046
5,0.1572,-1.0232,0.1206,-0.2796,-0.3902,0.2669,2015
5,0.0879,-1.0732,0.105,-0.3496,-0.1478,0.3966,2180
5,0.0889,-1.0605,0.061,-0.3757,0.1202,0.5271,2069
5,0.1987,-1.0413,0.1213,-0.3438,0.1663,0.5847,2027
5,0.2439,-0.9375,0.1172,-0.3835,0.2051,0.6517,2025
5,0.1716,-1.0037,0.137,-0.4077,0.0354,0.7186,1962
5,0.0056,-1.1392,0.0891,-0.4778,-0.0294,0.655,2007
5,-0.1179,-1.1348,0.0442,-0.4734,-0.1575,0.5837,1969
5,-0.1697,-1.0718,0.0361,-0.4462,-0.1764,0.6348,1969
5,-0.0884,-0.9871,0.0518,-0.4914,-0.0591,0.6023,1971
5,0.031,-1.0598,0.1223,-0.5508,-0.0585,0.7777,2216
5,0.2065,-1.0615,0.2075,-0.5734,0.0088,0.763,1972
5,0.4041,-1.0374,0.2959,-0.62,0.1517,0.8359,2396
5,0.4922,-1.0088,0.373,-0.7315,0.0454,0.9452,2060
5,0.488,-1.0715,0.3269,-0.8047,0.0925,1.1643,2047
5,0.5945,-1.1821,0.2991,-0.9295,0.1196,1.3481,2011
5,0.6465,-1.2417,0.2849,-1.0112,-0.1096,1.5047,2106
5,0.4675,-1.2505,0.2888,-1.0801,0.0208,1.664,2039
5,0.3376,-1.2075,0.3855,-1.1218,0.1542,1.9161,2024
5,0.4045,-1.209,0.3821,-1.1505,0.2321,2.1519,2112
5,0.3855,-1.2957,0.3599,-1.1817,0.2803,2.2009,2156
5,0.4136,-1.2949,0.3406,-1.2388,0.1828,2.5614,2053
5,0.261,-1.3398,0.3311,-1.2794,0.3554,2.5011,2027
5,0.1641,-1.3557,0.2302,-1.3773,0.5638,2.7032,2032
5,0.562,-1.2798,0.0422,-1.3037,0.3353,2.7773,2068
5,0.5527,-1.3899,0.3408,-1.2231,0.139,2.7247,2077
5,0.207,-1.6541,0.3113,-1.097,0.1824,2.5452,2035
5,0.9058,-1.6282,0.4814,-1.3103,0.2513,3.0376,2078
5,1.2175,-1.8591,0.4778,-1.4101,0.2976,3.1811,2124
5,1.8674,-1.6365,0.7087,-1.5338,-0.9766,3.4896,2142
5,1.6797,-1.6814,0.7466,-1.5466,-1.6615,3.9134,2048
5,1.1243,-1.9873,1.3132,-1.7034,-2.0371,4.1283,2083
5,0.6121,-1.844,0.4697,-2.4542,-1.6532,3.9596,1819
5,0.0754,-1.8264,0.1355,-2.0739,-0.5155,3.0929,1963
5,-0.6826,-1.9192,-0.0728,-1.6671,0.3164,3.476,2018
5,-0.1506,-1.9824,-0.0105,-1.1913,-1.164,2.5607,2123
5,-0.342,-1.0422,-0.0571,-0.6755,-0.3185,3.0174,2051
5,-0.4146,-0.7568,0.3362,-0.0174,0.2293,2.7269,2083
5,-0.0569,-0.7485,0.8037,0.4081,-0.2971,1.8458,2158
5,1.9999,-2.0,1.9999,-4.3635,2.4165,4.3634,2217
5,-2.0,1.9999,-2.0,0.7614,4.3634,1.7096,1543
5,-2.0,-2.0,-1.5801,-3.2263,2.3649,1.6285,2270
5,-0.8669,-0.8223,-0.9624,-1.1258,-0.5396,0.2759,2171
5,-1.2881,0.8621,-0.8931,-1.1728,-2.1326,-1.0079,2112
5,-0.0496,1.0483,-0.7136,2.5754,-3.2327,-1.5135,2139
5,-0.0073,-0.03,0.8933,4.3634,-4.3635,-3.6613,2023
5,0.2327,-0.5391,1.3098,2.1257,-3.9093,-3.7093,2016
5,0.5706,-0.7112,0.1228,-0.2589,-2.8612,-3.3391,2042
5,0.1453,-0.3789,-0.3623,0.0828,-1.3299,-4.1349,1959
5,0.0393,-0.1692,-0.2314,1.38,-0.3611,-4.3635,2025
5,-0.4717,-0.313,0.0359,1.9214,-0.3144,-4.1024,2052
5,-0.8577,-0.4805,0.0488,1.8161,-0.1848,-3.8398,2066
5,-0.698,-0.5002,0.0691,1.599,0.1842,-3.8239,2084
5,-0.5859,-0.4624,0.1179,1.6042,0.2445,-4.0624,2062
5,-0.2698,-0.3723,0.0178,1.6808,-0.0177,-4.2583,2046
5,-0.0327,-0.3208,-0.1421,1.6725,-0.294,-4.3635,2052
5,-0.2769,-0.2434,-0.293,2.0604,-0.2798,-4.3635,2054
5,-0.2834,-0.3674,-0.188,2.6421,-0.3071,-4.3635,2055
5,-0.2197,-0.3635,-0.0452,2.8526,-0.4758,-4.3635,2060
5,-0.1401,-0.5496,0.0154,3.0927,-0.5586,-4.3635,2074
5,-0.0396,-0.6511,0.0212,2.8512,-0.2828,-4.3635,2063
5,-0.0283,-0.7065,-0.0327,2.7253,0.5758,-4.3635,2029
5,-0.1978,-0.7014,-0.0874,2.6601,1.5492,-4.3635,2021
5,-0.3413,-0.8035,-0.1833,3.1175,2.1244,-4.3635,2037
5,-0.2869,-1.4202,-0.1814,3.6792,2.5942,-4.3635,2073
5,-0.2031,-2.0,-0.4216,4.3634,2.5928,-4.3635,2080
5,1.9999,-2.0,1.9999,-4.3635,-3.0441,-0.4679,2100
5,-2.0,0.0703,-2.0,4.3634,3.428,-4.3635,2033
5,0.6375,-2.0,1.0081,4.2449,-3.6009,-4.3635,1934
5,-1.3018,-1.5195,-0.6365,1.3596,2.1425,-3.7799,1952
5,0.0679,-1.1121,-0.7458,3.7471,3.6142,-3.0829,2100
5,0.7502,-2.0,0.877,1.0559,-0.136,-2.5914,2068
5,-0.4363,-1.4766,-0.3718,0.8801,-3.8064,-0.8357,1970
5,0.1526,-0.9924,0.2129,0.7751,-1.2571,-1.6093,2170
5,1.4028,-1.6274,-0.1313,0.1004,0.5703,-1.1837,2098
5,-0.2288,-1.375,0.1555,-0.443,0.2506,-0.2179,1970
5,-0.9124,-1.9106,0.0925,-1.3625,-1.1276,0.0951,2031
5,0.6597,-2.0,0.6135,-4.3635,0.7598,3.0131,1957
5,-2.0,-0.5515,-2.0,-1.9912,-0.1281,3.0521,2206
5,-0.4932,-0.1279,-0.0635,-1.8257,0.0059,2.9962,2076
5,1.5012,-0.3604,1.9999,0.403,-4.3635,0.7283,2086
5,1.9999,-2.0,1.054,1.3925,-2.8184,-0.9978,2253
5,0.0154,-1.2102,0.9277,-0.6453,4.3634,0.1706,1778
5,-2.0,-2.0,1.4045,-1.8374,4.3634,3.5143,1884
5,-1.9861,-1.9465,1.9999,-1.2912,-1.7342,2.9123,2107
6,0.6724,-1.9937,1.4512,-2.8209,-4.3046,2.1454,2192
6,0.0457,-1.0864,-0.1086,-3.0556,-3.2144,1.1708,2040
6,-2.0,-2.0,-1.845,-4.3635,3.3513,1.0987,1977
6,0.4607,0.1865,-1.9573,-3.1231,4.2658,2.706,2111
6,1.3196,-0.9172,-1.9873,-1.6386,2.6918,2.4746,2071
6,1.0527,-0.1331,-0.6814,-1.3438,1.866,3.2633,2023
6,0.4924,-0.9346,-1.4099,-1.5001,0.8894,2.6345,2021
6,-0.0015,-0.7041,-1.0103,-0.0031,1.009,2.744,2046
6,-0.1914,-0.5652,0.0684,0.3127,-0.2353,2.0616,2076
6,-0.7249,-1.2361,1.0071,0.4888,-0.6749,1.6728,2047
6,-1.1782,-1.1772,1.2517,-0.1366,-0.0226,1.4623,2074
6,-1.2251,-1.1521,0.7039,-1.0946,0.3852,1.4808,2061
6,-0.821,-1.3594,0.0542,-1.5972,0.5099,1.2632,2063
6,-0.4941,-1.0979,-0.1575,-1.2806,0.1441,0.6269,2059
6,-0.2358,-0.8545,-0.3149,-0.7564,-0.2133,0.083,2042
6,0.1875,-0.9751,-0.272,-0.4396,-0.4284,0.0274,2058
6,0.3101,-0.8667,-0.3132,-0.186,-0.2228,0.0699,2045
6,0.3193,-0.8369,-0.2441,-0.0738,0.1238,0.0867,2060
6,0.6025,-1.0366,-0.1538,-0.1292,0.1132,0.2615,2099
6,0.5845,-0.8831,-0.1509,0.0728,0.3948,0.1139,2019
6,0.2981,-0.7778,-0.0947,0.5291,-0.0108,0.0904,2022
6,-0.2002,-1.115,0.4421,0.4388,-1.0945,0.1111,2030
6,-0.2783,-1.1897,0.4138,-0.0515,-0.6022,0.0109,2044
6,0.0728,-1.0105,0.2593,0.0454,-0.4089,0.0511,2008
6,0.1216,-1.0403,0.2656,-0.1149,-0.4191,0.1847,2024
6,0.2109,-1.1047,0.147,-0.0887,-0.7024,0.2444,2008
6,0.272,-1.2224,0.0696,-0.2734,-0.7934,0.3927,2054
6,0.1616,-1.0923,0.1199,-0.406,-0.6542,0.334,2036
6,0.1523,-0.9526,0.1726,-0.5703,-0.2715,0.4477,2009
6,0.1328,-0.9707,0.1042,-0.536,-0.3485,0.5376,2038
6,0.0383,-1.0569,0.1453,-0.5446,-0.1119,0.6193,1993
6,-0.0457,-1.0789,0.1663,-0.6249,0.0245,0.6783,2138
6,-0.0776,-0.9814,0.1545,-0.701,0.3108,0.7032,1959
6,-0.1091,-0.9683,0.1602,-0.6678,0.4311,0.6833,2081
6,-0.0403,-1.0168,0.01,-0.6277,0.3687,0.6962,2056
6,0.0542,-1.0608,-0.0361,-0.5144,0.2025,0.6735,2293
6,0.0806,-1.0698,-0.0842,-0.4882,-0.12,0.6493,2015
6,0.1396,-1.0537,-0.0151,-0.4488,-0.2464,0.6577,2113
6,0.1924,-1.136,0.0801,-0.5649,-0.2308,0.7461,2060
6,0.3669,-1.0181,0.123,-0.62,-0.2549,0.8541,2001
6,0.2642,-0.9536,0.2351,-0.6446,-0.1557,0.876,1936
6,0.3618,-1.0693,0.2273,-0.7195,-0.2068,1.056,2138
6,0.5635,-1.1211,0.2407,-0.7775,-0.3662,1.3439,2023
6,0.4729,-1.2295,0.3254,-0.8678,-0.3922,1.5442,2028
6,0.4158,-1.2144,0.375,-0.9492,-0.3167,1.5974,2035
6,0.3533,-1.1394,0.4216,-0.9303,-0.3075,2.049,2102
6,0.1492,-1.3472,0.3743,-1.0223,0.1874,1.9554,2032
6,0.3235,-1.4009,0.3459,-1.1754,0.3713,2.0735,2033
6,0.5154,-1.2625,0.2,-1.1603,0.1822,2.1683,2034
6,0.2922,-1.2551,0.2634,-1.1501,0.1093,2.3518,2046
6,0.2058,-1.3411,0.251,-1.1761,0.0971,2.4982,2052
6,0.2986,-1.408,0.2429,-1.1428,0.244,2.5623,2054
6,0.5205,-1.5425,0.3711,-1.0931,0.2888,2.7943,2102
6,0.8831,-1.9707,0.4207,-1.1994,0.2551,2.4554,2044
6,1.3779,-1.6667,0.5837,-1.4234,-0.1037,2.7967,2062
6,1.0503,-1.6389,0.5789,-1.2975,-0.3638,3.4186,2152
6,1.886,-2.0,0.6113,-1.4615,-1.1102,3.7331,2354
6,1.5354,-1.7683,1.2942,-1.35,-1.5205,4.3634,2032
6,1.3779,-1.998,0.9949,-2.327,-2.0301,4.3634,1907
6,0.4934,-1.6331,0.9106,-2.263,-1.4316,3.7792,1925
6,0.064,-1.8408,0.0002,-2.6112,-0.4988,2.959,1984
6,-0.7566,-2.0,-0.127,-2.0726,0.1928,3.3094,2050
6,-0.2471,-2.0,-0.2307,-1.5621,-1.313,2.5587,2131
6,-0.0977,-0.8601,0.0,-0.8396,-0.8235,3.0863,2058
6,-0.5442,-0.3298,0.2844,-0.0788,0.0301,2.5884,2058
6,0.0615,-0.5193,0.4067,-0.091,0.3486,1.4793,2174
6,0.8533,-0.8076,0.4717,-4.2299,3.623,1.8219,2031
6,-2.0,1.9999,-2.0,0.1274,4.3634,3.7901,1908
6,-1.9065,-2.0,-1.0803,-3.9298,0.3836,0.7597,2055
6,-1.0618,0.1719,-1.3127,-0.769,-0.5104,-0.4747,2141
6,-1.1919,0.7627,-1.0923,-0.312,-0.7934,-1.4071,2133
6,0.2349,0.9397,-0.429,3.5597,-3.9265,-2.2462,2151
6,0.2668,0.0889,0.9131,4.3634,-4.3635,-3.8221,2038
6,0.5073,-0.6792,0.9836,1.9655,-4.3635,-3.7611,2038
6,0.5808,-0.6492,0.0273,-0.2438,-2.4003,-3.6462,1968
6,0.0947,-0.3645,-0.5022,-0.1345,-0.8162,-4.3635,1989
6,-0.1641,-0.2056,-0.4163,1.0319,-0.1473,-4.3635,2036
6,-0.5115,-0.2712,-0.1807,1.645,0.0071,-4.3635,2052
6,-0.8379,-0.3623,-0.1184,1.6524,0.1457,-4.1997,2063
6,-0.7,-0.365,-0.0986,1.6699,0.447,-4.0981,2073
6,-0.5452,-0.3354,0.0107,1.66,0.5128,-4.3189,2066
6,-0.2812,-0.2815,-0.033,1.5986,0.4932,-4.3635,2062
6,-0.0916,-0.2158,-0.1487,1.7391,0.2282,-4.3635,2047
6,-0.1765,-0.2063,-0.2761,2.1188,0.0808,-4.3635,2044
6,-0.2253,-0.3201,-0.2991,2.5312,0.1518,-4.3635,2049
6,-0.3894,-0.3098,-0.1667,2.8923,0.0953,-4.3635,2046
6,-0.335,-0.5195,0.0476,3.4262,-0.225,-4.3635,2065
6,-0.2549,-0.7251,0.2048,3.1363,-0.3615,-4.3635,2074
6,-0.3162,-0.7803,0.1841,2.8019,0.6156,-4.3635,2034
6,-0.3516,-0.8047,0.0525,2.942,1.4837,-4.3635,2034
6,-0.6353,-1.2566,0.1306,3.4139,2.067,-4.3635,2059
6,-0.541,-1.8738,-0.053,4.3277,2.6099,-4.3635,2096
6,1.9999,-2.0,1.9999,0.5008,4.3634,-0.8433,2017
6,-2.0,0.0715,-2.0,4.3634,2.6839,-4.3635,1926
6,-0.6143,-2.0,0.7751,4.3634,-0.8522,-4.3635,2099
6,-0.1904,-2.0,-0.0845,0.7526,0.0606,-4.3635,1972
6,-1.3801,-1.073,-1.5393,4.1302,3.5607,-3.86,2047
6,0.5308,-2.0,1.4187,2.4116,1.5121,-2.8365,2134
6,0.2239,-1.3936,-0.3608,0.0581,-2.4406,-1.4711,1993
6,0.7622,-0.8879,-0.0305,1.0548,-2.4791,-1.1725,2075
6,1.7761,-1.7761,0.2695,0.8886,-0.3633,-1.0271,2202
7,0.8936,-1.4121,0.2561,-0.921,0.0744,0.2041,1906
7,-1.7356,-1.3633,-0.0398,-0.7552,-0.9247,0.9798,1974
7,-1.4426,-1.5588,0.2456,-2.486,-1.6552,1.6322,2107
7,1.9999,-2.0,1.9999,-4.3635,2.5683,4.3634,2228
7,-2.0,0.4629,-2.0,-3.7163,2.3009,3.4575,1724
7,1.4026,0.2861,1.9999,0.0791,-3.2552,1.5592,2175
7,1.9999,-2.0,1.9999,-0.5151,-4.3635,0.2998,2289
7,0.4841,-0.8501,-0.1238,0.9199,1.0409,-0.1338,1915
7,-2.0,-0.4946,0.2537,0.3936,3.0855,2.8044,1863
7,-2.0,-2.0,1.7202,-0.6169,0.0631,3.1397,2101
7,-0.2361,-1.8118,1.7278,-1.7669,-4.3635,2.5927,2183
7,0.1133,-1.5203,0.3062,-2.655,-2.3145,1.6898,2051
7,-2.0,-2.0,-1.0874,-4.3635,3.5262,0.6136,1949
7,-0.4724,0.5542,-1.9043,-2.8533,4.3634,2.1209,2103
7,1.3652,-1.1328,-1.2798,-1.6302,2.5577,2.3204,2071
7,1.1143,-0.4353,-0.4294,-1.816,1.9662,3.2027,2030
7,-0.0288,-0.7793,-1.0991,-2.3334,1.4763,2.9112,1985
7,-0.6106,-0.8215,-1.2988,-0.3036,1.5562,2.7774,2033
7,-0.3494,-0.4893,-0.199,-0.437,-0.1337,2.0434,2078
7,-0.6909,-0.7754,0.6934,0.3117,-0.6608,1.494,2062
7,-0.8708,-1.0784,1.125,-0.0127,0.4694,2.0948,2075
7,-0.9983,-1.3301,0.5999,-1.1393,0.3251,1.8273,2040
7,-0.6069,-1.2578,-0.1631,-1.3485,0.6276,1.523,2069
7,-0.4165,-1.0535,-0.177,-0.9472,0.2731,0.887,2052
7,-0.3162,-0.8652,-0.3738,-0.6191,0.261,0.4618,2058
7,-0.0344,-0.8225,-0.3621,-0.1079,0.3422,0.2093,2054
7,0.1963,-0.9612,-0.1299,-0.0453,0.03,0.0675,1991
7,0.5723,-0.8928,-0.2395,-0.0707,0.0232,0.2151,2040
7,0.678,-0.8169,-0.2983,0.1595,0.5521,0.3464,2072
7,0.2698,-0.9167,-0.1101,0.2846,0.3562,0.3096,2213
7,-0.0889,-1.0657,0.2417,0.4189,-0.5552,0.3852,1998
7,-0.1733,-1.1023,0.3335,0.1876,-0.5464,0.2354,2170
7,0.0737,-1.0251,0.2581,0.0212,-0.2578,0.1582,1950
7,0.1675,-1.0308,0.2698,-0.0533,-0.404,0.2491,2011
7,0.1067,-1.0239,0.1926,-0.0048,-0.5255,0.2001,2117
7,0.167,-1.0615,0.0947,0.0426,-0.6344,0.0185,2019
7,0.0601,-1.1401,0.1475,-0.0392,-0.5038,-0.0567,1968
7,-0.0374,-1.1748,0.0896,-0.3294,0.0487,0.2029,1924
7,0.2361,-1.0776,0.123,-0.4291,0.2017,0.5822,2058
7,0.2034,-1.0762,0.1235,-0.4252,0.1117,0.6594,2184
7,0.0439,-0.9978,0.1257,-0.4615,0.1306,0.651,2026
7,-0.0281,-0.9849,0.1353,-0.4462,0.1511,0.6799,2101
7,-0.0828,-1.0098,0.0901,-0.3936,0.1498,0.6802,2075
7,-0.1562,-1.0332,0.094,-0.3794,0.2398,0.6711,2061
7,-0.0947,-1.04,0.0444,-0.3685,0.2175,0.6882,2230
7,0.0601,-1.0691,0.0081,-0.4069,0.0569,0.7074,2052
7,0.1433,-1.075,0.0269,-0.4057,-0.1438,0.7223,1987
7,0.1897,-1.1545,0.074,-0.4642,-0.1599,0.7727,2036
7,0.293,-1.031,0.1689,-0.5249,-0.1642,0.8633,2007
7,0.3564,-0.9485,0.2473,-0.5568,-0.1282,0.9224,2116
7,0.3928,-0.9871,0.3076,-0.6087,0.0113,1.1292,2053
7,0.5884,-1.1462,0.3682,-0.6952,-0.1662,1.3857,1993
7,0.6694,-1.2214,0.3433,-0.8127,-0.1879,1.5948,2030
7,0.4714,-1.1897,0.4226,-0.9023,-0.2064,1.7463,2218
7,0.2363,-1.2493,0.5017,-1.0088,0.0131,1.8612,2029
7,0.4297,-1.2275,0.4292,-1.0825,0.0563,2.4013,2032
7,0.3982,-1.3306,0.4114,-1.1188,0.4185,2.3489,2048
7,0.3862,-1.4072,0.3032,-1.2388,0.394,2.493,2008
7,0.4055,-1.2878,0.2886,-1.2593,0.3023,2.6164,2054
7,0.366,-1.2776,0.2944,-1.2278,0.0961,2.7858,2105
7,0.3528,-1.4331,0.1719,-1.1746,0.0917,2.8552,2054
7,0.3552,-1.4971,0.3992,-1.0668,0.282,3.1815,2085
7,0.6489,-1.8843,0.5417,-1.0922,0.284,2.8913,2072
7,1.3794,-1.8838,0.5872,-1.2998,-0.1025,3.1415,2083
7,1.3892,-1.7537,0.6523,-1.1853,-0.2449,3.9226,2117
7,1.9807,-2.0,0.6438,-1.22,-1.2334,4.2176,2199
7,1.4041,-1.8933,1.1667,-1.2476,-1.3142,4.3634,2012
7,1.1267,-2.0,0.8267,-1.8771,-1.5744,4.3634,1955
7,0.4338,-1.6899,0.4829,-2.1345,-1.2801,3.9675,1904
7,-0.2441,-1.6978,-0.2769,-2.1519,0.4602,3.1709,1963
7,-0.9565,-2.0,0.0312,-1.7753,1.2997,3.0323,2077
7,-0.0415,-1.6157,-0.0022,-1.2769,0.1507,2.6057,2135
7,-0.4177,-0.8906,-0.0781,-0.6059,1.1433,2.6892,2054
7,-0.4753,-0.2146,0.7695,1.6447,-0.1266,2.8284,2115
7,0.3569,-0.5737,-0.4807,-1.5841,2.5715,0.9531,2253
7,1.9999,-2.0,1.9999,-4.3635,4.3634,4.3634,2162
7,-2.0,1.6306,-2.0,-0.6839,2.5888,0.6958,1604
7,-2.0,-1.9219,-1.4612,-3.1786,2.9528,0.2815,2115
7,-0.9453,0.6785,-1.4761,-0.3701,0.402,-0.6299,2169
7,-0.2944,0.728,-0.9607,1.8869,-1.1564,-1.3969,2152
7,0.8872,0.0535,0.4697,4.3634,-4.3635,-2.8886,2143
7,0.2236,-0.3611,1.3145,3.057,-4.3635,-3.5195,1996
7,0.5635,-0.5608,0.3701,0.5406,-4.3635,-2.9237,1991
7,-0.0125,-0.3262,-0.2961,-0.1827,-2.284,-3.8835,1976
7,-0.1108,-0.1467,-0.4141,0.6565,-0.594,-4.3635,2030
7,-0.3652,-0.1311,-0.2332,1.4982,0.0032,-4.3635,2054
7,-0.6868,-0.2346,-0.1055,1.6897,0.0759,-4.3126,2064
7,-0.7527,-0.3369,-0.0991,1.5877,0.1364,-4.1137,2067
7,-0.7446,-0.3313,-0.0857,1.688,0.2858,-4.1576,2066
7,-0.4805,-0.2673,-0.0454,1.6997,0.3169,-4.3635,2065
7,-0.1978,-0.2012,-0.1609,1.6624,0.3758,-4.3635,2058
7,-0.176,-0.168,-0.2725,1.8692,0.3265,-4.3635,2059
7,-0.2371,-0.2683,-0.3062,2.3703,0.2274,-4.3635,2048
7,-0.355,-0.1619,-0.2356,2.7207,0.2116,-4.3635,2049
7,-0.1829,-0.3142,-0.1531,3.2748,-0.0981,-4.3635,2061
7,-0.1294,-0.5232,0.0493,3.3219,-0.6293,-4.3635,2074
7,-0.1309,-0.6545,0.0376,3.0123,-0.2385,-4.3635,2048
7,-0.1426,-0.7766,0.1191,3.0158,0.7392,-4.3635,2047
7,-0.2546,-0.9067,0.1265,3.0669,1.3414,-4.3635,2038
7,-0.2168,-1.4165,0.0115,3.348,2.316,-4.3635,2068
7,-0.8323,-2.0,-0.5862,4.176,2.7976,-4.3635,2037
7,-2.0,-2.0,1.9999,-4.3635,4.3634,-4.3635,2002
7,1.9999,-1.8926,-2.0,4.3634,-1.831,-4.3635,2256
7,-1.9639,-2.0,0.2761,2.9268,0.1788,-4.3635,1981
7,-1.2485,-0.6941,-1.0378,1.3422,1.778,-4.3635,1977
8,-0.6248,-1.1567,-0.6531,3.7358,3.6777,-4.3635,2068
8,-0.0984,-2.0,0.6074,1.4913,1.0187,-3.0562,2036
8,-0.4807,-1.6165,-0.3328,1.3688,-1.3117,-1.1011,2056
8,0.8579,-0.9504,0.304,-0.2477,-1.5612,-0.5323,2057
8,1.2412,-0.9355,0.2871,0.548,-0.5971,-1.23,2113
8,1.9999,-2.0,0.2734,-1.5086,0.4944,-1.517,2127
8,-0.7126,-2.0,1.7158,-2.1795,-0.866,3.1295,1921
8,-0.146,-2.0,0.8052,-4.3635,-4.3635,4.1687,2056
8,-1.8025,1.9048,-1.2563,-1.4842,-0.3167,3.2475,1995
8,0.0671,-0.2161,1.9999,1.494,-3.8263,1.3155,2138
8,1.9999,-2.0,1.9999,0.6906,-2.7669,-0.712,2412
8,0.7422,-1.0291,0.6633,0.4814,2.9324,1.7303,1776
8,-2.0,-1.7849,1.0552,-2.1835,4.3634,3.2966,1805
8,-2.0,-1.7585,1.9999,-1.0836,-1.99,3.1758,2128
8,0.0967,-2.0,1.3596,-2.8011,-4.3635,2.2679,2207
8,-0.1902,-2.0,-0.7341,-3.9528,-1.0816,1.2344,2021
8,-0.9297,-1.8579,-1.6177,-4.3635,4.3634,2.6718,2038
8,0.1953,1.0029,-1.7021,-1.916,3.3094,2.1957,2031
8,1.9229,-1.002,-1.2827,-1.5523,1.9089,3.3636,2130
8,0.8608,0.1128,-0.8862,-1.8808,1.4744,3.5475,1968
8,-0.1487,-1.1184,-1.9438,-0.9778,1.8527,3.6351,2001
8,0.1753,-0.5293,-0.1438,-0.6585,1.1607,2.6265,2070
8,-0.6619,-0.2891,0.6465,-0.389,-1.0797,1.2396,2065
8,-1.1553,-1.0969,1.031,-0.2852,0.771,2.2162,2086
8,-1.6091,-1.2957,0.4202,-1.036,0.8807,1.925,2067
8,-1.075,-1.4465,-0.2854,-1.0207,0.5842,1.6431,2075
8,-0.6064,-0.7827,0.1069,-0.6075,0.1024,0.6789,2075
8,-0.0601,-0.9189,-0.2117,-0.6305,-0.2293,0.2346,2054
8,-0.0439,-1.0591,-0.3435,-0.3749,-0.0523,0.0597,2020
8,0.1782,-0.8313,-0.1423,-0.1867,0.0599,-0.0539,2040
8,0.7002,-0.6064,-0.2634,0.2109,0.2856,0.138,2112
8,0.7419,-0.6716,-0.3645,0.342,0.3542,-0.0595,2024
8,0.3367,-1.2119,-0.1641,0.554,-0.5219,0.0266,2068
8,-0.1978,-1.4072,0.1594,0.2453,-0.9931,0.2743,2005
8,0.0042,-1.009,0.1821,0.1294,-1.103,0.1699,1973
8,0.019,-1.071,0.3484,-0.0292,-0.6703,0.1895,2082
8,-0.0967,-1.0952,0.2302,-0.2131,-0.4449,0.4352,2227
8,-0.0896,-1.043,0.2021,-0.3445,-0.265,0.2667,2007
8,0.137,-1.0103,0.125,-0.363,0.1662,0.179,2041
8,0.1902,-1.1306,0.0974,-0.3325,0.1004,0.367,2015
8,0.1484,-1.1499,0.1074,-0.3848,0.0233,0.5092,2125
8,0.1536,-1.0684,0.0833,-0.4181,-0.0297,0.5956,2083
8,0.0281,-1.0476,0.1191,-0.4613,-0.0567,0.6251,2031
8,-0.0139,-1.053,0.1062,-0.4924,0.0811,0.6634,1993
8,0.0071,-1.0281,0.1006,-0.5156,0.2132,0.701,2082
8,0.0972,-0.9446,0.1177,-0.4806,0.1689,0.6996,2062
8,0.0935,-0.9312,0.0811,-0.4868,0.0795,0.6636,2179
8,-0.071,-0.9614,0.0542,-0.4468,-0.1051,0.6265,2202
8,-0.1794,-1.0217,0.0112,-0.4121,-0.0804,0.6076,1999
8,-0.2073,-1.0696,0.0027,-0.3667,-0.0783,0.6064,1968
8,-0.1707,-1.061,0.0459,-0.3779,0.0178,0.6062,2026
8,0.0371,-1.1077,0.0535,-0.404,0.1248,0.6329,2025
8,0.2896,-1.0417,0.1658,-0.4799,0.137,0.7227,2197
8,0.2991,-0.9827,0.1912,-0.5163,0.2314,0.7967,2100
8,0.4248,-1.0269,0.2327,-0.5516,0.1007,0.9511,2012
8,0.6106,-1.1443,0.2786,-0.6578,-0.0101,1.1609,2024
8,0.5881,-1.1804,0.2854,-0.7239,-0.1056,1.3043,1938
8,0.5237,-1.2471,0.3054,-0.8238,-0.1553,1.4484,2142
8,0.5955,-1.1926,0.3391,-0.9292,-0.1967,1.7503,2031
8,0.1907,-1.1738,0.4111,-0.9367,0.0127,1.9154,1987
8,0.2593,-1.3352,0.3149,-1.0856,0.4434,2.0993,1965
8,0.5156,-1.2998,0.3081,-1.144,0.4297,2.2471,2059
8,0.4272,-1.2546,0.2251,-1.1488,0.181,2.3682,2062
8,0.3628,-1.2859,0.2168,-1.1925,0.1009,2.4872,2034
8,0.3323,-1.3137,0.231,-1.1997,0.0158,2.5012,2053
8,0.3376,-1.3623,0.1631,-1.1706,-0.0292,2.6695,2062
8,0.3572,-1.4517,0.3674,-1.0437,0.0108,2.751,2109
8,0.5605,-1.8132,0.4131,-1.1271,-0.0766,2.5265,2055
8,1.0068,-1.6316,0.4392,-1.2511,-0.1567,2.8239,2052
8,1.335,-1.7239,0.5596,-1.2605,-0.1586,3.4643,2169
8,1.9404,-1.959,0.6372,-1.4276,-1.5213,3.7022,2074
8,1.4666,-1.6379,1.1179,-1.4037,-1.7571,4.2548,2280
8,1.3289,-2.0,0.9465,-2.0774,-2.2072,4.3634,1981
8,0.4033,-1.6873,0.7463,-2.0318,-1.9857,4.1987,1825
8,-0.0779,-1.8132,0.0977,-2.2992,-0.5228,3.3501,1977
8,-0.9871,-1.8083,0.0239,-2.051,0.8359,3.3524,2049
8,-0.0469,-1.7473,-0.0625,-1.5628,-0.7316,2.0583,2125
8,-0.2183,-0.9539,-0.189,-1.0602,0.2506,2.926,2083
8,-0.5532,-0.8521,0.0176,-0.1746,0.6369,2.2879,2073
8,0.0393,-0.6299,0.6304,0.9119,-0.4938,1.8932,2164
8,-0.2087,-0.3489,-0.5029,-2.0719,2.2027,0.9068,2134
8,-2.0,0.6873,-2.0,-1.5942,2.8572,2.8042,1767
8,-0.8804,-0.0964,-2.0,-2.5904,1.0606,1.1107,2014
8,-1.78,-0.5818,-1.6396,-1.1533,0.0607,-0.2571,2148
8,-1.7437,0.5364,-1.1577,-1.0477,-0.0937,-1.462,2168
8,-0.4529,0.8286,-0.7239,1.8177,-2.0916,-1.4563,2146
8,0.4382,0.1184,0.3652,4.3634,-4.3635,-2.763,2126
8,0.0474,-0.4399,1.0781,3.1496,-4.3635,-3.5969,1988
8,0.3193,-0.5085,0.2717,0.165,-3.4075,-3.7918,2013
8,0.2263,-0.3328,-0.3992,-0.5078,-1.5838,-4.2563,1994
8,0.0459,-0.1316,-0.5225,0.469,-0.0567,-4.3635,2010
8,-0.1846,-0.1086,-0.304,1.5776,0.5376,-4.3635,2039
8,-0.6702,-0.2644,-0.1414,1.9409,0.4626,-4.267,2054
8,-0.7781,-0.4116,-0.0898,1.8118,0.4472,-4.1395,2068
8,-0.7026,-0.3845,0.0469,1.6732,0.683,-4.1812,2072
8,-0.4573,-0.2891,0.0874,1.6302,0.6229,-4.3635,2071
8,-0.1489,-0.2358,-0.0259,1.7109,0.54,-4.3635,2059
8,-0.1836,-0.2014,-0.1558,1.8502,0.4706,-4.3635,2038
8,-0.1792,-0.2576,-0.229,2.2328,0.3579,-4.3635,2048
8,-0.3003,-0.2891,-0.1841,2.5562,0.5426,-4.3635,2052
8,-0.3857,-0.344,-0.0896,2.9051,0.5624,-4.3635,2051
8,-0.2722,-0.5405,0.1084,3.2045,0.282,-4.3635,2124
9,-0.1641,-0.6626,0.1816,2.8658,0.2752,-4.3635,2051
9,-0.1155,-0.7864,0.1108,2.8328,1.0322,-4.3635,2020
9,-0.2119,-0.8672,-0.0227,3.0778,1.7082,-4.3635,2025
9,-0.4246,-1.5,-0.0676,3.3491,2.3607,-4.3635,2054
9,-0.3228,-2.0,-0.3982,4.0929,2.9839,-4.3635,2064
9,1.9999,-2.0,1.6057,2.2929,4.253,-2.0513,2033
9,-0.2998,1.1318,-2.0,4.3634,-3.9054,-3.1268,1937
9,1.5625,-2.0,0.3225,4.3634,-0.4533,-4.3635,2258
9,-0.988,-2.0,-0.2659,1.9959,-1.4958,-4.222,1805
9,-0.3721,-1.4304,-0.926,3.0142,1.5428,-2.8324,2007
9,1.3516,-1.4412,0.7217,2.4373,-1.4713,-3.3342,2129
9,-0.4851,-1.6216,-0.0105,0.0445,-3.3634,-1.5593,1979
9,-0.1467,-1.0969,-0.1533,0.8677,-2.6665,-1.4669,2052
9,1.2852,-1.5464,-0.0422,0.348,-0.3325,-0.9389,2113
9,0.2727,-1.3105,0.5671,-0.3919,0.2033,-0.128,2223
9,-1.0803,-1.387,0.3347,-1.0122,-0.0671,0.7706,1972
9,-0.9846,-1.6345,0.2761,-1.9683,-0.7004,0.7257,2028
9,1.3491,-2.0,1.8306,-3.73,2.6041,4.0917,2101
9,-2.0,1.616,-1.9395,-0.9827,1.3278,3.2155,2225
9,0.021,0.896,-0.2537,-2.4304,1.7912,3.5446,1998
9,1.9999,-0.541,1.9999,0.6612,-3.3525,1.2677,2222
9,1.9999,-2.0,0.4192,0.1354,-2.2858,-1.2941,2101
9,-1.0359,-0.5986,0.3547,-0.5352,3.2717,0.249,1640
9,-2.0,-0.9478,0.1506,0.2968,4.3634,2.8474,1991
9,-1.1326,-2.0,1.8506,-0.9764,0.3195,2.428,2161
9,0.8247,-1.6138,1.4478,-2.3796,-4.1848,2.231,2105
9,0.199,-1.1604,0.3818,-2.4786,-2.3206,1.6847,1982
9,-0.6318,-2.0,-0.7468,-3.7647,-0.0407,1.5318,2032
9,-0.5823,-1.2954,-1.6167,-4.3377,4.3634,2.3277,2073
9,0.2339,1.1438,-1.4458,-1.0986,3.2292,1.8058,2006
9,0.9524,-1.623,-1.0623,-1.2492,2.0981,2.3467,2121
9,0.2483,-0.0017,-0.5601,-2.1513,2.2273,2.5907,2005
9,-0.0469,-1.3293,-1.3037,-1.1877,0.5078,2.8022,2081
9,-0.0955,-0.9438,-0.5459,-0.3318,0.5512,2.4711,2100
9,-0.6104,-0.4922,0.325,0.3112,0.0788,1.4639,2027
9,-0.8298,-1.145,1.0046,0.4552,-0.6203,1.3021,2051
9,-0.7654,-1.2024,0.8757,-0.6152,0.0874,1.695,2097
9,-0.7903,-1.0474,0.1792,-1.1515,0.5024,1.6884,2049
9,-0.645,-1.2371,0.0122,-1.3358,0.5488,1.2001,2057
9,-0.4321,-0.9395,-0.2449,-0.8598,0.5637,0.5402,2060
9,-0.1226,-0.8933,-0.2522,-0.4639,0.2964,0.2481,2039
9,0.1941,-0.95,-0.2688,-0.1248,-0.0802,-0.0084,2065
9,0.3831,-0.9651,-0.2744,0.0923,-0.1028,-0.0185,2057
9,0.3772,-0.9106,-0.1863,0.0274,0.1511,0.071,2032
9,0.5244,-0.9495,-0.1052,-0.1005,0.2163,0.225,2068
9,0.3718,-0.8218,-0.1636,0.2755,0.1654,0.2286,1972
9,0.0852,-0.9351,0.0481,0.3951,-0.1077,0.2421,2113
9,-0.4109,-1.2563,0.3552,0.1461,-0.604,0.1372,2032
9,-0.0962,-1.0229,0.2913,0.033,-0.6691,-0.0226,2056
9,0.1587,-1.0293,0.2419,0.0357,-0.2598,0.0831,2147
9,0.0791,-1.0667,0.2068,-0.0811,-0.2493,0.0964,1914
9,0.0791,-1.0327,0.0635,-0.0656,-0.4958,0.0373,2029
9,0.1707,-1.0627,0.0803,-0.1357,-0.4039,-0.1027,2026
9,0.3438,-1.3459,0.1873,-0.4072,-0.4341,0.41,2068
9,0.144,-0.9763,0.0532,-0.3974,-0.3017,0.2466,2088
9,0.2036,-0.9507,0.0813,-0.3401,-0.2972,0.3241,2052
9,0.2173,-1.0364,0.2156,-0.4139,-0.2895,0.449,2072
9,0.179,-1.0513,0.1697,-0.5104,-0.2557,0.614,2066
9,0.1287,-0.9304,0.1619,-0.4754,-0.063,0.559,2034
9,0.0547,-0.9863,0.1306,-0.4546,0.1489,0.6529,2001
9,-0.0625,-1.0254,0.0251,-0.4714,0.2342,0.6509,1887
9,0.0642,-1.0918,0.0095,-0.4866,0.1202,0.6745,1895
9,0.1033,-1.1367,0.0027,-0.4421,-0.1519,0.6331,2039
9,0.1235,-1.1582,0.0654,-0.4962,-0.2971,0.7488,2185
9,0.3279,-1.0208,0.2415,-0.6027,-0.1701,0.9228,1966
9,0.4177,-0.9153,0.2683,-0.7094,-0.065,0.9981,2036
9,0.5657,-0.9519,0.3127,-0.694,-0.1167,1.0544,2299
9,0.5447,-1.1648,0.2859,-0.8291,-0.2208,1.234,1959
9,0.4805,-1.175,0.2554,-0.9488,-0.244,1.3609,2001
9,0.4673,-1.1292,0.2769,-1.0075,-0.4758,1.7606,2076
9,0.3628,-1.1653,0.3335,-1.022,-0.3324,1.784,2070
9,0.2129,-1.0679,0.3298,-1.0544,-0.0953,2.2694,2005
9,0.2334,-1.2927,0.3345,-1.093,0.0997,2.1664,2040
9,0.1902,-1.4009,0.2744,-1.2236,0.5014,2.1921,2030
9,0.4297,-1.2698,0.1736,-1.2402,0.2645,2.3085,2023
9,0.3843,-1.2681,0.2168,-1.2199,0.0726,2.4092,2041
9,0.082,-1.3074,0.2014,-1.1816,0.0305,2.5409,2030
9,0.0615,-1.407,0.2388,-1.1553,0.2095,2.5875,2078
9,0.3052,-1.4709,0.2288,-1.1109,0.3191,2.5779,2078
9,0.6458,-1.5503,0.238,-1.1191,0.2151,2.7811,2100
9,0.7815,-1.7366,0.4712,-1.2046,0.079,2.4452,2048
9,0.8289,-1.4214,0.5308,-1.2616,-0.5461,3.1247,2037
9,1.1526,-1.6592,0.5022,-1.125,-0.2951,3.3891,2205
9,1.8955,-2.0,0.6499,-1.2781,-0.9013,3.6908,2292
9,1.4558,-1.7837,1.0542,-1.326,-1.5862,4.3124,1956
9,1.1821,-1.937,0.668,-2.1082,-2.1569,4.3634,1868
9,0.3635,-1.5496,0.615,-1.9676,-1.3948,3.6456,1899
9,-0.2793,-1.7903,-0.2476,-2.2356,-0.1241,2.983,1977
9,-0.8398,-2.0,-0.0344,-1.7004,0.5323,2.9714,2085
9,0.0962,-1.7512,-0.0725,-1.3335,-0.8596,2.5778,2119
9,-0.3486,-0.8669,-0.0872,-0.8781,0.1551,2.7974,2051
9,-0.4963,-0.4307,0.6099,0.5188,-0.1228,2.542,2098
9,0.1201,-0.542,0.2468,-0.5525,1.0391,1.2902,2190
9,1.9999,-2.0,1.9999,-4.3635,4.3634,4.3634,1964
9,-2.0,1.9999,-2.0,0.4149,1.9848,3.8543,1818
9,-2.0,-1.8174,-1.5308,-3.8878,2.1623,1.027,2120
9,-1.0623,0.2744,-1.5183,-0.8552,-0.728,-0.3579,2169
9,-1.1807,0.8372,-1.176,0.3465,-0.6111,-1.0102,2140
9,0.4883,0.5728,-0.1631,4.3634,-4.3635,-2.4987,2159
9,0.2634,-0.1331,1.0652,4.3634,-4.3635,-3.2985,2068
9,0.4136,-0.4875,0.7908,0.9633,-4.3635,-3.5589,2024
10,0.2864,-0.5222,-0.0098,-0.4561,-2.9797,-3.6623,1975
10,-0.1008,-0.3013,-0.2944,-0.0704,-1.2371,-4.3635,1997
10,-0.1462,-0.188,-0.2002,1.0001,-0.5031,-4.3635,2031
10,-0.4216,-0.2454,-0.0352,1.4854,-0.2149,-4.3169,2030
10,-0.7673,-0.3835,0.0249,1.3746,-0.0462,-4.1745,2046
10,-0.8142,-0.4238,0.0452,1.3063,0.3263,-4.1434,2082
10,-0.6877,-0.396,0.0923,1.3388,0.4914,-4.2742,2077
10,-0.4307,-0.3408,0.061,1.3687,0.3765,-4.3635,2069
10,-0.1765,-0.2966,-0.0515,1.4511,0.2044,-4.3635,2065
10,-0.2263,-0.272,-0.1631,1.7548,0.073,-4.3635,2044
10,-0.262,-0.3965,-0.1602,2.1959,0.2213,-4.3635,2051
10,-0.3518,-0.3398,-0.0923,2.4155,0.2914,-4.3635,2049
10,-0.1997,-0.4692,0.0156,2.8243,-0.032,-4.3635,2067
10,-0.2104,-0.5667,0.1357,2.8195,-0.1491,-4.3635,2069
10,-0.1555,-0.7024,0.082,2.7606,0.334,-4.3635,2048
10,-0.155,-0.8098,0.1223,2.7279,1.3246,-4.3635,2034
10,-0.3059,-0.9004,-0.0664,2.8594,2.2394,-4.3635,2041
10,-0.1538,-1.4172,-0.2061,3.5219,3.1862,-4.3635,2075
10,0.0061,-2.0,-0.4985,4.0234,2.5264,-4.3635,2095
10,-2.0,-2.0,1.9999,-4.3635,4.3634,-1.691,2058
10,1.1724,-2.0,-2.0,4.3634,-0.8312,-4.3635,2156
10,-1.0193,-2.0,-0.1389,3.3222,-1.5482,-4.3635,1991
10,-0.1462,-1.9653,0.2153,2.3908,0.0421,-4.1098,1970
10,-1.8059,-1.4895,-0.4868,2.6169,2.9826,-3.2276,2035
10,-0.2812,-1.8276,0.6035,1.4669,0.0373,-2.4293,2044
10,-0.3711,-1.9639,-0.7788,0.3361,-0.6545,-1.1204,2064
10,0.5454,-0.9414,-0.2012,0.4394,-2.0327,-0.8236,2077
10,1.7419,-1.3374,0.3401,0.2321,-0.5151,-0.6432,2036
10,0.7529,-2.0,1.4915,-3.0636,0.3405,-0.6147,2180
10,-1.114,-2.0,0.5076,-3.6042,0.6802,3.3391,1985
10,-1.668,-2.0,-1.248,-2.6992,-0.6751,2.4071,2103
10,-0.1396,1.4099,0.1392,-1.165,-1.294,2.5701,2017
10,0.7158,-1.0486,1.6272,-0.0218,-3.5808,1.1947,2101
10,1.9999,-1.8972,0.7883,1.449,-2.851,-0.7281,2314
10,0.9866,-1.104,0.4304,-0.0656,3.6697,1.7765,1886
10,-2.0,-1.5691,1.3057,-1.454,4.3634,3.069,1835
10,-2.0,-1.5864,1.9695,-0.8722,-2.4385,2.8312,2107
10,-0.1965,-1.7783,1.1675,-2.3553,-4.1928,2.0005,2169
10,-1.5547,-2.0,-0.302,-3.6003,-0.5588,0.1988,2025
10,-1.1021,-1.8513,-1.2959,-4.3169,4.3634,2.3724,2037
10,1.2397,-0.3142,-1.6062,-2.5698,2.7991,2.149,2080
10,1.896,-0.832,-1.0388,-1.7868,1.8998,3.7371,2069
10,0.4304,-0.3765,-1.0151,-2.2148,1.4291,3.2404,1961
10,-0.6594,-0.3696,-1.8579,-0.2468,2.8364,2.6223,1964
10,0.1094,-0.4839,-0.2756,-0.4417,-0.3922,2.1961,2084
10,-0.6597,-0.7419,0.5042,-0.2563,-1.1728,1.1726,2079
10,-1.0447,-1.0225,1.0408,-0.1386,0.5393,1.8339,2069
10,-1.1951,-1.0554,0.6755,-0.554,0.6999,1.8732,2065
10,-0.6436,-1.5103,-0.0945,-1.2652,0.391,1.7993,2108
10,-0.3171,-1.1948,-0.0999,-0.9714,0.1819,0.9669,2069
10,-0.1714,-0.9651,-0.1946,-0.755,-0.1133,0.477,2063
10,-0.2102,-0.8464,-0.2754,-0.3767,0.1417,0.2452,2003
10,-0.0425,-0.7844,-0.1472,-0.0973,0.0558,0.1393,2034
10,0.281,-0.8669,-0.1841,-0.0567,-0.0403,0.1133,2071
10,0.5664,-0.8181,-0.27,0.1432,0.3702,0.2922,2075
10,0.427,-1.0107,-0.2239,0.2079,0.5847,0.4151,2057
10,0.1428,-1.1499,-0.0151,0.2621,-0.0313,0.3522,1922
10,-0.1809,-1.0334,0.3328,0.1712,-0.5004,0.1764,2008
10,-0.0396,-1.0601,0.3164,-0.0092,-0.2557,0.2389,2072
10,0.012,-1.0178,0.26,-0.1015,-0.1593,0.1325,1994
10,0.0955,-0.9995,0.156,-0.0842,-0.5056,0.1393,2008
10,0.2449,-1.0232,0.1155,-0.0565,-0.7734,0.0538,2103
10,0.2053,-1.0688,0.0901,-0.029,-0.7935,-0.1135,2108
10,0.052,-1.2783,0.179,-0.3271,-0.5743,0.1337,2112
10,-0.0525,-1.0706,0.0667,-0.446,-0.1087,0.2547,2012
10,0.1843,-1.0237,0.1516,-0.5577,0.2517,0.4874,2025
10,0.2021,-1.0437,0.0955,-0.5675,0.2322,0.6433,1969
10,0.1575,-0.9851,0.1477,-0.5753,0.2754,0.6497,2140
10,0.0625,-0.9746,0.0969,-0.5104,0.2796,0.7126,2056
10,-0.019,-0.9785,0.1152,-0.4734,0.2689,0.6948,2148
10,-0.0474,-0.9961,0.105,-0.5189,0.3312,0.7083,2147
10,-0.043,-1.0256,0.0347,-0.5237,0.1824,0.7018,2068
10,-0.0132,-1.0596,-0.0391,-0.4967,0.0346,0.699,2055
10,-0.0215,-1.0574,-0.0337,-0.507,-0.09,0.6616,2217
10,0.0229,-1.0393,0.0044,-0.4922,-0.0634,0.7219,2092
10,0.1636,-1.116,0.0798,-0.5544,-0.0831,0.8585,1920
10,0.3325,-1.0334,0.1934,-0.651,-0.0097,0.8533,2025
10,0.3218,-1.0278,0.1772,-0.6377,-0.1637,0.9808,2081
10,0.2773,-1.095,0.2554,-0.648,-0.0724,1.1701,1897
10,0.4038,-1.1846,0.2302,-0.7562,0.0388,1.3757,1918
10,0.5833,-1.2166,0.3086,-0.8054,-0.1795,1.5078,2015
10,0.5859,-1.1538,0.3535,-0.8669,-0.3476,1.8574,1973
10,0.187,-1.2664,0.4316,-0.8819,-0.1205,1.8502,2032
10,0.0337,-1.3215,0.3479,-1.03,0.4088,2.0683,2054
10,0.605,-1.2771,0.3284,-1.0641,0.4866,2.3181,2043
10,0.7083,-1.3103,0.3101,-1.0942,0.2107,2.4192,2051
10,0.3398,-1.2993,0.2922,-1.1669,0.1129,2.5685,2029
10,0.3521,-1.3176,0.2817,-1.2488,0.1177,2.7565,2021
10,0.4744,-1.3347,0.2808,-1.2583,0.1069,2.7714,2070
10,0.5105,-1.4497,0.4409,-1.2356,-0.1338,2.8356,2080
10,0.4944,-1.5688,0.2866,-1.103,-0.1274,3.1552,2022
10,0.8152,-1.8801,0.439,-1.2014,-0.0083,3.1696,2079
10,1.311,-1.9524,0.5588,-1.2155,-0.5883,3.0596,2100
10,1.7881,-2.0,0.6963,-1.3821,-0.6955,3.972,2140
10,1.7478,-1.7922,1.0508,-1.5813,-2.1499,4.2521,1960
10,1.1943,-1.6528,1.022,-2.2083,-1.8269,4.3634,1870
10,0.3777,-1.5571,0.5383,-2.0831,-2.4674,4.3634,1932
10,-0.2124,-1.7312,0.1711,-2.1541,-0.6799,2.8735,2017
10,-0.6453,-1.7424,0.0266,-1.6739,0.4679,3.1542,2079
10,-0.3369,-1.9949,-0.0107,-1.6792,-0.4135,2.0505,2108
10,-0.0442,-1.0315,-0.158,-0.9075,-0.065,2.7658,2069
10,-0.7642,-0.699,-0.2031,-0.4157,1.1786,2.2559,2038
10,-0.1306,-0.6052,0.7141,0.9271,-0.3699,1.7542,2203
10,-0.3735,-0.323,-0.9724,-1.5378,2.5574,0.7821,2100
11,-2.0,0.8601,-2.0,-2.4123,1.4335,2.7141,1877
11,-0.2173,0.2031,-2.0,-2.1355,0.7664,0.8257,2005
11,-1.7314,-0.5376,-1.6902,-0.9544,-0.3322,-0.4151,2155
11,-1.8254,0.1982,-1.1553,-0.9934,-0.1389,-1.823,2128
11,-0.6497,0.9595,-0.8149,2.1225,-1.5695,-1.8913,2150
11,0.5879,0.0811,0.304,4.3634,-4.3635,-3.0572,2108
11,0.0913,-0.4883,1.2493,3.4146,-4.3635,-4.1542,2021
11,0.561,-0.5288,0.3616,0.345,-3.5651,-3.9291,1991
11,0.2437,-0.407,-0.3616,-0.2478,-1.7867,-4.3635,1972
11,0.03,-0.1931,-0.4473,0.804,-0.4248,-4.3635,2001
11,-0.207,-0.1455,-0.2539,1.7198,0.1944,-4.3635,2037
11,-0.6931,-0.3669,-0.1938,1.951,0.5809,-4.3635,2058
11,-0.7727,-0.5356,-0.0437,1.7124,0.7244,-4.2273,2069
11,-0.7197,-0.5356,0.0474,1.6153,0.8007,-4.253,2072
11,-0.561,-0.4124,0.0261,1.5753,0.6673,-4.3635,2064
11,-0.2678,-0.2925,-0.0981,1.49,0.5365,-4.3635,2057
11,-0.1716,-0.1313,-0.3423,1.6395,0.7408,-4.3635,2045
11,-0.3904,-0.186,-0.3245,2.4302,0.893,-4.3635,2004
11,-0.24,-0.2034,-0.1133,2.9846,0.8022,-4.3635,2067
11,-0.093,-0.5459,0.1079,3.3282,0.475,-4.3635,2084
11,-0.1052,-0.6445,0.1433,2.9815,0.0957,-4.3635,2051
11,0.0244,-0.7649,0.0046,2.7717,0.9501,-4.3635,2029
11,0.0037,-0.8999,-0.1313,3.3523,1.6693,-4.3635,2047
11,-0.437,-1.6714,0.0662,3.6296,1.8209,-4.3635,2052
11,-0.292,-1.9714,-0.4243,4.099,2.0533,-4.3635,2102
11,-0.1411,-2.0,-1.1643,3.952,2.74,-4.3635,1958
11,0.3711,1.9999,-1.7996,4.3634,-4.3635,-3.3162,1924
11,1.6814,-1.4746,-1.136,4.3634,-1.1746,-4.3635,2294
11,-0.4221,-2.0,-0.2266,2.0744,-0.5683,-4.0378,1959
11,-0.4158,-1.0896,-0.9529,2.1553,0.2567,-3.1075,1979
11,0.6758,-1.0769,-0.1838,2.9048,-0.9967,-2.9312,2052
11,-0.6877,-1.8279,0.5491,0.3023,-2.3434,-2.2458,1966
11,-0.6313,-1.4197,-0.2305,0.8219,-1.5668,-1.9506,2118
11,1.5286,-1.2104,-0.4011,0.702,0.2131,-1.5439,2114
11,0.4595,-1.4663,0.5229,-0.0812,-0.2678,-0.4548,1970
11,-0.8699,-1.4116,0.2236,-0.6411,-1.146,0.3366,2056
11,-1.2588,-1.5671,0.0422,-1.5568,-0.1398,1.1463,2074
11,0.4731,-2.0,1.5601,-4.3635,0.7536,3.4199,2010
11,-1.0908,-2.0,-0.3384,-4.3635,0.8602,4.3634,2139
11,-2.0,-1.0205,0.0083,-3.6332,3.2314,3.421,1934
11,1.1243,1.2556,1.9999,0.451,-3.7764,2.3123,2120
11,1.9999,-2.0,1.3853,0.4119,-2.6061,-2.2776,2264
11,-0.0933,-1.0693,0.5808,-0.0577,1.7,-0.1024,1961
11,-2.0,-0.3047,0.2483,-0.0625,3.079,2.4882,1901
11,-2.0,-2.0,1.137,-0.1703,4.3049,3.2947,2049
11,0.4834,-2.0,1.9999,-2.3918,-3.0485,2.5216,2158
11,0.4402,-1.3215,0.679,-3.0602,-2.477,2.0764,2034
11,-0.8843,-2.0,-0.8352,-4.0843,0.2621,1.3138,2009
11,-0.5974,-0.8616,-1.8218,-4.0431,4.3634,2.3719,2084
11,1.0171,-0.2185,-1.6409,-1.9134,2.7627,2.1864,2041
11,0.7117,-0.5288,-1.2397,-1.5568,2.6879,2.9525,2032
11,0.1462,0.2351,-0.7173,-1.7715,1.4609,1.4749,1992
11,-0.0383,-1.582,-1.4285,-0.8499,1.6673,2.8339,2073
11,0.1436,-0.5244,-0.6743,-0.2618,0.7873,2.1234,2074
11,-0.5127,-0.6375,0.051,0.8215,-0.1661,1.0922,2039
11,-0.9045,-1.386,0.8347,0.1341,0.0543,1.7334,2073
11,-0.8894,-0.9116,0.6768,-0.0635,-0.3268,1.594,2065
11,-0.8115,-1.1509,0.3833,-0.4494,0.4113,1.7042,2033
11,-0.7148,-1.3037,0.3198,-1.2304,0.3388,1.1545,2040
11,-0.6995,-1.0254,-0.2122,-1.125,0.3818,0.4844,2050
11,-0.2175,-0.8596,-0.3279,-0.5215,0.4284,0.1904,2063
11,0.1599,-0.9866,-0.2632,-0.1884,-0.0075,0.0148,2065
11,0.3513,-0.9233,-0.2903,0.0354,-0.104,-0.1043,2058
11,0.5205,-0.9297,-0.2163,0.0886,0.2161,-0.0469,2031
11,0.5747,-0.978,-0.1633,0.0924,0.1092,0.1017,2043
11,0.2468,-0.8093,-0.2144,0.2794,0.1009,-0.0601,1914
11,0.2805,-0.938,0.0369,0.4709,-0.0664,0.0734,2063
11,-0.219,-1.0977,0.3267,0.267,-0.4789,-0.0124,2039
11,-0.2617,-0.9985,0.396,0.0991,-0.8083,-0.0394,2028
11,-0.1455,-1.0566,0.2766,0.0847,-0.2996,-0.1393,2124
11,-0.0144,-1.1072,0.1655,0.0201,0.1085,-0.0819,2082
11,0.2366,-1.0894,0.1367,-0.0822,-0.0204,-0.0364,2063
11,0.2637,-1.2524,0.0757,-0.1967,-0.344,0.0001,2012
11,0.1938,-1.1296,0.1089,-0.3566,-0.2742,0.2358,1981
11,0.2952,-0.9492,0.1414,-0.3843,-0.2188,0.2615,1970
11,0.3184,-0.9053,0.1675,-0.435,-0.1304,0.3871,2190
11,0.2761,-1.0776,0.1782,-0.4958,-0.2871,0.5116,2040
11,0.394,-0.9739,0.2761,-0.5654,-0.288,0.6902,2048
11,0.3953,-0.8721,0.1973,-0.4167,-0.4171,0.6199,2017
11,0.135,-1.0669,0.1741,-0.5271,-0.2211,0.8525,1906
11,0.0557,-1.0125,0.1284,-0.6188,-0.1703,0.8172,1999
11,0.1802,-1.0728,0.0591,-0.6107,-0.1594,0.9407,1979
11,0.1699,-1.1228,0.0869,-0.6897,-0.1891,0.9443,1997
11,0.3135,-1.0366,0.1538,-0.7143,-0.0759,1.0997,2037
11,0.3774,-0.9731,0.198,-0.7906,-0.0166,1.191,2010
11,0.4941,-0.9553,0.2258,-0.8569,0.0513,1.2479,2145
11,0.4426,-1.0959,0.1765,-0.97,-0.0213,1.3555,2034
11,0.4917,-1.1414,0.1736,-1.1148,-0.193,1.6033,2069
11,0.6199,-1.2205,0.1453,-1.1023,-0.4821,1.8305,1994
11,0.4004,-1.0554,0.3113,-1.0921,-0.6794,2.2485,1954
11,0.0198,-1.1484,0.2322,-1.0957,-0.3087,2.2431,2060
11,0.019,-1.3364,0.2788,-1.1861,0.3406,2.3613,2069
11,0.5515,-1.4033,0.2556,-1.1748,0.193,2.372,2009
11,0.5652,-1.4106,0.2649,-1.236,-0.1693,2.3605,2015
11,0.1875,-1.3066,0.2429,-1.2171,-0.21,2.592,2040
11,0.0706,-1.3552,0.3403,-1.2109,0.0338,2.6955,2060
11,0.3206,-1.4988,0.3086,-1.1656,0.2302,2.7726,2076
11,0.6104,-1.592,0.3542,-1.1713,0.2448,2.8958,2086
11,0.8186,-1.6692,0.5935,-1.2308,0.114,3.004,2077
11,0.9563,-1.8491,0.5781,-1.2553,-0.2802,3.0079,2104
11,1.1831,-1.9705,0.5403,-1.2226,-0.5888,3.2841,2034
12,1.7427,-1.8604,0.8115,-1.0294,-0.9897,4.045,2162
12,1.6826,-2.0,1.1365,-1.3748,-0.9626,4.2708,2120
12,1.21,-1.937,0.804,-2.4675,-1.8013,4.3634,1671
12,0.647,-1.3438,0.6267,-1.7158,-2.7564,4.3634,1947
12,-0.0352,-1.5957,-0.0549,-2.094,-0.8103,2.7987,1986
12,-1.0232,-2.0,-0.1177,-1.8638,0.2844,2.7112,2042
12,-0.3782,-1.7727,0.062,-1.156,-0.4855,2.243,2132
12,-0.2097,-1.2222,-0.0728,-1.1569,0.3224,2.6015,2114
12,-0.3542,-0.3811,0.7334,0.5586,-1.0046,2.439,2071
12,0.2244,-0.3975,0.2126,-0.6672,0.457,1.2627,2183
12,1.9999,-1.2974,-0.4492,-4.3635,4.3634,4.3634,1895
12,-2.0,1.9999,-2.0,0.7533,1.1995,4.2033,1780
12,-2.0,-1.4626,-1.3262,-3.8225,2.9504,0.8592,2121
12,-1.0388,0.4246,-1.4924,-0.8131,-0.9499,-0.9058,2144
12,-1.3596,0.7866,-1.179,0.5191,-0.861,-1.6402,2143
12,0.7458,0.561,-0.0315,4.3634,-4.3635,-3.1475,2162
12,0.2146,-0.3491,1.699,4.2731,-4.3635,-3.5063,2052
12,0.2996,-0.6328,0.8381,0.1394,-4.3635,-3.8412,2019
12,0.0452,-0.4304,-0.113,-0.9784,-2.9219,-3.9375,1973
12,-0.3396,-0.1814,-0.2695,-0.1192,-0.8046,-4.3635,1966
12,-0.2979,-0.1523,-0.0732,1.1591,-0.1498,-4.3635,2052
12,-0.5227,-0.2878,0.1431,1.6076,-0.126,-4.3635,2058
12,-0.7744,-0.3923,0.1577,1.4801,-0.0874,-4.3076,2074
12,-0.8311,-0.3948,0.1655,1.3496,0.1815,-4.2566,2064
12,-0.6829,-0.28,0.196,1.4155,0.4247,-4.3635,2062
12,-0.406,-0.1992,0.1816,1.4536,0.5207,-4.3635,2061
12,-0.2412,-0.166,0.0312,1.6044,0.3948,-4.3635,2053
12,-0.1399,-0.2412,-0.0466,2.0839,0.2554,-4.3635,2052
12,-0.4138,-0.1567,-0.0217,2.3625,0.3872,-4.3635,2044
12,-0.4441,-0.3093,0.0518,2.8854,0.4167,-4.3635,2053
12,-0.2695,-0.4766,0.2258,3.1243,0.3963,-4.3635,2080
12,-0.1472,-0.7163,0.189,2.9588,0.704,-4.3635,2100
12,-0.1929,-0.7927,0.0376,2.9432,1.5824,-4.3635,2022
12,-0.3293,-0.8311,-0.0164,2.9843,2.5626,-4.3635,2020
12,-0.4734,-1.2673,0.0342,3.4955,3.1499,-4.3635,2067
12,-0.0095,-1.6875,0.0195,4.3634,3.1203,-4.3635,2114
12,-0.1743,-2.0,-1.2542,4.3634,3.0068,-4.3635,1984
12,-0.844,1.9999,-2.0,4.3634,-0.1289,-3.5766,1943
12,1.991,-2.0,0.1785,4.3634,0.5505,-4.3635,2107
12,0.2725,-2.0,-0.2842,2.8518,-2.2276,-3.7427,1946
12,-0.9368,-1.7971,-1.4954,2.261,1.7721,-2.0817,2009
12,1.4495,-2.0,0.6821,1.9795,0.3583,-2.8578,2137
12,0.0227,-1.1902,0.1873,0.2188,-3.9363,-1.6767,1949
12,-0.0444,-0.9092,0.0361,0.5417,-3.128,-1.2327,2071
12,0.6353,-1.7761,-0.1733,0.227,-1.635,-1.0156,2076
12,-0.8428,-1.2737,-0.0046,-0.3777,0.0659,0.1622,2020
12,-1.4651,-1.4668,-0.1707,-0.961,1.3933,0.8325,2052
12,-0.4961,-1.5759,0.2065,-2.3534,-0.9781,0.022,2082
12,1.2476,-1.9041,1.3003,-3.7571,3.2669,4.3634,2139
12,-2.0,0.1123,-0.9709,-1.2556,0.0844,2.9187,2077
12,1.9999,0.4497,1.8726,0.3916,-4.0066,1.6317,2179
12,1.9999,-2.0,1.9999,0.6163,-3.4721,-1.0519,2262
12,1.0105,-0.9907,-0.053,0.4766,4.3634,-0.6404,1904
12,-2.0,-0.98,1.2368,-1.1973,4.3634,3.529,1795
12,-2.0,-2.0,1.854,-0.6188,-0.1995,3.2006,2047
12,1.0769,-1.8347,1.9617,-2.0427,-4.3635,2.053,2280
12,0.7012,-1.2056,0.6091,-2.6611,-2.9621,1.6878,2010
12,-0.3831,-2.0,-0.9209,-4.3635,0.3223,1.7345,1994
12,-0.708,-1.7361,-2.0,-4.3635,4.3634,2.6267,2061
12,1.4702,0.2437,-2.0,-2.5095,3.1227,2.5401,2109
12,0.9849,-1.0908,-1.6851,-1.8334,2.1771,3.0056,2025
12,-0.1714,-0.1108,-0.489,-2.113,0.5573,2.6405,1963
12,-1.155,-0.0486,-1.5781,-0.2076,1.2123,2.6914,2000
12,0.0864,-0.739,0.165,-0.293,-0.2485,2.5523,2129
12,-1.0046,-1.1042,1.1023,-0.1598,-0.2702,1.6359,2056
12,-1.3047,-1.1526,1.063,-0.7542,0.1525,1.4544,2059
12,-1.144,-1.2268,0.0588,-1.3055,0.3655,1.5348,2032
12,-0.4631,-1.4097,-0.4165,-1.0897,0.2731,1.1258,2104
12,-0.2649,-0.9548,-0.0342,-0.7136,-0.0166,0.3384,2057
12,-0.4709,-0.833,-0.2708,-0.53,0.2442,0.0555,2024
12,-0.0547,-0.8989,-0.1445,-0.1657,0.1432,0.0087,2041
12,0.2336,-0.9617,-0.0769,-0.1681,-0.1895,-0.0091,2049
12,0.3989,-0.8997,-0.2603,-0.114,-0.1196,0.0997,2051
12,0.385,-0.936,-0.2583,-0.0941,0.0762,0.1847,2023
12,0.2532,-0.821,-0.1453,0.1336,0.1514,0.1681,1980
12,0.0872,-0.8882,-0.0159,0.3983,-0.0157,-0.1756,1960
12,-0.2097,-1.0967,0.2246,0.3493,-0.4281,-0.1803,2015
12,-0.1462,-1.0645,0.3406,0.1362,-0.3164,-0.0077,2098
12,0.1255,-1.0542,0.2917,0.0923,-0.0192,-0.0399,2032
12,0.2061,-1.0669,0.2607,0.0405,-0.0096,-0.016,2069
12,0.1492,-1.0667,0.1819,0.0156,-0.2168,-0.1465,2076
12,0.1831,-1.0371,0.0925,-0.0302,-0.3753,-0.289,2079
12,0.4087,-1.1882,0.1257,-0.0535,-0.5003,-0.0708,2083
12,0.1912,-1.1431,0.1272,-0.233,-0.5108,0.2649,2032
12,0.2322,-0.9592,0.1692,-0.3785,-0.4868,0.3286,2146
12,0.3049,-0.9609,0.2388,-0.4606,-0.405,0.5341,2013
12,0.1885,-0.9883,0.2742,-0.5501,-0.1521,0.6452,2054
12,0.0435,-0.9312,0.2542,-0.6538,0.4606,0.7028,2212
12,0.0457,-0.9521,0.1484,-0.6277,0.5554,0.6544,1947
12,0.0928,-1.0786,0.1519,-0.6568,0.518,0.7365,2011
12,0.0986,-1.0969,0.053,-0.7015,0.3274,0.7616,2158
12,0.1716,-1.0596,0.054,-0.7091,0.1731,0.8276,2058
12,0.3347,-1.0398,0.0986,-0.742,0.0678,0.8785,2211
12,0.4502,-1.0234,0.1741,-0.7922,-0.0136,0.9801,1964
12,0.4348,-0.9902,0.2124,-0.8481,0.0049,1.1029,2121
12,0.4609,-1.0513,0.1814,-0.908,0.0975,1.2315,2220
12,0.4216,-1.1709,0.2048,-0.9959,-0.1288,1.4358,2012
12,0.5037,-1.2271,0.1956,-1.0604,-0.1985,1.7077,2012
12,0.3552,-1.1619,0.2505,-1.1256,-0.2533,1.8001,2159
12,0.2773,-0.9719,0.2932,-1.0725,-0.3734,2.3091,1915
12,0.1287,-1.3088,0.3479,-1.105,-0.0342,2.1146,2028
12,0.1848,-1.3611,0.3469,-1.2348,0.1948,2.1819,2001
12,0.4519,-1.3518,0.1848,-1.2513,0.1651,2.2441,2032
12,0.3198,-1.3149,0.1982,-1.2655,0.0382,2.3305,2063
13,0.197,-1.3303,0.22,-1.287,0.0354,2.424,2048
13,0.1572,-1.3877,0.2729,-1.285,0.163,2.5223,2060
13,0.3523,-1.4539,0.26,-1.2656,0.2992,2.6334,2078
13,0.5227,-1.6331,0.3528,-1.2946,0.4473,2.7382,2104
13,0.8127,-1.8413,0.5823,-1.378,0.1404,2.7402,2074
13,1.0674,-1.7463,0.4956,-1.4576,-0.163,3.1819,2099
13,1.5518,-1.7217,0.6726,-1.3731,-0.8608,3.3963,2037
13,1.6216,-2.0,0.6672,-1.3841,-0.6332,3.9084,2216
13,1.4016,-2.0,1.3672,-1.4993,-1.7731,4.3634,1945
13,1.3142,-1.8813,0.5259,-2.6578,-2.1395,4.3634,1780
13,0.4341,-1.5471,0.6575,-2.2004,-1.7293,3.8756,1929
13,-0.0461,-1.6748,0.0432,-2.4779,-0.5135,2.8288,1975
13,-1.0979,-2.0,-0.1396,-2.0805,0.2104,2.6193,2076
13,-0.0232,-1.553,-0.0513,-1.071,-0.7642,2.3168,2140
13,-0.2063,-1.0598,-0.0474,-1.0007,-0.0233,2.4623,2074
13,-0.437,-0.3108,0.7168,0.3659,-0.7813,2.4432,2060
13,0.0625,-0.4954,-0.1675,-1.1432,0.9385,1.1264,2194
13,1.9999,-2.0,1.9999,-4.3635,4.3634,4.3634,1899
13,-2.0,1.8091,-2.0,0.3715,0.4843,3.5174,1850
13,-2.0,-1.5916,-1.4888,-3.7546,1.9121,0.1743,2117
13,-0.969,0.7625,-1.5349,-0.359,-1.114,-1.0078,2136
13,-0.7905,0.7305,-0.9187,1.533,-1.1002,-1.8346,2130
13,0.7263,0.365,0.522,4.3634,-4.3635,-3.1254,2141
13,0.3474,-0.2539,1.4346,3.1893,-4.3635,-3.8462,2034
13,0.3091,-0.6965,0.6316,0.1148,-4.3635,-3.7114,2009
13,-0.0957,-0.511,-0.1296,-0.553,-2.4554,-4.3635,1978
13,-0.2415,-0.2837,-0.2761,0.2943,-0.793,-4.3635,2025
13,-0.2827,-0.251,-0.0623,1.136,-0.3994,-4.3635,2055
13,-0.5667,-0.3242,0.1013,1.3701,-0.4113,-4.3635,2047
13,-0.9065,-0.4094,0.1199,1.2881,-0.393,-4.3046,2059
13,-0.8987,-0.3762,0.0916,1.2952,0.0075,-4.3635,2066
13,-0.6831,-0.3149,0.1165,1.34,0.3587,-4.3635,2066
13,-0.4656,-0.1982,0.0225,1.3283,0.5276,-4.3635,2056
13,-0.3171,-0.179,-0.1174,1.6508,0.6915,-4.3635,2052
13,-0.3364,-0.2786,-0.1587,2.1382,0.7578,-4.3635,2045
13,-0.3701,-0.1536,-0.1372,2.3838,0.8653,-4.3635,2053
13,-0.2659,-0.2812,-0.0273,2.9568,0.7391,-4.3635,2058
13,-0.1936,-0.4939,0.197,3.1505,0.4722,-4.3635,2074
13,-0.1677,-0.583,0.1421,3.0568,0.8568,-4.3635,2069
13,-0.1663,-0.7075,0.0886,3.1086,1.713,-4.3635,2021
13,-0.3125,-0.8098,0.0034,3.2148,2.5426,-4.3635,2040
13,-0.4177,-1.4431,0.053,3.7997,3.0506,-4.3635,2079
13,0.0051,-1.8779,0.0813,4.3634,2.2586,-4.3635,2078
13,1.9999,-2.0,1.9999,2.1477,4.3634,-1.2149,1995
13,-2.0,0.3354,-2.0,4.3634,0.5983,-4.3635,1977
13,0.3928,-2.0,0.8591,4.3634,0.4301,-4.3635,2043
13,-0.5044,-1.9268,-0.3896,0.7324,0.2565,-4.2759,1990
13,-1.0918,-1.1912,-0.3621,2.4245,1.5573,-2.165,1981
13,0.6135,-1.4946,1.4243,0.9806,-1.7514,-3.2223,2101
13,0.1458,-1.0964,-0.595,0.1392,-2.7408,-1.7026,2008
13,0.6746,-1.6213,-0.5557,1.4661,-2.122,-1.3774,2100
13,0.6721,-1.7249,0.2549,0.0953,-0.696,-0.3304,2043
13,-0.8105,-1.2358,0.3723,-0.516,0.7271,0.5075,2030
13,-1.1108,-1.4675,-0.0498,-1.3035,1.1432,1.1649,2053
13,-1.1567,-2.0,0.4404,-2.3931,0.3767,0.8417,2057
13,0.2437,-0.8672,-0.0503,-3.3477,-0.3441,2.6763,2058
13,1.9999,-2.0,1.9999,-4.3635,-0.1538,4.3634,2208
13,-1.0403,1.9999,-1.4861,-2.2696,1.0255,2.5661,1857
13,1.9999,-1.0811,1.9999,0.9013,-4.2524,0.702,2157
13,1.9999,-2.0,1.4294,-0.4257,-4.3635,0.0696,2236
13,-1.7415,-0.5574,0.042,-0.4637,2.8811,-0.3021,1767
13,-2.0,-1.5547,0.9719,0.102,4.3634,3.1909,2020
13,-1.9521,-2.0,1.9999,-1.036,1.1688,3.1744,2145
13,1.3315,-1.5481,1.7039,-3.032,-4.3635,2.3047,2154
13,0.364,-1.2039,0.2429,-3.0253,-2.226,1.941,1981
13,0.0371,-1.7615,-0.9026,-3.5619,-0.7368,2.1146,2018
13,-1.2964,-1.6504,-2.0,-4.3635,4.3634,1.6978,1977
13,0.741,0.239,-1.6062,-2.0008,4.1695,2.2413,2066
13,0.3813,-1.6013,-1.8865,-1.9568,3.7298,2.0925,2057
13,-0.0259,0.283,-0.5676,-1.86,0.7586,1.2323,1993
13,-1.0554,-1.084,-1.4724,-1.0746,1.1082,2.7136,2064
13,0.0903,-0.407,-0.2939,-0.07,0.667,2.5105,2085
13,-0.4473,-0.9858,0.321,0.4914,-0.0799,1.8713,2066
13,-0.8533,-1.2156,0.9348,-0.0956,-0.7304,1.3447,2039
13,-1.0332,-0.927,0.5308,-0.5823,-0.2095,1.3177,2058
13,-0.6807,-1.1448,0.1499,-0.9246,0.7644,1.3049,2083
13,-0.5056,-1.2656,0.1584,-1.0206,0.7102,0.7248,2049
13,-0.2922,-0.936,-0.1494,-0.9867,0.2424,0.3958,2048
13,-0.0881,-0.9089,-0.3782,-0.5199,0.0033,0.1697,2053
13,0.1619,-0.968,-0.2935,-0.1908,-0.2756,0.0261,2070
13,0.3003,-0.9014,-0.3533,0.0599,-0.1872,-0.038,2006
13,0.448,-0.9238,-0.2075,0.0888,0.119,0.0542,2125
13,0.5957,-0.9583,-0.0403,0.0427,0.5612,0.188,2003
13,0.2246,-0.9351,0.012,0.1744,0.4141,0.1449,2107
13,0.0376,-0.9937,0.2803,0.2301,-0.5831,-0.0921,1963
13,-0.1135,-1.0784,0.3066,0.1125,-0.4826,0.0703,2121
13,0.0508,-1.0403,0.2786,-0.0563,-0.1525,0.0625,1948
13,0.0483,-1.0566,0.2383,-0.1969,-0.0353,-0.0072,2081
13,0.2095,-1.0789,0.1553,-0.1607,-0.2468,0.0093,2054
13,0.2683,-1.0864,0.0908,-0.0973,-0.4348,-0.1248,2060
13,0.4143,-1.124,0.075,-0.1466,-0.6902,0.1053,2090
13,0.2432,-1.0798,0.1243,-0.2803,-0.6295,0.3392,1898
13,0.2566,-1.0383,0.0874,-0.3918,-0.6249,0.4376,2011
13,0.2368,-1.0054,0.2131,-0.4275,-0.6805,0.5837,2003
13,0.2197,-0.9709,0.1821,-0.4568,-0.681,0.6574,2058
13,0.103,-0.9817,0.1404,-0.483,-0.5813,0.7256,2250
13,-0.0864,-0.947,0.1663,-0.5926,-0.243,0.6305,1855
13,-0.1333,-1.0652,0.0854,-0.7102,0.0678,0.8459,2040
13,0.0354,-1.0027,-0.0205,-0.6496,0.0374,0.7469,1982
13,0.1572,-1.1035,0.0276,-0.5935,-0.1884,0.766,1837
13,0.1743,-1.1394,0.022,-0.6007,-0.3401,0.8444,2101
13,0.2905,-1.042,0.1531,-0.7424,-0.1057,0.9596,1993
13,0.4756,-0.9954,0.199,-0.8079,-0.2107,1.0917,2035
14,0.5806,-1.0032,0.2659,-0.8526,-0.2285,1.1603,2052
14,0.5098,-1.1399,0.2837,-0.9624,-0.2129,1.2994,2168
14,0.5681,-1.2031,0.2568,-1.033,-0.6806,1.7189,2050
14,0.5317,-1.2078,0.2949,-1.1085,-0.5947,1.7823,1980
14,0.3892,-1.0496,0.4409,-1.1207,-0.4916,2.228,2037
14,0.1667,-1.2463,0.4553,-1.1339,-0.2065,2.1806,1999
14,0.095,-1.4287,0.4399,-1.2669,0.3284,2.2526,2029
14,0.5044,-1.311,0.3127,-1.2909,0.2448,2.4703,2077
14,0.489,-1.3413,0.356,-1.311,0.1025,2.5754,2017
14,0.2263,-1.355,0.3455,-1.3335,0.0434,2.6896,1970
14,0.2136,-1.3992,0.3235,-1.3746,0.2397,2.7849,2072
14,0.4277,-1.3674,0.3171,-1.3525,0.234,2.8493,2096
14,0.4333,-1.4392,0.3254,-1.2449,0.2619,3.0375,2031
14,0.5295,-1.8113,0.5657,-1.2428,0.178,3.0191,2120
14,1.1511,-1.9395,0.4399,-1.4655,-0.0493,3.1489,2083
14,1.6956,-1.8181,0.6868,-1.4007,-0.8487,3.5908,2145
14,1.8489,-2.0,0.8628,-1.4833,-0.813,3.9428,2378
14,1.2886,-1.7722,1.3562,-1.8273,-1.7446,4.3634,1790
14,0.9888,-1.7754,0.5256,-2.4501,-2.5251,4.3634,1829
14,0.0898,-1.553,0.2759,-2.3514,-1.0308,3.5279,1999
14,-0.4277,-1.7632,-0.2371,-1.8833,0.1224,2.6148,2034
14,-0.7878,-2.0,-0.075,-1.6427,-0.0157,2.3899,2083
14,0.1396,-1.4065,0.0793,-0.7175,-0.6946,2.7381,2117
14,-0.2937,-0.6667,-0.0308,-0.6164,0.352,2.6397,2032
14,-0.2737,-0.3123,0.7512,0.9577,-1.1011,2.2164,2104
14,-0.2998,-0.2786,-0.7292,-1.7821,1.9599,0.5425,2164
14,-2.0,-0.2837,1.9999,-4.3635,-0.5472,1.7908,2056
14,-2.0,1.3596,-2.0,-2.08,1.8072,0.4192,1837
14,-2.0,-1.2966,-1.4302,-1.9908,1.0441,0.1133,2152
14,-1.6091,0.2832,-1.001,-1.0816,-0.1973,-1.226,2144
14,-0.3828,1.0879,-0.782,2.0981,-1.6056,-1.6106,2140
14,0.7117,0.1919,0.4077,4.3634,-4.3635,-3.1308,2124
14,0.0972,-0.4814,1.4907,3.1577,-4.3635,-3.806,2019
14,0.4805,-0.4436,0.6016,0.019,-4.1594,-3.8367,1994
14,0.041,-0.3064,-0.104,-0.3092,-2.1126,-4.3635,1982
14,-0.1663,-0.2576,-0.1802,0.8581,-0.5906,-4.3635,2021
14,-0.3586,-0.2869,0.0032,1.6484,-0.1828,-4.3635,2055
14,-0.7881,-0.4062,0.103,1.697,-0.2527,-4.3635,2050
14,-0.9165,-0.4019,0.0669,1.5231,-0.0015,-4.214,2066
14,-0.7668,-0.3225,0.1309,1.5656,0.416,-4.2819,2073
14,-0.4895,-0.2646,0.1584,1.7808,0.5709,-4.3635,2062
14,-0.2517,-0.2363,0.0437,1.7717,0.3943,-4.3635,2061
14,-0.1067,-0.1987,-0.1602,2.062,0.2226,-4.3635,2050
14,-0.137,-0.2666,-0.166,2.5795,0.2622,-4.3635,2048
14,-0.3169,-0.2146,-0.0698,2.8998,0.3273,-4.3635,2048
14,-0.2065,-0.3716,0.0447,3.4912,0.0951,-4.3635,2060
14,-0.1731,-0.5779,0.2507,3.6066,-0.0646,-4.3635,2076
14,-0.1272,-0.717,0.1909,3.4963,0.3774,-4.3635,2049
14,-0.2112,-0.9341,0.1914,3.4651,1.4201,-4.3635,2015
14,-0.521,-1.2815,0.0193,3.5877,2.6059,-4.3635,2058
14,-0.3308,-1.6372,0.2449,4.2518,2.9407,-4.3635,2069
14,-0.2339,-2.0,-0.4431,4.3634,2.7315,-4.3635,2142
14,-1.4854,1.9999,-0.6733,2.8641,-2.0489,-4.3635,1950
14,-0.0872,-2.0,-2.0,4.3634,2.7785,-4.3635,2438
14,1.6133,-2.0,1.282,3.1969,-3.5683,-3.126,2027
14,-1.5647,-0.7476,-0.8203,0.944,2.9737,-2.8869,1946
14,0.5552,-1.5647,0.0588,2.7661,1.5526,-2.7783,2079
14,-0.1382,-1.0547,0.6389,0.0314,-1.274,-2.0157,2012
14,0.521,-0.8879,-0.5698,1.3065,-2.7561,-1.4727,2062
14,1.4177,-1.9019,-0.1267,0.6235,-1.5034,-1.162,2075
14,-0.3335,-1.1301,-0.0583,-0.0005,-0.4179,0.0388,1971
14,-1.1311,-1.5671,-0.0527,-0.5797,0.0874,0.6726,2073
14,-1.8696,-2.0,0.0422,-1.5733,0.5449,0.4891,2049
14,0.0518,-1.2976,0.5735,-3.6495,-1.0993,1.5298,2154
14,1.9999,-2.0,0.6494,-4.3635,-2.1611,4.3634,2068
14,-1.7722,0.0125,-1.3044,-3.0265,-0.4091,2.4816,1869
14,1.9999,0.6218,1.9999,0.9021,-4.3635,1.286,2157
14,1.9999,-2.0,1.6765,1.0477,-3.4975,-0.9328,2304
14,-0.9592,-0.8716,0.5864,0.1481,4.3634,-0.0099,1784
14,-2.0,-1.8218,1.6169,-1.6353,4.3634,3.8404,1910
14,-2.0,-2.0,1.9999,-1.9759,-2.9966,3.0911,2143
14,0.061,-1.7312,1.2471,-2.9893,-3.7841,2.1065,2203
14,0.2395,-1.3662,0.2961,-3.2874,-2.6867,1.4707,2060
14,-1.5173,-2.0,-1.5007,-4.3635,3.6623,1.1067,1978
14,1.3721,0.0869,-2.0,-3.2877,4.3634,2.965,2104
14,1.1282,-0.5608,-2.0,-2.3244,3.5383,3.0078,2003
14,-0.7312,1.0806,-0.9819,-1.6671,2.8829,1.9845,1925
14,0.3931,-1.4475,-1.259,-1.2649,0.5718,3.7825,2105
14,0.0127,-0.5374,-1.033,-0.0214,1.5415,2.5378,2071
14,-0.2419,-0.407,0.4873,-0.0008,-0.8285,2.5031,2057
14,-0.896,-1.1873,0.9104,0.0937,-0.4605,1.8105,2084
14,-1.2119,-1.1118,1.0569,-0.379,0.5492,1.5568,2064
14,-1.031,-1.2629,0.1064,-1.152,0.805,1.256,2062
14,-0.7742,-1.2869,-0.1204,-1.0597,0.8134,0.8793,2063
14,-0.4297,-0.9812,-0.0508,-0.7598,0.1944,0.2579,2040
14,-0.4763,-0.7463,-0.4302,-0.3614,0.3782,-0.106,2042
14,-0.0896,-0.8337,-0.2512,0.187,0.1137,-0.6127,2042
14,0.3066,-1.0598,-0.1921,0.3148,-0.2547,-0.7147,2023
14,0.469,-1.0042,-0.1819,0.3438,-0.4753,-0.456,2032
14,0.4976,-0.8442,-0.2556,0.4151,-0.35,-0.0803,2151
14,0.4956,-0.9421,-0.1021,0.4152,-0.387,-0.1065,2058
14,0.1013,-1.1794,0.0205,0.6845,-1.0381,-0.0902,2050
14,-0.5125,-1.3113,0.4526,0.2579,-1.6848,-0.126,2038
14,-0.2886,-1.2598,0.2991,-0.077,-0.7168,0.1514,2171
14,0.0059,-0.967,0.2595,-0.1832,-0.1606,0.1748,2040
14,0.2092,-0.9929,0.2307,-0.1914,-0.2457,0.3432,2009
14,0.2354,-1.1187,0.177,-0.3835,-0.0776,0.4651,2052
14,0.2058,-1.0903,0.1873,-0.4284,-0.0549,0.4004,2058
15,0.1526,-1.0955,0.2537,-0.5513,0.0001,0.5187,2106
15,0.1189,-0.9841,0.1606,-0.5666,0.1333,0.5454,2012
15,0.1794,-0.9404,0.1423,-0.5494,0.1405,0.5525,1913
15,0.1807,-0.9729,0.1992,-0.6496,0.2486,0.5975,2112
15,0.1196,-0.9285,0.1841,-0.6513,0.3496,0.6304,2047
15,0.1404,-0.8911,0.1931,-0.6044,0.4197,0.6922,2047
15,0.0542,-0.9031,0.1641,-0.5518,0.3711,0.7224,2075
15,0.0161,-0.9666,0.1074,-0.5389,0.2519,0.7213,2113
15,-0.0154,-1.0732,0.0542,-0.5497,0.1791,0.7427,2072
15,-0.0798,-1.1667,0.0042,-0.608,0.1281,0.7393,2012
15,-0.0227,-1.0874,0.0127,-0.6195,0.1716,0.7622,2062
15,0.0771,-1.0352,0.0195,-0.579,0.1364,0.8923,2049
15,0.2656,-1.0393,0.1409,-0.6545,0.1096,1.0576,2487
15,0.4753,-1.0256,0.2034,-0.7376,-0.0449,1.0919,2078
15,0.5227,-1.1052,0.2666,-0.7791,-0.0939,1.2491,2058
15,0.4785,-1.2104,0.2949,-0.8388,-0.2164,1.405,2110
15,0.3384,-1.1628,0.3757,-0.8528,-0.2188,1.87,2035
15,0.1768,-1.2297,0.4331,-0.9179,-0.0212,1.8612,2026
15,0.3152,-1.3601,0.3765,-0.9997,0.2711,1.8985,2048
15,0.4431,-1.3354,0.2983,-1.0757,0.269,2.0419,2019
15,0.3994,-1.3103,0.3594,-1.1423,0.2248,2.1587,2034
15,0.2783,-1.3025,0.3069,-1.221,0.1979,2.3706,2050
15,0.3042,-1.2478,0.3005,-1.2469,0.3623,2.5164,2043
15,0.4919,-1.3362,0.3293,-1.2087,0.2414,2.6512,2062
15,0.4736,-1.533,0.3457,-1.148,0.2922,2.688,2044
15,0.5374,-1.8372,0.4954,-1.17,0.2935,2.7224,2081
15,0.8899,-1.7629,0.5464,-1.2623,0.089,3.3236,2077
15,1.5754,-1.865,0.6667,-1.2051,-0.6586,3.2468,2112
15,1.627,-1.9841,0.8484,-1.2081,-0.6811,4.1985,2239
15,1.5515,-2.0,1.1379,-1.3584,-1.3126,4.3398,2028
15,1.1355,-2.0,1.5093,-2.0294,-0.8388,4.1971,1808
15,0.9138,-1.9055,0.5542,-2.6738,-1.9622,4.3634,1768
15,0.1401,-1.7314,0.1643,-2.4772,-0.4738,3.5635,1981
15,-0.1584,-1.8296,-0.4612,-1.8345,0.3827,3.0457,2036
15,-0.678,-2.0,-0.1238,-1.5119,0.2589,3.0079,2084
15,-0.0745,-1.5457,-0.0911,-1.0463,-0.4572,2.7429,2116
15,-0.2563,-0.4932,0.1975,-0.5658,0.1055,2.6512,2067
15,-0.2432,0.0483,0.6448,1.3414,-1.3186,2.6215,2129
15,-0.0552,-0.2349,-0.8049,-2.1755,2.4871,0.5653,2031
15,-0.4868,-2.0,1.9999,-4.3635,0.7813,3.5781,2168
15,-2.0,1.6284,-2.0,-1.9692,2.0879,0.8079,1833
15,-2.0,-1.0261,-1.6072,-1.7052,1.8721,0.1971,2134
15,-1.6792,0.7341,-1.2329,-0.7154,0.8578,-0.9728,2132
15,-0.2288,0.7795,-0.8298,2.4036,-1.9081,-1.4576,2157
15,0.573,-0.0051,0.5222,4.3634,-4.3635,-2.7934,2128
15,0.1331,-0.417,1.0232,2.8252,-4.3635,-3.6597,2010
15,0.3237,-0.4128,0.2302,0.3777,-3.3283,-3.5962,2016
15,0.0454,-0.1873,-0.3025,-0.1087,-1.1147,-4.169,1964
15,-0.051,-0.1216,-0.4399,0.7987,0.2978,-4.3635,2027
15,-0.2659,-0.0955,-0.2729,1.6367,0.7012,-4.3635,2050
15,-0.5735,-0.186,-0.2034,1.941,0.4757,-4.2212,2049
15,-0.6655,-0.2463,-0.1655,2.0221,0.5488,-4.082,2068
15,-0.5938,-0.2358,-0.0874,2.1463,0.6938,-4.0998,2073
15,-0.4282,-0.1865,-0.0034,2.1943,0.5179,-4.2763,2063
15,0.1348,-0.2266,-0.1587,2.1116,0.3621,-4.3635,2066
15,-0.0896,-0.1523,-0.3,2.2907,0.1167,-4.3635,2037
15,-0.1482,-0.2983,-0.2776,2.8478,-0.0852,-4.3635,2048
15,-0.2646,-0.1763,-0.0757,3.3179,-0.1272,-4.3635,2049
15,-0.1597,-0.3281,0.0161,3.7177,-0.3808,-4.3635,2056
15,-0.092,-0.4846,0.1143,3.8083,-0.7529,-4.3635,2065
15,-0.0374,-0.6311,0.0662,3.4861,-0.3852,-4.3635,2074
15,-0.1597,-0.823,0.0991,3.4613,0.7356,-4.3635,2032
15,-0.5608,-1.2065,0.0303,3.6358,1.6054,-4.3635,2025
15,-1.1792,-2.0,-0.0027,3.6719,2.4083,-4.3635,2041
15,-1.1292,-2.0,-0.1809,4.2018,2.6842,-4.3635,2064
15,1.9999,-2.0,1.9999,-0.8601,4.3634,0.2639,2003
15,-2.0,1.707,-2.0,4.3634,1.7599,-4.3635,1856
15,-0.3892,-2.0,0.5269,4.3634,1.1832,-4.3635,2186
15,-0.1348,-2.0,-0.4539,0.2673,1.9085,-3.5605,2118
15,-0.6157,-0.9531,-1.6313,2.4304,3.7557,-2.8408,2025
15,1.9999,-2.0,0.7297,0.8287,0.0571,-3.0429,2138
15,-0.4116,-0.7195,0.3159,-0.0511,-3.1519,-1.2455,1938
15,0.729,-1.3245,-0.3748,0.7325,-3.3693,-1.5157,2134
15,-0.3369,-1.6199,-0.2285,-0.3076,-0.2495,-1.0427,2011
15,-0.8911,-1.2468,-0.1523,-0.5875,0.8556,0.1724,2014
15,-1.8525,-1.5811,0.0596,-1.3985,2.3619,0.5464,2055
15,-0.0115,-2.0,1.9077,-4.3635,-0.1878,0.4904,2120
15,1.9999,-1.8657,0.2896,-4.3545,3.0702,4.3634,2073
15,-2.0,0.5195,-0.4407,-2.5103,0.4585,2.2987,1913
15,1.1587,0.9575,1.9999,1.0076,-4.3635,1.4034,2118
15,1.9999,-2.0,1.9999,0.9457,-0.9829,-1.1652,2320
15,-0.7209,-0.625,-0.0505,0.6679,4.3634,-0.9503,1768
15,-2.0,-1.481,1.2253,-2.022,4.0189,3.3461,1904
15,-2.0,-1.8499,1.9741,-1.3792,-1.6615,3.1784,2123
15,0.1091,-1.8035,1.6331,-2.3495,-4.3635,2.3499,2185
15,0.4236,-1.4324,0.2871,-2.8153,-2.3019,1.9871,2059
15,-0.3293,-2.0,-1.0759,-4.1037,1.2053,1.9068,2021
15,-0.855,-1.5581,-1.9431,-4.3635,4.3634,2.9953,2010
15,0.7329,1.5686,-2.0,-1.959,3.5407,2.0248,2059
15,0.2324,-1.0386,-1.8303,-1.7179,3.4067,2.3189,2017
15,-0.8867,0.8672,-0.8396,-2.1529,2.7995,1.0159,1994
15,0.0872,-2.0,-1.4915,-0.9822,-1.0092,4.1001,2122
15,0.0393,-0.2166,-0.4299,0.2397,1.152,2.7097,2059
15,-0.427,-0.7644,0.759,0.1979,-0.348,2.1032,2033
15,-0.8179,-1.6221,1.188,-0.0226,-0.6148,1.4805,2054
15,-0.9656,-1.1826,0.8301,-1.0813,0.2727,1.3105,2061
15,-1.062,-0.9287,0.2397,-1.3334,0.9328,1.124,2042
15,-0.939,-1.1228,-0.1365,-1.0973,0.8811,0.6835,2062
15,-0.3918,-0.8726,-0.377,-0.6399,0.4689,0.1574,2058
15,-0.0049,-0.8611,-0.3801,-0.2698,0.0633,-0.2197,2061
15,0.2017,-0.9202,-0.3174,0.0293,-0.2084,-0.461,2050
15,0.3999,-1.0669,-0.2192,0.1113,-0.4534,-0.1446,2071
15,0.3857,-0.8384,-0.2026,0.1035,-0.1884,-0.0606,1996
15,0.5071,-0.8713,-0.1355,0.2332,0.1611,-0.1526,1966
15,0.3835,-0.9338,-0.0916,0.4829,0.1035,-0.0771,2038
