Timestamp,Ax,Ay,Az,Rx,Ry,Rz,EMG
0,0.1411,-1.0659,0.2285,-0.1811,-0.0394,0.2328,2055
0,0.261,-1.1077,0.2224,-0.1189,0.0642,0.3522,2055
0,0.333,-1.0667,0.1646,-0.2308,0.0429,0.4263,2061
0,0.2896,-0.9983,0.0542,-0.3635,-0.0526,0.5058,2046
0,0.1951,-0.9949,0.0422,-0.4008,-0.21,0.5304,2030
0,0.0947,-0.9941,0.1377,-0.4291,-0.2541,0.6143,2095
0,-0.0117,-1.0115,0.2373,-0.4992,-0.2085,0.6656,2024
0,0.0068,-1.0193,0.2493,-0.605,-0.1233,0.6594,2046
0,0.0986,-0.9587,0.1765,-0.709,-0.0678,0.6689,2061
0,0.168,-0.98,0.1404,-0.7677,-0.0736,0.7325,2017
0,0.1821,-0.9749,0.1621,-0.8477,-0.204,0.8557,2036
0,0.2024,-0.9678,0.1963,-0.8736,-0.1938,0.9119,2069
0,0.1836,-1.0396,0.353,-0.8756,-0.102,0.9927,2082
0,0.0513,-1.0964,0.2673,-0.8705,-0.0766,1.1123,2046
0,-0.0627,-0.9746,0.0527,-0.9543,-0.0904,1.3025,2038
0,-0.134,-0.845,-0.0884,-0.9497,-0.004,1.3821,2075
0,-0.1045,-0.8257,-0.094,-0.9142,-0.0274,1.4178,2004
0,-0.0583,-0.9014,-0.0618,-0.8817,-0.0851,1.4725,2050
0,-0.0447,-0.8887,-0.0493,-0.9178,-0.074,1.5611,2048
0,0.012,-0.8757,-0.0518,-0.8953,-0.1244,1.6416,2098
0,-0.001,-0.7808,-0.0903,-0.8648,-0.1234,1.7717,2034
0,-0.085,-0.7334,-0.1653,-0.885,-0.0266,1.8032,2032
0,-0.1172,-0.7546,-0.2542,-0.9207,-0.0119,1.9728,2064
0,-0.0864,-0.7444,-0.2607,-0.8867,-0.2013,2.0493,2052
0,-0.0549,-0.8679,-0.1953,-0.8269,-0.3963,1.9738,2050
0,-0.0054,-0.8657,-0.1157,-0.9315,-0.3277,1.9831,2086
0,-0.2034,-1.0522,-0.2322,-0.9305,-0.1879,2.0626,2047
0,-0.1924,-1.1135,-0.2371,-0.9075,-0.3472,2.1389,2053
0,-0.2153,-0.7112,-0.3667,-0.8363,-0.3703,2.2441,2059
0,-0.4309,-0.5818,-0.4272,-0.7841,-0.3967,2.2559,2060
0,-0.5696,-0.7051,-0.4375,-0.6843,-0.6317,2.169,2044
0,-0.6384,-0.9341,-0.5117,-0.5474,-0.9036,2.0093,2034
0,-0.7346,-1.0271,-0.6355,-0.2776,-1.0116,1.9393,2075
0,-0.9082,-0.9604,-0.6436,-0.0146,-0.9784,1.9879,2021
0,-0.8918,-0.9529,-0.4209,0.2003,-1.0632,1.6839,2045
0,-0.6294,-1.1228,-0.0806,0.1051,-1.1844,1.409,2069
0,-0.3972,-1.2698,0.1152,-0.2352,-1.0503,1.4199,2061
0,-0.2751,-1.4326,0.1772,-0.3119,-1.0653,1.4103,2062
0,-0.283,-1.28,0.1057,-0.4022,-1.0705,1.5882,2063
0,-0.793,-1.3286,-0.124,-0.4733,-0.9782,1.5398,2027
0,-1.1326,-1.1985,-0.3311,-0.2718,-0.913,1.4809,2057
0,-1.1523,-0.8311,-0.3948,-0.0313,-1.1814,1.3489,2033
0,-1.0549,-0.6421,-0.3782,-0.0097,-0.956,1.1428,2051
0,-0.8162,-0.405,-0.4714,-0.088,-0.4392,0.987,2048
0,-0.6177,-0.4673,-0.447,-0.1756,-0.2691,0.7493,2042
0,-0.6711,-0.1191,-0.5767,-0.3024,-0.0762,0.9419,2047
0,-0.8901,-0.2358,-0.5251,-0.1605,-0.3389,1.0604,2048
0,-0.6616,-0.0952,-0.4722,-0.1799,-0.5899,1.0158,2035
0,-0.582,-0.374,-0.3684,-0.1621,-0.5721,0.8139,2043
0,-0.5974,-0.2451,-0.3884,-0.3338,-0.2926,0.9669,2059
0,-0.9116,-0.072,-0.488,-0.3773,-0.1839,1.3688,2024
0,-1.5369,-0.095,-0.3889,-0.2527,-0.1178,1.7136,2067
0,-1.7195,-0.1672,-0.3762,-0.2992,0.2213,1.6926,2065
0,-1.4583,-0.2263,-0.2598,-0.1553,0.5488,1.8795,2044
0,-1.4392,-0.3354,-0.2063,-0.2838,0.9396,2.1964,2035
0,-1.344,-0.136,-0.2979,-0.4504,1.4672,2.3451,2027
0,-1.0601,-0.1384,-0.3542,-0.5505,1.4854,2.3638,2061
0,-0.8589,0.0872,-0.3826,-0.6167,1.4842,2.4312,2037
0,-0.7849,0.0645,-0.438,-0.7727,1.0591,2.5493,2052
0,-0.6951,0.0012,-0.4292,-0.7425,0.5737,2.4952,2077
0,-0.6729,-0.1211,-0.3381,-0.6697,0.2715,2.3381,2051
0,-0.6797,-0.1411,-0.2778,-0.7,0.0593,2.2218,2026
0,-0.7937,-0.0781,-0.2661,-0.7156,0.0169,2.0899,2037
0,-0.8704,-0.0564,-0.2488,-0.671,0.1224,2.0124,2064
0,-0.9502,-0.1401,-0.2212,-0.581,0.271,1.9016,2063
0,-1.0356,-0.1963,-0.2141,-0.4958,0.4919,1.7899,2061
0,-1.0908,-0.2427,-0.196,-0.3811,0.9074,1.6215,2074
0,-1.075,-0.2161,-0.1748,-0.1642,1.3238,1.4327,2055
0,-0.9138,-0.0312,-0.166,0.1948,1.6825,1.2302,2024
0,-0.4929,0.5183,-0.2087,0.9729,1.4882,0.7357,2039
0,1.2515,0.0491,-0.1323,1.7913,-0.3424,-0.1922,2053
0,-1.0437,-1.0686,-0.3037,-1.7201,-1.7717,0.9873,2033
0,-2.0,0.1826,-0.842,-1.3013,-0.811,0.7156,2046
0,-1.1382,-0.3154,-0.4861,0.7893,-1.1662,-0.4303,2072
0,-0.4519,-0.6262,0.3757,0.922,-1.0852,-0.322,2067
0,-0.5828,-0.6711,0.5974,0.7295,-0.271,-0.2855,2080
0,-0.6692,-1.0242,0.7024,0.4181,-0.5079,-0.6331,2032
0,-0.6868,-0.989,0.3411,0.098,-0.1735,-0.293,2020
0,-1.0518,-0.9871,0.1101,0.1297,0.6859,-0.0742,2044
0,-1.1101,-1.1619,0.2637,0.2534,0.5887,-0.1381,2061
0,-1.1003,-1.144,0.2827,0.2425,0.503,0.1708,2063
0,-0.9917,-1.1589,0.1829,0.241,0.3565,0.3701,2042
0,-0.4768,-1.0923,0.156,0.2288,0.1686,0.4297,2067
0,-0.3699,-1.0681,0.2871,0.1465,0.2602,0.4779,2064
0,-0.5239,-0.9536,0.3369,0.1296,0.6203,0.6231,2010
0,-0.6504,-0.9512,0.2544,0.0868,0.7606,0.6216,2025
0,-0.7712,-0.8582,0.0674,0.0085,0.5667,0.6381,2079
0,-0.7759,-0.6909,-0.0281,0.0349,0.4457,0.524,2082
0,-0.7021,-0.5811,-0.054,0.0144,0.3951,0.383,2035
0,-0.7527,-0.4238,-0.0469,-0.0451,0.3819,0.4069,2054
0,-0.856,-0.343,-0.0347,-0.0964,0.3928,0.3798,2064
0,-0.9089,-0.2424,-0.1028,-0.1786,0.3659,0.3786,2039
0,-0.9971,-0.1155,-0.1755,-0.2057,0.3476,0.3763,2053
0,-1.0623,0.0034,-0.2275,-0.1698,0.4578,0.3542,2046
0,-1.0542,0.0579,-0.2566,-0.0711,0.5904,0.2764,2013
0,-1.1318,0.0715,-0.2832,0.0378,0.6673,0.2362,2039
0,-1.2395,0.1609,-0.2854,0.1734,0.5197,0.2051,2060
0,-1.356,0.175,-0.3323,0.222,0.3444,0.0808,2032
0,-1.3848,0.1584,-0.3379,0.3091,0.3886,-0.0032,2053
0,-1.3115,0.1262,-0.2869,0.4538,0.4866,-0.066,2073
0,-1.3308,0.0459,-0.2544,0.595,0.4848,-0.1354,2031
0,-1.2834,-0.0012,-0.2349,0.7151,0.4829,-0.361,2073
0,-1.127,-0.0095,-0.2241,0.7973,0.5084,-0.4627,2040
0,-1.0854,-0.0789,-0.2065,0.9598,0.5683,-0.5609,2025
1,-1.0676,-0.2031,-0.178,1.181,0.6902,-0.7428,2056
1,-1.011,-0.1853,-0.1482,1.4676,0.8961,-0.8628,2041
1,-0.9421,-0.0627,-0.1399,1.8554,1.1607,-0.9014,2066
1,-0.8564,-0.1863,-0.1211,2.3049,1.2593,-1.1929,2037
1,-0.6802,0.0247,-0.1409,3.2463,1.5302,-1.2127,2047
1,0.0073,-0.5593,-0.4617,3.4383,1.3185,-0.6231,2048
1,-2.0,-1.2542,-1.2109,0.3369,4.0038,-0.2714,2053
1,-1.918,-1.9507,-1.9419,1.0556,2.6868,0.0253,2065
1,-1.7817,-0.6711,-0.9268,1.7242,-0.5952,-0.6678,2037
1,0.1848,0.1653,-0.4377,0.6012,-2.6084,-1.7289,2040
1,0.582,-0.1201,-0.6252,0.28,-1.2089,-1.8635,2042
1,0.4697,-0.3005,-0.7207,0.9179,-0.2733,-1.6965,2050
1,0.0642,-0.7341,-0.5615,1.0449,-0.6477,-1.2549,2068
1,-0.2004,-1.0012,-0.6814,0.7024,-1.0247,-0.868,2100
1,-0.3872,-0.8577,-0.7104,1.1444,-1.4221,-0.9259,2069
1,-0.5815,-0.7874,-0.5012,1.3812,-1.8666,-1.3143,2059
1,-0.6599,-0.8459,-0.3506,1.0669,-2.0699,-1.5312,2003
1,-0.667,-0.8071,-0.3718,1.0569,-1.7768,-1.6179,2049
1,-0.6028,-0.8669,-0.0701,1.1218,-1.4386,-1.4063,2051
1,-0.324,-0.8757,0.0525,0.6775,-1.5314,-1.3234,2034
1,-0.041,-0.8743,-0.0249,0.2147,-2.2309,-0.8166,2047
1,0.0764,-1.0503,-0.1912,-0.1366,-3.3487,-0.7568,2064
1,-0.46,-1.2771,-0.4019,-1.496,-2.5135,-0.12,2066
1,-0.4453,-1.3547,-0.1868,-2.208,-1.8353,0.5641,2043
1,-0.4475,-1.0137,0.1716,-2.4404,-1.7708,1.0609,2008
1,-0.1223,-0.7852,0.2183,-2.4061,-2.0381,1.1668,2076
1,-0.0598,-0.7241,0.054,-2.2341,-2.1369,1.1918,2112
1,-0.3184,-0.8008,0.0525,-1.7558,-2.1666,1.1344,2014
1,-0.5608,-1.0955,0.1721,-1.7803,-1.8808,1.3113,2044
1,-0.8206,-1.1479,0.1824,-2.1017,-1.6394,1.5253,2066
1,-1.0166,-0.9067,0.0293,-2.3838,-1.5589,1.6837,2084
1,-1.0273,-0.7837,-0.1182,-2.6169,-1.356,1.7319,2043
1,-1.4324,-0.8689,-0.1262,-2.6883,-0.6351,1.7206,2081
1,-1.4849,-0.6965,0.0703,-3.0576,-0.5666,1.4615,2043
1,-1.283,-0.5303,-0.1917,-3.3176,0.0277,1.423,2056
1,-1.0552,-0.3142,-0.1887,-3.2865,0.3221,1.1776,2035
1,-0.7229,-0.3103,-0.1633,-3.049,0.4421,0.8818,2013
1,-0.4407,-0.249,-0.2954,-3.2657,0.1459,0.6072,2079
1,-0.3972,-0.1948,-0.3796,-3.2299,-0.1872,0.391,2054
1,-0.4783,-0.1111,-0.364,-3.1062,-0.5968,0.2073,2054
1,-0.5308,-0.1187,-0.2974,-2.8281,-1.0188,0.0366,2046
1,-0.5408,-0.1243,-0.2026,-2.5594,-1.2324,-0.136,2053
1,-0.6169,-0.1677,-0.1392,-2.4143,-1.26,-0.304,2016
1,-0.6814,-0.2117,-0.0205,-2.3174,-1.2561,-0.4509,2061
1,-0.7461,-0.2017,0.0942,-2.1684,-1.2516,-0.5215,2050
1,-0.8301,-0.2334,0.1858,-1.9674,-1.0595,-0.583,2026
1,-0.8684,-0.2063,0.2646,-1.766,-0.8585,-0.6715,2052
1,-0.9426,-0.25,0.3242,-1.6543,-0.4484,-0.6853,2058
1,-1.0662,-0.3062,0.2961,-1.538,0.2216,-0.6618,2076
1,-1.1011,-0.4097,0.2898,-1.3754,0.761,-0.6842,2031
1,-1.0454,-0.4604,0.2737,-1.0963,1.0385,-0.7709,2066
1,-0.99,-0.4724,0.2756,-0.9491,1.1874,-0.9284,2044
1,-0.8328,-0.4822,0.2471,-0.8939,1.2694,-1.1383,2068
1,-0.5757,-0.4622,0.2124,-0.7213,1.1335,-1.2792,2062
1,-0.4297,-0.5,0.1816,-0.4801,0.9407,-1.3102,1997
1,-0.363,-0.5212,0.1226,-0.2579,0.7532,-1.3364,2069
1,-0.3589,-0.5005,0.0789,-0.0868,0.4509,-1.4126,2055
1,-0.3428,-0.4702,-0.0129,0.0766,0.088,-1.4419,2059
1,-0.394,-0.4817,-0.0452,0.2984,-0.3255,-1.4572,2060
1,-0.46,-0.5127,0.03,0.5233,-0.6823,-1.4924,2019
1,-0.4924,-0.5728,0.1184,0.6536,-0.9793,-1.5083,2046
1,-0.6033,-0.5886,0.1626,0.6196,-1.1392,-1.6659,2057
1,-0.6753,-0.6165,0.1765,0.5709,-1.1319,-1.7503,2038
1,-0.7917,-0.7292,0.2092,0.4895,-1.1672,-1.9482,2059
1,-0.8083,-0.7236,0.1821,0.348,-1.0672,-2.1654,2073
1,-0.873,-0.6814,0.1709,0.3302,-0.9393,-2.104,2029
1,-0.8821,-0.7073,0.1694,0.2968,-0.8006,-2.231,2038
1,-0.7673,-0.6965,0.1223,0.3075,-0.6967,-2.3011,2072
1,-0.688,-0.7427,0.0833,0.3755,-0.6391,-2.4522,2081
1,-0.606,-0.833,0.0728,0.4201,-0.5838,-2.6822,2070
1,-0.5161,-0.8298,0.0393,0.3169,-0.7042,-2.8966,2009
1,-0.4187,-0.6938,0.0085,0.3453,-1.0417,-2.9135,2032
1,-0.3953,-0.7129,0.0032,0.3057,-1.3853,-2.9972,2033
1,-0.4333,-0.7737,-0.0168,0.3278,-1.5894,-3.177,2075
1,-0.4089,-0.7844,-0.0186,0.3059,-1.7534,-3.3593,2077
1,-0.4807,-0.7549,-0.0315,0.3213,-1.9616,-3.4528,2019
1,-0.2283,-1.543,-0.0376,-0.4291,-2.6673,-4.286,2133
1,-0.8713,-0.8813,-0.8267,-0.7735,-1.7226,-3.4701,2028
1,-2.0,-1.4592,-0.241,-0.5476,-2.8171,-1.4913,2021
1,-2.0,-1.2622,-0.0688,-0.819,-3.6364,-1.1061,2030
1,-2.0,-1.04,-0.2864,-1.45,-1.9651,-0.4109,2078
1,-2.0,-0.6504,0.1487,-1.2613,-1.4077,0.9953,2043
1,-2.0,-0.2961,0.4951,-2.1252,-1.4531,-0.3121,2067
1,0.2551,0.5273,0.2161,-2.2414,-1.7664,-2.1924,2115
1,0.6748,0.2017,0.3286,-1.9555,-1.9602,-2.3344,2030
1,-0.6421,-0.3159,0.1543,-1.3038,-0.1362,-1.5093,2065
1,-1.5149,-0.6667,0.5168,-0.0305,0.3738,0.2087,2054
1,-1.9014,-1.2605,0.6921,0.0534,0.7127,0.239,2045
1,-1.3481,-1.0803,0.4402,0.0656,1.3264,-0.7269,2097
1,-1.4016,-0.9897,0.2981,-0.1019,1.95,-0.8752,2100
1,-1.4812,-1.3552,0.2141,-0.4882,2.5133,-1.1437,2114
1,-0.6277,-1.2688,0.0835,-0.6229,2.2156,-1.1489,2039
1,0.2156,-1.2036,-0.054,-0.6604,1.3278,-1.183,2035
1,0.3018,-1.1194,-0.2583,-0.8112,1.258,-1.1862,2066
1,0.4163,-1.0405,-0.366,-0.9367,1.2411,-1.017,2070
1,0.3701,-0.8291,-0.3875,-0.8909,0.9088,-0.8625,2063
1,0.1333,-0.6533,-0.3979,-0.9042,0.5721,-0.9309,1955
1,-0.2424,-0.5059,-0.467,-0.8291,0.2175,-0.8179,2049
1,-0.615,-0.4346,-0.5464,-0.5813,0.288,-0.8343,2063
1,-0.7036,-0.4429,-0.5659,-0.4176,0.442,-0.8891,2068
1,-0.7358,-0.4458,-0.6279,-0.2598,0.4723,-1.0175,1985
1,-0.7322,-0.4324,-0.7551,-0.2133,0.4739,-1.1071,2029
1,-0.4761,-0.4141,-0.825,-0.0364,0.4512,-1.17,2060
2,-0.2544,-0.5103,-0.8389,0.1059,0.4203,-1.274,2061
2,-0.0403,-0.6318,-0.8657,0.2802,0.3413,-1.2663,2033
2,0.0383,-0.6682,-0.7869,0.4699,0.1799,-1.2702,2071
2,0.0015,-0.7097,-0.7432,0.6269,0.0559,-1.3066,2053
2,-0.051,-0.7576,-0.679,0.7581,-0.0502,-1.3174,2046
2,-0.0461,-0.991,-0.5393,0.957,-0.1851,-1.5366,2043
2,-0.022,-0.9128,-0.3501,1.2331,-0.1808,-1.7069,2049
2,-0.3206,-1.6462,-0.1084,1.0926,0.0246,-1.8877,2023
2,-0.1672,-1.2427,0.0527,0.9136,0.1353,-1.3797,2051
2,-0.3506,-1.0452,-0.0547,0.8344,0.2063,-1.2236,2100
2,-0.2974,-1.0242,-0.1123,0.8264,0.2526,-1.3756,2043
2,-0.2261,-0.9082,-0.168,0.8634,0.1546,-1.338,2045
2,-0.2659,-0.7632,-0.2334,0.8665,0.0591,-1.3157,2033
2,-0.2393,-0.7261,-0.2385,0.9316,-0.0229,-1.3189,2056
2,-0.1997,-0.8577,-0.2029,0.9901,-0.0517,-1.3525,2109
2,-0.0671,-0.8833,-0.1609,1.0287,-0.1061,-1.3644,2032
2,0.0386,-0.9348,-0.1636,0.9977,-0.2673,-1.264,2052
2,-0.001,-0.9578,-0.1685,1.0034,-0.4324,-1.2332,2043
2,-0.1411,-0.7932,-0.1243,1.1461,-0.4589,-1.175,2056
2,-0.2312,-0.8228,-0.0801,1.2366,-0.3056,-1.2513,2054
2,-0.0339,-0.8596,0.0105,1.2649,-0.2703,-1.1882,2032
2,0.0627,-0.8672,0.0898,1.336,-0.4823,-1.1809,2036
2,0.0796,-0.9343,0.0872,1.3595,-0.4916,-1.1232,2062
2,0.1436,-0.9622,0.0999,1.3844,-0.4169,-1.0286,2041
2,0.1709,-0.9495,0.1738,1.3364,-0.4851,-0.8958,2032
2,0.2114,-1.0117,0.2544,1.2404,-0.6691,-0.7665,2034
2,0.3137,-1.1355,0.2639,1.2058,-0.9286,-0.563,2079
2,0.3286,-1.1729,0.2561,1.2323,-1.1288,-0.377,2062
2,0.2627,-1.2476,0.2261,1.1748,-1.4183,-0.0936,2102
2,0.4211,-1.1902,0.2346,1.117,-2.0794,0.3382,2078
2,0.2073,-1.1089,0.2607,1.1148,-2.9114,0.8092,2039
2,-0.1514,-0.9717,0.2795,1.2493,-3.2828,0.651,2085
2,-0.1145,-1.1157,0.3489,1.496,-3.1983,0.3394,2018
2,0.4023,-1.2676,0.3093,1.4913,-3.8934,0.0943,2041
2,0.0117,-1.3342,0.1731,0.6034,-3.3367,-0.239,2055
2,0.6492,-1.178,0.1265,0.5757,-3.825,0.136,2073
2,0.6155,-1.3088,0.1472,-0.2208,-4.3635,-0.149,2104
2,0.8538,-1.0154,0.0232,-0.0324,-4.3635,0.0501,2082
2,0.6379,-1.063,0.4497,0.2461,-4.3635,0.2422,2028
2,0.8457,-1.4438,0.6401,-0.4717,-4.3635,0.0906,2032
2,0.594,-1.125,0.2705,-0.9605,-4.3635,0.4244,2042
2,0.0967,-1.2097,0.3972,-1.1736,-4.3635,0.8553,2048
2,-0.2632,-1.0315,0.9663,-0.6996,-4.3635,0.4249,2066
2,-0.124,-1.0085,1.3252,-1.0351,-4.3635,0.441,2054
2,-0.3679,-0.9607,1.217,-1.3949,-4.3635,0.4416,2022
2,-0.4963,-1.0281,1.0496,-1.6295,-4.3635,0.4943,2043
2,-0.6052,-1.0107,0.8694,-1.8409,-4.3635,0.4655,2050
2,-0.7847,-1.0132,0.7473,-1.8009,-4.3635,0.3844,2051
2,-0.998,-0.9446,0.6062,-1.7089,-4.3635,0.3581,2068
2,-0.9033,-0.8801,0.551,-1.3493,-4.3635,0.5363,2051
2,-0.9861,-0.8972,0.5554,-0.875,-4.0845,1.1479,2072
2,-1.2302,-0.811,0.4832,-0.7608,-3.2002,1.2917,2058
2,-1.1301,-0.8621,0.3789,-0.7946,-2.1622,1.1123,2059
2,-0.9805,-0.8796,0.2773,-0.7131,-1.3754,1.0393,2021
2,-0.8684,-0.9182,0.1572,-0.5617,-0.8321,1.2748,2045
2,-0.8206,-0.8926,0.0322,-0.428,-0.3682,1.4788,2054
2,-0.6475,-0.9016,-0.0645,-0.2741,-0.087,1.4699,2044
2,-0.4009,-0.9275,-0.1287,-0.2161,0.0406,1.4459,2061
2,-0.1958,-0.9421,-0.1853,-0.1328,0.1338,1.4166,2083
2,-0.0408,-0.9656,-0.2034,-0.1346,0.1035,1.3878,2059
2,0.0364,-0.9609,-0.2158,-0.0824,-0.0204,1.4199,2041
2,0.0542,-0.9573,-0.231,-0.0289,-0.2677,1.4291,2036
2,0.1384,-0.9424,-0.2395,0.0137,-0.671,1.3243,2040
2,0.2993,-0.9248,-0.1731,0.0137,-1.1588,1.2511,2066
2,0.4712,-0.9561,-0.1514,-0.0939,-1.6042,1.1666,2069
2,0.522,-1.0034,-0.2627,-0.2326,-1.931,1.0103,2053
2,0.4412,-0.9673,-0.3892,-0.2446,-2.2405,0.752,2048
2,0.2949,-0.8843,-0.356,-0.1426,-2.5264,0.6333,2057
2,0.0449,-0.8481,-0.2373,-0.089,-3.0451,0.4432,2064
2,-0.0122,-0.8904,-0.1384,-0.1732,-3.733,0.0558,2098
2,0.0754,-0.9009,-0.0669,-0.3103,-4.1612,-0.3384,2028
2,0.1433,-0.9275,-0.0393,-0.4654,-4.3381,-0.6225,2048
2,0.1599,-0.9368,-0.0449,-0.6004,-4.3635,-0.8805,2040
2,0.1587,-0.9521,-0.0801,-0.7351,-4.3635,-1.1134,2044
2,0.155,-0.9426,-0.1165,-0.852,-4.3635,-1.2525,2079
2,0.1206,-0.9275,-0.1702,-0.912,-4.3635,-1.3781,2049
2,0.0955,-0.9431,-0.2017,-0.9796,-4.3635,-1.5237,2061
2,0.1062,-0.9792,-0.2148,-1.0536,-4.3635,-1.6432,2021
2,0.1375,-0.9878,-0.197,-1.1179,-4.3635,-1.7235,2037
2,0.134,-1.0042,-0.1531,-1.1922,-4.3635,-1.7733,2035
2,0.1328,-1.0471,-0.1409,-1.3456,-4.3635,-1.8001,2065
2,0.0889,-1.0532,-0.1504,-1.4786,-4.3635,-1.8187,2046
2,0.0464,-1.0808,-0.1628,-1.5631,-4.3635,-1.7985,2057
2,0.0447,-1.0076,-0.1267,-1.6776,-4.3635,-1.7972,2054
2,0.0439,-0.988,-0.0393,-1.8484,-4.3635,-1.8413,2048
2,0.104,-1.0,-0.0142,-1.8761,-4.3635,-1.7045,2054
2,0.0647,-0.8528,0.0229,-1.8203,-4.2056,-1.2601,2042
2,-0.3018,-0.8369,0.1738,-1.766,-4.019,-0.821,2025
2,-0.4387,-0.8064,0.0383,-1.9092,-3.8471,-0.6826,2055
2,-0.3301,-0.8225,-0.0083,-1.6984,-3.4513,-0.5068,2073
2,-0.4226,-0.7825,0.074,-1.5205,-3.1288,-0.2583,2042
2,-0.5503,-0.7141,0.0254,-1.3846,-2.9301,-0.0388,2066
2,-0.6904,-0.5718,-0.0229,-1.2412,-2.294,0.2297,2022
2,-0.8989,-0.3906,0.0144,-0.9064,-1.5222,0.5329,2033
2,-1.1804,-0.2327,0.0791,-0.4814,-0.6123,0.7477,2049
2,-1.3965,-0.1162,0.1707,-0.0246,0.5946,0.8399,2083
2,-1.5405,-0.1355,0.2791,0.43,1.6547,0.779,2040
2,-1.4346,-2.0,0.8069,0.1819,1.6145,-4.2004,2146
3,0.636,-2.0,1.1052,-2.5286,2.0454,-0.1475,2070
3,1.9999,-2.0,-1.4089,-3.1656,2.8493,0.6777,1978
3,1.9999,-0.5828,-2.0,-3.4772,0.2366,0.9299,2052
3,1.9999,-0.6909,1.0281,0.7032,1.584,0.5584,2044
3,-0.1428,-0.7329,0.9553,0.0988,0.6984,2.3519,2079
3,-2.0,-0.4277,-1.1326,-0.8578,-0.801,2.2188,2054
3,-2.0,-0.6709,-1.2664,-0.9472,-1.0752,0.7697,2035
3,-1.0657,-0.9309,-0.3728,-0.4964,-1.382,-0.475,2059
3,-0.8613,-1.1838,0.5168,-1.1497,-1.2497,-0.3882,2039
3,-0.3621,-1.2942,0.3638,-1.3832,-0.1534,-0.222,2049
3,0.0605,-1.0786,-0.0676,-1.1738,1.0951,0.0791,2053
3,0.3584,-0.9429,-0.7104,-0.9351,1.3189,0.3095,2064
3,0.3777,-0.6848,-1.1794,-0.677,0.3629,0.2199,2014
3,0.3445,-0.6946,-1.283,-0.3501,-0.273,0.2461,2044
3,0.1228,-0.8213,-1.2202,0.0198,-0.7589,0.3481,2052
3,0.019,-0.8198,-0.8884,0.2495,-0.9676,0.359,2019
3,-0.3503,-0.8894,-0.5505,0.4528,-0.7067,0.3076,2040
3,-0.6289,-1.0688,-0.3535,0.4521,-0.4781,0.1848,2071
3,-0.7422,-0.9797,-0.3809,0.4992,-0.1451,0.0803,2100
3,-0.5515,-0.9883,-0.4021,0.5666,0.1201,0.0131,2038
3,-0.2773,-0.929,-0.4827,0.6417,0.1092,-0.0281,2058
3,-0.0713,-0.8701,-0.4932,0.7305,0.01,-0.0481,2026
3,0.063,-0.9482,-0.4897,0.8457,-0.2598,-0.0641,2082
3,0.0593,-0.9036,-0.5017,0.9669,-0.4073,0.0168,1970
3,0.0706,-0.8713,-0.5439,1.1291,-0.5975,0.0537,1993
3,0.2473,-0.9695,-0.2927,1.0861,-1.0997,-0.1059,2040
3,0.0903,-0.9004,-0.0623,1.093,-1.1584,-0.0719,2025
3,-0.1013,-0.9136,-0.207,1.1868,-0.7285,0.2701,2041
3,-0.4382,-1.0125,-0.1453,1.1435,-0.6505,-0.0148,2098
3,-0.2629,-0.9521,-0.2026,1.1621,-0.0868,0.1711,2101
3,-0.1543,-1.1392,-0.1506,0.9604,0.3273,0.4651,2078
3,0.3176,-0.9119,-0.2278,1.1251,-0.3598,0.01,2171
3,0.0842,-1.03,-0.0872,0.9307,-0.3807,0.5458,2072
3,-0.1399,-0.9829,0.063,0.7488,-0.5686,0.3398,2021
3,0.209,-1.1001,-0.05,0.7096,-0.3786,0.5958,2019
3,-0.0305,-1.0374,0.1025,0.6461,-0.5276,0.753,1999
3,0.1328,-0.9871,0.1309,0.7156,-0.4883,0.6513,2079
3,0.3105,-1.1104,0.1294,0.6986,-0.5565,0.7758,1951
3,0.3538,-1.1155,0.1602,0.6421,-0.746,0.8775,2260
3,0.3962,-1.1609,0.1748,0.4947,-0.9091,0.9415,1978
3,0.2229,-1.0393,0.1882,0.4303,-0.8432,1.1934,72
3,0.3311,-1.1633,0.1736,0.3127,-1.0986,1.0943,3066
3,0.073,-1.0203,0.1584,0.2135,-0.8514,1.2924,2999
3,0.2014,-1.0891,0.1648,0.1438,-0.8914,1.2386,2463
3,0.2937,-1.0791,0.0222,0.1059,-0.8548,1.3524,2153
3,0.2083,-1.1577,-0.0422,0.0578,-1.033,1.3804,2083
3,0.1921,-1.2158,-0.0427,-0.071,-1.14,1.3782,2109
3,0.165,-1.231,0.0042,-0.1649,-1.2203,1.3685,2064
3,0.3042,-1.199,-0.0559,-0.2883,-1.2729,1.3961,2036
3,0.0088,-1.2388,0.1423,-0.3778,-1.0547,1.3737,2032
3,-0.0837,-1.344,0.4077,-0.577,-1.1543,1.2861,2113
3,-0.2039,-1.0344,0.4187,-0.5995,-0.8082,1.4921,2110
3,-0.2522,-1.052,0.6057,-0.6191,-0.5421,1.5179,2017
3,-0.4783,-1.0527,0.6738,-0.707,-0.3796,1.6057,1997
3,-0.6155,-1.1443,0.6267,-0.8657,-0.3278,1.639,1964
3,-0.5,-1.0581,0.4939,-0.9405,-0.345,1.698,1998
3,-0.3889,-1.0706,0.46,-0.9124,-0.1052,1.7604,2017
3,-0.5034,-1.0762,0.5913,-0.7359,0.1202,1.8804,2078
3,-0.4338,-1.1943,0.7305,-0.6395,0.1248,1.6677,2033
3,-0.1335,-1.259,0.7263,-0.6576,0.3192,1.9194,2421
3,0.022,-1.3564,0.8411,-0.5912,0.1739,2.0046,2053
3,0.4822,-1.6501,1.2295,-0.7669,-0.0571,2.1001,2102
3,0.5793,-1.7417,1.3389,-0.9171,-0.375,2.2244,2106
3,0.4089,-1.7092,1.2437,-1.1464,-0.4846,2.3455,2018
3,-0.2266,-1.7915,1.0791,-1.2789,-0.0509,2.746,2027
3,0.5742,-1.9929,1.0396,-2.0567,-0.0265,2.9811,2009
3,0.6699,-1.3679,0.9116,-1.7946,-0.1947,3.0565,1965
3,0.2927,-2.0,0.4548,-1.8508,-0.8722,2.4709,1997
3,-0.6658,-2.0,-0.2786,-1.7427,-0.7148,3.4979,2108
3,-1.0181,-1.5852,-0.7424,-1.6685,0.3808,3.6603,2138
3,-0.4363,-1.9043,-0.6584,-0.8726,1.3182,2.9283,2095
3,-0.1455,-1.4719,-0.6748,-0.8624,1.7448,2.8964,2174
3,-0.1055,-0.2307,-0.6741,-0.5397,1.2563,2.5316,2107
3,0.2759,1.6807,-0.7769,1.1836,0.2003,1.1176,2022
3,-0.0349,-2.0,-0.876,1.8875,-0.4366,1.0668,1916
3,-1.0815,-0.8936,-1.3188,1.2587,2.0112,1.5308,2072
3,-1.1296,-1.3416,-1.3401,0.9517,3.0652,1.3523,2174
3,-0.7891,-0.687,-1.1938,0.4907,1.7604,0.9556,2025
3,-0.3369,-0.7566,-1.1208,0.0904,-0.1057,0.2848,2022
3,-0.2056,-0.4885,-0.9075,0.1919,-1.449,-0.4116,1987
3,0.2139,-0.1013,-0.5044,0.2386,-1.8474,-1.2687,2022
3,0.342,-0.1716,-0.2871,-0.0189,-1.7615,-2.3633,2634
3,0.0027,0.1951,-0.2727,-0.5658,-1.0211,-2.8834,2112
3,-1.0063,0.3484,-0.6868,-0.2951,-0.1405,-3.499,1884
3,0.0183,0.4644,-0.8052,1.5422,1.7034,-4.3635,1885
3,0.8093,0.1086,-0.7954,3.4929,1.8365,-3.3585,1989
3,0.803,-0.4524,-0.7517,2.4514,1.3657,-3.2551,2035
3,-0.4478,-0.3337,-0.7305,2.3519,0.2083,-2.4213,2009
3,0.3254,0.0234,-0.5786,2.4693,-0.5175,-3.0375,2032
3,0.1619,0.1909,-0.4031,2.1618,-0.0293,-3.4468,2018
3,0.2996,0.2258,-0.2234,2.7697,0.2509,-3.9724,2052
3,-0.0212,-0.5256,-0.0818,3.2353,0.2529,-4.3033,2067
3,-0.0811,-0.6245,0.0315,3.1018,0.1432,-4.3635,2033
3,-0.3188,-0.4509,-0.2922,3.0424,-0.0146,-4.3635,2054
3,-0.5171,-0.4417,-0.7141,2.8763,-0.0902,-4.3635,2037
3,-0.7639,-0.4229,-1.0195,2.8562,0.0776,-4.3635,2066
3,-1.0867,-0.4683,-1.241,2.9608,0.4806,-4.3635,2022
3,-1.115,-0.6116,-0.9763,2.9433,0.683,-4.3635,1953
3,-0.7275,-0.613,-0.5137,2.4654,0.7416,-4.3635,2019
3,-0.3008,-0.9263,-0.1016,1.8937,1.7519,-4.3635,2107
3,0.2935,-0.9688,-0.1711,1.9313,2.0631,-4.3635,2048
3,0.4036,-0.9722,-0.6868,2.9019,1.3312,-4.215,2039
3,-0.0601,-1.7957,-0.9834,2.718,-0.4902,-3.9125,2068
3,-0.1091,-2.0,0.0129,2.2152,-1.2982,-2.9849,2078
3,-0.6033,-1.9338,-1.0425,1.1035,-1.4492,-2.8497,2074
4,-1.2615,-2.0,-0.4644,-0.8661,0.4317,-2.2814,2008
4,0.2139,-0.3262,0.0867,-0.7684,1.2669,-1.4171,2050
4,-0.5857,-1.5232,0.1023,-1.3026,1.1754,0.0,2075
4,-2.0,-1.6062,0.2573,-2.8433,1.2736,1.7964,2021
4,-2.0,-1.6873,0.9868,-1.914,2.1542,3.558,1975
4,-2.0,-2.0,1.9999,-2.7199,2.3645,2.9837,2083
4,1.9999,-1.7661,1.9999,-4.3635,0.335,3.9992,2164
4,-1.6826,1.2942,1.6909,-4.192,1.0505,-0.3097,2025
4,-1.5269,-0.9451,0.6069,-0.1731,4.3634,-0.6389,2080
4,0.689,-0.2034,-1.1172,-4.3635,4.3634,0.8283,1922
4,-0.2249,-0.249,-2.0,-4.3635,4.3634,1.9511,2113
4,0.2422,0.1016,-2.0,-4.3635,-0.7951,1.0657,1973
4,0.498,-0.0415,-1.5613,-0.8934,-4.3635,0.5104,2009
4,1.0544,-0.6997,0.2852,-0.2461,-2.6216,0.9613,2020
4,-0.2808,-1.3682,0.8569,-0.4858,-2.2285,1.8298,2024
4,-1.3284,-1.2061,0.3723,-0.3167,-1.0413,1.5431,2031
4,-1.759,-1.0562,-0.2478,-0.0376,1.8674,2.0121,2016
4,-1.7056,-0.9573,-1.0674,-0.3932,1.5177,1.3728,1951
4,-0.7507,-0.6868,-1.5635,0.0902,-0.2077,0.3374,2140
4,-0.4644,-0.6699,-1.4924,0.0866,-0.7187,0.1031,2018
4,0.4277,-0.7327,-1.4182,1.1393,-0.5014,-0.0784,2037
4,1.1465,-0.748,-0.3645,1.2023,0.8373,0.6839,1942
4,0.8274,-0.875,-0.3499,1.2208,0.1083,0.9961,2182
4,-0.0652,-0.9546,-0.7422,1.9795,-0.9204,0.8437,2009
4,-0.9468,-1.1143,-0.0525,1.1114,-1.2203,0.4163,1906
4,-0.7336,-1.1257,0.0049,1.033,-0.5665,0.3043,1917
4,-0.269,-1.0496,0.0039,1.2226,0.1194,0.5028,2158
4,-0.2737,-1.0569,0.1807,1.203,0.1594,0.5706,1917
4,-0.1543,-1.1145,0.1899,1.0765,-0.0431,0.6267,2016
4,-0.0161,-1.1108,0.2542,0.9104,-0.2752,0.4928,1988
4,0.1396,-1.2419,0.261,0.766,-0.3221,0.2079,2012
4,-0.0356,-1.0876,0.374,0.667,-0.2666,0.1013,2045
4,-0.0403,-1.1372,0.1665,0.7854,-0.3858,0.0161,2100
4,0.0618,-1.0125,0.2339,0.6757,-0.4847,0.1076,1987
4,-0.0889,-1.0847,0.4565,0.7024,-0.481,0.2999,1950
4,0.2312,-1.134,0.0715,0.4715,-0.5939,0.4649,1812
4,-0.0247,-0.9644,0.428,0.2633,-0.3827,0.4797,1920
4,-0.426,-1.0715,0.5432,0.554,-0.1272,0.4573,2025
4,-0.1348,-1.1707,0.666,0.3844,0.2561,0.6485,2835
4,0.1519,-1.0581,0.4575,0.0939,0.3521,0.8953,1728
4,0.1289,-1.0588,0.4458,0.0575,0.5518,1.0969,2100
4,0.1851,-1.3091,0.3428,-0.0358,1.0958,1.6484,2209
4,0.697,-1.2317,0.3069,-0.2071,0.9975,1.4446,1983
4,0.9812,-1.3262,0.2234,-0.3494,0.8202,1.7831,2012
4,0.7993,-1.2778,0.0977,-0.4268,0.524,1.8624,2040
4,0.9497,-1.3467,0.0608,-0.5044,0.3731,2.0531,2044
4,0.8945,-1.3633,0.0896,-0.577,0.1222,2.217,2040
4,0.8711,-1.2935,0.1311,-0.6339,-0.0294,2.3915,2058
4,0.5967,-1.2795,0.1863,-0.6127,-0.1908,2.5835,2028
4,0.3894,-1.2056,0.2151,-0.5794,-0.289,2.6978,2052
4,0.2327,-1.072,0.366,-0.5014,-0.3252,2.904,2024
4,0.1731,-0.928,0.4392,-0.3706,-0.2131,3.2875,2034
4,0.2505,-0.9004,0.5122,-0.247,-0.0683,3.7736,2073
4,0.345,-1.1357,0.5139,-0.1458,0.1432,4.3634,2048
4,0.875,-1.5217,0.6294,-0.0643,-0.0142,4.3221,2029
4,1.0662,-1.9658,0.6575,-0.32,0.143,4.0519,2052
4,1.3557,-2.0,0.6028,-0.5769,-0.1633,3.1933,2052
4,1.5947,-2.0,0.7092,-1.0666,-0.8629,2.9452,2027
4,1.9999,-2.0,0.262,-1.287,-2.7884,2.4348,2077
4,1.9999,-1.3589,0.2468,-0.8481,-3.4947,2.8494,2051
4,-0.4177,-2.0,0.7253,-1.8744,-3.52,3.8498,2048
4,-1.4946,-2.0,0.2336,-1.2159,-2.0423,4.1664,2073
4,-0.9917,-1.0881,-0.2466,-2.0281,-0.4389,3.9578,2055
4,-0.6494,-0.7222,-0.2244,-1.2663,0.3669,3.3927,2068
4,-0.6936,1.5352,-0.2278,1.0798,-0.0818,2.0707,2083
4,-2.0,-2.0,-0.1643,1.5522,1.0636,2.7074,2050
4,-2.0,-2.0,-0.5774,0.8472,4.3634,2.186,2008
4,-1.9473,-1.2822,-0.6953,-0.716,4.3634,0.7745,2115
4,-1.8784,-1.5864,-0.7024,-1.1254,4.3634,-0.143,2042
4,-1.2817,-1.0146,-0.3513,-1.2307,4.3634,-1.0364,2044
4,-0.4897,-0.4612,-0.2388,-1.9445,3.4275,-2.1355,2042
4,0.248,0.1194,-0.1084,-2.049,2.2509,-2.3924,2047
4,0.0876,-0.0371,0.1335,-2.1706,1.3675,-2.0929,2072
4,0.0308,0.2544,0.4531,-2.761,0.5746,-1.621,2028
4,-0.2834,0.3796,0.2583,-3.1625,0.5779,-1.3917,2099
4,-0.54,-0.4053,0.0171,-1.2431,0.8549,-3.2064,2040
4,-0.0803,-0.0769,-0.167,1.1656,1.5833,-4.3635,2072
4,0.4224,0.0674,-0.1162,1.3122,2.3169,-4.3635,2029
4,0.5698,-0.2561,-0.48,0.652,2.2415,-4.3635,2030
4,0.0464,-0.2595,-0.6689,0.9492,1.3544,-3.839,2052
4,-0.1936,-0.0764,-0.6228,1.6183,0.155,-3.8901,2060
4,-0.3459,-0.136,-0.4768,2.4823,-0.8204,-4.3635,2055
4,-0.281,0.2263,-0.1819,3.3537,-1.396,-4.3635,2047
4,-0.2256,0.1453,-0.0256,3.4865,-1.5731,-4.3635,2065
4,-0.0076,-0.0186,0.1465,3.5758,-0.9645,-4.3635,2022
4,-0.0374,-0.1394,0.3723,3.5513,-0.1988,-4.3635,2075
4,-0.2258,-0.1921,0.3252,3.4627,0.2348,-4.3635,2042
4,-0.3691,-0.2356,0.1616,3.5789,0.4342,-4.3635,2072
4,-0.7815,-0.4033,-0.0281,4.1077,0.8891,-4.3635,2024
4,-1.1333,-0.4966,-0.1875,4.3634,1.1206,-4.3635,2031
4,-1.3152,-0.3689,-0.2063,4.3634,1.1951,-4.3635,2057
4,-1.3398,-0.4526,-0.1934,4.3634,1.1103,-4.3635,2035
4,-1.0122,-1.1638,-0.2134,4.3634,1.1484,-4.3635,2037
4,-0.4041,-2.0,-0.1995,4.3634,1.5613,-4.3635,2039
4,0.4624,-1.8652,-0.342,3.7105,1.7391,-3.5427,2059
4,0.3447,-1.3235,-0.4343,3.8251,1.5511,-3.2312,2047
4,0.415,-1.7681,-0.4204,3.7075,1.1389,-2.8803,2025
4,0.0308,-1.7886,-0.2979,3.6575,0.1377,-2.2988,2034
4,-0.8706,-1.967,0.3101,2.2678,-0.9399,-1.955,2043
4,-0.8281,-2.0,0.6729,0.6103,-0.5814,-1.7531,2039
4,-0.6721,-1.6648,0.5422,-0.7995,1.2784,-0.8432,2076
4,-0.7266,-1.5054,0.1599,-1.2812,1.4676,0.6207,2079
4,-0.5635,-2.0,0.0039,-1.7151,0.4926,1.6788,2071
5,1.9999,-2.0,-0.6311,0.0921,-2.2166,0.4806,2010
5,-2.0,0.2854,0.6309,-4.3635,2.4354,3.3583,2030
5,1.9639,-1.5195,1.7603,-3.407,0.5409,3.8157,2132
5,1.9999,-0.6868,1.7241,-1.4729,-0.9443,1.867,2099
5,1.9999,-2.0,1.9999,1.8579,0.5703,0.2884,1977
5,1.8645,-2.0,1.6252,0.8915,4.3634,3.1336,2028
5,-2.0,-0.1665,-1.4915,-4.3635,4.3634,3.4501,2055
5,-2.0,-2.0,-2.0,-4.3635,3.0834,1.4491,2051
5,0.374,0.9585,-2.0,-4.3635,-3.6515,0.8849,2153
5,-0.4722,0.7278,-1.7485,-4.0909,-2.7952,1.0451,2009
5,-0.0491,-0.6763,-0.5376,-2.8458,-1.7142,0.7522,2044
5,0.2144,-1.0808,-0.3777,-2.546,-1.9848,1.5046,2039
5,-0.762,-1.3911,-0.1958,-2.8742,-0.7617,1.7681,2080
5,-0.8459,-0.6978,-0.1543,-2.014,-0.2396,2.0058,2083
5,-1.1362,-0.6304,-0.2732,-2.0506,0.8738,1.8417,2101
5,-0.9497,-0.7427,-0.6165,-1.5203,1.0593,1.3424,2098
5,-1.2744,-0.8669,-0.7546,-0.7897,0.1928,0.8645,2026
5,-0.9207,-0.7268,-0.8228,-0.4221,-0.4188,0.1996,2039
5,-0.2043,-0.7527,-0.8591,-0.2177,-0.3281,0.1264,2027
5,0.1384,-0.8662,-0.6411,0.1595,-0.3484,0.2591,2034
5,0.2856,-0.9346,-0.3059,0.3843,-0.3414,0.4127,2044
5,0.427,-1.0005,-0.2336,0.7299,-0.2261,0.6391,2048
5,0.2722,-0.9736,-0.2227,0.9994,-0.3003,0.7789,2046
5,-0.168,-0.969,-0.2837,0.9228,-0.6678,0.6522,2034
5,-0.2444,-0.9309,-0.3296,0.9853,-0.7252,0.4432,1965
5,-0.0989,-0.8965,-0.0122,0.8694,-0.3461,0.4026,2126
5,0.249,-0.9788,0.0498,0.7379,-0.0775,0.3695,2006
5,0.2747,-0.9983,-0.0588,0.8975,-0.0586,0.4345,1977
5,0.0889,-0.9609,-0.031,0.8034,-0.3625,0.333,2074
5,-0.0176,-1.0349,0.136,0.6802,-0.6055,0.293,2048
5,0.2251,-0.9741,0.2185,0.5585,-0.5098,0.2956,2110
5,0.2195,-1.0366,0.3198,0.3445,-0.2515,0.5585,2292
5,0.0015,-0.9983,0.3455,0.2522,-0.33,0.4382,1727
5,0.0674,-1.1499,0.373,-0.0049,-0.3488,0.5394,2314
5,0.0552,-1.0789,0.4412,-0.07,-0.3928,0.5079,2162
5,0.0349,-1.1694,0.4968,-0.2043,-0.0096,0.666,2030
5,0.2944,-1.2568,0.4341,-0.4524,0.1898,0.9519,1990
5,0.3362,-1.0532,0.4253,-0.7296,0.2626,1.4808,2213
5,0.2581,-1.1445,0.3625,-0.8396,0.1169,1.4739,2072
5,0.2024,-1.1707,0.3323,-0.8433,0.0955,1.376,2041
5,0.3445,-1.1689,0.2876,-0.874,0.1238,1.4631,2054
5,0.2341,-1.0713,0.2244,-0.9401,-0.0297,1.4809,1911
5,0.1921,-0.9558,0.2126,-0.9765,-0.0549,1.5516,2286
5,0.3342,-1.0176,-0.0312,-0.9986,-0.0956,1.6454,2039
5,0.4495,-0.9536,-0.0793,-1.0568,-0.1249,1.6992,2041
5,0.1187,-1.0852,-0.0708,-0.9977,-0.3187,1.7076,2054
5,-0.0813,-1.1458,0.0813,-0.942,-0.3674,1.8502,1989
5,0.1257,-1.3584,0.1104,-0.9214,-0.2601,1.9923,2165
5,0.2622,-1.4399,0.2229,-0.9678,-0.3793,2.0217,1974
5,0.3335,-1.491,0.2229,-1.0543,-0.4482,2.2069,2075
5,0.4053,-1.4766,0.2856,-1.1428,-0.5742,2.3481,2050
5,0.4238,-1.5442,0.2683,-1.2192,-0.6536,2.4582,2035
5,0.425,-1.6208,0.3582,-1.2818,-0.7419,2.5896,2106
5,0.4043,-1.5991,0.4331,-1.309,-0.8317,2.624,2060
5,0.4351,-1.5845,0.5703,-1.403,-0.7998,2.6657,2037
5,0.5918,-1.6147,0.6355,-1.4476,-0.6982,2.7176,2041
5,0.7703,-1.5374,0.6965,-1.4146,-0.7977,2.9257,2101
5,1.1287,-1.3799,0.8083,-1.3027,-0.805,3.2567,2012
5,1.1187,-1.3054,0.9224,-1.0159,-1.0682,3.1162,2021
5,1.1768,-1.6721,1.2104,-0.8316,-1.3693,2.0005,2020
5,1.542,-2.0,1.2104,-1.0065,-2.5405,1.8233,2062
5,1.9999,-2.0,0.6436,-2.0001,-4.3635,2.8229,2068
5,1.8533,-1.7402,-0.2168,-2.0048,-4.3635,3.1766,2031
5,-1.2302,-1.6416,-0.3298,-2.383,-3.7165,4.3634,2067
5,-1.9744,-1.6724,-0.2112,-1.5307,-2.9317,4.3634,2069
5,-0.4963,-1.3079,-0.6384,-1.3665,-1.439,3.3053,2063
5,-0.4143,1.5537,-0.7273,0.2048,-0.9815,1.7371,2050
5,-0.9646,-1.6499,-0.7329,1.0941,-1.2368,2.8229,2014
5,-2.0,-2.0,-0.9172,-0.021,0.7986,2.4519,2051
5,-2.0,-0.896,-1.0066,-0.4478,2.2254,1.6558,2065
5,-2.0,-1.0916,-0.8469,-0.575,2.1409,0.4361,2055
5,-1.6287,-0.4753,-0.7939,-0.8925,2.1655,-0.2898,2065
5,-1.0918,-0.1965,-0.6775,-0.8066,1.9626,-1.0822,2063
5,-0.6021,0.2654,-0.5989,-0.7913,2.3157,-1.7458,2030
5,-0.5962,0.4248,-0.3655,-0.7661,3.0339,-2.0691,2033
5,-0.7283,0.5933,-0.1162,-0.5026,3.7265,-2.0928,2050
5,-0.4993,0.3472,-0.0513,0.8955,3.9835,-2.5075,2050
5,-0.093,0.1833,-0.0493,2.2981,3.6274,-3.2098,2019
5,0.0466,0.1633,-0.1431,2.6127,3.2216,-3.3396,2072
5,-0.3479,0.5811,-0.4495,2.8139,3.1863,-3.2533,2055
5,-0.7886,0.0212,-0.356,2.8504,3.4017,-2.7968,2031
5,-0.2424,0.8108,-0.3225,3.6822,3.3339,-3.4629,2043
5,-0.2556,0.0081,-0.2332,4.2166,3.0502,-3.6595,2082
5,0.6807,0.1995,0.071,3.0778,2.7518,-4.3635,2065
5,0.6453,0.5422,-0.259,2.5863,2.5478,-3.8029,2027
5,0.113,0.1807,-0.2024,3.7207,1.4249,-4.0265,2062
5,-0.0171,-1.0627,0.1929,3.9327,0.6976,-4.0777,2030
5,0.8633,-0.1785,0.197,4.021,-0.5163,-4.1603,2068
5,-0.1982,-0.333,0.3516,3.8791,-0.7044,-4.3635,2058
5,-0.4114,-0.4119,0.1501,3.5432,-0.907,-4.3635,2065
5,-0.6797,-0.4773,-0.1775,4.3634,-0.7473,-4.3635,2031
5,-0.9724,-0.9055,-0.2104,4.3634,-1.0264,-4.3635,2045
5,-1.2791,-1.0801,-0.3362,4.3634,-1.0788,-4.3635,2018
5,-1.1196,-1.02,0.1233,3.7018,-0.6883,-4.3635,2047
5,-0.6074,-1.3486,0.1392,3.8793,0.1697,-4.3635,2044
5,0.8445,-1.3096,0.1182,4.148,0.5915,-4.3635,2098
5,-0.0496,-1.9912,-0.1338,4.2904,-0.3755,-3.927,1995
5,0.1226,-2.0,-0.219,3.7047,-1.4352,-3.4065,2038
5,0.3857,-2.0,0.0576,3.3114,-1.7129,-3.2074,1969
5,-0.0146,-2.0,0.4636,2.5021,-1.0058,-3.4528,2059
6,-0.219,-1.7822,0.5576,2.0521,-0.9692,-2.8316,1998
6,-0.3711,-1.6733,0.3149,1.3497,-1.0979,-1.5912,2120
6,-0.7249,-1.9834,0.1504,0.2573,-0.8682,-0.4014,2045
6,-0.8179,-1.7969,0.0181,-0.5472,-0.7838,0.3053,2149
6,-0.4529,-1.7449,0.0203,-1.3908,-0.5042,1.0496,2101
6,-0.4443,-1.6812,-0.0457,-2.0778,-0.2511,1.6408,2020
6,-0.4504,-1.4783,-0.1611,-2.6077,0.1297,2.084,2056
6,-0.4419,-1.6057,-0.3359,-2.9207,0.2525,2.4739,2060
6,-1.9746,-2.0,-0.6228,-4.3635,2.6975,2.3674,1979
6,0.094,0.4414,0.4224,-3.5852,2.4864,3.1247,2055
6,0.3901,-0.8857,1.4421,-2.5436,0.9132,3.0993,2064
6,0.824,0.2058,1.0234,-1.8832,0.0293,1.6534,2040
6,-1.6406,-2.0,0.3752,-0.9212,3.8157,1.7159,2011
6,-0.178,0.1921,0.3076,-0.8585,3.874,1.65,2023
6,-0.335,0.7715,-0.4688,-1.8341,3.8143,1.2368,2070
6,-0.0413,-1.1553,-0.1331,-1.3137,2.1973,0.8914,2059
6,0.0442,-2.0,0.4514,-2.7581,1.7712,0.2421,2055
6,1.9999,-2.0,0.3071,-4.3635,0.3308,0.3952,2107
6,1.9999,0.2139,-1.1245,-4.3635,-0.5243,2.6369,2055
6,0.2612,1.3862,0.0239,-2.1457,-0.0389,3.6166,2012
6,-2.0,-0.3657,1.0168,-2.6034,0.7007,3.173,2098
6,-1.9709,-0.8555,-0.0635,-3.9568,2.1514,2.2575,2085
6,-0.584,-0.5022,-0.4373,-3.7062,0.9773,1.8837,2172
6,-1.3191,-0.429,-0.5857,-3.8234,-0.2513,2.0261,2736
6,-0.6787,-0.7954,-0.7102,-3.1211,-0.3818,0.6911,1942
6,-0.2434,-1.1262,-0.0435,-1.5707,0.4678,1.0231,1697
6,-0.7871,-0.9451,-0.397,-0.9732,0.4333,1.3288,2148
6,-1.0366,-0.5081,-1.29,-0.4871,0.2262,1.3711,2028
6,-0.552,-0.5439,-1.3982,-0.1623,0.516,1.1093,2062
6,-0.5127,-0.6995,-1.0886,-0.0684,-0.2173,0.6071,2113
6,-0.3445,-0.6597,-1.0708,-0.0349,-0.6668,0.2523,2047
6,-0.3352,-0.7502,-1.0989,0.4401,-0.3597,0.4099,2077
6,-0.4211,-0.7905,-0.9163,0.7211,-0.2535,0.3579,2032
6,-0.2715,-0.8005,-0.8894,0.9472,-0.07,0.3412,2014
6,-0.1875,-0.873,-0.8123,1.1977,-0.0671,0.3366,2077
6,-0.2341,-0.8376,-0.6023,1.3027,-0.3344,0.249,2020
6,-0.2312,-0.8723,-0.4924,1.4169,-0.508,0.1079,2040
6,-0.2434,-0.9268,-0.375,1.5716,-0.5239,0.0517,2059
6,-0.0847,-0.8838,-0.2598,1.7203,-0.3645,0.0057,2036
6,0.0833,-0.8962,-0.1882,1.911,-0.2999,0.0882,2164
6,0.0823,-0.9451,0.0681,1.7202,-0.5845,-0.0001,2130
6,0.0308,-1.01,0.1135,1.7153,-0.7656,-0.1124,2069
6,-0.1042,-0.99,0.3923,1.4414,-0.7927,-0.1506,2138
6,-0.2588,-1.3152,0.7112,1.1452,-0.23,-0.2947,1798
6,-0.1904,-0.9712,0.542,1.3202,-0.3956,-0.3855,2028
6,-0.3025,-1.2163,0.5437,0.665,0.3727,0.1969,1983
6,0.1802,-1.1763,0.6028,0.3918,-0.0594,0.0052,2032
6,0.0896,-1.001,0.3962,0.4159,-0.0129,0.293,1933
6,0.2993,-1.0415,0.3491,0.0254,0.0453,0.4566,1989
6,0.342,-1.1057,0.3792,-0.174,0.0221,0.5259,2192
6,0.2703,-1.1443,0.4731,-0.4619,-0.0892,0.6584,1927
6,0.1177,-1.2029,0.3987,-0.5429,-0.0131,0.856,1996
6,0.1663,-1.2695,0.2986,-0.4866,-0.137,0.8295,2290
6,0.1631,-1.1377,0.3452,-0.5647,-0.0103,1.0296,1905
6,0.1355,-1.1067,0.3625,-0.8099,-0.0099,1.3696,2031
6,0.1826,-0.9871,0.332,-0.8837,0.1214,1.5842,1953
6,0.1787,-0.9954,0.0979,-0.7881,0.2808,1.68,2053
6,0.4026,-1.1455,-0.0989,-0.6759,0.1995,1.6747,2096
6,0.5908,-1.1682,-0.2764,-0.8324,-0.0874,1.7452,2321
6,0.3506,-1.1541,-0.2231,-0.9764,-0.2601,1.7128,2157
6,0.2634,-1.2036,-0.2388,-0.908,-0.4785,1.742,2303
6,0.4329,-1.3003,-0.2642,-0.9255,-0.6303,1.8169,2075
6,0.2512,-1.3191,0.0886,-1.0677,-0.7746,1.9148,2019
6,0.1921,-1.4519,0.2422,-1.0423,-0.8063,2.0327,2001
6,-0.0544,-1.4246,0.1497,-1.0673,-0.8115,2.1473,2122
6,0.0042,-1.3235,0.2759,-1.0878,-0.6403,2.3033,2018
6,-0.0349,-1.3528,0.241,-0.9357,-0.4705,2.4755,2129
6,-0.1238,-1.4758,0.1931,-0.8995,-0.2449,2.5531,2032
6,0.1292,-1.6326,0.1831,-0.9673,-0.1479,2.5432,2188
6,0.2856,-1.5581,0.2705,-0.9348,-0.0688,2.5318,2026
6,0.5476,-1.4783,0.3716,-0.9851,0.0522,2.5468,2099
6,0.7932,-1.4548,0.5469,-0.9549,-0.0431,2.7024,2049
6,1.1589,-1.0989,0.6316,-0.8677,-0.4964,2.9271,2005
6,0.9607,-1.3374,0.7808,-0.6831,-1.3768,2.3981,2054
6,1.3245,-1.3669,0.7329,-0.3107,-2.806,1.7444,2057
6,1.1416,-1.5947,0.8142,-0.0489,-3.9655,1.6623,2014
6,0.3567,-1.8757,0.624,0.0032,-4.3635,2.2122,2059
6,0.042,-2.0,-0.1265,-0.6529,-4.2413,1.6102,2099
6,-0.6904,-1.8264,0.0586,-1.6619,-2.6694,2.8135,1993
6,-1.4988,-2.0,-0.0503,-2.3559,-2.549,2.7839,2098
6,-0.533,-1.8181,-0.1768,-2.6291,-2.5996,2.5484,2075
6,-0.4453,0.0081,-0.2595,-1.8214,-3.2283,1.8676,2063
6,0.3877,-1.0627,-0.1826,-0.2677,-3.7018,1.7628,2098
6,-2.0,-2.0,-0.8674,-2.3242,0.4822,2.7504,2067
6,-2.0,-0.9612,-1.0088,-3.2276,2.8763,2.0509,2038
6,-1.7722,-1.5859,-0.5586,-4.0142,2.002,1.4134,2011
6,-0.1138,-0.2898,-0.1738,-4.2049,0.5277,1.2845,2115
6,-0.3066,0.2407,-0.1262,-4.3635,0.469,1.3672,2128
6,-0.4812,-0.8423,-0.4622,-3.7982,-1.3062,0.9067,2039
6,-0.7607,0.1912,0.1609,-4.0992,-0.0056,2.0971,2042
6,-1.4941,-0.1948,-0.2397,-4.3635,0.9409,1.1362,2017
6,-1.2451,-0.229,-0.2209,-2.3027,2.3975,-0.5315,2035
6,-0.3088,-0.0034,0.0056,-1.1732,2.2979,-1.7562,2027
6,-0.2598,-0.0046,0.0957,-0.6669,1.647,-1.4426,2004
6,-1.0686,0.343,0.1655,-0.5168,1.4459,-1.5324,2075
6,-0.9185,0.3967,0.1946,-0.6227,1.4747,-2.027,2004
6,-0.6663,0.3179,0.2214,-0.337,1.757,-2.5345,2073
6,-0.5378,0.3354,0.2783,-0.0409,1.8275,-2.9858,2059
6,-0.5073,0.259,0.2842,0.1675,1.8425,-3.4714,2108
6,-0.365,0.1958,0.2717,0.5409,1.9674,-3.9538,2020
6,-0.1731,0.2327,0.2849,1.0267,1.9698,-4.3603,2051
6,-0.1453,0.2705,0.3027,1.2557,1.9626,-4.3635,2058
6,-0.1155,0.3435,0.207,1.2866,2.0297,-4.3635,2104
7,-0.0481,0.3811,0.0583,1.4109,2.1012,-4.3635,1992
7,-0.0674,0.3657,-0.0632,1.6881,2.0483,-4.3635,2082
7,-0.1287,0.3562,-0.0903,2.0833,1.8941,-4.3635,2078
7,-0.1321,0.3401,-0.0803,2.414,1.7735,-4.3635,2030
7,-0.0894,0.2881,-0.1062,2.692,1.6526,-4.3635,2032
7,-0.0916,0.2349,-0.2078,3.1134,1.5958,-4.3635,2043
7,-0.0781,0.1572,-0.2769,3.6222,1.5717,-4.3635,2019
7,-0.167,0.0481,-0.2664,4.2924,1.6291,-4.3635,2026
7,-0.3853,0.0618,-0.4224,4.3634,1.7695,-4.3635,2007
7,-0.4802,-0.106,-0.1812,4.3634,1.6358,-4.3635,1943
7,-0.5601,-0.4431,0.0168,4.3634,1.4528,-4.3635,2098
7,-0.3452,-1.0508,-0.1538,4.3634,1.6708,-4.3635,2066
7,0.2883,-1.801,-0.5259,4.3634,1.3005,-4.3635,2064
7,0.6816,-2.0,-0.9343,4.3634,0.0296,-4.0595,2066
7,0.2883,-2.0,-1.1101,4.2249,-1.0729,-2.9442,2040
7,-0.4922,-2.0,-0.9104,3.0957,-2.2758,-2.2992,2043
7,-0.885,-2.0,-0.6384,1.6627,-2.0172,-1.5667,2082
7,-0.2458,-1.709,-0.3831,0.7533,-0.7345,-0.0914,2059
7,-0.9165,-2.0,-0.1621,-0.329,-0.8327,-0.0547,2072
7,-2.0,-2.0,0.1453,-2.9536,0.4778,-3.577,2105
7,-0.115,1.9999,-0.0005,-1.8868,2.4699,3.2656,2084
7,-2.0,-2.0,0.7014,-1.8437,2.1743,2.4011,2002
7,-0.5056,-2.0,1.9999,-3.8656,0.0846,2.2907,2134
7,1.9999,-2.0,1.9999,-3.075,2.8839,1.2688,2130
7,1.9999,-1.9771,0.8816,1.666,4.3634,2.041,1982
7,-0.6643,1.3867,0.4905,-0.3864,4.3634,4.0511,2083
7,-2.0,0.1304,-1.4424,-1.5551,4.3634,2.9809,2051
7,-2.0,-1.9746,-1.5781,-2.546,1.0226,1.4167,2047
7,0.1924,-0.3376,-1.5645,-4.3635,-0.887,0.9043,2262
7,0.1865,-0.0188,-2.0,-4.3635,-1.001,1.4663,1983
7,-0.2383,-0.4219,-1.1509,-2.9208,-1.6696,0.9573,1790
7,-0.2986,-1.3215,-0.4541,-1.6715,-1.2043,1.0561,2122
7,0.0107,-1.052,0.0374,-0.6753,-0.2946,1.427,2172
7,-1.0403,-1.21,0.1956,-0.7011,-0.0306,1.843,2982
7,-1.3809,-0.9968,0.2317,-0.8672,-0.2073,1.2561,933
7,-1.5818,-1.1582,0.1055,-1.0545,-0.4397,0.7148,1729
7,-1.5056,-1.1455,-0.1514,-1.228,-0.7094,-0.0039,1987
7,-0.9998,-0.8792,-0.5828,-1.0852,-0.4067,-0.3579,2067
7,-0.0659,-0.7964,-0.8394,-0.7071,0.3408,-0.2968,2069
7,0.4783,-0.7732,-0.8938,-0.2573,0.7247,-0.0565,2104
7,0.8796,-0.7388,-0.9709,0.0345,0.4782,0.172,2150
7,0.9587,-0.6858,-1.0181,0.2316,0.0987,0.3659,2047
7,0.6853,-0.6323,-1.0435,0.4943,-0.3031,0.4469,2053
7,0.4321,-0.6287,-0.9756,0.6855,-0.7126,0.4233,2054
7,0.2932,-0.9854,-0.6394,1.121,-0.9453,0.3065,2047
7,-0.2275,-0.9456,-0.2324,1.8747,-0.8778,0.3587,2052
7,0.1187,-0.6228,-0.3381,0.6566,-0.6317,0.6641,2024
7,0.0295,-1.2471,0.4644,1.415,-1.1539,0.1137,1944
7,-0.4314,-0.9487,0.6318,1.0264,-1.3334,0.1077,2147
7,-0.437,-1.0564,-0.1963,-0.1681,-0.1107,0.4847,2121
7,-0.1704,-0.6877,-0.2107,-0.0201,-0.0226,0.11,1958
7,0.6335,-1.0505,0.2957,0.7845,-0.8333,0.2388,2114
7,0.1973,-1.2451,0.0681,0.3611,-0.4437,0.3101,1967
7,0.3574,-0.8792,-0.3186,0.2338,0.5522,0.5269,2099
7,0.3738,-0.9136,-0.4065,0.4027,0.3456,0.6052,2043
7,0.3623,-0.9568,-0.2207,0.7861,0.0863,0.5461,2024
7,0.2603,-1.0176,-0.1851,0.7449,-0.0682,0.3793,2075
7,-0.1287,-0.9006,-0.301,0.6534,-0.0943,0.3745,1988
7,-0.2812,-0.876,-0.3127,0.7388,0.0521,0.4109,1933
7,-0.1958,-1.0208,-0.0444,0.7685,0.0031,0.3167,2036
7,-0.1394,-1.0757,0.0405,0.8187,-0.1775,0.1774,1917
7,-0.092,-1.009,0.0061,0.7787,-0.0723,0.2851,2283
7,-0.0085,-1.0552,0.2041,0.5296,-0.0517,0.4392,2073
7,0.4238,-1.156,0.3564,0.2095,0.0906,0.842,1997
7,0.6992,-1.1829,0.6492,-0.128,0.4208,1.234,1885
7,0.8311,-1.1658,0.6719,-0.3878,0.524,1.468,2689
7,0.9307,-1.2424,0.6135,-0.6456,0.5802,1.3485,2005
7,0.7695,-1.2278,0.3022,-0.7727,0.7046,1.6641,1712
7,0.6711,-1.1238,0.1123,-0.8795,0.4647,1.9639,1942
7,0.5698,-0.9966,-0.1201,-0.8764,0.1027,2.2017,2437
7,0.4531,-1.0037,-0.1731,-0.8983,-0.1316,2.3396,1882
7,0.3145,-1.0181,-0.3438,-0.8827,-0.3312,2.3555,2561
7,0.1375,-1.2429,-0.3708,-0.8412,-0.7443,2.2241,2146
7,0.0962,-1.3059,-0.2969,-0.781,-1.0955,2.1023,2072
7,-0.106,-1.5393,-0.1084,-0.921,-1.3567,1.9992,1768
7,-0.0312,-1.3669,-0.2922,-0.7352,-1.696,1.8081,2129
7,0.2715,-1.5437,-0.1797,-1.3206,-1.6688,1.896,1893
7,-0.5544,-1.24,0.397,-1.0405,-1.2332,1.951,2129
7,-0.2488,-1.3862,0.2764,-0.8891,-1.387,2.0511,1864
7,0.1316,-1.4282,0.3452,-1.1074,-0.946,2.127,2254
7,0.0073,-1.4805,0.4392,-0.9319,-0.5307,2.2272,2396
7,0.085,-1.7175,0.6619,-1.034,-0.4534,2.3077,1944
7,0.4302,-1.6968,0.6458,-1.1977,-0.3349,2.3578,2110
7,0.8179,-1.6809,0.6638,-1.3142,-0.3348,2.3292,2189
7,0.6956,-1.501,0.9019,-1.4149,-0.2273,2.4136,1959
7,0.9695,-1.3137,0.999,-1.3283,-0.4675,2.5822,2003
7,0.718,-0.9717,1.1292,-0.9649,-0.8783,2.3513,2060
7,0.5112,-1.1567,0.9983,-0.8562,-2.0018,1.6329,1959
7,1.2361,-2.0,0.4924,-0.1064,-3.3147,0.9013,2058
7,1.7893,-2.0,0.2432,-1.3705,-4.3635,2.9236,2109
7,0.2671,-1.8589,0.0586,-1.8318,-3.9881,3.3283,2085
7,-2.0,-1.7566,-0.3088,-1.273,-1.7531,4.1193,2107
7,-0.8704,-2.0,-1.0791,-2.184,-0.4205,3.8799,2109
7,-0.2549,-0.7791,-0.8708,-1.5021,-0.9262,3.0616,2048
7,0.2549,1.0664,-0.5776,-0.028,-1.9799,1.8197,2016
7,-0.0527,-0.96,-0.3289,1.0744,-2.4257,1.7917,2012
7,-1.5513,-2.0,-0.7671,0.5625,-0.2121,1.6189,2043
7,-1.584,-1.3547,-0.8665,0.1362,1.8735,1.0376,1948
7,-1.4326,-1.031,-1.0505,-0.6237,2.6943,0.5962,2029
7,-1.5117,-0.5737,-1.3777,-0.9983,2.6862,-0.2168,2070
7,-1.1174,-0.5742,-1.2231,-0.8159,2.2252,-0.5534,2098
7,-0.5945,-0.366,-0.9526,-0.6582,1.5973,-1.3468,2051
7,-0.2839,-0.1472,-0.8772,-0.1529,1.5909,-1.9022,2053
7,-0.2556,0.0261,-0.6929,-0.1943,2.113,-2.3985,2056
7,-0.3721,0.394,-0.3823,-0.5366,2.5725,-3.1376,2066
8,-0.1973,0.6396,-0.2354,-0.7413,2.8296,-3.5965,2061
8,-0.1799,0.3474,-0.2588,-0.2133,2.926,-3.6849,1971
8,0.084,0.1475,-0.3257,1.4009,2.8165,-3.7822,2039
8,0.3262,0.4124,-0.2,2.304,2.5713,-4.3635,2052
8,0.4294,0.177,-0.1462,2.278,2.6227,-4.062,2058
8,0.1597,0.2156,-0.3755,2.1931,2.6164,-3.8511,2069
8,0.031,0.1516,-0.449,2.7858,2.3583,-3.6744,2062
8,0.3147,0.3044,-0.5698,3.0789,2.0895,-3.9522,2050
8,0.4766,0.0518,-0.021,3.5998,1.2537,-4.3635,2053
8,0.1523,0.0979,-0.2925,3.0355,0.5155,-3.9005,1993
8,-0.2156,0.1504,-0.6328,3.0694,0.2683,-4.166,2053
8,-0.3145,0.2588,-0.5557,3.8374,-0.1218,-4.3635,2073
8,-0.3374,-0.0774,-0.3379,3.5697,-0.2304,-4.3635,2063
8,-0.2937,-0.1704,-0.7458,3.1957,-0.1962,-4.3635,2045
8,-0.5769,-0.3325,-0.7395,3.5559,-0.6397,-4.3635,2045
8,-0.679,-0.5576,-0.7703,3.2728,-1.1527,-4.3635,2148
8,-0.0938,-1.2317,-0.7451,2.6565,-1.1898,-4.3635,1947
8,0.0779,-1.7754,-0.6711,2.5284,-2.1718,-4.3635,2059
8,-0.2175,-1.822,-0.4329,2.0145,-3.5828,-4.05,2099
8,-0.3403,-1.7856,-0.5413,1.505,-3.7271,-3.2223,2048
8,-0.1472,-1.948,-0.844,1.3738,-3.9829,-1.9943,2053
8,-0.2808,-2.0,-0.342,1.1885,-3.526,-0.4554,2071
8,-1.6721,-1.9021,0.0889,-0.3874,-2.6388,-0.5639,2005
8,-2.0,-2.0,-0.0928,-2.8006,-1.0741,-0.8359,2011
8,-0.1479,1.9999,1.158,-1.6241,1.7082,1.3074,2130
8,-2.0,-2.0,0.7847,-3.0118,2.5336,4.3634,1855
8,-2.0,-2.0,1.9999,-4.3635,3.4455,2.6589,2181
8,1.9999,-0.8364,0.3811,-4.3635,-1.2362,-0.4868,2310
8,1.9999,-2.0,-0.3015,1.2469,-0.9377,4.3634,1917
8,1.7651,-1.6165,1.9999,4.2458,4.1971,3.3685,2025
8,-2.0,0.5002,1.3904,-3.3412,4.3634,4.3634,2022
8,-2.0,1.1692,-1.6946,-3.2592,1.9771,3.3619,2138
8,-1.2163,-0.3562,-1.6016,-2.2874,-0.5321,1.3824,1937
8,0.187,-1.1821,-1.0066,-2.5936,-1.0335,1.3218,1753
8,-0.8398,-0.8994,-0.3696,-1.8369,-1.5314,1.0335,2149
8,-1.1025,-1.1196,-0.1169,-1.8595,-0.8461,1.1729,2148
8,-0.4392,-0.8186,-0.2415,-0.8027,0.2048,1.2231,2083
8,-0.2529,-1.0134,-0.7009,-0.2815,0.749,1.5117,2048
8,-0.7805,-0.7581,-1.054,0.0044,0.0838,0.855,2071
8,-0.5134,-0.605,-0.9705,0.1815,0.1393,0.7263,2075
8,-0.5264,-0.6938,-1.1682,0.1689,-0.4195,0.6183,2133
8,0.1855,-0.6479,-0.9958,0.5787,-0.4874,0.4767,2010
8,-0.532,-0.8247,-0.6941,0.5545,0.4288,-0.0334,2051
8,-0.3657,-0.6792,-0.761,0.3362,0.4862,0.0585,2073
8,1.8157,-0.5823,0.0071,0.6106,-0.9015,-0.1776,1969
8,-0.0054,-0.9856,-0.2869,0.8313,-1.0689,-0.5536,2018
8,-0.3994,-1.0195,-0.8569,1.9917,0.2148,0.3787,2121
8,-0.8474,-0.5845,0.179,0.9433,-0.4067,0.0985,1722
8,-0.5298,-1.1023,0.0894,1.2143,0.9653,0.3502,2269
8,0.4653,-1.0659,0.6497,1.025,2.4992,0.4217,2103
8,0.0615,-1.1458,-0.0139,0.7938,0.6609,0.3761,2226
8,0.3574,-1.0,0.092,0.7851,0.4092,0.4127,1929
8,0.2354,-1.082,-0.1006,0.7339,0.0241,0.5584,1853
8,0.301,-1.105,0.0593,0.5329,0.0502,0.7601,1958
8,0.2424,-1.1033,-0.0012,0.4785,0.0019,0.8689,1837
8,0.2373,-1.1055,-0.0198,0.3532,0.0703,0.921,2056
8,0.1248,-1.0857,0.0073,0.2666,0.0254,0.9539,1894
8,0.1067,-1.1548,-0.0796,0.2476,-0.1356,1.005,2107
8,0.0242,-1.0652,-0.0369,0.185,-0.0683,1.1154,2188
8,-0.0823,-0.9795,-0.1423,0.2111,-0.0482,1.1093,2494
8,0.0603,-1.1194,-0.1033,0.1646,0.0099,1.1007,2011
8,0.2615,-1.313,-0.0752,0.1783,0.0294,0.9923,2159
8,0.5303,-1.3064,0.0347,0.022,-0.018,1.1319,2159
8,0.636,-1.2522,0.3186,-0.13,-0.0001,1.4605,1813
8,0.6638,-1.2095,0.3923,-0.2003,-0.0654,1.6436,1715
8,0.7458,-1.3574,0.3384,-0.3822,-0.0325,1.9193,2180
8,0.8718,-1.344,0.1987,-0.4697,-0.1296,2.1145,2560
8,0.8018,-1.5222,0.1782,-0.6184,-0.3358,2.3549,1954
8,0.7812,-1.5142,0.3025,-0.793,-0.5052,2.5093,2025
8,0.7021,-1.4932,0.3501,-0.9399,-0.6504,2.6418,2027
8,0.5396,-1.439,0.4536,-1.0451,-0.5754,2.8201,2028
8,0.449,-1.3035,0.5854,-1.0929,-0.5014,2.9208,2025
8,0.429,-1.157,0.6934,-1.0734,-0.3891,3.0115,2070
8,0.4949,-1.1086,0.7405,-1.0363,-0.4486,3.1392,2062
8,0.3047,-1.0752,0.8108,-0.9244,-0.3894,3.0875,2045
8,0.3938,-1.5771,0.9517,-0.8058,-0.1368,2.9201,2015
8,0.678,-1.7954,1.0071,-0.8829,-0.1248,3.2905,2072
8,0.8167,-1.8767,1.0369,-1.5201,-0.3906,2.7417,2081
8,1.7158,-1.8455,0.7009,-1.617,-2.2249,2.6589,2062
8,0.821,-1.8625,0.3159,-1.3054,-3.9965,2.4096,2074
8,-0.2476,-1.3057,0.167,-0.9176,-2.9722,2.7605,2119
8,-0.8921,-1.6526,-0.4597,-1.3472,-1.1427,4.3634,2054
8,-0.821,-2.0,-0.7659,-1.8614,0.8309,4.2923,2033
8,-0.0781,-1.7019,-0.1597,-1.5024,0.2864,3.7657,2013
8,0.0044,-1.0012,-0.2971,-1.1541,-0.3848,3.2556,2061
8,0.2134,1.3943,-0.4553,0.4482,-1.1105,1.8732,2032
8,-0.1355,-1.4561,-0.3606,1.1179,-2.2778,2.3292,2032
8,-1.6665,-2.0,-0.7788,0.7533,-0.1942,2.6039,2017
8,-1.6096,-1.0549,-1.2078,-0.3504,0.989,1.9239,2042
8,-2.0,-1.3604,-1.1941,-1.0525,1.0769,1.3013,2119
8,-2.0,-0.8474,-0.9497,-1.3866,0.604,0.2169,2075
8,-1.3259,-0.7773,-0.7329,-1.5391,-0.204,-0.3598,2052
8,-0.1992,-0.1497,-0.4495,-1.026,-0.7272,-1.0235,2058
8,-0.5266,-0.304,-0.072,-1.2822,-0.2487,-1.2183,2071
8,-0.6785,0.2288,0.1653,-2.58,0.3453,-1.6009,2035
8,-0.6841,0.8533,-0.03,-2.8553,1.5699,-1.4679,2062
8,-0.7856,-0.3242,0.0449,-1.8773,1.8226,-2.1792,2037
8,-0.3809,-0.2466,0.0234,-0.1975,2.0624,-2.7835,2052
8,-0.3354,-0.2495,-0.1294,1.0308,2.4571,-3.8392,2053
8,-0.043,0.054,-0.3188,0.8823,2.9769,-4.305,2061
8,-0.0933,-0.0142,-0.5305,0.6536,3.101,-3.8981,2136
8,-0.4092,0.0964,-0.6582,1.0825,2.9353,-3.7997,1965
9,-0.2605,0.1597,-0.5837,1.4488,2.3779,-4.2212,2057
9,-0.0239,0.2114,-0.5271,1.9407,1.7412,-4.3635,2040
9,0.0769,0.2542,-0.4224,2.3112,1.2146,-4.3635,2134
9,0.0505,0.3167,-0.4265,2.5675,0.9558,-4.3635,2074
9,0.0464,0.3752,-0.4629,2.8389,0.9681,-4.3635,2059
9,0.1807,0.3503,-0.4058,3.0483,0.95,-4.3635,2013
9,0.1338,0.3835,-0.4363,3.0601,0.6774,-4.3635,2034
9,-0.0625,0.3635,-0.4573,3.0171,0.1229,-4.3635,2028
9,-0.1946,0.2385,-0.7095,3.0518,0.032,-4.3635,2032
9,-0.3533,0.0151,-0.908,3.211,0.2746,-4.3635,2068
9,-0.4302,-0.0569,-1.1445,3.3532,-0.3003,-4.3635,2025
9,-0.7229,-0.2092,-1.1201,3.4669,-1.2918,-4.3635,1999
9,-0.5491,-0.4797,-1.1609,3.322,-2.1481,-4.3635,2007
9,-0.4077,-0.7437,-1.1196,3.2744,-1.9414,-4.3635,2106
9,-0.6038,-1.1992,-0.8564,3.3258,-1.9524,-4.1755,2081
9,-0.9785,-1.5662,-0.5005,2.9859,-2.5761,-3.5944,2064
9,-1.9214,-2.0,-0.6667,1.2119,-4.2575,-4.3635,2030
9,1.9999,1.9999,0.0046,-4.3635,-3.0353,-4.3635,2207
9,-1.5913,-0.9524,0.8359,3.4515,-0.6581,1.4057,2114
9,-1.7024,-2.0,-1.1252,-3.2571,-0.6433,1.3508,1889
9,-1.2649,-2.0,1.4265,-0.7379,-2.5468,4.3634,2073
9,-0.5054,1.0479,1.9999,-2.2313,4.3634,3.9422,2104
9,1.9999,0.7026,1.9999,1.8667,4.3634,3.3432,2001
9,-2.0,-1.8464,1.9999,-0.3095,4.1287,4.1522,2083
9,-0.593,-0.1626,-1.415,-4.3635,2.328,1.315,1961
9,-0.8772,0.3567,-2.0,-4.3635,2.8955,2.3963,2400
9,0.2046,-0.5117,-1.4995,-2.8188,0.9871,1.24,1391
9,0.4099,-1.0535,-0.9214,-2.0192,-1.5142,1.1343,1779
9,0.407,-0.8599,-0.2114,-0.5645,-2.8359,1.2736,1999
9,0.1113,-1.2793,0.6448,-1.4587,-2.5594,2.5163,2046
9,-1.5164,-0.74,-0.28,-1.5647,-1.1275,2.1204,2081
9,-1.4905,-0.9299,-0.7209,-0.3581,0.5972,1.4259,2159
9,-1.3335,-1.0144,-1.0767,-0.2312,0.4595,1.2825,2123
9,-1.6436,-0.7969,-1.1096,-0.509,-0.5344,0.3723,2086
9,-0.585,-0.7063,-1.1731,-0.3532,-0.7704,-0.0302,2071
9,0.283,-0.6812,-1.3269,0.3271,-0.5352,0.0249,2114
9,0.8855,-0.8618,-1.0659,0.8965,-0.1606,0.6221,2137
9,1.2686,-0.7788,-0.7148,0.8047,-0.1883,0.8726,1953
9,-0.1287,-0.656,-1.0164,1.1015,-0.2261,0.8926,1935
9,-0.3906,-0.8062,-1.1353,1.3633,-1.0372,0.4882,1965
9,-0.5906,-0.9097,0.0562,1.3452,-1.0051,0.2674,1973
9,0.573,-1.0212,-0.522,-0.4203,-2.0068,0.3968,2150
9,0.9338,-0.5991,-0.8833,2.1296,-0.5927,-0.0249,2119
9,-1.5972,-0.2822,-1.1729,1.8555,-2.0391,0.253,2055
9,-1.3545,-1.3916,-0.1973,1.4456,-2.6237,-0.7408,1871
9,0.8005,-1.5134,-0.1135,2.1169,0.247,-0.198,2460
9,0.9624,-1.3994,0.5129,0.665,1.3696,0.4968,2029
9,-1.4094,-1.116,0.1609,0.291,0.5473,0.6474,2186
9,0.5068,-1.1262,0.1394,0.6108,0.2581,0.3508,2409
9,0.4993,-0.8755,-0.0991,0.8095,0.3597,-0.2197,2114
9,-0.53,-0.7947,-0.1316,0.3215,-0.004,0.726,2213
9,-0.2812,-1.2534,-0.073,0.919,0.0063,0.4085,1919
9,0.6765,-1.6609,-0.1477,1.0734,-0.4457,1.3993,1854
9,0.5911,-1.2544,0.084,0.7509,-0.8855,0.8495,1791
9,0.4292,-1.1846,0.4448,0.5124,-0.9701,1.0541,2067
9,0.8076,-0.9604,0.4775,0.2603,-0.8027,0.8573,1569
9,0.4915,-1.0132,0.5427,0.0312,-0.3247,1.4166,1906
9,0.6401,-1.2046,0.5286,-0.124,0.1563,1.731,2138
9,0.9819,-1.5676,0.4697,-0.398,0.1409,1.6992,1851
9,0.9058,-1.353,0.3977,-0.5954,-0.1662,1.7837,2044
9,0.4622,-1.1936,0.418,-0.8656,-0.1192,1.9563,2040
9,0.3499,-1.1394,0.48,-1.0224,0.0285,2.2281,2198
9,0.4397,-1.2117,0.5635,-1.1672,0.1812,2.4273,1953
9,0.6079,-1.4033,0.6833,-1.2809,0.1317,2.6532,2113
9,0.5764,-1.4048,0.9204,-1.4295,0.0055,2.8157,1995
9,0.6343,-1.3899,1.0146,-1.5247,-0.067,3.1067,2068
9,0.6858,-1.4194,1.1956,-1.6932,-0.0527,3.3484,2192
9,0.7258,-1.415,1.3308,-1.8211,0.0388,3.5173,2003
9,0.8254,-1.626,1.4956,-1.9546,-0.0951,3.3937,2026
9,1.0278,-1.8784,1.5806,-2.1278,-0.1868,2.8874,2042
9,0.9043,-1.842,1.4336,-2.3144,-0.3996,2.8582,2020
9,0.6294,-1.9885,0.895,-2.2738,-0.6858,3.0536,1992
9,0.8972,-2.0,0.3545,-1.8552,-2.6963,3.1566,2067
9,0.5188,-1.3093,-0.3733,-0.4689,-3.5605,1.9903,2065
9,-1.4434,-2.0,-0.6941,0.1392,-1.0887,4.3634,2111
9,-1.6353,-2.0,-1.6545,-2.0976,0.9186,4.3634,2112
9,-0.6606,-2.0,-0.9851,-1.6633,2.4318,3.8745,2057
9,-0.4412,-0.8699,-0.7825,-1.1999,1.5898,3.1108,2068
9,0.3843,0.9929,-0.7437,0.0959,-0.0696,1.9205,2116
9,0.8196,-0.7607,-0.5964,0.8809,-3.3373,2.3298,2023
9,-1.249,-2.0,-1.3296,0.3083,-2.283,2.6955,2031
9,-1.7778,-0.658,-1.8113,0.1751,-0.3384,2.0927,2033
9,-1.8203,-1.1836,-1.4045,0.2201,0.0854,1.4141,2059
9,-1.3979,-0.4302,-1.2524,-0.259,-0.8608,0.603,2065
9,-1.3459,-0.2925,-1.2292,-0.6379,-1.1202,-0.5421,2075
9,-0.7798,0.0171,-0.9915,-0.2655,-1.1033,-1.6789,2045
9,-0.2217,0.0815,-0.6174,-0.4609,-0.5753,-2.2547,2041
9,-0.3855,0.7822,-0.3264,-0.9305,0.8174,-2.485,2060
9,-1.1455,1.1311,-0.2886,-1.1869,2.0999,-2.4657,2059
9,-1.1294,0.8372,-0.4028,0.2175,2.5405,-3.0055,1998
9,0.0745,0.5427,-0.0825,2.3019,2.3262,-4.2552,2028
9,0.585,-0.188,0.2905,3.1677,1.8086,-4.298,2040
9,0.2598,-0.0562,0.0586,2.0125,1.6313,-3.1797,2044
9,-0.7639,-0.3574,-0.2864,2.421,1.4585,-3.0083,2084
9,-0.1494,0.6731,0.0195,0.9697,1.2541,-3.4391,2030
9,-0.2092,0.4114,-0.1636,0.4165,1.1646,-3.238,2047
9,-0.4045,0.0386,-0.2327,1.9283,0.8658,-3.4589,2024
9,-0.3552,0.2256,-0.1001,2.2489,0.6819,-4.1566,2024
9,-0.2605,0.082,-0.2488,1.9687,0.5814,-4.3635,2043
9,-0.4131,0.1594,-0.3081,2.1991,0.0057,-4.3635,2044
9,-0.5786,0.1606,-0.405,2.4736,-0.379,-4.3635,2072
10,-0.4778,0.2302,-0.5457,2.4222,-0.5513,-4.3635,2026
10,-0.5449,0.2214,-0.812,2.4598,-0.7171,-4.3635,2061
10,-0.2871,-0.0623,-0.9109,2.6099,-0.63,-4.3635,2056
10,-0.2297,-0.4944,-0.8931,2.5823,-0.2482,-4.3635,2101
10,-0.4036,-0.5862,-0.5503,1.9487,-0.2199,-4.3635,2034
10,-0.3911,-0.8167,-0.8516,1.8349,-0.549,-4.3635,2053
10,-0.3435,-1.0652,-1.0422,1.9943,-0.8869,-4.3635,2076
10,-0.293,-1.4387,-0.7563,1.9976,-1.795,-4.3635,2043
10,-0.0176,-1.8984,-0.8394,1.8169,-2.7043,-4.1004,2033
10,-0.2756,-2.0,-0.4187,-0.7502,-3.5742,-4.3635,2110
10,1.9999,-2.0,-1.6738,-1.2433,-4.3635,-4.3635,2059
10,-2.0,-2.0,-0.5503,-0.2141,-2.4029,-0.4381,1808
10,-2.0,-2.0,-0.1543,-2.58,-0.2289,1.2882,2154
10,-1.5891,-1.4956,0.0146,-1.7446,-0.8771,4.0915,2184
10,-2.0,-2.0,1.9999,-3.0755,-2.7062,4.3634,2123
10,-2.0,-1.3726,1.9999,-1.6085,-0.9355,3.37,2043
10,-1.0227,-2.0,1.9087,1.7892,4.3634,-0.244,2025
10,0.1714,0.0181,0.467,-0.3546,4.3634,1.6687,2084
10,-0.2734,0.0247,-1.3652,-3.1162,4.3634,1.9524,2043
10,0.5085,-0.0222,-2.0,-4.1476,3.5071,1.1098,2004
10,1.3452,0.0332,-2.0,-3.7153,2.0861,0.7269,2029
10,1.9999,-1.0461,-1.3667,-0.734,-2.8766,1.8037,2064
10,1.2463,-0.707,-0.115,0.1354,-2.4839,2.0339,2062
10,-0.1094,-0.6021,0.0093,-0.4465,-2.5776,3.0222,2022
10,-1.667,-1.072,0.6194,-0.1774,-2.5248,2.6512,2084
10,-2.0,-1.4341,1.0825,0.0096,-0.4673,1.9761,2040
10,-2.0,-1.3345,0.8782,-0.6809,0.7215,1.5318,2059
10,-2.0,-1.071,-0.1572,-1.7166,0.0196,0.2677,2044
10,-1.1765,-1.0977,-0.6904,-1.6005,0.1015,-0.0639,2065
10,-0.0608,-1.0234,-0.8315,-0.6578,0.1313,0.4205,2047
10,0.6206,-0.8701,-0.989,0.1637,-0.214,0.9147,2057
10,0.8577,-0.6453,-0.811,0.1645,-0.1503,1.3497,1986
10,0.5376,-0.5381,-0.9407,-0.0087,-0.2764,1.2094,1974
10,0.1138,-0.7021,-0.9724,0.2258,-0.6755,0.9413,1957
10,-0.3774,-0.75,-0.7957,0.4301,-0.6517,0.6881,2078
10,-0.5891,-0.8643,-0.7581,0.6942,-0.5119,0.6401,2100
10,-0.677,-0.8569,-0.4702,1.0115,-0.6464,0.4253,2057
10,-0.0247,-1.1997,-0.1294,1.2828,-0.1573,0.4337,2039
10,-0.1025,-0.8088,-0.605,1.2837,-0.4051,0.0964,2219
10,0.0276,-1.1917,0.1492,1.354,0.126,0.8973,2192
10,0.2625,-0.9724,-0.1545,0.5947,-0.3278,0.7023,1911
10,0.2329,-1.0142,-0.2056,0.7315,-0.1659,1.0768,2201
10,-0.1287,-1.1025,0.0291,0.3191,0.0933,0.8841,2028
10,0.2095,-0.9431,-0.27,0.5827,-0.0483,0.911,2405
10,0.2578,-1.24,-0.0105,0.5343,-0.3181,0.6918,1907
10,-0.5291,-1.251,-0.2681,0.5156,-0.6003,0.9286,2356
10,-0.7007,-0.895,-0.1528,0.4647,-0.0031,0.6183,2586
10,-0.2795,-0.9138,-0.1143,0.4722,0.1517,0.698,1902
10,-0.2988,-1.262,-0.1111,0.4412,0.1057,0.5637,1965
10,-0.0735,-1.3894,0.0127,0.3562,-0.0878,0.5002,1760
10,-0.2148,-1.2178,0.0593,0.2895,-0.1025,0.5767,2147
10,-0.0586,-1.2012,0.1306,0.1358,-0.108,0.4641,2749
10,-0.1714,-1.2773,0.2729,0.1228,0.1189,0.7982,2357
10,0.1733,-1.4031,0.2683,0.0178,0.1902,1.0536,1957
10,0.4341,-1.3945,0.355,-0.0961,0.1695,1.307,2093
10,0.6665,-1.283,0.4385,-0.2044,0.1683,1.4636,1766
10,0.9377,-1.2021,0.4336,-0.3702,0.1637,1.7157,2219
10,1.178,-1.2502,0.4717,-0.6239,0.1607,2.078,1984
10,1.198,-1.3555,0.4512,-0.8982,0.0407,2.4328,1950
10,1.0938,-1.5317,0.4895,-1.1836,-0.0537,2.6661,2031
10,1.1521,-1.5635,0.6233,-1.4948,-0.2424,2.9482,1978
10,1.051,-1.7083,0.8086,-1.7881,-0.3966,3.1099,2023
10,0.8672,-1.8303,0.9622,-2.1309,-0.6221,3.1556,2107
10,0.6614,-1.8818,1.1282,-2.3839,-0.6782,3.1333,2059
10,0.5713,-2.0,1.0623,-2.4388,-0.7011,3.1709,2060
10,0.3215,-2.0,1.0461,-2.2991,-0.3184,3.3046,2012
10,0.9849,-1.8516,1.1016,-1.967,-0.5802,3.5761,2074
10,1.4866,-1.8652,-0.0374,-0.9168,-1.0343,4.0733,2127
10,0.5662,-2.0,0.0112,-1.5717,-1.7504,4.3634,2052
10,-0.7021,-2.0,-1.0298,-1.6097,-2.116,3.5234,2044
10,-0.624,-1.7014,-1.2295,-1.7343,-0.8178,4.3634,2073
10,-1.7139,-0.7139,-0.9004,-1.9117,0.4646,4.3634,2020
10,-0.9377,1.4043,-0.9087,0.1738,1.3865,2.6894,2063
10,0.0105,0.0454,-0.5535,2.4381,1.9703,1.8592,1984
10,-2.0,-2.0,-1.4392,0.6749,4.3634,2.8581,2014
10,-1.8452,-0.8076,-1.4001,0.1502,4.3634,2.18,2097
10,-1.4492,-0.8013,-0.9951,0.1899,4.3634,0.8882,2074
10,-0.7349,-0.3252,-0.9338,0.1318,3.0925,-0.0265,2251
10,-0.708,-0.0588,-0.7341,-0.2418,2.7422,-0.9131,2006
10,-0.1724,0.4629,-0.5605,-0.662,2.4192,-1.4324,1992
10,0.0808,0.4729,-0.2605,-0.6866,1.6707,-0.852,2039
10,-0.1604,0.0908,-0.0283,0.14,0.917,-1.7277,2046
10,0.1746,0.0076,0.0249,1.4055,0.4637,-2.8379,2041
10,0.5156,-0.0503,-0.0969,2.1659,0.3288,-3.5595,2042
10,0.3423,0.0259,-0.3232,2.3563,0.3084,-3.8647,2039
10,0.009,0.0952,-0.5129,2.2719,0.1286,-4.1515,2080
10,0.1736,0.1382,-0.5439,2.4806,-0.5468,-4.3475,2001
10,-0.1575,0.0525,-0.5317,3.0024,-1.3877,-3.7709,2068
10,0.3889,0.3088,-0.2861,3.2716,-1.3504,-4.3635,2073
10,0.3787,-0.0042,-0.4202,2.5814,-1.6936,-4.3635,2000
10,-0.1836,0.0422,-0.324,3.3617,-1.9447,-4.3635,2018
10,-0.3623,0.0117,-0.2095,4.1449,-2.1949,-4.3635,2065
10,-0.2524,-0.0337,-0.0654,4.2993,-2.1899,-4.3635,2037
10,-0.3899,-0.0254,-0.0571,4.3634,-1.7242,-4.3635,2113
10,-0.7219,-0.2158,-0.1514,4.3634,-0.9428,-4.3635,2050
10,-0.949,-0.2573,-0.4651,4.3634,-0.1483,-4.3635,2055
10,-1.2058,-0.417,-0.6101,4.3634,-0.2571,-4.3635,2055
10,-1.2659,-0.6079,-0.062,3.9817,-0.8621,-4.3635,2082
10,-0.5945,-1.4949,-0.3235,3.2902,0.045,-4.3635,2034
10,0.3088,-2.0,-0.5605,3.1014,1.29,-4.3635,2030
10,1.3438,-1.75,-0.9016,2.4282,0.4184,-4.3635,2115
10,1.2332,-1.2893,-1.3037,2.2185,-1.9656,-3.6948,2029
10,0.4373,-1.6624,-1.126,2.2,-4.2405,-2.6534,2069
10,0.1604,-2.0,-0.5522,1.7676,-4.3635,-2.0925,2021
11,-0.7073,-1.2659,0.0886,0.3121,-4.1859,-1.3636,1997
11,-1.3755,-2.0,0.0967,-1.8695,-3.8474,-1.201,2037
11,-1.1062,-2.0,-0.5801,-2.887,-3.3994,-0.389,2033
11,-2.0,1.1658,-0.6157,-2.7565,0.2678,2.2638,2064
11,-2.0,0.5249,-0.1277,-1.364,0.3996,2.9188,1899
11,-2.0,-2.0,1.9999,0.2595,0.3846,3.5781,2200
11,0.0232,-2.0,1.9999,-1.3005,0.3,-1.2921,2101
11,1.9999,-2.0,1.9999,-0.2611,4.3634,-0.5404,1998
11,1.895,1.4924,-0.7209,-3.8334,4.3634,4.3634,2108
11,-2.0,1.9999,-1.4131,-4.3635,4.3634,4.3634,2129
11,-2.0,-0.2017,0.4883,-4.3635,-2.3654,2.4679,1983
11,0.6841,-1.1826,-0.5439,-4.3635,-1.6097,-0.141,1982
11,1.9999,-0.5891,-0.4998,-2.8617,1.5828,2.7012,2138
11,-1.1833,-0.5815,-0.4883,-3.34,0.0001,2.3824,2068
11,-0.5203,-0.8843,0.3394,-2.6044,-0.0418,2.3961,2066
11,-0.5874,-1.0781,-1.0259,-1.1572,0.2284,2.3553,2043
11,-1.6357,-0.2908,-1.1755,-0.3187,-0.8542,1.7062,2045
11,-1.3704,-0.4668,-1.5081,-0.7051,0.5016,1.1829,2070
11,-0.8184,-0.5625,-1.2319,-0.8954,1.9775,0.3253,1951
11,1.2349,-0.6658,-1.3801,-0.749,2.0212,1.6367,2107
11,1.3589,-0.8433,-0.9656,0.5229,-0.2005,2.0636,2134
11,0.2886,-0.7458,-0.7507,0.4711,-0.6297,1.7859,1989
11,-0.6782,-0.9109,-0.4246,0.0912,-0.9459,1.7171,2000
11,-0.77,-0.9495,-0.3342,0.0948,-0.614,1.4284,1981
11,-0.5894,-1.0383,-0.3608,0.363,-0.1911,1.3239,2135
11,-0.0168,-0.9854,-0.3071,0.2751,-0.1204,1.606,1914
11,-0.0007,-1.0039,-0.2332,0.2598,-0.241,1.509,2261
11,-0.0327,-1.1069,-0.2236,0.222,-0.1358,1.4229,2247
11,-0.2344,-1.1206,-0.2822,0.1756,-0.4099,1.2762,1923
11,-0.1448,-1.1677,-0.2156,0.1884,-0.559,0.9589,2070
11,-0.4226,-0.9236,-0.2463,0.1209,-0.2472,0.9585,2019
11,-0.1299,-1.1335,-0.0793,0.1184,-0.5086,0.816,1972
11,-0.0366,-1.3528,-0.189,0.0293,-0.4818,0.6549,2159
11,0.1343,-1.0969,-0.1445,-0.122,-0.5679,0.5209,2009
11,-0.0215,-1.2163,-0.1377,-0.0843,-0.7923,0.7184,2049
11,-0.3982,-1.1057,-0.0933,-0.1212,-0.7148,0.8253,1915
11,-0.1536,-1.1531,-0.0137,-0.1366,-0.3986,0.846,1864
11,-0.2314,-1.0933,0.0229,-0.1337,-0.3634,0.8985,2195
11,-0.1038,-1.0942,0.0288,-0.1286,-0.224,0.9858,1703
11,-0.0107,-1.0815,-0.0408,-0.1015,-0.0511,1.1029,1771
11,0.0312,-1.1062,-0.0129,-0.1661,0.2843,1.1473,1890
11,0.3328,-1.2468,0.0896,-0.2364,0.3364,1.3474,1824
11,0.5571,-1.2117,0.123,-0.3276,0.177,1.5004,2332
11,0.77,-1.2424,0.2566,-0.4127,-0.0277,1.7381,2691
11,0.634,-1.4595,0.4526,-0.6906,-0.0811,1.907,1752
11,0.8843,-1.6633,0.7029,-0.8789,-0.2523,2.3103,1989
11,0.8503,-1.7415,0.9956,-1.1385,-0.1967,2.5718,2026
11,1.0715,-1.7717,1.1597,-1.4379,-0.3277,2.7406,2032
11,1.2661,-1.76,1.3921,-1.7733,-0.5216,2.9158,2002
11,1.2529,-1.5774,1.52,-1.9367,-0.802,3.2364,2103
11,0.5632,-1.801,1.3835,-1.6046,-0.7826,3.1578,1458
11,0.0498,-2.0,1.0251,-1.3753,0.1115,3.179,1804
11,0.9268,-2.0,0.6389,-1.3062,-0.5936,2.8706,3100
11,1.7249,-2.0,-0.1367,-1.3177,-0.8224,4.3634,2504
11,-0.7664,-0.9529,0.0071,-0.1161,-0.4007,4.3634,2312
11,-1.0254,-2.0,-0.5017,-1.6273,0.6171,4.3634,2209
11,-0.8489,-1.8682,-1.1924,-2.2779,2.4828,4.3634,2441
11,-0.4397,-0.3801,-0.5073,-0.8762,2.5145,3.4041,2552
11,0.5615,0.9429,-0.1931,1.0531,0.9015,0.9288,2054
11,-0.3098,-2.0,-0.2881,0.1437,1.7519,2.438,1700
11,-1.1428,-2.0,-1.4824,-0.4473,2.8983,2.2465,1788
11,-0.8042,-1.1846,-1.5852,-0.5493,3.0439,1.2663,1845
11,-1.1248,-0.9368,-1.5195,-0.5838,2.3422,0.4673,1971
11,-0.9048,-0.4824,-1.1948,-0.5556,0.8818,-0.6209,2010
11,-0.4436,-0.2935,-0.8362,-0.6421,-0.2815,-1.7338,2032
11,-0.0669,0.6572,-0.2913,-1.1792,-0.5865,-2.1527,1989
11,0.0701,0.7036,-0.2493,-1.5305,-0.8978,-1.4857,2205
11,-0.2395,-0.2009,-0.385,-0.1715,-1.4185,-2.5156,1963
11,-0.0408,-0.0854,-0.3264,2.0212,-1.2937,-3.2432,1989
11,0.1531,0.1128,-0.2678,2.6916,-1.1772,-4.3635,2085
11,0.0693,0.1226,-0.3123,2.8609,-0.5956,-4.3635,2012
11,-0.3066,-0.1008,-0.3206,2.2441,-0.1208,-4.2944,2080
11,0.636,0.3311,-0.0061,2.7012,-0.9419,-4.3635,2033
11,-0.1074,-0.0105,-0.1782,2.2621,-1.5528,-4.3635,2012
11,-0.7471,0.269,-0.1633,2.2935,-1.6068,-4.3635,2002
11,-0.7009,0.3848,-0.2063,2.7588,-1.2461,-4.3635,2086
11,-0.5637,0.4387,-0.1956,3.1754,-1.0198,-4.3635,2096
11,-0.6033,0.3123,-0.1455,3.8615,-0.9673,-4.3635,2020
11,-1.145,0.2886,-0.1277,3.7986,-0.3043,-4.3635,2037
11,-1.0974,0.2297,-0.1978,3.9173,0.3888,-4.3635,2034
11,-0.9473,0.0774,-0.4587,4.0428,0.9664,-4.3635,2006
11,-0.9041,0.0237,-0.7861,4.0241,0.9095,-4.3635,2082
11,-0.7278,-0.2468,-1.2058,3.8767,0.5743,-4.3635,2007
11,-0.1697,-0.989,-1.1711,3.4872,0.6497,-4.3635,2049
11,0.8542,-1.918,-1.1111,3.4609,0.4247,-4.3635,2079
11,1.9999,-2.0,-0.7974,2.9257,-1.3733,-4.3635,2105
11,1.043,-1.6487,-1.1262,2.3836,-4.3635,-3.1799,2010
11,-0.1692,-2.0,-0.7466,1.9165,-4.3635,-2.422,2096
11,-0.9348,-2.0,-0.3804,-1.0343,-4.3635,-3.519,2002
11,-1.5405,-1.0991,-0.8567,-1.7271,-4.1474,-0.8826,2075
11,-2.0,-0.0349,-0.4849,-1.9158,-2.5898,1.4011,2007
11,-2.0,-0.6021,0.1946,-1.9506,-0.1353,2.6092,1926
12,-2.0,-1.8269,1.9999,-0.9066,0.1393,3.1011,2170
12,-2.0,-2.0,1.9999,-1.8986,-0.9843,1.8285,2140
12,1.9999,-2.0,1.9999,-2.437,4.3634,0.0823,2056
12,1.9999,1.0854,-0.2837,-2.127,4.3634,4.3634,2068
12,-2.0,-0.0654,0.282,-3.7984,4.1134,4.3634,2028
12,-2.0,0.03,-0.5251,-4.3635,-0.3504,2.1184,2225
12,0.1882,-0.0481,-2.0,-3.4838,-0.5968,1.5422,1962
12,0.3994,-0.6243,-0.4902,-2.6775,1.2691,2.1001,2002
12,0.3083,-0.4814,-0.8154,-3.3467,-0.237,1.645,2145
12,-0.0103,-0.7195,-0.3628,-1.7634,-1.358,1.9339,2063
12,-0.9189,-0.7556,-0.7856,-1.0144,-0.0941,2.4052,2137
12,-1.8867,-0.6062,-1.0288,-0.0902,-0.0081,2.047,1989
12,-1.6726,-0.4688,-1.7249,-0.3349,0.7167,0.8637,1989
12,0.0627,-0.4976,-1.4553,-0.5177,1.5411,0.8361,2023
12,0.9114,-0.7805,-0.8958,-0.1938,1.7675,1.8243,2000
12,1.3193,-0.8887,-0.8335,0.3478,0.3077,2.4396,2103
12,0.2827,-0.793,-0.6816,0.6944,-0.8344,1.7219,1961
12,-0.7258,-0.915,-0.4038,0.184,-0.7965,1.5571,1926
12,-0.5481,-0.9429,-0.3496,0.2992,-0.3109,1.5956,2005
12,-0.1885,-1.0215,-0.2732,0.4269,-0.0497,1.7104,2003
12,0.0312,-0.9399,-0.2974,0.3276,-0.0985,1.7671,2207
12,0.1082,-0.9875,-0.2498,0.2205,-0.2541,1.621,2013
12,-0.1716,-1.0703,-0.2837,0.2024,-0.4188,1.5422,2102
12,-0.4199,-1.113,-0.1733,0.1129,-0.4149,1.4065,2176
12,-0.4236,-1.1858,-0.2065,0.2073,-0.2161,1.2625,2064
12,-0.1694,-0.9636,-0.1318,0.1357,-0.1748,1.0882,2011
12,-0.0215,-1.4241,-0.1057,0.0906,-0.5452,0.6185,2166
12,-0.0854,-1.2305,-0.2815,-0.0245,-0.3212,0.5437,2129
12,-0.2498,-1.2791,-0.1206,-0.087,-0.2216,0.8004,1891
12,-0.0161,-1.2849,-0.0981,-0.0284,-0.3309,0.8613,2133
12,-0.0088,-1.1755,-0.0754,-0.0161,-0.3446,0.906,2386
12,-0.2285,-1.0508,-0.0073,-0.0979,-0.2362,0.9901,1866
12,-0.1841,-1.126,-0.0347,-0.0908,-0.0466,1.0962,1581
12,0.085,-1.2158,0.0742,-0.1301,-0.1264,1.2965,2116
12,0.0164,-1.0569,0.0283,-0.163,0.3013,1.3232,1880
12,0.385,-1.1309,0.0654,-0.2501,0.227,1.4881,2005
12,0.4802,-1.2944,0.196,-0.3069,0.1498,1.6993,2014
12,0.6746,-1.3818,0.3123,-0.4203,0.1057,1.9337,2552
12,0.8042,-1.5664,0.4753,-0.6482,-0.126,2.2214,2317
12,0.8584,-1.6433,0.6016,-0.8487,-0.2587,2.4155,1999
12,1.0237,-1.7634,0.9885,-1.1154,-0.2199,2.6141,2032
12,1.2612,-1.9065,1.3354,-1.4478,-0.3333,2.8132,1981
12,1.4651,-1.8774,1.4585,-1.7102,-0.5394,3.0815,2100
12,1.4067,-1.7366,1.5188,-1.81,-0.9685,3.5872,2026
12,0.9585,-1.9971,1.533,-1.468,-1.162,3.78,2103
12,0.6213,-2.0,1.0022,-1.3532,-0.6207,3.4131,2079
12,1.3035,-2.0,0.1787,-1.3402,-0.7466,3.7198,2100
12,0.8137,-2.0,-0.4429,-1.0532,-1.292,4.3634,2044
12,-1.1453,-0.8494,-0.1445,-0.1055,-0.5505,3.6733,2102
12,-1.2192,-2.0,-0.6707,-1.6695,1.5756,4.3634,2033
12,-0.7798,-1.3391,-1.0176,-1.3149,3.2708,4.3098,2055
12,-0.6194,0.4392,-0.2473,0.8601,2.883,2.3265,2084
12,0.6377,-0.1423,0.114,1.7897,2.4464,1.4439,1998
12,-1.6152,-2.0,-0.7395,0.4097,4.3634,2.3438,1959
12,-0.6958,-0.9368,-1.2893,-1.1593,4.3634,1.4475,2040
12,-0.8323,-1.1519,-1.4641,-1.1207,4.3634,0.5959,2029
12,-0.7998,-0.5974,-1.2668,-0.6822,3.3143,-0.1353,2066
12,-0.2959,-0.5754,-0.9377,-0.3919,1.0995,-1.3937,2033
12,0.2251,-0.3831,-0.4485,-0.4321,-0.0908,-2.0628,2040
12,0.5083,0.6511,-0.1597,-0.8012,-1.0387,-1.746,2042
12,0.2925,0.5471,-0.2415,-0.8373,-1.5448,-2.196,2063
12,0.0366,-0.3884,-0.4529,0.3093,-1.9134,-3.3757,2018
12,0.0356,-0.2349,-0.4351,1.9254,-1.708,-3.9468,2119
12,0.2546,0.1611,-0.3242,2.5984,-2.0453,-4.3635,2014
12,0.3606,-0.0444,-0.3289,2.3273,-2.1991,-4.3635,2117
12,0.145,-0.2463,-0.2393,2.2607,-1.9855,-4.3635,1995
12,0.1191,-0.1794,-0.0881,2.4103,-2.3491,-4.3635,2044
12,-0.2224,0.0933,-0.1245,2.7711,-2.9132,-4.3635,2097
12,-0.5349,0.2117,-0.127,2.9522,-2.8292,-4.3635,2103
12,-0.7256,0.2747,-0.1301,3.0834,-2.1921,-4.3635,2003
12,-0.9399,0.3191,-0.1443,3.4864,-1.5677,-4.3635,2046
12,-1.2859,0.311,-0.1028,4.1542,-0.9973,-4.3635,2080
12,-1.5188,0.1619,-0.022,4.3634,-0.4219,-4.3635,2026
12,-1.4766,0.147,0.0583,4.3634,0.5508,-4.3635,2078
12,-1.4307,-0.0146,-0.1965,4.2796,1.2808,-4.3635,2026
12,-0.9888,-0.3118,-0.6875,4.3145,1.659,-4.3635,2058
12,-0.2883,-0.6377,-1.1028,4.0235,1.8355,-4.3635,2035
12,0.2463,-1.0725,-1.3379,4.3445,1.0828,-4.3635,2112
12,0.9084,-1.6067,-0.8499,3.9544,-0.2116,-4.3635,2020
12,0.1294,-2.0,-0.0627,2.335,-1.2019,-4.3635,2082
12,1.9999,-2.0,-0.0835,1.8025,-2.5647,-4.3635,2032
12,0.2263,-1.2424,-1.2864,1.0009,-2.4992,-2.1495,2078
12,-2.0,-2.0,0.1055,-0.9768,-2.5117,0.4698,2096
12,-1.4001,-0.8191,-0.563,-2.1136,-0.1336,1.191,2043
12,-2.0,-2.0,-1.2373,0.1976,-0.1569,3.1618,1978
12,-2.0,-2.0,1.9999,2.0252,-0.4709,4.3634,2013
12,-1.6917,-2.0,1.9999,-4.3635,1.7518,2.4032,2040
12,1.9999,1.9999,1.9999,-4.3635,4.3634,2.6992,2194
12,0.2524,1.9999,-0.8242,-4.1893,1.3246,4.3634,2105
12,-2.0,-1.7727,-0.0996,-1.9064,0.5438,4.3634,2107
12,0.5042,-0.3777,-2.0,-4.3635,2.8562,0.6008,1795
12,1.1147,0.2307,-2.0,-2.6039,2.5729,3.1965,1939
12,-0.6643,-0.7744,0.0208,-0.4725,-0.9103,1.9849,2086
12,-0.3713,-1.2068,-0.6775,-2.1391,-2.1723,1.9474,1986
12,-1.0205,-1.1082,-0.3342,-1.7346,-1.0171,2.2626,2161
12,-1.4209,-0.6252,-0.552,-0.5181,1.3447,2.0345,2057
12,-1.6626,-0.8318,-1.7302,-1.7004,0.6039,1.2628,2019
12,0.1812,-0.3848,-1.676,-0.4898,0.025,1.0295,2230
12,1.6792,-1.1584,-0.0176,-0.5895,0.7377,2.2221,2066
12,0.0762,-0.8184,-0.9529,-0.2421,-1.1198,2.4658,2106
12,-1.0659,-0.8511,-0.2742,-0.7341,-0.7277,1.271,2001
12,-0.4512,-1.113,-0.5562,-0.3153,0.1956,1.2262,2008
12,0.1677,-1.0691,-0.5608,-0.1963,0.0401,1.7462,2050
12,-0.0405,-0.9204,-0.4204,-0.344,-0.1104,1.5467,1909
12,0.1968,-0.9614,-0.5747,-0.3412,-0.2982,1.1476,2051
12,0.0823,-1.0466,-0.3379,-0.2828,-0.3346,1.2633,2003
12,-0.2429,-1.0437,-0.2861,-0.208,-0.4607,1.1858,2103
12,-0.0881,-0.9937,-0.2734,-0.1246,-0.2356,1.2576,1997
12,-0.0718,-1.2085,-0.2095,-0.0626,-0.8325,0.8471,2050
12,0.3018,-1.1343,-0.3796,-0.0204,-0.5112,0.6312,1920
12,-0.0435,-0.9971,-0.2634,-0.2858,-0.7941,0.6153,2150
12,0.0833,-1.9089,0.0022,-0.129,-1.1672,-0.8538,2017
12,-0.6448,-0.7629,-0.47,-0.6048,0.1381,1.7458,2021
13,-0.6206,-1.2617,0.2192,-0.12,-0.4333,0.9262,2135
13,0.6001,-1.1558,-0.1638,-0.2101,-0.2229,1.0388,2111
13,-0.4199,-1.0996,0.0645,-0.383,-0.2242,1.0504,1742
13,-0.218,-1.0225,-0.1055,-0.2412,0.1619,0.9662,2238
13,0.0454,-1.1543,-0.0459,-0.2876,0.2229,1.1696,2437
13,0.3591,-1.0605,-0.0286,-0.4084,0.1755,1.1163,1925
13,0.3149,-1.0488,0.0684,-0.4619,0.0627,1.2344,2030
13,0.3672,-1.1826,0.0366,-0.433,-0.0626,1.3984,2104
13,0.3137,-1.2424,0.1006,-0.4813,-0.0567,1.539,1992
13,0.458,-1.2866,0.2739,-0.5806,-0.0902,1.6494,2041
13,0.6689,-1.3486,0.3643,-0.642,-0.2348,1.8672,2507
13,0.8203,-1.2927,0.7251,-0.7666,-0.4095,2.2099,1997
13,1.0183,-1.5596,1.1438,-0.94,-0.4839,2.6269,2029
13,1.165,-2.0,1.4961,-1.3533,-0.6521,3.0071,2071
13,0.9958,-2.0,1.7039,-1.6913,-1.1962,2.5814,2077
13,0.8472,-1.928,1.7422,-1.9032,-1.513,2.167,2046
13,0.325,-1.7207,1.4702,-1.8185,-1.4675,1.6844,2054
13,0.6831,-2.0,1.1187,-1.7117,-1.986,2.8116,2074
13,0.3457,-2.0,-0.386,-0.6763,-1.7017,3.2283,2031
13,-1.564,-0.0427,-0.2126,0.8485,0.73,4.3634,2048
13,-0.8225,-2.0,-0.5842,-1.309,2.7007,4.3634,2060
13,-0.2976,-2.0,-0.844,-1.0179,3.9896,4.3634,2056
13,0.1575,-1.8796,0.2271,-0.4715,3.0473,3.163,2052
13,0.4792,0.2573,0.2117,0.648,1.7138,2.1692,2057
13,1.6704,-0.3252,0.5837,1.7562,-0.1916,1.4235,2037
13,-0.1238,-2.0,-0.8372,-0.119,1.0361,2.7513,1982
13,-1.6475,-1.4373,-1.7698,-0.536,3.9029,2.3162,2052
13,-1.323,-2.0,-1.8086,-0.5855,4.3634,1.6981,2072
13,-0.582,-0.6055,-1.5034,-0.7642,3.0827,0.412,2050
13,-0.2039,-0.5791,-1.1843,-0.1129,0.8387,-0.3309,2070
13,0.0754,-0.6921,-0.584,-0.1144,-0.7375,-0.9014,2014
13,0.4197,0.042,-0.2004,-0.4149,-1.8409,-1.4605,2101
13,0.6355,0.7095,-0.1357,-0.5896,-2.6645,-1.8069,2017
13,0.197,0.78,-0.0901,-0.9612,-2.5842,-1.6257,2099
13,-0.5259,0.856,-0.3787,-2.0403,-1.8686,-0.738,2044
13,-2.0,0.02,-0.9912,2.7622,-2.4875,-4.3635,2039
13,1.9999,0.4995,0.1074,4.3634,-2.3011,-4.3635,2055
13,-0.3301,-0.2324,-0.1082,3.8036,-1.063,-4.3635,2024
13,-0.46,-0.0403,-0.2529,2.1053,-0.5525,-3.2399,2051
13,0.7598,0.4062,-0.1384,2.781,-1.7773,-4.3635,2052
13,-0.074,-1.0542,-0.2104,1.9017,-2.0299,-4.3635,2015
13,-0.8354,0.1191,-0.2583,2.423,-2.1724,-4.3635,2046
13,-0.8625,0.1145,-0.2478,4.2369,-1.8757,-4.3635,2043
13,-0.9519,0.0134,-0.0691,4.3634,-1.6716,-4.3635,2067
13,-1.093,0.0347,-0.2769,4.3395,-0.4579,-4.3635,2030
13,-1.1479,-0.0181,-0.1523,4.3478,0.1225,-4.3635,2055
13,-1.0361,-0.248,-0.1021,4.3634,0.4513,-4.3635,2030
13,-0.7546,-0.365,-0.437,4.3634,1.0112,-4.3635,2083
13,-0.6277,-0.282,-0.9397,4.3634,1.4237,-4.3635,2017
13,-0.6167,-0.325,-1.2192,4.0387,1.3444,-4.3635,2011
13,-0.1528,-0.9148,-1.342,3.2022,0.2875,-4.3635,2008
13,1.2827,-1.939,-1.356,3.1662,-0.9565,-4.3635,2065
13,1.5964,-2.0,-0.9895,2.8221,-2.2288,-3.0348,2026
13,0.7544,-1.6165,-1.0625,2.5273,-3.7842,-2.2525,2062
13,-0.3499,-2.0,-1.1199,2.227,-4.1988,-1.8663,2036
13,-1.3179,-1.5923,-0.3992,0.4384,-3.7338,-1.2158,2041
13,-2.0,-2.0,-0.6528,-2.0479,-4.3635,-2.9608,2009
13,-1.6633,-1.8425,-0.9858,-2.3241,-3.7475,-2.7364,2050
13,-2.0,-0.325,-0.7898,-1.3272,-0.1722,2.697,2004
13,-2.0,1.22,1.1736,-2.3301,2.9561,3.6101,1540
13,-2.0,-2.0,1.9999,-2.1698,0.8553,3.2232,2452
13,1.8926,-2.0,1.9999,-0.0904,-2.3313,-1.1082,2268
13,1.9999,-2.0,1.9999,2.6831,4.3634,-1.5596,1976
13,1.9999,-0.4814,-0.6978,-4.3635,4.3634,4.3634,2056
13,-2.0,1.9999,-2.0,-4.3635,4.3634,3.785,2110
13,-2.0,0.2444,-2.0,-4.3635,-4.3635,2.0274,1988
13,-0.1953,-0.9521,-0.645,-3.5178,-2.8765,-0.2587,1992
13,1.9999,-1.3772,0.3989,-3.1919,-1.1298,1.2561,2035
13,0.136,-0.1116,-0.5857,-4.3635,-1.884,1.9046,2028
13,-0.887,-0.4641,-1.5537,-2.5769,0.3002,2.3916,2032
13,-0.5354,-0.7036,-0.5955,-0.8329,1.4557,2.5031,2060
13,-1.3389,-0.6331,-0.9517,-0.4827,1.1529,2.043,2065
13,-1.1541,-0.449,-1.2961,-0.8475,0.3843,0.9044,2122
13,-0.3987,-0.4092,-1.6038,-0.7505,0.1049,-0.0024,1869
13,1.1995,-0.6948,-1.4846,0.3502,-0.0394,0.8713,2069
13,1.1492,-0.9907,-0.0703,0.5332,0.7959,1.9503,2202
13,0.3748,-0.9724,-0.1421,0.1057,0.649,2.0924,2045
13,-0.3733,-0.8293,-0.7383,0.828,-0.3389,1.4515,1972
13,-0.6482,-0.9058,-0.2302,0.4444,-0.4293,1.1776,1872
13,-0.2202,-1.0071,-0.0676,0.2292,0.3583,1.4363,2010
13,0.0593,-0.9993,-0.2295,0.5197,0.5428,1.6213,1990
13,-0.0171,-0.9939,-0.2493,0.4252,0.1112,1.4221,2178
13,0.0383,-1.158,-0.1218,0.2253,-0.2543,1.2151,2003
13,0.0225,-1.0857,-0.2134,0.0342,-0.3871,1.3319,1899
13,-0.22,-0.762,-0.2244,0.1799,-0.5313,1.1676,1941
13,-0.3345,-1.2849,-0.061,0.2063,-0.4428,0.6592,1987
13,-0.1914,-1.0488,-0.2583,0.2723,-0.1924,0.6084,2005
13,-0.147,-1.4038,-0.1379,0.232,-0.5934,0.4564,1837
13,-0.8162,-0.6599,-0.3708,0.1712,-0.212,1.0208,1699
13,-0.6257,-1.2349,-0.1353,0.1458,-0.172,0.8175,1835
13,0.0232,-1.219,-0.1533,0.4354,-0.2874,0.6161,1958
13,0.0608,-1.2881,-0.2036,0.237,-0.4303,0.5163,2524
13,0.1968,-1.4314,0.0745,-0.0898,-0.5689,0.5331,1694
13,0.2026,-1.4561,0.3271,0.0073,-0.5926,0.5887,1737
13,0.2671,-1.3635,0.2378,-0.0469,-0.412,0.7521,2022
13,0.4287,-1.2427,0.2659,-0.1306,-0.233,1.0208,1972
13,0.5874,-1.3899,0.3535,-0.2358,-0.0257,1.362,1860
13,0.7314,-1.2961,0.3794,-0.3308,0.0559,1.6773,1699
13,0.7878,-1.3364,0.5706,-0.5349,0.0356,2.0176,2003
13,1.0195,-1.3474,0.6729,-0.7818,-0.0438,2.3281,1968
13,1.072,-1.3271,0.6521,-1.0436,-0.1779,2.5895,2149
14,1.0647,-1.4714,0.6626,-1.3723,-0.182,2.8641,1943
14,1.0681,-1.4841,0.8574,-1.6261,-0.1931,3.1076,2182
14,1.1631,-1.4758,1.0488,-1.8414,-0.4076,3.2448,2064
14,1.2219,-1.2468,1.1953,-1.9532,-0.7958,3.3866,1987
14,0.8401,-1.4829,1.2788,-1.9285,-0.8576,3.5378,2022
14,0.1748,-2.0,1.3301,-1.6526,-0.3755,3.6351,2008
14,0.019,-2.0,1.4067,-1.6841,0.6622,2.8046,2072
14,0.4617,-2.0,0.9573,-2.5152,0.5317,2.492,2063
14,1.9238,-2.0,0.0317,-1.7365,-2.1875,2.6425,2101
14,0.2546,-0.373,-0.8591,0.2442,-1.5471,4.321,2049
14,-1.6572,-2.0,-0.8901,-1.4283,1.4395,4.3634,2111
14,0.0471,-2.0,-1.2803,-1.5009,2.5219,4.3634,2020
14,-0.1904,-1.6533,-0.3662,-0.4378,2.706,3.7664,2051
14,0.4539,1.5317,-0.0649,1.1792,1.1812,2.066,2042
14,0.7708,-1.686,-0.1062,1.6745,0.0364,2.2007,2014
14,-1.2004,-2.0,-1.0725,0.9423,1.7311,3.0573,2041
14,-1.5984,-0.8848,-1.6953,0.0216,3.892,2.2798,2059
14,-2.0,-1.8813,-1.5928,-0.3268,3.3186,1.7412,2085
14,-1.4937,-0.5684,-1.1348,-0.5753,2.0109,0.3298,2100
14,-1.0503,-0.5476,-0.7007,-0.4872,0.8922,-0.8648,2069
14,-0.2463,-0.2349,-0.3301,-0.3177,-0.0213,-1.706,2054
14,0.1636,0.343,0.186,-0.8403,-0.8215,-1.7265,2041
14,-0.073,0.6426,0.2202,-1.2833,-1.1136,-2.0441,2026
14,-0.4438,0.4175,-0.0142,-1.2987,-1.0098,-2.077,2040
14,-0.5134,-0.2554,-0.1172,0.1189,-0.6629,-2.3316,2036
14,-0.6074,-0.4443,-0.1975,2.2925,-0.3261,-3.8808,2043
14,0.0559,0.2419,-0.1116,2.958,-0.0459,-4.3635,2035
14,-0.0876,0.1294,-0.0764,2.3876,-0.088,-4.3635,2055
14,-0.4045,-0.0017,-0.095,1.8519,0.0129,-4.3635,2030
14,-0.1506,-0.1719,-0.168,1.798,-0.1681,-4.3635,2055
14,-0.1277,-0.0674,-0.178,2.5826,-0.8985,-4.3635,2080
14,-0.4231,0.0813,-0.0715,3.2676,-1.5579,-4.3635,2050
14,-0.5117,0.1545,-0.0691,3.6836,-1.3243,-4.3635,2052
14,-0.761,0.199,0.041,3.6974,-0.5707,-4.3635,2055
14,-0.4392,0.1687,-0.0042,3.9207,0.0289,-4.3635,2038
14,-0.6775,0.1252,-0.1809,4.3113,0.5432,-4.3635,2060
14,-0.8835,0.0515,-0.4075,4.3634,1.0236,-4.3635,2046
14,-0.8552,0.0359,-0.6162,4.3634,1.0179,-4.3635,2065
14,-0.8818,-0.0583,-0.8777,4.3634,0.7284,-4.3635,2049
14,-0.6558,-0.0435,-1.3257,4.3634,0.6316,-4.3635,2040
14,-0.0735,-0.55,-1.3411,4.3634,0.6929,-4.3635,2052
14,0.4407,-1.6858,-0.8442,4.3634,0.3053,-4.3635,2061
14,-0.2751,-2.0,-0.0493,4.1682,-1.2284,-4.3635,2044
14,0.918,-2.0,-0.3623,3.6491,-2.5143,-4.3635,2036
14,-1.7925,-2.0,-0.7156,2.2692,-0.8578,0.7628,2127
14,-2.0,-2.0,-0.4067,-1.9915,-1.1118,-0.1465,2053
14,-0.5234,-2.0,-0.8127,-2.2511,0.8387,1.5576,2069
14,-2.0,-2.0,-0.8503,-0.2766,1.8402,4.3634,2016
14,-2.0,-2.0,1.9999,0.6601,0.7546,4.2535,2012
14,0.0085,-2.0,1.9999,-4.3635,0.9289,1.2505,2031
14,1.9999,1.0134,1.9763,-4.3635,1.7385,2.4735,2079
14,1.9999,1.9999,-0.1216,-3.8773,0.7564,2.9341,2214
14,-2.0,-1.7173,-0.5122,-3.3905,0.7674,4.3517,2106
14,-2.0,-0.3516,-2.0,-4.3635,3.677,1.077,1871
14,1.2751,0.3069,-2.0,-4.3635,3.1285,1.4978,1792
14,0.4971,-0.2644,-0.5981,-1.0931,-3.0565,0.9877,3310
14,0.3789,-0.4307,0.1179,-1.6496,-2.5049,1.3993,1720
14,-0.741,-0.991,-0.9102,-1.7129,-1.4748,1.5727,1725
14,-0.7656,-0.7485,-0.4883,-1.1752,0.2113,1.6322,2128
14,-0.7012,-0.8926,-0.6272,-0.8064,1.5298,1.6427,2101
14,-0.7478,-0.7976,-0.9614,-0.6718,0.5405,1.3248,2102
14,-1.1599,-0.8389,-0.9058,-0.6964,-0.3639,0.587,2027
14,-0.4385,-0.8098,-1.1047,-0.3878,-0.5295,0.3232,2112
14,0.3909,-0.9233,-0.4927,0.0445,0.1663,0.8581,2047
14,0.8369,-0.9717,-0.2017,-0.082,0.6526,1.4581,1990
14,0.2539,-0.9692,-0.8125,0.2623,-0.316,1.543,2058
14,-0.5713,-0.8599,-0.5916,0.0107,-1.0022,1.1585,2167
14,-0.2512,-0.834,-0.3684,-0.1751,-0.363,1.0621,2140
14,0.1033,-0.9739,-0.2295,0.1109,-0.2679,1.4102,2081
14,-0.0583,-1.0417,-0.2139,0.0156,-0.3097,1.2669,1866
14,-0.0129,-1.0986,-0.3416,-0.0081,-0.2787,0.9601,2108
14,0.1746,-1.0676,-0.3071,-0.0656,-0.3244,1.0836,2105
14,0.0146,-1.0317,-0.2896,-0.0173,-0.4446,1.1132,1947
14,-0.1575,-1.0298,-0.2253,0.0189,-0.5131,0.8878,2032
14,-0.1355,-1.0186,-0.2219,-0.0394,-0.391,0.6036,2106
14,-0.1484,-1.145,-0.2627,-0.0471,-0.3493,0.2012,2224
14,-0.1006,-1.2808,-0.1233,0.0417,-0.6054,0.1573,2007
14,-0.4915,-1.3416,-0.2339,0.1019,-0.6232,0.4003,2078
14,-0.5852,-1.0425,-0.2854,0.0407,-0.3469,0.5484,1955
14,-0.0364,-1.2122,-0.2117,-0.1105,-0.5056,0.3277,1918
14,-0.1277,-1.1521,0.05,-0.0322,-0.5068,0.3437,2259
14,-0.3391,-1.249,-0.0396,0.1398,-0.5719,0.238,2078
14,-0.1074,-1.3269,0.0886,0.0333,-0.4766,0.3277,1822
14,0.2119,-1.2122,0.0308,0.1603,-0.4422,0.3671,2501
14,0.4944,-1.4211,0.1824,0.1197,-0.4639,0.6399,2047
14,0.6128,-1.374,0.3254,-0.0487,-0.2796,0.9067,1817
14,0.793,-1.2642,0.531,-0.2161,-0.2585,1.1595,2203
14,1.0332,-1.2646,1.0767,-0.5003,-0.2325,1.7136,1955
14,1.2085,-1.2773,1.3252,-0.8734,-0.2246,2.2527,2041
14,1.1565,-1.4551,1.2478,-1.1782,-0.0993,2.7422,1988
14,0.9258,-1.7756,1.1797,-1.5036,-0.3344,3.3517,1985
14,1.0225,-1.8389,1.2129,-1.7816,-0.497,3.314,2051
14,1.1726,-1.7312,1.3235,-1.9634,-0.8981,3.1195,2043
14,1.1602,-1.7048,1.4858,-1.9929,-1.1541,2.8898,2082
14,0.7175,-2.0,1.4993,-1.856,-1.2022,1.9943,2045
14,0.5938,-2.0,1.5923,-2.1335,-1.0648,2.4642,2026
14,0.1829,-1.6753,1.3657,-2.1232,-0.9248,3.0634,2025
14,1.4993,-2.0,0.3093,-1.8592,-2.9625,2.2727,2055
14,0.1943,-0.3821,-0.6216,1.0002,-2.4322,2.5346,2001
14,-1.6985,-2.0,-0.5332,-0.6778,0.9287,4.3634,2188
14,-0.2432,-2.0,-1.248,-1.3986,2.7618,4.3634,2099
14,0.3315,-2.0,-0.408,-0.926,2.4168,3.5625,2058
14,0.1094,-1.0049,-0.2573,-0.0465,0.8931,3.2581,2061
15,0.5852,1.1235,-0.2988,1.8835,-0.5216,1.6773,2053
15,1.5342,-2.0,-0.415,2.179,-2.2429,2.3121,2048
15,-1.8191,-1.8713,-1.5439,1.2027,2.1608,2.9078,2035
15,-2.0,-1.5342,-1.6929,0.5593,4.2766,2.0407,2071
15,-1.6318,-1.4602,-1.5291,0.1906,3.8238,1.0929,2059
15,-1.1809,-0.6042,-1.3369,-0.2638,2.0225,-0.0226,2054
15,-0.7317,-0.5583,-1.1184,0.128,0.2562,-0.8284,2026
15,-0.249,-0.2327,-0.6558,0.3611,-0.222,-1.7524,2058
15,0.0886,0.1594,-0.4819,0.3095,-0.5886,-1.8458,2058
15,-1.8555,0.7874,-0.0896,-1.1914,0.5936,-1.3418,2118
15,-0.5591,0.6731,0.0779,0.7755,-2.3069,-4.2989,1982
15,-0.1094,0.5156,-0.1382,0.9548,0.8857,-3.2733,2072
15,-0.5066,0.5823,-0.1443,3.6629,2.1991,-4.3635,2069
15,-0.1526,0.3757,-0.1077,3.101,1.8777,-4.3635,2042
15,0.4509,-0.0525,-0.3308,2.4408,1.5147,-4.3635,2028
15,0.2507,-0.6055,-0.5334,2.4982,1.3685,-4.3635,2057
15,0.4028,-0.0334,-0.2085,2.8135,0.848,-3.4908,2060
15,-0.2937,0.2437,-0.1929,4.3634,0.0807,-2.5558,2014
15,-0.2126,0.4902,0.0535,3.9924,-0.6556,-4.3635,2075
15,-0.0271,-0.1904,-0.4529,3.6956,-0.6288,-4.3635,2080
15,-0.4744,-0.3708,-0.1223,4.0215,-0.8717,-4.3635,2079
15,-0.5447,-0.1431,-0.2793,4.0144,-0.5673,-4.3635,2033
15,-0.4207,-0.2576,-0.407,3.6106,-0.6484,-4.3635,2074
15,-0.6968,-0.4036,-0.7019,2.9945,-1.0903,-4.3635,2051
15,-0.6055,-0.4912,-0.9912,2.5341,-0.836,-4.3635,2055
15,-0.3635,-0.5134,-1.4434,2.7225,-0.4227,-4.3635,2068
15,-0.0293,-0.7253,-2.0,3.0368,-1.0701,-4.3635,2046
15,0.4595,-1.7502,-1.0559,2.0743,-2.3763,-4.3635,2017
15,1.3835,-2.0,-1.1519,2.0981,-3.7383,-4.0622,2045
15,0.6833,-2.0,-1.1316,1.0793,-4.3635,-3.1752,2065
15,-0.1482,-2.0,-1.1536,0.5333,-4.3635,-2.3284,2040
15,-0.1086,-2.0,-0.5339,-1.5231,-4.3635,-3.3346,2051
15,-0.4302,0.5525,-0.1116,-2.5947,-4.3635,-1.4713,2052
15,-2.0,-1.8481,-0.1348,-1.0672,-3.4804,2.8108,1714
15,-2.0,0.6116,0.9043,-2.7533,0.9918,3.5532,974
15,-2.0,-0.9243,1.9999,-1.2073,-0.0394,3.6436,2883
15,-1.7119,-2.0,1.9999,-3.1242,2.3357,0.5926,2656
15,1.9999,-2.0,1.2659,-2.1823,4.3634,-1.7607,2394
15,1.9999,-0.0295,-2.0,-2.0687,4.3634,4.3634,2023
15,-2.0,1.6079,-1.4746,-3.0441,4.3623,4.3634,1939
15,-2.0,0.2727,-0.6587,-3.8732,-1.6719,3.0155,1937
15,-0.8188,-0.4878,-0.9722,-4.3148,-2.7854,1.9124,2020
15,1.3098,-0.6816,-0.2104,-2.9751,-1.0176,2.3688,2035
15,-0.3464,-0.8948,-0.136,-2.8641,-3.1873,2.7486,2018
15,-1.3728,-0.8018,-0.2852,-2.3354,-1.4455,2.1045,2048
15,-1.0542,-1.0598,-0.009,-1.0692,0.0188,2.2101,2052
15,-2.0,-0.7417,-0.1233,-1.1283,0.6553,1.8491,2029
15,-2.0,-0.8162,-1.2163,-1.4326,0.5618,0.6682,2031
15,-0.4885,-0.5911,-1.9094,-1.0612,0.8897,0.1147,2036
15,1.0322,-0.4937,-1.5981,-0.1523,1.2524,0.6697,2058
15,1.1367,-0.855,-0.8254,-0.1361,0.7705,1.5099,2034
15,1.0847,-0.9099,-0.6265,-0.0574,0.0675,2.5494,2044
15,0.0947,-0.7786,-0.7822,0.3653,-0.4402,1.7038,2082
15,-0.4717,-0.7612,-0.7451,0.6719,-0.2125,0.9808,2011
15,-1.1426,-0.866,-0.6272,0.5718,-0.3305,0.8287,2139
15,-0.6013,-0.981,-0.4619,0.5612,0.3284,1.103,2142
15,-0.0491,-1.084,-0.2234,0.4811,0.2907,0.8087,2008
15,0.2627,-0.9541,-0.4609,0.5536,0.0848,1.3918,1974
15,0.0564,-0.9326,-0.1445,0.7931,-0.9317,0.8909,2024
15,-0.1321,-1.1277,-0.1179,0.5284,-0.7032,0.744,2038
15,-0.3809,-1.1633,-0.1636,0.328,-0.4707,0.3405,2042
15,-0.0811,-1.0308,0.0574,0.3428,-0.6637,0.3251,1977
15,-0.1096,-1.1128,-0.2092,0.7383,-0.783,-0.124,2036
15,-0.3977,-0.856,-0.3179,0.2156,-0.1001,0.3677,1956
15,-0.5332,-0.9807,0.0112,0.1511,0.0213,0.9863,1886
15,-0.2478,-1.0166,-0.1758,0.3529,0.0181,0.3107,2014
15,-0.2173,-1.0381,-0.1921,0.2204,-0.1216,0.452,2114
15,-0.22,-1.425,-0.2739,0.2148,-0.1807,0.7847,2219
15,-0.0037,-1.1294,-0.3494,0.2558,-0.4707,0.4223,1948
15,-0.0698,-1.2241,-0.2773,0.1405,-0.4429,0.3936,1612
15,-0.2144,-1.447,-0.0957,0.2357,-0.6641,0.4738,1891
15,-0.0454,-1.4988,-0.0696,0.2176,-0.3043,0.8546,3231
15,0.2249,-1.2957,0.2068,0.1245,-0.4425,0.7295,1985
15,0.4172,-1.1736,0.7039,0.0093,-0.1561,1.1444,2125
15,0.5327,-1.0479,1.0881,-0.1673,0.0867,1.2081,1779
15,0.7412,-1.2468,0.9399,-0.4187,0.7027,1.6784,1972
15,1.1584,-1.5085,0.6208,-0.5169,0.6927,2.1815,2040
15,1.1626,-1.7217,0.415,-0.8142,0.3766,2.474,1960
15,1.2231,-1.7742,0.2937,-1.1303,-0.041,2.5346,1816
15,0.8931,-1.5364,0.366,-1.3306,-0.4152,2.5682,2031
15,0.814,-1.3611,0.4568,-1.4882,-0.5542,2.6436,2061
15,0.7104,-1.2952,0.6938,-1.4964,-0.7455,2.7597,1982
15,0.7441,-1.2415,1.041,-1.4988,-0.872,2.7892,1978
15,0.5896,-1.0256,1.2866,-1.3442,-0.826,2.634,2024
15,0.6223,-1.1926,1.3594,-1.1876,-0.6018,3.0245,2075
15,0.416,-1.8743,1.1455,-1.3091,-0.2515,2.8168,2066
15,0.8081,-2.0,0.9597,-1.5743,-0.3835,2.4671,2065
15,0.8782,-2.0,0.4551,-0.6909,-1.4027,2.485,2061
15,-0.436,-1.5029,-0.1626,-0.3201,-0.9107,4.0571,2059
15,-0.5632,-1.0725,-1.0088,-0.9788,0.3004,4.3634,2062
15,-0.0825,-2.0,-0.9004,-0.5465,2.0984,4.3634,2036
15,0.0952,-2.0,-0.2859,-0.8729,1.4518,3.7866,2077
15,-0.1047,-1.1477,-0.3176,-0.241,1.2037,3.4143,2064
15,0.0625,0.8044,-0.3191,0.9809,0.965,2.1941,2071
15,1.5769,-0.7712,-0.0183,2.1021,-1.5113,1.4432,2039
15,-1.0515,-2.0,-1.0046,1.105,0.8112,2.5851,2038
15,-1.8462,-1.0786,-1.6887,0.0269,2.7377,2.4657,2064
15,-2.0,-1.7598,-1.4165,0.3424,2.043,1.6518,2056
15,-1.4805,-0.5298,-1.1636,-0.5464,1.3382,0.3826,2058
15,-1.207,-0.5454,-0.9692,-0.0919,0.5592,-0.4244,2041
15,-0.604,-0.3374,-0.5801,0.1514,0.4356,-1.3114,2044
15,-0.3364,0.0085,-0.2256,-0.39,0.4023,-1.9341,2070
16,-0.3142,0.4871,-0.0396,-1.0463,-0.0041,-1.9651,2082
16,-0.7947,1.0042,-0.1184,-0.4809,-0.2995,-2.3241,2010
16,-0.9487,0.3171,0.1194,-0.7954,0.2187,-2.4191,2042
16,-0.302,-0.4924,-0.1785,0.6485,0.9805,-2.7365,2064
16,-0.2161,-0.1125,-0.2063,2.5998,1.1963,-3.327,2008
16,-0.1123,0.0481,-0.0752,2.6478,1.4649,-4.3635,2056
16,0.032,-0.2778,-0.1282,2.1156,1.4973,-4.0466,2043
16,0.0662,-0.3057,-0.1184,2.37,0.8742,-3.8932,2053
16,0.0537,-0.2244,-0.1636,2.4366,0.1214,-3.8713,2043
16,-0.3457,-0.2659,-0.3643,2.6972,-0.1778,-3.9985,2057
16,-0.3088,-0.177,-0.3384,3.442,-0.4707,-4.3635,2064
16,-0.1455,-0.2734,-0.1057,3.7583,-0.5596,-4.3635,2034
16,-0.1682,-0.3367,-0.0608,3.7358,-0.4635,-4.3635,2070
16,-0.4097,-0.2549,-0.1409,3.9297,-0.3449,-4.3635,2044
16,-0.6165,-0.1853,-0.2798,4.0483,0.1635,-4.3635,2051
16,-0.7095,-0.249,-0.4851,4.3634,0.6536,-4.3635,2080
16,-0.7224,-0.1094,-0.6343,4.3634,1.063,-4.3635,2024
16,-0.595,-0.241,-0.8274,4.3634,0.9754,-4.3635,2048
16,-0.3325,-0.3225,-0.9382,4.3634,0.6296,-4.3635,2056
16,0.1431,-0.7898,-1.2405,4.3634,0.0862,-4.3635,2034
16,0.4631,-1.2705,-1.2136,4.214,-0.2378,-4.0868,2065
16,0.6033,-1.9197,-1.0903,3.5555,-1.3392,-3.2865,2043
16,0.0645,-1.9624,-1.0789,2.3835,-2.1413,-2.4286,2039
16,-0.5356,-1.7544,-1.0042,1.3126,-2.894,-1.6705,2050
16,-0.4348,-2.0,-0.8181,0.4276,-3.5391,-1.5005,2055
16,-0.998,-2.0,-0.5552,-1.0965,-3.8683,-1.4471,2053
16,-1.7239,-2.0,-0.7549,-1.9132,-3.4505,-2.0572,2067
16,-0.7095,0.4126,-1.6726,-3.1043,-4.0455,0.3081,2064
16,-2.0,0.8894,1.2258,1.2864,1.9118,3.758,1977
16,-2.0,-2.0,1.9919,-2.7911,1.25,2.9805,2138
16,-0.2341,-2.0,1.9999,-1.5396,-0.7962,2.2772,1991
16,1.9999,-2.0,1.9999,0.2569,2.7064,-0.0871,2014
16,1.9999,-1.8528,0.8755,-0.6481,4.3634,0.787,2076
16,-1.7566,1.27,-1.6445,-4.3635,4.3634,4.3634,2127
16,-2.0,0.3171,-2.0,-4.3635,1.7118,3.38,2019
16,-1.9065,-0.1111,-1.8435,-4.3058,-1.3808,1.6321,2001
16,1.7698,-0.7688,-0.491,-2.2731,-1.1825,0.0145,2039
16,1.9999,-1.1055,-0.0164,-2.6988,-1.8141,2.0048,2063
16,0.1023,-0.8542,-0.3113,-2.6562,-1.1287,2.0735,2062
16,-0.9189,-0.7502,0.2834,-0.7726,1.1721,2.3248,2057
16,-1.1345,-1.0037,0.3875,-1.0722,1.4676,2.4209,2056
16,-1.7302,-0.8252,-0.2014,-1.5788,0.7634,1.5772,2054
16,-1.5752,-0.8831,-0.5027,-1.9222,-0.7973,0.8341,2031
16,-0.7368,-0.7722,-0.8428,-1.4434,-0.4936,0.7825,2067
16,0.5132,-0.845,-0.9292,-0.804,0.6927,0.909,2066
16,0.9368,-0.8621,-0.8999,-0.6947,0.5805,1.4949,2029
16,0.6494,-0.7141,-0.8684,-0.2658,-0.0028,1.4933,2049
16,0.0322,-0.8113,-0.7871,0.0671,-0.6617,1.3648,2026
16,-0.4429,-0.7961,-0.8997,0.2441,-0.9617,1.1726,2011
16,-0.5156,-0.854,-0.5129,0.1132,-0.5498,1.0774,2134
16,-0.3835,-1.0132,-0.1782,-0.1055,0.0221,1.0235,1966
16,-0.0688,-1.0164,-0.3704,-0.0246,0.2301,0.9694,1930
16,-0.0012,-1.0029,-0.3777,0.0955,0.2004,1.0476,1509
16,0.0767,-0.9668,-0.3445,0.0372,-0.0515,1.0003,1898
16,0.1084,-1.0342,-0.3206,0.0791,-0.1653,1.0215,2165
16,-0.1604,-1.1062,-0.2117,-0.0057,0.1072,0.8843,2013
16,-0.4983,-1.0552,-0.2134,0.0127,0.1475,0.6734,2061
16,-0.3152,-1.0781,-0.1951,-0.1812,0.3328,0.3049,2203
16,-0.1528,-1.1509,-0.1821,0.0273,-0.0582,0.1224,1979
16,-0.2786,-1.2463,-0.2812,-0.0381,0.1895,0.0419,1995
16,-0.1194,-0.887,-0.1343,0.082,-0.0272,0.2369,1691
16,-0.5916,-0.9246,-0.2261,0.0953,0.1862,0.921,2000
16,-0.7732,-1.2446,-0.2515,0.0522,0.2517,0.7445,1881
16,0.075,-1.499,-0.238,0.0142,0.0716,0.5791,2244
16,-0.0078,-1.0981,-0.3113,0.1017,-0.2473,0.4454,2383
16,-0.0361,-1.4717,-0.3335,0.0815,-0.5189,0.4626,2074
16,-0.0037,-1.5081,-0.1145,0.0919,-0.6806,0.4227,1991
16,0.2102,-1.3965,0.062,0.0395,-0.5229,0.3967,1787
16,0.4155,-1.3765,0.2209,-0.0531,-0.3228,0.5546,2233
16,0.6433,-1.2207,0.5469,-0.2119,-0.0381,1.0849,2257
16,1.0295,-1.1514,0.8706,-0.4224,0.0975,1.5961,2383
16,1.2356,-1.2004,0.8306,-0.5863,0.2027,1.8053,2117
16,1.1904,-1.4573,0.6375,-0.8359,0.0949,2.2993,1985
16,0.8804,-1.5659,0.5134,-1.1632,-0.2076,2.5663,1813
16,0.9517,-1.6145,0.6438,-1.4002,-0.5078,2.7051,1952
16,0.9646,-1.4365,0.7988,-1.5303,-0.7528,2.8429,1969
16,0.936,-1.4961,0.9375,-1.5787,-0.8299,3.0023,2056
16,0.9358,-1.5308,1.0271,-1.4455,-0.7882,3.1656,2063
16,0.8435,-1.6077,1.3091,-1.2034,-0.6826,3.2764,2062
16,0.605,-1.926,1.634,-1.1308,-0.5424,2.5278,2055
16,0.6719,-2.0,1.6028,-1.4247,-0.5781,2.0294,2054
16,0.9028,-1.9985,0.8853,-1.9706,-1.2323,1.731,2047
16,0.3074,-1.0999,-0.3689,-0.6992,-1.9146,3.1558,2051
16,-0.9348,-1.426,-0.616,-1.0786,0.5757,4.3634,2059
16,-0.6904,-2.0,-0.6328,-1.4049,2.0374,4.3634,2067
16,0.2371,-2.0,-0.1111,-1.8568,1.4107,4.108,2068
16,-0.0127,-1.7449,-0.3828,-1.3466,0.4863,3.3749,2048
16,-0.1514,0.3323,-0.1917,-0.1626,0.6681,2.7823,2065
16,1.1453,-0.3184,0.0588,1.2856,-0.5594,1.344,2045
16,-0.7451,-2.0,-0.5535,-0.0625,1.4026,2.7364,2019
16,-1.6802,-1.0339,-1.543,-0.6356,4.3634,2.1132,2074
16,-2.0,-1.9082,-1.4785,-0.883,3.7969,1.2632,2058
16,-1.5818,-0.6355,-0.8965,-1.2477,1.8668,0.0549,2082
16,-1.1235,-0.5134,-0.5413,-1.048,0.1027,-0.9267,2055
16,-0.302,-0.2571,-0.0554,-0.7957,-0.5742,-1.8853,2049
16,0.3782,-0.0061,0.3706,-1.6283,-1.0461,-2.0991,2034
16,-0.0032,0.4651,0.2285,-2.3003,-1.7799,-2.1699,2048
16,-0.5046,0.8025,0.0112,-2.0437,-1.4141,-2.1598,2047
16,-0.8635,-0.0991,-0.2224,-1.4019,-0.6753,-2.5964,2045
16,-0.9866,-0.259,-0.4158,0.3528,-0.1626,-3.6328,2044
16,-0.2188,0.323,-0.3423,2.2268,0.1037,-4.3635,2042
16,-0.0703,0.2683,-0.1948,2.0423,-0.558,-4.3635,2045
16,-0.6836,0.1719,-0.1943,1.6206,-0.2293,-4.3635,2056
16,-0.376,0.0122,-0.2944,1.7904,0.1097,-4.3635,2055
16,-0.1482,0.0696,-0.2212,2.6422,-0.4151,-4.3635,2050
17,-0.2295,0.1523,-0.1494,3.2664,-0.9274,-4.3635,2043
17,-0.5129,0.1868,-0.1047,3.5748,-0.5328,-4.3635,2041
17,-0.4822,0.2063,-0.0439,3.7745,0.1646,-4.3635,2043
17,-0.3149,0.2939,-0.1274,4.2117,1.1734,-4.3635,2035
17,-0.4287,0.0547,-0.2944,4.3634,1.3916,-4.3635,2058
17,-0.8369,0.0928,-0.7268,4.3634,1.3553,-4.3635,2051
17,-0.4878,-0.0991,-0.9961,4.3634,0.603,-4.3635,2044
17,-0.4087,-0.2905,-1.2607,4.3634,0.0186,-4.3635,2060
17,-0.4192,-0.5857,-1.5273,4.2021,-0.661,-4.3635,2040
17,-0.031,-1.231,-1.7168,3.8929,-1.4641,-4.3635,2049
17,0.2898,-1.687,-1.6758,3.9175,-2.1578,-4.0476,2048
17,-1.2366,-2.0,-0.6333,1.7427,-3.7083,-4.3635,2055
17,1.1443,-1.2834,-1.4324,-1.8032,-2.9389,-4.3635,2051
17,-1.4041,-1.6509,-1.604,-0.7403,-3.6219,-0.6923,2062
17,-2.0,-2.0,0.8579,0.4036,-2.1196,1.8223,2058
17,-2.0,0.1882,-1.6292,-2.4709,0.8012,2.4533,2023
17,-2.0,-2.0,0.8857,2.2257,0.3144,4.1877,2021
17,-2.0,-2.0,1.9999,-3.1099,1.0744,2.3918,2034
17,1.9999,1.9999,1.9999,-4.3635,3.623,1.417,2159
17,1.9999,0.0476,-0.5491,-2.6048,3.1404,2.1828,1991
17,-2.0,-1.4741,0.1543,-2.5376,2.0007,4.2467,2125
17,-1.4624,0.4229,-2.0,-4.3635,2.7292,0.9352,2098
17,0.8601,-0.0479,-2.0,-2.8605,1.9441,2.1008,1916
17,-0.4695,-0.8479,-0.5073,-0.9788,-0.5873,1.851,2036
17,-0.1724,-0.9341,-0.2422,-1.1672,-2.8438,1.5534,2040
17,0.1438,-0.8857,-0.1353,-1.4785,-2.1138,1.4897,2059
17,-0.2314,-0.9565,0.0364,-1.2894,-1.2378,1.8211,2046
17,-1.1636,-1.0261,0.061,-1.2288,0.5789,1.7062,2032
17,-1.6096,-1.0171,-0.5669,-1.1524,0.8649,1.2523,2055
17,-0.8955,-0.6714,-1.532,-0.7359,0.1021,0.767,2047
17,0.0991,-0.4646,-1.7971,-0.0695,0.1519,0.8427,2037
17,0.9419,-0.6169,-1.0081,0.3167,0.1599,1.1078,2004
17,1.3569,-0.8477,-0.5049,-0.0407,0.0582,1.5667,2037
17,0.5583,-0.782,-0.9556,0.394,-0.1659,1.6507,2051
17,-0.481,-0.7766,-0.8435,0.7678,-0.7894,1.401,2039
17,-0.6628,-0.8955,-0.1943,0.1421,-0.7958,1.0701,2079
17,-0.345,-0.9871,-0.2773,0.3143,0.1266,1.1588,2080
17,-0.1772,-1.0022,-0.1848,0.4035,0.485,1.2552,1980
17,-0.0596,-0.9966,-0.3198,0.3286,0.304,1.3211,2052
17,-0.0413,-0.9993,-0.2773,0.2902,-0.0711,1.2126,1860
17,0.0479,-1.0581,-0.1885,0.2658,-0.4015,1.2416,1736
17,0.2349,-1.0654,-0.2678,0.2529,-0.6821,1.0765,2183
17,-0.563,-0.679,-0.3726,-0.0804,-0.4681,0.6962,2022
17,-0.6396,-1.3438,-0.1899,0.2115,-0.4111,0.1611,1957
17,-0.2092,-1.2693,-0.3811,0.3872,-0.5697,-0.0935,1602
17,-0.6035,-0.8855,-0.5525,0.2722,0.0189,1.2295,2234
17,-0.551,-0.9958,-0.2383,0.2854,-0.0164,0.683,2002
17,0.312,-1.5488,-0.2634,0.3015,-0.2783,0.3996,1778
17,-0.0349,-1.1584,-0.1768,0.1221,-0.6422,0.191,1826
17,-0.0576,-1.4443,-0.0706,0.0602,-0.7474,0.1918,1901
17,-0.1299,-1.446,0.0288,0.1084,-0.7536,0.1971,1684
17,0.2166,-1.3853,0.0537,0.1145,-0.5739,0.2719,2158
17,0.0647,-1.1455,0.1187,0.1321,-0.7283,0.3528,1804
17,0.3804,-1.2209,0.3335,0.121,-0.4225,0.7456,1964
17,0.4111,-1.2544,0.5874,-0.0346,-0.171,1.021,1921
17,0.7676,-1.1489,0.8149,-0.2087,0.0972,1.4026,2031
17,0.8521,-1.1389,0.8252,-0.4662,0.2333,1.7835,2023
17,0.98,-1.3489,0.7734,-0.6964,0.2378,2.2253,1904
17,0.7378,-1.4541,0.6594,-0.7826,0.2553,2.6494,1945
17,0.7837,-1.3586,0.7112,-0.9512,0.1039,2.8095,2106
17,0.9072,-1.3213,0.6484,-0.9367,-0.0752,2.9915,2067
17,0.9329,-1.5896,0.9119,-1.1473,-0.4356,3.4029,2100
17,0.9084,-1.6062,1.1282,-1.1101,-0.6887,3.2207,91
17,0.876,-1.5708,1.2986,-1.3475,-0.6898,2.6205,3178
17,0.9253,-1.4702,1.3582,-1.3359,-0.8287,2.7075,2858
17,0.5239,-1.3743,1.1633,-1.1017,-0.6933,3.1724,2375
17,0.4373,-2.0,0.7893,-1.268,-0.6921,2.9287,2098
17,-0.2312,-1.4939,0.0754,-0.3789,-0.8403,2.6219,1933
17,-0.7571,-1.4912,-0.5903,-0.6063,-0.0053,4.3634,2064
17,0.0278,-2.0,-1.4473,-0.1689,1.7321,3.8,2217
17,0.2405,-2.0,0.0454,-0.6465,2.115,3.8331,2165
17,0.1814,-1.7324,-0.2048,-0.8629,1.1421,3.5224,2099
17,-0.1082,-0.9236,-0.282,0.0009,0.8003,3.4275,2121
17,0.436,0.5867,-0.2998,1.226,0.0281,1.6551,2130
17,1.9905,-1.7898,-0.0857,1.799,-2.4382,1.6471,1984
17,-0.7817,-2.0,-1.0769,0.7743,0.5699,2.7333,2018
17,-2.0,-1.6555,-1.5193,0.0268,2.4851,2.4599,2184
17,-2.0,-1.53,-1.3716,-0.2673,2.6617,1.6346,2137
17,-1.4312,-0.8701,-1.3105,-0.8795,1.7512,0.1333,2215
17,-0.8987,-0.6958,-1.0334,-0.6698,0.5007,-0.5502,2116
17,-0.5254,-0.4319,-0.7043,-0.5996,0.1716,-1.3455,2455
17,-0.1799,-0.1531,-0.2817,-0.7586,0.0976,-1.8124,2149
17,-0.1646,0.302,0.1213,-1.5219,-0.0656,-2.0943,1791
17,-0.5286,0.9697,0.0708,-1.6683,-0.2862,-2.1423,1830
17,-0.6924,0.8699,0.0559,-1.9907,-0.2332,-2.0575,1934
17,-0.5181,-0.28,-0.2483,-0.9022,0.0999,-2.3499,1931
17,-0.8865,-0.1709,-0.2859,1.7415,0.3251,-3.9408,2001
17,0.0281,0.0481,-0.3118,2.495,1.0637,-4.3635,1984
17,0.0544,0.0752,-0.1401,2.5543,0.6968,-4.3635,2048
17,-0.5698,-0.1423,0.012,2.1506,0.4028,-4.3635,2017
17,-0.4351,-0.3157,-0.0481,2.294,-0.0117,-4.3635,2032
17,0.0491,0.0015,-0.0667,2.5567,-0.5689,-4.3635,2053
17,-0.2732,-0.1313,-0.207,2.6035,-0.7684,-4.3635,2033
17,-0.2769,-0.1787,-0.1174,3.0397,-0.3481,-4.3635,2070
17,-0.1699,-0.2129,-0.1396,3.4939,0.0249,-4.3635,2013
17,-0.4055,-0.1411,-0.3452,3.7671,0.4085,-4.3635,2246
17,-0.7039,-0.1973,-0.5325,3.9323,0.5911,-4.3635,2022
17,-0.8604,-0.5142,-0.7014,4.2133,0.329,-4.3635,1977
17,-0.8049,-0.0828,-0.7446,3.9804,-0.265,-4.3635,2018
17,-0.7144,-0.3489,-0.9385,3.9819,-0.5211,-4.3635,2054
17,-0.363,-0.8215,-0.8877,3.8801,-0.5003,-4.3635,2028
18,-0.2661,-1.0249,-0.9346,3.5624,-0.4978,-4.3635,2063
18,-0.4553,-1.6785,-1.217,2.5715,-0.7741,-3.4631,2051
18,-0.9954,-2.0,-1.4202,1.8339,-0.9515,-2.6472,2043
18,-1.3716,-2.0,-1.6831,1.0335,-2.861,-4.3635,2014
18,0.1731,0.6653,-1.1631,-2.1856,-1.1246,-2.5871,2070
18,-2.0,-2.0,-0.7578,0.8573,-2.9309,1.1009,2080
18,-2.0,-0.6013,-0.1377,-3.3777,1.0665,2.5053,2048
18,-1.8726,-0.8123,-1.7786,-3.5724,1.8052,3.7223,2023
18,-2.0,-2.0,1.9999,-0.7584,-0.4996,3.8358,2049
18,-1.2239,-2.0,1.9999,-4.2148,0.3867,1.8832,2072
18,1.9999,0.8186,0.9478,-4.1719,3.9259,1.9044,2061
18,1.9999,-0.6165,-0.7014,-2.434,4.278,2.1503,2033
18,-2.0,-1.3379,-1.1516,-2.9272,1.1091,3.1742,2076
18,-1.5815,0.2886,-2.0,-3.7439,1.0907,2.6023,2057
18,-0.0176,0.0068,-1.9456,-1.6602,0.2277,2.0132,2025
18,0.6294,-1.2339,0.2119,-0.6193,-1.8445,1.4448,2048
18,0.252,-1.0271,0.3896,-1.301,-2.3354,1.9088,2061
18,-1.2493,-0.8113,0.2576,-1.1376,-1.0902,2.163,2041
18,-1.8098,-1.1235,0.4294,-1.2243,0.4382,2.2578,2038
18,-2.0,-0.9329,-0.2788,-1.8721,0.7957,1.4693,2034
18,-1.3147,-0.9541,-0.9529,-1.697,0.0714,0.5654,2022
18,-0.4688,-0.77,-1.1343,-1.1836,0.0136,0.6014,2068
18,0.147,-0.7695,-1.1714,-0.5111,-0.1385,0.8849,2071
18,0.3479,-0.8074,-0.9744,-0.4153,0.0052,1.3758,2145
18,0.3008,-0.7119,-0.8149,-0.2972,0.1787,1.1917,2141
18,-0.2222,-0.8293,-1.0073,-0.0356,-0.4745,0.9385,2062
18,-0.4861,-0.8491,-0.709,0.0621,-0.8698,0.7147,2329
18,-0.3657,-0.9863,-0.3435,-0.0684,-0.2907,0.7746,2024
18,-0.3457,-0.9978,-0.5991,0.2462,0.1338,0.8673,1976
18,-0.2671,-0.9475,-0.5132,0.1611,0.3839,0.7763,2391
18,-0.012,-0.9666,-0.5693,0.2518,0.208,0.8182,2071
18,0.0977,-0.9851,-0.4377,0.2477,0.1451,0.8797,2035
18,-0.1174,-1.0896,-0.2905,0.2245,0.0479,0.7095,2433
18,-0.2578,-1.2183,-0.2722,0.2059,0.0722,0.4643,1995
18,-0.0508,-1.1353,-0.2451,0.2565,-0.2049,0.1477,2070
18,-0.3992,-1.1011,-0.4395,0.0724,-0.2733,0.4996,1940
18,-0.1272,-1.2739,-0.113,0.216,-0.187,-0.3203,1995
18,-0.001,-1.4475,-0.2014,0.2788,-0.5051,-0.6831,2158
18,-0.0732,-0.9412,-0.0759,0.2489,-0.7178,0.3815,1715
18,-1.2351,-1.2998,-0.3127,0.0583,0.0832,0.7791,1699
18,0.1658,-1.1445,-0.1978,0.1056,0.1392,0.21,2255
18,0.293,-1.1909,-0.1707,-0.019,0.0225,0.2049,2232
18,0.1267,-1.2825,-0.0447,0.0003,-0.4576,0.2613,2153
18,-0.0469,-1.417,0.0371,-0.035,-0.3445,0.3469,1850
18,0.1401,-1.1433,0.1821,-0.0301,-0.4895,0.1983,2182
18,0.4402,-1.2161,0.1687,-0.0967,-0.3942,0.5442,2059
18,0.5337,-1.2385,0.4097,-0.2111,-0.2499,0.7171,1827
18,0.5476,-1.2234,0.679,-0.393,-0.3489,0.9203,2351
18,0.9099,-1.1609,0.8452,-0.6854,-0.0872,1.4853,2437
18,0.9771,-1.0479,1.1121,-0.9978,-0.2153,1.8134,2003
18,0.7964,-1.2698,1.1511,-1.248,-0.0071,2.1491,1956
18,0.7563,-1.3728,0.9475,-1.5331,-0.2693,2.4056,1983
18,0.6597,-1.4382,0.958,-1.6689,-0.3908,2.602,2056
18,0.6316,-1.4358,1.0171,-1.7412,-0.4462,2.8078,2151
18,0.6235,-1.512,1.2229,-1.7086,-0.6203,2.7723,2177
18,0.7495,-1.4629,1.6533,-1.81,-0.6561,2.7866,2021
18,0.8452,-1.6553,1.7534,-1.8349,-0.6675,2.3168,2101
18,0.4658,-1.6372,1.5166,-1.8126,-0.5116,3.0636,2031
18,-0.0146,-2.0,1.1658,-1.9598,-0.0288,3.5854,2035
18,-0.1785,-2.0,0.2473,0.0322,-0.5015,2.8805,2044
18,-0.3804,-0.5454,-0.3235,1.8919,0.4326,3.6852,2035
18,-1.1523,-2.0,-1.0608,-0.5806,2.3365,4.3634,2067
18,-0.1782,-2.0,-0.6211,-0.1451,3.9163,3.2726,2058
18,0.2942,-1.4343,-0.3862,-0.4899,3.3411,3.128,2082
18,-0.0286,-1.177,0.0149,0.5207,2.1118,3.1353,2062
18,0.4199,-0.2175,-0.1567,1.3563,0.698,1.7125,2058
18,1.9999,-1.0415,-0.0984,2.418,-2.4743,1.0921,2031
18,-1.0288,-2.0,-1.209,0.8574,0.6709,3.0108,2024
18,-2.0,-1.9373,-1.3435,0.2634,3.1051,2.0751,2075
18,-1.2202,-1.6267,-1.3264,-0.1936,2.486,1.6452,2063
18,-0.8669,-0.9807,-1.4138,-0.4576,0.716,0.649,2063
18,-0.4109,-0.9001,-1.2661,-0.1859,-1.0108,-0.1374,2023
18,-0.4033,-0.3091,-0.8611,0.0654,-0.7761,-0.7253,2037
18,-0.104,-0.0073,-0.5137,-0.2924,-0.7272,-1.1461,2058
18,-1.7722,0.4529,-0.5481,-1.4082,0.4516,-1.2852,2057
18,-0.6777,0.7024,-0.2859,0.8122,-2.9829,-3.8392,2018
18,1.1135,0.2385,0.0474,2.5875,-1.5219,-3.3158,2049
18,-0.9329,0.7078,-0.158,1.638,0.7014,-2.6934,2050
18,-0.3865,-0.0647,-0.3628,2.5085,0.2814,-3.793,2062
18,0.0767,0.3386,-0.4258,2.0268,-0.7572,-3.535,2062
18,-0.2959,-0.3801,-0.5217,2.0338,-0.1836,-3.8647,2053
18,0.356,-0.0239,-0.1799,2.9735,-0.395,-3.8121,2031
18,-0.1133,-0.218,-0.0303,3.5936,-1.3994,-3.7039,2061
18,-0.4299,-0.0991,-0.0325,4.1655,-2.414,-3.8881,2043
18,-0.6558,0.1082,-0.1306,4.3377,-2.0347,-4.3635,2057
18,-0.5325,0.2749,-0.3438,4.3634,-1.6606,-4.3635,2042
18,-0.6062,0.0828,-0.2292,4.3634,-0.3987,-4.3635,2066
18,-0.7808,-0.2886,-0.647,4.1678,0.3855,-4.3635,2050
18,-0.7769,-0.5029,-0.6521,4.3399,0.2221,-4.3635,2048
18,-0.6802,-0.7178,-0.6863,3.462,0.037,-4.3635,2048
18,-0.533,-0.6787,-1.1306,3.0291,0.3252,-4.3635,2051
18,-0.207,-0.4531,-1.415,3.1966,-0.0711,-4.3635,2043
18,0.0361,-0.6748,-1.5205,3.1645,-1.1007,-3.9145,2040
18,0.1252,-1.8054,-1.6194,2.4693,-2.0616,-3.4033,2057
18,0.0032,-2.0,-1.7505,1.8464,-2.2989,-2.5145,2062
18,-0.4099,-1.959,-1.6311,0.5215,-2.37,-2.1863,2055
18,-1.175,-2.0,-0.8484,-1.3356,-2.779,-3.7896,2054
18,-0.6909,-2.0,-1.4768,-2.0378,-3.1207,-3.2268,2014
19,-0.4053,-0.2339,-1.291,-2.8916,-2.7665,-1.1793,2064
19,-2.0,1.9999,-0.9385,-2.8814,-1.1017,4.3634,1977
19,-2.0,0.2117,0.113,-3.911,3.6085,3.5348,2122
19,-2.0,-2.0,1.8813,-1.9303,-0.3318,2.1309,2069
19,-0.1404,-2.0,1.9999,-2.1312,-1.229,0.3619,2071
19,1.9999,1.7158,1.5007,-2.8685,3.6367,2.5124,2129
19,-0.3013,-0.1992,-0.7874,-4.0101,4.3634,2.7087,2034
19,-2.0,-0.1616,-1.9595,-4.3635,2.4935,2.6864,2023
19,-0.3782,-0.2283,-2.0,-2.4948,1.2853,1.3636,2056
19,0.8286,-0.5266,-1.2615,-1.9695,-0.235,1.695,2057
19,0.9619,-0.6858,-0.5876,-0.8969,-1.1242,1.7185,2042
19,0.2793,-0.5671,-0.2742,-1.0014,-1.7658,2.1803,2043
19,-0.6831,-0.9509,-0.2996,-0.6966,-1.7647,2.1563,2046
19,-1.2397,-0.9641,0.3069,-0.8778,-0.2048,1.9666,2034
19,-1.9507,-1.0278,-0.1094,-1.0806,0.469,1.7305,2046
19,-2.0,-0.9417,-0.6704,-1.1705,-0.09,0.8491,2044
19,-0.959,-0.8604,-1.0889,-0.8974,0.4658,0.543,2060
19,0.4036,-0.7375,-1.0427,-0.2852,0.6657,0.7766,2044
19,0.8958,-0.7537,-0.8411,0.1993,0.1936,1.142,2062
19,0.5537,-0.8918,-0.6343,-0.0029,0.3462,1.2741,2063
19,0.1631,-0.8511,-0.8696,0.181,0.0366,1.1312,2219
19,-0.4883,-0.9116,-0.4915,0.3599,-0.6146,0.9949,1924
19,-0.6448,-0.9766,-0.175,0.1392,-0.4321,0.8038,1898
19,-0.5515,-1.0498,-0.355,0.1092,0.182,0.8657,1976
19,-0.4583,-0.9851,-0.2993,0.1715,0.8786,0.8674,1977
19,-0.1296,-0.9604,-0.4058,0.3208,0.7517,0.8642,2125
19,0.0566,-0.9895,-0.5151,0.3834,0.5095,0.8048,2106
19,-0.0012,-1.0518,-0.3201,0.2354,0.2456,0.8391,1773
19,-0.2434,-1.1218,-0.1985,0.1491,0.1954,0.7529,1981
19,-0.4954,-1.1367,-0.147,0.1739,0.4153,0.6372,2101
19,-0.5188,-1.2312,-0.1396,0.1354,0.4325,0.375,1876
19,-0.4265,-1.1562,-0.1443,0.1622,0.4123,0.4714,2078
19,-0.1904,-1.2944,-0.1306,0.0241,0.3212,0.1991,2195
19,0.1025,-1.4529,-0.0779,-0.0766,0.0146,0.1611,2042
19,-0.0801,-1.1987,-0.0129,-0.0047,-0.1222,0.1904,1899
19,0.3235,-1.6345,0.0312,-0.0948,-0.6277,0.302,1842
19,-0.4048,-1.0962,-0.0132,-0.0878,-0.6807,0.5151,2166
19,-0.2803,-1.1694,-0.0217,-0.1004,-0.5674,0.5365,2281
19,-0.2144,-1.0974,0.0667,-0.1192,-0.2847,0.6247,1585
19,-0.0291,-1.0647,-0.0024,-0.0743,0.045,0.7431,1809
19,0.3057,-1.1453,0.0969,-0.1092,0.2027,0.9272,2021
19,0.3989,-1.1787,0.0781,-0.2072,0.2622,1.1059,1924
19,0.5105,-1.2607,0.2449,-0.3485,0.1808,1.2021,1852
19,0.6694,-1.3203,0.3123,-0.4883,-0.006,1.3419,1654
19,0.7117,-1.2717,0.3647,-0.6167,-0.1482,1.5343,1879
19,0.8411,-1.2749,0.5564,-0.7718,-0.2553,1.7945,2105
19,1.0105,-1.3381,0.5696,-0.9282,-0.4814,2.0443,2084
19,1.0046,-1.3059,0.8259,-1.0503,-0.8701,2.2284,2000
19,0.968,-1.2415,1.0339,-1.1013,-1.1017,2.4121,75
19,0.9504,-1.177,1.1863,-1.0396,-1.13,2.6984,3093
19,0.9089,-1.5051,1.3367,-0.9308,-1.182,2.7452,3014
19,0.7847,-2.0,1.4961,-0.9267,-0.9176,2.7593,2504
19,0.7454,-2.0,1.6406,-1.0298,-0.7452,2.7014,2212
19,0.2927,-1.9819,1.2231,-1.1706,-0.9867,2.49,2073
19,-0.1006,-1.6042,-0.1201,-0.4287,-0.6157,3.5544,2025
19,-0.7954,-1.1418,-0.26,-0.2561,1.7452,4.3634,2117
19,-0.0835,-2.0,0.104,-0.3057,2.3883,4.2698,2164
19,0.2571,-2.0,0.198,-1.1441,1.1391,3.7138,2056
19,-0.3179,-1.6631,-0.2263,-1.1075,0.8008,3.2495,2082
19,-0.4114,-0.9778,-0.2258,-0.0409,1.125,2.6014,2097
19,0.553,1.1221,-0.0771,2.3419,0.4362,0.6741,2031
19,-0.0569,-2.0,-0.5642,1.4308,1.472,2.3626,2021
19,-1.9895,-2.0,-1.4531,0.2029,4.3634,2.0683,2078
19,-1.8706,-1.8459,-1.6492,-0.7241,4.3634,1.4965,2189
19,-0.9993,-0.9209,-1.3088,-1.073,3.5236,0.32,2166
19,-0.7222,-0.9626,-0.96,-1.1726,1.0477,-0.592,2181
19,-0.292,-0.6438,-0.719,-0.863,-0.0629,-1.1405,2019
19,0.0271,-0.3298,-0.3894,-0.871,-0.1498,-1.317,1934
19,0.2598,-0.3025,-0.1567,-0.9251,-0.7092,-1.6488,2346
19,0.0793,0.0068,-0.0271,-1.0682,-1.6564,-2.2153,1947
19,-0.217,0.3237,-0.0996,-1.1612,-2.0638,-2.6442,1828
19,-0.4294,0.9622,-0.2292,-1.6755,-1.3555,-2.1652,1903
19,-0.7483,-0.28,-0.5378,-1.2568,-0.8004,-2.463,1972
19,-0.5132,0.051,-0.6558,1.2037,-0.4606,-3.487,1962
19,-0.4312,0.3425,-0.312,2.3124,-0.4105,-4.3635,2005
19,0.1912,0.188,-0.2314,1.7868,-0.5239,-4.3635,2034
19,-0.0767,0.0535,-0.1448,2.2437,-0.8714,-4.3635,2019
19,-0.4783,-0.0662,-0.0796,2.4466,-1.2378,-4.3635,2052
19,-0.6755,0.0359,-0.0691,2.9008,-1.5524,-4.3635,2038
19,-0.6887,0.2515,0.0249,3.2523,-1.2929,-4.3635,2045
19,-0.7312,0.3054,0.0234,3.5304,-0.3243,-4.3635,2035
19,-0.7849,0.3228,-0.03,3.5621,0.6007,-4.3635,2035
19,-0.7896,0.323,-0.4639,3.7448,1.0469,-4.3635,2059
19,-0.8506,0.2439,-0.9316,4.2074,0.971,-4.3635,2044
19,-0.5271,0.2427,-1.1279,4.3634,0.8532,-4.3635,2033
19,-0.7173,0.1511,-1.4089,4.0686,0.7217,-4.3635,2061
19,-0.25,-0.0857,-1.4927,4.3373,0.5075,-4.3635,2062
19,-0.1182,-0.4939,-1.3894,4.3634,-0.0136,-4.323,2029
19,-0.1814,-1.1592,-1.2668,4.0472,-0.8714,-3.4507,2034
19,-1.4829,-2.0,-0.7788,2.7621,-1.1379,-3.9117,2054
19,0.0715,-2.0,-0.2949,1.4151,-1.5691,-4.3635,2036
19,0.6423,1.5586,-2.0,2.2545,-2.0503,0.7477,2182
19,-2.0,-2.0,0.5635,-3.9727,-1.7526,2.5515,1999
19,-1.0322,-1.5056,-2.0,-1.7716,1.8414,4.2041,1943
19,-2.0,-2.0,1.9999,-1.4464,1.7829,4.3634,1983
19,-2.0,1.9999,1.9999,-4.3635,-0.2418,4.3634,2183
19,1.4211,0.9578,0.3716,-1.0677,2.3637,1.0292,2001
19,1.9999,-2.0,1.9999,-1.201,0.363,1.8825,2109
19,0.1997,-0.4319,-0.9636,-4.3635,2.8036,1.9995,2100
19,-0.2898,0.5637,-2.0,-3.7315,4.3634,3.5997,2000
19,-1.8157,-0.6819,-1.7095,-0.9712,1.8572,3.3017,2020
19,-0.0117,-0.6174,-0.301,-0.1859,-3.7199,0.6373,2036
19,0.4956,-0.886,0.1624,-0.754,-3.7709,1.7049,2061
19,-1.0984,-1.1025,0.5823,-0.8234,-2.8056,1.8933,2056
19,-1.738,-1.3149,0.6328,-1.4339,-0.7174,1.5503,2023
19,-1.9326,-1.1631,0.1655,-1.7258,1.6161,1.5221,2038
19,-1.5818,-0.8977,-1.0203,-1.9005,0.8778,1.0076,2059
20,-0.9622,-0.6155,-1.4326,-1.6155,0.0104,0.4815,2069
20,0.1614,-0.5403,-1.7737,-0.5873,-0.8347,0.5429,2042
20,1.1982,-0.6023,-1.3708,0.2574,-0.336,1.1821,2048
20,1.3599,-0.7712,-0.6299,-0.2714,0.4069,1.5131,2072
20,0.011,-0.7856,-1.0605,0.0435,-0.7201,1.1006,1848
20,-0.822,-0.791,-0.885,0.3121,-1.5829,0.661,1889
20,-0.6589,-0.9045,-0.4805,-0.0186,-0.4173,0.6995,1678
20,-0.3369,-0.99,-0.4478,0.2494,0.3374,0.807,2031
20,-0.0259,-0.9524,-0.5442,0.3979,0.4019,0.9099,2218
20,-0.0872,-0.9673,-0.4363,0.3085,0.3643,0.9199,2829
20,-0.0344,-0.9736,-0.3418,0.2683,0.2891,0.8525,2048
20,-0.1724,-1.0449,-0.324,0.3259,0.1326,0.8479,2004
20,-0.5022,-1.0405,-0.1313,0.2199,0.2645,0.5845,1900
20,-0.2979,-1.0735,-0.2039,0.3513,-0.091,0.2739,1912
20,-0.5613,-1.0798,-0.3503,0.3025,0.0949,0.5094,2586
20,-0.6724,-1.3091,-0.1538,0.1485,0.184,-0.0458,1998
20,0.0471,-1.1472,-0.1377,0.2541,-0.0501,0.1278,1919
20,-0.2026,-1.4016,-0.1697,0.2043,-0.2453,0.3811,2017
20,-0.3987,-1.0972,-0.1431,0.1489,-0.4168,0.2265,1911
20,0.0691,-1.1477,0.0159,0.1052,-0.5891,0.194,1963
20,-0.0637,-1.3933,-0.0083,0.0698,-0.4899,0.1089,1984
20,-0.0857,-1.3894,0.0515,0.0822,-0.5221,0.343,2037
20,-0.1375,-1.3425,-0.0583,0.0485,-0.3943,0.3835,2129
20,0.5334,-1.2864,-0.0078,-0.0361,-0.334,0.5091,1915
20,0.5764,-1.1023,0.0579,-0.0189,-0.4698,0.7592,1905
20,0.3484,-1.2134,0.1628,-0.1269,-0.3079,1.0773,2739
20,0.3835,-1.2544,0.4233,-0.2525,-0.1397,1.2818,1950
20,0.5857,-1.261,0.4915,-0.3943,-0.021,1.5338,1886
20,0.8154,-1.325,0.5671,-0.6183,0.028,1.7944,2000
20,0.947,-1.3977,0.6445,-0.8782,-0.1248,2.0851,1962
20,1.0818,-1.4351,0.7927,-1.1344,-0.4131,2.3534,2180
20,1.0647,-1.3979,0.7683,-1.3051,-0.7464,2.5148,2542
20,0.8557,-1.2351,0.8789,-1.4091,-1.0577,2.7581,1986
20,0.8589,-1.2041,1.1226,-1.3711,-1.2065,3.0355,2000
20,0.4751,-1.4956,1.2861,-0.9673,-0.9489,2.9834,2104
20,0.4731,-1.8662,1.3616,-0.9032,-0.7273,2.9652,2014
20,0.4939,-2.0,1.4087,-1.2208,-0.5335,2.0515,2046
20,0.96,-1.9048,1.021,-1.3699,-1.291,1.6346,2054
20,0.2527,-1.1411,-0.3535,-1.1392,-1.6736,2.4148,2044
20,-0.5955,-1.4463,-0.5608,-0.72,-0.8014,4.324,2061
20,-0.0835,-1.9238,-0.8354,-0.9234,1.4109,4.3634,2078
20,0.3813,-2.0,-0.1902,-1.0198,1.374,4.2591,2056
20,0.1848,-2.0,-0.3555,-1.2294,-0.0597,3.3323,2045
20,-0.1196,-0.8513,-0.3125,-0.3996,0.0742,3.0253,2071
20,0.3215,1.5459,-0.28,1.5086,-0.5349,1.1077,2085
20,1.5488,-1.9275,0.0293,2.3028,-2.388,1.2251,2032
20,-1.6724,-1.4492,-1.1675,1.1942,1.0316,2.459,2025
20,-2.0,-1.6904,-1.4519,0.3208,2.5292,2.3601,2055
20,-2.0,-1.6128,-1.1116,-0.0655,2.0735,1.3347,2051
20,-1.6121,-0.7786,-1.0027,-0.9744,1.2046,0.028,2097
20,-1.2827,-0.7585,-0.8025,-0.5464,0.92,-1.0239,2037
20,-0.5999,-0.5571,-0.6233,-0.5437,1.3512,-1.856,2046
20,-0.1318,-0.0757,-0.3677,-0.7895,1.39,-2.2925,2042
20,-0.2151,-0.1069,-0.1694,-1.2351,0.9933,-2.4467,2046
20,-0.4417,0.2642,-0.1072,-1.396,0.2598,-2.4025,2075
20,-0.7446,1.0029,-0.1216,-1.3177,-0.0366,-2.3944,2074
20,-0.8699,0.3247,-0.1523,-1.3615,0.447,-1.8839,2045
20,-0.8984,-0.1406,-0.3652,-0.2842,1.2541,-2.6666,2037
20,-0.6243,0.1577,-0.395,1.8253,1.2288,-3.9659,2053
20,0.094,0.3203,-0.2012,2.0663,1.1435,-4.3635,2041
20,0.4321,-0.114,-0.2141,2.9389,0.1862,-4.3635,2027
20,-0.5813,-0.4102,-0.186,2.4525,-0.3591,-4.0464,2059
20,-0.0227,-0.166,-0.1548,3.391,-0.4091,-4.3635,2065
20,0.0315,-0.0439,0.0562,3.7211,-0.5388,-4.3635,2055
20,-0.1228,-0.0798,0.1099,3.4467,0.0325,-4.3635,2044
20,-0.2781,0.0293,-0.0618,3.6781,0.8449,-4.3635,2041
20,-0.5122,-0.0295,-0.2434,4.0036,1.2338,-4.3635,2060
20,-0.8062,0.063,-0.511,4.3634,1.4054,-4.3635,2055
20,-0.9634,0.2251,-0.6067,4.3634,1.6435,-4.3635,2055
20,-1.0806,-0.0591,-0.52,4.3634,1.5612,-4.3635,2063
20,-0.8623,-0.2651,-0.6167,4.3634,1.6155,-4.3635,2050
20,-0.4749,-0.6868,-0.7419,4.3634,1.5675,-4.3635,2050
20,0.0271,-1.3528,-0.9548,4.3634,1.3782,-4.3635,2052
20,0.968,-1.6775,-1.0872,4.3634,0.677,-4.1618,2062
20,0.666,-2.0,-1.0991,4.3634,-0.7469,-3.4718,2057
20,0.0486,-1.9778,-1.1504,3.3607,-1.884,-2.2736,2040
20,0.5134,-2.0,-0.5881,1.6142,-2.5843,-3.0981,2028
20,-0.2883,-1.386,-0.0923,0.4634,-1.394,-2.2088,2043
20,-1.0618,-2.0,-0.9482,-0.2631,-1.2607,-3.6509,2006
20,-0.7869,-1.8901,-0.2346,-3.5713,-2.8737,-1.7377,2064
20,-2.0,-1.3257,0.4365,-0.7803,-0.4956,1.5844,2032
20,-2.0,0.0002,-0.2427,-2.9392,0.7416,2.2802,2085
20,-1.3838,-1.0627,1.9233,0.7941,0.1992,2.8915,2075
20,-0.1951,-2.0,1.9999,1.8321,-0.2846,2.1089,2032
20,1.9999,-2.0,1.9999,-1.6249,4.3634,-0.2148,2037
20,1.9999,-2.0,-0.6475,-4.3635,4.3634,2.8713,2118
20,-2.0,1.9999,-2.0,-4.3635,1.4516,4.3634,2126
20,-2.0,1.7849,-2.0,-4.3635,-4.3635,0.5807,2018
20,1.9999,-0.8398,-1.0049,-2.8988,0.0414,-1.3338,1995
20,1.9999,-1.6926,-1.1204,-4.3635,-0.2169,1.9761,2035
20,-1.0022,-0.4624,-0.311,-2.7468,-2.6886,1.0453,2163
20,-0.051,-0.5042,-0.2739,-3.4079,-0.424,1.7286,2077
20,-1.1292,-0.9829,-1.364,-1.0323,0.6759,1.9671,2063
20,-1.074,-0.5674,-1.0681,-0.1651,0.702,1.2013,2126
20,-1.0085,-0.5007,-0.8137,-1.3696,-0.0032,0.5773,1926
20,-0.2051,-0.6746,-0.8369,-0.5163,0.3987,0.5237,2011
20,1.2522,-0.9949,-0.5586,-0.3088,0.2196,1.1208,1922
20,-0.1562,-1.0171,-0.365,-0.128,-0.6271,1.0156,1942
20,-0.531,-0.9758,-0.5547,-0.3376,-0.3958,0.8538,2020
20,0.009,-0.9531,-0.3113,-0.4421,-0.1852,0.957,2070
20,-0.0027,-1.0227,-0.2883,-0.257,0.0949,1.0844,2075
20,0.0447,-1.0305,-0.4324,-0.0971,-0.0442,1.1099,2047
21,0.3262,-1.0657,-0.3257,-0.2651,-0.0467,1.1669,2011
21,0.3345,-1.0103,-0.2368,-0.3516,-0.0637,1.2797,2336
21,0.1958,-1.0339,-0.1968,-0.5078,-0.1571,1.1814,2081
21,0.0598,-1.157,0.0181,-0.5851,-0.0972,1.1484,1958
21,0.0864,-1.2183,-0.0498,-0.4213,-0.2377,1.0641,2029
21,0.415,-1.1433,-0.116,-0.5026,-0.491,1.1054,2017
21,0.5798,-1.1401,-0.0283,-0.9321,-0.5885,0.9796,2061
21,0.1431,-1.1697,0.28,-1.0922,-0.6822,0.9307,2055
21,-0.1499,-1.1196,0.2883,-1.0162,-0.3946,1.2286,2046
21,0.1475,-1.2651,0.1992,-1.0274,-0.3437,1.1774,2060
21,0.4001,-1.1211,0.1243,-1.2234,-0.3277,1.3102,2051
21,0.5579,-0.8821,0.043,-1.2406,-0.3687,1.4948,2057
21,0.5391,-0.8086,-0.0295,-1.0752,-0.2322,1.594,1983
21,0.3137,-0.8906,0.0303,-1.213,-0.4224,1.7041,2045
21,-0.0059,-0.8279,-0.134,-1.6767,-0.1594,1.9427,2106
21,0.26,-0.7993,-0.0876,-1.8827,0.0449,2.0421,2062
21,0.5076,-1.0828,0.0085,-1.9643,-0.0208,2.0045,2002
21,0.5366,-1.2041,0.0615,-2.1839,-0.1935,2.115,1983
21,0.5442,-1.2952,0.031,-2.4197,-0.445,2.1806,2123
21,0.5444,-1.563,0.2864,-2.6819,-0.5516,2.3566,2072
21,0.6421,-1.7124,0.3438,-2.8605,-0.8957,2.6232,2060
21,0.79,-2.0,0.501,-3.0817,-1.4186,2.6858,2049
21,1.0195,-2.0,0.4016,-3.1497,-1.9845,2.7426,2064
21,1.1497,-2.0,0.0173,-2.6884,-2.4722,3.1119,2057
21,0.6177,-2.0,-0.2815,-1.4832,-2.5851,3.3785,2058
21,1.042,-2.0,-0.1663,-0.8744,-2.7402,2.4537,2068
21,1.2161,-1.0796,-0.3477,0.8351,-4.0599,1.8462,2044
21,0.5791,-0.4131,-0.1855,2.9078,-4.3635,2.5361,2051
21,-2.0,-0.7759,-0.3333,3.0139,0.6569,4.2427,2070
21,-1.76,-0.1025,-2.0,-0.7078,4.2767,4.3634,2049
21,-1.5803,-0.5842,-2.0,0.5943,4.3634,4.3634,2018
21,-1.5017,0.7007,-1.2617,2.0522,2.6562,3.2895,2042
21,0.6709,1.1111,-0.4487,3.0275,0.7518,1.86,2057
21,-0.4302,-2.0,-0.8889,2.4819,0.64,2.5577,2056
21,0.2107,-0.4675,-1.0637,2.0836,1.707,2.292,2065
21,-0.4016,-0.7344,-1.0903,2.0427,0.8268,1.3742,2050
21,-0.1167,-0.8062,-0.7539,2.3945,-0.043,1.2235,2035
21,-0.7043,-0.0994,-0.5728,2.3673,0.4735,0.5814,2055
21,-0.5591,0.2229,-0.2375,2.2122,1.6302,-0.0668,2076
21,-0.4163,0.3555,-0.0356,1.9204,2.7621,-0.2811,2053
21,-0.1951,-0.1062,0.1228,2.482,2.4302,-0.4562,2119
21,0.1555,-0.1548,0.0427,3.47,1.7179,0.5328,1982
21,-0.2817,0.0742,0.0701,4.3634,1.6856,0.8839,2042
21,-0.6064,0.0637,0.1213,4.3634,1.8671,0.7873,2036
21,-0.6628,0.1387,0.1755,4.3634,2.3708,0.181,2047
21,-0.5769,0.0635,0.1934,4.3634,2.3209,-0.3308,2053
21,-0.5684,0.1641,0.2549,4.3634,2.0257,-1.0357,2062
21,-0.5806,0.3501,0.3323,4.3634,1.6504,-1.7088,2062
21,-0.5671,0.3645,0.1316,4.3634,1.6245,-2.2493,2054
21,-0.5586,0.4412,0.0356,4.3634,1.5711,-2.6528,2046
21,-0.5652,0.4185,-0.0972,4.3634,1.8017,-2.8408,2060
21,-0.7646,0.3413,-0.1165,4.3634,2.359,-2.9718,2067
21,-0.8438,0.1536,-0.033,4.3634,2.9193,-2.8741,2071
21,-0.9475,0.0669,-0.0835,4.3634,3.7091,-2.8762,2108
21,-0.8748,-0.125,0.2847,4.3634,3.8539,-2.9746,2129
21,-1.2849,-0.4395,0.9041,4.3634,4.3634,-2.9791,2118
21,-1.9233,-0.5615,1.103,4.3634,4.3634,-3.1258,1999
21,-2.0,-0.6997,1.0354,4.3634,4.3634,-3.8199,2055
21,-1.1201,-1.2634,0.5356,4.3634,4.3634,-4.1458,2041
21,-0.6292,-2.0,-0.2583,4.3634,4.3634,-2.331,2034
21,-2.0,-2.0,-0.7795,3.5949,4.3634,-0.4334,1950
21,-2.0,-2.0,-0.0034,1.423,4.3634,0.451,1992
21,-0.3083,-2.0,1.1436,-1.9094,4.3634,0.4558,2134
21,1.9999,-0.3694,0.1946,-2.255,4.3634,0.6122,2186
21,1.9999,-0.7092,-1.3621,-0.3978,4.3634,-0.5777,2115
21,1.9999,-0.7463,-2.0,0.4211,2.7035,-0.8716,2277
21,1.9999,-2.0,-2.0,-1.5941,-1.6456,-1.0043,2202
21,0.3062,-2.0,-0.083,-0.8961,-4.3635,-1.093,2019
21,0.1699,-2.0,0.8047,-2.1632,-3.0818,-1.7488,2029
21,-0.032,-0.7434,0.1243,-2.765,-0.7582,-1.5531,2012
21,-1.2263,-0.6951,1.5081,-1.7663,-0.1679,0.2457,2021
21,-2.0,-2.0,1.9999,-0.8606,0.3883,-0.0246,2032
21,-1.9231,-1.3049,0.7744,-0.5554,2.38,-1.1881,2046
21,0.2375,-0.6184,-0.2134,-1.124,1.8317,-1.405,2061
21,1.4631,-0.8308,-0.2314,-1.2448,0.8471,-0.9457,2064
21,0.5208,-0.9287,-0.3572,-1.1804,0.6251,-0.7118,2054
21,0.386,-0.9338,-0.4133,-0.7733,0.4763,-0.6448,2065
21,0.374,-0.9172,-0.5984,-0.8693,0.4047,-0.7047,2070
21,0.3677,-0.7478,-0.5784,-0.9371,0.43,-0.5341,2037
21,0.0825,-0.7727,-0.4067,-0.8608,0.6225,-0.4188,2060
21,-0.3062,-0.8757,-0.1396,-0.7532,0.6637,-0.4639,2057
21,-0.446,-0.9436,-0.0051,-0.6418,0.6457,-0.5706,1997
21,-0.4604,-0.9641,-0.0205,-0.4587,0.4771,-0.5144,2026
21,-0.4709,-1.0156,-0.0068,-0.2956,0.3615,-0.4665,2046
21,-0.4573,-1.05,0.0376,-0.3352,0.3136,-0.5296,2058
21,-0.3103,-1.0046,0.0847,-0.4534,0.3643,-0.6588,2046
21,-0.2288,-0.9495,0.0513,-0.5108,0.5058,-0.748,2035
21,-0.0996,-0.9236,-0.0671,-0.537,0.6123,-0.7291,2059
21,-0.0225,-0.9333,-0.158,-0.4879,0.5878,-0.6542,2058
21,-0.0679,-0.8547,-0.2246,-0.3073,0.6267,-0.5863,2051
21,0.144,-1.0056,-0.0571,-0.4743,0.2224,-0.6666,2053
21,0.1375,-0.9854,0.0723,-0.4874,0.0264,-0.5926,2057
21,0.1587,-1.0076,0.2183,-0.4844,0.0192,-0.4462,2062
21,0.1211,-1.1404,0.24,-0.6283,0.0904,-0.3446,2046
21,0.1921,-1.1553,0.1255,-0.7371,0.1784,-0.241,2034
21,0.2974,-1.0127,0.0608,-0.8032,0.2179,-0.0796,2060
21,0.3433,-1.0171,-0.0056,-0.8518,0.3488,-0.0213,2067
21,0.3403,-0.9478,-0.1245,-0.9533,0.3517,0.106,2172
21,0.073,-0.8755,-0.3496,-0.9159,0.5087,0.2646,2009
21,-0.1775,-0.8442,-0.5396,-0.7136,0.5414,0.3711,2015
21,-0.2627,-0.835,-0.5483,-0.44,0.2453,0.3542,2031
21,-0.4189,-0.833,-0.4177,-0.2705,0.171,0.2191,2040
21,-0.467,-0.9114,-0.3049,-0.2679,0.2691,-0.0184,2055
