Timestamp,Ax,Ay,Az,Rx,Ry,Rz,EMG
0,0.4353,-1.1392,0.2058,0.3514,0.2362,1.0154,2052
0,0.4575,-1.0991,0.217,0.2591,0.2009,0.928,2056
0,0.4985,-1.0654,0.1958,0.1874,0.1008,0.7953,2048
0,0.5244,-1.0383,0.1841,0.1358,-0.0108,0.6793,2052
0,0.512,-0.9976,0.1282,0.0812,-0.1654,0.5702,2052
0,0.5674,-0.9089,0.0347,0.1013,-0.4149,0.4774,2047
0,0.5254,-0.8521,0.032,0.0539,-0.5143,0.4027,2052
0,0.4922,-0.8264,-0.0103,0.0414,-0.6424,0.3219,2051
0,0.4846,-0.7444,-0.0532,0.0502,-0.7801,0.2864,2050
0,0.4563,-0.6797,-0.0659,0.028,-0.7649,0.2341,2055
0,0.4316,-0.5996,-0.1025,0.1461,-0.7925,0.2079,2052
0,0.4434,-0.5735,-0.1316,0.222,-0.8356,0.1577,2049
0,0.4783,-0.5391,-0.1646,0.336,-0.8831,0.1509,2051
0,0.4895,-0.4978,-0.1885,0.4109,-0.9622,0.1261,2052
0,0.4487,-0.4658,-0.1838,0.5172,-0.9127,0.0823,2048
0,0.4641,-0.5093,-0.219,0.5747,-0.9313,0.0999,2051
0,0.4958,-0.4875,-0.2419,0.6548,-0.9757,0.0788,2051
0,0.4346,-0.5205,-0.2278,0.7229,-0.8118,0.1232,2048
0,0.4128,-0.4854,-0.2197,0.8071,-0.677,0.0345,2051
0,0.3938,-0.5061,-0.2349,0.8638,-0.6023,0.0707,2049
0,0.3909,-0.4995,-0.2146,0.9789,-0.5312,-0.0015,2049
0,0.3921,-0.5447,-0.2166,1.0138,-0.4446,0.0214,2051
0,0.4309,-0.5718,-0.2329,1.0705,-0.4473,0.0655,2050
0,0.4299,-0.6047,-0.1821,1.0998,-0.3867,0.0912,2049
0,0.4514,-0.6455,-0.1907,1.0738,-0.3999,0.1453,2050
0,0.4128,-0.6785,-0.1694,1.0836,-0.4393,0.1649,2053
0,0.4136,-0.708,-0.1372,1.0532,-0.4296,0.1896,2052
0,0.4172,-0.7114,-0.1572,1.0473,-0.618,0.2132,2048
0,0.4333,-0.7322,-0.1213,1.0151,-0.6323,0.2324,2050
0,0.4211,-0.7454,-0.1479,0.9929,-0.6922,0.276,2054
0,0.4263,-0.7629,-0.1609,0.9993,-0.7087,0.3148,2049
0,0.4231,-0.791,-0.1772,0.9903,-0.7127,0.3786,2050
0,0.4385,-0.8069,-0.1904,0.9823,-0.7187,0.4374,2052
0,0.4739,-0.8474,-0.2068,0.9708,-0.7504,0.5022,2050
0,0.4746,-0.9021,-0.2244,0.9629,-0.7604,0.5484,2054
0,0.4846,-0.9666,-0.2539,0.9572,-0.7958,0.5774,2055
0,0.4756,-1.0239,-0.2563,0.9493,-0.8094,0.6068,2053
0,0.4846,-1.0803,-0.2744,0.9445,-0.8696,0.6759,2048
0,0.5054,-1.0984,-0.2886,0.9371,-0.9557,0.7131,2041
0,0.5317,-1.134,-0.2927,0.9549,-0.9732,0.7861,2046
0,0.5208,-1.1792,-0.3005,0.9883,-0.9845,0.8613,2046
0,0.5183,-1.2563,-0.3193,1.056,-1.0424,0.9403,2047
0,0.478,-1.3513,-0.3079,1.0323,-0.8612,0.9515,2047
0,0.4836,-1.3777,-0.311,1.0212,-0.7738,0.9412,2051
0,0.4248,-1.3633,-0.2388,0.9046,-0.6072,0.8882,2056
0,0.3899,-1.2773,-0.1326,0.7746,-0.4008,0.7811,2058
0,0.3669,-1.2327,-0.0068,0.5723,-0.1811,0.6745,2038
0,0.365,-1.1367,0.0659,0.3871,0.0489,0.5874,2047
0,0.3933,-1.0874,0.0874,0.2273,0.2759,0.4988,2050
0,0.4055,-1.0847,0.0461,0.1225,0.3567,0.4123,2049
0,0.3433,-1.1265,0.0073,0.0346,0.549,0.3143,2046
0,0.2869,-1.146,-0.0703,-0.0908,0.6759,0.1567,2081
0,0.2339,-1.1594,-0.1143,-0.2059,0.8533,0.0194,2044
0,0.2056,-1.1223,-0.1494,-0.2955,1.0857,-0.1296,2003
0,0.2053,-1.0938,-0.1682,-0.3476,1.2344,-0.2518,2055
0,0.2014,-1.0605,-0.1609,-0.3968,1.383,-0.348,2039
0,0.2275,-1.0325,-0.1526,-0.4647,1.4368,-0.4374,2050
0,0.2236,-1.0139,-0.1489,-0.5612,1.4266,-0.5184,2059
0,0.2607,-1.0027,-0.1494,-0.6418,1.3776,-0.5862,2050
0,0.2507,-0.9878,-0.1565,-0.7196,1.3222,-0.6418,2048
0,0.2605,-0.9788,-0.1477,-0.7887,1.2776,-0.6918,2057
0,0.29,-0.9573,-0.1389,-0.8602,1.1468,-0.7404,2050
0,0.272,-0.9485,-0.1221,-0.9497,1.0533,-0.7762,2055
0,0.2791,-0.9153,-0.093,-1.0461,0.9512,-0.8092,2086
0,0.2593,-0.9155,-0.0869,-1.1363,0.9164,-0.8324,2043
0,0.2419,-0.8738,-0.0686,-1.2386,0.8689,-0.8417,2051
0,0.2139,-0.8481,-0.0637,-1.3147,0.8889,-0.8525,2052
0,0.1919,-0.8064,-0.0789,-1.3555,0.9561,-0.8496,2055
0,0.1968,-0.781,-0.0969,-1.3708,1.0351,-0.8315,2059
0,0.1741,-0.7585,-0.1233,-1.3653,1.1354,-0.8123,2055
0,0.1729,-0.7507,-0.1428,-1.3415,1.2557,-0.7842,2049
0,0.1899,-0.7419,-0.1643,-1.3359,1.3227,-0.7704,2055
0,0.1831,-0.7461,-0.2002,-1.2998,1.3908,-0.7516,2051
0,0.2036,-0.7446,-0.2246,-1.2591,1.4322,-0.7235,2050
0,0.2075,-0.761,-0.2471,-1.2093,1.4364,-0.699,2049
0,0.2236,-0.7803,-0.2615,-1.1468,1.4201,-0.6625,2054
0,0.2483,-0.7771,-0.2864,-1.0741,1.3667,-0.6223,2052
0,0.2644,-0.791,-0.2942,-0.9851,1.2878,-0.5829,2051
0,0.2625,-0.8154,-0.2969,-0.9124,1.1925,-0.5385,2053
0,0.269,-0.8345,-0.2791,-0.8353,1.0841,-0.4952,2055
0,0.2654,-0.8469,-0.2815,-0.771,0.9415,-0.4508,2054
0,0.2751,-0.8459,-0.2532,-0.6967,0.7927,-0.3946,2047
0,0.2668,-0.8635,-0.2358,-0.6353,0.6426,-0.3607,2046
0,0.2542,-0.8684,-0.217,-0.5667,0.4968,-0.3191,2049
0,0.251,-0.9004,-0.1956,-0.4971,0.367,-0.2966,2056
0,0.2295,-0.9387,-0.1704,-0.4502,0.2733,-0.2389,2052
0,0.2214,-0.9587,-0.1663,-0.3737,0.172,-0.2092,2054
0,0.2241,-0.9985,-0.1631,-0.3149,0.0931,-0.1674,2052
0,0.2593,-1.0234,-0.1611,-0.2474,0.0293,-0.11,2050
0,0.2961,-1.0396,-0.2046,-0.1165,-0.0405,-0.034,2050
0,0.3562,-1.072,-0.2273,0.0169,-0.1266,0.0507,2051
0,0.4185,-1.1167,-0.2646,0.1293,-0.2382,0.1381,2044
0,0.4485,-1.1406,-0.2573,0.2305,-0.3855,0.2212,2047
0,0.4697,-1.1519,-0.2449,0.3163,-0.5735,0.2854,2047
0,0.4939,-1.1643,-0.2251,0.4144,-0.7883,0.3425,2049
0,0.5002,-1.2107,-0.2424,0.5561,-1.0343,0.3815,2048
0,0.5144,-1.2625,-0.2856,0.7472,-1.2816,0.4201,2051
0,0.531,-1.2817,-0.2698,0.9902,-1.5412,0.4512,2047
0,0.5234,-1.2671,-0.1992,1.1395,-1.7338,0.5281,2051
0,0.5864,-1.2156,-0.1177,1.1657,-1.9916,0.4697,2051
0,0.6055,-1.0737,0.0171,1.123,-2.1128,0.4713,2052
1,0.6252,-1.0193,0.1194,1.0035,-2.1374,0.357,2052
1,0.5837,-0.9016,0.1946,0.977,-2.117,0.2047,2054
1,0.4299,-0.824,0.25,1.0577,-1.7917,0.2894,2056
1,0.3445,-0.7976,0.2856,1.1603,-1.4081,0.3071,2057
1,0.2478,-0.8628,0.2654,1.2777,-1.0148,0.3432,2051
1,0.1965,-0.8997,0.1267,1.3283,-0.7341,0.2438,2051
1,0.1934,-0.9387,0.0439,1.4472,-0.3151,0.0811,2047
1,0.2485,-0.9673,0.072,1.5107,-0.0072,-0.0562,2049
1,0.2688,-0.9993,0.1155,1.4794,0.0573,-0.1439,2049
1,0.3042,-0.9856,0.1096,1.3909,-0.223,-0.1942,2053
1,0.365,-0.9333,0.147,1.3243,-0.543,-0.2101,2041
1,0.4036,-0.908,0.1533,1.238,-0.81,-0.2137,2056
1,0.4045,-0.8818,0.1282,1.1738,-1.107,-0.2209,2054
1,0.3354,-0.8596,0.1179,1.1139,-1.3322,-0.2212,2055
1,0.2734,-0.8352,0.0781,1.1332,-1.4735,-0.2337,2050
1,0.2402,-0.8467,0.0608,1.1597,-1.5494,-0.2442,2047
1,0.218,-0.8499,0.0181,1.1668,-1.5388,-0.2554,2054
1,0.2024,-0.8555,0.0017,1.1469,-1.4514,-0.231,2054
1,0.2085,-0.8252,-0.0369,1.1512,-1.3219,-0.2109,2051
1,0.2205,-0.8018,-0.051,1.1539,-1.179,-0.1495,2051
1,0.2307,-0.7844,-0.0696,1.126,-1.0455,-0.0923,2055
1,0.2461,-0.7666,-0.0791,1.0858,-0.9046,-0.0229,2053
1,0.2598,-0.752,-0.0964,1.0435,-0.8031,0.0517,2051
1,0.2854,-0.7434,-0.1113,1.008,-0.7277,0.128,2051
1,0.3005,-0.7349,-0.115,0.9761,-0.6802,0.2055,2049
1,0.2974,-0.731,-0.1143,0.9308,-0.6422,0.2619,2050
1,0.2937,-0.7285,-0.1299,0.8766,-0.6072,0.316,2049
1,0.2812,-0.7173,-0.1416,0.8413,-0.5723,0.3554,2066
1,0.2766,-0.709,-0.1479,0.7946,-0.5401,0.4011,2041
1,0.2676,-0.7092,-0.1736,0.7731,-0.5083,0.4425,2043
1,0.2598,-0.7029,-0.1743,0.742,-0.4512,0.4846,2046
1,0.2629,-0.7192,-0.1855,0.706,-0.3882,0.5304,2050
1,0.2686,-0.7183,-0.1975,0.6699,-0.3461,0.5847,2050
1,0.2844,-0.7146,-0.2041,0.6438,-0.306,0.6363,2048
1,0.313,-0.7244,-0.2192,0.6267,-0.2852,0.6823,2049
1,0.3281,-0.7356,-0.2234,0.5912,-0.273,0.7239,2048
1,0.3376,-0.76,-0.2253,0.5472,-0.2722,0.753,2053
1,0.3601,-0.7737,-0.2195,0.5034,-0.2838,0.7883,2049
1,0.3777,-0.7949,-0.2454,0.4805,-0.2755,0.8148,2054
1,0.3796,-0.8271,-0.2471,0.4603,-0.2433,0.8432,2055
1,0.3892,-0.8489,-0.2468,0.44,-0.1989,0.8744,2045
1,0.4019,-0.8884,-0.2534,0.4325,-0.1595,0.8823,2053
1,0.4556,-0.9812,-0.2266,0.4233,-0.0723,0.9068,2049
1,0.479,-1.0615,-0.1914,0.3061,-0.0641,0.9031,2050
1,0.4597,-1.1023,-0.1675,0.2007,-0.0862,0.8998,2052
1,0.4939,-1.1328,-0.1433,0.098,-0.1581,0.8925,2049
1,0.4854,-1.1189,-0.1023,-0.0177,-0.0778,0.8504,2050
1,0.5398,-1.1201,-0.0942,-0.1073,-0.1236,0.8495,2048
1,0.5273,-1.1624,-0.0996,-0.1976,-0.1069,0.8505,2047
1,0.4929,-1.2524,-0.1411,-0.2502,-0.0313,0.8485,2052
1,0.4727,-1.3398,-0.1638,-0.2947,0.1092,0.7877,2039
1,0.3616,-1.3916,-0.1602,-0.3678,0.3898,0.6713,2047
1,0.3616,-1.3567,-0.0923,-0.4931,0.5634,0.5731,2054
1,0.2773,-1.2759,-0.001,-0.6576,0.9164,0.4095,2050
1,0.1492,-1.2339,0.1292,-0.7433,1.5281,0.2356,2047
1,0.2095,-1.1174,0.1353,-0.7783,1.8678,0.1412,2041
1,0.2463,-1.0847,0.1389,-0.8985,2.1177,0.0799,2055
1,0.251,-1.0669,0.2122,-1.0665,2.4009,-0.0079,2054
1,0.2546,-1.0835,0.2168,-1.2452,2.4963,-0.1144,2048
1,0.3245,-1.1152,0.1521,-1.3302,2.4155,-0.1796,2046
1,0.3269,-1.1692,0.0667,-1.4351,2.2993,-0.3488,2055
1,0.3721,-1.2109,-0.0227,-1.4298,1.9815,-0.5123,2055
1,0.3098,-1.2075,-0.0789,-1.4925,1.7277,-0.7103,2063
1,0.3708,-1.1841,-0.103,-1.4645,1.4074,-0.8472,2062
1,0.3379,-1.1416,-0.1116,-1.4651,1.129,-0.9989,2055
1,0.324,-1.1384,-0.1028,-1.4948,1.003,-1.0491,2052
1,0.293,-1.0876,-0.0913,-1.5649,0.8684,-1.1098,2058
1,0.2412,-1.0208,-0.0933,-1.6209,0.7564,-1.1806,2052
1,0.1865,-0.9912,-0.1074,-1.6139,0.7291,-1.2166,2054
1,0.1375,-0.9878,-0.0945,-1.586,0.7945,-1.2292,2051
1,0.116,-0.949,-0.1057,-1.5362,0.9231,-1.2109,2051
1,0.1433,-0.9412,-0.1262,-1.4773,1.0069,-1.2009,2047
1,0.1682,-0.9275,-0.1211,-1.4556,1.0931,-1.2055,2048
1,0.1775,-0.9277,-0.1155,-1.4383,1.2214,-1.2042,2051
1,0.1804,-0.9102,-0.1082,-1.4334,1.2885,-1.2231,2050
1,0.1794,-0.9021,-0.116,-1.4395,1.2926,-1.228,2053
1,0.1848,-0.8845,-0.1099,-1.4239,1.2864,-1.2262,2050
1,0.1956,-0.8577,-0.1047,-1.4278,1.2987,-1.2386,2051
1,0.1904,-0.835,-0.1169,-1.4054,1.3062,-1.2355,2051
1,0.2058,-0.8196,-0.1423,-1.3628,1.2492,-1.231,2051
1,0.1641,-0.8699,-0.156,-1.2999,1.2432,-1.1852,2054
1,0.167,-0.8274,-0.157,-1.2974,1.2714,-1.1334,2048
1,0.1677,-0.8237,-0.1755,-1.2507,1.225,-1.1319,2048
1,0.1638,-0.8301,-0.1931,-1.1701,1.1436,-1.1034,2050
1,0.1592,-0.8235,-0.1912,-1.1299,1.0836,-1.0515,2048
1,0.1658,-0.7947,-0.199,-1.0841,1.0387,-1.005,2050
1,0.179,-0.7708,-0.1936,-1.0292,0.962,-0.9712,2051
1,0.1826,-0.7488,-0.1963,-0.9646,0.8596,-0.9286,2046
1,0.1941,-0.739,-0.2209,-0.8921,0.7319,-0.8714,2050
1,0.2095,-0.7266,-0.2268,-0.8036,0.6241,-0.8108,2048
1,0.2173,-0.7336,-0.2292,-0.7255,0.5066,-0.7444,2056
1,0.2295,-0.7449,-0.2524,-0.6267,0.386,-0.6646,2051
1,0.2468,-0.7588,-0.2681,-0.5232,0.2693,-0.5767,2047
1,0.2664,-0.7766,-0.2852,-0.404,0.1573,-0.4685,2052
1,0.2776,-0.8047,-0.2947,-0.2788,0.0633,-0.3569,2053
1,0.3145,-0.8386,-0.3096,-0.1482,-0.0353,-0.238,2049
1,0.335,-0.873,-0.325,-0.0071,-0.1385,-0.1063,2053
1,0.3699,-0.894,-0.3311,0.1405,-0.2424,0.0289,2049
1,0.3889,-0.9253,-0.325,0.2738,-0.3575,0.1443,2054
1,0.4155,-0.949,-0.2898,0.3835,-0.5051,0.2541,2049
1,0.4241,-0.9768,-0.2827,0.5082,-0.6746,0.3594,2053
1,0.4333,-1.0198,-0.2993,0.662,-0.8307,0.4586,2050
2,0.459,-1.0918,-0.3284,0.9254,-1.017,0.5506,2056
2,0.4954,-1.2332,-0.3313,1.1517,-1.1575,0.6946,2048
2,0.5237,-1.3303,-0.2922,1.3205,-1.305,0.8503,2048
2,0.5071,-1.3533,-0.165,1.2893,-1.3609,0.9717,2049
2,0.4785,-1.2842,0.0002,1.1865,-1.4019,1.0095,2051
2,0.4412,-1.1768,0.1597,1.0057,-1.449,1.0063,2047
2,0.4097,-1.0811,0.2632,0.8393,-1.4604,0.9918,2053
2,0.3867,-1.0193,0.2571,0.7901,-1.3762,0.9906,2054
2,0.3809,-1.0225,0.2012,0.8608,-1.1117,0.9748,2043
2,0.3589,-1.0942,0.1731,0.907,-0.7513,0.9154,2035
2,0.3352,-1.1636,0.1414,0.9044,-0.4465,0.8142,2053
2,0.3276,-1.2222,0.1343,0.8272,-0.2876,0.6754,2056
2,0.3479,-1.2012,0.1487,0.7269,-0.2659,0.5209,2054
2,0.3967,-1.1714,0.1765,0.6034,-0.4135,0.3991,2054
2,0.4243,-1.1245,0.1707,0.4722,-0.6155,0.2868,2048
2,0.4783,-1.0669,0.1377,0.4042,-0.8552,0.2226,2050
2,0.467,-0.9814,0.0945,0.3667,-1.0432,0.1495,2050
2,0.459,-0.9307,0.0522,0.3473,-1.2818,0.1032,2050
2,0.3838,-0.8916,0.0076,0.3302,-1.4263,0.028,2058
2,0.3562,-0.8323,-0.0234,0.3402,-1.4483,-0.0423,2049
2,0.3438,-0.7942,-0.0713,0.4277,-1.468,-0.09,2050
2,0.3469,-0.7502,-0.1338,0.4714,-1.4543,-0.1677,2048
2,0.3123,-0.7239,-0.1543,0.5501,-1.3655,-0.1876,2052
2,0.3218,-0.6753,-0.1809,0.5861,-1.2469,-0.2268,2050
2,0.3513,-0.6521,-0.2131,0.6552,-1.1737,-0.2256,2052
2,0.3765,-0.6296,-0.2166,0.7023,-1.0517,-0.1625,2048
2,0.3909,-0.6255,-0.2117,0.7528,-0.9704,-0.1246,2052
2,0.3848,-0.5833,-0.208,0.7664,-0.9036,-0.1067,2056
2,0.3867,-0.5515,-0.2212,0.7977,-0.8585,-0.0924,2047
2,0.4009,-0.5566,-0.2266,0.8622,-0.8479,-0.0655,2048
2,0.4092,-0.5659,-0.2131,0.8886,-0.7999,-0.0346,2054
2,0.3884,-0.5464,-0.1953,0.9119,-0.7661,-0.0153,2052
2,0.3599,-0.5376,-0.199,0.928,-0.7423,0.0027,2047
2,0.3452,-0.5337,-0.1763,0.9461,-0.6931,0.021,2049
2,0.3357,-0.5293,-0.1746,0.9566,-0.6348,0.0507,2048
2,0.3311,-0.5303,-0.1592,0.9692,-0.5822,0.0875,2048
2,0.3181,-0.5491,-0.1729,0.9736,-0.5484,0.12,2051
2,0.3069,-0.5662,-0.1604,0.9705,-0.5147,0.135,2047
2,0.304,-0.583,-0.158,0.9585,-0.4948,0.1502,2053
2,0.3042,-0.6169,-0.1763,0.9668,-0.5067,0.1703,2051
2,0.3098,-0.6553,-0.2083,0.9686,-0.5066,0.1988,2053
2,0.3328,-0.6882,-0.2063,0.9762,-0.5129,0.2344,2050
2,0.3479,-0.7344,-0.2209,0.9865,-0.5257,0.2654,2052
2,0.3555,-0.8005,-0.2236,1.0021,-0.5378,0.3113,2047
2,0.3625,-0.8655,-0.2437,1.0015,-0.5737,0.3368,2052
2,0.3792,-0.9553,-0.2285,0.9989,-0.612,0.3649,2050
2,0.3977,-1.0452,-0.2302,0.9806,-0.6434,0.4031,2051
2,0.4036,-1.1536,-0.2048,0.95,-0.702,0.4498,2048
2,0.4097,-1.2371,-0.1909,0.9116,-0.7947,0.5127,2048
2,0.4131,-1.2817,-0.1536,0.8128,-0.8504,0.5912,2050
2,0.4277,-1.2805,-0.1416,0.7232,-0.927,0.6538,2049
2,0.4412,-1.3188,-0.1199,0.6616,-0.9481,0.7104,2051
2,0.4377,-1.3909,-0.1274,0.6161,-0.9163,0.7795,2049
2,0.4021,-1.4539,-0.1335,0.5554,-0.8279,0.8392,2051
2,0.3613,-1.4614,-0.1541,0.4847,-0.7012,0.8641,2039
2,0.3391,-1.439,-0.1282,0.3791,-0.4903,0.8594,2051
2,0.3289,-1.3826,-0.0613,0.2306,-0.2328,0.8046,2050
2,0.3047,-1.2476,0.0403,0.018,0.0708,0.7257,2042
2,0.3071,-1.116,0.1111,-0.1846,0.3345,0.6714,2048
2,0.363,-1.0237,0.1101,-0.3445,0.5026,0.6387,2057
2,0.4211,-1.03,0.0474,-0.4116,0.6195,0.6185,2054
2,0.4292,-1.0645,-0.0186,-0.4643,0.7489,0.5631,2055
2,0.4185,-1.1189,-0.1111,-0.5352,0.8544,0.4505,2053
2,0.4016,-1.1809,-0.1963,-0.5947,0.8915,0.2836,2050
2,0.3955,-1.208,-0.2036,-0.6401,0.9403,0.1111,2050
2,0.3105,-1.2122,-0.1572,-0.7058,1.06,-0.1113,2049
2,0.2209,-1.2031,-0.0981,-0.7139,1.207,-0.341,2053
2,0.1907,-1.1924,-0.0784,-0.7451,1.3177,-0.4542,2055
2,0.2002,-1.1711,-0.0735,-0.7891,1.4194,-0.5506,2053
2,0.2278,-1.1638,-0.0393,-0.8601,1.4605,-0.6279,2058
2,0.2234,-1.1335,-0.0112,-0.9424,1.5018,-0.7063,2057
2,0.2444,-1.1033,-0.0088,-1.0314,1.4925,-0.7508,2062
2,0.2725,-1.0796,-0.0146,-1.1158,1.441,-0.7712,2059
2,0.2979,-1.0183,-0.0063,-1.2039,1.3778,-0.8147,2053
2,0.3118,-0.9849,-0.001,-1.2924,1.307,-0.8429,2058
2,0.3098,-0.9302,0.0002,-1.372,1.2363,-0.9115,2058
2,0.3135,-0.8872,0.0044,-1.4577,1.1915,-0.9674,2056
2,0.2747,-0.8225,-0.012,-1.5271,1.1794,-1.0453,2051
2,0.2561,-0.7793,-0.033,-1.5526,1.1802,-1.0857,2050
2,0.2207,-0.7224,-0.0466,-1.5692,1.2593,-1.1344,2045
2,0.2036,-0.678,-0.053,-1.5929,1.341,-1.1769,2051
2,0.1851,-0.6511,-0.0715,-1.605,1.4097,-1.1989,2048
2,0.1499,-0.6187,-0.0955,-1.6061,1.5022,-1.2165,2051
2,0.1333,-0.5962,-0.1111,-1.5961,1.5861,-1.2259,2051
2,0.1272,-0.5969,-0.1333,-1.5728,1.6335,-1.2443,2051
2,0.1304,-0.5947,-0.1648,-1.5318,1.6617,-1.2467,2054
2,0.1357,-0.6113,-0.1926,-1.4697,1.6839,-1.256,2050
2,0.1641,-0.6294,-0.2151,-1.396,1.6422,-1.2527,2048
2,0.1814,-0.6624,-0.2405,-1.3189,1.564,-1.2459,2053
2,0.2122,-0.6846,-0.2625,-1.2236,1.4573,-1.2311,2052
2,0.2354,-0.7168,-0.2708,-1.1326,1.3089,-1.2063,2050
2,0.2566,-0.7512,-0.2747,-1.0465,1.1254,-1.1653,2052
2,0.2837,-0.7805,-0.2673,-0.9536,0.9174,-1.1162,2048
2,0.2827,-0.8083,-0.2717,-0.8736,0.6964,-1.0443,2051
2,0.2849,-0.8464,-0.261,-0.7967,0.4952,-0.969,2053
2,0.2742,-0.8826,-0.2295,-0.7395,0.2827,-0.8887,2051
2,0.2668,-0.9011,-0.2339,-0.6668,0.121,-0.8102,2050
2,0.2776,-0.9294,-0.2344,-0.579,-0.0149,-0.7208,2051
2,0.282,-0.9631,-0.2466,-0.4829,-0.0928,-0.5885,2053
2,0.2949,-1.0007,-0.2825,-0.3354,-0.1697,-0.4702,2049
2,0.3389,-1.0293,-0.2922,-0.1908,-0.2257,-0.3111,2048
2,0.3989,-1.0645,-0.2998,-0.0619,-0.2975,-0.1408,2047
2,0.4529,-1.0686,-0.27,0.027,-0.4251,0.0294,2047
3,0.4875,-1.0715,-0.2397,0.098,-0.5991,0.1831,2053
3,0.5015,-1.0857,-0.2354,0.1903,-0.8167,0.3292,2049
3,0.5181,-1.1404,-0.252,0.3157,-1.0045,0.4813,2046
3,0.5452,-1.2141,-0.2708,0.4694,-1.1279,0.646,2049
3,0.521,-1.269,-0.2583,0.5988,-1.1862,0.799,2053
3,0.4792,-1.2327,-0.1624,0.6955,-1.1744,0.9132,2052
3,0.4358,-1.2002,-0.0208,0.6775,-1.1196,0.9662,2048
3,0.3938,-1.1541,0.1255,0.6043,-1.0681,0.9562,2049
3,0.405,-1.0872,0.1985,0.481,-1.0686,0.8769,2050
3,0.4324,-1.031,0.2275,0.41,-1.0206,0.8561,2052
3,0.4553,-1.0476,0.2183,0.3444,-0.8939,0.816,2047
3,0.4927,-1.04,0.2053,0.3188,-0.7681,0.7622,2046
3,0.4875,-1.0837,0.1748,0.2872,-0.5879,0.7136,2059
3,0.45,-1.084,0.1057,0.2679,-0.5177,0.6051,2049
3,0.458,-1.0713,0.0051,0.3276,-0.5501,0.4597,2045
3,0.5073,-1.0122,-0.0154,0.4251,-0.7075,0.3417,2044
3,0.5486,-1.0049,-0.0149,0.4583,-0.9166,0.2244,2049
3,0.5786,-0.9578,0.0176,0.4761,-1.1523,0.0872,2048
3,0.5872,-0.9277,0.0168,0.5235,-1.4772,-0.0053,2053
3,0.5139,-0.8586,0.0278,0.53,-1.6197,-0.0952,2049
3,0.4739,-0.7849,0.0146,0.5645,-1.7313,-0.1732,2052
3,0.3647,-0.7402,0.0032,0.6624,-1.6998,-0.2,2047
3,0.2485,-0.7161,-0.0354,0.744,-1.6174,-0.2537,2051
3,0.2175,-0.6855,-0.0898,0.8096,-1.5074,-0.3173,2053
3,0.2231,-0.645,-0.1108,0.8682,-1.2559,-0.3802,2143
3,0.2166,-0.6323,-0.0991,0.9316,-1.0116,-0.4232,2054
3,0.2583,-0.6384,-0.1284,0.958,-0.8656,-0.4046,2043
3,0.2925,-0.6284,-0.1401,0.9782,-0.7938,-0.3992,2038
3,0.313,-0.6265,-0.1648,0.9797,-0.755,-0.3794,2045
3,0.3542,-0.6262,-0.177,0.9705,-0.7409,-0.359,2047
3,0.3975,-0.6353,-0.1946,0.963,-0.7638,-0.3164,2037
3,0.4155,-0.6318,-0.2083,0.9626,-0.8192,-0.2376,2050
3,0.4285,-0.6477,-0.2268,0.9734,-0.9032,-0.1571,2066
3,0.4309,-0.6379,-0.2241,0.9907,-0.967,-0.0816,2055
3,0.4114,-0.6355,-0.2285,1.0027,-0.9841,0.0129,2046
3,0.3801,-0.6555,-0.2241,1.0218,-0.9368,0.0971,2043
3,0.3596,-0.6477,-0.2358,1.0521,-0.8617,0.1862,2045
3,0.3643,-0.6438,-0.2461,1.0909,-0.7834,0.2758,2050
3,0.3586,-0.6699,-0.2615,1.1666,-0.6777,0.3711,2047
3,0.3533,-0.7004,-0.2681,1.1994,-0.6022,0.473,2048
3,0.3604,-0.7358,-0.2554,1.2195,-0.5505,0.5677,2047
3,0.3604,-0.7705,-0.2288,1.2078,-0.5259,0.6605,2047
3,0.3459,-0.791,-0.2104,1.1922,-0.5231,0.7453,2045
3,0.3467,-0.8015,-0.208,1.1664,-0.5364,0.8248,2049
3,0.3472,-0.821,-0.2014,1.1411,-0.5398,0.9006,2052
3,0.366,-0.8335,-0.2131,1.1259,-0.5678,0.9985,2049
3,0.3792,-0.8872,-0.2273,1.1279,-0.5165,1.066,2034
3,0.4026,-0.9475,-0.248,1.1415,-0.501,1.1415,2049
3,0.4453,-1.0493,-0.2844,1.1517,-0.5197,1.2166,2049
3,0.4622,-1.1245,-0.2722,1.0959,-0.5385,1.244,2052
3,0.481,-1.1536,-0.2673,1.0307,-0.539,1.2483,2054
3,0.5205,-1.1636,-0.2351,0.9786,-0.5999,1.2535,2055
3,0.6174,-1.1953,-0.2251,0.9078,-0.6857,1.2623,2039
3,0.6094,-1.2109,-0.1956,0.8257,-0.7241,1.2351,2039
3,0.5308,-1.2874,-0.179,0.8079,-0.6363,1.2095,2037
3,0.5537,-1.3303,-0.2109,0.7753,-0.7444,1.1029,2043
3,0.4807,-1.353,-0.1882,0.7099,-0.5915,0.9838,2049
3,0.4148,-1.292,-0.1282,0.6132,-0.4259,0.702,2074
3,0.3792,-1.2581,0.0073,0.4627,-0.1606,0.5566,2055
3,0.3799,-1.1084,0.082,0.2579,-0.0084,0.4054,2055
3,0.3469,-1.0637,0.1265,0.0779,0.2748,0.3236,2057
3,0.3025,-1.0542,0.1379,-0.069,0.6703,0.2328,2046
3,0.2766,-1.0564,0.053,-0.1916,0.7954,0.1895,2050
3,0.2156,-1.1401,-0.0269,-0.2575,1.0646,0.1349,2054
3,0.1782,-1.1523,-0.1101,-0.3009,1.3685,0.0043,2051
3,0.1826,-1.165,-0.1135,-0.3795,1.7181,-0.1597,2040
3,0.21,-1.1553,-0.1409,-0.4621,1.7968,-0.3417,2048
3,0.2671,-1.1624,-0.1543,-0.5677,1.7442,-0.4896,2056
3,0.3042,-1.1426,-0.1484,-0.6727,1.7618,-0.6332,2042
3,0.3105,-1.1338,-0.136,-0.7739,1.682,-0.7665,2061
3,0.2881,-1.1208,-0.1125,-0.8846,1.5713,-0.8714,2064
3,0.2695,-1.095,-0.124,-0.9543,1.4222,-0.9678,2052
3,0.2393,-1.0669,-0.1255,-0.9898,1.325,-1.0377,2054
3,0.2422,-1.0427,-0.1187,-1.0198,1.2555,-1.0814,2053
3,0.2244,-1.0085,-0.1018,-1.0917,1.1785,-1.1232,2057
3,0.2063,-0.9709,-0.0815,-1.1641,1.1334,-1.1516,2059
3,0.1904,-0.9421,-0.0569,-1.2511,1.1334,-1.1549,2067
3,0.1851,-0.8801,-0.0405,-1.3484,1.128,-1.1722,2062
3,0.179,-0.8535,-0.043,-1.4113,1.1328,-1.1737,2056
3,0.1733,-0.8296,-0.0642,-1.4611,1.176,-1.1681,2055
3,0.1519,-0.8079,-0.0664,-1.5055,1.2684,-1.1527,2053
3,0.1482,-0.79,-0.0945,-1.5332,1.362,-1.1461,2051
3,0.1338,-0.7698,-0.1143,-1.5339,1.4491,-1.1385,2048
3,0.137,-0.7729,-0.1389,-1.5174,1.5366,-1.124,2057
3,0.1318,-0.7734,-0.1558,-1.4893,1.615,-1.1168,2049
3,0.144,-0.7654,-0.1855,-1.4507,1.6637,-1.1009,2049
3,0.1497,-0.7761,-0.1948,-1.4025,1.684,-1.0879,2049
3,0.158,-0.7844,-0.2036,-1.3597,1.6637,-1.0858,2049
3,0.1575,-0.7991,-0.2048,-1.327,1.6191,-1.08,2046
3,0.168,-0.8069,-0.2029,-1.2834,1.5303,-1.0645,2051
3,0.1782,-0.802,-0.2048,-1.2238,1.4139,-1.0385,2056
3,0.1853,-0.8027,-0.2168,-1.1452,1.294,-1.0051,2053
3,0.1985,-0.8088,-0.2195,-1.0706,1.144,-0.9532,2043
3,0.2244,-0.8337,-0.2039,-1.0107,0.9544,-0.9035,2047
3,0.2449,-0.8384,-0.2019,-0.9689,0.7566,-0.8397,2049
3,0.2407,-0.8455,-0.2058,-0.9324,0.5486,-0.8018,2051
3,0.2295,-0.8538,-0.2068,-0.8846,0.351,-0.7393,2052
3,0.2349,-0.8577,-0.2092,-0.8267,0.1746,-0.6809,2051
3,0.2275,-0.8745,-0.2195,-0.7343,0.0353,-0.6048,2052
3,0.2385,-0.8938,-0.2385,-0.6255,-0.0662,-0.4958,2048
3,0.2576,-0.9202,-0.2617,-0.4983,-0.1421,-0.3904,2048
3,0.2769,-0.9558,-0.2791,-0.3549,-0.2175,-0.2791,2048
4,0.333,-0.9963,-0.2998,-0.2097,-0.3091,-0.1479,2050
4,0.385,-1.0322,-0.3096,-0.0613,-0.4341,0.0017,2049
4,0.4163,-1.0635,-0.3013,0.0868,-0.5916,0.1298,2053
4,0.447,-1.0764,-0.2786,0.2041,-0.7871,0.2542,2055
4,0.4756,-1.0825,-0.2605,0.3023,-0.9967,0.3701,2050
4,0.4836,-1.0728,-0.2285,0.4176,-1.211,0.4822,2053
4,0.5088,-1.0857,-0.2397,0.56,-1.4065,0.6223,2051
4,0.5242,-1.1267,-0.2908,0.7404,-1.5824,0.7592,2050
4,0.5322,-1.1543,-0.3035,0.9396,-1.7145,0.8676,2051
4,0.532,-1.1826,-0.2446,1.0648,-1.7986,0.9689,2048
4,0.4348,-1.158,-0.116,1.1142,-1.7751,1.0274,2016
4,0.3892,-1.0791,0.0129,1.0745,-1.6699,0.9951,2056
4,0.3604,-1.0156,0.0991,0.9741,-1.5643,0.9448,2056
4,0.3594,-0.9175,0.1257,0.9618,-1.4625,0.8942,2048
4,0.3557,-0.8901,0.168,0.9931,-1.1978,0.8597,2049
4,0.3733,-0.9041,0.1367,1.0306,-0.8935,0.8499,2062
4,0.4028,-0.9407,0.0718,1.0545,-0.5193,0.8056,2046
4,0.3855,-1.0098,0.0256,1.0907,-0.2269,0.6995,2044
4,0.3538,-1.0815,-0.0286,1.1051,-0.0912,0.561,2045
4,0.3904,-1.093,-0.0366,1.1211,-0.1955,0.4091,2044
4,0.4534,-1.1179,-0.0117,1.129,-0.4422,0.2675,2045
4,0.5007,-1.1282,0.061,0.9934,-0.7048,0.1337,2044
4,0.5256,-1.0586,0.0901,0.8303,-1.0345,0.0134,2056
4,0.4741,-1.0046,0.0886,0.7305,-1.283,-0.0463,2053
4,0.3833,-0.9153,0.0857,0.6695,-1.3902,-0.1253,2049
4,0.2983,-0.8618,0.0281,0.6706,-1.4529,-0.186,2053
4,0.2349,-0.8188,-0.0122,0.7468,-1.3431,-0.2224,2055
4,0.2593,-0.7844,-0.0439,0.7991,-1.2901,-0.3013,2054
4,0.2388,-0.7947,-0.0979,0.8138,-1.1978,-0.3404,2051
4,0.2725,-0.7942,-0.1042,0.8043,-1.066,-0.3774,2061
4,0.2876,-0.7441,-0.1365,0.7498,-0.9604,-0.399,2051
4,0.3035,-0.731,-0.1477,0.7332,-0.8962,-0.3915,2054
4,0.3357,-0.7075,-0.1614,0.7179,-0.8617,-0.3671,2055
4,0.3447,-0.688,-0.1609,0.708,-0.8445,-0.3365,2050
4,0.3657,-0.6763,-0.1724,0.6923,-0.822,-0.2839,2052
4,0.3767,-0.6458,-0.1733,0.6588,-0.8122,-0.2229,2053
4,0.373,-0.6375,-0.1702,0.6389,-0.7991,-0.1686,2050
4,0.3701,-0.6211,-0.1702,0.6199,-0.7734,-0.1087,2046
4,0.3472,-0.5938,-0.1763,0.6072,-0.7114,-0.0551,2046
4,0.3281,-0.5862,-0.1746,0.603,-0.6098,0.0017,2047
4,0.3196,-0.5774,-0.1682,0.6072,-0.5156,0.061,2055
4,0.292,-0.5918,-0.1721,0.6023,-0.3978,0.11,2050
4,0.2859,-0.5906,-0.1721,0.5919,-0.2888,0.1687,2053
4,0.2715,-0.6042,-0.1836,0.5823,-0.1855,0.2252,2079
4,0.2725,-0.6199,-0.1885,0.5755,-0.0969,0.2863,2050
4,0.2754,-0.6306,-0.1931,0.5713,-0.0506,0.3514,2051
4,0.2886,-0.6619,-0.2175,0.5666,-0.0246,0.4035,2044
4,0.3008,-0.699,-0.2278,0.5558,-0.0193,0.4546,2049
4,0.3088,-0.7266,-0.2283,0.5413,-0.0308,0.498,2051
4,0.3188,-0.761,-0.2388,0.547,-0.0565,0.5381,2048
4,0.3264,-0.8235,-0.2571,0.5758,-0.0911,0.5794,2045
4,0.3611,-0.9141,-0.2769,0.6003,-0.1441,0.6256,2052
4,0.3894,-1.0178,-0.2678,0.5991,-0.2147,0.6718,2050
4,0.3972,-1.1128,-0.2649,0.5895,-0.3111,0.7201,2046
4,0.4041,-1.1755,-0.2334,0.5482,-0.399,0.7638,2058
4,0.3984,-1.218,-0.2163,0.5131,-0.5022,0.8214,2046
4,0.4031,-1.2361,-0.1807,0.4417,-0.5361,0.8917,2046
4,0.418,-1.2542,-0.1824,0.4241,-0.5521,0.9544,2047
4,0.4172,-1.3218,-0.2002,0.4247,-0.486,1.0239,2044
4,0.4062,-1.3914,-0.2295,0.4177,-0.373,1.0746,2047
4,0.3821,-1.4312,-0.2361,0.3478,-0.2328,1.0846,2043
4,0.3442,-1.3743,-0.1375,0.1956,0.0017,0.9732,2048
4,0.3108,-1.2937,-0.0208,0.0281,0.3019,0.8327,2038
4,0.2742,-1.2747,0.0842,-0.1412,0.5521,0.7192,2039
4,0.2302,-1.1978,0.1528,-0.3306,0.903,0.6132,2055
4,0.2388,-1.1125,0.1719,-0.4562,1.2103,0.5103,2047
4,0.2849,-1.1099,0.147,-0.5558,1.3909,0.4328,2058
4,0.3245,-1.1084,0.0867,-0.6532,1.4812,0.3538,2053
4,0.3428,-1.1218,0.0239,-0.7212,1.5226,0.2409,2050
4,0.2993,-1.1384,-0.0198,-0.7938,1.6017,0.0939,2055
4,0.261,-1.1226,-0.064,-0.81,1.6062,-0.073,2058
4,0.2556,-1.116,-0.1038,-0.8123,1.5242,-0.2223,2051
4,0.2764,-1.115,-0.127,-0.812,1.395,-0.3442,2051
4,0.2751,-1.1235,-0.1311,-0.8464,1.3621,-0.4536,2049
4,0.2427,-1.0908,-0.1423,-0.8867,1.2926,-0.5817,2032
4,0.1975,-1.0566,-0.1431,-0.9001,1.2536,-0.6867,2059
4,0.1841,-1.0203,-0.1521,-0.8479,1.1734,-0.7701,2063
4,0.1733,-0.9714,-0.115,-0.7955,1.1658,-0.8206,2056
4,0.1831,-0.9607,-0.1052,-0.7248,1.2037,-0.8503,2055
4,0.2668,-0.9568,-0.094,-0.7225,1.107,-0.8749,2056
4,0.2732,-0.9436,-0.0908,-0.8319,0.9388,-0.8875,2045
4,0.1924,-0.947,-0.0981,-0.8953,1.0717,-0.9339,2054
4,0.2063,-0.9028,-0.1157,-0.9252,1.0889,-0.9512,2053
4,0.1943,-0.8496,-0.1165,-0.9625,1.0463,-0.9606,2048
4,0.1755,-0.8308,-0.1279,-0.8935,1.1223,-0.9648,2048
4,0.1631,-0.8223,-0.1157,-0.8589,1.2561,-0.9889,2048
4,0.1584,-0.8074,-0.1084,-0.879,1.3454,-0.9914,2050
4,0.1484,-0.7874,-0.1377,-0.8752,1.4014,-1.007,2049
4,0.1545,-0.782,-0.1621,-0.864,1.4515,-1.0023,2049
4,0.1646,-0.7568,-0.176,-0.8528,1.4942,-0.9859,2050
4,0.1477,-0.749,-0.1724,-0.8308,1.509,-0.974,2050
4,0.1453,-0.751,-0.1838,-0.8038,1.4797,-0.9501,2054
4,0.1387,-0.7522,-0.1794,-0.7746,1.4221,-0.9423,2050
4,0.1462,-0.7534,-0.1924,-0.7542,1.3617,-0.93,2070
4,0.1582,-0.749,-0.1995,-0.7308,1.2846,-0.9134,2046
4,0.1667,-0.7393,-0.2153,-0.6861,1.1917,-0.8881,2048
4,0.1714,-0.74,-0.2095,-0.6292,1.0958,-0.8698,2045
4,0.1831,-0.7527,-0.2195,-0.5691,0.9725,-0.8412,2049
4,0.1812,-0.7771,-0.22,-0.5167,0.8407,-0.8138,2047
4,0.1951,-0.8147,-0.2051,-0.4698,0.6863,-0.7774,2048
4,0.207,-0.8513,-0.2029,-0.4152,0.536,-0.7437,2058
5,0.2092,-0.9082,-0.2051,-0.3771,0.3927,-0.691,2048
5,0.2136,-0.9509,-0.2134,-0.3141,0.2835,-0.6488,2046
5,0.2122,-1.0029,-0.2305,-0.2302,0.1791,-0.5859,2047
5,0.2441,-1.0532,-0.2422,-0.1433,0.1128,-0.4991,2048
5,0.2708,-1.1106,-0.2407,-0.0446,0.0262,-0.4112,2048
5,0.324,-1.1594,-0.2549,0.043,-0.0968,-0.3228,2048
5,0.3491,-1.1787,-0.2329,0.1033,-0.255,-0.2016,2051
5,0.3696,-1.1509,-0.2144,0.1535,-0.4771,-0.1254,2051
5,0.407,-1.146,-0.197,0.2595,-0.7509,-0.0437,2044
5,0.4353,-1.2297,-0.2014,0.3711,-0.987,0.092,2053
5,0.4622,-1.3049,-0.2197,0.4991,-1.1726,0.2658,2052
5,0.4778,-1.3562,-0.2058,0.6189,-1.3083,0.4472,2051
5,0.4277,-1.3591,-0.1067,0.6031,-1.3697,0.6012,2049
5,0.3772,-1.2776,0.0293,0.5421,-1.4023,0.6725,2062
5,0.3286,-1.1753,0.1633,0.4291,-1.3994,0.7273,2050
5,0.2827,-1.0288,0.2417,0.337,-1.3368,0.757,2047
5,0.2671,-0.9419,0.2649,0.3175,-1.113,0.8059,2050
5,0.2751,-0.9143,0.2764,0.3601,-0.8227,0.844,2051
5,0.24,-0.9529,0.2456,0.4169,-0.4721,0.8568,2051
5,0.2356,-1.0254,0.1753,0.4552,-0.1481,0.8004,2049
5,0.2266,-1.083,0.1445,0.4404,0.119,0.6861,2043
5,0.2659,-1.1057,0.116,0.4135,0.1771,0.5552,2049
5,0.3074,-1.104,0.1111,0.3733,0.0735,0.4408,2052
5,0.3684,-1.0649,0.1365,0.3336,-0.1193,0.3826,2048
5,0.405,-1.0078,0.1357,0.2924,-0.3999,0.3504,2057
5,0.4333,-0.9346,0.1326,0.239,-0.7059,0.3232,2052
5,0.4141,-0.8691,0.1157,0.2047,-0.9641,0.3105,2051
5,0.3611,-0.8059,0.0898,0.2185,-1.0935,0.2962,2053
5,0.3083,-0.7517,0.0374,0.2501,-1.1892,0.2658,2051
5,0.2793,-0.7087,-0.0115,0.3532,-1.2085,0.2256,2055
5,0.2754,-0.6838,-0.0774,0.4803,-1.1643,0.1911,2055
5,0.2786,-0.7041,-0.103,0.5753,-1.0507,0.1787,2053
5,0.3154,-0.6912,-0.1387,0.63,-0.9186,0.1758,2052
5,0.366,-0.6772,-0.1418,0.6795,-0.8347,0.1884,2053
5,0.3889,-0.6707,-0.1377,0.7108,-0.7778,0.2017,2053
5,0.3896,-0.6665,-0.1467,0.7112,-0.7415,0.2123,2049
5,0.3723,-0.6868,-0.1465,0.7056,-0.6365,0.2629,2053
5,0.3777,-0.6802,-0.1475,0.7036,-0.5201,0.2775,2054
5,0.3748,-0.6682,-0.1523,0.7263,-0.4964,0.3013,2047
5,0.3557,-0.6838,-0.1465,0.7502,-0.4092,0.3125,2048
5,0.365,-0.7168,-0.1428,0.7741,-0.3753,0.3521,2053
5,0.3562,-0.6938,-0.1289,0.7012,-0.293,0.3444,2048
5,0.2932,-0.6877,-0.1047,0.6673,-0.1699,0.3298,2053
5,0.3064,-0.6943,-0.105,0.6461,-0.1534,0.3326,2052
5,0.2876,-0.7078,-0.127,0.624,-0.1053,0.3332,2052
5,0.3167,-0.7004,-0.1074,0.5627,-0.0308,0.3316,2050
5,0.2974,-0.7019,-0.1047,0.4991,0.025,0.3199,2051
5,0.2959,-0.7234,-0.1196,0.4498,0.0228,0.326,2055
5,0.3223,-0.7402,-0.1414,0.4081,-0.0196,0.3253,2052
5,0.3328,-0.7607,-0.1509,0.3609,-0.0296,0.3153,2050
5,0.3418,-0.8088,-0.1655,0.3235,-0.0586,0.3151,2055
5,0.3535,-0.8381,-0.1853,0.2746,-0.1348,0.3212,2048
5,0.3704,-0.8889,-0.1995,0.2633,-0.1787,0.3232,2047
5,0.3789,-0.9504,-0.2107,0.2535,-0.1597,0.3317,2050
5,0.3918,-1.0156,-0.2085,0.2313,-0.1547,0.3364,2053
5,0.3945,-1.094,-0.1819,0.1983,-0.1373,0.3541,2048
5,0.4426,-1.1384,-0.1758,0.151,-0.1922,0.3888,2048
5,0.4612,-1.2036,-0.1794,0.1025,-0.2476,0.4437,2053
5,0.4526,-1.1924,-0.1338,-0.0015,-0.1892,0.4468,2053
5,0.4919,-1.1882,-0.1426,-0.0414,-0.2049,0.4689,2050
5,0.5056,-1.1887,-0.1577,-0.0786,-0.2482,0.499,2051
5,0.4895,-1.2585,-0.177,-0.0892,-0.1557,0.5365,2048
5,0.4753,-1.3235,-0.2236,-0.0679,-0.0674,0.5565,2052
5,0.4539,-1.3765,-0.2537,-0.0638,0.0929,0.5537,2050
5,0.415,-1.3621,-0.2273,-0.1172,0.2334,0.5067,2048
5,0.2839,-1.3022,-0.094,-0.214,0.6048,0.4038,2046
5,0.2334,-1.1387,0.0491,-0.3304,0.9709,0.2458,2046
5,0.2053,-1.0273,0.0901,-0.4068,1.1834,0.1792,2051
5,0.178,-1.01,0.1311,-0.4321,1.4731,0.1518,2051
5,0.2012,-1.0264,0.1099,-0.486,1.7677,0.1324,2049
5,0.218,-1.022,0.0728,-0.607,1.957,0.0513,2055
5,0.2507,-1.0439,0.0334,-0.6713,2.0326,-0.0589,2053
5,0.2854,-1.1169,-0.0298,-0.7609,1.8904,-0.1623,2053
5,0.3086,-1.125,-0.0933,-0.8122,1.6759,-0.2752,2053
5,0.3459,-1.1431,-0.1331,-0.8433,1.4878,-0.4184,2052
5,0.3206,-1.1602,-0.1582,-0.8849,1.2504,-0.5402,2051
5,0.3018,-1.1619,-0.1658,-0.8879,0.9917,-0.6469,2046
5,0.2698,-1.1558,-0.1335,-0.8797,0.8641,-0.7289,2052
5,0.2341,-1.1309,-0.1262,-0.917,0.6775,-0.7951,2053
5,0.1765,-1.0808,-0.0957,-0.9472,0.6474,-0.8656,2057
5,0.1584,-1.0291,-0.0884,-0.9544,0.6466,-0.9235,2053
5,0.1355,-1.0095,-0.0732,-0.9471,0.64,-0.9473,2052
5,0.1208,-0.9849,-0.0657,-0.9539,0.7497,-0.9672,2054
5,0.1348,-0.9414,-0.0649,-0.9753,0.8325,-0.9871,2049
5,0.1536,-0.9358,-0.0342,-1.0254,0.9316,-0.9728,2051
5,0.1614,-0.9241,-0.0212,-1.0951,0.985,-0.9672,2052
5,0.177,-0.895,-0.0117,-1.1599,1.0403,-0.9465,2052
5,0.1794,-0.875,-0.0352,-1.1907,1.0905,-0.9427,2052
5,0.1863,-0.8542,-0.0503,-1.2013,1.1318,-0.9391,2053
5,0.188,-0.8308,-0.0779,-1.2014,1.1367,-0.92,2049
5,0.1814,-0.8074,-0.1099,-1.1929,1.1521,-0.8918,2051
5,0.1921,-0.7974,-0.1328,-1.1678,1.1672,-0.8775,2052
5,0.188,-0.7712,-0.1382,-1.1608,1.1648,-0.8459,2055
5,0.1943,-0.7581,-0.1621,-1.15,1.144,-0.8256,2054
5,0.1792,-0.7322,-0.186,-1.116,1.1218,-0.7921,2052
5,0.1658,-0.7141,-0.2012,-1.0501,1.1054,-0.7557,2048
5,0.1702,-0.71,-0.218,-0.9806,1.0816,-0.7253,2054
5,0.1768,-0.7104,-0.2288,-0.8994,1.0307,-0.6903,2051
5,0.1858,-0.7087,-0.24,-0.8312,0.963,-0.661,2050
5,0.1929,-0.708,-0.2246,-0.7554,0.8672,-0.6329,2052
5,0.1985,-0.7107,-0.2153,-0.6898,0.775,-0.5825,2048
5,0.2183,-0.7139,-0.2168,-0.6248,0.6445,-0.5402,2052
5,0.2126,-0.7239,-0.2112,-0.5557,0.5319,-0.4818,2074
6,0.2207,-0.7415,-0.1997,-0.4916,0.4093,-0.435,2037
6,0.2166,-0.7644,-0.1936,-0.4191,0.2806,-0.3892,2041
6,0.2168,-0.7969,-0.1943,-0.3494,0.1706,-0.3309,2047
6,0.2229,-0.8428,-0.2024,-0.2646,0.0663,-0.2671,2050
6,0.2368,-0.8918,-0.2144,-0.1661,-0.015,-0.1854,2048
6,0.2563,-0.9492,-0.241,-0.0663,-0.0832,-0.1056,2052
6,0.2981,-0.9937,-0.2517,0.0477,-0.1567,-0.0053,2046
6,0.3486,-1.0479,-0.2783,0.1784,-0.2583,0.098,2051
6,0.3882,-1.0823,-0.2791,0.3349,-0.3943,0.2087,2047
6,0.4038,-1.1199,-0.2593,0.4213,-0.5325,0.3071,2049
6,0.4307,-1.1228,-0.2466,0.4825,-0.7126,0.4048,2052
6,0.4336,-1.1157,-0.2097,0.5928,-0.8914,0.497,2051
6,0.4302,-1.1384,-0.189,0.7315,-1.0507,0.5687,2051
6,0.4304,-1.1497,-0.1863,0.8971,-1.1709,0.6315,2045
6,0.4658,-1.2063,-0.186,1.0717,-1.3045,0.6806,2050
6,0.4629,-1.2759,-0.1763,1.1939,-1.4755,0.714,2050
6,0.5098,-1.2964,-0.1458,1.2973,-1.6227,0.7229,2052
6,0.5356,-1.2681,-0.0325,1.2396,-1.7362,0.7139,2051
6,0.5291,-1.1638,0.0598,1.0467,-1.9045,0.6149,2048
6,0.5654,-1.0017,0.2456,0.7569,-1.8076,0.426,2054
6,0.4937,-0.9148,0.3408,0.7196,-1.899,0.3701,2053
6,0.3696,-0.7988,0.3486,0.7696,-1.8756,0.2727,2055
6,0.2456,-0.8508,0.2983,0.8974,-1.4824,0.3567,2056
6,0.2852,-0.9307,0.1516,1.0158,-1.2131,0.3603,2043
6,0.218,-1.0149,0.0198,1.0762,-0.7423,0.3089,2042
6,0.2388,-1.1184,-0.1147,1.1575,-0.3434,0.1886,2047
6,0.271,-1.1804,-0.1504,1.1724,-0.068,0.0914,2052
6,0.3049,-1.2075,-0.1404,1.1858,-0.1216,0.0007,2045
6,0.3826,-1.1802,-0.0798,1.1047,-0.4842,-0.059,2052
6,0.4365,-1.1016,0.0125,0.9239,-0.7613,-0.1043,2050
6,0.4917,-1.0034,0.0371,0.7565,-1.0965,-0.1261,2069
6,0.4204,-0.915,0.0347,0.6414,-1.33,-0.1677,2055
6,0.3508,-0.8406,0.0322,0.6276,-1.4829,-0.1882,2050
6,0.2847,-0.812,0.0183,0.6436,-1.5299,-0.2326,2046
6,0.2224,-0.7817,-0.0122,0.6381,-1.4617,-0.2619,2048
6,0.2227,-0.7634,-0.0586,0.6283,-1.384,-0.288,2048
6,0.207,-0.7424,-0.0857,0.6095,-1.2375,-0.3021,2050
6,0.2012,-0.7146,-0.1155,0.5706,-1.0516,-0.2938,2047
6,0.2197,-0.6902,-0.1453,0.5296,-0.8906,-0.2645,2056
6,0.2368,-0.6521,-0.155,0.485,-0.7565,-0.2012,2055
6,0.2551,-0.6233,-0.1873,0.4679,-0.666,-0.1481,2047
6,0.2766,-0.6067,-0.2041,0.469,-0.5865,-0.0679,2052
6,0.3135,-0.6128,-0.2222,0.4729,-0.5432,0.0196,2051
6,0.3235,-0.6196,-0.23,0.4829,-0.5225,0.11,2049
6,0.3391,-0.6333,-0.2505,0.4887,-0.5193,0.2037,2051
6,0.3518,-0.6448,-0.2439,0.496,-0.5378,0.285,2051
6,0.3472,-0.6555,-0.2434,0.4968,-0.5425,0.3453,2051
6,0.3181,-0.6672,-0.2336,0.4922,-0.5074,0.4023,2048
6,0.2935,-0.6829,-0.2041,0.4907,-0.4504,0.4444,2050
6,0.281,-0.6919,-0.1736,0.4734,-0.3622,0.4791,2046
6,0.2729,-0.7004,-0.1436,0.4537,-0.2794,0.5201,2050
6,0.2871,-0.7151,-0.1226,0.4244,-0.2278,0.551,2049
6,0.3022,-0.7317,-0.1013,0.3783,-0.202,0.5741,2049
6,0.3298,-0.7502,-0.1077,0.3269,-0.2173,0.5857,2052
6,0.3423,-0.7852,-0.1208,0.2838,-0.2326,0.604,2046
6,0.3608,-0.8291,-0.1423,0.2617,-0.2414,0.6193,2053
6,0.3784,-0.8765,-0.1611,0.2514,-0.2582,0.6215,2050
6,0.4141,-0.9541,-0.207,0.2666,-0.2591,0.6343,2049
6,0.4375,-1.0532,-0.2195,0.2764,-0.275,0.6353,2053
6,0.4736,-1.1143,-0.2185,0.2633,-0.3032,0.6252,2051
6,0.5149,-1.1624,-0.1943,0.2324,-0.3549,0.6221,2050
6,0.5366,-1.1748,-0.1423,0.1787,-0.3598,0.6216,2055
6,0.5999,-1.1597,-0.1528,0.1388,-0.487,0.6091,2052
6,0.603,-1.1536,-0.1377,0.1064,-0.5412,0.6227,2052
6,0.571,-1.1484,-0.1196,0.0886,-0.5296,0.6339,2049
6,0.5298,-1.1875,-0.1379,0.1097,-0.4538,0.6235,2046
6,0.5222,-1.2332,-0.2329,0.1811,-0.5339,0.6177,2052
6,0.4641,-1.2549,-0.2312,0.2509,-0.2405,0.5196,2045
6,0.4236,-1.2512,-0.2297,0.2669,-0.0364,0.4564,2052
6,0.375,-1.2085,-0.1418,0.1899,0.1626,0.3518,2051
6,0.2798,-1.1536,-0.04,0.0953,0.4477,0.248,2078
6,0.2495,-1.1333,0.0444,0.0377,0.7665,0.1677,2048
6,0.2136,-1.1226,0.0403,0.0021,1.0483,0.1144,2046
6,0.197,-1.126,0.0596,-0.0844,1.3936,0.0261,2045
6,0.208,-1.1084,0.0579,-0.2312,1.4793,-0.1029,2039
6,0.2527,-1.0842,0.042,-0.3474,1.4479,-0.2201,2053
6,0.3188,-1.0969,0.0176,-0.4248,1.3703,-0.3179,2050
6,0.3416,-1.1123,-0.0276,-0.5381,1.2535,-0.4088,2051
6,0.3472,-1.1067,-0.0801,-0.6309,1.0487,-0.4968,2046
6,0.3235,-1.1028,-0.1174,-0.709,0.8224,-0.5711,2048
6,0.2949,-1.0981,-0.123,-0.7621,0.6865,-0.6425,2053
6,0.2595,-1.0789,-0.1343,-0.8122,0.5759,-0.7154,2058
6,0.2112,-1.0444,-0.1194,-0.8685,0.5292,-0.7875,2050
6,0.1741,-1.0015,-0.126,-0.891,0.5739,-0.8514,2049
6,0.1409,-0.9783,-0.1267,-0.8799,0.7022,-0.8898,2055
6,0.126,-0.9609,-0.1333,-0.8708,0.8063,-0.9079,2054
6,0.1216,-0.9478,-0.1365,-0.8475,0.9303,-0.9267,2059
6,0.155,-0.9446,-0.1326,-0.8311,1.0524,-0.9204,2051
6,0.1848,-0.9536,-0.1296,-0.838,1.1098,-0.9027,2052
6,0.2058,-0.9609,-0.1201,-0.8857,1.144,-0.8774,2052
6,0.2153,-0.9412,-0.1187,-0.9256,1.1423,-0.8541,2049
6,0.2278,-0.9175,-0.1106,-0.9511,1.1307,-0.8304,2052
6,0.2192,-0.8965,-0.1074,-0.9825,1.1242,-0.8088,2052
6,0.2095,-0.8633,-0.0974,-1.0035,1.119,-0.797,2048
6,0.1936,-0.8367,-0.1089,-1.0115,1.1258,-0.7906,2052
6,0.1807,-0.8254,-0.1221,-1.0029,1.1443,-0.7708,2054
6,0.1682,-0.813,-0.1255,-0.9894,1.1564,-0.7553,2054
6,0.1653,-0.8103,-0.1343,-0.9862,1.1922,-0.7328,2049
6,0.1477,-0.8003,-0.1438,-0.9792,1.2095,-0.7243,2048
6,0.1362,-0.7822,-0.1455,-0.965,1.2105,-0.7111,2049
6,0.1372,-0.7756,-0.1572,-0.9392,1.2007,-0.695,2047
6,0.1479,-0.7737,-0.1523,-0.9107,1.1636,-0.6827,2051
7,0.1584,-0.7642,-0.1621,-0.8769,1.0935,-0.6621,2051
7,0.1807,-0.7629,-0.1584,-0.8453,0.9983,-0.6457,2050
7,0.1929,-0.7571,-0.1575,-0.8287,0.8822,-0.6071,2049
7,0.2051,-0.7532,-0.1602,-0.7981,0.7482,-0.5734,2050
7,0.2119,-0.75,-0.1587,-0.7668,0.6164,-0.5283,2056
7,0.2202,-0.7473,-0.1621,-0.7368,0.4898,-0.4823,2049
7,0.2195,-0.7742,-0.1694,-0.6769,0.3835,-0.4299,2051
7,0.2205,-0.8142,-0.186,-0.6111,0.3204,-0.348,2054
7,0.2349,-0.8518,-0.2195,-0.5165,0.2718,-0.2904,2049
7,0.2495,-0.9062,-0.2432,-0.4164,0.2342,-0.2053,2048
7,0.2798,-0.9587,-0.2539,-0.3113,0.2019,-0.1224,2050
7,0.3071,-0.9907,-0.248,-0.2087,0.1374,-0.0373,2050
7,0.3442,-1.0239,-0.2439,-0.1163,0.0393,0.0523,2048
7,0.3638,-1.0322,-0.2319,-0.0246,-0.0878,0.1428,2052
7,0.3904,-1.0471,-0.2166,0.0518,-0.238,0.2365,2052
7,0.4109,-1.0215,-0.2056,0.1438,-0.4211,0.3171,2053
7,0.4214,-1.0208,-0.2163,0.2577,-0.6188,0.4027,2051
7,0.4399,-1.0688,-0.2473,0.4042,-0.8086,0.4829,2050
7,0.4722,-1.1392,-0.2939,0.5956,-0.9793,0.5871,2054
7,0.4854,-1.2112,-0.3093,0.8047,-1.1231,0.7022,2052
7,0.4829,-1.2598,-0.2349,0.8616,-1.1982,0.7759,2047
7,0.4297,-1.2178,-0.0801,0.7843,-1.1716,0.8014,2048
7,0.3894,-1.1589,0.0747,0.6411,-1.1423,0.758,2051
7,0.3279,-1.0735,0.2058,0.4829,-1.1342,0.71,2051
7,0.332,-0.9658,0.2402,0.405,-1.0092,0.6823,2055
7,0.3376,-0.9592,0.2725,0.3767,-0.7096,0.6649,2051
7,0.3523,-1.022,0.2168,0.3962,-0.4195,0.6268,2051
7,0.3667,-1.0872,0.1555,0.3876,-0.1858,0.5502,2052
7,0.3406,-1.1711,0.1228,0.3133,0.038,0.4111,2047
7,0.355,-1.1995,0.0879,0.2426,0.039,0.2514,2048
7,0.3743,-1.2004,0.0957,0.1594,-0.0862,0.0939,2054
7,0.4014,-1.1973,0.1201,0.0603,-0.3171,-0.0302,2050
7,0.4329,-1.147,0.1333,-0.0437,-0.6153,-0.1286,2054
7,0.437,-1.0737,0.1316,-0.1394,-0.9295,-0.1962,2054
7,0.4009,-0.9951,0.0986,-0.1707,-1.1255,-0.2495,2053
7,0.3704,-0.9202,0.0447,-0.136,-1.2756,-0.2866,2051
7,0.3308,-0.8667,-0.0198,-0.0929,-1.3115,-0.3259,2059
7,0.2891,-0.8352,-0.0571,-0.0164,-1.3013,-0.3863,2050
7,0.2739,-0.7981,-0.1108,0.0395,-1.2332,-0.4185,2050
7,0.3118,-0.7593,-0.1323,0.0917,-1.1168,-0.4316,2050
7,0.3096,-0.7366,-0.1663,0.1349,-1.0015,-0.4425,2052
7,0.3171,-0.7112,-0.1738,0.2017,-0.8799,-0.4438,2051
7,0.3323,-0.6863,-0.1819,0.2506,-0.7931,-0.4141,2051
7,0.3577,-0.6714,-0.1704,0.2994,-0.7229,-0.3642,2052
7,0.3816,-0.6621,-0.1721,0.3416,-0.6806,-0.3077,2053
7,0.4128,-0.6479,-0.1731,0.3898,-0.6767,-0.2322,2053
7,0.4299,-0.6328,-0.1675,0.4281,-0.7036,-0.1609,2048
7,0.4353,-0.6177,-0.1626,0.452,-0.698,-0.1023,2051
7,0.4211,-0.6167,-0.1567,0.4715,-0.6918,-0.0509,2045
7,0.3928,-0.6138,-0.1396,0.4942,-0.6636,0.0234,2054
7,0.3787,-0.6082,-0.1235,0.5115,-0.6256,0.0545,2043
7,0.3308,-0.5889,-0.1328,0.5498,-0.5366,0.1125,2046
7,0.3071,-0.5962,-0.1267,0.5657,-0.4409,0.1503,2058
7,0.3049,-0.5728,-0.1328,0.592,-0.3638,0.2024,2050
7,0.2976,-0.5789,-0.1414,0.6368,-0.2947,0.2382,2051
7,0.3083,-0.5864,-0.156,0.6428,-0.243,0.293,2050
7,0.3198,-0.5837,-0.1919,0.6753,-0.233,0.3269,2048
7,0.3374,-0.5991,-0.209,0.7232,-0.2408,0.3645,2050
7,0.3486,-0.6272,-0.2141,0.7616,-0.2444,0.4056,2053
7,0.3562,-0.6536,-0.231,0.8136,-0.2701,0.4406,2050
7,0.3708,-0.6985,-0.2449,0.8942,-0.3099,0.4822,2050
7,0.3804,-0.7441,-0.2708,0.9637,-0.3493,0.5211,2052
7,0.4199,-0.8359,-0.2908,1.0377,-0.4059,0.5624,2055
7,0.4363,-0.917,-0.2878,1.1026,-0.4731,0.609,2051
7,0.4431,-1.0015,-0.2886,1.1413,-0.5568,0.6572,2055
7,0.4392,-1.071,-0.2651,1.1641,-0.6204,0.7026,2046
7,0.4436,-1.1274,-0.2529,1.1781,-0.6831,0.7719,2047
7,0.4438,-1.156,-0.2285,1.1906,-0.7136,0.8425,2051
7,0.45,-1.1738,-0.1885,1.1491,-0.6959,0.9167,2054
7,0.4592,-1.2002,-0.1702,1.1262,-0.6694,0.9801,2050
7,0.4583,-1.2571,-0.1907,1.1411,-0.6184,1.0573,2044
7,0.4512,-1.3303,-0.2256,1.1488,-0.4966,1.0931,2053
7,0.4314,-1.3506,-0.2219,1.091,-0.3734,1.0893,2045
7,0.3643,-1.2998,-0.1504,0.9768,-0.2005,0.9955,2048
7,0.3176,-1.1956,-0.0308,0.7984,0.0174,0.8412,2051
7,0.2666,-1.1255,0.0869,0.6143,0.2123,0.666,2050
7,0.241,-1.1113,0.1504,0.4211,0.3867,0.5364,2033
7,0.2441,-1.1118,0.1511,0.2197,0.5594,0.4301,2049
7,0.2349,-1.1555,0.1316,0.0555,0.7818,0.338,2064
7,0.2517,-1.1958,0.0833,-0.0871,0.8409,0.2334,2035
7,0.2439,-1.262,0.0215,-0.1959,0.8243,0.1208,2056
7,0.241,-1.3162,-0.0413,-0.2899,0.8357,0.0129,2053
7,0.2158,-1.3191,-0.0596,-0.3569,0.8971,-0.1105,2055
7,0.1987,-1.304,-0.0596,-0.4152,0.9391,-0.2602,2051
7,0.2239,-1.2524,-0.0476,-0.5176,0.8766,-0.3991,2048
7,0.2397,-1.1997,-0.0249,-0.664,0.8469,-0.5113,2054
7,0.248,-1.1411,-0.0134,-0.8259,0.8585,-0.6185,2057
7,0.2393,-1.0786,-0.0076,-0.9344,0.8909,-0.6966,2055
7,0.2327,-1.0352,-0.0291,-1.0078,0.9114,-0.747,2053
7,0.2344,-0.998,-0.0266,-1.0762,0.9341,-0.7913,2055
7,0.2417,-0.9741,-0.0344,-1.1453,0.9477,-0.8211,2053
7,0.2434,-0.9541,-0.0281,-1.2311,0.9657,-0.8588,2056
7,0.2432,-0.9202,-0.0295,-1.2958,0.9875,-0.8942,2048
7,0.2249,-0.8914,-0.053,-1.3604,0.9994,-0.9325,2051
7,0.2114,-0.8511,-0.0571,-1.4041,1.0456,-0.9654,2049
7,0.2,-0.8184,-0.0613,-1.4326,1.0865,-0.9963,2044
7,0.1919,-0.7878,-0.084,-1.4494,1.148,-1.0154,2057
7,0.1895,-0.7649,-0.0879,-1.4608,1.195,-1.0348,2050
7,0.1787,-0.751,-0.1113,-1.4408,1.2374,-1.0512,2075
7,0.1641,-0.7437,-0.1355,-1.4109,1.2733,-1.0576,2055
8,0.1604,-0.7502,-0.1594,-1.3675,1.286,-1.079,2044
8,0.1582,-0.7534,-0.1626,-1.3165,1.2657,-1.084,2052
8,0.1685,-0.7671,-0.189,-1.2485,1.2298,-1.0941,2049
8,0.1721,-0.7717,-0.2007,-1.1782,1.174,-1.0963,2046
8,0.189,-0.7773,-0.2158,-1.1132,1.0949,-1.1007,2049
8,0.2031,-0.79,-0.2122,-1.0477,0.9998,-1.0926,2048
8,0.2136,-0.7871,-0.2063,-0.9965,0.8805,-1.0668,2052
8,0.2239,-0.7908,-0.2026,-0.9357,0.754,-1.0367,2050
8,0.2207,-0.7964,-0.1907,-0.8842,0.628,-1.003,2050
8,0.2244,-0.7996,-0.1694,-0.8467,0.4995,-0.9674,2052
8,0.2222,-0.8044,-0.1516,-0.8067,0.3715,-0.9183,2054
8,0.2153,-0.8074,-0.1621,-0.7548,0.2717,-0.8697,2049
8,0.2197,-0.8162,-0.158,-0.6866,0.1904,-0.806,2052
8,0.2131,-0.8374,-0.1733,-0.6054,0.1443,-0.7448,2046
8,0.217,-0.8679,-0.1973,-0.5179,0.1369,-0.6662,2052
8,0.2439,-0.9026,-0.2139,-0.4026,0.114,-0.5871,2051
8,0.2634,-0.9553,-0.2471,-0.2682,0.0985,-0.4811,2049
8,0.3049,-1.0127,-0.2683,-0.1229,0.0535,-0.3749,2050
8,0.3523,-1.0662,-0.2817,0.0173,-0.032,-0.2406,2050
8,0.3945,-1.0938,-0.2715,0.1344,-0.1368,-0.1209,2051
8,0.429,-1.0964,-0.2314,0.2151,-0.296,-0.0089,2042
8,0.4602,-1.1028,-0.2395,0.337,-0.5181,0.1047,2052
8,0.489,-1.1218,-0.2544,0.4536,-0.7371,0.234,2055
8,0.5103,-1.1672,-0.2871,0.6212,-0.9211,0.3719,2053
8,0.5227,-1.1777,-0.2808,0.814,-1.0993,0.5279,2054
8,0.5066,-1.2041,-0.239,0.8865,-1.2002,0.6546,2053
8,0.4507,-1.1604,-0.146,0.9384,-1.2274,0.7533,2053
8,0.4055,-1.1287,-0.031,0.9352,-1.191,0.8087,2051
8,0.3528,-1.0896,0.0591,0.865,-1.1351,0.8164,2052
8,0.3254,-1.0093,0.1558,0.7377,-1.0515,0.7981,2052
8,0.301,-0.9128,0.2146,0.6261,-0.867,0.8032,2052
8,0.2883,-0.8855,0.2139,0.6082,-0.6413,0.7984,2048
8,0.2859,-0.8865,0.1831,0.6106,-0.4008,0.773,2045
8,0.3176,-0.9194,0.1335,0.6066,-0.1983,0.7269,2050
8,0.3081,-0.9719,0.0879,0.5932,-0.0523,0.6376,2051
8,0.324,-1.0286,0.0457,0.5557,-0.016,0.5449,2046
8,0.3496,-1.0505,0.0166,0.5192,-0.1481,0.4237,2050
8,0.3762,-1.0437,0.0259,0.446,-0.3498,0.3017,2043
8,0.3923,-1.0237,0.0625,0.3574,-0.5998,0.2044,2041
8,0.4006,-0.9617,0.0674,0.2719,-0.8862,0.1285,2049
8,0.4021,-0.9019,0.0549,0.2204,-1.1242,0.0806,2055
8,0.356,-0.8577,0.0156,0.2297,-1.2375,0.0414,2042
8,0.3333,-0.8186,-0.0366,0.2611,-1.3022,0.0253,2060
8,0.3159,-0.7981,-0.084,0.3408,-1.309,-0.0005,2053
8,0.3083,-0.8069,-0.1084,0.4402,-1.237,-0.0244,2056
8,0.3384,-0.7861,-0.1521,0.4618,-1.1628,-0.0543,2052
8,0.3696,-0.7786,-0.175,0.503,-1.0813,-0.0453,2047
8,0.386,-0.7742,-0.1667,0.5312,-0.9513,-0.0329,2055
8,0.427,-0.7542,-0.1599,0.546,-0.8779,0.0063,2051
8,0.4204,-0.7544,-0.1628,0.5787,-0.8441,0.0523,2053
8,0.4414,-0.74,-0.1475,0.5834,-0.8082,0.0815,2049
8,0.4534,-0.7214,-0.1433,0.5645,-0.7704,0.1096,2053
8,0.4351,-0.7319,-0.1401,0.5837,-0.699,0.1614,2050
8,0.4199,-0.7085,-0.1287,0.5797,-0.6392,0.18,2050
8,0.4131,-0.6963,-0.1299,0.5858,-0.6118,0.2115,2052
8,0.3748,-0.6658,-0.1218,0.5754,-0.5517,0.1831,2053
8,0.3513,-0.6604,-0.1257,0.579,-0.4699,0.1836,2049
8,0.3213,-0.6519,-0.1428,0.5976,-0.4027,0.2015,2052
8,0.2979,-0.6262,-0.1438,0.5783,-0.2491,0.2069,2055
8,0.3103,-0.6357,-0.1599,0.6055,-0.2045,0.2322,2048
8,0.301,-0.6389,-0.1448,0.6191,-0.1491,0.2799,2050
8,0.3035,-0.6262,-0.166,0.6082,-0.0867,0.2794,2054
8,0.3259,-0.6448,-0.1956,0.6375,-0.1004,0.3124,2049
8,0.365,-0.6526,-0.2134,0.6574,-0.1221,0.3292,2048
8,0.3733,-0.6799,-0.208,0.6672,-0.1334,0.346,2052
8,0.3806,-0.718,-0.2476,0.6984,-0.1767,0.3816,2049
8,0.3945,-0.769,-0.2461,0.7381,-0.206,0.4225,2051
8,0.3948,-0.8242,-0.2656,0.7778,-0.1887,0.4647,2051
8,0.4099,-0.9182,-0.2795,0.8308,-0.176,0.5104,2054
8,0.4304,-1.0247,-0.3015,0.8669,-0.2187,0.5675,2046
8,0.4409,-1.0964,-0.2747,0.8716,-0.2193,0.6208,2049
8,0.4451,-1.1462,-0.2468,0.8228,-0.2265,0.6552,2050
8,0.4443,-1.1621,-0.2085,0.7718,-0.2284,0.6863,2055
8,0.4341,-1.1487,-0.1934,0.717,-0.291,0.7308,2052
8,0.4617,-1.1753,-0.1855,0.6831,-0.3237,0.7882,2046
8,0.4355,-1.2004,-0.1772,0.6512,-0.2212,0.8099,2049
8,0.4241,-1.2693,-0.2234,0.6699,-0.19,0.8537,2041
8,0.3989,-1.3237,-0.2075,0.5892,-0.0563,0.8505,2051
8,0.3303,-1.2783,-0.1472,0.4826,0.1218,0.764,2047
8,0.2678,-1.1992,-0.0413,0.3139,0.3615,0.6336,2054
8,0.2393,-1.1326,0.0496,0.1213,0.5506,0.5157,2054
8,0.1462,-1.0862,0.1555,-0.0664,0.9223,0.3975,2044
8,0.1799,-1.051,0.1531,-0.1701,1.2772,0.3161,2034
8,0.2007,-1.0898,0.1089,-0.2879,1.504,0.2472,2047
8,0.23,-1.157,0.0598,-0.3978,1.6178,0.172,2059
8,0.249,-1.2319,0.0322,-0.4831,1.6779,0.0852,2040
8,0.2549,-1.2954,-0.0032,-0.5701,1.7519,-0.0407,2049
8,0.2471,-1.3179,-0.0439,-0.6171,1.7001,-0.2115,2055
8,0.2661,-1.3342,-0.0862,-0.6826,1.4925,-0.3683,2050
8,0.2893,-1.2971,-0.0693,-0.795,1.3006,-0.5406,2051
8,0.302,-1.2493,-0.04,-0.9271,1.2021,-0.6853,2061
8,0.2783,-1.1853,-0.0259,-1.0585,1.078,-0.7662,2057
8,0.2146,-1.1128,-0.0076,-1.1644,1.0372,-0.8408,2058
8,0.1992,-1.0535,-0.0247,-1.1745,1.0484,-0.8562,2060
8,0.1917,-1.0088,-0.0366,-1.188,1.0128,-0.9017,2049
8,0.1892,-1.0,-0.0623,-1.1857,1.0543,-0.9231,2052
8,0.1936,-0.9939,-0.0498,-1.2382,1.1063,-0.9444,2051
8,0.2107,-0.9529,-0.0474,-1.3224,1.1134,-0.9748,2049
8,0.2153,-0.9204,-0.0632,-1.3764,1.0284,-1.016,2048
8,0.2053,-0.8818,-0.0479,-1.4308,1.0471,-1.038,2048
8,0.1997,-0.8408,-0.0491,-1.4861,1.0954,-1.0473,2054
8,0.1636,-0.8096,-0.0537,-1.5122,1.1467,-1.0601,2052
8,0.1484,-0.7725,-0.084,-1.4933,1.2126,-1.0492,2046
8,0.147,-0.7495,-0.115,-1.4398,1.2866,-1.048,2049
8,0.1526,-0.7534,-0.146,-1.3725,1.3529,-1.0387,2051
8,0.166,-0.7615,-0.1719,-1.311,1.3966,-1.0154,2046
8,0.1697,-0.7737,-0.2012,-1.2411,1.4185,-1.0144,2052
9,0.1699,-0.7732,-0.2161,-1.1856,1.4007,-1.0104,2051
9,0.1853,-0.7834,-0.2241,-1.1328,1.3508,-0.9834,2053
9,0.1963,-0.7852,-0.2249,-1.0684,1.2754,-0.9722,2048
9,0.2029,-0.7744,-0.2117,-1.0096,1.1802,-0.9598,2042
9,0.2036,-0.7729,-0.2029,-0.9625,1.0614,-0.9321,2051
9,0.2039,-0.7734,-0.1838,-0.908,0.9316,-0.901,2051
9,0.2175,-0.7595,-0.1636,-0.8728,0.777,-0.8689,2054
9,0.207,-0.7549,-0.1638,-0.8242,0.6425,-0.8107,2050
9,0.2002,-0.7505,-0.1633,-0.7678,0.5414,-0.7664,2051
9,0.2087,-0.7554,-0.168,-0.7071,0.4329,-0.7208,2048
9,0.207,-0.7769,-0.1899,-0.6276,0.3385,-0.6432,2052
9,0.2148,-0.8005,-0.2058,-0.5377,0.2662,-0.5821,2047
9,0.2214,-0.8354,-0.2222,-0.4393,0.1884,-0.5063,2051
9,0.2302,-0.8782,-0.2273,-0.3575,0.1344,-0.4187,2051
9,0.2329,-0.9224,-0.2361,-0.2442,0.0903,-0.3378,2053
9,0.2761,-0.9487,-0.2615,-0.1176,0.033,-0.2481,2045
9,0.3181,-0.9937,-0.2722,0.0176,-0.0313,-0.1164,2046
9,0.3716,-1.0352,-0.2812,0.1412,-0.112,0.0124,2052
9,0.4084,-1.0432,-0.2886,0.2711,-0.261,0.1439,2047
9,0.4519,-1.0718,-0.2844,0.3831,-0.4578,0.2641,2055
9,0.5015,-1.1423,-0.2927,0.5225,-0.6845,0.4152,2047
9,0.5305,-1.2004,-0.3376,0.7509,-0.9231,0.5713,2054
9,0.5544,-1.2703,-0.3494,0.9495,-1.0624,0.752,2047
9,0.5173,-1.364,-0.2659,1.0076,-1.1749,0.8842,2048
9,0.4478,-1.3345,-0.1257,0.9801,-1.2781,0.9909,2049
9,0.3796,-1.2402,0.0422,0.8851,-1.352,0.9529,2045
9,0.3328,-1.1313,0.1521,0.7273,-1.339,0.9616,2054
9,0.3271,-0.9668,0.1936,0.6094,-1.3356,0.9345,2051
9,0.3276,-0.8123,0.2512,0.587,-1.1868,0.9797,2047
9,0.3367,-0.7324,0.248,0.607,-0.8947,1.0439,2048
9,0.3552,-0.7949,0.1953,0.6813,-0.5333,1.1212,2057
9,0.3425,-0.8677,0.1292,0.6843,-0.2104,1.0516,2052
9,0.2512,-0.959,0.0339,0.7158,0.0083,0.9585,2055
9,0.2664,-1.0112,-0.0159,0.7778,-0.0176,0.7644,2053
9,0.3628,-1.0305,-0.0073,0.8104,-0.1774,0.5783,2050
9,0.4092,-1.0281,0.0229,0.7327,-0.5036,0.4348,2049
9,0.429,-1.0066,0.0637,0.6034,-0.8459,0.3413,2052
9,0.4282,-0.9211,0.0867,0.5397,-1.1601,0.283,2049
9,0.332,-0.8706,0.1196,0.4966,-1.2836,0.2318,2058
9,0.2781,-0.8328,0.075,0.5667,-1.4179,0.2071,2053
9,0.2061,-0.8418,0.0652,0.6528,-1.28,0.204,2052
9,0.2026,-0.8208,0.0024,0.7391,-1.2057,0.1388,2051
9,0.1714,-0.843,-0.0203,0.7938,-1.0057,0.0824,2051
9,0.2725,-0.8843,-0.0786,0.7751,-0.9472,0.0653,2054
9,0.2817,-0.8665,-0.0728,0.705,-0.8044,0.0184,2049
9,0.3018,-0.8516,-0.0571,0.6425,-0.6777,0.004,2052
9,0.3301,-0.8218,-0.0854,0.6052,-0.6767,-0.0142,2048
9,0.3784,-0.8345,-0.1042,0.5842,-0.7229,0.0262,2046
9,0.3589,-0.8032,-0.0845,0.506,-0.6343,0.0423,2050
9,0.3806,-0.7812,-0.1003,0.4745,-0.6417,0.0557,2052
9,0.373,-0.7844,-0.1033,0.4446,-0.6544,0.07,2057
9,0.3416,-0.771,-0.1079,0.4301,-0.5516,0.0835,2055
9,0.3389,-0.7437,-0.1287,0.396,-0.5269,0.0886,2052
9,0.3062,-0.7434,-0.1462,0.3781,-0.4526,0.1017,2051
9,0.2822,-0.7083,-0.1353,0.3284,-0.3378,0.0933,2055
9,0.2751,-0.6909,-0.1421,0.3344,-0.2478,0.1301,2049
9,0.272,-0.6917,-0.1562,0.3179,-0.1858,0.1898,2043
9,0.2522,-0.6709,-0.1541,0.2964,-0.088,0.2199,2055
9,0.2681,-0.6675,-0.1663,0.2786,-0.0184,0.2392,2046
9,0.2871,-0.6843,-0.1919,0.2677,-0.0388,0.2694,2047
9,0.3169,-0.6938,-0.2124,0.2874,-0.0543,0.2915,2051
9,0.343,-0.7139,-0.2185,0.2834,-0.0784,0.3124,2052
9,0.3501,-0.7441,-0.24,0.2943,-0.1467,0.3432,2048
9,0.3728,-0.7729,-0.2656,0.3193,-0.2069,0.3887,2053
9,0.3877,-0.8162,-0.2842,0.3402,-0.2398,0.4247,2045
9,0.4243,-0.9146,-0.3167,0.4064,-0.2799,0.4856,2044
9,0.4116,-1.0291,-0.2764,0.4362,-0.214,0.5339,2061
9,0.4189,-1.1021,-0.2859,0.4595,-0.2196,0.5478,2053
9,0.4363,-1.1924,-0.2576,0.4987,-0.251,0.5899,2048
9,0.4578,-1.2349,-0.2058,0.4168,-0.2864,0.5777,2045
9,0.4915,-1.2786,-0.1687,0.3639,-0.352,0.6118,2051
9,0.4707,-1.302,-0.1211,0.3015,-0.3237,0.6387,2051
9,0.4954,-1.3362,-0.1328,0.2573,-0.3171,0.6462,2055
9,0.4385,-1.3728,-0.127,0.2525,-0.2234,0.6139,2045
9,0.415,-1.353,-0.1125,0.185,-0.1385,0.5075,2046
9,0.3672,-1.3032,-0.0366,0.0569,0.0531,0.3824,2054
9,0.2952,-1.2,0.0466,-0.0867,0.2764,0.2422,2054
9,0.2981,-1.1216,0.1084,-0.1935,0.4711,0.1389,2047
9,0.2837,-1.0488,0.1213,-0.3028,0.7188,0.0547,2057
9,0.313,-0.9978,0.0698,-0.3751,0.7793,-0.0055,2057
9,0.272,-1.0291,-0.0271,-0.4036,0.8211,-0.0337,2054
9,0.239,-1.0703,-0.106,-0.3888,0.9472,-0.0879,2058
9,0.2151,-1.1086,-0.1589,-0.3967,1.1207,-0.1578,2050
9,0.2161,-1.1421,-0.186,-0.4103,1.207,-0.2425,2049
9,0.2153,-1.1492,-0.2031,-0.459,1.217,-0.3662,2053
9,0.2368,-1.1409,-0.1946,-0.506,1.1954,-0.4895,2046
9,0.2419,-1.1372,-0.1755,-0.542,1.184,-0.5902,2057
9,0.248,-1.1172,-0.1589,-0.571,1.1524,-0.6719,2057
9,0.2061,-1.1052,-0.1404,-0.6051,1.1111,-0.7641,2054
9,0.1892,-1.0981,-0.1216,-0.5931,1.076,-0.8198,2054
9,0.1865,-1.093,-0.0928,-0.6086,1.0369,-0.8417,2050
9,0.1753,-1.0757,-0.0803,-0.6537,1.0112,-0.8656,2052
9,0.1694,-1.0691,-0.0618,-0.7011,1.0336,-0.8709,2049
9,0.1721,-1.0381,-0.0222,-0.7978,1.0626,-0.8921,2056
9,0.1721,-1.0037,-0.0195,-0.9032,1.0577,-0.8881,2051
9,0.1521,-0.9692,-0.0198,-0.9684,1.0796,-0.8982,2053
9,0.1562,-0.9307,-0.0098,-1.0512,1.154,-0.8923,2055
9,0.134,-0.8967,-0.0186,-1.1194,1.1973,-0.8998,2050
9,0.1313,-0.8618,-0.0408,-1.1583,1.2374,-0.8835,2047
9,0.1379,-0.8206,-0.0503,-1.1833,1.2838,-0.8736,2045
9,0.1375,-0.7949,-0.0745,-1.2019,1.3344,-0.8593,2052
10,0.1399,-0.7793,-0.0886,-1.22,1.3656,-0.8437,2055
10,0.136,-0.7681,-0.1118,-1.2451,1.3716,-0.8348,2049
10,0.1333,-0.7393,-0.1372,-1.2274,1.3553,-0.8384,2049
10,0.1516,-0.7346,-0.1648,-1.1949,1.315,-0.8285,2054
10,0.1494,-0.7351,-0.1748,-1.179,1.2591,-0.8249,2048
10,0.156,-0.7249,-0.1746,-1.156,1.1616,-0.8195,2053
10,0.1707,-0.7124,-0.1792,-1.1215,1.0401,-0.8056,2052
10,0.1748,-0.6948,-0.188,-1.0764,0.9224,-0.7825,2045
10,0.1863,-0.6958,-0.1995,-1.0322,0.7902,-0.7498,2052
10,0.187,-0.689,-0.1963,-0.9808,0.6554,-0.7072,2053
10,0.187,-0.6843,-0.2007,-0.9222,0.5321,-0.6622,2049
10,0.1992,-0.7031,-0.2041,-0.8451,0.4088,-0.6024,2053
10,0.2031,-0.7183,-0.2288,-0.7661,0.3056,-0.5452,2045
10,0.2192,-0.7473,-0.2461,-0.6557,0.224,-0.471,2051
10,0.2278,-0.7981,-0.251,-0.5401,0.1429,-0.4103,2053
10,0.2517,-0.8586,-0.2681,-0.4179,0.0642,-0.3248,2047
10,0.2764,-0.9229,-0.2966,-0.2752,-0.0197,-0.2328,2054
10,0.3193,-0.9927,-0.292,-0.1348,-0.1087,-0.1285,2051
10,0.356,-1.0383,-0.2913,0.0012,-0.2241,-0.0245,2052
10,0.387,-1.0752,-0.2717,0.1056,-0.3457,0.083,2053
10,0.4221,-1.084,-0.2349,0.1815,-0.4906,0.1856,2053
10,0.4363,-1.0847,-0.2151,0.2752,-0.6735,0.3011,2049
10,0.4453,-1.0901,-0.2146,0.4084,-0.8729,0.3863,2051
10,0.4709,-1.1646,-0.2373,0.5932,-1.0199,0.5164,2055
10,0.502,-1.2522,-0.2754,0.8257,-1.1589,0.6456,2048
10,0.4937,-1.3337,-0.2339,0.9584,-1.2027,0.7554,2049
10,0.4478,-1.3408,-0.0911,0.8921,-1.1371,0.8112,2043
10,0.3953,-1.2249,0.0698,0.7283,-1.0979,0.7739,2053
10,0.3716,-1.1069,0.2332,0.557,-1.0472,0.7094,2052
10,0.3921,-1.0315,0.2986,0.461,-1.0126,0.667,2052
10,0.4121,-1.009,0.3025,0.4084,-0.8264,0.6826,2049
10,0.4021,-1.0261,0.29,0.3798,-0.4939,0.6866,2051
10,0.3865,-1.0537,0.1934,0.3838,-0.2241,0.6807,2050
10,0.356,-1.0769,0.105,0.4059,-0.0703,0.5751,2052
10,0.3276,-1.1067,0.0322,0.4284,-0.0362,0.4293,2050
10,0.304,-1.1238,0.0032,0.4674,-0.1145,0.2567,2043
10,0.3638,-1.0979,0.0059,0.4685,-0.3739,0.1044,2048
10,0.408,-1.0771,0.0603,0.3936,-0.6926,-0.0076,2053
10,0.3945,-0.9976,0.0859,0.3128,-0.989,-0.0712,2052
10,0.3616,-0.908,0.0698,0.2261,-1.1754,-0.1236,2052
10,0.3096,-0.8396,0.0378,0.218,-1.3323,-0.1413,2047
10,0.2427,-0.7759,-0.0142,0.2783,-1.3294,-0.1561,2055
10,0.2114,-0.7258,-0.0554,0.3975,-1.2449,-0.1772,2050
10,0.2273,-0.7349,-0.0908,0.4935,-1.1517,-0.2072,2052
10,0.2349,-0.7332,-0.134,0.5568,-0.9937,-0.2281,2051
10,0.2834,-0.72,-0.1453,0.5936,-0.853,-0.2215,2049
10,0.3237,-0.7163,-0.1689,0.6396,-0.7854,-0.204,2048
10,0.3533,-0.7163,-0.1704,0.6749,-0.716,-0.173,2046
10,0.3867,-0.7197,-0.1531,0.6761,-0.6963,-0.1139,2052
10,0.3916,-0.7083,-0.1562,0.6645,-0.6658,-0.0655,2056
10,0.4041,-0.717,-0.1621,0.6592,-0.6497,0.008,2043
10,0.4067,-0.6973,-0.1448,0.6582,-0.646,0.0744,2052
10,0.3838,-0.6675,-0.1411,0.6525,-0.5995,0.1266,2052
10,0.366,-0.677,-0.1479,0.6648,-0.547,0.1617,2049
10,0.3574,-0.6792,-0.1404,0.6944,-0.4919,0.2207,2066
10,0.3225,-0.6802,-0.1362,0.6947,-0.3936,0.2577,2053
10,0.2993,-0.6833,-0.1226,0.6946,-0.3354,0.2919,2043
10,0.2908,-0.6995,-0.1223,0.6797,-0.2681,0.3228,2044
10,0.2708,-0.6943,-0.1086,0.6497,-0.2116,0.3494,2052
10,0.2764,-0.6858,-0.136,0.6116,-0.1621,0.3794,2053
10,0.2922,-0.6948,-0.1438,0.5983,-0.1172,0.4087,2048
10,0.2974,-0.689,-0.155,0.5829,-0.0981,0.4389,2050
10,0.3079,-0.7021,-0.1597,0.5781,-0.0977,0.4643,2054
10,0.3318,-0.7278,-0.187,0.5895,-0.1085,0.4998,2052
10,0.3474,-0.7634,-0.2158,0.6066,-0.1424,0.5311,2053
10,0.3667,-0.8118,-0.2385,0.6437,-0.1778,0.5541,2050
10,0.3945,-0.8938,-0.2646,0.6789,-0.1922,0.5738,2049
10,0.405,-0.97,-0.2598,0.6857,-0.2526,0.5946,2053
10,0.4233,-1.04,-0.2383,0.6763,-0.3064,0.6163,2052
10,0.429,-1.0811,-0.2231,0.6557,-0.3601,0.6377,2052
10,0.4187,-1.1074,-0.208,0.6384,-0.3979,0.6711,2047
10,0.426,-1.1006,-0.1777,0.6239,-0.428,0.7182,2052
10,0.4583,-1.0876,-0.1736,0.5887,-0.4193,0.7557,2047
10,0.4878,-1.0762,-0.1753,0.5558,-0.395,0.8051,2051
10,0.4988,-1.1265,-0.1912,0.5493,-0.3019,0.8256,2050
10,0.4895,-1.2393,-0.2405,0.5841,-0.243,0.872,2046
10,0.4524,-1.3098,-0.2727,0.5803,-0.1216,0.8489,2051
10,0.3889,-1.2876,-0.2458,0.4967,0.065,0.7244,2060
10,0.3181,-1.1589,-0.1208,0.3505,0.3157,0.5248,2045
10,0.2717,-1.0203,0.0295,0.1575,0.5345,0.3296,2053
10,0.2451,-0.9771,0.1133,0.0232,0.6742,0.196,2054
10,0.218,-1.0403,0.1279,-0.0714,0.9268,0.122,2055
10,0.1975,-1.1067,0.0781,-0.1538,1.2091,0.055,2051
10,0.1558,-1.2168,0.0083,-0.2679,1.3447,-0.0386,2050
10,0.1567,-1.3064,-0.041,-0.3461,1.4041,-0.1369,2040
10,0.1777,-1.375,-0.031,-0.412,1.4418,-0.2409,2038
10,0.2102,-1.4102,-0.0422,-0.4958,1.4165,-0.3549,2048
10,0.2427,-1.3987,-0.074,-0.5931,1.2884,-0.4775,2051
10,0.2607,-1.3801,-0.0615,-0.6858,1.1789,-0.6003,2055
10,0.2598,-1.3181,-0.0432,-0.8368,1.1147,-0.7211,2063
10,0.2427,-1.2524,-0.0195,-0.9558,1.0144,-0.8328,2058
10,0.2043,-1.1975,-0.0125,-1.0567,1.0098,-0.9288,2060
10,0.207,-1.1392,0.012,-1.1391,1.046,-0.9768,2061
10,0.1992,-1.0752,0.0081,-1.1966,1.0523,-1.007,2051
10,0.1836,-1.0391,-0.0098,-1.2549,1.1001,-1.0247,2056
10,0.186,-0.9944,-0.0173,-1.3182,1.1314,-1.0431,2052
10,0.1902,-0.9707,-0.0425,-1.3804,1.1597,-1.0595,2050
10,0.1812,-0.918,-0.0574,-1.4315,1.1778,-1.0712,2049
10,0.1748,-0.8748,-0.0649,-1.4716,1.2073,-1.0959,2049
10,0.1643,-0.8318,-0.0569,-1.509,1.2306,-1.0941,2049
10,0.1589,-0.7871,-0.0732,-1.5406,1.2383,-1.0983,2049
10,0.147,-0.7429,-0.0867,-1.548,1.2713,-1.1083,2054
11,0.1489,-0.7219,-0.1052,-1.5444,1.2916,-1.1136,2056
11,0.1345,-0.708,-0.1064,-1.527,1.3047,-1.1196,2050
11,0.1316,-0.6931,-0.1274,-1.4932,1.3082,-1.1188,2054
11,0.124,-0.6914,-0.1506,-1.4387,1.3159,-1.1352,2055
11,0.1274,-0.7014,-0.1707,-1.3884,1.2962,-1.1499,2049
11,0.1296,-0.708,-0.179,-1.337,1.2479,-1.152,2048
11,0.1558,-0.7104,-0.1895,-1.2744,1.1789,-1.1419,2055
11,0.1606,-0.7166,-0.197,-1.2043,1.103,-1.1239,2049
11,0.1787,-0.7263,-0.22,-1.1147,1.0104,-1.0974,2052
11,0.1863,-0.7393,-0.2192,-1.04,0.91,-1.0501,2054
11,0.2065,-0.7478,-0.2175,-0.952,0.7714,-1.0136,2051
11,0.2234,-0.7529,-0.2117,-0.8757,0.6115,-0.9644,2053
11,0.2251,-0.7715,-0.2205,-0.8035,0.4577,-0.8983,2050
11,0.2351,-0.7871,-0.2109,-0.7192,0.3116,-0.8383,2051
11,0.2373,-0.8127,-0.2266,-0.6272,0.179,-0.76,2046
11,0.2542,-0.8337,-0.2214,-0.5151,0.0649,-0.6685,2055
11,0.2507,-0.8672,-0.2297,-0.3999,-0.0181,-0.5815,2051
11,0.2712,-0.9172,-0.2505,-0.269,-0.0917,-0.4725,2045
11,0.2959,-0.9651,-0.2554,-0.1298,-0.1463,-0.3508,2054
11,0.3296,-1.0132,-0.259,0.0017,-0.2172,-0.2204,2049
11,0.3843,-1.0437,-0.2542,0.1378,-0.2939,-0.0783,2044
11,0.4163,-1.073,-0.2734,0.2645,-0.4168,0.0699,2050
11,0.4399,-1.0747,-0.238,0.3735,-0.5795,0.1963,2053
11,0.4475,-1.0532,-0.2202,0.4817,-0.7538,0.3207,2057
11,0.4568,-1.0554,-0.2156,0.5958,-0.9172,0.433,2055
11,0.4614,-1.0928,-0.2673,0.7767,-1.0712,0.553,2052
11,0.4944,-1.134,-0.3115,1.009,-1.2186,0.7006,2050
11,0.4841,-1.1729,-0.2783,1.1982,-1.3063,0.8448,2050
11,0.4626,-1.1719,-0.1575,1.1768,-1.2997,0.9224,2049
11,0.3926,-1.0898,-0.0427,1.1271,-1.2402,0.9455,2055
11,0.3386,-1.0178,0.0835,1.0168,-1.2211,0.9468,2052
11,0.2727,-0.9631,0.1384,0.9499,-1.1901,0.8878,2058
11,0.2993,-0.9102,0.1436,0.9692,-1.0657,0.9192,2049
11,0.3237,-0.9622,0.1172,0.999,-0.8015,0.9377,2044
11,0.3538,-1.0464,0.0845,1.068,-0.5088,0.9472,2055
11,0.3564,-1.1501,0.0483,1.0717,-0.3033,0.8989,2051
11,0.3516,-1.2402,0.0244,1.0041,-0.2099,0.8267,2051
11,0.3394,-1.2566,0.0288,0.9102,-0.2069,0.6901,2049
11,0.3467,-1.2397,0.0625,0.8144,-0.3697,0.5484,2047
11,0.3625,-1.1919,0.1121,0.6917,-0.616,0.4248,2047
11,0.3887,-1.1062,0.1326,0.565,-0.8716,0.3263,2054
11,0.3757,-1.0017,0.1328,0.4754,-1.0871,0.2579,2049
11,0.3525,-0.9084,0.1006,0.4201,-1.2304,0.2055,2054
11,0.3071,-0.8374,0.0693,0.4016,-1.2694,0.1653,2052
11,0.2705,-0.7861,0.0044,0.4243,-1.2937,0.1027,2054
11,0.2566,-0.7332,-0.0452,0.4775,-1.2267,0.0545,2046
11,0.2632,-0.7236,-0.1069,0.5249,-1.1507,0.0037,2053
11,0.2725,-0.7114,-0.1467,0.526,-1.0441,-0.027,2052
11,0.283,-0.675,-0.1658,0.5079,-0.921,-0.0621,2061
11,0.3379,-0.646,-0.2046,0.5372,-0.8898,-0.0651,2053
11,0.3789,-0.6416,-0.2036,0.6022,-0.864,-0.0429,2049
11,0.3838,-0.6458,-0.1956,0.5798,-0.7898,-0.0277,2048
11,0.408,-0.6233,-0.218,0.597,-0.8251,-0.004,2050
11,0.4292,-0.6421,-0.2271,0.6421,-0.8782,0.0459,2049
11,0.3914,-0.6052,-0.2092,0.6163,-0.7453,0.0455,2050
11,0.3875,-0.6426,-0.229,0.6568,-0.7339,0.1055,2051
11,0.3752,-0.6392,-0.1978,0.712,-0.6367,0.1724,2049
11,0.3662,-0.6438,-0.1738,0.7211,-0.5378,0.1811,2045
11,0.3462,-0.678,-0.1692,0.7381,-0.5012,0.22,2050
11,0.3335,-0.6838,-0.1274,0.6982,-0.3926,0.2112,2045
11,0.3391,-0.6851,-0.1111,0.6786,-0.3091,0.2312,2050
11,0.3408,-0.6833,-0.1118,0.6412,-0.2546,0.2537,2053
11,0.353,-0.6899,-0.1211,0.6244,-0.2249,0.2748,2051
11,0.3362,-0.7075,-0.1328,0.6095,-0.1847,0.2725,2052
11,0.355,-0.7385,-0.1538,0.5874,-0.1742,0.2795,2165
11,0.3467,-0.7896,-0.1663,0.5823,-0.1786,0.2954,2039
11,0.3542,-0.8127,-0.1865,0.5614,-0.1816,0.3035,2036
11,0.3611,-0.8528,-0.2053,0.5733,-0.1906,0.3116,2044
11,0.3657,-0.9097,-0.2007,0.5698,-0.1501,0.3131,2046
11,0.4006,-0.9868,-0.2009,0.5839,-0.1598,0.3374,2046
11,0.418,-1.0435,-0.1982,0.5673,-0.2023,0.3597,2050
11,0.4336,-1.094,-0.1892,0.534,-0.2168,0.3838,2045
11,0.4753,-1.1345,-0.1792,0.4821,-0.2543,0.4267,2046
11,0.458,-1.1504,-0.1519,0.4268,-0.2531,0.4521,2046
11,0.469,-1.1621,-0.1519,0.3446,-0.2603,0.4967,2054
11,0.47,-1.1663,-0.1377,0.3049,-0.2755,0.5474,2049
11,0.4753,-1.1736,-0.1785,0.3023,-0.2165,0.5854,2057
11,0.4543,-1.2463,-0.231,0.3542,-0.141,0.6309,2052
11,0.4561,-1.3191,-0.3054,0.3902,-0.0776,0.6544,2046
11,0.4116,-1.3574,-0.3054,0.3749,0.0649,0.6593,2048
11,0.3901,-1.2996,-0.2483,0.3149,0.2429,0.5892,2052
11,0.3147,-1.2136,-0.125,0.1948,0.4308,0.4947,2045
11,0.269,-1.1101,-0.0022,0.065,0.6814,0.3864,2048
11,0.2029,-1.0752,0.1238,-0.1105,1.0384,0.3251,2057
11,0.2141,-0.9941,0.1348,-0.2145,1.327,0.2808,2048
11,0.2068,-1.0181,0.1326,-0.3059,1.6102,0.2213,2049
11,0.2522,-1.0261,0.0913,-0.4249,1.697,0.1352,2052
11,0.2698,-1.0781,0.0483,-0.4992,1.7145,0.0418,2048
11,0.2781,-1.1399,0.0154,-0.5912,1.6733,-0.0708,2057
11,0.2964,-1.1602,-0.0444,-0.6383,1.5673,-0.2193,2057
11,0.2849,-1.189,-0.0911,-0.717,1.4014,-0.3557,2055
11,0.2732,-1.1868,-0.1064,-0.8134,1.2725,-0.5014,2053
11,0.2666,-1.1731,-0.1067,-0.914,1.1713,-0.6119,2061
11,0.2429,-1.1248,-0.0942,-0.9947,1.1006,-0.7155,2052
11,0.1863,-1.0662,-0.0874,-1.0415,1.0393,-0.8006,2052
11,0.155,-1.0374,-0.0757,-1.0271,1.1316,-0.8561,2049
11,0.1726,-1.0354,-0.0676,-1.0159,1.1212,-0.862,2048
11,0.1631,-1.001,-0.0647,-1.0487,1.1524,-0.9071,2053
11,0.1692,-1.0027,-0.0459,-1.0753,1.1965,-0.9167,2051
12,0.1904,-0.9827,-0.0225,-1.1567,1.231,-0.9357,2052
12,0.1975,-0.9558,-0.0093,-1.2399,1.2296,-0.9678,2055
12,0.2046,-0.9331,-0.0149,-1.3082,1.2122,-0.9626,2051
12,0.1936,-0.905,-0.0046,-1.3589,1.2379,-0.9535,2053
12,0.1846,-0.8721,-0.0046,-1.4138,1.2958,-0.9516,2046
12,0.1753,-0.8296,-0.0217,-1.4372,1.3099,-0.9561,2054
12,0.1609,-0.8018,-0.0527,-1.4249,1.3435,-0.954,2045
12,0.1697,-0.79,-0.0852,-1.4053,1.3741,-0.9411,2049
12,0.167,-0.7932,-0.1013,-1.3958,1.3716,-0.9311,2049
12,0.1506,-0.7883,-0.1301,-1.3844,1.3632,-0.922,2049
12,0.1416,-0.7822,-0.1658,-1.3545,1.3291,-0.9103,2054
12,0.1377,-0.7761,-0.1697,-1.2981,1.301,-0.9026,2047
12,0.1423,-0.7756,-0.2029,-1.2243,1.2818,-0.8842,2051
12,0.156,-0.7732,-0.2219,-1.1468,1.2403,-0.858,2052
12,0.1604,-0.7747,-0.241,-1.0469,1.191,-0.8259,2050
12,0.186,-0.7837,-0.238,-0.9677,1.0982,-0.805,2060
12,0.2051,-0.7983,-0.2339,-0.8865,0.9693,-0.7525,2046
12,0.2146,-0.8062,-0.2224,-0.8211,0.823,-0.7158,2049
12,0.2305,-0.7983,-0.2029,-0.7805,0.6565,-0.6685,2054
12,0.2163,-0.8018,-0.1792,-0.7417,0.503,-0.5955,2043
12,0.2273,-0.8054,-0.168,-0.6998,0.3686,-0.5418,2046
12,0.2202,-0.7981,-0.1643,-0.6496,0.2553,-0.4638,2057
12,0.2051,-0.8167,-0.1602,-0.5871,0.1911,-0.3863,2047
12,0.2124,-0.8423,-0.1611,-0.5086,0.1422,-0.3071,2057
12,0.2266,-0.8772,-0.177,-0.4168,0.1029,-0.222,2050
12,0.2375,-0.9241,-0.1926,-0.3227,0.0674,-0.1221,2054
12,0.2793,-0.9827,-0.2017,-0.2348,0.0334,-0.0196,2052
12,0.3313,-1.0242,-0.2236,-0.1226,-0.0321,0.0894,2050
12,0.356,-1.0696,-0.2371,-0.0032,-0.1413,0.1963,2049
12,0.385,-1.0896,-0.2334,0.1059,-0.2741,0.2959,2052
12,0.4133,-1.0969,-0.2229,0.2024,-0.4293,0.3984,2050
12,0.4358,-1.0872,-0.2112,0.295,-0.6079,0.5012,2053
12,0.4275,-1.0806,-0.2283,0.4065,-0.7477,0.5858,2051
12,0.4441,-1.1079,-0.2454,0.5721,-0.8969,0.6717,2050
12,0.4731,-1.1648,-0.2593,0.7617,-1.0697,0.7421,2053
12,0.4736,-1.2166,-0.2573,0.9305,-1.2133,0.8339,2047
12,0.4634,-1.2537,-0.1689,0.9925,-1.2567,0.8799,2051
12,0.4546,-1.1963,-0.0452,0.9222,-1.2697,0.8533,2049
12,0.4734,-1.0796,0.0386,0.7341,-1.4263,0.754,2054
12,0.5085,-0.9993,0.1897,0.5763,-1.3521,0.7344,2053
12,0.4507,-0.9006,0.3213,0.4336,-1.2135,0.6126,2055
12,0.3818,-0.8499,0.3062,0.4105,-1.1113,0.6087,2056
12,0.3918,-0.8591,0.2292,0.4931,-0.8296,0.6233,2048
12,0.3591,-0.9353,0.1165,0.5834,-0.6646,0.5651,2046
12,0.3289,-1.0342,-0.0049,0.6883,-0.3569,0.4754,2046
12,0.2749,-1.1353,-0.0688,0.73,-0.0325,0.3799,2046
12,0.2783,-1.165,-0.1145,0.7429,-0.0269,0.2068,2046
12,0.2996,-1.1677,-0.0771,0.7261,-0.1245,0.072,2052
12,0.3696,-1.1467,0.0034,0.6387,-0.4366,-0.0366,2051
12,0.4165,-1.0872,0.0369,0.5052,-0.8235,-0.1214,2053
12,0.3857,-0.9922,0.0583,0.3814,-1.0453,-0.1791,2051
12,0.3813,-0.9143,0.009,0.3349,-1.277,-0.212,2055
12,0.304,-0.8572,-0.0215,0.3438,-1.3141,-0.2466,2045
12,0.2739,-0.8237,-0.0583,0.384,-1.3292,-0.2784,2052
12,0.2561,-0.7888,-0.0574,0.3773,-1.2089,-0.3205,2054
12,0.2268,-0.7654,-0.0623,0.3645,-1.0311,-0.3574,2049
12,0.2603,-0.7354,-0.1104,0.3729,-0.9222,-0.3532,2047
12,0.2627,-0.7007,-0.1335,0.3702,-0.7873,-0.3356,2055
12,0.2786,-0.6802,-0.1543,0.3535,-0.6442,-0.3007,2050
12,0.3008,-0.6562,-0.1765,0.3477,-0.5498,-0.2416,2048
12,0.3242,-0.6365,-0.1885,0.3426,-0.4747,-0.1856,2049
12,0.3494,-0.634,-0.2097,0.3566,-0.4337,-0.1087,2055
12,0.3662,-0.6306,-0.2097,0.3787,-0.4257,-0.024,2055
12,0.377,-0.6514,-0.2334,0.4161,-0.4161,0.0707,2053
12,0.3638,-0.6648,-0.1978,0.4125,-0.4121,0.1361,2048
12,0.3308,-0.6768,-0.1921,0.4197,-0.4019,0.18,2054
12,0.3262,-0.6931,-0.1802,0.4366,-0.3725,0.2396,2051
12,0.2998,-0.6958,-0.1768,0.433,-0.3055,0.2879,2049
12,0.2966,-0.6865,-0.1487,0.4416,-0.2397,0.3341,2051
12,0.2971,-0.6958,-0.1389,0.4505,-0.1887,0.3824,2049
12,0.3159,-0.7043,-0.1399,0.4428,-0.1804,0.4255,2050
12,0.324,-0.7192,-0.146,0.4311,-0.1799,0.448,2051
12,0.335,-0.7393,-0.1599,0.4268,-0.2005,0.4726,2048
12,0.3447,-0.7729,-0.1643,0.4215,-0.1976,0.4911,2046
12,0.3513,-0.7981,-0.1731,0.4401,-0.2205,0.5212,2051
12,0.3743,-0.8379,-0.1943,0.4638,-0.2353,0.5522,2046
12,0.4026,-0.8674,-0.2068,0.4783,-0.241,0.5754,2052
12,0.4548,-0.917,-0.2273,0.5024,-0.2396,0.6159,2051
12,0.4976,-0.9807,-0.2314,0.5233,-0.2495,0.6612,2044
12,0.5186,-1.041,-0.218,0.5275,-0.3132,0.6813,2049
12,0.5388,-1.0972,-0.2083,0.5368,-0.3326,0.6901,2050
12,0.5869,-1.1165,-0.2131,0.5245,-0.5183,0.7008,2049
12,0.5632,-1.1248,-0.1797,0.4887,-0.5192,0.6802,2045
12,0.5664,-1.1006,-0.1343,0.4603,-0.492,0.6228,2055
12,0.5933,-1.0759,-0.1589,0.4437,-0.6201,0.6176,2044
12,0.4939,-1.1213,-0.1772,0.4947,-0.5004,0.6299,2052
12,0.4404,-1.1841,-0.1753,0.5638,-0.2693,0.6397,2044
12,0.4094,-1.2344,-0.2612,0.5948,-0.2047,0.6092,2036
12,0.4021,-1.2573,-0.2742,0.6703,-0.0475,0.5428,2045
12,0.3804,-1.2463,-0.1719,0.5726,0.2233,0.3887,2049
12,0.302,-1.126,-0.0369,0.4546,0.4835,0.216,2059
12,0.2522,-1.0908,0.0552,0.2871,0.6472,0.1437,2057
12,0.2188,-1.02,0.0994,0.1368,0.8729,0.0803,2060
12,0.1995,-1.0315,0.0962,0.0919,1.1625,0.0653,2052
12,0.1948,-1.0552,0.0247,0.006,1.336,0.0072,2054
12,0.1792,-1.1182,-0.0122,-0.0884,1.4565,-0.1021,2044
12,0.1948,-1.1421,-0.0615,-0.1642,1.4495,-0.2366,2051
12,0.2261,-1.1816,-0.0769,-0.2095,1.423,-0.3448,2051
12,0.2571,-1.2036,-0.0916,-0.2908,1.3089,-0.4541,2049
12,0.2856,-1.2202,-0.1072,-0.3906,1.1214,-0.5424,2057
12,0.2693,-1.2236,-0.126,-0.4983,0.9303,-0.6193,2054
12,0.249,-1.2134,-0.1204,-0.6092,0.8178,-0.6921,2053
12,0.2004,-1.1731,-0.0923,-0.7155,0.7457,-0.7428,2056
12,0.155,-1.1228,-0.0847,-0.7704,0.7688,-0.7871,2052
12,0.125,-1.0645,-0.0771,-0.803,0.8456,-0.817,2051
12,0.0999,-1.0066,-0.0762,-0.832,0.9574,-0.8328,2044
12,0.0972,-0.9534,-0.0696,-0.8508,1.1171,-0.842,2054
13,0.1167,-0.9165,-0.0708,-0.8979,1.2195,-0.8393,2049
13,0.1492,-0.8933,-0.0481,-0.9497,1.3011,-0.8231,2059
13,0.1831,-0.8713,-0.0591,-1.0142,1.3539,-0.8032,2047
13,0.1978,-0.8545,-0.0537,-1.0761,1.3423,-0.7907,2053
13,0.208,-0.8362,-0.075,-1.1344,1.3214,-0.777,2050
13,0.1882,-0.8159,-0.0791,-1.1826,1.2986,-0.779,2060
13,0.1794,-0.7952,-0.0999,-1.2123,1.2805,-0.7821,2053
13,0.1702,-0.7722,-0.1147,-1.1966,1.2627,-0.7716,2049
13,0.1689,-0.7678,-0.1267,-1.1856,1.2511,-0.7625,2050
13,0.1533,-0.7676,-0.1399,-1.1728,1.2548,-0.7646,2047
13,0.1348,-0.7703,-0.167,-1.1444,1.2516,-0.759,2049
13,0.1353,-0.7756,-0.1782,-1.0919,1.2521,-0.759,2050
13,0.1282,-0.7944,-0.1992,-1.0326,1.2402,-0.759,2049
13,0.1345,-0.7971,-0.2053,-0.9713,1.2062,-0.7601,2055
13,0.1504,-0.8113,-0.2075,-0.9094,1.1368,-0.7574,2050
13,0.1704,-0.8159,-0.2,-0.8616,1.0436,-0.7457,2046
13,0.1926,-0.8364,-0.2021,-0.8175,0.9215,-0.7155,2051
13,0.2029,-0.8362,-0.1819,-0.7841,0.7845,-0.6922,2052
13,0.2056,-0.8481,-0.1726,-0.7605,0.6309,-0.6573,2057
13,0.2043,-0.8425,-0.1587,-0.7243,0.4858,-0.6112,2054
13,0.2053,-0.8457,-0.1516,-0.6779,0.3594,-0.5649,2049
13,0.2036,-0.8523,-0.1584,-0.626,0.2456,-0.5155,2052
13,0.1914,-0.8699,-0.1553,-0.5731,0.1739,-0.4546,2055
13,0.2034,-0.8843,-0.1597,-0.5139,0.1426,-0.3819,2052
13,0.2239,-0.907,-0.1758,-0.4402,0.1175,-0.2996,2049
13,0.2329,-0.9539,-0.2031,-0.3448,0.1198,-0.2128,2057
13,0.2681,-1.0039,-0.218,-0.2476,0.1069,-0.1171,2049
13,0.3088,-1.0496,-0.2329,-0.1398,0.0756,-0.0157,2051
13,0.3523,-1.0886,-0.2546,-0.0293,-0.0036,0.096,2052
13,0.387,-1.1299,-0.2263,0.0583,-0.1172,0.1874,2050
13,0.4136,-1.1609,-0.2258,0.1205,-0.2894,0.2808,2055
13,0.4387,-1.1819,-0.2268,0.2172,-0.4827,0.381,2052
13,0.4607,-1.2046,-0.2498,0.3759,-0.6661,0.4974,2051
13,0.4834,-1.2734,-0.2517,0.5116,-0.8206,0.6305,2051
13,0.4932,-1.2935,-0.2471,0.6175,-0.9531,0.7522,2055
13,0.468,-1.2751,-0.1587,0.6468,-0.9951,0.8388,2053
13,0.4065,-1.207,-0.0469,0.6006,-0.9789,0.885,2058
13,0.3462,-1.0994,0.0393,0.5151,-0.9166,0.8737,2048
13,0.3059,-0.9639,0.0894,0.457,-0.7735,0.8602,2046
13,0.283,-0.8193,0.1624,0.3908,-0.5376,0.8525,2044
13,0.2661,-0.7483,0.1833,0.3818,-0.2579,0.8361,2051
13,0.2769,-0.7432,0.1492,0.4249,0.0134,0.8002,2047
13,0.2952,-0.812,0.0886,0.4686,0.2191,0.7197,2051
13,0.3218,-0.8953,0.0315,0.495,0.3329,0.6343,2044
13,0.3379,-0.9795,0.0012,0.483,0.3231,0.5047,2048
13,0.3674,-1.0352,-0.0137,0.4416,0.161,0.35,2052
13,0.3733,-1.0667,0.0444,0.3525,-0.053,0.2322,2050
13,0.3792,-1.0452,0.0999,0.2316,-0.3233,0.1272,2054
13,0.395,-1.0068,0.1272,0.1569,-0.6403,0.082,2055
13,0.3921,-0.9661,0.1223,0.1168,-0.883,0.0282,2050
13,0.3708,-0.9312,0.1055,0.1378,-0.9909,0.0025,2053
13,0.3142,-0.9138,0.075,0.1489,-0.9714,-0.0553,2043
13,0.292,-0.8933,0.0239,0.1855,-0.9367,-0.1076,2053
13,0.2703,-0.8596,-0.0042,0.2191,-0.8514,-0.1687,2062
13,0.2898,-0.8545,-0.0269,0.233,-0.7636,-0.2184,2049
13,0.2983,-0.8572,-0.0322,0.2432,-0.6657,-0.2342,2057
13,0.3193,-0.8337,-0.0488,0.2432,-0.5821,-0.2473,2048
13,0.3152,-0.8242,-0.0662,0.2412,-0.5305,-0.2337,2048
13,0.3154,-0.7988,-0.0798,0.2344,-0.4978,-0.2064,2053
13,0.3252,-0.7871,-0.0776,0.2484,-0.4595,-0.1653,2052
13,0.3352,-0.7676,-0.0793,0.2646,-0.4426,-0.1185,2056
13,0.3477,-0.7661,-0.0959,0.2811,-0.4231,-0.0811,2045
13,0.3601,-0.7625,-0.0974,0.2938,-0.4093,-0.0253,2048
13,0.3599,-0.7576,-0.1055,0.2962,-0.3948,0.0236,2051
13,0.355,-0.7458,-0.1091,0.3023,-0.3679,0.0686,2051
13,0.3481,-0.739,-0.1033,0.3092,-0.3164,0.1163,2051
13,0.3201,-0.7275,-0.0989,0.3099,-0.2601,0.1549,2053
13,0.3057,-0.7026,-0.105,0.3185,-0.1896,0.1875,2050
13,0.2993,-0.7002,-0.1084,0.3308,-0.119,0.2266,2056
13,0.2908,-0.6882,-0.1169,0.3472,-0.0519,0.2669,2055
13,0.2993,-0.6885,-0.1323,0.3707,0.014,0.3017,2042
13,0.3071,-0.7019,-0.1594,0.3976,0.0458,0.336,2050
13,0.3245,-0.7112,-0.1702,0.4169,0.0446,0.3707,2049
13,0.3357,-0.7314,-0.1865,0.4458,0.0426,0.398,2052
13,0.3557,-0.7512,-0.1912,0.4781,0.0165,0.434,2048
13,0.3586,-0.769,-0.189,0.495,-0.0296,0.4492,2051
13,0.3643,-0.7798,-0.208,0.5175,-0.0678,0.4733,2046
13,0.3733,-0.8005,-0.2119,0.5588,-0.0864,0.5052,2051
13,0.3792,-0.8237,-0.2085,0.5978,-0.087,0.5434,2050
13,0.3943,-0.8718,-0.2139,0.6434,-0.0856,0.5794,2052
13,0.4087,-0.9263,-0.2327,0.6834,-0.0782,0.6312,2048
13,0.4209,-0.9802,-0.2415,0.704,-0.0585,0.6745,2052
13,0.4182,-1.0234,-0.2346,0.7123,-0.0332,0.7006,2045
13,0.4299,-1.0469,-0.2261,0.7213,-0.0783,0.7236,2053
13,0.4482,-1.074,-0.2053,0.707,-0.0838,0.7572,2049
13,0.4548,-1.0837,-0.1716,0.683,-0.0675,0.7702,2057
13,0.4587,-1.0872,-0.1624,0.6568,-0.0796,0.7738,2055
13,0.4592,-1.1299,-0.1804,0.6666,-0.0929,0.7903,2045
13,0.4568,-1.1992,-0.2009,0.6624,-0.0234,0.7875,2051
13,0.447,-1.2786,-0.217,0.6737,0.0193,0.7791,2049
13,0.3882,-1.3269,-0.1965,0.6091,0.0867,0.7163,2043
13,0.3254,-1.2788,-0.0994,0.4827,0.2288,0.6112,2051
13,0.2693,-1.177,0.0029,0.3233,0.3944,0.459,2051
13,0.2104,-1.1345,0.0911,0.1631,0.5533,0.3422,2054
13,0.144,-1.1218,0.1736,-0.0049,0.8696,0.2209,2050
13,0.1689,-1.1086,0.1475,-0.1282,1.0218,0.131,2053
13,0.1694,-1.146,0.1228,-0.2662,1.1694,0.03,2046
13,0.1853,-1.1687,0.1016,-0.4087,1.2384,-0.0864,2049
13,0.1973,-1.2073,0.0747,-0.5072,1.2363,-0.1923,2050
13,0.2144,-1.2366,0.0327,-0.593,1.2138,-0.2916,2063
14,0.2358,-1.2485,0.0078,-0.6988,1.1591,-0.3838,2051
14,0.2402,-1.2205,-0.0156,-0.7995,1.0602,-0.4767,2058
14,0.239,-1.199,-0.0261,-0.9104,1.0228,-0.5798,2060
14,0.2466,-1.1448,-0.0344,-1.0242,0.9911,-0.6648,2056
14,0.2246,-1.0911,-0.0295,-1.1097,1.0164,-0.7618,2039
14,0.2095,-1.0342,-0.0339,-1.1516,1.0476,-0.8419,2051
14,0.1848,-1.01,-0.0359,-1.2026,1.074,-0.9136,2053
14,0.1765,-0.9832,-0.0505,-1.2354,1.1079,-0.9596,2058
14,0.1738,-0.9622,-0.0713,-1.2677,1.1417,-0.9907,2054
14,0.1672,-0.939,-0.0833,-1.2798,1.1629,-1.0071,2044
14,0.1692,-0.9048,-0.0928,-1.2794,1.1749,-1.017,2048
14,0.1741,-0.8801,-0.0945,-1.2885,1.1885,-1.0242,2048
14,0.1714,-0.8645,-0.0928,-1.3137,1.197,-1.0238,2051
14,0.1709,-0.8555,-0.0952,-1.3206,1.2017,-1.0199,2048
14,0.1672,-0.8289,-0.1064,-1.3205,1.1999,-1.0302,2053
14,0.1594,-0.8228,-0.1138,-1.2982,1.2045,-1.0349,2058
14,0.1636,-0.8215,-0.1206,-1.2733,1.2019,-1.0423,2049
14,0.167,-0.8245,-0.1372,-1.2464,1.1901,-1.04,2048
14,0.1604,-0.8286,-0.1438,-1.2038,1.1657,-1.0409,2049
14,0.1489,-0.8296,-0.1411,-1.1737,1.1483,-1.0299,2051
14,0.1562,-0.8311,-0.1509,-1.1451,1.1094,-1.0215,2049
14,0.1562,-0.8247,-0.157,-1.1147,1.0595,-1.0013,2051
14,0.1541,-0.8103,-0.1575,-1.081,1.011,-0.9754,2052
14,0.1599,-0.8018,-0.1646,-1.0368,0.9472,-0.9379,2050
14,0.1604,-0.7922,-0.1709,-0.989,0.8685,-0.8967,2056
14,0.1809,-0.7866,-0.1787,-0.9228,0.7835,-0.8538,2053
14,0.1909,-0.7986,-0.1917,-0.8544,0.6948,-0.7933,2041
14,0.2012,-0.8108,-0.1943,-0.7893,0.6072,-0.7264,2052
14,0.1921,-0.8059,-0.1931,-0.7296,0.514,-0.6677,2055
14,0.1904,-0.7961,-0.1924,-0.6819,0.4457,-0.6088,2052
14,0.2002,-0.7881,-0.1899,-0.62,0.3718,-0.5576,2055
14,0.2029,-0.7957,-0.1775,-0.545,0.2898,-0.4907,2054
14,0.2156,-0.8232,-0.1738,-0.4661,0.2168,-0.4103,2046
14,0.2234,-0.864,-0.1724,-0.3906,0.1674,-0.3205,2050
14,0.2319,-0.9055,-0.1794,-0.3117,0.1465,-0.2189,2054
14,0.2649,-0.9651,-0.1934,-0.2133,0.0902,-0.1157,2050
14,0.313,-1.012,-0.2358,-0.0649,-0.02,-0.0249,2047
14,0.3584,-1.0642,-0.2463,0.0734,-0.1418,0.0906,2050
14,0.3938,-1.0923,-0.2678,0.1936,-0.2605,0.2048,2073
14,0.4175,-1.0974,-0.2388,0.277,-0.3987,0.2935,2039
14,0.4153,-1.1033,-0.2124,0.3669,-0.5561,0.4014,2041
14,0.4121,-1.1228,-0.2336,0.5082,-0.714,0.4851,2044
14,0.4231,-1.1785,-0.248,0.6803,-0.8284,0.5866,2047
14,0.4419,-1.238,-0.2295,0.8899,-0.9323,0.7114,2047
14,0.4434,-1.2976,-0.1643,0.9255,-0.9725,0.8027,2051
14,0.4255,-1.2571,-0.0623,0.918,-0.9499,0.8656,2043
14,0.3948,-1.1892,0.0771,0.8537,-0.9051,0.8906,2048
14,0.3337,-1.0781,0.1985,0.6926,-0.8717,0.8919,2052
14,0.3137,-0.9324,0.262,0.5319,-0.7621,0.8842,2060
14,0.2947,-0.801,0.2761,0.4912,-0.5811,0.8966,2047
14,0.2908,-0.7771,0.2207,0.5738,-0.3569,0.891,2049
14,0.2878,-0.8599,0.134,0.6501,-0.1139,0.8227,2046
14,0.2986,-0.9722,0.0298,0.7395,0.0775,0.7364,2045
14,0.2979,-1.0688,-0.0251,0.7785,0.1308,0.596,2043
14,0.321,-1.1519,-0.051,0.7771,0.0131,0.4505,2049
14,0.3572,-1.1675,0.0024,0.7339,-0.2673,0.3223,2050
14,0.4016,-1.1377,0.0486,0.628,-0.6634,0.2209,2050
14,0.4229,-1.0801,0.1187,0.49,-1.0083,0.1509,2046
14,0.3984,-0.9915,0.1497,0.3852,-1.2456,0.112,2057
14,0.3669,-0.9092,0.123,0.3701,-1.4101,0.0995,2050
14,0.3054,-0.8489,0.0864,0.424,-1.4344,0.0716,2055
14,0.2478,-0.8442,0.0403,0.5139,-1.3496,0.0148,2051
14,0.2549,-0.8328,-0.0039,0.5747,-1.2745,-0.0265,2051
14,0.2749,-0.8335,-0.0459,0.611,-1.148,-0.0606,2049
14,0.3083,-0.8049,-0.0728,0.6039,-0.9853,-0.0874,2055
14,0.3328,-0.7991,-0.083,0.6074,-0.8564,-0.083,1997
14,0.3562,-0.7793,-0.0911,0.6003,-0.8214,-0.0591,2060
14,0.3643,-0.7773,-0.1062,0.5887,-0.775,-0.0234,2062
14,0.3782,-0.7588,-0.113,0.6106,-0.738,0.0164,2052
14,0.3936,-0.7429,-0.1196,0.6088,-0.7064,0.0578,2057
14,0.3721,-0.7449,-0.1362,0.5987,-0.6695,0.0803,2059
14,0.3779,-0.7498,-0.1375,0.6408,-0.6686,0.1257,2053
14,0.3716,-0.7244,-0.1116,0.6249,-0.5948,0.1522,2053
14,0.3472,-0.7087,-0.1123,0.5996,-0.55,0.1617,2054
14,0.3289,-0.6887,-0.1162,0.59,-0.5003,0.1756,2049
14,0.2915,-0.6741,-0.106,0.5838,-0.4123,0.195,2051
14,0.2898,-0.6729,-0.0999,0.5698,-0.3358,0.2149,2049
14,0.2893,-0.6711,-0.095,0.5512,-0.2759,0.2389,2049
14,0.2847,-0.666,-0.0981,0.512,-0.206,0.2472,2056
14,0.2881,-0.6675,-0.1025,0.4731,-0.1714,0.2615,2051
14,0.2981,-0.6667,-0.1235,0.4625,-0.1553,0.2898,2054
14,0.3137,-0.6802,-0.1514,0.4743,-0.155,0.3293,2053
14,0.3335,-0.6899,-0.1926,0.4963,-0.1388,0.3542,2065
14,0.332,-0.7134,-0.2129,0.4987,-0.1188,0.3812,2050
14,0.3596,-0.7686,-0.2327,0.5469,-0.1393,0.4103,2052
14,0.3738,-0.8198,-0.2571,0.5809,-0.1629,0.4373,2046
14,0.4053,-0.8933,-0.2681,0.6038,-0.1855,0.4613,2050
14,0.4302,-0.9783,-0.2632,0.6196,-0.234,0.4751,2052
14,0.4377,-1.0427,-0.2554,0.6078,-0.2737,0.5,2050
14,0.4358,-1.0764,-0.229,0.5982,-0.3196,0.5309,2048
14,0.4482,-1.0864,-0.2087,0.5765,-0.3597,0.5817,2045
14,0.4392,-1.0798,-0.189,0.5484,-0.3394,0.6124,2051
14,0.4553,-1.0708,-0.1736,0.5252,-0.3088,0.6596,2050
14,0.4355,-1.1182,-0.1726,0.5076,-0.2549,0.6983,2050
14,0.4387,-1.2231,-0.2009,0.5401,-0.1842,0.7256,2056
14,0.3921,-1.3252,-0.2163,0.5267,-0.0091,0.709,2049
14,0.3311,-1.3906,-0.1741,0.4304,0.172,0.6424,2040
14,0.3005,-1.3687,-0.0735,0.2778,0.336,0.5441,2054
14,0.2734,-1.3245,0.0322,0.0783,0.4907,0.4508,2049
14,0.2483,-1.2456,0.125,-0.1313,0.6669,0.3619,2048
14,0.2244,-1.1245,0.175,-0.3261,0.9696,0.2755,2043
14,0.2217,-1.0247,0.21,-0.4521,1.2431,0.1985,2048
14,0.2727,-0.9878,0.1655,-0.5498,1.3181,0.1377,2051
14,0.2559,-1.0549,0.1008,-0.6169,1.3882,0.1056,2058
14,0.2507,-1.1008,0.0344,-0.6734,1.5366,0.0174,2054
