Timestamp,Ax,Ay,Az,Rx,Ry,Rz,HR_value
0,-0.3602,0.0969,0.8204,-0.5091,1.5688,0.1089,177
0,-0.3612,0.102,0.8591,-0.5091,1.5688,0.1089,177
0,-0.3969,0.0898,0.8602,-0.5265,1.5917,0.1155,177
0,-0.4102,0.0408,0.8806,-0.5647,1.6179,0.1198,177
0,-0.4102,0.0408,0.8806,-0.5887,1.655,0.1242,177
0,-0.4203,0.0316,0.9387,-0.5974,1.6953,0.1308,177
0,-0.4571,0.0173,0.9479,-0.6051,1.7487,0.1362,177
0,-0.4734,0.001,0.9438,-0.5952,1.8098,0.1461,177
0,-0.5071,-0.0051,0.9163,-0.5757,1.8741,0.1591,177
0,-0.5234,0.0061,0.8877,-0.5341,1.9351,0.1744,177
0,-0.552,0.0388,0.8541,-0.4862,2.0114,0.1907,177
0,-0.5796,0.0898,0.8214,-0.471,2.0835,0.2016,177
0,-0.6439,0.1367,0.7622,-0.471,2.0835,0.2016,177
0,-0.6867,0.1561,0.7306,-0.5091,2.1358,0.2159,177
0,-0.6867,0.1561,0.7306,-0.5679,2.1707,0.2245,177
0,-0.7265,0.1857,0.704,-0.6007,2.1947,0.2321,177
0,-0.7918,0.2234,0.6224,-0.6629,2.198,0.2409,177
0,-0.8275,0.2285,0.4642,-0.871,2.1674,0.2388,177
0,-0.8061,0.2388,0.4,-0.9769,2.1358,0.2518,177
0,-0.7898,0.2092,0.2632,-1.1066,2.1096,0.2649,177
0,-0.801,0.203,0.2632,-1.2386,2.0944,0.2888,177
0,-0.8387,0.2112,0.3122,-1.3769,2.0835,0.3227,177
0,-0.9377,0.153,0.3846,-1.5416,2.0704,0.3619,177
0,-1.0031,0.1153,0.3683,-1.6833,2.0595,0.4034,177
0,-1.0418,0.1,0.3214,-1.6833,2.0595,0.4034,177
0,-1.0928,0.105,0.2408,-1.7552,2.0497,0.4382,177
0,-1.0928,0.105,0.2408,-1.788,2.0213,0.4666,177
0,-1.1867,0.1316,0.0908,-1.8305,1.9494,0.4775,177
0,-1.199,0.1163,0.0295,-1.9232,1.8359,0.4906,177
0,-1.1847,0.0898,-0.0295,-2.0322,1.6932,0.5135,177
0,-1.1816,0.0643,-0.0928,-2.1184,1.5677,0.5287,177
0,-1.0836,-0.0081,-0.1204,-2.1903,1.4587,0.5528,177
0,-1.0286,-0.051,-0.1102,-2.2491,1.3704,0.581,177
0,-0.9867,-0.0857,-0.1183,-2.2491,1.3704,0.581,177
0,-0.9173,-0.0969,-0.1132,-2.2546,1.3029,0.6138,177
0,-0.8704,-0.1071,-0.1112,-2.223,1.2691,0.6465,177
0,-0.8704,-0.1071,-0.1112,-2.21,1.2352,0.6825,177
0,-0.852,-0.1224,-0.1296,-2.2449,1.2069,0.7108,177
0,-0.8387,-0.1357,-0.1489,-2.2569,1.197,0.7457,177
0,-0.8163,-0.1418,-0.1663,-2.2569,1.1905,0.7762,177
0,-0.8224,-0.1714,-0.201,-2.3015,1.2014,0.8078,177
0,-0.8224,-0.1979,-0.2142,-2.3168,1.2058,0.8285,177
0,-0.853,-0.2092,-0.2653,-2.3168,1.2157,0.8514,177
0,-0.8694,-0.1928,-0.2755,-2.3124,1.2145,0.8809,177
0,-0.8837,-0.1775,-0.2806,-2.3124,1.2145,0.8809,177
0,-0.9061,-0.1785,-0.3255,-2.3561,1.2014,0.9136,177
0,-0.9061,-0.1785,-0.3255,-2.3844,1.2003,0.9441,177
0,-0.9694,-0.0918,-0.3102,-2.3462,1.2037,0.9725,177
0,-0.999,-0.0826,-0.2908,-2.404,1.1741,0.9954,177
0,-1.0612,-0.1143,-0.3,-2.5566,1.148,0.9954,177
0,-1.0632,-0.1632,-0.2551,-2.6787,1.1382,0.9528,177
0,-1.3336,-0.2755,-0.3214,-2.7649,1.1392,0.8874,177
0,-1.2092,-0.3898,-0.2632,-2.7474,0.9278,0.8929,177
0,-1.3571,-0.3367,-0.3224,-2.6297,0.9246,0.8384,177
0,-1.3571,-0.3367,-0.3224,-2.6297,0.9246,0.8384,177
0,-1.3653,-0.2581,-0.2704,-2.4782,0.8024,0.8187,177
0,-1.3489,-0.2326,-0.2449,-2.4171,0.7272,0.8012,177
0,-1.4102,-0.3163,-0.2061,-2.4269,0.5767,0.7686,177
0,-1.3612,-0.3959,-0.1694,-2.4629,0.4153,0.7424,177
0,-1.3224,-0.5326,-0.2632,-2.3441,0.3848,0.664,177
0,-1.2551,-0.4877,-0.2265,-2.0572,0.2583,0.6857,177
0,-1.2234,-0.3193,-0.1255,-1.8437,0.1123,0.809,177
0,-1.1204,-0.249,-0.1214,-1.8273,0.0326,0.8601,177
0,-1.0734,-0.2592,-0.0826,-1.8273,0.0326,0.8601,177
0,-1.0418,-0.2285,-0.0622,-1.8502,0.0087,0.8929,177
0,-1.0418,-0.2285,-0.0622,-1.7847,-0.0294,0.9179,177
0,-1.0224,-0.1979,-0.0306,-1.6757,-0.0566,0.9397,177
0,-0.9724,-0.1326,0.052,-1.5808,-0.0883,0.9975,177
0,-0.9551,0.1122,0.1489,-1.5645,-0.037,1.0389,177
0,-0.9633,0.051,0.002,-1.6942,0.085,0.8744,177
0,-0.9408,-0.0755,-0.0255,-1.8174,0.1123,0.7174,177
0,-0.9367,-0.1082,-0.0948,-1.8207,0.1831,0.6476,177
0,-0.9153,-0.1082,-0.1153,-1.7804,0.2245,0.5898,177
0,-0.8806,-0.1214,-0.1071,-1.7804,0.2245,0.5898,177
0,-0.8336,-0.1867,-0.1194,-1.7487,0.2256,0.5604,177
0,-0.8336,-0.1867,-0.1194,-1.7302,0.2627,0.5124,177
0,-0.8122,-0.2122,-0.1214,-1.6974,0.2987,0.4775,177
0,-0.7918,-0.2459,-0.102,-1.6474,0.3227,0.4601,177
0,-0.7602,-0.2632,-0.0918,-1.5787,0.3521,0.4393,177
0,-0.7704,-0.3357,-0.0775,-1.4914,0.412,0.3761,177
0,-0.7643,-0.3704,-0.0673,-1.3607,0.4458,0.351,177
0,-0.7745,-0.3796,-0.0377,-1.2363,0.4492,0.387,177
0,-0.8418,-0.4285,-0.0418,-1.1043,0.4906,0.3663,177
0,-0.8939,-0.4561,-0.0561,-1.1043,0.4906,0.3663,177
0,-0.9642,-0.5826,-0.0316,-0.9267,0.5418,0.2998,177
0,-0.9642,-0.5826,-0.0316,-0.7086,0.5582,0.2649,177
0,-1.0357,-0.4734,0.004,-0.4841,0.5582,0.3128,177
0,-1.1949,-0.3887,0.0316,-0.2747,0.556,0.35,177
0,-1.2714,-0.3439,0.0765,-0.0675,0.5145,0.3674,177
0,-1.2898,-0.2336,0.1581,0.1123,0.4753,0.3674,177
0,-1.3091,-0.1612,0.0806,0.2016,0.4992,0.3205,177
0,-1.2795,-0.1337,0.0336,0.2659,0.4687,0.3019,177
0,-1.1949,-0.0877,-0.004,0.3128,0.4317,0.3314,177
0,-1.0948,-0.0153,-0.0234,0.3128,0.4317,0.3314,177
0,-1.0948,-0.0153,-0.0234,0.3838,0.3815,0.3477,177
0,-0.8898,0.0928,-0.052,0.4404,0.3193,0.3281,177
0,-0.7949,0.1316,-0.051,0.4633,0.2605,0.2768,177
0,-0.7224,0.1091,-0.0204,0.495,0.2093,0.1972,177
0,-0.6663,0.1337,0.0234,0.5309,0.2049,0.2005,177
0,-0.6091,0.1938,0.1041,0.532,0.2169,0.2136,177
0,-0.6041,0.2367,0.1306,0.508,0.2529,0.2245,177
0,-0.6091,0.2449,0.1683,0.4895,0.3085,0.2409,177
0,-0.6724,0.2224,0.1703,0.4175,0.3804,0.255,177
0,-0.6979,0.3265,0.1459,0.4175,0.3804,0.255,177
0,-0.6979,0.3265,0.1459,0.3815,0.4677,0.2539,177
0,-0.803,0.2795,0.203,0.2966,0.5429,0.2867,177
0,-0.7724,0.2632,0.1,0.3019,0.6726,0.2922,177
0,-0.9745,0.3224,-0.0112,0.4197,0.8111,0.3008,177
0,-1.0326,0.3694,0.0428,0.4469,0.8558,0.2768,177
0,-1.1316,0.3612,-0.0132,0.3368,0.8819,0.2583,177
1,-1.2612,0.4092,-0.05,0.2823,0.8983,0.2333,177
1,-1.2531,0.4244,-0.0816,0.2344,0.9005,0.1635,177
1,-1.2755,0.4612,-0.1061,0.1766,0.871,0.1242,177
1,-1.2786,0.4642,-0.1357,0.1766,0.871,0.1242,177
1,-1.3143,0.4296,-0.303,0.0784,0.8439,0.0774,177
1,-1.3143,0.4296,-0.303,0.0065,0.834,0.0337,177
1,-1.3387,0.5714,-0.1735,0.025,0.8285,0.0043,177
1,-1.2979,0.4949,-0.2224,-0.182,0.7327,-0.0839,177
1,-1.2918,0.5153,-0.2724,-0.339,0.6432,-0.1035,177
1,-1.3132,0.5143,-0.2847,-0.4382,0.6007,-0.1667,177
1,-1.2826,0.4551,-0.2643,-0.5887,0.5047,-0.2453,177
1,-1.2479,0.3602,-0.3132,-0.7827,0.3935,-0.3128,177
1,-1.1173,0.0948,-0.3204,-0.7827,0.3935,-0.3128,177
1,-1.0357,0.0183,-0.2867,-0.8918,0.2725,-0.3663,177
1,-1.0357,0.0183,-0.2867,-0.8798,0.1776,-0.3848,177
1,-0.9551,-0.0459,-0.2643,-0.8819,0.1253,-0.4,177
1,-0.9438,-0.0948,-0.2816,-0.9158,0.1253,-0.3641,177
1,-0.8071,-0.204,-0.2867,-0.9202,0.0217,-0.2409,177
1,-0.8255,-0.2867,-0.3306,-0.9321,-0.024,-0.0795,177
1,-0.8387,-0.1632,-0.3091,-0.6911,0.0162,0.0097,177
1,-0.8612,-0.1489,-0.3316,-0.5102,-0.012,0.1396,177
1,-0.8224,-0.1224,-0.2898,-0.4677,-0.049,0.2409,177
1,-0.8612,-0.102,-0.2734,-0.4349,-0.036,0.3107,177
1,-0.8775,0.0122,-0.2,-0.3674,-0.0185,0.3674,177
1,-0.8745,0.0939,-0.1459,-0.3674,-0.0185,0.3674,177
1,-0.8949,0.1735,-0.1398,-0.3161,-0.0043,0.4109,177
1,-0.8949,0.1735,-0.1398,-0.3292,0.0174,0.4469,177
1,-0.9255,0.2397,-0.1234,-0.399,0.0555,0.4643,177
1,-0.9918,0.2724,-0.1541,-0.5353,0.0992,0.4307,177
1,-1.0347,0.3704,-0.1806,-0.6367,0.1493,0.3717,177
1,-1.0724,0.3255,-0.2602,-0.7773,0.1602,0.3052,177
1,-1.1439,0.3296,-0.3683,-0.8514,0.1537,0.2159,177
1,-1.1642,0.352,-0.3949,-0.9059,0.1188,0.1308,177
1,-1.1642,0.352,-0.4102,-1.0051,0.0566,0.0402,177
1,-1.1489,0.3387,-0.4183,-1.0051,0.0566,0.0402,177
1,-1.1173,0.2612,-0.3898,-1.1404,-0.0065,0.0,177
1,-1.1173,0.2612,-0.3898,-1.2777,-0.061,-0.0523,177
1,-1.1173,0.2183,-0.3612,-1.3792,-0.1003,-0.0992,177
1,-1.1194,0.1714,-0.3367,-1.4576,-0.1329,-0.1362,177
1,-1.1796,0.0989,-0.3041,-1.5133,-0.1493,-0.181,177
1,-1.2234,0.0755,-0.2959,-1.5514,-0.1766,-0.2245,177
1,-1.2531,0.0234,-0.2979,-1.5972,-0.1984,-0.2834,177
1,-1.2397,-0.0591,-0.3041,-1.6266,-0.2268,-0.351,177
1,-1.2101,-0.1765,-0.3336,-1.6266,-0.2268,-0.351,177
1,-1.2101,-0.1765,-0.3336,-1.5972,-0.2562,-0.4284,177
1,-1.1459,-0.251,-0.3816,-1.5328,-0.2779,-0.5091,177
1,-1.1459,-0.251,-0.3816,-1.4893,-0.2932,-0.5833,177
1,-1.0826,-0.303,-0.3989,-1.4587,-0.351,-0.6291,177
1,-1.0092,-0.3245,-0.402,-1.4544,-0.4687,-0.6213,177
1,-0.9796,-0.3418,-0.3857,-1.3181,-0.5156,-0.6072,177
1,-0.901,-0.3459,-0.3418,-1.172,-0.5723,-0.544,177
1,-0.8489,-0.3643,-0.2755,-1.0618,-0.5877,-0.5015,177
1,-0.8387,-0.35,-0.251,-0.9746,-0.6039,-0.4677,177
1,-0.8173,-0.3448,-0.201,-0.8689,-0.628,-0.4328,177
1,-0.8173,-0.3448,-0.201,-0.8689,-0.628,-0.4328,177
1,-0.8234,-0.3459,-0.1755,-0.7806,-0.6148,-0.4143,177
1,-0.8245,-0.3316,-0.1387,-0.6791,-0.5931,-0.3946,177
1,-0.8091,-0.3306,-0.1214,-0.6007,-0.5757,-0.3717,177
1,-0.8081,-0.3286,-0.102,-0.5353,-0.545,-0.3477,177
1,-0.8214,-0.3132,-0.0643,-0.4655,-0.5091,-0.338,177
1,-0.8326,-0.3255,-0.0336,-0.4034,-0.4992,-0.3314,177
1,-0.8326,-0.3745,-0.0214,-0.3412,-0.4982,-0.3172,177
1,-0.8173,-0.4203,-0.0193,-0.2256,-0.4992,-0.2878,177
1,-0.7153,-0.5816,0.0459,-0.0435,-0.4895,-0.2562,177
1,-0.6785,-0.5418,0.0031,-0.0435,-0.4895,-0.2562,177
1,-0.6785,-0.5418,0.0031,0.1962,-0.3891,-0.2453,177
1,-0.6255,-0.5541,-0.0102,0.4034,-0.2638,-0.2245,177
1,-0.5398,-0.4867,-0.0408,0.5789,-0.1558,-0.2125,177
1,-0.4918,-0.4734,-0.052,0.7228,-0.0282,-0.1919,177
1,-0.4775,-0.4571,-0.0714,0.8144,0.0664,-0.1896,177
1,-0.4642,-0.4275,-0.0887,0.8787,0.1787,-0.2878,177
1,-0.551,-0.5112,-0.1245,0.8939,0.2823,-0.5211,177
1,-0.7459,-0.6398,-0.1592,0.9582,0.375,-0.8024,177
1,-0.6867,-0.6091,-0.1826,1.0368,0.4469,-0.9714,177
1,-0.6816,-1.3326,-0.101,1.0368,0.4469,-0.9714,177
1,-0.9571,-0.5816,-0.2734,1.2766,0.424,-0.8264,177
1,-0.9571,-0.5816,-0.2734,1.9374,0.3804,0.0708,177
1,-1.1245,-0.352,-0.353,2.9034,0.2834,0.2409,177
1,-1.0,-0.0673,0.2163,3.7548,0.0664,0.3085,177
1,-1.1969,-0.1703,0.001,2.6428,0.2899,0.314,177
1,-1.3051,-0.0469,-0.0887,2.5959,0.3771,0.4164,177
1,-1.2734,0.0745,-0.15,2.7638,0.4012,0.5156,177
1,-1.2142,0.1306,-0.053,2.9906,0.4469,0.5898,177
1,-1.0081,0.2265,-0.2265,2.9906,0.4469,0.5898,177
1,-1.1703,0.8091,-0.4551,3.0102,0.4906,0.9092,177
1,-1.1703,0.8091,-0.4551,2.8172,0.5189,1.4227,177
1,-0.9551,0.9745,0.1744,3.5074,0.5647,1.3889,177
1,-0.7836,0.8234,-0.8898,3.4049,0.7806,0.7457,177
1,-0.6642,1.1041,-0.1173,2.6537,0.4382,0.5908,177
1,-0.6714,1.1857,0.1857,2.2415,0.2966,0.8689,177
1,-0.6867,1.2336,-0.1571,1.8098,0.7893,1.0238,177
1,-0.8245,1.1163,-0.0122,1.6789,0.6312,0.6454,177
1,-0.8122,1.3245,-0.2397,1.644,0.5484,0.2802,177
1,-0.8612,1.549,-0.1183,1.644,0.5484,0.2802,177
1,-0.8612,1.549,-0.1183,1.4282,0.7348,0.3554,177
1,-0.85,1.4785,-0.1673,0.8176,0.7926,0.3739,177
1,-1.0816,1.2745,-0.3306,0.2966,0.8373,0.2976,177
1,-1.1132,1.2326,-0.2857,-0.0076,0.7522,0.2398,177
1,-1.1735,1.1826,-0.254,-0.3325,0.702,0.2201,177
1,-1.2622,0.8663,-0.2479,-0.7108,0.6508,0.1526,177
1,-1.2101,0.8245,-0.2204,-0.9256,0.5593,0.0349,177
1,-1.2071,0.8051,-0.1887,-1.0314,0.5179,-0.0141,177
1,-1.1735,0.7336,-0.2051,-1.2418,0.4807,-0.0523,177
1,-1.101,0.5612,-0.2786,-1.2418,0.4807,-0.0523,177
1,-1.101,0.5612,-0.2786,-1.437,0.4568,-0.0883,177
1,-1.0663,0.4938,-0.2836,-1.5591,0.4295,-0.0795,177
1,-1.0388,0.4122,-0.3275,-1.6615,0.4143,-0.0784,177
1,-0.9888,0.3091,-0.3785,-1.6812,0.3935,-0.0969,177
1,-1.0388,0.501,-0.4071,-1.6102,0.3695,-0.1482,177
1,-1.0255,0.5051,-0.1204,-1.5448,0.2954,-0.2638,177
2,-0.8694,0.2857,-0.3775,-1.8327,0.1798,-0.2725,177
2,-0.8908,0.2142,-0.4163,-1.8403,0.193,-0.2147,177
2,-0.9469,0.2857,-0.3326,-1.6135,0.23,-0.2507,177
2,-0.9755,0.355,-0.3214,-1.6135,0.23,-0.2507,177
2,-1.0,0.3632,-0.2734,-1.582,0.1995,-0.4164,177
2,-1.0,0.3632,-0.2734,-1.7096,0.11,-0.5112,177
2,-0.9847,0.2745,-0.2816,-1.9166,0.0523,-0.5898,177
2,-0.9285,0.1571,-0.2765,-2.0879,-0.0032,-0.6476,177
2,-0.8989,0.0969,-0.2795,-2.1696,-0.0217,-0.6236,177
2,-0.8418,-0.0388,-0.2949,-2.2306,0.0011,-0.5625,177
2,-0.8448,-0.0755,-0.3193,-2.2863,0.074,-0.508,177
2,-0.8061,-0.0887,-0.3306,-2.4193,0.1482,-0.4481,177
2,-0.9571,-0.0939,-0.4398,-2.4193,0.1482,-0.4481,177
2,-0.8408,-0.3204,-0.5898,-2.6003,0.2245,-0.4568,177
2,-0.9235,-0.3193,-0.5684,-2.6079,0.267,-0.3935,177
2,-0.9235,-0.3193,-0.5684,-2.4585,0.3063,-0.085,177
2,-1.002,-0.2836,-0.551,-2.296,0.3193,0.0043,177
2,-1.0224,-0.3061,-0.6265,-2.0812,0.1537,0.074,177
2,-1.0388,-0.3245,-0.601,-1.9122,0.0643,0.1635,177
2,-1.0602,-0.3163,-0.6143,-1.7836,-0.025,0.1919,177
2,-1.05,-0.2449,-0.5541,-1.6419,-0.1112,0.2104,177
2,-1.0479,-0.1908,-0.5265,-1.5274,-0.1515,0.2136,177
2,-1.051,-0.1,-0.4734,-1.4261,-0.2039,0.2169,177
2,-1.0183,-0.0357,-0.4296,-1.4456,-0.2388,0.2159,177
2,-1.0071,-0.0173,-0.4061,-1.4456,-0.2388,0.2159,177
2,-1.0061,0.0224,-0.3826,-1.4904,-0.2464,0.1995,177
2,-1.0061,0.0224,-0.3826,-1.4969,-0.2573,0.1776,177
2,-1.004,0.05,-0.351,-1.523,-0.2737,0.1493,177
2,-1.0051,0.0581,-0.3448,-1.5743,-0.2943,0.1079,177
2,-1.0234,0.0806,-0.3541,-1.6125,-0.3151,0.0599,177
2,-1.0336,0.0908,-0.3377,-1.6637,-0.3445,0.0087,177
2,-1.0255,0.0755,-0.3275,-1.7531,-0.3848,-0.0479,177
2,-1.0245,-0.004,-0.3541,-1.8698,-0.4077,-0.1057,177
2,-1.0367,-0.0449,-0.3694,-1.9374,-0.4197,-0.1591,177
2,-1.0857,-0.0684,-0.3724,-1.9374,-0.4197,-0.1591,177
2,-1.2306,-0.1877,-0.4041,-1.969,-0.4328,-0.2071,177
2,-1.2306,-0.1877,-0.4041,-2.0158,-0.4601,-0.2605,177
2,-1.3316,-0.1969,-0.4194,-2.0061,-0.4971,-0.3151,177
2,-1.4357,-0.1735,-0.4051,-1.9765,-0.544,-0.387,177
2,-1.549,-0.1581,-0.3775,-2.0192,-0.6106,-0.4698,177
2,-1.4888,-0.3367,-0.2847,-2.1173,-0.702,-0.569,177
2,-1.4622,-0.4194,-0.2183,-2.1936,-0.7359,-0.6562,177
2,-1.4612,-0.5398,-0.1357,-2.1838,-0.7337,-0.7031,177
2,-1.5214,-1.0092,0.0459,-2.1838,-0.7337,-0.7031,177
2,-1.2734,-1.2122,0.1132,-2.1009,-0.7249,-0.6606,177
2,-1.0479,-1.1765,0.2204,-1.7346,-0.8199,-0.5789,177
2,-1.0479,-1.1765,0.2204,-0.9517,-0.8775,-0.5221,177
2,-0.8632,-0.853,0.3673,-0.3859,-0.7359,-0.3891,177
2,-0.5775,-0.6837,0.0388,-0.3445,-0.738,-0.4807,177
2,-0.4826,-0.6194,0.1744,0.0631,-0.7424,-0.6388,177
2,-0.4244,-0.4285,0.0092,0.3073,-0.5908,-0.6432,177
2,-0.3775,-0.4796,-0.0245,0.1417,-0.6388,-0.5299,177
2,-0.3898,-0.5306,-0.0551,0.1449,-0.6312,-0.4197,177
2,-0.4337,-0.603,-0.1245,0.3019,-0.5004,-0.4546,177
2,-0.451,-0.6132,-0.1663,0.3019,-0.5004,-0.4546,177
2,-0.451,-0.6132,-0.1663,0.6791,-0.399,-0.5865,177
2,-0.5734,-0.7081,-0.1071,1.1915,-0.3575,-0.6138,177
2,-0.6551,-0.6735,-0.0255,1.825,-0.314,-0.5299,177
2,-0.651,-0.699,0.0602,2.4542,-0.194,-0.4557,177
2,-0.6132,-0.6928,0.0887,3.081,-0.0228,-0.3542,177
2,-0.65,-0.2581,0.3643,3.6218,0.1711,-0.0904,177
2,-0.7479,-0.3041,0.0459,3.5663,0.424,0.1581,177
2,-0.7204,-0.2316,0.1041,3.5619,0.4851,0.3073,177
2,-0.7765,-0.1908,-0.0357,3.6873,0.652,0.4088,177
2,-0.8347,-0.1847,-0.0408,3.6873,0.652,0.4088,177
2,-0.8347,-0.1847,-0.0408,3.7439,0.7228,0.5299,177
2,-0.9745,-0.0948,-0.1632,3.8235,0.8853,0.7522,177
2,-1.1346,0.153,-0.4051,3.961,0.8601,0.883,177
2,-1.3,0.9041,-0.4235,4.3403,0.5473,0.6682,177
2,-1.254,0.9387,-0.5071,4.3634,0.4077,0.2605,177
2,-1.105,1.3622,-0.4214,4.3634,0.2289,0.2562,177
2,-1.0398,1.6204,-0.3255,4.2204,0.0272,0.5276,177
2,-0.8898,1.303,-0.5183,2.862,-0.1057,0.5723,177
2,-0.8837,1.1898,-0.5541,2.3353,-0.169,0.6138,177
2,-0.7795,1.4316,-0.2336,2.3353,-0.169,0.6138,177
2,-0.65,1.2653,-0.052,2.3593,-0.2081,0.5036,177
2,-0.65,1.2653,-0.052,1.9679,-0.2649,0.2976,177
2,-0.7724,1.0775,-0.0286,1.5045,-0.2365,0.1341,177
2,-0.7612,1.0214,0.0663,1.366,-0.2627,0.0097,177
2,-0.8163,0.8918,0.0908,1.2178,-0.2388,-0.1471,177
2,-1.0183,0.5765,0.1459,1.0629,-0.2081,-0.1984,177
2,-1.1337,0.4326,0.1041,0.8668,-0.2081,-0.2005,177
2,-1.2224,0.3336,0.0979,0.8264,-0.2213,-0.2104,177
2,-1.3377,0.2255,0.1234,0.8264,-0.2213,-0.2104,177
2,-1.3489,0.1816,0.1082,0.8863,-0.2791,-0.2442,177
2,-1.3347,0.1418,0.0979,0.9452,-0.3456,-0.3216,177
2,-1.3347,0.1418,0.0979,1.0084,-0.3903,-0.424,177
2,-1.3071,0.1132,0.1041,1.0543,-0.4252,-0.4971,177
2,-1.3,0.0857,0.0336,1.0848,-0.4481,-0.5353,177
2,-1.3132,0.0765,0.0,1.0902,-0.4786,-0.5799,177
2,-1.3275,0.0622,-0.0295,1.0967,-0.532,-0.664,177
2,-1.2867,0.0214,-0.0122,1.111,-0.6018,-0.7468,177
2,-1.2571,0.0367,-0.0173,1.0946,-0.6596,-0.7741,177
2,-1.1755,0.0173,0.0459,1.0946,-0.6596,-0.7741,177
2,-1.1755,0.0173,0.0459,1.0194,-0.701,-0.7958,177
2,-1.0286,-0.2101,-0.001,0.8373,-0.6454,-0.8558,177
2,-1.0428,-0.1224,0.0438,0.9485,-0.5593,-0.6846,177
2,-0.9775,-0.1857,-0.0132,0.9332,-0.5287,-0.6442,177
2,-0.95,-0.3152,-0.0571,0.7501,-0.4328,-0.6749,177
2,-1.0153,-0.3602,-0.1979,0.7653,-0.3597,-0.5919,177
2,-0.9826,-0.2163,-0.1194,0.9473,-0.4,-0.4414,177
2,-0.9571,-0.152,-0.1214,1.0215,-0.4721,-0.3826,177
2,-0.8969,-0.153,-0.102,0.8907,-0.4916,-0.3281,177
2,-0.7847,-0.2663,-0.1755,0.8907,-0.4916,-0.3281,177
2,-0.7847,-0.2663,-0.1755,0.738,-0.4611,-0.3008,177
2,-0.7367,-0.2234,-0.1489,0.7489,-0.412,-0.2747,177
2,-0.6785,-0.1673,-0.1143,0.7981,-0.3609,-0.2485,177
2,-0.5908,-0.1592,-0.1204,0.7501,-0.2922,-0.2388,177
2,-0.5775,-0.2194,-0.1714,0.6955,-0.1776,-0.255,177
2,-0.5663,-0.2357,-0.1775,0.7174,-0.1013,-0.2943,177
3,-0.5673,-0.2469,-0.1826,0.7348,-0.0392,-0.3401,177
3,-0.5847,-0.3439,-0.2296,0.7272,0.0316,-0.3903,177
3,-0.6357,-0.3928,-0.2581,0.701,0.11,-0.4109,177
3,-0.6959,-0.4979,-0.2826,0.701,0.11,-0.4109,177
3,-0.7479,-0.5,-0.3071,0.665,0.1558,-0.4175,177
3,-0.7479,-0.5,-0.3071,0.6737,0.1417,-0.4132,177
3,-0.8796,-0.7092,-0.2765,0.7468,0.1406,-0.4187,177
3,-0.9775,-0.8255,-0.2888,0.8416,0.1515,-0.4099,177
3,-1.0408,-0.9203,-0.2653,1.0335,0.1428,-0.3586,177
3,-1.1194,-0.9622,-0.2531,1.3137,0.0948,-0.2638,177
3,-1.0652,-0.8837,-0.2214,1.6779,0.0261,-0.1766,177
3,-1.0479,-0.7397,-0.1826,2.0137,-0.025,-0.0316,177
3,-0.9888,-0.6489,-0.1826,2.1968,-0.0577,0.0784,177
3,-0.8857,-0.4408,-0.2571,2.1968,-0.0577,0.0784,177
3,-0.85,-0.3428,-0.2775,2.2852,-0.0708,0.1701,177
3,-0.85,-0.3428,-0.2775,2.3822,-0.1013,0.2747,177
3,-0.8152,-0.2469,-0.2653,2.4389,-0.1537,0.35,177
3,-0.9163,0.002,-0.1898,2.6264,-0.2714,0.4698,177
3,-0.9571,0.0948,-0.1061,2.6526,-0.424,0.5942,177
3,-1.0591,0.1581,-0.0286,2.6972,-0.5484,0.6955,177
3,-1.2051,0.4888,0.3571,2.7321,-0.653,0.785,177
3,-1.4051,0.3204,0.1938,2.3004,-0.581,0.7293,177
3,-1.3357,0.3439,0.2531,2.126,-0.6476,0.665,177
3,-1.2214,0.4633,0.103,2.1304,-0.6291,0.714,177
3,-0.9592,0.8102,-0.1194,2.1347,-0.5614,0.6116,177
3,-0.7724,0.8132,-0.1398,2.1347,-0.5614,0.6116,177
3,-0.7724,0.8132,-0.1398,2.053,-0.5102,0.4349,177
3,-0.5479,0.8714,-0.0745,1.7727,-0.4404,0.5331,177
3,-0.6214,0.7612,0.0796,1.4391,-0.2485,0.4643,177
3,-0.4203,0.4949,0.0265,1.0684,-0.2474,0.3848,177
3,-0.4285,0.4826,0.1744,1.0118,-0.1962,0.2747,177
3,-0.502,0.6439,0.254,1.1306,-0.0414,0.182,177
3,-0.5183,0.5388,0.1255,1.0345,0.1112,0.1013,177
3,-0.4601,0.5449,0.0643,1.0499,0.314,0.0774,177
3,-0.5561,0.6082,0.0081,1.1676,0.5167,0.0654,177
3,-0.5428,0.6265,0.0,1.1676,0.5167,0.0654,177
3,-0.6642,0.5826,-0.0612,1.1077,0.6629,0.0806,177
3,-0.6642,0.5826,-0.0612,1.04,0.8176,0.0948,177
3,-0.7214,0.6234,-0.0459,1.0684,0.9408,0.1373,177
3,-0.8152,0.6785,-0.0316,1.0881,1.0597,0.1701,177
3,-1.0153,0.7357,-0.0551,1.0324,1.1087,0.2115,177
3,-1.0928,0.754,-0.0765,0.9463,1.0881,0.2703,177
3,-1.1724,0.8184,-0.0612,0.883,1.0019,0.3292,177
3,-1.2173,0.8673,-0.0704,0.7621,0.8809,0.3609,177
3,-1.2204,0.9663,-0.0755,0.5843,0.7708,0.387,177
3,-1.199,1.0265,-0.0214,0.5843,0.7708,0.387,177
3,-1.1949,1.0561,0.0224,0.3838,0.6869,0.4229,177
3,-1.1949,1.0561,0.0224,0.1308,0.6737,0.4349,177
3,-1.2122,1.0316,0.0479,-0.1482,0.677,0.4034,177
3,-1.252,0.9601,0.0245,-0.4088,0.6629,0.3336,177
3,-1.2826,0.8582,-0.0183,-0.6476,0.6291,0.2442,177
3,-1.3357,0.7602,-0.053,-0.8122,0.5843,0.1581,177
3,-1.4081,0.551,-0.0714,-0.9431,0.5309,0.0915,177
3,-1.4438,0.4622,-0.0755,-1.0444,0.4687,0.0501,177
3,-1.4622,0.3969,-0.0612,-1.0444,0.4687,0.0501,177
3,-1.4622,0.3969,-0.0612,-1.0913,0.4044,0.0316,177
3,-1.4694,0.3286,-0.0561,-1.136,0.3609,0.024,177
3,-1.3969,0.1449,-0.1224,-1.2037,0.3248,0.0185,177
3,-1.3632,0.0836,-0.1459,-1.2276,0.2998,0.0469,177
3,-1.299,0.0704,-0.249,-1.2407,0.2693,0.0818,177
3,-1.151,0.0918,-0.3602,-1.2014,0.193,0.0904,177
3,-1.0714,0.0765,-0.3408,-1.1774,0.1144,0.1013,177
3,-0.9928,0.1714,-0.3336,-1.1644,0.0894,0.0795,177
3,-0.9326,0.1724,-0.4,-1.3378,-0.036,0.1047,177
3,-0.8439,0.0418,-0.3479,-1.3378,-0.036,0.1047,177
3,-0.8439,0.0418,-0.3479,-1.4761,-0.0925,0.0948,177
3,-0.8071,0.0295,-0.299,-1.4097,-0.1438,0.0948,177
3,-0.751,0.001,-0.2428,-1.4412,-0.1591,0.0599,177
3,-0.754,-0.0786,-0.1214,-1.4904,-0.1471,0.0469,177
3,-0.7285,-0.1153,-0.0663,-1.5765,-0.1406,0.0545,177
3,-0.7061,-0.1694,-0.0357,-1.6779,-0.0828,0.0818,177
3,-0.6703,-0.2296,-0.001,-1.7422,0.0097,0.1352,177
3,-0.6694,-0.3714,0.0071,-1.764,0.1503,0.1864,177
3,-0.6694,-0.4173,-0.0479,-1.7422,0.2899,0.23,177
3,-0.6867,-0.3877,-0.0877,-1.7422,0.2899,0.23,177
3,-0.8479,-0.6418,-0.1755,-1.6867,0.4023,0.218,177
3,-0.8479,-0.6418,-0.1755,-1.5645,0.5265,-0.0643,177
3,-0.8785,-0.6602,-0.1949,-1.4609,0.6585,-0.0326,177
3,-0.9479,-0.6744,-0.2357,-1.3454,0.6835,0.0185,177
3,-1.0438,-0.7101,-0.2775,-1.1774,0.7447,0.0261,177
3,-1.3286,-0.601,-0.3632,-1.0335,0.7533,0.0872,177
3,-1.2693,-0.5979,-0.2867,-0.6759,0.6106,0.2485,177
3,-1.3448,-0.6204,-0.2612,-0.4469,0.4589,0.3619,177
3,-1.249,-0.6479,-0.3265,-0.2071,0.3826,0.4164,177
3,-1.1735,-0.4694,-0.3653,-0.2071,0.3826,0.4164,177
3,-1.1796,-0.2234,-0.3837,0.0349,0.3815,0.4404,177
3,-1.1796,-0.2234,-0.3837,0.2856,0.3521,0.4721,177
3,-1.2285,-0.1153,-0.3959,0.3466,0.2638,0.4655,177
3,-1.2673,-0.1234,-0.3347,0.3041,0.0446,0.4568,177
3,-1.3357,-0.1418,-0.303,0.3183,-0.1274,0.4437,177
3,-1.6163,-0.1367,-0.2898,0.5179,-0.3336,0.4492,177
3,-1.8837,-0.1143,-0.1612,1.0063,-0.7348,0.5778,177
3,-1.6367,0.6744,0.7806,1.5547,-1.1087,0.8601,177
3,-1.2673,0.6296,0.6979,1.5547,-1.1087,0.8601,177
3,-1.2673,0.6296,0.6979,0.9551,-0.7566,0.7676,177
3,-0.6387,0.8081,0.1326,0.726,-0.6476,0.5484,177
3,-0.6387,0.8081,0.1326,0.8907,-0.4055,0.2954,177
3,-0.3306,1.0071,-0.0816,0.7882,-0.2617,0.2027,177
3,-0.3765,0.9796,-0.2673,0.4393,0.012,0.1461,177
3,-0.5061,0.8255,-0.1377,-0.0282,0.1547,-0.0948,177
3,-0.4337,0.4622,-0.2918,-0.2682,0.1232,-0.1766,177
3,-0.5081,0.9877,0.1041,-0.193,0.1264,-0.3302,177
3,-0.6775,0.4908,-0.2194,-0.6574,0.206,-0.532,177
3,-0.5122,0.1938,0.1612,-0.7304,0.1657,-0.5822,177
3,-0.5122,0.1938,0.1612,-0.7304,0.1657,-0.5822,177
3,-0.7142,0.3296,0.3582,-0.3248,0.3565,-0.6247,177
3,-0.8204,0.1755,0.2204,-0.3848,0.4851,-0.5625,177
3,-0.8918,0.0112,0.1592,-0.5396,0.532,-0.4372,177
3,-1.1041,0.0643,0.0734,-0.351,0.5931,-0.2922,177
3,-1.1214,0.1285,-0.152,-0.1852,0.5745,-0.2562,177
4,-1.1285,0.2285,-0.0234,-0.1133,0.5287,-0.2071,177
4,-1.2449,0.0989,-0.2101,-0.1896,0.4023,-0.1919,177
4,-1.0989,0.101,-0.0724,-0.1035,0.2693,-0.1079,177
4,-1.1183,0.1867,-0.0428,-0.0402,0.2027,-0.0566,177
4,-1.0551,0.2122,0.0092,-0.0402,0.2027,-0.0566,177
4,-1.0551,0.2122,0.0092,-0.0065,0.1635,-0.0228,177
4,-0.9908,0.3806,0.0551,0.0414,0.1493,-0.0174,177
4,-0.9275,0.3826,0.0234,0.0043,0.1493,-0.0469,177
4,-0.8867,0.4255,0.0081,-0.0425,0.157,-0.1079,177
4,-0.8541,0.4,-0.0418,-0.1198,0.1646,-0.1438,177
4,-0.7795,0.3143,-0.1204,-0.2049,0.1667,-0.1842,177
4,-0.7571,0.5275,-0.0816,-0.194,0.1308,-0.2071,177
4,-0.7969,0.504,-0.1489,-0.2911,0.0915,-0.2878,177
4,-0.7877,0.5857,-0.0908,-0.2911,0.0915,-0.2878,177
4,-1.0102,0.5948,-0.0347,-0.4349,0.0686,-0.3325,177
4,-1.0102,0.5948,-0.0347,-0.5887,0.0566,-0.3958,177
4,-1.0857,0.45,-0.0388,-0.8569,0.0316,-0.5135,177
4,-1.4142,-0.2653,-0.151,-1.2352,0.098,-0.5942,177
4,-1.4142,-0.2653,-0.151,-1.0923,0.181,-0.6116,177
4,-1.4183,-0.1938,-0.1959,-0.9855,0.1995,-0.4677,177
4,-1.303,-0.15,-0.1612,-1.0848,0.1329,-0.3794,177
4,-0.999,-0.6887,-0.5847,-1.2592,0.2115,-0.2976,177
4,-1.1183,-0.4714,-0.749,-1.1513,0.2682,0.0141,177
4,-0.8867,-0.3582,-0.4622,-0.532,-0.0261,0.0708,177
4,-0.6489,-0.2377,-0.6234,-0.4786,-0.0675,0.0435,177
4,-0.5357,-0.1143,-0.4785,-0.4786,-0.0675,0.0435,177
4,-0.5357,-0.1143,-0.4785,-0.3761,-0.0904,0.1264,177
4,-0.4551,-0.001,-0.4235,-0.1755,-0.1406,0.1744,177
4,-0.4235,0.0959,-0.4051,-0.157,-0.1318,0.1907,177
4,-0.3479,0.1673,-0.3469,-0.2518,-0.1133,0.1972,177
4,-0.4132,0.1857,-0.3326,-0.3401,-0.024,0.231,177
4,-0.5061,0.1694,-0.3143,-0.4372,0.1035,0.2844,177
4,-0.7183,0.0255,-0.3041,-0.5549,0.2234,0.3193,177
4,-0.8265,-0.0541,-0.3051,-0.5996,0.35,0.3357,177
4,-0.9633,-0.1285,-0.2479,-0.5461,0.4742,0.3434,177
4,-1.1132,-0.1979,-0.1765,-0.5461,0.4742,0.3434,177
4,-1.4959,-0.2693,-0.0979,-0.4666,0.5593,0.3422,177
4,-1.4959,-0.2693,-0.0979,-0.3521,0.5833,0.3107,177
4,-1.6296,-0.2622,-0.0377,-0.193,0.4622,0.2659,177
4,-1.7194,-0.2683,-0.0295,-0.1417,0.2659,0.2169,177
4,-1.703,-0.2724,-0.1469,-0.182,0.0937,0.1919,177
4,-1.5286,-0.2551,-0.3255,-0.1428,-0.0534,0.1896,177
4,-1.4092,-0.1724,-0.3796,-0.0349,-0.1493,0.2159,177
4,-1.3245,-0.1091,-0.4203,0.0414,-0.206,0.2234,177
4,-1.1581,-0.0336,-0.3908,0.0414,-0.206,0.2234,177
4,-1.1071,-0.0347,-0.3561,0.0818,-0.2922,0.2039,177
4,-1.0602,-0.0857,-0.3132,0.0784,-0.3685,0.1646,177
4,-1.0602,-0.0857,-0.3132,0.0621,-0.4557,0.1024,177
4,-1.049,-0.1632,-0.2724,0.0774,-0.5091,0.0294,177
4,-1.0479,-0.3184,-0.1806,0.1875,-0.5418,-0.0381,177
4,-1.0377,-0.3377,-0.1418,0.3619,-0.557,-0.0937,177
4,-1.0388,-0.3602,-0.1683,0.5799,-0.5385,-0.1318,177
4,-1.0398,-0.1061,-0.0969,0.8787,-0.5385,-0.0806,177
4,-1.0673,-0.0245,-0.0775,1.1001,-0.5582,-0.0097,177
4,-1.1346,-0.0143,0.0,1.3126,-0.6257,0.0555,177
4,-1.1979,0.1,0.1796,1.3126,-0.6257,0.0555,177
4,-1.0836,0.4622,0.3377,1.6648,-0.7783,0.2388,177
4,-1.0836,0.4622,0.3377,1.7771,-0.5974,0.2966,177
4,-0.9092,0.5775,0.1877,1.5143,-0.581,0.1493,177
4,-0.7847,0.8255,0.0295,1.5667,-0.5635,0.1144,177
4,-0.8204,0.6632,0.049,1.5045,-0.5702,0.0545,177
4,-0.2367,1.1183,-0.2397,1.28,-0.4655,0.181,177
4,-0.4173,0.601,0.0398,0.6127,-0.2987,-0.1396,177
4,-0.3724,0.4877,-0.2183,0.4187,-0.2844,-0.2081,177
4,-0.2816,0.7183,0.1622,0.5908,-0.1732,-0.1984,177
4,-0.1877,0.4122,0.0031,0.5908,-0.1732,-0.1984,177
4,-0.1877,0.4122,0.0031,0.4971,-0.0228,-0.3271,177
4,-0.1857,0.2755,-0.0112,0.2388,0.0326,-0.5341,177
4,-0.2653,0.2316,0.0591,0.5059,0.2409,-0.6039,177
4,-0.4214,0.2326,0.1112,0.556,0.3739,-0.569,177
4,-0.352,0.0183,0.1387,0.5047,0.5528,-0.4982,177
4,-0.5602,0.0561,-0.0183,0.7283,0.8439,-0.4065,177
4,-0.7949,0.053,0.0224,0.9648,0.9582,-0.3346,177
4,-0.9908,0.1949,-0.0143,1.0793,0.966,-0.2333,177
4,-1.2224,0.3152,-0.0286,1.0793,0.966,-0.2333,177
4,-1.3755,0.4479,0.002,1.135,0.9877,-0.1329,177
4,-1.3755,0.4479,0.002,1.1121,0.8765,-0.1155,177
4,-1.6877,0.5132,-0.0652,1.0303,0.7447,-0.1242,177
4,-1.752,0.5969,-0.0408,1.0248,0.5887,-0.0479,177
4,-1.7653,0.6551,-0.1,0.9136,0.4197,-0.0305,177
4,-1.7499,0.7469,-0.1714,0.7676,0.2823,-0.0305,177
4,-1.6765,0.7214,-0.2326,0.6966,0.1209,-0.0839,177
4,-1.5214,0.9428,-0.1296,0.6345,0.0021,-0.0839,177
4,-1.3989,0.8755,-0.1377,0.3336,-0.1417,-0.2649,177
4,-1.1082,0.8152,-0.2214,0.3336,-0.1417,-0.2649,177
4,-0.9704,0.8326,-0.204,0.1526,-0.2682,-0.3368,177
4,-0.9704,0.8326,-0.204,0.1602,-0.3216,-0.4055,177
4,-0.8398,0.7714,-0.2275,-0.1755,-0.4077,-0.4982,177
4,-0.7714,0.6561,-0.2081,-0.4469,-0.4372,-0.5799,177
4,-0.7479,0.553,-0.0989,-0.5767,-0.4469,-0.6159,177
4,-0.7714,0.4755,-0.0551,-0.8078,-0.4677,-0.6574,177
4,-0.8173,0.3193,-0.0418,-1.1272,-0.4492,-0.6825,177
4,-0.9102,0.0214,0.0438,-1.2701,-0.3739,-0.6606,177
4,-0.9296,-0.0612,0.0806,-1.2941,-0.2594,-0.5778,177
4,-0.9857,-0.1561,0.0632,-1.2941,-0.2594,-0.5778,177
4,-1.0295,-0.2551,0.05,-1.3443,-0.0894,-0.4927,177
4,-1.0295,-0.2551,0.05,-1.4053,0.098,-0.4393,177
4,-0.802,-0.5541,0.053,-1.5591,0.2234,-0.4175,177
4,-0.8439,-0.7428,-0.1837,-1.8763,0.3935,-0.4338,177
4,-1.0245,-0.6112,-0.5347,-2.0475,0.6213,-0.1766,177
4,-0.7194,-0.5092,-0.55,-1.8403,0.2649,-0.0469,177
4,-0.6938,-0.4836,-0.6173,-1.3977,0.1875,-0.0686,177
4,-0.5652,-0.3255,-0.6439,-0.7609,0.1842,-0.0196,177
4,-0.5632,-0.1061,-0.551,-0.3073,0.1123,0.1919,177
4,-0.5081,0.1439,-0.5061,-0.3073,0.1123,0.1919,177
4,-0.5081,0.1439,-0.5061,-0.1907,0.0828,0.2268,177
4,-0.4888,0.1357,-0.5061,-0.2289,0.0053,0.1798,177
4,-0.5775,0.3265,-0.4897,-0.5059,-0.037,0.1962,177
4,-0.5826,0.2938,-0.3234,-0.6116,-0.0272,0.1591,177
4,-0.6326,0.0295,-0.2204,-0.9365,-0.012,0.255,177
5,-0.6489,-0.3152,-0.3173,-1.2472,0.1035,0.2932,177
5,-0.6428,-0.3336,-0.2755,-0.9452,0.2627,0.4284,177
5,-0.901,-0.3245,-0.1439,-0.6018,0.4655,0.4731,177
5,-1.0143,-0.2908,-0.1561,-0.3314,0.5919,0.1864,177
5,-1.1683,-0.299,-0.1265,-0.3314,0.5919,0.1864,177
5,-1.1683,-0.299,-0.1265,-0.2344,0.6911,0.1852,177
5,-1.2877,-0.3989,-0.1224,-0.3205,0.628,0.1732,177
5,-1.5612,-0.4796,-0.2959,-0.3151,0.5287,0.1657,177
5,-1.5326,-0.3989,-0.3255,-0.1722,0.2888,0.194,177
5,-1.5632,-0.35,-0.3459,-0.1003,0.1057,0.1907,177
5,-1.4683,-0.3785,-0.4428,-0.074,-0.0152,0.1984,177
5,-1.3622,-0.2786,-0.3734,0.0446,-0.1155,0.231,177
5,-1.2938,-0.25,-0.3489,0.1329,-0.1776,0.2409,177
5,-1.2061,-0.2602,-0.3448,0.1623,-0.2201,0.2224,177
5,-1.0989,-0.2265,-0.299,0.1623,-0.2201,0.2224,177
5,-1.0939,-0.2163,-0.2826,0.2409,-0.2823,0.1864,177
5,-1.0939,-0.2163,-0.2826,0.326,-0.326,0.1493,177
5,-1.1275,-0.2133,-0.2418,0.4818,-0.3958,0.085,177
5,-1.1275,-0.2133,-0.2418,0.6083,-0.4469,0.1024,177
5,-1.1143,-0.1683,-0.203,0.7708,-0.4971,0.1286,177
5,-1.0826,-0.1224,-0.1622,0.8929,-0.5614,0.1755,177
5,-1.0102,-0.0388,-0.0673,1.0499,-0.6333,0.2594,177
5,-0.9969,0.0438,-0.0204,1.329,-0.6672,0.3838,177
5,-0.9918,0.1683,0.0295,1.7575,-0.7086,0.5189,177
5,-0.9408,0.4122,0.1439,2.1663,-0.7283,0.6377,177
5,-0.855,0.9867,0.0908,2.1489,-0.5767,0.5004,177
5,-0.855,0.9867,0.0908,2.1489,-0.5767,0.5004,177
5,-0.9337,0.7316,-0.2133,1.499,-0.5461,0.1253,177
5,-0.4847,1.1785,0.0092,1.1556,-0.6934,0.2594,177
5,-0.6377,0.6439,-0.0765,0.6018,-0.4557,0.1623,177
5,-0.4551,0.3286,-0.1245,0.0021,-0.3052,0.1526,177
5,-0.3837,0.3326,0.0428,0.1068,-0.3107,0.1537,177
5,-0.4132,0.3745,0.0143,0.314,-0.1264,-0.012,177
5,-0.2571,0.2602,0.0398,0.2115,-0.0152,-0.2344,177
5,-0.351,0.2234,0.0632,0.2518,0.1461,-0.3161,177
5,-0.3663,0.2061,-0.0275,0.2518,0.1461,-0.3161,177
5,-0.4581,0.1735,-0.0214,0.2856,0.3292,-0.2943,177
5,-0.4581,0.1735,-0.0214,0.314,0.4982,-0.2539,177
5,-0.4765,0.1796,-0.1173,0.4502,0.6617,-0.1449,177
5,-0.6326,0.1551,-0.151,0.5528,0.8863,-0.0457,177
5,-0.7367,0.1744,-0.1387,0.6629,0.9452,0.0621,177
5,-0.953,0.3479,-0.0581,0.7413,0.9202,0.1547,177
5,-1.1755,0.3939,-0.0857,0.738,0.883,0.194,177
5,-1.302,0.6163,0.0428,0.7304,0.7664,0.2245,177
5,-1.3377,0.5704,-0.0428,0.4938,0.6159,0.1907,177
5,-1.3816,0.6071,-0.0428,0.4938,0.6159,0.1907,177
5,-1.3663,0.6316,-0.0428,0.3401,0.5244,0.1864,177
5,-1.3663,0.6316,-0.0428,0.2147,0.4557,0.1667,177
5,-1.3255,0.6357,-0.0408,0.0818,0.4197,0.1308,177
5,-1.2908,0.6541,-0.0602,-0.0316,0.3968,0.0708,177
5,-1.2847,0.6592,-0.0836,-0.1133,0.351,-0.0076,177
5,-1.2714,0.6285,-0.1214,-0.2365,0.2922,-0.1003,177
5,-1.2459,0.5847,-0.1377,-0.3532,0.2256,-0.194,177
5,-1.202,0.4847,-0.1735,-0.4524,0.1744,-0.2768,177
5,-1.1857,0.4387,-0.2133,-0.4524,0.1744,-0.2768,177
5,-1.1857,0.4387,-0.2133,-0.5244,0.1286,-0.3336,177
5,-1.1408,0.3877,-0.2653,-0.5635,0.074,-0.3706,177
5,-1.1408,0.3877,-0.2653,-0.6181,0.0097,-0.4065,177
5,-1.0612,0.3152,-0.2704,-0.6411,-0.074,-0.4458,177
5,-1.0153,0.2938,-0.249,-0.6617,-0.1875,-0.4884,177
5,-0.9571,0.2602,-0.2071,-0.7337,-0.3019,-0.5341,177
5,-0.9428,0.2142,-0.1245,-0.822,-0.3826,-0.5374,177
5,-0.9796,0.1245,-0.1245,-0.9517,-0.4088,-0.5364,177
5,-1.0163,0.0367,-0.102,-1.0772,-0.3706,-0.5255,177
5,-1.0132,-0.0959,-0.0796,-1.1698,-0.2856,-0.4884,177
5,-1.1326,-0.2612,-0.1541,-1.1698,-0.2856,-0.4884,177
5,-1.1326,-0.2612,-0.1541,-1.197,-0.1341,-0.3609,177
5,-1.1377,-0.1949,-0.0765,-1.1915,-0.0479,-0.2605,177
5,-0.8541,-0.5326,-0.0336,-1.4031,0.0414,-0.3357,177
5,-0.9255,-0.4877,-0.5102,-1.5776,0.2768,-0.1623,177
5,-0.7612,-0.5622,-0.4673,-1.3769,0.1896,-0.036,177
5,-0.7836,-0.4765,-0.5765,-0.9845,0.169,0.0097,177
5,-0.6439,-0.3357,-0.5989,-0.4698,0.1047,0.0763,177
5,-0.5234,-0.0275,-0.499,-0.1373,0.0381,0.2093,177
5,-0.5071,0.0571,-0.504,-0.086,0.0589,0.2409,177
5,-0.4796,0.1826,-0.5112,-0.086,0.0589,0.2409,177
5,-0.4796,0.1826,-0.5112,-0.0937,0.0337,0.2344,177
5,-0.402,0.2826,-0.453,-0.1384,0.0272,0.1417,177
5,-0.4142,0.3316,-0.3959,-0.242,0.0719,0.1177,177
5,-0.4775,0.3418,-0.3582,-0.4295,0.169,0.1646,177
5,-0.6204,0.3714,-0.3296,-0.6966,0.2638,0.1875,177
5,-0.7133,0.0969,-0.2622,-0.8819,0.3151,0.1766,177
5,-0.7918,-0.0745,-0.2602,-0.9866,0.3891,0.1635,177
5,-0.8286,-0.1735,-0.2296,-0.8918,0.5015,0.1886,177
5,-0.8796,-0.2275,-0.2316,-0.7621,0.6465,0.2159,177
5,-1.0438,-0.4581,-0.2224,-0.7621,0.6465,0.2159,177
5,-1.2316,-0.4387,-0.3653,-0.6879,0.7174,0.1341,177
5,-1.2316,-0.4387,-0.3653,-0.5658,0.7174,0.0479,177
5,-1.3632,-0.2408,-0.2867,-0.2409,0.6236,0.0664,177
5,-1.4867,-0.3857,-0.3398,-0.2583,0.3771,0.0534,177
5,-1.4408,-0.4183,-0.3816,-0.3609,0.1886,0.0763,177
5,-1.4337,-0.3234,-0.3877,-0.1919,0.0043,0.1308,177
5,-1.3561,-0.2877,-0.3479,-0.1003,-0.0915,0.1776,177
5,-1.2806,-0.2092,-0.3377,-0.0784,-0.157,0.2234,177
5,-1.2643,-0.2183,-0.3296,-0.0894,-0.1919,0.2321,177
5,-1.2214,-0.2643,-0.301,-0.0894,-0.1919,0.2321,177
5,-1.2112,-0.3071,-0.2449,-0.0904,-0.1962,0.2289,177
5,-1.2112,-0.3071,-0.2449,-0.0141,-0.1907,0.2071,177
5,-1.2296,-0.3347,-0.2551,0.0664,-0.1984,0.1646,177
5,-1.2653,-0.3918,-0.301,0.1286,-0.2093,0.1112,177
5,-1.3122,-0.4244,-0.3469,0.2682,-0.2495,0.0511,177
5,-1.3489,-0.4836,-0.3979,0.4469,-0.3281,-0.0011,177
5,-1.3459,-0.4979,-0.4449,0.6028,-0.4088,-0.0337,177
5,-1.2949,-0.4296,-0.5306,0.8481,-0.5047,-0.0108,177
5,-1.2377,-0.2428,-0.5469,0.8481,-0.5047,-0.0108,177
5,-1.2377,-0.2428,-0.5469,1.2079,-0.6127,0.0698,177
5,-1.1163,0.004,-0.2888,1.4467,-0.726,0.1242,177
5,-1.1163,0.004,-0.2888,1.5297,-0.8187,0.1919,177
5,-1.1357,-0.0132,-0.1561,1.7367,-0.8853,0.2878,177
5,-1.0449,0.3255,0.252,2.3767,-0.9801,0.4698,177
6,-0.8755,0.903,0.353,3.4746,-0.9246,0.7043,177
6,-0.7816,1.3377,0.2734,3.6916,-0.4655,0.3565,177
6,-0.6938,1.2347,0.1194,2.3353,-0.5952,0.1047,177
6,-0.252,1.2438,-0.3102,1.7237,-0.6062,0.0686,177
6,-0.3387,0.9071,-0.2397,1.7237,-0.6062,0.0686,177
6,-0.3387,0.9071,-0.2397,0.8874,-0.2911,-0.4219,177
6,-0.3571,0.6102,-0.2918,0.5734,-0.2844,-0.0621,177
6,-0.4938,0.703,-0.1683,0.6083,-0.2027,0.1972,177
6,-0.2051,0.4061,-0.2531,0.2617,-0.0141,-0.157,177
6,-0.1602,0.3418,-0.2265,0.2998,-0.0501,-0.3826,177
6,-0.2653,0.4969,-0.0898,0.7272,0.1744,-0.399,177
6,-0.2214,0.5877,0.0693,0.6944,0.3663,-0.3935,177
6,-0.3846,0.3663,-0.1132,0.314,0.5931,-0.3542,177
6,-0.3989,0.2357,-0.0071,0.3085,0.7489,-0.2583,177
6,-0.6439,0.4918,-0.0143,0.3085,0.7489,-0.2583,177
6,-0.8224,0.5286,-0.0561,0.664,0.9005,-0.1362,177
6,-0.8224,0.5286,-0.0561,0.7718,1.0238,-0.0915,177
6,-1.4612,0.7,-0.1398,0.5299,0.8722,-0.0545,177
6,-1.4612,0.7,-0.1398,0.4263,0.6879,-0.1068,177
6,-1.4663,0.7101,-0.1551,0.194,0.5265,-0.1198,177
6,-1.4806,0.6602,-0.1541,0.0087,0.3761,-0.1155,177
6,-1.4642,0.652,-0.1898,-0.1613,0.2495,-0.1133,177
6,-1.3245,0.5163,-0.1785,-0.3565,0.1744,-0.1526,177
6,-1.2204,0.4367,-0.1663,-0.4557,0.1352,-0.2005,177
6,-1.1959,0.3979,-0.1703,-0.4023,0.1024,-0.2682,177
6,-1.1194,0.3622,-0.1857,-0.387,0.0511,-0.35,177
6,-1.1194,0.3622,-0.1857,-0.387,0.0511,-0.35,177
6,-1.1265,0.3316,-0.2336,-0.4361,0.0185,-0.4219,177
6,-1.1673,0.3357,-0.2561,-0.4197,-0.024,-0.471,177
6,-1.2163,0.3949,-0.2101,-0.412,-0.0925,-0.5221,177
6,-1.3122,0.3826,-0.1867,-0.5112,-0.1886,-0.5604,177
6,-1.3367,0.3265,-0.2122,-0.6562,-0.2856,-0.5984,177
6,-1.3306,0.2653,-0.1979,-0.8046,-0.3924,-0.6291,177
6,-1.2245,0.0786,-0.1867,-0.9517,-0.4807,-0.6497,177
6,-1.1387,-0.0122,-0.1714,-1.0913,-0.4971,-0.664,177
6,-1.1694,-0.1296,-0.2397,-1.2788,-0.4633,-0.6106,177
6,-1.0734,-0.1602,-0.2459,-1.2788,-0.4633,-0.6106,177
6,-1.0734,-0.1602,-0.2459,-1.3758,-0.4252,-0.4742,177
6,-0.901,-0.452,-0.1398,-1.4532,-0.3891,-0.4971,177
6,-0.9326,-0.6194,-0.2877,-1.7913,-0.3073,-0.3979,177
6,-0.9949,-0.5234,-0.4724,-1.8828,-0.1144,-0.1198,177
6,-0.8979,-0.6724,-0.501,-1.4576,-0.1198,-0.0337,177
6,-0.7551,-0.603,-0.5143,-1.0051,-0.2147,0.0534,177
6,-0.5836,-0.4285,-0.4112,-0.4578,-0.2539,0.025,177
6,-0.605,-0.2122,-0.3469,-0.0282,-0.1787,0.0566,177
6,-0.4622,-0.004,-0.3102,0.0818,-0.1623,0.1057,177
6,-0.4469,0.0847,-0.3255,0.0818,-0.1623,0.1057,177
6,-0.4051,0.1581,-0.3071,0.0446,-0.1286,0.1635,177
6,-0.4051,0.1581,-0.3071,0.0784,-0.0969,0.1896,177
6,-0.3469,0.2214,-0.2602,0.0555,-0.0534,0.1919,177
6,-0.3939,0.2949,-0.2224,-0.1274,0.0992,0.1221,177
6,-0.4816,0.2949,-0.2347,-0.5102,0.2529,0.1112,177
6,-0.5173,0.1122,-0.299,-0.8405,0.3412,0.0883,177
6,-0.6153,-0.0571,-0.2714,-0.8863,0.4589,0.0414,177
6,-0.7173,-0.1173,-0.2245,-0.8754,0.5625,0.0228,177
6,-0.7571,-0.2449,-0.2194,-0.8754,0.5625,0.0228,177
6,-0.9326,-0.299,-0.2438,-0.8907,0.6486,-0.0021,177
6,-0.8857,-0.7306,-0.1714,-0.8819,0.7064,-0.0131,177
6,-0.8857,-0.7306,-0.1714,-0.8744,0.6171,-0.1286,177
6,-1.105,-0.6703,-0.3694,-0.846,0.5996,-0.049,177
6,-1.2092,-0.6194,-0.3989,-0.5091,0.5528,0.098,177
6,-1.0775,-0.6,-0.352,-0.0719,0.3979,0.1112,177
6,-1.0347,-0.3255,-0.301,0.1438,0.2802,0.23,177
6,-1.0775,-0.3571,-0.3918,0.1079,0.2104,0.2943,177
6,-1.0224,-0.2877,-0.3582,0.2071,0.1384,0.3434,177
6,-1.001,-0.0704,-0.2459,0.2071,0.1384,0.3434,177
6,-1.001,-0.0704,-0.2459,0.3336,0.0719,0.3771,177
6,-1.0071,-0.0887,-0.2173,0.2627,-0.0087,0.3914,177
6,-1.0388,-0.1112,-0.2265,0.1755,-0.0196,0.3542,177
6,-1.0796,-0.1214,-0.1949,0.1613,-0.0349,0.3248,177
6,-1.1979,-0.2643,-0.201,0.1155,-0.0414,0.2922,177
6,-1.2755,-0.3479,-0.2224,0.1068,-0.036,0.2638,177
6,-1.3469,-0.401,-0.2449,0.1972,-0.0435,0.2594,177
6,-1.499,-0.4908,-0.303,0.314,-0.0555,0.2627,177
6,-1.5847,-0.5357,-0.3632,0.4229,-0.1144,0.2888,177
6,-1.6479,-0.5163,-0.4408,0.4229,-0.1144,0.2888,177
6,-1.6479,-0.5163,-0.4408,0.6083,-0.2071,0.3216,177
6,-1.65,-0.4102,-0.4796,0.8775,-0.363,0.3717,177
6,-1.4459,-0.0714,-0.4326,1.135,-0.532,0.4187,177
6,-1.2704,0.0,-0.3959,1.2505,-0.6978,0.4524,177
6,-1.05,0.0388,-0.3387,1.2701,-0.8242,0.4982,177
6,-0.8775,0.2285,-0.2908,1.4849,-0.8634,0.5473,177
6,-0.7888,0.8949,-0.1449,1.9395,-0.9158,0.557,177
6,-0.7898,0.8765,0.0479,2.2056,-0.9017,0.2398,177
6,-0.7704,0.9,-0.1867,2.0049,-0.7327,-0.0937,177
6,-0.8745,1.4081,0.0367,2.0049,-0.7327,-0.0937,177
6,-0.5887,1.1061,-0.1255,1.7695,-0.6857,0.1787,177
6,-0.5887,1.1061,-0.1255,0.9387,-0.6388,0.2321,177
6,-0.6785,0.8387,-0.0765,0.2268,-0.4109,0.1613,177
6,-0.6969,0.6857,-0.052,0.0784,-0.2844,0.1623,177
6,-0.4796,0.35,0.002,0.0272,-0.169,0.0414,177
6,-0.4663,0.2592,-0.0459,0.061,0.0032,-0.0076,177
6,-0.4224,0.2326,-0.0612,0.1242,0.1396,-0.0425,177
6,-0.3582,0.2234,-0.1612,0.2507,0.2649,-0.1635,177
6,-0.3785,0.301,-0.1489,0.4382,0.4077,-0.2278,177
6,-0.3877,0.3234,-0.202,0.4382,0.4077,-0.2278,177
6,-0.4092,0.3081,-0.2142,0.4992,0.5233,-0.182,177
6,-0.4092,0.3081,-0.2142,0.471,0.6312,-0.1155,177
6,-0.4653,0.301,-0.2683,0.5091,0.7217,-0.0206,177
6,-0.5591,0.3837,-0.2551,0.5887,0.8122,0.0883,177
6,-0.6663,0.4642,-0.2296,0.6018,0.8678,0.1744,177
6,-0.9041,0.6091,-0.1428,0.5528,0.859,0.2562,177
6,-1.0622,0.6877,-0.0663,0.471,0.8046,0.2976,177
6,-1.1785,0.7214,-0.0357,0.2899,0.6846,0.3085,177
6,-1.2653,0.7153,-0.0255,0.2899,0.6846,0.3085,177
6,-1.2653,0.7153,-0.0255,0.0577,0.5244,0.2954,177
6,-1.249,0.6877,-0.0612,-0.1396,0.3838,0.2583,177
6,-1.249,0.6877,-0.0612,-0.3368,0.3117,0.206,177
6,-1.2234,0.6337,-0.1112,-0.545,0.3031,0.1461,177
6,-1.2,0.5796,-0.1367,-0.664,0.2922,0.0818,177
7,-1.1642,0.4928,-0.1908,-0.7228,0.2758,0.0076,177
7,-1.1765,0.4571,-0.2183,-0.7632,0.2518,-0.073,177
7,-1.1877,0.4255,-0.2347,-0.7783,0.2016,-0.1482,177
7,-1.2306,0.3622,-0.25,-0.8002,0.1406,-0.2201,177
7,-1.2561,0.3489,-0.2479,-0.8166,0.049,-0.2922,177
7,-1.302,0.3367,-0.2571,-0.8166,0.049,-0.2922,177
7,-1.302,0.3367,-0.2571,-0.8351,-0.0566,-0.3771,177
7,-1.3326,0.3041,-0.251,-0.858,-0.1831,-0.4622,177
7,-1.2908,0.2428,-0.2061,-0.9038,-0.3281,-0.5473,177
7,-1.2806,0.1785,-0.1928,-1.0095,-0.4611,-0.6257,177
7,-1.2163,0.0877,-0.1632,-1.0782,-0.5625,-0.6715,177
7,-1.1337,-0.0673,-0.1612,-1.1087,-0.5799,-0.6791,177
7,-1.151,-0.1275,-0.1622,-1.1284,-0.5364,-0.6388,177
7,-1.1367,-0.1816,-0.15,-1.1709,-0.4687,-0.5528,177
7,-1.151,-0.1847,-0.1337,-1.293,-0.4055,-0.5461,176
7,-0.9775,-0.4928,-0.3061,-1.293,-0.4055,-0.5461,176
7,-0.9775,-0.4928,-0.3061,-1.5177,-0.2911,-0.4938,176
7,-0.8071,-0.6091,-0.4163,-1.342,-0.085,-0.074,176
7,-0.8071,-0.6091,-0.4163,-1.1262,-0.0457,-0.0446,176
7,-0.6346,-0.4612,-0.4785,-0.8787,-0.0664,-0.0141,176
7,-0.5724,-0.3204,-0.4622,-0.4109,-0.0446,0.0316,176
7,-0.5541,-0.1163,-0.3448,0.073,0.0021,0.0883,176
7,-0.4785,0.1041,-0.3632,0.1428,-0.0141,0.1547,176
7,-0.5,0.353,-0.355,0.1373,0.0108,0.2245,176
7,-0.4479,0.4132,-0.2122,0.0534,0.0174,0.1526,176
7,-0.4979,0.3918,-0.2531,-0.1951,0.1253,0.0675,176
7,-0.5857,0.2765,-0.2296,-0.1951,0.1253,0.0675,176
7,-0.5857,0.2765,-0.2296,-0.6574,0.1776,0.181,176
7,-0.5786,0.0336,-0.3041,-1.0215,0.2594,0.1547,176
7,-0.6173,-0.0031,-0.3163,-0.954,0.4099,0.1232,176
7,-0.7347,-0.1041,-0.3143,-0.87,0.5549,0.073,176
7,-0.7459,-0.1775,-0.3091,-0.883,0.6421,-0.0261,176
7,-0.8918,-0.2397,-0.3326,-0.8744,0.7184,-0.0534,176
7,-0.9683,-0.2571,-0.3561,-0.8231,0.6869,-0.1461,176
7,-1.0163,-0.6439,-0.4224,-0.8078,0.5963,-0.1558,176
7,-1.252,-0.5367,-0.5204,-0.64,0.5843,-0.0294,176
7,-1.2388,-0.5765,-0.4203,-0.64,0.5843,-0.0294,176
7,-1.2388,-0.5765,-0.4203,-0.2464,0.4349,-0.0032,176
7,-1.3591,-0.4357,-0.3469,-0.0196,0.3073,0.085,176
7,-1.4092,-0.5193,-0.3959,-0.0228,0.2049,0.1951,176
7,-1.4377,-0.5857,-0.3939,-0.0043,0.1798,0.2768,176
7,-1.449,-0.5275,-0.3959,0.2268,0.1308,0.3575,176
7,-1.3489,-0.353,-0.3816,0.412,0.0599,0.4034,176
7,-1.2816,-0.2786,-0.4173,0.5026,0.0065,0.4044,176
7,-1.2449,-0.1683,-0.4275,0.6312,-0.0774,0.3968,176
7,-1.2101,-0.0948,-0.4326,0.6541,-0.1852,0.3663,176
7,-1.152,-0.1132,-0.4949,0.6541,-0.1852,0.3663,176
7,-1.1418,-0.1041,-0.5,0.6247,-0.2899,0.314,176
7,-1.1418,-0.1041,-0.5,0.6955,-0.3946,0.2758,176
7,-1.1449,-0.0734,-0.4765,0.8405,-0.5004,0.2507,176
7,-1.15,0.0347,-0.4316,0.9746,-0.6039,0.2409,176
7,-1.1561,0.0714,-0.3653,1.0935,-0.6901,0.242,176
7,-1.1673,0.0959,-0.2531,1.1959,-0.7686,0.2922,176
7,-1.2194,0.1041,-0.153,1.4206,-0.8634,0.4307,176
7,-1.1857,0.4081,0.5428,2.0301,-0.9877,0.6574,176
7,-1.1234,0.9765,0.2908,2.7529,-0.6072,0.7205,176
7,-0.9897,1.0193,0.1275,2.7529,-0.6072,0.7205,176
7,-0.6214,1.4673,-0.2724,2.355,-0.4361,0.3161,176
7,-0.6214,1.4673,-0.2724,1.655,-0.5702,0.2638,176
7,-0.5398,1.1683,-0.4714,1.3693,-0.5309,0.1842,176
7,-0.5265,0.7775,-0.3071,0.5036,-0.4361,-0.181,176
7,-0.4377,0.6469,-0.3255,0.2562,-0.4197,0.1438,176
7,-0.5724,0.7479,-0.0979,0.3336,-0.2802,0.2169,176
7,-0.3918,0.3683,-0.1938,-0.0446,-0.2539,-0.1079,176
7,-0.3132,0.2397,-0.2101,0.0,-0.2344,-0.3052,176
7,-0.4153,0.452,-0.0714,0.0,-0.2344,-0.3052,176
7,-0.4153,0.452,-0.0714,0.3903,-0.0043,-0.3271,176
7,-0.3571,0.303,-0.2418,0.314,0.169,-0.3357,176
7,-0.3571,0.303,-0.2418,0.037,0.3609,-0.2966,176
7,-0.4663,0.1714,-0.1489,0.0675,0.5145,-0.2256,176
7,-0.5652,0.2336,-0.0979,0.3336,0.6345,-0.1068,176
7,-0.7061,0.2826,-0.1479,0.496,0.7893,-0.012,176
7,-0.7643,0.4071,-0.0551,0.5189,0.7676,0.1013,176
7,-0.9642,0.4214,-0.0816,0.4175,0.7598,0.1646,176
7,-1.2112,0.5591,-0.0438,0.326,0.6726,0.2136,176
7,-1.3448,0.5031,-0.1041,0.1581,0.545,0.206,176
7,-1.3448,0.5031,-0.1041,0.1581,0.545,0.206,176
7,-1.3714,0.4949,-0.1194,0.0392,0.3891,0.1972,176
7,-1.2908,0.5326,-0.1245,-0.0337,0.2518,0.1493,176
7,-1.2204,0.5326,-0.0989,-0.1286,0.1482,0.1013,176
7,-1.1265,0.5071,-0.103,-0.2321,0.098,0.0326,176
7,-1.0643,0.4888,-0.1082,-0.3031,0.0751,-0.0479,176
7,-0.9816,0.4255,-0.152,-0.3456,0.0566,-0.1406,176
7,-0.9694,0.4092,-0.1581,-0.3695,0.0425,-0.2354,176
7,-0.9642,0.3683,-0.1877,-0.424,0.0305,-0.3357,176
7,-1.002,0.2745,-0.2367,-0.424,0.0305,-0.3357,176
7,-1.0153,0.2296,-0.2153,-0.4895,0.0097,-0.4055,176
7,-1.0153,0.2296,-0.2153,-0.4982,-0.0282,-0.4742,176
7,-1.0326,0.1683,-0.1857,-0.4971,-0.0894,-0.5341,176
7,-1.0541,0.1112,-0.1398,-0.4982,-0.1613,-0.5865,176
7,-1.1245,0.0275,-0.105,-0.4666,-0.2268,-0.6138,176
7,-1.1755,0.0571,-0.053,-0.4132,-0.3107,-0.6028,176
7,-1.1959,0.004,-0.0632,-0.4458,-0.3739,-0.6367,176
7,-1.3265,-0.0877,-0.1255,-0.5167,-0.3586,-0.6791,176
7,-1.4673,-0.1163,-0.1755,-0.5167,-0.3586,-0.6791,176
7,-1.2265,-0.3734,-0.0551,-0.5942,-0.3456,-0.6497,176
7,-1.3357,-0.454,-0.2092,-0.7871,-0.3161,-0.6356,176
7,-1.3357,-0.454,-0.2092,-1.0684,-0.1842,-0.495,176
7,-1.0867,-0.5887,-0.3448,-1.1306,-0.1242,-0.2747,176
7,-1.105,-0.5561,-0.5438,-0.9931,-0.0534,-0.1732,176
7,-0.954,-0.5836,-0.6041,-0.5865,-0.0392,-0.1558,176
7,-0.7653,-0.3653,-0.6041,-0.1144,-0.157,-0.0894,176
7,-0.6408,0.0632,-0.4326,0.4393,-0.1438,0.0162,176
7,-0.6265,0.1837,-0.4449,0.6062,-0.1482,0.0566,176
7,-0.4928,0.4449,-0.4306,0.6333,-0.1362,0.0402,176
7,-0.4163,0.5347,-0.3377,0.6333,-0.1362,0.0402,176
7,-0.3582,0.6153,-0.2806,0.4763,-0.0969,-0.0228,176
7,-0.3582,0.6153,-0.2806,0.1449,-0.0217,0.0337,176
8,-0.3826,0.5449,-0.2928,-0.2256,0.0643,0.0763,176
8,-0.4571,0.5143,-0.2826,-0.4818,0.1526,0.1318,176
8,-0.5928,0.4979,-0.2479,-0.6661,0.2605,0.1547,176
8,-0.603,0.2336,-0.1785,-0.859,0.3008,0.1242,176
8,-0.7204,0.051,-0.2765,-0.9692,0.5145,-0.037,176
8,-0.7531,-0.0898,-0.2622,-0.9507,0.5865,-0.0162,176
8,-0.9847,-0.2153,-0.2592,-0.9071,0.6072,0.061,176
8,-0.9847,-0.2153,-0.2592,-0.9071,0.6072,0.061,176
8,-1.0928,-0.3071,-0.2592,-0.8962,0.5865,0.0152,176
8,-1.1306,-0.4183,-0.2428,-0.7533,0.545,-0.1242,176
8,-1.1816,-0.6061,-0.3683,-0.6442,0.4492,-0.194,176
8,-1.2755,-0.4326,-0.4459,-0.412,0.3073,-0.0261,176
8,-1.2081,-0.3826,-0.2071,-0.1547,0.1623,0.0698,176
8,-1.1285,-0.5071,-0.3857,-0.1972,0.1144,0.1264,176
8,-1.0652,-0.3694,-0.3163,-0.0152,0.049,0.2016,176
8,-1.0143,-0.3265,-0.3377,0.1591,0.0011,0.2365,176
8,-1.0286,-0.3184,-0.3612,0.2289,0.0032,0.2507,176
8,-1.0622,-0.1214,-0.3224,0.2289,0.0032,0.2507,176
8,-1.0622,-0.1214,-0.3224,0.3815,-0.0316,0.2649,176
8,-1.1285,-0.1398,-0.3275,0.3554,-0.1396,0.2464,176
8,-1.1837,-0.153,-0.2786,0.3794,-0.2016,0.2224,176
8,-1.1837,-0.153,-0.2786,0.4328,-0.2812,0.1984,176
8,-1.1938,-0.1806,-0.2857,0.4611,-0.3706,0.1744,176
8,-1.1867,-0.1867,-0.2714,0.545,-0.4546,0.1711,176
8,-1.1877,-0.1694,-0.2632,0.6846,-0.5189,0.1852,176
8,-1.1224,-0.0652,-0.2377,0.871,-0.5635,0.2081,176
8,-1.0612,-0.0204,-0.2092,1.0728,-0.5745,0.2703,176
8,-1.0081,0.0898,-0.1775,1.2483,-0.5614,0.3935,176
8,-0.8755,0.4061,-0.101,1.2483,-0.5614,0.3935,176
8,-0.8755,0.4061,-0.101,1.4587,-0.5167,0.4589,176
8,-0.8245,0.6857,-0.2877,1.6823,-0.3924,0.4208,176
8,-0.8245,0.6857,-0.2877,1.6747,-0.1798,0.157,176
8,-0.7285,0.7908,-0.3989,1.5711,-0.1221,-0.036,176
8,-0.5663,1.0979,-0.402,1.5416,-0.0566,0.1167,176
8,-0.602,0.9836,-0.3132,1.1753,0.037,0.1526,176
8,-0.4663,0.4551,-0.553,0.4622,0.1428,-0.049,176
8,-0.5112,0.4683,-0.4173,0.5996,0.1919,-0.0021,176
8,-0.4673,0.4551,-0.353,0.738,0.2245,-0.182,176
8,-0.4347,0.4224,-0.3184,0.738,0.2245,-0.182,176
8,-0.4347,0.4224,-0.3184,0.713,0.2899,-0.2627,176
8,-0.453,0.3816,-0.3214,0.6869,0.4295,-0.2617,176
8,-0.4908,0.3439,-0.2571,0.7447,0.5854,-0.2529,176
8,-0.4836,0.355,-0.1857,0.8319,0.7304,-0.194,176
8,-0.5357,0.303,-0.1959,0.8275,0.8809,-0.1352,176
8,-0.6632,0.3714,-0.1775,0.8929,1.003,-0.0675,176
8,-0.7663,0.4857,-0.1541,0.9975,1.0902,-0.0152,176
8,-0.8387,0.5734,-0.1102,0.9605,1.1272,-0.0043,176
8,-0.9938,0.5979,-0.1224,0.7958,1.1164,-0.0272,176
8,-1.2081,0.6806,-0.1418,0.7958,1.1164,-0.0272,176
8,-1.299,0.6714,-0.1857,0.6345,0.9997,-0.0686,176
8,-1.299,0.6714,-0.1857,0.4469,0.8384,-0.1558,176
8,-1.3193,0.6398,-0.2092,0.2388,0.6333,-0.2485,176
8,-1.2857,0.5684,-0.2388,0.049,0.4338,-0.338,176
8,-1.2153,0.5081,-0.2347,-0.0664,0.2888,-0.3979,176
8,-1.1816,0.4806,-0.2122,-0.181,0.181,-0.4393,176
8,-1.1357,0.3918,-0.2071,-0.326,0.0948,-0.4731,176
8,-1.103,0.2469,-0.1387,-0.387,0.0402,-0.507,176
8,-1.1326,0.1908,-0.1214,-0.387,0.0402,-0.507,176
8,-1.1612,0.1061,-0.1132,-0.3826,-0.0043,-0.5287,176
8,-1.202,0.0163,-0.103,-0.4055,-0.0555,-0.5429,176
8,-1.202,0.0163,-0.103,-0.4153,-0.1079,-0.5265,176
8,-1.4112,-0.051,-0.1367,-0.3609,-0.1438,-0.4721,176
8,-1.5051,-0.0877,-0.1357,-0.2791,-0.2191,-0.4971,176
8,-1.5438,-0.1561,-0.1938,-0.206,-0.2911,-0.5865,176
8,-1.7081,-0.0652,-0.1826,-0.0402,-0.388,-0.5582,176
8,-1.6489,-0.2245,-0.203,-0.0392,-0.4786,-0.5287,176
8,-1.6663,-0.0602,-0.3041,0.0305,-0.5843,-0.4763,176
8,-1.6285,-0.0102,-0.251,0.0206,-0.6901,-0.4382,176
8,-1.3224,-0.0408,-0.4224,0.0206,-0.6901,-0.4382,176
8,-1.1632,0.0214,-0.4203,-0.0349,-0.7566,-0.424,176
8,-1.1632,0.0214,-0.4203,0.0174,-0.809,-0.3859,176
8,-1.0051,0.0704,-0.4244,-0.0131,-0.8504,-0.3281,176
8,-0.9081,0.1122,-0.4377,-0.1396,-0.846,-0.2605,176
8,-0.7724,0.1428,-0.504,-0.3096,-0.8231,-0.1896,176
8,-0.7551,0.0887,-0.5295,-0.4862,-0.8012,-0.1232,176
8,-0.7377,0.0398,-0.5551,-0.6356,-0.7838,-0.0566,176
8,-0.6837,0.0306,-0.4775,-0.7031,-0.7632,0.0131,176
8,-0.6735,0.0306,-0.4387,-0.7424,-0.701,0.0872,176
8,-0.6735,0.0306,-0.4387,-0.7424,-0.701,0.0872,176
8,-0.6449,0.0714,-0.3643,-0.7457,-0.6454,0.1732,176
8,-0.6132,0.1143,-0.2724,-0.8012,-0.5767,0.2682,176
8,-0.5183,0.1622,-0.1642,-0.9092,-0.4927,0.3619,176
8,-0.4765,0.1959,-0.1755,-1.0183,-0.3794,0.4229,176
8,-0.4653,0.199,-0.2112,-1.1436,-0.2573,0.4143,176
8,-0.5153,0.1367,-0.355,-1.2571,-0.1449,0.3706,176
8,-0.5092,0.103,-0.4173,-1.3126,-0.0457,0.3073,176
8,-0.5428,0.1183,-0.4694,-1.3497,0.0228,0.2278,176
8,-0.5438,0.0928,-0.4765,-1.4162,0.0883,0.1318,176
8,-0.551,-0.0071,-0.5122,-1.4162,0.0883,0.1318,176
8,-0.551,-0.0071,-0.5122,-1.4904,0.1438,0.0425,176
8,-0.5693,-0.0265,-0.5,-1.5274,0.193,-0.0032,176
8,-0.5989,-0.05,-0.4765,-1.5917,0.2388,-0.0326,176
8,-0.6071,-0.1091,-0.453,-1.7367,0.2703,-0.0763,176
8,-0.7051,-0.3275,-0.4194,-1.8687,0.3292,-0.0774,176
8,-0.7795,-0.502,-0.4214,-1.8556,0.3794,0.0043,176
8,-0.7602,-0.552,-0.4275,-1.5677,0.4187,0.0566,176
8,-1.0438,-0.452,-0.3122,-1.2134,0.4393,0.2627,176
8,-1.0234,-0.6234,-0.302,-0.9431,0.4109,0.2507,176
8,-1.0928,-0.5132,-0.299,-0.9431,0.4109,0.2507,176
8,-1.1673,-0.4806,-0.2602,-0.8024,0.314,0.2812,176
8,-1.1673,-0.4806,-0.2602,-0.701,0.2039,0.3783,176
8,-1.2622,-0.5163,-0.3245,-0.6301,0.1133,0.4229,176
8,-1.2316,-0.4244,-0.3051,-0.4469,-0.0206,0.4643,176
8,-1.202,-0.3622,-0.299,-0.3172,-0.1068,0.4938,176
8,-1.1479,-0.2571,-0.2622,-0.2278,-0.1428,0.5102,176
8,-1.1285,-0.1918,-0.2153,-0.1384,-0.1558,0.5189,176
8,-1.1337,-0.1408,-0.202,-0.1167,-0.1515,0.5211,176
8,-1.1592,-0.1541,-0.2112,-0.1167,-0.1515,0.5211,176
8,-1.2724,-0.2265,-0.2806,-0.1537,-0.1308,0.4807,176
8,-1.2724,-0.2265,-0.2806,-0.1722,-0.1341,0.4328,176
9,-1.3367,-0.3,-0.3132,-0.1635,-0.1732,0.3771,176
9,-1.4408,-0.3887,-0.3418,-0.1035,-0.2201,0.3205,176
9,-1.5989,-0.5143,-0.3898,0.0545,-0.314,0.2758,176
9,-1.6082,-0.4428,-0.3765,0.3302,-0.4492,0.2464,176
9,-1.5561,-0.2867,-0.3336,0.6562,-0.5984,0.2573,176
9,-1.4633,-0.1622,-0.3408,0.8939,-0.713,0.2594,176
9,-1.0948,0.0,-0.2194,1.1262,-0.8012,0.2627,176
9,-0.9285,0.0887,-0.1744,1.1262,-0.8012,0.2627,176
9,-0.9285,0.0887,-0.1744,1.3432,-0.8493,0.3401,176
9,-0.7918,0.2745,-0.2183,1.6583,-0.8504,0.4065,176
9,-0.6377,0.651,-0.1561,2.0355,-0.8199,0.267,176
9,-0.4796,0.7938,-0.1387,2.0007,-0.7304,-0.0282,176
9,-0.3132,0.7979,-0.2581,1.6572,-0.6803,-0.025,176
9,-0.3939,1.0867,-0.0112,1.329,-0.6072,0.326,176
9,-0.3785,0.4673,-0.1306,0.6606,-0.4818,0.267,176
9,-0.3439,0.4377,-0.0622,0.5112,-0.2737,0.1798,176
9,-0.3887,0.4877,0.0306,0.7915,-0.1896,0.1831,176
9,-0.2479,0.3826,0.1204,0.7915,-0.1896,0.1831,176
9,-0.2479,0.3826,0.1204,0.9572,0.0,0.1155,176
9,-0.4581,0.651,0.0357,1.2985,0.3914,0.1581,176
9,-0.6612,0.4398,-0.1612,1.0717,0.6552,0.0818,176
9,-0.6612,0.4398,-0.1612,0.6672,0.7827,0.0217,176
9,-0.7949,0.5286,-0.201,0.6159,0.8275,0.0479,176
9,-0.9061,0.5693,-0.1673,0.6291,0.8471,0.0621,176
9,-1.0367,0.6408,-0.1928,0.5505,0.7893,0.0708,176
9,-1.2377,0.6744,-0.1847,0.3979,0.6879,0.0664,176
9,-1.2693,0.6959,-0.1653,0.2507,0.557,0.0261,176
9,-1.2581,0.6826,-0.1551,0.0904,0.424,-0.0174,176
9,-1.2101,0.6377,-0.1173,-0.0818,0.3193,-0.0675,176
9,-1.0745,0.552,-0.1091,-0.0818,0.3193,-0.0675,176
9,-1.0367,0.499,-0.1214,-0.206,0.2594,-0.1133,176
9,-1.0367,0.499,-0.1214,-0.3041,0.2354,-0.1591,176
9,-1.0255,0.4387,-0.1275,-0.3706,0.2169,-0.1951,176
9,-1.0204,0.3653,-0.0867,-0.3914,0.1972,-0.2256,176
9,-1.0398,0.3184,-0.0847,-0.4263,0.182,-0.2529,176
9,-1.0786,0.2918,-0.0928,-0.4492,0.181,-0.2802,176
9,-1.1306,0.2867,-0.0918,-0.4328,0.1755,-0.3128,176
9,-1.2316,0.249,-0.1234,-0.4382,0.1581,-0.3554,176
9,-1.2663,0.2204,-0.15,-0.4677,0.1133,-0.4143,176
9,-1.2663,0.2204,-0.15,-0.4677,0.1133,-0.4143,176
9,-1.2602,0.1969,-0.1489,-0.4992,0.0414,-0.4895,176
9,-1.2755,0.0979,-0.1969,-0.532,-0.0217,-0.5734,176
9,-1.2551,0.0877,-0.2112,-0.5124,-0.1274,-0.6236,176
9,-1.2153,0.0459,-0.2,-0.5059,-0.2147,-0.6541,176
9,-1.199,0.0,-0.2092,-0.5026,-0.2899,-0.6606,176
9,-1.0295,-0.0755,-0.2,-0.5614,-0.3368,-0.64,176
9,-1.1316,-0.0786,-0.2704,-0.7064,-0.3216,-0.5974,176
9,-0.9969,-0.2275,-0.2255,-0.859,-0.2714,-0.5919,176
9,-0.9765,-0.302,-0.2969,-1.0423,-0.2027,-0.4938,176
9,-0.9224,-0.4275,-0.4092,-1.0423,-0.2027,-0.4938,176
9,-0.9224,-0.4275,-0.4092,-0.9725,-0.0774,-0.3663,176
9,-0.9306,-0.4847,-0.4745,-0.7337,-0.0021,-0.1787,176
9,-0.8887,-0.4561,-0.4734,-0.4786,-0.0469,0.0,176
9,-0.8357,-0.3347,-0.4571,-0.2169,-0.086,0.1221,176
9,-0.8091,-0.1592,-0.4357,0.1155,-0.0839,0.1308,176
9,-0.7479,0.0173,-0.3561,0.3815,-0.0937,0.1798,176
9,-0.7163,0.1765,-0.3071,0.375,-0.1297,0.2344,176
9,-0.5541,0.3112,-0.252,0.2485,-0.1047,0.1951,176
9,-0.5581,0.3357,-0.3051,-0.0097,-0.0228,0.1047,176
9,-0.4867,0.3296,-0.2816,-0.0097,-0.0228,0.1047,176
9,-0.4683,0.3112,-0.3163,-0.2136,0.0381,0.0523,176
9,-0.4683,0.3112,-0.3163,-0.3685,0.1035,-0.0152,176
9,-0.5265,0.3877,-0.2704,-0.4753,0.1646,-0.0872,176
9,-0.5224,0.3898,-0.2122,-0.5494,0.2169,-0.1526,176
9,-0.5132,0.2479,-0.2081,-0.8176,0.2376,-0.1744,176
9,-0.5295,-0.1755,-0.2877,-0.9943,0.3052,-0.2005,176
9,-0.6102,-0.2306,-0.2438,-0.809,0.4077,-0.1155,176
9,-0.7714,-0.2081,-0.2581,-0.6486,0.5494,-0.0545,176
9,-0.8,-0.299,-0.254,-0.6486,0.5494,-0.0545,176
9,-0.8653,-0.5591,-0.2336,-0.581,0.6138,-0.1362,176
9,-0.8653,-0.5591,-0.2336,-0.5004,0.6213,-0.1766,176
9,-1.0969,-0.5234,-0.3408,-0.4164,0.628,-0.1919,176
9,-1.1082,-0.4704,-0.2816,-0.2539,0.4677,0.0021,176
9,-1.1377,-0.5051,-0.2724,-0.1613,0.3641,0.0599,176
9,-1.103,-0.5438,-0.3347,-0.1035,0.2911,0.0828,176
9,-1.1775,-0.4653,-0.2918,0.1264,0.2649,0.1449,176
9,-1.1255,-0.3724,-0.2724,0.3107,0.2049,0.169,176
9,-1.1428,-0.2969,-0.2775,0.3771,0.1886,0.1995,176
9,-1.1694,-0.2336,-0.2551,0.3771,0.1886,0.1995,176
9,-1.1694,-0.2336,-0.2551,0.4763,0.1951,0.2201,176
9,-1.1867,-0.1755,-0.2388,0.5276,0.1842,0.2507,176
9,-1.2122,-0.1469,-0.2531,0.4992,0.1503,0.2464,176
9,-1.2449,-0.1826,-0.299,0.4546,0.1003,0.2278,176
9,-1.2816,-0.2061,-0.3286,0.4884,0.0294,0.2093,176
9,-1.3143,-0.1877,-0.3724,0.5854,-0.0621,0.1886,176
9,-1.3663,-0.1275,-0.402,0.702,-0.1744,0.1711,176
9,-1.3673,-0.103,-0.3949,0.7991,-0.2954,0.1635,176
9,-1.3173,-0.0347,-0.3673,0.9234,-0.399,0.1842,176
9,-1.2112,0.1428,-0.1694,0.9234,-0.399,0.1842,176
9,-1.2112,0.1428,-0.1694,1.1207,-0.4601,0.2321,176
9,-1.1265,0.2877,-0.0796,1.3061,-0.5124,0.3281,176
9,-0.9918,0.5071,0.1479,1.5078,-0.5287,0.3838,176
9,-0.9244,0.7112,0.1581,1.6942,-0.2834,0.2518,176
9,-0.8377,0.8275,-0.2795,1.4479,-0.0675,0.0043,176
9,-0.602,0.8306,-0.3663,1.2701,-0.0457,-0.1297,176
9,-0.7918,1.2377,-0.3541,1.1741,0.0446,0.0643,176
9,-0.6959,1.0122,-0.3694,0.4263,0.0654,-0.1133,176
9,-0.7438,0.7826,-0.4132,0.1352,0.0883,-0.0937,176
9,-0.6346,0.7418,-0.2683,0.1352,0.0883,-0.0937,176
9,-0.6755,0.5204,-0.3081,0.1177,0.1035,-0.1003,176
9,-0.6755,0.5204,-0.3081,-0.23,0.073,-0.1635,176
9,-0.7255,0.3857,-0.1377,-0.2453,0.1253,-0.1526,176
9,-0.7071,0.3745,-0.1602,-0.0894,0.2245,-0.1144,176
9,-0.7531,0.351,-0.1898,-0.1024,0.3019,-0.0654,176
9,-0.8112,0.2745,-0.2806,-0.157,0.3477,0.0217,176
9,-0.9306,0.3132,-0.3418,-0.0774,0.3401,0.1253,176
9,-0.9734,0.3846,-0.2693,-0.0217,0.2932,0.2049,176
9,-1.0193,0.3387,-0.3173,-0.0217,0.2932,0.2049,176
9,-1.0275,0.4612,-0.1285,-0.1449,0.1701,0.255,176
9,-1.0071,0.4296,-0.0745,-0.1678,0.0664,0.2758,176
10,-1.0071,0.4296,-0.0745,-0.267,-0.0021,0.2682,176
10,-0.9857,0.4194,-0.0418,-0.3783,-0.036,0.2333,176
10,-0.9438,0.4347,-0.0143,-0.4132,-0.0337,0.1919,176
10,-0.9244,0.3959,-0.0786,-0.5102,0.0065,0.1362,176
10,-0.9428,0.4428,-0.0786,-0.5528,0.0402,0.0795,176
10,-0.9285,0.4306,-0.1194,-0.5898,0.073,-0.0185,176
10,-0.9745,0.3959,-0.1887,-0.6486,0.0818,-0.1013,176
10,-1.0153,0.3224,-0.2531,-0.6901,0.0599,-0.1886,176
10,-1.052,0.2877,-0.2673,-0.6901,0.0599,-0.1886,176
10,-1.0928,0.2438,-0.3051,-0.7544,0.0228,-0.2573,176
10,-1.0928,0.2438,-0.3051,-0.7773,-0.0228,-0.3128,176
10,-1.102,0.2101,-0.3152,-0.7566,-0.0969,-0.3521,176
10,-1.0939,0.1908,-0.3071,-0.7621,-0.1864,-0.3935,176
10,-1.0959,0.1541,-0.2775,-0.7903,-0.2791,-0.4077,176
10,-1.0918,0.1418,-0.251,-0.8351,-0.3739,-0.3903,176
10,-1.1449,0.0877,-0.2204,-0.883,-0.4666,-0.3935,175
10,-1.15,0.0336,-0.2418,-0.9572,-0.5374,-0.4328,175
10,-1.152,-0.0204,-0.2071,-1.016,-0.5549,-0.3815,175
10,-1.3041,-0.0571,-0.1602,-1.016,-0.5549,-0.3815,175
10,-1.2531,-0.3245,-0.3979,-1.4238,-0.3685,-0.2268,175
10,-1.1673,-0.3061,-0.4469,-1.4238,-0.3685,-0.2268,175
10,-1.0031,-0.353,-0.4561,-1.2821,-0.3325,-0.0698,175
10,-1.0031,-0.353,-0.4561,-1.173,-0.35,-0.0402,175
10,-0.8469,-0.3173,-0.5193,-1.1567,-0.3619,-0.0097,175
10,-0.7826,-0.3152,-0.5388,-1.0793,-0.3706,0.0217,175
10,-0.703,-0.2795,-0.5561,-0.7718,-0.3489,0.0872,175
10,-0.5724,0.0347,-0.4142,-0.424,-0.35,0.1875,175
10,-0.4959,0.1622,-0.3785,-0.3128,-0.3292,0.2539,175
10,-0.4244,0.2704,-0.3673,-0.3445,-0.2518,0.2998,175
10,-0.4163,0.3143,-0.3051,-0.3445,-0.2518,0.2998,175
10,-0.4367,0.3755,-0.2643,-0.4753,-0.1396,0.3205,175
10,-0.5193,0.3286,-0.1979,-0.6541,-0.025,0.326,175
10,-0.5193,0.3286,-0.1979,-0.7838,0.0719,0.3052,175
10,-0.5367,0.1234,-0.2265,-1.0412,0.1493,0.3205,175
10,-0.7643,0.0602,-0.2377,-1.0444,0.3031,0.3063,175
10,-0.7786,-0.05,-0.2275,-0.9714,0.3924,0.2998,175
10,-0.8969,-0.1173,-0.2724,-1.1043,0.4611,0.3128,175
10,-1.0295,-0.3152,-0.3428,-1.1545,0.5145,0.2998,175
10,-1.1551,-0.3275,-0.3632,-1.1055,0.5287,0.2768,175
10,-1.1592,-0.4633,-0.2938,-1.1055,0.5287,0.2768,175
10,-1.1592,-0.4633,-0.2938,-0.9136,0.4536,0.0959,175
10,-1.1245,-0.6071,-0.352,-0.7741,0.2899,0.0305,175
10,-1.2071,-0.4571,-0.25,-0.4012,0.1907,0.0774,175
10,-1.1847,-0.4449,-0.3765,-0.2376,0.025,0.0577,175
10,-1.1265,-0.3612,-0.2643,-0.1308,-0.0872,0.0959,175
10,-1.0622,-0.3602,-0.303,-0.0948,-0.1482,0.1384,175
10,-1.0367,-0.2969,-0.3224,0.036,-0.1537,0.1755,175
10,-1.0602,-0.1949,-0.2898,0.2039,-0.157,0.2081,175
10,-1.0826,-0.1357,-0.3122,0.2495,-0.1896,0.2321,175
10,-1.1979,-0.1316,-0.3469,0.2495,-0.1896,0.2321,175
10,-1.1979,-0.1316,-0.3469,0.2518,-0.2169,0.23,175
10,-1.2826,-0.1571,-0.3224,0.2987,-0.2442,0.2104,175
10,-1.3816,-0.1714,-0.3102,0.3761,-0.2976,0.1875,175
10,-1.4275,-0.1867,-0.3112,0.4807,-0.3891,0.1515,175
10,-1.3724,-0.0775,-0.2663,0.6661,-0.4906,0.1242,175
10,-1.3387,0.0347,-0.2194,0.9256,-0.5919,0.1221,175
10,-1.2959,0.105,-0.0765,1.3399,-0.7435,0.1558,175
10,-1.2581,0.9438,0.2612,2.041,-0.797,0.2376,175
10,-1.203,1.0632,0.1938,2.4236,-0.4655,-0.0131,175
10,-1.2316,0.7949,-0.3989,2.4236,-0.4655,-0.0131,175
10,-0.7367,0.8582,-0.3673,1.656,-0.5473,-0.3794,175
10,-0.7367,0.8582,-0.3673,1.3704,-0.6803,-0.3586,175
10,-0.6428,1.0796,-0.2133,1.1501,-0.5713,-0.2495,175
10,-0.605,0.6867,-0.2612,0.2823,-0.6421,-0.2224,175
10,-0.5684,0.4734,-0.1969,-0.1112,-0.5244,-0.1461,175
10,-0.4755,0.0622,0.0428,-0.074,-0.5408,-0.1329,175
10,-0.5806,0.1683,0.0704,0.1984,-0.4153,-0.0087,175
10,-0.552,0.1102,-0.053,0.4055,-0.1842,-0.1732,175
10,-0.5,0.1826,-0.1091,0.4055,-0.1842,-0.1732,175
10,-0.4408,0.2867,-0.0898,0.7108,-0.0021,-0.2878,175
10,-0.4051,0.2316,-0.1938,0.8231,0.1558,-0.2071,175
10,-0.4051,0.2316,-0.1938,0.7369,0.2998,-0.1341,175
10,-0.4194,0.2826,-0.299,0.954,0.496,-0.1297,175
10,-0.4724,0.3989,-0.1755,1.1011,0.569,-0.0763,175
10,-0.5347,0.4796,-0.25,1.0717,0.6159,-0.0152,175
10,-0.6143,0.5316,-0.1908,1.0259,0.6923,0.036,175
10,-0.5969,0.4694,-0.1775,1.015,0.7228,0.0969,175
10,-0.902,0.8,0.0357,0.9648,0.7468,0.194,175
10,-1.0684,0.5908,-0.1326,0.9648,0.7468,0.194,175
10,-1.1214,0.5979,-0.0408,0.5418,0.6672,0.1384,175
10,-1.2326,0.6653,-0.0163,0.3706,0.5887,0.1308,175
10,-1.2326,0.6653,-0.0163,0.3717,0.4851,0.086,175
10,-1.1439,0.5143,-0.0581,0.1471,0.3477,0.0185,175
10,-1.0806,0.4612,-0.101,-0.024,0.2594,-0.0217,175
10,-0.9785,0.504,-0.0847,-0.0294,0.1962,-0.0435,175
10,-0.8898,0.3326,-0.1571,-0.1646,0.1896,-0.0643,175
10,-0.8694,0.3132,-0.1816,-0.1984,0.1831,-0.0883,175
10,-0.8846,0.3439,-0.1449,-0.1286,0.1886,-0.1198,175
10,-0.9316,0.3561,-0.1541,-0.1329,0.1896,-0.1787,175
10,-0.9316,0.3561,-0.1541,-0.1329,0.1896,-0.1787,175
10,-1.0479,0.301,-0.1703,-0.1852,0.1766,-0.255,175
10,-1.0928,0.303,-0.1602,-0.194,0.1406,-0.3302,175
10,-1.1694,0.2888,-0.1571,-0.2071,0.0806,-0.4164,175
10,-1.2255,0.252,-0.15,-0.2627,-0.012,-0.5015,175
10,-1.3204,0.0857,-0.1061,-0.3085,-0.1112,-0.5833,175
10,-1.3928,0.0051,-0.1082,-0.3107,-0.1907,-0.64,175
10,-1.4275,-0.0449,-0.1143,-0.2388,-0.2779,-0.6835,175
10,-1.4163,-0.1326,-0.1714,-0.2005,-0.351,-0.6791,175
10,-1.4092,-0.1653,-0.199,-0.2104,-0.3717,-0.64,175
10,-1.355,-0.1132,-0.1959,-0.2104,-0.3717,-0.64,175
10,-1.355,-0.1132,-0.1959,-0.2321,-0.3848,-0.5908,175
10,-1.2622,-0.3622,-0.2377,-0.3368,-0.3128,-0.5549,175
10,-1.0591,-0.201,-0.2786,-0.2507,-0.3096,-0.3706,175
10,-1.0071,-0.2969,-0.3275,-0.2453,-0.2867,-0.3325,175
10,-0.8479,-0.3612,-0.3877,-0.351,-0.2201,-0.2976,175
10,-0.7561,-0.2775,-0.4724,-0.3761,-0.193,-0.1503,175
10,-0.7438,-0.2438,-0.5367,-0.2539,-0.1503,-0.1057,175
10,-0.6367,-0.1581,-0.553,0.0392,-0.1047,-0.1286,175
10,-0.6428,0.0816,-0.5071,0.0392,-0.1047,-0.1286,175
10,-0.6163,0.353,-0.4122,0.4023,-0.0839,-0.0316,175
11,-0.5755,0.3571,-0.3122,0.5528,-0.0534,0.0282,175
11,-0.5755,0.3571,-0.3122,0.4807,-0.0217,0.0402,175
11,-0.5632,0.352,-0.3336,0.2911,0.0185,0.0566,175
11,-0.6592,0.3846,-0.2949,0.0774,0.0686,0.1798,175
11,-0.7775,0.4857,-0.1979,-0.0654,0.1274,0.181,175
11,-0.8704,0.5153,-0.153,-0.2136,0.1995,0.1428,175
11,-0.9438,0.3857,-0.1449,-0.5287,0.242,0.0751,175
11,-1.0031,0.0326,-0.2571,-0.7359,0.2693,-0.0097,175
11,-1.0031,-0.049,-0.2296,-0.7359,0.2693,-0.0097,175
11,-1.0204,-0.0918,-0.2428,-0.665,0.2562,-0.0894,175
11,-1.0204,-0.0918,-0.2428,-0.6116,0.218,-0.1274,175
11,-1.0306,-0.1887,-0.2459,-0.6442,0.1602,-0.1657,175
11,-1.004,-0.2704,-0.3143,-0.5877,0.0806,-0.1852,175
11,-0.8673,-0.1775,-0.2234,-0.4448,0.0,-0.1886,175
11,-0.8316,-0.3377,-0.2806,-0.4252,-0.0708,-0.1198,175
11,-0.7551,-0.2408,-0.201,-0.3193,-0.0751,-0.0261,175
11,-0.7418,-0.2673,-0.2704,-0.2495,-0.0806,0.073,175
11,-0.7092,-0.2326,-0.2112,-0.2081,-0.0969,0.1787,175
11,-0.704,-0.202,-0.2071,-0.2081,-0.0969,0.1787,175
11,-0.801,-0.1122,-0.151,0.0152,-0.0566,0.3445,175
11,-0.8602,-0.0673,-0.1265,0.0152,-0.0566,0.3445,175
11,-0.903,-0.0652,-0.1061,0.0501,-0.0577,0.3609,175
11,-0.903,-0.0652,-0.1061,0.0152,-0.0545,0.3434,175
11,-1.0347,-0.1153,-0.1061,-0.0141,-0.0457,0.3107,175
11,-1.103,-0.1245,-0.0918,-0.0196,-0.0479,0.2812,175
11,-1.1622,-0.1703,-0.0796,-0.0414,-0.0643,0.2594,175
11,-1.2245,-0.2949,-0.1204,-0.0511,-0.0686,0.231,175
11,-1.2163,-0.3336,-0.1703,0.0065,-0.0664,0.2147,175
11,-1.2133,-0.351,-0.2479,0.1013,-0.0719,0.2049,175
11,-1.1847,-0.3296,-0.2938,0.2071,-0.1253,0.2115,175
11,-1.1551,-0.3469,-0.3582,0.2071,-0.1253,0.2115,175
11,-1.1755,-0.3714,-0.3663,0.2867,-0.1886,0.2125,175
11,-1.1755,-0.3714,-0.3663,0.387,-0.2627,0.206,175
11,-1.1918,-0.3612,-0.3632,0.5799,-0.3422,0.2224,175
11,-1.2347,-0.1949,-0.2194,0.8493,-0.4229,0.2725,175
11,-1.2101,-0.0581,-0.1592,1.0423,-0.4862,0.3357,175
11,-1.2653,0.0755,-0.1377,1.1339,-0.5353,0.4404,175
11,-1.1041,0.1459,-0.0948,1.2232,-0.5635,0.4895,175
11,-0.9694,0.4694,-0.15,1.3214,-0.5047,0.471,175
11,-0.8928,0.5979,-0.2173,1.3214,-0.4502,0.3804,175
11,-0.7745,0.7214,-0.2734,1.3214,-0.4502,0.3804,175
11,-0.6387,0.754,-0.3265,1.292,-0.4284,0.2856,175
11,-0.6387,0.754,-0.3265,1.2386,-0.3838,0.2354,175
11,-0.6377,1.1418,-0.1183,1.099,-0.3227,0.3532,175
11,-0.6887,0.7142,-0.2786,0.3609,-0.2856,0.2682,175
11,-0.6489,0.4949,-0.2101,0.1766,-0.1537,0.1493,175
11,-0.7214,0.4816,-0.0357,0.3979,-0.0326,0.1297,175
11,-0.7326,0.2755,-0.1132,0.3151,0.0774,0.0501,175
11,-0.754,0.0979,-0.1724,0.2136,0.2617,0.0305,175
11,-0.7775,0.1337,-0.1887,0.363,0.3891,0.1264,175
11,-0.7377,0.1163,-0.2571,0.363,0.3891,0.1264,175
11,-0.7377,0.1163,-0.2571,0.5004,0.4797,0.0795,175
11,-0.7326,0.2081,-0.2418,0.7031,0.5408,0.0686,175
11,-0.7183,0.2949,-0.2255,0.8874,0.5767,0.0992,175
11,-0.7326,0.5122,-0.1949,0.942,0.6051,0.1341,175
11,-0.7632,0.5693,-0.2479,0.8613,0.6083,0.1766,175
11,-0.8245,0.701,-0.2133,0.7903,0.628,0.2071,175
11,-0.851,0.7581,-0.2469,0.6333,0.6159,0.1744,175
11,-0.9367,0.85,-0.2092,0.4284,0.5865,0.1722,175
11,-0.9897,0.7938,-0.1735,0.1362,0.5461,0.1657,175
11,-1.0092,0.6928,-0.1571,0.1362,0.5461,0.1657,175
11,-1.0092,0.6928,-0.1571,-0.1221,0.4927,0.098,175
11,-1.0122,0.6122,-0.0612,-0.2344,0.4295,0.037,175
11,-0.9918,0.5551,-0.0367,-0.351,0.3794,-0.0131,175
11,-0.9847,0.4704,-0.0571,-0.4906,0.3422,-0.061,175
11,-0.9622,0.4041,-0.0724,-0.5865,0.3052,-0.0937,175
11,-0.9408,0.2765,-0.1102,-0.6629,0.2834,-0.1089,175
11,-0.9438,0.2285,-0.1316,-0.6988,0.2583,-0.1177,175
11,-0.9449,0.2081,-0.1296,-0.6791,0.2333,-0.1253,175
11,-0.954,0.2153,-0.1245,-0.6791,0.2333,-0.1253,175
11,-1.0031,0.2357,-0.101,-0.6476,0.2169,-0.1396,175
11,-1.0031,0.2357,-0.101,-0.6497,0.2039,-0.1635,175
11,-1.0408,0.2377,-0.0939,-0.6715,0.1919,-0.1798,175
11,-1.0765,0.2367,-0.102,-0.6934,0.1755,-0.2147,175
11,-1.1683,0.199,-0.1612,-0.7108,0.1471,-0.2529,175
11,-1.1969,0.1622,-0.199,-0.7337,0.0948,-0.2954,175
11,-1.2194,0.1224,-0.2224,-0.7457,0.0196,-0.3422,175
11,-1.2449,0.0959,-0.2347,-0.7283,-0.0698,-0.3891,175
11,-1.2551,0.0663,-0.2061,-0.6694,-0.1722,-0.4307,175
11,-1.2418,0.0602,-0.1826,-0.6694,-0.1722,-0.4307,175
11,-1.2194,0.0438,-0.1561,-0.6291,-0.2737,-0.4655,175
11,-1.2194,0.0438,-0.1561,-0.6508,-0.3815,-0.5265,175
11,-1.2388,-0.0092,-0.1775,-0.6737,-0.4458,-0.5408,175
11,-1.2296,-0.0408,-0.0867,-0.6562,-0.4687,-0.5418,175
11,-1.1703,-0.2122,-0.2336,-0.7783,-0.4622,-0.5757,175
11,-1.1744,-0.2877,-0.2847,-0.6835,-0.4044,-0.5036,175
11,-1.1428,-0.2214,-0.2755,-0.5516,-0.3979,-0.3761,175
11,-1.0428,-0.2836,-0.3193,-0.5942,-0.3586,-0.4109,175
11,-0.9796,-0.2908,-0.3785,-0.6247,-0.314,-0.3848,175
11,-0.9071,-0.3132,-0.3949,-0.6247,-0.314,-0.3848,175
11,-0.9071,-0.3132,-0.3949,-0.652,-0.2693,-0.2823,175
11,-0.8663,-0.3591,-0.5081,-0.5996,-0.2136,-0.1722,175
11,-0.8041,-0.3255,-0.5051,-0.3575,-0.2049,-0.0904,175
11,-0.7377,-0.1602,-0.4592,-0.0011,-0.2104,0.0141,175
11,-0.6857,0.1061,-0.303,0.2638,-0.2005,0.1079,175
11,-0.6571,0.3316,-0.2734,0.3466,-0.2016,0.2159,175
11,-0.5704,0.3928,-0.1326,0.2409,-0.2093,0.2834,175
11,-0.5643,0.3755,-0.1632,-0.1264,-0.1198,0.2485,175
11,-0.6908,0.4285,-0.1642,-0.4426,-0.049,0.2115,175
11,-0.6183,0.2622,-0.252,-0.4426,-0.049,0.2115,175
11,-0.6183,0.2622,-0.252,-0.7184,-0.0664,0.2104,175
11,-0.6408,0.0867,-0.2643,-0.9168,-0.0294,0.1962,175
11,-0.6275,0.0031,-0.2734,-0.8264,0.0392,0.1875,175
11,-0.7051,-0.0479,-0.3316,-0.7304,0.1526,0.1732,175
11,-0.6724,-0.0857,-0.2643,-0.702,0.2464,0.169,175
11,-0.7693,-0.1285,-0.3152,-0.714,0.326,0.1787,175
11,-0.8122,-0.2816,-0.2795,-0.7108,0.3271,0.1461,175
11,-0.9867,-0.2285,-0.3193,-0.6944,0.3161,0.1711,175
11,-0.8867,-0.5031,-0.2224,-0.6159,0.2562,0.1417,175
11,-1.0928,-0.4163,-0.3694,-0.6159,0.2562,0.1417,175
12,-1.1194,-0.251,-0.1785,-0.4012,0.267,0.1711,175
12,-1.1194,-0.251,-0.1785,-0.0654,0.1886,0.193,175
12,-1.1245,-0.2163,-0.2122,-0.0185,0.157,0.2333,175
12,-1.1387,-0.1581,-0.2245,-0.0097,0.0904,0.2954,175
12,-1.1765,-0.0388,-0.2551,0.0043,0.0523,0.3477,175
12,-1.2101,-0.0275,-0.2908,-0.0097,0.0326,0.3641,175
12,-1.2092,0.0153,-0.2826,0.0316,-0.0206,0.3641,175
12,-1.2204,0.0632,-0.2693,0.0305,-0.0959,0.3586,175
12,-1.2092,0.0102,-0.3,-0.061,-0.1558,0.3205,175
12,-1.1857,-0.0173,-0.3112,-0.061,-0.1558,0.3205,175
12,-1.1785,-0.0214,-0.3071,-0.0872,-0.2159,0.2594,175
12,-1.1785,-0.0214,-0.3071,-0.0469,-0.3019,0.1951,175
12,-1.152,-0.0836,-0.3367,-0.0523,-0.399,0.1155,175
12,-1.1337,-0.1326,-0.3132,-0.025,-0.495,0.0326,175
12,-1.1153,-0.1857,-0.2775,0.049,-0.5919,-0.049,175
12,-1.0857,-0.251,-0.2459,0.1373,-0.6726,-0.1155,175
12,-1.0255,-0.3969,-0.2265,0.3107,-0.701,-0.1482,175
12,-1.0112,-0.3163,-0.1837,0.6301,-0.6966,-0.1144,175
12,-0.9857,-0.1928,-0.0979,0.6301,-0.6966,-0.1144,175
12,-0.9601,0.0255,0.0561,1.5645,-0.5341,0.2649,175
12,-0.901,0.3377,0.2959,2.1434,-0.4349,0.4851,175
12,-0.852,0.7092,0.1489,2.1434,-0.4349,0.4851,175
12,-0.852,0.7092,0.1489,2.3887,-0.218,0.544,175
12,-0.9367,0.7949,-0.1755,1.9559,-0.1352,0.2485,175
12,-0.7224,1.0306,-0.402,1.6169,-0.2159,0.181,175
12,-0.6816,1.4377,-0.3152,1.3628,-0.2333,0.2844,175
12,-0.8051,0.9357,-0.1908,0.5931,-0.1286,0.0206,175
12,-0.7795,0.9592,0.1367,0.4502,-0.0828,0.1047,175
12,-0.699,0.5898,0.051,0.2725,0.0076,-0.0937,175
12,-0.6744,0.355,-0.0336,0.2365,0.0425,-0.2333,175
12,-0.6735,0.5551,-0.0673,0.2365,0.0425,-0.2333,175
12,-0.65,0.4357,-0.2306,0.507,0.2376,-0.2791,175
12,-0.65,0.4357,-0.2306,0.339,0.3565,-0.2344,175
12,-0.7194,0.3765,-0.3081,0.3107,0.4884,-0.194,175
12,-0.6561,0.4888,-0.2388,0.4513,0.5179,-0.1024,175
12,-0.7194,0.3846,-0.1703,0.3466,0.5385,-0.0381,175
12,-0.7714,0.3898,-0.1418,0.3314,0.52,0.0392,175
12,-0.8439,0.5112,-0.0469,0.4611,0.5036,0.1155,175
12,-0.9081,0.5989,-0.0326,0.3935,0.4753,0.1798,175
12,-1.0398,0.6337,-0.0857,0.2495,0.4448,0.2256,175
12,-1.0714,0.6979,-0.0796,0.2495,0.4448,0.2256,175
12,-1.0704,0.7051,-0.0898,0.1657,0.4164,0.2518,175
12,-1.0704,0.7051,-0.0898,0.0021,0.3685,0.242,175
12,-1.0571,0.6102,-0.0908,-0.1875,0.3096,0.1995,175
12,-1.0408,0.603,-0.0612,-0.2714,0.2474,0.1341,175
12,-1.0132,0.5663,-0.0418,-0.3477,0.1984,0.0534,175
12,-0.999,0.5214,-0.0347,-0.4109,0.169,-0.0425,175
12,-0.9449,0.4653,-0.0408,-0.4666,0.1503,-0.1515,175
12,-0.9398,0.4428,-0.0449,-0.5059,0.1526,-0.2224,175
12,-0.9428,0.4163,-0.0745,-0.5799,0.1558,-0.2867,175
12,-0.9714,0.3163,-0.1418,-0.5799,0.1558,-0.2867,175
12,-0.9714,0.3163,-0.1418,-0.6541,0.1526,-0.3456,175
12,-1.0061,0.3122,-0.153,-0.653,0.1373,-0.3968,175
12,-1.0173,0.3173,-0.1622,-0.6388,0.1177,-0.4404,175
12,-1.0408,0.3122,-0.1724,-0.6432,0.0894,-0.4851,175
12,-1.0581,0.3041,-0.2163,-0.6562,0.0479,-0.52,175
12,-1.0418,0.3143,-0.204,-0.6705,-0.0076,-0.5593,175
12,-1.0551,0.3041,-0.1969,-0.7152,-0.0751,-0.6062,175
12,-1.0765,0.2908,-0.1663,-0.7882,-0.1547,-0.652,175
12,-1.1367,0.2214,-0.1102,-0.8689,-0.2321,-0.6944,175
12,-1.1724,0.1703,-0.15,-0.8689,-0.2321,-0.6944,175
12,-1.1724,0.1703,-0.15,-0.9485,-0.2878,-0.7163,175
12,-1.2388,0.1071,-0.1642,-1.0597,-0.2844,-0.6835,175
12,-1.4326,-0.1377,-0.2418,-1.2047,-0.2453,-0.6301,175
12,-1.4633,-0.2255,-0.2979,-1.3834,-0.1984,-0.5854,175
12,-1.5877,-0.2459,-0.3959,-1.5055,-0.218,-0.5919,175
12,-1.2806,-0.4592,-0.3439,-1.6539,-0.2899,-0.5887,175
12,-1.1663,-0.4449,-0.6663,-1.5906,-0.2573,-0.4404,175
12,-0.9377,-0.5071,-0.5847,-1.1938,-0.4055,-0.3946,175
12,-0.9102,-0.4847,-0.6112,-0.8733,-0.5112,-0.2703,175
12,-0.5745,-0.1735,-0.4275,-0.8733,-0.5112,-0.2703,175
12,-0.5326,-0.0836,-0.3989,-0.4622,-0.6301,-0.1972,175
12,-0.5326,-0.0836,-0.3989,-0.2703,-0.6072,-0.1744,175
12,-0.4561,0.0081,-0.3286,-0.0959,-0.581,-0.1286,175
12,-0.3959,0.101,-0.2816,0.0839,-0.5604,-0.0326,175
12,-0.2306,0.3918,-0.0459,0.1396,-0.5015,0.0654,175
12,-0.2786,0.3939,-0.0918,-0.181,-0.2878,0.0621,175
12,-0.3102,0.3204,-0.1551,-0.5538,-0.0937,0.1308,175
12,-0.5143,0.251,-0.1775,-0.7413,0.049,0.2191,175
12,-0.5428,0.105,-0.202,-0.7413,0.049,0.2191,175
12,-0.6316,-0.0143,-0.2336,-0.8897,0.1722,0.2518,175
12,-0.7204,-0.0051,-0.1642,-0.9528,0.2976,0.2768,175
12,-0.7204,-0.0051,-0.1642,-0.8775,0.3946,0.3227,175
12,-0.8377,-0.1847,-0.2081,-0.8842,0.4448,0.387,175
12,-0.951,-0.2326,-0.2745,-0.9769,0.4906,0.3183,175
12,-0.999,-0.2428,-0.2224,-0.8994,0.508,0.2344,175
12,-0.9796,-0.4418,-0.1847,-0.8416,0.4927,0.1515,175
12,-1.1847,-0.4918,-0.2571,-0.6028,0.4818,0.1722,175
12,-1.1744,-0.5153,-0.3224,-0.3477,0.3466,0.1232,175
12,-1.2183,-0.3949,-0.3612,-0.1253,0.2201,0.1449,175
12,-1.2183,-0.3949,-0.3612,-0.1253,0.2201,0.1449,175
12,-1.0775,-0.1928,-0.3112,-0.025,0.0751,0.2093,175
12,-1.0775,-0.1928,-0.3112,-0.0469,-0.0152,0.2573,175
12,-1.0479,-0.1163,-0.2693,0.0349,-0.0959,0.2976,175
12,-0.9918,-0.0408,-0.2081,0.0501,-0.1635,0.3368,175
12,-1.0112,-0.0193,-0.1622,0.0217,-0.1766,0.3456,175
12,-1.0591,-0.004,-0.1469,0.0272,-0.1842,0.35,175
12,-1.1122,0.0112,-0.1265,0.0076,-0.193,0.3542,175
12,-1.2428,-0.103,-0.2061,-0.074,-0.1798,0.3248,175
12,-1.302,-0.1581,-0.2245,-0.1198,-0.193,0.2998,175
12,-1.302,-0.1581,-0.2245,-0.1198,-0.193,0.2998,175
12,-1.3826,-0.2173,-0.252,-0.1198,-0.231,0.2714,175
12,-1.4734,-0.3184,-0.2377,-0.074,-0.2998,0.231,175
12,-1.6387,-0.4755,-0.2877,0.0621,-0.3729,0.2159,175
12,-1.6632,-0.4765,-0.3132,0.3227,-0.4775,0.2409,175
12,-1.6112,-0.3408,-0.3275,0.6803,-0.5974,0.2737,175
12,-1.4999,-0.1153,-0.3336,0.9626,-0.7098,0.3237,175
12,-1.0224,0.0867,-0.2296,1.1621,-0.8307,0.3521,175
12,-0.8051,0.2,-0.2071,1.2592,-0.9048,0.4197,175
12,-0.6826,0.2693,-0.1857,1.2592,-0.9048,0.4197,175
13,-0.4918,0.6796,0.0388,1.5219,-0.9082,0.4065,175
13,-0.4918,0.6796,0.0388,1.9068,-0.9017,0.2409,175
13,-0.3745,0.8245,0.0469,2.0562,-0.7806,-0.0141,175
13,-0.3061,0.8846,-0.0122,2.0387,-0.6377,0.037,175
13,-0.6112,1.504,0.2194,1.6211,-0.581,0.2791,175
13,-0.6,0.7795,0.0479,0.6247,-0.3096,-0.0414,175
13,-0.549,0.6357,0.0734,0.4622,-0.11,0.0698,175
13,-0.6837,0.4683,0.0877,0.4175,0.1852,-0.0021,175
13,-0.7122,0.2551,0.0438,0.4175,0.1852,-0.0021,175
13,-0.7806,0.2296,-0.0336,0.5331,0.3903,-0.0162,175
13,-0.6908,0.1837,-0.1194,0.64,0.5505,-0.0446,175
13,-0.6908,0.1837,-0.1194,0.7489,0.6421,-0.1167,175
13,-0.6938,0.1959,-0.1642,0.9299,0.6966,-0.1602,175
13,-0.6653,0.2786,-0.2173,1.0738,0.6901,-0.182,175
13,-0.653,0.4071,-0.2163,1.2058,0.6682,-0.1766,175
13,-0.6755,0.5561,-0.1551,1.2211,0.6606,-0.1503,175
13,-0.6847,0.602,-0.1653,1.0673,0.6411,-0.1198,175
13,-0.7479,0.703,-0.1398,0.9572,0.6541,-0.0566,175
13,-0.8132,0.7561,-0.1204,0.871,0.6749,-0.0162,175
13,-0.9551,0.8347,-0.0602,0.5582,0.6541,0.0501,175
13,-1.0112,0.7918,-0.0775,0.3466,0.6051,0.0511,175
13,-1.0663,0.7499,-0.0745,0.3466,0.6051,0.0511,175
13,-1.0663,0.7499,-0.0745,0.1602,0.5287,0.0392,175
13,-1.0918,0.704,-0.0867,-0.0185,0.424,0.0185,175
13,-1.1418,0.5581,-0.1275,-0.1919,0.3281,-0.0174,175
13,-1.1296,0.499,-0.103,-0.2878,0.2333,-0.0511,175
13,-1.1234,0.4408,-0.0918,-0.3434,0.1623,-0.0959,175
13,-1.1173,0.3949,-0.0295,-0.3663,0.1242,-0.1428,175
13,-1.1285,0.3755,-0.0316,-0.3903,0.0969,-0.1896,175
13,-1.1459,0.3469,-0.0541,-0.4307,0.0795,-0.2442,175
13,-1.1683,0.3286,-0.0673,-0.4448,0.0555,-0.2987,175
13,-1.1857,0.3061,-0.0908,-0.4448,0.0555,-0.2987,175
13,-1.1877,0.3193,-0.0989,-0.4469,0.012,-0.35,175
13,-1.1877,0.3193,-0.0989,-0.4414,-0.0457,-0.3979,175
13,-1.1837,0.3398,-0.1,-0.4448,-0.1024,-0.4437,175
13,-1.1683,0.355,-0.105,-0.4841,-0.169,-0.495,175
13,-1.1428,0.3448,-0.1357,-0.544,-0.2268,-0.544,175
13,-1.1408,0.3387,-0.1296,-0.6018,-0.2834,-0.5931,175
13,-1.1337,0.3173,-0.1387,-0.6705,-0.339,-0.6421,175
13,-1.102,0.249,-0.1173,-0.7533,-0.4044,-0.689,175
13,-1.1367,0.1938,-0.102,-0.8449,-0.4589,-0.7327,175
13,-1.1642,0.1337,-0.0979,-0.8449,-0.4589,-0.7327,175
13,-1.1694,0.0663,-0.105,-0.9278,-0.4851,-0.7544,175
13,-1.1694,0.0663,-0.105,-0.9921,-0.483,-0.7501,175
13,-1.1837,-0.1255,-0.152,-1.0488,-0.4372,-0.6999,175
13,-1.1673,-0.2071,-0.1541,-1.136,-0.3903,-0.6203,175
13,-1.2816,-0.1602,-0.2449,-1.2756,-0.3477,-0.5996,175
13,-0.9449,-0.5745,-0.2877,-1.4773,-0.3706,-0.6465,175
13,-1.0551,-0.4153,-0.551,-1.7052,-0.2911,-0.4492,175
13,-0.902,-0.5898,-0.4826,-1.4435,-0.3085,-0.3575,175
13,-0.9194,-0.5377,-0.5714,-1.4435,-0.3085,-0.3575,175
13,-0.9194,-0.5377,-0.5714,-1.0095,-0.3445,-0.1701,175
13,-0.6663,-0.1765,-0.3377,-0.5658,-0.4742,0.025,175
13,-0.6663,-0.1765,-0.3377,-0.3663,-0.5112,0.1755,175
13,-0.6204,-0.1224,-0.3347,-0.3271,-0.4763,0.255,175
13,-0.5755,0.0051,-0.1949,-0.2529,-0.4492,0.3314,175
13,-0.5428,0.0755,-0.1479,-0.2115,-0.412,0.4023,175
13,-0.5214,0.0908,-0.1091,-0.2485,-0.2932,0.387,175
13,-0.5357,0.0847,-0.1326,-0.3979,-0.1112,0.3052,175
13,-0.5836,-0.0347,-0.2438,-0.5854,0.0479,0.2398,175
13,-0.6041,-0.0877,-0.254,-0.5854,0.0479,0.2398,175
13,-0.6041,-0.0877,-0.254,-0.6323,0.1711,0.2125,175
13,-0.6275,-0.1377,-0.2857,-0.6203,0.2758,0.1896,175
13,-0.6673,-0.2142,-0.2959,-0.6181,0.3477,0.1831,175
13,-0.7826,-0.4092,-0.3561,-0.5505,0.4153,0.1852,175
13,-0.8714,-0.3918,-0.3448,-0.3227,0.4208,0.2617,175
13,-0.9357,-0.3479,-0.254,-0.0839,0.3717,0.3314,175
13,-1.0663,-0.2969,-0.1735,0.0349,0.3073,0.4044,175
13,-1.1071,-0.3061,-0.2153,0.0534,0.2191,0.4568,175
13,-1.1469,-0.2285,-0.2194,0.1373,0.1515,0.5091,175
13,-1.1755,-0.0989,-0.1918,0.1373,0.1515,0.5091,175
13,-1.1479,0.05,-0.1642,0.2224,0.074,0.5582,175
13,-1.1479,0.05,-0.1642,0.194,-0.024,0.5669,175
13,-1.1173,0.0541,-0.1806,0.1264,-0.0795,0.5299,175
13,-1.0786,0.0775,-0.1918,0.0719,-0.1047,0.5059,175
13,-1.0418,0.0663,-0.1938,0.0174,-0.1253,0.4775,175
13,-1.0418,0.0245,-0.1959,-0.0305,-0.1417,0.4307,175
13,-1.0612,-0.0295,-0.2071,-0.0392,-0.1623,0.375,175
13,-1.1153,-0.0622,-0.2153,0.0087,-0.1787,0.3193,175
13,-1.2918,-0.1622,-0.1357,0.0087,-0.1787,0.3193,175
13,-1.4235,-0.2428,-0.1255,0.0599,-0.2115,0.2627,175
13,-1.5367,-0.3265,-0.1592,0.1013,-0.2453,0.2125,175
13,-1.5367,-0.3265,-0.1592,0.231,-0.2834,0.1852,175
13,-1.6082,-0.249,-0.1816,0.5036,-0.3695,0.1864,175
13,-1.5306,-0.0204,-0.2245,0.7947,-0.5036,0.1755,175
13,-1.3775,0.105,-0.25,0.9931,-0.6715,0.1852,175
13,-1.1857,0.3204,-0.2724,1.1513,-0.8296,0.2027,175
13,-0.8837,0.6296,-0.1632,1.2865,-0.9365,0.1308,175
13,-0.7224,0.7806,-0.0449,1.3399,-1.0259,0.0076,175
13,-0.6,0.8408,0.0316,1.3595,-1.0684,-0.1352,175
13,-0.3683,0.7122,0.1061,1.3595,-1.0684,-0.1352,175
13,-0.3357,1.3408,0.7173,1.462,-1.0248,-0.0305,175
13,-0.3357,1.3408,0.7173,1.5547,-0.9822,0.4414,175
13,-0.454,0.6439,0.1275,0.6072,-0.6749,0.1384,175
13,-0.3796,0.4642,0.1449,-0.1449,-0.6367,0.0349,175
13,-0.5786,0.1969,0.0918,-0.0708,-0.3609,0.0664,175
13,-0.6408,0.1806,0.0847,0.1984,-0.11,0.0206,175
13,-0.6632,0.2397,0.1041,0.3542,0.0631,0.0326,175
13,-0.7194,0.1826,0.1408,0.3205,0.2333,0.0566,175
13,-0.7581,0.1183,-0.0408,0.4263,0.4012,0.1024,175
13,-0.7581,0.1183,-0.0408,0.4263,0.4012,0.1024,175
13,-0.6928,0.2449,-0.049,0.7304,0.5374,0.1396,175
13,-0.701,0.4112,-0.0612,0.9397,0.6268,0.1428,175
13,-0.7051,0.4592,-0.1041,0.8994,0.6171,0.1373,175
13,-0.6765,0.5622,-0.0612,0.871,0.6083,0.1449,175
13,-0.7122,0.7173,-0.0224,0.8962,0.5996,0.1558,175
13,-0.7836,0.855,0.0163,0.8012,0.6072,0.1678,175
13,-0.802,0.8571,0.0347,0.5974,0.6171,0.1657,175
13,-0.8377,0.8398,-0.0183,0.4338,0.6617,0.2005,175
13,-0.8898,0.8541,-0.0092,0.3412,0.6944,0.206,175
14,-0.9398,0.8448,-0.0081,0.3412,0.6944,0.206,175
14,-0.9398,0.8448,-0.0081,0.1919,0.6966,0.193,175
14,-1.0459,0.6469,0.0,-0.0272,0.6672,0.1701,175
14,-1.0959,0.5632,0.004,-0.1482,0.6072,0.1308,175
14,-1.1449,0.5398,0.0173,-0.1537,0.5429,0.0806,175
14,-1.1694,0.4469,-0.0031,-0.2071,0.4589,0.0272,175
14,-1.1367,0.4183,-0.0092,-0.2573,0.3838,-0.0185,175
14,-1.0898,0.4255,0.0031,-0.2682,0.3128,-0.0545,175
14,-1.052,0.4357,0.002,-0.2911,0.2758,-0.0894,175
14,-0.9888,0.4847,0.0286,-0.3073,0.2617,-0.1286,175
14,-0.9612,0.5286,0.0551,-0.3073,0.2617,-0.1286,175
14,-0.949,0.551,0.0643,-0.3227,0.2627,-0.1701,175
14,-0.949,0.551,0.0643,-0.3903,0.2791,-0.2201,175
14,-0.9551,0.5612,0.0153,-0.4643,0.3019,-0.2693,175
14,-0.9928,0.5745,-0.0867,-0.5408,0.3128,-0.314,175
14,-1.0102,0.5245,-0.1337,-0.653,0.2976,-0.3663,175
14,-1.0224,0.4857,-0.153,-0.7478,0.255,-0.4187,175
14,-1.0826,0.4061,-0.1714,-0.8275,0.1919,-0.4775,175
14,-1.1102,0.3673,-0.1908,-0.8885,0.1177,-0.5396,175
14,-1.1387,0.2173,-0.0857,-1.0717,-0.0446,-0.6846,175
14,-1.3041,0.049,-0.1357,-1.1676,-0.0795,-0.6944,175
14,-1.3408,-0.0275,-0.1418,-1.2287,-0.0784,-0.7184,175
14,-1.3408,-0.0275,-0.1418,-1.2287,-0.0784,-0.7184,175
14,-1.4408,-0.1632,-0.1826,-1.3344,-0.0402,-0.7217,175
14,-1.4398,-0.2377,-0.3051,-1.4838,-0.0631,-0.6596,175
14,-1.152,-0.5357,-0.353,-1.5526,-0.0925,-0.6694,175
14,-1.2081,-0.4653,-0.5102,-1.7096,-0.1079,-0.5473,175
14,-1.0143,-0.4357,-0.6122,-1.4227,-0.1558,-0.4589,175
14,-0.853,-0.3745,-0.5591,-0.8929,-0.2245,-0.3456,175
14,-0.7296,-0.1785,-0.3867,-0.3248,-0.2922,-0.2659,175
14,-0.6469,-0.0102,-0.3204,-0.1079,-0.3073,-0.1864,175
14,-0.5286,0.1775,-0.2071,-0.1079,-0.3073,-0.1864,175
14,-0.4755,0.2275,-0.1867,-0.1123,-0.255,-0.1057,175
14,-0.4755,0.2275,-0.1867,-0.1537,-0.169,-0.0316,175
14,-0.4612,0.3306,-0.1949,-0.2234,-0.0806,0.0021,175
14,-0.4847,0.4041,-0.202,-0.3314,0.0414,0.0043,175
14,-0.5745,0.351,-0.2653,-0.5908,0.1449,0.024,175
14,-0.6285,0.1969,-0.2938,-0.8656,0.2453,0.0469,175
14,-0.6714,0.052,-0.3193,-0.9845,0.3151,0.0326,175
14,-0.7173,-0.0051,-0.2724,-0.9321,0.375,0.0097,175
14,-0.8377,-0.1,-0.2704,-0.9321,0.375,0.0097,175
14,-0.8632,-0.1928,-0.301,-0.9071,0.4208,0.0294,175
14,-0.9275,-0.1642,-0.2795,-0.9124,0.483,-0.0053,175
14,-0.9275,-0.1642,-0.2795,-0.8504,0.4807,-0.0326,175
14,-0.9724,-0.4194,-0.299,-0.8176,0.4458,-0.0774,175
14,-1.1234,-0.454,-0.3377,-0.6803,0.471,-0.0097,175
14,-1.0836,-0.4642,-0.2918,-0.4153,0.35,-0.0414,175
14,-1.101,-0.3704,-0.2888,-0.1972,0.2344,-0.025,175
14,-1.0581,-0.3184,-0.2755,-0.1318,0.1373,0.0196,175
14,-1.0193,-0.2816,-0.2908,-0.0806,0.0784,0.0631,175
14,-1.002,-0.1551,-0.2326,0.0686,0.0174,0.1047,175
14,-0.9653,-0.0836,-0.2133,0.0686,0.0174,0.1047,175
14,-0.9888,-0.0714,-0.2224,0.0566,-0.0425,0.1417,175
14,-0.9888,-0.0714,-0.2224,0.025,-0.0675,0.1515,175
14,-1.0347,-0.0265,-0.1857,0.0774,-0.1003,0.1667,175
14,-1.0755,0.0,-0.1428,0.061,-0.1406,0.1875,175
14,-1.1887,-0.0796,-0.1275,-0.0206,-0.1438,0.1602,175
14,-1.2643,-0.1337,-0.1551,-0.0894,-0.1308,0.1297,175
14,-1.3132,-0.1775,-0.1714,-0.0818,-0.1396,0.11,175
14,-1.353,-0.2071,-0.199,-0.037,-0.1537,0.0937,175
14,-1.4041,-0.2714,-0.2632,0.0043,-0.1875,0.073,175
14,-1.4041,-0.2714,-0.2632,0.0043,-0.1875,0.073,175
14,-1.4326,-0.3347,-0.2867,0.0698,-0.2507,0.036,175
14,-1.453,-0.3765,-0.2836,0.1951,-0.35,0.0141,175
14,-1.3887,-0.3949,-0.352,0.3859,-0.4502,-0.0097,175
14,-1.2826,-0.2622,-0.3245,0.6682,-0.5669,-0.0152,175
14,-1.1316,-0.0898,-0.2734,0.9408,-0.6749,0.0076,175
14,-1.0265,0.0224,-0.2336,1.0357,-0.7522,0.0959,175
14,-0.7847,0.1275,-0.0796,1.1131,-0.8122,0.1613,175
14,-0.7499,0.2795,0.0204,1.4435,-0.7632,0.2049,175
14,-0.7377,0.3898,0.1928,1.9395,-0.7043,0.2682,175
14,-0.7,1.1337,0.302,1.9395,-0.7043,0.2682,175
14,-0.7,1.1337,0.302,2.2972,-0.5418,0.2899,175
14,-0.8245,0.6837,-0.1398,1.8349,-0.2747,0.0763,175
14,-0.5847,0.9122,-0.0214,1.2363,-0.3019,0.1776,175
14,-0.5714,1.0561,-0.1826,0.9943,-0.1068,0.0992,175
14,-0.7092,0.5183,-0.0581,0.5364,0.0501,0.036,175
14,-0.799,0.504,-0.0153,0.4426,0.074,0.1984,175
14,-0.7877,0.3296,0.0959,0.4055,0.2115,0.0294,175
14,-0.7622,0.1785,-0.0591,0.5145,0.2768,-0.073,175
14,-0.7245,0.2755,-0.0796,0.7195,0.3826,-0.0872,175
14,-0.6908,0.251,-0.1622,0.7195,0.3826,-0.0872,175
14,-0.6775,0.2571,-0.2142,0.7403,0.4338,-0.0915,175
14,-0.6775,0.2571,-0.2142,0.8024,0.4687,-0.0643,175
14,-0.651,0.4194,-0.1775,0.9082,0.483,-0.0152,175
14,-0.6673,0.4438,-0.1744,0.9005,0.5015,0.0435,175
14,-0.6847,0.5173,-0.1592,0.8863,0.5145,0.1024,175
14,-0.7224,0.6316,-0.1071,0.8613,0.5341,0.1613,175
14,-0.8112,0.7673,-0.0704,0.7174,0.5484,0.2169,175
14,-0.8694,0.7704,-0.0734,0.5233,0.5582,0.2562,175
14,-0.9235,0.7581,-0.0561,0.5233,0.5582,0.2562,175
14,-1.0326,0.6857,-0.0551,0.3336,0.545,0.2703,175
14,-1.0796,0.6234,-0.0438,0.1515,0.508,0.2539,175
14,-1.0796,0.6234,-0.0438,-0.0174,0.4437,0.2147,175
14,-1.1163,0.5612,-0.0469,-0.1406,0.363,0.1591,175
14,-1.1275,0.5071,-0.049,-0.23,0.2823,0.098,175
14,-1.1061,0.4326,-0.0541,-0.2834,0.1984,0.0337,175
14,-1.0806,0.3806,-0.053,-0.339,0.1329,-0.0261,175
14,-1.0459,0.3326,-0.0367,-0.3826,0.0818,-0.0828,175
14,-1.0143,0.302,-0.0183,-0.412,0.0534,-0.1526,175
14,-0.9796,0.2775,-0.0163,-0.412,0.0534,-0.1526,175
14,-0.9796,0.2775,-0.0163,-0.424,0.0414,-0.2039,175
14,-0.9908,0.2592,-0.0541,-0.4393,0.0381,-0.2464,175
14,-0.9908,0.2592,-0.0541,-0.4753,0.0272,-0.2888,175
14,-1.0438,0.2326,-0.101,-0.4938,0.0076,-0.3336,175
14,-1.0581,0.2255,-0.1061,-0.4938,-0.0261,-0.3826,175
14,-1.0673,0.2051,-0.1112,-0.5036,-0.074,-0.4361,175
14,-1.0571,0.1673,-0.1143,-0.5167,-0.1362,-0.4938,175
14,-1.0428,0.1418,-0.0684,-0.5059,-0.1972,-0.5473,175
14,-1.05,0.1398,-0.052,-0.4971,-0.2485,-0.5931,175
15,-1.0336,0.0989,-0.05,-0.5374,-0.2878,-0.6301,175
15,-1.0336,0.0989,-0.05,-0.5374,-0.2878,-0.6301,175
15,-1.1408,0.051,-0.0051,-0.5713,-0.3073,-0.6301,175
15,-1.2285,-0.0061,-0.0071,-0.6072,-0.2954,-0.6562,175
15,-1.3132,-0.0989,-0.0765,-0.6901,-0.2321,-0.6944,175
15,-1.3959,-0.1724,-0.1296,-0.7304,-0.1449,-0.6574,175
15,-1.3041,-0.4694,-0.3683,-0.8187,-0.1428,-0.6562,175
15,-1.2755,-0.603,-0.501,-0.8504,-0.0435,-0.5385,175
15,-1.3152,-0.3969,-0.501,-0.4164,-0.1133,-0.267,175
15,-1.0561,-0.5428,-0.3745,-0.2987,-0.2867,-0.2878,175
15,-0.8602,-0.3306,-0.552,-0.2987,-0.2867,-0.2878,175
15,-0.7979,-0.1979,-0.352,-0.1123,-0.2617,-0.1396,175
15,-0.7979,-0.1979,-0.352,0.1886,-0.3466,0.0087,175
15,-0.7428,-0.1234,-0.3826,0.2169,-0.35,0.1362,175
15,-0.6091,0.1602,-0.2245,0.2888,-0.3761,0.2453,175
15,-0.5806,0.2612,-0.2326,0.2758,-0.3183,0.3041,175
15,-0.5765,0.3448,-0.1857,0.1657,-0.2104,0.3466,175
15,-0.5948,0.3602,-0.1653,0.0065,-0.1013,0.375,175
15,-0.6735,0.2795,-0.1683,-0.1547,0.0131,0.3532,175
15,-0.7795,0.2142,-0.2133,-0.2791,0.2388,0.2354,175
15,-0.8602,0.0622,-0.252,-0.35,0.3107,0.1755,175
15,-0.9112,-0.0367,-0.2581,-0.388,0.3586,0.1123,175
15,-0.9469,-0.1082,-0.25,-0.388,0.3586,0.1123,175
15,-0.9469,-0.1082,-0.25,-0.3729,0.3477,0.0698,175
15,-0.9755,-0.1581,-0.2918,-0.2888,0.3107,0.049,175
15,-0.9847,-0.1153,-0.2673,-0.1396,0.2398,0.0545,175
15,-1.002,0.0132,-0.2969,-0.0566,0.1623,0.0795,175
15,-1.0132,0.1255,-0.1296,-0.0097,0.049,0.1232,175
15,-0.8632,-0.0367,-0.2438,-0.1962,-0.0162,0.1438,175
15,-0.8132,0.151,-0.1163,-0.1286,-0.0021,0.1787,175
15,-0.7928,0.1918,-0.0908,-0.1068,-0.0108,0.2136,175
15,-0.7918,0.0561,-0.1714,-0.2954,0.012,0.2201,175
15,-0.8286,0.0663,-0.1143,-0.2954,0.012,0.2201,175
15,-0.8286,0.0663,-0.1143,-0.2834,0.0043,0.2201,175
15,-0.8591,-0.0143,-0.1346,-0.3183,-0.0043,0.2191,175
15,-0.9244,-0.0867,-0.1694,-0.363,-0.0065,0.2027,175
15,-0.9642,-0.0652,-0.1377,-0.2976,-0.0185,0.1907,175
15,-1.0581,-0.1714,-0.1306,-0.3237,-0.025,0.1766,175
15,-1.1143,-0.2377,-0.153,-0.2998,-0.0272,0.1526,175
15,-1.1622,-0.249,-0.1755,-0.1667,-0.0185,0.1362,175
15,-1.2867,-0.2449,-0.2071,-0.0511,-0.0282,0.1274,175
15,-1.35,-0.2724,-0.2133,0.0349,-0.049,0.1133,175
15,-1.4194,-0.2816,-0.2316,0.0349,-0.049,0.1133,175
15,-1.4969,-0.2683,-0.3387,0.1209,-0.1003,0.1286,175
15,-1.4969,-0.2683,-0.3387,0.23,-0.157,0.1503,175
15,-1.4877,-0.0367,-0.3255,0.4775,-0.2911,0.1755,175
15,-1.4897,0.15,-0.3193,0.6803,-0.4372,0.2354,175
15,-1.2836,0.2479,-0.2775,0.7871,-0.5919,0.2659,175
15,-0.9694,0.5214,-0.1479,0.8242,-0.713,0.2714,175
15,-0.8112,0.551,-0.0571,0.7827,-0.7937,0.2365,175
15,-0.7306,0.6439,0.0193,0.8384,-0.7915,0.1449,175
15,-0.5979,0.7755,0.1153,0.8132,-0.7642,0.085,175
15,-0.5806,0.7469,0.0051,0.8132,-0.7642,0.085,175
15,-0.3877,0.6255,0.202,0.6541,-0.6814,0.2136,175
15,-0.3877,0.6255,0.202,0.5516,-0.6291,0.3903,175
15,-0.5122,0.5357,0.0336,0.3302,-0.4263,0.242,175
15,-0.5204,0.353,0.151,0.0087,-0.3292,0.2049,175
15,-0.5286,0.0367,0.0898,0.0414,-0.1188,0.2234,175
15,-0.6887,0.0326,-0.0591,0.1951,0.1482,0.1995,175
15,-0.6102,0.053,-0.0204,0.4065,0.242,0.1384,175
15,-0.6224,0.0847,-0.0428,0.5702,0.3794,0.0948,175
15,-0.6622,0.0265,-0.0969,0.5702,0.3794,0.0948,175
15,-0.6622,0.0265,-0.0969,0.6486,0.496,0.0828,175
15,-0.6622,0.2316,-0.1959,0.821,0.6236,0.0708,175
15,-0.6622,0.2316,-0.1959,1.1764,0.7272,0.1079,175
15,-0.6724,0.4459,-0.1735,1.1915,0.7642,0.1471,175
15,-0.702,0.453,-0.1612,1.0837,0.8111,0.1623,175
15,-0.8102,0.5459,-0.1153,1.1306,0.8634,0.206,175
15,-1.0061,0.7214,0.0122,1.135,0.8613,0.2714,175
15,-0.9908,0.6867,0.0143,1.0095,0.8548,0.1875,175
15,-1.1694,0.6826,-0.0684,0.8548,0.8361,0.1602,175
15,-1.2347,0.7724,-0.0663,0.8548,0.8361,0.1602,175
15,-1.2347,0.7724,-0.0663,0.7676,0.713,0.2093,175
15,-1.3489,0.7755,-0.1469,0.569,0.6083,0.1417,175
15,-1.3336,0.7428,-0.1735,0.3575,0.424,0.1406,175
15,-1.3255,0.7367,-0.1602,0.1972,0.2714,0.1024,175
15,-1.254,0.7142,-0.1224,0.0402,0.1198,0.0501,175
15,-1.1183,0.6724,0.001,-0.0948,0.0272,-0.0141,175
15,-1.0571,0.6,-0.0122,-0.2333,-0.0282,-0.0806,175
15,-1.0275,0.5643,-0.0081,-0.3128,-0.0402,-0.1515,175
15,-0.9949,0.4704,-0.0336,-0.4077,-0.0326,-0.2136,175
15,-1.004,0.3939,-0.049,-0.4077,-0.0326,-0.2136,175
15,-1.0306,0.3428,-0.0724,-0.5167,-0.012,-0.2823,175
15,-1.0306,0.3428,-0.0724,-0.5494,-0.0032,-0.339,175
15,-1.0561,0.3214,-0.0796,-0.5408,-0.0108,-0.3924,175
15,-1.1132,0.2357,-0.0826,-0.5473,-0.0228,-0.4481,175
15,-1.1285,0.204,-0.105,-0.5429,-0.0511,-0.4916,175
15,-1.1357,0.1938,-0.1183,-0.5135,-0.0883,-0.5211,175
15,-1.1541,0.2153,-0.1306,-0.4884,-0.1396,-0.545,175
15,-1.1479,0.201,-0.1173,-0.5036,-0.2093,-0.581,175
15,-1.1469,0.1755,-0.1285,-0.5331,-0.2802,-0.6171,175
15,-1.1091,0.1602,-0.1183,-0.5331,-0.2802,-0.6171,175
15,-1.0826,0.1,-0.0734,-0.5702,-0.3717,-0.6497,175
15,-1.0826,0.1,-0.0734,-0.6171,-0.4458,-0.6661,175
15,-1.1061,0.049,-0.0857,-0.6312,-0.4643,-0.6869,175
15,-1.1122,0.0132,-0.0775,-0.6497,-0.4557,-0.677,175
15,-1.0867,-0.0326,-0.0826,-0.714,-0.4175,-0.6225,175
15,-1.0775,-0.0979,-0.0826,-0.7554,-0.3357,-0.6192,175
15,-1.0061,-0.249,-0.1867,-0.966,-0.3161,-0.6138,175
15,-0.9897,-0.2949,-0.2663,-1.1011,-0.2507,-0.5036,175
15,-0.8663,-0.3816,-0.3204,-1.1011,-0.2507,-0.5036,175
15,-0.8143,-0.5234,-0.3724,-1.0749,-0.206,-0.3456,175
15,-0.7877,-0.3887,-0.5255,-1.0564,-0.1537,-0.23,175
15,-0.7877,-0.3887,-0.5255,-0.8307,-0.157,-0.1613,175
15,-0.7133,-0.3734,-0.4836,-0.399,-0.1995,-0.0381,175
15,-0.6173,-0.0132,-0.3265,0.061,-0.2125,0.1242,175
15,-0.5806,0.102,-0.3081,0.1232,-0.2289,0.255,175
15,-0.5398,0.1714,-0.302,0.0469,-0.2191,0.3422,175
15,-0.5643,0.4112,-0.1857,0.0185,-0.1526,0.3739,175
15,-0.6102,0.3785,-0.1459,-0.0925,-0.0261,0.314,175
16,-0.6837,0.3387,-0.1398,-0.4077,0.1068,0.2922,175
16,-0.6837,0.3387,-0.1398,-0.4077,0.1068,0.2922,175
16,-0.6918,0.1724,-0.2183,-0.702,0.1919,0.2617,175
16,-0.7551,0.0428,-0.2561,-0.6901,0.3073,0.1984,175
16,-0.8,0.0398,-0.2561,-0.5963,0.4099,0.1352,175
16,-0.8643,-0.051,-0.2816,-0.6039,0.4666,0.0925,175
16,-0.9122,-0.1143,-0.3071,-0.5931,0.4611,0.0774,175
16,-1.0306,-0.1612,-0.2653,-0.5244,0.4229,0.073,175
16,-1.0816,-0.1765,-0.2316,-0.5189,0.3477,0.0872,175
16,-1.1163,-0.3306,-0.2826,-0.557,0.2605,0.1253,175
16,-1.1837,-0.202,-0.2418,-0.3729,0.1907,0.1875,175
16,-1.1877,-0.1959,-0.2561,-0.3729,0.1907,0.1875,175
16,-1.1877,-0.1959,-0.2561,-0.2268,0.074,0.231,175
16,-1.103,-0.1694,-0.2592,-0.2039,0.0053,0.2725,175
16,-1.1132,-0.1071,-0.2693,-0.1308,-0.0305,0.2791,176
16,-1.0602,-0.0571,-0.2571,-0.0969,-0.0708,0.2768,176
16,-1.0245,-0.0265,-0.2194,-0.0828,-0.1167,0.267,176
16,-1.0193,-0.0306,-0.2071,-0.1013,-0.1602,0.2485,176
16,-1.05,-0.0887,-0.1949,-0.1079,-0.181,0.2213,176
16,-1.1194,-0.15,-0.1765,-0.061,-0.2104,0.1951,176
16,-1.1765,-0.2255,-0.1816,-0.0349,-0.2191,0.181,176
16,-1.3479,-0.2745,-0.1602,0.074,-0.2354,0.1776,176
16,-1.4551,-0.2755,-0.2101,0.074,-0.2354,0.1776,176
16,-1.4551,-0.2755,-0.2101,0.1972,-0.2518,0.1732,176
16,-1.4724,-0.1887,-0.2133,0.3489,-0.3183,0.1493,176
16,-1.4724,-0.1887,-0.2133,0.6138,-0.4458,0.1428,176
16,-1.2571,0.0836,-0.15,0.8242,-0.5822,0.1623,176
16,-1.1041,0.2367,-0.151,0.9681,-0.7119,0.2115,176
16,-0.9265,0.4785,-0.0438,1.135,-0.797,0.1896,176
16,-0.7428,0.6224,0.0347,1.2319,-0.7304,0.0185,176
16,-0.6214,0.6653,0.0663,1.2548,-0.6749,-0.0719,176
16,-0.4867,0.6408,0.0459,1.2428,-0.5898,-0.0402,176
16,-0.6439,0.7397,-0.0643,1.2428,-0.5898,-0.0402,176
16,-0.6439,0.7397,-0.0643,1.1644,-0.5091,0.2049,176
16,-0.6082,0.4357,-0.0388,0.714,-0.4361,0.1667,176
16,-0.6326,0.2908,0.0306,0.2147,-0.23,-0.0032,176
16,-0.6898,0.1551,0.0224,0.2289,-0.1373,0.0545,176
16,-0.8489,0.004,-0.0092,0.4164,0.0751,0.0294,176
16,-0.8439,-0.0173,-0.0989,0.6213,0.2562,0.0065,176
16,-0.8459,0.0122,-0.1173,0.7598,0.326,0.036,176
16,-0.7826,0.0143,-0.15,0.9431,0.3489,0.0915,176
16,-0.7397,0.2377,-0.1459,1.1949,0.3771,0.1341,176
16,-0.6928,0.3347,-0.1551,1.1949,0.3771,0.1341,176
16,-0.7051,0.4734,-0.1183,1.3258,0.3554,0.193,176
16,-0.7051,0.4734,-0.1183,1.3573,0.3641,0.2321,176
16,-0.6837,0.6765,-0.1581,1.3224,0.3685,0.2562,176
16,-0.7194,0.8286,-0.0632,1.3485,0.4219,0.1798,176
16,-0.6306,0.855,0.0071,1.2287,0.4393,0.2539,176
16,-0.8061,0.851,-0.2092,1.0575,0.5408,0.3783,176
16,-0.7908,0.8714,-0.152,0.7064,0.4753,0.3292,176
16,-0.8489,0.855,-0.1194,0.3924,0.4818,0.1962,176
16,-0.9653,0.95,-0.0449,0.3924,0.4818,0.1962,176
16,-0.8806,0.8714,0.0214,0.3477,0.4469,0.181,176
16,-1.0,0.5193,-0.0438,0.0217,0.3848,0.0643,176
16,-1.0,0.5193,-0.0438,-0.2071,0.3466,0.0053,176
16,-0.9275,0.5224,0.0428,-0.1558,0.2856,-0.0577,176
16,-0.9316,0.4408,0.0214,-0.2737,0.2594,-0.11,176
16,-0.8877,0.25,-0.0061,-0.3466,0.2562,-0.1581,176
16,-0.8785,0.2204,-0.0163,-0.3019,0.2627,-0.2224,176
16,-0.8837,0.2653,-0.0204,-0.2594,0.2834,-0.2507,176
16,-0.8683,0.2388,-0.0388,-0.2791,0.2987,-0.3019,176
16,-0.8949,0.2347,-0.0826,-0.2495,0.3063,-0.3542,176
16,-0.9326,0.2418,-0.101,-0.2495,0.3063,-0.3542,176
16,-0.9673,0.2734,-0.0948,-0.2081,0.314,-0.4109,176
16,-0.9673,0.2734,-0.0948,-0.1984,0.3019,-0.4633,176
16,-1.0673,0.2959,-0.0643,-0.2234,0.2758,-0.5265,176
16,-1.1408,0.2979,-0.051,-0.2638,0.2495,-0.5887,176
16,-1.1877,0.2397,-0.0541,-0.3477,0.2093,-0.6486,176
16,-1.2612,0.1877,-0.0214,-0.4328,0.1623,-0.701,176
16,-1.502,0.0939,-0.102,-0.4763,0.1198,-0.7228,176
16,-1.5765,0.0571,-0.1489,-0.5059,0.0795,-0.7283,176
16,-1.6082,-0.0132,-0.2071,-0.5593,0.0349,-0.7163,176
16,-1.6082,-0.0132,-0.2071,-0.5593,0.0349,-0.7163,176
16,-1.5989,-0.0816,-0.2693,-0.6411,-0.0152,-0.6901,176
16,-1.5438,-0.0928,-0.4081,-0.7489,-0.0763,-0.6682,176
16,-1.1857,-0.2775,-0.3591,-0.7632,-0.2125,-0.6072,176
16,-1.0286,-0.2653,-0.4622,-0.7174,-0.3128,-0.3456,176
16,-0.7775,-0.1439,-0.3816,-0.4622,-0.338,-0.242,176
16,-0.7898,-0.0877,-0.4347,-0.3271,-0.3346,-0.206,176
16,-0.6918,0.0684,-0.3245,-0.1842,-0.3466,-0.1155,176
16,-0.6255,0.1703,-0.3163,-0.2344,-0.339,-0.0326,176
16,-0.5969,0.2204,-0.2571,-0.3128,-0.2583,0.0185,176
16,-0.5459,0.3193,-0.1724,-0.3128,-0.2583,0.0185,176
16,-0.5459,0.3193,-0.1724,-0.3248,-0.1613,0.0686,176
16,-0.6326,0.3459,-0.1632,-0.4698,-0.0381,0.0969,176
16,-0.7092,0.2449,-0.2153,-0.664,0.0555,0.1068,176
16,-0.7388,0.1541,-0.2377,-0.7926,0.1744,0.0925,176
16,-0.7826,0.0847,-0.2612,-0.8754,0.2714,0.0795,176
16,-0.8306,0.0061,-0.303,-0.9299,0.3325,0.0349,176
16,-0.8632,-0.1306,-0.3428,-0.8775,0.3641,0.0152,176
16,-0.903,-0.1602,-0.3275,-0.7817,0.3826,0.037,176
16,-0.9877,-0.1806,-0.3448,-0.7544,0.3674,-0.0065,176
16,-0.9459,-0.2836,-0.302,-0.7544,0.3674,-0.0065,176
16,-1.0652,-0.2408,-0.3857,-0.7327,0.3019,-0.0795,176
16,-1.0652,-0.2408,-0.3857,-0.6116,0.2649,-0.0305,176
16,-1.0204,-0.1551,-0.2724,-0.3248,0.181,-0.0185,176
16,-1.0326,-0.1867,-0.2867,-0.2725,0.1188,-0.012,176
16,-1.0092,-0.2194,-0.3061,-0.2333,0.0555,0.0141,176
16,-0.9745,-0.152,-0.2418,-0.1047,0.024,0.0316,176
16,-0.9673,-0.101,-0.2459,-0.0446,-0.0141,0.0589,176
16,-0.9479,-0.0561,-0.2183,-0.0479,-0.0763,0.085,176
16,-0.9122,-0.0347,-0.202,-0.0479,-0.0763,0.085,176
16,-0.9092,-0.0214,-0.1949,-0.0599,-0.0992,0.0959,176
16,-0.9092,-0.0214,-0.1949,-0.0392,-0.1035,0.0948,176
16,-0.9387,-0.0081,-0.1755,-0.0228,-0.1057,0.0959,176
16,-0.951,-0.0388,-0.1735,-0.0545,-0.1144,0.0915,176
16,-0.9571,-0.0643,-0.1673,-0.074,-0.0992,0.0763,176
16,-0.9826,-0.0786,-0.1592,-0.0534,-0.0894,0.0698,176
16,-1.0081,-0.101,-0.1602,-0.0414,-0.0894,0.0555,176
16,-1.0826,-0.1612,-0.1979,-0.0185,-0.1003,0.0392,176
17,-1.1275,-0.1857,-0.1938,0.049,-0.1329,0.025,176
17,-1.1632,-0.2071,-0.2051,0.049,-0.1329,0.025,176
17,-1.1632,-0.2071,-0.2051,0.1526,-0.1623,0.0065,176
17,-1.1898,-0.1071,-0.1724,0.3008,-0.2016,0.0011,176
17,-1.1857,-0.0265,-0.1418,0.4338,-0.242,0.0185,176
17,-1.2081,0.0704,-0.105,0.5353,-0.2922,0.0883,176
17,-1.1908,0.203,-0.0388,0.6268,-0.3706,0.1678,176
17,-1.1479,0.3714,0.0112,0.6944,-0.3346,0.1646,176
17,-1.1132,0.4663,-0.0908,0.7228,-0.2802,0.1581,176
17,-1.0183,0.6346,-0.1969,0.8046,-0.2617,0.1112,176
17,-0.9857,0.7704,-0.2367,0.7926,-0.2834,0.0523,176
17,-0.7755,0.699,-0.2877,0.7926,-0.2834,0.0523,176
17,-0.7755,0.699,-0.2877,0.5942,-0.3019,0.0261,176
17,-0.9173,0.9051,-0.1744,0.4143,-0.3052,0.1722,176
17,-0.6489,0.6653,0.0234,0.0065,-0.3216,0.0469,176
17,-0.7183,0.2938,0.0724,-0.1024,-0.2201,-0.0053,176
17,-0.7449,0.2683,0.1489,0.1133,-0.1308,-0.0076,176
17,-0.6928,0.1642,0.151,0.2365,0.0196,0.0566,176
17,-0.7745,0.1908,0.0602,0.1209,0.2016,0.1657,176
17,-0.7224,-0.0214,-0.2612,0.0937,0.5429,0.242,176
17,-0.7531,0.0112,-0.4459,0.3336,0.628,0.3586,176
17,-0.7306,0.2602,-0.3591,0.6442,0.5635,0.4797,176
17,-0.7336,0.4734,-0.2296,0.8722,0.5593,0.5364,176
17,-0.8837,0.5408,-0.2469,0.8722,0.5593,0.5364,176
17,-0.8602,0.8959,-0.0143,0.9834,0.6039,0.5593,176
17,-0.8602,0.8959,-0.0143,1.1152,0.5843,0.496,176
17,-0.9081,0.9816,-0.0622,0.7337,0.5538,0.4393,176
17,-0.9663,1.0408,0.0183,0.351,0.5734,0.4807,176
17,-1.102,1.0214,-0.2632,0.0818,0.5408,0.3434,176
17,-1.0632,0.9745,-0.1949,-0.1221,0.4578,0.2321,176
17,-1.1091,0.9367,-0.2122,-0.314,0.3466,0.1406,176
17,-1.1296,0.7786,-0.2183,-0.5843,0.2278,0.0206,176
17,-1.0255,0.6551,-0.1367,-0.7676,0.0719,-0.0872,176
17,-0.9357,0.3806,-0.1061,-0.7676,0.0719,-0.0872,176
17,-0.9357,0.3806,-0.1061,-0.8765,-0.0228,-0.1623,176
17,-0.8816,0.3265,-0.0428,-0.8733,-0.0925,-0.2093,176
17,-0.8051,0.2112,-0.0428,-0.8918,-0.1428,-0.2594,176
17,-0.7724,0.1561,0.0193,-0.9246,-0.1503,-0.2245,176
17,-0.7336,0.0122,0.0031,-0.9027,-0.1308,-0.2278,176
17,-0.7571,0.0122,0.0204,-0.7501,-0.1057,-0.2583,176
17,-0.7612,0.0316,0.0153,-0.6411,-0.0784,-0.3183,176
17,-0.8275,0.0316,-0.004,-0.556,-0.036,-0.3542,176
17,-0.8857,0.049,-0.0357,-0.4536,0.0097,-0.3838,176
17,-0.9367,0.0724,-0.0775,-0.4536,0.0097,-0.3838,176
17,-0.9367,0.0724,-0.0775,-0.3838,0.0457,-0.4317,176
17,-1.002,0.0989,-0.0908,-0.338,0.0686,-0.4895,176
17,-1.1398,0.0989,-0.0928,-0.3237,0.0675,-0.5549,176
17,-1.2173,0.1479,-0.1112,-0.2998,0.0446,-0.6333,176
17,-1.3489,0.1061,-0.1316,-0.3107,0.0011,-0.7163,176
17,-1.4142,0.0989,-0.1653,-0.314,-0.0925,-0.7489,176
17,-1.552,-0.0183,-0.2551,-0.3924,-0.1701,-0.7827,176
17,-1.5581,-0.0714,-0.3091,-0.4568,-0.2539,-0.8002,176
17,-1.5306,-0.2061,-0.3398,-0.4568,-0.2539,-0.8002,176
17,-1.4183,-0.2408,-0.5357,-0.4775,-0.3193,-0.8035,176
17,-1.4183,-0.2408,-0.5357,-0.3641,-0.3434,-0.7043,176
17,-1.2296,-0.153,-0.3286,-0.23,-0.4666,-0.5778,176
17,-1.0245,-0.1959,-0.3908,-0.2649,-0.6028,-0.4448,176
17,-0.9551,-0.2336,-0.4438,-0.3412,-0.5745,-0.3609,176
17,-0.8081,-0.1653,-0.4438,-0.2245,-0.5494,-0.2104,176
17,-0.6877,-0.1112,-0.3479,-0.0664,-0.532,-0.1384,176
17,-0.653,-0.0173,-0.3245,-0.012,-0.496,-0.0763,176
17,-0.5204,0.1469,-0.1938,-0.036,-0.4382,0.0087,176
17,-0.4775,0.2,-0.1796,-0.036,-0.4382,0.0087,176
17,-0.454,0.2377,-0.1602,-0.085,-0.3073,0.0795,176
17,-0.454,0.2377,-0.1602,-0.1875,-0.1907,0.1526,176
17,-0.449,0.2336,-0.1653,-0.2976,-0.0763,0.2169,176
17,-0.5081,0.2622,-0.2122,-0.3783,0.0631,0.2693,176
17,-0.5806,0.2816,-0.2163,-0.4546,0.2191,0.3031,176
17,-0.6541,0.2101,-0.252,-0.6497,0.3161,0.3183,176
17,-0.7265,0.052,-0.3193,-0.7762,0.3979,0.3227,176
17,-0.8357,-0.0908,-0.3377,-0.714,0.4589,0.3216,176
17,-0.9102,-0.1061,-0.3214,-0.6694,0.5036,0.3336,176
17,-0.9969,-0.1398,-0.3755,-0.6694,0.5036,0.3336,176
17,-0.9969,-0.1398,-0.3755,-0.6749,0.5091,0.3008,176
17,-1.0939,-0.1918,-0.353,-0.6497,0.4317,0.2388,176
17,-1.1694,-0.1928,-0.3724,-0.5767,0.3456,0.2321,176
17,-1.2112,-0.1857,-0.3184,-0.4546,0.267,0.2213,176
17,-1.1632,-0.2133,-0.2979,-0.4044,0.1635,0.1962,176
17,-1.0714,-0.2051,-0.299,-0.3554,0.0675,0.2049,176
17,-1.0234,-0.1694,-0.2938,-0.2638,0.0174,0.2278,176
17,-0.9724,-0.1061,-0.2857,-0.1852,-0.0097,0.2562,176
17,-0.9153,-0.0112,-0.2693,-0.1722,-0.0511,0.2834,176
17,-0.9203,0.0081,-0.2714,-0.1722,-0.0511,0.2834,176
17,-0.9203,0.0081,-0.2714,-0.2136,-0.0839,0.2976,176
17,-0.9428,0.0143,-0.2714,-0.2442,-0.0959,0.2966,176
17,-0.9806,0.0132,-0.252,-0.2682,-0.1177,0.2888,176
17,-1.0581,-0.0306,-0.2285,-0.314,-0.1526,0.2747,176
17,-1.0959,-0.0684,-0.2377,-0.351,-0.194,0.2529,176
17,-1.1337,-0.1,-0.2326,-0.3609,-0.2388,0.2224,176
17,-1.1489,-0.199,-0.2194,-0.3575,-0.2878,0.1896,176
17,-1.1153,-0.2561,-0.2092,-0.3346,-0.3456,0.1558,176
17,-1.0989,-0.3081,-0.2397,-0.2638,-0.3783,0.1308,176
17,-1.1183,-0.2888,-0.2122,-0.2638,-0.3783,0.1308,176
17,-1.1755,-0.3398,-0.1571,-0.1167,-0.4012,0.1417,176
17,-1.1755,-0.3398,-0.1571,0.0032,-0.4263,0.0925,176
17,-1.2285,-0.3673,-0.1541,0.1526,-0.4372,0.0392,176
17,-1.2724,-0.35,-0.1602,0.3914,-0.4414,0.0435,176
17,-1.3071,-0.2438,-0.1061,0.6236,-0.4753,0.0774,176
17,-1.2888,-0.0377,-0.0877,0.7304,-0.5189,0.1471,176
17,-1.1816,0.0459,-0.1061,0.8296,-0.557,0.2125,176
17,-1.0438,0.0939,-0.0786,1.0238,-0.5604,0.2201,176
17,-0.7612,0.3898,-0.0357,1.2374,-0.5374,0.2365,176
17,-0.6806,0.4734,-0.0255,1.2374,-0.5374,0.2365,176
17,-0.6163,0.5857,-0.0551,1.3485,-0.5015,0.2256,176
17,-0.6163,0.5857,-0.0551,1.3901,-0.4382,0.1318,176
17,-0.5673,0.7,-0.0438,1.3878,-0.3946,0.0577,176
17,-0.4694,0.7693,-0.0887,1.3454,-0.339,0.2104,176
17,-0.5775,0.8826,0.0541,1.4053,-0.3205,0.2922,176
17,-0.5786,0.6908,0.1622,1.1589,-0.0523,0.074,176
17,-0.7122,0.5234,0.1642,0.8765,0.074,0.1198,176
18,-0.8245,0.3591,0.1377,0.7272,0.2278,0.1438,176
18,-0.8081,0.3846,0.1234,0.7272,0.2278,0.1438,176
18,-0.8081,0.3846,0.1234,0.8176,0.3161,0.1503,176
18,-0.9183,0.3898,-0.2071,0.9496,0.4884,0.1503,176
18,-0.9183,0.3898,-0.2071,0.9769,0.5919,0.1144,176
18,-0.8051,0.4265,-0.1163,1.0041,0.5331,0.1188,176
18,-0.8143,0.4255,-0.2275,1.0673,0.4916,0.1308,176
18,-0.8184,0.6918,-0.1449,1.1501,0.4546,0.1503,176
18,-0.8071,0.7612,-0.1234,1.0858,0.4219,0.1667,176
18,-0.8122,0.8632,-0.0459,0.9648,0.4065,0.1951,176
18,-0.8418,0.8643,-0.1173,0.7478,0.4263,0.2169,176
18,-0.901,0.952,-0.0622,0.7478,0.4263,0.2169,176
18,-0.901,0.952,-0.0622,0.5931,0.4132,0.2573,176
18,-0.9612,0.9928,-0.0408,0.4414,0.4065,0.2442,176
18,-0.9755,0.9571,-0.05,0.2027,0.3946,0.1875,177
18,-1.0459,0.8837,-0.0755,-0.0162,0.3641,0.1013,177
18,-1.0612,0.802,-0.053,-0.1667,0.2922,0.0087,177
18,-1.0602,0.6867,-0.0602,-0.3554,0.2398,-0.0883,177
18,-1.0612,0.5602,-0.0581,-0.483,0.2005,-0.1755,177
18,-1.0326,0.3969,-0.0286,-0.5516,0.1209,-0.2954,177
18,-1.0449,0.3387,-0.0469,-0.5843,0.098,-0.339,177
18,-1.053,0.3051,-0.0479,-0.5723,0.0751,-0.399,177
18,-1.0469,0.2826,-0.0612,-0.5723,0.0751,-0.399,177
18,-1.0469,0.2826,-0.0612,-0.556,0.0511,-0.4557,177
18,-1.0173,0.2928,-0.0745,-0.5461,0.025,-0.5004,177
18,-1.0173,0.2928,-0.0745,-0.5702,0.0,-0.5461,177
18,-0.9836,0.2673,-0.0939,-0.5865,-0.0337,-0.5974,177
18,-0.9836,0.2734,-0.0786,-0.5865,-0.0566,-0.64,177
18,-0.9949,0.2622,-0.0561,-0.6171,-0.0828,-0.6781,177
18,-1.0214,0.2296,-0.0652,-0.6737,-0.098,-0.713,177
18,-1.1296,0.1459,-0.0632,-0.7205,-0.1144,-0.7403,177
18,-1.1949,0.0786,-0.0857,-0.7632,-0.1362,-0.7598,177
18,-1.2367,0.0245,-0.1143,-0.7981,-0.1493,-0.7478,177
18,-1.2816,-0.053,-0.1898,-0.7981,-0.1493,-0.7478,177
18,-1.2816,-0.053,-0.1898,-0.8373,-0.1329,-0.6966,177
18,-1.2449,-0.2071,-0.2265,-0.8548,-0.1623,-0.6203,177
18,-1.4428,-0.1857,-0.3612,-0.9256,-0.1558,-0.5647,177
18,-1.2479,-0.2765,-0.3377,-1.0706,-0.2998,-0.507,177
18,-1.2592,-0.299,-0.6082,-1.1982,-0.3216,-0.3401,177
18,-1.1571,-0.3152,-0.4918,-0.8798,-0.388,-0.23,177
18,-1.0908,-0.2133,-0.4377,-0.5189,-0.508,-0.0479,177
18,-0.9663,-0.0745,-0.3785,-0.3674,-0.5919,0.0446,177
18,-0.704,0.0826,-0.2734,-0.3565,-0.5908,0.0643,177
18,-0.5908,0.204,-0.2388,-0.3565,-0.5908,0.0643,177
18,-0.5908,0.204,-0.2388,-0.3248,-0.5255,0.0654,177
18,-0.4938,0.2949,-0.1744,-0.3597,-0.4677,0.0501,177
18,-0.352,0.2979,-0.1367,-0.4797,-0.3914,0.0228,177
18,-0.3081,0.3214,-0.1091,-0.5799,-0.2998,0.0097,177
18,-0.3357,0.2888,-0.1326,-0.7205,-0.1417,-0.0076,177
18,-0.3448,0.2622,-0.1224,-0.8787,-0.0076,-0.0185,177
18,-0.4694,-0.0112,-0.1541,-1.0248,0.1144,0.0065,177
18,-0.5286,-0.1428,-0.1898,-1.1001,0.23,0.0894,177
18,-0.6337,-0.2357,-0.2388,-1.1339,0.3565,0.2213,177
18,-0.7918,-0.2245,-0.2612,-1.1339,0.3565,0.2213,177
18,-1.0183,-0.3071,-0.3336,-1.0335,0.4797,0.2453,177
18,-1.0183,-0.3071,-0.3336,-0.9038,0.5484,0.1526,177
18,-1.0234,-0.55,-0.2336,-0.7304,0.5374,0.0294,177
18,-1.0581,-0.5786,-0.3785,-0.5255,0.496,0.1167,177
18,-1.1887,-0.3877,-0.2336,-0.2224,0.4132,0.1798,177
18,-1.252,-0.4122,-0.3306,-0.0948,0.3248,0.1732,177
18,-1.2867,-0.351,-0.2704,0.0217,0.1842,0.2125,177
18,-1.2214,-0.2724,-0.2949,0.1438,0.0425,0.2453,177
18,-1.15,-0.0367,-0.2245,0.1438,0.0425,0.2453,177
18,-1.1285,0.0132,-0.2101,0.2376,-0.0511,0.2867,177
18,-1.0704,0.0847,-0.1979,0.2289,-0.1253,0.3183,177
18,-1.0704,0.0847,-0.1979,0.1667,-0.1995,0.35,177
18,-1.0245,0.1265,-0.1632,0.0784,-0.2224,0.3368,177
18,-1.0173,0.0877,-0.1602,-0.0021,-0.2234,0.2714,177
18,-1.0408,0.0408,-0.1602,-0.0708,-0.2256,0.1995,177
18,-1.0602,-0.0183,-0.1622,-0.1013,-0.2495,0.1396,177
18,-1.1296,-0.1449,-0.1275,-0.0948,-0.2768,0.0883,177
18,-1.1806,-0.2204,-0.1255,-0.0774,-0.3019,0.049,177
18,-1.2592,-0.3081,-0.0989,-0.0774,-0.3019,0.049,177
18,-1.2592,-0.3081,-0.0989,0.0294,-0.3368,0.012,177
18,-1.3102,-0.3448,-0.102,0.1842,-0.3783,0.0131,177
18,-1.3152,-0.1816,-0.1132,0.375,-0.4349,0.0534,177
18,-1.2857,-0.0469,-0.0969,0.532,-0.5102,0.1144,177
18,-1.1653,0.0602,-0.0765,0.628,-0.6062,0.1744,177
18,-0.8561,0.1418,-0.0286,0.7468,-0.6726,0.2147,177
18,-0.7714,0.2581,-0.0326,0.9801,-0.6835,0.2627,177
18,-0.6469,0.5602,0.0306,1.3727,-0.6814,0.2289,177
18,-0.5918,0.5959,0.1357,1.655,-0.5635,-0.012,177
18,-0.4969,0.8571,0.1765,1.655,-0.5635,-0.012,177
18,-0.4969,0.8571,0.1765,1.4522,-0.4284,-0.1013,177
18,-0.5112,0.8489,-0.0765,0.8775,-0.3336,-0.0272,177
18,-0.5867,0.8091,0.1398,0.3619,-0.2333,0.1035,177
18,-0.7826,0.4214,0.0581,0.074,0.0,-0.0206,177
18,-0.8479,0.2602,0.0816,0.0795,0.073,0.0446,177
18,-1.0163,0.2316,0.0336,0.2016,0.2617,0.0032,177
18,-0.8734,0.1204,0.1489,0.2507,0.3368,-0.0751,177
18,-0.8734,0.0469,0.0081,0.4328,0.4448,-0.0511,177
18,-0.9051,0.0275,-0.1837,0.6203,0.5233,-0.0511,177
18,-0.7826,0.0183,-0.204,0.6203,0.5233,-0.0511,177
18,-0.7898,0.1703,-0.2163,0.7882,0.4884,-0.1242,177
18,-0.7898,0.1703,-0.2163,1.0543,0.4557,-0.0992,177
18,-0.7531,0.4255,-0.1204,1.1284,0.4557,-0.0523,177
18,-0.7428,0.5,-0.0816,1.0728,0.4797,0.0108,177
18,-0.8122,0.5173,-0.1877,1.1306,0.5604,0.0904,177
18,-0.7622,0.7245,-0.001,1.1306,0.6213,0.1362,177
18,-0.9061,0.7704,-0.0663,0.8624,0.6454,0.2005,177
18,-0.8765,0.8091,-0.0479,0.7861,0.6585,0.2976,177
18,-0.9816,0.8908,-0.0765,0.6694,0.6694,0.2922,177
18,-1.1143,0.8459,-0.1439,0.6694,0.6694,0.2922,177
18,-1.1877,0.8234,-0.1398,0.4589,0.6148,0.2333,177
18,-1.1877,0.8234,-0.1398,0.2791,0.532,0.1787,177
18,-1.1735,0.7551,-0.1469,0.0872,0.3968,0.1047,177
18,-1.1673,0.5561,-0.1449,-0.1068,0.2922,0.025,177
18,-1.1173,0.4755,-0.0969,-0.2005,0.1842,-0.0402,177
18,-1.0245,0.4173,-0.0459,-0.2224,0.1068,-0.0894,177
18,-0.9704,0.3428,-0.0224,-0.2812,0.0818,-0.1274,177
19,-0.852,0.2051,-0.0286,-0.3008,0.0664,-0.169,177
19,-0.8408,0.1877,-0.0275,-0.3008,0.0664,-0.169,177
19,-0.8408,0.1877,-0.0275,-0.2409,0.0751,-0.1951,177
19,-0.8132,0.2071,-0.0357,-0.1951,0.0894,-0.2245,177
19,-0.8132,0.2071,-0.0357,-0.1864,0.1188,-0.2659,177
19,-0.8602,0.2326,-0.0408,-0.1558,0.1493,-0.3085,177
19,-0.9,0.2592,-0.0306,-0.1274,0.1831,-0.3554,177
19,-0.9561,0.2826,-0.0438,-0.1318,0.206,-0.4153,177
19,-1.0928,0.2928,-0.0714,-0.157,0.218,-0.4753,177
19,-1.1714,0.3051,-0.0734,-0.193,0.2005,-0.5287,177
19,-1.2336,0.2755,-0.0724,-0.2911,0.1417,-0.5887,177
19,-1.3143,0.2347,-0.0816,-0.3924,0.0751,-0.653,177
19,-1.402,0.0479,-0.1428,-0.3924,0.0751,-0.653,177
19,-1.402,0.0479,-0.1428,-0.471,-0.0053,-0.7064,177
19,-1.3989,-0.0122,-0.1724,-0.4807,-0.0708,-0.7348,177
19,-1.3143,-0.0826,-0.1847,-0.5124,-0.1068,-0.7359,177
19,-1.1857,-0.1673,-0.2377,-0.5341,-0.0925,-0.6726,177
19,-1.1918,-0.0714,-0.2653,-0.5908,-0.1722,-0.5723,177
19,-0.9438,-0.402,-0.2612,-0.8199,-0.2049,-0.5189,177
19,-0.9071,-0.302,-0.4387,-0.3456,-0.2104,-0.1896,177
19,-0.8663,-0.1194,-0.4142,-0.049,-0.2594,-0.0534,177
19,-0.8347,0.0663,-0.3204,0.0392,-0.3096,0.036,177
19,-0.7714,0.2224,-0.2204,-0.049,-0.3085,0.0763,177
19,-0.7183,0.3214,-0.1561,-0.049,-0.3085,0.0763,177
19,-0.6775,0.3612,-0.1163,-0.1133,-0.2714,0.0904,177
19,-0.6775,0.3612,-0.1163,-0.2998,-0.2213,0.0904,177
19,-0.6439,0.2898,-0.152,-0.5625,-0.1428,0.0654,177
19,-0.6061,0.1765,-0.2306,-0.6955,-0.0446,0.024,177
19,-0.6112,0.1489,-0.2459,-0.7249,0.0654,-0.0152,177
19,-0.6245,0.0816,-0.2786,-0.7817,0.1547,-0.0469,177
19,-0.6632,0.001,-0.301,-0.8275,0.218,-0.0675,177
19,-0.7245,-0.1398,-0.2867,-0.809,0.2714,-0.0631,177
19,-0.8152,-0.203,-0.2714,-0.7827,0.3248,-0.0141,177
19,-0.8806,-0.1785,-0.251,-0.7827,0.3248,-0.0141,177
19,-0.8806,-0.1785,-0.251,-0.7676,0.3292,-0.025,177
19,-0.9755,-0.4244,-0.2795,-0.7903,0.3336,-0.0402,177
19,-1.1214,-0.4041,-0.3489,-0.6301,0.3292,0.0555,177
19,-1.1265,-0.3939,-0.2479,-0.3052,0.2464,0.0206,177
19,-1.153,-0.299,-0.2816,-0.1428,0.1602,0.0469,177
19,-1.1387,-0.3745,-0.3357,-0.1623,0.098,0.0828,177
19,-1.1183,-0.3234,-0.3152,-0.0664,0.0392,0.1232,177
19,-1.0734,-0.2081,-0.2683,0.1035,-0.036,0.1623,177
19,-1.0336,-0.1826,-0.2632,0.1232,-0.0763,0.1798,177
19,-1.0183,-0.1194,-0.2306,0.1232,-0.0763,0.1798,177
19,-1.0183,-0.1194,-0.2306,0.1995,-0.1221,0.193,177
19,-1.0071,-0.05,-0.1928,0.2682,-0.1646,0.206,177
19,-1.0143,-0.0438,-0.1785,0.2354,-0.1776,0.2016,177
19,-1.0214,-0.0428,-0.1775,0.2224,-0.1875,0.1875,177
19,-1.0193,-0.0581,-0.1877,0.2104,-0.1896,0.1831,177
19,-1.0286,-0.0816,-0.2194,0.194,-0.1842,0.1798,177
19,-1.0428,-0.0959,-0.2306,0.1951,-0.2016,0.1776,177
19,-1.1214,-0.1826,-0.252,0.1907,-0.2289,0.1744,177
19,-1.1724,-0.2704,-0.2408,0.2224,-0.2682,0.1623,177
19,-1.2418,-0.3428,-0.2204,0.2224,-0.2682,0.1623,177
19,-1.3612,-0.3306,-0.249,0.3292,-0.3117,0.157,177
19,-1.3612,-0.3306,-0.249,0.5004,-0.3695,0.1623,177
19,-1.3602,-0.2142,-0.1765,0.7632,-0.4622,0.1798,177
19,-1.3643,-0.0612,-0.1541,1.0183,-0.5528,0.2321,177
19,-1.3204,0.0989,-0.1214,1.1698,-0.6869,0.3183,177
19,-1.0102,0.5,0.0479,1.3311,-0.8046,0.3891,177
19,-0.8979,0.6,0.0275,1.3966,-0.7686,0.2605,177
19,-0.8122,0.6979,-0.0652,1.3258,-0.6835,0.1297,177
19,-0.5469,0.9316,-0.0693,1.3258,-0.6835,0.1297,177
19,-0.3857,0.8336,-0.0775,1.2788,-0.6726,0.0643,177
19,-0.5316,0.8387,0.0459,1.1087,-0.628,0.1471,177
19,-0.5316,0.8387,0.0459,0.8548,-0.5516,0.3968,177
19,-0.3582,0.5898,0.1714,0.5047,-0.4023,0.2507,177
19,-0.5948,0.1785,0.0704,0.2932,-0.2191,0.11,177
19,-0.7071,0.2101,0.0847,0.2376,-0.1744,0.1623,177
19,-0.7265,0.0724,0.0,0.2344,0.0469,-0.0282,177
19,-0.7581,0.0367,-0.0673,0.5833,0.3336,-0.1537,177
19,-0.6816,0.2183,-0.153,0.821,0.5233,-0.1701,177
19,-0.6439,0.1224,-0.2142,0.821,0.5233,-0.1701,177
19,-0.605,0.0918,-0.299,0.7577,0.6192,-0.1732,177
19,-0.6418,0.2898,-0.2847,0.895,0.7403,-0.1591,177
19,-0.6418,0.2898,-0.2847,1.1001,0.8166,-0.0915,177
19,-0.6877,0.4041,-0.2775,1.124,0.883,-0.0152,177
19,-0.6898,0.4153,-0.1969,1.0749,0.9278,0.0185,177
19,-0.8265,0.5031,-0.353,1.1175,0.9975,0.1274,177
19,-0.9836,0.754,-0.1663,1.1175,0.9877,0.2638,177
19,-1.0867,0.7877,-0.0898,0.9321,0.9736,0.2703,177
19,-1.2275,0.7663,-0.1592,0.7686,0.9234,0.2583,177
19,-1.4428,0.9142,-0.1571,0.6617,0.7554,0.2943,177
19,-1.4428,0.9142,-0.1571,0.6617,0.7554,0.2943,177
19,-1.4592,0.8887,-0.1918,0.4382,0.5167,0.2234,177
19,-1.4275,0.8398,-0.1979,0.1711,0.2768,0.1678,177
19,-1.3061,0.8051,-0.1735,-0.0643,0.0589,0.1406,177
19,-1.0306,0.6296,-0.1,-0.2976,-0.0839,0.1047,177
19,-0.9387,0.5939,-0.0388,-0.4143,-0.1352,0.0643,177
19,-0.8347,0.5908,-0.0031,-0.4992,-0.1438,0.0141,177
19,-0.7663,0.4888,-0.0051,-0.6682,-0.1155,-0.0555,177
19,-0.7092,0.2704,-0.0591,-0.7369,-0.0643,-0.1308,177
19,-0.702,0.2877,-0.0684,-0.6978,-0.0152,-0.1613,177
19,-0.7316,0.249,-0.0928,-0.6978,-0.0152,-0.1613,177
19,-0.7316,0.249,-0.0928,-0.6791,0.0425,-0.242,177
19,-0.7979,0.2388,-0.0765,-0.6333,0.0763,-0.3041,177
19,-0.8714,0.2224,-0.049,-0.6148,0.1155,-0.3565,177
19,-0.951,0.2092,-0.0357,-0.6138,0.1209,-0.4109,177
19,-1.0469,0.201,-0.0275,-0.6138,0.1274,-0.4731,177
19,-1.2296,0.15,-0.0622,-0.6312,0.0959,-0.5276,177
19,-1.3,0.1061,-0.102,-0.6705,0.0457,-0.5843,177
19,-1.3979,0.0561,-0.1337,-0.6901,-0.0316,-0.6411,177
19,-1.4755,-0.0357,-0.1847,-0.6901,-0.0316,-0.6411,177
19,-1.4469,-0.1255,-0.2306,-0.7098,-0.1264,-0.6934,177
19,-1.4469,-0.1255,-0.2306,-0.7718,-0.206,-0.7337,177
19,-1.5347,-0.201,-0.3081,-0.8046,-0.2453,-0.7478,177
19,-1.3989,-0.2051,-0.2551,-0.8722,-0.375,-0.738,177
19,-1.0989,-0.4377,-0.2877,-0.9582,-0.4132,-0.6857,177
19,-1.2255,-0.4,-0.549,-0.9278,-0.3554,-0.5309,177
19,-0.9673,-0.3643,-0.3785,-0.5473,-0.3914,-0.3935,177
20,-0.8234,-0.35,-0.4418,-0.4,-0.4109,-0.3172,177
20,-0.7693,-0.2061,-0.353,-0.1711,-0.4557,-0.231,177
20,-0.7,-0.1102,-0.3081,-0.1711,-0.4557,-0.231,177
20,-0.6735,0.0,-0.2571,-0.0577,-0.4492,-0.1318,177
20,-0.6735,0.0,-0.2571,0.0011,-0.4044,-0.0511,177
20,-0.5684,0.2316,-0.1367,-0.0206,-0.3794,0.024,177
20,-0.5286,0.2877,-0.0939,-0.1591,-0.3336,0.0915,177
20,-0.4897,0.3224,-0.0643,-0.3325,-0.2573,0.1558,177
20,-0.5183,0.352,-0.0816,-0.4775,-0.11,0.1776,177
20,-0.6122,0.3204,-0.1673,-0.6694,0.0261,0.1701,177
20,-0.6653,0.204,-0.2347,-0.8504,0.1493,0.1373,177
20,-0.7153,0.1571,-0.2908,-0.8775,0.267,0.086,177
20,-0.7571,0.0132,-0.2786,-0.8775,0.267,0.086,177
20,-0.7571,0.0132,-0.2786,-0.9267,0.3325,0.0349,177
20,-0.8143,-0.0908,-0.3663,-1.0368,0.3794,-0.0228,178
20,-0.7959,-0.2214,-0.3663,-1.0509,0.3979,-0.0457,178
20,-0.8765,-0.2163,-0.3398,-0.9626,0.3946,-0.024,178
20,-0.952,-0.4061,-0.301,-0.9179,0.3542,-0.1417,178
20,-0.9663,-0.5092,-0.3265,-0.8252,0.3096,-0.157,178
20,-1.0581,-0.3479,-0.2245,-0.2659,0.218,0.0108,178
20,-1.0071,-0.2969,-0.1949,-0.2115,0.1646,0.1341,178
20,-1.0204,-0.2326,-0.1918,-0.157,0.1438,0.2344,178
20,-1.0122,-0.1806,-0.2204,-0.1003,0.1396,0.2998,178
20,-1.0561,-0.0326,-0.2265,-0.1003,0.1396,0.2998,178
20,-1.0867,-0.0153,-0.2357,-0.0479,0.11,0.338,178
20,-1.1091,-0.0326,-0.2479,-0.0992,0.0686,0.3466,178
20,-1.1091,-0.0326,-0.2479,-0.1657,0.0272,0.3302,178
20,-1.1581,-0.0561,-0.2459,-0.1732,0.0021,0.3008,178
20,-1.2377,-0.0796,-0.2397,-0.1373,-0.0316,0.2627,178
20,-1.2612,-0.0816,-0.2397,-0.0872,-0.0654,0.2191,178
20,-1.2908,-0.0847,-0.2234,-0.0469,-0.1068,0.1875,178
20,-1.3867,-0.1143,-0.2479,-0.037,-0.1526,0.1678,178
20,-1.4459,-0.1204,-0.2632,-0.0065,-0.2201,0.1635,178
20,-1.5112,-0.1255,-0.2755,0.0261,-0.3085,0.1766,178
20,-1.5541,-0.1214,-0.3112,0.0261,-0.3085,0.1766,178
20,-1.5092,-0.0459,-0.2816,0.0708,-0.4284,0.1919,178
20,-1.5092,-0.0459,-0.2816,0.1547,-0.5854,0.2071,178
20,-1.4408,-0.0163,-0.2397,0.2485,-0.7621,0.2081,178
20,-1.3112,0.0183,-0.2142,0.3565,-0.9179,0.2201,178
20,-0.9571,0.1694,-0.1928,0.5156,-1.0412,0.2495,178
20,-0.751,0.3286,-0.1439,0.6869,-1.1251,0.2823,178
20,-0.5836,0.3837,-0.0948,0.8176,-1.0946,0.2169,178
20,-0.5031,0.4663,-0.0734,0.8035,-1.016,0.1232,178
20,-0.302,0.4724,-0.0102,0.6672,-0.9834,0.1003,178
20,-0.302,0.4724,-0.0102,0.6672,-0.9834,0.1003,178
20,-0.2418,0.3479,0.0275,0.7239,-0.8481,0.1167,178
20,-0.2857,0.3316,0.0561,0.9179,-0.7195,0.3041,178
20,-0.2092,0.7336,0.3755,0.7937,-0.5505,0.3914,178
20,-0.5061,0.1938,0.1214,0.0185,-0.3815,0.1635,178
20,-0.6234,0.1173,0.1061,-0.1635,-0.2594,0.1886,178
20,-0.7051,-0.0193,0.0224,-0.1526,0.0708,0.2147,178
20,-0.9438,-0.1744,-0.1744,0.1428,0.4349,0.1711,178
20,-0.9265,-0.0806,-0.1163,0.6213,0.5287,0.1286,178
20,-0.8898,0.0734,-0.0826,0.6213,0.5287,0.1286,178
20,-0.8785,0.3122,-0.0928,1.0543,0.5647,0.1864,178
20,-0.8785,0.3122,-0.0928,1.1808,0.6083,0.182,178
20,-0.9796,0.4469,-0.2438,1.124,0.6497,0.085,178
20,-0.9633,0.5877,-0.2285,1.1589,0.6072,0.0446,178
20,-0.9704,0.651,-0.2296,1.1164,0.5309,-0.0185,178
20,-0.901,0.7173,-0.1367,1.0183,0.4502,-0.0751,178
20,-1.0836,0.7612,-0.3479,0.9441,0.4361,0.0698,178
20,-0.9979,1.1346,0.0438,0.702,0.3073,0.1744,178
20,-0.9163,0.8908,-0.0541,0.0948,0.2093,0.098,178
20,-0.9316,0.8336,0.0204,0.0948,0.2093,0.098,178
20,-0.9785,0.9479,0.0316,0.0446,0.1602,0.1623,178
20,-0.9785,0.9479,0.0316,0.1089,0.1198,0.1558,178
20,-0.9367,0.7622,0.0306,-0.3314,0.0784,0.1274,178
20,-0.949,0.4326,-0.0418,-0.5582,0.0566,0.1057,178
20,-0.951,0.4203,-0.001,-0.4666,0.037,0.1035,178
20,-0.9285,0.3152,0.0051,-0.5331,0.0272,0.0959,178
20,-0.8846,0.1469,-0.0122,-0.6007,0.0206,0.0708,178
20,-0.8377,0.1082,0.0153,-0.5287,0.0305,0.0872,178
20,-0.7765,0.0786,0.002,-0.4611,0.036,0.0381,178
20,-0.7438,0.0867,-0.002,-0.4611,0.036,0.0381,178
20,-0.7081,0.1245,0.0163,-0.3783,0.0621,-0.0065,178
20,-0.7081,0.1245,0.0163,-0.3205,0.0904,-0.0076,178
20,-0.6765,0.1418,0.0357,-0.3205,0.1264,-0.0131,178
20,-0.6908,0.1714,0.0163,-0.3063,0.1635,-0.0174,178
20,-0.7153,0.2183,0.0652,-0.2834,0.1732,-0.0228,178
20,-0.852,0.2592,0.0581,-0.2932,0.2268,-0.0469,178
20,-0.9285,0.2714,0.05,-0.3096,0.2867,-0.0872,178
20,-1.0449,0.2632,0.0234,-0.3477,0.3183,-0.1428,178
20,-1.1091,0.2245,0.0295,-0.4349,0.2758,-0.1886,178
20,-1.2632,0.0561,-0.0367,-0.4349,0.2758,-0.1886,178
20,-1.2632,0.0561,-0.0367,-0.5026,0.2365,-0.242,178
