Timestamp,Ax,Ay,Az,Rx,Ry,Rz,EMG
0,-0.3479,-1.0129,0.1011,-0.1743,-0.4318,2.4132,2053
0,-0.1338,-1.0474,0.0994,-0.2302,-0.4721,2.6297,2055
0,-0.0007,-1.075,0.0994,-0.3239,-0.6319,2.8006,2059
0,0.1753,-1.0845,0.1541,-0.483,-0.8732,3.0048,2043
0,0.1931,-1.0266,-0.0391,-0.5978,-0.9288,3.0716,2046
0,-0.2158,-1.0391,0.0457,-0.5376,-1.0473,3.1303,1984
0,-0.2817,-1.2241,0.1599,-0.5853,-1.1472,3.0356,2048
0,-0.1453,-1.5396,0.1833,-0.8074,-1.5948,2.9586,2050
0,0.0933,-1.8362,0.082,-1.197,-2.1225,2.7196,2048
0,0.144,-2.0,0.0735,-1.5009,-2.8429,2.4782,2047
0,0.2908,-2.0,-0.0449,-1.7904,-3.4074,2.4155,2047
0,-0.1438,-2.0,0.0315,-1.9746,-3.7281,2.581,2038
0,-0.5708,-1.7153,-0.0139,-2.1317,-3.77,2.8923,2047
0,-1.0278,-1.1382,-0.0193,-2.422,-3.7716,2.76,2057
0,-1.3484,-0.573,-0.1228,-2.8087,-3.2364,2.0383,2054
0,-1.7991,-0.1973,-0.3906,-2.6936,-2.4318,1.633,2052
0,-2.0,-0.3647,-0.1084,-2.2956,-1.7614,1.8006,2049
0,-1.5386,-0.7966,0.1685,-2.319,-2.0357,1.5379,2056
0,-0.6714,-0.6453,0.3726,-2.7212,-3.0572,0.5841,2053
0,-0.6133,0.3223,0.2573,-2.7797,-2.7152,1.4146,2052
0,-1.2485,-0.0024,0.4653,-2.8465,-3.5436,-0.0647,2049
0,-1.2085,-0.3091,0.9275,-3.2162,-4.3635,-1.4287,2048
0,-2.0,0.0066,0.8831,-3.0233,-4.0804,-1.2319,2051
0,-1.2144,-0.658,0.4514,-3.6992,-2.3585,-1.2564,2063
0,-0.9819,-0.2498,0.75,-3.6673,-1.8128,-0.9452,2045
0,-0.9836,0.0808,1.0791,-4.1488,-1.0658,-1.8161,2046
0,-1.052,0.1628,1.1494,-4.1983,0.1067,-2.2246,2047
0,-0.9258,0.1428,0.9514,-3.9446,0.8423,-2.1881,2048
0,-0.9404,0.1995,0.9011,-3.8191,1.1627,-2.532,2045
0,-0.8413,0.2346,0.8811,-3.8227,1.3485,-3.0008,2052
0,-0.6326,0.2529,0.8203,-3.7745,1.2712,-3.3124,2049
0,-0.4546,0.2939,0.6941,-3.5324,1.3125,-3.5798,2057
0,-0.3232,0.2639,0.5359,-3.2805,1.3768,-3.8243,2048
0,-0.2356,0.1929,0.4612,-3.1565,1.1476,-4.0389,2048
0,-0.177,0.1799,0.438,-3.1083,0.7775,-4.1812,2052
0,-0.0554,0.2263,0.4187,-3.0132,0.4012,-4.2785,2052
0,-0.0347,0.2205,0.4045,-2.783,-0.0561,-4.3635,2050
0,-0.0527,0.1528,0.3745,-2.5525,-0.4494,-4.3635,2049
0,-0.0715,0.1135,0.3086,-2.3842,-0.8491,-4.3635,2052
0,-0.1511,0.0701,0.3125,-2.1447,-1.2348,-4.3635,2051
0,-0.0017,-0.5039,0.3662,-2.2791,-1.6522,-4.3635,2052
0,1.9999,0.583,-2.0,-4.3635,-1.0155,-3.7263,2037
0,-2.0,-1.2495,-2.0,-4.3635,-0.8901,-1.9789,1999
0,-2.0,-2.0,1.9999,-0.1284,-4.3635,0.2429,2065
0,-1.0242,-2.0,1.9999,-2.2636,0.6913,1.4149,2148
0,1.9999,1.8616,-0.0442,-2.6962,-1.9771,-0.4695,2065
0,1.9999,1.9999,1.5911,0.5927,-4.3635,-0.6568,2022
0,-1.3813,-0.863,0.366,2.4389,-4.3635,-1.8106,2066
0,-0.1543,-2.0,1.3215,0.3956,1.8843,-0.3484,2060
0,-2.0,-2.0,0.3433,0.9254,4.3634,4.3634,2054
0,-0.7632,-2.0,0.2822,-0.4718,3.1973,-2.9717,2047
0,1.9999,-1.842,-0.3423,-0.9026,0.5324,0.2373,2054
0,1.2961,-0.5405,-0.905,-0.1381,-0.8265,0.4018,2047
0,0.4282,-0.593,-0.6687,-0.5059,-2.3301,-0.4315,2047
0,-0.0818,-0.6277,-0.2363,-0.4631,-1.8542,-0.1465,2058
0,-0.8018,0.0217,-0.0876,-0.3614,0.4635,1.2372,2053
0,-1.0745,0.0469,0.0129,-0.5717,0.7613,1.1529,2045
0,-0.7861,-0.2876,-0.0312,-0.6217,0.4464,0.6269,2047
0,-0.8735,-0.3347,0.0168,-0.84,0.2298,0.4051,2053
0,-0.9822,-0.2261,-0.0503,-0.9243,0.3325,0.1695,2064
0,-0.7964,-0.3625,-0.238,-0.8421,0.4416,-0.1818,2061
0,-0.3831,-0.6575,-0.4502,-0.6691,0.3982,-0.2073,2056
0,-0.0745,-0.7969,-0.6382,-0.4942,0.2481,0.0983,2050
0,-0.0764,-0.8281,-0.697,-0.3571,0.0792,0.2768,2043
0,-0.1848,-0.8813,-0.7026,-0.1736,0.0245,0.2566,2056
0,-0.3176,-1.0232,-0.6453,-0.0623,-0.0326,0.248,2055
0,-0.4177,-1.1108,-0.5293,0.043,-0.0376,0.35,2052
0,-0.502,-1.0686,-0.417,0.1225,-0.1208,0.3934,2052
0,-0.5537,-0.981,-0.3042,0.1856,-0.0578,0.4428,2052
0,-0.5466,-0.9167,-0.2097,0.2076,-0.0206,0.4038,2051
0,-0.5852,-0.7637,-0.2168,0.2449,0.1449,0.4593,2053
0,-0.4546,-0.6321,-0.2778,0.3304,0.236,0.4833,2050
0,-0.4851,-0.5142,-0.3269,0.3492,0.4686,0.6769,2064
0,-0.2966,-0.4902,-0.4556,0.4618,0.3161,0.6915,2052
0,-0.2068,-0.4258,-0.4712,0.5018,0.1478,0.658,2052
0,0.0503,-0.2749,-0.5488,0.4362,0.77,1.0551,2058
0,-0.2715,-1.0852,-0.3298,0.0495,0.7038,-0.1662,2057
0,-0.8223,-0.5771,-0.2427,-0.0016,0.5778,0.822,2062
0,-0.5374,-0.3196,-0.2573,0.3731,0.2181,0.8496,2049
0,-0.6543,-0.8459,-0.2578,0.5315,0.1594,0.3151,2048
0,-0.6272,-1.3552,-0.2158,0.4593,0.1156,0.3773,2052
0,-0.644,-1.3616,-0.1838,0.4417,0.2099,0.4342,2053
0,-0.6362,-1.1921,-0.1677,0.43,0.1884,0.492,2053
0,-0.7061,-1.021,-0.179,0.4492,0.1521,0.4341,2048
0,-0.6016,-0.7681,-0.1946,0.492,0.0786,0.4131,2051
0,-0.4263,-0.5408,-0.2092,0.4699,-0.0459,0.4396,2058
0,-0.4014,-0.459,-0.2305,0.4101,-0.0466,0.4212,2048
0,-0.4453,-0.5378,-0.2312,0.3537,0.1475,0.3914,2061
0,-0.5754,-0.6201,-0.1816,0.2872,0.3464,0.424,2039
0,-0.6509,-0.8,-0.1555,0.2603,0.518,0.6161,2051
0,-0.6885,-0.9937,-0.1045,0.2583,0.567,0.6078,2050
0,-0.6917,-1.0024,-0.1401,0.3201,0.298,0.5835,2042
0,-0.7026,-0.9521,-0.1389,0.3702,0.0917,0.486,2068
0,-0.5679,-0.8499,-0.1165,0.2523,0.0565,0.4128,2107
0,-0.8047,-0.729,-0.1301,0.2141,0.0566,0.1862,2033
0,-0.8306,-0.658,-0.1021,0.2184,0.1409,0.078,2060
0,-0.8455,-0.6736,-0.0906,0.2878,0.0398,-0.0607,2037
0,-0.762,-0.7212,-0.0564,0.2954,0.0406,-0.0951,2007
0,-0.7183,-0.7754,-0.0525,0.2073,0.2643,-0.1791,2036
0,-0.7205,-0.8306,-0.0659,0.0902,0.2952,-0.2197,2046
1,-0.7427,-0.874,-0.0933,0.1044,0.322,-0.2345,2032
1,-0.7207,-0.8779,-0.1111,0.0871,0.2787,-0.2537,2048
1,-0.7512,-0.759,-0.1692,0.1035,0.1987,-0.3492,2057
1,-0.791,-0.7349,-0.1758,0.1711,0.0834,-0.4139,2053
1,-0.8464,-0.79,-0.1499,0.1952,0.0621,-0.5859,2061
1,-0.8113,-0.8154,-0.1382,0.1535,0.0856,-0.6954,2051
1,-0.7422,-0.7441,-0.157,0.1297,0.1281,-0.7851,2053
1,-0.6746,-0.7456,-0.1355,0.1258,0.1141,-0.8204,2051
1,-0.6445,-0.7761,-0.1497,0.1316,0.1815,-0.8429,2036
1,-0.7026,-0.8435,-0.1555,0.0698,0.1182,-1.0271,2049
1,-0.5874,-0.7773,-0.1426,0.0702,0.1224,-0.9501,2050
1,-0.5767,-0.7607,-0.199,0.0742,0.0591,-0.9903,2030
1,-0.5298,-0.7461,-0.1697,0.0566,0.0601,-0.9665,2054
1,-0.541,-0.7874,-0.1528,0.0308,0.0431,-1.0069,2050
1,-0.5696,-0.7981,-0.1479,0.0221,0.0602,-1.0641,2058
1,-0.5879,-0.8206,-0.147,-0.0096,0.1043,-1.109,2050
1,-0.5396,-0.8442,-0.1497,-0.028,0.0932,-1.0732,2056
1,-0.5876,-0.7021,-0.1448,-0.0533,0.1361,-1.0914,2098
1,-0.5081,-0.6523,-0.1975,-0.0563,0.1693,-1.1232,2055
1,-0.4109,-0.7231,-0.2627,-0.0174,0.2005,-1.1302,2057
1,-0.3247,-0.8513,-0.2898,0.02,0.1667,-1.0801,2063
1,-0.2727,-0.9363,-0.313,0.0654,0.1218,-1.1773,2053
1,-0.1802,-1.0098,-0.3164,0.1171,0.0694,-1.0214,2050
1,-0.2349,-0.9712,-0.2969,0.1284,0.015,-0.9315,2047
1,-0.3232,-0.7371,-0.2949,0.075,0.14,-0.8815,2049
1,-0.4431,-0.6646,-0.2378,0.1173,0.1328,-0.9883,2054
1,-0.4312,-0.855,-0.1506,0.1758,0.1722,-0.9835,2022
1,-0.3533,-0.9915,-0.1289,0.237,0.131,-0.9473,2049
1,-0.3396,-1.0762,-0.1602,0.2036,0.1543,-0.9357,2080
1,-0.3535,-0.9355,-0.0754,0.1593,0.2071,-0.7906,2075
1,-0.4148,-0.9636,-0.0728,0.1667,0.1559,-0.97,2043
1,-0.3923,-0.9451,-0.0745,0.1289,0.196,-0.9337,2057
1,-0.3306,-0.9583,-0.1335,0.0976,0.2159,-1.0119,2025
1,-0.2632,-0.929,-0.1196,0.0376,0.145,-0.9831,2057
1,-0.2351,-0.9302,-0.1475,0.0506,0.1221,-1.0278,2049
1,-0.3074,-0.8701,-0.1592,-0.0133,0.0738,-0.9214,2025
1,-0.3428,-0.8691,-0.1082,0.0499,0.0727,-0.9431,2059
1,-0.4268,-0.9736,-0.124,0.0647,0.08,-1.0837,2069
1,-0.3699,-0.9419,-0.1016,0.0851,0.0202,-0.9959,2042
1,-0.238,-0.9878,-0.1711,0.0133,0.0414,-1.1856,2081
1,-0.1807,-0.9329,-0.2454,-0.0719,0.1238,-1.1709,2036
1,-0.1431,-0.7896,-0.2463,-0.079,0.0563,-1.1591,2046
1,-0.1196,-0.7869,-0.2036,-0.0445,-0.0403,-1.1099,2054
1,-0.1873,-0.8867,-0.1814,0.0529,-0.238,-1.06,1980
1,-0.2292,-0.9597,-0.2195,0.0655,-0.1992,-1.0648,1989
1,-0.2114,-0.9143,-0.2253,0.0651,-0.238,-1.0178,2044
1,-0.1621,-0.9041,-0.2227,0.0395,-0.1886,-1.0983,2049
1,-0.1589,-0.9321,-0.2917,0.0388,-0.2535,-1.1475,2072
1,-0.04,-0.8528,-0.2498,0.092,-0.3173,-1.0307,2048
1,-0.1064,-0.7319,-0.3064,0.1506,-0.2958,-1.0499,2053
1,-0.0234,-0.7598,-0.4922,0.1887,-0.2476,-1.1397,2034
1,0.0574,-0.762,-0.6548,0.202,-0.1009,-1.0954,1996
1,0.104,-0.5444,-0.4172,0.3549,-0.4381,-0.816,2116
1,-0.0059,-0.6582,-0.5181,0.438,-0.2454,-1.2455,2074
1,0.0105,-0.781,-0.5562,0.5517,-0.559,-0.8835,2032
1,0.2324,-1.0564,-0.5049,0.6689,-0.2286,-0.6363,2020
1,0.1157,-1.0491,-0.2673,0.876,-0.2818,-0.448,2048
1,0.0493,-1.0474,-0.0869,0.9724,-0.3626,-0.3296,2080
1,-0.0193,-1.0808,0.1008,0.9642,-0.4514,-0.3657,2002
1,-0.0469,-1.106,0.1628,0.8837,-0.4019,-0.3942,2038
1,0.0598,-1.178,0.1248,0.6935,-0.3156,-0.3524,2072
1,0.1973,-1.2458,0.1282,0.4253,-0.4677,-0.3084,2046
1,0.23,-1.2449,0.2136,0.3789,-0.8644,-0.2137,2096
1,0.2637,-1.2354,0.2476,0.3065,-0.9897,-0.1445,2047
1,0.3513,-1.24,0.178,0.11,-1.0291,-0.0353,2044
1,0.2673,-1.1296,0.1399,-0.0437,-1.1694,0.0631,1990
1,0.179,-0.981,0.009,-0.1348,-1.211,0.1578,2066
1,0.1663,-0.9111,-0.1292,-0.1627,-1.4832,0.1775,2103
1,0.1716,-0.853,-0.0969,-0.295,-1.8839,0.2105,2126
1,0.2966,-1.0852,0.0042,-0.4613,-1.7777,0.2839,2098
1,0.4424,-1.365,0.0254,-0.6682,-1.7478,0.2866,2009
1,0.533,-1.4934,0.0098,-0.8178,-1.3857,0.2784,2020
1,0.3396,-1.6433,-0.0234,-0.7514,-1.7823,0.401,2000
1,0.124,-1.5491,0.1411,-0.8741,-1.9893,0.7096,2144
1,0.0129,-1.2124,0.1885,-0.8106,-1.945,0.9662,2037
1,0.0134,-1.178,0.1458,-0.7992,-2.0658,0.889,2043
1,-0.0627,-1.1809,0.1924,-0.7387,-2.1975,0.744,2041
1,-0.1296,-1.0032,0.2844,-0.6442,-2.0414,0.7087,2065
1,-0.2368,-0.9229,0.2,-0.5803,-2.3264,0.5996,2159
1,-0.6196,-0.6492,0.1494,-0.4223,-2.3574,0.5948,2040
1,-0.6077,-0.6921,0.2129,-0.2882,-2.4522,0.4348,2073
1,-0.5181,-0.8147,0.2346,-0.2083,-2.5231,0.4466,2044
1,-0.5215,-0.8247,0.1965,-0.2258,-2.5233,0.4434,2041
1,-0.4758,-0.7878,0.113,-0.3314,-2.5791,0.3574,2070
1,-0.5342,-0.8093,0.1482,-0.594,-2.5147,0.5124,2052
1,-0.595,-0.7834,-0.0847,-0.5401,-1.7811,1.0772,2052
1,-0.6533,-0.6343,-0.1375,0.1759,-1.6594,0.6791,2048
1,-0.5896,-1.3015,0.0886,-0.4891,-1.7652,0.179,2049
1,-0.5203,-1.1338,-0.3245,-1.292,-1.5403,0.3298,2058
1,-0.6655,-0.4685,-0.4426,-1.5928,-1.9012,0.2165,2057
1,-0.5527,-0.2078,-0.4829,-1.5828,-2.5247,0.1447,2047
1,-0.3938,-0.4651,0.0161,-1.0396,-3.3584,0.1631,2052
1,-0.0813,-0.5051,0.1904,-0.6007,-3.8712,0.4999,2060
1,0.2651,-0.7063,0.3323,-0.4145,-4.3635,0.5835,2051
1,0.4387,-0.6628,0.2058,-0.4821,-4.3635,0.7205,2054
1,0.28,-0.6741,-0.0042,-1.1275,-4.3635,0.9443,2052
1,-0.156,-0.7363,-0.0989,-0.2302,-4.3635,0.6189,2051
1,-0.1572,-0.7825,0.2131,-0.495,-4.3635,0.5707,2052
1,-0.2983,-0.6318,0.5168,-0.3248,-4.3635,0.5869,2047
1,-0.5491,-0.6975,0.6797,-0.1193,-4.3635,0.3883,2050
1,-0.8147,-0.8318,0.5713,-0.0662,-3.6263,0.5377,2049
1,-0.8799,-0.8691,0.3586,-0.1477,-3.1508,0.7084,2054
1,-0.6902,-0.9004,0.2083,-0.3105,-3.1834,0.5405,2057
1,-0.4834,-0.9861,0.1233,-0.4357,-3.2152,0.3293,2053
1,-0.5115,-1.0957,0.0854,-0.5983,-2.8014,0.132,2051
2,-0.5476,-1.1721,0.0352,-0.8447,-2.4127,0.0205,2053
2,-0.4663,-1.1484,-0.0811,-1.0871,-2.13,0.0334,2061
2,-0.4299,-1.0386,-0.1777,-1.1994,-2.0887,-0.0068,2054
2,-0.3694,-0.9971,-0.2742,-1.3699,-2.3438,-0.129,2053
2,-0.3494,-0.9153,-0.3406,-1.5167,-2.5779,-0.2333,2050
2,-0.3799,-0.8718,-0.3933,-1.6127,-2.6457,-0.3932,2053
2,-0.3596,-0.8694,-0.4116,-1.7126,-2.6968,-0.406,2046
2,-0.3167,-0.8667,-0.3809,-1.821,-2.7418,-0.4111,2050
2,-0.2361,-0.9119,-0.3315,-1.9599,-2.9653,-0.4924,2046
2,-0.1655,-0.8711,-0.3181,-2.1027,-3.1977,-0.5211,2055
2,-0.303,-0.7761,-0.304,-2.2477,-3.3757,-0.647,2054
2,-0.3062,-0.7056,-0.2732,-2.3627,-3.5041,-0.7276,2049
2,-0.3333,-0.6848,-0.1978,-2.3961,-3.5362,-0.7879,2055
2,-0.3325,-0.6055,-0.1418,-2.4085,-3.4047,-0.7706,2064
2,-0.4736,-0.4775,-0.1704,-2.4123,-3.1258,-0.8353,2047
2,-0.6855,-0.3049,-0.2068,-2.4187,-2.6336,-0.8589,2052
2,-0.9441,-0.1875,-0.2202,-2.2901,-1.8591,-0.9175,2053
2,-1.0005,-1.1167,-0.5376,-2.8537,-1.1489,-2.2751,2050
2,-1.1411,-0.1377,-1.4375,-2.3637,1.9449,-0.526,2042
2,-2.0,-2.0,0.8672,-0.9721,-0.9806,0.0783,2061
2,-0.502,-1.6338,1.9999,1.8277,-0.4605,1.866,2107
2,0.498,-0.8728,1.1577,0.8584,2.4489,1.3367,2027
2,-0.0193,-0.897,-0.4089,0.5284,1.3456,-1.4563,2028
2,-0.6028,-1.3662,-0.5967,0.3753,1.956,-0.5755,1996
2,-1.2703,-1.4036,-0.791,0.177,3.6683,0.281,2037
2,-0.3086,-1.0776,-0.9036,-0.4565,2.5842,0.9095,2042
2,1.145,-0.4243,-0.5894,-0.0691,0.2814,0.872,2069
2,-0.0334,0.0542,0.0063,0.1967,-0.1325,0.1489,2072
2,-1.3123,-1.0837,0.3223,0.296,-0.7749,-1.1298,2060
2,-0.6733,-1.3789,0.2427,0.5086,-0.1515,-0.4042,1993
2,-0.9214,-1.282,0.1982,0.2762,0.4464,0.5014,2041
2,-0.8772,-1.1621,0.2605,-0.1169,0.561,0.4216,2012
2,-0.8481,-1.0942,0.4495,-0.6842,0.3573,0.137,2252
2,-0.8088,-1.0264,0.4329,-0.8721,0.4458,0.0459,2026
2,-0.6262,-0.9951,0.0801,-0.5184,0.2806,-0.1583,2048
2,-0.1765,-0.8867,-0.272,-0.4707,-0.1027,-0.3478,2048
2,-0.3411,-0.9197,-0.1738,-0.8163,-0.1329,-0.4705,2019
2,-0.8306,-0.9575,-0.2437,-0.6996,-0.4228,-0.5047,2080
2,-0.6204,-0.9128,-0.2629,-0.6393,-0.3002,-0.4468,2008
2,-0.3538,-0.8484,-0.384,-0.5857,-0.2956,-0.4686,2020
2,-0.3865,-0.8784,-0.3442,-0.5801,-0.3991,-0.7034,2092
2,-0.4165,-1.0002,-0.3459,-0.6228,-0.331,-0.7738,2102
2,-0.3164,-1.0337,-0.3628,-0.5988,-0.4388,-0.6441,2382
2,-0.1125,-0.9155,-0.2869,-0.6161,-0.225,-0.3762,1879
2,-0.251,-0.8613,-0.2085,-0.4342,-0.263,-0.1631,2214
2,-0.2966,-0.9758,-0.2344,-0.4205,-0.3056,-0.2852,2039
2,-0.1924,-0.9062,-0.3003,-0.3421,-0.2366,-0.3416,1950
2,-0.1289,-0.8225,-0.376,-0.2095,-0.3603,-0.3352,1980
2,-0.0186,-0.8672,-0.4805,-0.131,-0.6797,-0.2452,2012
2,0.0203,-0.8884,-0.428,-0.0385,-0.8163,-0.2219,2026
2,0.6831,-1.1135,-0.408,-0.0541,-1.9026,-0.1914,2076
2,-0.053,-1.1724,-0.4216,-0.1288,-2.1526,-0.0336,2174
2,-0.2288,-0.916,-0.3694,-0.1077,-2.0897,-0.0555,1921
2,0.1775,-0.8098,-0.4299,0.0285,-1.481,0.1067,1939
2,-0.126,-1.0286,-0.2249,0.1049,-2.0892,-0.2109,2033
2,-0.5391,-1.0195,-0.124,-0.0357,-1.2794,0.1408,2040
2,-0.0251,-1.1587,0.0754,-0.0587,-1.0728,-0.255,2101
2,0.1377,-0.9807,0.0188,0.0549,-1.0344,0.223,2022
2,-0.302,-1.0076,0.0586,0.1663,-1.0323,0.3763,1899
2,-0.23,-1.1138,-0.0134,0.165,-0.7333,0.453,2291
2,0.2019,-1.2322,0.0762,0.1173,-0.9106,0.7002,1922
2,0.0601,-1.0696,-0.0222,0.0614,-0.9781,1.1207,1882
2,0.0159,-1.0049,-0.0593,0.0378,-1.0508,0.8468,1820
2,0.0244,-1.2244,-0.1318,0.0019,-1.046,0.9376,2355
2,-0.033,-1.2305,-0.0527,-0.0366,-0.7802,1.0361,1783
2,-0.0439,-1.1501,-0.0056,-0.0645,-0.6299,1.1621,2026
2,0.0505,-1.1301,0.0728,-0.0847,-0.6408,1.1786,2022
2,0.283,-1.0737,0.1611,-0.0415,-0.5155,1.3605,2321
2,0.3804,-1.1069,0.1016,-0.0043,-0.5859,1.7045,2109
2,0.3533,-1.2561,0.1953,-0.0264,-0.491,1.8586,2028
2,0.3525,-1.3979,0.1335,-0.0643,-0.1382,2.2097,2078
2,0.4841,-1.5435,0.241,-0.1273,0.2111,2.4824,2072
2,0.6682,-1.6709,0.2539,-0.2208,0.3884,2.7673,2032
2,0.8491,-1.7939,0.2815,-0.4077,0.43,3.0407,2059
2,0.9817,-1.8269,0.4331,-0.6679,0.2967,3.328,2065
2,1.0535,-1.7498,0.5093,-0.8154,0.0656,3.6793,2040
2,1.0342,-1.7439,0.1099,-0.6233,-0.1306,3.9813,2055
2,0.8616,-1.9456,-0.1829,-0.1043,-1.0742,4.3634,2044
2,0.2144,-2.0,1.0474,0.0149,-0.9449,4.3634,2043
2,0.9783,-2.0,-0.1443,0.0053,-1.6002,3.7347,2054
2,0.9426,-2.0,-0.323,0.4771,-2.7646,4.3634,2051
2,0.5994,-0.8669,-0.3772,0.4087,-4.3635,3.6569,2050
2,-0.8298,-1.3892,-0.6555,-1.1521,-4.3635,0.671,2048
2,-2.0,-0.2268,-0.1306,-1.0702,-2.5811,4.3634,2056
2,-2.0,-0.3721,0.6289,0.6988,-0.027,4.3634,2060
2,-2.0,-0.866,-2.0,2.6109,-4.1177,3.3387,2054
2,-2.0,1.2957,0.0767,-1.3528,-0.389,3.0311,2064
2,-2.0,-0.3264,0.1631,-1.7821,-0.1141,1.9699,2074
2,-1.5586,-0.7188,0.6736,-0.8994,-1.0808,2.1904,2067
2,-0.5566,-0.1641,0.5652,-0.1494,-2.7329,1.2817,2041
2,-0.4292,-0.2407,0.5391,-1.6159,-3.0512,-2.2465,2047
2,-0.502,-0.448,0.3113,-1.8683,-2.0522,-1.7242,2044
2,-0.0845,-0.3174,0.3198,-0.7385,-1.788,-1.1327,2048
2,0.2249,-0.0359,0.5828,-0.244,-2.0319,-1.2087,2055
2,-0.2266,0.0762,0.8923,-0.2534,-2.5092,-1.2292,2046
2,-0.5999,0.1377,1.1418,-0.3995,-2.495,-1.4294,2046
2,-0.8787,0.1956,1.2412,-0.412,-1.509,-1.4255,2051
2,-1.155,0.2139,1.2983,-0.8234,-0.4028,-1.821,2047
2,-1.3271,0.1667,1.2234,-1.1977,0.5653,-2.2678,2048
2,-0.9065,0.2266,1.2048,-1.3632,1.1664,-2.7971,2051
2,-0.7876,0.5088,0.9443,-1.1909,1.2379,-3.1174,2053
2,-0.981,0.6067,0.6599,-0.6805,1.6275,-3.9211,2053
2,-0.7903,0.4749,0.4849,-0.1854,1.9301,-4.3575,2056
3,-0.4021,0.3354,0.4412,0.2401,2.0407,-4.3635,2024
3,-0.2244,0.26,0.3933,0.6899,2.2711,-4.3635,2117
3,-0.2925,0.2197,0.3494,1.0838,2.5683,-4.3635,2016
3,-0.1929,0.1545,0.2925,1.3977,2.6862,-4.3635,2058
3,-0.0198,0.1299,0.248,1.658,2.2411,-4.3635,2013
3,0.0654,0.1252,0.1143,1.9286,1.4512,-4.3635,2048
3,0.0271,0.0723,-0.0312,2.55,0.9018,-4.3635,2103
3,-0.0205,-0.0513,0.0583,2.7188,0.6821,-4.3635,2035
3,-0.1199,-0.2671,0.2144,2.5377,0.6231,-4.3635,2039
3,-0.2729,-0.3123,0.0642,2.5713,0.3212,-4.3635,2040
3,-0.4619,-0.5042,0.1309,2.1851,-0.0282,-4.3635,2051
3,-1.0076,-0.9341,0.2957,1.7142,0.3882,-4.3635,2102
3,-1.4067,-0.7498,0.3596,1.7727,1.271,-4.3635,2056
3,-1.676,-0.6724,0.4121,1.5623,2.8935,-4.3635,2052
3,-1.2227,-0.8169,0.3655,1.6153,3.5805,-4.3635,2034
3,-0.6763,-1.011,0.0415,2.1948,3.2187,-4.3635,2104
3,-0.0103,-1.0374,0.0447,2.1256,2.0338,-4.3635,2002
3,-0.0093,-1.1816,-0.1858,2.3151,0.8568,-4.3635,2032
3,0.1035,-1.9673,-0.5308,2.223,0.5109,-4.3394,2053
3,0.3965,-2.0,-0.7676,1.7711,-0.6669,-3.2921,2050
3,0.356,-2.0,-0.8867,0.9359,-2.0145,-3.4589,2043
3,0.4675,-1.9919,-0.8538,0.5264,-2.1964,-2.4167,2037
3,0.8669,-1.8328,-0.9231,-0.3506,-2.863,-1.8736,2057
3,0.0259,-2.0,-0.4631,-1.6843,-3.6832,-2.0045,2053
3,0.1899,-2.0,-0.5789,-3.226,-3.1187,-3.3579,2082
3,-0.3892,0.4656,-0.1216,-2.3914,-3.5711,2.5167,2079
3,-0.2493,-2.0,0.1404,-1.8616,-3.9494,4.3634,2034
3,-2.0,0.0422,1.4333,-0.4011,-0.1669,4.023,2108
3,-0.6477,-0.4795,1.9999,1.8263,1.9968,2.958,2045
3,0.843,-2.0,1.9999,0.4803,1.0745,1.6833,2036
3,1.8606,-2.0,1.3757,1.0469,4.3634,0.2521,2029
3,1.0828,-2.0,1.4851,-0.0546,4.3634,0.7038,2028
3,-1.7776,-1.1182,1.239,-1.1575,4.3634,2.4064,2041
3,-2.0,-0.7617,0.6221,-2.3708,2.803,1.9672,2066
3,-2.0,-1.5718,-0.3938,-1.9058,3.2206,2.6544,2068
3,-1.1069,0.4128,-0.7812,-1.9646,2.1642,0.2705,2049
3,-0.7231,-0.324,-0.9761,-0.9831,2.1314,-0.6387,2061
3,0.7732,-1.5005,-1.3328,-1.244,1.0343,-0.5076,2045
3,1.5266,-1.2388,-1.3293,-1.3934,-0.5677,1.0074,1991
3,-0.2505,-0.8403,-0.7644,-0.0591,1.2625,0.9769,2059
3,-0.3479,-1.0439,0.0596,-0.3593,0.9481,0.6877,2063
3,-0.3518,-1.0728,-0.0039,-0.3139,1.1315,0.6717,2053
3,-0.3186,-0.9651,0.2822,-0.5136,1.0572,0.556,2056
3,-0.3147,-0.8494,0.2178,-0.5267,1.1665,0.5092,2046
3,-0.3386,-0.9575,0.3171,-0.5168,0.7447,0.5016,2024
3,-0.1233,-0.9727,0.3352,-0.5096,0.824,0.6657,2048
3,-0.0149,-0.9919,0.2993,-0.424,0.7919,0.7939,2041
3,-0.1135,-1.0383,0.2683,-0.3215,0.471,0.5918,2060
3,-0.322,-1.0618,0.2366,-0.3406,0.173,0.3064,2054
3,-0.3318,-1.0889,0.2485,-0.4667,-0.1904,0.1993,2012
3,-0.1768,-1.0698,0.2556,-0.5818,-0.3023,0.1226,2056
3,-0.1814,-1.0125,0.2935,-0.5846,-0.2313,0.1224,2051
3,-0.2261,-0.9724,0.2048,-0.5875,-0.1168,0.1538,2052
3,-0.2583,-0.9839,0.1299,-0.5916,-0.1653,0.1212,2055
3,-0.3774,-0.9468,0.0525,-0.5821,-0.116,0.1003,2054
3,-0.3901,-0.8809,0.0085,-0.5512,-0.0213,0.1202,2068
3,-0.3384,-0.8716,-0.0374,-0.5634,-0.0498,-0.0185,1953
3,-0.2483,-0.9146,-0.2581,-0.6091,-0.3048,-0.2286,2044
3,-0.1572,-0.9858,-0.136,-0.7055,-0.172,-0.1683,2041
3,-0.2014,-0.9209,-0.064,-0.4413,-0.1767,-0.1077,2079
3,-0.0842,-0.8513,-0.0762,-0.3767,-0.4137,-0.2743,2017
3,0.2437,-0.9641,0.0317,-0.414,-0.3211,-0.1874,2146
3,0.3477,-1.0442,-0.0662,-0.3089,-0.393,0.0394,1986
3,0.4558,-1.0413,-0.0327,-0.4326,-0.2826,0.1593,1982
3,0.4763,-1.0693,-0.0935,-0.4099,-0.3778,0.1918,1957
3,0.5374,-1.1741,-0.1006,-0.4478,-0.4778,0.6325,2010
3,0.6497,-1.1316,-0.0271,-0.5038,-0.5545,0.814,1964
3,0.2393,-1.0129,-0.0403,-0.3971,-0.3559,0.7039,1942
3,-0.0334,-1.0288,-0.0229,-0.3418,-0.2791,0.8099,2137
3,-0.2026,-1.0552,-0.0105,-0.3267,-0.1685,0.8737,2138
3,-0.3342,-1.0354,-0.0276,-0.329,-0.1043,0.7731,2115
3,-0.1514,-1.0576,0.1875,-0.4281,-0.2111,1.0334,1948
3,-0.2607,-0.9377,0.2415,-0.4057,-0.2181,0.876,2075
3,-0.4661,-0.9089,0.2212,-0.3401,-0.1645,0.8562,2106
3,-0.2375,-1.0173,0.063,-0.38,-0.1653,1.0115,1919
3,-0.0583,-0.9941,-0.0547,-0.4133,-0.2527,0.9826,1921
3,-0.0549,-0.9788,-0.1372,-0.3469,-0.2786,0.9499,1966
3,-0.0801,-1.0034,-0.1211,-0.2992,-0.1936,1.1186,2381
3,-0.0117,-1.0137,-0.1375,-0.2625,-0.1232,1.1537,2049
3,0.0422,-1.0779,-0.074,-0.1962,-0.1956,1.2716,1789
3,-0.0085,-1.1624,-0.0122,-0.2535,-0.2501,1.2688,2101
3,-0.1272,-1.2078,0.1372,-0.3446,-0.391,1.1214,2044
3,-0.2268,-0.9724,0.1934,-0.2896,-0.1993,1.1551,2026
3,-0.2429,-0.9949,0.1914,-0.2334,-0.1229,1.231,2087
3,-0.0852,-1.1226,0.1816,-0.2372,-0.1052,1.3543,2255
3,0.0408,-1.0708,0.2014,-0.2647,-0.0925,1.5183,2034
3,0.0557,-1.0269,0.186,-0.2511,0.0286,1.6018,1990
3,0.1389,-1.1294,0.2192,-0.2735,0.1321,1.6969,2038
3,0.2422,-1.1982,0.2185,-0.2902,0.2422,1.964,2037
3,0.0249,-1.2441,0.2578,-0.3464,0.2357,1.8704,2060
3,-0.0615,-1.2488,0.2612,-0.4112,0.3661,1.986,2044
3,-0.0791,-1.1519,0.2639,-0.4157,0.4737,2.0438,2058
3,-0.124,-1.1821,0.2168,-0.3882,0.467,2.073,2052
3,-0.1348,-1.2161,0.2344,-0.4043,0.6195,2.219,2036
3,-0.0344,-1.3496,0.2297,-0.3384,0.7303,2.3088,2048
3,-0.0442,-1.3396,0.2439,-0.2711,0.7396,2.548,2052
3,0.0303,-1.6814,0.303,-0.2907,1.1266,2.6326,2051
3,0.02,-1.7842,0.459,-0.5717,1.2236,2.7486,2057
3,0.2139,-1.7217,0.4409,-0.8305,0.9078,2.8215,2056
3,0.3835,-1.749,0.4082,-0.7363,0.5347,3.0745,2061
3,0.5037,-1.9978,0.5845,-1.2623,0.2274,2.9714,2054
3,0.5161,-1.5493,0.0796,-1.1204,-1.0894,3.3682,2032
4,0.0862,-1.0591,-0.2612,-0.4019,-2.457,3.3946,2035
4,-0.0811,-1.3164,-0.1792,0.1421,-2.8058,2.7633,2051
4,-0.4294,-1.3931,-0.2498,-0.1057,-2.2314,2.7938,2056
4,-0.9131,-1.0437,-0.4192,-0.4765,-1.4486,2.5225,2054
4,-0.8157,-1.5596,-0.2327,-1.6824,-1.5679,0.944,2051
4,-0.5759,-1.019,-0.1228,-2.0001,-1.7733,1.174,2052
4,-0.5808,-0.2954,-0.0798,-1.7076,-1.8859,2.1686,2055
4,-0.4241,0.4666,0.0208,-0.7569,-1.9358,3.1388,2053
4,-0.3784,0.6035,-0.3696,0.4807,-1.1605,2.4986,2050
4,-1.3257,-0.4121,-0.7148,-0.1934,-0.7616,1.0521,2049
4,-0.2803,-2.0,-1.0066,0.2523,-4.3635,2.8955,2045
4,-2.0,0.9465,0.4136,1.0618,-2.0731,1.0678,2061
4,-1.6653,0.1641,0.3777,-0.2132,-0.7147,0.2288,2062
4,-0.8374,-0.3174,-0.0029,0.3725,-0.3912,-0.4414,2061
4,-0.5596,0.1208,0.01,-0.3047,-0.6414,-1.7369,2050
4,-0.551,0.0156,-0.2271,0.4108,-0.4794,-2.0675,2047
4,-0.5098,-0.0266,-0.0142,1.0365,-0.2723,-1.5681,2048
4,-0.5962,0.0374,0.021,1.1151,0.2591,-1.7803,2050
4,-0.6514,0.0679,0.0117,1.2254,0.8331,-2.0437,2047
4,-0.6604,-0.0083,-0.0159,1.3604,1.3338,-2.3152,2049
4,-0.7954,-0.0129,0.0129,1.5075,1.9168,-2.4517,2050
4,-0.9521,0.0483,0.0725,1.6964,2.5687,-2.602,2051
4,-0.8591,0.2222,0.1694,2.0221,3.1949,-2.5408,2052
4,-0.5164,0.2703,0.2603,2.1828,3.4123,-2.3304,2046
4,-0.0083,0.156,0.2729,2.6034,2.9913,-3.2094,2050
4,-0.002,-0.2263,0.1826,2.7621,2.4,-3.925,2049
4,-0.3064,-0.3594,0.0471,2.7627,2.076,-3.8728,2045
4,-0.7148,-0.3679,-0.0308,2.792,1.9001,-3.5949,2066
4,-0.8833,0.2964,0.2244,3.3274,1.3936,-2.8996,2057
4,0.1516,-0.1389,0.2664,2.7331,1.2063,-3.365,2050
4,-0.0176,-0.2944,0.0471,2.7966,0.8989,-3.798,2051
4,-0.1853,-0.5322,-0.1924,2.8869,0.656,-4.1935,2055
4,-0.4871,-0.8728,-0.2124,2.9922,0.4072,-4.3635,2062
4,-0.8499,-1.0601,-0.1526,2.7791,0.0968,-4.3635,2050
4,-0.7483,-0.7932,-0.0039,2.2455,-0.5935,-4.3635,2046
4,-1.198,-1.3682,0.0835,2.0501,0.0334,-4.3635,2046
4,-2.0,-2.0,0.8984,0.522,-0.8032,-4.3635,2052
4,-1.7483,-2.0,0.873,0.5951,2.7436,-4.3635,2064
4,-0.0171,-1.4629,1.781,0.5038,1.2017,-3.788,2044
4,-0.0415,-1.0232,0.135,0.5723,4.3122,-0.4313,2040
4,-2.0,-2.0,-0.3064,1.0766,4.3634,-0.441,2039
4,-2.0,-0.2607,-0.9084,1.5765,3.9566,1.7996,2040
4,-2.0,-0.8228,0.4509,0.34,4.3634,1.8433,2080
4,-1.928,-1.2527,0.1445,0.0738,4.3634,2.9823,2076
4,-0.1997,-1.0752,-0.0146,0.0928,4.3634,3.9602,2063
4,0.9946,-0.3345,-0.304,1.4559,4.3634,-0.6305,2041
4,1.6245,-1.0032,-0.4612,0.1226,4.3634,-0.8176,2045
4,-0.2654,-0.804,-0.6775,1.079,4.3634,1.5295,2054
4,1.5137,-1.1377,0.2388,1.0989,0.9006,1.2798,2057
4,0.5247,-1.3474,-0.0083,0.3141,1.544,0.7263,2033
4,-0.0176,-0.6028,-0.6155,-0.2039,0.91,0.5205,2050
4,-0.1213,-1.1189,-0.3696,-0.5779,0.3974,0.3619,2068
4,-0.1882,-1.2544,-0.384,-0.5612,0.7719,0.385,2051
4,-0.29,-0.9614,-0.4243,-0.1406,0.7649,0.6244,2048
4,-0.1731,-0.8098,-0.3157,0.0763,0.6714,0.7204,2047
4,-0.1331,-1.0759,-0.0903,0.1097,0.3181,0.8064,2049
4,-0.0283,-1.1541,0.1711,0.2027,-0.0067,1.001,2057
4,-0.0283,-1.292,0.4519,0.2939,0.3808,1.0947,2051
4,-0.1743,-1.2307,0.5691,0.123,1.184,1.1789,2047
4,-0.4202,-1.0857,0.5332,-0.1734,1.7664,1.2467,2053
4,-0.6211,-1.1653,0.4294,-0.4002,1.482,1.3918,2051
4,-0.5046,-1.1899,0.4431,-0.4064,0.7684,1.5006,2055
4,-0.2178,-1.0278,0.3489,-0.3586,0.595,1.2865,2053
4,-0.126,-0.8899,0.2458,-0.343,0.687,0.8805,2053
4,-0.3599,-0.9089,0.1528,-0.4488,0.7136,0.6853,2051
4,-0.5964,-0.8789,0.1699,-0.4679,0.4353,0.7103,2051
4,-0.8225,-0.8545,0.177,-0.5092,0.4083,0.7925,2051
4,-0.9082,-0.7483,0.188,-0.5155,0.3746,0.7257,2059
4,-0.7903,-0.5269,0.103,-0.5195,0.3686,0.6556,2055
4,-0.7056,-0.4668,0.1001,-0.4044,0.271,0.6006,2046
4,-0.7422,-0.6938,0.2056,-0.2637,0.1874,0.5458,2056
4,-0.7285,-0.8342,0.2771,-0.2531,0.1739,0.6921,2052
4,-0.5752,-0.6643,0.1807,-0.329,0.4338,0.7166,2057
4,-0.4006,-0.5359,0.0203,-0.3044,0.7468,0.4923,2047
4,-0.3704,-0.7258,0.032,-0.2947,0.7241,0.3187,2058
4,-0.5281,-0.8787,0.031,-0.2687,0.4739,0.4613,2049
4,-0.5833,-0.8926,0.0144,-0.3512,0.0784,0.5584,2049
4,-0.406,-0.8599,-0.0752,-0.4153,-0.2939,0.5521,2048
4,-0.282,-0.9395,-0.054,-0.4148,-0.7038,0.4794,2050
4,-0.3115,-1.0618,0.1016,-0.3912,-0.7668,0.5067,2051
4,-0.3667,-1.0674,0.1477,-0.399,-0.5735,0.5988,2052
4,-0.4016,-0.9595,0.1011,-0.3852,-0.3292,0.5532,2054
4,-0.4946,-1.0247,0.1389,-0.3816,-0.1173,0.4606,2051
4,-0.6594,-1.0757,0.1682,-0.3729,0.0671,0.5241,2048
4,-0.6162,-1.0662,0.1389,-0.3539,-0.0385,0.6237,2056
4,-0.5872,-1.0061,0.0527,-0.337,-0.1073,0.7309,2051
4,-0.5786,-0.9399,0.0254,-0.3886,-0.2717,0.6927,2052
4,-0.6118,-0.894,0.0186,-0.4295,-0.3534,0.5601,2051
4,-0.6155,-0.8167,-0.0098,-0.3986,-0.3731,0.5802,2050
4,-0.6011,-0.814,0.0256,-0.3638,-0.3551,0.4963,2052
4,-0.6313,-0.8228,-0.0071,-0.4322,-0.0967,0.4209,2050
4,-0.7024,-0.8555,-0.0427,-0.4557,0.0421,0.3721,2049
4,-0.5505,-0.8086,-0.0542,-0.4755,-0.1092,0.4265,2050
4,-0.5828,-0.7256,-0.0913,-0.442,-0.3169,0.3802,2052
4,-0.593,-0.7036,-0.1191,-0.3742,-0.5125,0.3068,2047
4,-0.6218,-0.7341,-0.1055,-0.2959,-0.6313,0.2506,2052
4,-0.6926,-0.7561,-0.0547,-0.2205,-0.5783,0.2215,2053
4,-0.7029,-0.7407,-0.0315,-0.2056,-0.4027,0.2132,2057
4,-0.7163,-0.7124,-0.0518,-0.2068,-0.2061,0.2023,2051
4,-0.6819,-0.6663,-0.0525,-0.2145,-0.091,0.1804,2052
4,-0.6348,-0.6465,-0.043,-0.1799,-0.0758,0.1585,2050
4,-0.5803,-0.6147,-0.0681,-0.1815,-0.1284,0.1495,2052
5,-0.6248,-0.5984,-0.0867,-0.1782,-0.2353,0.1092,2046
5,-0.616,-0.5869,-0.0547,-0.1527,-0.3971,0.0838,2049
5,-0.6255,-0.573,-0.0378,-0.1467,-0.4356,0.002,2046
5,-0.7419,-0.6062,-0.0425,-0.1573,-0.3911,-0.0828,2052
5,-0.6838,-0.6382,0.0315,-0.1328,-0.5066,0.0079,2054
5,-0.7336,-0.708,0.1213,-0.0401,-0.5315,-0.0945,2045
5,-0.6421,-0.6233,0.1252,0.0205,-0.5496,-0.0852,2051
5,-0.6646,-0.6248,0.1726,0.0609,-0.5758,-0.1539,2058
5,-0.77,-0.6511,0.2393,0.1903,-0.4024,-0.1876,2051
5,-0.8811,-0.6606,0.2747,0.231,-0.071,-0.1981,2049
5,-0.9041,-0.6853,0.2969,0.3233,0.0965,-0.1425,2056
5,-0.8311,-0.6919,0.2917,0.3747,0.241,-0.0987,2065
5,-0.7546,-0.6821,0.2261,0.4859,0.4462,-0.1057,2036
5,-0.6284,-0.7417,0.2422,0.502,0.4007,-0.086,2056
5,-0.6106,-0.7974,0.2075,0.45,0.4183,-0.1328,2062
5,-0.5374,-0.8381,0.1506,0.3128,0.3071,-0.1474,2078
5,-0.4934,-0.8621,0.0515,0.2699,0.0972,-0.1031,2061
5,-0.4917,-0.9111,-0.0132,0.2017,-0.0374,-0.1547,2066
5,-0.4299,-0.9614,-0.0964,0.1631,0.0076,-0.176,2071
5,-0.4277,-0.9417,-0.1228,0.0989,-0.023,-0.2068,2051
5,-0.4214,-0.8701,-0.0432,0.0748,0.0048,-0.1333,2053
5,-0.4141,-0.7874,0.0164,0.0409,0.0076,-0.1103,2067
5,-0.4902,-0.8093,0.1013,-0.0332,-0.0297,-0.1755,2051
5,-0.6174,-0.8137,0.1997,-0.0799,-0.0033,-0.2095,2054
5,-0.6853,-0.822,0.2771,-0.1442,0.0129,-0.1844,2062
5,-0.7456,-0.8442,0.3274,-0.2228,-0.0197,-0.2324,2050
5,-0.7422,-0.9106,0.3643,-0.2658,-0.047,-0.2361,2047
5,-0.7034,-0.9312,0.4053,-0.365,-0.0983,-0.2326,2052
5,-0.6055,-0.9021,0.3325,-0.4662,-0.0394,-0.202,2050
5,-0.5623,-0.8813,0.2764,-0.539,0.0047,-0.1606,2096
5,-0.52,-0.9097,0.269,-0.6762,-0.015,-0.2017,2051
5,-0.481,-0.9521,0.2649,-0.8783,-0.0941,-0.2452,2052
5,-0.4753,-0.9431,0.2473,-1.0464,-0.2697,-0.2718,2050
5,-0.4373,-0.9426,0.2122,-1.1492,-0.3964,-0.2397,2054
5,-0.4192,-1.0195,0.1794,-1.2223,-0.5212,-0.2169,1958
5,-0.3545,-1.1289,0.0564,-1.3218,-0.6193,-0.1927,2048
5,-0.157,-1.1907,0.1174,-1.5571,-0.5269,-0.0238,2018
5,-0.1335,-1.3835,0.1191,-1.806,-0.9052,0.0423,1977
5,-0.2109,-1.2024,-0.0691,-1.8092,-1.5126,0.22,1967
5,-0.104,-1.1819,0.0044,-2.0013,-1.7804,0.1159,2033
5,-0.0825,-1.3364,-0.0334,-2.4442,-2.4699,-0.1707,2062
5,0.0771,-1.3137,-0.219,-2.7385,-3.435,-0.4076,2063
5,0.48,-1.2795,-0.4993,-3.1762,-4.3635,-0.643,2045
5,0.2168,-0.9453,-0.7476,-3.517,-4.3635,-0.7634,2047
5,0.1233,-0.6846,-0.6372,-3.8572,-4.3635,-1.0604,2054
5,0.2476,-0.5337,-0.6055,-4.3635,-4.3635,-1.489,2073
5,-0.3015,-0.2817,-0.6052,-4.3635,-4.3635,-1.6447,2043
5,0.0466,-0.4436,-0.0559,-4.3635,-4.3635,-2.0821,2074
5,-0.1677,-0.6646,-0.2576,-4.3635,-4.3635,-1.9442,2044
5,-0.7373,-0.5513,0.7695,-4.3635,-4.3635,-1.5008,2056
5,-0.0474,-0.7551,0.397,-4.3635,-4.3635,-1.4475,2055
5,-0.3162,-0.7185,0.6147,-4.3635,-4.3635,-1.2452,2038
5,-0.8574,-0.7014,0.8716,-4.3635,-4.3635,-0.6534,2061
5,-0.9121,-0.7866,1.2905,-4.0118,-4.3635,-0.8412,2040
5,-0.4065,-0.6748,1.4153,-3.5926,-4.3635,-1.4158,2055
5,-1.5603,-0.9692,1.9077,-2.6494,-2.8349,-1.7574,2058
5,-2.0,-1.2703,1.9999,-0.9524,-3.0662,-1.405,2064
5,-2.0,-0.7385,1.9999,0.5148,1.8483,0.8489,2070
5,-2.0,-0.7478,1.5781,0.2643,3.8821,-0.0318,2052
5,-1.2002,-0.7151,0.5166,-0.7621,4.3634,-0.2783,2073
5,0.7822,-0.5774,-0.8032,-1.234,3.6878,-0.5002,2039
5,0.845,-0.4443,-1.4719,-1.219,2.1228,-1.9638,2039
5,0.9229,-1.0422,-1.7146,-0.1254,-2.2242,0.0561,2076
5,1.3313,0.0183,-1.019,-1.3165,2.1519,-1.552,2048
5,1.4954,-1.0173,-0.9875,-1.22,-1.383,-1.9769,2075
5,0.1821,-0.4578,-0.6672,-0.2677,-3.0993,-1.5904,2150
5,-0.4353,-0.4626,-0.4622,0.0136,-2.8992,-1.1922,2024
5,-1.0188,-1.3162,-0.3699,-0.0951,-1.3974,-0.5177,2032
5,-0.584,-1.4817,-0.1321,0.0181,-0.9047,-0.4986,2066
5,-0.2073,-1.209,-0.2664,-0.1336,-0.5586,-1.1191,2017
5,-0.2166,-1.0249,-0.2771,0.072,-0.5361,-1.0539,2053
5,-0.303,-0.9421,-0.4736,0.2007,-0.7869,-1.1033,2061
5,-0.1992,-0.8823,-0.4607,0.5094,-0.807,-0.3854,2061
5,-0.3015,-0.8323,-0.5317,0.5907,-0.5008,-0.6986,2052
5,-0.1458,-0.9375,-0.4602,0.7321,-0.7412,-0.6066,2057
5,-0.1736,-0.8699,-0.3518,0.8865,-0.9066,-0.4587,2038
5,-0.2952,-0.8423,-0.2109,1.0922,-1.1391,-0.4955,2090
5,-0.2583,-0.9668,-0.2158,1.2428,-1.1698,-0.4932,2081
5,-0.2209,-1.1172,-0.188,1.0025,-1.4097,-0.4602,1994
5,-0.1406,-1.0503,-0.1079,0.9276,-1.4767,-0.3966,2125
5,-0.1047,-1.0125,-0.0078,0.7375,-1.3643,-0.2642,2049
5,0.0071,-0.9595,0.1001,0.7484,-1.2449,-0.2854,2072
5,-0.0637,-0.9851,0.1135,0.7819,-1.1858,-0.4474,1823
5,-0.28,-1.061,0.2029,0.7578,-0.7324,-0.2067,1824
5,-0.1099,-0.9575,0.4038,0.6693,-0.3691,0.029,1998
5,0.2219,-0.9836,0.7668,0.5441,-0.5181,0.133,2045
5,0.7188,-1.0327,1.0251,0.1922,-0.8028,0.0586,2065
5,-0.0386,-0.9504,0.7729,0.3462,-1.2268,-0.0747,2332
5,-0.4893,-0.9863,0.7202,0.398,0.0047,0.3886,2390
5,0.5767,-1.1567,0.2107,0.338,0.0932,0.8829,1897
5,0.1426,-1.1265,0.1484,0.2726,-0.1337,1.0218,2010
5,0.0488,-1.072,0.1233,0.2187,0.0174,1.1641,2108
5,-0.0249,-0.9109,0.0366,0.1481,-0.0754,1.2396,1934
5,0.1116,-0.8379,-0.0198,0.1276,0.338,1.4251,2192
5,0.0972,-0.9543,0.0144,0.0317,0.0486,1.3244,2423
5,-0.2678,-1.0291,0.0627,-0.0309,-0.2754,1.3756,2393
5,-0.4019,-1.0295,0.0198,-0.0795,-0.4244,1.3768,1973
5,-0.447,-0.9199,0.075,-0.0382,-0.72,1.213,2032
5,-0.5623,-0.9849,-0.1084,0.0527,-0.8174,1.2909,2111
5,-0.4724,-1.1555,-0.2051,0.1202,-0.4267,1.4376,2541
5,-0.1853,-1.2163,-0.0725,0.1671,0.0485,1.5293,2109
5,0.1948,-1.2434,0.1367,0.2192,0.2317,1.4697,1979
6,0.2026,-1.3586,0.1711,0.239,0.1574,1.5905,2156
6,0.0891,-1.4077,0.408,0.1963,0.2121,1.6599,2008
6,-0.0486,-1.3613,0.5847,0.1617,0.3579,1.6835,2213
6,0.0056,-1.3132,0.627,0.1357,0.5974,1.8867,2119
6,0.0393,-1.3442,0.6731,0.2059,0.7148,2.0555,1470
6,-0.0576,-1.4165,0.5901,0.2476,0.7779,2.2121,2081
6,0.1318,-1.4546,0.4514,0.28,0.9773,2.4353,1996
6,0.5181,-1.5159,0.3008,0.3181,1.0645,2.6899,2024
6,0.8159,-1.5906,0.1377,0.3063,0.9933,3.0498,2037
6,0.8252,-1.5981,0.1614,0.2986,0.9516,3.4323,2026
6,0.8091,-1.606,0.1489,0.4763,1.0324,4.0611,2082
6,0.623,-1.7971,0.1824,0.7076,1.2419,4.1231,2069
6,0.7969,-2.0,0.5378,0.73,1.0079,3.76,2074
6,0.7959,-2.0,0.4197,0.3735,1.0859,4.2374,2061
6,0.4412,-2.0,0.7734,0.5488,-0.0581,3.6735,2058
6,1.4922,-2.0,-0.571,0.2649,-0.5335,3.6548,2046
6,0.7654,-1.6282,-0.4233,0.9345,-2.7532,3.5687,2036
6,-0.6453,-2.0,-1.0454,-0.3493,-3.3412,2.1105,2050
6,-1.8755,-1.3931,-0.4773,-0.4837,-2.4127,1.4114,2058
6,-1.7319,-0.7751,0.1235,0.2109,0.0545,3.0379,2071
6,1.9485,-1.7585,0.9094,0.6104,-1.4692,4.3634,2055
6,-1.4802,0.6006,-1.0806,3.9522,-0.5932,4.2917,2023
6,-2.0,0.1533,-0.2332,0.2047,0.2782,3.3966,2053
6,-2.0,-0.2883,0.4268,0.1666,2.6689,2.1455,2065
6,-2.0,-0.5073,1.1267,0.5357,2.6943,0.9143,2057
6,-1.927,-0.1208,0.9507,0.1609,2.2017,0.8752,2053
6,-0.4995,-0.2815,0.3923,-1.2308,0.9259,-0.6107,2056
6,0.2185,-0.0017,0.1047,-2.4738,0.3409,-3.7177,2049
6,0.3457,0.0588,-0.1511,-1.5932,0.503,-3.1331,2046
6,0.2742,-0.0474,0.0894,-0.3723,0.8767,-3.273,2049
6,-0.158,-0.1531,0.1772,-0.0314,0.8222,-3.2123,2045
6,-0.7371,-0.2742,0.1387,0.0297,1.046,-3.3104,2044
6,-0.9158,-0.1621,0.0776,0.0304,1.1425,-3.2697,2049
6,-0.6387,-0.04,0.0073,0.139,0.9134,-3.407,2057
6,-0.5737,-0.0625,0.0115,0.3348,0.8264,-3.7837,2049
6,-0.5825,-0.127,0.0784,0.4751,0.9375,-4.1964,2052
6,-0.377,-0.1016,0.1394,0.5939,0.795,-4.3635,2053
6,-0.2581,-0.1741,0.1479,0.7514,0.238,-4.3635,2051
6,-0.1768,-0.2749,0.165,0.7447,-0.3747,-4.3635,2050
6,-0.2922,-0.321,0.1777,0.6697,-0.7184,-4.3635,2046
6,-0.4797,-0.2676,0.1516,0.7525,-0.704,-4.3635,2050
6,-0.9839,0.0381,0.2424,1.2039,-0.1756,-4.3635,2051
6,0.0208,-0.0686,0.2505,1.3451,-0.0569,-4.3635,2050
6,0.0217,-0.2227,0.1404,1.4992,0.3543,-4.3635,2051
6,-0.2742,-0.3069,-0.0444,1.582,0.7209,-4.3635,2040
6,-0.3596,-0.3564,-0.1511,1.7468,1.1123,-4.3635,2045
6,-0.4709,-0.4158,-0.1299,1.9514,1.3809,-4.3635,2047
6,-0.6531,-0.4561,-0.0659,2.0696,1.0886,-4.3635,2051
6,-0.8396,-0.605,-0.0234,1.8935,0.5705,-4.3635,2051
6,-0.894,-0.7827,-0.0144,1.7777,0.4906,-4.3635,2051
6,-0.8147,-0.8652,-0.0483,1.8018,1.1496,-4.3635,2055
6,-0.584,-0.762,-0.2478,2.2973,1.5247,-4.3635,2050
6,-0.5366,-1.2922,0.2451,2.2985,0.8814,-4.3635,2052
6,1.7341,-2.0,-0.2014,-1.3768,0.2618,-4.3635,2051
6,-0.2781,-1.3438,0.1365,-0.6558,-1.739,-2.8842,2039
6,-2.0,-1.752,0.2346,1.1901,-2.2767,-1.7045,2039
6,-1.0012,-2.0,0.217,-1.2801,0.6231,-2.9119,2064
6,-0.8772,-0.4836,-1.3435,-0.9939,1.3988,-0.1474,2049
6,-1.707,-0.5815,-0.3638,-0.7233,0.5433,-0.1236,2049
6,0.3811,-1.718,0.3977,-0.7934,2.3393,1.1571,2053
6,-1.3318,-2.0,-0.2883,-0.0806,1.4105,4.112,2071
6,-2.0,-1.5762,0.7766,0.5898,3.4575,4.078,2056
6,-0.2388,-1.6809,1.8186,0.2502,2.6163,4.1028,2059
6,1.9999,-2.0,0.866,-1.109,1.3635,2.7697,2042
6,1.1509,-1.3484,-1.6008,-1.8399,2.3326,2.015,2039
6,-2.0,0.0325,-1.1528,-1.9156,3.3151,3.4577,2038
6,-2.0,0.3359,0.325,-1.8261,2.798,2.4819,2046
6,-2.0,-0.6072,1.3511,-0.6477,0.7842,1.8544,2079
6,-1.2097,-0.9048,0.418,-1.7884,-0.0053,0.3555,2037
6,-0.8618,-0.9797,-0.5508,-0.9685,1.3489,0.2677,2079
6,-0.7854,-1.1492,-0.04,-0.2896,2.9181,0.8216,2035
6,-0.6272,-1.3721,-0.5242,-0.5528,2.3036,1.6331,2059
6,-0.3535,-1.1277,-0.5735,-0.3091,2.3322,1.0652,2047
6,0.2686,-0.9536,-0.3228,-0.7988,2.8498,1.1563,2061
6,0.5989,-0.9143,-0.5039,-0.3425,1.7309,0.8901,2064
6,-0.1462,-1.051,-0.1978,-0.2527,0.0806,0.7517,2048
6,-0.2168,-0.9829,-0.3789,-0.1569,-1.0042,0.2919,2051
6,0.0618,-1.0942,-0.2227,-0.0092,-1.7853,0.2659,2046
6,-0.1138,-1.0742,0.0508,0.1061,-1.7064,0.3292,2049
6,-0.436,-1.031,0.2725,-0.0403,-1.1757,0.2312,2044
6,-0.4885,-1.0186,0.397,-0.2345,-0.9929,0.0401,2078
6,-0.3105,-1.0745,0.1831,-0.1792,-1.2034,-0.1181,2056
6,-0.2468,-1.2271,0.3149,-0.2707,-1.1146,0.3113,2076
6,-0.3438,-0.7976,0.4075,-0.6869,-0.8485,0.1414,2106
6,0.0369,-0.79,0.2515,-0.3563,-0.8811,0.1895,1975
6,0.0105,-1.0276,0.2393,-0.383,-0.8356,0.1606,1903
6,-0.02,-1.0229,0.0708,-0.538,-0.8476,0.454,2028
6,0.0271,-0.9043,0.0708,-0.605,-0.5859,0.5509,2013
6,0.0796,-0.8162,-0.0559,-0.4954,-0.5112,0.4605,2010
6,0.1814,-0.9041,0.001,-0.4642,-0.524,0.5782,2006
6,0.147,-1.0107,-0.0217,-0.4714,-0.345,0.5685,2001
6,0.0142,-1.0107,-0.0159,-0.5799,-0.1848,0.5955,1963
6,0.0444,-1.0083,0.0188,-0.5725,0.0626,0.6176,2183
6,0.1826,-1.116,0.0068,-0.571,-0.0156,0.8152,2077
6,-0.0994,-1.0249,-0.0195,-0.4745,-0.2221,0.9513,2163
6,-0.3018,-1.0952,0.0908,-0.4253,-0.1908,1.1154,1967
6,-0.3018,-0.9907,0.0688,-0.4168,-0.0626,1.1652,2103
6,-0.2568,-1.0093,0.0784,-0.3906,-0.0979,1.0822,2120
6,-0.293,-0.9924,0.0959,-0.3743,-0.0983,1.1425,2148
6,-0.3362,-0.9092,0.0706,-0.3009,0.045,1.2029,2053
6,-0.3213,-0.9863,0.0461,-0.1928,0.2964,1.2406,2069
6,-0.2158,-1.1201,0.0029,-0.2127,0.2523,1.382,1953
7,-0.1289,-1.1006,-0.0542,-0.1702,0.2498,1.4066,2035
7,-0.0698,-1.1843,-0.1162,-0.1716,-0.0208,1.3568,2026
7,0.0342,-1.1619,-0.1948,-0.1689,-0.3272,1.3283,2147
7,-0.1267,-1.2375,-0.0398,-0.1438,-0.4022,1.2166,2154
7,-0.1123,-1.2161,0.051,-0.1752,-0.0883,1.2319,2015
7,0.1362,-1.0239,0.0862,-0.2016,-0.0173,1.2788,1812
7,0.1711,-1.0112,0.0784,-0.1493,-0.0746,1.4643,2269
7,0.0227,-1.1863,0.1785,-0.1645,-0.0007,1.5958,1701
7,0.0559,-1.1702,0.2446,-0.1646,0.0626,1.8014,1823
7,0.1047,-1.2041,0.293,-0.128,0.2147,1.853,2162
7,0.1448,-1.2412,0.3562,-0.1061,0.2983,2.0825,2247
7,0.2192,-1.3232,0.3472,-0.0284,0.5076,2.1585,2013
7,0.3276,-1.385,0.3037,-0.0376,0.7301,2.4143,2013
7,0.4146,-1.3005,0.2527,-0.0434,0.7524,2.4947,2048
7,0.4438,-1.3555,0.2539,-0.0519,0.8084,2.7558,2068
7,0.5859,-1.429,0.1865,-0.021,0.9676,2.9988,2051
7,0.6836,-1.6794,0.1814,-0.0056,1.022,3.2007,2060
7,0.9561,-2.0,0.3389,-0.1798,0.923,3.4676,2053
7,1.1023,-2.0,0.6399,-0.5296,0.4516,3.7125,2057
7,1.0808,-2.0,0.5396,-0.6083,-0.2414,4.0305,2052
7,0.6221,-2.0,0.0432,-0.3986,-0.7969,4.0896,2050
7,-0.1511,-1.625,-0.2083,-0.0111,-1.2573,4.3634,2049
7,-0.1289,-2.0,-0.0044,-0.5026,-1.4788,2.5862,2061
7,1.4229,-1.5303,-0.71,-0.1133,-3.1277,1.9852,2056
7,-0.8176,-1.2742,-0.2017,-0.2288,-2.6143,2.5629,2044
7,-1.9978,-0.8857,0.0557,0.5444,-1.2147,3.8849,2054
7,-1.6226,-0.8757,0.2949,1.1403,0.4231,3.5753,2057
7,-0.5681,-0.7773,0.0637,1.4161,1.7627,3.1656,2073
7,1.9999,-2.0,-2.0,2.8293,-3.3684,3.9574,2045
7,-2.0,1.0693,-0.0999,1.438,0.666,2.6045,2030
7,-2.0,-0.1941,0.4678,0.1471,2.3434,1.6081,2064
7,-2.0,-0.6313,0.6523,0.1016,1.7596,0.5144,2070
7,-1.2087,-0.1045,0.2991,0.2197,0.9511,0.2466,2062
7,-0.6279,-0.3008,0.0388,-0.3702,0.4489,-0.0234,2056
7,-0.2136,0.084,-0.1899,-1.3881,0.3932,-3.2653,2054
7,0.4109,0.0811,-0.291,-0.925,1.0448,-3.1542,2042
7,0.0371,-0.167,-0.2241,0.2986,1.4633,-3.554,2045
7,-0.144,-0.3079,-0.1233,0.7135,2.1596,-3.4833,2045
7,-0.3054,-0.2795,-0.105,1.1363,2.4041,-3.1038,2048
7,-0.2322,-0.2314,-0.1948,1.4981,2.2007,-2.8726,2049
7,-0.2756,-0.1128,-0.2778,1.6034,1.6271,-2.8903,2051
7,-0.2527,-0.0127,-0.3579,1.7566,1.0151,-3.3182,2049
7,-0.1235,-0.064,-0.2869,2.041,0.7648,-3.7954,2052
7,-0.2705,-0.1768,-0.3079,2.3756,0.4852,-4.2106,2050
7,-0.0464,-0.4453,-0.2878,2.4337,-0.4967,-4.3266,2052
7,-0.311,-0.4219,-0.2463,2.4261,-0.8725,-4.1863,2051
7,-0.5791,-0.3369,-0.1604,2.2152,-0.6514,-4.2987,2060
7,-0.6882,-0.0354,-0.0261,2.0236,-0.1979,-4.3635,2049
7,-0.199,-0.2571,-0.0693,1.8837,0.5251,-4.3635,2054
7,-0.2668,-0.4998,0.0073,1.994,0.7383,-4.3635,2053
7,-0.355,-0.4641,-0.0388,2.1233,0.6976,-4.3635,2055
7,-0.2896,-0.5107,-0.116,2.1905,0.544,-4.3635,2039
7,-0.4177,-0.4929,-0.2256,2.0403,0.4966,-4.3635,2069
7,-0.5662,-0.573,-0.3281,1.6764,0.1599,-4.3635,2050
7,-0.7351,-0.6792,-0.344,1.1561,-0.1888,-4.3635,2061
7,-0.6016,-0.7859,-0.5166,0.712,-0.4237,-4.3635,2044
7,-0.2366,-0.8955,-0.605,0.8572,-0.3995,-4.3635,2044
7,0.156,-1.1079,-0.3525,0.6656,-0.2489,-4.3635,2047
7,0.2837,-1.5127,-0.293,0.0459,-0.6733,-4.3635,2049
7,0.5305,-2.0,0.3364,-2.8589,-3.2766,-4.3635,2060
7,1.3098,0.5364,-1.2224,0.1558,-3.4014,-0.7838,2036
7,-1.127,-1.6995,-0.053,0.5458,-4.3635,-3.6374,2025
7,-1.1482,-2.0,-0.4902,-0.9319,-4.3635,-3.2997,2048
7,-0.8127,-0.3718,-1.0383,-0.6826,-3.0549,-1.8157,2054
7,-1.4656,-2.0,-0.0327,-2.4766,-1.6411,-2.7365,2058
7,-0.6487,-1.6326,-0.1221,-2.4,-0.1715,-1.6673,2064
7,-0.0325,0.2085,-0.0242,-1.9245,0.8159,0.0722,2058
7,-1.9675,0.3923,0.1145,-0.5609,1.2613,2.289,2023
7,-2.0,-0.6277,1.0171,0.3795,2.6687,2.1285,2016
7,-0.3936,-2.0,1.9999,-0.828,4.3634,4.3634,2059
7,-2.0,-2.0,1.9999,-1.1826,4.3634,4.3634,2068
7,1.7886,-1.5054,1.9999,0.3504,0.8827,1.8279,2074
7,1.9999,-2.0,-0.5684,0.7086,3.9092,1.9933,2046
7,0.9146,-1.6821,-2.0,-0.8823,4.3634,1.0718,2032
7,-1.9617,-0.8423,-0.1643,-0.5169,4.3634,4.3634,2027
7,-2.0,-0.7566,1.3047,-1.4487,1.3042,4.3182,2057
7,-2.0,0.447,0.4292,-2.2369,-0.9782,2.3204,2069
7,-1.1172,0.7649,-0.8035,-2.5795,-0.2987,0.8614,2060
7,-0.0461,0.1758,-0.9204,-0.4421,-0.9052,-1.0777,2042
7,0.2324,-1.2075,-0.7378,0.6707,-0.8127,-1.2949,2040
7,0.176,-2.0,-0.0498,0.7861,-1.9381,2.1567,2042
7,-0.8992,-1.9512,0.4409,-0.0541,-0.7023,1.8239,2050
7,-1.564,-0.7231,-0.0654,-0.8777,1.5884,1.3637,2051
7,-1.6167,-0.405,-0.1008,-0.538,1.3798,1.0464,2052
7,-0.8816,-0.833,0.1726,-0.0836,0.8215,0.4627,2051
7,-0.2112,-1.323,-0.2346,-0.3069,-0.541,-0.1052,2053
7,0.0811,-1.1777,-0.377,-0.1617,-1.3608,0.4478,2063
7,0.1523,-0.8838,-0.2202,0.1422,-1.0159,0.5568,2051
7,-0.1626,-0.9248,-0.2861,0.1987,-0.069,0.8383,2046
7,-0.4587,-1.165,-0.1458,0.2108,-0.0372,0.9009,2049
7,-0.6223,-1.1965,0.0657,0.0261,-0.3384,0.3039,2048
7,-0.3354,-0.9424,0.0974,-0.1962,-0.4136,0.2733,2057
7,-0.1111,-0.7886,-0.0168,0.0286,-0.2685,0.1822,2064
7,0.0688,-1.0237,-0.0364,0.2268,0.0095,-0.0395,2049
7,0.2661,-1.1357,0.1243,-0.0401,-0.2505,0.1487,2051
7,0.2114,-0.9885,0.1509,-0.1771,-0.5259,0.2698,2054
7,0.0735,-0.8467,0.1372,-0.1348,-0.7124,0.2589,2069
7,0.0442,-0.8772,0.0984,-0.1164,-0.6027,0.4517,2062
7,-0.0881,-0.8435,-0.085,-0.3101,-0.9826,0.1894,2019
7,0.3789,-1.1687,0.0188,0.0603,0.0284,0.5624,2038
7,0.2996,-1.2644,-0.0027,-0.2931,-0.5317,0.8359,2114
7,-0.4534,-0.6118,-0.1567,-0.367,-0.7187,0.2916,1922
8,0.5737,-0.9683,-0.1292,-0.0786,-0.3113,0.9878,1938
8,0.0828,-1.0281,0.1116,-0.4557,-0.595,0.5873,2051
8,-0.4165,-0.8906,-0.21,-0.3314,0.1549,0.632,1888
8,0.4204,-1.0657,-0.064,-0.3711,0.3987,0.9893,1697
8,0.3301,-1.0203,-0.0974,-0.3879,-0.0839,0.9186,2024
8,-0.2798,-0.9905,0.0574,-0.4454,-0.3614,1.1212,1960
8,-0.1492,-1.0146,0.1118,-0.4104,-0.1189,1.3081,2079
8,-0.1306,-1.0547,0.1016,-0.3051,-0.0731,1.2335,1578
8,-0.2979,-1.0913,-0.0029,-0.278,-0.0353,1.3945,2273
8,-0.2273,-1.1016,-0.0244,-0.2542,-0.0527,1.4945,1997
8,-0.1287,-1.1775,-0.1428,-0.1486,-0.076,1.5964,2128
8,-0.0571,-1.2178,-0.1863,-0.1329,-0.0679,1.639,2164
8,0.0532,-1.1348,-0.2195,-0.0486,-0.0557,1.6543,2183
8,0.2637,-1.1926,-0.2173,-0.0425,-0.1799,1.7749,1974
8,0.4094,-1.2957,-0.167,-0.084,-0.3024,1.9052,1897
8,0.4541,-1.2864,-0.1614,-0.1264,-0.6179,2.1519,1856
8,0.22,-1.3257,0.0667,-0.0402,-0.133,1.9567,2806
8,0.2615,-1.3967,0.2168,-0.0872,0.1414,2.3896,1949
8,0.3542,-1.3555,0.323,-0.1325,0.1569,2.4053,1967
8,0.1594,-1.2971,0.3811,-0.0204,0.1959,2.5488,2056
8,0.0762,-1.4536,0.4675,-0.0804,0.5964,2.6707,2003
8,0.1558,-1.3262,0.4351,-0.071,0.6665,2.8092,1994
8,0.3115,-1.4233,0.2656,-0.0089,0.7284,2.9735,2062
8,0.416,-1.5105,0.262,0.039,0.8195,3.1557,2053
8,0.7183,-1.5942,0.2673,0.0176,1.127,3.4733,2053
8,1.0317,-1.8289,0.2676,-0.1057,1.1343,3.5715,2054
8,1.2766,-2.0,0.3533,-0.5225,0.6465,3.7392,2058
8,1.019,-2.0,0.2324,-0.6476,-0.1225,3.9,2046
8,1.0027,-2.0,0.283,-0.3052,-1.5134,4.3634,2048
8,1.324,-1.5398,0.2256,0.8975,-2.7879,4.3634,2055
8,0.0298,-2.0,-0.1704,0.2121,-1.3134,3.8291,2056
8,-0.386,-1.5601,-0.7231,-0.77,-1.1608,4.3634,2044
8,0.2488,-1.8218,-0.5049,-1.2175,-3.0148,1.7936,2053
8,-1.3198,-1.0234,0.0449,-0.5955,-2.8456,2.109,2053
8,-2.0,-0.4817,0.1443,0.4719,-0.6287,3.9354,2048
8,-1.8064,-0.7595,0.5149,1.7419,1.3082,4.3634,2059
8,1.9999,-2.0,-0.3057,0.98,-2.6265,4.3634,2047
8,-2.0,0.6887,-1.0315,1.0467,0.3257,2.7019,2019
8,-2.0,0.3994,0.354,-1.288,0.6653,2.2358,2052
8,-2.0,-0.2363,0.9758,-0.9088,0.3334,0.7264,2073
8,-1.3418,-0.0864,0.561,-0.7365,-0.7755,0.1558,2068
8,-0.1182,0.0889,0.1692,-0.8247,-1.2439,0.2265,2064
8,0.0557,0.1572,0.0945,-1.8314,-2.4938,-2.7259,2052
8,0.1667,-0.1094,-0.1375,-2.3052,-1.6408,-3.3408,2045
8,0.0542,-0.2461,-0.1079,-1.4328,-0.8014,-3.2963,2045
8,-0.3347,-0.1711,0.083,-1.1885,0.3695,-3.696,2046
8,-0.6553,-0.2397,0.1138,-1.0223,1.0632,-3.3692,2048
8,-0.4436,-0.1992,0.1206,-0.7229,0.7168,-3.1258,2047
8,-0.3774,-0.144,-0.0144,-0.3524,0.3866,-3.0733,2046
8,-0.5859,-0.0713,-0.1333,-0.1041,0.4245,-3.4495,2049
8,-0.6167,-0.0725,-0.1653,0.0125,0.7889,-3.9572,2050
8,-0.6418,-0.104,-0.1951,0.2345,0.9989,-4.3635,2050
8,-0.7363,-0.1182,-0.2239,0.4815,1.1191,-4.3635,2051
8,-0.8738,-0.0515,-0.3201,0.9059,1.4985,-4.3635,2053
8,-0.8513,-0.1797,-0.2974,1.2427,1.7684,-4.3635,2051
8,-0.542,-0.1514,-0.3171,1.5316,1.9831,-4.3635,2053
8,-0.4536,-0.061,-0.3364,1.7631,2.3352,-4.3635,2054
8,-0.2227,-0.6252,-0.5564,1.1537,2.7006,-4.3635,2047
8,-0.2778,0.2493,-0.1628,2.1016,2.0784,-4.3635,2044
8,-1.5532,-0.2356,0.3171,3.6375,1.3593,-4.2112,2055
8,0.4397,-0.2903,0.4924,4.0723,0.9529,-3.7237,2061
8,-1.1428,-0.7224,1.3044,3.261,0.2249,-4.3635,2047
8,-0.5183,-0.1562,-0.8152,2.8111,3.0204,-4.3635,2052
8,-0.0369,-0.8511,-1.1367,1.0938,2.1234,-4.3635,2044
8,-0.0007,-0.6794,-1.3545,0.512,0.1558,-4.3635,2039
8,0.0388,-0.3811,-1.3152,1.9393,-1.5772,-4.3635,2042
8,0.0759,-1.3069,-1.0569,2.3481,-0.7056,-4.3635,2044
8,0.3538,-1.8547,-0.3838,1.3158,-0.969,-4.3635,2034
8,0.1233,-2.0,-0.2068,0.2595,-1.1639,-4.3635,2055
8,-0.033,-2.0,-0.1553,-0.3886,-3.124,-4.1354,2050
8,-0.2415,-2.0,0.0303,-1.854,-4.3635,-3.7198,2036
8,0.8042,-1.1812,-0.9246,-2.6241,-4.2418,-2.2599,2064
8,0.5449,-1.0703,-0.603,-2.6735,-4.0383,-2.0957,2059
8,0.0166,-1.2244,-0.2888,-2.2025,-4.3635,-1.1974,2056
8,-0.4177,-1.3811,0.1348,-2.2422,-4.3635,-0.229,2036
8,-1.0859,-1.0728,-0.3433,-2.4748,-4.3635,0.4883,2049
8,-1.0515,-1.199,-0.1023,-2.5526,-3.9456,0.6922,2053
8,-2.0,-2.0,0.0786,-3.4156,-2.2156,-0.6685,2054
8,-1.8081,-0.1262,0.1636,-3.2907,1.5364,-0.4907,2095
8,0.0251,1.9999,1.325,-0.6613,1.1682,4.3634,2067
8,-2.0,0.5847,1.9999,2.4069,2.9195,1.472,2007
8,-2.0,-2.0,1.9999,4.2947,4.3634,4.2471,2026
8,1.9999,-2.0,1.9999,1.7137,4.3634,3.4447,2078
8,1.9999,-2.0,-0.0332,0.1498,4.3634,2.0142,2057
8,1.7935,-1.998,-2.0,-2.0951,4.3634,-0.1451,1834
8,-0.8416,-1.2004,-1.4146,-2.9874,4.3634,4.3634,1931
8,-2.0,0.5391,0.0105,-0.7837,1.5491,4.0923,2021
8,-2.0,1.3352,0.8931,1.111,-0.5446,3.097,2036
8,-1.0737,0.0767,-0.373,-0.9565,-3.8632,1.7956,2054
8,0.1748,-1.1892,-0.4143,-1.4291,-4.3635,-0.0904,2053
8,-0.125,-1.8486,-0.1487,-1.0828,-4.3635,-0.186,2051
8,-1.3821,-1.1179,0.6301,-1.0957,-4.3635,-0.7283,2045
8,-1.1489,-0.6892,0.8127,1.2228,-1.3169,1.7508,2045
8,-1.7432,-0.8955,0.5452,0.9044,0.9722,1.882,2048
8,-1.6355,-1.3047,0.0627,-0.5741,0.5654,0.8708,2050
8,-1.4062,-1.4011,-0.3308,-1.2372,0.4018,0.6826,2056
8,-0.5415,-1.0232,-0.5378,-0.9736,0.6236,0.5257,1898
8,0.2451,-0.6509,-0.6836,0.0695,0.3151,0.5244,2225
8,0.7629,-0.667,-0.6602,0.7957,-0.7782,0.5344,2119
8,0.2336,-1.0142,-0.5037,0.889,-1.1187,0.5124,2062
8,-0.5947,-1.1777,-0.2095,0.3657,-0.6461,0.4139,2048
8,-0.8259,-1.0854,0.0955,0.1703,-0.2916,0.2806,2053
8,-0.604,-0.9194,0.1492,0.0152,-0.2499,0.1674,2054
9,-0.3604,-0.8752,0.0146,0.3699,-0.1653,0.1667,2043
9,-0.0415,-0.9155,0.1345,0.41,0.0474,0.2256,2056
9,0.2759,-1.0125,0.2439,0.338,-0.1063,0.2293,2060
9,0.2302,-1.0791,0.2646,0.1087,-0.5084,0.2703,2048
9,-0.5249,-0.9038,0.1155,0.0278,-0.4173,-0.2281,2046
9,-0.084,-0.9285,-0.0613,0.1987,-0.1264,0.282,2053
9,0.1514,-0.9639,-0.082,0.2109,-0.139,0.4232,2044
9,0.0496,-0.906,-0.1316,0.1092,-0.0676,0.3739,2047
9,-0.0444,-0.8997,-0.2253,0.2164,-0.0758,0.2962,2071
9,0.033,-1.0081,-0.2485,0.2763,-0.0876,0.4581,2065
9,0.2188,-1.0249,-0.2483,0.2979,0.0146,0.6589,2168
9,0.1624,-1.0193,-0.1912,0.2641,-0.2906,0.6646,2069
9,0.0098,-1.0066,-0.0977,0.3345,-0.3153,0.6823,1912
9,0.0701,-1.0037,0.0432,0.2515,-0.0358,0.8399,2076
9,0.1897,-1.0527,0.0266,0.2264,0.2184,0.9282,1942
9,0.1663,-1.0964,0.0991,0.2204,0.3498,0.9078,2094
9,0.0669,-1.0898,0.073,0.2132,0.3271,1.1487,1894
9,0.0176,-0.9824,-0.0278,0.1971,0.401,1.2236,2063
9,0.0217,-0.9722,-0.0593,0.1553,0.2563,1.2583,2166
9,0.1101,-1.0161,-0.1477,0.1751,0.3208,1.4452,2057
9,0.2156,-1.0488,-0.217,0.2855,0.1987,1.633,2236
9,0.3398,-1.0852,-0.2517,0.3169,0.0462,1.8813,1959
9,0.3958,-1.2297,-0.2439,0.4095,-0.2112,2.1193,2678
9,0.2825,-1.3569,-0.1216,0.3229,-0.2595,2.1385,2063
9,0.1624,-1.2666,0.0356,0.1859,-0.3302,2.2629,1824
9,0.0793,-1.2285,0.0637,0.2725,-0.1201,2.2716,2040
9,-0.0227,-1.3186,0.1252,0.3714,-0.1206,2.376,1922
9,-0.0847,-1.4182,0.0833,0.4336,-0.1031,2.3852,2043
9,-0.1853,-1.4497,0.1013,0.5331,0.1031,2.3417,2052
9,0.1855,-1.5525,-0.0022,0.5264,-0.2919,2.4747,2049
9,0.1438,-1.3813,-0.0598,0.6256,-0.0475,2.6384,2036
9,0.3186,-1.4976,-0.0273,0.6834,0.1679,2.5923,2040
9,0.6445,-1.6145,-0.0383,0.5914,0.3063,2.7589,2044
9,0.9453,-1.6582,-0.0034,0.4574,0.2487,2.9339,2047
9,0.9304,-1.6587,0.0281,0.3249,-0.0127,3.4009,2048
9,0.7607,-1.7341,0.0532,0.2474,-0.3416,3.5572,2055
9,0.4648,-1.7629,0.4429,0.3079,-0.9255,3.9672,2052
9,0.6194,-2.0,0.4092,-0.3167,-0.8428,3.9295,2055
9,0.9009,-1.6653,0.1973,0.296,-2.3237,4.3012,2059
9,0.5613,-1.2544,-0.5308,1.1078,-2.8532,4.3634,2056
9,0.2495,-1.5938,-0.1116,1.7697,-3.4131,4.3634,2062
9,-1.2329,-2.0,-0.1362,1.3656,-1.1224,2.8032,2060
9,-1.178,-2.0,-0.2092,-0.6803,-0.1518,1.5037,2059
9,-1.283,-1.3369,0.0298,-1.0211,-0.0348,1.5585,2032
9,-1.3789,0.0261,-0.3088,0.0282,1.1682,3.7452,2051
9,-1.3699,-0.2898,-0.6687,0.4057,1.7105,2.8293,2051
9,-0.6162,-1.2852,-2.0,0.4131,-3.9503,4.1451,2034
9,-2.0,1.0566,0.7498,0.8745,2.0596,1.6049,2059
9,-2.0,-0.4294,0.2634,0.0161,2.2838,0.9772,2077
9,-1.9619,-0.1565,0.3865,-0.5283,1.8712,-0.2226,2065
9,-0.2583,-0.0916,0.2183,-1.0521,1.3992,0.2503,2062
9,0.7378,-0.1985,0.1741,-0.6253,-1.1978,-0.3394,2054
9,-0.2344,0.1345,0.0676,-0.5915,-0.7801,-2.3899,2038
9,-0.019,0.0308,-0.0325,-0.6948,0.6762,-2.0493,2047
9,-0.167,-0.1589,-0.0442,-0.2767,1.0764,-1.7512,2045
9,-0.1812,-0.2524,-0.0566,-0.026,0.9729,-1.7448,2048
9,-0.4695,-0.2234,0.1343,-0.0891,0.3739,-1.8875,2050
9,-0.6602,-0.168,0.2734,-0.0498,0.1228,-1.9748,2051
9,-0.6548,-0.1785,0.3506,0.0447,0.1979,-2.0987,2055
9,-0.3984,-0.208,0.4304,-0.031,0.2326,-2.2996,2051
9,-0.2197,-0.2312,0.4688,-0.234,0.0627,-2.6384,2047
9,-0.3774,-0.2595,0.479,-0.4606,-0.0718,-3.095,2051
9,-0.6064,-0.2896,0.4941,-0.732,-0.096,-3.6271,2049
9,-0.8123,-0.3062,0.5037,-0.9026,0.0198,-3.8813,2051
9,-0.7715,-0.3042,0.5151,-0.8688,0.2571,-4.0518,2055
9,-0.708,-0.3252,0.5234,-0.7927,0.4554,-4.1765,2053
9,-0.6565,-0.3088,0.5237,-0.8158,0.7729,-4.3635,2051
9,-0.498,-0.3643,0.45,-0.8641,1.0852,-4.3635,2051
9,-0.4062,-0.4353,0.2795,-0.7795,1.3512,-4.3635,2051
9,-0.3088,-0.5088,0.1331,-0.6185,1.3703,-4.3635,2053
9,-0.1335,-0.479,0.0742,-0.4442,0.9626,-4.3196,2050
9,0.0374,-0.5144,-0.0298,-0.2691,0.1992,-4.2066,2063
9,-0.0891,-0.6062,-0.1199,-0.2129,-0.2005,-4.3635,2049
9,-0.1873,-0.7053,-0.2317,-0.2301,-0.4601,-4.3635,2058
9,-0.2273,-0.7041,-0.3044,-0.2737,-0.5896,-4.3635,2044
9,-0.239,-0.6265,-0.3594,-0.2714,-0.7066,-4.3635,2048
9,-0.2498,-0.6028,-0.3447,-0.161,-0.9397,-4.3635,2052
9,-0.3801,-0.6038,-0.3438,-0.1141,-1.1449,-4.3635,2047
9,-0.5073,-0.8098,-0.3159,0.0099,-1.0949,-4.3635,2053
9,-0.5581,-1.0024,-0.2791,0.1278,-1.0662,-4.3635,2055
9,-0.5811,-1.0457,-0.2229,0.2709,-1.0818,-4.3635,2049
9,-0.6013,-1.1252,-0.1829,0.5084,-1.0646,-4.2113,2044
9,-0.6577,-1.3508,-0.2793,0.8164,-0.8874,-3.6617,2051
9,-0.177,-2.0,-0.3206,-2.2908,-0.9819,-4.3635,2049
9,0.1038,-0.9263,-1.1194,-2.0798,0.4494,-3.1455,2051
9,-1.9827,1.0225,-0.9541,0.7869,0.4536,1.9409,2034
9,-1.6736,-0.6665,0.3777,2.2969,1.6756,-0.7652,2056
9,-1.0979,-2.0,0.3579,0.8761,1.8293,0.8243,2053
9,-1.6343,-2.0,0.9988,-0.406,0.8019,2.1848,2052
9,1.4634,-2.0,-0.2222,-1.6602,0.3325,4.3634,2040
9,-2.0,-1.5439,1.593,0.9267,1.5918,2.9707,2051
9,-0.5261,-1.97,1.8489,1.5069,-1.0761,3.5557,2068
9,1.9999,-1.5278,0.4685,0.181,3.2625,2.8713,2045
9,0.3867,-0.0872,-0.7639,0.1084,4.1741,1.3055,2048
9,-1.7971,0.9626,-0.165,-0.4956,4.3634,1.8986,2045
9,-2.0,-0.0979,0.2292,0.3504,4.3634,2.0399,2053
9,-1.4102,-1.697,-0.144,0.5821,2.3688,2.0084,2058
9,-0.5027,-2.0,-1.0222,-0.2791,1.9835,2.1731,2048
9,-0.0576,-2.0,0.0203,-1.3858,0.6325,1.8532,2048
9,0.085,0.1975,0.5503,-1.7373,-2.684,2.0996,2053
9,-0.8152,0.4167,-0.4661,-0.2991,-0.5904,0.5341,2050
10,-1.2334,-0.8535,-0.2834,0.8484,0.0519,1.3399,2051
10,-1.2881,-1.5911,0.0754,0.2764,0.0265,1.2346,2052
10,-1.5396,-1.4792,0.1484,-0.7466,0.6221,0.2595,2051
10,0.0227,-0.7644,0.5039,-1.3256,-0.316,0.7466,2046
10,-0.0442,-1.0469,-0.2029,0.139,-0.0903,1.6036,2054
10,-1.1409,-0.8779,0.1167,0.0257,0.1538,0.029,2052
10,-0.5308,-1.1069,-0.1238,-0.4072,0.1579,0.4055,2052
10,-0.3413,-1.0627,-0.0811,0.0021,-0.0976,0.5183,2053
10,-0.1772,-1.0991,-0.1777,-0.0401,-0.5309,0.4665,2049
10,-0.478,-0.908,-0.2307,-0.0811,-0.393,0.0642,2051
10,-0.2852,-0.9453,-0.1482,-0.0001,-0.4502,0.0293,2050
10,0.0273,-1.0449,-0.1213,0.0029,-0.5327,0.1831,2049
10,-0.1252,-0.9873,-0.1255,0.1163,-0.703,0.2144,2057
10,-0.2571,-0.915,-0.1123,0.0523,-0.6308,0.1141,2055
10,-0.1997,-0.9038,-0.1943,0.1348,-0.3691,0.0248,2046
10,-0.1536,-0.9854,-0.1392,0.169,-0.405,0.0168,2043
10,0.0505,-0.9856,-0.1174,0.1482,-0.3229,0.0699,2059
10,0.1497,-0.9797,-0.1106,0.1634,-0.1716,0.0558,2036
10,0.2961,-1.0276,0.0415,0.1252,-0.1888,0.0479,2048
10,0.1333,-1.0405,0.0786,0.102,-0.1971,0.0706,2057
10,-0.0437,-1.0703,0.0679,0.1874,-0.3585,0.1396,2052
10,-0.1897,-1.0063,0.1235,0.0108,-0.3079,0.1075,2057
10,-0.0396,-0.9915,0.0813,0.0454,-0.3212,0.2333,2061
10,-0.1423,-0.8591,-0.03,-0.0193,-0.3952,0.3068,2062
10,-0.1526,-0.8525,-0.1514,0.1232,-0.4554,0.4144,2033
10,-0.0205,-1.0081,-0.1565,0.0565,-0.6083,0.3384,2043
10,0.0972,-0.9956,-0.3198,0.1052,-0.587,0.451,1926
10,0.1406,-1.0029,-0.2683,0.0945,-0.6621,0.4401,2186
10,0.0276,-1.0674,-0.1829,0.0372,-0.6672,0.4369,1793
10,-0.0774,-1.0435,-0.2268,0.0776,-0.701,0.6951,2474
10,-0.0225,-1.0229,-0.1321,0.0671,-0.722,0.8971,2045
10,-0.0305,-1.0957,0.0203,0.063,-0.6414,0.9317,2047
10,-0.0703,-0.9968,0.1042,0.0921,-0.5359,0.9356,1961
10,-0.1157,-1.012,0.1392,0.1093,-0.3381,1.0167,2321
10,-0.1064,-1.0439,0.0215,0.1229,-0.29,1.1396,1759
10,-0.0652,-1.0693,-0.0212,0.1976,-0.1965,1.2346,2124
10,0.0029,-1.1401,-0.0146,0.1875,-0.3875,1.2721,2077
10,0.1746,-1.041,-0.0962,0.3145,-0.2694,1.492,1667
10,0.2583,-1.1052,-0.0891,0.3438,-0.3774,1.5769,1952
10,0.3289,-1.2175,-0.1067,0.3135,-0.5357,1.7981,1998
10,0.2576,-1.3428,0.0239,0.2365,-0.5361,1.8908,1987
10,0.2341,-1.2788,0.175,0.1085,-0.4987,2.0895,2060
10,0.2349,-1.261,0.1292,0.1988,-0.5052,2.2202,2075
10,0.2263,-1.3774,0.1646,0.2691,-0.6219,2.377,2014
10,-0.0481,-1.5139,0.3142,0.3357,-0.2555,2.3064,2031
10,-0.1321,-1.3477,0.3774,0.4054,-0.1011,2.589,2071
10,0.0693,-1.2493,0.2336,0.4414,-0.0192,2.6742,2050
10,0.0676,-1.3008,0.0354,0.5239,0.0506,2.7602,2042
10,0.3081,-1.4666,0.0171,0.5888,0.3826,2.9126,2018
10,0.5188,-1.521,-0.0498,0.5124,0.5753,3.183,2055
10,0.7986,-1.6428,-0.0371,0.289,0.5449,3.2895,2061
10,0.9441,-1.6531,0.0034,0.2683,-0.1081,3.8073,2050
10,0.8945,-1.6375,0.0359,0.1967,-0.5351,3.9797,2047
10,0.385,-1.7869,0.4106,0.0617,-1.2696,4.0799,2049
10,0.7466,-2.0,0.335,-0.3828,-2.078,3.6593,2061
10,0.843,-1.8049,0.2571,0.0795,-3.3577,3.6174,2045
10,0.6001,-1.5669,-0.145,0.7842,-3.9578,3.6693,2049
10,-0.3337,-1.6313,-0.3215,0.9018,-3.3025,3.5966,2057
10,-0.9619,-1.8289,-0.2241,0.2111,-1.9303,2.5429,2058
10,-1.3179,-2.0,-0.2705,-1.6629,-2.1402,1.2829,2048
10,-1.988,-0.8191,-0.1804,-0.9251,-1.4447,1.4894,2044
10,-1.6724,0.0757,-0.0359,0.4315,0.4096,3.8388,2057
10,-0.0491,-0.6853,-0.25,0.4132,1.396,2.7273,2058
10,-2.0,0.188,-1.5854,1.9089,1.3671,2.0784,2026
10,-2.0,0.6077,0.6812,0.3121,0.8813,1.6484,2055
10,-2.0,-0.5688,0.4365,0.0494,2.3988,0.6456,2074
10,-2.0,-0.0923,0.6799,-0.3152,1.9365,-0.7281,2073
10,-0.5803,-0.1538,0.3391,-0.8056,1.6795,-0.4777,2061
10,0.6299,-0.1304,0.2131,-0.7798,-0.3441,-0.5902,2048
10,-0.2573,0.092,0.0796,-1.0352,0.4169,-2.6085,2038
10,0.1208,-0.0195,0.0879,-0.71,1.2828,-2.2048,2046
10,-0.085,-0.1948,0.0947,-0.2796,1.6372,-2.2324,2048
10,-0.1504,-0.2488,0.0845,-0.1836,1.5807,-2.1924,2051
10,-0.675,-0.2463,0.219,-0.1887,1.4206,-2.3454,2045
10,-0.9021,-0.2109,0.3059,-0.1276,1.3825,-2.2664,2049
10,-0.8916,-0.1831,0.3386,-0.0132,1.8199,-2.3064,2051
10,-0.5474,-0.1326,0.366,-0.0506,2.1027,-2.4971,2054
10,-0.4932,-0.0452,0.3391,-0.0935,2.3004,-2.9345,2053
10,-0.4883,-0.0774,0.2717,-0.0577,2.4606,-3.4613,2050
10,-0.5872,-0.1638,0.1917,0.0442,2.3908,-3.9024,2050
10,-0.6143,-0.1858,0.1479,0.1213,2.3358,-4.1204,2054
10,-0.4333,-0.1973,0.1357,0.2448,2.3932,-4.139,2053
10,-0.1909,-0.2891,0.0928,0.475,2.3008,-4.0061,2050
10,-0.0947,-0.3196,0.0723,0.4722,1.9297,-4.1088,2051
10,-0.1443,-0.4165,-0.001,0.4121,1.6093,-4.2329,2052
10,-0.1865,-0.5342,-0.0874,0.4646,1.4218,-4.1504,2061
10,-0.2568,-0.644,-0.1296,0.5709,1.3198,-3.9889,2057
10,-0.3342,-0.6599,-0.1677,0.6751,1.2645,-3.8752,2052
10,-0.3909,-0.4814,-0.1882,0.83,1.0636,-3.7392,2051
10,0.1885,-0.582,-0.0847,0.8791,-0.4256,-3.766,2050
10,-0.0078,-0.7373,-0.1599,0.6665,-0.5461,-4.2956,2054
10,-0.2017,-0.8945,-0.3323,0.4741,-0.9218,-4.3635,2047
10,-0.3367,-0.9543,-0.405,0.3533,-1.0363,-4.3635,2055
10,-0.2288,-0.8472,-0.3779,0.2212,-1.3316,-4.3635,2049
10,-0.3174,-0.9038,-0.3953,0.3558,-1.4218,-4.3635,2035
10,-0.2173,-1.0032,-0.3943,0.5813,-1.633,-4.3635,2067
10,-0.105,-1.3464,0.083,0.0955,-1.5555,-4.3635,2047
10,-0.2156,-1.4136,0.0435,-0.3115,-1.6916,-4.1961,2044
10,-0.4846,-2.0,0.5063,-1.8362,-2.8967,-4.3635,2044
10,0.8083,-2.0,-1.1865,-2.0913,-1.7993,-4.3635,2044
10,-0.7834,0.5095,-0.7451,-0.802,-3.7085,0.4975,2018
10,-2.0,-0.6636,0.4751,0.569,-2.5605,-1.0536,2032
10,-0.8792,-2.0,0.2593,-0.092,-1.4324,-0.5315,2064
11,-1.5374,-2.0,0.6201,-0.5596,-0.5612,1.1628,2067
11,-1.3789,-1.0442,1.1443,-0.3755,0.3324,1.9923,2063
11,-0.1001,-1.4607,0.7917,-0.4388,2.2674,4.3634,2050
11,-2.0,-1.676,1.6748,1.4346,0.6319,3.9041,2050
11,-1.615,-1.9731,1.9999,1.1551,1.2825,3.9986,2055
11,1.9999,-1.8115,0.3433,0.0919,4.2447,3.3777,2056
11,1.4116,-0.2898,-0.7612,-0.7124,2.9958,1.7375,2043
11,-0.4224,0.8552,-0.874,-1.1151,4.1102,1.2129,2032
11,-1.0837,-0.0037,-0.9739,0.0286,3.3726,1.8849,2045
11,-1.2578,-1.5217,-0.6538,0.026,1.2801,1.7096,2045
11,-1.3354,-2.0,0.0989,0.0486,-1.872,3.0391,2064
11,-1.2144,-1.4092,0.6516,-0.8781,-3.8024,2.5519,2079
11,-1.541,0.2764,0.186,-2.3422,-1.7954,-0.5657,2075
11,-0.2336,-0.3096,-0.6233,0.6745,-0.8373,1.9128,2040
11,-1.1389,-1.3257,-0.3806,0.6733,0.8387,1.4864,2052
11,-1.3291,-1.2979,-0.6106,0.4726,1.8136,1.7263,2060
11,-0.6113,-1.1829,-0.1199,0.1361,1.331,1.2331,2047
11,-0.1606,-0.6318,-0.105,0.1096,0.5698,1.2356,2068
11,-0.9907,-0.6401,0.0796,0.3595,-0.0594,0.3634,2046
11,-0.8008,-1.1284,-0.0217,0.3649,-0.3581,-0.1546,2072
11,-0.5862,-1.1399,-0.0151,0.3113,-0.2352,0.1645,2063
11,-0.6323,-1.0227,0.0754,0.2818,-0.1115,0.1613,2055
11,-0.7004,-1.0051,0.1504,0.1471,0.102,0.0048,2064
11,-0.7466,-1.0498,0.1401,-0.0021,0.1107,-0.0728,2057
11,-0.5901,-1.0186,-0.0176,-0.0732,-0.1799,-0.2101,2056
11,-0.2771,-1.0312,-0.1294,-0.0075,-0.3332,-0.2623,2046
11,-0.1882,-0.9854,-0.2104,0.1216,-0.3884,-0.2272,2053
11,-0.2639,-0.9326,-0.2217,0.0742,-0.4341,-0.3188,2057
11,-0.4163,-0.8982,-0.2493,0.0514,-0.4954,-0.4751,2061
11,-0.3628,-0.9211,-0.239,-0.0304,-0.5036,-0.6918,2054
11,-0.0063,-0.949,-0.2651,0.0656,-0.2843,-0.4677,2049
11,0.0569,-0.874,-0.1997,0.1856,-0.1388,-0.3478,2056
11,1.4521,-0.814,-0.4304,0.4725,-0.3144,0.5484,2054
11,-0.3352,-0.8826,0.0557,0.2171,-1.1971,-0.3417,2043
11,-0.2041,-0.9744,0.1589,-0.0233,-1.4656,0.3559,2044
11,-0.7317,-0.6218,0.1436,-0.1922,-1.3187,-0.4888,2049
11,1.1104,-1.2383,0.1899,-0.025,-1.2818,0.7785,2064
11,-0.0017,-1.3787,0.3828,0.6103,0.3891,-0.7935,2055
11,-0.2727,-0.6338,-0.2092,-0.2988,-0.3964,0.6666,2040
11,-0.8093,-0.6848,-0.1155,-0.1396,0.2727,-0.2742,2059
11,-0.3096,-1.0508,-0.312,-0.2313,-0.0466,-0.6185,2070
11,0.7805,-1.054,-0.2029,-0.0778,-0.9132,-0.1313,2079
11,-0.6777,-0.8188,-0.1372,-0.0744,-0.3263,-0.1059,1911
11,-0.0359,-1.0828,-0.1802,-0.247,-1.3388,0.7704,2048
11,0.1848,-1.1509,-0.0449,-0.0011,-0.6344,0.2033,1966
11,-0.3376,-0.9622,-0.1582,0.2832,-0.2081,1.0166,2032
11,-0.2898,-0.9214,-0.0657,0.134,-0.7562,0.6874,2225
11,-0.1245,-0.9443,-0.1838,0.2117,-0.6235,0.6593,1682
11,-0.0535,-1.1016,-0.1196,0.2679,-0.3205,0.7913,2075
11,-0.0276,-1.0686,-0.0471,0.1669,-0.504,0.7412,2120
11,0.199,-1.0403,-0.1204,0.2711,-0.3294,0.7731,2134
11,0.2019,-1.1191,-0.095,0.3125,-0.1434,0.6925,1891
11,0.3521,-1.1558,-0.084,0.3089,-0.0666,0.9676,2243
11,0.4089,-1.0876,-0.1516,0.3091,-0.2336,1.2959,2318
11,0.3484,-1.095,-0.0581,0.4069,-0.3408,1.4764,1704
11,0.1208,-1.1672,-0.0659,0.3734,-0.3662,1.6245,2068
11,0.0063,-1.2458,0.0374,0.3666,-0.2661,1.4892,2009
11,0.0239,-1.1499,0.0959,0.3227,-0.2763,1.7665,2024
11,0.0339,-1.0647,0.1411,0.2918,-0.3737,1.81,2324
11,-0.0168,-1.0833,0.1865,0.3056,-0.3049,1.8957,2057
11,0.0234,-1.1555,0.1379,0.3084,-0.3811,2.1035,2108
11,-0.0337,-1.344,0.1235,0.2927,-0.22,1.996,1963
11,-0.135,-1.2451,0.2336,0.4067,-0.1739,2.285,2084
11,-0.0469,-1.3452,0.2842,0.5031,-0.0659,2.2534,2052
11,0.0244,-1.3921,0.1436,0.5082,-0.0374,2.4689,2039
11,0.1541,-1.3586,0.02,0.5492,0.2237,2.4437,2019
11,0.2324,-1.4702,0.0122,0.5272,0.2983,2.4609,2062
11,0.3096,-1.4963,0.0054,0.4252,0.4568,2.6173,2059
11,0.3489,-1.5095,0.0549,0.2847,0.2883,2.763,2053
11,0.3889,-1.4905,0.0957,0.1634,0.2163,2.9344,2052
11,0.2371,-1.4207,0.0923,0.0875,-0.263,3.1532,2047
11,0.2922,-1.5693,0.562,-0.0535,-0.9492,3.4483,2048
11,0.6414,-1.6682,0.2869,-0.1202,-1.5022,3.4608,2046
11,0.4653,-1.6609,0.1934,0.2763,-2.6654,3.3139,2046
11,1.0435,-1.5342,-0.0813,0.5576,-3.4738,3.5738,2060
11,0.1733,-1.4761,-0.1174,0.9309,-3.4681,3.6134,2052
11,-0.4431,-1.49,-0.2097,1.0405,-2.5338,3.2656,2058
11,-1.0293,-1.7271,-0.2583,0.7012,-1.1569,2.4487,2060
11,-0.9465,-2.0,-0.1013,-1.0596,-1.5704,1.4499,2046
11,-1.8491,-0.7815,-0.0352,-0.9602,-1.4147,1.0252,2043
11,-1.7417,0.239,-0.0576,0.0619,0.3693,2.9472,2052
11,-0.7039,-0.052,-0.1858,0.8508,1.1147,3.1748,2056
11,-0.6218,-0.6116,-1.8008,0.6196,-3.5631,2.7264,2043
11,-2.0,1.116,0.3884,0.8883,1.1906,1.3933,2052
11,-2.0,-0.6636,0.1765,-0.0968,2.0282,0.7183,2070
11,-2.0,-0.4814,0.6418,-0.1036,2.0218,-0.722,2067
11,-0.4922,-0.1816,0.4644,-0.698,1.713,-0.6722,2055
11,0.6621,-0.1545,0.2766,-0.7521,0.2842,-0.4802,2051
11,-0.103,-0.1089,0.1072,-1.0151,0.371,-2.0592,2043
11,0.1584,-0.2109,0.0894,-0.7435,0.9666,-1.7913,2045
11,0.0129,-0.365,0.0996,-0.4044,1.4083,-1.9932,2045
11,-0.1658,-0.4436,0.1318,-0.3618,1.4573,-2.0491,2047
11,-0.4724,-0.4478,0.2837,-0.4368,1.1055,-2.0584,2051
11,-0.7324,-0.4268,0.3782,-0.3971,0.7396,-2.0377,2050
11,-0.9016,-0.4265,0.3696,-0.2677,0.9219,-2.0696,2051
11,-0.8328,-0.3528,0.3196,-0.2786,1.4098,-2.2434,2053
11,-0.5972,-0.2561,0.344,-0.4204,1.661,-2.5555,2049
11,-0.6187,-0.2344,0.3306,-0.5854,1.7358,-3.1692,2051
11,-0.686,-0.2756,0.2844,-0.646,1.5993,-3.6938,2047
11,-0.6218,-0.2876,0.2361,-0.5593,1.3543,-3.9618,2049
12,-0.5095,-0.3711,0.1714,-0.3187,1.2776,-4.0459,2053
12,-0.2864,-0.4739,0.1716,-0.0927,1.0604,-3.9471,2049
12,-0.1667,-0.5295,0.1699,-0.1186,0.7601,-3.9523,2051
12,-0.1663,-0.563,0.0796,-0.2096,0.6293,-4.0504,2052
12,-0.2954,-0.5847,-0.0383,-0.2133,0.7331,-4.0837,2052
12,-0.4351,-0.5889,-0.1287,-0.0716,1.0499,-3.9998,2052
12,-0.449,-0.5198,-0.2007,0.1906,1.2316,-3.8487,2052
12,0.1843,-0.5212,-0.0178,0.571,-0.0782,-3.5102,2053
12,0.0913,-0.6865,-0.1047,0.6502,-0.3021,-3.9424,2054
12,-0.2273,-0.7981,-0.2336,0.4882,-0.5291,-4.3118,2047
12,-0.2871,-0.8687,-0.3535,0.347,-0.9059,-4.3635,2047
12,-0.281,-0.8938,-0.3374,0.1457,-1.2145,-4.3635,2051
12,-0.2705,-0.7744,-0.3435,0.1151,-1.4455,-4.3635,2053
12,-0.3523,-0.7224,-0.3635,0.5553,-1.5121,-4.3635,2050
12,-0.5242,-0.8926,-0.2441,0.8403,-1.271,-4.3635,2052
12,-0.6626,-1.0288,-0.1086,1.0421,-0.5578,-4.3635,2052
12,-0.7161,-1.0774,0.0925,1.1814,-0.0246,-4.1907,2051
12,-0.2556,-2.0,0.7346,-2.0972,-0.3713,-4.3635,2054
12,0.0137,-0.9712,-0.5654,-2.2896,1.7006,-4.3612,2032
12,-1.9043,0.696,-0.4485,1.224,1.5751,1.272,2048
12,-2.0,-0.9734,0.6106,2.6883,1.7046,-1.8243,2058
12,-0.4246,-2.0,0.542,0.4831,1.807,-0.7146,2058
12,-0.9092,-2.0,-0.1101,-0.6012,2.2462,0.6474,2055
12,-0.0662,-1.1628,0.0149,-1.3904,1.5632,1.4089,2053
12,-0.3191,-1.4429,-0.1997,-1.5629,2.5253,2.443,2049
12,-1.6929,-1.3367,-0.8076,-0.9439,1.7807,3.8392,2052
12,-1.7251,-0.6021,0.4041,1.2491,1.8164,3.2195,2056
12,-0.6274,-1.4116,1.6235,1.1505,-0.0208,3.203,2063
12,1.4697,-0.949,0.8181,1.0837,-0.3956,1.8301,2055
12,0.9719,-0.9409,-0.252,0.0684,0.8794,1.7695,2027
12,-0.4919,-0.376,-0.5271,-0.3268,1.5731,1.5885,2052
12,-1.2141,-0.0771,-0.4431,-0.1663,2.1337,2.0475,2050
12,-1.8459,-0.8296,-0.1208,-0.3489,3.2511,1.1989,2035
12,-2.0,-1.5962,0.1121,0.5256,3.2167,2.476,2058
12,-0.8525,-1.5735,0.6638,-0.2803,1.3613,2.699,2058
12,-0.2275,-1.2976,0.5022,-0.5854,-0.3089,2.5256,2050
12,-2.0,-0.7288,0.6545,-1.9343,-1.2511,-1.68,2048
12,1.3164,-1.0144,-0.5125,0.1947,-2.561,2.1414,2056
12,-1.3899,-0.9602,-0.1963,0.0607,0.4358,1.4589,2041
12,-0.686,-0.9463,-0.3403,0.1475,1.1464,1.3625,2054
12,-0.2488,-1.0444,-0.1094,-0.0887,0.973,1.4463,2036
12,-0.3689,-1.0183,0.0544,0.395,0.2695,1.2344,2041
12,-0.8662,-0.9558,-0.0291,0.2374,0.1763,1.0569,2052
12,-0.6902,-0.8643,-0.0081,0.0008,-0.0859,0.7241,2050
12,-0.4448,-1.0193,0.0642,-0.0004,-0.2073,0.4381,2055
12,-0.5027,-1.0784,0.1147,0.0643,0.1017,0.3428,2068
12,-0.5566,-1.0752,0.2034,-0.0312,0.3096,0.2729,2055
12,-0.6697,-1.0776,0.2051,-0.0875,0.3051,0.2489,2053
12,-0.7268,-1.0273,0.1411,-0.1854,0.0065,0.18,2058
12,-0.5581,-0.9817,0.0828,-0.191,-0.0919,0.0491,2053
12,-0.3547,-0.9624,-0.0659,-0.1417,-0.1129,-0.0815,2052
12,-0.2041,-0.9622,-0.1504,-0.1032,-0.0621,-0.1445,2051
12,-0.167,-0.9346,-0.1328,-0.0716,-0.0981,-0.125,2057
12,-0.1794,-0.946,-0.0718,-0.0443,-0.2294,-0.1155,2048
12,-0.2742,-0.9507,-0.0439,-0.0376,-0.3097,-0.1643,2053
12,-0.2144,-1.0,-0.0378,-0.0561,-0.2991,-0.2065,2054
12,-0.1128,-0.9607,-0.0239,-0.0819,-0.1764,-0.1222,2060
12,-0.0505,-0.9722,-0.0281,-0.0977,-0.1533,-0.0838,2052
12,-0.0632,-0.9502,-0.0115,-0.1007,-0.1647,-0.047,2050
12,-0.1084,-0.9255,-0.0044,-0.0907,-0.2473,-0.0932,2055
12,-0.0718,-0.968,-0.0193,-0.1009,-0.2176,-0.0764,2042
12,-0.1003,-0.991,0.0051,-0.1523,-0.3382,-0.0384,2050
12,-0.0737,-0.9424,0.0505,-0.177,-0.4445,0.0589,2052
12,-0.125,-0.8606,-0.0452,-0.1835,-0.4304,0.1165,2132
12,-0.147,-0.8567,-0.1084,-0.1204,-0.4609,0.187,2159
12,-0.0479,-0.9685,-0.1475,-0.2482,-0.2065,0.1911,2040
12,-0.0859,-1.0315,-0.2319,-0.2485,-0.0887,0.2338,2004
12,0.04,-0.9033,-0.3315,-0.2976,-0.2531,0.3224,1936
12,-0.2957,-0.8643,-0.2908,-0.4277,-0.3858,0.0784,2009
12,-0.0818,-0.9663,-0.335,-0.3004,-0.171,0.2236,2008
12,0.0715,-1.0938,0.0344,0.0117,-0.1163,0.3012,2116
12,-0.2061,-1.23,0.4363,-0.0185,-0.3726,0.2438,1947
12,-0.2944,-1.1685,0.4128,-0.3087,-0.3433,0.4104,2249
12,-0.1396,-0.9187,0.27,-0.1818,-0.0293,0.5529,1766
12,0.1165,-0.9683,-0.0256,-0.0489,-0.0023,0.6309,1959
12,0.1606,-1.1584,-0.2346,-0.0458,-0.0064,0.6622,2003
12,0.0964,-1.0532,-0.3682,-0.0304,-0.0365,0.9236,2234
12,0.0813,-0.9685,-0.3286,0.032,-0.0533,1.034,1793
12,-0.0364,-1.1372,-0.2053,0.0635,-0.2402,0.9684,1991
12,-0.0811,-1.2012,-0.1045,0.0431,-0.2077,1.0903,1957
12,-0.1221,-1.1128,0.0374,-0.0214,-0.2709,1.0634,1987
12,0.0032,-1.0154,0.1348,-0.0485,-0.4273,1.1978,2477
12,0.0291,-0.9868,0.0918,-0.0497,-0.4944,1.374,1653
12,-0.0239,-1.094,0.1096,-0.0352,-0.3982,1.5536,2185
12,0.0376,-1.2327,0.1274,-0.1133,-0.4629,1.6183,1629
12,0.0552,-1.22,0.0999,-0.1101,-0.598,1.8049,1974
12,0.0261,-1.2385,0.1123,-0.012,-0.6375,1.9196,2400
12,-0.1345,-1.3303,0.2488,0.0649,-0.2305,1.8811,1879
12,0.0149,-1.354,0.2146,0.0964,-0.1063,2.159,2160
12,0.1394,-1.3386,0.2219,0.185,0.045,2.2349,2098
12,0.1165,-1.4746,0.1426,0.2111,0.0631,2.38,1944
12,0.2249,-1.439,0.0654,0.1927,0.1221,2.5705,2042
12,0.3281,-1.4309,0.0513,0.2446,0.3364,2.6614,2042
12,0.4062,-1.521,0.1414,0.1487,0.6169,2.7817,2068
12,0.4841,-1.5339,0.1755,0.0052,0.6739,3.0026,2052
12,0.5542,-1.5425,0.2019,-0.1314,0.5982,3.248,2046
12,0.3708,-1.5667,0.2246,-0.2759,0.2288,3.3949,2052
12,-0.0684,-1.6799,0.2549,-0.3179,-0.3324,3.5651,2049
12,0.2896,-1.979,0.3677,-0.7861,-1.0662,3.3895,2051
12,1.1382,-1.4614,0.1296,0.0774,-2.957,3.941,2054
12,0.6882,-1.6211,0.1094,0.5984,-3.3962,3.5584,2051
12,0.2131,-1.7202,-0.1379,0.6913,-3.1564,3.3676,2052
12,-0.5576,-1.2495,-0.3704,0.5281,-2.2399,3.2188,2058
12,-1.0708,-2.0,-0.1074,-1.3322,-2.3598,1.6921,2047
12,-1.1609,-1.4717,-0.2231,-1.3303,-3.2311,0.8376,2046
13,-2.0,-0.0955,-0.1077,-0.6967,-0.9594,2.6207,2051
13,-1.071,-0.043,0.2671,0.4489,-0.0437,3.7404,2058
13,1.9999,-1.5093,0.844,-0.2658,0.4176,3.5061,2046
13,-2.0,0.0381,-0.7268,1.1552,1.0717,2.3474,2032
13,-2.0,-0.0923,0.5801,-0.5325,0.1876,1.611,2064
13,-2.0,-0.5168,0.5205,-0.0341,1.4544,0.5341,2067
13,-1.7405,-0.3528,0.6738,-0.165,0.7857,-0.483,2066
13,-0.4343,0.0032,0.3059,-0.6412,0.8204,-0.4378,2057
13,-0.1541,-0.0681,0.1772,-1.26,0.1546,-0.995,2050
13,-0.0503,-0.071,0.0151,-1.1922,0.7002,-2.1192,2045
13,0.1772,-0.1406,0.0867,-0.4602,0.9549,-1.9289,2048
13,-0.1155,-0.291,0.1638,-0.1397,1.5209,-2.1692,2057
13,-0.3843,-0.3625,0.197,-0.173,1.8448,-2.1599,2046
13,-0.6064,-0.3237,0.2629,-0.0782,1.8283,-1.9977,2047
13,-0.6089,-0.2925,0.2727,0.2132,1.5699,-1.9096,2051
13,-0.6641,-0.2603,0.2173,0.4498,1.3303,-2.1213,2052
13,-0.7339,-0.2817,0.177,0.3964,1.529,-2.4586,2056
13,-0.5854,-0.2214,0.2212,0.2277,1.8017,-2.7027,2048
13,-0.6479,-0.1809,0.1953,0.116,2.2,-3.1556,2053
13,-0.6941,-0.2322,0.1274,0.1677,2.5088,-3.5908,2048
13,-0.6406,-0.2637,0.0715,0.3512,2.5432,-3.786,2048
13,-0.4136,-0.2886,0.0681,0.5477,2.2667,-3.8396,2049
13,-0.207,-0.4216,0.0225,0.7869,1.8116,-3.7693,2053
13,-0.1907,-0.4709,-0.0449,0.7509,1.4498,-3.8874,2052
13,-0.2185,-0.5012,-0.1294,0.618,1.2729,-3.9916,2049
13,-0.2595,-0.5405,-0.2175,0.5689,1.2137,-4.0118,2051
13,-0.3159,-0.5637,-0.3022,0.6159,1.2338,-3.9395,2051
13,-0.4114,-0.4041,-0.2341,0.8448,1.1151,-3.6729,2053
13,0.24,-0.4937,-0.2031,1.0082,-0.2221,-3.6191,2055
13,-0.0981,-0.5747,-0.2568,0.9303,-0.3852,-4.0775,2051
13,-0.241,-0.6187,-0.3752,0.6818,-0.8641,-4.3635,2047
13,-0.2881,-0.7351,-0.3835,0.4084,-1.2218,-4.3635,2045
13,-0.2573,-0.7117,-0.3872,0.163,-1.482,-4.3635,2055
13,-0.3821,-0.6848,-0.467,0.2497,-1.4717,-4.3635,2065
13,-0.395,-0.8279,-0.4341,0.4291,-1.4233,-4.3635,2048
13,-0.4668,-1.0378,-0.2378,0.3235,-1.3585,-4.3635,2059
13,-0.5303,-1.2134,-0.03,-0.0716,-1.3312,-4.3635,2047
13,-0.4919,-2.0,0.9355,-3.1452,-2.8265,-4.3635,2056
13,0.6072,-1.4609,-1.1953,-3.7749,0.3294,-4.3635,2039
13,-0.3655,1.1367,-1.1367,-1.0381,-2.6424,1.8595,2035
13,-2.0,-0.718,0.4739,0.9943,-3.1484,-1.9399,2050
13,-0.1064,-2.0,-0.7837,-0.1654,-2.6488,-1.3218,2068
13,-1.9746,-2.0,-0.572,-0.8465,-1.3529,0.5879,2054
13,0.4417,-1.3701,1.2122,-2.2739,0.2665,3.6029,2049
13,-2.0,-0.8354,-1.072,0.7201,0.9017,3.1863,2048
13,-2.0,-0.8555,1.9999,2.026,-0.3818,3.6358,2061
13,-1.5405,-1.9109,1.9999,3.5207,-2.6488,3.7829,2058
13,1.9999,-1.6584,1.0884,0.976,3.3846,3.4668,2062
13,-0.4617,-0.4419,-1.103,-0.276,4.3634,0.7949,2032
13,-1.9158,0.6514,-0.939,-1.2573,4.3634,0.9549,2037
13,-0.854,-1.0632,-1.3809,-0.7224,4.3634,1.8812,2053
13,0.6755,-1.7891,-1.2322,0.6622,0.249,4.174,2066
13,-0.8071,-1.1753,0.8823,1.0971,-1.972,3.3986,2048
13,0.0654,-0.1772,0.2571,-0.4087,-0.6268,0.2772,2054
13,-0.4719,-0.5811,0.4377,-0.0228,-1.3109,-0.2699,2022
13,-1.0725,-1.3586,0.3022,0.9789,-1.7909,2.4467,2079
13,-1.1484,-0.9646,0.2039,1.0686,-0.1289,2.8658,2054
13,-1.4521,-1.2039,0.1807,-0.135,0.6169,1.1467,2075
13,-0.9297,-1.2166,0.1118,-0.0165,1.1027,1.1728,2065
13,-0.4775,-1.0295,0.0605,-0.1092,0.7838,0.7299,2073
13,-0.6213,-0.6418,-0.1404,-0.0245,0.1886,0.665,2063
13,-0.3711,-0.8254,-0.2388,0.0578,-0.3765,0.1657,2059
13,-0.2124,-1.0679,-0.2458,0.139,-0.183,0.2743,2063
13,-0.4431,-1.0886,-0.1638,0.2539,0.0902,0.5767,2052
13,-0.6282,-0.9966,-0.0442,0.187,0.2461,0.6308,2049
13,-0.6709,-0.96,-0.0186,0.0888,0.0719,0.4109,2055
13,-0.4788,-0.98,-0.0957,0.0517,-0.2224,0.2815,2059
13,-0.4153,-0.9995,-0.1167,0.1405,-0.2095,0.1089,2064
13,-0.1519,-1.0178,-0.1855,0.2205,-0.1546,0.2284,2041
13,-0.095,-1.0813,-0.1895,0.2703,-0.0415,0.3196,2054
13,-0.407,-1.0078,-0.042,0.2095,-0.1071,0.2148,2078
13,-0.4475,-0.9207,0.0505,0.1147,-0.2438,0.1629,2062
13,-0.5127,-0.8323,0.0491,0.0766,-0.2714,-0.0096,2056
13,-0.2131,-0.9475,0.0322,0.0435,-0.1984,0.0241,2065
13,-0.0823,-0.9773,-0.0173,0.0795,-0.0792,0.151,1986
13,-0.0305,-1.031,-0.0703,0.1083,-0.218,0.2784,2039
13,0.2427,-0.9355,0.0044,0.0233,-0.3867,0.4269,2032
13,-0.5085,-0.9238,0.1023,0.089,-0.3769,0.1011,2174
13,-0.594,-0.7354,-0.0081,-0.1598,-0.1009,0.263,2065
13,0.0876,-1.0137,-0.0986,-0.1639,0.1663,0.275,2011
13,-0.2568,-0.8838,0.0005,-0.3145,-0.2916,0.232,2011
13,-0.2585,-0.8203,0.001,-0.2804,-0.3757,0.2685,1978
13,-0.1638,-0.9807,-0.1184,-0.1539,-0.4599,0.3697,1862
13,-0.5618,-0.9072,-0.0105,-0.2408,-0.5485,0.3193,2328
13,-0.3367,-0.8975,-0.03,-0.2221,-0.3444,0.2694,2209
13,-0.2104,-0.9216,-0.0195,-0.2161,-0.4818,0.3405,2141
13,-0.3564,-1.0144,0.0483,-0.1768,-0.5325,0.3209,2034
13,-0.3254,-1.0667,0.0815,-0.1587,-0.5498,0.3609,2272
13,-0.1448,-1.012,-0.0583,-0.1297,-0.6299,0.4161,2068
13,-0.0208,-0.9993,-0.0435,0.0388,-0.6397,0.5098,1729
13,0.0063,-1.0527,-0.0059,0.1457,-0.647,0.654,1409
13,0.0408,-1.0298,-0.0339,0.0902,-0.5806,0.808,1871
13,0.1223,-1.0413,-0.1584,0.2237,-0.5397,0.8907,2051
13,0.2429,-1.1445,-0.1497,0.2884,-0.357,1.0556,1929
13,0.1021,-1.1423,-0.0823,0.3488,-0.314,1.1954,2049
13,0.0979,-1.1077,-0.0737,0.3876,-0.1878,1.433,2272
13,-0.0022,-1.1921,-0.0068,0.4554,-0.1224,1.5362,2177
13,0.0078,-1.3835,0.0305,0.4279,-0.0296,1.5322,2047
13,0.019,-1.4263,0.0974,0.4011,-0.1344,1.6514,1782
13,0.1028,-1.4294,0.0601,0.4486,-0.0659,1.8206,1997
14,0.1221,-1.5703,0.094,0.4699,-0.02,1.9671,2011
14,0.4548,-1.5444,0.1626,0.4349,0.2583,2.2882,2071
14,0.6184,-1.5198,0.1511,0.45,0.3212,2.3965,2036
14,0.7227,-1.7141,0.1799,0.4622,0.7783,2.6767,2032
14,0.8704,-1.6729,0.2515,0.3557,0.8544,2.959,2031
14,0.7993,-1.5771,0.207,0.3161,0.9674,3.1915,2045
14,0.7385,-1.7983,0.354,0.1358,0.7497,3.3322,2060
14,0.5979,-1.7651,0.4924,-0.0372,0.5902,3.7494,2060
14,0.7278,-1.6433,0.3333,-0.0995,-0.079,4.0365,2051
14,0.0273,-1.7549,0.2434,-0.2109,-0.373,4.3234,2050
14,0.2864,-1.8767,0.5,-0.0019,-1.8598,4.014,2046
14,0.2991,-1.7073,-0.4419,0.5866,-2.7215,4.0468,2046
14,0.1465,-0.957,-0.3359,2.2176,-3.4824,4.3634,2062
14,-1.2642,-1.9023,-0.5959,1.7638,-0.8822,2.757,2060
14,-0.9653,-2.0,-0.1414,-0.163,-1.1238,2.596,2060
14,-1.2883,-1.459,-0.03,-0.7951,-1.1864,1.3216,2049
14,-1.6899,0.0283,0.0256,-0.3216,0.8552,2.1537,2056
14,-0.6863,0.248,-0.0349,0.9681,2.0501,3.5163,2052
14,1.9999,-2.0,0.2021,-0.7204,-3.8984,4.3634,2004
14,-2.0,1.0225,-0.1284,1.6506,2.0,2.1245,2048
14,-2.0,-0.614,0.3767,0.1317,1.4781,1.2107,2072
14,-2.0,-0.4802,0.3213,0.2256,1.9711,-0.3008,2064
14,-0.9531,-0.2119,0.3486,-0.9283,1.4142,-0.9175,2062
14,0.0471,-0.1482,0.1487,-1.1556,1.1244,-0.7962,2046
14,0.1689,-0.0769,0.0522,-1.0957,-0.0949,-1.2965,2045
14,0.1577,0.019,-0.0552,-0.6805,-0.0418,-2.4874,2047
14,0.1448,-0.155,0.0308,-0.1659,-0.1178,-2.1782,2046
14,-0.146,-0.4033,0.1125,-0.212,-0.0112,-2.4502,2050
14,-0.4055,-0.4302,0.1819,-0.5237,-0.1838,-2.4089,2047
14,-0.5674,-0.3699,0.2207,-0.5971,-0.4325,-2.3928,2052
14,-0.7952,-0.313,0.314,-0.5377,-0.6414,-2.6065,2049
14,-0.7666,-0.2961,0.3254,-0.4932,-0.6259,-2.8814,2052
14,-0.658,-0.2952,0.3889,-0.6597,-0.537,-3.2515,2054
14,-0.626,-0.207,0.3828,-0.8178,-0.3908,-3.6177,2052
14,-0.5942,-0.23,0.3606,-0.9829,-0.3007,-4.0025,2049
14,-0.5117,-0.2925,0.3206,-0.9945,-0.4806,-4.2475,2053
14,-0.4712,-0.3311,0.3098,-0.9846,-0.7641,-4.3635,2052
14,-0.5232,-0.3428,0.3196,-1.0017,-0.7188,-4.3635,2051
14,-0.5862,-0.3403,0.3384,-1.034,-0.5596,-4.3635,2049
14,-0.6042,-0.3989,0.2908,-0.9553,-0.2292,-4.3635,2051
14,-0.6543,-0.4658,0.2363,-0.811,0.139,-4.3635,2050
14,-0.5916,-0.4653,0.178,-0.7063,0.5762,-4.3635,2051
14,-0.5864,-0.418,0.1011,-0.55,1.0399,-4.3635,2048
14,-0.5994,-0.3379,0.0693,-0.3326,1.4287,-4.3635,2048
14,-0.4541,-0.3516,-0.0203,-0.1378,1.4613,-4.3635,2050
14,-0.311,-0.3337,-0.1963,0.1723,1.3406,-4.3635,2050
14,-0.1611,-0.4355,-0.2488,0.4304,0.6084,-4.3635,2049
14,-0.1299,-0.6179,-0.4434,0.5731,0.169,-4.3635,2062
14,-0.386,-0.7585,-0.5515,0.6295,0.1766,-4.3635,2054
14,-0.4719,-0.9216,-0.4504,0.4879,-0.0418,-4.3635,2063
14,-0.4636,-0.9622,-0.3296,0.3665,-0.3285,-4.3635,2053
14,-0.4214,-1.0884,-0.2703,0.4127,-0.6952,-4.3563,2056
14,-0.439,-1.217,-0.2954,0.7538,-1.1379,-3.6688,2053
14,-0.5444,-1.3733,-0.3501,0.9019,-1.3129,-2.9778,2049
14,-0.7009,-1.3784,-0.3374,0.5666,-0.9714,-2.5032,2050
14,-0.6218,-1.3308,-0.5259,0.0055,-0.596,-2.1225,2051
14,-0.4421,-1.3274,-0.3794,-0.2385,-0.1109,-1.4949,2050
14,-0.365,-1.2793,-0.2053,-0.4061,0.2236,-0.7774,2046
14,-0.8193,-2.0,0.4419,-2.1318,-0.1768,-2.2317,2049
14,-0.7522,-2.0,-0.6758,-3.297,1.2826,-2.2767,2046
14,-0.7158,-0.0559,-0.5354,-2.7695,2.2791,1.4715,2056
14,-1.3406,1.0376,0.0754,0.5184,-0.3561,4.3634,2041
14,-2.0,-0.7483,1.3411,1.3794,-0.9637,1.7596,2048
14,-1.0178,-1.9387,1.7466,1.1519,0.5245,3.4051,2065
14,0.8975,-2.0,1.2959,0.4428,2.9295,2.3079,2067
14,1.9999,-2.0,0.1995,0.8203,3.7897,2.0674,2047
14,0.6753,-1.7419,-0.5933,-0.0487,4.3634,2.0471,2047
14,-0.7385,-0.3403,-0.6125,-0.6217,4.3634,2.6707,2055
14,-1.5803,0.4644,-0.2336,-0.0394,4.3634,2.6888,2053
14,-1.3669,-0.1646,-0.0757,0.3199,3.8274,1.8492,2057
14,-0.6558,-1.3916,-0.4043,0.2105,2.4436,1.3852,2054
14,-0.4143,-2.0,-0.5242,0.0911,0.8857,1.7088,2055
14,-0.2485,-1.769,-0.5884,-0.9541,0.4715,1.7419,2052
14,-0.0605,-0.3972,0.1936,-0.8797,-2.5898,2.0205,2056
14,-0.8867,-0.1204,0.0623,0.2124,-1.7102,1.5169,2050
14,-1.3359,-0.7937,0.1108,0.8534,0.8505,1.0088,2048
14,-1.3223,-1.2759,0.0469,0.1206,1.6379,1.195,2058
14,-0.0659,-1.105,0.2405,-0.318,0.1253,2.0977,2050
14,-0.8691,-0.9387,0.0786,-0.1186,0.0574,1.5573,2038
14,-0.9167,-0.9236,0.1111,-0.3272,0.2333,0.6681,2056
14,-0.5759,-1.084,0.1079,-0.1586,0.4433,0.5066,2041
14,-0.488,-1.1221,0.1223,-0.0537,0.3496,0.6695,2052
14,-0.5745,-1.0168,0.0591,-0.1878,0.2394,0.532,2049
14,-0.5425,-0.9629,-0.0837,-0.2076,-0.0832,0.1756,2048
14,-0.5122,-1.019,-0.1003,-0.141,-0.1432,0.1053,2053
14,-0.522,-1.0059,-0.1172,-0.0976,-0.134,0.1025,2050
14,-0.5857,-0.9561,-0.1716,-0.119,-0.0109,0.08,2042
14,-0.342,-0.989,-0.2627,-0.163,-0.0334,0.0128,2057
14,-0.2661,-0.9568,-0.2676,-0.036,-0.094,-0.0985,2049
14,-0.1926,-0.9988,-0.2566,0.1052,-0.2436,-0.0522,2052
14,-0.3235,-0.9658,-0.1711,0.1963,-0.2549,-0.1201,2046
14,-0.3645,-0.95,-0.0862,0.1666,-0.2551,-0.1816,2060
14,-0.2214,-0.9751,-0.0271,0.0792,-0.1657,-0.1458,2058
14,-0.1169,-0.9373,0.05,0.0832,-0.2477,-0.1939,2052
14,-0.1331,-0.9419,0.0938,0.0048,-0.295,-0.2895,2051
14,-0.073,-1.0061,0.1016,-0.0316,-0.143,-0.2718,2055
14,0.0037,-0.9697,0.0776,-0.0364,0.0423,-0.206,2053
14,0.1682,-0.9214,0.0154,-0.0517,0.0758,-0.0947,2063
14,0.0234,-0.9192,-0.0054,-0.1337,-0.1767,-0.0641,2064
14,0.1121,-0.9526,0.0139,0.0494,0.0851,0.0535,2063
14,0.1208,-0.9868,0.0991,-0.114,-0.0546,0.0603,2057
14,0.1436,-0.8755,0.0625,-0.0828,-0.2191,0.3816,2039
14,0.5195,-1.1626,0.0496,0.0128,-0.6911,0.9114,2061
14,-0.1938,-1.1711,0.094,-0.1123,-0.8789,0.0453,2013
14,-0.5835,-0.7659,-0.0781,-0.2643,-0.3235,0.7217,2077
15,-0.7415,-0.9333,-0.2144,-0.2818,0.4108,0.1935,1982
15,-0.6016,-1.0325,-0.0149,-0.4243,0.3894,-0.1835,2073
15,0.2012,-0.9316,-0.26,-0.5059,-0.1867,0.5485,1980
15,-0.2493,-1.009,-0.0022,-0.125,0.261,0.22,2059
15,-0.259,-1.2048,-0.0483,-0.0826,0.0181,0.7353,1827
15,-0.2961,-0.9712,-0.1353,-0.1104,-0.289,0.9838,1705
15,-0.2454,-0.9727,-0.1448,-0.1495,-0.4442,0.8227,1668
15,-0.1228,-1.0554,-0.1423,-0.092,-0.4004,0.7578,2135
15,-0.2368,-1.2102,-0.1084,-0.0667,-0.3002,0.7068,1427
15,-0.0864,-1.1255,-0.0662,-0.1277,-0.4101,0.5803,1899
15,0.0264,-0.9221,-0.0496,-0.0438,-0.5233,0.8195,1717
15,0.0859,-0.9973,-0.0515,-0.0005,-0.5381,0.8959,1923
15,0.1934,-1.1426,-0.0146,-0.0321,-0.4112,1.0871,1850
15,0.271,-1.2559,0.0674,-0.0758,-0.3358,1.2661,2132
15,0.2156,-1.1467,0.0903,-0.0569,-0.3251,1.4643,1916
15,0.031,-1.1838,0.0583,-0.0242,-0.2839,1.5924,1907
15,-0.0972,-1.3364,0.1489,-0.087,-0.2795,1.5884,2326
15,-0.1238,-1.2432,0.2419,-0.2136,-0.3101,1.6444,2399
15,-0.2561,-1.064,0.2734,-0.145,0.0127,1.6197,1761
15,-0.1531,-1.1941,0.2219,-0.1924,-0.1324,1.6882,1767
15,-0.093,-1.1963,0.0935,-0.1317,0.0671,1.8771,1929
15,-0.2292,-1.1108,0.0913,-0.0497,0.0835,1.8869,2281
15,0.0142,-1.2734,-0.03,-0.0386,-0.0296,1.9345,2114
15,-0.1418,-1.1667,-0.0872,-0.0409,-0.0264,2.021,2090
15,0.0483,-1.1497,-0.1626,-0.033,-0.0401,2.0406,1973
15,0.1074,-1.1968,-0.2273,0.0309,-0.1542,2.1803,2018
15,0.3589,-1.3459,-0.1753,0.0108,-0.2313,2.2897,2013
15,0.6387,-1.2517,-0.071,0.0365,-0.5485,2.7137,2039
15,0.6079,-1.2615,0.0098,0.1064,-0.6215,2.8271,2061
15,0.4146,-1.4343,0.1519,0.0663,-0.4718,2.7747,2072
15,0.2595,-1.4045,0.2705,-0.059,-0.1171,2.854,2062
15,0.5095,-1.562,0.4072,-0.3259,-0.3135,2.8818,2061
15,0.6448,-1.5122,0.2812,-0.541,-1.138,3.2761,2051
15,0.0955,-1.5825,0.272,-0.1041,-1.9652,3.1431,2051
15,0.1477,-1.7402,0.5198,-0.0684,-2.5979,3.3029,2051
15,0.1919,-1.845,0.2075,0.5059,-2.2602,3.5041,2060
15,-0.0422,-2.0,-0.0295,0.0774,-1.8445,2.7723,2056
15,0.1519,-0.9895,-0.0918,0.3464,-2.3582,3.5788,2052
15,-0.6572,-1.7473,-0.5132,-0.6506,-2.4224,2.1726,2049
15,-1.144,-1.428,-0.1892,-0.818,-2.4103,1.5862,2054
15,-1.5889,-0.7383,-0.0647,-0.3112,-1.0192,2.8264,2059
15,-1.1677,-0.427,0.4375,0.4091,0.3819,3.5107,2054
15,1.9999,-1.2131,-0.1196,1.0339,-3.0592,3.7741,2041
15,-2.0,0.0903,-0.5588,0.8592,0.3212,2.6061,2033
15,-2.0,-0.1226,0.0208,-0.5616,0.3964,2.1941,2054
15,-2.0,-0.384,0.7449,-0.2602,1.1364,1.0447,2060
15,-2.0,-0.5388,0.7842,-0.1526,0.9022,0.0637,2066
15,-0.6038,-0.1619,0.4775,-0.7889,0.2,0.0798,2060
15,-0.3884,-0.1672,0.1724,-1.7249,-0.0668,-0.5313,2053
15,-0.0603,0.0596,-0.0811,-1.7102,0.1517,-2.1383,2048
15,-0.0698,-0.1406,0.0747,-1.0373,0.8281,-2.5137,2044
15,-0.1055,-0.3174,0.2637,-0.4866,1.4279,-2.3469,2046
15,-0.2063,-0.2854,0.2312,-0.1734,1.6207,-2.0924,2047
15,-0.3975,-0.3169,0.1924,-0.098,1.5833,-2.1759,2050
15,-0.6892,-0.3242,0.1902,0.0119,1.3539,-2.1425,2050
15,-0.762,-0.259,0.2095,0.1127,1.1148,-2.3009,2049
15,-0.6951,-0.2583,0.1838,0.3027,1.2042,-2.5344,2049
15,-0.6128,-0.2065,0.1833,0.3956,1.2774,-2.7324,2053
15,-0.6274,-0.2317,0.1492,0.4281,1.3137,-3.2444,2051
15,-0.7036,-0.2688,0.1138,0.3891,1.3608,-3.6882,2053
15,-0.6165,-0.3203,0.123,0.3951,1.295,-3.8458,2050
15,-0.4529,-0.3787,0.1179,0.4947,1.1808,-3.998,2054
15,-0.4402,-0.4128,0.1079,0.5243,1.1352,-4.0194,2050
15,-0.4336,-0.3442,0.053,0.412,1.1375,-4.116,2049
15,-0.457,-0.3545,-0.0251,0.4035,1.1527,-4.2759,2051
15,-0.8081,-0.3025,-0.0825,0.7456,1.3644,-4.217,2056
15,0.2344,-0.4668,0.0168,0.7143,0.147,-3.4966,2057
15,-0.0581,-0.4871,-0.1223,0.7855,0.5731,-3.8835,2049
15,-0.1611,-0.5991,-0.2539,0.7104,0.1205,-4.2209,2051
15,-0.2644,-0.5916,-0.3164,0.6578,-0.0775,-4.3635,2043
15,-0.3411,-0.5186,-0.322,0.6359,-0.3204,-4.3635,2044
15,-0.3955,-0.5452,-0.3284,0.6071,-0.8934,-4.3635,2054
15,-0.4058,-0.6746,-0.4517,0.5309,-1.4033,-4.3635,2079
15,-0.3533,-0.7625,-0.5708,0.6284,-1.7506,-4.3635,2053
15,-0.3481,-0.9033,-0.2104,0.1446,-1.6423,-4.3635,2049
15,-0.4949,-1.0403,0.1057,-0.487,-1.3711,-4.3635,2044
15,-0.7317,-1.1533,0.0332,-0.616,-1.2631,-4.3635,2050
15,-0.7483,-1.0881,-0.1738,-0.2942,-1.2665,-4.2711,2050
15,-0.6526,-1.2151,-0.3713,-0.1234,-1.0841,-3.7013,2048
15,-0.1892,-2.0,-0.2454,-3.1345,-1.9012,-4.3635,2047
15,-0.3293,-1.7351,-1.041,-3.2961,-0.2097,-4.2048,2049
15,-1.4517,1.2078,-0.3389,-1.594,-2.6721,2.4288,2034
15,-1.4814,0.3472,-0.1338,0.8742,-0.4522,-0.6514,2067
15,-1.5222,-1.3303,-0.4124,0.1003,-0.8231,0.5883,2063
15,-2.0,-1.7554,0.1997,0.1474,-1.3595,2.0005,2060
15,-1.6101,-1.1172,0.5457,-0.066,0.0788,2.5935,2066
15,-1.0818,-1.8267,1.1531,1.2232,-0.1064,3.713,2060
15,0.7922,-2.0,1.9999,1.9427,0.9007,3.6964,2056
15,1.803,-2.0,0.2678,0.2956,2.8099,2.5597,2048
15,-0.4307,-0.2441,-1.2903,-0.7062,4.3634,1.1782,2041
15,-1.5195,0.939,-0.6997,-1.0721,4.3634,1.8174,2044
15,-1.7141,0.1121,-0.2483,0.1059,4.3634,2.3594,2066
15,-1.6926,-1.5637,-0.1365,0.514,2.8771,1.8888,2052
15,-0.489,-2.0,-0.3474,-0.133,0.5002,2.1201,2049
15,0.5132,-1.2188,0.0151,-0.539,-2.6701,2.2334,2047
15,-1.1404,-0.6868,0.9963,-1.1468,-3.1107,-0.7554,2050
15,-0.4258,-0.4314,-0.3887,-0.0072,-1.1239,2.0441,2041
15,-1.2141,-1.1301,0.2229,0.6951,-0.0758,1.6161,2050
15,-1.0483,-1.1274,0.3057,-0.0056,1.3741,1.9317,2048
15,-1.2468,-1.218,0.2292,0.0009,1.1796,1.8427,2053
15,-0.9839,-1.1445,-0.0183,-0.0585,0.8166,0.6239,2058
15,-0.55,-0.7964,0.1333,-0.0736,0.1047,0.5156,2052
16,-0.4661,-0.9407,-0.1885,0.0232,0.3204,0.121,2051
16,-0.1624,-0.9954,-0.1953,0.1056,0.0341,0.3769,2062
16,-0.1667,-0.9011,-0.1367,0.0917,0.1292,0.3052,2062
16,-0.4546,-0.9961,-0.0322,0.0293,0.1459,0.0997,2060
16,-0.616,-1.0115,0.0964,0.0202,-0.0768,0.0459,2051
16,-0.6545,-1.0049,0.0669,-0.0093,-0.0945,0.079,2031
16,-0.4604,-1.0139,-0.0664,-0.038,-0.1357,0.0764,2066
16,-0.3953,-1.0105,-0.1545,0.055,-0.0354,-0.0165,2067
16,-0.127,-1.0496,-0.2151,0.0731,-0.0184,0.1428,2055
16,0.0459,-0.98,-0.2261,0.1959,-0.0081,0.3472,2063
16,0.0234,-1.1082,-0.0623,0.0875,-0.3196,0.0784,2052
16,-0.4822,-0.7698,-0.0452,0.0742,-0.5277,0.0188,2079
16,-0.5364,-0.894,-0.0171,0.0957,-0.3272,-0.2207,2044
16,-0.2383,-0.9624,-0.0549,0.0686,0.0176,-0.1171,2050
16,0.071,-1.0601,-0.0425,-0.0101,0.1294,0.0226,2061
16,0.136,-0.9397,-0.0601,-0.0507,0.1433,0.0981,2046
16,-0.0078,-0.8779,-0.0979,-0.0216,0.0075,0.1081,2055
16,0.1257,-0.9922,-0.1028,-0.0095,-0.0591,0.178,2065
16,-0.1636,-1.0669,-0.0564,0.0039,-0.2051,0.1988,2047
16,-0.3281,-0.957,-0.0181,-0.0631,-0.1441,0.1312,2061
16,0.2017,-1.0657,-0.0422,0.0458,-0.0549,0.5382,2058
16,0.1602,-1.05,-0.0815,-0.1063,-0.7224,0.3285,2062
16,-1.1624,-0.8,-0.019,0.0234,0.293,-0.296,2045
16,-0.3999,-0.843,-0.0596,-0.1758,0.1471,0.4581,2077
16,0.3887,-1.1907,-0.3152,0.0647,-0.4396,0.53,2216
16,-1.0969,-0.7373,0.0515,-0.1794,-0.1401,-0.3972,1943
16,-0.4868,-0.9258,-0.1621,-0.1743,-0.369,0.2044,2034
16,-0.2849,-1.1372,0.0291,-0.1987,-0.2314,0.0707,2464
16,-0.2468,-1.0623,-0.1328,-0.0935,-0.6265,0.2477,2160
16,-0.1738,-0.9697,-0.1184,-0.1558,-0.4271,0.2068,1891
16,-0.0366,-0.9553,-0.1006,-0.0441,-0.6168,0.1996,1929
16,0.3604,-1.0256,-0.1362,0.0186,-0.2445,0.401,2204
16,0.4458,-1.1152,-0.1509,0.0289,-0.336,0.4318,2334
16,0.4836,-1.0869,-0.1689,0.0109,-0.1947,0.7433,2091
16,0.3215,-1.0618,-0.1536,0.0067,-0.3727,0.7347,1962
16,0.2158,-1.1582,-0.1367,-0.0131,-0.414,1.0355,2106
16,0.1101,-1.1536,-0.0762,-0.0144,-0.4627,1.1206,2051
16,-0.04,-1.1567,-0.0386,0.0165,-0.6438,1.2223,2375
16,-0.1553,-1.2051,0.1802,-0.0409,-0.5155,1.2359,2347
16,-0.1877,-1.0527,0.3154,-0.0454,-0.3394,1.3908,2513
16,-0.1455,-1.134,0.3533,-0.1175,-0.3195,1.4838,2173
16,-0.1011,-1.1943,0.3262,-0.1586,-0.1261,1.5697,2304
16,-0.1704,-1.1472,0.2302,-0.1394,-0.0625,1.7163,2034
16,-0.2991,-1.126,0.1902,-0.1298,-0.1372,1.7685,1799
16,-0.3389,-1.1921,0.1409,-0.1147,-0.1003,1.5982,2194
16,-0.3428,-1.2061,0.1201,-0.1345,0.147,1.7519,1994
16,-0.313,-0.9875,0.1108,-0.1465,0.1539,1.6641,2001
16,-0.3152,-1.0242,-0.0056,-0.0554,0.1421,1.6241,2106
16,-0.2324,-1.2051,-0.0166,-0.0134,0.1799,1.6844,2158
16,-0.106,-1.075,-0.0793,0.031,0.0513,1.8795,2707
16,0.1528,-1.0854,-0.1084,-0.0196,-0.214,1.9441,2024
16,0.208,-1.1509,-0.2029,-0.0047,-0.2794,2.0518,2260
16,0.3748,-1.217,-0.1738,-0.0079,-0.3826,2.1619,1942
16,0.5854,-1.2612,-0.1255,-0.0132,-0.4634,2.3792,2010
16,0.5632,-1.2715,0.0249,0.0068,-0.5782,2.5657,2069
16,0.4473,-1.3462,0.1724,-0.018,-0.6211,2.669,2072
16,0.2065,-1.2795,0.2964,-0.0356,-0.2069,2.8592,2062
16,0.167,-1.3582,0.4297,-0.2228,-0.0174,2.8456,2049
16,0.3916,-1.626,0.5439,-0.5164,-0.1926,2.9371,2059
16,0.4397,-1.644,0.449,-0.5944,-0.8194,3.1262,2052
16,0.252,-1.6853,0.4695,-0.0763,-1.4826,3.0281,2052
16,0.6301,-1.7722,0.4072,0.3611,-1.8104,3.2021,2058
16,0.4932,-2.0,0.2717,0.2709,-1.8869,3.3259,2052
16,0.2498,-1.3062,-0.3928,0.0523,-2.0201,3.7014,2054
16,-0.4949,-2.0,-0.2209,-0.8713,-2.504,2.237,2052
16,-0.7476,-1.5444,-0.0063,-0.2907,-2.8842,1.7586,2053
16,-1.9114,-0.7417,-0.0564,0.0313,-1.7214,2.741,2050
16,-1.9453,-1.3472,0.4431,0.7221,0.2378,3.8882,2059
16,-1.2673,-1.0413,0.209,1.2762,-0.1641,3.3575,2063
16,0.4841,0.2473,-0.0659,0.8163,-0.5426,2.6801,2048
16,-1.3179,-0.322,-1.2134,-0.4027,0.6994,2.0771,2042
16,-2.0,0.0891,0.0007,-0.5601,0.561,1.968,2051
16,-2.0,-0.4866,0.9163,0.0736,0.3196,1.0038,2064
16,-2.0,-0.2688,0.6934,0.1262,0.0039,0.2586,2063
16,-0.9424,-0.2058,0.3457,-0.6962,-0.3528,0.3987,2061
16,-0.3989,-0.116,-0.0283,-1.5271,-0.5357,-1.2906,2055
16,0.0747,0.0459,-0.1082,-1.652,-0.2936,-2.7337,2046
16,-0.1689,-0.2,0.0256,-1.3283,0.2595,-3.3089,2044
16,-0.5005,-0.3542,0.1213,-0.9119,0.7339,-3.2455,2049
16,-0.4568,-0.248,0.1379,-0.4145,1.1537,-2.8837,2051
16,-0.3955,-0.2065,0.1233,0.034,1.1688,-2.6293,2049
16,-0.4207,-0.2405,0.1384,0.3259,0.675,-2.5637,2047
16,-0.6125,-0.2805,0.0806,0.3583,0.4223,-2.9343,2049
16,-0.6812,-0.2881,0.0283,0.2916,0.3083,-3.2995,2051
16,-0.6077,-0.2488,0.0078,0.223,0.4135,-3.5376,2049
16,-0.6187,-0.2148,0.0706,0.1551,0.2844,-3.8793,2050
16,-0.4883,-0.2188,0.1196,0.2137,0.0955,-4.0393,2048
16,-0.3752,-0.3105,0.0701,0.2111,0.0312,-4.2905,2049
16,-0.5122,-0.3677,0.0208,0.2151,0.0714,-4.3635,2048
16,-0.6113,-0.3118,0.0312,0.1128,0.3059,-4.3635,2050
16,-0.5938,-0.3162,-0.002,0.1153,0.5948,-4.3635,2050
16,-0.5554,-0.4688,-0.0273,0.2107,0.7385,-4.3635,2046
16,-0.5737,-0.5583,-0.0618,0.3105,0.7498,-4.3635,2053
16,-0.686,-0.2805,-0.113,0.606,1.1714,-4.0696,2070
16,0.0105,-0.262,-0.0796,0.6006,0.193,-4.0253,2051
16,-0.1819,-0.354,-0.2456,0.6674,0.3528,-4.3635,2052
16,-0.3721,-0.5146,-0.3975,0.5084,0.0316,-4.3635,2053
16,-0.498,-0.7131,-0.5303,0.4061,-0.121,-4.3635,2057
17,-0.4333,-0.8257,-0.5796,0.4651,-0.2036,-4.3635,2048
17,-0.3635,-0.8933,-0.4246,0.506,-0.3625,-4.3635,2052
17,-0.3416,-0.9822,-0.1191,-0.0638,-0.4273,-4.3635,2045
17,-0.3208,-1.1646,0.0552,-0.6269,-0.6138,-4.3635,2069
17,-0.4558,-1.3132,-0.1208,-0.6035,-1.1961,-4.0895,2051
17,-0.6116,-1.322,-0.3281,-0.1699,-1.7877,-3.4788,2051
17,-0.6536,-1.3877,-0.4504,-0.1225,-2.0587,-3.0328,2054
17,-0.5608,-1.3982,-0.5012,-0.2756,-1.7647,-2.3868,2051
17,-0.6238,-1.3496,-0.4775,-0.2385,-1.1925,-1.6704,2049
17,-0.8936,-1.6895,-0.1836,-0.453,-0.608,-1.4447,2049
17,-0.9102,-1.7993,-0.2771,-1.6177,0.4215,-1.7455,2050
17,-1.2083,-1.4941,-0.3711,-1.483,1.9164,-1.2308,2045
17,-1.3691,-1.0344,-0.2151,-1.305,2.5228,0.4888,2048
17,-1.8169,-0.4609,0.1555,-0.2304,2.387,2.6544,2052
17,-1.9783,-0.5281,0.6907,0.6689,2.7553,3.0207,2051
17,-1.3792,-1.0339,1.1804,0.5323,2.4919,3.4484,2056
17,0.1689,-1.1299,0.5913,-0.1273,2.4602,3.2228,2058
17,0.2852,-1.7483,0.3894,-1.2696,2.1569,-1.1911,2050
17,1.2561,-0.2427,-0.3101,-2.043,2.5429,2.304,2066
17,0.1882,1.311,-0.5383,-0.6948,3.0044,2.3559,2040
17,-0.5464,0.5688,0.1262,0.9263,2.9963,1.7073,2045
17,0.1355,-1.48,0.45,1.5253,2.1826,1.217,2060
17,0.2793,-2.0,-0.2087,1.4745,1.6111,2.1929,2057
17,-0.3481,-2.0,-0.7173,0.3831,1.2601,2.4473,2037
17,-1.6001,-0.1733,-0.5432,0.1838,1.3268,4.3292,2048
17,-0.5386,0.0842,0.6289,-0.7188,-1.6958,2.2288,2057
17,-0.2402,-0.7681,0.7703,-0.3152,-1.3262,1.1592,2055
17,-1.1719,-0.7756,0.1609,0.5814,0.3255,2.0754,2048
17,-1.3604,-1.2471,0.3972,0.4887,0.3147,1.5323,2052
17,-0.9888,-1.3367,0.3357,0.2261,0.7584,1.9813,2054
17,-1.3367,-1.0457,-0.1616,-0.4216,1.3031,1.5235,2050
17,-0.8755,-0.8596,-0.0349,-0.1651,1.3062,1.4035,2053
17,-0.6929,-0.8423,0.0647,0.0553,1.2346,1.1918,2051
17,-0.7744,-0.8982,-0.0637,0.0449,0.6995,0.893,2040
17,-0.4868,-0.8501,-0.1426,0.1237,0.2943,0.6843,2056
17,-0.3777,-0.9668,-0.1572,0.2748,0.2567,0.4826,2055
17,-0.5029,-1.0708,0.0107,0.1952,0.2547,0.4847,2059
17,-0.575,-1.0059,0.1926,0.0768,0.1803,0.549,2046
17,-0.7896,-1.0122,0.262,0.0068,0.1977,0.238,2050
17,-0.8601,-1.0383,0.248,-0.0799,0.181,0.0196,2051
17,-0.7668,-0.9771,0.1814,-0.1308,0.1149,-0.0286,2049
17,-0.6436,-0.9309,0.0425,-0.2067,0.0336,-0.0975,2054
17,-0.5129,-0.9543,-0.0437,-0.1744,0.0161,-0.1205,2033
17,-0.4797,-0.949,-0.0466,-0.1181,0.027,-0.1518,2061
17,-0.2686,-0.9771,-0.1252,-0.1487,-0.0538,-0.191,2047
17,0.0356,-1.0603,-0.2151,-0.145,-0.1795,-0.1577,2040
17,-0.2878,-0.9241,-0.2136,0.0152,-0.2729,-0.2428,2027
17,-0.4399,-0.844,-0.0872,0.0333,-0.2137,-0.1812,2052
17,-0.3384,-0.8538,0.0122,0.0838,-0.1147,-0.2452,2041
17,0.0088,-0.9485,-0.073,0.0374,-0.0842,-0.2585,2032
17,0.1321,-0.968,-0.0518,0.0354,-0.126,-0.2308,2045
17,0.1243,-0.9175,-0.001,0.0554,0.0401,-0.0605,2029
17,-0.0493,-0.9485,-0.0076,0.1234,0.1667,0.0518,2046
17,-0.0222,-1.0679,0.0288,0.0567,-0.0077,0.1402,2014
17,-0.0479,-0.9727,-0.03,-0.0348,-0.1642,0.1396,2103
17,-0.0898,-0.9685,-0.0449,-0.063,-0.3446,0.2305,2124
17,-0.0857,-0.9849,0.0996,-0.1764,-0.2157,0.4236,2111
17,-0.1509,-0.9021,0.0164,-0.1928,-0.1449,0.4241,2091
17,-0.0476,-0.9668,-0.0159,-0.2526,-0.1224,0.51,1905
17,-0.0439,-1.0723,-0.1309,-0.302,-0.03,0.5698,1994
17,-0.0576,-0.9507,-0.0925,-0.3004,-0.0447,0.6978,2130
17,-0.0627,-0.8953,-0.1379,-0.3036,-0.1381,0.7016,2031
17,-0.2244,-0.9988,-0.0012,-0.2417,-0.1321,0.7466,2005
17,-0.4565,-1.001,-0.0471,-0.2915,-0.136,0.6617,2008
17,-0.5012,-0.9949,-0.1504,-0.2711,-0.1008,0.6636,1883
17,-0.4099,-0.9329,-0.176,-0.2322,-0.1107,0.6305,2532
17,-0.384,-0.9163,-0.2222,-0.1228,-0.3746,0.613,1999
17,-0.3572,-0.9712,-0.0996,0.0063,-0.3481,0.7036,1630
17,-0.3215,-0.9697,-0.1453,-0.0866,-0.5755,0.716,1792
17,-0.2175,-0.8945,-0.1199,0.123,-0.5498,0.7996,2180
17,-0.2346,-1.041,-0.1692,0.2779,-0.6223,0.8409,2059
17,-0.0911,-1.1094,-0.0857,0.3309,-0.4948,1.0073,1808
17,-0.0901,-1.0632,-0.0994,0.3694,-0.5521,1.1323,2623
17,0.0139,-1.231,-0.0791,0.4303,-0.5441,1.1652,1886
17,0.0317,-1.3787,0.0112,0.3978,-0.4003,1.3656,2031
17,0.009,-1.3237,0.0559,0.4693,-0.0951,1.481,2059
17,0.0342,-1.4421,0.147,0.4245,-0.194,1.7311,2117
17,0.4946,-1.6467,0.0215,0.3742,-0.1465,1.7442,2025
17,0.5396,-1.6094,-0.0161,0.4036,-0.2714,2.1595,2045
17,0.5654,-1.6489,0.1042,0.4052,-0.0948,2.2985,2048
17,0.6948,-1.6726,0.1382,0.3116,-0.0621,2.5282,2046
17,0.7783,-1.6509,0.2048,0.1586,0.0718,2.69,2034
17,0.5933,-1.6338,0.3262,0.0128,0.1734,2.8501,2036
17,0.4451,-1.7009,0.3979,-0.1927,0.1119,2.9786,2059
17,0.2141,-1.6379,0.4441,-0.3473,0.2229,3.1785,2060
17,0.2839,-1.7944,0.3679,-0.5297,-0.0546,2.9215,2054
17,0.2415,-1.7424,0.1699,-0.4121,-0.4899,3.5296,2050
17,0.1819,-1.8027,0.8381,-0.8324,-1.1615,3.8833,2064
17,0.5657,-1.4873,-0.312,0.241,-2.1755,4.0804,2048
17,0.5632,-0.7778,-0.2542,1.1692,-3.5966,4.1656,2051
17,-0.2839,-0.3997,-0.209,1.6775,-3.4917,4.3634,2048
17,-1.8005,-1.6104,-0.4421,2.0632,-1.8287,3.4054,2065
17,-2.0,-2.0,-0.1726,0.9949,0.8247,1.0748,2070
17,-0.9993,-1.7061,0.3716,-0.7439,0.3047,1.4553,2054
17,-0.7649,0.3291,0.1462,-0.8111,0.6739,2.818,2049
17,-1.2468,0.4683,-0.3071,-0.0527,2.728,2.6406,2048
17,0.4465,-1.2573,-1.6909,-0.1609,-3.5934,3.426,2029
17,-2.0,1.0933,0.5457,0.5245,2.639,1.3302,2069
17,-2.0,-1.1709,0.5242,-0.6399,1.0021,0.8199,2075
17,-2.0,-0.1687,0.4919,-0.1206,1.3776,-0.5899,2060
17,-0.3369,-0.2742,0.5598,-1.4049,0.7769,-0.4018,2055
17,0.9346,-0.3447,0.3525,-1.4106,-2.1377,-0.7128,2052
17,0.0,-0.1768,0.1392,-1.3764,-2.6067,-2.4846,2038
17,-0.2043,-0.1741,0.1448,-1.7001,-1.6391,-2.5623,2048
17,-0.2903,-0.3069,0.1384,-1.3186,-0.8767,-2.1744,2051
17,-0.5337,-0.4126,0.2498,-1.2484,-0.2076,-2.333,2050
17,-0.7268,-0.3308,0.3416,-1.4649,0.068,-2.3072,2048
18,-0.801,-0.2878,0.4158,-1.2866,0.1226,-2.3603,2050
18,-0.7585,-0.3459,0.4202,-1.0231,0.0912,-2.4911,2053
18,-0.6836,-0.377,0.3665,-1.0476,0.1565,-2.7244,2052
18,-0.6345,-0.3301,0.2756,-1.172,0.3185,-3.016,2050
18,-0.6602,-0.3047,0.2305,-1.2545,0.5,-3.331,2048
18,-0.6008,-0.3262,0.1826,-1.3332,0.6165,-3.5637,2050
18,-0.5359,-0.293,0.1704,-1.3861,0.5496,-3.8663,2048
18,-0.4263,-0.2573,0.137,-1.3428,0.3699,-4.1623,2047
18,-0.4075,-0.3174,0.1006,-1.1103,0.24,-4.3156,2053
18,-0.5308,-0.3821,0.0608,-0.832,0.3247,-4.298,2050
18,-0.55,-0.4182,0.0251,-0.6681,0.6625,-4.1987,2052
18,-0.5544,-0.4348,-0.0205,-0.5432,0.9581,-4.0884,2051
18,-0.2861,-0.3042,-0.0737,-0.355,0.6014,-3.754,2054
18,-0.1943,-0.3071,-0.1946,-0.0859,0.3192,-3.9142,2048
18,-0.3362,-0.3884,-0.3479,0.072,0.2394,-4.2437,2049
18,-0.4082,-0.428,-0.4546,0.1269,0.1465,-4.3635,2049
18,-0.3804,-0.4746,-0.5112,0.2643,-0.0047,-4.3635,2041
18,-0.4011,-0.5544,-0.4656,0.4806,-0.1451,-4.3635,2051
18,-0.4617,-0.7581,-0.2642,0.5327,-0.1864,-4.3008,2048
18,-0.5276,-0.8823,-0.0161,0.0823,-0.2509,-4.2118,2051
18,-0.5686,-0.9348,0.0608,-0.3021,-0.3535,-4.1365,2049
18,-0.6138,-0.9338,-0.1523,-0.2236,-0.2332,-3.7581,2047
18,-0.7056,-1.0762,-0.3484,-0.1201,0.0308,-3.322,2052
18,-0.73,-1.1616,-0.4651,-0.1735,-0.0726,-2.9188,2048
18,-0.7117,-1.2205,-0.5112,-0.3276,-0.2555,-2.4337,2049
18,-0.698,-1.2195,-0.489,-0.4257,-0.3149,-1.9393,2049
18,-0.7878,-1.1724,-0.4353,-0.4245,-0.1322,-1.4119,2050
18,-0.5581,-2.0,-0.2622,-2.0719,-0.0373,-2.6883,2050
18,-1.0608,-1.9033,-1.1121,-2.6312,2.0945,-2.3088,2043
18,-1.417,-0.0652,-0.3281,-1.2612,1.7017,2.1051,2040
18,-1.4363,-1.2397,-0.0581,-0.8355,1.2367,-0.1649,2058
18,-1.3003,-0.2046,-0.0654,-0.5694,2.2035,2.3798,2061
18,-1.5879,0.0049,0.042,-0.257,2.1533,2.9281,2052
18,-1.2715,-0.1187,0.4187,0.035,1.2549,2.5659,2052
18,-0.5918,-1.0479,1.0972,1.3299,0.8593,2.1061,2057
18,1.6331,-2.0,0.8477,1.3524,0.6727,1.1121,2060
18,1.9999,-2.0,-0.3508,0.6108,0.3836,1.5434,2053
18,-0.1536,-0.8899,-0.8699,0.5277,0.893,2.8797,2046
18,-2.0,0.0078,-0.3647,0.9455,1.1183,2.7196,2050
18,-2.0,-0.4387,0.1689,0.8445,2.2517,2.217,2050
18,-1.1948,-0.8721,-0.0083,0.2741,1.5133,2.9075,2055
18,-0.9097,-0.5991,0.3132,-0.1874,-0.7261,2.4132,2048
18,-0.2949,-0.7371,0.5581,0.6108,-2.2379,1.2463,2046
18,-0.678,-1.448,0.48,0.6425,-0.7899,1.3585,2048
18,-1.2227,-1.2507,0.0029,0.7188,0.9115,1.9121,2049
18,-1.083,-0.9556,0.2202,0.2021,1.2005,1.8936,2046
18,-1.2039,-0.8125,0.1946,0.0666,1.0595,1.7587,2045
18,-1.1765,-0.843,0.1252,-0.0205,0.9915,1.105,2051
18,-0.7134,-1.0596,-0.053,0.0365,0.708,0.6003,2053
18,-0.4719,-1.0046,-0.1292,0.181,0.246,0.6822,2053
18,-0.4336,-0.8699,-0.2185,0.1509,0.1666,0.5839,2049
18,-0.4634,-0.8875,-0.1824,0.1522,0.1409,0.3952,2062
18,-0.603,-1.0022,0.0415,0.1498,-0.0129,0.3362,2052
18,-0.7866,-0.9829,0.1023,0.098,-0.0903,0.2429,2049
18,-0.8186,-0.9753,0.0642,0.0739,-0.0908,0.0071,2054
18,-0.7158,-1.0117,-0.0227,0.1016,-0.0819,-0.0995,2049
18,-0.6523,-0.99,-0.1221,0.1155,-0.0601,-0.1675,2051
18,-0.6172,-0.9358,-0.1558,0.1381,-0.0557,-0.2759,2052
18,-0.5754,-0.948,-0.2441,0.1803,-0.047,-0.3979,2049
18,-0.4883,-0.9902,-0.2502,0.2353,-0.1975,-0.4954,2050
18,-0.3975,-1.0637,-0.2781,0.3477,-0.1618,-0.5272,2053
18,-0.5334,-1.0645,-0.1521,0.2386,-0.0919,-0.7325,2047
18,-0.4397,-0.7559,-0.0332,0.1221,-0.5062,-0.497,2054
18,-0.4128,-0.8215,-0.093,0.2938,-0.5337,-0.6739,2041
18,-0.5149,-0.9216,0.0425,0.3173,-0.2045,-0.8518,2041
18,-0.1538,-1.0327,0.0703,0.1523,-0.0933,-0.7319,2056
18,-0.0117,-0.8962,0.0005,0.1867,0.1124,-0.5751,2060
18,0.1799,-0.9351,-0.0864,0.1968,-0.0133,-0.6533,2058
18,0.3616,-0.9285,0.0005,0.2025,-0.4693,-0.4702,2054
18,-0.2791,-0.8342,-0.0005,0.2432,-0.4157,-0.5204,2043
18,-0.0857,-0.9299,-0.0305,0.228,-0.3117,-0.488,2058
18,-0.0442,-0.9558,0.0146,0.2272,-0.3713,-0.3919,2044
18,0.0322,-0.9385,0.0254,0.1535,-0.2831,-0.3201,2064
18,0.1304,-0.9246,0.021,0.1818,-0.1697,-0.283,2056
18,0.136,-0.9846,0.103,0.182,-0.1752,-0.1771,2059
18,0.0142,-0.957,0.0703,0.1987,-0.2354,0.0538,2054
18,-0.05,-0.9438,0.0681,0.1835,-0.1358,0.1992,2047
18,-0.0835,-0.9612,0.0552,0.2013,-0.1135,0.3217,2051
18,-0.0115,-0.9875,0.0173,0.2286,-0.1121,0.3754,2036
18,0.0037,-0.9802,0.0398,0.3128,0.0149,0.4671,2063
18,-0.104,-1.0417,-0.032,0.237,-0.0193,0.5257,2020
18,-0.1277,-1.0457,-0.0081,0.1907,-0.1176,0.7241,1887
18,-0.0759,-0.9258,-0.0015,0.1025,0.2032,0.7801,1949
18,-0.0723,-1.0732,-0.1123,0.1766,0.1085,0.7281,2289
18,-0.0161,-1.0461,0.0542,0.096,0.1068,1.0088,1715
18,-0.0532,-0.9216,-0.0952,0.0904,0.0732,1.0621,2022
18,-0.0498,-1.1519,-0.0217,0.1241,0.0216,1.1162,1981
18,0.0298,-1.1821,0.0581,0.0475,-0.0594,1.3812,2229
18,0.0303,-1.0242,0.0918,0.0871,-0.1056,1.2922,1993
18,-0.1079,-1.0671,0.0603,0.1406,-0.1689,1.4833,2191
18,-0.0049,-0.9976,-0.093,0.1594,-0.0744,1.5558,1964
18,-0.0059,-1.0984,-0.283,0.1999,-0.2253,1.5886,2023
18,0.0081,-1.2556,-0.207,0.0565,-0.2963,1.6675,1832
18,-0.0259,-0.9949,-0.2156,0.0782,-0.3621,1.6603,2177
18,-0.1492,-1.0789,-0.0942,0.1153,-0.453,1.6928,2239
18,-0.0442,-1.0647,-0.0786,0.0542,-0.5566,1.7464,1853
18,-0.1194,-1.1489,-0.1277,0.1922,-0.7713,1.7704,2521
18,-0.2126,-1.231,0.0576,0.2531,-0.5368,1.8654,2189
18,-0.1208,-0.9963,-0.0513,0.35,-0.8126,1.9875,2160
18,0.0964,-1.5137,-0.053,0.43,-0.9574,1.8907,2162
18,0.2471,-1.5234,0.011,0.3405,-0.7791,2.1723,1954
19,0.2747,-1.3206,0.022,0.2551,-0.8167,1.9792,2141
19,0.3083,-1.4578,0.0723,0.2288,-0.7384,2.0905,2080
19,0.1589,-1.3276,0.2893,0.1546,-0.5032,2.3033,2036
19,-0.0005,-1.2998,0.3591,0.1795,-0.5131,2.4069,2043
19,-0.0574,-1.4709,0.3247,0.1473,-0.3978,2.3828,2034
19,-0.1726,-1.6021,0.4893,-0.1301,-0.3353,2.451,2059
19,-0.0867,-1.5571,0.5596,-0.501,-0.4193,2.3103,2065
19,0.2837,-1.6575,0.6465,-1.084,-0.6715,2.5778,2058
19,0.7954,-1.5066,0.3435,-1.1331,-1.6934,3.0811,2057
19,0.6943,-1.3,-0.2695,0.0489,-3.6259,3.4014,2049
19,0.9038,-1.2837,-0.0913,0.5577,-4.3635,3.3864,2046
19,0.5342,-0.8418,0.1973,1.1523,-4.3635,4.0725,2043
19,-1.0142,-0.7202,0.1401,1.37,-4.3635,3.6161,2054
19,-2.0,-2.0,-0.0701,1.6053,-1.1793,1.6158,2065
19,-1.4136,-2.0,0.1868,-0.0643,-0.0012,1.0264,2063
19,-0.9663,-1.2866,0.2095,-0.9762,-0.2497,1.121,2052
19,-0.9688,0.0796,-0.0862,-0.797,0.0469,2.5738,2052
19,-0.3535,-0.3291,0.5186,-0.4376,2.4776,2.659,2043
19,-2.0,0.3604,-1.5449,1.6753,2.779,1.4621,2034
19,-2.0,0.3586,0.9412,0.4686,2.8709,0.8174,2076
19,-2.0,-1.2375,0.2854,-0.4207,2.6,0.1321,2068
19,-1.8562,-0.3267,0.6533,-0.0434,3.1797,-0.656,2061
19,-0.0903,-0.4983,0.6531,-0.8102,2.327,-0.3726,2057
19,0.4768,-0.3604,0.3171,-0.9669,0.4844,-0.7882,2046
19,0.0034,0.0403,0.1213,-1.1452,1.1272,-2.385,2039
19,0.0405,-0.0649,-0.0249,-0.8636,1.9222,-2.0695,2044
19,-0.2776,-0.2432,-0.0747,-0.3148,2.3938,-2.1632,2047
19,-0.3757,-0.3018,-0.0295,-0.1306,2.4618,-2.0089,2045
19,-0.562,-0.2932,0.115,-0.1317,2.4304,-2.0502,2053
19,-0.4668,-0.25,0.1736,-0.0595,2.1722,-1.9576,2051
19,-0.2249,-0.2385,0.146,0.1328,1.7226,-1.9964,2053
19,-0.3879,-0.2217,0.0483,0.2248,1.6081,-2.3774,2048
19,-0.4614,-0.2466,0.01,0.2819,1.6354,-2.6263,2049
19,-0.5359,-0.228,0.011,0.3193,1.749,-2.8699,2050
19,-0.6289,-0.2307,0.0039,0.3324,1.9682,-3.157,2052
19,-0.5786,-0.3066,-0.0151,0.3401,2.1799,-3.3338,2049
19,-0.4133,-0.4421,-0.0715,0.454,2.266,-3.2094,2052
19,-0.2654,-0.4277,-0.1147,0.7329,1.9924,-3.0134,2053
19,0.1462,-0.4312,-0.0984,0.9397,0.677,-3.0239,2052
19,-0.0032,-0.5254,-0.1814,0.9095,0.4591,-3.236,2048
19,-0.199,-0.5823,-0.3184,0.8633,0.2988,-3.3616,2054
19,-0.2429,-0.6367,-0.3374,0.8196,0.0963,-3.5424,2051
19,-0.363,-0.6951,-0.3013,0.7934,-0.0804,-3.7035,2073
19,-0.3999,-0.7024,-0.2744,0.7826,-0.3543,-3.8944,2046
19,-0.4573,-0.7979,-0.241,0.7937,-0.6303,-3.9973,2061
19,-0.45,-0.884,-0.2368,0.6054,-0.842,-3.988,2050
19,-0.425,-0.9314,-0.1458,0.1906,-0.9295,-4.0206,2048
19,-0.4832,-1.0129,0.0078,-0.245,-0.8123,-4.0193,2052
19,-0.5315,-1.0237,0.0337,-0.6364,-0.6027,-3.9636,2052
19,-0.5935,-1.0527,-0.03,-0.648,-0.485,-3.8728,2051
19,-0.5881,-0.989,-0.0574,-0.6529,-0.4762,-3.6356,2051
19,-0.5881,-0.9463,-0.0979,-0.8315,-0.6233,-3.423,2055
19,-0.5811,-1.0186,-0.1785,-0.95,-0.754,-3.0859,2053
19,-0.5742,-1.0449,-0.3484,-0.9327,-0.7343,-2.6288,2047
19,-0.8362,-2.0,-0.0664,-1.3909,-1.0846,-3.2126,2046
19,-0.6904,-2.0,-1.1243,-3.2207,-0.0574,-4.3635,2036
19,-0.7295,0.627,-0.9839,-2.0174,1.4139,-0.7219,2048
19,-0.8428,-0.01,0.1121,-0.4337,-1.0472,0.2687,2048
19,-0.8726,-0.6201,0.229,0.9271,-1.3049,0.185,2045
19,-1.2627,-0.9517,-0.5061,0.1341,-0.7375,1.6759,2057
19,-2.0,-1.2297,0.0686,0.2438,-0.7028,2.0724,2054
19,-2.0,-1.0999,0.2922,0.1418,0.147,2.7212,2051
19,-1.8386,-1.1287,1.1584,1.0013,0.2083,3.6933,2054
19,-0.012,-1.3066,1.6802,1.8709,0.0491,3.7488,2057
19,0.9995,-1.3865,0.6272,1.2195,0.8702,2.8717,2056
19,-0.7446,-0.9192,-0.5542,0.6389,2.1647,1.4703,2041
19,0.1594,0.1814,-0.1221,-1.3406,0.7146,1.686,2040
19,-0.0144,-1.051,-0.4106,0.5075,1.3338,3.6478,2075
19,-0.8713,-0.5525,-0.229,0.7723,0.5858,2.9102,2048
19,-0.488,-0.2522,0.0034,-0.0007,0.1225,2.017,2056
19,0.0693,-1.0203,0.3015,0.1439,-1.7104,0.9694,2054
19,-0.8376,-1.1545,0.5637,0.7456,-1.1224,1.9479,2047
19,-1.0532,-1.4077,0.7996,0.1422,-0.3438,1.8218,2050
19,-1.1074,-0.9946,0.4814,0.1613,0.8573,1.8101,2049
19,-1.5334,-0.9146,-0.0112,0.0232,1.5117,1.6812,2051
19,-1.4717,-1.0894,-0.1902,-0.1224,1.6942,0.8993,2050
19,-0.6929,-0.8401,-0.2871,-0.2699,1.193,0.8939,2053
19,-0.167,-0.614,-0.4055,0.0406,0.4544,0.7628,2049
19,-0.5308,-0.8518,-0.4917,0.22,0.2131,0.3991,2061
19,-0.5967,-0.9563,-0.3459,0.3199,0.0702,0.6513,2062
19,-0.6577,-0.8982,-0.155,0.3148,-0.0214,0.59,2046
19,-0.6724,-0.9458,0.0005,0.2346,0.0265,0.2462,2052
19,-0.6692,-0.9839,0.0537,0.2234,0.1289,0.161,2049
19,-0.8135,-1.0017,0.1248,0.1694,0.1093,0.1139,2048
19,-0.8313,-0.9863,0.1445,0.0892,0.0133,-0.09,2058
19,-0.7244,-0.9666,0.1147,-0.0253,-0.0855,-0.2884,2057
19,-0.6733,-0.9631,0.0435,-0.086,-0.1297,-0.4077,2049
19,-0.5347,-0.9739,-0.0413,-0.1019,-0.2228,-0.4691,2050
19,-0.5281,-0.9182,-0.1296,-0.0218,-0.2105,-0.4267,2048
19,-0.5017,-0.9478,-0.2065,-0.0297,-0.2932,-0.5533,2060
19,-0.4592,-0.9543,-0.28,0.036,-0.3366,-0.6187,2054
19,-0.4207,-0.968,-0.2896,0.1372,-0.2551,-0.6546,2052
19,-0.2749,-0.8613,-0.2,0.0824,-0.5518,-0.7439,2058
19,-0.688,-0.7725,-0.2424,0.1362,-0.6059,-0.8091,2052
19,-0.3286,-0.9297,-0.1614,0.189,-0.3392,-0.8405,2057
19,0.0273,-0.9404,-0.1235,0.1362,-0.2691,-0.6962,2031
20,0.0991,-0.9033,-0.0479,0.1562,-0.1997,-0.6923,2033
20,0.198,-0.97,-0.0188,0.1916,-0.1906,-0.6148,2051
20,0.6226,-0.8713,-0.054,0.2361,-0.6476,-0.1677,2048
20,-0.6174,-0.7354,0.0483,0.2995,-0.3702,-0.2627,1991
20,-0.0862,-0.8887,-0.0222,0.3368,-0.0137,-0.2115,1978
20,0.2261,-1.0293,0.0317,0.0442,-0.2506,-0.1268,1988
20,0.1885,-1.0259,0.0215,-0.0405,-0.0768,0.016,2020
20,0.1274,-0.9609,-0.0154,0.0828,-0.3815,0.0762,2105
20,-0.0305,-0.9468,0.0457,-0.0385,-0.4211,0.3368,1983
20,-0.0237,-0.9795,-0.05,0.0206,-0.4698,0.5382,2148
20,-0.0195,-0.9646,0.01,0.1,-0.2274,0.6482,1883
20,-0.1208,-0.9172,-0.0391,0.1173,-0.1404,0.6799,2382
20,-0.1526,-0.9976,-0.1494,0.1149,-0.2132,0.7263,2022
20,-0.2361,-1.1279,-0.1309,0.0666,-0.2144,0.75,1923
20,-0.3723,-1.0942,-0.1248,0.0352,-0.2972,0.5869,1851
20,-0.345,-0.9534,-0.0337,0.0405,-0.2277,0.6478,2030
20,-0.3069,-0.9172,0.019,0.1232,-0.2224,0.7095,1965
20,-0.2261,-0.95,-0.041,0.1666,-0.2662,0.8557,1816
20,-0.1733,-1.0471,-0.1411,0.2025,-0.339,0.952,1909
20,-0.0142,-1.0254,-0.1501,0.2558,-0.3441,1.1082,2962
20,-0.0139,-0.928,-0.1194,0.3486,-0.3611,1.2047,2107
20,0.0046,-0.9976,-0.0271,0.414,-0.3244,1.3367,1987
20,0.1213,-1.1003,-0.0469,0.397,-0.2605,1.4916,2351
20,0.1003,-1.1091,-0.032,0.3928,-0.2581,1.6333,1847
20,0.144,-1.3337,-0.0908,0.3705,-0.2942,1.6175,2151
20,0.0859,-1.311,0.0398,0.3127,-0.2208,1.8792,1903
20,0.0369,-1.3306,0.0913,0.2918,-0.2248,1.8905,2026
20,0.094,-1.302,0.1724,0.2705,-0.0902,2.0419,1998
20,0.1902,-1.3057,0.1394,0.2919,-0.3097,2.0599,2100
20,0.0598,-1.3853,0.1277,0.3591,-0.1587,2.2795,2031
20,-0.019,-1.4399,0.1572,0.3251,-0.2364,2.3665,2050
20,0.0583,-1.5012,0.1682,0.3076,-0.1426,2.3131,2044
20,-0.0898,-1.4526,0.3037,0.2457,0.0229,2.4076,2039
20,-0.0771,-1.3613,0.3098,0.1483,0.0019,2.3939,2027
20,-0.0505,-1.3853,0.3542,0.037,0.1204,2.3357,2051
20,-0.0977,-1.3782,0.2898,-0.0963,0.1278,2.393,2052
20,-0.1809,-1.4517,0.21,-0.3259,-0.0156,2.445,2056
20,0.1396,-1.5059,0.5444,-0.7191,-0.3294,2.3972,2059
20,0.7319,-1.4519,0.3333,-0.8826,-1.1549,2.9244,2056
20,0.7041,-1.4697,0.0393,-0.3131,-2.3942,2.8763,2054
20,1.0662,-1.3682,-0.251,0.516,-4.1137,3.1866,2049
20,1.4438,-0.8372,-0.1033,1.2256,-4.3635,4.1337,2044
20,-0.2495,-0.3904,0.0554,1.6274,-4.3635,4.3634,2048
20,-2.0,-1.3667,-0.4358,1.7435,-1.8265,2.0944,2062
20,-1.6135,-2.0,0.041,0.2161,-1.3543,0.9857,2078
20,-1.4163,-1.8176,0.082,-0.3566,0.192,1.5359,2055
20,-1.4561,-0.2126,0.2236,-0.5695,0.9602,2.6875,2047
20,0.7942,-0.3899,1.0186,0.0154,1.8511,3.6986,2046
20,-1.9602,0.8887,-1.7229,1.702,-0.0553,2.0104,2037
20,-2.0,0.1343,0.189,-0.0278,1.5964,1.4595,2060
20,-2.0,-0.8435,0.3755,-0.2036,1.7361,0.7436,2069
20,-2.0,-0.7668,0.9207,0.1884,1.8749,-0.5979,2065
20,-1.0732,-0.5251,0.6917,-0.4401,1.4708,-0.7199,2060
20,0.7695,-0.4568,0.4678,-1.2619,0.0129,0.0113,2052
20,0.114,-0.1914,0.2214,-1.9286,-0.1759,-2.0631,2037
20,0.3669,-0.1843,0.0715,-1.4081,0.4867,-2.0951,2045
20,-0.1694,-0.3687,-0.0085,-0.8083,0.9777,-2.2047,2047
20,-0.5012,-0.4878,0.0645,-0.6087,1.1563,-2.1754,2047
20,-0.6929,-0.5127,0.2539,-0.6466,1.0033,-2.0217,2047
20,-0.8125,-0.4561,0.333,-0.6034,0.7367,-1.9775,2054
20,-0.8557,-0.3896,0.2869,-0.6078,0.6313,-2.0467,2049
20,-0.739,-0.3428,0.2136,-0.6746,0.7838,-2.2329,2055
20,-0.5605,-0.2571,0.272,-0.8184,0.7654,-2.7308,2051
20,-0.5239,-0.2463,0.272,-0.8534,0.71,-3.259,2045
20,-0.6277,-0.3794,0.1484,-0.6502,1.0449,-3.4395,2050
20,-0.6082,-0.4153,0.0803,-0.5809,1.3286,-3.4174,2064
20,-0.5098,-0.365,0.0413,-0.5273,1.5466,-3.4311,2052
20,0.1821,-0.2908,0.1179,-0.4095,0.5014,-3.2299,2057
20,0.0562,-0.3889,-0.0166,-0.2545,0.6774,-3.6179,2050
20,-0.2617,-0.5015,-0.1636,-0.1694,0.7721,-3.7058,2050
20,-0.344,-0.5376,-0.261,-0.1045,0.6673,-3.6659,2051
20,-0.322,-0.5737,-0.2288,0.0286,0.4697,-3.5339,2048
20,-0.3665,-0.5579,-0.1204,0.094,0.1325,-3.5569,2051
20,-0.4592,-0.5608,-0.105,0.1108,-0.3167,-3.7587,2054
20,-0.499,-0.5981,-0.2002,0.0649,-0.5741,-3.87,2050
20,-0.4421,-0.6646,-0.2903,0.0862,-0.6305,-3.8659,2041
20,-0.3403,-0.7332,-0.2554,0.0988,-0.4821,-3.8242,2053
20,-0.3831,-0.7993,-0.1179,-0.026,-0.2629,-3.8197,2048
20,-0.5085,-0.8977,0.0176,-0.4108,-0.0991,-3.9309,2049
20,-0.6272,-0.9504,0.0605,-0.6265,0.0703,-3.9443,2047
20,-0.7429,-0.8474,0.0156,-0.6501,0.2039,-3.6458,2047
20,-0.8372,-0.7717,-0.0942,-0.4835,0.2382,-3.378,2050
20,-0.876,-0.8264,-0.2397,-0.452,0.2197,-3.1937,2050
20,-0.8354,-0.8289,-0.3923,-0.4794,0.1348,-2.812,2050
20,-0.8782,-0.9839,-0.3918,-0.4464,0.1586,-2.6117,2051
20,-0.3748,-2.0,-1.2107,-3.1533,0.5669,-4.3635,2040
20,-2.0,-0.5779,-1.2761,-2.9767,2.9774,-2.0748,2054
20,-1.6624,1.8176,-0.354,0.3718,1.0484,3.8483,2054
20,-1.3904,-0.1934,0.3311,2.2513,0.2519,-0.326,2055
20,-1.4421,-1.7676,-0.2656,0.8654,0.6313,0.861,2056
20,-2.0,-2.0,-0.2195,0.3737,0.5633,2.6922,2065
20,-2.0,-1.55,1.0642,0.7874,1.4171,3.6958,2053
20,-0.5171,-1.3772,1.9999,1.9622,0.3847,4.2057,2052
20,1.9368,-1.1423,0.9346,1.0966,0.3822,3.6896,2028
20,0.5601,-0.29,-0.4019,0.4542,-0.2135,2.9038,2037
20,-2.0,0.1802,0.5464,-1.5046,3.1082,-3.2041,2046
20,1.9999,-1.0957,-0.9402,0.1972,4.3297,3.5529,2078
20,-0.3467,-0.6123,-0.7676,-0.1786,2.9765,4.3078,2032
20,-1.9326,-1.2532,0.4844,1.2714,-0.3514,2.6695,2056
20,-0.2708,-1.0083,0.687,-0.6757,-0.7801,1.1994,2056
21,-0.7734,-0.9202,0.5332,0.4838,-0.6628,1.0429,2056
21,-1.0222,-1.0273,0.3767,0.3077,-0.2491,1.9044,2051
21,-1.5303,-0.813,-0.0002,0.0738,0.7075,1.6797,2041
21,-0.8762,-0.9932,-0.2229,-0.3382,0.3045,1.3531,2054
21,-0.6663,-1.0491,-0.1694,-0.1253,0.3964,0.9238,2039
21,-0.9175,-0.9949,-0.1802,-0.0119,0.6582,0.7661,2050
21,-0.8181,-0.8542,-0.3176,0.0579,0.4998,0.6173,2050
21,-0.4995,-0.7461,-0.3572,0.1497,0.127,0.4245,2055
21,-0.446,-0.8511,-0.3037,0.2199,-0.0052,0.1812,2041
21,-0.561,-0.9956,-0.1084,0.1623,0.0595,0.1314,2048
21,-0.7288,-0.958,0.0852,0.0619,0.1815,0.0346,2054
21,-0.8103,-0.9995,0.1536,0.0766,0.2008,-0.0621,2051
21,-0.7927,-0.9795,0.1084,-0.0104,0.1354,-0.1618,2051
21,-0.7053,-0.8928,0.0234,-0.0894,0.0762,-0.3603,2047
21,-0.6887,-0.9375,0.012,-0.0997,0.0368,-0.5189,2056
21,-0.6047,-0.9805,-0.0244,-0.1325,0.0009,-0.5434,2051
21,-0.4856,-0.9363,-0.1038,-0.1224,-0.0955,-0.6056,2057
21,-0.4578,-0.9216,-0.1321,-0.0937,-0.2746,-0.6867,2052
21,-0.4709,-0.9045,-0.1265,-0.025,-0.361,-0.6948,2055
21,-0.4009,-0.9451,-0.1355,0.0083,-0.4192,-0.7381,2054
21,-0.4348,-0.8948,-0.165,0.02,-0.4822,-0.793,2055
21,-0.4351,-0.8999,-0.1868,-0.0148,-0.4894,-0.8614,2059
21,-0.3428,-0.8738,-0.1653,0.0257,-0.4819,-0.7977,2058
21,-0.0552,-0.8474,-0.1494,0.0342,-0.557,-0.7098,2057
21,0.0032,-0.8872,-0.0835,0.084,-0.4597,-0.756,2054
21,0.0569,-0.9255,-0.0813,0.0839,-0.3908,-0.6881,2049
21,0.0869,-0.9441,-0.0486,0.1276,-0.3274,-0.5553,2053
21,0.0508,-0.9319,-0.0098,0.0899,-0.3533,-0.4721,2052
21,-0.0117,-0.9451,-0.0557,-0.024,-0.4255,-0.4477,2052
21,0.1389,-0.9236,0.0181,0.0931,-0.1501,-0.2966,2056
21,0.1736,-1.0046,0.0823,0.0405,-0.0517,-0.2019,2057
21,0.1321,-0.9973,0.0457,0.0117,-0.063,-0.1165,2039
21,0.2061,-0.9729,0.0557,-0.0198,-0.1438,0.0967,2049
21,0.0496,-0.9446,0.0881,0.0668,0.1063,0.2562,2033
21,-0.0942,-1.0039,0.0583,0.0361,0.1662,0.3546,2019
21,-0.1555,-1.0454,-0.0674,0.0318,0.2815,0.3195,1938
21,-0.3569,-0.9995,-0.0693,-0.1224,0.6722,0.161,2050
21,-0.2441,-0.9692,-0.1233,-0.1007,0.7007,0.2326,2014
21,-0.1145,-0.9236,-0.0623,0.0238,0.4982,0.3674,1869
21,-0.3145,-0.9824,-0.061,0.07,0.4374,0.4942,2173
21,-0.3477,-1.1306,-0.0684,-0.0298,0.4532,0.5293,2176
21,-0.2058,-1.0334,-0.1082,-0.0587,0.2649,0.5687,2025
21,-0.123,-0.9255,-0.1284,-0.0325,0.2083,0.6352,1934
21,-0.1519,-0.9727,-0.0637,-0.0005,-0.0803,0.7313,2208
21,-0.0789,-0.9849,-0.1558,0.0896,0.0906,0.8412,2020
21,0.0195,-0.9998,-0.2114,0.0808,-0.0887,0.925,2232
21,0.052,-1.0,-0.1797,0.1397,-0.0666,1.0883,2015
21,0.0193,-1.0432,-0.1338,0.1358,-0.1557,1.2137,2209
21,-0.0491,-1.0139,-0.0466,0.1465,-0.1804,1.1576,1834
21,-0.124,-1.0854,-0.0315,0.1402,-0.2361,1.1998,2092
21,-0.165,-1.1431,0.0525,0.0509,-0.1794,1.2533,1136
21,-0.1956,-1.0017,0.135,-0.0823,-0.3414,1.2933,2469
21,-0.2627,-1.061,0.0984,-0.0385,-0.3252,1.3399,2275
21,-0.2153,-1.0864,0.1514,-0.1025,-0.3306,1.4378,2367
21,-0.2354,-1.0618,0.0457,-0.0388,-0.3442,1.4797,2169
21,-0.301,-1.2048,0.0649,-0.0386,-0.1325,1.4585,2281
21,-0.5374,-0.9927,0.0591,0.0039,0.1832,1.6628,1924
21,-0.2847,-1.1128,0.1182,0.037,-0.0936,1.4972,2110
21,-0.2964,-1.291,0.0283,0.0703,-0.2253,1.6704,2224
21,-0.2241,-1.2261,-0.0117,0.0804,-0.2223,1.6749,2374
21,-0.189,-1.1819,-0.0149,0.1597,-0.2203,1.8391,2015
21,0.033,-1.3735,-0.0491,0.1742,-0.2306,1.7733,2356
21,0.1724,-1.449,-0.0845,0.116,-0.2302,1.8992,1800
21,0.165,-1.3303,-0.0173,0.0641,-0.251,1.9599,2128
21,0.1143,-1.2654,0.1067,0.0306,-0.1888,1.9337,2029
21,0.0461,-1.2046,0.1084,0.0426,-0.0798,2.1335,2023
21,0.0872,-1.3005,0.1609,0.0342,0.0467,2.1732,2053
21,0.0254,-1.4077,0.2439,-0.0883,0.2204,2.2507,1985
21,0.0188,-1.4404,0.3181,-0.2169,0.3159,2.2719,2068
21,-0.0925,-1.5024,0.3003,-0.4372,0.1169,2.4756,2056
21,0.1594,-1.5264,0.459,-0.7075,-0.6164,2.7082,2056
21,0.8318,-1.3235,0.3181,-0.6801,-1.9759,3.3592,2050
21,0.8667,-1.4653,0.2151,0.02,-3.382,3.1246,2041
21,1.3667,-0.9199,0.188,1.1188,-4.3635,4.1975,2046
21,0.1482,-1.0203,0.136,1.7772,-4.3635,3.6237,2047
21,-0.7942,-2.0,-0.135,1.317,-3.4465,2.7837,2063
21,-1.1089,-2.0,-0.0715,-0.4848,-2.1776,2.0285,2061
21,-1.189,-1.7776,-0.0889,-1.2608,-1.4731,1.2263,2050
21,-1.7932,-0.5938,-0.0991,-0.9594,-0.4492,1.843,2053
21,-0.8184,-0.8745,0.3967,-0.0015,0.8447,3.2359,2054
21,0.9785,-0.6587,-0.1365,1.1404,-2.6621,2.9279,2048
21,-2.0,0.4414,-0.3352,0.9289,-0.3735,2.3213,2044
21,-2.0,-0.4839,-0.1172,-0.9066,0.8637,1.8768,2067
21,-2.0,-0.6555,0.7148,-0.39,1.4628,0.9351,2062
21,-2.0,-0.8521,1.1567,-0.0213,1.4728,-0.1683,2064
21,-0.8884,-0.4927,0.8159,-0.6377,0.8979,-0.3795,2057
21,0.1038,-0.2725,0.3774,-1.7535,0.4076,-0.1017,2057
21,0.0574,-0.1172,0.0298,-2.1648,-0.4108,-1.9983,2047
21,0.5068,-0.157,0.0369,-1.6383,-0.0306,-2.5919,2042
21,0.0903,-0.4565,0.1731,-1.0074,0.2726,-2.3334,2042
21,-0.3896,-0.5708,0.2097,-0.8135,0.4473,-2.2995,2044
21,-0.7852,-0.5217,0.3013,-0.8681,0.5881,-2.166,2052
21,-0.7461,-0.4136,0.3945,-0.8528,0.7263,-2.0511,2053
21,-0.6113,-0.3406,0.3591,-0.7329,0.7308,-2.0706,2050
21,-0.604,-0.2971,0.2524,-0.7203,0.72,-2.2659,2052
21,-0.7041,-0.283,0.2344,-0.8725,0.9593,-2.7964,2050
21,-0.7039,-0.2659,0.218,-0.9873,1.2358,-3.157,2048
21,-0.6816,-0.2314,0.1855,-0.9511,1.4161,-3.421,2049
21,-0.5132,-0.2473,0.1433,-0.8672,1.3667,-3.6178,2049
21,-0.3496,-0.27,0.0898,-0.6992,1.2736,-3.7644,2048
21,-0.4033,-0.2971,0.0366,-0.5428,1.2969,-4.007,2052
21,-0.3921,-0.3682,-0.0105,-0.4456,1.2465,-4.0446,2055
21,-0.7312,-0.3025,-0.0276,-0.2005,1.3596,-3.9396,2053
21,-0.0107,-0.2715,0.0457,0.0264,0.3233,-3.433,2054
21,-0.1345,-0.3223,-0.019,0.1382,0.2887,-3.8414,2048
21,-0.2683,-0.3926,-0.1521,0.1874,0.1194,-4.1002,2060
21,-0.3628,-0.3921,-0.2131,0.2654,0.2346,-4.1911,2050
21,-0.4539,-0.4207,-0.261,0.4299,0.4506,-4.1678,2050
21,-0.5718,-0.4424,-0.3086,0.6899,0.4437,-4.207,2042
22,-0.6448,-0.5154,-0.3242,0.9665,0.2381,-4.173,2083
22,-0.6323,-0.6401,-0.2751,1.1034,0.0927,-4.152,2048
22,-0.5884,-0.845,-0.0408,0.8052,0.2125,-4.0599,2045
22,-0.5869,-0.9673,0.0608,0.4907,0.3942,-4.0254,2048
22,-0.6213,-0.946,-0.0439,0.4127,0.4586,-3.8297,2050
