,timestamp,node,accx,accy,accz,gyrox,gyroy,gyroz,q0,q1,q2,q3,timestamp,node,accx,accy,accz,gyrox,gyroy,gyroz,q0,q1,q2,q3,timestamp,node,accx,accy,accz,gyrox,gyroy,gyroz,q0,q1,q2,q3,timestamp,node,accx,accy,accz,gyrox,gyroy,gyroz,q0,q1,q2,q3,timestamp,node,accx,accy,accz,gyrox,gyroy,gyroz,q0,q1,q2,q3,timestamp,node,accx,accy,accz,gyrox,gyroy,gyroz,q0,q1,q2,q3,timestamp,node,accx,accy,accz,gyrox,gyroy,gyroz,q0,q1,q2,q3,timestamp,node,accx,accy,accz,gyrox,gyroy,gyroz,q0,q1,q2,q3,timestamp,node,accx,accy,accz,gyrox,gyroy,gyroz,q0,q1,q2,q3
0,0.001,0.0,-2.01e-17,-1.17e-16,1.0,0.013450589,0.008150727,0.028941375,0.9999986442030969,0.0006725285381866487,0.0004065626024323868,0.0014470674425709892,0.001,1.0,-3.44e-17,1.45e-17,1.0,0.005580318,0.012592849,-0.008846024,0.9999996649575226,0.0002790158065178224,0.0006297656480690771,-0.0004423010862433907,0.001,2.0,7.42e-17,-4.31e-17,1.0,-0.002764128,0.021515775,-0.041924659,0.9999972150156659,-0.00013820601509734328,0.0010754960419424456,-0.002096227152064127,0.001,3.0,-2.8e-17,-9.31e-17,1.0,0.00149908,-0.002179082,0.021154763,0.9999994318422907,7.49539574143024e-05,-0.00010903331975713731,0.001057737554980393,0.001,4.0,-1.26e-16,-5.79e-17,1.0,-0.003667316,0.013211282,0.013230868,0.9999995461163491,-0.00018336571677326415,0.0006606851045604786,0.000661543121979341,0.13,5.0,8.95e-18,7.1e-17,1.0,0.04102796,0.034008018,0.008217128,0.9999963672519004,0.002051390547787818,0.0016995518959364037,0.00041085663643568353,0.13,6.0,5.62e-18,5.54e-17,1.0,-0.010378698,0.003942165,-0.041475603,0.9999976958637442,-0.0005189337043032797,0.0001960316414205845,-0.0020737759301820537,0.0,7.0,-8.4e-18,2.7e-17,1.0,-0.000686379,0.009564213,-0.008885104,0.9999997863944098,-3.431894266927908e-05,0.00047819530148279294,-0.00044425510562784513,0.0,8.0,3.42e-17,7.79e-17,1.0,-0.014407287,0.009199293,-0.00505164,0.9999996029389067,-0.0007203640639713398,0.0004597825163699255,-0.0002525820307805259
1,0.102,0.0,-0.000840884,0.001127915,0.979358985,0.019422311,-0.005353821,0.003426501,0.999997345631387,0.0016343674704001373,0.0001423546357897306,0.001617809726048558,0.102,1.0,-0.001935106,0.000389652,0.980590691,0.003055602,0.014774905,-0.026933094,0.9999973238220605,0.00042328412326142896,0.0014046954294784067,-0.00178885718217493,0.102,2.0,-0.00134864,-0.000422814,0.980057653,-0.006107365,0.006068324,-0.037449266,0.9999911256679206,-0.0004525550207325314,0.0013400000672650343,-0.00396839755792028,0.103,3.0,-3.79e-17,-2.7e-17,0.9798704,0.00653322,-0.010860757,0.031367181,0.9999962682887222,0.0003945216474144797,-0.0006414389213773106,0.0026260840446524535,0.103,4.0,-1.1e-16,-2.61e-17,0.979668311,0.000419738,-0.005187616,0.035385348,0.9999969790475879,-0.00014270154927301367,0.00033550206971894253,0.002430837371572781,0.143,5.0,-0.00094157,0.002165629,0.979730281,0.0249439,-0.004199908,-0.00179165,0.9999938803624595,0.003203873654993025,0.001368499145245891,0.0003188123638196465,0.143,6.0,0.000999098,1.94e-05,0.979853051,-0.008370202,0.009216643,-0.017973017,0.9999950192711464,-0.00088388454659345,0.0005863480654292391,-0.0029726044059224205,0.13,7.0,-1.36e-17,2.08e-17,0.978767592,0.017324102,-0.003301481,0.013741267,0.9999995865913563,0.0008355729291998396,0.00026434259833554944,0.00024240046863627777,0.13,8.0,-0.001198841,-0.000999635,0.979702283,-0.012881643,0.010986678,0.004314312,0.9999985721667375,-0.0013431725001001548,0.0010247864046347957,-3.694517900251508e-05
2,0.133,0.0,-0.00135059,0.002614133,0.980087926,0.018722172,-0.00069814,-0.015414445,0.9999964013231748,0.002540231758944998,0.0001658013422716738,0.0008468017630657953,0.134,1.0,-0.002299861,-0.000472267,0.980238485,0.005365359,0.011064935,-0.038581152,0.999991020134569,0.000623621432246755,0.0019355421279956414,-0.003718120923815954,0.134,2.0,-0.00134864,-0.000422814,0.980057653,0.004317248,0.013631844,-0.04056897,0.9999800814558861,-0.00021275161048841127,0.0019551773377454364,-0.005997391917306423,0.134,3.0,0.000181472,0.001362241,0.980204117,0.008494583,0.004827282,-0.004450466,0.9999966913471816,0.0008488177003826075,-0.0003437016813884164,0.0024038869264629615,0.134,4.0,-1.1e-16,-2.61e-17,0.979668311,0.012220648,-0.001994968,-0.015392246,0.9999984832192432,0.00048258443531743215,0.00020406012258824112,0.0016610330948765464,0.241,5.0,-0.00094157,0.002165629,0.979730281,0.018349378,0.006759413,-0.038652206,0.9999897373621013,0.003908694738417464,0.00162554854583737,-0.0016139602977290066,0.241,6.0,2.59e-18,5.55e-17,0.97989081,-0.009329945,0.014350674,-0.008369786,0.9999926786965162,-0.0012601023381301568,0.0012461010597266118,-0.0033914491906242177,0.143,7.0,-0.000480527,0.002012456,0.979615598,0.038043808,0.006051672,-0.06319289,0.9999917815306436,0.0027559864274524226,0.000574207814845899,-0.002917480996777588,0.143,8.0,-0.001258788,-0.001993975,0.979789998,-0.00768018,0.008338702,0.003718682,0.9999975680689247,-0.0016944098382627912,0.0014038122559789355,0.00014880418793354985
3,0.242,0.0,-0.002093853,0.004649169,0.979534584,0.017813623,-0.003892963,-0.036352453,0.9999936979550639,0.003413965013500446,6.861288082284261e-05,-0.0009716919858920732,0.242,1.0,-0.003227544,-0.000103461,0.980296676,0.012800326,0.006619626,-0.041844489,0.9999798971434032,0.0011937783466698403,0.002237715018284831,-0.005811439909762224,0.242,2.0,-0.002234394,2.2e-05,0.980190291,0.015865959,0.001751043,-0.031505286,0.999969219476121,0.0006010480593678011,0.0019573645739718593,-0.007574137935908506,0.242,3.0,0.000181472,0.001362241,0.980204117,0.008969865,-0.015903466,-0.004810977,0.9999962184044238,0.0012839309409631659,-0.0011122044728123072,0.0021627989738941676,0.243,4.0,0.001456704,0.001304282,0.980088862,-0.00103593,-0.02121371,0.012938337,0.9999967832151098,0.0004510853112022475,-0.0009516099140593099,0.002307492155150787,0.293,5.0,-0.000686099,0.004147649,0.979809842,0.020839228,0.00389282,-0.054207905,0.9999778319081082,0.004767370040011675,0.001703535836229291,-0.0043250249612676065,0.293,6.0,2.59e-18,5.55e-17,0.97989081,-0.005769059,0.00693307,-0.005789795,0.9999911358193074,-0.0014217280635878385,0.0014687085623662026,-0.00368101443676016,0.241,7.0,-0.000229269,0.004206879,0.9792672,0.011287316,0.004802906,-0.038755866,0.9999826057098562,0.0032591558067874265,0.000772675959268553,-0.004854807206796823,0.241,8.0,-0.001258788,-0.001993975,0.979789998,-0.005589913,0.008070826,-0.011817897,0.9999965870877356,-0.0019071174076075044,0.0017300246739240395,-0.00044241462674885916
4,0.268,0.0,-0.001665055,0.005914594,0.979998084,0.015134223,-0.017501398,-0.050944396,0.9999850098571991,0.0041300744756869335,-0.0007188642212696897,-0.00352218397507526,0.268,1.0,-0.004075486,0.000613306,0.979420754,0.009620265,0.00284497,-0.050622093,0.9999611418665347,0.0015830739997009834,0.0023652602435357524,-0.00834351111149478,0.268,2.0,-0.002234394,2.2e-05,0.980190291,0.007030823,0.000273279,-0.060549035,0.9999416162705238,0.0008886259910869098,0.0018892778842034986,-0.010602123523938268,0.268,3.0,0.000947886,0.002003477,0.980166357,0.009797868,-0.021288556,-0.019365921,0.9999955267189569,0.0017511117937807287,-0.0021107828976970984,0.0011936268765779334,0.268,4.0,0.000773145,0.00197458,0.980377735,-0.006942655,-0.021294845,0.017879291,0.999992941788719,0.00016124758380596624,-0.0019613267190607725,0.0032005576797438724,0.384,5.0,-0.000686099,0.004147649,0.979809842,-0.002132757,-0.008653998,-0.049582444,0.9999665491456203,0.0043896983293536945,0.0011459343402413866,-0.006805730883942882,0.384,6.0,-0.000999098,-1.94e-05,0.97992857,0.000567593,0.009026073,-0.035803898,0.9999825852794388,-0.0012529456008177398,0.0018217660739721024,-0.005471785224484789,0.293,7.0,-0.000229269,0.004206879,0.9792672,0.010632332,-0.007269423,-0.010065755,0.9999788168015183,0.0036775419817555973,0.0003418783225277427,-0.005359547781321967,0.293,8.0,-0.001258788,-0.001993975,0.979789998,-0.000252309,0.006291278,0.009462791,0.9999964499964641,-0.0018297899287005976,0.0019367389525640588,3.009178882738919e-05
5,0.342,0.0,-0.001138635,0.00808714,0.980052193,0.020026181,-0.017000498,-0.038009932,0.9999710949727829,0.005129487956150752,-0.0014341221065891057,-0.005425943791145158,0.343,1.0,-0.003710732,0.001475226,0.979772961,0.008811148,-0.006631721,-0.042450118,0.9999413697825644,0.0019343704298613728,0.0019863239859040575,-0.010467555848041939,0.343,2.0,-0.001771508,0.000889599,0.980371904,0.00130405,-0.017962524,-0.037638917,0.9999212595451188,0.0008982078809387664,0.000893154154228034,-0.012484799075773807,0.343,3.0,0.001714299,0.002644714,0.980128597,0.013447864,-0.004493762,-0.034469825,0.9999945755483074,0.002387313869159571,-0.0022067625545363137,-0.0005289664244958713,0.343,4.0,0.000773145,0.00197458,0.980377735,0.006755832,0.000569889,-0.060859214,0.9999982420516719,0.0005896209222510458,-0.00177292320326668,0.00015806343366062134,0.418,5.0,-0.004089204,0.000527526,0.980369828,-0.040817791,0.114327848,-0.141661023,0.9998776105002947,0.001969046988984613,0.00698317056907114,-0.0138608153793206,0.418,6.0,-0.000954244,-0.002012416,0.980089812,-0.063789843,-0.021006367,-0.025412332,0.9999673046673299,-0.004427489771928247,0.0006503640939366218,-0.006735277070790439,0.384,7.0,0.000357606,0.005461366,0.978981126,0.063293933,-0.008777643,-0.072761491,0.9999367110623637,0.0067494760002536295,-0.00014333073863608952,-0.008999883321706148,0.384,8.0,-0.002365184,-0.003910225,0.980112298,-0.059409506,0.026597931,-0.011686524,0.999983151830913,-0.004817878027735608,0.0031906763397580016,-0.0005510808630199156
6,0.403,0.0,0.000228669,0.00913177,0.980250253,0.016316063,-0.018958664,-0.0619917,0.9999437258441719,0.005897274429238548,-0.0022389255304441527,-0.008529625528176108,0.403,1.0,-0.003345977,0.002337145,0.980125167,0.00891104,-0.002710026,-0.101704955,0.9998747325733564,0.0022958965465708753,0.0018286276887207167,-0.015553267861867011,0.403,2.0,-0.001308622,0.001757213,0.980553517,0.004883086,-0.015870616,-0.086546092,0.9998580232491242,0.0011291550991916947,7.785617812251533e-05,-0.01681226610338479,0.403,3.0,0.000863927,0.003628337,0.979572401,-0.005393096,0.023013567,-0.032956531,0.9999951120718756,0.002068344568625659,-0.0008760538075993267,-0.002174928235169071,0.403,4.0,-0.000683559,0.000670298,0.979957184,-0.031813583,0.000950427,-0.058755915,0.999994457899045,-0.0010206187375083327,-0.0015164691600386055,-0.002782594090812333,0.502,5.0,-0.015775969,-0.000977565,0.979977124,-0.103577753,0.239896091,0.059926978,0.999752699400953,-0.003257147870026035,0.019163002367442797,-0.010803257310929742,0.503,6.0,0.005416765,-0.021988471,0.979483622,-0.244010969,-0.109563751,-0.245055324,0.9996558313254614,-0.017349020473993507,-0.0052903055221351645,-0.01895370816161981,0.419,7.0,0.001157176,0.013249742,0.979818915,0.144821809,0.030465332,-0.12998408,0.999781100274374,0.01400387355512488,0.0013546670481428822,-0.015485733331131898,0.419,8.0,-0.005956659,-0.011725379,0.980269368,-0.268005915,0.090865624,-0.233557086,0.9997286138723985,-0.018364518656992616,0.007510175731867661,-0.012208207065173195
7,0.463,0.0,0.000326289,0.010038891,0.979840862,0.001277759,-0.01425556,-0.065814663,0.9999090377097657,0.005884779130171338,-0.0027299449387721687,-0.011825103870622909,0.463,1.0,-0.002418294,0.001968339,0.980066976,-0.010375504,-0.065425936,-0.104665746,0.9997814634638906,0.0015894896902910601,-0.0014866632624348426,-0.020791552824871665,0.463,2.0,0.001320062,0.003047363,0.978702698,0.02621166,-0.050630272,-0.106510308,0.9997487060721594,0.0024380208250374498,-0.0025398966312620095,-0.02213887274913179,0.463,3.0,-0.009489365,0.001987467,0.979914283,0.010615014,0.215222997,-0.25724426,0.9998291179654276,0.0025290207655453327,0.010486214051409079,-0.015012602616160525,0.464,4.0,-0.002781676,0.003035328,0.979889815,0.131231032,0.071007302,0.02492978,0.9999793257764936,0.005806147732599611,0.0023015212316477413,-0.001529597370807164,0.569,5.0,-0.026301041,-0.008657996,0.978866331,0.050112908,-0.060741565,0.066770282,0.9998508313195108,-0.0008224854498134086,0.015533230184940575,-0.007507155745669312,0.569,6.0,0.009615,-0.03087918,0.980058176,-0.108123746,0.072180287,-0.484914331,0.9988108080324392,-0.022395690652687147,-0.002055909966744674,-0.04325709227379532,0.503,7.0,-0.00066582,0.019021937,0.980417627,0.100857291,-0.046276689,0.209577509,0.9998134956826461,0.018593185285746206,-0.0013482945607220865,-0.00504474117817853,0.503,8.0,-0.01796758,-0.048330443,0.978925091,-0.684033582,0.293745439,-1.152952714,0.9959512181943314,-0.053253877566072534,0.01966214745552873,-0.06970362586581909
8,0.552,0.0,0.002632098,0.010862728,0.979773481,0.008961129,-0.044518343,-0.235061023,0.9996906357884356,0.006302265099634877,-0.004754104686866882,-0.023586281185335106,0.553,1.0,0.002466441,0.003426832,0.97995672,0.005671359,-0.077325512,-0.355296501,0.9992411083297316,0.001831848225191862,-0.0053039078412569505,-0.03854504271188645,0.553,2.0,0.00136008,0.005227389,0.979198562,0.014719932,-0.011767035,-0.37147571,0.9991622412221773,0.003228627256501406,-0.00290509755492437,-0.040693391233836515,0.553,3.0,-0.019829102,0.004958556,0.97940197,0.015154218,0.173543343,-0.239675376,0.9994473171784837,0.003305995339868132,0.019145304044348086,-0.026973837557787938,0.553,4.0,-0.005481705,0.013745261,0.979805092,0.170599005,-0.053988028,0.234722399,0.9998433120791224,0.01447816762126204,-0.0005321946391730544,0.010171072797280762,0.619,5.0,-0.026626416,-0.003588306,0.979304936,0.275062024,-0.177231459,0.276505091,0.9998778031623707,0.012986636888685236,0.0061935512715757274,0.006112767634988126,0.619,6.0,0.007594377,-0.029921549,0.980053073,-0.020153807,0.127880104,-0.342655215,0.9979098912142955,-0.022388239317636456,0.0038698993144188586,-0.060494955460972305,0.569,7.0,0.000718805,0.039662292,0.979388782,0.482622304,0.200263418,-0.628845226,0.9983708961123942,0.04292591845505125,0.009965631634957315,-0.036243696095204385,0.569,8.0,-0.038622261,-0.075490017,0.976142704,-0.354547363,0.300462148,0.254691804,0.9953501776661801,-0.06797015050941331,0.03698023593246952,-0.05736326882256767
9,0.644,0.0,0.006093255,0.00725819,0.979939891,-0.059829972,-0.057784332,-0.262100805,0.9992940676666509,0.0030392119137747217,-0.007374635513307544,-0.036711636686863655,0.644,1.0,0.011180342,0.000969494,0.979785211,-0.085140448,-0.092098677,-0.494671225,0.9979461051830665,-0.002618859780703823,-0.009839943740252502,-0.06324466958238852,0.644,2.0,0.006280314,0.001246456,0.980169885,-0.134834044,-0.219415366,-0.361989987,0.998167357358961,-0.004167378477870122,-0.013688311649372792,-0.0587978722730696,0.645,3.0,-0.041288545,0.005647539,0.9792693,0.033648502,0.373698321,-0.190750354,0.9985987587150247,0.005320942833872331,0.037988589337468306,-0.03645646362882422,0.645,4.0,-0.001763592,0.028033722,0.97968056,0.287565507,-0.187494903,0.519194615,0.9988813088272516,0.028896357821201257,-0.010342538134771059,0.03597448102692865,0.668,5.0,-0.015637822,0.017158865,0.980202546,0.327173877,-0.119170367,0.549339649,0.9990190691963936,0.02910092332556603,-0.0002782523850329432,0.03337601263154469,0.669,6.0,0.002607682,-0.032093083,0.979407083,-0.078623878,0.02598219,-0.074800323,0.9975923849172973,-0.025649799144377053,0.004887211859397237,-0.06424668488811865,0.669,7.0,-0.021409895,0.056164727,0.978393653,0.233504471,0.161985575,-1.105208568,0.9942431199971709,0.05282589330825836,0.02049042506766563,-0.09094056198981013,0.669,8.0,-0.057266285,-0.090634488,0.974131389,-0.230845146,0.204578849,-0.188577945,0.9937009305800979,-0.07685923830965766,0.046567510147849545,-0.06695211011862812
10,0.703,0.0,0.008399063,0.008082026,0.97987251,0.042162389,0.012099923,-0.250903469,0.9987524496523191,0.005351568538442621,-0.006486154773110247,-0.04922230006744269,0.703,1.0,0.007213837,-0.009041544,0.979999597,-0.246960535,0.164715123,-0.970922899,0.993660371825403,-0.01410863977969547,-0.000905626175575885,-0.1115311238560733,0.703,2.0,0.014109166,-0.018905973,0.979402622,-0.472868806,0.104322323,-1.328583332,0.991772496612884,-0.02697786351355262,-0.008183889206591997,-0.12487006767014046,0.704,3.0,-0.054108995,0.005332678,0.97853655,-0.010430008,0.043011977,-0.202329652,0.998140390057713,0.004335000359610244,0.0391478261327799,-0.04652329756580135,0.704,4.0,-0.010926556,0.033842688,0.979136499,0.02331168,0.279739865,0.047702102,0.9988338995495906,0.028346818857500736,0.005256234626531875,0.03872558545418263,0.729,5.0,-0.003975993,0.029817645,0.979332476,-0.015552033,-0.086274464,-0.130505405,0.9992675881997066,0.027072958725191585,-0.004156750963219878,0.026721966634871756,0.729,6.0,-0.001222927,-0.041220634,0.979287682,-0.157328619,0.047543892,-0.126281518,0.9969380654230509,-0.0328992775664196,0.007263465855093431,-0.07056467466037539,0.73,7.0,-0.010103484,0.061277061,0.978564276,-0.198014269,-0.183063862,0.895843615,0.9980515874261162,0.04084325787354917,0.008577946257917926,-0.04638184947240345,0.73,8.0,-0.066345044,-0.11147497,0.971089937,-0.143826155,-0.01877982,0.558348806,0.9948696571198772,-0.08052188528984179,0.04745496157550053,-0.03871198720571419
11,0.734,0.0,0.004411487,0.00951402,0.97965199,0.015648947,0.0604114,-0.261874688,0.9980351104492785,0.006304365724908333,-0.0030273478717094938,-0.06226562814400026,0.734,1.0,-0.000885755,-0.032018184,0.979313561,-0.416069913,0.044526445,-1.012566403,0.9862932086835887,-0.03451912414075791,0.0021764012344971575,-0.16133629427643487,0.734,2.0,0.007983012,-0.046556442,0.978442522,-0.502587935,0.09198223,-0.827737592,0.9848682550849327,-0.0504977101569908,-0.0018945271579576387,-0.16577367752966157,0.735,3.0,-0.054875409,0.004691441,0.97857431,-0.044793966,0.091809303,-0.04341012,0.9979033911304366,0.002164566904737128,0.04270931134534784,-0.04858035966207115,0.735,4.0,-0.026591955,0.030075097,0.978503631,-0.111174028,0.247172041,-0.277734033,0.999292234821606,0.020882500136118774,0.018570010175722174,0.025181448238310308,0.789,5.0,-0.012004182,0.033914697,0.978459347,0.042108935,0.140658918,-0.48914955,0.9995913968269232,0.028090403633824496,0.004692673142224468,0.0024387357522860993,0.789,6.0,-0.004968666,-0.057486423,0.977740571,-0.297350024,0.063382572,-0.092892855,0.9959952910510848,-0.04713465082871299,0.010983435831680011,-0.07517359265494492,0.789,7.0,-0.015431157,0.048781563,0.979255962,-0.127996058,0.27370616,-0.800495518,0.9955000833752471,0.033168787565482395,0.02363146594689411,-0.0855626632855287,0.79,8.0,-0.064229858,-0.120796777,0.969468238,-0.441934405,-0.042569,-0.01455573,0.9931814880059526,-0.10057406993874005,0.04489779660751979,-0.03820440024432828
12,0.809,0.0,0.000228669,0.00913177,0.980250253,-0.117463837,0.07520979,-0.367406654,0.9967489945782251,0.0005726980106790185,0.0013593938668480148,-0.0805559797445255,0.809,1.0,0.002511604,-0.058558581,0.978281444,-0.335370434,4.97e-05,-0.643886743,0.9799441927668716,-0.05052154288413886,0.003391802126004056,-0.19273154501904605,0.809,2.0,0.008902872,-0.079945335,0.975925449,-0.455110491,0.017144461,-0.441307106,0.9796764320833156,-0.07164383965709825,0.0015518892430819078,-0.18734684491463974,0.809,3.0,-0.065006704,-0.000394915,0.977877279,-0.15738134,0.201792629,-0.114204694,0.9971671255881882,-0.005511297890767507,0.05216288719074041,-0.05391087498525784,0.81,4.0,-0.040153945,0.020589324,0.978807816,-0.170281052,0.22463563,-0.184049916,0.9993607775195629,0.01082840754373213,0.02989481014988823,0.016342651916488662,0.834,5.0,-0.019566395,0.037873811,0.979526279,-0.002839898,0.127455797,-0.454642492,0.9993600577656994,0.026939372308263255,0.01220506227542924,-0.020119185297312922,0.835,6.0,-0.008481341,-0.085791517,0.976164885,-0.450733846,0.022811907,0.015505594,0.9947590954478907,-0.06907111659397921,0.013526451943358941,-0.07416574663535365,0.835,7.0,-0.032905193,0.039322313,0.978830937,-0.071466379,0.147732742,-1.027679539,0.9898096502177922,0.027839900882018282,0.03179145054319304,-0.13598198383231,0.835,8.0,-0.061073383,-0.143267594,0.967707827,-0.362278352,-0.054988016,-0.088959989,0.9915247855052,-0.11598666842472907,0.04126066690023962,-0.04151204455993977
13,0.868,0.0,-0.003134868,0.01364343,0.979674451,-0.062269355,0.138700377,-0.45059972,0.9946518365074006,-0.0013481427580262504,0.008444735013437395,-0.10293003980428518,0.868,1.0,-0.000693798,-0.071892989,0.977322831,-0.154867598,0.16626213,-0.655314038,0.9727608310869795,-0.05508985567204392,0.011561703989761061,-0.22487285364368814,0.868,2.0,0.005142606,-0.096273134,0.97541224,-0.246079141,0.180414457,-0.63639873,0.9724558115792743,-0.07966300017531444,0.010594799673108385,-0.21879499799732546,0.868,3.0,-0.07933301,-0.011411936,0.976701613,-0.274873109,0.298059619,0.027941786,0.9962644862360781,-0.01813891063745989,0.06662847027214362,-0.051852679148176296,0.869,4.0,-0.057399841,0.004843831,0.977996317,-0.294107347,0.273377861,-0.088082385,0.998974254101245,-0.005101535302010966,0.04322452908948154,0.0124921601581127,0.916,5.0,-0.024190252,0.0389886465,0.979169785,0.023047288,0.105083353,-0.5968549495,0.9982253205736314,0.02713965076498143,0.018204410447269614,-0.049782006410879064,0.917,6.0,-0.0132105675,-0.103612173,0.9742784505,-0.464505968,0.1646546695,0.142405437,0.9934055460474945,-0.08974293399846692,0.023776692011656754,-0.06727775112478779,0.917,7.0,-0.0307658605,0.034779917,0.979030678,-0.149003665,-0.0579923755,-0.6155041065,0.9855307205405877,0.01830279939713721,0.028639245903071937,-0.16605420801377316,0.917,8.0,-0.055025921,-0.154331772,0.9661228455,-0.2928859415,-0.1032827055,-0.4457430545,0.98929461179164,-0.1277731235976618,0.03292223856673155,-0.062340405628132006
14,0.944,0.0,-0.019080285,0.009690814,0.979327336,-0.114816117,0.309008479,-0.461781197,0.9917541395671725,-0.004921334623750948,0.024314646687125862,-0.12573108236780084,0.944,1.0,-0.010265095,-0.076902622,0.97678074,-0.229447224,0.093742015,-0.598822748,0.965017810155402,-0.06364330575716022,0.016986718448603885,-0.25377471724251993,0.945,2.0,-0.003537894,-0.108619999,0.973927707,-0.21556394,0.231240093,-0.710961946,0.9632853730804812,-0.08527865666500963,0.021376111730099095,-0.2536767679033928,0.945,3.0,-0.086566706,-0.029327233,0.975855583,-0.34361262,-0.057750877,-0.12969084,0.995801842784286,-0.03527893980764203,0.062237287370039564,-0.057101719538802234,0.945,4.0,-0.078242703,-0.012839928,0.97663259,-0.421238342,0.649486854,-0.668924551,0.9966566721180847,-0.02813042262561049,0.07399836957822112,-0.020208872931812744,0.998,5.0,-0.028814109,0.040103482,0.978813291,0.048934474,0.082710909,-0.739067407,0.9955857495941902,0.028495421608516827,0.022788134652847354,-0.08647385195173866,0.998,6.0,-0.017939794,-0.121432829,0.972392016,-0.47827809,0.306497432,0.26930528,0.9916640261143905,-0.10923612429537373,0.04100332330230896,-0.05466860102187577,0.998,7.0,-0.028626528,0.030237521,0.979230419,-0.226540951,-0.263717493,-0.203328674,0.9842757296685255,0.004603419146919603,0.015906207363837195,-0.1758609936425585,0.998,8.0,-0.048978459,-0.16539595,0.964537864,-0.223493531,-0.151577395,-0.80252612,0.985389093727735,-0.1360307692537192,0.02040556272234484,-0.1004369294067629
15,1.034,0.0,-0.042155083,-0.002206319,0.979218097,-0.298526008,0.424116389,-0.093220438,0.990275894884569,-0.016499196723763612,0.046823078000115266,-0.12995779270452262,1.034,1.0,-0.0015772,-0.097986078,0.973950841,-0.274690228,-0.188462444,0.318525286,0.9682339293154247,-0.07750557738249877,0.012232577092172868,-0.2374158959604484,1.034,2.0,-0.003749424,-0.124324709,0.972405424,-0.235914431,-0.021041494,-0.691665513,0.9532349017954399,-0.09507894628629493,0.019727364975118632,-0.2862063015435969,1.034,3.0,-0.075658629,-0.064265487,0.974701349,-0.581054568,-0.195742702,0.334163256,0.995856132953108,-0.06323644303138808,0.05299048426608563,-0.03825863705969456,1.035,4.0,-0.1044817,-0.0544052,0.972911943,-0.847196756,0.104723539,0.591954056,0.9944147515116593,-0.06777840119530822,0.07996097919477232,0.012313899204799672,1.013,5.0,-0.032512147,0.073954137,0.97695381,0.931702138,0.067154556,-1.295138739,0.9854143277255872,0.07417173203663398,0.025866223521876532,-0.1509572633579821,1.013,6.0,-0.052551159,-0.154814619,0.966333177,-0.526426804,0.54714694,-0.044228187,0.9873448295880949,-0.1306198145844539,0.06816719268171004,-0.05866758360009075,1.013,7.0,-0.007552251,-0.024987272,0.979542036,-1.144173089,-0.282558675,-0.200281201,0.9812936197227665,-0.055824919635356116,0.0105131103370289,-0.1839453308734367,1.013,8.0,-0.034730692,-0.184686148,0.960811015,-0.389859998,-0.144847678,-0.579277384,0.9800687274950874,-0.1520722896814532,0.01152715490522046,-0.1273044885186357
16,1.064,0.0,-0.057309757,-0.018263141,0.976665782,-0.152945431,0.053867003,0.050912857,0.9904287039493973,-0.022499323422510716,0.048885840244681976,-0.12710207497211823,1.064,1.0,-0.006176921,-0.098930613,0.975347415,0.291685784,0.191066195,0.685751545,0.9769383842870093,-0.057580587006044896,0.02036163013121411,-0.20460027694293792,1.065,2.0,-0.014955692,-0.123992519,0.971849362,0.418070841,0.778403172,-1.240932817,0.9346975537963981,-0.061830893133860775,0.04679325515409761,-0.3468829987955339,1.065,3.0,-0.067496694,-0.102227073,0.972399003,-0.858379967,-0.306373423,1.812061303,0.9923443978093511,-0.10007176997505586,0.04656662820826223,0.05540565068447043,1.065,4.0,-0.117294454,-0.132400243,0.964332508,-1.591611478,0.158387011,0.612737989,0.9844557212539937,-0.14359172507355403,0.08881601496381672,0.04837421696138145,1.139,5.0,-0.048004653,0.120564358,0.971618129,0.422475493,0.246814318,-0.129984858,0.9823845627015194,0.09564651777195614,0.03432727783205511,-0.15682459182310723,1.139,6.0,-0.110861655,-0.233058437,0.945722718,-1.57874603,0.923833027,-1.144182793,0.9660969064036568,-0.2060463311720767,0.10488688267336706,-0.11489307503446014,1.139,7.0,-0.032490253,-0.09599556,0.973548785,-1.598809804,1.185159792,-3.760953327,0.9246680078884394,-0.11896295577267693,0.058589355884451105,-0.35693721817498697,1.139,8.0,0.011968819,-0.233591794,0.951356201,-0.703964747,-0.550151169,-1.842713228,0.9591570192767916,-0.1865015358538029,-0.027854242860249397,-0.21085333919792557
17,1.167,0.0,-0.05677356,-0.035451772,0.977789821,-0.426422408,-0.008304178,0.311356718,0.991720361585859,-0.04210365078506425,0.05003764101148944,-0.11051805955855125,1.167,1.0,-0.026403695,-0.041896409,0.978808222,1.245355145,0.502469693,-0.088240012,0.9770789583437927,0.012365329927578229,0.0319207279636715,-0.21010681784240268,1.167,2.0,-0.095925145,-0.076266303,0.972244217,1.226027073,1.794473418,-1.325271485,0.9056453666831754,0.026029263290368847,0.10950113954819565,-0.40882569353638265,1.168,3.0,-0.075058761,-0.162299376,0.964024426,-1.201506706,-0.147406583,2.37272434,0.9717312884483508,-0.15022783271310883,0.05226538691043243,0.17446555723102775,1.168,4.0,-0.137481875,-0.231685574,0.942701718,-2.235862483,0.100763106,1.876749632,0.9536992871159742,-0.23864480560505297,0.10739508345923283,0.14823165168409078,1.149,5.0,-0.098395164,0.150606875,0.963177533,1.217709022,0.655130543,0.061055838,0.9739285360197666,0.15883742682076835,0.0564755891152368,-0.15180377597885453,1.149,6.0,-0.08366174,-0.24249873,0.945509429,0.993573533,-0.012630018,-1.649146067,0.964167800596026,-0.15719556959600384,0.08045775693953966,-0.19798119744427167,1.149,7.0,-0.047667669,-0.180951006,0.961374291,-0.594574908,0.384654473,-1.969094553,0.8824937548101749,-0.13978802113838967,0.07189800230426104,-0.4432772937247165,1.149,8.0,0.071860849,-0.238543366,0.947557957,-0.440713832,-0.501934126,-1.651455838,0.9350153870873252,-0.20378401805100416,-0.061708440520418545,-0.28356722001223156
18,1.243,0.0,-0.051594979,-0.064720663,0.975237506,-0.609008172,-0.174083414,0.534856729,0.9931304138468866,-0.07071807070371564,0.044587714404256025,-0.08187106505024076,1.243,1.0,-0.060640535,0.051328162,0.97635503,1.493525468,0.628962821,0.648964828,0.9785164725701913,0.09498931280544033,0.043141405788005585,-0.17782396483088259,1.243,2.0,-0.194341093,0.016633636,0.960979116,1.468649652,1.093017284,0.747170383,0.9105320498865129,0.12142592595352023,0.12220132346998122,-0.3758376872773406,1.243,3.0,-0.096670915,-0.21838635,0.950018493,-0.926932738,-0.255466258,2.412954513,0.937988688722948,-0.18112841576625555,0.051512582063450496,0.29106042451519787,1.243,4.0,-0.173530225,-0.355893374,0.896366648,-2.364869313,-0.147329772,2.267990033,0.9005255909137356,-0.3253314898031827,0.11474953452304082,0.2646613424334096,1.179,5.0,-0.160548039,0.193570195,0.947140912,0.193739792,0.92190762,-2.173733176,0.947795053183014,0.16326100591679754,0.11702124632897072,-0.24766188446439896,1.179,6.0,-0.136982856,-0.084435732,0.96665056,3.129700944,1.368162888,-1.562284175,0.9515962700410482,0.014230409450358576,0.11417086243902093,-0.28500359376816564,1.179,7.0,-0.023007996,-0.197847477,0.958842536,-0.00620576,-0.03502968,-2.575615837,0.8228864498807313,-0.14439243940120608,0.050074344280987726,-0.5472670957505896,1.179,8.0,0.125808416,-0.256753443,0.937605414,-0.508758356,-0.334260883,-1.737239371,0.9028366639424169,-0.21987991188287853,-0.08494432891664494,-0.359615410649496
19,1.273,0.0,-0.042938528,-0.093935329,0.973634653,-0.660192465,-0.34979139,0.730173544,0.9934921375391087,-0.10076091940910538,0.031656722426522316,-0.04264342496815539,1.273,1.0,-0.075243652,0.135245077,0.967828581,1.117191752,0.068741563,0.653480047,0.977354562679557,0.1494306836184768,0.029862356268624244,-0.14682223701079003,1.273,2.0,-0.240600254,0.11667901,0.942324003,1.183773561,0.524112919,1.361825923,0.9236942260336312,0.192006551215434,0.10770664443273925,-0.31356297585576887,1.273,3.0,-0.102908457,-0.250475129,0.940563161,-0.7093458,-0.465375481,1.850272504,0.9034129793661808,-0.196920485251246,0.034548910340006976,0.3793068467553053,1.273,4.0,-0.231039423,-0.44955635,0.839148302,-1.736787365,-0.167853529,1.841863296,0.8474853259011432,-0.3786192252051404,0.11327240107797652,0.35438039991134124,1.303,5.0,-0.231629363,0.120174586,0.942500879,-0.203541044,0.301539749,-0.198301115,0.9462484852090769,0.14899929722244515,0.13352919827892828,-0.2541317903642352,1.303,6.0,-0.222054403,0.041948703,0.952374479,-0.911420196,0.897913308,-3.232696599,0.8926208347400195,-0.02855068700802409,0.16038585553891493,-0.4203442410720657,1.303,7.0,0.02204926,-0.233296395,0.951756073,-0.715605743,0.157648566,-3.167092519,0.7292258686278688,-0.1701607445067839,0.04870021165661656,-0.6609865678948613,1.304,8.0,0.171795814,-0.29542088,0.91831841,-0.935005481,-0.29141076,-2.052185217,0.8527786149951181,-0.25113363504950786,-0.10065390099261873,-0.44673182488915747
20,1.333,0.0,-0.020675895,-0.127338744,0.970880194,-0.375014005,-0.453153046,0.838158407,0.9932455976946479,-0.1152938607701297,0.012919425797988401,0.0018965141628253068,1.333,1.0,-0.077943136,0.184073164,0.959023429,0.77402384,0.22014288,-0.021201807,0.9712902954866517,0.18356964412497656,0.034626568125127676,-0.14730359272318538,1.333,2.0,-0.26523565,0.180713901,0.924956505,0.982384677,0.733887619,0.085893623,0.9117116767886075,0.2427784881537229,0.12388398407504454,-0.3073974342553829,1.333,3.0,-0.128793629,-0.276243112,0.930973117,-0.592680357,-0.11706745,2.21539113,0.8533819051965945,-0.2116295401320862,0.03907879225042014,0.47478954245303373,1.333,4.0,-0.276599486,-0.485867391,0.805210285,-1.207757663,-0.586968976,2.419808837,0.785458695211253,-0.3924954517667518,0.10934604035577426,0.46588131741674566,1.327,5.0,-0.316243771,0.074285984,0.924510935,0.704033489,1.332186723,-0.708616306,0.9211333869415352,0.1866375287492782,0.19370827856584227,-0.28134821687552297,1.327,6.0,-0.283839327,0.134919051,0.927938083,1.956746019,0.769147017,2.712542994,0.9390124398337757,0.11678316266450028,0.1326697220373788,-0.2949848735274765,1.328,7.0,0.081369289,-0.250959239,0.943561073,-0.037420022,-0.949983866,-1.226912046,0.6913045626889808,-0.20132700863451652,0.00529448338283081,-0.6939289629676683,1.328,8.0,0.25516768,-0.326291583,0.887559157,-0.862794103,-0.824485377,-0.58412965,0.8260167830071604,-0.298279633737452,-0.11828540458224233,-0.46339410586537305
21,1.442,0.0,-0.003706177,-0.136039153,0.970304392,-0.027539193,-0.399716136,0.77296757,0.9928527145279985,-0.11146232802705906,-0.0037379723612723016,0.04249310823885926,1.442,1.0,-0.049591647,0.204165236,0.957152143,-0.054383444,-0.875279533,0.352412683,0.9761715982849413,0.16728711017927367,-0.013175012580958496,-0.13758798099101005,1.442,2.0,-0.260149532,0.246399312,0.912050766,0.609662998,-0.28061645,0.933193515,0.9214827372302401,0.26426378292196057,0.08542514700364551,-0.27154513857155477,1.442,3.0,-0.138830316,-0.286332964,0.92667663,-0.17022094,-0.747670916,1.467845046,0.8182770570373322,-0.19307660711325375,0.014130970917308758,0.5412433809044606,1.442,4.0,-0.317118629,-0.484628427,0.789536613,-0.567117555,-0.829308939,1.813075745,0.7401238098152406,-0.3758112413745469,0.09136213927512755,0.5501232739197347,1.407,5.0,-0.328281639,0.0699691,0.919879063,-0.365283039,-0.254017482,-0.146235035,0.9268503996749885,0.15474464678130617,0.18390492241693468,-0.28841187636029136,1.407,6.0,-0.266954076,0.256065795,0.907386814,0.570798333,-0.113619907,-0.264235246,0.9322585942073977,0.14494829081108904,0.11696641189210863,-0.3101657057227254,1.407,7.0,0.142004054,-0.233758221,0.940636988,0.513693177,-0.387247151,0.038379078,0.6992592603020753,-0.19042142150870195,-0.022912282334358443,-0.6886589841355665,1.407,8.0,0.341590421,-0.375055537,0.838455323,-1.196244948,-1.577813928,0.310561397,0.8067309941349979,-0.38067717163324455,-0.14267041343469475,-0.4288532933645774
22,1.472,0.0,0.025300061,-0.111380545,0.973235471,0.206797964,-0.267000661,0.867120629,0.9915783124611622,-0.09519753576390787,-0.0135505502125131,0.08675403178003455,1.472,1.0,0.021179879,0.186214403,0.961859454,-0.639750944,-1.224486373,0.614994578,0.983227202812683,0.11912558437098829,-0.0736630041723786,-0.11682090829007184,1.473,2.0,-0.185614216,0.260002344,0.92689813,-0.573513774,-1.431933385,0.5365025,0.9423670590191613,0.2085160324240709,0.016618603230226518,-0.26113064225474747,1.474,3.0,-0.109506036,-0.277297795,0.93377961,0.109739475,-0.754899697,0.269834201,0.8134147995511202,-0.16375065202173306,-0.0157832222987085,0.557936356341418,1.474,4.0,-0.303312588,-0.468142489,0.804722365,0.305854469,-0.953418529,0.398464235,0.7439240724447668,-0.3288177502643924,0.061192082265425544,0.5785424708837531,1.468,5.0,-0.238233029,0.080464283,0.947448955,-0.317819159,-2.053854939,2.279408817,0.9727167499386828,0.12110703602399474,0.06445478853124247,-0.18708498189219105,1.468,6.0,-0.228838805,0.196692073,0.931942611,-1.715041914,-1.197370989,0.370214897,0.9536475437170459,0.045031526510092644,0.08134340402000358,-0.2862023315856357,1.469,7.0,0.099591069,-0.179659396,0.958028246,1.399577572,1.45441403,2.252486884,0.7930112321095549,-0.07832304767605856,0.0011834914280171077,-0.6041500519729013,1.472,8.0,0.379006742,-0.514444236,0.743183031,-3.153099335,-2.030522026,3.752337099,0.7966586763212757,-0.5620836468985544,-0.03974647156209962,-0.2186713180314627
23,1.552,0.0,0.045840382,-0.109439019,0.972664773,-0.068014749,-0.469828038,0.056301534,0.9907687932465713,-0.09240892922442787,-0.03830959888491929,0.09148859361474629,1.552,1.0,0.072688905,0.1192363,0.970211331,-1.140604213,-0.393145603,0.579417514,0.9906119740714359,0.051636190331088426,-0.08484655281798657,-0.09392913897874865,1.552,2.0,-0.064282538,0.176385381,0.962052469,-1.83597117,-1.937461459,-0.023553149,0.9567547239800466,0.08259140788314275,-0.053311405930527925,-0.273782671992688,1.553,3.0,-0.056043667,-0.251700863,0.944054439,0.771758329,-0.3857066,-1.401093403,0.8582843062066868,-0.11452680897869848,-0.022296066125004444,0.49973447467611476,1.554,4.0,-0.209046069,-0.405129954,0.8677243,2.036062041,-1.220940772,-1.170125498,0.818148969806083,-0.20427713903151795,0.04802571732280704,0.5353472183078689,1.582,5.0,-0.097656741,0.11094717,0.968427533,0.264491896,-1.492104036,1.854541819,0.9870572069270157,0.11975757947920952,-0.02585640549990787,-0.1034777208163355,1.582,6.0,-0.11970708,0.06481749,0.970895931,-1.033800144,-1.089032492,3.225693308,0.992073882904654,-0.008853000913317425,0.038834936402970754,-0.11917584884484289,1.583,7.0,-0.08875088,-0.101364017,0.970917925,1.071934863,2.897485837,3.710394164,0.8982885251056194,0.06385930276868612,0.09490136326460355,-0.4242563451075163,1.583,8.0,0.328459431,-0.861640731,0.329778189,-5.592424025,-3.205108999,1.331479714,0.6360993443024144,-0.7687865968782349,-0.030884197155637064,-0.058231941445159155
24,1.617,0.0,0.056773922,-0.091401385,0.973714285,0.541630387,-0.03103764,0.334506717,0.9915153975175173,-0.0611578810759106,-0.035803595355214775,0.10897262329422258,1.617,1.0,0.113358692,0.039449599,0.972866659,-1.34171604,-0.458012688,0.633750351,0.9925849592436335,-0.023622012686068776,-0.09774567907938891,-0.06828529432669143,1.617,2.0,0.035482027,0.069272268,0.977212044,-1.260439492,-1.322873916,0.895617815,0.9669994820627543,-0.0045133753295704595,-0.09703657557764399,-0.23553244815452387,1.618,3.0,-0.032169891,-0.180891857,0.96265894,1.461469816,0.145374503,-2.963938775,0.9334934979221332,-0.04297539153067194,0.013382074766481681,0.35575823972865345,1.618,4.0,-0.100423155,-0.258496641,0.940289677,3.007760431,-0.764504117,-2.73514233,0.9155504989831298,-0.04417353005339727,0.0779737657899904,0.39209192149659416,1.612,5.0,-0.011588079,0.056084137,0.97787386,-1.626830615,-0.464719759,2.598846739,0.9986617643249839,0.022313537798673753,-0.04049795045845699,0.023166840848117272,1.613,6.0,-0.049709084,-0.020311874,0.978330432,-1.800071054,-0.916592801,1.874837833,0.994742666216991,-0.0999426708281062,0.011627141339333583,-0.019060433875765594,1.613,7.0,-0.243471712,0.073638142,0.945526811,2.812525916,2.415345531,2.608159423,0.9176233592728001,0.2568080160644226,0.11219297957013882,-0.2818328382873991,1.613,8.0,0.320820401,-0.892696337,0.246122977,2.159182211,-0.950471556,-0.283254272,0.7313498736120639,-0.6755981996693846,-0.0860773631845921,-0.03584860552786159
25,1.679,0.0,0.058810518,-0.066620208,0.975371248,0.240312345,0.022174768,-0.047891192,0.9926436496000455,-0.04620300105026941,-0.03327556912014811,0.10684851006158666,1.68,1.0,0.125013021,-0.066322338,0.969788684,-1.748566465,-0.067282914,-0.926375265,0.9821813976594147,-0.10652493633574811,-0.09592289013437512,-0.12153575267686499,1.68,2.0,0.10306187,-0.051194823,0.97301148,-2.32844154,-1.274447375,2.268680298,0.9750517653575719,-0.14702436424240342,-0.10890623063633066,-0.12568740637305592,1.68,3.0,0.014192544,-0.0810966,0.976566901,1.422350452,-0.191074042,-4.04043281,0.9883528063843362,0.029482884625956402,0.03076852768067809,0.14609170863092383,1.68,4.0,-0.004395102,-0.060596118,0.978329082,2.914607925,-1.411111475,0.153151405,0.9165997975343771,0.11924014169531455,0.059614243123303275,0.37692537959821154,1.714,5.0,0.012780216,-0.029858389,0.979312076,-0.09619335,-0.608291016,5.182928926,0.9603450341733885,0.003918752910362281,-0.06632200225010948,0.270783032577149,1.714,6.0,0.002768183,-0.103840224,0.973216597,-1.840343721,-0.916646713,4.335985511,0.9633174475057404,-0.17970552234950082,0.006650557668813146,0.19920138215085756,1.714,7.0,-0.271652789,0.38652002,0.858023913,2.154183589,1.195300598,3.766120478,0.9169307422682073,0.3850871943133828,0.05882718840341282,-0.08651721541907441,1.714,8.0,0.314910509,-0.86781496,0.330330994,2.584556675,-0.324789166,1.292079842,0.8247054258120515,-0.5603266119649268,-0.07101827610112085,0.029179667916103033
26,1.755,0.0,0.048877448,-0.060562992,0.976653531,-0.038356702,0.247179809,-0.300453744,0.9944864469738497,-0.047108663871845105,-0.021375636382826396,0.09121711869362563,1.755,1.0,0.135817014,-0.161785962,0.956561049,-1.848302487,0.271374801,-3.067117892,0.9408378979147685,-0.17422257237262728,-0.09380364035243682,-0.2750843910144943,1.755,2.0,0.133485108,-0.220741394,0.945581812,-2.529816456,-0.101773109,-2.555965854,0.9265004431187501,-0.24644936539254575,-0.12253127958598017,-0.2566042180506653,1.755,3.0,0.029180847,0.05080542,0.978357955,1.720994075,0.368486196,-1.04414845,0.9878424149174965,0.10989373739001893,0.06287490522663124,0.09020796009867812,1.755,4.0,0.125748192,0.074477952,0.96940055,1.912062269,-2.193967327,0.424491451,0.8978017009638034,0.24083501506534485,-0.019012814750698125,0.36822427152515647,1.763,5.0,0.033575758,-0.067754571,0.976777348,-3.160442092,-0.130780536,1.726967249,0.9260705252671684,-0.14953877539281812,-0.09701301183956905,0.33259586951617837,1.763,6.0,0.002360098,-0.140221755,0.970180545,-0.565303183,-0.134887831,1.696161927,0.9403109270468044,-0.1932496362295899,0.008953389620424232,0.2799817411686257,1.763,7.0,-0.313598862,0.396819965,0.83811316,-0.109342342,0.165266372,-1.276192482,0.9158028654871531,0.36156041099107894,0.09726482513224352,-0.14532286317532916,1.763,8.0,0.212739268,-0.749928587,0.593619506,6.089456371,-0.11367169,2.027527631,0.9608441992786775,-0.23835256414616232,-0.04354602586386119,0.13442553146233335
27,1.87,0.0,0.03168395,-0.070674941,0.97701698,-0.198947011,0.318872068,-0.71023854,0.9968724785940607,-0.05641471503818546,-0.008177724355182965,0.054733592731204476,1.871,1.0,0.160829837,-0.218560467,0.941829648,-1.115055174,0.286996169,-3.737859152,0.8700312468836188,-0.195091967193815,-0.0972076458159994,-0.442193879850789,1.871,2.0,0.186446917,-0.305380181,0.912095659,-1.882559228,-0.101626422,-3.275139216,0.8520647309315356,-0.29864218803091674,-0.14394512771839213,-0.4050658440757651,1.872,3.0,-0.019801014,0.14468771,0.969363908,1.221715882,0.587621228,-0.611230844,0.9803121004963238,0.16128772222793092,0.09738805260125433,0.05907642075774959,1.872,4.0,0.227117919,0.166444739,0.937023265,1.468944178,-1.49774917,-0.759298367,0.8912178907478212,0.32241108524722173,-0.05218916084463,0.3147348960808871,1.87,5.0,0.035152921,-0.211416033,0.955875271,-1.535527013,-0.814852393,3.073805335,0.8537080857871344,-0.21039232501008479,-0.11988685356065355,0.4610257218223771,1.87,6.0,-0.031019989,-0.194002337,0.959720196,-1.287017471,0.241075921,4.000205344,0.8602448333110528,-0.2387066601155666,0.04733331376613058,0.44805972211974954,1.871,7.0,-0.1470587,0.431639178,0.867540984,-1.798062212,-1.362701617,3.990194971,0.9643416417135087,0.2623755208758675,-0.016041337723686676,0.03077270846784096,1.871,8.0,0.161955693,-0.19679483,0.946568618,6.113893791,-0.298852923,2.282992721,0.9664225677849049,0.08138072025276624,-0.030125190376506416,0.2418616789653771
28,1.932,0.0,0.008620977,-0.069232722,0.977155826,0.045681433,0.413634159,-0.663195688,0.9983344046021263,-0.052814515181478644,0.011033848800300276,0.020427867106380018,1.932,1.0,0.20678365,-0.218176741,0.933048998,-0.542844997,-0.073725521,-3.651860447,0.779298672292295,-0.19439228812370196,-0.11835667136446816,-0.583863782080222,1.932,2.0,0.250175181,-0.348887788,0.880428697,-1.113674743,0.107809878,-2.643089089,0.7830433780555868,-0.3124332999593784,-0.14886299257914976,-0.5167865232377566,1.933,3.0,-0.045766679,0.203109603,0.957759312,0.55924328,0.576908552,0.436028621,0.9726617189027498,0.18305595188754586,0.11642097438395466,0.0828604597089796,1.933,4.0,0.271874181,0.256847058,0.905857615,0.584823039,-0.745753571,-1.020138306,0.8983004058320587,0.34827849084256246,-0.06206341485862923,0.2605889603081288,1.957,5.0,0.030715037,-0.316596407,0.925752289,-1.353423484,0.486879231,0.412407876,0.8339450243763809,-0.27322412896847537,-0.12224171218833743,0.46361755302033064,1.957,6.0,-0.120453372,-0.293084191,0.925875608,-1.933000536,0.668121774,1.396361101,0.8045744870871417,-0.32036273411239186,0.04758185125364184,0.4977585566836313,1.958,7.0,0.104025575,0.343348023,0.911567779,1.254823705,-2.310824057,5.892882968,0.8923134289464254,0.2967346706238015,-0.20686265454787378,0.27006132993278376,1.958,8.0,0.085524961,0.360498632,0.907321452,3.025098604,1.631583437,-1.348237459,0.9550010581556488,0.21797359209929615,0.10214498238554462,0.17328270150934746
29,1.963,0.0,-0.01923703,-0.057913067,0.978496302,0.289893955,0.466355655,-0.517559401,0.998740282101801,-0.03675373871122617,0.03347544230087418,-0.006812221423495818,1.963,1.0,0.253969066,-0.201280387,0.925171832,-0.312470476,0.073700167,-2.074306843,0.7172864118573433,-0.18770956666144875,-0.11912673292929984,-0.6603591018909181,1.963,2.0,0.295680077,-0.352777639,0.865624185,-0.486880961,0.162509409,-1.690972208,0.736936594005622,-0.30639174928624907,-0.14546482739129873,-0.584712353535245,1.963,3.0,-0.102806057,0.214709717,0.950414463,-0.07750117,0.67740675,0.33962205,0.9694384610394455,0.1707365586404322,0.14062798035843513,0.10612195315485552,1.963,4.0,0.246644051,0.28893471,0.903245507,0.139511837,0.98868716,-0.706701631,0.9117186370561171,0.32727116000440554,-0.005068801502583375,0.24826804451083612,1.997,5.0,0.016316851,-0.352624689,0.914278179,0.137219417,-0.112439045,0.469494989,0.8274691970410938,-0.2564255038279254,-0.11502109837339584,0.486118129536165,1.997,6.0,-0.237907263,-0.386672226,0.868500848,-1.568134713,1.872658757,2.111621156,0.7229601329196783,-0.40978722040618343,0.11543517465843163,0.5441303158730567,1.998,7.0,0.139751514,0.353421174,0.903189896,-0.542821997,0.512291727,-5.119978582,0.9506446165512558,0.2965926104545549,-0.08842683343304743,0.022098225604617223,1.998,8.0,-0.054524943,0.456776579,0.865565241,-0.870010952,2.406687602,0.685346515,0.9386046015367938,0.1594499370148364,0.19855892327226687,0.23274766067326932
30,2.038,0.0,-0.051325948,-0.025251425,0.977264044,0.426037394,0.433922744,-0.30116595,0.998176429824903,-0.013425257433188745,0.054046005004825495,-0.023293920835308287,2.038,1.0,0.221789923,-0.191524656,0.934623205,-0.042611059,0.980775145,0.078076893,0.727544999030661,-0.15371567227463626,-0.07157939035573083,-0.6647752683117312,2.039,2.0,0.293291499,-0.340987628,0.87045019,-0.105723085,0.775878618,-0.380126437,0.7346713671170232,-0.27807668409203024,-0.10675611805581776,-0.6095362756722833,2.039,3.0,-0.15100616,0.172686958,0.953387305,-1.156161547,0.621806635,-0.052882277,0.9751300040383015,0.1013004294111023,0.1593632451017501,0.1160304026366697,2.039,4.0,0.162772904,0.26053173,0.929926986,-0.986654713,1.869818313,0.803373053,0.9174685088971686,0.23989270414706007,0.05540874418946519,0.31246263256006135,2.107,5.0,0.043453449,-0.274416086,0.940124252,2.367260322,-0.17247495,-3.357268912,0.9330026502705179,-0.10468001084771848,-0.0804128293696763,0.3347863897918705,2.107,6.0,-0.447460733,-0.423198949,0.760602092,-1.15165115,3.685039382,-2.867024516,0.749099499927656,-0.554007405414704,0.1354500238259857,0.33701487355804244,2.108,7.0,0.026802002,0.278274585,0.939691922,-0.20771491,0.955841341,-0.585183445,0.9617005436471179,0.2726827475324841,-0.02707319429503538,0.006574625284894647,2.108,8.0,0.002923523,0.270930276,0.94137306,-1.263519788,-1.172312222,-0.125008597,0.9607854900113937,0.10810685137464482,0.11152570691255471,0.2297088756819846
31,2.119,0.0,-0.088369485,-0.007935111,0.975045572,0.193480984,0.710819313,0.355829071,0.9960709671020824,-0.0009526068824523741,0.08831855797948575,-0.006446189019395139,2.119,1.0,0.10989886,-0.199335963,0.953207435,0.206443026,1.557065304,2.324633448,0.8118534756092958,-0.09807631382875966,0.006688323948818755,-0.5755260525203227,2.119,2.0,0.206990604,-0.320171736,0.902867072,1.112709885,1.654082147,1.136300849,0.7968613220716495,-0.1814598432623968,-0.05165230837172965,-0.5739480792800694,2.119,3.0,-0.134920053,0.085660526,0.967266692,-0.937152334,-0.45880487,-0.614303921,0.9870990297364453,0.04603767260039095,0.12384337578040581,0.09043703041465223,2.119,4.0,0.026665364,0.127850719,0.971115416,-1.696684083,2.487068963,-0.311589741,0.9303428773172312,0.102306348015858,0.1414664522037192,0.32246361760925274,2.138,5.0,0.117244374,0.006362955,0.973290948,5.426292809,-1.569347166,-1.278874142,0.9440330379916498,0.19809265472942958,-0.048656611604774934,0.25921700844976464,2.138,6.0,-0.510414578,-0.500122458,0.670776778,1.240364503,1.279273367,0.720036556,0.7692286206689471,-0.504432000999402,0.22283704998095338,0.32276823676947275,2.138,7.0,6.63e-05,0.258411777,0.944557224,-0.780241965,-0.181865623,-2.531776094,0.9677629885461086,0.22224082497899497,-0.005076598686913473,-0.11839781188321115,2.138,8.0,-0.071378678,-0.027142851,0.977395186,-1.397778866,1.824092101,2.411664816,0.9203143792684931,0.022790250198532837,0.16782001106522765,0.35261663558828765
32,2.172,0.0,-0.081092344,0.011892818,0.976747456,0.503196246,-0.549159613,-0.241624297,0.9979233492795222,0.023640247818898084,0.05626695107439447,-0.020595093167880243,2.173,1.0,-0.001851668,-0.207302182,0.957828991,0.821338036,0.566695553,6.223961805,0.9647504549155,-0.03692715605701862,0.0285742566006802,-0.25899122909008854,2.173,2.0,0.058875766,-0.229402476,0.951363836,2.448440224,1.314946941,3.610259933,0.9166612914365179,-0.03237775335153375,-0.04398577639892699,-0.39591540680355713,2.173,3.0,-0.125249635,0.029104485,0.971126386,-1.0431823,-0.49646797,0.753962265,0.9872737895476669,-0.0023692937345142955,0.08852688787687826,0.1320902761077559,2.173,4.0,-0.119460998,0.054877592,0.971211367,-1.083909463,1.514864737,-2.182927199,0.9555474048237181,0.0005185679115751106,0.18803623235878428,0.22709307242250173,2.192,5.0,0.157841928,-0.576156576,1.302523138,-6.438285944,16.96648828,-30.01382135,0.5420141942299233,-0.17431086693443348,0.14835223721186652,-0.8085962828482995,2.193,6.0,-0.515164556,-0.161475646,0.454525132,-19.94671528,4.178705972,9.688467507,0.09620705482521648,-0.7439118379021173,0.2580687169500185,0.6088841575888823,2.193,7.0,0.073579882,0.449799418,0.899941934,-9.313439599,8.666974955,3.118580994,0.8631560191845812,-0.18611346626696434,0.4385418395508323,0.16734550840370516,2.193,8.0,-0.080741666,-0.278709015,0.718559718,-9.947501062,4.058457799,-0.350346844,0.8239743595645953,-0.4749938546287031,0.1341786671702828,0.2782861443217899
33,2.251,0.0,-0.044990152,0.037178416,0.977874558,0.17175578,-0.460983888,0.210236796,0.9989990020623571,0.03190726556087839,0.029336833560042134,-0.011057598270543458,2.252,1.0,-0.088806286,-0.046420877,0.975007459,2.507479728,0.103138629,3.985794781,0.9937435006016088,0.09809277625601155,-0.016028874016416568,-0.050938565509979765,2.252,2.0,-0.099113697,-0.042633163,0.973870571,2.573221804,2.557345267,1.008813609,0.9341011505935919,0.13912182296798625,0.02873915583393613,-0.3275274335925845,2.252,3.0,-0.099709574,-0.037174304,0.973082767,-1.324481585,-0.322370535,3.029852549,0.956059227448398,-0.052548165220544604,0.06734083949107315,0.2804543729011265,2.252,4.0,-0.169246992,-0.119506189,0.956870799,-2.635827899,0.206260268,-0.753649246,0.9561997647442729,-0.14271517656588356,0.14945175205101113,0.2073127156969608,2.246,5.0,0.093872277,0.315103097,0.923538864,3.762245203,0.883717999,-4.700198089,0.38939296468100454,-0.09007431160706852,-0.03620960408133197,-0.9159413747711825,2.248,6.0,-0.489938338,-0.51327776,0.676130435,-0.699222422,-0.286366809,1.227129547,0.06472411648416024,-0.7055663224715206,0.25622850452133406,0.657521031458401,2.248,7.0,-0.114327818,0.140098148,0.963580126,-2.327968248,1.133057972,-1.423867062,0.8432854339733479,-0.3045342108883863,0.4167188763611282,0.1499132059936317,2.248,8.0,-0.061342388,-0.101588115,0.972581085,-0.481685859,-0.411023963,-1.755211162,0.8547896161255807,-0.4657381993773714,0.058161799661903664,0.2214494228140922
34,2.304,0.0,-0.050921774,0.087843519,0.978803601,-0.382879579,-0.624122918,0.208904862,0.9998989129213126,0.014010946065481169,-0.002210270156877838,-0.0009859183339820127,2.305,1.0,-0.148911839,-0.179920225,1.017566203,3.625112808,-0.027123327,6.900355775,0.9228497862126399,0.2367902895225699,-0.09779666989586305,0.2876011860761045,2.305,2.0,-0.020258377,-0.304173682,1.080774245,1.330258715,6.005461792,-2.026343834,0.8548444724738898,0.2601716872750451,0.29288037868410566,-0.34025388286270586,2.305,3.0,-0.18699317,-0.010691503,0.975370825,-3.877718979,2.362801395,0.887558885,0.9061266423265231,-0.2547300673330437,0.13324308640431512,0.31031174774412995,2.305,4.0,-0.099757097,0.04121404,1.035694417,-2.647622639,1.024789418,-1.358906502,0.9398420218405165,-0.27222482809714993,0.14172446454604765,0.1500159761470201,2.277,5.0,0.067604933,0.477736272,0.852754142,2.842410224,-1.145852586,0.91236625,0.44422616536325,-0.06695998613562143,-0.21076726591082526,-0.8681915882360617,2.277,6.0,-0.447394752,-0.395825028,0.776434468,4.058523223,-2.232067593,-0.128720264,0.270603279688122,-0.5789541179686145,0.33713129958406307,0.6913237166118174,2.277,7.0,-0.115815057,-0.010873226,0.973142151,-0.32730374,-0.735485415,-3.748443174,0.889212205057145,-0.3630085613617269,0.27830253462312604,0.008610341331381367,2.277,8.0,-0.003543366,-0.127270674,0.971756976,0.822534699,-1.488903225,-4.614275973,0.9201690788985465,-0.37689807520653523,-0.0971860710625178,0.04232699772061185
35,2.358,0.0,-0.017505915,0.02588904,0.978954698,-0.452100328,-0.356436933,0.42401039,0.9995888892671657,-0.008735923098052765,-0.01870379844179655,0.019897337136095664,2.358,1.0,-0.090182873,0.130355638,0.966873031,2.247050866,-0.17819633,1.599076666,0.8736559100909653,0.31181343711001375,-0.08321079184991595,0.3641067087001783,2.358,2.0,-0.230165406,0.120929412,0.944978816,2.286665294,2.361071015,1.061361359,0.8149064490231182,0.39369457831305354,0.3103289105407241,-0.29090896450615994,2.359,3.0,-0.078995806,-0.119836217,0.969626188,-1.333584174,-0.598501814,2.459100531,0.8549101330596857,-0.26787382347256716,0.10905763387870887,0.4306723947304214,2.359,4.0,-0.185722962,-0.243098134,0.931188638,-2.57520008,-0.120456683,2.300635177,0.8821611965044297,-0.35341417734063896,0.15032456172884284,0.2725666318123771,2.334,5.0,0.010380033,0.505861739,0.838602502,-1.069120251,0.903858136,-4.250125692,0.2676428758438047,0.01856503653638834,-0.15716724762298995,-0.9504320526492539,2.334,6.0,-0.232482062,-0.175418046,0.935375646,4.141436967,-3.070561337,-4.116415546,0.6233297605117277,-0.40797493549294633,0.27850046757653424,0.6061798010735513,2.334,7.0,-0.043970465,-0.174148218,0.963834528,-0.651915156,-0.093633129,-4.306126074,0.8775927976266451,-0.42003804080905843,0.15605856038782134,-0.17042491471849588,2.334,8.0,0.078342965,-0.186660833,0.958701785,-1.400353373,-0.346827942,-5.55928725,0.8791723088588365,-0.37281270264152877,-0.21065251445209862,-0.20902693185317073
36,2.383,0.0,0.00187701,-0.000441588,0.978972054,-0.41218291,-0.302983296,0.495695721,0.9981002728510978,-0.028611641348982038,-0.03174342166827472,0.04437988840309924,2.383,1.0,-0.06666507,0.252798253,0.943835691,1.512371678,-0.235098192,-0.34374359,0.8623236135730606,0.36401442616397456,-0.044100193625943626,0.3492086137840324,2.383,2.0,-0.295591331,0.311030958,0.880831714,2.471128932,0.81557356,2.040191337,0.7931105857017716,0.5166241438604883,0.23350561228945213,-0.2225987912310805,2.383,3.0,-0.022788549,-0.163844182,0.965878753,-0.508629327,-1.485276041,2.410764369,0.8060583564277646,-0.2250643733391564,0.053033414480517106,0.5447966692583218,2.383,4.0,-0.225289278,-0.35989302,0.883560272,-2.384741645,-0.388083322,2.714959849,0.8040818922415657,-0.40793623302838217,0.1485070599551962,0.40618467905042954,2.393,5.0,-0.045800191,0.645478137,0.78367488,0.739686493,-1.025292424,-5.092344693,0.015588253578308424,0.015388741800783853,-0.21380236507384337,-0.9766313233073155,2.393,6.0,-0.035860591,-0.216361899,1.032001718,4.641777673,-1.713745684,-8.802406174,0.9554134943192748,-0.20028835364750947,0.18182827330648502,0.11835585871508633,2.393,7.0,-0.013902355,-0.210423108,0.960827685,-1.181964821,-0.149350456,-1.888796585,0.848837101495051,-0.4583246744094603,0.10494841109350943,-0.24166071042246554,2.393,8.0,0.097278438,-0.18005498,1.000925127,-1.7795047,0.573865325,-1.615341721,0.8438238386060748,-0.3998191125212819,-0.1836777336723992,-0.3071945585712332
37,2.444,0.0,0.031850472,-0.022432236,0.978917945,-0.24387069,-0.508155691,0.283716808,0.9959877993419939,-0.03828296110676534,-0.05553870850188571,0.05880620978036896,2.444,1.0,-0.057940285,0.315489906,0.926182511,0.900799715,-0.284520172,-0.032451636,0.8548881354429312,0.387518499493779,-0.027705207455781866,0.3438431472471578,2.444,2.0,-0.27561891,0.43999616,0.830521882,1.653456135,0.176588924,1.453024413,0.7791107942136847,0.5771575686086322,0.16643555604768537,-0.17937312234722086,2.444,3.0,0.029610844,-0.209825007,0.957272513,-0.947810811,-0.590237837,0.607375294,0.7842022792170064,-0.23090618554727121,-0.000671213809156035,0.5759415493076394,2.445,4.0,-0.255514738,-0.433582314,0.841094879,-1.574207615,-0.22922596,1.308033595,0.7542168902409787,-0.4395024532289382,0.1253495687194964,0.47146787982089366,2.452,5.0,-0.091912618,0.486487568,0.845299898,-0.385366949,-0.073227132,-1.624094444,-0.0651553181147558,0.03372076605700502,-0.19727652763172432,-0.9775989290621504,2.452,6.0,-0.073692716,0.027235647,0.977321136,4.459604072,-0.383351983,-5.87062059,0.9642456984868523,0.0025501811676332514,0.16054084947739736,-0.2108325524550002,2.452,7.0,0.031523335,-0.206126524,0.957504118,-0.539533049,-1.033859032,-0.294834174,0.852818647542143,-0.46506041831656103,0.05266646026852629,-0.23161477863555924,2.452,8.0,0.163372615,-0.264860857,0.928374986,-1.174326626,-0.791608627,-0.412410918,0.8184240380034896,-0.4350170875013855,-0.1939489360541855,-0.3214436774978219
38,2.536,0.0,0.059720303,-0.020412539,0.977825554,0.382814875,-0.456669614,0.315740609,0.9941800326059942,-0.015810047157466915,-0.07438901647045117,0.07630451759222295,2.536,1.0,-0.037573228,0.355279796,0.912768053,0.273623883,-0.419628973,-0.005715251,0.8586072989784851,0.3863197042979249,-0.030486631155223404,0.3355907590098983,2.536,2.0,-0.245560311,0.503302005,0.803878862,0.395084961,-0.468522846,0.517251476,0.7940930877547806,0.5681470785081791,0.12107640288291913,-0.17878917704277433,2.536,3.0,0.036778694,-0.242319929,0.948178453,-0.191882031,-0.460575241,0.879329104,0.7601051882713492,-0.211568726246065,-0.022505768162883424,0.6139806733415905,2.537,4.0,-0.257104737,-0.452654489,0.829661418,-0.285225922,-0.958066578,1.537281465,0.7258807009667447,-0.40222662318202784,0.10330939843018178,0.5483047690505748,2.499,5.0,-0.15784616,0.159672942,0.953359922,-3.704454044,3.265990196,-2.945418968,-0.1792080273153936,0.27041826090251697,0.005042859692267428,-0.9459032808285991,2.499,6.0,-0.175384921,0.36044962,0.894537423,2.124181302,-0.058243625,-2.527448904,0.9263624853308923,0.09891951668920297,0.1358388619414081,-0.33706865558222693,2.499,7.0,0.088075888,-0.224733028,0.94998037,-0.083229629,-0.593667801,0.016496654,0.8669403089506705,-0.44579690709085035,0.022649135365390646,-0.2217355068813922,2.5,8.0,0.248853324,-0.3547708,0.87961793,-2.056270136,-1.78805144,0.423677688,0.7736228613458804,-0.5279615312001378,-0.2066962817028261,-0.28291507048236986
39,2.592,0.0,0.086441722,0.009055474,0.976212491,0.423375332,-0.256967939,0.679658575,0.9903058788377573,0.005983772434012526,-0.08257411017304228,0.11153464545138164,2.592,1.0,-0.020036405,0.324224134,0.925177958,-1.026123272,-0.408989468,-0.494426408,0.8943938203573959,0.325671806501087,-0.048476668766666585,0.3027335150625178,2.593,2.0,-0.212592798,0.472970005,0.831719711,-1.464520888,-1.044353381,-1.056484228,0.8467736561600386,0.46145540749721414,0.10751058939557404,-0.2418155398082531,2.593,3.0,0.079966056,-0.217326313,0.951520732,0.841243183,-0.789846706,-0.498354023,0.7865343487469679,-0.1390772080996286,-0.039076841374796216,0.6004117328105476,2.593,4.0,-0.208902669,-0.419992941,0.861010804,1.14926944,-0.943527804,-1.329351815,0.7979977387910955,-0.3219321757222739,0.061611279823953924,0.5057304947474258,2.602,5.0,-0.284022523,0.062668292,0.934501949,-0.768351282,1.149523607,-5.250585597,-0.4247669365848769,0.33138031398671686,0.10127137428420076,-0.8363637042799941,2.603,6.0,-0.14509134,0.23143295,0.94113139,-2.506734904,-1.450221607,-3.346650088,0.8806257597214077,-0.0557955192937967,0.09291038684238924,-0.46125133209414854,2.603,7.0,0.067546044,-0.182421417,0.960575327,1.595831701,1.231793495,1.75878861,0.9273157453796131,-0.32108552882983915,0.08794161559161057,-0.17104345586503011,2.603,8.0,0.300677757,-0.556523158,0.748468343,-4.70726792,-1.83811564,3.764973141,0.680917909604178,-0.7236480597969716,-0.050306523357755324,-0.10076477380518778
40,2.653,0.0,0.100569435,0.016719859,0.97458003,0.003060022,-0.232808491,0.089403176,0.9890724013182519,0.007883703631544581,-0.09086636688629332,0.11583149630597997,2.653,1.0,0.011443473,0.219698819,0.955302296,-1.669539755,-0.037236745,1.417767651,0.9027443324979991,0.22546074656558066,-0.08378316748849059,0.3566517948173381,2.654,2.0,-0.158658529,0.290523734,0.921622174,-3.321261774,-1.950791989,-1.772153421,0.9091066575869026,0.2422672623364589,0.07065124355276094,-0.33142127348077155,2.654,3.0,0.109269458,-0.145603056,0.963440676,0.808370396,0.372560426,-1.934231094,0.8512089439426331,-0.10036598202915743,-0.014259424176310403,0.5149433679789944,2.654,4.0,-0.081362499,-0.28661616,0.932942292,2.801708932,-0.949638778,-2.827575264,0.9142151500135419,-0.15795679670350282,0.054165766649841,0.3692240235739278,2.677,5.0,-0.207556267,0.192941995,0.937769046,0.753968877,-0.602906675,1.441427716,-0.3749634678779042,0.2779441436964636,0.039567139074009806,-0.8835065886835896,2.678,6.0,-0.026017888,0.047427264,0.977961003,-4.723397834,-1.788225188,2.483316898,0.9060474342812636,-0.28830913700827,0.14160999900318258,-0.275504077160765,2.678,7.0,-0.119484858,0.005867354,0.972607805,3.421605662,3.194011824,3.737367777,0.9719869932894967,-0.06935975404029444,0.22178485226562966,-0.03524186006763387,2.678,8.0,0.335015454,-0.858859118,0.331589596,-4.893928193,-2.364176303,-1.91617402,0.5011520224959812,-0.8428464463244272,-0.17139644010795804,-0.09528787218104563
41,2.727,0.0,0.096886546,0.034212568,0.973379421,0.396461266,0.254217018,-0.013632059,0.9901880237709949,0.02761927384986984,-0.07157208169173082,0.11680021581662299,2.728,1.0,0.045293458,0.123326635,0.971537464,-1.606201958,-0.190026266,0.567502723,0.9113406647070339,0.13730946433590716,-0.11639239488766716,0.3702122556958927,2.728,2.0,0.008915172,0.114290521,0.973021683,-1.763459062,-3.232713481,2.255460867,0.9641133381351401,0.08900067149792,-0.07775288844198228,-0.23773691350264656,2.728,3.0,0.101294948,-0.071654432,0.97156522,1.041012833,0.471537372,-4.429137516,0.9551656859999925,-0.047816693059345085,0.018458511467037843,0.2916013708943312,2.728,4.0,-0.014893714,-0.12931427,0.971008237,3.066571841,-0.381396979,-2.306773155,0.9679243636355469,0.0032754428195007975,0.08345495703846102,0.23695351421906907,2.743,5.0,-0.103368294,0.212271712,0.951231158,-0.170215275,-2.047099073,4.708331188,-0.16470491869972662,0.18373422492872324,0.0031889542985101623,-0.9690737097437118,2.743,6.0,0.092302225,-0.020379386,0.975202533,-1.317578031,-0.829615773,0.070639208,0.901212869343252,-0.3347113999215647,0.10657116773469086,-0.25382322411535474,2.743,7.0,-0.329102588,0.200744957,0.900780744,4.066403656,3.693503617,4.577686579,0.9149823884438135,0.19045724193988522,0.3248081345970968,0.145027388895548,2.744,8.0,0.386857168,-0.805526261,0.401575616,-0.840861573,-0.643120873,0.454127089,0.49544069129521956,-0.850426392758467,-0.16137675955722883,-0.07260174504476453
42,2.826,0.0,0.074405022,0.039123036,0.976456492,-0.129230798,0.36777599,0.038030067,0.9914837712050112,0.018589149946509703,-0.05049921149930668,0.11859259917593194,2.826,1.0,0.046854649,0.001395678,0.978707154,-2.00280082,-0.240843942,-2.1337926,0.9560277174760532,0.04416155452762296,-0.14887429670642569,0.24879148759432887,2.826,2.0,0.153018561,-0.044249663,0.966679516,-3.120432064,-2.973911946,4.135560419,0.978575070211273,-0.12940518019552288,-0.15701218902733335,-0.0315008538997193,2.826,3.0,0.064587191,0.045806421,0.976513833,1.813250815,0.515679124,-1.871933301,0.9782394922127834,0.04017900684604212,0.06904275026520316,0.19148431246438496,2.826,4.0,0.036967857,0.014168859,0.978880289,2.210610475,-1.388105631,0.895958131,0.9551998468993395,0.12965874459408316,0.026784592711564224,0.2646968984084254,2.787,5.0,0.061887407,0.058802335,0.975882797,-3.493589731,-0.254730393,4.897381559,0.10994368015694608,0.14158430530224153,0.13675700968225876,-0.9742503743845292,2.788,6.0,0.098408505,-0.084790308,0.971209231,-0.834478078,0.043164503,1.021106983,0.9083956729823001,-0.34120832762186865,0.12338032912095051,-0.20777745992895227,2.788,7.0,-0.298760863,0.508047819,0.783029604,2.417397061,0.740211827,5.303584989,0.8242707807256914,0.36912637093469775,0.2557762265301321,0.34482158323464274,2.788,8.0,0.353143353,-0.821650673,0.400957534,2.464177152,0.480814204,1.489656677,0.645062705796798,-0.7572066432321594,-0.09416192543693155,-0.040813439369999704
43,2.872,0.0,0.053988812,0.022386219,0.978470779,-0.423417039,0.396561071,0.186416999,0.9914149145478702,-0.005627106647952671,-0.030827504862905194,0.12694277382639574,2.872,1.0,0.084812515,-0.105127257,0.970101076,-1.873295952,-0.293986034,-4.702292259,0.984121146822202,-0.020544524826593465,-0.1761811325088332,-0.00661055405455257,2.872,2.0,0.169509842,-0.193599279,0.944347252,-2.785594841,0.727989598,-3.855682089,0.9330242526454277,-0.2224583861302842,-0.15006492075507766,-0.23970508958827433,2.872,3.0,-0.001269046,0.158256759,0.966824797,1.528844352,0.963261938,-1.259348045,0.9779249423651849,0.10510562671731236,0.13159802415297372,0.12368336335758355,2.872,4.0,0.145249815,0.166209228,0.955010986,2.028976789,-1.360523117,-0.168193398,0.9405100446155087,0.23933900623705923,-0.01621804541611369,0.24061311492450171,2.857,5.0,0.099522005,-0.112191045,0.967056637,-1.615949933,-1.12016388,5.072001352,0.3876651939944892,0.07656534608769512,0.16775522890140995,-0.9031675527386499,2.857,6.0,0.082135782,-0.128539575,0.968345646,-0.631406754,-0.216669631,4.38395945,0.9334944701278565,-0.31439138742543327,0.17241270694552094,0.0044708206340522555,2.857,7.0,-0.206888448,0.535142757,0.793194427,-1.208375946,0.061096819,0.447155214,0.8434656880777139,0.3082039163236712,0.22557128215019526,0.37774803198356577,2.857,8.0,0.23544235,-0.64775531,0.695723334,6.169018865,-0.4830165,2.744078321,0.88928518620723,-0.4407196678693443,-0.06152051903983898,0.10560898485723641
44,2.955,0.0,0.031347702,0.002073922,0.979360006,-0.314666394,0.344216726,0.043075025,0.9913660254717236,-0.02260325252842996,-0.014196983626948332,0.12837812185660863,2.955,1.0,0.158320626,-0.169593433,0.952362141,-1.050738036,-0.245238939,-3.406345194,0.9653351080644068,-0.04793205881721974,-0.1838379378719855,-0.17898117072697525,2.955,2.0,0.218294237,-0.290851164,0.910183622,-2.020510241,-0.054490428,-3.671510585,0.8538349747591004,-0.2740396422785825,-0.16939168170078217,-0.4088698674499427,2.955,3.0,-0.039930538,0.228574809,0.952518823,1.047999336,0.321728363,1.257399074,0.9609287778503114,0.1623311929926576,0.133572172114196,0.18006371793724363,2.955,4.0,0.211113486,0.271782514,0.917818806,1.626895293,-0.849822724,-0.956117908,0.9295166480769378,0.3177252509183022,-0.026379310508384508,0.18534723589473473,2.919,5.0,0.096752041,-0.244102323,0.943910535,-1.507120771,-0.560297873,2.511480142,0.5134878389555518,0.017445249140705114,0.21163993580426776,-0.831405099876072,2.919,6.0,-0.02517274,-0.278893127,0.938334139,-1.889303647,0.270305017,5.78680339,0.8701836681637627,-0.32106859247083813,0.2555750834009328,0.27272095507030586,2.919,7.0,-0.072044714,0.526779688,0.823414063,-1.400421742,-1.017900756,2.165031367,0.8328212696439755,0.2843225831399395,0.11735326438213221,0.46021474648699184,2.92,8.0,0.177538971,-0.11635027,0.957096405,5.955149754,0.822873953,0.663551015,0.988147277256697,-0.0966207010989858,0.0134187506478321,0.11852989369930236
45,3.031,0.0,0.009325743,-0.005478119,0.979358985,-0.045967623,0.392323557,0.032554079,0.9912454235699812,-0.02537513607276151,0.005907484351275479,0.12943614004402498,3.034,1.0,0.186629557,-0.17856986,0.945011753,-0.454600964,0.127842629,-1.854951212,0.946655000616825,-0.056862999020271116,-0.16814683270749656,-0.26895641245379703,3.034,2.0,0.296028797,-0.337961973,0.871044003,-1.307225681,-0.37595248,-2.313329867,0.7857451941560347,-0.3078339408675928,-0.1831141147562503,-0.5042935411916926,3.034,3.0,-0.057631082,0.249359802,0.946220031,-0.228442037,0.90549277,-0.006227018,0.957602931161837,0.13896901729670272,0.16696566950964867,0.1892265934456406,3.035,4.0,0.227317979,0.353290897,0.884731077,0.918496951,-0.915024551,-0.789385025,0.9221679505053241,0.35819878890188567,-0.05099284316356182,0.13674658546424012,3.038,5.0,0.072704454,-0.347750716,0.91345197,-1.324380257,0.429022623,1.076037647,0.5537495524602823,-0.0038332144856978046,0.27121646671643307,-0.7872663893489913,3.038,6.0,-0.132031421,-0.368828753,0.898349072,-1.967817133,1.103779599,1.309451118,0.8140871552241165,-0.3884767655640904,0.27710210491201553,0.3310020087088574,3.039,7.0,0.088068141,0.341002388,0.913988169,-1.378285581,-3.509136762,5.657357538,0.7268731413018796,0.32895501247483566,-0.143858472643316,0.5854475006952811,3.039,8.0,0.045881651,0.451004974,0.868759683,2.511275072,2.371470927,1.32755169,0.9752961170752161,0.04538522786327204,0.1395930321870284,0.16508013349472614
46,3.058,0.0,-0.012272305,-0.002084148,0.979286499,0.230729091,0.355776915,-0.182391439,0.9923884910939665,-0.01392290660364963,0.024941234651405908,0.11978802206401883,3.058,1.0,0.192790177,-0.187060634,0.942374802,-0.21078537,0.125470219,-0.745349019,0.9380328351648805,-0.06487004935365606,-0.15224007025385627,-0.30448191712890194,3.058,2.0,0.335493318,-0.348103964,0.851947102,-0.399897984,-0.016563699,-0.979347465,0.7595457267760831,-0.30880240161538647,-0.1768084873071635,-0.544490701948999,3.058,3.0,-0.097427606,0.223810332,0.949295948,-0.621381544,0.576548102,0.2986778,0.9552073679724121,0.10266151653481904,0.1776572276245114,0.21325432391105295,3.058,4.0,0.278839161,0.362960877,0.866508583,-0.147245465,-0.303802063,0.545018021,0.9240080414465859,0.3379870652387843,-0.0810092987362044,0.15940946205161846,3.113,5.0,0.040576464,-0.392408767,0.897375568,-0.27700157,0.01211977,0.258473946,0.5625367852277097,-0.01997652889504432,0.2719235793646328,-0.7805196157333301,3.113,6.0,-0.270286095,-0.449994044,0.82665639,-1.29332463,2.596676224,1.837662986,0.7311778397370782,-0.4420692714244496,0.371352557585907,0.3633882275392004,3.114,7.0,0.187755555,0.305229217,0.912684489,-1.092404576,0.349900642,-2.369180844,0.8219512881816697,0.27645450364154306,-0.11125003173287451,0.4853786333495079,3.114,8.0,-0.065957944,0.40137838,0.890988185,-5.534334,1.713037047,0.9123652,0.9330215212308898,-0.2073547839908936,0.17511097939814227,0.2362434747676845
47,3.118,0.0,-0.028742095,0.024491219,0.97806343,0.237714801,0.189089617,-0.331364421,0.9940826933376088,-0.0011886349588296433,0.034848812407444044,0.10287733582947615,3.118,1.0,0.159644657,-0.17414753,0.950778745,0.607902626,0.93237018,0.764671934,0.9582471114682932,-0.03189992994867086,-0.1053062900670638,-0.2639231954646158,3.119,2.0,0.307486445,-0.338495272,0.866413895,0.508118271,0.865605178,1.032538423,0.8079570494433581,-0.26693294442448023,-0.12752526933606625,-0.5095974049349392,3.119,3.0,-0.130296808,0.165315688,0.957232712,-1.142966214,0.132364931,-0.932349601,0.9696244775316668,0.033865219626954456,0.16380472603505214,0.17846436955213751,3.119,4.0,0.242445172,0.295341347,0.902675926,-2.081720432,1.445951661,0.615495118,0.956950023183011,0.20545904979036744,-0.03480871992903659,0.20204352255436464,3.143,5.0,0.091134804,-0.301257509,0.927794353,2.662034046,-0.526443823,-3.190006027,0.45190601121648283,-0.035978458051896145,0.1377173663665566,-0.8806363804565853,3.143,6.0,-0.457954843,-0.493638503,0.711519072,-1.641064551,3.220456348,-2.045765929,0.6848091342289225,-0.5848388604657759,0.3685150430336533,0.23064392474901832,3.143,7.0,0.206590454,0.28859047,0.913315895,0.445673845,0.02316031,-0.440448634,0.830287640602115,0.2877392023293795,-0.08393791374874444,0.4698755281366904,3.144,8.0,-0.019953868,0.115232695,0.973433752,-4.058366979,-1.042635134,-3.20154991,0.9182569526738754,-0.37951579117253037,0.0020765913416675814,0.11299389755724058
48,3.179,0.0,-0.065878365,0.031219823,0.976789314,-0.20912098,0.406623188,0.952160585,0.9871190794855095,-0.01059281703920397,0.05432985862033459,0.15010656749505985,3.18,1.0,0.045452852,-0.146907587,0.968306356,0.356112588,1.524143516,3.476664377,0.9959962370334874,-0.016792589546610115,-0.01889699150549522,-0.0857461862912485,3.18,2.0,0.212625272,-0.30540032,0.906038155,1.602820275,1.492503467,2.220687719,0.8937827269659869,-0.162781827564616,-0.07061590682573711,-0.4119076441329369,3.18,3.0,-0.071708561,0.111669787,0.970556923,-0.442466499,-1.315283391,-1.767238882,0.9922569842480391,0.010495331961178685,0.08276772942617099,0.09200776154025166,3.181,4.0,0.167555951,0.138219315,0.95504263,-2.251284328,1.85410657,0.361963101,0.9709587568869493,0.06310883784054058,0.028902121675040707,0.22895640277932308,3.218,5.0,0.187217881,-0.001199237,0.962132022,5.327961673,-1.511023761,0.216359497,0.4925992684012247,0.023114287735303468,-0.15467734124585775,-0.8560879689483905,3.218,6.0,-0.521651353,-0.48937478,0.670305296,-0.188638424,-0.065962617,0.752561185,0.6933979798605404,-0.5574059860844596,0.3706193534792651,0.2667191463490099,3.218,7.0,0.112037947,0.306621925,0.924256184,0.289207877,1.704401937,-2.700180265,0.8928893050697433,0.2576333570558833,0.04582414343967895,0.3664340187567281,3.218,8.0,-0.033258155,-0.108199255,0.973833567,-0.528493597,0.2264195,-1.41190685,0.9254930275727028,-0.3757248817119023,-0.016239310128561585,0.045052791072668595
49,3.298,0.0,-0.045733416,0.039213452,0.977321216,0.501786471,-0.623826348,1.076624728,0.9789667718664818,0.024245648127716932,0.023328950459680628,0.20122616181460215,3.298,1.0,-0.019536967,-0.158343375,0.967062916,-0.178878515,-0.20939364,6.027730703,0.9763175822223044,-0.037266293642984887,-0.012842988951057163,0.21272108413721494,3.298,2.0,0.064379131,-0.193253883,0.957363183,2.69416293,1.506599258,2.783395445,0.963681586031755,-0.0035484750235726193,-0.042458109182874466,-0.263633302207713,3.299,3.0,-0.041705012,0.077693246,0.976068876,-0.690130691,-0.418802096,1.875644398,0.9809773594721313,-0.011104550633731324,0.05400386584833177,0.18612815915853,3.299,4.0,0.056820078,0.091685147,0.97407254,-0.08623978,-0.431247713,0.173678081,0.9696598030532363,0.0630219408409646,0.0018366401078306529,0.23618790838760395,3.293,5.0,0.144546933,0.332302305,0.910528617,4.455188651,0.152026866,-2.737064392,0.37989042133770595,0.136051709400544,-0.33497824286488004,-0.8514474598894565,3.293,6.0,-0.579506311,-0.483245673,0.625715634,-2.555359185,-1.328068761,4.184167515,0.5982455190183795,-0.5160498362592447,0.38774603236841404,0.4748135211362343,3.293,7.0,-0.046900037,0.210495649,0.956185112,-1.106317635,1.718006898,-2.087478621,0.9381268703622245,0.15103987400601968,0.12349813009651546,0.28609988365479605,3.294,8.0,0.000272533,-0.138803749,0.969031705,0.505290396,-0.872641325,0.475530606,0.9419141008341311,-0.3217098498489435,-0.04738860428541493,0.08399356727679273
50,3.333,0.0,-0.000522325,0.063228511,0.977805135,0.186486692,-0.553373234,1.234713487,0.9649059285002227,0.04090969548883156,-0.00570345934079654,0.2593268526621992,3.334,1.0,-0.066282257,-0.011928901,0.978002742,2.456185528,-0.446862676,4.722341073,0.9032497802671945,0.07860500797983393,-0.021730193397068803,0.42129429839802146,3.334,2.0,-0.046745235,-0.016333161,0.97905266,2.842021398,2.0545148,1.957053787,0.9762457765434157,0.1578729245568774,0.013203669181777185,-0.14780387881628831,3.334,3.0,-0.019940031,0.016003102,0.97932645,-1.569639434,-0.024688885,3.252376728,0.9364808466099981,-0.07389173293708852,0.04565539871297631,0.3397929079668,3.335,4.0,0.164438772,0.01398927,0.965913656,-0.43774162,-2.372948301,5.244294,0.881206309688175,0.06628785025014898,-0.1326541048590516,0.4488699690767981,3.355,5.0,0.164295771,0.450072554,0.854366781,1.122877492,-0.10665478,-1.084606019,0.3292377363009622,0.15820696274694168,-0.3686251230018666,-0.8548032455633662,3.355,6.0,-0.442279632,-0.372421319,0.791404503,2.751409723,-4.558252104,-0.72696771,0.794768411722763,-0.29387698691223163,0.2314684948390914,0.4779140343074164,3.355,7.0,-0.051737894,-0.069737947,0.975799574,-2.44783017,-1.007688184,-5.166232943,0.999518139777067,-0.013854827589901473,0.020463100584035894,0.01878279860759479,3.355,8.0,0.069440296,-0.145168363,0.966955114,-0.653162258,-1.333835452,-4.9474058,0.92610774995935,-0.30199256749638403,-0.18454956548203336,-0.13063836543131027
51,3.388,0.0,0.037611755,0.059549295,0.976303353,-0.157881837,-0.462715747,1.486913788,0.943441362099216,0.03828418591642303,-0.03289271986322394,0.327674818027099,3.389,1.0,-0.010271267,0.171762002,0.964496405,2.604299652,-0.43035003,2.254993125,0.8388191853437131,0.19356771498854788,-0.0009513208925608801,0.5088349526142846,3.389,2.0,-0.095838483,0.149199294,0.9631197,2.670557168,0.99329777,1.895664592,0.957400200360325,0.28495753564416476,0.016523912621553248,-0.04371520949611506,3.389,3.0,-0.041519821,-0.089453182,0.975050374,-1.622276294,0.279092408,3.848433312,0.8527328989411689,-0.13576904947121343,0.05211578665729881,0.5016944419167552,3.389,4.0,0.319056718,-0.063981335,0.924213828,0.213006135,-2.433633303,3.375984111,0.7809257215467087,0.10422503374710804,-0.24210911485517736,0.5662820289142234,3.456,5.0,0.12873347,0.440049549,0.866319276,-0.024157648,1.031181435,-2.41500255,0.25189893777377703,0.2366203665473602,-0.3159878210617619,-0.8835776277294914,3.456,6.0,-0.1339724,-0.241131955,0.939187296,4.06446021,-4.082639726,-4.96839535,0.9771982918399693,-0.028776773891552754,0.0805422360819675,0.1943407932379548,3.456,7.0,-0.007175588,-0.166198103,0.965817634,-0.545117384,-0.276295006,-4.521980593,0.977886292723353,-0.05136825534336698,-0.007470653579504447,-0.20259291740297924,3.456,8.0,0.148416978,-0.193714389,0.94943464,-1.109994918,-0.267179234,-3.090958905,0.8845273178146952,-0.3039934245633515,-0.22323483252622056,-0.27452801570837465
52,3.465,0.0,0.062035095,0.036131767,0.976649447,-0.341157626,-0.317217005,1.379355679,0.919282806900448,0.02442647875861829,-0.05380195114289656,0.3891372741410233,3.465,1.0,0.028292343,0.298061259,0.933474707,2.020367997,-0.515664161,-0.514754784,0.8316792325421976,0.2849322676245408,0.043000066764922344,0.4746306472222064,3.465,2.0,-0.097563974,0.330303058,0.917256322,2.573240507,0.595346072,0.573632299,0.919075330181424,0.3928516644445399,0.029505651977551412,-0.009875408672086822,3.466,3.0,-0.094500855,-0.172026621,0.960365779,-1.340210995,0.24713427,2.384126409,0.7815808555046557,-0.18424552917071033,0.045031158656653955,0.5942702634654157,3.466,4.0,0.436634077,-0.067228451,0.874183629,0.967921059,-2.15950339,2.022504392,0.6920018600964835,0.1740052769539862,-0.3032620393016229,0.631575589089536,3.55,5.0,0.002352329,0.427482101,0.881348126,-1.507890032,-0.10302855,-1.173255825,0.22191831269973936,0.218937062222754,-0.22852985312660468,-0.9222759519274604,3.551,6.0,0.071897222,0.095270963,0.971510285,5.282617847,0.623535443,-4.491503482,0.9555725246532035,0.21113720093657934,0.1894018669190702,-0.08018207602787471,3.551,7.0,0.086813853,-0.190680237,0.956895189,-0.147204175,-1.384788418,0.507964513,0.9791616713858884,-0.07797195202467934,-0.0734132439113663,-0.17254938888522547,3.552,8.0,0.213117259,-0.261522027,0.92041744,-1.097992908,-1.07480698,0.098555933,0.8644577239266381,-0.35399857110064825,-0.23829603463925772,-0.2657307943718261
53,3.554,0.0,0.084336044,0.000365291,0.975996054,-0.649371196,-0.29295239,1.10383236,0.8967387800847239,-0.002735332463113331,-0.07795185059725757,0.4356323992048115,3.554,1.0,0.047080986,0.403400877,0.891886828,1.409791227,-0.203389008,0.183408135,0.809969166071511,0.33851447835599413,0.06877213996389393,0.4739496710849968,3.554,2.0,-0.081757527,0.451459737,0.865311974,1.388617081,-0.205800349,0.597018947,0.8974104412075815,0.4410069878417138,0.007362066872908129,0.010636571710428621,3.554,3.0,-0.108906423,-0.219422216,0.948914265,-0.875738757,-0.349845164,1.645931005,0.7267112265282556,-0.19599842679341895,0.016176078471673218,0.6581897480343957,3.554,4.0,0.53790443,-0.040749619,0.816980595,0.61876712,-1.517979832,0.334260515,0.6558520711362802,0.23710813575208578,-0.33026920006619975,0.6360503503922111,3.582,5.0,-0.0755849,0.185165073,0.959125028,0.339908042,1.186923949,-2.198994297,0.13312937536558528,0.28932905599944064,-0.19115555302329307,-0.9284529182018875,3.582,6.0,-0.060762208,0.443458663,0.871556291,1.681577864,-0.050973605,-1.260185135,0.9310051307345002,0.27867053457907776,0.18049693001120864,-0.1516345539775682,3.582,7.0,0.127155894,-0.202229305,0.95055967,0.015132783,-0.037905814,-0.093082732,0.9782661931133778,-0.08076950860740076,-0.07312754784909668,-0.17641968041110503,3.582,8.0,0.296127073,-0.369651798,0.857240518,-2.358499604,-1.869383705,1.048130739,0.8190858460244084,-0.4751811174161914,-0.24462740373210015,-0.20846754144679433
54,3.63,0.0,0.11204629,-0.022837776,0.972715819,0.180553723,-0.476426922,0.060877508,0.8936115483138439,0.01718163595481939,-0.09321703200325483,0.43871833452746756,3.63,1.0,0.060062839,0.468460839,0.858350685,0.886543322,-0.037379477,0.387424208,0.7897642463655249,0.3653903014506786,0.08365141409087946,0.48555617974552956,3.63,2.0,-0.047384491,0.508403792,0.836039649,1.017644379,-0.532238239,1.047364807,0.8808084786637537,0.46981343151097654,-0.03833555923192409,0.04452132505103925,3.63,3.0,-0.070981886,-0.252577193,0.943768687,-0.493530406,-1.16628111,0.276692471,0.7156380226337979,-0.16776268010707948,-0.04671036511160137,0.6764141080101879,3.63,4.0,0.580474462,-0.024076177,0.789020111,0.586050836,-0.544159499,0.705161658,0.6213874831543094,0.25777316008640555,-0.3287096341839279,0.662857880780556,3.653,5.0,-0.198999971,0.100376235,0.953874008,1.37233884,-1.020589844,1.029304324,0.15200106399200994,0.22626490867108512,-0.26121267136045784,-0.9259955766471544,3.653,6.0,-0.075292586,0.315967568,0.924668331,-1.098364906,-1.136188402,0.480793826,0.962367977990743,0.2097162292468691,0.11243077925190355,-0.13124899239724905,3.653,7.0,0.088961307,-0.169509532,0.959756951,1.44649241,1.43137933,1.565631791,0.9953588022243044,-0.002614397304593057,-0.009449229464446648,-0.0957326058553736,3.654,8.0,0.347960642,-0.57890883,0.709427204,-4.698457402,-2.143544114,2.385963009,0.7080721497615575,-0.6770619545092811,-0.17713527363305231,-0.09404273136751391
55,3.658,0.0,0.14166413,0.003216213,0.969113992,0.560279982,-0.526011395,0.228285709,0.8855178813707162,0.05403973948399701,-0.10192072801642993,0.45005550049946164,3.658,1.0,0.07737456,0.471911863,0.854690804,-0.376637168,-0.232580121,0.079639339,0.8005126609591464,0.34354460258495284,0.06473829405454688,0.4867910629436002,3.658,2.0,0.034648042,0.534703697,0.820678055,-0.41063439,-0.5910618,1.336066063,0.893146661667351,0.43153853750708604,-0.09135168971153415,0.08785442610113099,3.658,3.0,0.025861618,-0.268640673,0.941694943,0.176458462,-1.199428607,-1.390569991,0.7625551956353007,-0.10969726537992373,-0.10002891916639516,0.6296588750332814,3.658,4.0,0.622733215,-0.159658217,0.739748333,-0.032750908,-2.425723763,5.203713115,0.4160482286132308,0.24897544278379133,-0.447474418899036,0.7514530888813871,3.705,5.0,-0.147950018,0.446008983,0.827016191,-1.496966505,-5.236112206,6.842588968,0.45842853055522464,-0.1623667551814848,-0.27122524439107176,-0.8306125366197025,3.705,6.0,0.205059836,-0.318230293,1.157102392,3.030618359,-0.123753692,-2.922541967,0.9046692701268358,0.2970093304705386,0.11423424256130804,-0.2833893207727928,3.705,7.0,-0.020505373,-0.087218519,0.977199294,2.262485518,-0.26587139,6.190479127,0.9696414019678355,0.0992836791484449,-0.0604776722220898,0.21512962094327404,3.706,8.0,0.267957462,-0.645694829,0.593095259,-3.305668867,-1.779230701,-0.280474072,0.6013557516780312,-0.7640523779940054,-0.2216396427300763,-0.07396683294517682
56,3.731,0.0,0.171367767,0.016837971,0.964854689,0.068787111,-0.428169298,0.439580747,0.8733702131375016,0.0637539236383742,-0.1177301421881836,0.4682942682173438,3.731,1.0,0.071611291,0.394143906,0.894814732,-2.027914592,0.100247574,0.231938592,0.8323406216361376,0.24202656027264371,0.017548300016857463,0.49832147341197197,3.731,2.0,0.027807917,0.428920371,0.880944967,-3.119540834,0.403877403,-0.92760711,0.9635319317532554,0.2576583286977943,-0.06344735279028242,0.03453745167792289,3.731,3.0,0.089536474,-0.228929234,0.948731588,0.757313804,-0.391714531,-0.871868081,0.7927196756779881,-0.058137195662286874,-0.09529842158528219,0.5992777261978489,3.731,4.0,0.604810331,-0.221711367,0.737473073,0.104976517,0.740051312,-1.08755933,0.48022974794028045,0.24672821319681867,-0.3958885641748905,0.742816816423446,3.758,5.0,-0.054482621,0.21594284,0.954183072,1.015097163,-1.008831558,3.914859514,0.6203671008927168,-0.20633155358772054,-0.2855916344165506,-0.7007206065724959,3.758,6.0,0.033124125,0.130406321,0.970042774,-2.976736998,-1.553389141,1.178669711,0.967522436409509,0.1105854193676435,0.05768911642368211,-0.21987079368061754,3.758,7.0,-0.065654269,-0.002245275,0.977552799,2.630032928,2.132947232,4.896370393,0.8823060803395885,0.16581984550740458,0.030616299258575046,0.43943418352627234,3.758,8.0,0.41214354,-0.800459887,0.385085279,-1.878189828,-3.099930259,-3.259020192,0.49963568927976754,-0.7591332805361597,-0.4104357273175817,-0.07498902667475871
57,3.779,0.0,0.17899014,0.019637506,0.963104822,0.457729829,0.268666858,1.029312103,0.8491565543294282,0.06961356199273336,-0.09504714601853588,0.5148331169027378,3.779,1.0,0.15765557,0.243462712,0.935955463,-2.17295142,-0.508118428,2.264397738,0.799606606244343,0.15947846659957696,-0.07695829280303652,0.5738234180567172,3.779,2.0,0.051769025,0.25276096,0.945626705,-2.615613827,-0.65044763,1.959888036,0.9821789474842854,0.10821592786972946,-0.1055818034265707,0.11165263480611438,3.779,3.0,0.068498218,-0.145092712,0.965549118,1.508180449,0.502481764,-0.227003856,0.8058465186391788,-0.009246726812691808,-0.027666237027998055,0.5914055002864598,3.779,4.0,0.572453479,-0.097992455,0.789238553,0.241310046,1.180964002,-3.430217202,0.6379666962464322,0.2792203159417643,-0.28396975878873026,0.659087009232669,3.841,5.0,0.043545857,0.193027265,0.958904705,-0.899954824,-0.716427783,4.122310966,0.7484565901136019,-0.300659172365058,-0.19821456107053162,-0.556891176593681,3.842,6.0,0.112497891,0.066072025,0.97142252,-1.195344222,-1.256579552,0.658507735,0.9817864099111296,0.03065916636734182,-0.00419954861729229,-0.18745085922151944,3.842,7.0,-0.226590058,0.168569926,0.938529235,3.034352051,2.637593316,0.335149976,0.8397589248145423,0.2218545543998453,0.21403091820303255,0.44696338881337555,3.843,8.0,0.488547277,-0.755708636,0.385976703,-0.965290924,-1.235677725,0.876710356,0.4747993290979242,-0.7880672697823666,-0.3908118322245156,-0.02795866912506728
58,3.897,0.0,0.162487536,0.027240279,0.96624519,0.115749723,0.321995914,0.741073133,0.8312708821545172,0.06112994028806771,-0.0778739997333604,0.5469803388129749,3.898,1.0,0.192038654,0.079859977,0.957167456,-2.252833119,0.030364975,1.720133401,0.7673070671797783,0.05852479872141659,-0.14317874054245575,0.6223460137634538,3.898,2.0,0.166179742,0.082209434,0.962220818,-2.161999154,-0.659591293,1.820928464,0.9721783266457797,-0.009292905261406206,-0.1451919030323261,0.18358173766980637,3.898,3.0,0.044099139,-0.043485822,0.97757928,1.243951412,0.401833456,-0.453826744,0.8197500146756553,0.030969689864922004,0.02591376695894279,0.5712961302432663,3.898,4.0,0.528301763,0.002554036,0.825322194,1.02695607,0.22128425,-1.794893946,0.6891077818584985,0.32521038074839714,-0.20388683486287398,0.6146534241384664,3.862,5.0,0.156581706,0.057108716,0.965388918,-2.13468022,0.656220973,1.940301736,0.7801663768855377,-0.3582641600235544,-0.0668747341808631,-0.508443690046547,3.863,6.0,0.168191883,-0.030515225,0.965251424,-0.660807753,-0.954390232,4.987467869,0.9963923873407482,-0.019082752750869212,-0.04870619659293562,0.06682638259178536,3.863,7.0,-0.24493496,0.460190783,0.830405508,1.555982813,1.588750093,3.086175427,0.7365039866829421,0.2703696293851413,0.2660983463958143,0.5600480436102667,3.863,8.0,0.34597164,-0.836686284,0.373819057,2.947358109,-1.730494496,1.250492195,0.5886155278127619,-0.698599137291925,-0.3850405326687053,0.13128135433061972
59,3.927,0.0,0.140525495,0.011303352,0.969663251,-0.334476007,0.359542585,0.959061876,0.8072793901659178,0.03236945516186746,-0.07198578679854879,0.5848677210146425,3.928,1.0,0.196851882,-0.049273372,0.958720226,-2.114398214,-0.017862865,-1.897890429,0.829368449720099,-0.016656466070446775,-0.20523062746066087,0.5193755156907449,3.928,2.0,0.186773837,-0.147750632,0.951118964,-3.328923375,-0.052637792,0.31563677,0.9552113149921293,-0.17453676208155292,-0.169464232789746,0.16849372747398433,3.928,3.0,0.012541744,0.03325273,0.978149764,1.163342728,0.512177508,-0.216088049,0.8229213084152662,0.06257151654847672,0.07870383056310538,0.5591878329574278,3.928,4.0,0.542158388,0.092681364,0.811681863,1.123098857,-0.136399012,-1.024416167,0.702521918740093,0.36991959650723555,-0.15283241036442508,0.5884426056565436,3.924,5.0,0.167463021,-0.169739003,0.950770113,-1.569393047,-1.033340507,4.817256152,0.8573128685831022,-0.4351800799793888,0.03957916910399785,-0.2721514885573522,3.924,6.0,0.179902696,-0.07579481,0.960495792,-0.00577196,-0.029590106,2.341930188,0.9817293730000296,-0.026140001070244584,-0.05132172917983632,0.181356606295464,3.924,7.0,-0.185611621,0.481499924,0.832319139,-1.976666655,-0.013620293,4.33136482,0.6416608761090207,0.2516590190677364,0.1503482279229166,0.7087555774407052,3.924,8.0,0.293482148,-0.703539798,0.616039756,6.029538583,-3.146756861,3.120872489,0.7049443990707197,-0.45325862655964616,-0.35285063333177397,0.416060623257538
60,4.062,0.0,0.099800475,-0.040624337,0.974352364,-0.097918073,0.320509712,0.599007677,0.7910493863775377,0.015051483892912972,-0.060799595434125324,0.608537369714785,4.062,1.0,0.181305915,-0.204911562,0.941168113,-0.884030635,0.210031344,-1.927510097,0.8786603759919271,-0.0432922095768487,-0.21506362054250103,0.4240629285505046,4.063,2.0,0.229933804,-0.396206263,0.866242485,-1.754118985,-0.136806908,-1.494143102,0.9443706780017316,-0.24326323672479072,-0.20614204580121737,0.08057590918889365,4.063,3.0,-0.015343338,0.161008766,0.966241046,0.548710991,0.263331015,0.87819253,0.7954345790484257,0.08062137255053559,0.09843150688234481,0.5925329216127929,4.063,4.0,0.479428558,0.232699576,0.822989772,0.810298191,1.096405036,0.479582715,0.6849520952978736,0.3509288684627099,-0.09632554231346772,0.6311980246519718,4.044,5.0,0.134749438,-0.325520418,0.914562763,-1.759791174,-0.781205691,4.381621632,0.8669405286893619,-0.4788351129608234,0.12808452469383144,-0.0522054484279257,4.044,6.0,0.125771105,-0.187962223,0.95355012,-1.229710401,0.177690914,5.770491827,0.8959968935122322,-0.10135512162412609,-0.025880847969468615,0.43156330688019523,4.044,7.0,0.002380354,0.442852384,0.87372427,-0.021460207,-0.692965456,5.977133914,0.44256766982866547,0.31592460112489507,0.04197699132950118,0.8381905727371456,4.044,8.0,0.312677508,-0.291029666,0.881971944,5.998673688,-1.277384395,1.991657748,0.7717258659768215,-0.18157812735008577,-0.23900680197834176,0.5606641776129869
61,4.153,0.0,0.074338962,-0.050593665,0.975502947,-0.086623645,0.455778786,0.054323678,0.7908386420531902,-0.0036420058873020567,-0.04390435009019726,0.6104370451338453,4.153,1.0,0.193588462,-0.219104544,0.934788589,-0.240679382,0.070422843,-0.759064125,0.8956561254281312,-0.04877516679686047,-0.21115723344071904,0.388373159284557,4.154,2.0,0.262609218,-0.431130484,0.839679049,-0.274388815,-0.162011076,-0.417960702,0.9424695919596124,-0.2483663516569405,-0.21537582879003175,0.06065044079897374,4.154,3.0,-0.030240891,0.173968314,0.96339271,-0.029372735,0.312758215,0.268528059,0.7863376711835863,0.06971375169280256,0.10567317391520253,0.604686894199945,4.154,4.0,0.400931487,0.225567065,0.864958058,0.093786256,2.069105587,0.998032641,0.6643348301236665,0.2721957762684936,-0.036131016603301556,0.6951713763564805,4.088,5.0,0.100800143,-0.422630254,0.878700176,-1.220213147,0.621084792,1.743891075,0.8487641053222883,-0.4948046867621759,0.18611997064542873,0.011277056423768514,4.088,6.0,-0.021996915,-0.295185691,0.934530654,-1.320209408,0.425288341,4.71898441,0.777405675855625,-0.1699491063694786,0.00010245860053183125,0.6056052393217135,4.088,7.0,0.175895371,0.329315406,0.906586004,-4.252415892,-3.473521529,3.138629942,0.39614752065420245,0.3765837093002297,-0.2605423909456759,0.7958451572319323,4.088,8.0,0.240674949,0.382996159,0.869369605,5.120953115,2.521038156,-5.777037179,0.9626047353650359,0.11651447810745835,0.08495701371492821,0.22934429503433754
62,4.183,0.0,0.041061881,-0.032476241,0.978400335,0.438316874,0.57150041,-0.022385941,0.7927783638524973,-0.003322917225857461,-0.006151387745278363,0.6094699208798369,4.184,1.0,0.170775341,-0.204505178,0.942561624,0.593785438,0.690223195,0.04976844,0.9039650920046853,-0.03700009454500946,-0.159413193525322,0.39505131207310207,4.184,2.0,0.267918359,-0.400029879,0.853770373,0.738070698,0.535235005,-0.672858253,0.9606511789271901,-0.20218315675449733,-0.1879841753048782,0.03054886880935582,4.184,3.0,-0.06630286,0.148637926,0.966540065,-0.625714972,0.847091565,-0.394869027,0.796184343223707,0.0140562075565152,0.11747760808072398,0.5933733447284214,4.184,4.0,0.218862477,0.178195601,0.938686073,-1.160253475,3.563556264,-0.403632158,0.703325520831381,0.0956308015523634,0.053507104384991365,0.7023709499417333,4.177,5.0,0.032050849,-0.478372505,0.854137278,-0.442230843,0.175433586,0.831554021,0.8509094990893876,-0.4854763117756882,0.19642856869271857,0.041007224551927145,4.177,6.0,-0.12995408,-0.387459314,0.890760471,-1.559772226,1.541230777,1.177798909,0.7279822645910428,-0.2760923898124345,0.018365955206538026,0.6272778542383807,4.177,7.0,0.210559606,0.347056169,0.891202372,-0.065210438,0.599718352,-4.466329174,0.6002769116185726,0.4000579978130632,-0.12015716758257956,0.6820436077275436,4.177,8.0,-0.006805252,0.441534061,0.873596223,-2.013106071,2.097619048,-3.177685548,0.9833893794493063,-0.010440186439582472,0.1600356186112469,0.08499959805275834
63,4.259,0.0,0.007220065,-0.014168302,0.979142548,0.276237614,0.717070701,0.109320183,0.7895648819577248,-0.014314380932724318,0.030535266462362876,0.6127397434308218,4.259,1.0,0.086267668,-0.133536646,0.967136419,1.257205457,1.32264449,1.144101099,0.891412842143418,-0.01669043825025693,-0.0651825686515484,0.44816939529244315,4.259,2.0,0.227237197,-0.32470851,0.894961809,1.850363549,1.623791461,-0.604853733,0.9897197392787759,-0.10207337566174353,-0.10015301446297982,0.002288527244076098,4.259,3.0,-0.078229925,0.094591495,0.971899958,-0.731090968,-0.724451723,-0.508586923,0.8160826700012909,0.0027246316332731296,0.06053651719289925,0.5747494951647901,4.259,4.0,-0.014488141,0.111705618,0.973508063,-1.370600731,3.494709568,-1.432812372,0.7509570944907314,-0.08860982723670828,0.12953644079472573,0.6414296931522223,4.254,5.0,0.058132665,-0.427288393,0.880369935,2.247418197,-1.051230642,-0.933906814,0.9257263784773473,-0.3605545878240254,0.11412076390807277,-0.0027409186963998342,4.254,6.0,-0.372866039,-0.401278481,0.812333366,-0.693504624,3.238211123,1.860948095,0.6550332074540612,-0.3990879044045646,0.1390457450416126,0.6263598186954851,4.254,7.0,0.155323417,0.295292378,0.921426094,-1.256407982,0.622257631,1.344569642,0.5941648353080403,0.31287799936715627,-0.15038306647990984,0.7255759362819816,4.254,8.0,0.104885696,0.285039969,0.931593907,-1.710703011,-1.346555677,6.174072441,0.9230235669809962,-0.021652567068360485,0.0725222224958538,0.37722564650523266
64,4.319,0.0,-0.011838618,-0.010499312,0.980284964,0.316103467,-0.227816865,0.649607285,0.7702102581533897,0.00649309468317207,0.02838034281932905,0.637125226386604,4.319,1.0,0.030226895,-0.09678059,0.97497377,0.331729712,0.104705449,3.296167855,0.8129256041263642,-0.018099908284265005,-0.047503676064298464,0.580144599420063,4.319,2.0,0.123170482,-0.200365871,0.95161891,2.672417964,1.073449966,2.691985223,0.9885821613410751,0.018680787416003944,-0.04378255991031183,0.14296652023262865,4.319,3.0,-0.054818002,0.068417084,0.976116842,-0.448207203,-0.410123021,2.597753932,0.7412825680240749,0.006699570230414424,0.029886946070616108,0.6704938780905702,4.319,4.0,-0.183371304,-0.030398438,0.962466571,-0.586461512,0.928617605,-5.739913704,0.9098531719712271,-0.17828652800551256,0.09193523496139307,0.3632203628077999,4.284,5.0,0.150968849,-0.166730156,0.953914808,5.280946798,-0.292002841,-2.4743351,0.9838492344396323,-0.07168345392889856,0.0687126621248489,-0.1489319857823999,4.284,6.0,-0.478325971,-0.46663345,0.716073661,0.370470836,1.37510463,1.672411048,0.6050733788191944,-0.41579434036597795,0.21647646134838355,0.6435364903764409,4.284,7.0,0.103352282,0.315123264,0.922744078,0.360860646,0.717979471,-1.807094711,0.6683321285488492,0.29839779539114547,-0.06266313144315404,0.6785014765000935,4.284,8.0,0.087731424,-0.010723824,0.975848962,-6.402971295,1.77563598,-4.952956231,0.9275263735285288,-0.3615215047524015,-0.06325062036653983,0.07068512597303155
65,4.397,0.0,0.01416114,0.014981913,0.979436575,0.310828166,-0.330572757,1.139871742,0.7341334859321851,0.03050252037522582,0.021584319488365634,0.6779762077212161,4.397,1.0,0.004680343,-0.034231022,0.978964418,2.090827088,0.725487185,3.671784714,0.7076300649375992,0.02655014646601806,0.037148686643475225,0.705106201929686,4.398,2.0,0.028212612,-0.040214233,0.979177136,2.406473647,1.581588,1.038400667,0.9722143251206845,0.11840208332235001,0.04701551751423566,0.19639193926413565,4.398,3.0,-0.016178506,0.006802498,0.978879452,-1.433377582,-0.590435982,3.085025429,0.639819412796454,-0.015472145086092941,-0.0367316141068627,0.7674910554920756,4.398,4.0,-0.157426145,-0.139024102,0.957435276,-2.315709745,-1.553008154,4.501707296,0.801374729427877,-0.21241392397319797,0.031004008208342503,0.5583167733569556,4.343,5.0,0.175871352,0.155130163,0.950199926,3.592637454,0.805724011,-1.199108881,0.9667806833804924,0.1182579322849486,0.07106572904504369,-0.21517396182933715,4.343,6.0,-0.511326152,-0.482143378,0.682392357,-1.621276177,-0.502777964,1.244202372,0.5466382086409347,-0.42870484700303046,0.16050639203689143,0.7011679692664504,4.344,7.0,-0.048387178,0.257030029,0.943964642,-1.631808126,0.702661878,-0.91851207,0.7342294312183623,0.19751737101638717,-0.06604743879278631,0.646166980205928,4.344,8.0,0.037855158,-0.117614025,0.972711637,-1.857014841,0.951328683,-2.59661807,0.905934664432006,-0.41001740237856643,-0.0757461966729892,-0.07369278944902485
66,4.469,0.0,0.0357543,0.02126853,0.978974096,0.017297745,-0.309364949,1.308715582,0.6900710124855569,0.0420997129538403,0.006039029363213873,0.7224909286771098,4.469,1.0,-0.00656436,0.122913069,0.972309255,2.333662299,-0.141243272,2.388723691,0.6221234442153042,0.1100578636001828,0.10318942646007935,0.7682458129298791,4.469,2.0,-0.075014764,0.091123977,0.972744163,2.270357105,1.528249256,2.930785999,0.9145118244050595,0.20507033891656642,0.10815631428582419,0.331536560276661,4.469,3.0,-0.018749549,-0.085414206,0.976146438,-1.401199905,0.075545558,4.356696772,0.47655024038593147,-0.06194128067667868,-0.07556387173129567,0.8737008912810037,4.47,4.0,-0.142582984,-0.234573985,0.94079495,-2.139309582,-1.08076562,4.661341231,0.6504568393762209,-0.2377678531657321,-0.01120976653483319,0.7212812830261788,4.418,5.0,0.064903726,0.378227874,0.90199622,0.921374926,1.103871079,-5.068265485,0.8794360677307566,0.1557710461481964,0.1344699910673149,-0.4292381686878706,4.418,6.0,-0.561551501,-0.428369797,0.678812367,1.204488842,-2.526677823,1.191114227,0.5589386042997684,-0.294354885094346,0.13839168345609698,0.7627519781650578,4.418,7.0,-0.104398751,0.078180157,0.97110183,-2.847434454,-0.491675848,-3.563357789,0.8717548213998522,0.07910307041223862,-0.14836415394612448,0.460189432126944,4.418,8.0,0.06561419,-0.142889958,0.967367168,0.826163754,-0.450031746,0.423561267,0.9339120578888447,-0.3438242497151709,-0.08792096821815894,-0.043163141512226784
67,4.529,0.0,0.058376649,0.005221534,0.978123664,-0.295331883,-0.383759737,1.066767523,0.6523698061761395,0.04490994385723461,-0.02199709552654347,0.7562492054348502,4.532,1.0,0.05405278,0.263868303,0.942206355,2.054002653,-0.572959919,1.455351359,0.5597264734420916,0.19730933611963586,0.15082100256291395,0.790587329770738,4.532,2.0,-0.09561535,0.272160492,0.936766444,2.45055399,0.443719837,2.787933698,0.8366003966538106,0.30561195089502824,0.12225210800138696,0.437898999631238,4.534,3.0,-0.057612858,-0.167556783,0.96401218,-1.400899948,-0.154806418,3.256627523,0.33307028901800523,-0.09224393451894068,-0.1246068378873977,0.9300690162937542,4.534,4.0,-0.170177912,-0.321230119,0.910410176,-2.036410497,-0.133753183,3.126699847,0.5188270950061248,-0.28330776591970014,-0.04862495780986795,0.8051029553635253,4.494,5.0,0.067785784,0.462250398,0.860887714,0.897147369,0.292227668,0.834107264,0.8910521772141711,0.21326575225790884,0.0935586100876752,-0.3896030324243079,4.494,6.0,-0.351954392,-0.290032931,0.866740448,3.101153122,-4.323609647,-1.604283257,0.7069018084943638,-0.028052512186199714,0.08982852685546264,0.7010233416017031,4.494,7.0,-0.042107418,-0.133690401,0.970291627,-3.242029043,-0.324501452,-5.198567718,0.9602463873262381,-0.05065041542533464,-0.22704095072071095,0.15431726325976955,4.494,8.0,0.148000628,-0.156928885,0.95573173,-0.951925162,-0.097183076,-5.506980044,0.8814008539861046,-0.3279315456409755,-0.17612753530995479,-0.290813561017582
68,4.632,0.0,0.083488224,-0.021526734,0.976138984,-0.378303046,-0.374436312,0.654534462,0.6281160843624894,0.044559322480044905,-0.050954940634249615,0.7751698171176516,4.632,1.0,0.081192963,0.356297117,0.909368499,1.561418296,-0.011173569,0.314663803,0.5337854691566831,0.23668632234926706,0.20629960249651677,0.7851707659737069,4.632,2.0,-0.082288933,0.410578541,0.885767912,1.776660646,0.372573314,1.133000398,0.7862583223332479,0.36175185748789224,0.15637902549251398,0.4758981451442923,4.633,3.0,-0.06703003,-0.217800163,0.952483104,-0.793833293,-0.476061669,2.117132662,0.22952710853381075,-0.0910747593324288,-0.15510083829711643,0.9565387731922738,4.633,4.0,-0.209326494,-0.392557707,0.872505511,-1.7389287,-0.181344805,1.87535147,0.4235843675910562,-0.3114871655833931,-0.09924304543091379,0.8448093555015276,4.554,5.0,-0.060571677,0.439979756,0.872608667,-0.029484432,0.475278829,-4.536960363,0.7929874821896175,0.198588491091123,0.1435294888655174,-0.5577927483597516,4.554,6.0,-0.069607944,-0.155307734,0.964983027,2.802719166,-2.862975013,-4.330232585,0.8642865920357443,0.16592388556381285,0.08549847444563016,0.4670845339915629,4.554,7.0,0.019580327,-0.180271046,0.96248998,-0.174078707,-0.450301526,-2.423289091,0.9711528339386525,-0.031846364270907604,-0.23335461095885648,0.037331056238600224,4.554,8.0,0.192896886,-0.19307415,0.941489333,-1.049112159,-0.630006144,-0.958245085,0.8517776638228601,-0.3546167472592336,-0.19450786693690936,-0.3329991947068421
69,4.693,0.0,0.110043121,-0.040301426,0.972624957,-0.134574166,-0.453741244,0.254704338,0.6174156823066763,0.055979089715487554,-0.0709541665671157,0.7814280024437138,4.693,1.0,0.082880786,0.419161739,0.88154422,0.685110721,-0.002444271,0.179022273,0.5207770573766498,0.24909975202717144,0.22604140257120284,0.7846310307232073,4.693,2.0,-0.078883136,0.479418466,0.851062504,0.940941191,0.655055532,0.172186135,0.7663695044152755,0.3683154440724864,0.201189152868811,0.4863583464153795,4.694,3.0,-0.021297503,-0.230382211,0.95200549,-0.042033253,-1.185532616,1.025001081,0.17231312219936437,-0.03791318796876865,-0.1613381742360445,0.970999882404798,4.694,4.0,-0.248992695,-0.449542363,0.834712107,-1.277833724,-0.490614311,2.124661032,0.31674280857059567,-0.31543570625797546,-0.13246632447447632,0.8846620718198367,4.628,5.0,-0.088930342,0.310359056,0.924841419,-4.618535305,0.245982176,-0.590230528,0.8175510408303764,0.0073405112560585885,0.26225666618428506,-0.5126186239043335,4.628,6.0,0.021378054,0.331966042,0.921869039,5.521131699,-0.723012291,-5.709746354,0.8762494080369337,0.3862245906142913,0.27398534381995004,0.08916037175567472,4.629,7.0,0.087540224,-0.207640339,0.953924105,-0.36874478,-1.128612514,-0.142782574,0.960620628280496,-0.05280018409432239,-0.27112261214207617,0.030210565483750545,4.629,8.0,0.259292832,-0.258276807,0.90895947,-1.217576567,-1.13813052,-0.390607585,0.8202769056107535,-0.4030060356227963,-0.21821683707326775,-0.3422182715621472
70,4.728,0.0,0.137148087,-0.030224868,0.969661209,0.133864417,-0.493776414,-0.143027299,0.6210353151768447,0.07889291426662327,-0.07896033382433276,0.7757939875147694,4.728,1.0,0.080104797,0.438043442,0.872282732,-0.146366853,0.033176051,-0.369152724,0.5392325313687564,0.23114496306557936,0.2198716285172743,0.779395118111614,4.729,2.0,-0.093626799,0.509754259,0.831817659,0.202481536,0.377551071,0.316329484,0.7580329870233175,0.3547098415246616,0.2129755043442013,0.5041907907324267,4.729,3.0,0.022831793,-0.238009913,0.950155245,-0.188149477,-0.630849,0.226691436,0.15638359181976635,-0.007895230041387914,-0.17150879396144486,0.9726595350614895,4.729,4.0,-0.264983793,-0.467984724,0.818895529,-0.35785989,-0.513669415,0.54509534,0.28735454950477335,-0.29266120633433085,-0.15226950719644586,0.8992167582757754,4.704,5.0,-0.204819643,0.095072339,0.953863808,0.409807194,0.567184358,-3.301252978,0.7280232690718412,0.000747877775943732,0.25411663427757447,-0.6367152397675269,4.704,6.0,-0.106323219,0.476686739,0.848402691,0.516276025,-0.04410226,-2.567818949,0.8828922550594931,0.358752488010624,0.3016953888159366,-0.027889257239140642,4.704,7.0,0.136800793,-0.203158065,0.948795207,0.072914664,-0.422452784,-0.882980391,0.9606743326170257,-0.041431735927119955,-0.27446343359882885,-0.007619811417543411,4.704,8.0,0.342527181,-0.366867638,0.840709383,-1.883905079,-1.798585509,0.84389766,0.7843126611411513,-0.5018285887948316,-0.22380081668961666,-0.28798422090617043
71,4.785,0.0,0.172396957,-0.005495642,0.964466737,0.684429359,-0.516929145,0.44598508,0.5994011124596341,0.11653291317640646,-0.06841326710071756,0.7889600822686653,4.785,1.0,0.090254144,0.395299476,0.892554488,-1.374761164,-0.202705202,-0.161475084,0.5662495158341777,0.19101230611034517,0.15486085226550106,0.7866981003965688,4.785,2.0,-0.088603597,0.464648438,0.858298451,-1.65847625,-0.408539837,-0.445537466,0.8097791923511573,0.2756305405702723,0.15670041451859734,0.4936906367653196,4.785,3.0,0.064651338,-0.225539084,0.951421739,0.52271866,-0.677226676,-0.461126391,0.17391834157269118,0.035861074494621704,-0.1461920474666375,0.9731876895328097,4.785,4.0,-0.219187015,-0.459368946,0.838037722,1.001109925,-0.576208376,-1.535358637,0.3718633070003387,-0.22760350682616065,-0.140385908448064,0.8889353864575409,4.812,5.0,-0.242132553,0.044581011,0.948926952,0.829493438,-0.430194226,2.709617295,0.8233691339141341,0.06672672585103488,0.18318401387413202,-0.5329675697785478,4.813,6.0,-0.074973768,0.305168942,0.927547223,-0.922460281,-1.257136425,2.563047257,0.9242130960949186,0.33002451718447134,0.17483354716090596,0.0796693281692325,4.813,7.0,0.081106256,-0.152871433,0.964169643,1.375525165,1.25666121,1.709950584,0.977678773817855,-0.00022641386385650007,-0.18880032508206762,0.09218785826606231,4.813,8.0,0.388108441,-0.595510175,0.674078237,-4.2776598,-2.316017053,3.106123437,0.6941682760402106,-0.6987849373508953,-0.11999697726366236,-0.12422053501113028
72,4.858,0.0,0.203612998,8.7e-06,0.95723756,-0.028106489,-0.4076434,0.190389281,0.5908146725257014,0.12784718057047334,-0.08229048383856738,0.7923518141697812,4.858,1.0,0.097634092,0.265690444,0.938041136,-2.068503705,0.157046804,1.138447319,0.5421045273906125,0.1312465437370752,0.06323946832099685,0.8275855217354581,4.858,2.0,-0.083620431,0.318360536,0.922251697,-3.368654954,-0.839513116,-0.905835962,0.8837918576315851,0.12226238721541877,0.03808445505336211,0.45001492790771686,4.858,3.0,0.113374559,-0.172672329,0.957836874,0.876968094,-0.329176575,-2.146683213,0.2765087506184614,0.08118146477810564,-0.09508093229321814,0.9528442144034623,4.859,4.0,-0.132754474,-0.354615403,0.90334554,2.763433977,-0.697347553,-2.045659748,0.49776565634410974,-0.10633969232904773,-0.04687403083049085,0.8594905737897206,4.89,5.0,-0.154052491,0.12665206,0.95937901,-0.229439619,-1.036882828,1.752388593,0.8808103628425427,0.04855068574871183,0.12362352502055883,-0.454459194740308,4.89,6.0,-0.02754293,0.115188752,0.97247876,-2.275837405,-0.450115583,-5.185870865,0.9643742181234461,0.14185490402116213,0.16115254141029858,-0.15456200057239441,4.89,7.0,-0.095505759,0.007136093,0.974930114,2.950833838,2.619531937,4.942814308,0.9365074600627183,0.08200125812927518,-0.04272999140141141,0.33823618781397,4.89,8.0,0.438716108,-0.81591356,0.31926672,-4.856089872,-1.887342775,-2.34280636,0.5088804661512414,-0.8099812428004419,-0.23728837575116996,-0.16930825205676855
73,4.921,0.0,0.20385838,0.012799232,0.958767928,0.351924029,0.153864658,0.294392953,0.5780239235636818,0.12673821164848062,-0.06334098025762748,0.8036253416338952,4.921,1.0,0.134026434,0.125719346,0.961804326,-1.999065586,-0.445631203,1.284219896,0.5050924477155516,0.10011470997339776,-0.04188096904969203,0.8562153050133557,4.921,2.0,0.013966923,0.136290232,0.970678061,-2.288270286,-1.825951273,2.4705119,0.8386228403795053,0.06516780267885583,-0.09922074961247046,0.5316202892423874,4.921,3.0,0.144265009,-0.081218762,0.966264519,0.771557856,0.242265978,-3.941890421,0.46896600718394893,0.10599791892372214,-0.028484238707144123,0.8763697698089881,4.922,4.0,-0.044608531,-0.160467613,0.966058603,3.437252951,-1.275653914,-0.619774047,0.5447230631292692,0.04772530184490541,0.0670649217916126,0.8345665799227546,4.928,5.0,-0.023339241,0.105185533,0.973878475,-2.053310027,-1.224510707,5.456250562,0.9814492832528168,-0.0469543703150336,0.10227248956957649,-0.155218972384473,4.928,6.0,0.035967083,0.051865637,0.978366151,-1.017205627,-1.386186824,2.009632875,0.9923434525360965,0.08387521476893296,0.07204800522437708,-0.05503185894909985,4.928,7.0,-0.290153215,0.141773688,0.924829354,2.342279881,2.632776668,2.379130513,0.8803573893621088,0.1292199575315154,0.11666785261283845,0.4412048070202711,4.928,8.0,0.519182724,-0.750015584,0.357444993,-0.228670554,-0.341177139,0.228268334,0.5265894006166398,-0.8024211238468563,-0.22933063033876566,-0.16196112234416155
74,4.993,0.0,0.180455064,0.021589258,0.96289349,0.063815729,0.470472826,0.442497461,0.5618097283777878,0.10376864888022719,-0.04811804076718849,0.8193207862384402,4.994,1.0,0.151614008,0.009004943,0.968003153,-2.046239201,-0.219008308,-0.361264587,0.531775648639072,0.052996106648224475,-0.1339410472481005,0.834545306173791,4.994,2.0,0.076403707,0.002744646,0.975990748,-2.022642849,-0.014004035,0.741855899,0.8245062566878826,-0.025916957962086366,-0.1457501529679503,0.5461452525494902,4.994,3.0,0.144594078,0.05415627,0.967843299,2.358525772,-0.352913095,-2.231510844,0.5562701105220144,0.18799695367076716,0.08842483789851248,0.8046127997943849,4.994,4.0,0.048181499,0.006348999,0.978557731,2.390131903,-2.151919036,1.035246929,0.506249837281719,0.20014670608692126,0.09522916014150921,0.8334169456841705,4.99,5.0,0.04714155,-0.025136208,0.977580097,-2.680509649,-0.540702559,3.320985336,0.9804015520666938,-0.16170746427138874,0.10815800871727048,0.0310698866179215,4.99,6.0,0.081603257,0.017618601,0.976500637,-0.354929894,-0.924863232,2.927134475,0.9939259612513476,0.06551698631972941,0.005302714707957656,0.0882643148213983,4.991,7.0,-0.329466238,0.398249616,0.832804443,2.325938448,1.749353527,3.532387154,0.7717802702854842,0.1985189447010749,0.2114724671592727,0.5658841212000976,4.991,8.0,0.494646121,-0.753160202,0.384832334,1.379621744,0.610277684,0.811251227,0.6249538730255862,-0.7424007828012504,-0.18426687946184864,-0.15594695065887823
75,5.054,0.0,0.146390082,0.009429772,0.969352889,-0.229578507,0.545523282,0.448025122,0.5463039076986499,0.07020178589125656,-0.043288375492608694,0.8335165662649269,5.054,1.0,0.169233137,-0.097240028,0.959905476,-1.933939121,-0.093541031,-3.265293099,0.6749482726952943,0.013548736100428624,-0.21127904238550277,0.7068397464661876,5.054,2.0,0.118461946,-0.162594383,0.959374189,-2.816452273,0.082379178,-1.929607553,0.8659382435161944,-0.13678290456880504,-0.22497966663496785,0.42523586988238404,5.054,3.0,0.100240716,0.169100494,0.96025352,1.775133379,0.826392772,-1.15464846,0.5840598073394708,0.1918545147427699,0.19075407408629902,0.7652965894624616,5.054,4.0,0.190677184,0.145027222,0.948954855,2.125948002,-2.059467042,-0.136716061,0.502513181795943,0.33209130480672017,0.12664593659263185,0.7881349339660454,5.095,5.0,0.079472925,-0.153914666,0.964782012,-0.562914725,-1.232185939,3.849593014,0.9598226459562531,-0.1553732412275666,0.061588234617596396,0.22540304695514965,5.095,6.0,0.086518275,-0.031538783,0.975319893,-0.635914071,-0.059157485,3.680148784,0.9640363062431004,0.027540301489607767,-0.010356487676822209,0.26413684938308096,5.095,7.0,-0.262696996,0.441279084,0.8333817,-2.401917682,-0.933279658,3.600378254,0.7008889573318638,0.16891267961160106,0.08249357211644213,0.6880537673148449,5.096,8.0,0.342717886,-0.681386018,0.61581129,5.121568384,0.384977909,3.039205674,0.8555474040103271,-0.5042769779283984,-0.11700846345617408,-0.007237990205634928
76,5.151,0.0,0.120640594,-0.012941508,0.972266612,-0.432503923,0.345297498,0.139725705,0.5428841431383047,0.041562792855286815,-0.05184925425473833,0.8371744120625549,5.151,1.0,0.169273554,-0.155558989,0.952101814,-1.237571941,0.651138113,-3.349970968,0.7997587283363343,-0.023410132114538153,-0.22200141342281107,0.5572731059386443,5.151,2.0,0.173035001,-0.289564709,0.920280483,-2.150885099,-0.062722495,-3.527651624,0.9095637076118898,-0.1872464298003443,-0.29344609395413596,0.22698463883134862,5.151,3.0,0.066648952,0.264242514,0.940744817,1.10299793,0.209288992,0.723112518,0.546144082560749,0.21355965471152089,0.22110010897333146,0.7792519854163702,5.152,4.0,0.247264293,0.298678004,0.899413597,2.044585546,-0.937160222,-1.955254042,0.5535252791844261,0.3987115607690203,0.21425404286257393,0.6990951735850972,5.126,5.0,0.043537799,-0.23945671,0.94877497,-1.028498901,-0.467742076,4.205772394,0.8908274587079207,-0.17675106336077348,0.055255469123239365,0.4148883386464295,5.126,6.0,0.066997163,-0.118703322,0.970097882,-0.891153367,0.21752545,5.735704251,0.8635298275066359,-0.024244604507685258,-0.008746944510532019,0.5036386870767131,5.126,7.0,-0.097951859,0.484949012,0.845505109,1.818763507,0.00269032,3.49525417,0.5694491827206483,0.23343305308747866,0.11719842333828018,0.7794236124162941,5.126,8.0,0.199053087,-0.298598741,0.912323222,6.482317905,-0.166620406,4.692406391,0.9557996603940629,-0.1482285442172629,-0.0795265000735373,0.2411448603140413
77,5.189,0.0,0.096653783,-0.040320259,0.974275794,-0.358081863,0.35647645,0.134493832,0.5390292291796527,0.015513645900180307,-0.056579601601541143,0.840241373394267,5.189,1.0,0.163285102,-0.167786979,0.951317773,-0.420458701,0.243324591,-1.646651908,0.848280570445512,-0.02934520488566938,-0.21483809521912153,0.48311854197233484,5.189,2.0,0.226574053,-0.354562103,0.885096556,-1.1295331,-0.055805826,-1.467379965,0.9152828983241083,-0.21243380893651645,-0.31031932237065,0.14432952234232707,5.189,3.0,0.062129035,0.298719859,0.93131704,0.304249948,0.318105167,0.16988058,0.5352846958778417,0.2018375915431755,0.22886228287989496,0.787625505220609,5.19,4.0,0.238708838,0.398285246,0.862668508,0.945451584,-0.554833403,-1.274397374,0.5897479686660457,0.4156042148692316,0.24587583313424644,0.6473141005089741,5.197,5.0,0.0442817,-0.325253067,0.921878285,-1.345978156,-0.332194613,0.970966047,0.8601663037508075,-0.22174583016770072,0.009813439268713671,0.4591801532129085,5.198,6.0,-0.022611654,-0.2274637,0.953114357,-1.549145667,0.601801391,4.067831386,0.7533091694233466,-0.10642518597905205,-0.007105840139941653,0.6489595380976672,5.198,7.0,0.082535246,0.369219697,0.904029728,-1.250256921,-3.519558347,3.080060688,0.48980844004995355,0.352523083617521,-0.0707607557141332,0.7942342746465871,5.198,8.0,0.092797408,0.388127948,0.894882303,5.630248782,2.694506268,-2.441755345,0.9751940120910736,0.14764559929947058,0.14574104044335867,0.07718137676734013
78,5.263,0.0,0.073698208,-0.057332095,0.975075179,-0.235042423,0.431222095,0.145707739,0.5344371047528361,-0.009265106589356566,-0.053719044046134534,0.8434485183874967,5.263,1.0,0.189422059,-0.171492542,0.94467486,-0.115203807,-0.308231651,-0.968812019,0.8692150772478185,-0.01629268648916999,-0.22302752863607694,0.4409743975816716,5.263,2.0,0.251986371,-0.383769051,0.866250647,-0.467228454,-0.05220695,-0.823898641,0.9196619604056905,-0.2171121618835302,-0.3107924429976719,0.10243166073319704,5.263,3.0,0.025677291,0.298728281,0.933125442,-0.193247562,0.606891414,0.088440227,0.5296823242649782,0.16392147346882469,0.22612467856028304,0.8008957582875991,5.263,4.0,0.231425124,0.421588062,0.853672606,-0.089883029,0.712460164,-0.264782512,0.5974238816650919,0.3705186144721012,0.25490236662676113,0.6639468694360754,5.257,5.0,0.095100039,-0.156671223,0.932998451,-5.724297769,5.700804379,-13.97438159,0.771303968401868,-0.4553565073279527,-0.19220308348329274,-0.40099702525222397,5.258,6.0,0.250413502,-0.195085564,1.016886769,-15.74143415,3.348909662,0.801591521,0.6034628511684429,-0.6658421577575241,-0.36885340635791813,0.23755835668445494,5.258,7.0,0.068486894,0.450239109,0.901908693,7.546287498,8.851387279,-33.65739194,0.4293668716091564,0.18956420357562861,0.5803838979752156,-0.6654803026825049,5.258,8.0,0.03587826,1.192392221,0.544884889,20.24587534,1.718468182,-10.44175229,0.4568685084171177,0.5147281459260005,0.42062192548915195,-0.5911034576164299
79,5.342,0.0,0.046897929,-0.051347937,0.977058838,0.321027003,0.387293525,-0.04583547,0.5377576655399456,-0.015296057264071213,-0.027937821919568884,0.8424975975583507,5.343,1.0,0.199604431,-0.162318465,0.945749855,0.184915547,0.094207276,-0.084583791,0.8738780819653256,-0.010450573494691497,-0.20561647719544648,0.44039726120852557,5.343,2.0,0.25507239,-0.365927731,0.872264279,0.65274277,0.272279329,-0.14769168,0.9365344184109862,-0.18125658623222082,-0.2810422490125495,0.10518834226759709,5.343,3.0,0.001282211,0.269113712,0.941423478,-0.719708279,0.434751541,0.110382274,0.5287754088097186,0.12039872992602474,0.1974588207224907,0.8166460230658068,5.343,4.0,0.185725659,0.390664135,0.879600769,-1.024052458,0.970493939,0.630218391,0.5879815038564945,0.3013542485274749,0.2248719376929596,0.7161675639508605,5.318,5.0,0.015115776,-0.377306746,0.904564609,-0.617594635,0.319789498,0.56690953,0.7883581004684023,-0.4562191624518065,-0.13084830642370987,-0.3914515320492072,5.318,6.0,-0.103151658,-0.320310327,0.919442238,-1.824227384,1.234257719,0.609146639,0.5891763999091358,-0.718886121429073,-0.31140392215172735,0.19774102122547857,5.318,7.0,0.157258936,0.383101011,0.887486475,0.556332972,1.039810959,-3.186824237,0.31145386584408136,0.13303483115429923,0.5690761651809586,-0.749300034280967,5.318,8.0,-0.012922074,0.485237165,0.851810374,0.10005307,0.912663285,2.530894414,0.5397133788641341,0.5839049328531905,0.3278433801828813,-0.5101795920409138
