Timestamp,Ax,Ay,Az,Rx,Ry,Rz,EMG
0,0.071,-1.0129,0.0176,-0.2045,0.0888,0.0953,2058
0,0.0735,-1.0183,0.0186,-0.2127,0.1021,0.0882,1991
0,0.071,-1.0105,-0.03,-0.2116,0.121,0.0856,2067
0,0.0894,-1.0044,-0.0188,-0.2203,0.1072,0.1107,2041
0,0.0557,-0.9961,0.0032,-0.1965,0.0523,0.1384,2050
0,0.0513,-1.0095,0.0173,-0.1762,0.0615,0.1534,2030
0,0.0752,-1.0225,0.0244,-0.1447,0.0682,0.1711,2056
0,0.0598,-1.0061,0.0576,-0.1063,0.0591,0.2043,2059
0,0.0608,-1.012,0.0315,-0.0655,0.0598,0.2458,2055
0,0.0674,-1.0103,0.0115,-0.0506,0.0601,0.2577,2047
0,0.0449,-0.9866,0.009,-0.0457,0.0467,0.277,2052
0,0.0645,-0.9756,-0.0076,-0.0088,0.0706,0.3009,2010
0,0.0532,-0.9978,0.0615,-0.0079,-0.0224,0.2703,2045
0,0.0078,-1.0007,0.071,-0.0193,-0.1364,0.222,2009
0,-0.0049,-1.0208,0.0854,-0.0085,-0.2767,0.1591,2049
0,-0.0286,-1.03,0.0906,-0.0128,-0.3674,0.1473,2047
0,-0.0276,-1.0046,0.0723,-0.0177,-0.3594,0.1932,2043
0,-0.0376,-1.0066,0.0637,-0.0015,-0.3249,0.1968,2071
0,-0.0237,-1.0195,0.0608,0.0097,-0.2907,0.1892,2057
0,0.0166,-0.9958,0.0574,0.0261,-0.1646,0.2244,2058
0,0.0649,-1.0129,0.0537,0.0441,-0.2017,0.2489,2038
0,0.0049,-1.0039,0.1011,0.0312,-0.2587,0.2436,2065
0,-0.0144,-1.0071,0.0918,0.0435,-0.2201,0.2772,2051
0,0.0078,-1.0,0.0828,0.0418,-0.2228,0.2772,2051
0,0.0005,-1.0005,0.0706,0.0664,-0.2296,0.3063,2056
0,0.011,-0.9941,0.0532,0.0762,-0.2502,0.3157,2069
0,0.0547,-1.0056,0.0298,0.0382,-0.1923,0.3518,2112
0,0.0312,-1.0254,0.0322,-0.0132,-0.2484,0.3374,2069
0,-0.001,-1.0015,0.0225,-0.0012,-0.2783,0.3722,2097
0,0.0032,-1.001,0.0515,-0.017,-0.2482,0.3786,2037
0,-0.0249,-1.0288,0.0398,-0.0125,-0.278,0.3814,2040
0,-0.0205,-1.0112,0.0818,0.0117,-0.3545,0.3886,2059
0,-0.051,-1.022,0.0908,0.0381,-0.3867,0.3967,2069
0,-0.042,-1.0112,0.0957,0.0547,-0.4406,0.3916,2056
0,-0.0647,-1.0034,0.0896,0.0521,-0.4321,0.3902,2023
0,-0.0376,-1.0056,0.0571,0.068,-0.4199,0.4129,2034
0,-0.0037,-1.0107,0.0527,0.0579,-0.4396,0.4332,2035
0,0.0137,-1.0027,0.0288,0.0728,-0.4706,0.4667,2013
0,-0.2307,-0.9487,0.0063,0.1063,-0.2745,0.1489,2013
0,0.0479,-0.9944,0.0298,0.1057,-0.1995,0.4224,2033
0,0.0088,-1.0095,0.0767,0.0824,-0.3073,0.3887,2061
0,-0.0134,-0.9939,0.073,0.0997,-0.3228,0.5389,2040
0,0.0024,-0.9731,0.0481,0.1413,-0.3071,0.6209,2051
0,0.0422,-1.002,0.0601,0.167,-0.3774,0.738,2011
0,0.03,-0.9973,0.0813,0.1727,-0.4336,0.8368,2067
0,0.0396,-0.9851,0.1177,0.193,-0.479,0.9489,2070
0,0.0303,-0.9917,0.1299,0.1719,-0.4506,1.0242,2065
0,0.05,-1.0042,0.1577,0.1304,-0.4975,1.091,2047
0,0.074,-1.0164,0.1016,0.1336,-0.5751,1.2248,2043
0,0.0054,-1.0103,0.1162,0.1017,-0.5303,1.3224,2030
0,0.0596,-1.0339,0.0662,0.0716,-0.6703,1.4073,2064
0,-0.0134,-1.0525,0.0527,0.0848,-0.6911,1.4663,2005
0,-0.0176,-1.0913,0.0522,0.0531,-0.7251,1.4836,2056
0,-0.0376,-1.1172,0.0715,0.0858,-0.8263,1.5315,2053
0,0.0017,-1.1992,0.1042,0.11,-0.9431,1.5777,2051
0,-0.0251,-1.1968,0.134,0.0929,-1.1607,1.5479,2054
0,0.1633,-1.2502,0.1753,0.1019,-1.3762,1.586,2059
0,0.2539,-1.1421,0.2329,0.0397,-1.7471,1.5151,2069
0,0.2612,-1.1829,0.3564,0.0285,-2.3032,1.527,2060
0,0.4604,-1.3823,0.4275,-0.0244,-2.9355,1.549,2040
0,0.5173,-1.6816,0.5227,-0.114,-3.5199,1.5934,2044
0,0.5049,-1.7354,0.5957,-0.2144,-3.5609,1.7795,2045
0,0.2988,-1.7173,0.6233,-0.3781,-3.0906,2.1377,2098
0,0.2021,-1.6711,0.4966,-0.6424,-2.0169,2.3478,2074
0,0.262,-1.4902,0.4297,-0.7448,-1.9283,2.3698,2035
0,0.1526,-1.4717,0.3635,-0.8717,-2.5157,2.2763,1998
0,-0.071,-1.4956,0.1008,-1.1219,-2.3952,2.2924,1949
0,-0.302,-1.313,0.0461,-0.8895,-2.5847,2.6305,1996
0,-0.2925,-1.2883,0.2168,-0.8661,-3.3547,2.5848,2079
0,-0.6318,-1.2449,0.2419,-1.0022,-3.8609,2.3983,1981
0,-0.5171,-1.0579,0.1458,-0.9903,-3.9077,2.5011,2026
0,-0.2856,-0.8179,0.1313,-0.9228,-4.0676,2.7309,2061
0,-0.2935,-1.0188,0.167,-0.9686,-4.3635,2.9494,2065
0,-0.323,-0.4915,0.1428,-0.8214,-4.3635,3.1048,2055
0,-0.4651,0.3181,0.0586,-0.0711,-4.3635,3.3907,2049
0,1.45,-0.1243,-0.0618,-0.8837,-4.3635,1.9385,2060
0,-1.2192,-0.0498,0.7795,-1.3194,-4.3635,2.0126,2056
0,-1.3567,-0.4863,0.3967,-1.3432,-4.3635,1.2611,2069
0,-1.0469,-0.4814,0.4148,-1.1351,-3.6298,-0.0144,2057
0,-0.9058,-0.4138,0.5317,-1.0962,-2.3894,-1.0756,2060
0,0.1699,-0.4004,0.9277,-1.9698,-2.9295,-0.7307,2057
0,-0.2046,-0.4597,0.3599,-2.2505,-3.4411,-0.9597,2053
0,-0.6914,-0.4124,-0.021,-2.0523,-1.4267,-0.9543,2052
0,0.0017,-0.4551,0.2468,-2.1204,-1.2262,-1.3038,2055
0,0.6274,-0.3862,0.3589,-2.392,-2.2976,-1.6478,2052
0,-0.448,-0.4141,0.0862,-2.0908,-2.1631,-1.7407,2052
0,-0.2939,-0.585,0.3342,-1.9121,-1.6768,-1.6419,2043
0,-0.0972,-0.5701,0.3389,-1.9833,-1.4711,-1.747,2052
0,-0.0867,-0.5339,0.3901,-1.9342,-1.5808,-1.9672,2066
0,-0.1458,-0.5767,0.4216,-1.941,-2.0206,-2.1495,2047
0,-0.3208,-0.658,0.3137,-2.0399,-1.9373,-2.274,2047
0,-0.3901,-0.7686,0.2246,-2.0825,-1.6869,-2.3722,2046
0,-0.3232,-0.9661,0.1602,-2.1646,-1.6763,-2.4507,2054
0,-0.2156,-1.0227,0.1362,-2.2724,-1.8682,-2.4731,2058
0,-0.106,-0.9407,0.0447,-2.279,-2.3657,-2.4105,2053
0,-0.0645,-0.9954,0.0608,-2.2723,-2.8064,-2.2723,2053
0,-0.0862,-1.1008,0.1509,-2.278,-3.1846,-2.1378,2053
0,-0.1365,-1.1816,0.2283,-2.3447,-3.5675,-2.0835,2051
0,-0.1782,-1.1973,0.2817,-2.4128,-3.8904,-1.9897,2056
0,-0.2646,-1.2031,0.301,-2.4444,-3.9861,-1.9378,2051
0,-0.427,-1.1882,0.3767,-2.4037,-3.8026,-1.9724,2061
1,-0.5286,-1.1111,0.46,-2.2137,-3.4439,-1.9398,2057
1,-0.4373,-1.0806,0.6357,-2.133,-2.9482,-1.7089,2062
1,-0.5178,-1.1353,0.6721,-2.017,-2.8205,-1.642,2048
1,-0.6716,-1.1924,0.6416,-1.8307,-2.6366,-1.4395,2039
1,-0.5637,-1.208,0.7927,-1.7827,-1.9016,-1.1262,2055
1,-0.9924,-1.5854,0.4099,-2.0768,-0.8287,-0.9885,2056
1,-0.6294,-0.356,0.8962,-0.4518,-0.6253,-0.5564,2058
1,-0.7627,-0.9792,1.1189,-0.1393,-0.0178,-0.3205,2052
1,-0.5076,-0.686,1.3203,0.5608,1.4953,-0.2332,2045
1,-0.7456,-0.5918,1.4114,1.156,2.6915,-0.4581,2039
1,-0.2788,-0.937,1.7214,1.1877,4.1727,-0.1301,2041
1,0.1296,-1.76,1.1946,0.2796,4.3634,0.4348,2000
1,0.9954,-1.1233,0.7207,-0.6209,4.3634,-0.4952,2076
1,1.094,-0.2971,0.0806,-0.4034,4.3634,-0.8779,2164
1,1.6611,-0.9697,-0.709,-0.0495,4.2156,-0.5259,2052
1,1.9999,-1.4092,-1.1431,0.3224,3.0486,-0.8106,2058
1,0.3667,-2.0,-0.8076,0.0076,1.1082,0.8188,1980
1,0.1089,-1.0732,0.2048,-0.1807,-0.3152,1.1378,2101
1,-0.886,-0.6167,0.8706,0.5003,-0.114,1.0732,2232
1,0.053,-0.2415,0.5479,1.3483,1.0629,1.1483,1970
1,0.0872,-1.406,0.4417,0.5662,0.8935,0.9214,2036
1,-0.2957,-1.0786,0.8081,-0.3679,0.0828,0.4914,2056
1,-0.5911,-0.8708,0.1658,-0.0044,1.0832,0.5976,2247
1,-0.1077,-0.9358,0.2051,0.2457,1.6584,0.5681,2082
1,0.0691,-1.0581,0.0217,-0.0272,1.074,0.5331,2057
1,-0.04,-1.1099,-0.2947,0.0237,0.7721,0.5076,2045
1,-0.0825,-0.8293,-0.1934,0.257,0.6601,0.5725,2048
1,-0.0715,-0.8618,0.0305,0.2827,0.4517,0.6209,2062
1,-0.1921,-1.1973,0.104,0.23,0.3577,0.3803,2031
1,-0.1763,-1.0557,0.2139,0.2244,0.387,0.3406,2030
1,-0.073,-0.9946,0.2117,0.1629,0.402,0.2783,2039
1,-0.0498,-1.0562,0.1606,0.176,0.4099,0.2546,2072
1,-0.002,-1.0835,0.0977,0.1872,0.3589,0.3085,2057
1,0.0122,-1.0002,0.0493,0.2101,0.2872,0.4043,2046
1,-0.0195,-0.9985,0.0388,0.1702,0.2313,0.3902,1979
1,-0.0269,-1.0378,0.0264,0.2032,0.182,0.3819,2038
1,-0.1428,-1.0657,0.0703,0.2386,0.125,0.3782,2073
1,-0.1697,-1.0176,0.1038,0.2642,0.1089,0.3594,2063
1,-0.1721,-1.0044,0.1338,0.2587,0.0585,0.3364,2049
1,-0.1277,-1.0107,0.1118,0.2835,0.0162,0.2671,2048
1,-0.1079,-1.0042,0.1245,0.286,-0.0044,0.2574,2065
1,-0.1096,-0.9878,0.1226,0.2767,-0.037,0.242,2058
1,-0.1118,-0.9871,0.1184,0.2583,-0.0605,0.1903,2058
1,-0.1177,-0.9863,0.1042,0.2401,-0.0481,0.1242,2109
1,-0.0747,-0.9976,0.1194,0.2464,-0.0614,0.1067,2113
1,-0.0715,-1.0049,0.1272,0.2466,-0.0437,0.1065,2044
1,-0.0671,-0.9934,0.1052,0.2623,-0.031,0.1057,2069
1,-0.0293,-1.0125,0.0911,0.271,-0.0202,0.1157,2048
1,-0.0156,-0.9841,0.0696,0.2842,-0.0044,0.1567,2028
1,0.0134,-0.9949,0.064,0.2927,-0.019,0.1971,2051
1,0.0393,-0.9934,0.0591,0.3131,-0.0499,0.2518,2035
1,0.0535,-0.9829,0.0718,0.349,-0.0553,0.3139,2071
1,0.0791,-1.01,0.0667,0.3836,-0.0862,0.3867,2081
1,0.0967,-1.001,0.0657,0.4056,-0.0642,0.4681,2022
1,0.095,-1.0073,0.0986,0.4442,-0.0601,0.5355,2066
1,0.1104,-0.9907,0.0977,0.4938,-0.0429,0.5939,2054
1,0.0769,-0.9832,0.0889,0.5414,-0.0265,0.6829,2056
1,0.0078,-0.9622,0.0923,0.5838,-0.0633,0.7283,2055
1,-0.0208,-0.9517,0.1157,0.6348,-0.1836,0.7569,2051
1,-0.0227,-0.9146,0.1282,0.6899,-0.3862,0.7264,2048
1,-0.1384,-0.8806,0.1338,0.7644,-0.5698,0.7984,2052
1,-0.2131,-0.9495,0.1353,0.8148,-0.6151,0.8628,2046
1,-0.1362,-0.9751,0.0754,0.8863,-0.602,0.8624,2038
1,-0.1555,-1.0664,0.1763,0.857,-0.4745,0.857,2076
1,-0.2539,-1.0537,0.2131,0.7981,-0.492,0.8528,2049
1,-0.2988,-1.0508,0.2908,0.7714,-0.5035,0.8352,2021
1,-0.2668,-1.0964,0.3518,0.6806,-0.5797,0.8512,2045
1,-0.2888,-1.0391,0.3853,0.5831,-0.6861,0.8526,2054
1,-0.3049,-1.0723,0.3955,0.5036,-0.7721,0.7962,2060
1,-0.2981,-1.0449,0.3557,0.4485,-0.7845,0.6851,2054
1,-0.2988,-1.0403,0.3225,0.4329,-0.8092,0.5721,2053
1,-0.2542,-1.0781,0.2737,0.3878,-0.8624,0.4666,2053
1,-0.2361,-1.0496,0.2546,0.3931,-0.9176,0.3879,2048
1,-0.269,-1.0234,0.2461,0.4065,-0.9738,0.336,2053
1,-0.3015,-1.0239,0.2253,0.4196,-0.9945,0.2502,2044
1,-0.2388,-0.9919,0.2302,0.3939,-1.1114,0.1838,2051
1,-0.2153,-0.9392,0.196,0.4192,-1.1465,0.128,2045
1,-0.2366,-0.9099,0.196,0.3942,-1.1529,0.0892,2051
1,-0.1877,-0.918,0.2173,0.3855,-1.1753,0.0634,2054
1,-0.1492,-0.8818,0.1853,0.2978,-1.2967,0.089,2056
1,-0.1169,-0.9053,0.1365,0.2143,-1.3938,0.0875,2052
1,-0.0688,-0.9033,0.094,0.1028,-1.6386,0.0963,2053
1,-0.0957,-0.9133,0.0891,0.0129,-1.9084,0.1128,2038
1,-0.0618,-0.9336,0.103,-0.1128,-2.2501,0.1313,2048
1,-0.1033,-0.9302,0.1357,-0.2408,-2.5029,0.1265,2056
1,-0.0991,-0.9324,0.1348,-0.3669,-2.76,0.1386,2053
1,-0.1267,-0.9287,0.1936,-0.4717,-2.9838,0.1417,2060
1,-0.1265,-0.947,0.2339,-0.5647,-3.1605,0.1523,2075
1,-0.1057,-0.9478,0.2683,-0.6421,-3.2987,0.1589,2051
1,-0.1895,-0.9812,0.3186,-0.6251,-3.3063,0.2314,2054
1,-0.2261,-0.8726,0.5168,-0.4095,-3.1926,0.2855,2052
1,-0.2317,-0.9236,0.6797,-0.285,-2.9104,0.2876,2060
1,-0.2939,-0.9817,0.801,-0.1778,-2.5266,0.2878,2047
1,-0.2395,-0.8372,0.8921,-0.0356,-2.0675,0.1899,2054
1,-0.2556,-0.9338,0.8599,-0.0063,-1.4711,0.0509,2053
1,-0.1921,-0.8728,0.8167,0.0346,-0.8911,-0.0481,2051
1,-0.2014,-0.8618,0.7861,0.0896,-0.39,-0.1362,2045
1,-0.2583,-0.8401,0.7087,0.0912,0.141,-0.2242,2043
1,-0.1489,-0.8542,0.7065,0.1238,0.4986,-0.3171,2044
1,0.0212,-0.9158,0.6279,0.0491,0.5233,-0.3177,2043
1,-0.0459,-0.9026,0.4534,0.0202,0.4287,-0.2487,2035
1,-0.1296,-0.9277,0.3413,0.0553,0.4197,-0.2647,2037
1,-0.0864,-0.9746,0.3047,0.0156,0.383,-0.2679,2019
2,0.009,-0.916,0.0938,-0.0724,0.5666,-0.2702,2076
2,0.0381,-0.9614,0.1758,-0.0204,0.5601,-0.2195,2079
2,-0.0408,-0.9766,0.2603,-0.0505,0.31,-0.1554,2036
2,-0.0845,-0.9812,0.1814,-0.0526,0.2023,-0.1229,2038
2,-0.1558,-0.9624,0.229,-0.0358,0.1136,-0.1153,2065
2,-0.1055,-0.9338,0.1599,-0.0554,0.2437,-0.1095,2067
2,-0.136,-0.9778,0.2544,-0.0459,0.196,-0.1107,2061
2,-0.1621,-0.9822,0.3352,-0.0702,0.1269,-0.1012,2049
2,-0.2068,-0.9536,0.3457,-0.0493,0.0582,-0.1144,2051
2,-0.1389,-0.9553,0.3926,-0.0253,0.0257,-0.1324,2052
2,-0.1172,-0.9741,0.4055,-0.021,0.0047,-0.1381,2052
2,-0.0955,-0.979,0.4128,-0.0208,-0.0092,-0.1324,2061
2,-0.0552,-0.9905,0.4175,-0.0338,-0.0036,-0.1185,2048
2,-0.0271,-0.9883,0.4087,-0.0413,0.0198,-0.0945,2053
2,-0.0117,-0.9724,0.3938,-0.0368,0.066,-0.0656,2050
2,-0.0054,-0.9832,0.3945,-0.0407,0.0959,-0.0406,2054
2,0.02,-0.9807,0.3704,-0.0469,0.1384,-0.0069,2018
2,0.0371,-0.9807,0.313,-0.0609,0.2546,0.0348,2071
2,0.002,-0.9951,0.3435,-0.073,0.2402,0.0688,2044
2,-0.0232,-1.0076,0.3408,-0.0704,0.2192,0.1053,2051
2,-0.0593,-1.0076,0.3069,-0.0707,0.1818,0.1353,2053
2,-0.0618,-0.9934,0.3059,-0.0656,0.1495,0.1591,2051
2,-0.0811,-0.9905,0.3115,-0.0502,0.1175,0.1804,2055
2,-0.0884,-0.9795,0.311,-0.043,0.0892,0.194,2053
2,-0.0981,-0.9773,0.334,-0.0304,0.0695,0.1988,2047
2,-0.1099,-0.9836,0.3501,-0.043,0.038,0.1942,2050
2,-0.1399,-0.9783,0.3333,-0.0322,0.0288,0.1928,2047
2,-0.1504,-0.9839,0.3494,-0.0272,0.0224,0.1756,2053
2,-0.1421,-0.9944,0.3501,-0.032,0.0289,0.1337,2051
2,-0.1431,-1.0032,0.364,-0.0438,0.0075,0.0985,2050
2,-0.1357,-0.9858,0.384,-0.0666,-0.0357,0.057,2058
2,-0.1204,-0.9836,0.3838,-0.0888,-0.0328,0.0304,2049
2,-0.1272,-0.9524,0.3579,-0.1261,-0.0245,0.0489,2051
2,-0.1421,-0.946,0.3513,-0.1281,0.0027,0.0581,2052
2,-0.1445,-0.9241,0.3547,-0.1163,0.0285,0.0562,2063
2,-0.1331,-0.9402,0.3374,-0.1053,0.0704,0.0601,2049
2,-0.1389,-0.9272,0.353,-0.0989,0.084,0.0527,2053
2,-0.1633,-0.9163,0.3601,-0.0902,0.0868,0.0601,2051
2,-0.1824,-0.9097,0.3726,-0.0906,0.1149,0.0557,2055
2,-0.1851,-0.9104,0.3506,-0.0904,0.1626,0.0555,2060
2,-0.1543,-0.9177,0.3271,-0.0823,0.2236,0.0591,2055
2,-0.1389,-0.9417,0.3,-0.07,0.2527,0.0682,2054
2,-0.1211,-0.9436,0.2888,-0.0682,0.2277,0.0802,2060
2,-0.0891,-0.9485,0.2839,-0.0925,0.194,0.102,2056
2,-0.0798,-0.9512,0.2727,-0.0927,0.1538,0.1308,2054
2,-0.0774,-0.9404,0.3042,-0.1181,0.1015,0.1551,2047
2,-0.0811,-0.9316,0.3181,-0.123,0.0704,0.1899,2045
2,-0.0764,-0.9231,0.3284,-0.147,0.0611,0.2128,2038
2,-0.0752,-0.9211,0.3623,-0.1463,0.0859,0.2241,2057
2,-0.0784,-0.9482,0.3765,-0.1273,0.1417,0.2487,2048
2,-0.0522,-0.9895,0.364,-0.119,0.1922,0.286,2037
2,-0.0198,-1.0166,0.3579,-0.1368,0.235,0.3229,2050
2,0.0,-1.0288,0.3303,-0.1506,0.2722,0.3681,2054
2,0.0005,-1.0513,0.2927,-0.1521,0.2731,0.4231,2050
2,0.0085,-1.0649,0.2905,-0.1655,0.2629,0.4669,2046
2,-0.0181,-1.0718,0.2756,-0.1663,0.2547,0.51,2053
2,-0.0288,-1.0764,0.2502,-0.1506,0.2246,0.55,2051
2,-0.0474,-1.0823,0.2361,-0.1338,0.2063,0.5845,2046
2,-0.0674,-1.0789,0.2244,-0.1152,0.1997,0.608,2054
2,-0.0784,-1.0723,0.2136,-0.0892,0.165,0.6384,2054
2,-0.1089,-1.0872,0.179,-0.0774,0.1573,0.6549,2052
2,-0.1421,-1.0618,0.1921,-0.0395,0.1081,0.6629,2051
2,-0.1729,-1.0042,0.2449,-0.0112,0.0967,0.662,2050
2,-0.1985,-1.009,0.2412,0.0342,0.0899,0.6601,2048
2,-0.2249,-0.9712,0.2422,0.0755,0.1044,0.6521,2047
2,-0.2334,-0.9568,0.281,0.1218,0.1059,0.6494,2049
2,-0.2146,-0.9988,0.2673,0.1487,0.1119,0.655,2053
2,-0.2153,-1.0083,0.2764,0.1477,0.135,0.6409,2054
2,-0.2104,-0.98,0.2905,0.1605,0.1665,0.6381,2049
2,-0.2,-0.9944,0.2756,0.173,0.1759,0.6465,2044
2,-0.2197,-0.9966,0.2947,0.2079,0.2458,0.6541,2049
2,-0.1953,-1.0139,0.3333,0.2653,0.2931,0.6621,2053
2,-0.2004,-1.0669,0.4233,0.2542,0.4034,0.6706,2045
2,-0.2654,-1.0796,0.5308,0.2453,0.5544,0.6617,2049
2,-0.3101,-1.0195,0.4819,0.2156,0.7058,0.6454,2059
2,-0.2632,-0.978,0.4221,0.2678,0.8893,0.5971,2057
2,-0.2349,-1.0193,0.415,0.2864,1.1407,0.56,2059
2,-0.3625,-0.97,0.4387,0.3422,1.4043,0.4803,2056
2,-0.3848,-0.8062,0.4895,0.4458,1.5757,0.3598,2063
2,-0.3228,-0.7942,0.4756,0.4679,1.6543,0.2687,2039
2,-0.3557,-0.7351,0.4314,0.4971,1.6721,0.182,2057
2,-0.4512,-0.543,0.4514,0.5397,1.8383,-0.0735,2056
2,-0.3625,-0.4497,0.5237,0.5377,1.9346,-0.2297,2045
2,-0.1807,-0.4951,0.3674,0.296,2.2209,-0.406,2058
2,-0.0337,-0.4434,0.2217,0.1657,2.2256,-0.5505,2048
2,-0.1191,-0.4023,0.2881,0.1541,2.0674,-0.7757,2054
2,-0.0918,-0.4387,0.2861,0.0919,2.0623,-1.0148,2040
2,0.0225,-0.4861,0.1899,-0.0453,1.9768,-1.1772,2050
2,-0.0381,-0.4458,0.1062,-0.0775,1.8616,-1.2967,2053
2,-0.0503,-0.4741,0.0901,-0.1011,1.7016,-1.3929,2061
2,-0.24,-0.6633,-0.2349,-0.0465,1.737,-0.8488,2050
2,-1.1433,-0.6404,0.0659,-0.2329,2.1133,-1.3013,2074
2,-0.5754,-1.1323,-0.0762,-0.3634,2.1482,-0.8144,2063
2,-1.4546,-1.5591,-0.5127,-0.5227,1.0523,0.1079,2082
2,-2.0,-1.6453,0.2896,-0.049,0.3032,0.5256,2061
2,0.3093,-1.0674,-0.6396,-1.1744,1.2123,-0.0831,2011
2,1.9999,-0.9019,-0.6111,-1.3175,0.4115,-0.1768,2121
2,-0.2515,-1.1526,-0.335,-0.9078,-1.0029,0.3326,2029
2,-1.3005,-1.5439,0.6294,-0.9572,-0.1674,0.1498,2004
2,-0.1111,-1.134,0.4343,-1.0254,-0.1408,0.0736,2023
2,-0.3401,-0.7527,0.718,-1.0007,-0.4599,-0.0045,2074
2,-1.0649,-1.0344,0.802,-1.0373,0.293,-0.161,2051
2,-0.5552,-0.8884,0.7864,-0.9953,0.7132,-0.2815,2060
3,-0.3486,-0.9097,0.5938,-0.9998,0.8863,-0.3357,2114
3,-0.3193,-1.1443,0.3032,-1.1077,0.8592,-0.4147,2066
3,-0.3535,-1.167,0.1348,-1.1915,0.9144,-0.4494,2099
3,-0.1296,-1.2297,0.113,-1.2109,0.7372,-0.4469,2021
3,-0.2468,-1.1157,0.1711,-1.1977,0.5794,-0.4544,1981
3,-0.3357,-1.0474,0.1836,-1.1564,0.5778,-0.5299,2051
3,-0.4004,-0.9207,0.1089,-1.0987,0.5098,-0.5449,2036
3,-0.4692,-0.8914,-0.0305,-1.0573,0.4914,-0.6317,2059
3,-0.4417,-0.8792,-0.1406,-0.9963,0.5215,-0.7333,2058
3,-0.3782,-0.8726,-0.1797,-0.91,0.4731,-0.8568,2084
3,-0.4001,-0.8694,-0.1943,-0.8194,0.4566,-0.9871,2040
3,-0.3176,-0.9163,-0.231,-0.6886,0.416,-1.0801,2071
3,-0.3079,-0.9236,-0.231,-0.5755,0.3547,-1.1604,2057
3,-0.2458,-0.9512,-0.1936,-0.459,0.3095,-1.1962,2066
3,-0.1843,-0.9429,-0.1567,-0.3615,0.2048,-1.2046,2046
3,-0.2241,-0.9333,-0.0984,-0.2859,0.1522,-1.2133,2044
3,-0.208,-0.9382,-0.0249,-0.2306,0.1185,-1.2227,2059
3,-0.1978,-0.9463,0.0198,-0.1981,0.09,-1.2406,2052
3,-0.175,-0.9629,0.0283,-0.2063,0.1028,-1.258,2075
3,-0.1445,-0.9548,0.0527,-0.2458,0.1216,-1.2392,2056
3,-0.0723,-0.9646,0.0605,-0.2595,0.0798,-1.1587,2003
3,-0.0662,-0.9741,0.0532,-0.2843,0.0563,-1.0792,2033
3,-0.0771,-0.9299,0.0505,-0.3191,0.0349,-1.0256,2047
3,-0.0591,-0.8928,0.0483,-0.3124,0.0214,-0.8771,2032
3,-0.3201,-1.1135,0.1309,-0.2967,-0.1443,-0.9288,2040
3,-0.2166,-1.1428,0.0369,-0.3417,0.0313,-1.1043,2052
3,-0.072,-0.9412,0.0029,-0.3232,0.0394,-1.0784,2065
3,0.0251,-0.9563,-0.0471,-0.3542,-0.0051,-1.1023,2061
3,-0.0569,-0.9573,-0.1194,-0.3587,-0.0458,-1.1154,2030
3,-0.0425,-0.9421,-0.1392,-0.3247,-0.0197,-1.0966,2065
3,-0.0066,-0.9409,-0.1238,-0.2631,0.0091,-1.1139,2036
3,0.011,-0.968,-0.1033,-0.2506,-0.019,-1.0938,2052
3,0.0183,-0.9292,-0.1025,-0.2473,0.0117,-1.1038,2044
3,0.0469,-0.9641,-0.1094,-0.2318,0.0454,-1.0809,2033
3,0.2124,-0.8135,-0.0571,-0.3567,0.0672,-1.0212,2043
3,0.0725,-0.9094,-0.094,-0.381,-0.1005,-1.1218,2056
3,0.1392,-0.9792,-0.0469,-0.3388,-0.0867,-1.1993,2032
3,0.0386,-0.9482,-0.0056,-0.3433,-0.0666,-1.2541,2032
3,0.0281,-0.96,0.0466,-0.3297,0.0025,-1.242,2047
3,0.0449,-0.9939,0.0852,-0.3521,-0.03,-1.266,2056
3,0.0547,-0.9685,0.0552,-0.3871,-0.0834,-1.2669,2054
3,0.0581,-1.0068,0.0112,-0.422,-0.0947,-1.2749,1989
3,0.0972,-1.0122,-0.0374,-0.4825,-0.1802,-1.2564,2060
3,0.0642,-0.9766,-0.073,-0.5324,-0.1495,-1.2493,2055
3,0.0422,-0.9836,-0.0959,-0.5183,-0.1334,-1.288,2059
3,0.1465,-0.9722,-0.0837,-0.5518,-0.2416,-1.275,2062
3,0.1321,-0.9592,-0.0994,-0.5405,-0.3734,-1.2971,2070
3,0.0469,-1.0588,-0.1221,-0.6175,-0.337,-1.3507,2059
3,0.0168,-1.052,0.0381,-0.4987,-0.5279,-1.3424,2069
3,0.0146,-1.0647,0.0996,-0.5927,-0.3606,-1.3182,2048
3,0.0403,-1.1096,0.1846,-0.6625,-0.3143,-1.2274,2055
3,0.0654,-1.1846,0.2812,-0.7131,-0.4315,-1.2331,2056
3,0.0239,-1.208,0.3467,-0.73,-0.3509,-1.1443,2048
3,0.041,-1.1946,0.2314,-0.666,-0.3816,-1.005,2052
3,0.0886,-1.1973,0.1326,-0.6241,-0.3741,-1.0144,2056
3,0.2073,-1.1926,0.0667,-0.5934,-0.4034,-0.9373,2058
3,0.1619,-1.1033,0.1199,-0.4858,-0.5307,-0.8802,2054
3,-0.0205,-0.9949,0.1887,-0.2772,-0.5064,-0.8644,2052
3,0.0459,-0.8953,0.2805,0.1538,-0.2639,-0.8532,2045
3,0.2019,-0.2847,0.3972,0.7174,0.0617,-0.6309,2038
3,-0.7256,-0.5925,0.3813,1.1247,0.9376,-0.6062,2043
3,0.6509,-0.9644,0.0808,0.9143,2.5055,-1.2971,2054
3,1.0398,-1.0317,-0.3323,0.0031,2.7546,-1.0159,2073
3,1.1172,-0.8804,-0.7571,-0.3934,2.0871,-0.7126,2044
3,0.9248,-0.9355,-0.7781,-0.3555,1.3565,-0.3942,2074
3,0.5576,-1.731,-0.9331,-0.5693,1.1725,-0.5505,2073
3,1.5669,-0.8396,-0.616,0.2551,0.4545,-0.2282,2030
3,1.323,-1.0466,-0.6187,0.5682,-0.0836,0.1469,2034
3,1.1958,-1.1721,-0.5134,0.3589,-0.9764,0.5348,2043
3,0.8611,-0.9905,-0.5496,0.1752,-1.982,0.8752,2044
3,0.3569,-0.8359,-0.4568,0.3109,-2.076,0.9001,2032
3,0.2346,-0.8696,-0.168,0.4219,-1.8531,0.8883,2045
3,0.04,-1.0093,0.0847,0.3964,-1.638,0.9199,2037
3,0.1545,-0.9385,0.1157,0.3639,-1.2866,0.8203,2056
3,0.1152,-0.9541,0.1873,0.4436,-1.1306,0.9278,2051
3,0.22,-0.9438,0.135,0.5771,-0.6762,0.9529,2070
3,0.1558,-0.9875,0.1648,0.6837,-0.2199,1.0632,2073
3,0.1343,-1.0408,0.2212,0.7847,0.2519,1.1975,2067
3,-0.0146,-1.0383,0.2703,0.8906,0.8269,1.3161,2058
3,-0.0703,-1.0273,0.3735,1.1933,1.4291,1.385,2053
3,-0.0149,-1.0891,0.4768,1.4647,1.9672,1.4733,2077
3,-0.0103,-1.1765,0.488,1.5795,2.4085,1.5739,2056
3,0.4041,-1.2146,0.6482,1.5238,2.1063,1.9275,2059
3,0.0437,-1.1279,0.4937,1.5404,1.9351,2.006,2057
3,0.0242,-1.0537,0.5271,1.7771,1.9578,2.2189,2044
3,-0.0115,-1.1309,0.5544,1.8137,1.9383,2.2638,2043
3,-0.1567,-1.0845,0.572,1.8009,2.058,2.3039,2029
3,-0.1094,-0.9451,0.4985,1.7241,2.1358,2.2551,2045
3,-0.0337,-1.0103,0.3401,1.648,2.074,2.0943,2034
3,-0.3279,-0.8909,0.4102,1.6486,1.7447,1.9666,2030
3,-0.0977,-0.7888,0.3032,2.033,1.9217,2.2447,2056
3,-0.0349,-0.8442,0.4778,1.8359,1.9225,1.9485,2054
3,-0.1636,-0.8972,0.2646,1.5993,1.6143,1.855,2059
3,-0.0879,-0.7324,0.1104,1.756,1.36,1.9458,2056
3,-0.1438,-0.7307,0.2263,1.8357,1.0484,1.9287,2057
3,-0.1514,-0.7183,0.2539,1.8299,0.5871,1.9398,2059
3,-0.2483,-0.7427,0.2305,1.7992,0.3274,1.9217,2054
3,-0.3152,-0.7449,0.2346,1.7483,0.1607,1.8912,2054
3,-0.3423,-0.7429,0.2432,1.6492,0.1027,1.8634,2072
3,-0.3064,-0.7366,0.2327,1.5869,0.0597,1.8711,2044
3,-0.3213,-0.7263,0.2227,1.5137,0.1198,1.8915,2047
3,-0.3984,-0.7109,0.252,1.4806,0.2184,1.9197,2046
4,-0.4663,-0.6892,0.2893,1.4051,0.4695,1.904,2049
4,-0.8574,-0.0967,0.3027,2.1264,0.752,2.7922,2026
4,-0.719,-2.0,0.7146,0.5695,1.4784,1.3471,2046
4,0.2112,-0.1243,-0.489,0.6931,3.741,1.578,2104
4,-0.1509,-0.5784,-0.1895,0.899,2.6433,1.7471,2065
4,-0.4663,-1.4468,-0.2375,0.3056,3.6102,1.0866,2034
4,0.3669,-1.2256,-0.1721,-0.4421,4.3634,-0.3779,2047
4,1.4077,-1.2009,-0.063,-0.6665,4.3634,-0.6633,2046
4,1.9999,-2.0,-0.6826,-1.4637,4.3634,-1.8532,2083
4,1.9999,-2.0,-1.8916,-2.5912,2.5477,-1.6459,1785
4,1.1958,-2.0,-2.0,-2.2153,-1.0001,-0.7412,2139
4,0.6055,-2.0,-1.6199,-1.9049,-1.6118,-1.1037,2040
4,1.623,-1.7427,-0.0344,-1.7343,-3.1175,-0.8576,1966
4,0.5781,-1.1902,0.1252,-1.744,-4.3635,-1.001,2030
4,-0.8591,-0.8884,0.8818,-1.3479,-4.0872,-0.3076,2019
4,-1.2417,-0.6641,1.0728,-1.7651,-2.3691,-0.0836,2050
4,-0.9114,-0.198,0.5847,-1.638,-1.7488,-0.2758,2208
4,-1.2776,-0.3633,0.834,-1.5287,-0.5474,-0.5541,2058
4,-1.4028,-0.3391,1.0212,-1.4954,0.9075,-0.8562,2103
4,-0.8616,-1.3264,0.7332,-1.3185,1.4001,-1.6088,2035
4,0.2,-2.0,-0.0806,-1.2625,1.5868,-1.8377,2192
4,0.8164,-1.499,-0.7827,-1.1789,1.1782,-1.1738,2069
4,0.7729,-1.0579,-0.7024,-0.922,0.7162,-0.8349,2140
4,0.1985,-0.791,0.0151,-0.7666,0.2093,-0.6802,2005
4,-0.3142,-0.6577,0.2581,-0.6124,0.1567,-0.7387,2030
4,-0.438,-0.8193,0.2141,-0.5705,0.0539,-0.7992,2002
4,-0.3188,-0.918,-0.0076,-0.5301,0.3286,-0.785,2032
4,-0.2734,-1.1799,-0.0034,-0.5175,0.3753,-0.7845,2061
4,-0.3296,-1.0872,-0.0657,-0.585,0.3951,-0.9067,2039
4,-0.2642,-0.9258,-0.1553,-0.5092,0.4509,-1.0272,2108
4,-0.1128,-0.9375,-0.1992,-0.4014,0.424,-1.0552,2049
4,-0.0264,-0.9717,-0.1318,-0.3003,0.3007,-0.9874,2042
4,-0.0293,-0.9258,-0.0645,-0.2425,0.2499,-0.9001,2061
4,-0.0457,-0.8899,-0.0598,-0.1922,0.2499,-0.7946,2069
4,-0.106,-0.9177,-0.0493,-0.1305,0.2085,-0.7248,2042
4,-0.1506,-0.9092,0.0173,-0.0937,0.2237,-0.6188,2109
4,-0.2131,-0.9312,0.0881,-0.1304,0.3357,-0.6217,2058
4,-0.301,-1.0317,0.1145,-0.2318,0.5329,-0.6594,2060
4,-0.2393,-1.1572,0.0706,-0.2971,0.7973,-0.7131,2018
4,-0.0432,-1.1448,-0.0125,-0.1467,0.4978,-0.961,2081
4,0.0901,-0.9495,-0.0635,-0.1168,0.4746,-0.8413,2005
4,0.1528,-0.9368,-0.1067,-0.0882,0.3984,-0.844,2043
4,0.1372,-0.97,-0.124,-0.055,0.2033,-0.7799,2030
4,0.0913,-0.9497,-0.0955,-0.0345,0.082,-0.7596,2037
4,0.0488,-0.9663,-0.0923,-0.0446,0.0647,-0.7589,2062
4,0.0505,-0.9976,-0.0908,-0.0226,0.1654,-0.736,2010
4,0.5649,-1.1177,0.0891,-0.0134,0.3103,-0.9114,2085
4,0.0916,-0.9412,-0.0566,-0.0594,-0.0276,-0.818,2041
4,0.0615,-0.9875,-0.0593,-0.0399,-0.0409,-0.7811,2034
4,0.064,-0.9766,-0.0217,-0.0087,-0.0095,-0.7512,2023
4,0.1333,-0.9509,-0.0359,-0.0193,-0.0108,-0.7066,2010
4,0.1199,-0.9761,-0.0154,-0.0318,-0.0294,-0.6889,2012
4,0.1038,-0.978,0.0002,-0.0607,-0.0209,-0.6767,2098
4,0.0854,-0.9905,0.0205,-0.1059,0.0774,-0.6568,2074
4,0.0737,-0.9705,0.0042,-0.137,0.0242,-0.6572,2069
4,0.0344,-0.978,-0.0012,-0.149,0.0166,-0.6646,2059
4,0.0122,-0.9509,-0.0227,-0.1037,0.0097,-0.7107,2059
4,0.0339,-0.948,0.0017,-0.0627,-0.0659,-0.7174,2048
4,0.0786,-0.9768,0.0015,-0.1003,-0.0985,-0.747,2041
4,0.021,-0.9604,-0.0249,-0.1112,-0.0732,-0.7973,2053
4,0.1047,-0.9807,-0.0264,-0.1067,-0.0085,-0.826,2049
4,0.1218,-0.9849,0.009,-0.1097,-0.0646,-0.8489,2055
4,0.124,-1.0022,0.0237,-0.135,-0.0543,-0.8582,1998
4,0.1216,-1.0073,0.0049,-0.1377,-0.0823,-0.8926,2076
4,0.0508,-0.999,-0.0732,-0.1454,-0.1863,-0.9123,2023
4,-0.0303,-1.0063,-0.0156,-0.1527,-0.2675,-1.0429,2060
4,0.0308,-1.0244,-0.0178,-0.0822,-0.1249,-1.0985,2047
4,0.0918,-1.01,0.0227,-0.1067,-0.1884,-1.1576,2066
4,0.1011,-1.0527,0.002,-0.1171,-0.2224,-1.1927,2072
4,0.1746,-1.0237,-0.0476,-0.0481,-0.3329,-1.1925,2052
4,0.1987,-1.0254,-0.0405,-0.0224,-0.4183,-1.1926,2062
4,0.1853,-0.979,0.0112,-0.019,-0.5537,-1.1543,2053
4,0.1465,-1.0598,0.04,-0.0618,-0.6231,-1.1338,2046
4,0.1423,-1.0037,0.0635,-0.0826,-0.691,-1.1584,2053
4,0.0906,-1.012,0.1067,-0.1378,-0.5671,-1.1919,2063
4,0.0828,-1.0139,0.094,-0.1772,-0.4508,-1.234,2049
4,0.1033,-1.0061,0.0327,-0.192,-0.2794,-1.2593,2063
4,0.1433,-1.0374,-0.0081,-0.1522,-0.2156,-1.2386,2053
4,0.2588,-1.0356,0.0,-0.0972,-0.2061,-1.1364,2047
4,0.4617,-1.0215,0.0137,0.0374,-0.3113,-1.0187,2054
4,0.5659,-1.019,-0.0881,0.1025,-0.3542,-0.8653,2053
4,0.7141,-1.0251,-0.0972,0.123,-0.4392,-0.6564,2053
4,0.7668,-0.9587,-0.0442,0.1482,-0.4589,-0.4837,2051
4,0.7402,-0.9128,0.0598,0.1634,-0.3649,-0.304,2049
4,0.6924,-0.9941,0.1296,0.1693,-0.2486,-0.1589,2050
4,0.5886,-1.0276,0.1323,0.2045,-0.1724,-0.0317,2050
4,0.5549,-1.0007,0.2163,0.2846,-0.0357,0.1498,2067
4,0.6738,-1.0212,0.2471,0.3468,-0.0256,0.3681,2049
4,0.8982,-0.4297,0.1501,0.799,-0.4578,0.3695,2044
4,0.0483,-1.071,-0.1851,0.4679,-0.0123,0.6694,2045
4,0.7029,-0.9307,-0.1062,0.5679,0.8807,0.648,2050
4,0.855,-1.1514,-0.0522,0.5179,1.06,0.9589,2077
4,0.6191,-1.3362,-0.2463,-0.0213,0.593,1.067,2076
4,0.4683,-1.2495,-0.4548,-0.2812,0.3755,1.1118,2073
4,0.321,-1.3679,-0.4377,-0.0695,0.3257,1.1971,2083
4,-0.0979,-0.7568,-0.0059,0.6102,0.4494,1.4914,2008
4,-0.6404,-1.2366,0.4124,0.8965,1.0465,1.6115,2023
4,-0.1545,-1.1211,0.4802,0.8837,1.3921,1.2091,2039
4,-0.4268,-0.9995,0.4785,0.8576,1.4665,1.4584,2025
4,-0.7847,-0.9172,0.542,1.1465,1.7155,1.8105,2032
4,-0.5637,-0.894,0.5723,1.344,2.263,1.6563,2068
5,-0.4595,-0.7986,0.5161,1.6819,3.2168,1.7146,2063
5,-0.5479,-0.844,0.5349,1.8258,4.0254,1.4583,2059
5,-0.55,-0.9092,0.6082,1.7615,4.3634,1.5324,2022
5,-0.3767,-0.7385,0.6382,1.8619,4.3634,1.8526,1998
5,-0.1931,-0.8311,0.532,2.0153,4.2551,1.9632,2072
5,-0.3384,-0.7312,0.5657,2.2642,4.0265,2.1297,2049
5,-0.5435,-0.6147,0.9343,1.5724,4.3634,1.6567,2046
5,0.136,-0.5232,0.4634,1.0184,4.3634,1.6451,2116
5,0.2515,-0.4988,0.1155,1.1457,4.3634,0.9612,2065
5,0.0232,-0.2922,-0.1548,1.1404,4.3634,0.4175,2060
5,0.8779,-0.9048,-0.2764,1.4448,4.3634,0.404,2065
5,1.9999,-2.0,1.9999,-2.6181,4.3634,0.8191,2058
5,1.9999,-0.9019,-2.0,0.091,1.9747,-1.1107,2176
5,1.9999,-0.2446,-1.9673,0.5749,1.2187,-1.499,2126
5,1.9999,-1.7295,-1.5784,-0.169,0.1088,-1.9305,1931
5,0.3977,-2.0,-0.875,-0.5797,-3.0106,-0.0138,1913
5,-0.9141,-0.8394,-0.3416,-0.2392,-2.8252,-0.2819,2029
5,0.0068,-0.7063,0.6406,-0.0095,-0.1121,0.312,2117
5,-0.0544,-1.2456,1.9116,0.0507,-2.3727,-0.0194,2150
5,-0.1221,-0.6633,1.1123,0.0116,-0.816,-0.5457,2042
5,-0.2229,-0.8867,0.8125,0.0441,0.4075,-0.554,2007
5,0.0918,-1.071,1.092,-0.1967,0.8934,-0.6399,2046
5,0.3252,-1.0093,0.7141,-0.2249,0.6726,-0.4907,2142
5,0.3999,-0.9805,0.2959,-0.4863,0.5462,-0.2852,2011
5,0.1306,-1.0159,0.0715,-0.4605,0.4288,-0.2922,2058
5,-0.031,-1.0286,-0.0054,-0.4803,0.3016,-0.3271,2032
5,-0.0149,-0.9578,0.0205,-0.4629,0.1024,-0.3675,2055
5,-0.031,-0.8828,0.0159,-0.4143,0.0164,-0.4204,2070
5,-0.2046,-0.8625,0.0315,-0.3141,0.1108,-0.4996,2039
5,-0.176,-0.8784,0.0337,-0.2341,0.2745,-0.5894,2040
5,0.0408,-0.9387,0.0845,-0.229,0.4052,-0.6233,2026
5,0.2783,-1.0549,0.2251,-0.2497,0.351,-0.6628,2041
5,0.3406,-1.1965,0.4404,-0.335,0.2338,-0.5904,1960
5,0.3232,-1.1438,0.4626,-0.3703,0.1687,-0.5347,2016
5,0.2642,-1.0771,0.4888,-0.4212,0.1754,-0.4484,2109
5,0.2229,-0.9646,0.3557,-0.4195,0.331,-0.3771,2060
5,0.1982,-1.0193,0.2432,-0.3741,0.4165,-0.3412,2005
5,0.3555,-1.0891,0.0598,-0.3691,0.3263,-0.2507,2133
5,0.3357,-1.0181,-0.0146,-0.393,0.1992,-0.1442,2046
5,0.2549,-0.9907,-0.1223,-0.4006,0.1534,-0.0767,1990
5,0.2688,-1.0071,-0.0989,-0.3589,0.1385,-0.0128,2041
5,0.2605,-0.9946,0.0183,-0.3249,0.1631,0.0694,1995
5,0.2715,-1.0134,0.0789,-0.3288,0.2591,0.1228,2055
5,0.2842,-1.0098,0.1724,-0.3681,0.3484,0.1872,2078
5,0.2368,-1.0371,0.1184,-0.3701,0.3691,0.208,2067
5,0.2268,-1.0452,0.1411,-0.3737,0.3709,0.2428,2056
5,0.1963,-1.0435,0.1062,-0.3654,0.3522,0.2689,2026
5,0.2053,-1.0356,0.05,-0.3318,0.2919,0.2879,2028
5,0.2004,-1.0332,0.0369,-0.3282,0.1746,0.3017,2054
5,0.1389,-1.0027,0.0176,-0.3002,0.0618,0.3349,2061
5,0.0713,-0.9841,0.0261,-0.2663,0.004,0.3199,2025
5,0.1128,-0.9941,0.0549,-0.2606,-0.0063,0.3112,2033
5,0.1133,-0.9927,0.0774,-0.2241,0.0734,0.3027,1950
5,0.1404,-1.0427,0.0803,-0.2573,0.1716,0.2886,2164
5,0.3003,-1.0811,-0.0652,-0.2631,0.1144,0.2272,2040
5,0.3203,-1.0669,-0.0183,-0.3595,-0.2031,0.355,2076
5,0.0288,-0.9875,0.0081,-0.3111,-0.2068,0.3589,2039
5,0.0925,-0.9893,-0.0129,-0.3115,-0.3282,0.2975,2023
5,-0.0522,-0.9824,0.3584,-0.3667,-0.5181,0.3598,2070
5,-0.0173,-0.9121,0.1023,-0.3113,-0.2506,0.2856,2047
5,-0.063,-0.9302,0.303,-0.3255,-0.2707,0.3321,2034
5,-0.1833,-0.925,0.2593,-0.2373,0.0723,0.2511,2005
5,0.0737,-1.0105,0.2534,-0.2353,0.2954,0.1665,2084
5,0.1028,-1.0505,0.1663,-0.1904,0.291,0.1999,2041
5,0.0691,-1.0276,0.0732,-0.1619,0.1872,0.1487,2076
5,0.1003,-1.0103,0.032,-0.2048,-0.0519,0.1269,2047
5,0.0283,-0.9832,0.0381,-0.2458,-0.2226,0.1129,2059
5,-0.0369,-0.9453,0.0105,-0.1952,-0.2525,0.0609,2049
5,-0.0659,-0.9351,0.0713,-0.1493,-0.2332,0.0236,2000
5,-0.1125,-0.9072,0.0703,-0.1167,-0.1932,-0.0083,2073
5,-0.1062,-0.9163,0.0881,-0.0878,-0.1011,-0.0687,2085
5,-0.0146,-0.9783,0.0105,-0.0493,0.0059,-0.1358,1961
5,0.0537,-1.0156,0.0229,-0.036,0.0924,-0.1687,2086
5,0.0764,-1.0366,0.0815,0.0084,0.0919,-0.206,1997
5,0.0671,-1.0352,0.0889,0.0686,0.055,-0.2436,2070
5,0.0439,-1.0098,0.1123,0.0854,0.0224,-0.2755,2057
5,0.0613,-1.0208,0.1206,0.0997,-0.0095,-0.2856,2074
5,0.0583,-1.0044,0.1011,0.1105,-0.0719,-0.3083,2057
5,0.0969,-1.0149,0.011,0.1397,-0.1332,-0.3368,2066
5,0.1401,-1.002,-0.0181,0.1654,-0.2065,-0.3409,2057
5,0.106,-0.9919,-0.0476,0.1919,-0.2151,-0.3396,2028
5,0.135,-0.978,-0.03,0.2161,-0.1971,-0.3305,2051
5,0.1033,-0.96,-0.0171,0.2477,-0.1266,-0.3251,1939
5,0.0757,-0.9619,0.0493,0.2199,-0.0297,-0.3211,2038
5,0.0879,-0.9812,0.0483,0.2573,-0.0055,-0.3342,2149
5,0.1401,-0.9944,0.0376,0.2511,0.0276,-0.3393,2111
5,0.1921,-1.0242,0.051,0.2703,-0.0013,-0.3169,2065
5,0.1907,-1.0396,0.105,0.2926,-0.0136,-0.2934,2047
5,0.1621,-1.0247,0.1226,0.3469,0.0012,-0.2702,2034
5,0.1985,-1.0208,0.0312,0.3769,0.0063,-0.2523,2044
5,0.2605,-1.011,-0.0254,0.3946,-0.033,-0.2073,2044
5,0.2078,-1.0132,-0.0398,0.3911,-0.1013,-0.1599,2037
5,0.155,-0.9995,-0.0142,0.4156,-0.1352,-0.1499,2032
5,0.1418,-0.9915,0.0215,0.4493,-0.1862,-0.1416,1978
5,0.1235,-0.9905,0.0049,0.5014,-0.1779,-0.1396,2046
5,0.1086,-0.9778,0.0688,0.557,-0.1394,-0.1533,2051
5,0.1062,-0.9888,0.1025,0.5874,-0.0487,-0.1666,2094
5,0.0986,-0.9983,0.1575,0.6058,-0.0077,-0.2001,2068
5,0.1306,-1.0071,0.146,0.6156,-0.0389,-0.2244,2078
5,0.1013,-1.002,0.1646,0.6083,-0.0915,-0.2337,2063
5,0.0999,-1.0037,0.1506,0.6122,-0.1392,-0.2494,2070
5,0.103,-1.0012,0.1328,0.6112,-0.1778,-0.2554,2076
5,0.0913,-0.9778,0.1492,0.5986,-0.2449,-0.2697,2109
6,0.0781,-0.9905,0.1628,0.5839,-0.2558,-0.2854,2072
6,0.0894,-1.0007,0.2119,0.5609,-0.2613,-0.2951,2073
6,0.0996,-0.9856,0.2397,0.5541,-0.2723,-0.328,2068
6,0.0806,-0.9905,0.2893,0.5309,-0.1839,-0.3289,2053
6,0.1301,-1.0154,0.2996,0.4912,-0.1523,-0.3514,2051
6,0.1094,-1.0181,0.3313,0.4429,-0.0662,-0.3585,2057
6,0.1584,-1.0327,0.2764,0.3775,-0.015,-0.3661,2053
6,0.1541,-1.0181,0.2625,0.3135,0.0819,-0.3762,2045
6,0.1726,-1.0273,0.2607,0.2799,0.1222,-0.3581,2062
6,0.1929,-0.9802,0.2368,0.2639,0.0625,-0.3826,2028
6,0.2073,-0.9946,0.2087,0.237,0.0322,-0.3791,2036
6,0.2395,-0.9971,0.1887,0.2302,0.059,-0.3284,2061
6,0.2766,-0.9829,0.1724,0.2252,0.0019,-0.3081,2056
6,0.2717,-0.9719,0.2092,0.2444,0.0294,-0.2916,2044
6,0.3,-0.9285,0.26,0.2602,0.0526,-0.263,2055
6,0.3179,-0.9417,0.2769,0.2409,0.0197,-0.1984,2051
6,0.3301,-0.9514,0.2534,0.2029,0.1313,-0.1738,2056
6,0.3262,-0.9783,0.2239,0.1599,0.259,-0.1281,2044
6,0.354,-0.9797,0.1228,0.1518,0.4187,-0.1025,2058
6,0.3916,-0.9675,0.1157,0.1639,0.5336,-0.0389,2069
6,0.3677,-0.9656,0.104,0.1902,0.5428,0.0268,2047
6,0.3669,-0.9634,0.1426,0.2073,0.4502,0.0663,2034
6,0.3528,-0.9634,0.1514,0.2127,0.3675,0.1061,2047
6,0.3198,-0.9648,0.1384,0.2012,0.3059,0.1529,2049
6,0.2512,-0.9624,0.1562,0.2257,0.2711,0.1958,2054
6,0.2102,-0.9521,0.2192,0.2437,0.2426,0.2288,2032
6,0.2273,-0.9587,0.2737,0.2445,0.2373,0.2436,2047
6,0.3313,-0.9883,0.3728,0.2252,0.2157,0.2824,2076
6,0.4282,-1.062,0.3171,0.1506,0.3488,0.3486,2048
6,0.3708,-1.0293,0.2029,0.1182,0.4524,0.4117,2055
6,0.3267,-1.0215,0.218,0.1426,0.6672,0.4536,2048
6,0.2798,-1.0598,0.3442,0.1362,0.6636,0.505,2064
6,0.2249,-1.0195,0.3418,0.094,0.6289,0.5468,2060
6,0.1912,-0.9631,0.3066,0.1105,0.5722,0.5558,2049
6,0.2065,-0.9756,0.2922,0.1077,0.4695,0.5578,2047
6,0.1958,-0.9775,0.2559,0.081,0.4386,0.5659,2046
6,0.1765,-0.9487,0.2505,0.076,0.4661,0.5785,2042
6,0.0522,-0.9124,0.3108,0.0298,0.4279,0.5516,2049
6,0.0398,-0.9343,0.2952,0.0655,0.4626,0.5645,2063
6,0.0984,-0.9089,0.301,0.0517,0.5513,0.5612,2063
6,0.1658,-0.9417,0.231,-0.0113,0.6879,0.5781,2050
6,0.1587,-0.9858,0.2026,-0.0868,0.8086,0.5723,2069
6,0.1257,-0.9868,0.23,-0.1847,0.7806,0.5714,2074
6,0.0435,-0.9624,0.2759,-0.283,0.6478,0.5173,2115
6,-0.0193,-0.9756,0.3191,-0.3081,0.6449,0.4334,2107
6,-0.0239,-0.9443,0.3386,-0.2811,0.5741,0.3927,1964
6,-0.0251,-0.9312,0.366,-0.2651,0.5064,0.3902,2007
6,-0.0481,-0.9294,0.3501,-0.2288,0.455,0.3729,2051
6,-0.0662,-0.9246,0.3394,-0.2136,0.3623,0.3274,2081
6,-0.0566,-1.0154,0.377,-0.1433,0.3982,0.24,2077
6,-0.0571,-1.0137,0.3413,-0.1129,0.3189,0.1581,2039
6,-0.0186,-1.0164,0.3357,-0.059,0.2466,0.1238,2069
6,0.0728,-0.9888,0.3533,-0.1836,0.4136,0.077,2100
6,0.176,-1.0354,0.3181,-0.2179,0.3942,0.0977,2062
6,0.2046,-1.0171,0.3589,-0.2734,0.4394,0.1678,2035
6,0.2183,-1.001,0.3079,-0.2906,0.4862,0.1954,2017
6,0.1812,-1.0186,0.2346,-0.2991,0.495,0.2677,2045
6,0.1809,-1.0103,0.0986,-0.2679,0.541,0.32,2058
6,0.1719,-1.0154,-0.0007,-0.2145,0.5763,0.357,2036
6,0.2471,-1.0457,-0.0576,-0.1764,0.5273,0.4284,2064
6,0.3003,-1.0093,-0.0559,-0.1266,0.5429,0.5268,2042
6,0.2761,-0.98,0.0095,-0.0802,0.5742,0.6734,2007
6,0.2749,-0.9917,0.0437,-0.1032,0.6189,0.747,1997
6,0.2849,-1.0012,0.0601,-0.106,0.701,0.8142,2041
6,0.1582,-0.9968,0.106,-0.125,0.7051,0.8357,1986
6,0.074,-0.9846,0.0764,-0.1033,0.7257,0.7786,2086
6,-0.032,-0.9644,0.0559,-0.0505,0.7084,0.6271,2135
6,-0.0098,-1.043,0.1199,0.063,0.736,0.6882,2066
6,0.0166,-1.0542,0.1323,0.2172,0.7421,0.9692,2018
6,-0.0049,-0.9919,0.1694,0.2891,0.5717,0.9797,2074
6,0.0676,-0.9866,0.1812,0.2554,0.4396,0.9489,2170
6,-0.1458,-0.9402,0.2527,0.2226,0.3935,0.8974,2022
6,-0.2554,-0.9512,0.2893,0.2421,0.3683,0.8175,2025
6,-0.2109,-0.9717,0.2935,0.2823,0.2847,0.7557,2063
6,-0.1853,-0.9917,0.2812,0.3055,0.2458,0.7071,2066
6,-0.1663,-0.9199,0.2617,0.3476,0.2147,0.6673,2040
6,-0.1694,-0.9607,0.2585,0.3851,0.1812,0.6248,2048
6,-0.1177,-0.9795,0.2339,0.4088,0.2041,0.6233,2059
6,-0.0344,-1.0325,0.2239,0.4651,0.1908,0.6416,2006
6,0.0334,-1.114,0.2246,0.5537,0.1523,0.6915,1893
6,0.146,-1.2239,0.2419,0.5938,0.2196,0.767,1998
6,0.2654,-1.2571,0.312,0.6814,0.2084,0.9164,2010
6,0.4067,-1.3953,0.2974,0.8062,0.1394,1.0697,2051
6,0.6155,-1.5483,0.1958,0.9552,0.0451,1.3046,2035
6,0.7974,-1.6382,0.1836,1.0881,-0.0856,1.6285,2032
6,0.9443,-1.7019,0.2053,1.2435,-0.3388,1.9659,2039
6,1.0347,-1.7668,0.2798,1.4432,-0.5506,2.3566,2040
6,1.0432,-1.6982,0.3762,1.6684,-0.7903,2.7396,2018
6,0.9558,-1.6189,0.4016,1.7759,-1.1447,2.924,2101
6,0.3132,-1.1006,0.5217,1.6335,-0.8031,2.9438,2176
6,-0.1401,-1.4585,0.667,1.4796,0.1791,3.592,1931
6,-0.781,-2.0,0.739,0.4496,1.0905,2.4764,2144
6,-0.0144,-1.3997,0.2451,-0.1224,0.0659,2.1386,2234
6,0.4924,-0.0981,-0.1558,0.4057,-1.0987,2.4368,1955
6,0.6392,-1.0713,0.2866,-0.1309,-3.319,1.6121,1992
6,-0.4387,-0.666,0.8567,-0.7439,-2.0562,-0.2454,2108
6,-2.0,0.9175,-0.3503,1.9398,-0.7428,3.0375,1858
6,0.4778,0.5876,-0.2522,0.8774,2.5353,0.4364,2077
6,-1.2349,-1.0908,1.2952,-0.0806,-0.6237,0.4239,2132
6,-1.4539,-0.4116,1.2117,-0.0594,-2.608,-0.4996,2059
6,-0.4951,-0.1711,0.563,-0.2485,-1.1268,-1.228,2041
6,-0.1282,-0.0774,0.2075,-0.817,-0.6396,-1.6743,2052
7,-0.022,0.1584,-0.1758,-0.9159,0.0759,-1.9153,2062
7,-0.0764,0.1489,-0.0005,-0.4031,0.6869,-2.0675,2056
7,0.0671,0.0483,0.2805,-0.1155,0.7328,-2.1897,2057
7,0.0205,0.0046,0.3689,0.0164,0.7822,-2.3174,2059
7,-0.2148,-0.0295,0.4565,0.173,0.9782,-2.5408,2059
7,-0.3279,-0.043,0.4827,0.2044,1.2882,-2.792,2051
7,-0.3572,-0.1189,0.4133,0.135,1.6673,-3.0644,2049
7,-0.4868,-0.1912,0.3916,0.0787,2.0566,-3.4015,2048
7,-0.6272,-0.2544,0.4075,0.0844,2.3883,-3.7636,2046
7,-0.675,-0.3547,0.4734,0.1474,2.6978,-4.1706,2058
7,-0.6519,-0.5024,0.5708,0.1947,2.9284,-4.3635,2042
7,-0.6023,-0.7375,0.6289,0.2191,3.2299,-4.3635,2056
7,-0.5447,-0.8943,0.6658,0.0192,3.5103,-4.3635,2073
7,-0.3784,-0.9351,0.5632,-0.0067,3.5892,-4.3635,2055
7,-0.2795,-1.2517,0.436,0.1779,3.523,-4.3635,2043
7,-1.1858,-1.9971,0.4692,-0.5199,4.1765,-4.3635,2036
7,-0.4524,-2.0,1.6624,-2.1161,3.4876,-4.3365,2077
7,-1.1243,0.3577,1.5449,0.4758,0.7433,-3.6376,2031
7,-0.3374,-0.4373,-0.4263,-0.4767,3.8305,-2.6908,2010
7,-0.9534,-1.7605,0.01,-0.1622,4.3634,-2.082,2021
7,-0.5291,-1.9707,0.1348,0.0549,3.3114,-1.1284,1990
7,0.4165,-1.1963,-0.0718,-0.0666,2.9331,-0.5642,2059
7,1.5347,-0.5435,0.7483,-0.0908,0.51,0.2232,2074
7,1.6863,-0.3259,1.2522,0.5557,-2.1746,0.5293,2067
7,0.8027,-0.8975,1.0012,0.6729,-2.27,0.1554,2067
7,0.5488,-1.354,0.616,0.2228,-1.0456,0.0497,2045
7,0.0142,-1.3765,0.72,-0.0746,-0.1551,0.3344,2032
7,0.0137,-1.3853,0.5354,-0.3422,0.8483,0.4827,2075
7,0.6711,-1.0259,0.6179,-0.7166,1.0038,0.6974,2069
7,0.2949,-0.9565,0.7131,-0.821,0.6656,0.7227,2066
7,0.0076,-0.4941,0.3152,-0.3501,0.8203,0.6392,2065
7,-0.2444,-1.0547,0.4248,-0.2631,0.7917,0.6084,2088
7,-0.1553,-1.4124,-0.1443,-0.4388,0.9055,0.5172,2008
7,0.2092,-0.981,-0.3545,-0.3152,1.0142,0.488,2028
7,0.4951,-0.9858,-0.2856,-0.4615,0.5363,0.5649,2053
7,0.0505,-1.0073,-0.0605,-0.4026,-0.0336,0.6275,2070
7,-0.1655,-0.854,0.2205,-0.3741,0.006,0.6,2055
7,-0.3074,-0.8027,0.3601,-0.3911,0.2406,0.4774,2072
7,-0.3877,-0.8174,0.5208,-0.3683,0.645,0.349,2052
7,-0.3259,-0.8806,0.634,-0.3496,0.6797,0.1525,2053
7,-0.1521,-0.9399,0.5886,-0.3346,0.54,-0.0079,2026
7,-0.0034,-0.9797,0.5889,-0.4173,0.5554,-0.0666,2080
7,-0.032,-0.9456,0.4822,-0.3923,0.5248,-0.1414,2032
7,0.1624,-0.9932,0.4536,-0.4326,0.5979,-0.0887,2073
7,0.2065,-1.0557,0.3767,-0.4789,0.4807,-0.0253,2030
7,0.0862,-1.0417,0.3984,-0.5014,0.3144,0.0001,2062
7,0.0972,-1.0361,0.3364,-0.4747,0.1665,-0.0277,2011
7,0.1206,-0.9868,0.3174,-0.4931,0.1602,-0.0169,1969
7,0.0808,-1.0061,0.3132,-0.5116,0.2515,-0.0061,2056
7,0.0972,-0.9827,0.2812,-0.5014,0.308,0.0027,2064
7,0.0959,-0.9863,0.2402,-0.5094,0.292,0.0248,2051
7,0.085,-0.9521,0.1714,-0.4761,0.2894,0.0494,2054
7,0.1265,-0.9612,0.1616,-0.4829,0.2223,0.073,2029
7,0.1323,-0.9626,0.147,-0.4745,0.2414,0.1069,2005
7,0.0986,-0.9927,0.1885,-0.4486,0.218,0.1434,2008
7,0.0581,-0.9912,0.2346,-0.4396,0.2344,0.1527,2096
7,0.0684,-1.0024,0.2888,-0.4006,0.1764,0.1599,2046
7,0.0273,-0.9878,0.3071,-0.3822,0.0836,0.1654,2028
7,-0.0266,-0.9771,0.3379,-0.3345,0.0181,0.153,2056
7,-0.0347,-0.9583,0.3472,-0.3032,-0.0325,0.1449,2057
7,0.0261,-0.9429,0.2852,-0.3099,-0.0286,0.1607,2037
7,0.0439,-0.9663,0.2507,-0.3314,-0.0004,0.1739,2078
7,0.0002,-0.9802,0.2532,-0.3322,0.0181,0.1702,2055
7,-0.0259,-0.9644,0.2363,-0.3153,-0.0013,0.1394,1911
7,-0.0498,-0.9719,0.2529,-0.3364,0.0316,0.0908,2155
7,-0.0547,-1.0122,0.2576,-0.3374,0.0141,0.038,2044
7,-0.0459,-1.002,0.2612,-0.3083,-0.0449,-0.0093,2074
7,-0.0283,-1.0015,0.23,-0.2571,-0.0892,-0.0201,2007
7,0.0125,-1.0073,0.2229,-0.2234,-0.1017,-0.0406,2045
7,0.0723,-1.0078,0.2034,-0.1724,-0.1321,-0.0344,1996
7,0.1038,-1.0029,0.1799,-0.147,-0.1298,-0.0075,2064
7,0.1272,-1.0249,0.1702,-0.143,-0.1132,0.0438,2184
7,0.1299,-1.0286,0.1748,-0.1321,-0.0984,0.0735,2063
7,0.1094,-1.0188,0.1821,-0.1218,-0.151,0.1148,2042
7,0.0745,-1.0022,0.1873,-0.1188,-0.1439,0.1603,2067
7,0.0703,-1.0244,0.187,-0.1049,-0.1248,0.1844,2059
7,0.072,-1.0259,0.1843,-0.066,-0.1637,0.1938,2066
7,0.0508,-0.9768,0.1965,-0.0415,-0.2089,0.2081,2057
7,0.009,-0.9795,0.1938,-0.0262,-0.2322,0.225,2015
7,0.0317,-0.9766,0.1731,-0.0081,-0.2171,0.2161,2045
7,0.0303,-0.9746,0.1965,-0.0152,-0.175,0.2183,2024
7,-0.0076,-1.02,0.2166,-0.0305,-0.1513,0.2015,2054
7,-0.0354,-1.0085,0.2229,-0.0204,-0.1465,0.1631,2065
7,-0.054,-0.9724,0.196,0.0031,-0.1499,0.1284,2049
7,-0.0693,-0.9956,0.1746,0.0071,-0.1463,0.0766,2078
7,-0.0396,-0.9673,0.1929,0.029,-0.1346,0.0598,2011
7,-0.0342,-0.9856,0.1917,0.0447,-0.1466,0.0196,2076
7,-0.0283,-0.9844,0.2405,0.0498,-0.1274,0.0049,1936
7,-0.0632,-0.9834,0.2717,0.0377,-0.1049,-0.0298,2044
7,-0.0342,-0.9749,0.2598,0.0248,-0.0567,-0.0659,2051
7,-0.0171,-0.9861,0.26,0.0161,-0.057,-0.0908,2056
7,-0.0518,-0.9656,0.2422,0.0077,-0.0951,-0.1077,2062
7,-0.0522,-0.9602,0.239,0.0282,-0.0711,-0.1332,2018
7,0.0083,-0.9883,0.2385,0.0382,-0.0161,-0.137,2057
7,0.0344,-1.0095,0.2397,0.0471,-0.0301,-0.1455,2076
7,0.0303,-1.0073,0.2561,0.0381,-0.0505,-0.1466,2035
7,0.0176,-0.9944,0.2732,0.0221,-0.0309,-0.147,2008
7,0.0437,-1.022,0.2581,0.0165,-0.0431,-0.1392,2003
7,0.0645,-1.0146,0.2888,-0.0202,-0.0722,-0.1269,2004
7,0.0625,-1.0281,0.2903,-0.0445,-0.0896,-0.1092,2062
7,0.0508,-1.0188,0.2676,-0.0507,-0.1044,-0.0864,2023
7,0.051,-1.0164,0.2661,-0.0554,-0.1192,-0.0597,2000
8,0.0466,-0.9739,0.2183,-0.0461,-0.1137,-0.0346,2038
8,0.0286,-0.9734,0.22,-0.0332,-0.1045,-0.0278,2068
8,0.0002,-0.9768,0.2234,-0.0418,-0.1209,-0.0164,2137
8,-0.012,-0.9553,0.2351,-0.0535,-0.0983,-0.0055,2017
8,-0.0271,-0.97,0.2695,-0.0758,-0.0784,-0.0117,2067
8,-0.0627,-0.9607,0.2366,-0.0754,-0.1033,-0.0549,1883
8,-0.0793,-0.9688,0.2346,-0.0674,-0.055,-0.1065,2050
8,-0.064,-0.9753,0.2175,-0.0522,-0.0237,-0.1547,2007
8,-0.032,-0.9768,0.1951,-0.0285,-0.01,-0.1958,2033
8,-0.0212,-0.9805,0.1921,0.0145,-0.0257,-0.2208,2052
8,-0.021,-0.9773,0.1865,0.057,-0.0276,-0.2389,2071
8,0.0159,-0.9785,0.1882,0.0843,0.0156,-0.2537,2035
8,0.043,-0.9941,0.1943,0.0892,0.0113,-0.2606,2018
8,0.0823,-1.0293,0.217,0.091,0.0461,-0.2725,1841
8,0.1152,-1.0283,0.2256,0.1065,0.0281,-0.2729,2065
8,0.1094,-1.0444,0.2451,0.1129,-0.0281,-0.2537,2060
8,0.0767,-0.9871,0.2361,0.094,-0.0238,-0.2376,2039
8,0.0366,-0.9705,0.2219,0.0767,-0.0041,-0.242,2045
8,0.042,-0.9675,0.2009,0.0892,-0.0015,-0.2515,2023
8,0.0674,-0.9836,0.2146,0.0854,-0.0075,-0.2507,2070
8,0.0515,-0.979,0.1975,0.1113,-0.0471,-0.2434,2051
8,0.0923,-0.9741,0.1753,0.1273,0.0039,-0.2332,2040
8,0.1021,-0.9871,0.1831,0.1388,0.025,-0.2189,2046
8,0.1338,-0.999,0.1821,0.1178,0.0402,-0.2103,2013
8,0.1335,-0.99,0.2046,0.0936,0.1124,-0.2108,1989
8,0.052,-1.0034,0.2205,0.118,0.0912,-0.2019,2115
8,0.0696,-0.9688,0.2119,0.1357,0.1471,-0.2039,2031
8,0.0918,-0.9978,0.2632,0.163,0.1459,-0.1973,2057
8,0.1345,-1.0115,0.2551,0.163,0.1167,-0.1831,2047
8,0.1064,-1.0117,0.2549,0.1582,0.0734,-0.1631,2051
8,0.0481,-0.9827,0.2461,0.1522,0.0361,-0.1697,2041
8,0.0029,-0.9585,0.2197,0.1691,0.0164,-0.1854,2058
8,0.0354,-0.9441,0.2078,0.1844,0.1076,-0.2108,2068
8,0.106,-0.9976,0.2058,0.1772,0.1071,-0.2123,2058
8,0.178,-1.0073,0.1821,0.1602,0.0936,-0.2039,1967
8,0.1951,-1.0154,0.2444,0.1597,0.1193,-0.1831,2099
8,0.1252,-1.0286,0.2507,0.1662,0.047,-0.1609,2072
8,0.0615,-0.9663,0.2273,0.1776,0.0406,-0.1615,2056
8,0.0193,-0.9705,0.2646,0.2043,-0.0039,-0.183,2051
8,0.0288,-0.9661,0.2803,0.223,-0.0149,-0.2145,2061
8,0.0396,-0.9683,0.2646,0.2476,-0.0137,-0.2389,2066
8,0.0681,-0.9741,0.2266,0.2751,-0.0134,-0.2558,2058
8,0.1279,-0.9714,0.1968,0.2998,0.0186,-0.247,2031
8,0.1753,-0.9846,0.1672,0.3235,0.0587,-0.226,2078
8,0.2305,-1.0032,0.1877,0.3489,0.0684,-0.1903,2024
8,0.2529,-1.0129,0.2012,0.3589,0.0593,-0.1478,2007
8,0.2102,-1.0137,0.259,0.3408,0.0811,-0.1128,2081
8,0.1296,-0.9866,0.2654,0.3538,0.0208,-0.096,2040
8,0.0916,-0.9612,0.2629,0.373,0.0304,-0.1025,2042
8,0.0728,-0.9609,0.2781,0.3904,0.0338,-0.1143,2051
8,0.0654,-0.9724,0.2734,0.405,0.0073,-0.1322,2053
8,0.0625,-0.9553,0.2659,0.4448,-0.0072,-0.1527,2067
8,0.019,-0.9487,0.28,0.4887,-0.0443,-0.1846,2113
8,0.0476,-0.9287,0.2539,0.5384,-0.0138,-0.2292,2052
8,0.0884,-0.9597,0.2644,0.5598,-0.0064,-0.2591,2143
8,0.1047,-0.9463,0.2505,0.5801,-0.023,-0.2902,2067
8,0.1284,-0.9695,0.2512,0.5959,-0.0162,-0.3104,2041
8,0.0708,-0.9395,0.2847,0.6335,-0.0867,-0.3413,2046
8,-0.0298,-0.9124,0.3105,0.7007,-0.0992,-0.4064,2070
8,-0.0413,-0.9058,0.3362,0.7399,-0.0939,-0.4987,2057
8,-0.0085,-0.9243,0.3396,0.7861,-0.1128,-0.5833,2056
8,0.0056,-0.9185,0.3347,0.8151,-0.1586,-0.6918,2058
8,-0.0134,-0.9392,0.3276,0.8333,-0.2171,-0.8268,2059
8,-0.0034,-0.9299,0.3394,0.8496,-0.2641,-0.9733,2052
8,-0.0703,-0.8962,0.3787,0.8811,-0.2115,-1.1424,2060
8,0.0994,-1.0596,0.3894,0.7871,-0.236,-1.3559,2054
8,0.2363,-0.9961,0.3965,0.6352,-0.6735,-1.438,2053
8,0.1367,-0.9546,0.3276,0.6059,-0.8592,-1.4912,2052
8,0.1086,-0.979,0.3452,0.5486,-0.9435,-1.5456,2053
8,0.1394,-0.9666,0.3516,0.5319,-1.0833,-1.5804,2053
8,0.2107,-0.9424,0.3257,0.5323,-1.072,-1.6134,2052
8,0.2283,-1.0166,0.3804,0.5758,-1.0942,-1.6392,2051
8,0.2319,-1.1287,0.4043,0.5709,-0.9387,-1.5379,2052
8,0.2295,-1.2751,0.3259,0.6006,-0.8371,-1.2702,2063
8,-0.0222,-1.5854,0.3674,0.5235,-0.5156,-0.9951,2053
8,0.3179,-1.3765,0.51,0.4786,-0.4842,-0.8499,2048
8,0.4468,-1.2783,0.4778,0.2966,-0.6007,-0.6917,2053
8,0.5479,-1.1597,0.3774,0.3133,-0.5918,-0.5409,2052
8,0.8196,-1.1208,0.4497,0.4773,-0.7126,-0.3405,2049
8,0.9407,-1.1055,0.5171,0.5159,-1.1959,-0.0931,2059
8,0.7214,-1.0535,0.4695,0.5117,-1.5103,0.0699,2053
8,0.6826,-0.8955,0.5105,0.4911,-1.9373,0.2388,2057
8,0.7024,-0.9351,0.4829,-0.0084,-2.5721,0.4171,2039
8,0.6213,-0.8516,0.4666,-0.1653,-2.9694,0.5351,2048
8,0.5071,-0.8928,0.4482,-0.1665,-3.3845,0.5927,2058
8,0.2092,-0.8047,0.4519,-0.0233,-3.2508,0.6345,2040
8,0.2483,-0.8833,0.4766,-0.0707,-3.0878,0.7421,2051
8,0.0557,-0.7417,0.4055,0.2718,-2.6532,0.999,2040
8,-0.0701,-1.1069,0.3894,0.3462,-2.4794,1.6543,2042
8,-0.2998,-1.1565,0.4946,0.1651,-2.1776,2.1158,2046
8,-0.592,-1.3254,0.4075,-0.1318,-1.417,1.7114,2060
8,-0.3599,-1.0457,0.3687,0.1669,-1.1573,1.7397,2060
8,0.0889,-0.7046,0.7297,0.1314,-1.3143,2.3413,2049
8,-0.7488,-0.8621,0.1455,0.0654,-0.7448,1.9489,2026
8,-0.345,-1.0645,0.1404,0.0862,-0.1353,2.3141,2065
8,-0.5312,-0.9077,0.4207,0.3498,0.3215,2.4409,2054
8,-0.6301,-0.9956,0.4763,0.5926,0.7609,2.3882,2051
8,-0.4009,-1.1113,0.397,0.8333,1.3527,2.3633,2060
8,-0.2329,-1.1213,0.3872,0.6474,1.4165,2.4254,2061
8,-0.0374,-0.9666,0.4102,0.6011,1.2862,2.6827,2049
8,-0.2432,-0.8909,0.428,0.779,1.1421,2.9158,2032
8,-0.363,-0.9583,0.4438,0.6839,1.3852,2.85,2059
8,-0.4285,-0.9722,0.4971,0.6514,1.6093,2.8263,2067
9,-0.4727,-1.0056,0.4341,0.6809,1.8879,2.7184,2079
9,-0.3828,-0.9985,0.4077,0.6996,2.1158,2.7561,1999
9,-0.2539,-0.9585,0.416,0.5739,2.2969,2.726,2031
9,-0.3171,-0.9429,0.4448,0.4801,2.4378,2.6674,2069
9,-0.6213,-1.0486,0.5989,0.2526,2.5197,2.3294,2051
9,0.1624,-1.0742,0.5125,-0.1438,2.0865,2.2925,2053
9,0.2502,-0.8022,0.3813,-0.2667,3.2614,2.1865,2062
9,0.1858,-0.8252,0.4465,-0.4344,2.8879,2.3794,2096
9,0.0686,-0.8145,0.365,-0.4311,2.6454,2.4405,2062
9,0.0291,-0.7026,0.439,-0.4469,2.4546,2.3984,2054
9,0.0413,-0.866,0.4204,-0.5927,2.2591,2.2214,2042
9,0.0059,-0.7515,0.4041,-0.8136,2.2,2.015,2050
9,0.2671,-0.582,0.4363,-0.8823,2.2004,1.7668,2083
9,0.5212,-0.4521,0.4968,-1.0829,2.1282,1.5371,2041
9,0.4041,-1.3701,0.4897,-2.122,2.0554,0.5687,1967
9,1.2581,1.1501,0.436,-1.539,1.58,0.1916,2026
9,0.9939,0.5459,-0.4316,-1.1416,1.3275,-0.7183,2114
9,1.8533,0.4253,0.5566,0.2405,0.5675,-1.8036,1971
9,1.9999,-2.0,0.9287,-1.2384,0.129,-1.8755,2081
9,-1.4285,-2.0,1.7231,-0.9332,-3.4441,-1.966,1994
9,0.4087,-0.1079,0.314,0.5775,-2.2655,-2.9757,2169
9,0.2046,-2.0,0.1265,0.2894,0.0538,-1.35,2054
9,0.6284,-1.7036,0.603,-0.4312,0.3486,-1.4533,2043
9,0.0027,-1.9802,0.2808,-0.1262,0.4056,-1.3952,2040
9,0.6479,-1.6062,0.385,-0.2531,0.9218,-1.1621,2004
9,0.3892,-1.1575,0.2124,-0.2514,0.3579,-1.0481,2066
9,-0.0447,-0.7473,0.1274,-0.2986,0.2503,-1.0561,2015
9,-0.2827,-0.6062,0.0576,-0.2759,0.4031,-1.0761,1965
9,-0.2397,-0.8245,-0.0349,-0.1827,0.3501,-0.9357,2049
9,-0.2769,-0.8977,-0.0657,-0.2157,0.1659,-0.8064,2018
9,-0.3372,-0.7634,-0.0708,-0.2079,0.1326,-0.8509,2043
9,-0.3081,-0.7888,0.0525,-0.1615,0.2329,-0.9236,2038
9,-0.2317,-1.0828,0.1377,-0.136,0.4786,-1.0567,1993
9,-0.0723,-1.0359,0.2117,0.0405,0.6572,-1.0041,2018
9,0.0505,-1.093,0.3398,0.1667,0.924,-0.9452,2015
9,0.1628,-1.2544,0.2993,0.2141,0.8443,-0.8075,2056
9,0.2781,-1.1672,0.3943,0.1946,0.7268,-0.7204,2125
9,0.3037,-1.1685,0.498,0.1707,0.4858,-0.5478,2038
9,0.1729,-1.1592,0.4871,0.1585,0.4305,-0.4199,2076
9,0.1489,-1.0513,0.4512,0.1276,0.45,-0.3051,2051
9,0.0601,-1.0547,0.3887,0.041,0.3123,-0.2525,2070
9,-0.0671,-0.9539,0.3579,-0.0549,0.2745,-0.2382,2038
9,-0.1382,-0.9277,0.3357,-0.0707,0.2413,-0.2699,2010
9,-0.137,-0.979,0.2329,-0.0786,0.2043,-0.2891,2061
9,-0.135,-0.9739,0.1648,-0.0759,0.1915,-0.2846,2013
9,-0.1565,-0.9265,0.1301,-0.082,0.2167,-0.2912,1982
9,-0.2627,-0.8848,0.1045,-0.0051,0.2526,-0.2934,2032
9,-0.3176,-0.9146,0.0544,0.0651,0.3522,-0.1822,2069
9,0.0417,-0.948,0.0193,0.0475,0.3667,-0.4738,2047
9,0.259,-0.9758,0.0498,0.1886,-0.1205,-0.5168,2045
9,-0.0662,-0.9849,0.1104,0.0965,-0.1131,-0.4594,2080
9,-0.0222,-0.9675,0.2014,0.1687,0.0521,-0.5323,1973
9,0.0347,-0.9924,0.2727,0.2119,0.1742,-0.4364,1975
9,0.1023,-1.0525,0.2578,0.2582,0.2047,-0.3306,2030
9,0.1201,-1.041,0.2698,0.2332,0.2421,-0.2505,2085
9,0.1311,-1.0603,0.2893,0.2148,0.2372,-0.2185,2056
9,0.0513,-1.0083,0.2803,0.2491,0.2461,-0.1689,2014
9,0.011,-1.012,0.2776,0.2606,0.2493,-0.1236,2034
9,-0.0723,-0.9675,0.2808,0.2549,0.2187,-0.1069,2094
9,-0.064,-0.9624,0.2656,0.255,0.2346,-0.1108,2022
9,-0.0293,-0.9604,0.2266,0.2234,0.2386,-0.1073,2052
9,0.0063,-0.9832,0.1897,0.1967,0.1759,-0.1044,2077
9,0.0029,-0.9622,0.2236,0.1587,0.1674,-0.0983,2027
9,-0.0391,-0.9639,0.2434,0.1531,0.1987,-0.1015,2077
9,-0.0457,-0.991,0.2878,0.1557,0.1687,-0.1053,1992
9,-0.0349,-1.0007,0.3188,0.1614,0.1511,-0.1297,2059
9,-0.0195,-1.0024,0.2808,0.1678,0.1405,-0.1273,2073
9,-0.0093,-0.9985,0.2673,0.1547,0.0992,-0.1217,2043
9,-0.0356,-0.957,0.2507,0.145,0.0403,-0.1188,2126
9,-0.0295,-0.9646,0.25,0.1428,0.029,-0.1237,1984
9,0.009,-0.9763,0.2468,0.1396,0.0285,-0.1212,2043
9,0.0269,-1.0066,0.2605,0.1352,0.0213,-0.1108,2104
9,0.0364,-1.0205,0.2415,0.1398,0.0011,-0.1044,2111
9,0.0171,-0.9932,0.2715,0.1565,-0.0088,-0.0874,2168
9,0.0291,-0.9971,0.2476,0.1806,-0.0152,-0.0815,2025
9,0.0493,-1.0034,0.2334,0.2242,-0.0091,-0.0786,2178
9,0.0823,-1.001,0.2256,0.2609,-0.0052,-0.0493,2045
9,0.053,-0.9766,0.2205,0.2856,0.0015,-0.0308,2000
9,0.0178,-0.9431,0.2612,0.2996,0.0377,-0.0264,2062
9,-0.0823,-0.9517,0.3264,0.3153,0.0656,-0.0206,2047
9,-0.0981,-0.9434,0.2583,0.2979,0.1278,-0.0477,2017
9,-0.0095,-0.9902,0.2244,0.3093,0.1028,-0.0631,1959
9,0.0583,-0.9932,0.2229,0.3017,0.0398,-0.0646,2085
9,0.0554,-0.9963,0.2344,0.3061,0.0025,-0.0487,2105
9,0.032,-0.9814,0.2395,0.3192,0.0032,-0.0392,2099
9,-0.0085,-0.9595,0.2583,0.3436,-0.0108,-0.0421,2064
9,-0.0654,-0.9624,0.3003,0.3512,0.0088,-0.061,2017
9,-0.0601,-0.9429,0.3149,0.3717,0.0024,-0.0791,2079
9,-0.0403,-0.9695,0.3079,0.3922,0.0047,-0.0911,2054
9,-0.032,-0.957,0.2959,0.4067,-0.0537,-0.1025,1944
9,-0.0017,-0.9397,0.2695,0.4043,-0.022,-0.1127,2045
9,0.0864,-0.9761,0.2434,0.4211,0.0453,-0.0933,1843
9,0.1108,-1.0227,0.26,0.4397,-0.0015,-0.0787,2094
9,0.0811,-1.0132,0.3008,0.4569,-0.0559,-0.0502,2074
9,0.0403,-0.9871,0.312,0.4928,-0.0969,-0.0419,2078
9,-0.0027,-0.9619,0.3303,0.5148,-0.0947,-0.0431,2056
9,-0.0239,-0.948,0.3132,0.5236,-0.1048,-0.0551,2040
9,-0.0391,-0.9233,0.3208,0.5337,-0.1342,-0.0692,2052
9,-0.0654,-0.9099,0.2847,0.5526,-0.1678,-0.0931,2054
9,-0.0654,-0.8997,0.3052,0.5775,-0.133,-0.1254,2126
9,-0.0278,-0.938,0.342,0.5635,-0.1068,-0.1601,2108
10,-0.0208,-0.9272,0.3799,0.5663,-0.1168,-0.2067,1952
10,-0.0305,-0.9375,0.4163,0.5885,-0.1077,-0.2541,2065
10,-0.0088,-0.95,0.4321,0.6165,-0.0602,-0.2935,2031
10,0.0015,-0.9546,0.4226,0.6397,-0.0581,-0.3325,2148
10,0.0071,-0.9504,0.4482,0.6337,-0.0543,-0.3551,2107
10,0.0359,-0.9592,0.4382,0.6201,-0.0724,-0.3751,2143
10,0.0198,-0.9565,0.4504,0.5987,-0.1112,-0.3952,2015
10,0.002,-0.9463,0.4651,0.5765,-0.1406,-0.4188,2032
10,0.0183,-0.9441,0.4702,0.5498,-0.1349,-0.4334,2061
10,0.0305,-0.9536,0.4695,0.5188,-0.1344,-0.4392,2031
10,0.043,-0.9399,0.4458,0.5398,-0.089,-0.4598,1958
10,0.1101,-0.9895,0.4651,0.5175,-0.1089,-0.4568,2114
10,0.136,-0.9915,0.4624,0.4924,-0.2169,-0.4346,2040
10,0.1135,-0.9824,0.4492,0.483,-0.2814,-0.4161,2025
10,0.1104,-0.9807,0.4341,0.465,-0.2892,-0.391,2042
10,0.1167,-0.9646,0.4363,0.446,-0.3084,-0.3742,2017
10,0.1028,-0.9563,0.4548,0.4273,-0.3286,-0.3585,2064
10,0.1067,-0.9614,0.4785,0.3932,-0.296,-0.3535,2060
10,0.1106,-0.9541,0.4949,0.3693,-0.2646,-0.3453,2036
10,0.1299,-0.9504,0.498,0.349,-0.278,-0.3386,2046
10,0.1052,-0.9551,0.4973,0.3219,-0.2715,-0.336,1988
10,0.0925,-0.9248,0.5098,0.2982,-0.2812,-0.3484,2102
10,0.0967,-0.9482,0.5146,0.2661,-0.3133,-0.3615,2045
10,0.061,-0.9524,0.5098,0.246,-0.3313,-0.4014,2099
10,0.0803,-0.9324,0.499,0.2356,-0.3277,-0.4348,2067
10,0.0396,-0.9607,0.5093,0.2005,-0.3907,-0.5008,2083
10,0.0122,-0.9927,0.4888,0.1701,-0.4448,-0.565,2075
10,-0.0212,-1.0105,0.4744,0.1276,-0.4474,-0.6568,2055
10,0.0105,-0.998,0.4624,0.0965,-0.5453,-0.7425,2054
10,0.0249,-1.0273,0.4644,0.0224,-0.6959,-0.8192,2057
10,-0.0193,-1.0713,0.4414,-0.0577,-0.7678,-0.8881,2054
10,0.0332,-1.0786,0.4167,-0.1358,-0.8348,-0.9881,2036
10,0.0334,-1.1162,0.3462,-0.2358,-0.8488,-1.0575,2029
10,0.002,-1.1018,0.2808,-0.2834,-0.7191,-1.1376,2038
10,-0.0066,-1.0701,0.3059,-0.314,-0.5814,-1.1881,2044
10,0.165,-1.0803,0.2644,-0.2004,-0.4484,-1.3173,2065
10,0.2002,-1.4141,0.5022,-0.3314,-0.3324,-1.4077,2070
10,0.1572,-1.4185,0.5278,0.488,-0.157,-1.2826,2070
10,0.1211,-1.168,0.259,0.6833,-0.2092,-1.025,2047
10,0.1511,-0.9719,0.519,0.1045,-1.0361,-0.6283,2045
10,-0.1455,-1.3792,0.8025,-0.0501,-1.0219,-0.662,2032
10,0.0051,-1.103,0.6758,-0.4255,-1.1013,-0.3325,2019
10,0.156,-0.9617,0.7334,-0.4485,-1.014,-0.1724,2028
10,0.2031,-1.0488,0.7178,-0.5245,-0.8573,-0.1004,2078
10,0.3999,-0.9297,0.5693,-0.5505,-0.7887,0.0123,2066
10,0.5156,-0.9128,0.3799,-0.689,-0.9654,0.1936,2065
10,0.4944,-0.9326,0.3645,-0.7066,-1.4386,0.3569,2050
10,0.3059,-0.8826,0.3203,-0.658,-1.5262,0.4448,2043
10,0.24,-0.8716,0.2666,-0.6191,-1.2366,0.73,2048
10,0.2559,-1.1187,0.2896,-0.8199,-1.346,0.808,2070
10,0.3311,-1.1169,0.3867,-1.1206,-2.106,1.1845,2052
10,-0.3196,-0.8665,0.2808,-1.0867,-1.5206,0.9633,2040
10,0.3708,-0.5593,0.1375,-0.2968,-1.1094,1.0282,2046
10,0.2156,-1.1548,0.4749,-0.5275,-1.7439,1.2555,2063
10,-0.134,-0.7361,0.3601,-0.4779,-1.5411,1.2675,2036
10,0.0481,-0.8271,0.2451,-0.1475,-1.1983,1.1338,2068
10,0.3167,-0.8193,0.4077,-0.0594,-1.1761,1.3111,2046
10,0.1992,-0.7988,0.4568,0.0001,-1.0489,1.3045,2044
10,0.1355,-0.8362,0.479,0.0937,-1.0331,1.2483,2050
10,0.199,-0.821,0.5159,0.1246,-1.1138,1.3311,2053
10,0.2097,-0.8081,0.4807,0.118,-1.1666,1.4407,2051
10,0.2141,-0.824,0.4363,0.1381,-1.1519,1.5087,2051
10,0.2183,-0.8477,0.4121,0.14,-1.1222,1.5446,2051
10,0.1841,-0.8672,0.3586,0.1577,-1.0833,1.566,2053
10,0.1606,-0.8672,0.3396,0.196,-1.0331,1.5609,2046
10,0.1541,-0.8928,0.3354,0.2221,-0.9963,1.5422,2052
10,0.1553,-0.9019,0.3369,0.2549,-0.9834,1.499,2047
10,0.1675,-0.9016,0.3533,0.2759,-0.9682,1.46,2057
10,0.1753,-0.9138,0.3682,0.2834,-0.9741,1.3985,2053
10,0.1902,-0.8977,0.405,0.2783,-1.0255,1.3489,2049
10,0.1897,-0.8992,0.3938,0.2611,-1.0784,1.3268,2048
10,0.2009,-0.8967,0.3777,0.2398,-1.1451,1.3161,2054
10,0.2048,-0.9229,0.3499,0.2326,-1.2058,1.3149,2050
10,0.1917,-0.9221,0.3193,0.2345,-1.2485,1.2969,2048
10,0.1689,-0.9216,0.3027,0.2553,-1.2794,1.2593,2055
10,0.1519,-0.9153,0.29,0.2702,-1.3014,1.215,2048
10,0.157,-0.9163,0.2715,0.29,-1.319,1.1529,2053
10,0.1599,-0.9263,0.2588,0.3212,-1.3263,1.097,2053
10,0.165,-0.9285,0.2483,0.3476,-1.3308,1.0377,2051
10,0.1675,-0.9526,0.2405,0.3642,-1.3234,0.9971,2051
10,0.1587,-0.9683,0.2336,0.3761,-1.3081,0.9467,2051
10,0.1487,-0.9768,0.229,0.3807,-1.2926,0.9019,2059
10,-0.3557,-1.0918,0.3181,0.2308,-0.8546,0.7228,2038
10,0.3408,-1.0635,0.5103,0.1104,-1.7913,0.4404,2046
10,0.2988,-0.7664,0.199,-0.026,-1.0748,0.3864,2055
10,0.2471,-1.0542,-0.1431,0.0107,-0.9355,0.3352,2057
10,0.2639,-0.9873,-0.0112,-0.0759,-0.6387,0.2507,2048
10,0.1411,-0.9734,0.2134,0.0475,-0.5168,0.1346,2042
10,0.2234,-1.0005,0.2014,0.0923,-0.4544,0.0104,2052
10,0.2224,-0.968,0.1199,0.0131,-0.3533,-0.075,2057
10,0.2219,-0.9587,0.137,-0.0021,-0.0792,-0.1892,2058
10,0.2644,-0.9485,0.1172,0.0193,0.1517,-0.2662,2057
10,0.293,-0.999,0.1033,0.0234,0.2412,-0.3416,2051
10,0.3879,-1.0256,0.1025,0.0116,0.2257,-0.3569,2052
10,0.4243,-1.1614,0.0715,-0.1626,0.2322,-0.4008,2051
10,0.314,-1.103,0.0125,-0.1916,0.3089,-0.3397,2042
10,0.1096,-1.0591,0.134,0.0498,0.3293,-0.2172,2038
10,0.1096,-0.9905,0.3311,0.188,0.29,-0.1381,2048
10,0.1523,-1.0369,0.405,0.1922,0.1005,-0.055,2065
10,0.2014,-1.0618,0.3647,0.1491,-0.1112,-0.0067,2061
10,0.2588,-1.0603,0.2886,0.0751,-0.2518,0.0249,2050
10,0.2424,-1.0544,0.2295,0.067,-0.2743,0.0723,2052
11,0.2122,-1.064,0.2285,0.0778,-0.2281,0.1205,2048
11,0.2061,-1.0671,0.2668,0.1037,-0.198,0.1759,2052
11,0.24,-1.0576,0.3069,0.1297,-0.1732,0.2491,2048
11,0.2576,-1.0652,0.3208,0.1561,-0.1434,0.3297,2048
11,0.2473,-1.0522,0.3577,0.1485,-0.139,0.4196,2054
11,0.2288,-1.0457,0.3694,0.1422,-0.1493,0.4778,2049
11,0.2061,-1.0447,0.3809,0.1465,-0.1513,0.5152,2051
11,0.1772,-1.0403,0.4026,0.1438,-0.1629,0.5373,2050
11,0.1428,-1.031,0.4033,0.1493,-0.1321,0.5629,2051
11,0.1125,-1.0215,0.405,0.1555,-0.0553,0.5749,2049
11,0.0894,-1.022,0.4343,0.1614,0.0238,0.5886,2055
11,0.0881,-1.011,0.4226,0.1518,0.0967,0.5971,2050
11,0.0823,-1.011,0.4111,0.1714,0.1772,0.6107,2051
11,0.0706,-0.9949,0.4175,0.1796,0.2673,0.6196,2050
11,0.0581,-1.0178,0.4534,0.1776,0.3597,0.6199,2051
11,0.0498,-1.0122,0.4404,0.1859,0.455,0.6293,2051
11,0.0464,-0.9946,0.4487,0.1803,0.5394,0.6233,2049
11,-0.0149,-0.9863,0.4382,0.1807,0.6252,0.6236,2050
11,-0.0464,-0.9714,0.4587,0.1991,0.7148,0.601,2048
11,-0.0667,-0.9509,0.4727,0.2179,0.7787,0.5886,2053
11,-0.0986,-0.9099,0.4575,0.2594,0.8397,0.5534,2056
11,-0.1245,-0.8721,0.4592,0.3017,0.8898,0.4779,2054
11,-0.1545,-0.8503,0.4578,0.3209,0.9925,0.3569,2049
11,-0.1777,-0.8838,0.4321,0.2462,1.2113,0.1764,2051
11,-0.1892,-0.8943,0.387,0.1314,1.5289,-0.0204,2045
11,-0.1785,-0.9116,0.3274,0.0345,1.9263,-0.1609,2053
11,-0.1401,-0.9011,0.3191,-0.0318,2.2334,-0.343,2051
11,-0.0046,-0.8862,0.3767,-0.1193,2.2666,-0.4295,2051
11,0.1533,-0.8818,0.394,-0.2161,1.9711,-0.5484,2052
11,0.1716,-0.812,0.3384,-0.2914,1.7128,-0.7734,2055
11,0.1411,-0.7966,0.3037,-0.2894,1.6725,-0.7636,2050
11,0.1777,-0.814,0.2429,-0.2171,1.4475,-0.8359,2050
11,0.2473,-0.8613,0.177,-0.1984,1.1814,-0.9123,2051
11,0.2561,-0.8696,0.1648,-0.1487,0.9525,-0.9917,2054
11,0.2373,-0.9023,0.156,-0.1242,0.647,-1.071,2050
11,0.2195,-0.9177,0.1567,-0.114,0.3426,-1.1342,2052
11,0.179,-0.928,0.1409,-0.1108,0.0698,-1.1774,2052
11,0.1641,-0.9558,0.1348,-0.0961,-0.1888,-1.1864,2056
11,0.1672,-0.9785,0.156,-0.1076,-0.4761,-1.2075,2047
11,0.1609,-0.9998,0.1682,-0.1354,-0.7697,-1.1878,2048
11,0.166,-1.032,0.2063,-0.1887,-1.0818,-1.1527,2051
11,0.1667,-1.0491,0.2131,-0.2464,-1.3386,-1.1134,2050
11,0.145,-1.0652,0.2366,-0.324,-1.5392,-1.0625,2045
11,0.1099,-1.0784,0.2405,-0.3976,-1.699,-1.0066,2044
11,0.1113,-1.0925,0.25,-0.4485,-1.8088,-0.9384,2046
11,0.0747,-1.0874,0.2454,-0.4866,-1.8503,-0.8658,2056
11,0.0652,-1.0764,0.2449,-0.4918,-1.9184,-0.7897,2049
11,0.0576,-1.0803,0.249,-0.5301,-1.8993,-0.7291,2051
11,0.0569,-1.0679,0.2114,-0.6128,-1.9134,-0.6939,2054
11,0.043,-1.0742,0.1775,-0.6317,-1.8815,-0.6074,2056
11,0.0337,-1.071,0.2129,-0.6207,-1.812,-0.492,2055
11,0.0339,-1.0686,0.2612,-0.6505,-1.8429,-0.3691,2057
11,-0.0068,-1.0698,0.2664,-0.6797,-1.8575,-0.2543,2051
11,-0.0217,-1.0452,0.2739,-0.6901,-1.9153,-0.1442,2051
11,-0.0269,-1.0227,0.2681,-0.6982,-1.9607,-0.0522,2053
11,-0.0378,-1.0005,0.241,-0.6793,-1.9975,0.0509,2052
11,-0.042,-0.9736,0.2317,-0.636,-2.0445,0.1433,2054
11,-0.0388,-0.9631,0.217,-0.5958,-2.1121,0.2461,2048
11,-0.0791,-0.9587,0.2183,-0.5353,-2.1129,0.3376,2047
11,-0.0825,-0.9473,0.2444,-0.4795,-2.1242,0.3978,2052
11,-0.1199,-0.9329,0.2908,-0.4337,-2.0895,0.4694,2046
11,-0.145,-0.9204,0.3142,-0.3862,-2.0726,0.5316,2052
11,-0.1411,-0.8926,0.3252,-0.3382,-2.0121,0.5826,2050
11,-0.1748,-0.9033,0.3391,-0.2908,-1.9213,0.6469,2049
11,-0.2368,-1.1208,0.1626,-0.4342,-1.8365,0.6273,2039
11,-0.4268,-0.6755,0.2732,0.1193,-0.8589,0.663,2050
11,-0.0994,-0.99,0.5923,0.2992,-0.4777,0.7929,2057
11,-0.1558,-0.9255,0.7937,0.3173,0.1553,0.6723,2053
11,-0.0271,-0.9919,0.7839,0.0611,0.3622,0.4228,2048
11,0.0239,-1.0383,0.5488,-0.1465,0.9146,0.1602,2056
11,0.376,-0.835,0.4246,0.051,1.5739,0.1159,2059
11,0.2927,-0.9373,0.4807,0.0557,1.7001,0.1077,2052
11,0.084,-0.9731,0.5063,-0.0555,1.631,-0.1088,2053
11,-0.1562,-1.0845,0.5154,-0.145,1.3508,-0.1016,2044
11,-0.125,-0.8835,0.3145,-0.1076,1.2712,-0.0277,2029
11,-0.0674,-0.8462,0.4097,0.0392,1.1778,0.078,2060
11,-0.0305,-0.8435,0.396,0.041,0.8654,0.1099,2067
11,0.0125,-1.002,0.2146,-0.0158,1.0894,-0.0341,2077
11,0.1887,-1.0747,-0.0999,-0.1001,1.5106,-0.306,2057
11,0.4705,-0.9731,-0.0061,-0.1483,1.0163,-0.1546,2051
11,0.2856,-1.2522,0.0034,-0.2907,0.6219,-0.1537,2038
11,0.2161,-1.1121,-0.0264,-0.2373,0.502,-0.1127,2042
11,0.3013,-1.1379,0.1423,-0.1286,0.4797,-0.0053,2033
11,0.3818,-1.1282,0.2651,-0.1132,0.3663,0.128,2074
11,0.2891,-1.1604,0.2546,-0.173,0.3484,0.1722,2087
11,0.2056,-1.0854,0.311,-0.1858,0.3464,0.2159,2081
11,0.1248,-1.0947,0.29,-0.2409,0.3558,0.206,2042
11,0.1453,-1.033,0.2451,-0.302,0.4858,0.1971,2022
11,0.1599,-1.0093,0.2449,-0.3445,0.4983,0.2354,2060
11,0.1514,-0.9749,0.1753,-0.3377,0.4501,0.2686,2063
11,0.092,-0.9929,0.1306,-0.3437,0.4089,0.2723,2029
11,0.0608,-0.9849,0.1001,-0.3338,0.375,0.2838,2102
11,0.0098,-0.9575,0.0894,-0.355,0.3409,0.2621,2016
11,-0.0115,-0.9648,0.0967,-0.363,0.3377,0.2406,2017
11,0.0095,-0.9951,0.1277,-0.3649,0.3706,0.2128,2083
11,0.0435,-1.0051,0.1853,-0.3574,0.351,0.2073,2081
11,0.052,-1.0208,0.1853,-0.3702,0.328,0.2028,2072
11,0.0527,-1.0195,0.1895,-0.3618,0.245,0.21,2019
11,0.0381,-1.0444,0.1792,-0.3926,0.2258,0.1751,2067
11,0.033,-1.0342,0.1792,-0.3786,0.1555,0.1886,2064
11,0.0125,-1.0154,0.1602,-0.3758,0.1116,0.1751,2072
11,0.03,-1.0183,0.1335,-0.3622,0.0483,0.1614,2041
11,0.0293,-1.0251,0.1116,-0.3633,0.031,0.1401,2069
11,0.0508,-0.9878,0.0791,-0.3397,0.0184,0.1426,2023
11,0.0625,-0.9832,0.0337,-0.344,0.0087,0.129,2037
12,0.075,-0.9949,0.0256,-0.3334,0.029,0.122,2065
12,0.0779,-0.998,0.0483,-0.3269,0.0181,0.1312,2072
12,0.0537,-0.9836,0.0405,-0.29,-0.0057,0.1491,2051
12,0.0195,-0.9907,0.042,-0.2531,-0.0449,0.1503,2053
12,0.0012,-0.9866,0.0557,-0.2333,-0.0739,0.122,2052
12,-0.0303,-1.0259,0.0969,-0.2101,-0.0928,0.0862,2053
12,-0.0232,-1.0208,0.0959,-0.19,-0.0662,0.0326,2052
12,0.0127,-1.0471,0.0784,-0.172,-0.0803,-0.0057,2052
12,0.042,-1.032,0.0513,-0.1486,-0.1244,-0.019,2021
12,0.0334,-0.9966,0.041,-0.1128,-0.1075,-0.0306,2058
12,0.0515,-1.0042,0.0454,-0.0975,-0.0866,-0.0382,2047
12,0.0889,-0.9976,0.0161,-0.0734,-0.1063,-0.0321,2065
12,0.074,-1.0142,0.0171,-0.0545,-0.123,-0.0184,2064
12,0.0938,-1.012,-0.0015,-0.0111,-0.1385,-0.0084,2051
12,0.1177,-1.0,-0.0266,0.0328,-0.1388,0.026,2056
12,0.1362,-1.0071,-0.0032,0.0722,-0.1683,0.075,2050
12,0.1069,-0.9707,0.0242,0.0933,-0.1469,0.1318,2046
12,0.1389,-1.0029,0.0254,0.1197,-0.0937,0.2035,2068
12,0.1506,-1.0137,0.0342,0.1446,-0.0698,0.2697,2005
12,0.1396,-0.9966,0.0525,0.1687,-0.0778,0.3141,2062
12,0.0964,-1.0012,0.0549,0.1855,-0.0955,0.3621,2053
12,0.0801,-0.978,0.0667,0.2117,-0.1226,0.3753,2055
12,0.0486,-0.9885,0.0684,0.2293,-0.1051,0.3464,2055
12,0.103,-1.0037,0.0469,0.2378,-0.1637,0.3123,2046
12,0.0796,-0.9724,0.0574,0.2735,-0.2254,0.2417,2050
12,0.1033,-0.9861,0.0872,0.2898,-0.3308,0.2268,2077
12,0.083,-0.9944,0.0876,0.2996,-0.333,0.2161,2045
12,0.095,-0.9961,0.0947,0.2894,-0.3761,0.2742,1979
12,0.1062,-1.0286,0.1106,0.3145,-0.5229,0.2726,2036
12,0.165,-0.9749,0.0947,0.3023,-0.6658,0.3771,2065
12,0.2161,-0.9673,0.1343,0.2489,-0.7377,0.4667,2048
12,0.1143,-0.9722,0.1267,0.1184,-0.6942,0.562,2052
12,0.0103,-1.0098,0.0994,0.0887,-0.6917,0.4955,2040
12,-0.0215,-1.0337,0.1074,0.0664,-0.6139,0.524,1997
12,0.1396,-1.0168,0.0569,0.102,-0.7066,0.5145,2055
12,0.0398,-1.0525,0.0754,0.1192,-0.8227,0.4878,2064
12,-0.0293,-1.0464,0.0156,0.193,-0.7712,0.4743,2078
12,0.0696,-1.0115,0.053,0.253,-0.7777,0.5301,2082
12,-0.0708,-1.02,0.0583,0.3115,-0.5928,0.4155,2075
12,-0.1594,-1.0676,0.0303,0.3693,-0.1653,0.5105,2099
12,0.3059,-1.0825,0.0398,0.4328,0.0625,0.76,2056
12,0.3772,-1.0591,0.0527,0.4803,-0.0727,0.9232,2060
12,0.2188,-1.0359,0.1321,0.5079,-0.1513,1.1513,2075
12,0.272,-1.0837,0.1174,0.5296,-0.2049,1.3312,2070
12,0.3667,-1.1475,0.146,0.5402,-0.4464,1.4829,2040
12,0.3481,-1.1289,0.1948,0.5509,-0.6829,1.589,2050
12,0.6562,-0.9927,0.1924,0.5691,-1.3055,1.5524,2053
12,-0.3774,-1.3752,0.3164,0.7894,-1.2809,2.0315,2051
12,0.2314,-1.6184,0.437,0.074,-1.2422,1.9744,2020
12,0.0481,-1.0125,0.3958,0.1509,-1.4944,1.596,2041
12,-0.0864,-1.2393,0.3274,0.1835,-1.4753,1.5599,2046
12,-0.1394,-1.2065,0.3667,0.0831,-1.6993,1.3448,2059
12,-0.2085,-1.1401,0.2849,0.0502,-1.759,1.2224,2051
12,-0.2126,-1.074,0.1602,-0.0714,-1.9174,1.1049,2065
12,-0.2317,-1.0356,0.0984,-0.0152,-2.0676,0.9781,2047
12,-0.2227,-1.0044,0.103,-0.1119,-2.2178,0.8787,2023
12,-0.3005,-0.8777,0.0242,-0.2252,-2.2988,0.8179,2059
12,-0.2087,-0.9973,-0.0962,-0.41,-2.4756,0.824,2059
12,-0.1182,-0.9885,-0.2825,-0.5809,-2.8402,0.8714,2062
12,-0.0508,-0.8701,-0.3159,-0.6986,-3.3492,0.869,2063
12,-0.0769,-0.9124,-0.2593,-0.85,-3.9595,0.9023,2043
12,-0.0825,-0.8203,-0.2471,-0.9507,-4.3635,0.8734,2205
12,-0.0874,-0.7014,-0.1655,-0.9963,-4.3635,0.7626,1967
12,-0.0532,-0.6851,-0.0842,-0.999,-4.3635,0.7015,2015
12,-0.3784,-0.5647,-0.1248,-0.7962,-4.3635,0.9244,2038
12,0.7485,-0.8977,-0.0232,-1.3585,-4.3635,0.4553,2073
12,0.0488,-0.4399,0.0691,-0.9746,-4.3635,0.2016,2063
12,-0.2776,-0.8657,0.061,-0.9312,-4.3635,0.2302,2018
12,-0.0671,-0.8206,0.1919,-1.0448,-4.3635,0.0453,2044
12,-0.0898,-0.8579,0.2229,-0.8549,-4.3635,0.0063,2046
12,-0.2451,-1.0896,0.3984,-0.9264,-4.3635,0.1213,2062
12,-0.2805,-1.0576,0.5364,-1.0583,-4.3635,0.2055,2071
12,-0.2588,-1.0381,0.5286,-1.0324,-4.3635,0.4036,2078
12,-0.3325,-1.0159,0.4819,-1.1688,-4.3635,0.4759,2081
12,-0.3921,-0.9656,0.3953,-1.2215,-4.1824,0.3131,2075
12,-0.3711,-0.9966,0.2886,-1.2282,-3.6499,0.0414,2087
12,-0.2751,-1.0051,0.3162,-1.2395,-3.1963,-0.0297,2044
12,-0.1929,-1.0378,0.2239,-1.393,-2.8518,-0.0981,2032
12,-0.1196,-1.1208,0.1245,-1.5312,-2.5155,-0.1004,2024
12,-0.1367,-1.1646,0.1182,-1.5687,-2.229,-0.0892,2024
12,-0.1733,-1.1333,0.1602,-1.437,-1.9136,-0.0176,2028
12,-0.0938,-1.1565,0.2041,-1.4448,-1.7691,0.034,2066
12,-0.0251,-1.1731,0.1641,-1.4926,-1.6775,0.1294,2085
12,-0.0874,-1.145,0.0752,-1.4813,-1.5704,0.2503,2068
12,-0.0718,-1.1306,0.1411,-1.4906,-1.6331,0.3398,2054
12,-0.0398,-1.0234,0.1301,-1.4986,-1.6813,0.4105,2055
12,-0.0356,-0.9336,0.1213,-1.4584,-1.6584,0.4277,2053
12,-0.1287,-0.9075,0.1919,-1.4374,-1.5391,0.3907,2045
12,-0.1689,-0.7573,0.1682,-1.3491,-1.4083,0.2778,2048
12,-0.0564,-0.6841,0.2295,-1.1945,-1.3681,0.0976,2052
12,-0.0515,-0.7017,0.3599,-1.1232,-1.2318,-0.0936,2045
12,-0.0718,-0.6741,0.3584,-0.9915,-1.073,-0.3091,2052
12,-0.0635,-0.5967,0.4236,-0.7468,-1.0528,-0.5554,2054
12,-0.0852,-0.5994,0.645,-0.3376,-0.7532,-0.9413,2050
12,-0.1411,-0.5305,0.7385,0.1216,-0.287,-1.0436,2039
12,-0.2627,-0.5308,0.8682,0.395,0.4847,-1.1403,2046
12,-0.3022,-0.6409,0.9041,0.8985,1.1838,-1.1969,2051
12,-0.4124,-0.7832,1.5498,1.2504,0.9577,-1.0001,2050
12,-0.4299,-1.2383,1.9999,1.3535,1.246,-0.9554,1990
12,-0.0129,-1.6489,0.9773,0.4334,2.5417,-0.7485,2064
13,0.2607,-2.0,-0.0208,0.2452,3.5926,-0.6299,1996
13,1.9999,-1.5918,-0.3296,-0.2097,3.37,-0.4349,2164
13,1.4006,-1.1201,-0.3015,0.3774,1.856,-0.159,2055
13,0.3938,-1.0671,0.2732,0.6473,0.6557,0.1989,1981
13,-0.6221,-0.6299,0.386,0.9415,0.2948,0.2852,2020
13,-0.8821,-0.8062,0.3135,0.6731,0.7281,0.2099,2059
13,-0.4453,-0.9626,0.0623,0.1059,0.7148,-0.1197,2078
13,-0.4226,-0.9851,-0.0576,-0.1289,0.6388,-0.4326,2098
13,-0.2598,-0.9185,0.165,-0.1136,0.9879,-0.56,2063
13,-0.1772,-1.3845,1.0459,-0.614,0.7818,-0.6514,2057
13,0.4468,-1.1331,-0.1123,-0.0967,0.4864,-0.3405,2038
13,0.3984,-1.0525,-0.2939,0.2223,0.7712,-0.0908,2064
13,0.2727,-1.1267,0.166,0.2918,0.2445,0.0245,2080
13,0.2542,-0.9937,-0.1077,0.4125,0.239,0.2641,2075
13,0.2102,-0.95,-0.0706,0.6151,0.2948,0.3404,2038
13,-0.0771,-0.9998,0.0173,0.5529,0.181,0.3978,2050
13,-0.1941,-0.9075,0.0088,0.5601,0.0911,0.4075,2049
13,-0.1685,-0.9431,0.0713,0.6634,0.0848,0.3782,2048
13,-0.1462,-1.0183,0.1614,0.6642,0.125,0.3755,2045
13,-0.1187,-1.0002,0.0513,0.6678,0.163,0.3563,2055
13,-0.0925,-0.9814,0.0088,0.7011,0.0944,0.3497,2049
13,-0.0684,-0.9927,-0.0029,0.7102,0.0494,0.3381,2040
13,-0.1375,-0.9351,0.144,0.8236,-0.08,0.3232,2058
13,-0.1436,-0.9614,0.3091,0.9214,-0.085,0.31,2057
13,-0.0417,-0.99,0.3025,0.8863,-0.1296,0.3285,2059
13,-0.0454,-0.9871,0.291,0.8801,-0.2184,0.3366,2054
13,-0.0745,-0.9807,0.345,0.8323,-0.244,0.3389,2048
13,-0.1292,-0.9731,0.4092,0.7887,-0.2597,0.3389,2052
13,-0.1514,-0.9712,0.429,0.7333,-0.2165,0.3235,2059
13,-0.1248,-0.98,0.3723,0.6411,-0.1469,0.3111,2050
13,-0.1035,-0.999,0.3003,0.5581,-0.1104,0.3087,2051
13,-0.074,-0.9868,0.2734,0.556,-0.1124,0.3215,2048
13,-0.022,-0.9785,0.2407,0.5715,-0.116,0.3623,2046
13,0.0391,-0.9536,0.1938,0.5972,-0.1206,0.4151,2039
13,0.063,-0.9482,0.1589,0.6107,-0.174,0.4844,2042
13,0.009,-0.9409,0.2227,0.7359,-0.3006,0.563,2044
13,0.0068,-0.9873,0.2544,0.8026,-0.3093,0.6023,2045
13,-0.0146,-1.0125,0.1882,0.82,-0.3421,0.6413,2052
13,-0.1543,-0.9885,0.1653,0.906,-0.4757,0.6244,2045
13,-0.2305,-0.9919,0.2405,1.0065,-0.6138,0.5741,2054
13,-0.2371,-1.0081,0.219,1.0391,-0.7316,0.4884,2036
13,-0.2595,-1.0088,0.2327,1.0608,-0.9048,0.4524,2051
13,-0.3203,-0.9771,0.2957,1.0512,-1.013,0.4089,2045
13,-0.364,-1.0327,0.4539,1.0387,-1.0351,0.4144,2058
13,-0.3652,-1.1252,0.4993,0.8504,-1.0102,0.4032,2059
13,-0.4446,-1.0957,0.4495,0.6763,-0.8658,0.2884,2065
13,-0.509,-1.135,0.4338,0.5257,-0.7482,0.0792,2057
13,-0.5371,-1.0615,0.3975,0.4245,-0.7259,-0.1682,2059
13,-0.561,-0.9971,0.4211,0.3196,-0.6711,-0.3782,2052
13,-0.5261,-0.9836,0.4387,0.1959,-0.5892,-0.5882,2056
13,-0.4246,-0.9426,0.4392,0.0826,-0.4424,-0.7323,2052
13,-0.2222,-0.8928,0.4478,0.0077,-0.401,-0.8166,2058
13,-0.1101,-0.8774,0.4563,-0.0181,-0.3583,-0.8685,2055
13,-0.0728,-0.8599,0.5305,-0.0192,-0.3414,-0.8689,2056
13,-0.0232,-0.8477,0.5884,-0.0649,-0.3298,-0.8296,2049
13,0.0686,-0.8064,0.5674,-0.1141,-0.3887,-0.7267,2046
13,0.1021,-0.7922,0.551,-0.0846,-0.4962,-0.5813,2050
13,0.0491,-0.7927,0.5894,-0.0361,-0.5195,-0.5283,2049
13,0.0413,-0.8066,0.636,0.0063,-0.545,-0.6104,2046
13,-0.1106,-0.8513,0.6667,-0.0599,-0.4444,-0.7329,2043
13,-0.1763,-0.8313,0.6418,-0.1059,-0.3701,-0.8175,2045
13,-0.0415,-0.8501,0.584,-0.1208,-0.3445,-0.8127,2048
13,0.0435,-0.8528,0.5198,-0.1023,-0.4461,-0.783,2048
13,-0.0125,-0.8933,0.4966,-0.0828,-0.5335,-0.7806,2046
13,-0.011,-0.9248,0.4514,-0.0601,-0.6341,-0.7946,2039
13,0.0042,-0.917,0.4255,-0.0527,-0.7436,-0.8127,2041
13,0.0403,-0.9062,0.3638,-0.1309,-0.8023,-0.7897,2053
13,-0.063,-0.9514,0.2759,-0.1304,-0.7915,-0.6996,2058
13,-0.1448,-0.9607,0.2424,-0.0475,-0.6144,-0.6119,2066
13,-0.0542,-1.0134,0.3223,0.0216,-0.6984,-0.5486,2060
13,0.0474,-0.9905,0.3301,0.069,-0.928,-0.4694,2055
13,0.1216,-1.0061,0.281,0.1021,-1.0385,-0.4101,2049
13,0.2581,-0.9944,0.2566,0.1194,-1.2231,-0.349,2054
13,0.3198,-1.0012,0.2917,0.1377,-1.3593,-0.2715,2048
13,0.355,-0.9839,0.3271,0.1674,-1.4912,-0.2043,2054
13,0.3308,-0.9744,0.3645,0.178,-1.5985,-0.1446,2051
13,0.2996,-0.9561,0.3572,0.1883,-1.6335,-0.1039,2049
13,0.2231,-0.9675,0.3433,0.1682,-1.5992,-0.0573,2053
13,0.1301,-0.9905,0.3474,0.1602,-1.4767,-0.0461,2051
13,0.0806,-0.9519,0.3372,0.1393,-1.3366,-0.0152,2056
13,0.0657,-0.9392,0.3455,0.1742,-1.2247,-0.0111,2052
13,0.0649,-0.9036,0.3325,0.212,-1.0971,0.0108,2050
13,0.1318,-0.8955,0.323,0.2428,-1.0214,0.0186,2049
13,0.1619,-0.9197,0.3357,0.2476,-0.974,0.0248,2050
13,0.1748,-0.915,0.3389,0.255,-0.8831,0.0029,2053
13,0.1836,-0.939,0.3691,0.2535,-0.7846,-0.0152,2057
13,0.2092,-0.9504,0.3899,0.2246,-0.6513,-0.0393,2050
13,0.1965,-0.96,0.4441,0.1891,-0.5512,-0.0378,2049
13,0.167,-0.937,0.4646,0.1571,-0.4212,-0.0374,2051
13,0.146,-0.9377,0.4822,0.11,-0.24,-0.0326,2050
13,0.1179,-0.9395,0.5051,0.0894,-0.0019,-0.0406,2055
13,0.1389,-0.9341,0.5134,0.0589,0.2484,-0.0542,2053
13,0.1611,-0.9343,0.5034,0.053,0.4659,-0.0574,2049
13,0.2141,-0.9485,0.4949,0.0381,0.6031,-0.0474,2054
13,0.2305,-0.9587,0.4387,0.0216,0.6952,-0.0257,2052
13,0.2422,-0.9573,0.4006,0.0087,0.7501,-0.0035,2050
13,0.2305,-0.9553,0.3804,0.0069,0.7632,0.0277,2051
13,0.1919,-0.948,0.3599,0.0165,0.7771,0.0499,2050
13,0.1558,-0.9294,0.354,0.034,0.7933,0.066,2052
13,0.1338,-0.9263,0.3533,0.0489,0.7855,0.0786,2055
13,0.1218,-0.9277,0.3555,0.0794,0.7947,0.082,2053
13,0.1057,-0.9392,0.3479,0.1041,0.814,0.0836,2056
13,0.0869,-0.9426,0.3564,0.1198,0.8148,0.0798,2048
14,0.0664,-0.9568,0.3662,0.1441,0.8187,0.075,2056
14,0.0515,-0.9617,0.374,0.1702,0.8372,0.0718,2051
14,0.0684,-0.9465,0.3792,0.192,0.8532,0.0674,2051
14,0.0791,-0.9441,0.3752,0.2097,0.8499,0.0649,2051
14,0.0757,-0.9458,0.3616,0.2278,0.8693,0.0591,2051
14,0.0732,-0.9431,0.3679,0.2349,0.8989,0.0433,2052
14,0.0547,-0.9402,0.3921,0.2493,0.9376,0.023,2045
14,0.0537,-0.9316,0.4019,0.2562,0.9983,0.0069,2052
14,0.0454,-0.939,0.4148,0.2621,1.0953,-0.0169,2051
14,0.0242,-0.9421,0.4277,0.2646,1.1994,-0.0402,2045
14,-0.0193,-0.947,0.4343,0.2615,1.3363,-0.0787,2051
14,-0.0471,-0.9414,0.4302,0.2687,1.5103,-0.1208,2053
14,-0.0442,-0.9309,0.4478,0.2791,1.6684,-0.1543,2052
14,-0.0254,-0.9294,0.4529,0.2791,1.7892,-0.1681,2050
14,-0.012,-0.9065,0.4307,0.2806,1.9,-0.1996,2054
14,-0.0073,-0.9082,0.4504,0.2974,2.0165,-0.2203,2044
14,-0.0244,-0.9106,0.4531,0.3168,2.1327,-0.2449,2058
14,-0.0361,-0.9097,0.4556,0.3512,2.2638,-0.2432,2050
14,-0.0486,-0.9375,0.4905,0.3944,2.4011,-0.2346,2055
14,-0.0156,-0.9404,0.5322,0.4181,2.4682,-0.155,2055
14,0.0295,-0.9397,0.5703,0.4047,2.4189,0.0037,2061
14,0.0142,-0.9363,0.5449,0.3595,2.3762,0.0398,2053
14,-0.0259,-0.9675,0.5532,0.3232,2.2969,-0.0013,2061
14,0.0854,-1.0203,0.5393,0.2519,1.8687,-0.0269,2082
14,0.0894,-0.856,0.5593,0.1519,1.5926,-0.1332,2065
14,0.2268,-0.8965,0.5042,0.3221,0.9812,0.0647,2005
14,0.1802,-0.9333,0.3372,0.2983,0.8142,0.1643,2031
14,-0.0347,-0.9153,0.4519,0.2577,0.7498,0.1834,2042
14,-0.0098,-0.8613,0.5308,0.2521,0.2155,0.2582,2048
14,0.0342,-0.8523,0.5408,0.2715,-0.0437,0.2725,2038
14,-0.1531,-0.8645,0.5789,0.2583,-0.0174,0.2755,2049
14,-0.2651,-0.854,0.6958,0.289,0.1233,0.2183,2049
14,-0.1831,-0.8464,0.7429,0.2067,0.328,0.1799,2049
14,-0.2129,-0.8357,0.7324,0.1507,0.6002,0.0888,2050
14,-0.1953,-0.8225,0.7554,0.1028,0.9267,0.0312,2056
14,-0.1396,-0.8323,0.7202,0.0522,1.2019,-0.0193,2057
14,-0.0657,-0.8467,0.6733,0.0477,1.3688,-0.0365,2040
14,-0.0156,-0.8506,0.656,0.0265,1.4117,-0.035,2055
14,0.0259,-0.8953,0.5938,-0.0514,1.3982,-0.0067,2048
14,0.1292,-0.877,0.5413,-0.0466,1.1077,0.0639,2052
14,0.116,-0.8623,0.4988,-0.0111,0.72,0.2067,2050
14,0.0457,-0.9116,0.5068,0.0265,0.4088,0.2971,2054
14,0.0181,-0.9373,0.4653,-0.0238,0.3509,0.3227,2049
14,-0.0085,-0.95,0.4956,-0.0591,0.2864,0.3543,2058
14,-0.0107,-0.9343,0.5168,-0.0818,0.2353,0.4006,2041
14,-0.02,-0.9812,0.5073,-0.1329,0.2041,0.4446,2046
14,-0.0339,-0.9719,0.5054,-0.2013,0.2373,0.4637,2041
14,-0.0242,-0.9504,0.5425,-0.2578,0.2228,0.4968,2057
14,-0.03,-0.9448,0.5312,-0.3071,0.1724,0.5277,2053
14,-0.0347,-0.9133,0.5466,-0.3416,0.0977,0.5521,2055
14,-0.054,-0.8901,0.5527,-0.373,0.0245,0.5715,2056
14,-0.1016,-0.875,0.552,-0.4034,-0.051,0.6111,2053
14,-0.1812,-0.8516,0.5676,-0.4299,-0.0659,0.6694,2038
14,-0.1592,-0.8525,0.585,-0.4856,-0.057,0.691,2053
14,-0.1348,-0.8086,0.5933,-0.5297,-0.0646,0.6894,2051
14,-0.1082,-0.7864,0.6294,-0.5458,-0.0646,0.6899,2057
14,-0.0994,-0.7808,0.6794,-0.5604,-0.0539,0.6586,2046
14,-0.1445,-0.7632,0.728,-0.5398,-0.0069,0.6424,2054
14,-0.2334,-0.7939,0.6777,-0.5621,0.0843,0.6167,2055
14,-0.2576,-0.8064,0.6555,-0.5956,0.1526,0.5878,2054
14,-0.2385,-0.8196,0.6443,-0.6384,0.2282,0.5703,2050
14,-0.1792,-0.8411,0.5957,-0.6855,0.2571,0.5524,2057
14,-0.144,-0.8389,0.5796,-0.7048,0.2293,0.5517,2053
14,-0.1436,-0.8611,0.5796,-0.7265,0.1923,0.551,2054
14,-0.1521,-0.8799,0.543,-0.7749,0.1795,0.55,2055
14,-0.1997,-0.8779,0.4866,-0.8672,0.1703,0.552,2061
14,-0.3196,-0.9016,0.4934,-0.9453,0.2056,0.5287,2051
14,-0.4819,-0.9453,0.5081,-1.0628,0.344,0.4755,2046
14,-0.5774,-0.9343,0.5122,-1.2733,0.549,0.377,2053
14,-0.572,-0.5884,0.4424,-1.2041,0.8415,0.2079,2042
14,-0.3306,-0.8306,0.6328,-1.2258,0.9027,0.0987,2041
14,-0.5251,-0.8477,0.6421,-1.1499,0.9634,0.071,2051
14,-0.3201,-1.2493,0.3896,-1.3934,0.9596,-0.0276,2050
14,-0.4211,-1.3518,-0.1965,-1.6279,1.3178,-0.1233,2056
14,0.1831,-1.3677,-0.499,-1.8559,0.8319,-0.0977,2039
14,0.0854,-0.9329,-0.312,-1.5934,0.0973,-0.0446,2057
14,-0.4768,-0.7422,0.0703,-1.3672,-0.072,-0.0784,2060
14,-0.6953,-0.7507,0.2268,-1.2063,0.0583,-0.1778,2050
14,-0.5208,-0.9045,0.2241,-1.1955,0.2224,-0.3751,2056
14,-0.2585,-1.0161,0.0652,-1.1676,0.3108,-0.5422,2059
14,-0.2878,-0.9949,-0.0637,-1.0704,0.3968,-0.6737,2053
14,-0.3591,-0.9121,-0.0547,-0.9704,0.4332,-0.7669,2053
14,-0.3142,-0.9204,-0.019,-0.8525,0.4084,-0.7951,2055
14,-0.2859,-0.9622,0.0249,-0.7538,0.397,-0.8331,2064
14,-0.2913,-0.9731,-0.0007,-0.6837,0.3607,-0.8955,2053
14,-0.2551,-0.9673,0.0039,-0.6104,0.3444,-0.9453,2052
14,-0.2329,-0.9465,0.0752,-0.499,0.2566,-0.9919,2048
14,-0.2563,-0.9487,0.1421,-0.4164,0.184,-1.0355,2062
14,-0.2568,-0.9851,0.2112,-0.3944,0.1818,-1.0698,2059
14,-0.2544,-0.9836,0.2256,-0.4076,0.181,-1.0677,2054
14,-0.1985,-0.9932,0.281,-0.4315,0.1832,-1.0152,2051
14,-0.2134,-0.9587,0.2996,-0.4545,0.1643,-0.9842,2053
14,-0.2112,-0.9524,0.2734,-0.4606,0.1691,-0.9654,2048
14,-0.1865,-0.9927,0.2173,-0.4999,0.1747,-0.9397,2051
14,-0.1548,-0.9675,0.1597,-0.5172,0.1607,-0.9131,2052
14,-0.1577,-0.9436,0.1023,-0.4983,0.1618,-0.9182,2063
14,-0.1089,-0.9326,0.073,-0.4711,0.1268,-0.8865,2048
14,-0.0876,-0.9475,0.0603,-0.4448,0.136,-0.864,2048
14,-0.042,-0.9565,0.0371,-0.3948,0.1173,-0.7994,2047
14,-0.0408,-0.9609,0.0393,-0.3277,0.1246,-0.7417,2048
14,-0.0447,-0.9536,0.031,-0.2436,0.1718,-0.6323,2048
14,-0.0437,-0.9543,0.001,-0.1815,0.2944,-0.5363,2049
14,-0.0747,-0.9814,-0.0156,-0.0995,0.453,-0.4994,2052
15,-0.0305,-1.1406,0.1804,-0.1589,0.1732,-0.6925,2061
15,-0.085,-1.0186,0.0051,-0.2384,0.3356,-0.7383,2044
15,-0.0161,-0.9507,0.0098,-0.1619,0.4145,-0.709,2064
15,0.0247,-1.0225,0.0388,-0.1346,0.401,-0.6947,2051
15,0.0532,-1.0352,0.0803,-0.1314,0.3107,-0.6668,2057
15,0.0361,-0.989,0.115,-0.1567,0.2752,-0.6384,2050
15,0.032,-0.9758,0.1409,-0.1565,0.2192,-0.6308,2048
15,0.0774,-1.0098,0.1577,-0.1808,0.1852,-0.5809,2051
15,0.1311,-1.0127,0.1755,-0.2301,0.1466,-0.5486,2058
15,0.2839,-1.033,0.2893,-0.3306,0.1229,-0.377,2055
15,0.113,-1.0151,0.1653,-0.3485,0.0653,-0.4141,2046
15,0.1248,-1.019,0.1038,-0.3795,0.1081,-0.3414,2050
15,0.1028,-1.021,0.064,-0.4378,0.1846,-0.3209,2047
15,0.0364,-1.0017,0.0742,-0.4389,0.2309,-0.3213,2046
15,0.0217,-1.01,0.0613,-0.4144,0.23,-0.3149,2047
15,-0.0166,-1.0234,-0.0166,-0.3794,0.2195,-0.3747,2038
15,0.0132,-1.0186,-0.0332,-0.3405,0.1719,-0.398,2042
15,0.0559,-1.042,-0.001,-0.2571,0.1513,-0.4328,2042
15,0.0605,-1.0344,0.0408,-0.2362,0.136,-0.4248,2068
15,0.0696,-1.0908,0.2351,-0.1188,0.077,-0.3987,2046
15,0.0903,-1.1196,0.2612,-0.1095,-0.0619,-0.2818,2067
15,0.1111,-1.2097,0.2188,-0.1428,-0.1691,-0.1061,2067
15,0.1606,-1.197,0.3337,-0.1133,-0.5838,0.1358,2048
15,0.2451,-1.1687,0.3037,0.0153,-1.1066,0.3496,2017
15,0.2778,-1.1614,0.2332,0.1003,-1.4418,0.4798,2054
15,0.0422,-1.2642,0.3633,-0.008,-0.9463,0.4695,2052
15,0.2822,-1.2932,0.3269,0.0149,-1.2679,0.781,2039
15,0.3496,-1.1689,0.2656,0.0671,-1.4563,0.6652,2043
15,-0.748,-0.6423,0.4658,-0.7811,-1.4203,-0.3607,2061
15,0.2769,-1.2764,0.3411,0.3486,-0.6854,1.4059,2077
15,0.1121,-0.8547,0.3179,0.0609,-0.7204,0.5193,2051
15,-0.3984,-0.8096,0.2437,0.0261,0.0453,0.3324,2066
15,-0.3755,-0.9021,0.3464,0.0695,0.8351,0.2575,2048
15,0.24,-0.8513,0.2527,0.2342,0.661,0.6189,2042
15,-0.4082,-0.9329,0.1621,0.4569,1.0484,0.5384,2061
15,-0.5247,-0.9417,0.4871,0.8709,1.256,0.3741,2058
15,-0.2922,-0.7961,0.6174,0.9938,1.1688,0.141,2048
15,-0.0151,-0.8564,0.386,0.9957,1.0605,0.4139,2033
15,0.366,-0.8718,0.2573,1.1283,0.5894,0.7425,2048
15,-0.0569,-0.8879,0.448,1.081,0.452,0.7601,2066
15,-0.2004,-0.8389,0.5115,1.1812,0.394,0.8504,2059
15,-0.0593,-0.8013,0.4441,1.3334,0.3365,0.8969,2055
15,-0.0503,-0.8474,0.416,1.4158,0.3128,0.893,2050
15,-0.0659,-0.8416,0.4663,1.4925,0.2191,0.9301,2050
15,-0.0752,-0.8484,0.4946,1.5234,0.193,0.9606,2047
15,-0.0815,-0.8372,0.4702,1.572,0.2234,0.9895,2058
15,-0.1033,-0.8276,0.4604,1.6238,0.2679,0.9669,2052
15,-0.1169,-0.8289,0.4685,1.6757,0.2964,0.927,2051
15,-0.104,-0.8259,0.4517,1.6945,0.3461,0.8775,2054
15,-0.0828,-0.8435,0.425,1.6974,0.367,0.8509,2051
15,-0.073,-0.8416,0.4163,1.7025,0.3317,0.8249,2052
15,-0.0835,-0.8394,0.3787,1.6928,0.3093,0.7947,2049
15,-0.1199,-0.856,0.3574,1.6776,0.2545,0.7614,2054
15,-0.1233,-0.8606,0.344,1.6302,0.2159,0.7054,2042
15,-0.1458,-0.8557,0.3372,1.5692,0.2011,0.6466,2052
15,-0.1648,-0.8516,0.3298,1.4989,0.1774,0.5869,2048
15,-0.1975,-0.8689,0.3062,1.4303,0.2184,0.5283,2049
15,-0.2517,-0.8608,0.2686,1.3745,0.329,0.4572,2048
15,-0.3015,-0.8635,0.2847,1.3452,0.5121,0.377,2043
15,-0.3486,-0.9038,0.3049,1.2306,0.7392,0.3084,2047
15,-0.5439,-0.9082,0.5591,1.5307,0.7977,0.4599,2049
15,-0.5066,-0.6697,0.2329,1.2379,2.0144,0.0308,2048
15,-0.4929,-1.2087,0.2424,0.8508,2.7239,-0.0409,2041
15,-0.1526,-0.9778,0.2295,0.9266,3.1343,0.0537,2050
15,0.0024,-1.0852,0.2109,0.6576,3.5419,-0.1911,2051
15,0.4065,-0.9233,0.0291,0.3844,3.446,-0.3695,2043
15,-0.3667,-1.2324,-0.1201,0.4589,3.48,0.0779,2032
15,0.467,-1.0156,0.0281,0.063,3.4109,0.0043,2044
15,0.7156,-0.865,-0.3105,0.0413,2.5872,-0.019,2048
15,-0.0803,-1.7405,-0.6895,-0.3448,2.3216,-0.3711,2053
15,-0.6567,-1.7952,-0.8286,-1.124,3.2076,-0.5979,2125
15,0.178,-2.0,-0.3601,-0.9701,2.1308,-0.2649,2056
15,1.1875,-1.822,-1.0881,-1.8034,0.459,-0.0859,2081
15,0.9731,-1.7668,-1.0869,-1.816,-0.6063,0.068,2049
15,0.2131,-1.7603,-0.2036,-1.2922,-1.5459,0.3137,2074
15,0.3005,-1.5544,0.6157,-0.9083,-1.411,0.4409,2033
15,0.1414,-1.0469,1.0195,-0.905,-1.4869,0.4735,2076
15,-0.3184,-0.6228,0.5059,-1.1343,-1.2896,0.4566,2052
15,-0.9741,-0.5835,0.1501,-1.2347,-0.457,0.4951,1962
15,-1.0005,-0.3801,0.8303,-1.0345,0.446,0.3721,2043
15,-0.6265,-0.4744,1.1411,-1.222,0.6753,0.1123,1962
15,-0.864,-0.7952,0.7112,-1.2706,0.8901,0.0157,2049
15,-0.5522,-1.2712,0.2158,-1.4023,1.428,-0.1326,2182
15,0.0732,-1.3894,-0.2639,-1.5269,1.4314,-0.1439,1911
15,0.2068,-1.2075,-0.2871,-1.4035,0.926,-0.0229,2079
15,-0.1238,-0.8857,-0.0349,-1.1864,0.5204,0.0101,2047
15,-0.4126,-0.7581,0.2224,-1.0115,0.331,-0.0377,2033
15,-0.5239,-0.8518,0.2412,-0.9457,0.3055,-0.133,2031
15,-0.5242,-1.0039,0.1611,-0.9577,0.4681,-0.2128,2044
15,-0.4473,-1.0308,0.0256,-0.9853,0.5537,-0.2786,2066
15,-0.4421,-0.9885,-0.0518,-0.9455,0.652,-0.3145,2140
15,-0.3547,-0.9272,-0.1201,-0.8513,0.6375,-0.3532,2052
15,-0.3335,-0.9258,-0.1951,-0.701,0.5461,-0.3912,2035
15,-0.2908,-0.9265,-0.2104,-0.5255,0.4311,-0.4292,2059
15,-0.2952,-0.9409,-0.144,-0.385,0.3204,-0.4667,2018
15,-0.3105,-0.9287,-0.0784,-0.2631,0.3012,-0.5096,2039
15,-0.3647,-0.947,0.0139,-0.1529,0.2317,-0.5643,2069
15,-0.4036,-0.9553,0.0845,-0.0852,0.2958,-0.6223,2048
15,-0.4343,-0.9824,0.0876,-0.0692,0.3263,-0.6917,2050
15,-0.3696,-0.9839,0.0779,-0.0463,0.3513,-0.7432,2047
15,-0.3127,-0.9744,0.0947,-0.0567,0.3506,-0.7717,2015
15,-0.269,-1.0093,0.0952,-0.049,0.3115,-0.8131,2032
16,-0.2322,-0.9905,0.0708,-0.0079,0.2899,-0.8023,2032
16,-0.187,-0.9863,0.0542,0.0277,0.2099,-0.8099,2041
16,-0.2207,-0.9143,0.012,0.0859,0.1997,-0.7986,2004
16,-0.178,-0.9363,0.0044,0.1009,0.1816,-0.8423,2006
16,-0.259,-0.9292,0.0583,0.147,0.1948,-0.8985,2073
16,-0.239,-0.9695,0.0874,0.1669,0.2262,-0.9966,2038
16,-0.1919,-0.9497,0.0693,0.2225,0.2563,-1.028,2049
16,-0.116,-0.9453,0.0967,0.1991,0.2888,-1.0536,2102
16,-0.0989,-0.9602,0.1448,0.1349,0.2705,-1.029,2076
16,-0.1045,-1.0413,0.1309,0.07,0.3394,-0.9947,2061
16,-0.0312,-0.9514,0.1135,0.0438,0.3984,-0.8934,2017
16,-0.0793,-0.9978,0.1011,0.0843,0.3737,-0.7674,2062
16,-0.0737,-0.9626,0.123,0.114,0.3304,-0.6819,2124
16,-0.1216,-0.9097,0.1013,0.1136,0.4421,-0.5999,2040
16,-0.0571,-0.9907,0.1072,0.0619,0.5982,-0.5086,2046
16,-0.0361,-0.9905,0.1011,0.0967,0.6225,-0.382,2152
16,-0.0569,-1.0132,0.0757,0.1007,0.6762,-0.3305,2049
16,-0.041,-1.009,0.1008,0.0786,0.6998,-0.2618,2059
16,-0.0767,-0.9941,0.0864,0.0501,0.7738,-0.1481,2104
16,-0.0298,-1.0669,0.1267,-0.0413,0.7616,-0.1329,2060
16,0.0779,-1.0415,0.0977,-0.0487,0.6516,-0.0928,2045
16,0.0593,-1.0095,0.0576,-0.0477,0.537,-0.0878,2057
16,-0.0166,-0.9734,0.0698,-0.0021,0.5148,-0.0586,2058
16,-0.001,-0.9944,0.0747,-0.0047,0.5892,-0.0324,2025
16,0.0583,-1.0168,0.0161,-0.0031,0.5759,-0.0425,2023
16,0.0979,-1.033,-0.0024,0.0422,0.5074,0.0129,2070
16,0.1245,-1.0046,-0.0554,0.0973,0.4558,0.1253,2057
16,0.094,-1.0098,-0.0151,0.1257,0.3751,0.2205,2028
16,-0.0281,-0.9756,0.0095,0.1165,0.3777,0.1971,2105
16,-0.0967,-0.9963,0.032,0.161,0.3899,0.1878,2026
16,-0.1541,-1.0024,0.0303,0.192,0.3272,0.1847,2066
16,-0.1523,-1.0022,0.0381,0.2293,0.2582,0.1651,2033
16,-0.1201,-1.002,0.0181,0.2522,0.1972,0.1545,2006
16,-0.0654,-1.0022,0.0259,0.278,0.1537,0.1864,2012
16,-0.0022,-1.0063,0.0347,0.3132,0.1284,0.2629,2040
16,0.012,-0.9885,0.073,0.2726,0.2048,0.3161,2081
16,-0.019,-1.0139,0.0491,0.2774,0.2587,0.3674,2030
16,-0.0376,-0.999,0.0356,0.308,0.2627,0.4247,2062
16,-0.0806,-1.0049,0.0991,0.2923,0.2594,0.4509,2053
16,-0.137,-0.9954,0.1233,0.3119,0.1981,0.4581,2047
16,-0.177,-0.9858,0.1072,0.3185,0.137,0.4488,2085
16,-0.1799,-0.9683,0.1155,0.324,0.1252,0.4164,2139
16,-0.1431,-0.9446,0.0811,0.3591,0.0794,0.4083,2043
16,-0.0762,-0.9705,0.0583,0.353,0.0894,0.4039,2059
16,-0.0144,-0.9705,-0.002,0.3476,0.159,0.4243,2126
16,-0.0244,-0.9995,0.0071,0.3717,0.1551,0.4702,2028
16,-0.0459,-1.0012,0.0356,0.3994,0.1647,0.5321,2061
16,-0.0835,-0.9756,0.1082,0.4405,0.1441,0.6172,2041
16,-0.1189,-0.991,0.1521,0.4637,0.1115,0.646,2049
16,-0.1763,-1.0015,0.1729,0.4963,0.1019,0.6528,2049
16,-0.1711,-0.9468,0.177,0.5224,0.142,0.6648,2042
16,-0.1565,-0.9753,0.127,0.5209,0.1806,0.6566,2031
16,-0.126,-0.99,0.1018,0.5473,0.189,0.6381,2039
16,-0.1035,-1.0088,0.0696,0.5738,0.2449,0.6669,1985
16,-0.0981,-1.1245,0.0083,0.5845,0.2414,0.6922,2102
16,-0.0649,-1.135,-0.0098,0.634,0.2344,0.7359,1964
16,-0.0322,-1.2239,0.0215,0.6572,0.1614,0.7739,2050
16,-0.0017,-1.2097,0.0723,0.7022,0.0096,0.8239,2049
16,0.0283,-1.2205,0.1135,0.7363,-0.2337,0.8512,2048
16,-0.0798,-1.2004,0.1938,0.7597,-0.3541,0.9128,2040
16,-0.0701,-1.1714,0.2407,0.7941,-0.4373,0.9433,2043
16,-0.0322,-1.1204,0.2788,0.8448,-0.5011,1.0244,2056
16,-0.0293,-1.1155,0.2983,0.8867,-0.5576,1.0854,2073
16,-0.0752,-1.073,0.3015,0.8951,-0.539,1.1372,2112
16,-0.0796,-1.0623,0.301,0.8841,-0.526,1.1706,2081
16,-0.1409,-1.0237,0.3179,0.8786,-0.4516,1.254,2077
16,-0.1646,-1.0364,0.3052,0.8585,-0.341,1.4081,2039
16,-0.209,-1.0474,0.3604,0.8297,-0.1388,1.6283,2076
16,-0.2844,-1.103,0.4062,0.7919,0.0063,1.7555,2058
16,-0.1973,-1.1587,0.4092,0.763,0.102,1.7162,2102
16,-0.0386,-1.1074,0.3892,0.7975,0.1185,1.6572,2074
16,-0.0117,-1.1719,0.427,0.8656,0.1277,1.6748,2114
16,-0.0825,-1.3691,0.5022,0.9535,0.0068,1.4888,1997
16,-0.3132,-1.3813,0.5525,1.0616,0.1469,1.241,1981
16,-0.4558,-1.231,0.5703,1.1524,0.3747,1.1785,1998
16,-0.4036,-1.123,0.4858,1.1722,0.5016,1.1244,2053
16,-0.1384,-1.1306,0.1804,1.0991,0.3904,1.2336,2058
16,-0.2568,-1.2246,-0.0022,1.0087,0.2501,1.388,2055
16,-0.4302,-1.0483,-0.0771,0.9043,0.4498,1.4234,2051
16,-0.5916,-0.8237,0.103,1.1619,0.7387,1.2552,2046
16,-0.5847,-0.876,0.3069,1.2515,0.5621,0.8609,2044
16,-0.3433,-0.8289,0.3933,1.0368,-0.1816,0.9586,2050
16,-0.4385,-0.8379,0.1436,0.5279,-0.7154,0.5368,2039
16,-1.4204,-0.6699,-0.1589,0.569,0.7083,-2.0413,2059
16,-2.0,-0.6877,0.2827,0.9942,2.904,-0.1049,2047
16,-0.7539,0.3721,-0.4595,1.6503,3.2123,0.9935,2047
16,-0.3887,-0.6472,-0.0208,0.9167,2.9485,-0.3512,2087
16,-1.1985,-0.9934,0.3955,0.9428,2.7281,-1.0409,2054
16,-0.6692,-0.7942,0.678,0.9286,2.0525,-1.4138,2072
16,-0.1301,-0.6155,0.1018,0.5489,2.6248,-1.754,2066
16,0.2793,-0.4944,-0.2329,0.488,3.0214,-1.7924,2061
16,0.3445,-0.4849,-0.2217,0.6263,3.1012,-1.6519,2050
16,0.1401,-0.5498,-0.1074,0.7638,2.6458,-1.5484,2047
16,0.0022,-0.5916,0.0205,0.8958,2.173,-1.4588,2044
16,-0.1797,-0.6472,0.1062,1.0357,1.9053,-1.5707,2044
16,-0.2639,-0.7341,0.1638,1.0504,1.7462,-1.8675,2047
16,-0.1887,-0.7727,0.125,0.897,1.6625,-2.0913,2045
16,-0.1592,-0.7896,0.0859,0.7015,1.554,-2.2157,2052
16,-0.1499,-0.8367,0.1106,0.5301,1.2986,-2.2997,2056
16,-0.093,-0.8647,0.1404,0.3729,0.8678,-2.4245,2054
16,-0.1294,-0.8613,0.1333,0.2823,0.4743,-2.587,2052
17,-0.1694,-0.8755,0.1182,0.2132,0.3289,-2.6914,2045
17,-0.135,-0.9417,0.0852,0.1489,0.2354,-2.7245,2050
17,-0.1335,-0.9387,0.1213,0.0489,0.2302,-2.7482,2052
17,-0.116,-0.927,0.1311,-0.0985,0.2262,-2.8075,2051
17,-0.0803,-0.9219,0.1475,-0.188,0.1716,-2.858,2055
17,-0.1233,-0.8879,0.1348,-0.2366,0.1454,-2.9329,2054
17,-0.1313,-0.9009,0.1443,-0.2514,0.0013,-2.9961,2052
17,-0.1155,-0.9128,0.1306,-0.3236,-0.147,-3.0626,2048
17,-0.1133,-0.9214,0.0957,-0.3617,-0.2586,-3.1007,2048
17,-0.1445,-0.9685,0.106,-0.4076,-0.3662,-3.1536,2049
17,-0.1802,-0.9866,0.1023,-0.4818,-0.4232,-3.2002,2049
17,-0.2144,-0.9866,0.1326,-0.4763,-0.4854,-3.2513,2050
17,-0.2275,-1.0225,0.1958,-0.5805,-0.4548,-3.3094,2045
17,-0.2717,-1.0266,0.2087,-0.636,-0.3565,-3.368,2048
17,-0.3489,-1.1497,0.1821,-0.6546,-0.2374,-3.44,2051
17,-0.4414,-1.2639,0.1768,-0.7538,-0.0153,-3.4559,2053
17,-0.5425,-1.3218,0.1675,-0.795,0.5719,-3.5236,2061
17,-0.8789,-2.0,0.7261,-2.8612,1.1496,-3.6864,2101
17,-0.0068,-0.7212,0.741,-1.4339,-0.4959,-2.331,1946
17,-1.354,-1.2715,-0.1694,-0.6027,4.3634,-2.5509,2071
17,-0.8364,-1.2842,0.6606,-0.9696,3.9839,-1.9465,2152
17,-0.3188,-1.0947,0.5769,-0.5673,4.3634,-1.5083,2072
17,-0.5383,-1.1838,0.572,-0.5384,3.8705,-1.5129,2026
17,-0.5327,-0.8311,0.4407,-0.4814,4.165,-1.0681,2029
17,-0.592,-1.1252,0.4265,-0.3025,4.3634,-0.7582,2048
17,-0.2627,-0.9341,0.4456,-0.0667,4.3634,-0.3397,2051
17,-0.1096,-0.7297,0.3977,0.0802,4.3634,0.0563,2056
17,0.1084,-0.8652,0.3779,0.2698,4.3634,0.0365,2046
17,0.2991,-0.8503,0.3525,0.4425,4.3634,-0.0407,2001
17,0.8608,-0.8176,0.322,0.5751,4.3634,-0.1217,2004
17,1.3689,-0.697,0.3877,0.3827,4.0877,-0.0835,2066
17,1.1096,-0.479,0.5579,0.5846,2.9244,0.0083,2049
17,0.9309,-0.5049,0.6238,0.7056,1.7163,0.0048,2047
17,0.968,-0.7651,0.5151,0.1019,0.2727,0.1862,2035
17,0.6096,-0.7729,0.3728,0.1489,-0.5677,0.2896,2018
17,-1.6868,-2.0,-0.8318,-3.0977,1.8211,0.8708,2077
17,-1.6096,0.6343,1.7646,0.7116,2.594,1.712,2067
17,-0.2234,-1.6902,0.8831,-0.7949,1.9156,1.3709,2064
17,1.9999,-0.7041,-0.5007,-0.8748,1.2282,0.6687,2065
17,0.23,-1.6355,0.0022,-0.5918,1.0377,1.0264,1976
17,-0.5474,-0.9011,0.6887,-0.6691,0.0217,1.0463,2080
17,0.2214,-0.6816,0.116,-0.4077,0.5994,0.9658,2000
17,0.416,-0.9861,0.543,-0.5359,0.4208,1.2993,2069
17,-0.2695,-1.1133,0.2524,-0.6578,0.0667,1.1806,2058
17,-0.282,-0.8354,0.1646,-0.6058,0.4914,0.913,2064
17,-0.0125,-0.8679,0.104,-0.4789,0.4738,0.9566,2035
17,0.0757,-1.0549,0.3416,-0.5285,0.0848,0.9716,2068
17,0.0051,-0.9106,0.4043,-0.5,-0.1506,0.8963,2023
17,0.0234,-0.9211,0.3235,-0.4594,-0.242,0.8281,2019
17,0.0083,-1.0093,0.2988,-0.514,-0.204,0.6943,2060
17,-0.0381,-1.0015,0.2634,-0.4947,-0.2555,0.5826,2076
17,-0.1028,-0.9907,0.2844,-0.4707,-0.1919,0.5264,2028
17,-0.0496,-0.9519,0.2651,-0.4244,-0.1019,0.4907,2049
17,0.0435,-0.9631,0.2366,-0.3722,-0.1518,0.5397,2048
17,0.1318,-0.9641,0.2356,-0.3722,-0.2221,0.6271,2058
17,0.0813,-0.9998,0.2581,-0.3288,-0.2495,0.6442,2034
17,0.1121,-1.0273,0.2839,-0.4324,-0.0158,0.6978,1955
17,0.0757,-1.0457,0.2366,-0.5393,0.1246,0.6913,2126
17,0.0398,-1.0308,0.1562,-0.5657,0.1864,0.6656,2169
17,0.0063,-0.9604,0.0776,-0.6068,0.3322,0.7119,2064
17,-0.0786,-0.9441,0.0952,-0.5821,0.3571,0.7341,2055
17,-0.1323,-0.9043,0.1008,-0.5078,0.3718,0.7553,2064
17,-0.1711,-0.8936,0.1138,-0.4565,0.3227,0.7895,2070
17,-0.1816,-0.9104,0.1721,-0.42,0.1858,0.7829,2048
17,-0.1653,-0.9053,0.1692,-0.3856,0.1312,0.7838,2059
17,-0.2419,-0.9285,0.2075,-0.3273,0.021,0.715,2120
17,-0.3008,-0.9702,0.2136,-0.2345,0.1116,0.5608,1992
17,-0.3115,-1.0278,0.1975,-0.2121,0.226,0.4199,2035
17,-0.2515,-1.0205,0.168,-0.1902,0.2185,0.2899,2082
17,-0.1836,-1.0293,0.1592,-0.198,0.2171,0.2045,2071
17,-0.2178,-1.001,0.1697,-0.1446,0.1562,0.1747,2065
17,-0.1975,-0.9971,0.1924,-0.1148,0.1278,0.1297,2045
17,-0.1433,-0.999,0.2073,-0.0948,0.0771,0.1353,2031
17,-0.1526,-0.9998,0.1885,-0.0605,0.0184,0.1257,2049
17,-0.1721,-1.073,0.0583,0.0486,-0.0447,0.0354,2018
17,-0.0837,-1.0203,0.137,-0.0626,-0.0439,0.1863,1997
17,-0.1941,-1.0378,0.1226,0.1806,-0.1117,0.236,2019
17,0.0159,-1.0171,0.1196,0.0959,0.114,0.1902,2110
17,-0.0601,-0.9805,0.1338,0.1808,0.0947,0.2358,2038
17,0.0247,-1.0688,0.1343,0.0754,0.1182,0.3023,2075
17,-0.0859,-0.9741,0.1074,0.1008,0.1398,0.3002,2130
17,0.0149,-1.0198,0.1367,0.0332,0.3617,0.3362,2068
17,0.0339,-1.0271,0.1328,0.0281,0.2104,0.4161,2049
17,-0.0073,-1.0396,0.1614,0.0546,0.1735,0.4715,2050
17,-0.0122,-1.0176,0.1089,0.0662,0.1716,0.5157,2039
17,0.0701,-1.0,0.1433,0.076,0.0706,0.5845,2050
17,0.0664,-1.0142,0.0652,0.0952,-0.0945,0.6738,2035
17,0.0078,-0.9585,0.2129,0.2272,-0.1605,0.8036,2040
17,0.1128,-1.094,0.1624,0.2699,-0.1895,0.8712,2039
17,0.0388,-1.0752,0.2629,0.2362,-0.0694,0.9903,2019
17,0.0886,-1.3142,0.2544,0.2081,-0.1009,1.0357,2084
17,0.1157,-1.4004,0.3865,0.3116,-0.039,1.1925,2076
17,0.3208,-1.4595,0.3938,0.3707,-0.0282,1.3825,2052
17,0.4246,-1.55,0.3499,0.3759,-0.0815,1.609,2112
17,0.5818,-1.6548,0.3804,0.4424,-0.0698,1.8663,2054
17,0.884,-1.8687,0.5315,0.4038,-0.5215,1.9626,2132
17,0.9893,-1.908,0.6333,0.2491,-1.9891,1.7787,1999
17,0.8145,-1.6064,0.6917,0.1818,-2.5735,1.9988,1951
17,0.4065,-1.3586,0.6814,0.352,-2.7618,2.2273,2041
17,-0.1833,-1.2141,0.6682,0.5629,-2.3991,2.2133,2032
17,-0.9221,-0.9641,0.5571,0.7435,-1.386,1.9587,2048
17,-0.8674,-1.062,0.345,0.868,-0.4405,1.8867,1996
17,0.1467,-1.4583,-0.2361,0.3217,-0.8035,2.3567,2003
18,0.0259,-1.126,-0.2849,0.2979,-1.2632,2.4812,2050
18,0.2739,-0.1768,0.2246,0.4956,-1.6013,2.3009,2042
18,-0.7073,-0.6584,0.3101,0.5675,-1.0618,1.5354,2084
18,-1.2554,-0.5222,0.2305,0.8194,-0.9524,-0.512,2011
18,-0.4199,-0.522,0.5481,0.5881,-1.0435,0.5793,2025
18,-1.5913,-0.2598,-0.2959,0.7825,0.1494,0.6269,2042
18,-1.0496,-0.2473,0.0181,0.8459,1.4615,-0.438,2101
18,-0.4714,-0.4404,0.4548,0.8056,3.2323,-0.8879,2068
18,0.1755,-0.3459,0.8323,1.311,0.9468,-1.0961,2084
18,0.1018,-0.3899,0.6057,0.8471,1.0591,-1.4789,2074
18,0.458,-0.0571,-0.2439,0.8315,0.4731,-1.9855,2060
18,0.3755,-0.1313,-0.2529,0.9347,1.0461,-1.9036,2054
18,-0.0706,-0.2371,0.0176,1.1958,0.9713,-2.0927,2047
18,-0.2529,-0.3489,0.3801,1.2736,0.7509,-2.3526,2048
18,-0.4172,-0.4155,0.2139,1.3308,0.9134,-2.6473,2042
18,-0.521,-0.4915,0.0945,1.4588,1.1704,-2.8658,2043
18,-0.3267,-0.4309,0.1682,1.341,1.6048,-3.1829,2048
18,-0.3206,-0.5713,0.2327,1.1983,1.5366,-3.3901,2054
18,-0.3984,-0.5686,0.3264,1.1279,1.6464,-3.4886,2063
18,-0.344,-0.6953,0.3696,1.0959,1.6041,-3.6234,2063
18,-0.1436,-0.7083,0.3386,0.8875,1.2415,-3.6874,2057
18,-0.0437,-0.8804,0.1619,0.7331,1.2059,-3.6434,2038
18,-0.0405,-1.1074,0.2378,0.5309,1.387,-3.7038,2064
18,-0.1155,-1.1445,0.3486,0.1587,1.2765,-3.9789,2063
18,-0.4358,-1.2654,0.3987,-0.0589,1.2749,-4.164,2053
18,-0.6018,-1.3567,0.553,-0.127,1.5848,-4.153,2052
18,0.3506,-1.2314,0.9067,-0.5707,1.407,-3.5408,2050
18,-0.1565,-1.28,0.2581,-0.8008,0.9067,-3.9251,2041
18,-0.6101,-1.4172,0.0715,-0.9005,1.1768,-3.7354,2008
18,-0.8831,-2.0,0.4229,-2.9906,1.4155,-3.1191,2070
18,-1.4243,0.323,0.6045,-0.6858,0.5948,-2.3637,2056
18,-1.478,-1.0562,0.2593,-0.5223,3.8724,-2.1599,2051
18,-1.0459,-0.627,0.9617,0.1796,4.2752,-1.7387,2059
18,-0.9104,-1.0334,0.7039,0.1249,3.5813,-1.3804,2070
18,-0.7957,-1.0732,0.1873,0.1779,3.8784,-1.0951,2044
18,-0.1204,-0.9292,0.094,0.3273,3.6299,-0.7063,2051
18,0.2542,-1.2285,0.2078,0.149,2.8506,-0.6333,2047
18,0.8801,-1.1248,0.1609,0.0663,2.1322,-0.295,2050
18,1.6604,-0.7415,0.2053,-0.1477,1.0095,-0.1321,2074
18,1.9304,-0.5552,0.4001,-0.0727,-1.1109,-0.0158,2063
18,1.3726,-1.3013,0.3711,-0.5088,-2.6385,0.4593,2008
18,-1.1851,-2.0,0.6699,-1.1026,-1.1163,0.7112,2041
18,-1.3296,-0.4802,1.4919,-0.0875,1.6219,-0.0068,2005
18,0.2812,-1.7905,0.2458,-0.8608,1.6534,0.1708,2009
18,0.7583,-0.9072,0.207,-0.5809,1.1094,0.3396,2072
18,-0.1233,-1.3132,0.4966,-0.5208,1.3986,0.1704,2063
18,0.3328,-0.897,-0.0122,-0.5859,0.6437,0.2121,2034
18,0.3601,-1.0994,0.0808,-0.4943,0.4064,0.2879,2030
18,0.1292,-1.0266,0.1492,-0.4904,-0.1153,0.3302,2049
18,0.0193,-0.9709,0.3936,-0.5092,-0.0514,0.2882,2058
18,-0.0505,-0.9221,0.5596,-0.5236,0.0917,0.2519,2062
18,-0.123,-0.9363,0.5486,-0.4774,0.2538,0.2008,2053
18,0.0032,-0.9529,0.3889,-0.4666,0.4249,0.1482,2024
18,0.1423,-0.9648,0.2559,-0.4587,0.3599,0.1317,2039
18,0.175,-0.9653,0.146,-0.4434,0.3623,0.1605,2061
18,0.1926,-0.9939,0.1787,-0.4052,0.3196,0.191,2041
18,0.2085,-0.9929,0.2253,-0.3767,0.2812,0.2394,2065
18,0.2134,-1.0005,0.2744,-0.4014,0.3485,0.2866,2051
18,0.1938,-0.9917,0.2896,-0.3998,0.3653,0.3215,2032
18,0.1743,-0.99,0.2961,-0.3939,0.3231,0.3791,2049
18,0.1677,-1.0107,0.2783,-0.3874,0.2815,0.4295,2018
18,0.1926,-0.9895,0.2566,-0.4181,0.2706,0.4694,2065
18,0.2197,-1.0105,0.2532,-0.4607,0.2871,0.5211,2059
18,0.2046,-0.9878,0.2563,-0.4637,0.3268,0.5694,2112
18,0.1208,-0.9739,0.2419,-0.4674,0.3113,0.596,2066
18,0.0732,-0.9956,0.2688,-0.4061,0.4003,0.6763,2050
18,0.0559,-0.968,0.2676,-0.331,0.4605,0.701,2013
18,0.0176,-0.9792,0.2375,-0.3119,0.4623,0.685,2007
18,-0.0073,-0.9695,0.2063,-0.2758,0.3733,0.6533,1954
18,-0.0608,-0.9333,0.2644,-0.2748,0.2879,0.6192,2170
18,-0.1262,-0.9507,0.3186,-0.2671,0.1851,0.5514,2142
18,-0.2026,-0.946,0.3481,-0.2321,0.1451,0.5038,2005
18,-0.1848,-0.9346,0.3413,-0.185,0.1139,0.3866,2104
18,-0.1614,-0.9907,0.3484,-0.1662,0.1156,0.3052,2000
18,-0.1497,-0.9604,0.3269,-0.1313,0.1108,0.2372,2040
18,-0.1055,-0.9724,0.3145,-0.1076,0.0703,0.1992,2047
18,-0.0928,-0.9753,0.2949,-0.1052,0.0134,0.1597,2054
18,-0.051,-0.9634,0.2756,-0.1132,-0.0221,0.1474,2114
18,-0.0425,-0.9822,0.2656,-0.1284,-0.0463,0.1089,2145
18,-0.0244,-1.0034,0.2637,-0.1447,-0.085,0.0979,2068
18,-0.0022,-1.0051,0.2673,-0.1374,-0.1021,0.0961,2060
18,-0.0032,-1.0071,0.2681,-0.1285,-0.1539,0.0898,1936
18,0.0059,-1.0054,0.2759,-0.14,-0.1704,0.0943,2032
18,-0.0215,-0.9915,0.3118,-0.1569,-0.1948,0.1085,2037
18,-0.0168,-0.9624,0.2898,-0.1599,-0.2088,0.1149,2026
18,-0.0393,-0.9573,0.2747,-0.1401,-0.2176,0.1346,2097
18,-0.0447,-0.9419,0.2668,-0.1308,-0.2076,0.151,2033
18,-0.0298,-0.9548,0.2478,-0.1425,-0.1772,0.1634,2035
18,-0.011,-0.9446,0.21,-0.1276,-0.1495,0.1706,1971
18,-0.0459,-0.9509,0.2041,-0.1324,-0.0894,0.1669,2112
18,-0.0601,-0.9536,0.1631,-0.0862,-0.0641,0.1318,2030
18,-0.0415,-0.9763,0.1831,-0.075,-0.0108,0.1309,2056
18,-0.0242,-1.0076,0.1882,-0.0569,-0.0162,0.1151,2038
18,-0.0234,-0.967,0.2031,-0.0252,-0.0614,0.1047,2061
18,-0.0757,-0.9741,0.2654,0.012,-0.116,0.126,2050
18,-0.0547,-0.9592,0.27,0.0597,-0.149,0.1389,1963
18,-0.0159,-0.9829,0.2729,0.069,-0.1264,0.1752,2066
18,0.0222,-1.0457,0.2454,0.0631,-0.1312,0.1895,2126
18,0.0051,-1.0581,0.217,0.0537,-0.0796,0.1855,2054
18,-0.001,-1.0605,0.1643,0.0646,-0.1266,0.1324,2146
18,-0.0217,-1.0515,0.1677,0.0639,-0.1863,0.1055,2062
18,-0.0513,-1.0042,0.1719,0.0755,-0.2428,0.0637,2048
19,-0.0735,-0.9761,0.1951,0.1055,-0.2525,0.0242,2042
19,-0.0759,-0.9609,0.2258,0.1332,-0.2252,-0.0084,2059
19,-0.0662,-0.9604,0.2363,0.1609,-0.2063,-0.0285,2072
19,-0.0366,-0.9697,0.2278,0.179,-0.1904,-0.0352,1986
19,-0.04,-0.9834,0.2295,0.1836,-0.2149,-0.0401,2076
19,-0.0261,-0.9685,0.238,0.1702,-0.237,-0.0427,2027
19,-0.0278,-0.9719,0.2996,0.1623,-0.1799,-0.0399,2097
19,-0.0298,-0.9766,0.304,0.1732,-0.1025,-0.0388,2071
19,-0.0354,-0.9824,0.3149,0.177,-0.029,-0.0358,2077
19,-0.0337,-0.9832,0.2913,0.1796,-0.0127,-0.0326,2000
19,-0.0247,-0.9685,0.2883,0.1859,0.0116,-0.0169,2099
19,-0.0208,-0.9846,0.2979,0.1762,-0.0007,-0.0007,2073
19,-0.0298,-0.9727,0.2827,0.1875,-0.0233,0.0152,2128
19,-0.0251,-0.9753,0.3228,0.1854,-0.0309,0.0376,2069
19,-0.0044,-0.9617,0.2986,0.1993,0.0015,0.0573,2069
19,-0.0115,-0.9795,0.2646,0.196,0.0309,0.0655,1947
19,-0.0039,-0.9761,0.2407,0.1641,0.0888,0.0738,1943
19,-0.0359,-0.9587,0.272,0.1583,0.0959,0.074,2083
19,-0.0767,-0.9707,0.3113,0.1582,0.0965,0.0597,2111
19,-0.0872,-0.9482,0.3606,0.1605,0.1256,0.0535,2040
19,-0.0715,-0.9631,0.3682,0.1698,0.1565,0.0406,2047
19,-0.031,-0.9846,0.3665,0.1783,0.1478,0.051,2039
19,0.0137,-1.0032,0.3557,0.1954,0.0806,0.0784,2017
19,0.0068,-0.9893,0.2957,0.1843,0.0366,0.0987,2049
19,-0.0173,-0.9949,0.2627,0.1494,0.0372,0.0878,2182
19,-0.0234,-0.9958,0.2986,0.1109,0.0732,0.0995,2076
19,-0.0581,-0.9885,0.3315,0.1176,0.0609,0.0906,2045
19,-0.0652,-0.9949,0.3479,0.1437,0.0712,0.0854,2033
19,-0.0471,-1.0076,0.2617,0.1526,0.1001,0.051,2038
19,0.0232,-1.0137,0.1975,0.1673,0.0739,0.0401,2048
19,0.0125,-1.021,0.2002,0.1681,-0.0314,0.0494,2035
19,-0.0469,-0.9685,0.2085,0.1854,-0.075,0.0443,2051
19,-0.1211,-0.9409,0.271,0.2212,-0.0633,0.022,2052
19,-0.1431,-0.9041,0.2959,0.242,0.0009,-0.0049,2038
19,-0.1323,-0.9243,0.3049,0.2518,0.0959,-0.0421,2101
19,-0.113,-0.9417,0.3252,0.2499,0.1511,-0.0783,2059
19,-0.074,-0.9695,0.3237,0.2448,0.2072,-0.1093,2070
19,-0.0476,-0.9895,0.3203,0.2374,0.1959,-0.1245,2021
19,-0.0256,-0.9685,0.3008,0.2306,0.151,-0.1356,2059
19,-0.0325,-0.958,0.3223,0.2286,0.1176,-0.1332,2050
19,-0.0425,-0.957,0.3572,0.2284,0.0894,-0.129,2006
19,-0.0564,-0.9658,0.4016,0.2353,0.057,-0.1294,2029
19,-0.0632,-0.9692,0.4302,0.2226,0.0783,-0.1426,2073
19,-0.0129,-0.988,0.4114,0.2293,0.0932,-0.136,1976
19,-0.0083,-1.0022,0.3904,0.2081,0.1019,-0.1373,2017
19,0.0056,-0.9841,0.3535,0.1987,0.0788,-0.1289,2024
19,-0.0178,-0.9846,0.3372,0.1764,0.0463,-0.1182,2002
19,-0.0237,-0.9653,0.3181,0.1605,0.0463,-0.1222,2052
19,-0.0537,-0.9563,0.2952,0.1578,0.0499,-0.1306,2072
19,-0.0515,-0.9321,0.2903,0.1634,0.0684,-0.1469,2103
19,-0.0801,-0.9438,0.2773,0.1843,0.0447,-0.1689,2043
19,-0.0867,-0.8958,0.2771,0.2052,0.0519,-0.1892,2155
19,-0.1143,-0.896,0.3044,0.2288,0.0807,-0.2217,2071
19,-0.0981,-0.9187,0.3088,0.2595,0.0654,-0.2585,2012
19,-0.0403,-0.9399,0.3403,0.2569,0.0826,-0.2665,2145
19,-0.0195,-0.9924,0.3875,0.2569,0.0752,-0.2695,1984
19,0.0789,-1.0205,0.3826,0.2883,0.0972,-0.2593,2042
19,0.1462,-1.0515,0.3655,0.2834,0.0649,-0.233,2082
19,0.0815,-1.0293,0.3489,0.2666,-0.0079,-0.2028,2051
19,0.05,-0.9736,0.311,0.2655,-0.0298,-0.1836,2031
19,0.0017,-0.9526,0.3105,0.2678,-0.0601,-0.1856,2187
19,-0.0415,-0.9309,0.3359,0.2752,-0.0593,-0.1878,2043
19,-0.0125,-0.9351,0.3335,0.2996,-0.0397,-0.2007,1986
19,0.012,-0.9539,0.3315,0.3212,-0.0519,-0.2048,2081
19,-0.0125,-0.9429,0.3403,0.3271,-0.0376,-0.2147,2004
19,0.0127,-0.9375,0.3286,0.3605,-0.0344,-0.2132,2073
19,0.0242,-0.9578,0.365,0.3528,-0.0602,-0.2213,2100
19,0.0132,-0.967,0.3672,0.3589,-0.1005,-0.2211,2037
19,0.0342,-0.969,0.4031,0.3767,-0.1194,-0.2089,2049
19,0.0159,-0.9617,0.386,0.3884,-0.1081,-0.1999,2010
19,0.0359,-0.96,0.3562,0.4157,-0.0851,-0.2092,2076
19,0.0679,-0.9636,0.3313,0.4273,-0.0979,-0.1991,2064
19,0.0244,-0.9414,0.3113,0.445,-0.119,-0.2071,2005
19,0.0591,-0.947,0.3062,0.4761,-0.1064,-0.1999,2014
19,0.0095,-0.9514,0.3413,0.5131,-0.1538,-0.2121,2045
19,-0.0308,-0.9106,0.333,0.5457,-0.1466,-0.231,2050
19,-0.0698,-0.8992,0.3601,0.5673,-0.1425,-0.2705,2021
19,-0.0681,-0.896,0.365,0.585,-0.1638,-0.3152,2045
19,-0.0618,-0.9053,0.3777,0.595,-0.1607,-0.3667,2042
19,-0.0549,-0.9207,0.3794,0.5974,-0.1942,-0.4205,2056
19,-0.054,-0.9133,0.4285,0.6103,-0.2735,-0.4763,2064
19,-0.0671,-0.9282,0.4333,0.6224,-0.3413,-0.5552,2044
19,-0.0781,-0.9358,0.4412,0.6633,-0.4534,-0.6589,2052
19,-0.05,-0.9497,0.4487,0.6777,-0.5572,-0.7648,2045
19,0.0083,-0.969,0.4927,0.697,-0.6584,-0.8606,2057
19,0.0422,-1.0146,0.5505,0.6907,-0.8373,-0.9661,2070
19,0.0161,-1.0479,0.5745,0.6942,-0.9863,-1.0789,2108
19,0.0208,-1.0972,0.5759,0.6915,-1.1234,-1.2254,2106
19,0.0684,-1.2173,0.543,0.62,-1.2884,-1.3834,2145
19,0.0693,-1.3977,0.4856,0.4486,-1.4617,-1.5291,2013
19,0.1948,-1.3896,0.3833,0.2029,-1.3677,-1.662,2084
19,0.394,-1.3586,0.2834,-0.0598,-1.3968,-1.5412,2009
19,0.199,-1.2698,0.2737,-0.1282,-1.2925,-1.2103,1917
19,0.0698,-1.208,0.2375,0.0577,-0.6118,-1.0341,2052
19,0.3599,-1.2026,0.1221,0.1044,-0.3131,-0.8226,2066
19,0.5427,-1.2124,0.0195,0.2487,-0.6782,-0.4144,2096
19,0.3901,-0.8394,0.0945,-0.1863,-1.4462,0.1784,2074
19,-0.1304,-1.271,0.8782,0.1328,-1.9594,0.7071,2038
19,-0.2278,-1.2144,1.1069,0.0554,-2.5681,1.146,2027
19,-0.1936,-1.1399,0.6919,-0.0754,-2.5641,1.605,2041
19,-0.1814,-1.1589,0.4893,0.0566,-2.4997,2.0449,2052
19,-0.2451,-1.156,0.4873,-0.1522,-2.3949,2.428,2049
20,-0.5427,-1.2654,0.3794,-0.465,-2.7002,2.6883,2049
20,-0.4497,-1.1406,0.2236,-0.2498,-2.2712,2.701,2057
20,-0.2639,-1.1145,-0.0437,-0.2477,-2.019,2.9011,2062
20,-0.4216,-1.1997,0.0,-0.1326,-1.5456,2.8809,2038
20,-0.5669,-1.229,0.1694,-0.0537,-1.3243,2.8256,2041
20,-0.5896,-1.033,0.2012,0.1055,-0.5296,2.7514,2044
20,-0.3152,-0.9844,0.3186,0.222,-0.0772,2.7821,2047
20,-0.1863,-0.968,0.4314,0.0095,-0.1807,2.8751,2052
20,-0.2319,-0.9146,0.4998,0.0557,-0.3524,2.9363,2035
20,-0.1831,-0.9211,0.5315,0.0517,-0.4759,2.9102,2061
20,-0.0928,-0.8735,0.5364,-0.1441,-0.5394,2.9356,2064
20,-0.1782,-0.8184,0.4006,-0.2284,-0.4573,2.9954,2057
20,-0.2949,-0.8296,0.3625,-0.2519,-0.338,3.0634,2052
20,-0.4033,-0.823,0.3386,-0.2926,-0.3057,3.0867,2039
20,-0.4285,-0.8552,0.3054,-0.289,-0.3165,3.0803,2053
20,-0.4163,-0.8103,0.3345,-0.2922,-0.2994,3.0781,2068
20,-0.3882,-0.7805,0.3606,-0.2703,-0.2081,3.1336,2067
20,-0.2908,-0.6157,0.366,-0.1557,-0.2742,3.37,2059
20,-0.302,-0.5461,0.3606,0.0273,-0.5421,3.3993,2060
20,-0.335,-0.7202,0.3748,0.1135,-0.6742,2.8766,2049
20,-0.4514,-0.7803,0.3867,-0.0309,-0.4155,2.7541,2050
20,-0.3237,-0.731,0.3938,-0.1424,-0.1697,2.7922,2053
20,-0.2239,-0.7383,0.4333,-0.3235,0.1057,2.6938,2047
20,-0.2471,-0.9089,0.5696,-0.6514,0.2938,2.5915,2069
20,-0.0764,-0.74,0.3684,-0.6691,0.1401,2.4798,2053
20,0.0154,-0.6411,0.4543,-0.6778,0.0478,2.2839,2049
20,0.0171,-0.7578,0.5239,-0.8716,0.2052,2.12,2048
20,0.0828,-0.6755,0.4326,-0.979,0.2204,1.7811,2042
20,0.2998,-0.656,0.4932,-1.1836,0.2413,1.5017,2044
20,0.2285,-0.4985,0.3936,-1.205,0.3293,1.2074,2048
20,0.2166,-0.3845,0.3767,-1.1151,0.2445,0.7705,2043
20,0.3215,-0.4177,0.325,-1.0712,0.2788,0.3686,2048
20,-0.3472,-0.3979,0.2742,-0.9998,0.1168,0.1822,2051
20,0.4229,0.0312,0.1008,-0.59,1.1312,-1.6763,2073
20,0.8574,-0.8267,0.4658,-1.0104,-0.1328,-1.8433,2137
20,1.9999,-0.1609,-0.0107,-1.5338,-1.7966,-2.003,2071
20,-0.6069,-1.1716,-1.606,-1.4221,1.3025,-1.8377,2150
20,-1.5864,-1.1309,1.488,1.1118,-0.0264,-1.5704,2159
20,-0.8508,-1.7214,1.9999,1.3632,-0.3477,-0.7304,1836
20,1.0818,-2.0,-0.4976,-0.3843,-0.7874,-1.6443,1950
20,0.6382,-1.613,0.9224,-0.854,1.6243,-2.1047,2226
20,0.1851,-2.0,0.4578,-0.1694,-0.0935,-2.086,2037
20,-0.1858,-2.0,1.1182,0.0808,-0.0148,-1.0856,1917
20,-0.3022,-1.4558,0.9907,-0.2803,-0.0081,-1.6673,2068
20,0.2793,-1.2817,0.0864,0.041,0.709,-1.0124,1813
20,0.1179,-1.1477,0.3579,0.0952,0.6228,-0.8497,2083
20,-0.2937,-0.9712,0.4246,0.0218,0.403,-0.8316,2130
20,-0.3459,-0.9607,0.2722,-0.1718,0.2519,-0.9851,2146
20,-0.3682,-0.9617,0.2739,-0.3141,0.065,-1.0981,1974
20,-0.5317,-0.6587,0.2527,-0.3132,-0.0136,-1.1828,2032
20,-0.6453,-0.5964,0.324,-0.2808,0.2882,-1.3195,1924
20,-0.5574,-0.7085,0.2874,-0.163,0.5196,-1.4414,1998
20,-0.4312,-0.8257,0.4094,-0.1181,0.5637,-1.5029,1919
20,-0.3718,-0.8784,0.3271,-0.0868,0.7083,-1.5328,2045
20,-0.2227,-0.9758,0.2832,-0.1012,0.7449,-1.6189,1961
20,-0.0764,-1.0525,0.2683,-0.1284,0.6516,-1.6243,2031
20,-0.01,-1.0542,0.261,-0.1466,0.5572,-1.5759,2241
20,-0.0315,-1.0879,0.3218,-0.2056,0.6095,-1.5071,2042
20,0.0344,-1.2278,0.4941,-0.1412,0.6468,-1.4818,1968
20,0.1304,-1.134,0.509,-0.153,0.9151,-1.3906,1964
20,0.1938,-1.3198,0.4314,-0.1131,0.9056,-1.3655,2030
20,0.3193,-1.1846,0.2634,-0.1328,0.8945,-1.3292,2100
20,0.2852,-1.1345,0.2896,-0.1091,0.5975,-1.1204,2022
20,0.1284,-1.0215,0.291,-0.1178,0.4727,-0.9808,2082
20,0.1062,-0.9761,0.2629,-0.0535,0.2808,-0.8204,2052
20,0.0205,-0.9453,0.2314,-0.0538,0.2911,-0.7578,2075
20,0.0125,-0.9458,0.217,-0.0397,0.2487,-0.8383,2149
20,-0.0627,-0.8799,0.2043,0.0301,0.2657,-0.8522,1994
20,-0.1255,-0.9492,0.198,0.0895,0.3822,-0.8477,1983
20,-0.0757,-0.9338,0.1941,0.1635,0.4285,-0.7123,2033
20,0.1333,-0.853,0.1902,0.2027,0.281,-0.7452,2016
20,0.0896,-0.9041,0.2268,0.1621,0.1135,-0.753,2142
20,-0.0322,-0.9656,0.2668,0.1691,0.2001,-0.6866,1979
20,0.1125,-1.0701,0.2693,0.1716,0.2068,-0.5988,1973
20,0.2927,-1.0295,0.3303,0.1578,-0.033,-0.5008,2037
20,0.2432,-0.9788,0.3159,0.0967,-0.1293,-0.385,2019
20,0.1135,-0.9341,0.2927,0.1093,0.1491,-0.2887,1945
20,0.1187,-1.0046,0.2261,0.149,0.0667,-0.2947,2012
20,0.1323,-0.9773,0.1802,0.1803,0.0165,-0.2966,2045
20,0.1167,-0.9348,0.126,0.2262,0.0285,-0.2796,2028
20,0.1428,-0.9404,0.114,0.284,0.0461,-0.2533,2050
20,0.1702,-0.9612,0.1055,0.3236,0.0617,-0.1983,2071
20,0.157,-0.9832,0.1172,0.3858,0.0838,-0.1432,2073
20,0.167,-0.9858,0.1428,0.4639,0.0522,-0.1133,2058
20,0.1414,-0.9844,0.1763,0.5347,0.0373,-0.0792,2068
20,0.0869,-0.9744,0.2166,0.6002,0.0449,-0.0513,2128
20,0.1055,-0.969,0.2336,0.6385,0.1168,-0.0264,2121
20,0.0701,-0.9727,0.2542,0.6621,0.0971,-0.0093,2073
20,0.0205,-0.9575,0.3066,0.6966,0.0795,-0.0192,2010
20,-0.0344,-0.9114,0.3601,0.7387,0.0804,-0.0633,2016
20,-0.1064,-0.9175,0.4512,0.7693,0.1198,-0.1171,2026
20,-0.1572,-0.925,0.4526,0.7712,0.1657,-0.2112,2078
20,-0.1799,-0.9243,0.4761,0.7657,0.1816,-0.31,2033
20,-0.1106,-0.9209,0.4536,0.768,0.1583,-0.4164,2041
20,-0.0876,-0.9617,0.4116,0.742,0.0874,-0.5015,2038
20,-0.0144,-0.9243,0.4329,0.7419,0.0365,-0.5761,2032
20,-0.051,-1.0059,0.3943,0.7581,-0.1071,-0.6426,1996
20,-0.0337,-0.9707,0.4084,0.7969,-0.1534,-0.7188,2061
20,-0.0188,-1.0374,0.3928,0.8154,-0.2962,-0.8095,2049
20,0.0308,-0.9868,0.4175,0.8236,-0.4799,-0.8979,2068
20,-0.1199,-1.0059,0.4133,0.8023,-0.4727,-0.9686,2056
20,-0.0505,-1.0544,0.3855,0.7147,-0.3677,-0.9749,2037
20,0.0273,-1.1433,0.396,0.5469,-0.477,-0.9724,2108
21,-0.0002,-1.0234,0.4365,0.4014,-0.5951,-1.0162,2144
21,0.0466,-0.9666,0.4836,0.3348,-0.6351,-1.0746,2107
21,0.0276,-0.9844,0.5181,0.2444,-0.7201,-1.1469,2046
21,0.0061,-1.041,0.4897,0.187,-0.6711,-1.2334,2041
21,0.1174,-1.0422,0.458,0.1262,-0.7171,-1.3203,2050
21,0.2283,-1.0908,0.3638,-0.0001,-0.7981,-1.358,2053
21,0.2017,-1.0647,0.2798,-0.1348,-0.8251,-1.3408,2048
21,0.1929,-1.1499,0.2214,-0.2003,-0.6232,-1.3236,2062
21,0.0801,-1.0869,0.145,0.2349,-0.1902,-1.4023,2038
21,0.7131,-0.7422,-0.1094,-0.3922,-0.032,-1.2833,2040
21,0.1404,-1.6196,0.4768,-0.5747,-0.0413,-1.1616,2058
21,0.1536,-1.0779,0.064,-0.0698,-0.0762,-0.7857,2068
21,-0.0979,-1.5146,0.408,0.0538,-0.2874,-0.5798,2044
21,0.0071,-1.1436,0.3977,-0.022,0.0394,-0.5115,2026
21,0.4463,-1.1216,0.4309,-0.1722,-0.2546,-0.4215,2025
21,0.1968,-1.1089,0.3977,-0.2353,-0.0803,-0.2659,2051
21,0.4404,-0.8977,0.4683,-0.3509,-0.138,-0.2113,2032
21,0.4839,-0.8623,0.3799,-0.2787,0.1543,-0.1305,2063
21,0.6165,-0.7917,0.4731,-0.2179,0.2297,0.0193,2053
21,0.5398,-1.0144,0.7148,-0.2041,-0.2113,0.1736,2067
21,0.4233,-1.0969,0.604,-0.4614,-0.5172,0.2398,2066
21,0.3447,-1.0256,0.3958,-0.6895,-0.8011,0.416,2048
21,0.1665,-0.9888,0.2542,-0.8933,-1.0859,0.7336,2048
21,0.1345,-0.9172,0.1072,-0.9427,-1.1872,0.9288,2048
21,0.1169,-0.9539,0.062,-0.9629,-1.1825,1.0638,2056
21,0.0549,-0.9082,0.0701,-0.981,-1.1102,1.1918,2048
21,-0.0061,-0.8779,0.072,-0.9167,-1.1501,1.1915,2048
21,-0.0117,-0.8872,0.145,-0.8584,-1.1463,1.2099,2057
21,0.0842,-0.7551,0.1667,-0.6108,-1.1765,1.231,2040
21,0.0889,-0.7673,0.1782,-0.4581,-1.1914,1.2581,2049
21,0.0947,-0.7781,0.2393,-0.3663,-1.1909,1.2824,2048
21,0.1299,-0.8105,0.2939,-0.3188,-1.25,1.2991,2050
21,0.1494,-0.8201,0.3704,-0.2879,-1.3957,1.3303,2053
21,0.1597,-0.8169,0.4255,-0.3796,-1.6242,1.3579,2046
21,0.1228,-0.7788,0.4121,-0.4155,-1.6728,1.3668,2048
21,0.1025,-0.8125,0.3921,-0.3899,-1.6764,1.3532,2049
21,0.103,-0.8235,0.3464,-0.3886,-1.6984,1.3463,2053
21,0.0664,-0.8237,0.3086,-0.3674,-1.6518,1.3372,2058
21,0.0322,-0.8496,0.271,-0.3247,-1.5391,1.3268,2046
21,0.2136,-1.1794,0.3184,-0.3787,-1.5107,1.2312,2042
21,-0.0291,-0.9072,0.3582,-0.2717,-1.4002,1.1954,2038
21,0.1724,-1.0237,0.3303,-0.2974,-1.1113,1.0146,2053
21,0.03,-1.5959,0.3257,-0.4697,-1.0816,0.842,2063
21,0.261,-0.4485,0.3943,-0.0859,-1.2689,0.6138,2053
21,0.9507,-0.4282,0.5908,0.02,-0.6778,1.1957,2065
21,0.7292,-1.2612,0.2927,0.0081,-1.3772,0.6437,2041
21,0.3904,-0.7502,0.2378,0.084,-1.2853,0.6709,2069
21,0.3464,-0.8821,0.5771,0.3041,-0.7865,0.6766,2057
21,0.5679,-1.2466,0.5618,0.1964,-0.9786,0.3329,2057
21,0.6433,-1.0483,0.5464,-0.0615,-1.2061,0.21,2057
21,0.4587,-1.0806,0.4146,-0.024,-0.826,0.0229,2055
21,0.6265,-1.0444,0.4138,0.0874,-0.5593,-0.1147,2055
21,0.7739,-1.1174,0.4565,-0.0305,-0.6979,-0.0663,2055
21,0.5864,-1.0959,0.3201,-0.2192,-0.6293,-0.0178,2066
21,0.3789,-1.0315,0.2588,-0.1418,-0.7091,0.0859,2062
21,0.2356,-1.0654,0.3049,0.0182,-0.7983,0.2109,2047
21,0.1467,-1.0813,0.217,-0.0667,-0.7132,0.289,2038
21,0.1343,-1.0825,0.1658,-0.0764,-0.6368,0.265,2051
21,0.1736,-0.9749,0.1445,0.0,-0.6861,0.2545,2048
21,0.272,-0.9375,0.1768,0.1149,-0.8384,0.3023,2049
21,0.4038,-0.9521,0.2224,0.2792,-1.1198,0.4902,2049
21,0.4875,-1.0315,0.2825,0.2963,-1.8971,0.6079,2039
21,0.2458,-1.0779,0.3169,0.2514,-2.3404,0.4358,2042
21,-0.0808,-0.9966,0.4556,0.3659,-2.2248,0.7209,2044
21,-0.0813,-0.9858,0.4844,0.3344,-1.9526,0.7213,2050
21,-0.1042,-1.0042,0.4353,0.2767,-1.5362,0.7024,2063
21,-0.1458,-0.9573,0.385,0.2896,-1.1061,0.652,2056
21,-0.0212,-1.0149,0.4075,0.2787,-0.8857,0.6157,2057
21,0.1206,-1.0183,0.3379,0.2051,-0.8144,0.5625,2062
21,0.1233,-0.9663,0.2612,0.1908,-0.8134,0.5681,2050
21,0.1199,-0.9421,0.2109,0.2456,-0.9525,0.5787,2046
21,0.1238,-0.9182,0.2056,0.267,-1.1427,0.5991,2049
21,0.1455,-0.9001,0.1968,0.2742,-1.3535,0.6391,2047
21,0.1653,-0.9023,0.189,0.2735,-1.5799,0.6693,2053
21,0.1746,-0.9138,0.1816,0.2461,-1.856,0.6767,2041
21,0.1624,-0.9265,0.1704,0.2302,-2.1794,0.6878,2047
21,0.1279,-0.9199,0.2102,0.2111,-2.4766,0.7147,2047
21,0.0427,-0.8586,0.2275,0.2452,-2.6613,0.7375,2046
21,-0.0083,-0.895,0.2803,0.2622,-2.7958,0.7448,2047
21,-0.0374,-0.9146,0.3137,0.2365,-2.9352,0.7473,2053
21,-0.103,-0.8721,0.3198,0.284,-2.9166,0.7313,2044
21,-0.1406,-0.8669,0.3308,0.3498,-2.8116,0.7232,2045
21,-0.2458,-0.8521,0.3572,0.3854,-2.5422,0.7044,2048
21,-0.4873,-0.8975,0.333,0.3745,-1.8203,0.8455,2046
21,-0.4653,-0.9485,0.3538,0.3013,-1.1111,0.7015,2054
21,-0.3015,-0.8921,0.4048,0.0822,-0.808,0.4962,2055
21,-0.0144,-0.8584,0.6116,-0.173,-0.7762,0.4549,2051
21,-0.5244,-0.9751,0.7478,0.1571,-0.6956,0.8062,2001
21,-1.7546,-1.7837,-0.2764,-1.1407,1.2583,-1.6657,2078
21,0.1389,-0.3914,0.1106,-1.4528,1.3487,-0.9183,2145
21,1.0022,-0.2007,-0.2856,-0.1828,2.2993,-0.6428,2032
21,0.4016,-0.0957,0.3486,0.6197,0.5661,1.0435,2023
21,-0.8496,-1.6123,0.6907,0.5627,-0.1511,-0.0489,2028
21,-1.7368,-1.6509,1.2175,-0.6055,-0.0418,-0.6735,2057
21,0.9622,-1.0027,0.1504,-0.0447,-0.6453,-1.2027,2103
21,0.3733,-0.4824,-0.1711,-1.2406,0.7424,-0.4967,2029
21,-0.0503,-2.0,-0.6455,-0.4197,0.9898,-0.1728,2054
21,0.9541,-1.6721,0.1528,-0.5911,1.0613,0.3442,2051
21,0.7043,-1.3354,-0.2617,-0.5402,0.6387,-0.2519,2069
21,0.4355,-1.0068,0.1475,-0.1507,0.5826,0.0848,2061
21,0.2439,-1.0515,0.3765,-0.1101,0.5658,0.2625,2056
21,-0.0862,-0.9556,0.1758,-0.1132,0.7469,0.2485,2040
22,-0.1069,-0.9507,0.2075,-0.0526,0.6847,0.2377,2042
22,-0.1025,-0.9585,0.3289,-0.1165,0.6553,0.2051,2059
22,-0.0977,-0.9092,0.394,-0.2482,0.5123,0.1892,2046
22,-0.0981,-0.9084,0.4534,-0.4163,0.4417,0.1354,2061
22,-0.1028,-0.9453,0.3137,-0.5072,0.5249,0.082,2013
22,-0.0676,-1.0425,0.219,-0.5802,0.5685,0.0304,2063
22,0.0222,-1.0759,0.1895,-0.5849,0.3426,0.051,2051
22,-0.0303,-1.0552,0.1462,-0.5671,0.3183,0.0493,2099
22,-0.0342,-1.009,0.28,-0.5802,0.2875,0.0364,2061
22,-0.0642,-0.9697,0.3215,-0.5835,0.2936,0.0515,2061
22,-0.1077,-0.9836,0.3137,-0.5915,0.2313,0.0272,2051
22,-0.0457,-0.9756,0.2766,-0.5939,0.2567,-0.0003,2048
22,-0.0586,-0.9253,0.2117,-0.5818,0.2638,-0.0076,2049
22,-0.041,-0.9653,0.1155,-0.5706,0.3019,-0.0258,2055
22,0.0508,-1.0388,-0.0024,-0.5622,0.3814,-0.0308,2030
22,0.0891,-1.0688,-0.0745,-0.4693,0.288,-0.0047,2019
22,0.0476,-1.0669,-0.0417,-0.3899,0.2004,0.0226,2082
22,-0.0234,-1.0205,0.0227,-0.3535,0.1353,0.0374,2045
22,-0.0498,-1.0088,0.0876,-0.3252,0.0949,0.0302,2035
22,-0.083,-1.0054,0.2039,-0.3284,0.1719,0.0292,2069
