Timestamp,Ax,Ay,Az,Rx,Ry,Rz,EMG
0,0.2175,-0.7505,-0.064,0.3498,-0.0185,0.3836,2040
0,0.2288,-0.7339,-0.0442,0.3533,0.053,0.4268,2042
0,0.2249,-0.7256,-0.0493,0.3741,0.0868,0.4505,2042
0,0.2412,-0.7153,-0.0225,0.3779,0.0967,0.4698,2040
0,0.2908,-0.7288,0.0078,0.3655,0.1176,0.4755,2039
0,0.3228,-0.7112,0.0112,0.3691,0.1531,0.4779,2051
0,0.3721,-0.6711,0.0244,0.3839,0.1555,0.4771,2041
0,0.3845,-0.6836,0.0249,0.3887,0.1442,0.4693,2041
0,0.4041,-0.7256,-0.0056,0.3781,0.0836,0.4774,2048
0,0.4075,-0.752,-0.0122,0.3354,-0.0039,0.4765,2041
0,0.3716,-0.7578,-0.0505,0.2839,-0.0214,0.4538,2043
0,0.3486,-0.7639,-0.0598,0.2213,-0.0166,0.4192,2038
0,0.3232,-0.7734,-0.053,0.1675,0.0001,0.3745,2047
0,0.3105,-0.7729,-0.0591,0.1201,0.0497,0.3393,2059
0,0.3093,-0.8135,-0.0728,0.0469,0.0328,0.2967,2035
0,0.3225,-0.8286,-0.0681,-0.0595,0.0025,0.2416,2041
0,0.3054,-0.8474,-0.085,-0.1487,0.0031,0.2083,2000
0,0.3025,-0.8235,-0.0603,-0.2069,-0.0064,0.179,2049
0,0.3401,-0.8267,-0.0525,-0.2527,-0.1055,0.2048,2038
0,0.3201,-0.8071,-0.05,-0.3035,-0.227,0.1677,2081
0,0.3179,-0.7976,-0.0745,-0.2756,-0.4389,0.1194,1939
0,0.3066,-0.7974,-0.1067,-0.2211,-0.5196,0.1112,1993
0,0.322,-0.8337,-0.1196,-0.2075,-0.5968,0.1129,2063
0,0.281,-0.864,-0.0593,-0.1736,-0.5683,0.1416,2042
0,0.1685,-0.8765,-0.0366,-0.1301,-0.4448,0.1441,2032
0,0.071,-0.8914,0.0005,-0.0876,-0.1152,0.0621,2037
0,0.1987,-0.8564,0.1025,0.0582,0.0491,0.0072,2040
0,0.3523,-0.8364,0.2874,0.2225,0.13,-0.0406,2041
0,0.6472,-0.8518,0.3542,0.3261,-0.2253,-0.1278,2048
0,0.782,-0.926,0.3743,0.3646,-0.8283,-0.0324,2051
0,0.6843,-0.9163,0.4023,0.3461,-1.3826,-0.0003,2043
0,0.4172,-0.8086,0.4221,0.4384,-1.4351,-0.0075,2050
0,0.1982,-0.7068,0.5239,0.5974,-0.9815,-0.0719,2054
0,-0.0029,-0.4832,0.759,1.0042,-0.2986,0.0521,2052
0,0.4033,-0.657,0.8652,1.0935,-0.3296,-0.1253,2049
0,0.7551,-0.7971,1.0583,1.2355,-0.0157,-0.4404,2052
0,0.6614,-0.8447,0.8911,1.2286,-0.3366,-0.3155,2032
0,0.5034,-0.8845,0.7791,1.2794,-0.6413,-0.3404,1998
0,0.5601,-0.9768,0.6624,1.1583,-1.0306,-0.4148,2041
0,0.3889,-1.0823,0.5415,1.1035,-1.3452,-0.5125,2041
0,0.2998,-1.2134,0.4895,1.0322,-1.5888,-0.5863,2034
0,0.1499,-1.3264,0.3918,0.8704,-1.6632,-0.7078,2018
0,-0.0481,-1.4319,0.3535,0.7521,-1.6378,-0.8405,2043
0,-0.2507,-1.4995,0.4197,0.7565,-1.5324,-0.8794,2037
0,-0.3577,-1.3684,0.5474,1.0039,-1.0901,-0.7079,2047
0,-0.5168,-1.478,0.5393,1.2121,-0.8975,-0.487,2040
0,-0.5811,-1.7043,0.3733,1.3999,-0.6589,-0.5299,2038
0,-0.7666,-1.5605,0.8308,1.7919,0.3454,-0.5422,2044
0,-0.4365,-1.3496,1.1843,2.1562,1.6479,-0.1685,2047
0,-0.6047,-1.4172,1.1067,2.4799,1.6712,0.4537,2042
0,-0.6572,-1.4814,1.0022,2.5069,0.7524,0.5396,2059
0,-0.1445,-1.2949,1.1978,2.6649,0.3494,0.3783,2044
0,0.0037,-1.4084,1.2229,2.6578,-0.0154,0.4245,2044
0,-0.0547,-1.4089,1.0891,2.6136,-0.708,0.5778,2040
0,-0.0903,-1.3667,1.064,2.581,-1.3925,0.6803,2051
0,-0.1033,-1.3816,1.0471,2.6072,-1.7578,0.7637,2038
0,-0.2078,-1.4543,0.9675,2.5906,-1.9239,0.7954,2052
0,-0.2842,-1.5254,0.8706,2.5703,-2.0225,0.8332,2042
0,-0.2803,-1.5811,0.7561,2.5539,-1.9692,0.8668,2038
0,-0.2356,-1.6418,0.6375,2.6048,-1.7998,0.9139,2032
0,-0.1453,-1.73,0.4233,2.7984,-1.5099,0.9219,2049
0,0.2515,-1.6965,0.2578,3.0492,-1.8733,1.0873,2040
0,0.2942,-1.8396,0.3618,3.0913,-2.0666,1.2326,2039
0,-0.0586,-1.8936,0.447,2.631,-1.498,1.0114,2047
0,-0.23,-1.8425,0.25,2.4069,-1.2774,0.8323,2043
0,-0.1169,-1.7556,0.0139,2.6733,-1.4511,0.811,2041
0,-0.0149,-1.5552,0.0293,2.8734,-1.115,0.652,2041
0,0.0806,-1.5186,0.1277,2.7963,-0.6944,0.7244,2042
0,0.0,-1.4961,0.1582,2.8047,-0.3614,0.6533,2036
0,0.095,-1.3862,0.1038,2.7775,-0.4673,0.669,2038
0,0.2056,-1.3115,0.0671,2.8086,-0.6915,0.6434,2041
0,0.2737,-1.2678,0.104,2.7783,-0.8108,0.5991,2040
0,0.2847,-1.238,0.1069,2.7413,-0.9286,0.5606,2045
0,0.2859,-1.2095,0.0859,2.7281,-1.2364,0.5518,2039
0,0.281,-1.1748,0.0603,2.6867,-1.5071,0.5151,2041
0,0.2747,-1.1667,0.0657,2.5963,-1.7084,0.4502,2057
0,0.3245,-1.0876,0.0674,2.4752,-1.9999,0.4101,2038
0,0.2915,-1.0493,0.0901,2.4065,-2.2953,0.3406,2054
0,0.262,-1.0403,0.0854,2.2648,-2.5008,0.2992,2039
0,0.2432,-1.0127,0.0701,2.1138,-2.6809,0.2369,2039
0,0.2468,-0.9822,0.0615,2.0003,-2.8585,0.19,2043
0,0.1772,-0.9922,0.0505,1.9137,-2.9325,0.1715,2046
0,0.2241,-1.0283,0.0173,1.6735,-2.8552,0.124,2042
0,0.1917,-1.0205,-0.0044,1.6034,-2.9251,0.0882,2037
0,0.1692,-1.0176,-0.0408,1.5121,-2.8767,0.0708,2035
0,0.1873,-0.9495,-0.0776,1.3881,-2.7954,0.0438,2041
0,0.1672,-0.949,-0.0852,1.286,-2.6826,0.0052,2038
0,0.1455,-0.9402,-0.0964,1.1224,-2.5149,-0.0334,2035
0,0.1462,-0.8743,-0.0828,0.9547,-2.3419,-0.0565,2044
0,0.1282,-0.8726,-0.073,0.7979,-2.094,-0.0505,2037
0,0.1199,-0.8621,-0.0417,0.5895,-1.8703,-0.0505,2039
0,0.1443,-0.8381,-0.0293,0.3795,-1.6885,-0.0386,2040
0,0.165,-0.823,-0.031,0.1864,-1.5066,-0.0425,2042
0,0.1467,-0.8044,-0.0017,-0.0012,-1.295,-0.0511,2040
0,0.1536,-0.8274,0.0264,-0.1882,-1.0475,-0.0578,2039
0,0.1453,-0.8093,0.0437,-0.3514,-0.8,-0.0917,2037
0,0.1821,-0.814,0.0544,-0.5235,-0.5831,-0.1155,2041
0,0.2168,-0.7759,0.0383,-0.708,-0.3968,-0.1304,2042
0,0.2593,-0.7659,0.0454,-0.8404,-0.2043,-0.1579,2044
0,0.3286,-0.7673,0.0493,-0.9839,-0.1129,-0.1519,2041
0,0.3721,-0.7722,0.054,-1.1372,-0.0834,-0.1473,2037
0,0.4243,-0.8059,0.0813,-1.287,0.0154,-0.1724,2044
0,0.4399,-0.7954,0.0801,-1.4098,0.051,-0.1939,2046
0,0.4297,-0.8318,0.1057,-1.5422,0.1498,-0.2278,2038
0,0.4331,-0.8691,0.1562,-1.6764,0.3069,-0.2851,2043
0,0.4458,-0.8887,0.1836,-1.8104,0.4625,-0.3434,2039
0,0.4431,-0.9282,0.2163,-1.9572,0.6554,-0.4156,2040
0,0.4421,-0.9539,0.2559,-2.1298,0.8957,-0.4935,2048
0,0.4272,-0.9492,0.3118,-2.3149,1.1018,-0.573,2032
0,0.4055,-0.9602,0.3547,-2.5346,1.3723,-0.6706,2043
0,0.448,-0.9409,0.3696,-2.6827,1.6293,-0.7578,2037
0,0.4797,-0.9307,0.3879,-2.8307,1.8618,-0.8443,2042
0,0.5093,-0.9426,0.4187,-2.9661,2.0932,-0.9545,2041
0,0.5505,-0.9268,0.4155,-3.0882,2.2296,-1.0544,2043
0,0.6128,-0.8997,0.3987,-3.1389,2.2703,-1.1407,2041
0,0.6414,-0.9211,0.4082,-3.1951,2.2591,-1.2752,2040
0,0.677,-0.8899,0.4138,-3.2435,2.1578,-1.3828,2043
0,0.7051,-0.8716,0.3813,-3.2601,2.0003,-1.4342,2046
0,0.7305,-0.8906,0.3845,-3.2496,1.8195,-1.4593,2042
0,0.7444,-0.811,0.3706,-3.3246,1.6455,-1.548,2041
0,0.72,-0.7964,0.3591,-3.2669,1.4392,-1.6061,2042
0,0.7224,-0.7778,0.3496,-3.1688,1.2774,-1.6599,2041
0,0.6646,-0.7512,0.3416,-3.0943,1.1521,-1.6539,2039
0,0.6582,-0.7427,0.3464,-2.9923,1.0262,-1.6295,2047
0,0.6536,-0.7212,0.3535,-2.8735,0.9617,-1.7665,2039
0,0.6963,-0.6941,0.373,-2.769,0.9725,-1.8016,2039
0,0.6741,-0.7224,0.3716,-2.6944,0.913,-1.8671,2041
0,0.6697,-0.7,0.3862,-2.6023,0.8987,-1.8817,2045
0,0.6597,-0.688,0.4033,-2.5183,0.9064,-1.9021,2038
0,0.647,-0.6926,0.3967,-2.4268,0.923,-1.8982,2040
0,0.6431,-0.71,0.3887,-2.3352,0.9726,-1.8873,2040
0,0.6299,-0.7104,0.3735,-2.2936,0.9817,-1.8437,2042
0,0.646,-0.7048,0.3418,-2.1674,0.9706,-1.7948,2040
0,0.6455,-0.7188,0.2981,-1.9995,0.9256,-1.7432,2039
0,0.6367,-0.7468,0.2795,-1.8184,0.875,-1.6644,2043
0,0.6604,-0.791,0.2656,-1.6105,0.7926,-1.5797,2041
0,0.6509,-0.8335,0.2925,-1.4173,0.6911,-1.5022,2040
0,0.6121,-0.9106,0.3057,-1.2153,0.5517,-1.428,2044
0,0.5918,-0.9189,0.311,-1.0136,0.3796,-1.3736,2043
0,0.5781,-0.9189,0.2979,-0.7275,0.1258,-1.2588,2042
0,0.5906,-0.8979,0.3069,-0.4757,-0.1638,-1.0975,2040
0,0.6052,-0.8508,0.3113,-0.1946,-0.4091,-0.9243,2039
0,0.6184,-0.8811,0.3181,0.0162,-0.5673,-0.7235,2042
0,0.6384,-0.833,0.2803,0.2322,-0.696,-0.4862,2042
0,0.6733,-0.7786,0.2297,0.5376,-0.8235,-0.2476,2042
0,0.7134,-0.8438,0.2004,0.9219,-0.9592,0.0471,2037
0,0.74,-0.9045,0.2107,1.176,-1.0481,0.314,2041
0,0.73,-0.9282,0.2734,1.3423,-1.064,0.4954,2040
0,0.6536,-0.9128,0.3206,1.4641,-1.0674,0.6452,2047
0,0.595,-0.8818,0.386,1.5191,-1.0656,0.7488,2041
0,0.5605,-0.8333,0.436,1.5813,-0.973,0.8226,2044
0,0.5291,-0.7578,0.5068,1.6282,-0.8215,0.8637,2047
0,0.4878,-0.6958,0.5479,1.6655,-0.6918,0.9011,2039
0,0.469,-0.6758,0.5588,1.68,-0.6253,0.9304,2039
1,0.4629,-0.6736,0.5366,1.6946,-0.5701,0.9384,2040
1,0.4819,-0.6838,0.5095,1.7349,-0.5288,0.946,2037
1,0.4907,-0.6975,0.4602,1.7883,-0.5289,0.9653,2043
1,0.4976,-0.7253,0.4033,1.8624,-0.5504,0.993,2038
1,0.5239,-0.7415,0.3525,1.9431,-0.6058,1.0311,2042
1,0.5298,-0.7808,0.2952,2.0177,-0.696,1.0684,2040
1,0.5344,-0.8193,0.2454,2.0988,-0.8147,1.1255,2040
1,0.4966,-0.8655,0.2209,2.1766,-0.9144,1.1946,2043
1,0.5264,-0.8518,0.239,2.2059,-0.9548,1.2388,2043
1,0.5334,-0.8047,0.2317,2.2518,-1.0135,1.2258,2041
1,0.5134,-0.8293,0.2607,2.3268,-1.0581,1.2828,2041
1,0.4988,-0.812,0.2659,2.2973,-1.079,1.3504,2045
1,0.5066,-0.7568,0.2856,2.2678,-1.0945,1.4067,2038
1,0.5173,-0.7334,0.2886,2.2467,-1.1211,1.4388,2045
1,0.5024,-0.7295,0.2998,2.1943,-1.1322,1.4605,2040
1,0.4939,-0.7307,0.2883,2.176,-1.0183,1.4958,2044
1,0.4683,-0.7107,0.29,2.1023,-0.9043,1.511,2039
1,0.4443,-0.6895,0.2859,2.0278,-0.7708,1.5262,2041
1,0.4216,-0.6545,0.2671,1.9887,-0.671,1.4864,2044
1,0.4124,-0.6091,0.2451,1.9508,-0.5642,1.4623,2055
1,0.3984,-0.5696,0.2422,1.9548,-0.4496,1.4416,2041
1,0.3816,-0.5818,0.2297,1.935,-0.3197,1.3981,2045
1,0.3833,-0.5554,0.2212,1.9073,-0.1863,1.36,2042
1,0.3774,-0.5442,0.2046,1.8721,-0.0879,1.3376,2039
1,0.3835,-0.5205,0.1846,1.8375,-0.0364,1.3244,2039
1,0.3899,-0.4941,0.1685,1.8369,-0.0318,1.2864,2044
1,0.4089,-0.4592,0.1675,1.8323,-0.0538,1.2563,2041
1,0.4441,-0.3799,0.1731,1.9238,-0.1377,1.2239,2039
1,0.4761,-0.3513,0.1995,2.0579,-0.302,1.1946,2040
1,0.5371,-0.3662,0.2388,2.2286,-0.428,1.1856,2043
1,0.5627,-0.3853,0.2861,2.3847,-0.4947,1.1511,2040
1,0.5635,-0.4722,0.3403,2.5264,-0.6148,1.1255,2047
1,0.5493,-0.5535,0.376,2.5904,-0.8162,1.0417,2042
1,0.5444,-0.6597,0.4543,2.5919,-0.9543,0.9601,2040
1,0.6074,-0.7302,0.5076,2.4895,-1.0352,0.8741,2043
1,0.7073,-0.7344,0.5923,2.3602,-1.1927,0.8601,2047
1,0.7578,-0.7185,0.6626,2.2478,-1.3475,0.8853,2035
1,0.7715,-0.7124,0.7402,2.1293,-1.4428,0.9028,2045
1,0.7798,-0.6772,0.7791,2.0256,-1.4209,0.9195,2044
1,0.8108,-0.6653,0.8108,1.9494,-1.3055,0.9395,2041
1,0.8452,-0.6609,0.7529,1.9128,-1.2106,0.8609,2042
1,0.9106,-0.7034,0.7151,1.8142,-1.1654,0.7411,2041
1,0.9143,-0.717,0.7078,1.653,-1.1326,0.5948,2041
1,0.9207,-0.7488,0.6663,1.4759,-1.1243,0.4711,2039
1,0.9019,-0.8347,0.6438,1.2854,-1.195,0.3477,2053
1,0.855,-0.8525,0.6252,1.1046,-1.2319,0.2713,2041
1,0.7861,-0.8635,0.5837,0.9108,-1.2141,0.1786,2041
1,0.7126,-0.8245,0.5334,0.7833,-1.1043,0.0752,2035
1,0.7258,-0.8533,0.4998,0.6289,-1.056,-0.029,2035
1,0.7087,-0.8896,0.4844,0.4338,-1.0322,-0.1256,2039
1,0.6877,-0.9722,0.47,0.1856,-0.9851,-0.2304,2039
1,0.6455,-1.0222,0.4197,-0.1039,-0.8849,-0.343,2037
1,0.6196,-1.0466,0.3047,-0.471,-0.9068,-0.403,2036
1,0.6541,-1.0762,0.2192,-0.4643,-0.7111,-0.4723,2042
1,0.6631,-1.0776,0.1304,-0.5882,-0.658,-0.4907,2041
1,0.6719,-1.0811,0.1272,-0.728,-0.6165,-0.4967,2044
1,0.6733,-1.0679,0.1199,-0.8845,-0.6168,-0.4841,2044
1,0.6682,-1.0544,0.1094,-1.0666,-0.6474,-0.4564,2043
1,0.626,-1.0283,0.104,-1.3174,-0.6604,-0.3911,2040
1,0.5991,-0.9976,0.1135,-1.4295,-0.5769,-0.4276,2042
1,0.5291,-0.9824,0.1123,-1.5976,-0.5207,-0.4038,2041
1,0.4639,-0.9807,0.1187,-1.7584,-0.3745,-0.3904,2044
1,0.3906,-0.9919,0.1516,-1.9365,-0.1221,-0.3996,2042
1,0.3359,-1.0032,0.1797,-2.1045,0.2213,-0.4215,2042
1,0.2673,-1.0391,0.1797,-2.2631,0.6562,-0.4689,2037
1,0.2336,-1.1052,0.1797,-2.416,1.0728,-0.5133,2039
1,0.241,-1.1733,0.1714,-2.5541,1.4496,-0.554,2042
1,0.2581,-1.2534,0.1763,-2.7117,1.7575,-0.5806,2042
1,0.291,-1.3213,0.1824,-2.8899,1.9271,-0.5878,2043
1,0.3147,-1.3667,0.199,-3.0415,2.0399,-0.5991,2051
1,0.3181,-1.3777,0.2217,-3.2282,2.0873,-0.6293,2035
1,0.3032,-1.3364,0.2649,-3.4182,2.1455,-0.6823,2054
1,0.2815,-1.2861,0.2822,-3.5647,2.1832,-0.7444,2041
1,0.3298,-1.3269,0.3252,-3.7957,2.0949,-0.7923,2037
1,0.21,-1.1221,0.2561,-3.7832,2.3489,-0.8616,2039
1,0.2856,-1.1406,0.2927,-3.9008,2.4003,-0.9246,2039
1,0.302,-1.0906,0.2795,-3.9843,2.4024,-0.9753,2042
1,0.2805,-1.0713,0.2913,-4.0799,2.441,-1.0493,2040
1,0.2812,-1.0559,0.302,-4.1515,2.4715,-1.1507,2038
1,0.2563,-1.0105,0.3203,-4.2314,2.5377,-1.2517,2041
1,0.2234,-0.9851,0.3516,-4.3122,2.7248,-1.4002,2038
1,0.2126,-0.9653,0.377,-4.3635,2.8873,-1.5087,2042
1,0.2058,-0.95,0.3403,-4.3635,3.0594,-1.6178,2041
1,0.2327,-0.9485,0.3303,-4.3635,3.1809,-1.6966,2039
1,0.3037,-0.9419,0.3086,-4.3635,3.3112,-1.7624,2040
1,0.3293,-0.9626,0.2949,-4.349,3.3332,-1.8164,2042
1,0.3826,-0.9946,0.2886,-4.304,3.2596,-1.864,2040
1,0.4333,-0.9856,0.2878,-4.2977,3.116,-1.9106,2043
1,0.4612,-0.9856,0.2688,-4.2116,2.915,-1.958,2042
1,0.5081,-0.9705,0.2485,-4.1257,2.6233,-1.9892,2042
1,0.5303,-0.9495,0.208,-4.0214,2.2796,-1.9971,2042
1,0.5471,-0.9023,0.198,-3.8886,1.9367,-1.9848,2042
1,0.5393,-0.885,0.2031,-3.7649,1.6024,-1.9655,2044
1,0.5391,-0.855,0.2292,-3.6628,1.3199,-1.9418,2041
1,0.4688,-0.8938,0.3301,-3.7572,1.1306,-1.9582,2043
1,0.4568,-0.7515,0.26,-3.6439,1.1728,-1.9538,2042
1,0.3438,-0.7244,0.218,-3.3764,1.2559,-1.9845,2041
1,0.2751,-0.821,0.3059,-3.2658,1.3336,-2.1505,2038
1,0.354,-0.7812,0.2808,-3.2433,1.4949,-2.1546,2040
1,0.4624,-0.8374,0.262,-3.0231,1.6177,-2.1393,2038
2,0.6345,-0.7573,0.2573,-2.9249,1.6355,-1.9232,2038
2,0.6765,-0.7036,0.1777,-2.6036,1.5817,-1.7342,2033
2,0.6826,-0.7908,0.1516,-2.2126,1.3513,-1.5191,2041
2,0.7178,-0.8831,0.2063,-1.922,1.0263,-1.3553,2039
2,0.7292,-0.8616,0.2576,-1.7375,0.6839,-1.1583,2036
2,0.717,-0.8069,0.3225,-1.4415,0.3583,-0.9415,2042
2,0.6677,-0.7534,0.3628,-1.1425,0.1288,-0.7082,2042
2,0.6208,-0.7231,0.3997,-0.8581,0.0028,-0.4572,2038
2,0.5991,-0.6589,0.4004,-0.6064,-0.1185,-0.183,2044
2,0.5867,-0.6306,0.3677,-0.3117,-0.2285,0.0851,2042
2,0.5654,-0.6445,0.3472,0.0625,-0.2846,0.3595,2040
2,0.5745,-0.7393,0.3228,0.4027,-0.3305,0.6087,2040
2,0.5754,-0.8052,0.2793,0.7451,-0.3417,0.8525,2046
2,0.5413,-0.8669,0.2549,1.077,-0.3485,1.0929,2042
2,0.5442,-0.8818,0.2083,1.4053,-0.3915,1.3195,2043
2,0.5574,-0.9009,0.1968,1.7719,-0.4606,1.5504,2041
2,0.564,-0.936,0.2217,2.102,-0.5624,1.7568,2041
2,0.5513,-0.9543,0.2449,2.3967,-0.6404,1.9435,2054
2,0.5347,-0.9709,0.2722,2.6317,-0.706,2.0935,2040
2,0.5212,-0.9724,0.3049,2.8072,-0.7845,2.2072,2039
2,0.4944,-0.981,0.325,2.9458,-0.854,2.285,2042
2,0.4653,-1.0139,0.3245,3.0574,-0.97,2.3602,2043
2,0.4551,-1.0325,0.322,3.1492,-1.1158,2.4091,2044
2,0.4568,-1.0127,0.3091,3.2702,-1.2362,2.4537,2040
2,0.4473,-1.0061,0.3464,3.3358,-1.3041,2.4812,2038
2,0.4238,-1.0166,0.3589,3.3802,-1.338,2.4527,2041
2,0.3816,-1.0464,0.3599,3.422,-1.4005,2.4101,2041
2,0.3975,-1.0996,0.334,3.5193,-1.4173,2.383,2042
2,0.3948,-1.1252,0.3284,3.5746,-1.4812,2.3214,2044
2,0.4138,-1.1479,0.3208,3.6312,-1.5002,2.2744,2038
2,0.4233,-1.1372,0.3018,3.6721,-1.5494,2.2268,2043
2,0.4268,-1.1331,0.2935,3.6861,-1.6366,2.1892,2042
2,0.4321,-1.1091,0.3071,3.6647,-1.7865,2.1573,2042
2,0.4233,-1.0903,0.2847,3.6404,-1.9358,2.137,2044
2,0.4172,-1.0544,0.2922,3.5833,-2.0473,2.1015,2042
2,0.3918,-1.0107,0.3174,3.4938,-2.1228,2.0631,2040
2,0.3774,-0.9319,0.3208,3.3844,-2.1614,2.0346,2044
2,0.3652,-0.8782,0.3118,3.2792,-2.1687,1.9997,2047
2,0.3403,-0.8311,0.3057,3.2053,-2.0891,1.9413,2041
2,0.3223,-0.7849,0.2954,3.1001,-1.9972,1.9053,2044
2,0.342,-0.7517,0.2666,3.0329,-1.9118,1.8733,2040
2,0.3521,-0.7227,0.2283,2.954,-1.7879,1.8299,2041
2,0.365,-0.688,0.2,2.8809,-1.6629,1.7821,2050
2,0.342,-0.6799,0.1875,2.84,-1.5617,1.7522,2041
2,0.3271,-0.6992,0.1636,2.7915,-1.4511,1.7105,2041
2,0.3142,-0.7358,0.1616,2.7241,-1.297,1.6588,2038
2,0.3103,-0.7505,0.1716,2.6183,-1.1407,1.6105,2041
2,0.3345,-0.7449,0.1238,2.5448,-1.0054,1.5853,2039
2,0.3286,-0.7693,0.1428,2.4562,-0.9048,1.5146,2037
2,0.3389,-0.7742,0.1433,2.3125,-0.7962,1.4633,2039
2,0.387,-0.7463,0.1787,2.1923,-0.7554,1.4001,2036
2,0.4509,-0.7185,0.1846,2.0319,-0.7798,1.352,2042
2,0.4976,-0.709,0.2134,1.8843,-0.8749,1.2885,2038
2,0.5249,-0.6594,0.2017,1.7143,-1.0183,1.2208,2039
2,0.5471,-0.6887,0.2515,1.5953,-1.1374,1.1591,2040
2,0.563,-0.6711,0.282,1.3424,-1.2621,1.0887,2043
2,0.5854,-0.6113,0.2803,1.2963,-1.3296,1.0211,2038
2,0.6174,-0.6123,0.2883,1.1806,-1.389,0.9301,2040
2,0.6509,-0.5808,0.2939,1.1212,-1.4601,0.8552,2042
2,0.7004,-0.6074,0.2964,1.0503,-1.6056,0.7986,2039
2,0.7534,-0.6504,0.2842,0.9481,-1.6311,0.709,2040
2,0.7527,-0.7009,0.2742,0.8641,-1.5311,0.5992,2042
2,0.7324,-0.8237,0.2808,0.7082,-1.546,0.5213,2043
2,0.7036,-0.8914,0.3054,0.5622,-1.3916,0.4269,2043
2,0.6572,-0.9307,0.3025,0.4735,-1.1098,0.3163,2040
2,0.6562,-0.9612,0.3027,0.2105,-1.0304,0.2101,2047
2,0.6152,-0.9551,0.3086,0.0586,-0.8572,0.1246,2045
2,0.6548,-0.97,0.3342,-0.0754,-0.6826,0.0507,2040
2,0.7039,-0.979,0.3342,-0.2348,-0.596,0.0108,2039
2,0.7202,-1.0212,0.3059,-0.3585,-0.5036,-0.0228,2042
2,0.7234,-1.1057,0.2737,-0.463,-0.4458,-0.0633,2043
2,0.7095,-1.1902,0.2441,-0.5529,-0.373,-0.1017,2041
2,0.6855,-1.2729,0.2173,-0.6465,-0.2456,-0.1651,2044
2,0.6484,-1.313,0.2166,-0.7584,-0.0839,-0.2405,2043
2,0.6519,-1.3037,0.2717,-0.8821,0.0043,-0.3188,2036
2,0.5352,-1.2651,0.2644,-1.0581,0.023,-0.4035,2040
2,0.6208,-1.3044,0.3259,-1.185,0.1152,-0.4538,2039
2,0.5247,-1.2629,0.3306,-1.3194,0.2758,-0.5224,2044
2,0.5337,-1.2166,0.3381,-1.4575,0.4349,-0.562,2037
2,0.4858,-1.1492,0.365,-1.6089,0.6086,-0.622,2041
2,0.7258,-1.0742,0.4209,-1.7903,0.5184,-0.6062,2040
2,0.4067,-1.0867,0.4004,-1.9301,1.026,-0.7978,2043
2,0.4282,-1.0857,0.3979,-2.0883,1.3224,-0.9063,2042
2,0.4268,-1.1111,0.3604,-2.218,1.539,-0.9977,2045
2,0.3318,-1.1824,0.3164,-2.3342,1.7901,-1.0998,2036
2,0.3608,-1.1936,0.2803,-2.4796,1.9712,-1.1616,2046
2,0.3506,-1.248,0.2573,-2.599,2.108,-1.2414,2040
2,0.3557,-1.281,0.2478,-2.6932,2.259,-1.3082,2040
2,0.3611,-1.291,0.2607,-2.7802,2.3696,-1.3894,2039
2,0.3555,-1.2583,0.2561,-2.8209,2.3969,-1.4488,2039
2,0.325,-1.2332,0.2832,-2.9411,2.421,-1.5105,2048
2,0.334,-1.1326,0.2986,-3.0405,2.4081,-1.558,2039
2,0.3516,-1.0491,0.301,-3.0669,2.3659,-1.6099,2035
2,0.3762,-0.9797,0.3162,-3.1108,2.3144,-1.6309,2041
2,0.3628,-0.9136,0.325,-3.1949,2.2798,-1.6761,2043
2,0.3508,-0.8435,0.3262,-3.2508,2.2051,-1.7122,2044
2,0.3423,-0.7947,0.3118,-3.3102,2.1015,-1.7391,2041
2,0.3518,-0.7361,0.2932,-3.3436,2.0112,-1.7671,2040
2,0.3611,-0.7144,0.2739,-3.3411,1.9485,-1.7821,2040
2,0.3198,-0.7217,0.2573,-3.4115,1.9222,-1.8225,2043
2,0.2844,-0.7036,0.2246,-3.4601,1.9232,-1.852,2044
2,0.2832,-0.6733,0.1724,-3.4371,1.8963,-1.8648,2042
2,0.2996,-0.6338,0.1279,-3.3939,1.861,-1.8293,2039
2,0.271,-0.623,0.0913,-3.2941,1.8191,-1.8343,2042
3,0.2898,-0.6333,0.0793,-3.2266,1.7716,-1.8227,2039
3,0.3093,-0.6326,0.0586,-3.1289,1.7147,-1.7903,2044
3,0.2925,-0.6365,0.0354,-3.0228,1.6506,-1.7807,2039
3,0.3064,-0.6401,0.0115,-2.9311,1.5583,-1.7626,2041
3,0.3186,-0.6162,-0.0085,-2.7789,1.4472,-1.7139,2041
3,0.3279,-0.6328,-0.021,-2.6144,1.329,-1.7086,2043
3,0.343,-0.6238,-0.0127,-2.4601,1.1788,-1.6416,2041
3,0.3428,-0.6316,0.0015,-2.3157,1.0263,-1.5858,2039
3,0.3271,-0.6646,0.0115,-2.1571,0.8795,-1.5311,2038
3,0.3264,-0.6941,0.0334,-2.0008,0.7649,-1.5044,2046
3,0.2014,-0.7393,0.0447,-1.8486,0.6078,-1.5472,2039
3,0.2063,-0.79,0.1553,-1.9148,0.3751,-1.56,2047
3,0.2246,-0.8262,0.0906,-1.7863,0.571,-1.4684,2040
3,0.2158,-0.938,0.1821,-1.7669,0.7265,-1.5323,2043
3,0.4573,-0.8962,0.0447,-1.5799,0.9942,-1.125,2042
3,0.5554,-0.783,-0.0659,-0.8773,1.0047,-0.7497,2037
3,0.6438,-0.8855,-0.0039,-0.4076,0.7939,-0.4115,2040
3,0.7751,-0.9465,0.0859,-0.141,0.3887,-0.0378,2042
3,0.7007,-1.0481,0.196,-0.1028,-0.0509,0.2025,2041
3,0.5859,-1.0469,0.2222,-0.145,-0.3546,0.3926,2042
3,0.592,-0.9177,0.2131,-0.0071,-0.5739,0.6257,2040
3,0.6055,-0.8901,0.2151,0.1771,-0.6418,0.8666,2042
3,0.5759,-0.9058,0.1858,0.4369,-0.5682,1.1144,2039
3,0.5403,-0.9543,0.1648,0.7331,-0.493,1.3683,2041
3,0.5261,-1.0229,0.1553,1.0479,-0.4091,1.6234,2044
3,0.5417,-1.1096,0.1685,1.3376,-0.3103,1.8441,2039
3,0.5483,-1.187,0.1741,1.5961,-0.2501,2.064,2040
3,0.561,-1.2349,0.1865,1.8181,-0.2759,2.2646,2046
3,0.5632,-1.2368,0.2424,2.0162,-0.3328,2.4479,2038
3,0.5361,-1.2424,0.3074,2.1435,-0.4374,2.5872,2039
3,0.491,-1.2339,0.3608,2.2154,-0.5537,2.6755,2039
3,0.4282,-1.1926,0.4226,2.2045,-0.662,2.7012,2046
3,0.3613,-1.1404,0.4727,2.1495,-0.7455,2.6955,2040
3,0.3066,-1.0918,0.4844,2.0879,-0.8248,2.6247,2043
3,0.2532,-1.0347,0.4771,2.063,-0.8806,2.5052,2058
3,0.2092,-1.002,0.4822,2.0751,-0.8724,2.3647,2041
3,0.1782,-0.9927,0.4758,2.0825,-0.8597,2.2136,2043
3,0.1792,-1.0332,0.4465,2.0981,-0.8608,2.0378,2042
3,0.1687,-1.0842,0.3914,2.1473,-0.9014,1.8948,2040
3,0.2183,-1.1606,0.3213,2.2413,-0.9552,1.794,2044
3,0.3025,-1.1985,0.2729,2.3417,-1.084,1.7618,2038
3,0.3655,-1.2256,0.2266,2.4087,-1.2543,1.7211,2042
3,0.4275,-1.2007,0.2241,2.4264,-1.5314,1.7227,2042
3,0.4419,-1.1606,0.2473,2.3764,-1.8686,1.7133,2039
3,0.4316,-1.1145,0.2549,2.2832,-2.1889,1.658,2043
3,0.4128,-1.0591,0.2859,2.1884,-2.4192,1.6193,2045
3,0.4219,-0.9712,0.2896,2.1285,-2.5249,1.5893,2040
3,0.3921,-0.8953,0.3013,2.1097,-2.5458,1.5567,2041
3,0.355,-0.8521,0.2993,2.0547,-2.4796,1.5041,2037
3,0.3271,-0.7991,0.283,1.9879,-2.3683,1.4458,2042
3,0.3223,-0.7375,0.271,1.9178,-2.2466,1.3953,2042
3,0.3149,-0.6829,0.2402,1.8736,-2.065,1.3209,2039
3,0.2913,-0.6406,0.2161,1.8104,-1.8596,1.27,2039
3,0.2876,-0.6094,0.1804,1.7626,-1.6431,1.2051,2040
3,0.2739,-0.5938,0.1377,1.7496,-1.4452,1.1603,2030
3,0.2739,-0.5793,0.0974,1.7259,-1.2416,1.1332,1809
3,0.2737,-0.5916,0.0918,1.7034,-1.0421,1.1258,2118
3,0.2849,-0.603,0.0701,1.6827,-0.87,1.1154,2073
3,0.2761,-0.6094,0.0613,1.6423,-0.7158,1.113,2046
3,0.3135,-0.5952,0.0496,1.6237,-0.6301,1.1097,2053
3,0.3391,-0.595,0.032,1.6478,-0.5783,1.0975,2041
3,0.3755,-0.593,0.0359,1.6687,-0.5586,1.0717,2041
3,0.4116,-0.5923,0.0603,1.7307,-0.5735,1.0512,2040
3,0.4412,-0.6335,0.1006,1.7299,-0.6332,1.0204,2036
3,0.4512,-0.668,0.1646,1.7178,-0.7385,0.9528,2037
3,0.4592,-0.6589,0.2151,1.7136,-0.8195,0.893,2037
3,0.4844,-0.6829,0.2771,1.6801,-0.8994,0.811,2043
3,0.5198,-0.6895,0.3059,1.6472,-1.0031,0.7781,2043
3,0.5388,-0.6885,0.325,1.6463,-1.0926,0.7163,2040
3,0.5864,-0.7754,0.3918,1.5985,-1.1949,0.6601,2043
3,0.5964,-0.8174,0.4314,1.4376,-1.3398,0.6251,2039
3,0.6201,-0.885,0.4536,1.2906,-1.4403,0.6086,2042
3,0.6204,-0.9351,0.4658,1.1298,-1.4376,0.6119,2043
3,0.6169,-0.9646,0.4595,0.9837,-1.3704,0.5641,2043
3,0.5913,-0.9907,0.4729,0.8411,-1.3185,0.499,2043
3,0.564,-1.0337,0.4639,0.7036,-1.2669,0.4384,2043
3,0.5566,-1.0415,0.4575,0.5349,-1.1933,0.3466,2040
3,0.5635,-1.0459,0.4048,0.4067,-1.0495,0.2575,2041
3,0.5613,-1.1174,0.397,0.2502,-0.9489,0.2077,2041
3,0.5715,-1.2476,0.3401,0.1152,-0.8459,0.2009,2044
3,0.5408,-1.4128,0.2837,0.0009,-0.6248,0.1997,2043
3,0.5083,-1.5935,0.2383,-0.2103,-0.3711,0.1013,2042
3,0.4692,-1.5483,0.1816,-0.2004,-0.1101,0.0453,2039
3,0.4177,-1.543,0.2495,-0.2707,0.0864,-0.0975,2041
3,0.4077,-1.4946,0.3394,-0.5377,0.1794,-0.2794,2040
3,0.4119,-1.4124,0.4238,-0.7225,0.3501,-0.4165,2043
3,0.3879,-1.3254,0.4392,-0.9234,0.5594,-0.5096,2041
3,0.3601,-1.281,0.4824,-1.2314,0.6749,-0.597,2041
3,0.2764,-1.1379,0.4839,-1.3477,0.9553,-0.7151,2043
3,0.2822,-1.114,0.4973,-1.5376,1.1465,-0.8148,2042
3,0.292,-1.1074,0.5024,-1.7182,1.321,-0.932,2039
3,0.3145,-1.1409,0.4924,-1.8939,1.4621,-1.0568,2042
3,0.3276,-1.1533,0.4507,-2.0688,1.5663,-1.1776,2037
3,0.3455,-1.2126,0.4224,-2.229,1.6339,-1.2794,2039
3,0.3484,-1.2534,0.3477,-2.3197,1.6502,-1.3641,2043
3,0.3538,-1.3118,0.2905,-2.3872,1.6861,-1.4146,2043
3,0.354,-1.3059,0.2607,-2.4149,1.6831,-1.4549,2045
3,0.3447,-1.2622,0.27,-2.4322,1.6066,-1.507,2039
3,0.332,-1.2344,0.2896,-2.451,1.5157,-1.6082,2042
3,0.2869,-1.2056,0.3184,-2.5494,1.4221,-1.703,2040
3,0.2493,-1.1094,0.3413,-2.6324,1.339,-1.7656,2043
3,0.2441,-0.9946,0.3447,-2.7189,1.2587,-1.7945,2038
3,0.2373,-0.886,0.3313,-2.7703,1.2139,-1.8158,2040
4,0.2234,-0.8254,0.3171,-2.8337,1.2242,-1.8152,2046
4,0.2058,-0.7512,0.2939,-2.8843,1.2432,-1.8061,2042
4,0.199,-0.6846,0.2505,-2.9601,1.2683,-1.7974,2042
4,0.1958,-0.6538,0.2266,-2.9558,1.2822,-1.786,2038
4,0.2122,-0.6436,0.1929,-2.9285,1.3243,-1.7984,2050
4,0.2004,-0.6477,0.1675,-2.9301,1.374,-1.8013,2042
4,0.1863,-0.6294,0.1653,-2.9313,1.4343,-1.8386,2041
4,0.1887,-0.5842,0.1179,-2.8979,1.4853,-1.857,2041
4,0.1763,-0.5613,0.0935,-2.8114,1.5241,-1.8812,2039
4,0.1853,-0.5371,0.0564,-2.7204,1.5475,-1.8538,2042
4,0.2095,-0.5291,0.0317,-2.61,1.5719,-1.8422,2041
4,0.2173,-0.5547,-0.0127,-2.4313,1.6056,-1.7849,2041
4,0.228,-0.6069,0.0044,-2.3158,1.6058,-1.7656,2041
4,0.2288,-0.6118,-0.0112,-2.2245,1.5764,-1.717,2042
4,0.2346,-0.6106,-0.0105,-2.1198,1.5206,-1.6564,2040
4,0.2415,-0.6414,-0.0176,-1.9783,1.4533,-1.6195,2043
4,0.2529,-0.6777,-0.0205,-1.8301,1.3675,-1.5823,2040
4,0.2571,-0.6902,-0.0291,-1.6881,1.2505,-1.4818,2042
4,0.2822,-0.72,-0.0288,-1.494,1.1271,-1.3609,2041
4,0.26,-0.7954,-0.0283,-1.3292,1.0515,-1.3081,2043
4,0.2839,-0.8159,-0.0227,-1.1729,0.964,-1.195,2042
4,0.3069,-0.8293,-0.0132,-0.9993,0.8696,-1.0825,2037
4,0.3279,-0.8723,-0.0005,-0.7826,0.7867,-0.9258,2047
4,0.3291,-0.946,0.0244,-0.5602,0.7032,-0.7672,2040
4,0.3665,-1.0,0.0391,-0.3485,0.6112,-0.5649,2040
4,0.3921,-1.022,0.0972,-0.1414,0.4996,-0.3497,2042
4,0.4282,-1.0845,0.1421,0.1051,0.3711,-0.1436,2047
4,0.4299,-1.1301,0.2119,0.3081,0.2076,0.0852,2038
4,0.4365,-1.0564,0.2507,0.5231,0.0273,0.3043,2039
4,0.4419,-0.9893,0.2971,0.7625,-0.1812,0.5572,2044
4,0.467,-0.9321,0.335,1.031,-0.3615,0.8307,2042
4,0.4795,-0.9294,0.365,1.3213,-0.4501,1.1002,2039
4,0.4844,-0.9658,0.3621,1.6259,-0.4798,1.3757,2040
4,0.4756,-1.0322,0.3401,1.9552,-0.516,1.6271,2042
4,0.4658,-1.1423,0.3169,2.3059,-0.5737,1.8595,2040
4,0.4512,-1.2644,0.3164,2.6306,-0.5781,2.0375,2043
4,0.4331,-1.3408,0.3589,2.8425,-0.5627,2.1624,2039
4,0.3923,-1.3599,0.4067,2.9252,-0.538,2.2282,2043
4,0.3315,-1.3479,0.4836,2.9411,-0.5157,2.247,2042
4,0.2783,-1.2476,0.561,2.9023,-0.5576,2.2481,2042
4,0.2451,-1.1694,0.6511,2.8153,-0.5502,2.2375,2044
4,0.1843,-1.1494,0.7217,2.7028,-0.4834,2.1378,2044
4,0.1284,-1.1665,0.7178,2.5181,-0.4357,1.9977,2043
4,0.114,-1.1423,0.6855,2.4185,-0.4931,1.8768,2041
4,0.1172,-1.1421,0.689,2.383,-0.6476,1.7349,2039
4,0.1375,-1.1462,0.7373,2.3296,-0.8525,1.5906,2041
4,0.1653,-1.1775,0.7388,2.2246,-1.0862,1.5077,2042
4,0.2195,-1.1941,0.718,2.0831,-1.3459,1.4886,2039
4,0.2827,-1.1865,0.6406,2.0052,-1.5777,1.5398,2042
4,0.3474,-1.1782,0.554,1.9383,-1.8117,1.5874,2041
4,0.4104,-1.1211,0.4829,1.8596,-2.0711,1.6608,2040
4,0.4336,-1.0786,0.4106,1.7861,-2.2968,1.6974,2040
4,0.4551,-1.0298,0.3342,1.7157,-2.4566,1.7327,2047
4,0.4153,-0.9663,0.2798,1.6647,-2.4812,1.7241,2042
4,0.3826,-0.8721,0.2585,1.6519,-2.4191,1.6815,2042
4,0.324,-0.7947,0.239,1.6351,-2.2262,1.6566,2044
4,0.2402,-0.7041,0.2136,1.6341,-1.9303,1.5795,2040
4,0.219,-0.6116,0.1819,1.657,-1.5631,1.5205,2042
4,0.231,-0.5505,0.1555,1.7113,-1.1845,1.4808,2040
4,0.2244,-0.5227,0.134,1.7807,-0.8365,1.4367,2038
4,0.2327,-0.5142,0.1006,1.7989,-0.5265,1.4235,2039
4,0.2468,-0.5137,0.0723,1.8211,-0.3044,1.3982,2039
4,0.2788,-0.52,0.062,1.8483,-0.1209,1.3821,2038
4,0.3218,-0.5244,0.042,1.8965,-0.0286,1.3856,2043
4,0.3308,-0.5496,0.0547,1.9393,0.0137,1.3708,2039
4,0.3662,-0.5667,0.0681,1.9755,-0.0072,1.3556,2038
4,0.384,-0.5925,0.1143,1.9564,-0.0727,1.3248,2038
4,0.3926,-0.6406,0.176,1.9189,-0.1458,1.2749,2042
4,0.4153,-0.6313,0.2214,1.8331,-0.2661,1.2145,2041
4,0.4177,-0.6216,0.2754,1.7924,-0.3804,1.1688,2041
4,0.4294,-0.6543,0.3279,1.6667,-0.5003,1.1075,2040
4,0.458,-0.6394,0.3801,1.6496,-0.6205,1.0698,2041
4,0.4653,-0.623,0.4175,1.6837,-0.7303,1.0026,2039
4,0.5007,-0.6895,0.4895,1.5129,-0.9003,0.9445,2042
4,0.5396,-0.6267,0.4946,1.472,-1.0456,0.9054,2047
4,0.5901,-0.6863,0.5601,1.3881,-1.1519,0.8561,2086
4,0.5742,-0.6558,0.5435,1.3135,-1.2408,0.8127,2013
4,0.5815,-0.7009,0.5576,1.3082,-1.2616,0.7754,2038
4,0.6025,-0.7283,0.564,1.217,-1.2374,0.7128,2037
4,0.6282,-0.7258,0.5283,1.2176,-1.15,0.6412,2040
4,0.6667,-0.8191,0.5249,1.0733,-1.1282,0.5663,2040
4,0.6943,-0.8203,0.5283,1.0283,-1.0139,0.4778,2041
4,0.7271,-0.8538,0.5342,0.8424,-1.0131,0.3943,2039
4,0.7141,-0.8389,0.5256,0.7977,-0.9352,0.2713,2041
4,0.6768,-0.9048,0.5098,0.5249,-1.0349,0.1401,2042
4,0.657,-0.999,0.5537,0.3677,-0.9994,0.0111,2042
4,0.5601,-1.0078,0.5227,0.1368,-0.9535,-0.1059,2043
4,0.5078,-1.1433,0.5532,-0.0497,-0.753,-0.2049,2040
4,0.4612,-1.2605,0.5039,-0.2722,-0.6032,-0.2943,2040
4,0.4402,-1.406,0.4255,-0.4341,-0.3899,-0.3653,2043
4,0.4109,-1.4912,0.3547,-0.5793,-0.1368,-0.475,2041
4,0.4163,-1.5015,0.3528,-0.7758,0.0675,-0.6064,2040
4,0.4509,-1.4902,0.3965,-1.0413,0.22,-0.7572,2038
4,0.646,-1.5732,0.5474,-1.4719,0.1361,-0.8325,2038
4,0.3708,-1.3435,0.4565,-1.806,0.312,-1.003,2046
4,0.3433,-1.2478,0.4893,-2.0142,0.6149,-1.1666,2040
4,0.3105,-1.1584,0.4736,-2.3213,0.6369,-1.268,2041
4,0.2454,-1.0808,0.4583,-2.4324,1.0774,-1.4383,2041
4,0.3076,-1.0732,0.4385,-2.585,1.2331,-1.5332,2040
4,0.3865,-1.1248,0.4246,-2.6751,1.2184,-1.5909,2042
4,0.3284,-1.2627,0.4131,-2.7996,1.4874,-1.6989,2040
5,0.3733,-1.3223,0.4099,-2.9794,1.5503,-1.7676,2037
5,0.3135,-1.4089,0.4143,-3.1669,1.6468,-1.8741,2052
5,0.3408,-1.3982,0.3833,-3.2955,1.6438,-1.9194,2039
5,0.3167,-1.3687,0.353,-3.3902,1.7149,-2.0025,2040
5,0.2705,-1.3584,0.3647,-3.5127,1.7978,-2.0976,2039
5,0.2617,-1.2788,0.3782,-3.5981,1.8389,-2.1619,2036
5,0.2688,-1.1921,0.397,-3.6709,1.8528,-2.2417,2042
5,0.2588,-1.1121,0.4143,-3.7431,1.9378,-2.3011,2039
5,0.2498,-1.0415,0.407,-3.8153,2.0138,-2.3638,2043
5,0.2463,-0.9639,0.3665,-3.8239,2.0461,-2.3951,2041
5,0.2695,-0.8872,0.3164,-3.8321,2.0715,-2.4159,2040
5,0.2649,-0.842,0.2798,-3.8347,2.0841,-2.4454,2039
5,0.2871,-0.8069,0.2693,-3.8623,2.0381,-2.4483,2043
5,0.3022,-0.7896,0.2378,-3.8427,1.957,-2.4521,2039
5,0.2908,-0.7712,0.2439,-3.803,1.8844,-2.459,2040
5,0.2786,-0.7437,0.248,-3.7727,1.8679,-2.4533,2042
5,0.2656,-0.7134,0.2476,-3.7864,1.8528,-2.4888,2040
5,0.2544,-0.657,0.2175,-3.7648,1.7893,-2.4683,2040
5,0.2583,-0.6091,0.1694,-3.6832,1.721,-2.453,2040
5,0.2502,-0.5825,0.1299,-3.5573,1.7181,-2.4266,2044
5,0.262,-0.5745,0.1162,-3.4026,1.6934,-2.3888,2041
5,0.2788,-0.5884,0.0737,-3.2742,1.6153,-2.3743,2036
5,0.3013,-0.6106,0.0676,-3.1297,1.5769,-2.3397,2043
5,0.2693,-0.6348,0.0237,-2.9532,1.5203,-2.3079,2039
5,0.3103,-0.6448,0.0054,-2.7733,1.4135,-2.2075,2049
5,0.3367,-0.6726,-0.0063,-2.5761,1.3179,-2.1458,2041
5,0.3352,-0.7107,-0.0205,-2.3854,1.2019,-2.0698,2044
5,0.3557,-0.7415,-0.0215,-2.2136,1.0825,-1.9716,2046
5,0.3577,-0.7622,-0.0269,-2.0482,0.9554,-1.8402,2042
5,0.3347,-0.7964,-0.0034,-1.8773,0.7885,-1.7005,2041
5,0.2786,-0.8369,0.0615,-1.8004,0.6055,-1.615,2038
5,0.2937,-0.8245,0.0793,-1.7016,0.589,-1.4109,2043
5,0.4678,-0.6599,0.0256,-1.4822,0.7087,-1.1212,2041
5,0.5012,-0.6577,0.0039,-0.9224,0.5919,-0.7877,2040
5,0.4116,-0.7126,0.0833,-0.4956,0.4414,-0.5774,2039
5,0.4204,-0.7876,0.2004,-0.4,0.2533,-0.304,2042
5,0.4985,-0.7725,0.2234,-0.2192,0.1099,-0.0156,2044
5,0.4941,-0.8066,0.2566,0.0064,0.0067,0.2701,2043
5,0.4766,-0.8359,0.2908,0.2384,-0.0996,0.5458,2042
5,0.4534,-0.8376,0.3127,0.4806,-0.2333,0.8324,2040
5,0.4553,-0.8271,0.323,0.7363,-0.2887,1.1069,2038
5,0.4624,-0.8469,0.3733,0.9697,-0.2334,1.3746,2040
5,0.4553,-0.8914,0.3833,1.1902,-0.1112,1.6198,2040
5,0.4609,-0.9709,0.3574,1.4253,0.0079,1.8622,2041
5,0.4856,-1.1001,0.281,1.7098,0.1324,2.0899,2040
5,0.5559,-1.2568,0.2117,2.0478,0.2213,2.3188,2044
5,0.615,-1.3918,0.1816,2.381,0.2292,2.5844,2040
5,0.6345,-1.4265,0.2188,2.6425,0.1622,2.7777,2041
5,0.6211,-1.4014,0.3191,2.7188,0.0204,2.9163,2038
5,0.5623,-1.355,0.4331,2.6635,-0.2144,3.01,2057
5,0.48,-1.2708,0.5159,2.5518,-0.5185,3.0011,2042
5,0.3899,-1.1831,0.5571,2.4501,-0.7373,2.9407,2041
5,0.3127,-1.1206,0.5747,2.3613,-0.8336,2.8151,2042
5,0.2307,-1.1001,0.574,2.3308,-0.8372,2.6683,2039
5,0.1812,-1.0825,0.5374,2.3465,-0.8311,2.5489,2042
5,0.1934,-1.1057,0.5046,2.424,-0.7488,2.4176,2041
5,0.2075,-1.1387,0.4875,2.4469,-0.7397,2.2758,2044
5,0.2117,-1.2012,0.4609,2.459,-0.8198,2.1149,2039
5,0.2466,-1.2998,0.4229,2.4822,-1.0065,1.9997,2040
5,0.2915,-1.3413,0.3577,2.4465,-1.2406,1.9334,2042
5,0.3708,-1.3054,0.3035,2.4183,-1.5177,1.9,2041
5,0.4177,-1.241,0.2883,2.3543,-1.8539,1.8911,2043
5,0.4709,-1.1609,0.2825,2.2593,-2.2495,1.8916,2039
5,0.4771,-1.1047,0.2717,2.1731,-2.6244,1.8977,2043
5,0.4893,-1.0295,0.2529,2.1023,-2.9405,1.9254,2043
5,0.446,-0.9265,0.2395,2.0487,-3.122,1.9265,2041
5,0.4114,-0.8411,0.2322,2.0108,-3.1341,1.9097,2041
5,0.3674,-0.7693,0.1907,2.0201,-3.0834,1.8684,2042
5,0.3328,-0.7236,0.1675,2.0146,-2.92,1.7759,2043
5,0.3015,-0.6724,0.1448,2.0038,-2.6533,1.7143,2042
5,0.2908,-0.6265,0.1245,1.9852,-2.3418,1.6346,2042
5,0.2849,-0.5901,0.0813,1.9734,-2.0049,1.5412,2040
5,0.2656,-0.5728,0.0598,1.9941,-1.7157,1.4893,2039
5,0.2839,-0.572,0.0266,2.0,-1.4237,1.4652,2042
5,0.28,-0.5725,0.0132,2.0173,-1.1412,1.4592,2041
5,0.2952,-0.5642,-0.0139,2.0369,-0.8584,1.4636,2042
5,0.3103,-0.5764,-0.0134,2.0319,-0.6359,1.4326,2042
5,0.3518,-0.5571,-0.0439,2.0638,-0.4968,1.4328,2045
5,0.3655,-0.585,-0.0234,2.0639,-0.3444,1.3945,2038
5,0.3906,-0.5833,-0.0049,2.0897,-0.2468,1.3511,2037
5,0.4456,-0.5837,0.0103,2.1389,-0.2215,1.3097,2040
5,0.4841,-0.5925,0.0686,2.132,-0.1993,1.2336,2043
5,0.5273,-0.5996,0.0972,2.1226,-0.2631,1.1597,2036
5,0.584,-0.5979,0.1609,2.1602,-0.416,1.0885,2042
5,0.6533,-0.637,0.2383,2.1137,-0.5874,0.9895,2038
5,0.6887,-0.665,0.2961,2.0939,-0.836,0.8889,2041
5,0.6819,-0.7002,0.345,2.0305,-1.1725,0.7805,2043
5,0.6814,-0.762,0.4207,1.8743,-1.4978,0.7111,2039
5,0.6833,-0.7988,0.4714,1.7199,-1.6687,0.6411,2046
5,0.6184,-0.8379,0.5547,1.6363,-1.6,0.5702,2037
5,0.6096,-0.9312,0.604,1.4776,-1.5981,0.5449,2042
5,0.6104,-0.9407,0.5781,1.3555,-1.5989,0.5084,2043
5,0.6365,-0.9946,0.5898,1.225,-1.5755,0.4143,2041
5,0.6272,-1.0149,0.5544,1.0344,-1.4506,0.2673,2041
5,0.6277,-1.0601,0.5742,0.8491,-1.3059,0.1241,2038
5,0.6306,-1.1052,0.5457,0.5838,-1.2556,0.0088,2040
5,0.6074,-1.1392,0.5129,0.4139,-1.0581,-0.0921,2041
5,0.5757,-1.2317,0.5095,0.1447,-0.8898,-0.1712,2045
5,0.5271,-1.3552,0.4834,-0.1056,-0.6654,-0.2426,2040
5,0.5132,-1.4668,0.4153,-0.3398,-0.4083,-0.3076,2041
5,0.5032,-1.5244,0.3606,-0.5384,-0.175,-0.3651,2042
5,0.4773,-1.5051,0.3425,-0.7224,0.0499,-0.4815,2040
5,0.4883,-1.4465,0.3906,-0.9448,0.2096,-0.6247,2039
5,0.5039,-1.3936,0.4487,-1.2644,0.2659,-0.7492,2038
6,0.4509,-1.2556,0.4517,-1.5213,0.377,-0.8849,2040
6,0.4114,-1.1572,0.4512,-1.7121,0.5605,-1.0162,2041
6,0.3867,-1.0874,0.4541,-1.9084,0.7424,-1.1401,2042
6,0.374,-1.0005,0.4402,-2.0965,0.8686,-1.2295,2040
6,0.3743,-0.9651,0.416,-2.2724,1.0164,-1.3102,2043
6,0.3682,-0.97,0.3828,-2.3967,1.116,-1.3924,2043
6,0.377,-1.0251,0.333,-2.551,1.2364,-1.4536,2040
6,0.3599,-1.0959,0.2952,-2.6838,1.3853,-1.4997,2041
6,0.3657,-1.1555,0.2729,-2.7418,1.4924,-1.521,2042
6,0.3599,-1.2183,0.2271,-2.791,1.5932,-1.5661,2041
6,0.3474,-1.2358,0.2058,-2.8063,1.6768,-1.5972,2041
6,0.345,-1.2551,0.2146,-2.8671,1.7733,-1.6599,2041
6,0.3442,-1.1831,0.208,-2.8935,1.8106,-1.7177,2039
6,0.3513,-1.1472,0.2356,-2.9146,1.8199,-1.776,2044
6,0.3311,-1.1306,0.2498,-2.9786,1.8556,-1.851,2040
6,0.3152,-1.0435,0.2417,-3.0273,1.8702,-1.8767,2042
6,0.3008,-0.9602,0.2439,-3.0673,1.8993,-1.8887,2043
6,0.2803,-0.8889,0.2302,-3.0713,1.9335,-1.9068,2042
6,0.2642,-0.8389,0.2266,-3.0985,1.9602,-1.8982,2055
6,0.2629,-0.8108,0.2283,-3.0712,1.9454,-1.8879,2039
6,0.2642,-0.8054,0.2212,-3.0385,1.9246,-1.8755,2040
6,0.2598,-0.813,0.2612,-3.0649,1.954,-1.8728,2042
6,0.2351,-0.7869,0.2788,-3.1279,2.0049,-1.8829,2040
6,0.2134,-0.7524,0.2712,-3.1841,2.0333,-1.9314,2041
6,0.209,-0.699,0.2349,-3.1772,2.0208,-1.9535,2040
6,0.2175,-0.6948,0.2012,-3.159,2.0367,-1.9776,2039
6,0.2271,-0.6687,0.1619,-3.0744,2.0017,-1.9891,2041
6,0.2598,-0.6636,0.1511,-2.9887,1.9206,-1.9925,2039
6,0.2571,-0.6917,0.1455,-2.898,1.8133,-1.9871,2041
6,0.2705,-0.7151,0.1455,-2.845,1.7482,-2.0072,2038
6,0.2429,-0.7268,0.134,-2.7711,1.6424,-2.0025,2043
6,0.248,-0.7388,0.1162,-2.7203,1.5286,-2.0289,2039
6,0.282,-0.708,0.0996,-2.5887,1.3331,-2.0007,2040
6,0.3164,-0.74,0.1013,-2.4304,1.1323,-1.9746,2041
6,0.3181,-0.7727,0.1067,-2.3205,0.956,-1.9678,2042
6,0.3032,-0.7712,0.1265,-2.2406,0.8264,-1.937,2039
6,0.2896,-0.7576,0.1494,-2.194,0.6644,-1.9109,2042
6,0.3044,-0.7478,0.1221,-2.0216,0.5091,-1.8283,2041
6,0.3533,-0.7336,0.127,-1.8153,0.4036,-1.7387,2044
6,0.3481,-0.7451,0.1465,-1.6053,0.3634,-1.6219,2037
6,0.4104,-0.7034,0.1677,-1.3683,0.2546,-1.4181,2043
6,0.4438,-0.6792,0.1582,-1.0421,0.1396,-1.1624,2045
6,0.4724,-0.7009,0.1704,-0.6742,0.0538,-0.8574,2043
6,0.4971,-0.7354,0.2307,-0.3485,-0.0523,-0.5255,2043
6,0.5349,-0.7368,0.2656,-0.026,-0.22,-0.2048,2039
6,0.5488,-0.8242,0.313,0.2882,-0.3994,0.1168,2043
6,0.533,-0.8982,0.3574,0.5221,-0.4807,0.4022,2041
6,0.4939,-0.9155,0.4001,0.7076,-0.4381,0.6725,2042
6,0.4446,-0.9087,0.408,0.944,-0.2978,0.9337,2035
6,0.4341,-0.9651,0.4016,1.2073,-0.067,1.162,2043
6,0.4429,-1.0889,0.4324,1.5153,0.1846,1.4011,2042
6,0.4717,-1.2153,0.4216,1.7913,0.3478,1.6186,2041
6,0.5044,-1.3701,0.4028,2.0437,0.3777,1.8275,2040
6,0.5439,-1.4753,0.4094,2.2545,0.2923,2.0141,2038
6,0.55,-1.4885,0.4802,2.3594,0.0794,2.1875,2044
6,0.5359,-1.4226,0.5518,2.298,-0.202,2.3298,2038
6,0.4502,-1.304,0.6128,2.1727,-0.4864,2.4381,2041
6,0.3406,-1.2268,0.6599,2.0037,-0.7465,2.4635,2043
6,0.2222,-1.1165,0.6729,1.8828,-0.9123,2.4249,2042
6,0.1499,-1.0825,0.6631,1.7956,-0.9886,2.3092,2043
6,0.1028,-1.0618,0.6047,1.7908,-1.0802,2.2189,2043
6,0.063,-1.0964,0.53,1.8456,-1.1347,2.1132,2040
6,0.0811,-1.1416,0.4792,1.8935,-1.1318,1.976,2041
6,0.1086,-1.2024,0.4465,1.9567,-1.1917,1.8857,2039
6,0.1414,-1.2891,0.3689,1.9819,-1.2932,1.8247,2041
6,0.2102,-1.3357,0.3025,1.9964,-1.46,1.8136,2044
6,0.303,-1.3381,0.2209,2.0001,-1.651,1.8536,2051
6,0.3723,-1.3098,0.1794,2.0057,-1.8458,1.8992,2039
6,0.4216,-1.2573,0.1394,2.0076,-2.0218,1.9635,2045
6,0.4609,-1.1768,0.1362,1.9843,-2.2507,2.0237,2040
6,0.4783,-1.0737,0.1101,1.9924,-2.421,2.1088,2040
6,0.4583,-0.9609,0.1213,2.0125,-2.4844,2.1582,2040
6,0.4568,-0.8657,0.1025,2.0694,-2.4663,2.1968,2043
6,0.3828,-0.7898,0.1228,2.1041,-2.3525,2.1965,2041
6,0.3315,-0.7229,0.1143,2.1266,-2.1325,2.1787,2045
6,0.3145,-0.6548,0.1147,2.1351,-1.8484,2.141,2039
6,0.2815,-0.5981,0.1047,2.1481,-1.5106,2.0964,2043
6,0.2637,-0.5764,0.1003,2.1656,-1.2066,2.0477,2039
6,0.259,-0.5483,0.0864,2.1861,-0.887,1.9997,2042
6,0.2336,-0.5591,0.0874,2.1927,-0.5785,1.9706,2043
6,0.2495,-0.5452,0.062,2.2107,-0.351,1.9425,2038
6,0.2649,-0.5664,0.0464,2.22,-0.1558,1.9245,2038
6,0.3159,-0.575,0.0342,2.2296,-0.0196,1.8911,2041
6,0.3411,-0.613,0.0557,2.2316,0.0344,1.8707,2039
6,0.3906,-0.6294,0.0767,2.2502,-0.0003,1.8266,2041
6,0.4302,-0.6616,0.1147,2.2475,-0.0879,1.7891,2039
6,0.4583,-0.6641,0.1411,2.227,-0.241,1.715,2038
6,0.4849,-0.7095,0.2087,2.1979,-0.4273,1.6639,2039
6,0.5188,-0.7515,0.2751,2.1316,-0.6722,1.5717,2044
6,0.5491,-0.7581,0.3408,2.0386,-0.9926,1.4965,2041
6,0.5415,-0.7683,0.3987,1.9225,-1.2873,1.3984,2043
6,0.5664,-0.7495,0.4595,1.8551,-1.4989,1.3042,2048
6,0.564,-0.8096,0.5286,1.7755,-1.6839,1.2437,2043
6,0.5688,-0.8188,0.5618,1.5916,-1.8582,1.1949,2041
6,0.5767,-0.8018,0.5671,1.5534,-1.8769,1.1208,2041
6,0.5903,-0.8286,0.6055,1.3761,-1.8899,1.0335,2040
6,0.5886,-0.8057,0.5618,1.2824,-1.9009,0.9291,2041
6,0.6213,-0.8484,0.5254,1.2142,-1.7624,0.8032,2041
6,0.6511,-0.8779,0.4941,1.0734,-1.6439,0.6649,2041
6,0.6387,-0.9084,0.4626,0.932,-1.5673,0.516,2041
6,0.6147,-0.9307,0.4539,0.7871,-1.4952,0.3843,2041
6,0.5974,-0.9382,0.4316,0.6629,-1.3788,0.2277,2041
6,0.6082,-0.9846,0.4258,0.4718,-1.3219,0.1225,2037
7,0.5435,-1.001,0.4182,0.3394,-1.2115,0.0189,2041
7,0.5483,-1.1121,0.4111,0.1313,-1.1577,-0.034,2042
7,0.4954,-1.2034,0.3818,-0.0103,-0.9564,-0.1036,2043
7,0.4729,-1.3572,0.3264,-0.1675,-0.7722,-0.1768,2042
7,0.4255,-1.5205,0.2639,-0.2848,-0.4781,-0.2748,2040
7,0.3782,-1.5549,0.2151,-0.4384,-0.1161,-0.4259,2041
7,0.4023,-1.4878,0.2388,-0.6336,0.1591,-0.6151,2041
7,0.5312,-1.4893,0.3633,-1.0034,-0.0068,-0.6935,2038
7,0.3987,-1.3311,0.3748,-1.1358,0.3438,-0.8847,2040
7,0.4292,-1.3022,0.4231,-1.4403,0.4069,-0.9814,2038
7,0.3308,-1.1912,0.3855,-1.6213,0.6183,-1.0503,2043
7,0.2776,-1.0916,0.365,-1.7576,0.811,-1.1383,2043
7,0.3044,-1.0596,0.3611,-1.8875,1.0393,-1.2479,2043
7,0.3093,-1.0791,0.3367,-2.0385,1.186,-1.3524,2047
7,0.2805,-1.1541,0.3342,-2.1826,1.4467,-1.4492,2044
7,0.2944,-1.2441,0.3306,-2.3164,1.6353,-1.5524,2042
7,0.2725,-1.3601,0.3459,-2.4238,1.7089,-1.6446,2045
7,0.2908,-1.4524,0.3794,-2.593,1.8735,-1.7598,2040
7,0.2976,-1.4873,0.3948,-2.7627,1.9708,-1.8652,2039
7,0.2131,-1.4626,0.3965,-2.8923,2.0622,-2.0101,2038
7,0.2578,-1.3677,0.4092,-2.9773,2.0817,-2.1037,2041
7,0.2979,-1.2991,0.4202,-3.0541,2.1395,-2.1992,2040
7,0.2961,-1.2637,0.4185,-3.1276,2.145,-2.2736,2044
7,0.2966,-1.2068,0.4155,-3.2206,2.1471,-2.3433,2039
7,0.2812,-1.1406,0.4138,-3.2678,2.1003,-2.3949,2040
7,0.2651,-1.0891,0.4121,-3.3465,2.0375,-2.4253,2045
7,0.2612,-1.0154,0.3918,-3.4264,1.9832,-2.4587,2041
7,0.2578,-0.9536,0.3804,-3.489,1.9518,-2.4866,2042
7,0.2686,-0.8877,0.3499,-3.5448,1.8837,-2.522,2042
7,0.2651,-0.8086,0.3169,-3.5769,1.7926,-2.5273,2040
7,0.2524,-0.78,0.2844,-3.579,1.7361,-2.5506,2041
7,0.2515,-0.7458,0.2717,-3.5728,1.7034,-2.5474,2042
7,0.2217,-0.7117,0.2251,-3.5508,1.6729,-2.5531,2041
7,0.2139,-0.6729,0.2083,-3.5362,1.6664,-2.5527,2041
7,0.2156,-0.6409,0.1807,-3.4873,1.638,-2.5563,2042
7,0.2043,-0.626,0.1553,-3.4215,1.6129,-2.567,2041
7,0.2085,-0.6128,0.1208,-3.303,1.6454,-2.5694,2059
7,0.2202,-0.6221,0.1172,-3.2096,1.6941,-2.5625,2039
7,0.2256,-0.623,0.1062,-3.1202,1.6797,-2.5434,2045
7,0.2236,-0.6331,0.0649,-3.0015,1.6368,-2.518,2038
7,0.2515,-0.6284,0.05,-2.8686,1.6113,-2.4796,2042
7,0.2622,-0.6123,0.0349,-2.7068,1.5177,-2.4165,2041
7,0.2593,-0.6431,0.0454,-2.5477,1.3703,-2.4104,2041
7,0.2822,-0.6902,0.0464,-2.3995,1.193,-2.3884,2039
7,0.2673,-0.7319,0.0627,-2.2482,1.0461,-2.3205,2041
7,0.2603,-0.7412,0.0479,-2.092,0.9091,-2.2166,2044
7,0.2673,-0.7332,0.0449,-1.8879,0.7835,-2.0959,2041
7,0.2888,-0.7441,0.0557,-1.647,0.6164,-1.9373,2033
7,0.3669,-0.7263,0.0347,-1.3134,0.4004,-1.6867,2040
7,0.397,-0.7402,0.0549,-0.9455,0.2225,-1.3868,2040
7,0.4302,-0.7136,0.0896,-0.5614,0.0642,-1.0172,2040
7,0.4646,-0.7043,0.1257,-0.167,-0.1194,-0.6153,2041
7,0.4812,-0.7361,0.1836,0.2241,-0.3587,-0.2,2042
7,0.4958,-0.7966,0.2197,0.4783,-0.5822,0.1554,2042
7,0.4834,-0.8521,0.2483,0.7271,-0.6901,0.4738,2042
7,0.4773,-0.8564,0.2729,0.974,-0.7098,0.7874,2042
7,0.4407,-0.8496,0.2842,1.2576,-0.6165,1.0931,2039
7,0.439,-0.9077,0.2905,1.5691,-0.451,1.3996,2040
7,0.481,-1.0215,0.2617,1.8936,-0.3003,1.689,2041
7,0.5327,-1.1475,0.2312,2.2477,-0.1554,2.004,2040
7,0.585,-1.2998,0.2021,2.5811,-0.0799,2.2794,2038
7,0.6296,-1.3792,0.1958,2.8674,-0.1115,2.5683,2040
7,0.6528,-1.3535,0.3042,2.9967,-0.2031,2.8208,2041
7,0.6255,-1.3132,0.4111,2.9185,-0.4325,3.0156,2042
7,0.5393,-1.2166,0.4875,2.7754,-0.6602,3.1392,2042
7,0.4299,-1.1323,0.5254,2.6563,-0.7708,3.1428,2042
7,0.3293,-1.0776,0.5383,2.5622,-0.7696,3.1192,2043
7,0.2666,-1.0583,0.5347,2.5125,-0.6698,3.0288,2041
7,0.2004,-1.0291,0.5129,2.5151,-0.5083,2.8886,2043
7,0.1621,-1.0425,0.499,2.5621,-0.3191,2.7224,2042
7,0.1523,-1.115,0.4812,2.6028,-0.1822,2.5425,2040
7,0.165,-1.2004,0.4368,2.6352,-0.1249,2.3839,2044
7,0.2161,-1.3047,0.3904,2.6797,-0.1904,2.2704,2041
7,0.2676,-1.3811,0.3447,2.694,-0.4004,2.2,2039
7,0.3406,-1.3777,0.3159,2.6313,-0.7308,2.1667,2041
7,0.3662,-1.3257,0.3247,2.5167,-1.1256,2.1451,2040
7,0.3877,-1.2656,0.3188,2.385,-1.5551,2.1679,2041
7,0.4299,-1.2229,0.3435,2.2189,-1.9511,2.2176,2043
7,0.4595,-1.1174,0.343,2.0471,-2.29,2.27,2039
7,0.4531,-1.0107,0.313,1.9696,-2.5888,2.3072,2042
7,0.4282,-0.9397,0.2866,1.9138,-2.749,2.2927,2045
7,0.3923,-0.8809,0.2732,1.8666,-2.7623,2.2471,2040
7,0.3628,-0.8066,0.2559,1.7952,-2.6649,2.1623,2042
7,0.3333,-0.749,0.2429,1.7475,-2.4695,2.0619,2039
7,0.2891,-0.6926,0.2141,1.6936,-2.1708,1.9234,2049
7,0.2625,-0.6584,0.1741,1.6619,-1.829,1.8116,2041
7,0.2395,-0.6375,0.1313,1.6402,-1.4743,1.7157,2042
7,0.2468,-0.6304,0.0833,1.6539,-1.1511,1.6604,2038
7,0.251,-0.6479,0.0576,1.6406,-0.8365,1.647,2037
7,0.2717,-0.6389,0.0322,1.6198,-0.5677,1.6335,2041
7,0.3142,-0.6045,0.0015,1.6153,-0.3922,1.6315,2040
7,0.3533,-0.6016,-0.0415,1.6621,-0.2613,1.6202,2042
7,0.375,-0.5979,-0.0554,1.7342,-0.1168,1.5953,2042
7,0.4089,-0.5908,-0.0352,1.7988,0.0322,1.5589,2043
7,0.4292,-0.614,0.0029,1.8263,0.055,1.5198,2039
7,0.4453,-0.6328,0.0596,1.8502,0.0755,1.435,2043
7,0.4763,-0.6526,0.1082,1.8077,0.1689,1.3477,2043
7,0.5337,-0.6267,0.1621,1.8202,0.0917,1.2549,2040
7,0.5562,-0.6399,0.2021,1.8772,-0.1385,1.1576,2041
7,0.6072,-0.6841,0.2659,1.8675,-0.359,1.0705,2043
7,0.6428,-0.6855,0.3425,1.8016,-0.5635,0.97,2042
8,0.6069,-0.7146,0.4453,1.6695,-0.7315,0.8589,2043
8,0.574,-0.7595,0.5181,1.5511,-0.8843,0.7652,2043
8,0.5471,-0.7327,0.5505,1.4704,-0.9628,0.6873,2041
8,0.5376,-0.7925,0.5933,1.3587,-0.9746,0.5863,2040
8,0.5244,-0.8125,0.6008,1.2479,-0.9558,0.4912,2039
8,0.5444,-0.8911,0.5938,1.0668,-0.9577,0.3679,2039
8,0.5164,-0.9336,0.6094,0.9333,-0.9224,0.2123,2042
8,0.5164,-0.9707,0.5845,0.6901,-0.9733,0.0611,2037
8,0.5151,-1.0039,0.5664,0.539,-0.9866,-0.0668,2051
8,0.5366,-1.0996,0.564,0.2348,-1.1142,-0.1545,2040
8,0.4946,-1.125,0.5557,0.0712,-1.0698,-0.2378,2041
8,0.4766,-1.2041,0.5256,-0.1643,-1.0664,-0.2847,2043
8,0.4482,-1.3472,0.478,-0.3749,-0.9809,-0.3247,2039
8,0.3706,-1.4141,0.3706,-0.6144,-0.8188,-0.3547,2045
8,0.3738,-1.468,0.3459,-0.7505,-0.5195,-0.4617,2040
8,0.3894,-1.49,0.3718,-1.076,-0.4546,-0.5815,2041
8,0.3594,-1.4507,0.3884,-1.2266,-0.2084,-0.7552,2038
8,0.3811,-1.4614,0.4121,-1.4853,-0.1284,-0.8898,2040
8,0.3347,-1.3862,0.3943,-1.7012,0.112,-1.0005,2039
8,0.2727,-1.3201,0.4097,-1.8864,0.4004,-1.1134,2039
8,0.2671,-1.2261,0.4304,-2.0272,0.5962,-1.2219,2040
8,0.282,-1.1648,0.4275,-2.1852,0.8144,-1.3224,2041
8,0.3093,-1.1313,0.3928,-2.3377,1.0613,-1.4323,2041
8,0.3086,-1.1458,0.3538,-2.4605,1.2495,-1.5289,2042
8,0.3142,-1.2043,0.3062,-2.5554,1.3937,-1.593,2042
8,0.3347,-1.2559,0.2534,-2.6374,1.5419,-1.6515,2046
8,0.3367,-1.3044,0.2517,-2.7117,1.7286,-1.7275,2042
8,0.3169,-1.3445,0.26,-2.7303,1.8191,-1.807,2040
8,0.3005,-1.3799,0.2856,-2.8133,1.8779,-1.8893,2042
8,0.3254,-1.3857,0.3198,-2.9034,1.9033,-1.9832,2040
8,0.3008,-1.3342,0.3572,-3.018,1.9379,-2.0809,2039
8,0.2747,-1.2559,0.3757,-3.1114,1.9865,-2.1493,2040
8,0.2844,-1.1626,0.3728,-3.1799,1.9921,-2.1939,2037
8,0.3059,-1.0693,0.3638,-3.2037,1.9779,-2.2393,2049
8,0.2971,-0.9722,0.3474,-3.2156,1.9791,-2.2498,2040
8,0.3052,-0.8943,0.321,-3.2437,1.9574,-2.2378,2041
8,0.2864,-0.8357,0.2957,-3.2859,1.8943,-2.227,2039
8,0.2791,-0.7827,0.2485,-3.3192,1.8378,-2.2204,2041
8,0.2749,-0.7307,0.2026,-3.3147,1.7851,-2.2198,2043
8,0.2546,-0.7019,0.1697,-3.2738,1.7261,-2.2198,2039
8,0.2649,-0.6951,0.167,-3.2527,1.6901,-2.2004,2039
8,0.2446,-0.6619,0.146,-3.1885,1.6468,-2.1964,2041
8,0.2202,-0.6392,0.1404,-3.1772,1.6949,-2.2068,2041
8,0.2104,-0.5813,0.1223,-3.1471,1.7133,-2.1873,2040
8,0.1895,-0.5698,0.1104,-3.0633,1.7241,-2.194,2043
8,0.177,-0.554,0.0842,-2.9766,1.7305,-2.1853,2042
8,0.196,-0.5496,0.0828,-2.8645,1.7812,-2.1558,2038
8,0.1851,-0.5703,0.0691,-2.7641,1.8116,-2.1507,2040
8,0.2134,-0.5796,0.0479,-2.6498,1.8042,-2.1379,2042
8,0.2344,-0.5876,0.0171,-2.5195,1.719,-2.1272,2043
8,0.2488,-0.613,-0.0237,-2.3582,1.6572,-2.0935,2041
8,0.2734,-0.6396,-0.0374,-2.1766,1.5307,-2.0373,2041
8,0.3335,-0.6768,-0.0505,-1.9921,1.3015,-1.9768,2042
8,0.3311,-0.7144,-0.0476,-1.807,1.0734,-1.9017,2042
8,0.345,-0.7488,-0.0161,-1.6777,0.8597,-1.7924,2040
8,0.3218,-0.7961,-0.0073,-1.5579,0.671,-1.7145,2038
8,0.3242,-0.7947,0.0168,-1.4177,0.4817,-1.6008,2046
8,0.2996,-0.822,0.0076,-1.2163,0.3268,-1.4375,2045
8,0.314,-0.8245,0.0618,-1.0146,0.1618,-1.2752,2039
8,0.3464,-0.8127,0.0828,-0.8536,0.1052,-1.0108,2041
8,0.4275,-0.8201,0.0857,-0.4896,0.0465,-0.6754,2051
8,0.4902,-0.8071,0.1399,-0.1854,0.0105,-0.2843,2041
8,0.5681,-0.7896,0.167,0.1968,-0.0762,0.1041,2040
8,0.5527,-0.8418,0.2253,0.5329,-0.2838,0.4397,2039
8,0.5242,-0.8745,0.2881,0.6839,-0.4564,0.752,2042
8,0.5083,-0.9116,0.3091,0.8335,-0.5908,1.0234,2043
8,0.5757,-0.9055,0.2554,1.1099,-0.6313,1.3247,2039
8,0.5693,-0.9946,0.2014,1.4426,-0.5634,1.6151,2042
8,0.5205,-1.1055,0.1643,1.8237,-0.4766,1.8823,2042
8,0.5029,-1.2288,0.1445,2.2248,-0.3939,2.1029,2040
8,0.4966,-1.3386,0.2036,2.59,-0.3239,2.3032,2040
8,0.4958,-1.3733,0.3223,2.7576,-0.3643,2.4904,2040
8,0.4639,-1.3323,0.4519,2.7256,-0.4666,2.5964,2043
8,0.4016,-1.271,0.5442,2.6293,-0.5726,2.6577,2041
8,0.364,-1.2327,0.6074,2.4819,-0.6585,2.6477,2037
8,0.2991,-1.2134,0.626,2.3722,-0.6861,2.5693,2043
8,0.2502,-1.2097,0.6206,2.2703,-0.6727,2.518,2041
8,0.2173,-1.1826,0.5952,2.2248,-0.6288,2.4354,2043
8,0.2244,-1.1917,0.5959,2.1947,-0.5863,2.3381,2042
8,0.2312,-1.2507,0.6006,2.1567,-0.5826,2.1969,2042
8,0.2468,-1.3035,0.5757,2.1028,-0.6649,2.0925,2040
8,0.2617,-1.3591,0.5227,2.0269,-0.82,2.0433,2049
8,0.2878,-1.3687,0.4744,1.9112,-1.0355,2.003,2039
8,0.3325,-1.3108,0.4121,1.8173,-1.2924,1.966,2038
8,0.3359,-1.2605,0.3667,1.7094,-1.5431,1.9493,2037
8,0.3555,-1.1963,0.3284,1.6258,-1.7973,1.9329,2043
8,0.3521,-1.1606,0.2939,1.5399,-2.0089,1.9467,2041
8,0.3464,-1.083,0.2415,1.4636,-2.143,1.9413,2043
8,0.3269,-1.0142,0.197,1.4249,-2.1908,1.939,2042
8,0.3201,-0.908,0.1704,1.4085,-2.206,1.9178,2042
8,0.2703,-0.8369,0.1555,1.3757,-2.1261,1.8647,2040
8,0.2617,-0.7583,0.1582,1.3513,-1.9808,1.809,2041
8,0.2354,-0.6826,0.1362,1.3185,-1.7839,1.7514,2044
8,0.2344,-0.6216,0.1184,1.2967,-1.5608,1.7114,2040
8,0.2114,-0.5994,0.0964,1.2757,-1.3431,1.656,2042
8,0.1931,-0.5764,0.0481,1.2898,-1.0925,1.6145,2039
8,0.2261,-0.5784,0.0269,1.2969,-0.8537,1.605,2038
8,0.2356,-0.5603,0.0005,1.3078,-0.6738,1.5882,2041
8,0.2375,-0.5818,-0.0212,1.3291,-0.5256,1.5873,2042
8,0.2839,-0.5984,-0.0217,1.3276,-0.4148,1.5858,2041
8,0.3184,-0.6077,-0.0186,1.3348,-0.355,1.5837,2042
8,0.3467,-0.6069,-0.0481,1.3733,-0.295,1.5924,2040
9,0.4019,-0.6013,-0.0564,1.4483,-0.2722,1.6126,2040
9,0.4351,-0.6331,-0.0588,1.5781,-0.3044,1.6394,2041
9,0.449,-0.6716,-0.0125,1.6524,-0.331,1.6305,2047
9,0.4143,-0.7178,0.0732,1.6843,-0.2954,1.5767,2042
9,0.4387,-0.7053,0.1277,1.6937,-0.2802,1.5316,2040
9,0.4995,-0.6804,0.1553,1.7478,-0.3021,1.4503,2041
9,0.5437,-0.6655,0.2004,1.8254,-0.3759,1.3962,2042
9,0.5647,-0.7288,0.2659,1.8869,-0.5602,1.3307,2043
9,0.5999,-0.8008,0.3376,1.8544,-0.7488,1.2468,2044
9,0.6213,-0.865,0.4031,1.7318,-0.9134,1.176,2041
9,0.5911,-0.8652,0.4963,1.5807,-1.0524,1.1075,2044
9,0.5955,-0.8862,0.522,1.468,-1.1323,1.0463,2039
9,0.5527,-0.9277,0.5417,1.3585,-1.0749,0.9195,2044
9,0.5457,-1.019,0.6116,1.1913,-1.0127,0.8064,2043
9,0.5483,-1.0552,0.5989,1.0188,-0.981,0.656,2039
9,0.5449,-1.094,0.5657,0.9419,-0.9239,0.4714,2040
9,0.5527,-1.1548,0.5598,0.8337,-0.8775,0.339,2035
9,0.5667,-1.1526,0.5586,0.6486,-0.8869,0.1935,2043
9,0.5571,-1.1458,0.5088,0.332,-0.9521,0.0932,2039
9,0.582,-1.2939,0.5193,0.2659,-0.9833,0.0198,2044
9,0.5547,-1.4131,0.4758,0.0586,-0.9509,-0.047,2041
9,0.5029,-1.5115,0.4055,-0.1264,-0.818,-0.1344,2043
9,0.4541,-1.6179,0.3433,-0.281,-0.6232,-0.2468,2041
9,0.3774,-1.5813,0.2971,-0.4413,-0.3441,-0.4249,2041
9,0.3547,-1.5508,0.3618,-0.6612,-0.0441,-0.6434,2040
9,0.345,-1.3823,0.3379,-0.8427,0.1748,-0.8501,2034
9,0.3149,-1.2849,0.386,-1.0463,0.422,-1.0551,2041
9,0.3218,-1.189,0.4011,-1.3007,0.6252,-1.2143,2055
9,0.2493,-1.0432,0.3677,-1.449,0.8428,-1.3493,2041
9,0.2676,-1.0547,0.3989,-1.6036,1.0164,-1.4559,2037
9,0.2588,-1.0266,0.3608,-1.7797,1.1113,-1.5573,2043
9,0.2583,-1.0461,0.3252,-1.8957,1.2387,-1.668,2040
9,0.2512,-1.1064,0.261,-1.9984,1.3328,-1.7554,2040
9,0.2722,-1.1609,0.2292,-2.0626,1.435,-1.8406,2042
9,0.2944,-1.2542,0.1931,-2.1065,1.5095,-1.8921,2040
9,0.3042,-1.3613,0.1714,-2.1027,1.5616,-1.9434,2040
9,0.3225,-1.4033,0.1626,-2.1102,1.589,-1.9845,2041
9,0.3149,-1.405,0.1899,-2.1439,1.6037,-2.0479,2041
9,0.3086,-1.3645,0.2324,-2.2009,1.5506,-2.1276,2039
9,0.2959,-1.3096,0.2722,-2.3045,1.5259,-2.2065,2044
9,0.2871,-1.2173,0.2898,-2.3732,1.468,-2.2763,2041
9,0.2664,-1.1482,0.3162,-2.4417,1.4597,-2.3193,2041
9,0.2427,-1.0715,0.332,-2.5012,1.4704,-2.3348,2042
9,0.2275,-0.9873,0.3325,-2.5574,1.5226,-2.3412,2041
9,0.2065,-0.9446,0.3398,-2.6034,1.5593,-2.3439,2041
9,0.1965,-0.9033,0.3154,-2.6743,1.58,-2.3675,2042
9,0.2017,-0.8467,0.2913,-2.7153,1.6061,-2.3586,2044
9,0.1934,-0.8164,0.251,-2.7368,1.6041,-2.3727,2044
9,0.1731,-0.7969,0.2439,-2.789,1.617,-2.4025,2040
9,0.1882,-0.7559,0.2163,-2.8074,1.6209,-2.3991,2037
9,0.1743,-0.7288,0.1741,-2.7874,1.5957,-2.3895,2039
9,0.1841,-0.6997,0.1399,-2.7412,1.5936,-2.3969,2043
9,0.1892,-0.6853,0.1184,-2.7012,1.5793,-2.3984,2044
9,0.1821,-0.6599,0.0894,-2.6524,1.5235,-2.3961,2040
9,0.1975,-0.6377,0.0542,-2.5659,1.4422,-2.3649,2044
9,0.2039,-0.6443,0.0657,-2.4942,1.3583,-2.3574,2040
9,0.2097,-0.6453,0.0649,-2.4173,1.2608,-2.323,2042
9,0.2043,-0.636,0.063,-2.3431,1.1788,-2.285,2038
9,0.2031,-0.6326,0.0642,-2.2859,1.0664,-2.2575,2040
9,0.2322,-0.6089,0.0349,-2.1879,0.8879,-2.1985,2043
9,0.2283,-0.6304,0.0259,-2.078,0.7384,-2.1708,2039
9,0.2402,-0.6331,0.0083,-1.9686,0.6027,-2.1254,2040
9,0.2351,-0.6443,-0.0024,-1.8311,0.5284,-2.0474,2041
9,0.2517,-0.6516,-0.0225,-1.6554,0.4329,-1.9379,2038
9,0.2649,-0.6433,-0.032,-1.4304,0.3302,-1.8069,2041
9,0.3008,-0.6492,-0.0413,-1.1397,0.245,-1.6563,2037
9,0.343,-0.6382,0.0024,-0.8142,0.1193,-1.4344,2038
9,0.3826,-0.6494,0.0632,-0.4524,-0.0812,-1.1686,2043
9,0.3179,-0.7129,0.1479,-0.2252,-0.1686,-0.927,2042
9,0.405,-0.7249,0.1926,0.0113,-0.1754,-0.5497,2039
9,0.5349,-0.6821,0.1746,0.4844,-0.3955,-0.1228,2038
9,0.4465,-0.8032,0.25,0.7931,-0.5426,0.1699,2043
9,0.3618,-0.896,0.3604,0.9737,-0.6268,0.4099,2041
9,0.4167,-0.8313,0.3596,1.0721,-0.614,0.7055,2042
9,0.4053,-0.8831,0.3708,1.2718,-0.4775,0.9552,2043
9,0.4043,-0.9648,0.3718,1.5155,-0.2655,1.1777,2048
9,0.4219,-1.1025,0.3472,1.8012,-0.0594,1.4007,2039
9,0.4604,-1.2771,0.3125,2.0911,0.0421,1.6386,2041
9,0.5015,-1.4385,0.2917,2.3553,0.0449,1.8447,2039
9,0.5388,-1.5122,0.3159,2.5273,-0.0605,2.0379,2043
9,0.5559,-1.4883,0.384,2.5694,-0.2507,2.2328,2040
9,0.533,-1.4187,0.4607,2.4735,-0.4972,2.3704,2043
9,0.4636,-1.3225,0.5042,2.3627,-0.7433,2.4555,2042
9,0.3962,-1.241,0.4932,2.2731,-0.9531,2.5296,2037
9,0.344,-1.1599,0.4883,2.2232,-1.0524,2.5408,2040
9,0.2673,-1.1309,0.4883,2.1993,-1.0134,2.5076,2043
9,0.2271,-1.0898,0.4795,2.1912,-0.9417,2.4497,2038
9,0.189,-1.0913,0.4792,2.2083,-0.836,2.3506,2037
9,0.1658,-1.1641,0.4805,2.1611,-0.7256,2.217,2044
9,0.1965,-1.2051,0.4385,2.1164,-0.6927,2.1059,2041
9,0.2278,-1.2639,0.3936,2.0892,-0.7512,2.0568,2041
9,0.2927,-1.2957,0.3442,2.0668,-0.8325,2.0218,2040
9,0.3298,-1.2971,0.3079,2.0096,-0.9865,1.9993,2039
9,0.3689,-1.2825,0.2751,1.9604,-1.1934,2.0028,2040
9,0.4133,-1.259,0.2561,1.9056,-1.4627,2.0415,2041
9,0.4231,-1.2151,0.2344,1.8418,-1.7432,2.0718,2041
9,0.4465,-1.1401,0.2173,1.7804,-1.9639,2.1358,2040
9,0.4465,-1.0596,0.1934,1.7386,-2.1317,2.1614,2042
9,0.4375,-0.9524,0.1792,1.7458,-2.2369,2.1775,2042
9,0.3855,-0.8716,0.1641,1.7567,-2.2083,2.1731,2042
9,0.3511,-0.8149,0.155,1.7583,-2.0686,2.1541,2054
9,0.3142,-0.7329,0.1467,1.7559,-1.8836,2.1242,2042
9,0.2988,-0.6763,0.1304,1.7442,-1.6424,2.0687,2040
10,0.2756,-0.6289,0.1021,1.7563,-1.4264,1.9908,2042
10,0.2693,-0.5903,0.0603,1.7651,-1.1809,1.9439,2042
10,0.2585,-0.5745,0.041,1.796,-0.9223,1.9112,2042
10,0.2488,-0.5669,0.0259,1.8267,-0.6881,1.8797,2040
10,0.2598,-0.5916,0.0278,1.8483,-0.4706,1.8488,2035
10,0.3042,-0.5798,0.01,1.9074,-0.3449,1.8189,2043
10,0.3499,-0.5828,0.011,1.9526,-0.2437,1.7994,2041
10,0.3728,-0.623,0.0093,1.9909,-0.1802,1.7759,2040
10,0.4165,-0.637,0.0378,2.0229,-0.1871,1.7398,2040
10,0.4219,-0.6599,0.1028,2.0122,-0.1983,1.6845,2042
10,0.4941,-0.6516,0.1326,2.035,-0.2923,1.6394,2045
10,0.5056,-0.6494,0.178,2.0891,-0.4468,1.5653,2039
10,0.5232,-0.6902,0.2349,2.0935,-0.6319,1.4564,2039
10,0.5405,-0.7144,0.3301,2.0272,-0.8504,1.3222,2043
10,0.5632,-0.7249,0.4255,1.9491,-1.0873,1.224,2044
10,0.5891,-0.7185,0.4983,1.8359,-1.2818,1.1362,2039
10,0.5693,-0.7095,0.5312,1.7592,-1.4478,1.0797,2043
10,0.5559,-0.7661,0.6211,1.6921,-1.5294,1.0094,2040
10,0.543,-0.8071,0.6409,1.6619,-1.5127,0.9242,2040
10,0.5447,-0.8767,0.6462,1.5636,-1.5539,0.8625,2042
10,0.5493,-0.9028,0.6101,1.4624,-1.5307,0.754,2041
10,0.5662,-0.9556,0.6162,1.3613,-1.4516,0.6345,2041
10,0.6208,-1.0222,0.5879,1.2364,-1.4311,0.5321,2049
10,0.6389,-1.0105,0.5466,1.0559,-1.4636,0.4229,2040
10,0.6567,-1.04,0.5298,0.901,-1.4588,0.3007,2042
10,0.6147,-1.0244,0.5122,0.7024,-1.4849,0.1716,2042
10,0.5847,-1.0239,0.5134,0.6015,-1.4652,0.0499,2042
10,0.5669,-1.1233,0.4944,0.4096,-1.494,-0.0237,2044
10,0.4268,-1.1731,0.3921,0.149,-1.4198,-0.0919,2041
10,0.4397,-1.3762,0.4075,0.0915,-1.126,-0.1697,2039
10,0.3735,-1.5059,0.3347,-0.0642,-0.8752,-0.2605,2039
10,0.3154,-1.5293,0.302,-0.2585,-0.5102,-0.4189,2041
10,0.3188,-1.489,0.3127,-0.477,-0.1607,-0.6084,2040
10,0.3416,-1.4431,0.3662,-0.7482,0.0687,-0.7963,2038
10,0.2881,-1.3049,0.3706,-1.1319,0.2057,-0.9018,2039
10,0.3184,-1.2524,0.4294,-1.309,0.5437,-1.0555,2041
10,0.2681,-1.126,0.3992,-1.5584,0.7179,-1.1617,2039
10,0.2981,-1.0479,0.4084,-1.7227,0.9788,-1.2752,2041
10,0.2964,-0.9741,0.3589,-1.8976,1.1505,-1.3993,2042
10,0.3438,-0.9937,0.322,-2.0555,1.2838,-1.493,2041
10,0.3596,-1.0591,0.2722,-2.1855,1.4251,-1.5771,2042
10,0.3528,-1.1458,0.2292,-2.2806,1.4416,-1.6133,2040
10,0.324,-1.2766,0.2261,-2.4044,1.5404,-1.6635,2043
10,0.3228,-1.3613,0.1885,-2.5035,1.5976,-1.6893,2038
10,0.2742,-1.416,0.1982,-2.6036,1.6885,-1.7456,2043
10,0.262,-1.4097,0.2344,-2.6842,1.6712,-1.8137,2047
10,0.2744,-1.3601,0.2827,-2.8002,1.7116,-1.9164,2039
10,0.2493,-1.2849,0.3379,-2.9597,1.7331,-2.0262,2042
10,0.2241,-1.1804,0.3613,-3.0821,1.8298,-2.1282,2038
10,0.2212,-1.0801,0.3633,-3.1324,1.8912,-2.1766,2038
10,0.1958,-1.0254,0.3672,-3.2054,2.0142,-2.2379,2041
10,0.2114,-0.9622,0.3743,-3.2897,2.1423,-2.2846,2040
10,0.2073,-0.9036,0.3643,-3.3559,2.2027,-2.3143,2041
10,0.2126,-0.8821,0.3315,-3.3983,2.2321,-2.3425,2044
10,0.2246,-0.8611,0.3289,-3.4231,2.2403,-2.3856,2039
10,0.2422,-0.833,0.3296,-3.4833,2.2675,-2.4188,2043
10,0.2249,-0.7959,0.3323,-3.5368,2.3041,-2.4574,2042
10,0.2131,-0.7747,0.3027,-3.5672,2.2976,-2.5073,2041
10,0.2197,-0.7322,0.2629,-3.578,2.2542,-2.5707,2042
10,0.2446,-0.6836,0.2146,-3.5062,2.1996,-2.6031,2041
10,0.2654,-0.6594,0.1726,-3.413,2.0912,-2.6035,2042
10,0.2759,-0.6672,0.1306,-3.3376,1.9552,-2.6043,2042
10,0.2905,-0.6711,0.1016,-3.2661,1.8057,-2.618,2042
10,0.2903,-0.6965,0.0881,-3.156,1.668,-2.6255,2038
10,0.2952,-0.7139,0.0564,-3.0361,1.4966,-2.591,2040
10,0.2671,-0.7417,0.0454,-2.918,1.3643,-2.5796,2040
10,0.2632,-0.7449,0.0029,-2.8267,1.203,-2.5245,2039
10,0.291,-0.7141,0.0176,-2.6835,1.011,-2.4836,2037
10,0.3142,-0.7092,0.0364,-2.5293,0.814,-2.4217,2040
10,0.2825,-0.7188,0.0344,-2.3273,0.6721,-2.3696,2044
10,0.2585,-0.7256,0.0564,-2.2088,0.5489,-2.3083,2045
10,0.2678,-0.7056,0.0408,-2.0257,0.4245,-2.1876,2043
10,0.2759,-0.7058,0.0334,-1.7435,0.3681,-2.0691,2041
10,0.3391,-0.7261,0.0457,-1.4552,0.3342,-1.8429,2039
10,0.3887,-0.7554,0.0493,-1.1615,0.2661,-1.5884,2042
10,0.4194,-0.7542,0.0684,-0.8242,0.1297,-1.2812,2041
10,0.4624,-0.7598,0.1157,-0.4822,-0.026,-0.9483,2039
10,0.4937,-0.8069,0.1855,-0.1677,-0.1968,-0.6196,2041
10,0.4836,-0.9062,0.2693,0.0434,-0.3502,-0.3119,2039
10,0.4346,-0.9792,0.3127,0.2215,-0.4428,-0.0384,2041
10,0.4089,-1.0132,0.3591,0.3759,-0.4308,0.2207,2043
10,0.4126,-1.0115,0.4116,0.537,-0.2851,0.4763,2042
10,0.4451,-1.0347,0.4146,0.7557,-0.1515,0.7521,2040
10,0.4761,-1.1074,0.3992,1.0003,-0.0103,1.0419,2040
10,0.5232,-1.2244,0.3547,1.2549,0.0863,1.3464,2042
10,0.5803,-1.3535,0.29,1.5338,0.1474,1.6486,2037
10,0.6216,-1.4067,0.29,1.8222,0.1261,1.922,2042
10,0.6267,-1.3745,0.3333,1.9804,0.0735,2.1566,2038
10,0.5801,-1.343,0.4324,1.9864,-0.0172,2.3623,2046
10,0.5195,-1.2607,0.5037,1.8921,-0.1361,2.482,2043
10,0.4187,-1.1719,0.5352,1.8045,-0.2336,2.5232,2041
10,0.334,-1.0938,0.5427,1.7917,-0.2378,2.5313,2041
10,0.2781,-1.0854,0.573,1.7832,-0.1519,2.4784,2041
10,0.2085,-1.0813,0.5647,1.7587,-0.0366,2.3763,2046
10,0.1514,-1.0876,0.5325,1.784,0.047,2.23,2043
10,0.1467,-1.1338,0.5308,1.8184,0.0764,2.0562,2038
10,0.167,-1.167,0.4905,1.8351,0.0015,1.9213,2042
10,0.1929,-1.2258,0.4299,1.869,-0.1723,1.8096,2042
10,0.2605,-1.261,0.3557,1.8941,-0.406,1.776,2042
10,0.3308,-1.2627,0.269,1.9222,-0.7048,1.7803,2038
10,0.374,-1.2327,0.2124,1.9602,-1.0633,1.8375,2039
10,0.4434,-1.1677,0.1836,2.0065,-1.4853,1.9052,2040
11,0.489,-1.1157,0.1929,2.0331,-1.9273,1.9909,2039
11,0.4998,-1.0635,0.1794,2.0533,-2.3759,2.0537,2042
11,0.5227,-0.9966,0.1963,2.057,-2.7301,2.0845,2044
11,0.5056,-0.9084,0.1985,2.0895,-2.9697,2.0961,2041
11,0.4309,-0.8545,0.2053,2.1286,-3.0629,2.0742,2045
11,0.3894,-0.7852,0.1978,2.1842,-3.0759,2.0459,2040
11,0.3557,-0.7188,0.1843,2.231,-2.9525,2.0026,2038
11,0.3262,-0.6948,0.1934,2.2478,-2.739,1.9433,2045
11,0.2798,-0.6628,0.1763,2.275,-2.4615,1.8836,2041
11,0.2964,-0.6096,0.1243,2.3213,-2.1851,1.8458,2041
11,0.2722,-0.6252,0.0972,2.3928,-1.8963,1.8136,2039
11,0.2666,-0.6384,0.0908,2.422,-1.588,1.8073,2041
11,0.2734,-0.6277,0.0686,2.4273,-1.3139,1.7938,2042
11,0.2834,-0.6252,0.0532,2.4816,-1.0818,1.8174,2041
11,0.2971,-0.6406,0.0579,2.5309,-0.8285,1.8145,2041
11,0.29,-0.6672,0.0701,2.5135,-0.5826,1.7936,2041
11,0.3157,-0.6868,0.1157,2.4549,-0.4032,1.7314,2052
11,0.3245,-0.7007,0.1633,2.3983,-0.2362,1.6677,2042
11,0.3792,-0.6912,0.197,2.3502,-0.1346,1.6025,2038
11,0.4392,-0.6726,0.2065,2.3257,-0.1209,1.5439,2041
11,0.5344,-0.6443,0.2305,2.3573,-0.255,1.4934,2039
11,0.6145,-0.675,0.2712,2.3204,-0.4613,1.4264,2040
11,0.6616,-0.6794,0.3374,2.2527,-0.7324,1.3355,2039
11,0.6941,-0.7185,0.3625,2.1783,-1.0674,1.236,2043
11,0.6965,-0.7612,0.4055,2.018,-1.3773,1.1234,2041
11,0.6992,-0.7471,0.4287,1.9667,-1.6114,1.029,2044
11,0.6755,-0.7874,0.467,1.9186,-1.7668,0.9416,2042
11,0.6665,-0.8396,0.449,1.8105,-1.8148,0.8372,2040
11,0.6589,-0.8765,0.4348,1.7662,-1.7652,0.7224,2041
11,0.6797,-1.0513,0.5034,1.5848,-1.7669,0.583,2044
11,0.6338,-1.0271,0.3972,1.4569,-1.6456,0.4386,2036
11,0.6655,-1.2039,0.4509,1.2599,-1.481,0.2681,2041
11,0.6135,-1.1333,0.3726,1.0395,-1.3829,0.1458,2040
11,0.637,-1.2034,0.3835,0.8048,-1.3038,0.0218,2037
11,0.6426,-1.1738,0.3838,0.5979,-1.1383,-0.0674,2041
11,0.6633,-1.2363,0.3655,0.3397,-1.0978,-0.1579,2043
11,0.6233,-1.3044,0.3201,0.1029,-0.9873,-0.2386,2043
11,0.5349,-1.3726,0.2444,-0.073,-0.7786,-0.337,2042
11,0.4927,-1.417,0.2017,-0.2414,-0.5264,-0.4384,2042
11,0.4556,-1.4231,0.1838,-0.4193,-0.2253,-0.5665,2038
11,0.4548,-1.4094,0.2173,-0.7606,-0.0249,-0.6833,2039
11,0.4102,-1.2605,0.2322,-0.921,0.2859,-0.8403,2041
11,0.3872,-1.2112,0.291,-1.2515,0.3733,-0.9515,2040
11,0.3511,-1.1042,0.3096,-1.5034,0.5662,-1.0596,2046
11,0.3223,-1.0312,0.3364,-1.7347,0.7562,-1.1721,2040
11,0.3042,-0.9995,0.3401,-1.9788,0.8577,-1.2702,2041
11,0.2578,-0.9966,0.3376,-2.1393,1.0497,-1.3776,2038
11,0.2891,-1.0359,0.3186,-2.2804,1.1876,-1.4739,2041
11,0.2715,-1.1096,0.3064,-2.4181,1.3689,-1.5825,2043
11,0.282,-1.1875,0.2708,-2.5412,1.5181,-1.6261,2043
11,0.2739,-1.2793,0.2625,-2.6504,1.6789,-1.7057,2040
11,0.3074,-1.3306,0.2358,-2.748,1.843,-1.7687,2040
11,0.303,-1.354,0.2314,-2.838,1.9643,-1.8434,2040
11,0.2932,-1.3381,0.2415,-2.9446,2.0563,-1.9289,2040
11,0.322,-1.2852,0.248,-3.0479,2.1044,-2.0178,2041
11,0.3396,-1.2585,0.2681,-3.1449,2.1351,-2.1101,2040
11,0.325,-1.2192,0.2822,-3.2392,2.1692,-2.1631,2041
11,0.2778,-1.1826,0.2917,-3.293,2.2193,-2.2152,2042
11,0.2764,-1.1094,0.2754,-3.3267,2.2401,-2.2324,2041
11,0.2712,-1.062,0.2744,-3.3485,2.2393,-2.2386,2042
11,0.2751,-1.0186,0.2686,-3.3611,2.2013,-2.2542,2039
11,0.2507,-0.978,0.2659,-3.4035,2.1405,-2.2671,2041
11,0.2354,-0.9255,0.2488,-3.4103,2.0794,-2.2808,2038
11,0.22,-0.9048,0.2437,-3.4291,2.0105,-2.2903,2042
11,0.22,-0.8523,0.2163,-3.4464,1.9567,-2.3093,2045
11,0.2202,-0.8203,0.2029,-3.4519,1.9108,-2.3425,2040
11,0.2024,-0.7734,0.1919,-3.4279,1.8317,-2.3332,2040
11,0.1868,-0.7549,0.1804,-3.3953,1.7749,-2.355,2041
11,0.1934,-0.7336,0.1514,-3.3708,1.6835,-2.3686,2041
11,0.2192,-0.7104,0.1357,-3.3264,1.5348,-2.3467,2041
11,0.2478,-0.7053,0.1143,-3.2608,1.3604,-2.3502,2042
11,0.2654,-0.7126,0.0952,-3.1686,1.1717,-2.3525,2042
11,0.2964,-0.7192,0.0818,-3.108,0.9918,-2.316,2040
11,0.3071,-0.7197,0.0776,-3.0417,0.8365,-2.2601,2040
11,0.3145,-0.7258,0.0837,-2.9841,0.7062,-2.2063,2038
11,0.3032,-0.7385,0.0952,-2.8891,0.6059,-2.1861,2042
11,0.2983,-0.7471,0.0918,-2.8442,0.5729,-2.17,2047
11,0.2915,-0.7393,0.0959,-2.7569,0.5404,-2.1342,2043
11,0.2935,-0.7346,0.0918,-2.634,0.4589,-2.084,2040
11,0.2954,-0.7478,0.0774,-2.5092,0.4394,-2.0315,2039
11,0.3098,-0.752,0.0671,-2.3384,0.4673,-1.9664,2043
11,0.3376,-0.752,0.0833,-2.1826,0.4685,-1.8479,2040
11,0.3716,-0.7688,0.1069,-2.039,0.4432,-1.7274,2044
11,0.4341,-0.7969,0.0947,-1.8588,0.4529,-1.5314,2039
11,0.6147,-0.6982,0.0032,-1.2853,0.4489,-1.1192,2043
11,0.5737,-0.8247,0.105,-0.8064,0.3677,-0.8409,2042
11,0.5684,-0.9646,0.2542,-0.7127,0.2859,-0.537,2043
11,0.585,-0.9573,0.3071,-0.6039,0.1904,-0.2497,2044
11,0.5217,-0.9651,0.3572,-0.3998,0.1357,-0.0107,2043
11,0.5195,-0.9197,0.4224,-0.3137,0.2045,0.1939,2049
11,0.6001,-0.8464,0.447,-0.1646,0.1776,0.5666,2037
11,0.5474,-0.8743,0.4062,0.0684,0.1799,0.8497,2041
11,0.5566,-0.9175,0.3188,0.4095,0.187,1.1532,2040
11,0.5913,-1.0,0.2615,0.8008,0.1425,1.4707,2043
11,0.6299,-1.1106,0.2205,1.1876,0.0201,1.805,2043
11,0.6245,-1.2031,0.2327,1.4789,-0.121,2.1455,2038
11,0.5728,-1.2083,0.2671,1.7452,-0.1494,2.3807,2041
11,0.5171,-1.1819,0.3484,1.9514,-0.1799,2.5635,2037
11,0.4485,-1.1384,0.4167,2.069,-0.2436,2.6516,2045
11,0.3823,-1.1057,0.491,2.1325,-0.2838,2.7012,2041
11,0.3435,-1.0925,0.5115,2.1619,-0.2674,2.7175,2042
11,0.2998,-1.0752,0.5195,2.2095,-0.2139,2.6898,2041
11,0.2629,-1.0881,0.5432,2.1876,-0.1515,2.6208,2043
11,0.2239,-1.0857,0.533,2.1849,-0.1555,2.4992,2038
11,0.2119,-1.1506,0.5259,2.1916,-0.2004,2.3767,2042
12,0.2429,-1.22,0.498,2.1972,-0.3011,2.2313,2043
12,0.2615,-1.2583,0.4683,2.2141,-0.4699,2.1198,2043
12,0.2983,-1.3066,0.4133,2.2309,-0.7027,2.0595,2039
12,0.3782,-1.3418,0.3792,2.2125,-1.0842,2.0446,2040
12,0.3242,-1.2913,0.2988,2.3336,-1.2797,1.9947,2038
12,0.4114,-1.3013,0.3145,2.2746,-1.7792,2.0098,2040
12,0.4316,-1.249,0.2881,2.2949,-2.2445,2.0289,2041
12,0.4556,-1.198,0.2537,2.2656,-2.6093,2.0124,2042
12,0.4678,-1.1189,0.2095,2.2852,-2.9446,2.0374,2042
12,0.4473,-1.0527,0.2026,2.2961,-3.1624,2.0285,2039
12,0.4241,-0.9556,0.1975,2.3081,-3.3151,2.0138,2041
12,0.4011,-0.8596,0.1812,2.3206,-3.4143,2.0106,2042
12,0.3491,-0.7896,0.1755,2.319,-3.393,1.9747,2042
12,0.3066,-0.7385,0.1553,2.3153,-3.2648,1.9279,2041
12,0.2297,-0.7205,0.1282,2.33,-3.0381,1.8885,2043
12,0.188,-0.6663,0.0957,2.3326,-2.7191,1.8362,2041
12,0.1616,-0.6475,0.0403,2.3633,-2.3513,1.7974,2042
12,0.1479,-0.6284,0.0129,2.3915,-1.9474,1.7571,2039
12,0.1191,-0.6453,-0.0251,2.4356,-1.538,1.7359,2041
12,0.1392,-0.6531,-0.0544,2.4655,-1.1613,1.725,2042
12,0.1904,-0.657,-0.0784,2.4721,-0.867,1.7567,2043
12,0.2207,-0.6548,-0.0796,2.4732,-0.6391,1.7643,2039
12,0.2732,-0.6677,-0.0706,2.4661,-0.4586,1.7941,2041
12,0.2878,-0.6814,-0.0479,2.4659,-0.3662,1.8017,2043
12,0.3101,-0.698,-0.0327,2.4465,-0.3045,1.8038,2038
12,0.3354,-0.7378,0.0139,2.4151,-0.2669,1.7819,2042
12,0.3994,-0.7615,0.0229,2.3972,-0.299,1.7471,2041
12,0.4683,-0.7908,0.0588,2.3663,-0.4308,1.7089,2037
12,0.5264,-0.8206,0.0786,2.3272,-0.6573,1.6427,2044
12,0.5925,-0.8647,0.1296,2.2545,-0.9115,1.5831,2039
12,0.6113,-0.8894,0.176,2.09,-1.205,1.5412,2046
12,0.626,-0.875,0.2253,2.0057,-1.4651,1.4729,2046
12,0.6191,-0.9053,0.2651,1.923,-1.6816,1.4141,2045
12,0.6577,-0.9468,0.321,1.8112,-1.8405,1.3439,2043
12,0.6646,-0.9519,0.344,1.6649,-1.9664,1.2575,2056
12,0.6724,-0.9966,0.3521,1.5,-2.063,1.1635,2043
12,0.6609,-1.0178,0.344,1.3872,-2.0442,1.0489,2043
12,0.6453,-1.0935,0.376,1.2374,-1.9939,0.9384,2043
12,0.6226,-1.1401,0.3811,1.022,-1.8413,0.8155,2041
12,0.5886,-1.1372,0.3511,0.8187,-1.6712,0.6883,2037
12,0.5693,-1.1694,0.3616,0.7076,-1.4045,0.5309,2042
12,0.5674,-1.2317,0.3584,0.4514,-1.1684,0.3912,2041
12,0.5518,-1.3416,0.3315,0.2155,-0.8883,0.2729,2039
12,0.4739,-1.4873,0.3181,0.0005,-0.506,0.1459,2042
12,0.4438,-1.6384,0.2917,-0.1747,-0.0932,0.0168,2040
12,0.4456,-1.6633,0.2834,-0.3781,0.3009,-0.1396,2038
12,0.4871,-1.5764,0.3364,-0.6572,0.5887,-0.3402,2040
12,0.4751,-1.4482,0.3589,-1.0551,0.6185,-0.5102,2038
12,0.4915,-1.4009,0.4697,-1.2596,0.7473,-0.6863,2040
12,0.436,-1.2078,0.4436,-1.6305,0.7538,-0.7992,2039
12,0.3896,-1.1135,0.4792,-1.7804,0.9435,-0.9485,2043
12,0.323,-0.9932,0.4688,-2.0117,1.0327,-1.1121,2040
12,0.3271,-0.937,0.4541,-2.235,1.1927,-1.2659,2044
12,0.3191,-0.917,0.3953,-2.4117,1.3692,-1.4158,2042
12,0.2908,-0.9907,0.3716,-2.5769,1.6327,-1.5528,2043
12,0.282,-1.0713,0.3,-2.6449,1.8458,-1.6615,2040
12,0.2805,-1.1738,0.2432,-2.7152,2.0892,-1.7361,2041
12,0.2881,-1.2888,0.1946,-2.7489,2.3049,-1.7948,2045
12,0.3132,-1.3467,0.1667,-2.7702,2.4595,-1.8856,2040
12,0.3359,-1.364,0.1482,-2.7749,2.5462,-1.9574,2039
12,0.356,-1.3108,0.1814,-2.7658,2.5761,-2.045,2038
12,0.3616,-1.2561,0.2437,-2.7876,2.5208,-2.1374,2037
12,0.3716,-1.1851,0.2781,-2.8251,2.3922,-2.2201,2042
12,0.3623,-1.1143,0.3022,-2.898,2.3153,-2.3024,2040
12,0.3157,-1.042,0.3369,-2.9408,2.2728,-2.3647,2043
12,0.2993,-0.9944,0.3464,-2.963,2.2595,-2.3892,2040
12,0.2566,-0.9424,0.3284,-2.9601,2.2411,-2.422,2041
12,0.2432,-0.925,0.3093,-2.9719,2.2374,-2.4092,2042
12,0.2104,-0.9094,0.2817,-2.9974,2.2511,-2.4148,2040
12,0.2219,-0.8733,0.2319,-3.0059,2.2515,-2.4179,2039
12,0.208,-0.8477,0.186,-2.993,2.2397,-2.4406,2040
12,0.1941,-0.8242,0.1726,-2.961,2.2202,-2.4856,2043
12,0.2141,-0.7874,0.1377,-2.9106,2.1699,-2.5005,2039
12,0.2148,-0.7554,0.1067,-2.8197,2.0803,-2.5033,2042
12,0.22,-0.7346,0.0918,-2.7398,1.9702,-2.4731,2045
12,0.2434,-0.7139,0.0637,-2.6384,1.815,-2.4683,2041
12,0.2202,-0.7058,0.0503,-2.5566,1.6161,-2.4806,2040
12,0.2551,-0.6694,0.033,-2.4585,1.3825,-2.4505,2038
12,0.2722,-0.6731,0.0347,-2.3485,1.1383,-2.4027,2040
12,0.2554,-0.6978,0.0261,-2.231,0.9343,-2.3582,2041
12,0.2319,-0.7239,-0.0054,-2.137,0.7516,-2.3182,2059
12,0.2212,-0.7083,0.0049,-2.0475,0.5528,-2.2654,2039
12,0.2087,-0.7241,0.0244,-1.9494,0.3975,-2.2233,2044
12,0.2346,-0.7197,0.0481,-1.8504,0.2322,-2.1726,2040
12,0.2249,-0.7095,0.0757,-1.762,0.1081,-2.073,2036
12,0.2153,-0.7046,0.084,-1.6667,0.0739,-2.0068,2043
12,0.2148,-0.6592,0.0984,-1.5305,0.0009,-1.8663,2039
12,0.2458,-0.6208,0.0894,-1.3428,-0.0623,-1.7297,2038
12,0.2759,-0.5815,0.1353,-1.1286,-0.1233,-1.5476,2041
12,0.3501,-0.5938,0.1194,-0.7522,-0.0586,-1.2537,2038
12,0.3923,-0.6162,0.1411,-0.3312,-0.0017,-0.9103,2043
12,0.387,-0.6951,0.2205,-0.0146,0.1397,-0.5823,2040
12,0.4421,-0.8213,0.2439,0.2784,0.1458,-0.2505,2039
12,0.4629,-0.9409,0.2678,0.5645,0.0131,0.0403,2042
12,0.4341,-1.0486,0.3523,0.6593,-0.0618,0.28,2044
12,0.4124,-0.9973,0.4268,0.7637,-0.0514,0.5223,2042
12,0.4082,-0.978,0.4832,0.9729,0.0382,0.7526,2041
12,0.4104,-0.9836,0.533,1.168,0.1682,1.0437,2039
12,0.3906,-1.0835,0.5229,1.4021,0.2959,1.2995,2040
12,0.4255,-1.2129,0.4617,1.6488,0.3205,1.5579,2044
13,0.4607,-1.353,0.3896,1.8534,0.3033,1.796,2039
13,0.481,-1.4421,0.3452,2.0774,0.2549,2.0011,2041
13,0.5007,-1.4519,0.3357,2.2292,0.1567,2.1716,2040
13,0.4836,-1.3687,0.3745,2.271,0.0067,2.283,2040
13,0.4268,-1.2754,0.4375,2.2567,-0.2173,2.3575,2042
13,0.3713,-1.2012,0.4614,2.2057,-0.4322,2.4047,2051
13,0.3257,-1.136,0.4805,2.1783,-0.5915,2.4152,2040
13,0.2727,-1.0847,0.4526,2.1595,-0.6745,2.3699,2043
13,0.2336,-1.0562,0.4326,2.1751,-0.7123,2.337,2040
13,0.2153,-1.0522,0.4209,2.1794,-0.7769,2.2744,2037
13,0.2114,-1.0566,0.4233,2.1881,-0.8469,2.1916,2042
13,0.2012,-1.115,0.4067,2.1748,-0.9385,2.094,2039
13,0.2158,-1.1685,0.3647,2.168,-1.0826,2.0391,2040
13,0.2512,-1.2202,0.324,2.1554,-1.2208,1.9864,2039
13,0.2976,-1.2629,0.2734,2.1571,-1.4023,1.9849,2039
13,0.3379,-1.2639,0.2329,2.1253,-1.6203,1.9868,2039
13,0.3711,-1.1951,0.2083,2.0864,-1.8797,1.9961,2040
13,0.4058,-1.1641,0.2241,2.0326,-2.1487,2.0258,2041
13,0.4246,-1.1101,0.2046,1.9678,-2.389,2.0521,2042
13,0.4126,-1.0422,0.1816,1.9482,-2.5911,2.069,2043
13,0.3958,-0.9673,0.1614,1.9434,-2.7207,2.0968,2042
13,0.3315,-0.9224,0.1482,1.947,-2.7044,2.0951,2044
13,0.2793,-0.8625,0.1235,1.9385,-2.5766,2.0688,2044
13,0.2534,-0.7991,0.1199,1.9423,-2.421,2.0558,2043
13,0.2163,-0.7434,0.1047,1.9406,-2.1861,2.0024,2041
13,0.2263,-0.7139,0.1042,1.9375,-1.8998,1.9771,2040
13,0.2046,-0.687,0.1067,1.9174,-1.587,1.9241,2042
13,0.196,-0.6572,0.0791,1.9338,-1.3125,1.8865,2040
13,0.1902,-0.6714,0.0435,1.9555,-1.0537,1.867,2044
13,0.2124,-0.6643,0.03,1.9805,-0.8239,1.8622,2039
13,0.2283,-0.645,0.04,1.99,-0.6161,1.8504,2038
13,0.2319,-0.6799,0.0698,1.9823,-0.4472,1.8142,2040
13,0.2581,-0.7041,0.0637,1.9692,-0.3305,1.7737,2036
13,0.2896,-0.7241,0.0979,1.9283,-0.2116,1.7342,2043
13,0.3318,-0.7224,0.0972,1.9192,-0.1678,1.721,2040
13,0.3953,-0.7415,0.1177,1.9543,-0.1759,1.7151,2041
13,0.4575,-0.7708,0.1594,1.9953,-0.2629,1.6675,2039
13,0.501,-0.8005,0.2158,2.0089,-0.4307,1.629,2042
13,0.5234,-0.8047,0.2773,1.9871,-0.6534,1.5773,2041
13,0.5298,-0.7983,0.3291,1.9915,-0.8732,1.4912,2042
13,0.5642,-0.8677,0.4099,1.8801,-1.0937,1.3956,2039
13,0.6091,-0.8279,0.4536,1.8365,-1.3051,1.315,2041
13,0.5891,-0.856,0.4978,1.7877,-1.4701,1.2633,2043
13,0.6035,-0.9041,0.5466,1.6386,-1.6323,1.2183,2043
13,0.5977,-0.8726,0.5427,1.6448,-1.6206,1.1789,2041
13,0.6187,-0.9373,0.5542,1.5442,-1.5474,1.1029,2042
13,0.6238,-0.8901,0.4863,1.5452,-1.4615,0.9886,2044
13,0.6221,-0.9268,0.4885,1.5225,-1.3022,0.8166,2040
13,0.708,-1.105,0.5261,1.2473,-1.2909,0.6445,2038
13,0.6489,-0.8975,0.4231,1.1938,-1.1592,0.4754,2042
13,0.6533,-1.0149,0.4741,1.0789,-1.118,0.3267,2041
13,0.6284,-1.1016,0.5093,0.8099,-1.2118,0.2021,1875
13,0.5063,-1.0383,0.4434,0.6211,-1.1364,0.1165,2059
13,0.4619,-1.2585,0.4897,0.4438,-0.989,0.0266,2081
13,0.4041,-1.4077,0.4443,0.225,-0.8345,-0.0553,2051
13,0.3687,-1.5042,0.4097,0.0012,-0.5634,-0.1844,2048
13,0.3279,-1.5117,0.355,-0.2302,-0.1987,-0.3565,2044
13,0.3379,-1.4329,0.3679,-0.4757,0.1156,-0.5773,2028
13,0.3528,-1.3521,0.3999,-0.7311,0.3187,-0.7696,2047
13,0.3752,-1.3096,0.4199,-1.1286,0.3834,-0.8963,2044
13,0.3401,-1.1599,0.4121,-1.2904,0.6983,-1.0601,2041
13,0.3203,-1.0759,0.4099,-1.5233,0.8937,-1.1686,2038
13,0.2756,-0.9607,0.3525,-1.706,1.1055,-1.2962,2042
13,0.2957,-0.8955,0.3228,-1.9092,1.2698,-1.3993,2040
13,0.3005,-0.8672,0.2715,-2.0692,1.4727,-1.4878,2039
13,0.3003,-0.8982,0.2046,-2.1775,1.6318,-1.547,2040
13,0.2966,-0.9836,0.1492,-2.2606,1.7331,-1.5737,2042
13,0.2922,-1.093,0.1226,-2.3004,1.7767,-1.594,2045
13,0.2671,-1.2583,0.1182,-2.3435,1.8671,-1.6271,2040
13,0.272,-1.3638,0.1257,-2.357,1.9216,-1.6681,2040
13,0.27,-1.4067,0.1545,-2.4068,1.9062,-1.7416,2044
13,0.2334,-1.3921,0.2136,-2.5231,1.8856,-1.861,2037
13,0.2473,-1.3071,0.2456,-2.6304,1.8437,-1.9736,2039
13,0.2368,-1.2341,0.2722,-2.6864,1.796,-2.0602,2039
13,0.241,-1.158,0.2917,-2.7686,1.8371,-2.1136,2041
13,0.25,-1.0767,0.3032,-2.8504,1.8788,-2.1414,2042
13,0.1997,-1.0376,0.3308,-2.9305,1.8965,-2.1594,2058
13,0.1943,-0.9861,0.3376,-2.9901,1.8797,-2.1848,2043
13,0.2034,-0.9397,0.3281,-3.0565,1.8752,-2.1838,2041
13,0.1919,-0.9062,0.344,-3.1199,1.9188,-2.2354,2040
13,0.1814,-0.8828,0.3276,-3.2035,1.9761,-2.2819,2034
13,0.1902,-0.8391,0.313,-3.2564,1.9944,-2.3084,2043
13,0.187,-0.8101,0.2786,-3.2822,2.0274,-2.3404,2040
13,0.1831,-0.7893,0.2578,-3.2899,2.0628,-2.3755,2047
13,0.1843,-0.7793,0.2336,-3.2874,2.0802,-2.4101,2042
13,0.2009,-0.7595,0.1785,-3.2403,2.0829,-2.4254,2036
13,0.2124,-0.7607,0.1594,-3.2029,2.0635,-2.4418,2040
13,0.2146,-0.7485,0.1311,-3.1191,2.0186,-2.4286,2042
13,0.23,-0.7427,0.1016,-3.0235,1.9594,-2.4334,2041
13,0.2402,-0.7546,0.1062,-2.9413,1.8828,-2.4489,2043
13,0.2432,-0.7417,0.0789,-2.859,1.7713,-2.4444,2041
13,0.2437,-0.7571,0.0706,-2.7288,1.6595,-2.412,2042
13,0.2546,-0.7649,0.0559,-2.6044,1.4812,-2.4036,2044
13,0.2598,-0.7798,0.0571,-2.4987,1.2969,-2.3694,2040
13,0.2576,-0.8145,0.0559,-2.4009,1.1372,-2.3412,2040
13,0.2488,-0.8054,0.0398,-2.2915,1.016,-2.2976,2041
13,0.2507,-0.8218,0.0225,-2.1351,0.8689,-2.222,2043
13,0.248,-0.8516,0.0095,-1.9526,0.7241,-2.1189,2031
13,0.27,-0.8696,-0.0156,-1.7289,0.5746,-2.0323,2046
14,0.3289,-0.8582,-0.0044,-1.472,0.382,-1.8398,2041
14,0.3618,-0.835,0.0068,-1.1571,0.1716,-1.606,2041
14,0.3821,-0.8311,0.0527,-0.8293,-0.0498,-1.3344,2043
14,0.4229,-0.8291,0.127,-0.5417,-0.2389,-1.0271,2042
14,0.4324,-0.8469,0.1738,-0.2964,-0.396,-0.7263,2041
14,0.425,-0.874,0.1877,-0.0419,-0.5401,-0.3978,2043
14,0.4211,-0.8877,0.2263,0.2132,-0.5873,-0.0783,2042
14,0.4275,-0.9084,0.269,0.4489,-0.5689,0.2242,2044
14,0.4558,-0.9558,0.2983,0.7136,-0.5485,0.5323,2038
14,0.4729,-1.0579,0.2864,1.0138,-0.5324,0.8415,2040
14,0.5017,-1.1831,0.2644,1.3404,-0.5058,1.1395,2039
14,0.5469,-1.3064,0.2493,1.6918,-0.5124,1.4169,2043
14,0.5513,-1.3357,0.3127,1.9619,-0.5287,1.7112,2040
14,0.5391,-1.2847,0.4517,2.074,-0.6457,1.99,2041
14,0.4817,-1.2561,0.5356,2.0551,-0.756,2.1664,2041
14,0.4041,-1.2178,0.5623,1.9867,-0.8686,2.3109,2045
14,0.3562,-1.1624,0.5576,1.9638,-0.866,2.4043,2043
14,0.303,-1.1433,0.5479,1.9516,-0.7288,2.4581,2038
14,0.2676,-1.144,0.5459,1.9218,-0.5319,2.4586,2043
14,0.2153,-1.1394,0.5481,1.866,-0.3396,2.4128,2039
14,0.1948,-1.1299,0.5549,1.8157,-0.1666,2.3109,2040
14,0.1545,-1.179,0.5549,1.7343,-0.0704,2.1449,2041
14,0.135,-1.2246,0.5103,1.7041,-0.0009,1.9891,2039
14,0.1475,-1.2839,0.4563,1.6905,-0.0111,1.8379,2040
14,0.2036,-1.322,0.4038,1.6861,-0.1163,1.7744,2043
14,0.2522,-1.3401,0.3423,1.6739,-0.3361,1.7691,2047
14,0.3176,-1.2852,0.2979,1.6692,-0.6462,1.7981,2041
14,0.3455,-1.2498,0.2791,1.6227,-0.9768,1.8427,2040
14,0.3853,-1.189,0.2642,1.588,-1.3109,1.8973,2040
14,0.3943,-1.1348,0.25,1.5371,-1.5938,1.9598,2044
14,0.4021,-1.052,0.2202,1.4829,-1.8623,1.9967,2040
14,0.4004,-0.9902,0.176,1.4559,-2.06,2.0133,2042
14,0.4053,-0.926,0.1633,1.4821,-2.1479,2.0108,2041
14,0.4033,-0.8398,0.1545,1.4901,-2.1788,2.0057,2044
14,0.3718,-0.783,0.1733,1.4896,-2.1971,1.9996,2039
14,0.3289,-0.7278,0.1562,1.4715,-2.1165,1.9489,2042
14,0.3096,-0.665,0.1519,1.4375,-1.957,1.8853,2041
14,0.2412,-0.6091,0.1111,1.4472,-1.7186,1.8189,2040
14,0.2158,-0.5635,0.0791,1.4913,-1.4091,1.7659,2043
14,0.1921,-0.5542,0.0491,1.537,-1.0549,1.744,2041
14,0.21,-0.5674,0.0256,1.59,-0.7513,1.7283,2044
14,0.2441,-0.5515,-0.0198,1.6547,-0.5156,1.737,2037
14,0.3008,-0.5615,-0.0725,1.7884,-0.3583,1.7607,2042
14,0.3889,-0.5359,-0.0938,1.9538,-0.2705,1.8387,2041
14,0.4258,-0.5581,-0.0742,2.1165,-0.1971,1.8663,2041
14,0.4575,-0.5886,0.0132,2.2393,-0.1481,1.8342,2037
14,0.4067,-0.6328,0.0806,2.2901,-0.2509,1.8081,2043
14,0.3992,-0.6555,0.0925,2.3053,-0.3243,1.7739,2044
14,0.4436,-0.6482,0.1079,2.3643,-0.2956,1.7157,2042
14,0.4966,-0.676,0.1672,2.4438,-0.3247,1.6948,2040
14,0.4766,-0.6794,0.27,2.4611,-0.4219,1.6362,2049
14,0.4707,-0.7329,0.4202,2.3734,-0.5143,1.5376,2040
14,0.4783,-0.7925,0.5137,2.1771,-0.6556,1.4183,2040
14,0.5264,-0.7627,0.5674,2.0595,-0.7509,1.3007,2043
14,0.5476,-0.8362,0.6318,1.8519,-0.8423,1.2014,2038
14,0.5359,-0.8069,0.603,1.7447,-0.9355,1.0668,2042
14,0.5552,-0.8589,0.594,1.692,-1.0481,0.9355,2044
14,0.5449,-0.9629,0.6382,1.4018,-1.1692,0.769,2042
14,0.5842,-0.9673,0.6201,1.3231,-1.1919,0.6371,2040
14,0.5771,-1.0757,0.5923,1.1829,-1.2555,0.4561,2044
14,0.5776,-1.1504,0.5088,0.8819,-1.3607,0.3232,2043
14,0.5413,-1.1631,0.4858,0.8192,-1.313,0.1888,2043
14,0.5164,-1.2227,0.4385,0.5988,-1.2551,0.0597,2042
14,0.4951,-1.292,0.4124,0.3641,-1.1565,-0.0403,2043
14,0.4636,-1.4087,0.3706,0.1436,-0.9926,-0.1286,2039
14,0.4067,-1.6125,0.3313,-0.1405,-0.7664,-0.2153,2042
14,0.3826,-1.6616,0.2361,-0.1712,-0.492,-0.3045,2042
14,0.2981,-1.6912,0.2505,-0.3702,-0.1727,-0.4927,2040
14,0.2681,-1.6045,0.2922,-0.5818,0.0871,-0.7289,2040
14,0.3174,-1.5752,0.4343,-0.9871,0.2294,-0.9381,2038
14,0.2195,-1.2324,0.4041,-1.2109,0.4139,-1.1447,2040
14,0.179,-1.0703,0.4736,-1.4713,0.6357,-1.3359,2041
14,0.1604,-0.9539,0.5093,-1.7074,0.8561,-1.4952,2040
14,0.1638,-0.9084,0.4924,-1.8941,1.0139,-1.6265,2050
14,0.2031,-0.9404,0.4485,-2.0591,1.1206,-1.7205,2039
14,0.2507,-1.0085,0.3762,-2.2113,1.2259,-1.7897,2040
14,0.27,-1.1074,0.3201,-2.3149,1.3115,-1.859,2042
14,0.2849,-1.2144,0.2625,-2.4077,1.3499,-1.9125,2043
14,0.3254,-1.3367,0.2034,-2.4844,1.3539,-1.9576,2043
14,0.354,-1.4119,0.1726,-2.5394,1.3324,-1.9855,2042
14,0.3271,-1.4456,0.1655,-2.5844,1.3302,-2.0498,2043
14,0.3442,-1.4194,0.1577,-2.6115,1.2773,-2.1025,2040
14,0.321,-1.3745,0.1704,-2.6713,1.2018,-2.1814,2037
14,0.2952,-1.3105,0.1846,-2.7345,1.1686,-2.2386,2040
14,0.2585,-1.2559,0.2102,-2.7948,1.1761,-2.2943,2042
14,0.2275,-1.1782,0.2295,-2.8426,1.2107,-2.3067,2039
14,0.1682,-1.1145,0.2649,-2.9047,1.3247,-2.32,2041
14,0.1216,-1.0457,0.2815,-2.9139,1.4371,-2.3418,2042
14,0.1274,-0.9744,0.2893,-2.9293,1.5029,-2.3153,2041
14,0.1479,-0.9187,0.2952,-2.9827,1.5534,-2.3439,2042
14,0.1389,-0.8821,0.28,-3.0084,1.5982,-2.3699,2040
14,0.1641,-0.8303,0.2729,-3.0781,1.6422,-2.4011,2039
14,0.1582,-0.783,0.2622,-3.1052,1.6432,-2.4165,2040
14,0.1311,-0.7361,0.2446,-3.1128,1.6303,-2.4405,2040
14,0.1663,-0.6902,0.2202,-3.1244,1.5937,-2.4326,2045
14,0.1479,-0.6448,0.1982,-3.0955,1.5326,-2.4598,2042
14,0.1575,-0.6418,0.1697,-3.0798,1.4375,-2.4783,2043
14,0.1677,-0.6223,0.125,-3.0144,1.2944,-2.4503,2039
14,0.1794,-0.6196,0.1045,-2.952,1.1672,-2.4538,2043
14,0.2021,-0.6184,0.0811,-2.8906,1.0178,-2.4408,2042
14,0.2126,-0.6216,0.0549,-2.7966,0.8538,-2.4113,2041
14,0.2061,-0.6418,0.0244,-2.6814,0.6687,-2.3818,2040
14,0.209,-0.6396,-0.0039,-2.5867,0.4706,-2.3583,2047
14,0.2329,-0.6414,-0.021,-2.4836,0.3006,-2.3137,2041
14,0.2532,-0.6304,-0.0417,-2.3264,0.1037,-2.2578,2043
15,0.2598,-0.644,-0.0732,-2.1651,-0.0896,-2.1795,2043
15,0.2549,-0.6602,-0.0762,-2.0073,-0.2301,-2.1088,2039
15,0.2605,-0.6533,-0.1038,-1.8298,-0.3332,-1.9985,2042
15,0.2649,-0.6575,-0.094,-1.5764,-0.4647,-1.8897,2042
15,0.3196,-0.6831,-0.0264,-1.4249,-0.675,-1.7841,2040
15,0.1472,-0.6987,0.031,-1.0816,-0.6779,-1.7444,2042
15,0.0649,-0.7585,0.196,-1.8819,-0.6661,-1.691,2044
15,0.3853,-0.697,-0.0146,-1.2358,0.0991,-1.1491,2039
15,0.6458,-0.707,-0.1406,-0.2935,0.4263,-0.6188,2041
15,0.8008,-0.7407,-0.0686,0.5634,0.3903,0.0031,2040
15,0.8511,-0.7239,0.0781,1.2246,0.1674,0.5522,2042
15,0.7427,-0.8521,0.2666,1.5103,-0.0968,0.8915,2041
15,0.6079,-0.9624,0.4624,1.4029,-0.294,1.0433,2050
15,0.5828,-1.0039,0.5894,1.2139,-0.2856,1.181,2043
15,0.603,-0.9443,0.5391,1.1822,-0.227,1.4418,2043
15,0.5725,-1.0605,0.4377,1.3672,-0.1835,1.6199,2036
15,0.5723,-1.1963,0.2783,1.7945,0.0083,1.8307,2050
15,0.5901,-1.3623,0.2046,2.2633,0.2095,2.041,2039
15,0.5972,-1.4763,0.2026,2.5864,0.3073,2.2687,2040
15,0.5791,-1.4893,0.2922,2.703,0.3093,2.457,2041
15,0.5498,-1.4304,0.3794,2.6538,0.1884,2.5574,2040
15,0.4829,-1.3691,0.4294,2.5735,-0.012,2.6091,2041
15,0.4307,-1.3245,0.4666,2.4886,-0.1377,2.6156,2041
15,0.3687,-1.2598,0.4668,2.5005,-0.1297,2.5693,2039
15,0.2937,-1.2458,0.4756,2.4944,-0.0866,2.4786,2043
15,0.2412,-1.2256,0.5073,2.506,-0.0999,2.3651,2043
15,0.21,-1.1831,0.5271,2.4832,-0.1818,2.2067,2039
15,0.3425,-1.1768,0.5491,2.4432,-0.4228,2.1016,2041
15,0.3562,-1.2803,0.5789,2.0712,-0.8889,1.8373,2042
15,0.0151,-1.0437,0.4314,2.4179,-0.8186,1.6478,2038
15,0.4487,-1.4187,0.3813,2.3902,-1.1898,1.7435,2043
15,0.2791,-1.2642,0.345,2.22,-1.8002,1.8229,2042
15,0.3579,-1.2708,0.3577,2.2917,-1.8719,1.8009,2035
15,0.3347,-1.2546,0.2898,2.0864,-2.2788,1.8302,2043
15,0.3511,-1.1831,0.2278,2.0968,-2.648,1.8935,2042
15,0.3762,-1.1138,0.1912,1.9576,-2.7354,1.8334,2041
15,0.3994,-1.0237,0.1343,1.9678,-2.949,1.8319,2041
15,0.3958,-0.9248,0.1252,2.0007,-3.0799,1.8217,2038
15,0.3257,-0.8469,0.1099,2.0022,-3.0215,1.752,2041
15,0.2556,-0.7791,0.0837,2.0265,-2.8834,1.7057,2040
15,0.2397,-0.7126,0.0925,2.0373,-2.6791,1.627,2040
15,0.2097,-0.6597,0.0718,2.0646,-2.4282,1.5436,2046
15,0.1584,-0.6265,0.0588,2.0503,-2.1321,1.4665,2042
15,0.1328,-0.5898,0.0359,2.0868,-1.8527,1.4199,2034
15,0.1753,-0.5701,0.0178,2.1192,-1.5615,1.4235,1930
15,0.1709,-0.5732,-0.0046,2.1495,-1.309,1.421,1990
15,0.1841,-0.5803,-0.0288,2.1784,-1.1344,1.4494,2144
15,0.189,-0.5891,-0.0354,2.1708,-0.9682,1.4704,2199
15,0.2275,-0.5974,-0.0586,2.2083,-0.866,1.4767,2109
15,0.2661,-0.6145,-0.0586,2.2435,-0.7834,1.4949,2060
15,0.2932,-0.637,-0.0588,2.2963,-0.787,1.5139,2050
15,0.2979,-0.6843,-0.0566,2.3115,-0.7693,1.5151,2048
15,0.303,-0.7058,-0.0107,2.3141,-0.7634,1.4929,2046
15,0.3313,-0.7388,0.0447,2.2952,-0.7481,1.4723,2044
15,0.364,-0.7529,0.0862,2.2778,-0.7746,1.432,2044
15,0.4163,-0.7771,0.1338,2.2824,-0.8953,1.3856,2044
15,0.4614,-0.832,0.1782,2.2051,-1.0942,1.3231,2041
15,0.5344,-0.8557,0.2146,2.1301,-1.3399,1.2861,2045
15,0.6008,-0.9072,0.2766,1.9968,-1.6123,1.2539,2042
15,0.6216,-0.9038,0.3542,1.8389,-1.8831,1.2296,2044
15,0.6177,-0.8572,0.3914,1.691,-2.079,1.1995,2042
15,0.6389,-0.8491,0.4243,1.5237,-2.1828,1.1524,2041
15,0.6621,-0.8467,0.4087,1.4117,-2.1997,1.0858,2039
15,0.6687,-0.8738,0.3687,1.3073,-2.0949,0.9766,2041
15,0.6675,-0.8997,0.3372,1.1999,-1.9315,0.8163,2042
15,0.6721,-0.9932,0.3201,1.0087,-1.7976,0.6707,2041
15,0.6311,-1.0588,0.2917,0.8396,-1.5933,0.5003,2046
15,0.5813,-1.0913,0.2817,0.6738,-1.3653,0.3509,2044
15,0.5654,-1.1277,0.2485,0.5339,-1.1207,0.1874,2042
15,0.574,-1.2134,0.2319,0.3401,-0.959,0.0641,2040
15,0.5706,-1.2778,0.2251,0.1381,-0.7889,-0.0344,2039
15,0.5811,-1.4529,0.2146,-0.2028,-0.7337,-0.0899,2044
15,0.512,-1.4453,0.1809,-0.2061,-0.3304,-0.2199,2040
15,0.4929,-1.5447,0.1636,-0.4071,-0.1609,-0.2879,2044
15,0.5088,-1.53,0.166,-0.7594,-0.1115,-0.3212,2042
15,0.4863,-1.3516,0.1467,-0.7412,0.2338,-0.4829,2041
15,0.5066,-1.3323,0.1958,-0.9701,0.2859,-0.5651,2044
15,0.4631,-1.241,0.2261,-1.3808,0.2015,-0.6195,2040
15,0.4407,-1.1392,0.2893,-1.4748,0.5064,-0.7227,2043
15,0.3762,-1.0674,0.3054,-1.6872,0.6196,-0.8123,2039
15,0.3301,-1.0615,0.3418,-1.8306,0.8765,-0.9433,2052
15,0.2732,-1.1018,0.3625,-2.043,1.1561,-1.0833,2038
15,0.2344,-1.1821,0.3379,-2.2177,1.4504,-1.2288,2039
15,0.2161,-1.2693,0.3145,-2.3469,1.7211,-1.3788,2038
15,0.2456,-1.3481,0.301,-2.4671,1.9343,-1.5149,2041
15,0.2524,-1.428,0.3088,-2.614,2.233,-1.6205,2041
15,0.292,-1.4514,0.3076,-2.734,2.4326,-1.7486,2039
15,0.3096,-1.4211,0.3254,-2.8526,2.5068,-1.8321,2038
15,0.3071,-1.373,0.3313,-2.9709,2.5601,-1.925,2042
15,0.3337,-1.3044,0.3447,-3.1054,2.6061,-2.0178,2050
15,0.3342,-1.2451,0.3486,-3.2014,2.6332,-2.0928,2041
15,0.3254,-1.2026,0.342,-3.2444,2.6345,-2.1457,2044
15,0.3289,-1.1721,0.3062,-3.2744,2.6184,-2.168,2042
15,0.3354,-1.1223,0.2844,-3.2333,2.5559,-2.1941,2042
15,0.354,-1.1082,0.2605,-3.2255,2.4646,-2.2041,2037
15,0.3569,-1.0615,0.2356,-3.2721,2.3706,-2.2047,2041
15,0.3286,-0.9973,0.2256,-3.3027,2.2708,-2.2438,2044
15,0.3049,-0.9534,0.2012,-3.3243,2.1764,-2.2378,2043
15,0.2551,-0.9001,0.189,-3.323,2.1209,-2.257,2042
15,0.2102,-0.8347,0.1743,-3.3344,2.0803,-2.2566,2042
15,0.1777,-0.7827,0.1633,-3.3051,2.0572,-2.2587,2043
15,0.1614,-0.7407,0.1455,-3.2955,2.0501,-2.2664,2038
15,0.1421,-0.688,0.1404,-3.2577,2.0568,-2.2507,2045
15,0.1182,-0.689,0.1167,-3.22,2.0758,-2.2806,2040
15,0.1157,-0.6646,0.0874,-3.1626,2.0648,-2.2585,2041
16,0.1399,-0.6514,0.0688,-3.0911,2.039,-2.2414,2038
16,0.1472,-0.656,0.0447,-3.0225,2.0073,-2.2395,2025
16,0.1509,-0.6367,0.0359,-2.9148,1.9578,-2.2375,2045
16,0.1814,-0.6343,0.0029,-2.7778,1.858,-2.2373,2042
16,0.1951,-0.6331,-0.0249,-2.652,1.696,-2.2189,2043
16,0.2383,-0.6223,-0.0388,-2.5123,1.4775,-2.194,2043
16,0.2793,-0.6174,-0.0625,-2.3264,1.188,-2.1375,2043
16,0.3052,-0.6487,-0.0718,-2.1383,0.9208,-2.0783,2048
16,0.3088,-0.6819,0.0,-2.09,0.5612,-2.0101,2037
16,0.293,-0.6956,-0.0369,-2.0578,0.2633,-1.9551,2043
16,0.2852,-0.6992,-0.0989,-1.772,0.1475,-1.8089,2040
16,0.3064,-0.6536,-0.0544,-1.5157,0.0306,-1.6471,2037
16,0.3374,-0.6321,-0.0532,-1.1351,-0.0615,-1.4406,2043
16,0.365,-0.699,-0.0398,-0.6758,-0.1827,-1.1998,2038
16,0.3589,-0.8142,0.0361,-0.2346,-0.2816,-0.9812,2040
16,0.4385,-0.8096,0.1606,0.0134,-0.1743,-0.6629,2042
16,0.4133,-0.8887,0.3037,0.2456,-0.1551,-0.4205,2038
16,0.4722,-0.9204,0.3923,0.3709,-0.1389,-0.0498,2042
16,0.5242,-0.8687,0.4536,0.5416,-0.1216,0.2627,2043
16,0.4727,-0.8997,0.5415,0.7092,-0.0057,0.4791,2040
16,0.4888,-0.8804,0.5427,0.9092,0.079,0.7364,2041
16,0.5029,-0.9761,0.5491,1.1167,0.1265,0.9487,2039
16,0.5667,-1.0366,0.5188,1.3605,0.1381,1.1834,2040
16,0.5718,-1.1584,0.4619,1.5993,0.1365,1.4202,2039
16,0.5686,-1.2605,0.4097,1.8543,0.098,1.6652,2039
16,0.5623,-1.3271,0.4163,2.079,0.0257,1.8728,2041
16,0.5383,-1.2981,0.4495,2.1907,-0.0477,2.049,2042
16,0.4822,-1.2693,0.4976,2.1884,-0.1503,2.1662,2038
16,0.4316,-1.2246,0.5117,2.1901,-0.218,2.2357,2041
16,0.3938,-1.2012,0.4929,2.2365,-0.2151,2.2975,2041
16,0.3604,-1.198,0.5032,2.2597,-0.1593,2.3079,2044
16,0.3174,-1.176,0.4976,2.2537,-0.1109,2.2965,2042
16,0.2976,-1.1821,0.5127,2.215,-0.1108,2.2125,2053
16,0.2739,-1.2034,0.5037,2.1791,-0.1554,2.1085,2041
16,0.2805,-1.2024,0.4946,2.1329,-0.3016,2.0442,2043
16,0.3022,-1.2576,0.4609,2.1435,-0.4566,1.9791,2041
16,0.3306,-1.2822,0.4199,2.0999,-0.6838,1.9572,2038
16,0.3601,-1.3181,0.3938,2.0482,-0.9796,1.9868,2039
16,0.3889,-1.3149,0.3513,2.0184,-1.2896,2.0272,2042
16,0.438,-1.2983,0.334,1.9722,-1.6299,2.0832,2040
16,0.4373,-1.2502,0.2778,1.9293,-1.99,2.1465,2036
16,0.4602,-1.2026,0.2583,1.8741,-2.2684,2.1961,2041
16,0.4319,-1.1504,0.2288,1.8636,-2.4683,2.2234,2039
16,0.4087,-1.0781,0.2151,1.8668,-2.5597,2.2461,2044
16,0.3718,-0.9978,0.1787,1.8793,-2.5309,2.259,2042
16,0.3313,-0.9116,0.1582,1.9,-2.4282,2.2531,2039
16,0.2974,-0.8474,0.1277,1.9323,-2.1933,2.2226,2041
16,0.249,-0.7834,0.1018,1.962,-1.9048,2.1786,2043
16,0.2292,-0.7236,0.0979,2.0238,-1.5627,2.1409,2044
16,0.2053,-0.6917,0.0767,2.0643,-1.1704,2.0899,2040
16,0.2014,-0.6707,0.0403,2.0988,-0.8565,2.0672,2040
16,0.208,-0.6516,0.0105,2.114,-0.537,2.0299,2040
16,0.248,-0.6167,0.0037,2.1395,-0.2438,2.0242,2040
16,0.2834,-0.6257,-0.0046,2.1794,-0.0463,2.0061,2040
16,0.3245,-0.6145,0.0012,2.2317,0.051,1.9816,2043
16,0.3457,-0.6333,0.011,2.235,0.0981,1.9664,2042
16,0.4229,-0.6228,0.0161,2.2437,0.0546,1.9683,2043
16,0.4924,-0.5996,0.0308,2.3024,-0.0542,1.9691,2051
16,0.5229,-0.6079,0.0474,2.3381,-0.1947,1.9526,2040
16,0.5562,-0.6201,0.092,2.3836,-0.3738,1.9213,2042
16,0.5396,-0.6626,0.1418,2.4128,-0.5288,1.8249,2040
16,0.5593,-0.6504,0.2031,2.3916,-0.6867,1.7136,2045
16,0.5623,-0.6609,0.2573,2.3842,-0.8658,1.5892,2041
16,0.5615,-0.6672,0.332,2.3204,-1.0076,1.43,2041
16,0.5925,-0.7078,0.4155,2.2253,-1.1006,1.2924,2039
16,0.5977,-0.718,0.4475,2.1289,-1.2007,1.1734,2040
16,0.6006,-0.7285,0.4888,2.0036,-1.2737,1.0088,2041
16,0.613,-0.8003,0.5188,1.9038,-1.3215,0.8554,2037
16,0.6423,-0.8572,0.5344,1.837,-1.3556,0.7083,2047
16,0.6816,-0.9194,0.5166,1.5599,-1.584,0.5422,2042
16,0.741,-0.9861,0.5437,1.4157,-1.7438,0.4069,2043
16,0.7673,-0.9961,0.4878,1.2358,-2.082,0.3097,2039
16,0.6965,-1.019,0.4807,1.0175,-2.3752,0.1846,2042
16,0.6047,-1.064,0.5051,0.8372,-2.4863,0.084,2041
16,0.5288,-1.0811,0.5295,0.6461,-2.4657,-0.0137,2042
16,0.4355,-1.0996,0.4973,0.4546,-2.3045,-0.1053,2040
16,0.4077,-1.1396,0.4519,0.2587,-2.0182,-0.1963,2038
16,0.3962,-1.2561,0.4106,0.0838,-1.6836,-0.2866,2037
16,0.376,-1.3188,0.3628,-0.1222,-1.3242,-0.3735,2040
16,0.3562,-1.3752,0.3042,-0.3409,-0.9115,-0.4741,2043
16,0.4202,-1.428,0.2524,-0.5477,-0.5469,-0.5351,2042
16,0.3906,-1.3757,0.1831,-0.7051,-0.1621,-0.6229,2039
16,0.4163,-1.4038,0.2422,-0.8698,0.1109,-0.7166,2042
16,0.3916,-1.396,0.2856,-1.2083,0.1425,-0.7436,2040
16,0.3647,-1.3354,0.3494,-1.3668,0.4625,-0.8122,2040
16,0.2959,-1.2375,0.3643,-1.605,0.6476,-0.8855,2042
16,0.2756,-1.1292,0.3621,-1.7982,0.9167,-0.997,2038
16,0.2791,-1.0212,0.3596,-2.0326,1.0856,-1.1367,2040
16,0.2344,-0.9514,0.3289,-2.2146,1.3153,-1.285,2041
16,0.251,-0.9702,0.3206,-2.4037,1.5451,-1.391,2041
16,0.2161,-1.0129,0.2971,-2.5133,1.7424,-1.4864,2042
16,0.2263,-1.0645,0.2837,-2.6374,1.9956,-1.5406,2041
16,0.2273,-1.1423,0.2637,-2.7331,2.1924,-1.589,2040
16,0.2456,-1.2197,0.2373,-2.8137,2.3256,-1.6487,2041
16,0.2617,-1.2844,0.2341,-2.8994,2.4004,-1.7263,2040
16,0.2776,-1.2961,0.2324,-2.9934,2.4216,-1.8029,2040
16,0.2944,-1.2896,0.229,-3.0953,2.4011,-1.8841,2039
16,0.3022,-1.2852,0.2375,-3.1946,2.3258,-1.971,2043
16,0.332,-1.2217,0.2366,-3.2364,2.1932,-2.0117,2042
16,0.335,-1.21,0.249,-3.3437,2.149,-2.1039,2042
16,0.3096,-1.1626,0.2517,-3.4091,2.0856,-2.1338,2040
16,0.3013,-1.0984,0.2544,-3.4844,2.0256,-2.182,2044
17,0.2769,-1.0222,0.2712,-3.5137,2.0401,-2.2114,2042
17,0.2742,-0.9626,0.2854,-3.5447,2.0819,-2.2004,2040
17,0.2361,-0.9065,0.3059,-3.5774,2.1297,-2.2296,2042
17,0.2065,-0.8647,0.2981,-3.5692,2.1859,-2.2474,2056
17,0.2207,-0.843,0.2998,-3.5981,2.225,-2.274,2040
17,0.1975,-0.8306,0.2944,-3.6352,2.2686,-2.2887,2041
17,0.1965,-0.8066,0.2927,-3.6776,2.3574,-2.37,2044
17,0.189,-0.7383,0.2622,-3.6647,2.3626,-2.3948,2039
17,0.1968,-0.7104,0.2434,-3.5744,2.3356,-2.4304,2039
17,0.2207,-0.7039,0.2195,-3.4757,2.2629,-2.4675,2042
17,0.2493,-0.7151,0.1697,-3.3765,2.1346,-2.5322,2042
17,0.3042,-0.7217,0.1311,-3.2909,1.9375,-2.5509,2040
17,0.3372,-0.7356,0.0955,-3.1606,1.6857,-2.5565,2046
17,0.3718,-0.7429,0.0562,-3.0183,1.386,-2.5173,2040
17,0.3594,-0.7783,0.054,-2.879,1.1298,-2.5509,2039
17,0.3916,-0.7798,0.042,-2.7509,0.8335,-2.4892,2039
17,0.3735,-0.7781,0.0483,-2.6357,0.5865,-2.4875,2042
17,0.3706,-0.7632,0.0535,-2.5288,0.3549,-2.4246,2038
17,0.3677,-0.7402,0.0508,-2.4052,0.1487,-2.3397,2042
17,0.3433,-0.7415,0.0432,-2.2306,0.0024,-2.2617,2041
17,0.3425,-0.7441,0.062,-2.0578,-0.0405,-2.178,2037
17,0.3755,-0.7046,0.0747,-1.8439,-0.0707,-2.0298,2043
17,0.4023,-0.6882,0.0857,-1.6127,-0.1119,-1.8491,2041
17,0.4338,-0.6577,0.0864,-1.2326,-0.1683,-1.5708,2039
17,0.4829,-0.6648,0.1282,-0.8899,-0.1527,-1.2971,2040
17,0.5251,-0.6897,0.1802,-0.5787,-0.129,-0.9311,2042
17,0.5259,-0.7522,0.2285,-0.2393,-0.1646,-0.5919,2044
17,0.4673,-0.8389,0.2493,0.119,-0.2284,-0.3759,2039
17,0.4893,-0.8967,0.3623,0.2927,-0.1999,-0.0707,2052
17,0.4736,-0.8425,0.4631,0.4132,-0.035,0.3701,2042
17,0.5896,-0.8098,0.4841,0.6327,0.0519,0.7891,2042
17,0.6072,-0.8596,0.4299,0.9268,0.1024,1.1633,2040
17,0.5906,-1.0151,0.3511,1.232,0.1667,1.4716,2038
17,0.5818,-1.2556,0.2581,1.5819,0.1329,1.7427,2043
17,0.6189,-1.3843,0.2139,1.9614,0.0161,1.9925,2044
17,0.6453,-1.4302,0.2566,2.281,-0.1222,2.2344,2042
17,0.6138,-1.4358,0.3582,2.3647,-0.3201,2.4763,2040
17,0.5378,-1.4038,0.4458,2.3246,-0.4711,2.5902,2037
17,0.415,-1.3252,0.4729,2.2874,-0.6192,2.6566,2041
17,0.3423,-1.2629,0.4858,2.2804,-0.7449,2.6996,2043
17,0.2725,-1.2327,0.5046,2.3085,-0.7843,2.7019,2037
17,0.2344,-1.2061,0.5054,2.2281,-0.7765,2.6715,2040
17,0.1968,-1.1514,0.501,2.1811,-0.7127,2.5922,2039
17,0.1562,-1.1191,0.4846,2.1433,-0.6858,2.4792,2043
17,0.1375,-1.1475,0.4702,2.0639,-0.728,2.3461,2041
17,0.1738,-1.1755,0.4214,2.0382,-0.8175,2.2341,2042
17,0.2046,-1.2385,0.3491,2.0527,-0.9227,2.165,2039
17,0.2461,-1.2754,0.2727,2.0463,-1.0626,2.1466,2040
17,0.2761,-1.2646,0.2075,2.019,-1.2335,2.1306,2041
17,0.3181,-1.2024,0.1797,2.0242,-1.4922,2.1442,2039
17,0.3406,-1.1462,0.157,2.0277,-1.7847,2.1345,2042
17,0.3684,-1.1262,0.1506,2.0252,-2.0461,2.1441,2046
17,0.3979,-1.0376,0.1335,2.0268,-2.2995,2.1711,2042
17,0.4045,-0.9629,0.1228,2.0446,-2.5047,2.1961,2048
17,0.3721,-0.8853,0.1155,2.0461,-2.622,2.2129,2040
17,0.356,-0.8142,0.1033,2.0915,-2.693,2.2182,2044
17,0.3081,-0.7727,0.0864,2.1374,-2.6384,2.2011,2043
17,0.2615,-0.7405,0.0769,2.175,-2.5,2.1762,2043
17,0.2432,-0.7139,0.0459,2.2145,-2.3001,2.1659,2040
17,0.2095,-0.7122,0.0271,2.2236,-2.0141,2.1224,2041
17,0.1882,-0.6931,0.0151,2.2141,-1.7275,2.0811,2041
17,0.1816,-0.6797,0.0007,2.2342,-1.4671,2.0676,2040
17,0.1802,-0.6885,0.0027,2.2317,-1.1419,2.0394,2036
17,0.1826,-0.6943,0.0022,2.2692,-0.8766,2.0276,2044
17,0.1936,-0.7256,0.0195,2.2676,-0.6469,2.0201,2042
17,0.2219,-0.7527,0.0334,2.2479,-0.4862,1.9899,2037
17,0.2939,-0.7612,0.0266,2.2286,-0.4044,1.9892,2037
17,0.3457,-0.7917,0.0522,2.1961,-0.3778,1.9824,2039
17,0.4197,-0.822,0.0645,2.1616,-0.4465,1.9478,2040
17,0.4954,-0.8467,0.073,2.1333,-0.6376,1.892,2045
17,0.5352,-0.9053,0.1147,2.0662,-0.8606,1.8185,2039
17,0.5698,-0.9143,0.1365,1.9815,-1.1355,1.7724,2046
17,0.6123,-0.9397,0.1909,1.9278,-1.3631,1.7231,2043
17,0.6106,-0.948,0.2373,1.8462,-1.5305,1.6181,2041
17,0.6367,-0.9009,0.2756,1.761,-1.6954,1.5173,2042
17,0.6465,-0.8674,0.2751,1.6636,-1.8611,1.3989,2041
17,0.6716,-0.875,0.2778,1.6535,-2.0078,1.3087,2050
17,0.6792,-0.948,0.2922,1.5223,-2.064,1.1785,2043
17,0.6958,-0.9529,0.3113,1.442,-2.0008,1.0649,2041
17,0.6389,-0.9968,0.3096,1.2913,-1.902,0.9288,2041
17,0.6118,-1.0745,0.2871,1.1447,-1.8012,0.7831,2038
17,0.5679,-1.1116,0.2405,1.0389,-1.5326,0.6094,2044
17,0.5369,-1.1584,0.2385,0.9178,-1.2627,0.4373,2042
17,0.5505,-1.1899,0.2559,0.6678,-1.1128,0.2832,2041
17,0.5513,-1.1833,0.2507,0.5967,-0.8863,0.1541,2038
17,0.5537,-1.3066,0.2705,0.3974,-0.6955,0.0388,2044
17,0.5349,-1.4602,0.2642,0.1931,-0.5344,-0.0542,2042
17,0.4915,-1.575,0.2039,-0.0752,-0.3508,-0.1386,2042
17,0.4595,-1.6621,0.2146,-0.0955,-0.0795,-0.271,2044
17,0.3926,-1.6296,0.2524,-0.3651,0.1325,-0.4895,2044
17,0.3679,-1.4187,0.2825,-0.7316,0.2662,-0.6598,2043
17,0.3315,-1.3066,0.4019,-0.9345,0.4196,-0.8636,2041
17,0.2686,-1.1213,0.4128,-1.2752,0.5951,-1.0323,2039
17,0.2183,-0.9814,0.4211,-1.4551,0.9159,-1.1873,2040
17,0.2019,-0.9463,0.4292,-1.6427,1.1676,-1.3105,2042
17,0.1995,-0.9719,0.3828,-1.8409,1.3878,-1.4014,2043
17,0.1965,-1.0276,0.3044,-2.0028,1.6302,-1.4929,2042
17,0.177,-1.1052,0.2483,-2.1276,1.8801,-1.5934,2038
17,0.1892,-1.1951,0.2209,-2.224,2.0632,-1.6949,2040
17,0.2141,-1.2642,0.2244,-2.3201,2.1746,-1.7973,2047
17,0.2478,-1.3472,0.2258,-2.4314,2.2542,-1.8851,2041
18,0.2661,-1.3933,0.2212,-2.5011,2.3139,-1.973,2042
18,0.2686,-1.4031,0.2075,-2.5606,2.3292,-2.0611,2042
18,0.2866,-1.3535,0.2283,-2.6003,2.2357,-2.1258,2041
18,0.2839,-1.3057,0.2485,-2.6421,2.121,-2.2088,2042
18,0.2808,-1.2524,0.2795,-2.6919,1.9916,-2.269,2041
18,0.2922,-1.179,0.2734,-2.7474,1.8399,-2.2776,2042
18,0.2607,-1.1365,0.3022,-2.8307,1.7318,-2.2949,2040
18,0.2671,-1.0845,0.323,-2.9175,1.6735,-2.2867,2044
18,0.2344,-1.0122,0.3154,-2.9946,1.5834,-2.2682,2038
18,0.1934,-0.9783,0.3198,-3.061,1.5576,-2.2812,2039
18,0.1545,-0.9302,0.2991,-3.1059,1.5643,-2.3168,2043
18,0.1396,-0.8674,0.2825,-3.1403,1.5829,-2.3358,2040
18,0.1089,-0.8218,0.2693,-3.1467,1.6335,-2.3614,2041
18,0.1177,-0.7908,0.2437,-3.1891,1.6775,-2.3814,2042
18,0.1218,-0.7712,0.2041,-3.1875,1.7402,-2.4201,2041
18,0.1145,-0.731,0.1917,-3.1285,1.8012,-2.4304,2039
18,0.1311,-0.7119,0.1482,-3.0809,1.8311,-2.4495,2041
18,0.1702,-0.6968,0.1184,-3.0219,1.8261,-2.446,2044
18,0.1719,-0.6804,0.1072,-2.9789,1.7677,-2.4362,2040
18,0.1243,-0.6726,0.0938,-2.9104,1.7369,-2.4847,2040
18,-0.0605,-0.5254,0.2124,-2.8046,2.1051,-2.5173,2040
18,0.3806,-0.7544,-0.0972,-2.5561,1.4254,-2.2505,2035
18,0.2888,-0.5139,0.1868,-2.4155,1.4577,-2.3254,2039
18,0.2207,-0.7271,0.0334,-2.6565,1.2655,-2.3582,2056
18,0.3115,-0.6821,-0.0325,-2.5914,0.9692,-2.3193,2044
18,0.2778,-0.5525,-0.0325,-2.2626,0.7988,-2.2691,2040
18,0.2651,-0.6309,-0.0366,-2.1879,0.6126,-2.1433,2041
18,0.2219,-0.6318,-0.0593,-2.0616,0.3899,-2.0855,2044
18,0.2195,-0.6267,-0.0273,-1.8957,0.1763,-1.9727,2041
18,0.2249,-0.6079,-0.0754,-1.6209,0.1486,-1.8278,2036
18,0.2505,-0.6135,-0.1047,-1.2873,0.1922,-1.6294,2045
18,0.1902,-0.5759,-0.0637,-0.9343,0.1463,-1.498,2041
18,0.3269,-0.657,-0.0398,-0.6951,0.1229,-1.1006,2044
18,0.4651,-0.698,-0.0581,-0.306,0.2029,-0.7107,2038
18,0.5435,-0.7224,-0.021,0.1471,0.1716,-0.2627,2041
18,0.5303,-0.813,0.0784,0.4517,-0.0115,0.0763,2039
18,0.4919,-0.8699,0.1289,0.6566,-0.2718,0.3761,2043
18,0.4507,-0.8955,0.1641,0.9232,-0.4513,0.63,2042
18,0.489,-0.8943,0.2517,1.1109,-0.59,0.909,2040
18,0.4985,-0.9653,0.26,1.3011,-0.6661,1.1904,2042
18,0.488,-1.0732,0.2402,1.54,-0.6456,1.4599,2042
18,0.5151,-1.1931,0.1775,1.8293,-0.6289,1.7411,2040
18,0.5405,-1.3027,0.1294,2.1722,-0.6328,2.0232,2040
18,0.5295,-1.3594,0.1753,2.4642,-0.6308,2.2617,2038
18,0.5249,-1.3713,0.2817,2.579,-0.6193,2.4582,2039
18,0.4785,-1.3308,0.3718,2.5482,-0.6373,2.5874,2040
18,0.4197,-1.3044,0.4058,2.4864,-0.6929,2.6713,2043
18,0.3608,-1.2693,0.4023,2.4935,-0.6951,2.6995,2045
18,0.3291,-1.291,0.4316,2.5366,-0.6,2.7019,2048
18,0.282,-1.3008,0.4431,2.5643,-0.4774,2.6583,2042
18,0.2271,-1.3198,0.489,2.5364,-0.3733,2.5329,2039
18,0.179,-1.3179,0.5027,2.4718,-0.3526,2.385,2039
18,0.2937,-1.3552,0.5217,2.3992,-0.5477,2.3313,2040
18,0.0483,-1.2734,0.5452,2.2755,-0.5311,1.962,2042
18,0.2256,-1.384,0.4419,2.4145,-0.6754,1.9314,2039
18,0.1646,-1.4094,0.4475,2.2108,-1.1075,1.9595,2041
18,0.2163,-1.4092,0.4119,2.2955,-1.2643,1.9318,2036
18,0.2986,-1.3179,0.3794,2.1759,-1.6142,1.9338,2039
18,0.3086,-1.2576,0.3787,2.1162,-2.0378,2.0088,2040
18,0.3665,-1.1917,0.3567,1.9944,-2.3474,2.0073,2041
18,0.3821,-1.1018,0.2839,1.9269,-2.6642,2.0303,2039
18,0.3577,-1.0161,0.2241,1.8283,-2.8695,2.0302,2041
18,0.3464,-0.8899,0.1887,1.8269,-2.9115,1.9864,2041
18,0.3105,-0.811,0.1792,1.8519,-2.8661,1.9318,2038
18,0.2673,-0.739,0.1562,1.8534,-2.7195,1.8765,2042
18,0.2285,-0.6711,0.1233,1.87,-2.4819,1.7952,2041
18,0.2075,-0.6221,0.0884,1.8773,-2.2003,1.7262,2042
18,0.1919,-0.5713,0.0337,1.9247,-1.9052,1.6692,2038
18,0.1868,-0.5471,-0.021,2.0136,-1.6062,1.6615,2041
18,0.1921,-0.553,-0.0459,2.1057,-1.3334,1.6619,2042
18,0.1899,-0.5696,-0.0598,2.1836,-1.0254,1.6447,2041
18,0.2024,-0.5811,-0.0432,2.2431,-0.7978,1.6438,2058
18,0.2253,-0.603,-0.0581,2.2991,-0.614,1.6442,2042
18,0.2664,-0.627,-0.0645,2.3866,-0.479,1.6551,2041
18,0.3162,-0.6453,-0.032,2.4685,-0.3378,1.6625,2037
18,0.2993,-0.6965,0.0051,2.5125,-0.2629,1.6266,2045
18,0.3303,-0.72,0.0525,2.5365,-0.1956,1.6065,2040
18,0.3667,-0.7712,0.1248,2.5394,-0.184,1.5841,2042
18,0.449,-0.791,0.1699,2.5822,-0.2482,1.5696,2038
18,0.4858,-0.8467,0.2283,2.6064,-0.4277,1.5243,2044
18,0.5271,-0.9038,0.3364,2.5204,-0.6642,1.4595,2042
18,0.5532,-0.9492,0.4502,2.3418,-0.9143,1.395,2039
18,0.5803,-0.9277,0.5198,2.1604,-1.1565,1.3351,2042
18,0.5754,-0.9399,0.5813,1.9523,-1.3802,1.2572,2042
18,0.5664,-0.8979,0.6108,1.717,-1.5793,1.2011,2038
18,0.5859,-0.9004,0.6221,1.5905,-1.6695,1.115,2040
18,0.5537,-0.8855,0.5918,1.4259,-1.6901,1.0256,2040
18,0.5237,-0.8809,0.5745,1.26,-1.6551,0.9131,2043
18,0.5063,-0.8833,0.5361,1.1348,-1.5588,0.7554,2043
18,0.532,-0.9626,0.5125,0.9492,-1.4494,0.5794,2040
18,0.4993,-0.9961,0.4573,0.7054,-1.3511,0.3923,2041
18,0.533,-1.0332,0.4133,0.4426,-1.293,0.2294,2043
18,0.4868,-1.0107,0.3257,0.2366,-1.2105,0.1285,2041
18,0.5054,-1.1162,0.3047,0.065,-1.1151,0.0305,2041
18,0.5027,-1.2312,0.2659,-0.1041,-1.0116,-0.0265,2039
18,0.4939,-1.3694,0.2009,-0.2164,-0.8734,-0.0838,2040
18,0.4478,-1.5159,0.1023,-0.2638,-0.6473,-0.1316,2044
18,0.3752,-1.5432,0.0613,-0.3421,-0.3121,-0.2626,2037
18,0.3906,-1.4639,0.0786,-0.456,-0.0908,-0.456,2041
18,0.4126,-1.394,0.1729,-0.7389,-0.1111,-0.6189,2040
18,0.3853,-1.3042,0.2808,-0.9833,0.0284,-0.7938,2039
18,0.3152,-1.1636,0.3384,-1.3304,0.2454,-0.9118,2043
18,0.2305,-1.0308,0.3752,-1.5679,0.5834,-1.0195,2042
18,0.1794,-0.9653,0.3916,-1.7026,0.9146,-1.1147,2041
19,0.1387,-0.9641,0.3818,-1.8008,1.339,-1.2488,2039
19,0.1885,-1.0251,0.3428,-1.937,1.6664,-1.3752,2038
19,0.2236,-1.0996,0.3152,-2.0394,1.8804,-1.501,2041
19,0.248,-1.2144,0.2927,-2.1383,1.8907,-1.6173,2038
19,0.2681,-1.3474,0.3142,-2.3242,2.1563,-1.742,2041
19,0.2825,-1.4021,0.3298,-2.4902,2.1491,-1.8757,2044
19,0.3027,-1.4084,0.3491,-2.6381,1.9816,-1.9592,2036
19,0.2395,-1.4136,0.3435,-2.7604,2.025,-2.0897,2040
19,0.2756,-1.3423,0.3618,-2.8849,1.9273,-2.1682,2039
19,0.2754,-1.2673,0.3455,-2.9473,1.7867,-2.2286,2041
19,0.2605,-1.2144,0.3394,-3.0223,1.7257,-2.2728,2040
19,0.2441,-1.1733,0.3264,-3.0958,1.6321,-2.3033,2040
19,0.2444,-1.1118,0.2961,-3.1329,1.5283,-2.3009,2042
19,0.2285,-1.0608,0.2747,-3.1819,1.4683,-2.3025,2039
19,0.2031,-0.9917,0.2524,-3.2296,1.3993,-2.3024,2043
19,0.1968,-0.9282,0.2251,-3.2564,1.3303,-2.3044,2049
19,0.1836,-0.9084,0.2256,-3.2866,1.3235,-2.329,2039
19,0.1812,-0.8479,0.2012,-3.3174,1.3199,-2.3435,2040
19,0.1453,-0.8042,0.1782,-3.309,1.3303,-2.3574,2040
19,0.1389,-0.7693,0.1626,-3.3079,1.3782,-2.3677,2041
19,0.1565,-0.7417,0.1343,-3.2804,1.4209,-2.3479,2042
19,0.1257,-0.7334,0.1118,-3.2234,1.4723,-2.3561,2041
19,0.1379,-0.7185,0.1077,-3.1943,1.5067,-2.3586,2044
19,0.1426,-0.6956,0.072,-3.1199,1.5121,-2.3427,2041
19,0.167,-0.6921,0.0591,-3.0634,1.4792,-2.3322,2042
19,0.1895,-0.6892,0.0544,-2.9541,1.3639,-2.2698,2042
19,0.199,-0.7029,0.041,-2.862,1.2491,-2.2912,2043
19,0.2405,-0.7012,0.0283,-2.7763,1.1449,-2.2486,2043
19,0.2263,-0.7229,0.0464,-2.675,1.0248,-2.2365,2039
19,0.2188,-0.7375,0.0264,-2.5918,0.8762,-2.1972,2041
19,0.2222,-0.7898,0.1985,-2.777,0.5729,-2.1923,2047
19,0.2896,-0.7488,0.001,-2.7819,0.3626,-2.1146,2036
19,0.2554,-0.7393,-0.0432,-2.3513,0.2697,-1.9489,2041
19,0.2473,-0.7898,-0.0579,-2.1269,0.231,-1.9767,2039
19,0.1997,-0.8735,0.0078,-1.8325,0.2065,-2.0558,2044
19,0.1902,-0.8787,0.043,-1.7004,0.1586,-1.9105,2045
19,0.2979,-0.7498,0.1348,-1.5659,0.1646,-1.6349,2043
19,0.4841,-0.593,0.1279,-1.1287,0.1999,-1.2049,2036
19,0.5481,-0.6165,0.1377,-0.5813,0.2047,-0.7716,2039
19,0.6028,-0.7034,0.1301,-0.0688,0.0811,-0.3348,2038
19,0.582,-0.8303,0.2068,0.28,-0.2168,0.0377,2048
19,0.5269,-0.9304,0.2971,0.4338,-0.4831,0.3059,2043
19,0.4807,-0.9934,0.3955,0.4548,-0.5502,0.4911,2041
19,0.5103,-0.9634,0.3818,0.5405,-0.5932,0.7168,2042
19,0.5037,-1.0249,0.3108,0.8194,-0.5036,0.9452,2039
19,0.5017,-1.1833,0.2136,1.2479,-0.326,1.1853,2042
19,0.5132,-1.3301,0.1594,1.7587,-0.1549,1.4455,2041
19,0.5513,-1.4231,0.1948,2.1602,-0.08,1.7321,2043
19,0.5793,-1.4316,0.2705,2.4181,-0.0461,1.9907,2040
19,0.5728,-1.417,0.3813,2.3973,-0.1262,2.2021,2042
19,0.5237,-1.3782,0.4011,2.2935,-0.2882,2.3724,2041
19,0.4761,-1.3052,0.3813,2.2876,-0.4068,2.483,2042
19,0.4292,-1.2354,0.3682,2.3459,-0.4081,2.5417,2038
19,0.3635,-1.1824,0.3965,2.3527,-0.3269,2.5482,2043
19,0.29,-1.1565,0.4565,2.2779,-0.231,2.5013,2042
19,0.2085,-1.1489,0.469,2.2387,-0.1985,2.3649,2042
19,0.1494,-1.1946,0.4817,2.1758,-0.2056,2.1944,2041
19,0.1287,-1.1936,0.4568,2.1276,-0.2393,2.0166,2043
19,0.2603,-1.2407,0.4197,2.1027,-0.4227,2.003,2039
19,-0.0078,-1.2043,0.3521,2.1276,-0.2562,1.7747,2039
19,0.2673,-1.3022,0.3457,2.116,-0.6022,1.9048,2038
19,0.2275,-1.2791,0.2622,2.104,-0.8401,1.8889,2040
19,0.2705,-1.2251,0.2859,2.0146,-1.028,1.8615,2041
19,0.3052,-1.1873,0.2407,1.9441,-1.3942,1.8875,2046
19,0.3606,-1.1436,0.2075,1.874,-1.744,1.9389,2040
19,0.3926,-1.0908,0.1619,1.7938,-2.0318,1.9481,2044
19,0.3926,-1.0081,0.1416,1.7711,-2.2675,1.9744,2040
19,0.3887,-0.9236,0.1404,1.7701,-2.4226,1.9582,2040
19,0.3533,-0.8523,0.1421,1.7757,-2.4713,1.9303,2040
19,0.3018,-0.7903,0.1431,1.7883,-2.4257,1.8847,2043
19,0.2446,-0.7603,0.1338,1.7737,-2.3011,1.8088,2041
19,0.2244,-0.7183,0.1162,1.7764,-2.0692,1.7534,2043
19,0.2097,-0.6919,0.0828,1.7908,-1.8085,1.7001,2041
19,0.2139,-0.6707,0.0493,1.8379,-1.5277,1.6917,2040
19,0.1958,-0.6809,0.0337,1.8743,-1.2291,1.6526,2041
19,0.2107,-0.6753,-0.0024,1.9295,-0.9786,1.6554,2044
19,0.2095,-0.6897,0.0044,1.9662,-0.7134,1.6479,2041
19,0.2776,-0.6765,-0.0134,1.9719,-0.5224,1.6518,2043
19,0.3054,-0.6816,-0.0251,1.9988,-0.3935,1.6383,2043
19,0.354,-0.6638,-0.0146,2.0664,-0.3147,1.6353,2039
19,0.3804,-0.6802,0.0332,2.1185,-0.2513,1.6081,2044
19,0.3933,-0.698,0.0679,2.1333,-0.2233,1.5763,2039
19,0.4282,-0.7136,0.1235,2.1208,-0.2456,1.532,2041
19,0.5039,-0.709,0.1711,2.1614,-0.3428,1.478,2042
19,0.5732,-0.6853,0.2002,2.2023,-0.4727,1.4114,2040
19,0.5928,-0.7073,0.2498,2.2144,-0.6926,1.3364,2042
19,0.6172,-0.7617,0.2874,2.1341,-1.0228,1.2517,2043
19,0.6646,-0.7449,0.3137,2.1795,-1.3046,1.1774,2038
19,0.7046,-0.7957,0.3984,2.0427,-1.572,1.0708,2045
19,0.6719,-0.8455,0.4768,1.9425,-1.7114,0.9847,2043
19,0.6511,-0.8774,0.4961,1.8052,-1.7869,0.9186,2042
19,0.6211,-0.9385,0.5073,1.6869,-1.7351,0.8206,2042
19,0.5938,-0.9841,0.5269,1.4984,-1.5961,0.6875,2039
19,0.5527,-0.9863,0.4922,1.4135,-1.3969,0.5012,2038
19,0.5591,-1.0767,0.4614,1.2075,-1.2564,0.3221,2041
19,0.5405,-1.0684,0.4231,1.0591,-1.0583,0.1365,2037
19,0.5403,-1.1472,0.4045,0.8098,-0.9138,-0.0196,2041
19,0.5344,-1.1899,0.4055,0.6288,-0.8167,-0.1432,2041
19,0.533,-1.3079,0.3804,0.3586,-0.7821,-0.2426,2040
19,0.5071,-1.4199,0.335,0.1025,-0.695,-0.3248,2040
19,0.4609,-1.5305,0.2925,-0.1306,-0.5638,-0.4014,2040
20,0.3882,-1.6235,0.2512,-0.3217,-0.3802,-0.5046,2041
20,0.3262,-1.6265,0.2485,-0.6371,-0.143,-0.6532,2038
20,0.332,-1.4434,0.2292,-0.757,0.0702,-0.7982,2045
20,0.3384,-1.4182,0.3013,-1.0021,0.1377,-0.9549,2038
20,0.2939,-1.2126,0.3032,-1.2798,0.2356,-1.084,2037
20,0.292,-1.1111,0.3428,-1.5193,0.3942,-1.2093,2043
20,0.2183,-0.9617,0.3391,-1.7313,0.5952,-1.3127,2042
20,0.2239,-0.9651,0.3535,-1.9398,0.7762,-1.3972,2038
20,0.1814,-0.9929,0.3198,-2.1109,1.0034,-1.4563,2040
20,0.178,-1.041,0.2712,-2.2266,1.2591,-1.5262,2042
20,0.1621,-1.1233,0.2161,-2.3055,1.4977,-1.5897,2041
20,0.2048,-1.1804,0.1931,-2.3638,1.6539,-1.6468,2040
20,0.2046,-1.252,0.1899,-2.4076,1.8109,-1.7432,2045
20,0.2236,-1.2883,0.1946,-2.4866,1.9108,-1.8254,2042
20,0.2544,-1.2798,0.1987,-2.58,1.953,-1.92,2040
20,0.2471,-1.2756,0.1978,-2.6583,1.9206,-2.0277,2040
20,0.2842,-1.2454,0.2253,-2.7658,1.8981,-2.0819,2042
20,0.2471,-1.2068,0.2417,-2.8393,1.8576,-2.1598,2044
20,0.2524,-1.1633,0.2754,-2.9277,1.8172,-2.1967,2041
20,0.2593,-1.073,0.271,-2.9875,1.7853,-2.2059,2038
20,0.2217,-1.0398,0.2822,-3.0225,1.7171,-2.215,2043
20,0.2256,-0.9893,0.2893,-3.0427,1.713,-2.218,2040
20,0.2271,-0.9329,0.2788,-3.0993,1.6438,-2.2047,2041
20,0.2139,-0.8938,0.2661,-3.1451,1.6205,-2.2182,2043
20,0.2249,-0.8455,0.239,-3.1729,1.5809,-2.2144,2042
20,0.2085,-0.7915,0.2131,-3.1905,1.5444,-2.2242,2039
20,0.1919,-0.7612,0.1958,-3.1933,1.4986,-2.2297,2039
20,0.2053,-0.7249,0.1638,-3.1869,1.4585,-2.2451,2041
20,0.2034,-0.6921,0.1272,-3.136,1.4035,-2.2487,2045
20,0.2058,-0.6843,0.0957,-3.0662,1.3276,-2.2643,2041
20,0.2175,-0.647,0.0454,-2.9807,1.2258,-2.2256,2039
20,0.2126,-0.6614,0.04,-2.8913,1.1523,-2.2253,2042
20,0.241,-0.658,0.0242,-2.7966,1.0564,-2.1668,2043
20,0.2432,-0.6521,0.0085,-2.6855,1.0011,-2.1425,2039
20,0.2422,-0.6907,-0.0027,-2.5902,0.936,-2.124,2041
20,0.2578,-0.6909,-0.0359,-2.4759,0.8335,-2.0835,2041
20,0.28,-0.6987,-0.0681,-2.357,0.6975,-2.0398,2041
20,0.3108,-0.6904,-0.0693,-2.1972,0.542,-1.9785,2052
20,0.3147,-0.7224,-0.0642,-2.0544,0.4687,-1.939,2039
20,0.3386,-0.7231,-0.0679,-1.8851,0.3472,-1.8222,2040
20,0.3496,-0.7395,-0.0547,-1.7289,0.2406,-1.7412,2040
20,0.366,-0.7651,-0.0186,-1.6215,0.1262,-1.6166,2041
20,0.3552,-0.7832,-0.0181,-1.6298,0.0052,-1.5157,2042
20,0.3601,-0.7754,-0.0591,-1.3822,0.0354,-1.334,2040
20,0.3999,-0.7666,-0.0376,-1.0979,0.0718,-1.1688,2042
20,0.3892,-0.7947,-0.0225,-0.7407,0.1051,-0.9758,2038
20,0.3689,-0.9124,0.0969,-0.4675,0.1788,-0.8857,2042
20,0.4573,-0.936,0.1729,-0.3204,0.3053,-0.5534,2042
20,0.5833,-0.9419,0.2427,-0.1089,0.3076,-0.2048,2041
20,0.6467,-0.9651,0.3232,0.1119,0.2804,0.1858,2041
20,0.6057,-0.9111,0.3689,0.2912,0.2241,0.4872,2042
20,0.553,-0.95,0.4502,0.4092,0.1449,0.7443,2045
20,0.5332,-0.9199,0.4233,0.5087,0.03,0.9808,2042
20,0.5491,-0.98,0.3838,0.7682,-0.0281,1.1798,2041
20,0.5945,-1.0435,0.3328,1.0849,-0.0341,1.4347,2041
20,0.6003,-1.1802,0.2363,1.4719,-0.0455,1.7285,2043
20,0.5835,-1.333,0.1875,1.859,-0.0165,1.9773,2042
20,0.5405,-1.3599,0.2354,2.1407,0.0129,2.1852,2043
20,0.4504,-1.2991,0.3687,2.2368,-0.0427,2.2933,2037
20,0.3691,-1.2273,0.4951,2.1851,-0.1755,2.329,2045
20,0.3206,-1.1365,0.5498,2.1592,-0.2519,2.3405,2045
20,0.2771,-1.1213,0.5491,2.2149,-0.2238,2.2899,2041
20,0.2539,-1.124,0.5479,2.2678,-0.1091,2.2381,2044
20,0.2244,-1.1316,0.53,2.2557,-0.0519,2.1365,2043
20,0.1953,-1.1155,0.5271,2.2457,-0.112,2.0399,2037
20,0.2222,-1.1553,0.5479,2.2201,-0.249,1.9066,2042
20,0.2566,-1.2385,0.5327,2.1955,-0.4568,1.7997,2041
20,0.4487,-1.3896,0.4963,2.0964,-0.932,1.8176,2040
20,0.1265,-1.2791,0.3899,2.1164,-0.9188,1.6105,2045
20,0.4248,-1.355,0.3899,2.0819,-1.5086,1.7612,2042
20,0.3118,-1.282,0.3047,2.0751,-1.8792,1.7432,2040
20,0.3586,-1.2695,0.3442,2.008,-2.1478,1.7415,2040
20,0.3596,-1.2095,0.2732,1.9216,-2.4611,1.7891,2040
20,0.3669,-1.1309,0.2332,1.8591,-2.6908,1.8009,2042
20,0.3831,-1.0566,0.1799,1.8343,-2.7817,1.7952,2045
20,0.3394,-0.969,0.1487,1.8462,-2.8372,1.7897,2041
20,0.3215,-0.8799,0.1213,1.8455,-2.7986,1.765,2038
20,0.2927,-0.7917,0.1082,1.8686,-2.6974,1.7295,2040
20,0.2432,-0.7515,0.0913,1.8748,-2.4974,1.6799,2039
20,0.2139,-0.7009,0.0574,1.8855,-2.2868,1.6298,2041
20,0.1956,-0.6716,0.0374,1.9034,-2.008,1.5996,2041
20,0.1804,-0.6372,-0.002,1.935,-1.6941,1.5751,2041
20,0.1521,-0.6216,-0.0244,1.9466,-1.339,1.5577,2040
20,0.1655,-0.6113,-0.053,1.9937,-1.0499,1.5917,2056
20,0.1682,-0.606,-0.074,2.029,-0.7946,1.589,2042
20,0.1575,-0.6152,-0.0706,2.0542,-0.5831,1.5929,2043
20,0.2332,-0.6338,-0.0671,2.0841,-0.4153,1.6175,2039
20,0.2573,-0.6384,-0.0681,2.0968,-0.324,1.6358,2042
20,0.2976,-0.6458,-0.0679,2.1141,-0.3188,1.6476,2042
20,0.3418,-0.6677,-0.0518,2.1458,-0.3473,1.6321,2039
20,0.386,-0.6841,-0.0408,2.192,-0.4349,1.6211,2043
20,0.4319,-0.7446,-0.0344,2.204,-0.5405,1.6249,2043
20,0.4741,-0.781,0.0037,2.2277,-0.6801,1.6076,2040
20,0.491,-0.8223,0.0908,2.2097,-0.8404,1.5857,2040
20,0.5117,-0.8242,0.1528,2.1437,-0.9547,1.5139,2040
20,0.5415,-0.8267,0.2112,2.0919,-1.0804,1.444,2039
20,0.5786,-0.8391,0.2371,2.0298,-1.274,1.3853,2041
20,0.6003,-0.8752,0.2759,1.9591,-1.4648,1.3113,2044
20,0.5891,-0.8694,0.3306,1.859,-1.5792,1.2437,2041
20,0.5818,-0.9312,0.3914,1.7279,-1.6442,1.1868,2041
20,0.5532,-0.9766,0.4199,1.5953,-1.6735,1.1259,2041
20,0.5613,-0.9839,0.4175,1.4411,-1.627,1.0725,2042
21,0.5618,-1.051,0.4443,1.2656,-1.5571,0.9495,2040
21,0.5352,-1.0635,0.4243,1.0991,-1.4412,0.8307,2042
21,0.5447,-1.1338,0.4158,0.9292,-1.2766,0.7074,2044
21,0.5354,-1.1489,0.3811,0.7211,-1.0897,0.5637,2038
21,0.5349,-1.168,0.3889,0.616,-0.9014,0.4243,2042
21,0.5208,-1.2302,0.3713,0.4081,-0.7738,0.2935,2041
21,0.501,-1.3538,0.3533,0.21,-0.591,0.1884,2053
21,0.4692,-1.5381,0.3433,0.0278,-0.3099,0.092,2039
21,0.4233,-1.7034,0.3279,-0.128,0.0016,-0.0091,2039
21,0.3733,-1.7666,0.3479,-0.3216,0.3269,-0.1708,2042
21,0.344,-1.6865,0.4202,-0.5674,0.6147,-0.4023,2036
21,0.3718,-1.6152,0.5164,-0.8741,0.775,-0.6251,2041
21,0.4292,-1.4771,0.5295,-1.2476,0.7963,-0.7601,2037
21,0.4014,-1.3467,0.5715,-1.4679,0.913,-0.9025,2041
21,0.3447,-1.2012,0.5801,-1.8032,0.9533,-1.0271,2042
21,0.3254,-1.0652,0.5525,-2.013,1.058,-1.1415,2039
21,0.3398,-0.9414,0.5159,-2.2425,1.0702,-1.2527,2040
21,0.343,-0.8826,0.4731,-2.4051,1.1543,-1.3766,2042
21,0.3232,-0.8789,0.4136,-2.5413,1.2762,-1.5,2041
21,0.3086,-0.929,0.3552,-2.6741,1.4218,-1.6146,2041
21,0.3269,-0.9817,0.293,-2.7665,1.572,-1.6965,2038
21,0.3379,-1.0413,0.2334,-2.765,1.7225,-1.7542,2041
21,0.3381,-1.1365,0.1589,-2.7602,1.8555,-1.8065,2039
21,0.3613,-1.1877,0.1008,-2.7734,1.9449,-1.8325,2040
21,0.3428,-1.1536,0.0652,-2.7613,2.0118,-1.8704,2042
21,0.3555,-1.0767,0.063,-2.7433,2.0226,-1.9343,2041
21,0.3499,-1.0049,0.0742,-2.7115,2.005,-2.0253,2040
21,0.3318,-0.9524,0.0637,-2.679,1.9389,-2.0979,2039
21,0.3191,-0.9302,0.0686,-2.6448,1.9053,-2.1045,2043
21,0.292,-0.8628,0.0693,-2.6143,1.9082,-2.0915,2044
21,0.2666,-0.8167,0.072,-2.5541,1.9257,-2.0913,2039
21,0.2515,-0.772,0.0859,-2.4758,1.951,-2.0525,2041
21,0.2192,-0.7659,0.1162,-2.39,2.0053,-2.0381,2040
21,0.23,-0.7498,0.1064,-2.3417,2.0531,-2.003,2042
21,0.2224,-0.7485,0.1111,-2.289,2.0993,-1.9895,2038
21,0.2119,-0.7373,0.1089,-2.2356,2.1461,-1.9997,2042
21,0.2151,-0.7332,0.1038,-2.1927,2.1618,-1.9949,2043
21,0.2202,-0.7107,0.1013,-2.1306,2.17,-1.9833,2039
21,0.2124,-0.7249,0.0996,-2.0715,2.1786,-1.9923,2039
21,0.2029,-0.7217,0.0894,-2.0149,2.1887,-1.9835,2042
21,0.2209,-0.7393,0.0757,-1.9554,2.1507,-1.9562,2038
21,0.2144,-0.7292,0.061,-1.8749,2.0991,-1.9132,2045
21,0.2188,-0.7437,0.0488,-1.7964,2.0413,-1.9057,2044
21,0.2188,-0.7607,0.0439,-1.7126,1.9531,-1.8807,2041
21,0.208,-0.7964,0.043,-1.636,1.8464,-1.8495,2039
21,0.2063,-0.8064,0.0317,-1.5347,1.6575,-1.8034,2044
21,0.2327,-0.8196,0.0459,-1.4552,1.5057,-1.753,2041
21,0.2192,-0.8208,0.0542,-1.3692,1.2888,-1.7072,2041
21,0.2292,-0.8398,0.063,-1.2842,1.0564,-1.6688,2043
21,0.23,-0.865,0.0859,-1.191,0.7809,-1.5889,2037
21,0.2292,-0.8872,0.1035,-1.1251,0.5216,-1.5179,2038
21,0.2256,-0.9082,0.1194,-1.0692,0.2912,-1.4318,2042
21,0.2351,-0.9258,0.1541,-1.019,0.1131,-1.3278,2041
21,0.2334,-0.9333,0.1328,-0.9104,-0.0691,-1.2118,2043
21,0.2693,-0.9387,0.1101,-0.7656,-0.2177,-1.034,2049
21,0.3037,-0.9463,0.1108,-0.562,-0.3314,-0.8131,2041
21,0.3059,-0.9529,0.1316,-0.3647,-0.4389,-0.5904,2043
21,0.3052,-0.9749,0.1855,-0.196,-0.5366,-0.3555,2042
21,0.3308,-0.949,0.2085,-0.0346,-0.6506,-0.1292,2041
21,0.3521,-0.9543,0.2224,0.1712,-0.763,0.1113,2043
21,0.3625,-0.9668,0.2551,0.3812,-0.7569,0.3438,2041
21,0.3728,-0.9895,0.2734,0.5312,-0.6897,0.5469,2043
21,0.3811,-1.002,0.2754,0.7205,-0.6228,0.7602,2041
21,0.3855,-1.0601,0.2625,0.9716,-0.5998,0.9938,2043
21,0.4033,-1.1423,0.2368,1.2761,-0.5922,1.235,2043
21,0.4465,-1.2627,0.259,1.6013,-0.6239,1.4892,2039
21,0.4685,-1.3325,0.3176,1.866,-0.6787,1.7359,2036
21,0.4587,-1.3291,0.3901,2.0262,-0.7723,1.97,2043
21,0.4336,-1.3086,0.4619,2.0746,-0.8569,2.1178,2043
21,0.3943,-1.2639,0.5278,2.0197,-0.9216,2.2204,2040
21,0.3262,-1.1721,0.5591,1.9046,-0.9301,2.2719,2040
21,0.2837,-1.0903,0.5791,1.8008,-0.8323,2.2842,2042
21,0.2351,-1.0459,0.5994,1.7733,-0.6682,2.2322,2039
21,0.1719,-1.0562,0.5955,1.7082,-0.4671,2.1086,2041
21,0.1445,-1.1057,0.5767,1.6661,-0.2922,1.9792,2043
21,0.1433,-1.168,0.5483,1.6619,-0.167,1.8415,2042
21,0.1687,-1.2385,0.5007,1.6249,-0.137,1.7825,2039
21,0.2119,-1.3032,0.4414,1.5878,-0.2093,1.7299,2044
21,0.2571,-1.3198,0.3987,1.5641,-0.3786,1.7026,2038
21,0.3108,-1.2991,0.3481,1.5336,-0.646,1.7018,2041
21,0.3313,-1.2791,0.3159,1.4474,-0.9551,1.7151,2041
21,0.3716,-1.1982,0.283,1.3644,-1.2348,1.7448,2042
21,0.3865,-1.1118,0.2297,1.3146,-1.4645,1.7864,2040
21,0.3865,-1.0403,0.2017,1.266,-1.6945,1.8066,2041
