Timestamp,Ax,Ay,Az,Rx,Ry,Rz,EMG
0,-0.0203,-1.0164,-0.1396,-0.1434,-0.0583,-0.0434,2036
0,-0.0168,-1.0046,-0.1262,-0.1398,-0.0499,-0.0438,2045
0,-0.0273,-1.0054,-0.1233,-0.1336,-0.0645,-0.0553,2055
0,-0.05,-1.0068,-0.1226,-0.1159,-0.0732,-0.0672,2053
0,-0.0593,-0.99,-0.1333,-0.1045,-0.0985,-0.0915,2038
0,-0.0322,-1.012,-0.124,-0.0888,-0.134,-0.1173,2047
0,-0.0327,-1.0027,-0.1321,-0.0631,-0.1968,-0.1286,2050
0,-0.0393,-1.0002,-0.1265,-0.0429,-0.2791,-0.1497,2060
0,-0.022,-1.0073,-0.1387,-0.0111,-0.3384,-0.1677,2050
0,-0.0017,-1.0042,-0.1545,0.016,-0.3492,-0.1674,2058
0,0.0195,-1.0134,-0.175,0.0399,-0.324,-0.1638,2046
0,0.0291,-1.0061,-0.1777,0.0522,-0.2661,-0.1661,2049
0,0.0129,-1.0017,-0.1875,0.0779,-0.2252,-0.1655,2049
0,0.0293,-1.0159,-0.1758,0.0824,-0.2145,-0.1724,2037
0,0.0327,-1.0095,-0.175,0.0923,-0.2171,-0.1701,2050
0,0.0308,-1.0137,-0.1621,0.1021,-0.2099,-0.1731,2047
0,0.0254,-1.002,-0.158,0.1133,-0.1852,-0.1702,2053
0,0.0215,-1.0022,-0.1558,0.1156,-0.1479,-0.1693,2044
0,0.0239,-1.0093,-0.1306,0.1175,-0.1404,-0.1786,2050
0,0.0388,-1.0081,-0.1296,0.1196,-0.1549,-0.1816,2040
0,0.0271,-1.0039,-0.1252,0.1157,-0.1531,-0.181,2048
0,0.019,-1.0027,-0.1221,0.1136,-0.1346,-0.1895,2045
0,0.0317,-0.9998,-0.1335,0.1095,-0.1152,-0.1903,2050
0,0.0234,-1.0112,-0.1204,0.1052,-0.1125,-0.194,2048
0,0.04,-1.0002,-0.123,0.0955,-0.1053,-0.1911,2047
0,0.0605,-1.0112,-0.1245,0.108,-0.1077,-0.1935,2047
0,0.0637,-1.0217,-0.1187,0.121,-0.0892,-0.194,2042
0,0.0627,-1.0071,-0.137,0.1265,-0.0672,-0.1891,2046
0,0.0513,-1.0081,-0.1145,0.1254,-0.0478,-0.1834,2054
0,0.0645,-1.0122,-0.1169,0.1238,-0.0451,-0.1832,2049
0,0.0583,-1.019,-0.1111,0.1151,-0.0501,-0.1823,2048
0,0.0588,-1.0115,-0.1152,0.1237,-0.0559,-0.179,2048
0,0.0657,-1.0073,-0.1296,0.1316,-0.0356,-0.1812,2046
0,0.0557,-0.9961,-0.1355,0.1457,-0.02,-0.1831,2047
0,0.043,-1.0042,-0.1194,0.1432,-0.0254,-0.191,2052
0,0.0557,-1.0015,-0.0986,0.1441,-0.0519,-0.1951,2050
0,0.0505,-1.01,-0.1018,0.1425,-0.0683,-0.2017,2043
0,0.0608,-1.0115,-0.1011,0.1538,-0.0858,-0.2149,2050
0,0.0908,-1.0178,-0.115,0.1605,-0.0671,-0.2111,2047
0,0.085,-1.0117,-0.104,0.1754,-0.0483,-0.2137,2046
0,0.0977,-1.0166,-0.1055,0.1798,-0.034,-0.2059,2049
0,0.0813,-1.0125,-0.0779,0.1772,-0.031,-0.2097,2047
0,0.0742,-1.0181,-0.0674,0.1686,-0.0305,-0.2071,2049
0,0.0784,-1.0022,-0.0632,0.1752,-0.0422,-0.2195,2052
0,0.0759,-1.0176,-0.05,0.1618,-0.0382,-0.2258,2048
0,0.0884,-1.0151,-0.0632,0.1501,-0.0509,-0.23,2046
0,0.1077,-1.0063,-0.0706,0.1473,-0.0434,-0.244,2044
0,0.095,-1.0078,-0.0754,0.1386,-0.0422,-0.2434,2045
0,0.0901,-1.0227,-0.0657,0.1481,-0.0265,-0.2469,2045
0,0.0928,-1.002,-0.0769,0.1479,-0.0332,-0.2489,2041
0,0.1028,-1.0007,-0.0581,0.1368,-0.038,-0.2519,2046
0,0.1074,-1.0085,-0.0601,0.1345,-0.07,-0.257,2048
0,0.1123,-1.0081,-0.0488,0.1163,-0.0686,-0.2549,2047
0,0.1116,-1.0083,-0.0505,0.1097,-0.0755,-0.2533,2048
0,0.1514,-1.0046,-0.0464,0.0985,-0.0598,-0.2428,2047
0,0.1516,-1.0073,-0.0698,0.0943,-0.049,-0.2346,2055
0,0.136,-1.0034,-0.0732,0.0907,-0.0212,-0.2314,2047
0,0.1353,-1.0017,-0.0684,0.0886,-0.0052,-0.2135,2043
0,0.147,-0.9905,-0.0566,0.0892,-0.015,-0.2124,2050
0,0.1536,-1.0095,-0.0303,0.0583,-0.0427,-0.1996,2054
0,0.1785,-1.0171,-0.0354,0.0421,-0.0515,-0.1771,2052
0,0.1799,-1.0266,-0.054,0.0224,-0.0471,-0.1471,2035
0,0.1772,-1.01,-0.0693,0.0422,-0.0301,-0.1453,2032
0,0.1589,-0.9941,-0.0701,0.0281,-0.019,-0.1213,2041
0,0.1714,-1.0056,-0.0696,0.0124,0.0028,-0.09,2057
0,0.1636,-1.0022,-0.0632,0.0096,0.0013,-0.0758,2041
0,0.1711,-1.009,-0.0581,-0.0037,-0.0087,-0.0617,2046
0,0.1758,-1.0095,-0.0649,-0.0131,-0.0043,-0.039,2043
0,0.1753,-1.0046,-0.0789,-0.0146,0.0099,-0.0221,2049
0,0.1716,-1.0144,-0.0835,-0.0156,0.0277,-0.0073,2044
0,0.1543,-1.0061,-0.083,-0.0112,0.0447,0.0052,2050
0,0.1265,-1.002,-0.0881,-0.0084,0.0597,0.0025,2041
0,0.1238,-1.0017,-0.0442,-0.0099,0.0443,0.0012,2058
0,0.1384,-0.9988,-0.0347,-0.0282,0.0088,0.0024,2050
0,0.1482,-0.9976,-0.0491,-0.0345,-0.0051,0.002,2045
0,0.1707,-1.0068,-0.0708,-0.039,0.0173,0.0109,2051
0,0.1667,-1.0073,-0.0906,-0.0281,0.0529,0.0161,2051
0,0.1421,-1.0122,-0.0693,-0.0301,0.0601,0.024,2052
0,0.1348,-1.0037,-0.0447,-0.0434,0.0403,0.0278,2040
0,0.1399,-0.9939,-0.052,-0.0593,0.0129,0.0248,2044
0,0.1414,-1.0056,-0.0667,-0.066,0.0095,0.0256,2049
0,0.146,-1.0103,-0.0803,-0.0595,0.0233,0.0258,2048
0,0.1521,-1.0115,-0.0754,-0.0635,0.0272,0.0368,2053
0,0.1577,-1.0024,-0.0815,-0.0587,0.0276,0.0409,2044
0,0.1462,-0.9902,-0.0659,-0.0637,0.0405,0.0451,2049
0,0.157,-1.0112,-0.0576,-0.0654,0.0478,0.0483,2048
0,0.165,-1.009,-0.0791,-0.0646,0.0398,0.0549,2045
0,0.147,-1.0129,-0.0957,-0.0621,0.0381,0.067,2050
0,0.1465,-0.9976,-0.0869,-0.0609,0.0485,0.0762,2045
0,0.1362,-0.9993,-0.095,-0.0581,0.0654,0.0796,2043
0,0.1365,-0.9954,-0.0911,-0.047,0.0578,0.0782,2049
0,0.1221,-1.0002,-0.0867,-0.0522,0.0563,0.0766,2047
0,0.1177,-1.0071,-0.0776,-0.0439,0.038,0.0751,2047
0,0.1074,-0.999,-0.0793,-0.0454,0.0425,0.0666,2045
0,0.0994,-1.0056,-0.0752,-0.0374,0.0463,0.0571,2051
0,0.1069,-1.0044,-0.0728,-0.0354,0.0418,0.0447,2049
0,0.1033,-1.0066,-0.0828,-0.0328,0.037,0.0394,2050
0,0.1125,-1.0005,-0.0896,-0.0302,0.0302,0.0304,2053
0,0.1116,-1.0078,-0.0869,-0.0237,0.033,0.0262,2049
0,0.1157,-1.002,-0.0908,-0.0174,0.0308,0.0165,2044
0,0.1155,-1.0017,-0.0833,-0.012,0.0198,0.0129,2048
0,0.1138,-1.0046,-0.0803,-0.0088,0.0116,0.0023,2045
1,0.1052,-0.9971,-0.0811,-0.01,0.0052,-0.0015,2047
1,0.1196,-1.0032,-0.0845,-0.0108,0.0033,-0.0072,2045
1,0.1152,-1.0046,-0.0869,-0.0007,0.0063,-0.0157,2048
1,0.1223,-1.0129,-0.0906,-0.0003,0.0053,-0.022,2050
1,0.1311,-1.0,-0.0872,0.0007,-0.0107,-0.028,2049
1,0.1357,-1.0066,-0.0774,-0.0023,-0.0186,-0.0205,2046
1,0.1426,-1.0078,-0.0825,-0.0012,-0.01,-0.0268,2052
1,0.137,-1.0056,-0.0811,0.0027,0.0103,-0.0214,2042
1,0.136,-1.0051,-0.0913,0.0085,0.0186,-0.0193,2040
1,0.1404,-1.0015,-0.0979,0.0115,0.0194,-0.0209,2045
1,0.1423,-1.0054,-0.0828,0.014,0.0083,-0.0164,2049
1,0.146,-1.0017,-0.0793,0.0111,0.0052,-0.0149,2049
1,0.1438,-1.0061,-0.0894,0.0173,0.0052,-0.0077,2046
1,0.1357,-1.0032,-0.0935,0.0226,0.0085,-0.0073,2054
1,0.1414,-1.0044,-0.0808,0.0222,0.0138,-0.0053,2042
1,0.1445,-1.0063,-0.0774,0.0169,0.0103,-0.0028,2039
1,0.1438,-1.0042,-0.0903,0.0192,0.0131,0.0008,2046
1,0.1379,-1.0068,-0.0823,0.0253,0.0189,-0.0007,2047
1,0.1401,-1.0054,-0.0818,0.0276,0.0242,0.0,2050
1,0.1355,-1.0044,-0.0776,0.0278,0.0218,0.0028,2048
1,0.1489,-1.0054,-0.0737,0.0264,0.0224,0.0051,2046
1,0.1523,-1.0059,-0.082,0.0276,0.0164,0.0091,2047
1,0.146,-1.0063,-0.0769,0.025,0.0221,0.0125,2050
1,0.1492,-1.0073,-0.0828,0.0217,0.0321,0.0177,2048
1,0.1462,-1.0063,-0.0796,0.0278,0.0394,0.025,2045
1,0.1523,-1.0017,-0.0886,0.0306,0.0457,0.0312,2049
1,0.1487,-1.0022,-0.0876,0.0281,0.0431,0.0361,2055
1,0.1541,-1.0071,-0.0776,0.0276,0.0353,0.0394,2056
1,0.145,-0.9998,-0.0757,0.026,0.0373,0.0459,2044
1,0.1453,-1.0024,-0.0752,0.0214,0.047,0.0523,2047
1,0.1543,-1.0068,-0.0725,0.0209,0.0455,0.0575,2046
1,0.1455,-1.0049,-0.0696,0.0129,0.0578,0.0601,2046
1,0.1467,-1.011,-0.0627,0.0111,0.0602,0.0686,2045
1,0.1436,-1.0159,-0.0696,0.0081,0.0621,0.0727,2048
1,0.1353,-1.0078,-0.0798,0.0021,0.0742,0.0735,2052
1,0.1418,-1.0051,-0.0754,-0.0016,0.0647,0.0786,2040
1,0.1348,-1.0022,-0.0789,-0.0003,0.0603,0.081,2043
1,0.136,-1.0061,-0.0684,-0.0095,0.0473,0.089,2049
1,0.1404,-1.0093,-0.075,-0.0103,0.0525,0.0955,2044
1,0.1636,-1.0266,-0.0957,0.0208,0.0542,0.1027,2044
1,0.1599,-1.0161,-0.0879,0.0474,0.0711,0.1117,2049
1,0.1641,-1.022,-0.0647,0.0321,0.0917,0.1345,2047
1,0.1426,-1.0129,-0.0405,0.0149,0.0912,0.1459,2045
1,0.1213,-0.9993,-0.0349,0.0027,0.0904,0.1503,2055
1,0.114,-1.0071,-0.0586,-0.0153,0.0655,0.1507,2050
1,0.1289,-1.0142,-0.0867,-0.0061,0.0417,0.1412,2051
1,0.1426,-1.0093,-0.1072,0.0103,0.0225,0.1491,2052
1,0.1384,-0.9993,-0.0747,0.0063,0.0204,0.1486,2038
1,0.1128,-0.9961,-0.0544,0.0035,0.0494,0.1497,2041
1,0.1025,-0.9995,-0.0464,-0.0093,0.055,0.1483,2055
1,0.0994,-1.0012,-0.0596,-0.0083,0.0348,0.1455,2044
1,0.1123,-1.0046,-0.072,-0.0176,0.0369,0.141,2053
1,0.1047,-1.0007,-0.0874,-0.0392,0.0874,0.1479,2048
1,0.1089,-1.0032,-0.0649,-0.028,0.0947,0.1428,2039
1,0.0845,-1.0059,-0.0962,0.0125,0.0763,0.1304,2046
1,0.1194,-0.9856,-0.092,0.0092,0.1232,0.1296,2042
1,0.1248,-1.0117,-0.0952,0.0017,0.1995,0.1392,2015
1,0.0847,-0.9902,-0.1199,-0.0097,0.2187,0.1434,2037
1,0.0947,-0.9856,-0.1086,-0.0056,0.2795,0.1372,2041
1,0.1211,-1.0144,-0.1033,0.0073,0.3404,0.14,2046
1,0.1023,-1.0103,-0.084,0.0047,0.3372,0.1462,2032
1,0.0798,-1.0002,-0.0671,-0.0031,0.3199,0.1346,2046
1,0.0876,-1.0029,-0.0718,-0.0344,0.3123,0.133,2049
1,0.0947,-0.9988,-0.0542,-0.0704,0.3654,0.1329,2043
1,0.0845,-1.0046,-0.0759,-0.0664,0.3282,0.1224,2075
1,0.0881,-1.0039,-0.0803,-0.0716,0.3272,0.1254,2040
1,0.1091,-1.0071,-0.0601,-0.0642,0.3282,0.1165,2046
1,0.075,-1.0115,-0.0518,-0.0641,0.3105,0.1175,2052
1,0.0439,-1.0034,-0.061,-0.0386,0.2116,0.1067,2047
1,0.0715,-0.9988,-0.0479,-0.0332,0.1671,0.0955,2050
1,0.082,-1.011,-0.0554,-0.0321,0.1637,0.1011,2034
1,0.0791,-1.0002,-0.0452,-0.0511,0.1963,0.0953,2039
1,0.0977,-1.0093,-0.0771,-0.0786,0.2573,0.0904,2056
1,0.0691,-1.0049,-0.0996,-0.0601,0.2566,0.0906,2047
1,0.0659,-1.0066,-0.0759,-0.0555,0.233,0.0835,2039
1,0.0718,-1.0095,-0.0762,-0.0471,0.2125,0.0794,2079
1,0.0837,-1.0063,-0.0874,-0.065,0.238,0.0732,2044
1,0.0828,-1.0007,-0.0713,-0.0523,0.2344,0.0691,2100
1,0.0903,-1.0107,-0.0688,-0.1011,0.237,0.0724,2045
1,0.0569,-1.0115,-0.073,-0.0931,0.2004,0.0734,2039
1,0.0725,-1.0049,-0.075,-0.0846,0.1747,0.0662,2049
1,0.0803,-1.0132,-0.0688,-0.0699,0.1579,0.071,2030
1,0.0759,-1.0127,-0.0605,-0.0731,0.1474,0.0736,2046
1,0.0798,-1.0093,-0.0732,-0.0629,0.1369,0.0686,2014
1,0.0857,-1.0137,-0.0813,-0.0446,0.1302,0.0621,2038
1,0.0732,-1.0181,-0.0896,-0.0266,0.0908,0.0615,2038
1,0.0725,-1.0027,-0.1025,-0.0286,0.0927,0.0606,2046
1,0.0754,-1.0134,-0.0916,-0.0385,0.0891,0.0617,2045
1,0.0706,-1.0015,-0.0884,-0.0344,0.0601,0.0595,2050
1,0.0669,-1.0068,-0.0669,-0.034,0.0647,0.0589,2062
1,0.0625,-1.0117,-0.0713,-0.0293,0.0385,0.0621,2069
1,0.0796,-1.01,-0.0815,-0.0411,0.0482,0.0593,2025
1,0.0916,-1.0161,-0.0933,-0.0348,0.0607,0.0569,2046
1,0.0657,-1.0088,-0.0801,-0.0286,0.0535,0.0561,2107
1,0.0583,-0.9995,-0.0952,-0.0282,0.0466,0.045,2044
1,0.0781,-1.0188,-0.105,-0.0218,0.0559,0.0469,2043
1,0.0801,-1.0068,-0.0911,-0.0117,0.0727,0.0499,2046
1,0.075,-1.0117,-0.083,-0.0104,0.0668,0.0505,2043
1,0.0701,-1.0078,-0.0901,-0.016,0.077,0.0535,2041
1,0.0649,-1.0071,-0.0925,-0.0216,0.0627,0.0517,2068
1,0.0769,-1.0105,-0.0793,-0.0224,0.0606,0.0526,2038
1,0.0723,-1.0132,-0.0881,-0.0224,0.0515,0.0527,2063
1,0.0747,-1.0063,-0.0815,-0.0296,0.0443,0.0563,2039
2,0.0715,-1.0122,-0.084,-0.0356,0.0358,0.0525,2045
2,0.0916,-1.0032,-0.0935,-0.038,0.0467,0.0547,2067
2,0.0771,-1.0068,-0.0911,-0.0364,0.0907,0.0602,1995
2,0.0706,-1.0017,-0.0955,-0.0589,0.1197,0.0599,2023
2,0.1006,-1.0161,-0.0955,-0.0678,0.1706,0.0671,2066
2,0.0625,-1.0154,-0.083,-0.0663,0.1726,0.0711,2049
2,0.0471,-1.0098,-0.085,-0.0538,0.1394,0.0645,2055
2,0.054,-1.0107,-0.0815,-0.0418,0.1308,0.0645,2057
2,0.0452,-1.0032,-0.0708,-0.0422,0.1153,0.0549,2046
2,0.0339,-1.0159,-0.0723,-0.0305,0.0605,0.0445,2040
2,0.0476,-1.0007,-0.0881,-0.0192,0.0119,0.0341,2045
2,0.0623,-1.0107,-0.0859,-0.0053,0.0059,0.0357,2019
2,0.0427,-1.0081,-0.072,-0.01,-0.0288,0.0278,2055
2,0.0493,-1.0103,-0.0962,-0.0027,-0.0637,0.0213,2053
2,0.0715,-1.0068,-0.1055,-0.0063,-0.0417,0.0193,2032
2,0.083,-1.0193,-0.0891,-0.0008,0.0256,0.0278,2044
2,0.0603,-1.01,-0.0999,-0.0103,0.0249,0.0254,2052
2,0.0627,-1.0127,-0.0862,-0.0113,0.0296,0.0286,2053
2,0.0667,-1.0193,-0.0776,-0.0142,0.0389,0.0286,2050
2,0.0615,-1.0139,-0.084,-0.0274,0.0337,0.0258,2086
2,0.0598,-1.0054,-0.0947,-0.0136,0.0044,0.0188,2041
2,0.0776,-1.0198,-0.0925,-0.0111,0.0148,0.0261,2051
2,0.0557,-1.011,-0.0962,-0.0067,-0.0049,0.0269,2050
2,0.0569,-1.0137,-0.0852,0.0001,-0.02,0.0226,2055
2,0.0598,-1.0134,-0.0879,-0.0041,-0.0178,0.0237,2083
2,0.0793,-1.0166,-0.0784,-0.0186,0.0293,0.0237,2041
2,0.075,-1.0156,-0.0803,-0.026,0.0402,0.0274,2033
2,0.0581,-1.0046,-0.0764,-0.0297,0.0466,0.0302,2032
2,0.0527,-1.0044,-0.083,-0.0309,0.0358,0.028,2033
2,0.0659,-1.0139,-0.0889,-0.0398,0.0272,0.0244,2044
2,0.0652,-1.0183,-0.1079,-0.0356,-0.006,0.0292,2047
2,0.0806,-1.0146,-0.106,-0.031,0.0011,0.0285,2037
2,0.0771,-1.0146,-0.1069,-0.0071,0.0185,0.0337,2056
2,0.0767,-1.01,-0.0881,-0.0233,0.0328,0.0377,2047
2,0.0669,-1.0134,-0.1021,-0.0236,0.0278,0.0427,2041
2,0.0608,-1.0093,-0.0886,-0.0213,0.0216,0.0427,2046
2,0.0654,-1.0107,-0.0955,-0.0292,0.0156,0.0445,2057
2,0.0708,-1.0115,-0.0957,-0.0403,0.0008,0.0454,2051
2,0.0652,-1.0122,-0.1064,-0.0409,-0.0003,0.047,2038
2,0.0493,-1.0186,-0.0842,-0.0381,0.0033,0.0514,2053
2,0.0498,-1.0105,-0.0881,-0.0376,-0.0109,0.0434,2050
2,0.0583,-1.0095,-0.0886,-0.0486,-0.0365,0.041,2044
2,0.0471,-1.019,-0.0706,-0.0627,-0.0851,0.034,2046
2,0.0481,-1.0183,-0.0776,-0.0621,-0.1173,0.033,2074
2,0.0457,-1.0156,-0.0901,-0.0489,-0.1673,0.0254,2054
2,0.0461,-1.0186,-0.0754,-0.0491,-0.224,0.0141,2046
2,0.0635,-1.0083,-0.0732,-0.0501,-0.2482,0.0172,2047
2,0.0554,-1.0129,-0.0762,-0.0453,-0.2691,0.0053,2046
2,0.0503,-1.0227,-0.0681,-0.0378,-0.3164,0.0021,2049
2,0.0596,-1.0088,-0.0659,-0.0325,-0.3675,-0.0065,2053
2,0.0605,-1.0176,-0.0945,-0.0152,-0.4024,-0.004,2043
2,0.0569,-1.0129,-0.0903,-0.008,-0.412,-0.0051,2041
2,0.0625,-1.0137,-0.1089,-0.0043,-0.4112,-0.0029,2042
2,0.0757,-1.0134,-0.1169,-0.0019,-0.4016,0.0003,2048
2,0.083,-1.0095,-0.1206,-0.0024,-0.3721,0.0032,2045
2,0.0742,-1.0107,-0.1289,-0.0097,-0.3417,0.0129,2042
2,0.0647,-0.9954,-0.135,-0.0087,-0.3084,0.0121,2050
2,0.0647,-1.0061,-0.127,-0.0142,-0.2701,0.0129,2048
2,0.0598,-0.9978,-0.1362,0.0085,-0.2341,0.0105,2045
2,0.0476,-1.0017,-0.1274,0.0051,-0.1981,0.0077,2048
2,0.0398,-1.0039,-0.1252,0.0031,-0.1716,-0.0015,2044
2,0.0281,-0.9973,-0.1243,-0.0029,-0.1482,-0.0105,2043
2,0.0251,-0.9941,-0.1147,0.0028,-0.1401,-0.0288,2042
2,0.0415,-1.0098,-0.1235,0.0056,-0.1324,-0.0433,2044
2,0.0535,-1.0151,-0.1101,0.0173,-0.1352,-0.0597,2045
2,0.0667,-1.0059,-0.1143,0.0132,-0.1292,-0.0622,2053
2,0.0625,-1.0098,-0.1194,0.0317,-0.1151,-0.0743,2049
2,0.0562,-1.0081,-0.1125,0.0451,-0.08,-0.0764,2047
2,0.0381,-1.0017,-0.1089,0.0463,-0.0581,-0.0859,2047
2,0.0498,-1.0105,-0.1013,0.0435,-0.0645,-0.0928,2048
2,0.0686,-1.002,-0.1055,0.0402,-0.0888,-0.1004,2048
2,0.0776,-1.0017,-0.1121,0.0389,-0.0967,-0.1015,2049
2,0.0876,-1.0129,-0.1245,0.0431,-0.0686,-0.0977,2046
2,0.0862,-1.0049,-0.1287,0.0494,-0.0399,-0.0917,2048
2,0.0791,-1.01,-0.1169,0.0534,-0.0214,-0.0887,2047
2,0.0667,-1.0059,-0.1313,0.0531,-0.0216,-0.09,2046
2,0.0657,-0.9983,-0.1177,0.0638,-0.0325,-0.0977,2049
2,0.0723,-1.0149,-0.1121,0.057,-0.0309,-0.0992,2045
2,0.0808,-1.0039,-0.1055,0.0637,-0.0539,-0.1084,2049
2,0.0876,-1.0056,-0.1013,0.0602,-0.0507,-0.1033,2042
2,0.1021,-0.9998,-0.1077,0.0649,-0.0333,-0.0981,2047
2,0.0867,-1.0051,-0.1064,0.0638,-0.0124,-0.1007,2047
2,0.085,-1.0066,-0.1047,0.0674,-0.0084,-0.1007,2047
2,0.0779,-1.0083,-0.0891,0.0678,-0.0035,-0.1055,2046
2,0.0696,-1.0093,-0.095,0.0688,-0.0081,-0.1178,2047
2,0.0813,-1.0112,-0.0908,0.0631,-0.0256,-0.1216,2052
2,0.0859,-0.9939,-0.0979,0.0602,-0.0322,-0.1298,2043
2,0.0942,-1.0076,-0.1113,0.0583,-0.031,-0.1326,2052
2,0.0967,-1.0081,-0.0984,0.0611,-0.0301,-0.1321,2044
2,0.1072,-1.0027,-0.1038,0.0655,-0.0309,-0.1332,2047
2,0.1069,-1.02,-0.1006,0.0589,-0.028,-0.1249,2051
2,0.113,-1.0095,-0.1011,0.0585,-0.028,-0.1186,2047
2,0.114,-1.0037,-0.1042,0.0483,-0.0334,-0.1184,2051
2,0.1118,-1.0083,-0.106,0.0469,-0.0357,-0.1119,2050
2,0.106,-1.0059,-0.0903,0.0503,-0.0354,-0.1105,2050
2,0.1211,-1.0017,-0.0815,0.0485,-0.0419,-0.1077,2045
2,0.116,-1.0146,-0.082,0.0405,-0.0403,-0.106,2039
2,0.1267,-1.0215,-0.0833,0.0352,-0.0372,-0.0971,2046
2,0.1252,-1.0088,-0.0979,0.0342,-0.0276,-0.094,2047
2,0.1267,-1.0093,-0.1057,0.0372,-0.0232,-0.0864,2047
2,0.1147,-1.0022,-0.0916,0.043,-0.0228,-0.0828,2047
2,0.1177,-1.0125,-0.0879,0.0392,-0.0209,-0.0834,2048
3,0.1248,-1.0068,-0.0999,0.0342,-0.0368,-0.0798,2039
3,0.1245,-1.0024,-0.0925,0.0373,-0.0336,-0.0738,2051
3,0.1309,-1.0112,-0.092,0.0372,-0.0216,-0.0663,2049
3,0.127,-0.9961,-0.0774,0.0483,-0.0103,-0.0638,2051
3,0.1262,-1.0132,-0.0947,0.0495,-0.002,-0.0579,2049
3,0.1333,-1.0054,-0.0886,0.0446,-0.0027,-0.0535,2041
3,0.1326,-1.0042,-0.0701,0.0419,0.0005,-0.0487,2047
3,0.1316,-1.0198,-0.0784,0.0377,0.0063,-0.0427,2046
3,0.1296,-1.0249,-0.0972,0.0478,-0.0016,-0.0249,2046
3,0.1106,-1.0039,-0.0833,0.059,-0.0029,-0.0241,2056
3,0.0984,-1.0024,-0.0859,0.0606,0.0012,-0.0306,2045
3,0.1267,-0.999,-0.0901,0.0523,-0.0065,-0.0385,2048
3,0.1179,-1.011,-0.0891,0.0565,0.0317,-0.0406,2050
3,0.1001,-1.0066,-0.0896,0.0676,0.0252,-0.0561,2045
3,0.1072,-1.0032,-0.0886,0.0645,-0.0004,-0.0674,2047
3,0.1221,-0.9983,-0.0811,0.0691,0.004,-0.0702,2053
3,0.1106,-0.9895,-0.0789,0.0735,0.0107,-0.0828,2048
3,0.1106,-1.011,-0.085,0.0858,0.0269,-0.0991,2044
3,0.1199,-0.9998,-0.0806,0.0787,0.0186,-0.1005,2042
3,0.1345,-1.0093,-0.0698,0.076,0.0166,-0.1089,2047
3,0.147,-1.0039,-0.0637,0.0732,0.0049,-0.1076,2050
3,0.1414,-1.0054,-0.0481,0.0523,-0.0035,-0.1009,2047
3,0.1475,-1.0095,-0.0342,0.0421,-0.0055,-0.0995,2048
3,0.1609,-1.0007,-0.0483,0.0204,-0.01,-0.0822,2052
3,0.1526,-1.0032,-0.0449,0.0008,-0.0012,-0.0699,2044
3,0.1565,-1.0107,-0.05,-0.0162,0.0108,-0.0537,2045
3,0.1555,-1.0063,-0.0571,-0.0206,0.0248,-0.0405,2046
3,0.1575,-1.0122,-0.0596,-0.0354,0.0254,-0.0313,2051
3,0.1599,-1.0137,-0.0615,-0.0527,0.0177,-0.0161,2048
3,0.1584,-1.001,-0.0769,-0.0569,0.0115,-0.0085,2049
3,0.1584,-1.0071,-0.0835,-0.0561,0.0124,0.0035,2049
3,0.1604,-1.0137,-0.0862,-0.0446,0.0165,0.0109,2043
3,0.1599,-1.0054,-0.0918,-0.0166,0.0112,0.0149,2049
3,0.1636,-1.0134,-0.0793,-0.015,0.0144,0.0289,2042
3,0.1509,-1.0056,-0.0769,-0.0237,0.016,0.0349,2050
3,0.1458,-1.0061,-0.0803,-0.0144,0.0158,0.0405,2039
3,0.1489,-1.0122,-0.0776,-0.018,0.0314,0.0439,2047
3,0.1335,-1.0054,-0.0764,-0.0192,0.0413,0.0482,2048
3,0.126,-1.0002,-0.0913,-0.026,0.0372,0.0491,2051
3,0.1267,-1.0024,-0.0957,-0.0244,0.0226,0.0498,2047
3,0.1306,-1.001,-0.0994,-0.0189,0.0372,0.0453,2048
3,0.1282,-0.9941,-0.1018,-0.0176,0.0411,0.0407,2046
3,0.1357,-0.9954,-0.0989,-0.0112,0.033,0.0419,2051
3,0.1372,-1.0002,-0.1018,-0.0226,0.0222,0.0407,2049
3,0.1433,-1.0002,-0.0972,-0.0305,0.0317,0.0487,2050
3,0.147,-1.0083,-0.0935,-0.0245,0.0487,0.0506,2045
3,0.1426,-1.0044,-0.0842,-0.0272,0.0562,0.0574,2050
3,0.1343,-1.0039,-0.0742,-0.0337,0.0514,0.0615,2049
3,0.1406,-1.0054,-0.0862,-0.0308,0.0459,0.0647,2045
3,0.1465,-1.0098,-0.0906,-0.031,0.0535,0.0675,2043
3,0.1345,-1.0024,-0.0996,-0.0281,0.0654,0.072,2049
3,0.1252,-1.0022,-0.0916,-0.0241,0.0703,0.0731,2047
3,0.123,-1.0056,-0.0769,-0.0273,0.065,0.0694,2048
3,0.1199,-1.001,-0.0754,-0.0336,0.0631,0.0699,2040
3,0.1204,-1.0107,-0.0837,-0.0397,0.0499,0.0682,2051
3,0.1206,-1.0054,-0.0942,-0.0414,0.0549,0.0655,2042
3,0.1235,-0.9983,-0.0999,-0.0326,0.0591,0.0619,2048
3,0.1135,-1.0046,-0.0835,-0.0285,0.0571,0.0598,2045
3,0.1067,-1.0044,-0.0762,-0.0353,0.0481,0.051,2048
3,0.1072,-0.9983,-0.0767,-0.0342,0.0317,0.0419,2049
3,0.1023,-1.0105,-0.075,-0.0318,0.0232,0.0344,2049
3,0.1045,-1.0081,-0.0928,-0.0322,0.0206,0.0265,2049
3,0.114,-1.0,-0.0908,-0.0198,0.022,0.0189,2046
3,0.1099,-1.0032,-0.0942,-0.0194,0.0245,0.0141,2051
3,0.1204,-1.0012,-0.0964,-0.0141,0.0156,0.0097,2047
3,0.1111,-1.0071,-0.095,-0.0072,0.0096,0.0017,2049
3,0.123,-1.012,-0.0845,-0.0071,-0.0012,-0.0008,2053
3,0.134,-1.0061,-0.0874,-0.0025,-0.0021,0.0019,2048
3,0.1233,-1.0046,-0.0918,0.0044,0.0037,0.0001,2049
3,0.1306,-1.0071,-0.0989,0.0037,0.0072,0.0021,2053
3,0.1304,-1.0081,-0.104,0.0035,0.0162,0.002,2046
3,0.1262,-1.0098,-0.0891,0.0037,0.016,0.0023,2051
3,0.1218,-1.0005,-0.0823,0.0007,0.0116,-0.0009,2045
3,0.1116,-1.0063,-0.0774,0.0031,-0.0013,-0.0017,2044
3,0.126,-1.0093,-0.0979,0.0177,0.0016,-0.008,2047
3,0.1267,-1.0039,-0.0979,0.0278,0.0091,-0.0083,2058
3,0.1316,-1.0166,-0.0818,0.0196,0.0013,-0.0045,2042
3,0.1357,-1.0115,-0.0889,0.0165,-0.0004,-0.0035,2043
3,0.126,-1.0061,-0.084,0.0172,0.0109,0.0008,2044
3,0.1226,-1.0044,-0.0857,0.0101,0.0111,-0.0051,2047
3,0.1323,-1.0046,-0.0959,0.0154,0.0208,-0.0049,2048
3,0.1318,-1.0039,-0.0977,0.0097,0.0164,-0.0055,2049
3,0.137,-1.0037,-0.0859,0.0107,0.0079,0.0004,2049
3,0.1487,-1.0029,-0.0977,0.0085,0.0096,0.0031,2044
3,0.1479,-1.0105,-0.0984,0.0048,0.0123,0.0093,2052
3,0.144,-1.0073,-0.0908,0.0156,0.0216,0.0112,2045
3,0.137,-1.0015,-0.0901,0.0166,0.0308,0.0181,2048
3,0.1421,-1.0115,-0.0833,0.0109,0.0329,0.0252,2046
3,0.1455,-1.0083,-0.0742,0.0065,0.0337,0.0258,2050
3,0.1365,-1.0103,-0.0854,0.0021,0.0451,0.0278,2047
3,0.1394,-0.9993,-0.0835,0.004,0.0511,0.0326,2052
3,0.1316,-1.0007,-0.0903,-0.0067,0.0478,0.0354,2049
3,0.1309,-1.0059,-0.0798,-0.0023,0.0439,0.0346,2046
3,0.1262,-1.0051,-0.0869,-0.0047,0.0357,0.0333,2107
3,0.1316,-1.009,-0.0811,-0.0065,0.0357,0.037,2056
3,0.1333,-1.0063,-0.0842,-0.0141,0.0362,0.0385,2042
3,0.1284,-1.0034,-0.0764,-0.0107,0.0364,0.0382,2043
3,0.1252,-1.0061,-0.0764,-0.0148,0.0443,0.0368,2038
3,0.1162,-1.0029,-0.0823,-0.0128,0.0414,0.036,2043
3,0.1182,-1.0061,-0.0852,-0.0096,0.0362,0.0329,2039
3,0.1128,-1.0034,-0.0854,-0.0117,0.0326,0.0304,2045
4,0.1204,-1.0068,-0.0872,-0.014,0.0305,0.0262,2047
4,0.1265,-1.0051,-0.0923,-0.0105,0.0177,0.0209,2047
4,0.1184,-1.0137,-0.092,-0.0037,0.0236,0.0217,2047
4,0.1221,-1.0054,-0.0857,-0.0073,0.0233,0.0225,2051
4,0.1262,-1.0071,-0.0747,-0.01,0.0169,0.0185,2045
4,0.1189,-1.0022,-0.0774,-0.0077,0.0234,0.0153,2047
4,0.1238,-1.0083,-0.0886,-0.0067,0.0193,0.0156,2044
4,0.1311,-1.0088,-0.083,-0.0084,0.0176,0.0173,2046
4,0.1318,-1.0034,-0.0869,-0.0103,0.0209,0.0161,2046
4,0.1274,-1.0093,-0.0969,-0.0048,0.027,0.0184,2047
4,0.1187,-1.0032,-0.0935,-0.006,0.0274,0.0134,2046
4,0.1216,-1.0049,-0.0864,-0.0043,0.0238,0.0129,2042
4,0.1228,-1.0076,-0.0957,0.0024,0.0189,0.0109,2051
4,0.1323,-0.9934,-0.0911,-0.0032,0.019,0.0124,2047
4,0.1333,-1.0142,-0.0962,-0.0013,0.0204,0.0125,2048
4,0.1238,-1.0088,-0.0906,0.0037,0.016,0.0111,2047
4,0.1238,-1.0103,-0.0786,-0.002,0.0125,0.0125,2049
4,0.125,-1.0068,-0.084,0.0016,0.0148,0.0145,2045
4,0.1328,-1.0044,-0.0984,-0.0027,0.0205,0.0145,2052
4,0.1409,-1.002,-0.0852,-0.0003,0.0272,0.0193,2048
4,0.1333,-1.0112,-0.0925,-0.0081,0.0285,0.0201,2045
4,0.1384,-1.0061,-0.0925,-0.0055,0.0282,0.0268,2047
4,0.1392,-1.0027,-0.0908,-0.0015,0.0435,0.0308,2046
4,0.137,-1.0093,-0.0986,0.0013,0.0453,0.0354,2049
4,0.1458,-1.0068,-0.1028,0.0016,0.0469,0.0402,2046
4,0.1326,-1.0073,-0.105,0.0036,0.0479,0.0418,2047
4,0.1292,-1.0107,-0.1035,0.0029,0.0447,0.0474,2049
4,0.1323,-1.0134,-0.0847,-0.004,0.0402,0.0518,2043
4,0.1245,-1.0078,-0.0579,-0.0043,0.0437,0.053,2046
4,0.1243,-1.0122,-0.0742,-0.01,0.0454,0.051,2050
4,0.1326,-1.0007,-0.082,-0.006,0.0535,0.0541,2052
4,0.1245,-1.002,-0.0935,-0.0068,0.0595,0.0559,2048
4,0.1255,-1.0054,-0.0972,-0.0099,0.0469,0.0609,2042
4,0.124,-1.0117,-0.082,-0.0152,0.0374,0.0563,2047
4,0.1162,-1.0073,-0.0872,-0.0099,0.0305,0.055,2047
4,0.1221,-1.01,-0.0886,-0.0015,0.0232,0.0535,2044
4,0.1284,-1.0073,-0.0876,0.0007,0.0302,0.053,2045
4,0.1365,-1.0066,-0.0806,-0.0111,0.0427,0.0589,2047
4,0.1206,-1.0059,-0.0811,-0.0071,0.0398,0.0605,2042
4,0.1118,-1.0054,-0.0896,-0.0108,0.0401,0.0625,2053
4,0.1108,-1.01,-0.0854,-0.0172,0.0306,0.0587,2048
4,0.1169,-1.0088,-0.0835,-0.0073,0.0093,0.0537,2048
4,0.1245,-1.0042,-0.1042,0.0015,0.0011,0.0547,2043
4,0.1257,-1.001,-0.104,0.002,0.0095,0.057,2045
4,0.1172,-1.0093,-0.092,0.0085,0.0313,0.0571,2055
4,0.1177,-1.0122,-0.0752,-0.0019,0.0443,0.0589,2039
4,0.1104,-1.0076,-0.0718,-0.0083,0.0356,0.0547,2050
4,0.1121,-1.0059,-0.071,-0.0129,0.0274,0.0549,2046
4,0.1182,-1.0088,-0.0803,-0.0131,0.037,0.0503,2053
4,0.1187,-1.0042,-0.0962,-0.0164,0.0435,0.0547,2044
4,0.1123,-1.0129,-0.0894,-0.0044,0.0356,0.0505,2049
4,0.1121,-1.0083,-0.1067,-0.006,0.0312,0.0514,2049
4,0.1125,-1.0039,-0.085,-0.0109,0.0201,0.0531,2046
4,0.1138,-1.0044,-0.0994,-0.0087,0.0096,0.0467,2048
4,0.1042,-1.0022,-0.0938,-0.0089,0.0057,0.0423,2045
4,0.1174,-1.0029,-0.1038,-0.0039,0.0129,0.0441,2050
4,0.1101,-1.0129,-0.0833,-0.008,0.0172,0.0414,2046
4,0.1228,-1.0142,-0.0876,-0.0156,0.0241,0.0443,2047
4,0.1135,-1.0049,-0.0828,-0.0169,0.0246,0.0445,2049
4,0.1199,-1.0186,-0.1003,-0.0113,0.0198,0.0437,2047
4,0.1116,-1.0029,-0.0959,-0.0092,0.0266,0.0431,2048
4,0.1213,-1.0044,-0.1001,-0.0056,0.0373,0.0454,2049
4,0.1123,-1.0034,-0.0916,-0.0061,0.0378,0.0487,2046
4,0.115,-0.9976,-0.1091,-0.0012,0.0395,0.0533,2044
4,0.116,-1.0071,-0.0886,-0.0049,0.0189,0.0518,2044
4,0.1199,-1.01,-0.1064,0.0008,0.0194,0.0489,2048
4,0.1133,-1.0051,-0.0964,0.0009,0.0292,0.0569,2050
4,0.104,-1.0085,-0.085,-0.0061,0.0298,0.0507,2050
4,0.1045,-1.0078,-0.0796,-0.0085,0.0266,0.0514,2050
4,0.0999,-1.0032,-0.0811,-0.0145,0.0268,0.0482,2044
4,0.1089,-1.012,-0.0886,-0.0123,0.0228,0.0457,2043
4,0.1116,-1.0093,-0.1028,-0.0077,0.0156,0.0439,2048
4,0.1121,-1.0117,-0.0959,-0.0032,0.0165,0.0451,2050
4,0.0991,-1.0105,-0.0869,-0.0105,0.0224,0.0442,2047
4,0.0928,-1.0012,-0.0842,-0.0061,0.0181,0.0446,2038
4,0.0962,-1.0054,-0.0737,-0.0116,0.0136,0.036,2045
4,0.1042,-1.0098,-0.1001,-0.0085,0.0088,0.0336,2046
4,0.1125,-1.0078,-0.0896,-0.0036,0.018,0.0322,2049
4,0.1064,-1.0024,-0.0874,-0.0039,0.0245,0.0336,2045
4,0.1008,-1.0034,-0.0923,0.0008,0.023,0.0262,2048
4,0.0981,-1.0054,-0.0842,-0.0037,0.0134,0.0298,2052
4,0.1077,-1.0112,-0.093,-0.0009,0.0123,0.0269,2039
4,0.1167,-1.009,-0.0925,0.0024,0.0194,0.0301,2045
4,0.1055,-1.0073,-0.0984,0.0036,0.0246,0.0344,2049
4,0.1062,-1.0059,-0.0889,0.0015,0.0245,0.0361,2042
4,0.1047,-1.0061,-0.0864,-0.0032,0.0212,0.032,2047
4,0.0952,-1.0012,-0.0862,-0.0073,0.0132,0.0345,2045
4,0.1128,-1.0093,-0.0889,-0.0052,-0.0012,0.0289,2047
4,0.1069,-1.01,-0.1091,0.0033,0.0192,0.0316,2048
4,0.1094,-1.0093,-0.1086,0.0153,0.0273,0.0318,2053
4,0.1145,-1.0066,-0.0938,0.0156,0.0266,0.0297,2044
4,0.1067,-1.0078,-0.0842,0.0145,0.0245,0.0258,2045
4,0.1016,-1.0171,-0.0813,0.0047,0.0173,0.0261,2052
4,0.0923,-1.0085,-0.0903,0.0012,0.0169,0.0256,2046
4,0.1013,-1.0132,-0.0886,0.0065,0.0008,0.0197,2047
4,0.105,-1.0032,-0.104,0.0178,-0.0072,0.0192,2048
4,0.1113,-1.0115,-0.1008,0.0212,-0.0088,0.017,2047
4,0.1204,-1.0137,-0.1064,0.0224,-0.0077,0.0246,2046
4,0.1084,-1.0093,-0.1094,0.0286,0.0064,0.0308,2052
4,0.1143,-1.0107,-0.0771,0.045,0.0064,0.0234,2046
4,0.116,-1.0159,-0.0928,0.0419,0.0158,0.0293,2047
4,0.1064,-1.0017,-0.0781,0.0365,0.0218,0.0326,2046
4,0.1025,-1.0115,-0.0969,0.0454,0.0226,0.0297,2048
5,0.0945,-1.009,-0.0935,0.0494,0.0205,0.0284,2054
5,0.0945,-1.0093,-0.0935,0.0549,0.0173,0.0285,2053
5,0.113,-1.0066,-0.0945,0.0433,0.0166,0.0284,2043
5,0.103,-1.0061,-0.1006,0.0324,0.0184,0.0353,2053
5,0.113,-1.0081,-0.0884,0.0198,0.0446,0.0349,2042
5,0.105,-1.0073,-0.0867,0.0156,0.0486,0.0372,2037
5,0.0898,-1.0151,-0.0725,0.0092,0.0438,0.0381,2046
5,0.0833,-1.0107,-0.0679,0.0154,0.0281,0.0329,2046
5,0.1025,-1.0081,-0.0723,0.0093,0.027,0.0252,2045
5,0.0979,-1.0056,-0.1008,0.0095,0.0328,0.0238,2052
5,0.104,-1.0059,-0.1077,0.0044,0.0606,0.0305,2044
5,0.1067,-1.0093,-0.0996,0.0142,0.0622,0.0317,2052
5,0.1003,-1.0137,-0.0874,0.0117,0.0666,0.0278,2047
5,0.093,-1.0007,-0.0664,0.0004,0.0486,0.0272,2046
5,0.1018,-1.0076,-0.0862,-0.0048,0.0405,0.0296,2057
5,0.1091,-1.0071,-0.0913,0.0067,0.034,0.0269,2047
5,0.1096,-1.0046,-0.0769,0.0024,0.0328,0.0308,2044
5,0.0986,-1.011,-0.0876,0.0013,0.0305,0.0308,2047
5,0.1033,-1.0051,-0.0774,0.0031,0.019,0.0316,2041
5,0.1138,-1.0073,-0.0994,-0.0047,0.033,0.0333,2056
5,0.1094,-1.0085,-0.0977,-0.0056,0.0365,0.0349,2038
5,0.1057,-1.0098,-0.104,0.0189,0.0415,0.0352,2049
5,0.1062,-0.9985,-0.0955,0.0115,0.0499,0.0358,2049
5,0.1108,-1.0066,-0.0957,0.0123,0.1003,0.0433,2050
5,0.1077,-1.0146,-0.0701,0.0096,0.1092,0.0471,2043
5,0.0911,-1.0117,-0.0803,0.0123,0.1076,0.0445,2045
5,0.1099,-1.0044,-0.0813,-0.0091,0.1463,0.0521,2046
5,0.1047,-1.0149,-0.083,-0.0037,0.1309,0.0455,2048
5,0.0989,-1.0071,-0.0908,-0.0095,0.1141,0.047,2050
5,0.0911,-1.0132,-0.0791,-0.01,0.0936,0.0497,2047
5,0.0913,-1.0076,-0.0801,-0.014,0.0668,0.0478,2050
5,0.0935,-1.0078,-0.0916,-0.0037,0.0384,0.0419,2036
5,0.105,-1.0085,-0.0911,0.0148,0.0309,0.0413,2055
5,0.1108,-1.0044,-0.1064,0.0229,0.0373,0.0399,2057
5,0.1077,-1.0127,-0.0928,-0.0123,0.1213,0.055,2048
5,0.106,-1.0046,-0.0903,0.0016,0.131,0.0621,2049
5,0.085,-1.01,-0.0896,0.0067,0.1172,0.0617,2041
5,0.1018,-1.009,-0.0818,-0.015,0.1011,0.0585,2046
5,0.0972,-1.0107,-0.1057,-0.0047,0.1117,0.0574,2049
5,0.1045,-1.0083,-0.1179,0.0032,0.1438,0.061,2048
5,0.0886,-1.0015,-0.0994,-0.0125,0.1606,0.0663,2044
5,0.0984,-1.0149,-0.0745,-0.0107,0.1422,0.07,2046
5,0.0847,-1.0034,-0.075,0.0075,0.1116,0.0642,2045
5,0.0864,-1.0032,-0.0532,-0.0192,0.0902,0.0634,2061
5,0.0847,-1.0051,-0.0786,-0.0224,0.0925,0.0573,2041
5,0.095,-1.0105,-0.0774,-0.0196,0.0891,0.0609,2041
5,0.095,-1.0115,-0.0981,-0.0015,0.0868,0.0566,2048
5,0.1218,-1.0122,-0.0933,-0.0049,0.1979,0.0607,2043
5,0.0889,-1.0205,-0.0769,-0.0079,0.2159,0.0651,2054
5,0.0676,-1.0012,-0.0625,-0.0057,0.1854,0.0622,2056
5,0.0793,-1.0093,-0.0664,-0.0197,0.1619,0.0546,2048
5,0.0845,-1.0088,-0.0747,-0.0338,0.1615,0.0566,2037
5,0.0649,-1.0088,-0.0681,-0.0322,0.1416,0.0505,2053
5,0.0913,-1.0039,-0.0813,-0.029,0.1169,0.045,2060
5,0.0986,-1.0103,-0.0972,-0.0332,0.1041,0.0489,2036
5,0.0996,-1.0107,-0.124,-0.0282,0.1298,0.0497,2045
5,0.0818,-1.0112,-0.1003,-0.0154,0.1404,0.0531,2043
5,0.0613,-1.0032,-0.0718,-0.0189,0.1139,0.045,2046
5,0.0632,-1.0061,-0.0801,-0.0117,0.0743,0.0381,2049
5,0.0718,-1.0164,-0.0525,-0.016,0.0338,0.0352,2044
5,0.0557,-1.002,-0.0684,0.0083,-0.0111,0.0282,2050
5,0.0874,-1.0044,-0.0698,-0.0194,0.0088,0.0188,2044
5,0.1021,-1.009,-0.0979,-0.0485,0.063,0.0308,2041
5,0.0818,-1.0054,-0.0811,-0.0332,0.0622,0.0261,2029
5,0.0881,-1.0127,-0.1064,-0.0421,0.0899,0.032,2052
5,0.0767,-1.0051,-0.1023,-0.041,0.0883,0.0278,2049
5,0.0847,-1.0046,-0.0945,-0.0317,0.0653,0.0189,2047
5,0.0906,-1.0178,-0.1011,-0.0156,0.0535,0.0236,2046
5,0.0842,-1.0105,-0.0923,0.0047,0.0248,0.0264,2049
5,0.0864,-1.0107,-0.0903,0.0127,0.026,0.0272,2037
5,0.0896,-1.0115,-0.0728,0.012,0.0388,0.032,2045
5,0.0935,-1.0134,-0.0901,0.0115,0.0479,0.0358,2045
5,0.095,-1.011,-0.0825,-0.0092,0.0831,0.0435,2044
5,0.0928,-1.0093,-0.0957,-0.0169,0.1055,0.0449,2058
5,0.092,-1.0078,-0.0999,-0.0479,0.1245,0.0511,2082
5,0.0906,-1.0115,-0.1018,-0.0501,0.145,0.0535,2043
5,0.0901,-1.01,-0.0955,-0.0567,0.1615,0.055,2042
5,0.0779,-1.0181,-0.1003,-0.0474,0.1494,0.059,2044
5,0.0774,-1.012,-0.0852,-0.0322,0.1202,0.0529,2054
5,0.0745,-1.0059,-0.0767,-0.0306,0.1061,0.0522,2056
5,0.0649,-1.0095,-0.0625,-0.03,0.0803,0.0466,2044
5,0.0676,-1.0066,-0.0686,-0.0081,0.0245,0.0417,2052
5,0.0562,-1.0085,-0.092,0.0035,0.0051,0.0402,2056
5,0.0681,-1.0059,-0.075,-0.0053,-0.0077,0.0336,2048
5,0.0791,-1.0037,-0.0916,-0.0037,-0.0194,0.0304,2004
5,0.0938,-1.0017,-0.0918,-0.0177,0.0253,0.0353,2062
5,0.0833,-1.01,-0.094,-0.0158,0.0625,0.0377,2049
5,0.0703,-1.0027,-0.0908,-0.0225,0.061,0.0366,2044
5,0.0625,-1.012,-0.084,-0.0222,0.0567,0.0317,2079
5,0.0918,-1.0051,-0.0928,-0.0277,0.0732,0.0302,2064
5,0.0674,-1.021,-0.0977,-0.0398,0.0981,0.0276,2046
5,0.0579,-1.0066,-0.0952,-0.0206,0.0767,0.0246,2066
5,0.0547,-1.0032,-0.0784,-0.0321,0.0538,0.0169,2043
5,0.0811,-1.0059,-0.0938,-0.0222,0.0264,0.0134,2051
5,0.0903,-1.0129,-0.0974,-0.0142,0.0253,0.015,2046
5,0.0884,-1.0222,-0.0864,-0.0101,0.0121,0.0233,2046
5,0.0813,-1.0093,-0.0806,-0.0115,-0.0077,0.0244,2060
5,0.0737,-1.0178,-0.0862,-0.0124,-0.0209,0.0261,2045
5,0.0916,-1.0078,-0.0977,-0.0128,-0.0099,0.0233,2056
5,0.1021,-1.0144,-0.1133,-0.0068,0.0274,0.03,2054
5,0.0806,-1.0127,-0.0977,-0.0083,0.0537,0.0356,2044
5,0.0652,-1.0088,-0.0796,-0.0133,0.0489,0.0304,2047
6,0.0813,-1.0051,-0.1035,-0.0141,0.0583,0.0358,2051
6,0.0608,-1.0039,-0.0999,-0.0117,0.0462,0.0345,2058
6,0.0752,-0.9973,-0.092,-0.0246,0.0606,0.0246,2044
6,0.0874,-1.0168,-0.092,-0.0341,0.0635,0.029,2041
6,0.0732,-1.0107,-0.0957,-0.0292,0.0373,0.031,2051
6,0.0598,-1.0117,-0.0869,-0.0284,0.0144,0.0233,2066
6,0.0718,-1.012,-0.0974,-0.0089,0.0067,0.0204,2032
6,0.0676,-1.0122,-0.1001,0.0,0.0169,0.021,2065
6,0.0876,-1.0076,-0.0979,-0.0067,0.0345,0.0164,2042
6,0.0942,-1.0125,-0.1128,-0.0061,0.0928,0.0274,2057
6,0.073,-1.0017,-0.1094,-0.0134,0.0879,0.0304,2048
6,0.085,-1.0117,-0.1213,-0.0049,0.0858,0.0349,2045
6,0.1006,-1.0129,-0.1116,-0.0161,0.1155,0.043,2050
6,0.0808,-1.0129,-0.1018,-0.0017,0.0952,0.0442,2046
6,0.0662,-1.0105,-0.0906,0.0057,0.0807,0.0441,2042
6,0.0757,-1.0107,-0.0789,0.0029,0.0627,0.0425,2053
6,0.075,-1.0171,-0.1062,0.0073,0.1083,0.047,2056
6,0.071,-1.0095,-0.0881,0.0052,0.0961,0.043,2050
6,0.0652,-1.0146,-0.0818,0.0017,0.0852,0.0466,2046
6,0.0549,-1.002,-0.0767,-0.0128,0.0722,0.0414,2059
6,0.0544,-0.9983,-0.0928,-0.0177,0.0466,0.031,2045
6,0.094,-1.0173,-0.1147,-0.0154,0.1048,0.0356,2049
6,0.071,-1.0129,-0.1003,-0.0115,0.1027,0.0381,2050
6,0.064,-1.0046,-0.0911,-0.0115,0.0997,0.0366,2037
6,0.0688,-1.0137,-0.0945,-0.0141,0.0979,0.035,2037
6,0.0544,-1.0078,-0.0823,-0.0048,0.0999,0.032,2036
6,0.0576,-1.001,-0.0793,-0.0185,0.069,0.0262,2053
6,0.0767,-1.009,-0.0918,-0.025,0.0585,0.025,2060
6,0.0725,-1.0134,-0.0999,-0.0386,0.075,0.0306,2032
6,0.0605,-1.0046,-0.0928,-0.0373,0.0525,0.0229,2044
6,0.0554,-1.012,-0.0894,-0.0261,0.0225,0.0218,2051
6,0.0562,-1.0063,-0.0789,-0.0095,-0.0116,0.0149,2060
6,0.0493,-1.01,-0.0898,0.0055,-0.0546,0.0071,2034
6,0.0718,-1.01,-0.082,-0.0031,-0.0333,0.0057,2039
6,0.0825,-1.0081,-0.092,-0.008,-0.0346,0.0069,2050
6,0.0757,-1.0142,-0.1208,-0.0103,-0.0108,0.0128,2053
6,0.0713,-1.0115,-0.0962,-0.0099,0.0035,0.0072,2007
6,0.0742,-1.0098,-0.0928,-0.0266,0.0265,0.0103,2029
6,0.0664,-1.0088,-0.1008,-0.0252,0.0298,0.0076,2051
6,0.0645,-1.0168,-0.1082,-0.0173,0.0148,0.0051,2048
6,0.0586,-1.0095,-0.1023,-0.0113,0.015,0.0013,2042
6,0.0637,-1.01,-0.095,-0.0069,0.0109,0.0028,2049
6,0.0769,-1.0054,-0.0891,-0.0087,-0.0061,0.0004,2049
6,0.073,-1.0181,-0.0896,-0.0105,-0.0206,0.0008,2050
6,0.0664,-1.0154,-0.0974,-0.0069,-0.033,0.0051,2032
6,0.071,-1.0073,-0.0923,-0.0067,-0.047,0.0055,2050
6,0.0881,-1.0129,-0.0999,-0.0003,-0.0791,0.0067,2022
6,0.0977,-1.0085,-0.1077,0.0131,-0.0482,0.0113,2041
6,0.0786,-1.0132,-0.1008,0.0148,-0.0322,0.0192,2041
6,0.0767,-1.0159,-0.1086,0.0109,-0.0358,0.0189,2048
6,0.0764,-1.0076,-0.1001,0.0117,-0.027,0.0178,2049
6,0.0852,-1.0125,-0.1133,0.0115,-0.025,0.0216,2071
6,0.0747,-1.0088,-0.0981,0.0036,-0.0193,0.0296,2047
6,0.0686,-1.0164,-0.0942,0.0003,-0.0382,0.0238,2055
6,0.0674,-1.0171,-0.0769,-0.0049,-0.0551,0.0253,2071
6,0.0994,-1.0061,-0.1011,-0.0205,-0.0262,0.0305,2034
6,0.0806,-1.0137,-0.1213,0.0031,-0.0091,0.0322,2042
6,0.084,-1.0076,-0.1123,0.0013,0.0037,0.0349,2046
6,0.0596,-1.0166,-0.0854,-0.0065,-0.0089,0.032,2036
6,0.0579,-1.0098,-0.1003,-0.0092,-0.0138,0.028,2042
6,0.0637,-1.0132,-0.0923,-0.0142,-0.0366,0.0232,2050
6,0.0562,-1.011,-0.0942,-0.0127,-0.0613,0.0178,2051
6,0.0491,-1.012,-0.0632,-0.0189,-0.131,0.01,2052
6,0.0442,-1.0183,-0.0681,-0.0184,-0.2095,-0.0008,2045
6,0.0747,-1.0127,-0.0974,-0.0166,-0.2067,-0.0119,2049
6,0.1218,-1.0117,-0.1296,-0.0288,-0.0441,0.0138,2025
6,0.1008,-1.0085,-0.1399,-0.0107,-0.0241,0.0258,2037
6,0.0823,-1.0122,-0.1174,0.0048,0.006,0.0284,2056
6,0.0667,-1.0212,-0.106,-0.0025,-0.0144,0.0285,2055
6,0.0693,-1.0071,-0.1008,0.0,0.0313,0.025,2054
6,0.0566,-1.0115,-0.1025,-0.0068,0.0184,0.0204,2048
6,0.0691,-1.0168,-0.1086,-0.0097,0.0081,0.023,2061
6,0.0723,-1.0098,-0.1028,-0.0104,0.0041,0.0186,2024
6,0.074,-1.0105,-0.1125,0.0087,-0.0031,0.017,2040
6,0.0781,-1.0176,-0.1152,0.0053,0.0164,0.0206,2053
6,0.0623,-1.0071,-0.0964,0.0028,0.0061,0.0181,2040
6,0.0649,-1.0088,-0.0947,-0.0067,-0.0039,0.0152,2044
6,0.061,-1.01,-0.0974,-0.0059,-0.0131,0.0125,2026
6,0.0657,-1.0122,-0.0898,-0.0068,-0.0061,0.0085,2047
6,0.0679,-1.0105,-0.0959,-0.0035,-0.0068,0.004,2050
6,0.0767,-1.0112,-0.1008,-0.0136,0.0172,0.0067,2044
6,0.0732,-1.0098,-0.1138,-0.0087,0.0164,0.0068,2031
6,0.0859,-1.0049,-0.1121,-0.0048,0.0421,0.0103,2042
6,0.0898,-1.0129,-0.1099,0.0015,0.0521,0.0128,2052
6,0.0642,-1.0078,-0.0947,0.002,0.0441,0.016,2047
6,0.0659,-1.012,-0.1023,-0.0044,0.0297,0.0133,2053
6,0.0674,-1.0107,-0.095,0.0007,0.0205,0.0109,2044
6,0.0842,-1.0142,-0.0981,0.0004,0.0154,0.0128,2041
6,0.0886,-1.0081,-0.0989,-0.0051,0.016,0.0148,2041
6,0.0835,-1.012,-0.0889,-0.006,0.0212,0.0201,2051
6,0.0806,-1.0095,-0.1067,-0.0049,0.0092,0.0228,2051
6,0.0813,-1.0168,-0.103,-0.0044,0.0023,0.0282,2044
6,0.0833,-1.0183,-0.1147,-0.0068,0.0149,0.0312,2047
6,0.0645,-1.02,-0.0969,-0.0127,0.0077,0.0337,2046
6,0.0938,-1.0144,-0.0935,-0.0152,-0.0089,0.0313,2049
6,0.0828,-1.0149,-0.1018,-0.0238,-0.0053,0.0365,2036
6,0.0649,-1.0146,-0.0974,-0.0033,-0.0244,0.0388,2051
6,0.0789,-1.0142,-0.0916,-0.0172,-0.026,0.035,2044
6,0.0713,-1.0068,-0.0945,-0.0164,-0.0398,0.0393,2044
6,0.0691,-1.0132,-0.0896,-0.0115,-0.049,0.0364,2050
6,0.0642,-1.0139,-0.0881,-0.0172,-0.0711,0.0373,2045
7,0.061,-1.0037,-0.0845,-0.0168,-0.1007,0.0301,2050
7,0.0591,-1.0232,-0.0789,-0.0169,-0.1334,0.0306,2053
7,0.0654,-1.011,-0.0942,-0.0169,-0.1751,0.0242,2046
7,0.0701,-1.0186,-0.0964,-0.0161,-0.21,0.0172,2049
7,0.0718,-1.0166,-0.1052,-0.0039,-0.2232,0.0123,2047
7,0.0657,-1.0054,-0.0989,0.0071,-0.239,0.016,2044
7,0.0737,-1.01,-0.1033,0.012,-0.2498,0.0149,2045
7,0.0801,-1.0181,-0.1169,0.0188,-0.2452,0.01,2054
7,0.0701,-1.0115,-0.1282,0.0224,-0.2179,0.01,2045
7,0.073,-1.0034,-0.1189,0.0268,-0.1956,0.0119,2047
7,0.071,-1.0085,-0.1177,0.0225,-0.1876,0.0128,2044
7,0.0759,-1.0051,-0.1082,0.0173,-0.1708,0.0125,2047
7,0.0801,-1.0125,-0.1204,0.0119,-0.1574,0.0131,2049
7,0.0757,-1.0059,-0.1128,0.01,-0.1353,0.0152,2048
7,0.0815,-1.012,-0.1106,0.014,-0.1108,0.0198,2051
7,0.0811,-1.0117,-0.1208,0.0129,-0.0941,0.0196,2049
7,0.0715,-1.0151,-0.1155,0.0173,-0.0686,0.0194,2048
7,0.0725,-1.0085,-0.1116,0.0201,-0.0707,0.0213,2044
7,0.0759,-1.0156,-0.1196,0.0221,-0.0655,0.0165,2048
7,0.0754,-1.009,-0.1025,0.0134,-0.0569,0.0193,2042
7,0.0752,-1.009,-0.1128,0.012,-0.0503,0.0149,2050
7,0.0657,-1.0098,-0.105,0.0129,-0.0426,0.0166,2048
7,0.0608,-1.0071,-0.1021,0.0055,-0.032,0.0112,2048
7,0.0615,-1.0115,-0.1001,0.0072,-0.027,0.0047,2046
7,0.0647,-1.0151,-0.1016,0.0033,-0.0273,0.002,2052
7,0.0642,-1.0088,-0.1064,0.0132,-0.0196,-0.0032,2049
7,0.0559,-1.0078,-0.1116,0.0115,-0.0213,-0.0096,2047
7,0.0774,-1.0081,-0.1101,0.0141,-0.0164,-0.0127,2047
7,0.0708,-1.0112,-0.1082,0.0108,-0.021,-0.0116,2048
7,0.0872,-1.0164,-0.1072,0.0107,-0.0177,-0.0096,2050
7,0.0732,-1.0107,-0.1021,0.0127,-0.0117,-0.006,2060
7,0.0872,-1.0112,-0.1055,0.0088,-0.0049,-0.0039,2045
7,0.085,-1.0154,-0.1101,0.0132,-0.0051,-0.0028,2045
7,0.0901,-1.0107,-0.1089,0.0161,0.0041,-0.0003,2041
7,0.0823,-1.0071,-0.1116,0.0134,0.0055,0.0056,2049
7,0.0828,-1.0054,-0.1079,0.015,0.0125,0.0075,2044
7,0.0767,-1.01,-0.1047,0.0116,0.0073,0.0071,2051
7,0.0801,-1.0083,-0.0977,0.0131,0.0048,0.0055,2048
7,0.0796,-1.0144,-0.1038,0.0107,0.0104,0.0065,2048
7,0.071,-1.0151,-0.1106,0.0107,0.0178,0.0081,2040
7,0.071,-1.0139,-0.1003,0.0142,0.0111,0.0024,2051
7,0.0786,-1.0129,-0.1003,0.0115,0.0057,0.0031,2039
7,0.0667,-1.0112,-0.094,0.0131,0.0057,0.0021,2048
7,0.0662,-1.0105,-0.1001,0.0091,0.0069,-0.0031,2048
7,0.0718,-1.0132,-0.1116,0.0081,0.0036,-0.0051,2048
7,0.071,-1.0171,-0.1028,0.0083,0.0081,-0.0088,2055
7,0.083,-1.0083,-0.1045,-0.0004,0.0003,-0.008,2046
7,0.0867,-1.0081,-0.1028,0.0073,0.0012,-0.0109,2048
7,0.0796,-1.0085,-0.1038,0.0107,-0.0033,-0.0056,2052
7,0.0779,-1.0144,-0.1143,0.0137,0.006,-0.0076,2048
7,0.084,-1.0078,-0.1089,0.0089,0.0036,-0.0088,2046
7,0.0776,-1.0129,-0.0957,0.0131,0.0016,-0.0099,2046
7,0.0881,-1.0151,-0.0964,0.0009,0.0037,-0.0076,2053
7,0.0837,-1.0122,-0.1016,0.0081,0.0012,-0.0101,2052
7,0.0845,-1.0159,-0.0962,0.0019,0.0024,-0.0004,2052
7,0.0813,-1.0068,-0.092,-0.0032,0.008,-0.0032,2046
7,0.0776,-1.0117,-0.0876,0.0021,0.0108,-0.0033,2035
7,0.0718,-1.0066,-0.1013,0.0061,0.0144,-0.006,2054
7,0.0801,-1.0063,-0.1006,-0.0037,0.0101,-0.0077,2042
7,0.0706,-1.011,-0.1062,0.0073,0.0003,-0.0089,2040
7,0.0859,-1.0103,-0.115,0.0115,-0.008,-0.0136,2044
7,0.0881,-1.0198,-0.1096,0.0154,-0.0049,-0.0149,2053
7,0.0903,-1.0085,-0.1001,0.0145,0.0059,-0.0096,2046
7,0.0798,-1.0132,-0.0977,0.0237,0.0091,-0.0115,2052
7,0.0723,-1.009,-0.1055,0.0277,0.006,-0.0132,2049
7,0.0723,-1.0122,-0.0918,0.0228,0.0132,-0.0169,2044
7,0.0642,-1.0032,-0.1042,0.0168,0.0172,-0.0162,2048
7,0.0774,-1.0144,-0.1069,0.0269,0.0136,-0.0216,2053
7,0.0889,-1.0156,-0.095,0.0272,0.0085,-0.0218,2052
7,0.0947,-1.0071,-0.1089,0.031,0.0111,-0.0212,2045
7,0.0889,-1.0071,-0.1028,0.0276,0.0172,-0.0181,2046
7,0.0925,-1.0105,-0.0964,0.0342,0.0213,-0.0153,2046
7,0.0859,-1.0073,-0.0994,0.0277,0.016,-0.0142,2055
7,0.085,-1.0071,-0.1028,0.02,0.0043,-0.0161,2050
7,0.0896,-1.0076,-0.1082,0.0281,0.0089,-0.0217,2042
7,0.0857,-1.011,-0.1194,0.0285,0.0131,-0.0204,2045
7,0.0876,-1.0122,-0.0984,0.0326,0.0128,-0.0232,2046
7,0.0813,-1.011,-0.103,0.0308,0.0073,-0.0238,2044
7,0.0828,-1.0066,-0.0942,0.0304,-0.0072,-0.0301,2045
7,0.0864,-1.0093,-0.0938,0.0364,-0.0035,-0.026,2046
7,0.0842,-1.0098,-0.0884,0.0414,0.0087,-0.0305,2045
7,0.0845,-1.01,-0.0969,0.0401,0.012,-0.0301,2044
7,0.0815,-1.0115,-0.0842,0.0305,-0.0008,-0.0324,2050
7,0.0811,-1.011,-0.0784,0.0309,-0.0081,-0.0369,2047
7,0.0823,-1.0149,-0.0894,0.0206,0.0009,-0.0361,2049
7,0.085,-1.0063,-0.0867,0.0269,0.0107,-0.0406,2045
7,0.0796,-1.0098,-0.0908,0.0297,0.0052,-0.0478,2053
7,0.0859,-1.0081,-0.1052,0.0256,-0.0071,-0.049,2049
7,0.0989,-1.0081,-0.1074,0.0405,-0.0162,-0.0538,2047
7,0.0972,-1.0137,-0.1064,0.0433,-0.0242,-0.0545,2048
7,0.0974,-1.0095,-0.1021,0.0462,-0.0125,-0.0494,2036
7,0.095,-1.0085,-0.0984,0.0477,-0.0064,-0.0555,2042
7,0.0859,-1.0078,-0.0869,0.037,-0.0084,-0.0523,2053
7,0.0916,-1.0088,-0.0752,0.0373,-0.0124,-0.0614,2046
7,0.0859,-1.0066,-0.0896,0.034,-0.0156,-0.063,2053
7,0.0969,-1.0059,-0.0898,0.0274,-0.0141,-0.0662,2053
7,0.1001,-1.012,-0.0999,0.0304,-0.0039,-0.0695,2054
7,0.094,-1.0093,-0.095,0.0197,0.0041,-0.0676,2051
7,0.0903,-1.0022,-0.0942,0.015,0.0048,-0.0722,2053
7,0.103,-1.0059,-0.0894,0.0089,-0.0123,-0.072,2050
7,0.0945,-1.012,-0.0979,0.0027,-0.0077,-0.0786,2047
7,0.0957,-1.0103,-0.1021,0.0083,-0.015,-0.081,2046
8,0.1003,-1.0061,-0.0898,0.0021,-0.0116,-0.0815,2042
8,0.1082,-1.0073,-0.0962,0.0069,-0.0119,-0.0854,2047
8,0.1013,-1.0002,-0.0903,0.0101,-0.0164,-0.0917,2051
8,0.0945,-1.0137,-0.1042,0.0197,-0.0145,-0.0944,2046
8,0.0996,-1.009,-0.0896,0.0262,-0.0174,-0.0999,2047
8,0.1028,-1.0012,-0.0898,0.0256,-0.0192,-0.1021,2042
8,0.106,-1.0085,-0.0957,0.0309,-0.0241,-0.1076,2048
8,0.1138,-0.9988,-0.116,0.0373,-0.02,-0.1123,2047
8,0.1189,-0.9963,-0.1038,0.0414,-0.0152,-0.1136,2046
8,0.1177,-0.999,-0.1155,0.0513,-0.0053,-0.1137,2046
8,0.1118,-1.001,-0.0957,0.0635,-0.0061,-0.1209,2046
8,0.1035,-1.0081,-0.0984,0.0704,-0.0119,-0.1233,2051
8,0.1091,-1.0071,-0.0874,0.0696,-0.0244,-0.1232,2043
8,0.113,-1.0051,-0.0835,0.0756,-0.034,-0.1333,2050
8,0.1262,-1.0032,-0.085,0.0786,-0.0373,-0.1378,2049
8,0.1243,-0.9988,-0.0776,0.073,-0.0238,-0.1356,2053
8,0.1255,-1.0076,-0.0842,0.0804,-0.0105,-0.1381,2048
8,0.1138,-0.999,-0.0767,0.0823,-0.0037,-0.1396,2049
8,0.1174,-1.0112,-0.0745,0.0879,-0.0093,-0.1461,2044
8,0.1182,-0.9902,-0.0803,0.0872,-0.0244,-0.1462,2040
8,0.1252,-1.0034,-0.0798,0.0866,-0.0272,-0.1606,2048
8,0.1321,-1.0005,-0.0813,0.0903,-0.0357,-0.1677,2050
8,0.1438,-1.0156,-0.0776,0.085,-0.0435,-0.1569,2046
8,0.1582,-1.0071,-0.0691,0.0796,-0.0368,-0.1487,2046
8,0.1511,-1.0056,-0.0796,0.0872,-0.0181,-0.161,2056
8,0.1421,-1.022,-0.0837,0.1067,-0.0127,-0.1597,2050
8,0.1604,-0.9958,-0.0793,0.135,-0.0133,-0.1618,2046
8,0.1631,-1.0093,-0.0688,0.132,0.0019,-0.1674,2046
8,0.1433,-1.0088,-0.0771,0.1228,-0.0036,-0.1522,2047
8,0.1577,-1.0063,-0.0642,0.1175,-0.0011,-0.1437,2043
8,0.179,-0.9968,-0.0706,0.1104,0.0044,-0.1362,2050
8,0.1465,-1.0002,-0.0701,0.1033,-0.0016,-0.1424,2048
8,0.1599,-1.0068,-0.0637,0.1133,-0.0253,-0.1417,2044
8,0.167,-0.9917,-0.0601,0.094,-0.0425,-0.1132,2049
8,0.1543,-1.002,-0.0613,0.0835,-0.0462,-0.1104,2045
8,0.1606,-1.0007,-0.0493,0.0802,-0.0489,-0.1099,2043
8,0.157,-1.001,-0.0664,0.0811,-0.0417,-0.1218,2051
8,0.1643,-1.0056,-0.0752,0.0835,-0.0293,-0.1296,2046
8,0.1709,-1.0049,-0.0613,0.0858,-0.0378,-0.1089,2046
8,0.165,-0.9929,-0.0645,0.0883,-0.0385,-0.1091,2046
8,0.1663,-0.9971,-0.0542,0.0743,-0.0407,-0.1173,2047
8,0.1807,-0.9934,-0.0464,0.0686,-0.0499,-0.1019,2048
8,0.1663,-1.0015,-0.0325,0.0394,-0.0514,-0.0803,2049
8,0.1677,-0.989,-0.0479,0.0405,-0.0538,-0.0754,2051
8,0.1785,-1.0129,-0.0464,0.0186,-0.0445,-0.0867,2050
8,0.2068,-0.9868,-0.0696,0.0226,-0.0483,-0.0663,2042
8,0.1919,-1.0046,-0.062,0.025,-0.0237,-0.0571,2042
8,0.2034,-0.9871,-0.063,0.0272,-0.0134,-0.0346,2058
8,0.1902,-1.0039,-0.0681,0.0198,-0.0029,-0.0322,2047
8,0.2031,-0.9988,-0.0615,0.0194,0.0129,-0.0189,2040
8,0.1897,-0.998,-0.0657,0.0208,0.0182,-0.0075,2050
8,0.2053,-1.0044,-0.0784,0.0205,0.0184,0.0032,2048
8,0.1985,-0.9993,-0.0813,0.025,-0.0047,0.0079,2047
8,0.1907,-1.0015,-0.0613,0.0245,0.0071,0.017,2047
8,0.188,-0.9983,-0.0515,0.0123,0.0144,0.0249,2047
8,0.1731,-0.9971,-0.0583,-0.0065,0.0052,0.0297,2051
8,0.1851,-1.0015,-0.0564,-0.0039,0.0213,0.034,2048
8,0.1809,-1.0002,-0.0745,-0.0103,0.0236,0.038,2041
8,0.1704,-1.0059,-0.0564,0.0189,0.0253,0.0369,2047
8,0.1741,-1.0002,-0.0723,0.0212,0.0242,0.0407,2056
8,0.1699,-0.9954,-0.0757,0.0184,0.031,0.0385,2049
8,0.1694,-1.0005,-0.0569,0.0269,0.0107,0.0382,2045
8,0.1567,-0.9941,-0.0491,0.0202,0.0093,0.0386,2051
8,0.1587,-0.9883,-0.0398,0.0152,-0.0101,0.0302,2051
8,0.1689,-0.9958,-0.0437,0.0095,0.004,0.0325,2044
8,0.1887,-0.9951,-0.0498,0.0059,-0.0005,0.0332,2048
8,0.1853,-0.9995,-0.072,0.006,0.0254,0.0457,2053
8,0.1738,-0.998,-0.0664,0.0049,0.0294,0.0425,2046
8,0.1809,-1.0024,-0.0735,0.0092,0.034,0.0474,2048
8,0.1628,-0.9949,-0.075,0.0117,0.0257,0.0525,2052
8,0.1646,-0.9973,-0.075,0.0048,0.0048,0.0511,2046
8,0.1672,-0.9917,-0.062,0.0095,0.0084,0.0462,2047
8,0.1689,-0.9917,-0.0447,0.0027,0.012,0.0473,2044
8,0.1719,-0.9958,-0.0488,0.0081,-0.0043,0.0461,2047
8,0.1807,-0.9939,-0.0576,0.016,-0.0017,0.0409,2046
8,0.1599,-1.001,-0.0525,0.0201,0.0192,0.0441,2043
8,0.1694,-0.9939,-0.0554,0.0121,0.021,0.045,2048
8,0.145,-0.9978,-0.0618,0.0015,0.0228,0.0482,2050
8,0.1577,-0.9949,-0.0544,-0.0068,0.0047,0.0463,2050
8,0.1763,-1.0007,-0.0718,-0.0192,0.0024,0.0469,2047
8,0.1697,-0.9966,-0.074,-0.0073,0.0077,0.0437,2050
8,0.1558,-0.9971,-0.0684,0.0111,0.0248,0.0392,2051
8,0.1602,-0.998,-0.0562,-0.0009,0.0182,0.0376,2049
8,0.156,-0.9932,-0.0552,0.0056,0.0101,0.0345,2052
8,0.155,-0.9983,-0.0603,0.0047,-0.0008,0.0353,2047
8,0.1584,-0.9976,-0.0559,-0.0048,0.0123,0.032,2048
8,0.1753,-0.999,-0.0525,-0.0004,0.0045,0.0365,2044
8,0.1829,-1.0005,-0.0559,-0.0047,0.0137,0.0413,2051
8,0.1777,-1.0029,-0.0535,-0.0023,0.0352,0.043,2042
8,0.1707,-1.0012,-0.0645,-0.0055,0.0475,0.0513,2056
8,0.1577,-0.9976,-0.0474,-0.0176,0.0579,0.0542,2047
8,0.1641,-0.9988,-0.0574,-0.0228,0.0317,0.0527,2051
8,0.1875,-1.0022,-0.0723,-0.022,0.035,0.0589,2051
8,0.1675,-0.9922,-0.0767,-0.0105,0.038,0.0587,2049
8,0.1633,-0.9985,-0.0508,-0.0111,0.0405,0.0618,2047
8,0.1575,-1.002,-0.0522,-0.0027,0.0449,0.0583,2041
8,0.1533,-0.9875,-0.0566,-0.0045,0.0225,0.0547,2045
8,0.157,-0.9932,-0.061,-0.0115,0.0406,0.0534,2042
8,0.1636,-0.9976,-0.082,-0.0067,0.091,0.0629,2039
8,0.1663,-1.0024,-0.0688,-0.0132,0.1156,0.0639,2048
8,0.158,-1.0046,-0.0713,0.0142,0.106,0.0625,2045
8,0.1521,-0.9932,-0.0925,0.0217,0.1128,0.0617,2077
8,0.1638,-0.9871,-0.0938,-0.0097,0.1984,0.0724,2044
8,0.1775,-1.0042,-0.0869,-0.0081,0.2774,0.0759,2038
8,0.1504,-0.9934,-0.0603,-0.0116,0.2575,0.0799,2042
9,0.1355,-1.0063,-0.0344,-0.0166,0.1985,0.07,2048
9,0.1426,-1.0022,-0.0281,-0.0301,0.1318,0.0671,2055
9,0.1475,-0.999,-0.0403,-0.0477,0.1229,0.0695,2048
9,0.1514,-0.9963,-0.0532,-0.0475,0.0995,0.0647,2042
9,0.1565,-1.0022,-0.032,-0.0507,0.081,0.0599,2055
9,0.1521,-1.0051,-0.0532,-0.0289,0.0756,0.0649,2055
9,0.1414,-1.0002,-0.0356,-0.0225,0.0591,0.0563,2046
9,0.1409,-0.9919,-0.0525,-0.0306,0.0308,0.0543,2047
9,0.1343,-0.9978,-0.0408,-0.0471,0.0,0.0466,2047
9,0.1431,-0.9985,-0.0471,-0.0485,-0.0268,0.0522,2043
9,0.1641,-0.9971,-0.0581,-0.0582,-0.0253,0.0497,2049
9,0.1619,-1.0139,-0.0623,-0.0497,-0.0443,0.0449,2051
9,0.1516,-1.0029,-0.0696,-0.0409,-0.035,0.0473,2044
9,0.1526,-1.002,-0.0696,-0.0423,-0.028,0.0445,2045
9,0.1453,-0.999,-0.0674,-0.041,-0.0226,0.0455,2049
9,0.1348,-1.001,-0.0667,-0.033,-0.0361,0.0437,2045
9,0.1431,-0.9995,-0.0664,-0.0328,-0.0446,0.0353,2057
9,0.1472,-0.9988,-0.0691,-0.0455,-0.0205,0.0374,2049
9,0.1555,-1.0063,-0.0696,-0.0522,-0.0256,0.0374,2044
9,0.1506,-0.9973,-0.061,-0.0478,-0.0194,0.0434,2052
9,0.147,-1.0042,-0.0479,-0.0433,-0.0047,0.0449,2047
9,0.1602,-1.0081,-0.0547,-0.0525,-0.0043,0.0515,2048
9,0.1589,-0.998,-0.0835,-0.0506,-0.0084,0.0519,2041
9,0.1523,-1.0076,-0.0742,-0.057,0.0019,0.0553,2045
9,0.1519,-1.0107,-0.084,-0.0446,0.0051,0.0549,2048
9,0.1455,-0.9927,-0.0811,-0.0329,0.0127,0.0553,2048
9,0.1443,-1.0071,-0.0896,-0.0194,0.0004,0.0562,2045
9,0.1501,-0.9985,-0.0728,-0.0166,-0.0077,0.0563,2049
9,0.1387,-0.9941,-0.082,-0.014,-0.0141,0.0562,2052
9,0.1492,-1.0034,-0.0754,-0.014,-0.0061,0.0586,2050
9,0.1514,-1.0007,-0.0769,-0.0166,0.0079,0.067,2042
9,0.1582,-1.0068,-0.0747,-0.0226,0.0069,0.0642,2041
9,0.137,-1.0044,-0.0591,-0.0254,0.0149,0.0656,2047
9,0.1396,-0.9966,-0.0674,-0.0349,0.024,0.0656,2052
9,0.1404,-0.9954,-0.0791,-0.0381,0.0129,0.0643,2044
9,0.1377,-1.0098,-0.0715,-0.0405,0.0173,0.0629,2052
9,0.1479,-0.9993,-0.0669,-0.0362,0.0197,0.061,2053
9,0.1443,-0.9995,-0.0715,-0.0352,0.0164,0.0599,2050
9,0.1377,-0.9983,-0.0625,-0.039,0.0197,0.0575,2050
9,0.1221,-1.002,-0.0605,-0.0445,0.0158,0.0563,2046
9,0.136,-0.999,-0.0703,-0.0414,0.017,0.0541,2048
9,0.1387,-1.0022,-0.0645,-0.0463,0.008,0.0482,2048
9,0.1338,-1.0,-0.0854,-0.0401,0.0132,0.0441,2046
9,0.1333,-1.002,-0.0869,-0.0381,0.0164,0.0457,2048
9,0.1396,-1.001,-0.0857,-0.0281,0.0152,0.0419,2047
9,0.1365,-1.0054,-0.0913,-0.0333,0.0123,0.0434,2050
9,0.1379,-1.0071,-0.0757,-0.0365,0.019,0.0438,2049
9,0.1418,-1.0,-0.0833,-0.0344,0.0229,0.043,2049
9,0.1418,-1.0005,-0.085,-0.034,0.0252,0.0434,2045
9,0.1462,-1.0063,-0.0798,-0.0505,0.0305,0.0498,2042
9,0.1428,-1.0056,-0.0867,-0.0365,0.0252,0.0451,2049
9,0.1401,-1.0015,-0.0913,-0.0309,0.0286,0.0454,2054
9,0.123,-1.0017,-0.083,-0.0324,0.0282,0.0377,2044
9,0.1184,-0.9956,-0.072,-0.0273,0.0241,0.0342,2047
9,0.1252,-0.9995,-0.075,-0.0348,0.0085,0.0244,2050
9,0.1252,-0.9961,-0.0735,-0.0313,0.0039,0.0184,2049
9,0.1279,-0.998,-0.0781,-0.0164,-0.0045,0.0112,2047
9,0.135,-1.002,-0.0811,-0.018,0.01,0.0096,2044
9,0.1338,-0.9988,-0.0925,-0.016,0.0209,0.0097,2045
9,0.1399,-1.0144,-0.092,-0.0132,0.0158,0.0079,2048
9,0.1316,-1.0015,-0.0962,-0.0013,0.0136,0.0059,2043
9,0.1309,-0.999,-0.095,0.0067,0.0169,0.0041,2048
9,0.1326,-1.0029,-0.0886,0.0103,0.0071,0.0013,2049
9,0.1375,-1.0002,-0.0813,0.0091,-0.0068,0.0012,2049
9,0.1426,-1.0,-0.0745,-0.0071,-0.002,0.0059,2051
9,0.145,-0.9995,-0.0798,-0.0188,0.0025,0.0069,2047
9,0.1638,-1.0122,-0.0798,-0.0332,0.0269,0.015,2046
9,0.1443,-1.0005,-0.0842,-0.0297,0.0486,0.0149,2047
9,0.1323,-1.0054,-0.0911,-0.0304,0.0642,0.019,2044
9,0.1292,-1.0095,-0.0823,-0.0297,0.0537,0.0148,2048
9,0.1262,-1.0044,-0.074,-0.0248,0.0384,0.0116,2045
9,0.1301,-1.0,-0.0754,-0.0322,0.0289,0.0105,2047
9,0.1328,-0.9951,-0.0764,-0.0314,0.0216,0.0031,2050
9,0.1355,-1.0037,-0.0771,-0.0395,0.0274,0.0045,2055
9,0.1387,-1.0103,-0.0815,-0.0443,0.0333,0.0023,2048
9,0.1292,-0.9988,-0.0886,-0.0366,0.0265,0.0037,2048
9,0.1228,-0.9985,-0.0977,-0.0442,0.0221,0.0009,2048
9,0.1387,-1.0073,-0.0981,-0.0329,0.0051,-0.0049,2046
9,0.1353,-1.0029,-0.0977,-0.0322,-0.0089,-0.0057,2046
9,0.134,-1.0078,-0.0903,-0.0273,-0.0025,-0.0079,2049
9,0.1326,-1.0029,-0.0884,-0.0262,-0.0027,-0.0134,2047
9,0.1321,-1.0037,-0.094,-0.0249,-0.0063,-0.0184,2046
9,0.1311,-1.0088,-0.0793,-0.0266,-0.006,-0.0178,2046
9,0.1421,-1.0022,-0.0869,-0.0213,-0.0068,-0.0153,2052
9,0.1377,-1.0044,-0.0981,-0.0248,-0.0029,-0.0184,2047
9,0.1487,-1.0049,-0.0911,-0.0221,0.0059,-0.0158,2048
9,0.1458,-1.0061,-0.1008,-0.0214,0.0133,-0.0101,2050
9,0.1433,-0.999,-0.0942,-0.0209,0.0146,-0.0131,2050
9,0.1433,-1.002,-0.0881,-0.0312,0.0068,-0.0092,2046
9,0.1421,-1.0107,-0.082,-0.0338,0.0009,-0.0039,2045
9,0.144,-1.0044,-0.0872,-0.0288,0.0033,-0.002,2046
9,0.1487,-1.0017,-0.0901,-0.0214,0.008,-0.0029,2047
9,0.1509,-1.0012,-0.0935,-0.0238,0.0093,-0.0036,2049
9,0.1445,-1.0071,-0.1001,-0.0172,0.0158,0.0008,2049
9,0.1396,-1.0024,-0.0869,-0.0204,0.0168,0.0012,2048
9,0.1399,-1.0056,-0.0952,-0.0189,0.0096,0.0031,2049
9,0.1401,-1.009,-0.0928,-0.0204,0.0111,-0.0027,2047
9,0.1438,-1.0037,-0.0901,-0.0158,0.0083,-0.0032,2050
9,0.1333,-1.0037,-0.0879,-0.014,0.0099,-0.0051,2049
9,0.1477,-1.0017,-0.0884,-0.0128,0.0071,-0.0059,2047
9,0.1472,-1.0029,-0.0906,-0.0146,0.0085,-0.0028,2045
10,0.1379,-1.0098,-0.1038,-0.0115,0.018,-0.0069,2049
10,0.1372,-1.0046,-0.1013,-0.0075,0.0134,-0.0083,2047
10,0.1499,-1.002,-0.092,-0.0076,0.0132,-0.0079,2045
10,0.1392,-1.0022,-0.0847,-0.0085,0.0141,-0.0073,2046
10,0.1418,-1.0051,-0.1045,-0.0025,0.0087,-0.0081,2049
10,0.1562,-1.0103,-0.1008,-0.0057,0.0137,-0.0049,2045
10,0.1541,-0.9983,-0.1008,0.0027,0.0164,0.0005,2048
10,0.1643,-1.0056,-0.0972,0.0008,0.0198,0.0093,2051
10,0.1675,-1.0112,-0.0928,0.0093,0.0205,0.019,2048
10,0.1545,-1.0076,-0.084,0.0116,0.0214,0.0284,2049
10,0.1409,-1.0046,-0.0864,0.0087,0.0185,0.0374,2045
10,0.1501,-0.9988,-0.0823,-0.0016,0.0111,0.0425,2046
10,0.1545,-1.0017,-0.0754,-0.0221,0.01,0.0631,2046
10,0.1565,-1.0205,-0.0762,-0.0376,0.0418,0.0684,2047
10,0.1326,-1.0186,-0.0876,-0.045,0.0521,0.1045,2043
10,0.1372,-1.0078,-0.0916,-0.0455,0.0362,0.1209,2049
10,0.1428,-1.0156,-0.0601,-0.0582,0.0216,0.14,2049
10,0.1538,-1.0222,-0.0608,-0.0621,0.0233,0.1305,2052
10,0.1587,-1.0,-0.0867,-0.0711,0.0411,0.1156,2049
10,0.1436,-0.9832,-0.1062,-0.0611,0.0467,0.0973,2047
10,0.146,-1.0146,-0.1194,-0.078,0.0507,0.0894,2053
10,0.155,-1.001,-0.1084,-0.0675,0.0497,0.1103,2049
10,0.1343,-0.9946,-0.0891,-0.0613,0.033,0.1047,2046
10,0.1113,-1.0134,-0.0955,-0.0642,0.0274,0.0953,2050
10,0.1138,-1.0095,-0.083,-0.059,0.0269,0.0883,2045
10,0.1326,-0.9978,-0.1038,-0.0522,0.0091,0.0876,2050
10,0.1304,-1.0127,-0.1038,-0.0582,0.0197,0.075,2047
10,0.1411,-1.0093,-0.1108,-0.0502,0.0257,0.0927,2043
10,0.1357,-1.0259,-0.0925,-0.0626,0.0442,0.1071,2045
10,0.1372,-1.0151,-0.0703,-0.0682,0.0173,0.1288,2050
10,0.1208,-1.0068,-0.0808,-0.0719,0.0119,0.1293,2046
10,0.1311,-1.0149,-0.0977,-0.0788,0.0048,0.1077,2050
10,0.1316,-0.9998,-0.1133,-0.0819,0.0244,0.1081,2050
10,0.1379,-0.9905,-0.1248,-0.0699,0.0442,0.094,2051
10,0.1294,-1.0012,-0.1309,-0.071,0.0507,0.0891,2046
10,0.1182,-1.0198,-0.103,-0.0735,0.0569,0.1037,2046
10,0.1133,-1.0112,-0.0898,-0.0586,0.0285,0.0914,2049
10,0.1182,-0.9995,-0.085,-0.0622,-0.0039,0.0762,2048
10,0.1243,-1.0071,-0.114,-0.0615,-0.0011,0.0678,2045
10,0.1152,-1.0017,-0.1208,-0.0593,0.0262,0.0708,2048
10,0.1116,-1.0215,-0.1074,-0.0542,0.0431,0.0953,2050
10,0.1179,-1.01,-0.0979,-0.0521,0.0495,0.092,2048
10,0.1226,-1.0137,-0.0923,-0.0562,0.0393,0.0867,2048
10,0.1167,-1.0076,-0.1094,-0.0618,0.029,0.0921,2050
10,0.1177,-1.0071,-0.1096,-0.0561,0.0124,0.0711,2047
10,0.1257,-1.0042,-0.116,-0.0597,0.0067,0.0566,2049
10,0.1279,-1.0024,-0.1292,-0.0518,0.016,0.0529,2047
10,0.1221,-1.01,-0.137,-0.0478,0.0294,0.0577,2048
10,0.1135,-1.0042,-0.1299,-0.0369,0.0434,0.0587,2047
10,0.1135,-1.0115,-0.126,-0.0261,0.0509,0.049,2049
10,0.1069,-1.0005,-0.136,-0.0189,0.0617,0.0419,2047
10,0.1089,-0.9956,-0.1353,-0.0088,0.0654,0.0361,2050
10,0.1104,-0.9963,-0.1362,0.0037,0.0534,0.0266,2048
10,0.1313,-1.0005,-0.1179,0.0045,0.053,0.0236,2049
10,0.1304,-1.0137,-0.1055,-0.0005,0.0434,0.0268,2048
10,0.1089,-1.0288,-0.1082,-0.0047,0.0537,0.0393,2047
10,0.1169,-1.0203,-0.085,-0.0012,0.0453,0.0427,2043
10,0.1184,-1.0144,-0.0901,-0.0097,0.043,0.0409,2049
10,0.1267,-1.0105,-0.1128,-0.0161,0.0433,0.0455,2052
10,0.1152,-1.0073,-0.113,-0.0186,0.0479,0.0465,2050
10,0.1238,-1.0088,-0.1021,-0.0237,0.0393,0.0398,2049
10,0.1138,-1.0203,-0.1111,-0.0264,0.0304,0.0453,2047
10,0.0908,-1.0291,-0.116,-0.035,0.0328,0.0554,2046
10,0.0874,-1.0112,-0.1099,-0.0282,0.0244,0.057,2052
10,0.0903,-0.9973,-0.1118,-0.035,0.0138,0.0401,2046
10,0.1052,-1.0088,-0.1248,-0.0368,0.0268,0.0395,2053
10,0.1101,-1.012,-0.1255,-0.0368,0.0309,0.0393,2049
10,0.1179,-1.0034,-0.1055,-0.0389,0.0057,0.1413,2047
10,0.0972,-1.0317,-0.1204,-0.032,0.0137,0.0594,2046
10,0.1179,-1.0022,-0.1067,-0.0389,0.0053,0.0577,2045
10,0.1025,-1.0002,-0.1121,-0.0361,0.0168,0.057,2048
10,0.1047,-1.0078,-0.1296,-0.0446,0.0281,0.0747,2048
10,0.106,-1.0168,-0.1267,-0.0336,0.0272,0.0441,2048
10,0.1162,-1.0139,-0.1235,-0.0376,0.0226,0.0393,2048
10,0.1252,-0.9951,-0.1172,-0.0298,0.0162,0.0328,2052
10,0.1279,-1.0051,-0.1335,-0.0249,0.0209,0.0353,2043
10,0.1216,-1.0078,-0.1345,-0.0172,0.0226,0.0336,2044
10,0.0935,-1.0234,-0.1245,-0.0217,0.0206,0.0406,2049
10,0.1077,-1.0269,-0.1133,-0.0286,0.0181,0.0422,2051
10,0.0964,-1.0242,-0.1199,-0.0333,0.0174,0.0475,2044
10,0.1055,-1.0088,-0.1179,-0.0254,0.0202,0.0545,2049
10,0.0967,-1.0315,-0.1223,-0.0434,0.0248,0.0712,2050
10,0.113,-1.0061,-0.125,-0.0204,0.012,0.0465,2049
10,0.1072,-1.0051,-0.1221,-0.0268,0.02,0.0415,2047
10,0.0891,-1.0176,-0.1318,-0.0273,0.031,0.0437,2048
10,0.0886,-1.0129,-0.1216,-0.0222,0.0248,0.0397,2046
10,0.0964,-0.998,-0.1218,-0.0152,0.0089,0.0313,2046
10,0.1096,-1.0007,-0.1252,-0.0134,0.0007,0.0189,2045
10,0.1245,-1.0049,-0.1299,-0.0064,-0.0028,0.0189,2047
10,0.1074,-1.0156,-0.1431,-0.0067,0.0129,0.0224,2051
10,0.1013,-1.0249,-0.136,-0.0025,0.0185,0.029,2046
10,0.0986,-1.0222,-0.1323,0.0039,0.0317,0.0356,2047
10,0.1057,-1.0122,-0.124,-0.0052,0.0332,0.0365,2050
10,0.1238,-1.0002,-0.126,-0.0012,0.0234,0.0317,2051
10,0.1199,-1.0029,-0.1267,-0.0007,0.0113,0.0294,2048
10,0.1248,-1.0063,-0.1306,0.0084,0.012,0.0306,2046
10,0.1184,-0.9956,-0.1279,0.016,0.0206,0.0329,2048
10,0.1057,-1.0015,-0.1248,0.028,0.0228,0.0262,2046
10,0.1038,-1.002,-0.1174,0.0246,0.0257,0.0202,2046
10,0.1011,-0.9978,-0.113,0.0176,0.0252,0.0093,2046
10,0.093,-1.0234,-0.1213,0.0144,0.0465,0.0053,2046
10,0.0864,-1.019,-0.116,0.0172,0.0445,0.0093,2045
10,0.0852,-1.0208,-0.1296,0.0268,0.0369,0.0124,2043
10,0.0952,-1.02,-0.1252,0.0249,0.029,0.0117,2047
11,0.1072,-1.0081,-0.115,0.0185,0.0157,0.0153,2047
11,0.1045,-1.0188,-0.1074,0.0132,0.0011,0.0111,2051
11,0.0945,-1.0168,-0.1221,0.008,0.0152,0.0132,2049
11,0.0952,-1.0105,-0.1111,0.0105,0.0173,0.0168,2048
11,0.0845,-1.0071,-0.1108,0.0099,0.0134,0.0121,2046
11,0.1045,-1.009,-0.0994,0.0081,0.0115,0.0061,2048
11,0.0996,-1.0049,-0.1365,0.0047,0.0204,0.0001,2048
11,0.1045,-1.0151,-0.1316,0.0048,0.0213,0.0045,2051
11,0.0957,-1.02,-0.1262,0.0061,0.0186,0.0105,2047
11,0.1047,-1.0156,-0.1213,0.0075,0.0056,0.015,2047
11,0.1116,-1.0115,-0.1111,0.0092,-0.008,0.0166,2046
11,0.1206,-1.011,-0.1218,0.0081,0.0013,0.0192,2045
11,0.1116,-1.0122,-0.1328,0.0028,0.0132,0.0185,2047
11,0.1128,-1.0144,-0.1274,0.0073,0.0222,0.0198,2052
11,0.1125,-1.0024,-0.1113,0.0076,0.0221,0.0205,2045
11,0.0999,-1.0061,-0.1013,0.0007,0.012,0.021,2047
11,0.1045,-1.0068,-0.1184,0.0048,0.0144,0.017,2053
11,0.1082,-1.0161,-0.1257,0.0061,0.0154,0.0142,2050
11,0.1091,-1.0151,-0.1255,0.0104,0.0248,0.0202,2047
11,0.115,-1.0039,-0.1331,0.0123,0.0222,0.0253,2047
11,0.1187,-1.0164,-0.1216,0.0093,0.0119,0.026,2049
11,0.1096,-1.0103,-0.1123,0.0121,0.0149,0.031,2045
11,0.0974,-1.0095,-0.1162,0.0112,0.0213,0.0237,2051
11,0.1064,-1.0063,-0.1252,0.0181,0.031,0.025,2049
11,0.1067,-1.0017,-0.1238,0.0138,0.0364,0.0238,2041
11,0.1123,-1.0088,-0.1155,0.0124,0.0393,0.0212,2045
11,0.1199,-1.0039,-0.1147,0.0186,0.0433,0.0148,2051
11,0.1199,-1.0024,-0.1306,0.0174,0.0537,0.0097,2049
11,0.1167,-0.9995,-0.1409,0.0249,0.0682,0.0129,2046
11,0.1121,-1.0027,-0.1318,0.0345,0.082,0.0119,2046
11,0.1111,-1.0098,-0.1353,0.0342,0.0859,0.0149,2045
11,0.0928,-1.0183,-0.1282,0.0395,0.0848,0.0177,2051
11,0.0974,-1.0183,-0.0916,0.0364,0.0529,0.0234,2047
11,0.094,-1.019,-0.1011,0.0268,0.0434,0.0241,2048
11,0.0881,-0.9917,-0.1211,0.0405,0.0522,0.0142,2046
11,0.1096,-1.0063,-0.1167,0.0345,0.0671,0.0048,2048
11,0.1152,-0.9973,-0.1431,0.0441,0.1007,-0.0017,2047
11,0.0999,-1.0012,-0.1348,0.0479,0.0796,-0.0128,2041
11,0.1084,-1.011,-0.1333,0.0453,0.0726,-0.0132,2048
11,0.0762,-1.0195,-0.1411,0.066,0.0691,-0.014,2050
11,0.0806,-1.0229,-0.1367,0.0895,0.0523,-0.0198,2046
11,0.084,-1.0134,-0.103,0.0846,0.0097,-0.0116,2049
11,0.0959,-1.0176,-0.1072,0.0989,0.0005,-0.0127,2048
11,0.1045,-1.0164,-0.0969,0.0883,0.0067,-0.0052,2048
11,0.1055,-1.0212,-0.0847,0.0826,0.0361,0.0005,2044
11,0.0813,-1.0068,-0.073,0.0776,0.0264,-0.0016,2047
11,0.0935,-1.0186,-0.0735,0.0615,0.008,-0.0041,2048
11,0.1021,-1.012,-0.0898,0.0533,0.0169,-0.0029,2046
11,0.1038,-1.009,-0.1064,0.066,0.022,-0.0089,2044
11,0.1089,-1.0198,-0.1067,0.0631,0.035,-0.0023,2050
11,0.1125,-1.0151,-0.1155,0.0587,0.039,0.0011,2047
11,0.0979,-1.0022,-0.1113,0.0716,0.0037,-0.0001,2047
11,0.1001,-1.0078,-0.1096,0.0637,-0.002,-0.0001,2048
11,0.0962,-1.0073,-0.0996,0.0582,0.0112,-0.0012,2045
11,0.104,-1.0054,-0.1069,0.0603,0.0116,-0.0036,2048
11,0.0996,-1.0134,-0.1096,0.0687,-0.0141,-0.0012,2047
11,0.1206,-0.9998,-0.1082,0.071,-0.0176,-0.0075,2047
11,0.1174,-1.0176,-0.0967,0.0704,-0.0196,-0.0115,2048
11,0.1167,-1.01,-0.1167,0.0732,-0.0055,-0.0045,2049
11,0.1104,-1.0007,-0.1116,0.094,-0.0188,-0.0084,2039
11,0.113,-1.0054,-0.1243,0.1182,-0.0131,-0.0068,2043
11,0.1145,-1.0007,-0.1194,0.1269,0.0169,-0.004,2037
11,0.1204,-1.0085,-0.0872,0.1144,0.0619,-0.0001,2048
11,0.1094,-1.0103,-0.0818,0.1075,0.0515,-0.0012,2038
11,0.1211,-1.0139,-0.1028,0.1184,0.0579,-0.0067,2069
11,0.1108,-1.0,-0.1062,0.1216,0.1052,-0.0007,2042
11,0.1211,-1.0161,-0.1006,0.1202,0.0875,0.0028,2049
11,0.1243,-1.0105,-0.092,0.0571,0.173,0.0278,2040
11,0.1062,-1.0129,-0.0896,0.0602,0.1481,0.0218,2050
11,0.0962,-1.0129,-0.0818,0.0718,0.1258,0.0265,2056
11,0.1206,-1.0039,-0.0508,0.0402,0.1264,0.0256,2049
11,0.1018,-1.0164,-0.0791,0.0451,0.0854,0.0294,2052
11,0.1174,-1.0042,-0.0686,0.0425,0.0812,0.0265,2060
11,0.1167,-1.0085,-0.0806,0.0597,0.0796,0.026,2050
11,0.1169,-1.0156,-0.074,0.0823,0.0446,0.0282,2044
11,0.1018,-1.0037,-0.0776,0.0919,0.0349,0.0305,2051
11,0.1169,-0.9939,-0.0928,0.0784,0.053,0.0345,2059
11,0.114,-1.0129,-0.1128,0.0602,0.1349,0.0501,2086
11,0.1392,-1.0027,-0.0938,0.0233,0.2017,0.0643,2034
11,0.1316,-1.0234,-0.103,-0.0027,0.2389,0.0708,2014
11,0.0928,-1.0061,-0.0664,-0.0146,0.2338,0.067,2047
11,0.0938,-1.0137,-0.0461,-0.0115,0.1645,0.0605,2050
11,0.0994,-1.0112,-0.0693,-0.016,0.1406,0.0618,2049
11,0.0903,-1.0054,-0.061,-0.0092,0.1144,0.0586,2046
11,0.094,-1.0151,-0.0693,-0.0121,0.0771,0.0583,2047
11,0.083,-1.0068,-0.0518,-0.0099,0.0585,0.0566,2042
11,0.0828,-1.0098,-0.0471,-0.0217,0.0261,0.0495,2049
11,0.1045,-1.0056,-0.0498,-0.0266,-0.0015,0.0418,2045
11,0.0928,-1.0081,-0.0684,-0.0435,-0.0202,0.0489,2044
11,0.1003,-1.0125,-0.0693,-0.023,-0.0196,0.0368,2041
11,0.1052,-1.0085,-0.0857,-0.0209,-0.0222,0.0442,2036
11,0.1013,-1.0054,-0.1167,0.0198,0.0031,0.0435,2040
11,0.114,-1.0095,-0.1038,0.0188,0.0373,0.0478,2046
11,0.0918,-1.011,-0.1116,0.033,0.032,0.0529,2050
11,0.103,-1.0012,-0.0945,0.0083,0.035,0.0577,2040
11,0.1138,-1.0078,-0.0811,-0.006,0.0447,0.0606,2042
11,0.1179,-1.0137,-0.1035,-0.0073,0.0782,0.0627,2037
11,0.104,-1.0095,-0.0801,-0.0052,0.0712,0.0663,2029
11,0.0857,-0.9998,-0.0796,-0.0212,0.1015,0.0638,2046
11,0.0969,-0.9995,-0.0837,-0.0128,0.0906,0.0606,2043
11,0.0957,-1.0088,-0.0977,-0.0117,0.1165,0.0659,2068
12,0.1008,-1.0022,-0.0728,-0.0176,0.1282,0.0619,2076
12,0.127,-1.0056,-0.1121,-0.021,0.1666,0.0607,2042
12,0.1135,-1.0139,-0.1001,-0.0164,0.229,0.0682,2032
12,0.0884,-0.9985,-0.0962,-0.0245,0.2036,0.0715,2071
12,0.0881,-1.0046,-0.085,-0.0411,0.2023,0.0634,2058
12,0.084,-1.0073,-0.0781,-0.0389,0.2224,0.0606,2033
12,0.0833,-1.0161,-0.1006,-0.0226,0.1972,0.0575,2074
12,0.0964,-1.0002,-0.1011,-0.0246,0.2045,0.0617,2047
12,0.1128,-1.0073,-0.1047,-0.0205,0.2108,0.0625,2026
12,0.1074,-1.0139,-0.0989,-0.0328,0.2461,0.0629,2047
12,0.1155,-1.0139,-0.1011,-0.0562,0.3212,0.0679,2053
12,0.0857,-1.0173,-0.0791,-0.0541,0.278,0.0715,2051
12,0.0684,-1.0095,-0.0791,-0.066,0.2651,0.0683,2038
12,0.0845,-1.0103,-0.0942,-0.0607,0.2131,0.0621,2022
12,0.0854,-1.0032,-0.103,-0.0398,0.1995,0.0672,2030
12,0.1189,-1.0137,-0.103,-0.0466,0.1943,0.0671,2038
12,0.0781,-1.0105,-0.085,-0.0427,0.2019,0.0794,2053
12,0.0706,-1.0137,-0.0615,-0.0567,0.1908,0.0734,2071
12,0.0591,-1.0168,-0.0569,-0.0565,0.1579,0.0601,2049
12,0.0742,-1.0046,-0.0906,-0.0411,0.1828,0.0603,2033
12,0.0669,-1.0115,-0.0706,-0.0293,0.1772,0.0585,2020
12,0.0806,-1.0051,-0.082,-0.0254,0.149,0.0538,2055
12,0.0847,-1.0132,-0.0864,-0.022,0.1429,0.0569,2052
12,0.0654,-1.0129,-0.0815,-0.0348,0.1169,0.0543,2044
12,0.0715,-1.011,-0.0908,-0.0457,0.0937,0.0445,2035
12,0.0708,-1.0107,-0.0796,-0.0479,0.0866,0.0467,2034
12,0.0515,-1.0115,-0.0747,-0.0321,0.0799,0.0381,2072
12,0.0654,-1.0085,-0.0708,-0.0044,0.0601,0.0302,2055
12,0.084,-1.0063,-0.0637,-0.0265,0.1053,0.0304,2042
12,0.0942,-1.0095,-0.0864,-0.0192,0.1135,0.0386,2118
12,0.0845,-1.012,-0.106,-0.037,0.1276,0.0398,2041
12,0.0791,-1.0095,-0.0854,-0.0326,0.0943,0.0392,2041
12,0.075,-1.009,-0.1038,-0.0156,0.0699,0.0392,2049
12,0.0759,-1.01,-0.0867,-0.0077,0.0389,0.0405,2047
12,0.0679,-1.0105,-0.0806,0.0033,-0.0216,0.0398,2022
12,0.0781,-1.0083,-0.0964,0.0008,-0.0186,0.0426,2044
12,0.1033,-1.0088,-0.0825,-0.0096,0.0292,0.0457,2062
12,0.0918,-1.0122,-0.0867,-0.0092,0.072,0.0533,2047
12,0.0901,-1.0144,-0.0894,-0.0181,0.0875,0.0535,2049
12,0.0754,-1.019,-0.093,-0.0097,0.0846,0.0579,2060
12,0.0708,-1.0051,-0.0884,-0.0198,0.08,0.0551,2038
12,0.0559,-1.0115,-0.0962,-0.023,0.0478,0.0491,2047
12,0.0605,-1.0024,-0.0942,-0.0254,0.0302,0.0447,2057
12,0.0459,-1.0088,-0.0916,-0.0209,0.0296,0.0369,2067
12,0.0698,-1.0032,-0.0862,-0.0285,0.0587,0.0354,2044
12,0.0771,-1.0156,-0.1021,-0.0121,0.0639,0.0305,2057
12,0.071,-1.0139,-0.0903,-0.0089,0.0566,0.0309,2045
12,0.0549,-1.0159,-0.0916,0.0127,0.0358,0.0213,2071
12,0.0652,-1.0098,-0.0972,0.0105,0.0405,0.0209,2036
12,0.0806,-1.0049,-0.0989,-0.0035,0.0328,0.0228,2044
12,0.0696,-1.0085,-0.0857,-0.0067,0.0349,0.0241,2051
12,0.0667,-1.0139,-0.0981,-0.015,0.0088,0.0252,2041
12,0.0664,-1.0083,-0.0898,-0.0134,-0.0057,0.0257,2055
12,0.0818,-1.0137,-0.072,-0.0067,0.0133,0.0257,2050
12,0.0732,-1.0227,-0.0786,-0.0033,0.0025,0.0241,2031
12,0.084,-1.0066,-0.0967,0.002,-0.0011,0.0262,2042
12,0.0935,-1.0159,-0.0906,0.0028,0.0398,0.0245,2073
12,0.0793,-1.0156,-0.0967,0.0013,0.0288,0.0324,2038
12,0.0552,-1.0066,-0.1052,0.015,0.034,0.0306,2051
12,0.0728,-1.0073,-0.1001,0.0096,0.0413,0.034,2045
12,0.0642,-1.0205,-0.0859,0.0156,0.0238,0.0318,2046
12,0.0588,-1.0081,-0.0776,0.0099,0.0017,0.0256,2047
12,0.0745,-1.0056,-0.0938,0.017,-0.0035,0.024,2057
12,0.0659,-1.0112,-0.0928,0.0096,-0.0035,0.0229,2041
12,0.0647,-1.0103,-0.083,0.0029,-0.0164,0.0202,2047
12,0.0696,-1.0068,-0.0835,0.0021,-0.0069,0.018,2049
12,0.0813,-1.0066,-0.0962,-0.012,0.0238,0.017,2036
12,0.0757,-1.0071,-0.0933,0.0009,0.0221,0.0144,2047
12,0.0696,-1.009,-0.0916,-0.0024,0.0248,0.0184,2041
12,0.0784,-1.0083,-0.1003,-0.0072,0.0173,0.0154,2033
12,0.0891,-1.0171,-0.0923,-0.0142,0.0298,0.0173,2044
12,0.0742,-1.0098,-0.1118,-0.0112,0.0176,0.0165,2053
12,0.0789,-1.0083,-0.0994,-0.0019,0.0192,0.0178,2044
12,0.0754,-1.019,-0.1006,-0.0043,0.004,0.0131,2066
12,0.0728,-1.0066,-0.1062,-0.0064,0.0176,0.0182,2037
12,0.0889,-1.01,-0.0864,-0.018,0.0313,0.0144,2042
12,0.073,-1.0103,-0.0945,-0.0136,0.0435,0.0217,2040
12,0.061,-1.01,-0.0813,-0.0178,0.0334,0.0161,2051
12,0.0745,-1.0063,-0.0896,-0.0165,0.0285,0.0158,2053
12,0.0715,-1.0176,-0.0991,-0.0032,0.0172,0.0152,2045
12,0.092,-1.0103,-0.1025,0.0057,0.0353,0.0129,2048
12,0.0901,-1.0134,-0.0938,0.0055,0.0489,0.0205,2039
12,0.0669,-1.0176,-0.1069,0.0021,0.0425,0.0222,2065
12,0.0654,-1.0032,-0.084,-0.0109,0.0459,0.0148,2085
12,0.0691,-1.0151,-0.0823,-0.025,0.0382,0.0145,2045
12,0.054,-1.0042,-0.1011,-0.0079,0.0108,0.0138,2087
12,0.0728,-1.0046,-0.0896,-0.0225,0.0302,0.0123,2046
12,0.0813,-1.0149,-0.1013,-0.0085,0.022,0.0131,2067
12,0.0759,-1.0125,-0.0911,-0.0129,0.0237,0.0132,2027
12,0.0742,-1.0054,-0.0886,0.0009,0.004,0.0124,2047
12,0.0684,-1.0205,-0.0913,0.0068,0.012,0.0125,2046
12,0.0708,-1.0044,-0.0947,0.018,-0.0092,0.0099,2061
12,0.0808,-1.0095,-0.0881,0.0084,-0.0053,0.0145,2043
12,0.071,-1.0051,-0.0881,0.0045,-0.0088,0.0134,2073
12,0.0837,-1.0112,-0.1035,-0.0016,0.0124,0.0149,2053
12,0.0806,-1.021,-0.0962,-0.0031,0.0091,0.0162,2035
12,0.0754,-1.0081,-0.0933,-0.0016,0.0091,0.0209,2049
12,0.0696,-1.0073,-0.0823,-0.0107,0.0173,0.0212,2053
12,0.0803,-1.0122,-0.1045,0.0004,0.0204,0.0192,2033
12,0.0786,-1.0164,-0.1074,-0.0031,0.0067,0.0194,2038
12,0.0818,-1.0125,-0.0911,-0.0093,0.0125,0.0222,2041
12,0.0605,-1.0085,-0.0879,-0.0076,-0.0067,0.0221,2032
13,0.0681,-1.0088,-0.093,0.0067,-0.0052,0.0209,2047
13,0.0737,-1.0071,-0.0925,0.0021,-0.0192,0.0206,2047
13,0.0798,-1.0083,-0.0952,0.0064,-0.0156,0.0257,2056
13,0.072,-1.0134,-0.0881,0.0059,-0.0289,0.0218,2038
13,0.0525,-1.0098,-0.0718,0.0101,-0.0529,0.0188,2028
13,0.0808,-1.012,-0.0696,0.0017,-0.024,0.0128,2047
13,0.0789,-1.0054,-0.0837,-0.0113,-0.0189,0.0142,2050
13,0.0676,-1.0054,-0.0845,-0.018,-0.0178,0.0148,2050
13,0.0679,-1.011,-0.074,-0.0196,-0.0446,0.0064,2043
13,0.0645,-1.0103,-0.0886,-0.021,-0.0682,0.0004,2038
13,0.071,-1.0027,-0.1099,-0.0186,-0.0599,-0.0028,2044
13,0.1079,-1.019,-0.1184,-0.0201,-0.0084,0.0067,2047
13,0.0869,-1.0112,-0.1189,-0.0134,-0.0256,0.0051,2043
13,0.0825,-1.0139,-0.1252,-0.0008,-0.0019,0.0115,2050
13,0.0752,-1.0049,-0.116,-0.0007,-0.0029,0.0133,2047
13,0.0647,-1.012,-0.0906,-0.0084,0.0204,0.0123,2044
13,0.0698,-1.0046,-0.0974,-0.0089,0.0084,0.0091,2036
13,0.0701,-1.0122,-0.0903,-0.0061,-0.0013,0.0035,2053
13,0.075,-1.0137,-0.0977,0.0003,-0.0055,0.006,2065
13,0.0791,-1.0098,-0.0989,-0.0084,-0.012,0.01,2071
13,0.0828,-1.0139,-0.0962,-0.0146,0.0033,0.0104,2035
13,0.0842,-1.009,-0.0933,-0.0124,0.0069,0.0134,2067
13,0.0938,-1.0107,-0.1035,-0.0141,0.0437,0.015,2036
13,0.0684,-1.0166,-0.1001,-0.0116,0.0438,0.0194,2049
13,0.0688,-1.0078,-0.0815,-0.0069,0.0294,0.0121,2038
13,0.0696,-1.009,-0.0889,-0.0056,0.0111,0.0099,2046
13,0.0735,-1.01,-0.0955,-0.0039,0.0185,0.012,2070
13,0.0798,-1.01,-0.0933,0.0019,0.0131,0.0121,2053
13,0.0869,-1.0061,-0.0981,-0.0044,0.0049,0.0108,2049
13,0.0649,-1.0083,-0.0928,-0.006,-0.0056,0.014,2032
13,0.0647,-1.0027,-0.0803,-0.0073,-0.0169,0.0085,2047
13,0.0837,-1.0098,-0.1187,-0.004,0.0033,0.0057,2024
13,0.0732,-1.0071,-0.1052,0.0037,-0.0053,0.0093,2012
13,0.0891,-1.0127,-0.1035,-0.004,0.02,0.0109,2043
13,0.0955,-1.0205,-0.1055,-0.002,0.0341,0.0157,2045
13,0.0667,-1.0127,-0.095,0.0005,0.0241,0.0193,2058
13,0.0784,-1.011,-0.0991,-0.004,0.0212,0.0221,2061
13,0.0898,-1.0154,-0.1045,-0.0003,0.0213,0.0197,2045
13,0.0876,-1.0149,-0.0952,-0.0003,0.0214,0.0281,2055
13,0.0754,-1.0071,-0.0964,-0.002,0.0039,0.0308,2047
13,0.0762,-1.0151,-0.0884,-0.0036,0.0027,0.0304,2056
13,0.0776,-1.012,-0.1167,-0.002,0.0119,0.0296,2041
13,0.0918,-1.0159,-0.1145,-0.0073,0.0124,0.0334,2045
13,0.0735,-1.0078,-0.0969,0.0027,0.0108,0.0353,2050
13,0.0864,-1.0146,-0.1074,-0.0009,0.0336,0.0373,2049
13,0.0706,-1.0059,-0.0935,-0.0071,0.0308,0.035,2037
13,0.0647,-1.0098,-0.0916,-0.0052,0.0304,0.0344,2050
13,0.0737,-1.0063,-0.0986,-0.0105,0.0214,0.0334,2050
13,0.061,-1.0081,-0.0762,-0.0162,0.0088,0.0281,2047
13,0.0605,-1.0137,-0.0857,-0.0093,0.0072,0.0265,2048
13,0.0676,-1.0103,-0.093,-0.01,-0.0017,0.0225,2052
13,0.0706,-1.0098,-0.1016,-0.0125,-0.0093,0.0194,2051
13,0.0579,-1.0054,-0.0989,-0.0065,-0.014,0.0188,2048
13,0.0596,-1.0093,-0.0825,-0.0153,-0.0202,0.0127,2055
13,0.0542,-1.0061,-0.0928,-0.0241,-0.0241,0.0072,2043
13,0.0591,-1.0066,-0.0918,-0.0174,-0.0599,0.0012,2050
13,0.0764,-1.0137,-0.1057,-0.0051,-0.072,-0.0024,2048
13,0.0994,-1.0203,-0.1125,0.0024,-0.0208,0.0068,2045
13,0.0706,-1.0129,-0.1089,0.0035,-0.0253,0.0049,2053
13,0.0723,-1.0127,-0.0967,0.0071,-0.034,0.0051,2045
13,0.0881,-1.0085,-0.1082,0.0166,-0.0354,0.0068,2048
13,0.0764,-1.0132,-0.0969,0.0216,-0.0357,0.0084,2045
13,0.0798,-1.0149,-0.0886,0.0165,-0.0578,0.0016,2042
13,0.072,-1.0095,-0.0898,0.0153,-0.0634,0.0016,2038
13,0.0781,-1.0127,-0.1074,-0.0019,-0.0374,-0.0005,2046
13,0.0779,-1.0095,-0.1003,-0.0017,-0.0246,-0.0017,2053
13,0.084,-1.0151,-0.1016,0.0032,-0.0055,0.0013,2044
13,0.0884,-1.0049,-0.1133,0.0055,-0.0031,0.0055,2040
13,0.0835,-1.0073,-0.1018,0.0024,0.0105,0.0072,2048
13,0.0752,-1.0085,-0.0994,-0.0013,0.0031,0.0116,2027
13,0.0745,-1.0032,-0.0811,-0.0053,0.0112,0.0105,2049
13,0.0828,-1.0137,-0.0884,-0.0131,0.0198,0.0099,2047
13,0.0771,-1.0056,-0.0803,-0.0133,0.0134,0.0123,2050
13,0.0674,-1.011,-0.0889,-0.0104,0.0125,0.0092,2045
13,0.0811,-1.0056,-0.1003,-0.012,0.0069,0.0059,2034
13,0.0791,-1.009,-0.0947,-0.0115,-0.0019,0.0097,2039
13,0.084,-1.0137,-0.0969,-0.01,-0.0079,0.0081,2042
13,0.0835,-1.0164,-0.0952,-0.0156,-0.0256,0.0091,2051
13,0.0859,-1.0107,-0.0923,-0.0192,-0.02,0.0116,2049
13,0.084,-1.0115,-0.0981,-0.0229,-0.0503,0.0057,2047
13,0.0811,-1.0122,-0.0889,-0.0158,-0.0949,0.0065,2046
13,0.0796,-1.0198,-0.0977,0.0041,-0.1369,0.0112,2056
13,0.0916,-1.0146,-0.1023,0.022,-0.1505,0.0144,2055
13,0.1021,-1.0151,-0.105,0.0341,-0.1309,0.0197,2049
13,0.0908,-1.009,-0.0962,0.0274,-0.0879,0.0293,2042
13,0.0779,-1.011,-0.0845,0.0182,-0.0562,0.0273,2044
13,0.0747,-1.0129,-0.0876,0.0192,-0.063,0.0269,2051
13,0.0801,-1.0149,-0.0811,0.0044,-0.0499,0.0234,2045
13,0.0764,-1.0149,-0.0876,-0.0012,-0.0566,0.0213,2039
13,0.0723,-1.01,-0.0803,-0.0228,-0.073,0.0202,2056
13,0.0701,-1.0132,-0.0918,-0.0573,-0.0714,0.014,2046
13,0.0935,-1.0149,-0.1113,-0.0603,-0.0635,0.0205,2039
13,0.075,-1.0066,-0.1091,-0.0505,-0.0679,0.0218,2045
13,0.0776,-1.0122,-0.1121,-0.0353,-0.0731,0.0169,2044
13,0.0752,-1.0146,-0.1016,-0.0229,-0.0744,0.0181,2045
13,0.0671,-1.0095,-0.0938,-0.0169,-0.089,0.0145,2056
13,0.0706,-1.0151,-0.0979,-0.0091,-0.1045,0.0063,2047
13,0.0664,-1.0122,-0.1001,0.002,-0.1305,0.0007,2049
13,0.0784,-1.0093,-0.0952,0.0197,-0.1614,-0.0007,2042
13,0.0774,-1.0146,-0.1125,0.0487,-0.1883,-0.0068,2046
13,0.0933,-1.0063,-0.1094,0.0313,-0.1289,-0.0012,2043
13,0.0886,-1.0117,-0.103,0.0012,-0.0742,0.0059,2046
13,0.0779,-1.0088,-0.1067,0.0045,-0.0696,0.0047,2021
14,0.082,-1.0144,-0.0896,0.0041,-0.0772,0.0037,2064
14,0.0818,-1.0054,-0.1155,0.0051,-0.0899,0.0037,2055
14,0.0798,-1.0105,-0.1077,-0.0053,-0.066,0.0036,2053
14,0.0898,-1.0105,-0.106,-0.0101,-0.0675,0.0024,2041
14,0.0847,-1.0107,-0.1067,-0.0201,-0.0557,0.0069,2045
14,0.0823,-1.0054,-0.1228,0.0121,-0.0403,0.004,2038
14,0.1042,-1.0085,-0.1238,-0.0007,0.0334,0.0162,2045
14,0.0859,-1.0103,-0.125,0.0005,0.0495,0.0216,2067
14,0.0728,-0.9995,-0.0999,0.004,0.0579,0.024,2048
14,0.0706,-1.0144,-0.1035,0.0051,0.0497,0.0197,2043
14,0.0833,-1.0076,-0.092,0.0036,0.0397,0.0172,2044
14,0.0852,-1.0171,-0.0916,0.0011,0.0309,0.0158,2045
14,0.0833,-1.0098,-0.0945,0.0008,0.0119,0.0153,2041
14,0.0759,-1.0095,-0.0969,-0.0028,0.0133,0.0145,2048
14,0.0862,-1.0093,-0.1021,-0.002,0.0142,0.0138,2050
14,0.0837,-1.011,-0.1091,0.0059,-0.0047,0.0125,2068
14,0.0842,-1.0168,-0.1057,-0.0017,0.0225,0.0161,2050
14,0.0808,-1.01,-0.1045,-0.0047,0.0246,0.0154,2041
14,0.0803,-1.0159,-0.1111,-0.0009,0.0152,0.0145,2047
14,0.0935,-1.0107,-0.1062,-0.0041,0.0,0.018,2059
14,0.1067,-1.0078,-0.1206,-0.0132,0.0293,0.0253,2046
14,0.1013,-1.0193,-0.1104,-0.0109,0.0465,0.0348,2039
14,0.0908,-1.01,-0.114,-0.0111,0.0438,0.0377,2065
14,0.0867,-1.0078,-0.0969,-0.0109,0.0497,0.039,2048
14,0.0806,-1.0151,-0.0881,-0.0083,0.0439,0.0399,2032
14,0.085,-1.0083,-0.106,-0.0008,0.0324,0.0353,2052
14,0.0835,-1.0098,-0.1008,-0.0008,0.0549,0.0356,2046
14,0.0898,-1.0095,-0.1013,0.0061,0.0722,0.0406,2050
14,0.0823,-1.0134,-0.1128,0.0095,0.0575,0.0392,2048
14,0.085,-1.0037,-0.1125,0.0041,0.0573,0.0365,2049
14,0.0679,-1.0051,-0.1174,0.0162,0.0591,0.0388,2079
14,0.0947,-1.0139,-0.1128,0.0099,0.0866,0.0378,2045
14,0.0979,-1.0122,-0.0959,-0.0024,0.1256,0.0435,2054
14,0.0674,-1.0049,-0.1128,0.0028,0.112,0.0411,2057
14,0.0696,-1.0063,-0.1045,-0.0131,0.1274,0.0345,2038
14,0.0691,-1.0137,-0.1074,0.0001,0.1051,0.0332,2042
14,0.074,-1.0046,-0.0945,-0.0119,0.0915,0.0289,2050
14,0.0725,-1.0151,-0.104,-0.0089,0.0579,0.0234,2045
14,0.0732,-1.0093,-0.1011,-0.01,0.057,0.0234,2043
14,0.0791,-1.0093,-0.095,-0.0043,0.0606,0.0222,2041
14,0.094,-1.0115,-0.0967,-0.0115,0.0786,0.0278,2044
14,0.0725,-1.0115,-0.0913,-0.0089,0.0779,0.0298,2039
14,0.0767,-1.0049,-0.1035,0.004,0.063,0.0277,2044
14,0.0938,-1.0137,-0.1052,0.0001,0.0676,0.0257,2039
14,0.0979,-1.011,-0.113,0.0075,0.0791,0.0316,2045
14,0.082,-1.0093,-0.1057,-0.0025,0.0715,0.0382,2039
14,0.0747,-1.0142,-0.1023,-0.0273,0.0743,0.035,2045
14,0.0598,-1.0129,-0.0884,-0.0234,0.0559,0.0278,2046
14,0.0735,-1.0103,-0.095,-0.0226,0.0434,0.0248,2045
14,0.0698,-1.0073,-0.0977,-0.0216,0.0206,0.0197,2051
14,0.0725,-1.01,-0.1018,-0.0146,-0.0051,0.0177,2049
14,0.074,-1.0107,-0.0891,-0.0206,-0.0039,0.0177,2050
14,0.071,-1.02,-0.1055,-0.0084,-0.0063,0.0145,2047
14,0.0601,-1.009,-0.1021,-0.0027,-0.0162,0.0144,2043
14,0.0684,-1.002,-0.1096,-0.0069,-0.0197,0.0132,2044
14,0.0808,-1.0127,-0.1008,-0.006,-0.0136,0.0116,2040
14,0.0632,-1.0139,-0.0969,-0.0093,-0.0262,0.0067,2042
14,0.0637,-1.0046,-0.1013,-0.0047,-0.0322,0.006,2046
14,0.0784,-1.0049,-0.1204,-0.0107,-0.0238,0.0037,2049
14,0.0879,-1.0063,-0.1294,-0.002,-0.0158,0.0109,2050
14,0.0979,-1.0161,-0.1238,-0.0069,0.0348,0.0134,2049
14,0.0823,-1.0122,-0.1145,-0.0048,0.026,0.0206,2045
14,0.0789,-1.0085,-0.1035,-0.0099,0.0129,0.0205,2046
14,0.0862,-1.0151,-0.1108,-0.0057,0.0117,0.0252,2051
14,0.0911,-1.0146,-0.0969,-0.0124,0.0181,0.0252,2052
14,0.0879,-1.0093,-0.1118,-0.0055,0.0158,0.0269,2045
14,0.0815,-1.0198,-0.095,-0.0072,0.0007,0.0268,2048
14,0.0684,-1.0208,-0.094,0.0045,-0.0272,0.0273,2052
14,0.0771,-1.0071,-0.1064,0.0268,-0.0559,0.0192,2045
14,0.0618,-1.0076,-0.1104,0.0224,-0.0871,0.0145,2052
14,0.0681,-1.0125,-0.1084,0.0294,-0.1119,0.0061,2053
14,0.0813,-1.0103,-0.1165,-0.0037,-0.0712,0.0169,2045
14,0.0864,-1.0151,-0.1091,-0.0031,-0.0342,0.0196,2046
14,0.072,-1.0098,-0.1028,0.0009,-0.0178,0.018,2041
14,0.0649,-1.0056,-0.0974,-0.0045,-0.017,0.0154,2045
14,0.075,-1.0117,-0.0923,-0.0128,-0.0124,0.0177,2047
14,0.0823,-1.0095,-0.1067,-0.0129,-0.0067,0.015,2046
14,0.0618,-1.0063,-0.1082,-0.0152,0.0081,0.0127,2028
14,0.0718,-1.0095,-0.1062,-0.0127,-0.01,0.0101,2050
14,0.0737,-1.0054,-0.1023,-0.0136,-0.002,0.0084,2052
14,0.0642,-1.0032,-0.1204,0.0056,-0.0156,0.0056,2044
14,0.0808,-1.0125,-0.1172,0.0069,-0.0161,0.0056,2063
14,0.0823,-1.0137,-0.1182,0.0063,-0.0119,0.0071,2044
14,0.0913,-1.0156,-0.1162,0.0105,0.0112,0.0138,2044
14,0.0854,-1.0139,-0.1187,0.0189,0.0354,0.0116,2037
14,0.073,-1.0107,-0.1074,0.0164,0.0433,0.0134,2046
14,0.0757,-1.0112,-0.1079,0.0164,0.025,0.0113,2054
14,0.0732,-1.0129,-0.1018,0.0136,0.0212,0.0158,2053
14,0.0779,-1.012,-0.093,0.0076,0.0092,0.0081,2041
14,0.0828,-1.0112,-0.0913,0.0024,0.0008,0.0119,2047
14,0.0801,-1.0115,-0.1047,-0.0008,-0.0027,0.0157,2043
14,0.0823,-1.0125,-0.1025,0.0032,0.0076,0.0148,2059
14,0.0876,-1.0142,-0.1084,-0.0107,0.0184,0.014,2050
14,0.0857,-1.0144,-0.1096,-0.008,0.0123,0.0177,2055
14,0.0769,-1.012,-0.1045,-0.0039,0.0158,0.0156,2055
14,0.0737,-1.0071,-0.1155,-0.0064,0.0085,0.0162,2048
14,0.0752,-1.0142,-0.1055,-0.0053,-0.0012,0.0117,2048
14,0.072,-1.0164,-0.1016,-0.0057,-0.0104,0.0148,2057
14,0.072,-1.0129,-0.1072,-0.0043,-0.019,0.0108,2039
14,0.0779,-1.0093,-0.0989,-0.0023,-0.0276,0.0083,2047
14,0.0791,-1.01,-0.1106,0.0016,-0.0132,0.0071,2049
14,0.0852,-1.0083,-0.116,0.0017,-0.0093,0.0097,2048
15,0.0779,-1.0093,-0.1096,0.0071,-0.0008,0.0077,2041
15,0.0894,-1.0178,-0.1121,0.0055,0.0099,0.0153,2046
15,0.0881,-1.0129,-0.1108,0.0039,0.0142,0.0166,2046
15,0.0869,-1.0088,-0.116,0.0088,0.0108,0.0204,2045
15,0.0874,-1.0151,-0.106,0.0036,0.0168,0.0238,2048
15,0.0806,-1.0139,-0.1018,0.0077,0.0084,0.0268,2049
15,0.0854,-1.0151,-0.1084,0.0116,0.017,0.0321,2051
15,0.0833,-1.0129,-0.1062,0.0047,0.0095,0.0316,2047
15,0.0791,-1.0095,-0.0938,0.0047,-0.0003,0.0369,2044
15,0.0718,-1.0071,-0.1042,0.0141,-0.0057,0.03,2048
15,0.0696,-1.0154,-0.0791,0.0133,-0.0293,0.0257,2050
15,0.0857,-1.0125,-0.0955,0.0264,-0.0594,0.0244,2047
15,0.0664,-1.0125,-0.1023,0.0372,-0.0828,0.0245,2051
15,0.0723,-1.0105,-0.0916,0.0368,-0.0863,0.018,2051
15,0.0737,-1.0137,-0.1104,0.0221,-0.0852,0.0165,2047
15,0.0723,-1.0115,-0.114,0.0326,-0.0898,0.0141,2046
15,0.0859,-0.998,-0.1028,0.025,-0.0702,0.0169,2039
15,0.0881,-1.0132,-0.106,0.0281,-0.0617,0.0154,2049
15,0.0828,-1.0139,-0.0996,0.0209,-0.0581,0.0172,2053
15,0.0867,-1.0149,-0.0991,0.0133,-0.0574,0.0177,2046
15,0.0874,-1.0149,-0.0955,0.0182,-0.0597,0.0172,2054
15,0.0793,-1.0186,-0.1162,0.0242,-0.0558,0.0178,2053
15,0.0784,-1.0056,-0.1233,0.0236,-0.0413,0.0209,2054
15,0.0786,-1.0039,-0.116,0.0032,-0.012,0.0184,2048
15,0.0754,-1.011,-0.1233,-0.0032,0.0148,0.023,2064
15,0.0715,-0.9998,-0.115,-0.0032,0.0214,0.0178,2053
15,0.0808,-1.0151,-0.1047,-0.0041,0.0458,0.0237,2048
15,0.083,-1.0063,-0.1055,-0.0017,0.0423,0.022,2046
15,0.0803,-1.0144,-0.1016,0.0007,0.0429,0.0197,2047
15,0.0747,-1.0156,-0.0935,0.0011,0.0268,0.0164,2043
15,0.0811,-1.0117,-0.095,-0.0028,0.0169,0.0154,2067
15,0.082,-1.0161,-0.1064,-0.0073,0.0392,0.0158,2036
15,0.0762,-1.0071,-0.1243,0.0031,0.0473,0.0176,2048
15,0.0854,-1.0137,-0.1187,0.0011,0.0739,0.0221,2048
15,0.0767,-1.0117,-0.1062,-0.0031,0.0771,0.0237,2047
15,0.0757,-1.0122,-0.1023,-0.0003,0.0814,0.0198,2046
15,0.0747,-1.0176,-0.103,0.0043,0.0711,0.0181,2053
15,0.0752,-1.0161,-0.1016,0.0127,0.0439,0.0162,2041
15,0.0674,-1.0093,-0.0891,0.0131,0.0482,0.0136,2052
15,0.0762,-1.0078,-0.1038,0.0048,0.0499,0.015,2058
15,0.0811,-1.0083,-0.085,0.0084,0.039,0.0101,2045
15,0.0786,-1.012,-0.1052,0.0063,0.0216,0.0125,2052
15,0.0813,-1.011,-0.1074,0.0158,0.0108,0.0144,2049
15,0.0811,-1.0046,-0.1033,0.014,0.0028,0.0109,2033
15,0.0791,-1.0083,-0.1187,0.0121,0.006,0.0156,2041
15,0.0908,-1.0085,-0.105,-0.0019,0.0374,0.0217,2070
15,0.0889,-1.0173,-0.1003,-0.0188,0.0771,0.0297,2046
15,0.0833,-1.0188,-0.1067,-0.0169,0.0844,0.0312,2048
15,0.084,-1.0186,-0.0959,-0.0221,0.0724,0.0336,2040
15,0.0781,-1.0203,-0.1094,-0.0224,0.0401,0.0321,2039
15,0.0852,-1.0154,-0.1006,0.0012,0.0326,0.0309,2049
15,0.0806,-1.0146,-0.1167,0.0064,0.0364,0.0325,2045
15,0.0825,-1.0137,-0.1179,0.0206,0.0254,0.0352,2050
15,0.0701,-1.0107,-0.1016,0.0265,0.0268,0.0325,2047
15,0.0771,-1.009,-0.1138,0.0237,0.0242,0.0334,2044
15,0.0627,-1.0125,-0.0962,0.015,0.0286,0.0321,2053
15,0.0735,-1.0068,-0.1001,0.016,0.0069,0.0297,2042
15,0.0737,-1.021,-0.0828,0.0015,0.0196,0.0309,2055
15,0.0718,-1.0171,-0.085,-0.0033,0.0196,0.0289,2073
15,0.083,-1.0127,-0.1011,-0.0053,0.0478,0.0344,2047
15,0.0891,-1.0215,-0.1045,-0.0056,0.0711,0.0346,2048
15,0.0693,-1.0088,-0.1038,0.0067,0.0711,0.0341,2048
15,0.0676,-1.0115,-0.0891,0.0007,0.0622,0.031,2033
15,0.0669,-1.0183,-0.0967,-0.0113,0.0569,0.027,2047
15,0.0771,-1.0122,-0.0974,-0.0071,0.036,0.0236,2045
15,0.0684,-0.999,-0.0952,-0.0108,0.0188,0.023,2045
15,0.062,-1.0039,-0.1008,-0.0109,0.0153,0.0193,2056
15,0.0652,-1.0168,-0.0981,-0.0056,0.0096,0.0144,2050
15,0.0847,-1.0161,-0.0918,-0.0049,0.0169,0.0096,2046
15,0.0837,-1.0156,-0.1206,-0.0076,0.0261,0.0161,2045
15,0.0818,-1.0073,-0.1147,-0.0069,0.0318,0.0168,2053
15,0.062,-1.0076,-0.1052,-0.0004,0.0308,0.0142,2043
15,0.072,-1.0066,-0.1035,-0.0004,0.0313,0.0148,2050
15,0.0757,-1.0195,-0.1028,0.0029,0.0274,0.0168,2047
15,0.0786,-1.0054,-0.1042,0.0045,0.0172,0.0156,2041
15,0.0791,-1.0161,-0.1096,0.0008,0.03,0.0182,2050
15,0.0828,-1.0073,-0.1069,0.0019,0.0377,0.0204,2045
15,0.0779,-1.0032,-0.1062,-0.0067,0.0446,0.0256,2040
15,0.0679,-1.0137,-0.103,-0.0096,0.0368,0.0213,2055
15,0.0701,-1.0134,-0.1067,-0.0041,0.0312,0.0193,2048
15,0.0725,-1.0134,-0.0959,-0.0021,0.0218,0.0149,2058
15,0.0713,-1.0085,-0.1091,0.0016,0.0093,0.0101,2048
15,0.0625,-1.0093,-0.0984,0.0016,0.018,0.0131,2048
15,0.063,-1.0093,-0.0962,0.0068,0.0055,0.0088,2040
15,0.0818,-1.0063,-0.0901,-0.0084,-0.0069,0.0061,2047
15,0.0818,-1.0137,-0.105,-0.0053,-0.0091,0.0131,2039
15,0.0806,-1.0117,-0.114,-0.0131,-0.0108,0.0105,2050
15,0.0852,-1.0107,-0.1072,-0.0041,-0.0024,0.0165,2052
15,0.082,-1.0063,-0.103,0.0064,0.0123,0.0154,2049
15,0.0811,-1.0071,-0.1052,0.0079,0.027,0.0204,2047
15,0.083,-1.0164,-0.1084,0.0,0.0184,0.027,2047
15,0.0891,-1.0098,-0.1108,-0.0001,0.0224,0.0257,2051
15,0.0903,-1.0137,-0.1108,0.0,0.0232,0.0272,2064
15,0.0825,-1.0127,-0.1074,-0.0035,0.043,0.0348,2046
15,0.0798,-1.0029,-0.1199,0.0101,0.0471,0.0342,2054
15,0.0742,-1.0129,-0.1108,0.0001,0.0449,0.0388,2053
15,0.071,-1.009,-0.1055,0.0049,0.0437,0.0372,2048
15,0.0728,-1.0095,-0.1042,-0.0032,0.033,0.0358,2045
15,0.0618,-1.0154,-0.1008,0.0024,0.0166,0.0329,2043
15,0.0706,-1.01,-0.1033,-0.0099,0.02,0.0362,2052
15,0.0737,-1.0129,-0.0986,-0.0051,0.029,0.0389,2045
16,0.0737,-1.0083,-0.0933,0.0025,0.0332,0.0338,2047
16,0.0679,-1.0217,-0.1003,-0.0044,0.0245,0.0352,2047
16,0.0659,-1.0078,-0.1226,0.0119,0.0045,0.0318,2049
16,0.0747,-1.0039,-0.1116,0.0053,0.0353,0.0306,2048
16,0.071,-1.0117,-0.105,0.0028,0.0338,0.0326,2049
16,0.0583,-1.0044,-0.0864,-0.0079,0.0225,0.0292,2052
16,0.064,-1.0112,-0.0847,-0.0154,0.0131,0.023,2046
16,0.0642,-1.0098,-0.1035,-0.0161,0.0193,0.0221,2041
16,0.0654,-1.0078,-0.093,-0.0185,0.0112,0.02,2045
16,0.0706,-1.0071,-0.1091,-0.017,0.0124,0.0144,2043
16,0.0745,-1.0181,-0.1042,-0.0121,0.0111,0.0104,2055
16,0.0786,-1.0173,-0.1155,-0.0095,0.0057,0.0085,2038
16,0.0686,-1.0098,-0.1074,-0.0024,-0.0047,0.0099,2047
16,0.0688,-1.0081,-0.1062,0.0009,-0.0115,0.0105,2046
16,0.0762,-1.0103,-0.1062,-0.0048,-0.0184,0.0087,2050
16,0.0657,-1.009,-0.0876,-0.0036,-0.0385,0.0067,2056
16,0.0725,-1.0161,-0.105,-0.0005,-0.0489,0.0053,2054
16,0.0776,-1.0034,-0.1145,-0.01,-0.0182,0.006,2045
16,0.0833,-1.0098,-0.1111,-0.0216,0.0145,0.0113,2044
16,0.0754,-1.0093,-0.1147,-0.0112,0.0206,0.0177,2049
16,0.0742,-1.0181,-0.1013,-0.0089,0.0119,0.0161,2047
16,0.0713,-1.0112,-0.1138,-0.0116,-0.0009,0.0119,2049
16,0.071,-1.0115,-0.1101,-0.0137,0.0003,0.0104,2042
16,0.0774,-1.0181,-0.1086,-0.0071,-0.0117,0.0073,2050
16,0.0693,-1.0144,-0.0984,0.0032,-0.0052,0.01,2049
16,0.0754,-1.0134,-0.1096,0.0056,0.0123,0.0087,2045
16,0.082,-1.011,-0.0962,0.0009,0.0105,0.0093,2048
16,0.0818,-1.0149,-0.1055,-0.0013,-0.0001,0.0075,2048
16,0.0769,-1.0203,-0.1069,0.006,-0.0017,0.0095,2049
16,0.0745,-1.0103,-0.1128,0.0049,-0.002,0.0145,2048
16,0.0801,-1.0132,-0.1133,0.0056,0.0013,0.0132,2052
16,0.0715,-1.0183,-0.1082,0.0045,-0.0105,0.0166,2045
16,0.0767,-1.0117,-0.1069,0.0031,-0.0113,0.0162,2050
16,0.0801,-1.0205,-0.0994,0.0005,-0.016,0.0173,2053
16,0.0852,-1.0132,-0.1086,0.0017,-0.0236,0.0182,2048
16,0.075,-1.0161,-0.1138,-0.0011,-0.0332,0.0206,2050
16,0.0796,-1.0173,-0.1047,0.0077,-0.0482,0.0205,2048
16,0.0754,-1.011,-0.1001,0.0121,-0.0575,0.023,2042
16,0.075,-1.0127,-0.113,0.0149,-0.0698,0.0282,2048
16,0.0779,-1.01,-0.095,0.0184,-0.0641,0.0262,2046
16,0.0737,-1.0105,-0.1038,0.0168,-0.0662,0.0281,2041
16,0.0713,-1.0059,-0.1113,0.0173,-0.0752,0.027,2045
16,0.075,-1.0156,-0.1074,0.0184,-0.0653,0.0282,2049
16,0.0706,-1.0017,-0.1035,0.0123,-0.0566,0.0252,2047
16,0.071,-1.0139,-0.1108,0.0044,-0.0563,0.0268,2047
16,0.0742,-1.0127,-0.0872,-0.0043,-0.0601,0.025,2048
16,0.075,-1.01,-0.1064,0.0036,-0.0502,0.0228,2053
16,0.0696,-1.0024,-0.0986,-0.0099,-0.029,0.0206,2046
16,0.0725,-1.01,-0.1062,-0.0076,-0.03,0.0216,2045
16,0.074,-1.0068,-0.1084,-0.0097,-0.0289,0.0236,2052
16,0.0635,-1.0132,-0.0986,-0.0188,-0.023,0.0201,2048
16,0.0796,-1.0046,-0.1074,-0.0124,-0.02,0.0197,2050
16,0.0742,-1.0105,-0.1123,-0.0072,-0.0109,0.0214,2045
16,0.0818,-1.0139,-0.1089,-0.0089,-0.0105,0.0176,2045
16,0.0781,-1.0056,-0.1248,-0.0112,-0.0045,0.0209,2045
16,0.072,-1.0078,-0.116,-0.0136,-0.0041,0.0238,2047
16,0.082,-1.0049,-0.114,-0.012,-0.0024,0.0217,2044
16,0.0798,-1.0168,-0.1321,-0.0146,-0.0057,0.0202,2047
16,0.0593,-1.0078,-0.1277,-0.0019,-0.0024,0.0182,2048
16,0.043,-0.9946,-0.1025,0.0015,0.0068,0.0107,2048
16,0.0464,-1.0115,-0.1033,-0.0044,0.0061,0.0009,2046
16,0.0508,-1.0115,-0.0684,-0.0089,-0.0216,-0.0121,2048
16,0.053,-1.0071,-0.0908,-0.019,-0.0158,-0.0154,2047
16,0.0518,-1.0056,-0.0903,-0.0144,-0.0162,-0.0281,2050
16,0.0615,-1.01,-0.1223,-0.0153,-0.0059,-0.031,2043
16,0.0518,-1.0032,-0.1172,-0.014,-0.0084,-0.0419,2050
16,0.0542,-1.0022,-0.1284,-0.0193,-0.024,-0.0455,2049
16,0.0552,-0.9956,-0.124,-0.0003,-0.0342,-0.0593,2047
16,0.0737,-1.0154,-0.1248,0.0087,-0.0442,-0.0631,2045
16,0.0801,-1.0085,-0.1255,0.0188,-0.0405,-0.0582,2051
16,0.0791,-1.0051,-0.1099,0.0162,-0.0378,-0.0649,2047
16,0.085,-1.0112,-0.1135,0.0172,-0.031,-0.059,2045
16,0.0903,-1.0168,-0.1104,0.0272,-0.0245,-0.0546,2050
16,0.0913,-1.012,-0.116,0.0438,-0.0059,-0.0518,2052
16,0.0913,-1.002,-0.1208,0.0261,0.0097,-0.0441,2048
16,0.0913,-1.0122,-0.113,0.0253,-0.0048,-0.0474,2047
16,0.1008,-1.0159,-0.1233,0.0253,-0.0177,-0.0378,2049
16,0.1023,-1.0146,-0.1199,0.0225,-0.0164,-0.0318,2047
16,0.1006,-1.012,-0.1086,0.0112,-0.0174,-0.0205,2049
16,0.1028,-1.0176,-0.0955,0.008,-0.0023,-0.0193,2051
16,0.0952,-1.0115,-0.1028,0.0174,0.0067,-0.0174,2047
16,0.0762,-1.0093,-0.1089,0.0178,0.012,-0.0145,2054
16,0.0898,-1.0161,-0.1077,0.0269,0.0101,-0.0172,2048
16,0.0916,-1.0137,-0.1128,0.0257,0.0069,-0.0131,2046
16,0.0847,-1.0083,-0.115,0.0322,0.0067,-0.01,2039
16,0.0847,-1.0071,-0.1042,0.029,0.0067,-0.0071,2047
16,0.0923,-1.0171,-0.1047,0.0206,-0.0027,-0.0087,2048
16,0.0886,-1.0134,-0.1055,0.022,0.0088,-0.0076,2050
16,0.0911,-1.0112,-0.0969,0.0233,0.0089,-0.0069,2051
16,0.1035,-1.01,-0.103,0.0204,0.0124,-0.0051,2047
16,0.0959,-1.0107,-0.1165,0.0233,0.0138,-0.0027,2051
16,0.1021,-1.0146,-0.104,0.0294,0.0156,-0.0035,2048
16,0.0986,-1.0178,-0.1101,0.0213,0.012,0.0035,2056
16,0.0959,-1.0093,-0.0862,0.0186,0.0035,0.0105,2043
16,0.0979,-1.0051,-0.0996,-0.0001,-0.0016,0.0108,2050
16,0.1008,-1.0168,-0.1077,0.0013,0.0119,0.0177,2048
16,0.0962,-1.0142,-0.0977,0.006,0.0228,0.0173,2043
16,0.0974,-1.009,-0.1072,0.0142,0.0274,0.0237,2046
16,0.0945,-1.0112,-0.1067,0.0117,0.027,0.0252,2043
16,0.0864,-1.0115,-0.1064,0.0059,0.0202,0.0206,2046
16,0.0942,-1.0093,-0.1113,0.0072,0.0198,0.0252,2047
16,0.0923,-1.012,-0.1047,0.0048,0.024,0.0284,2053
16,0.095,-1.0154,-0.0881,0.0065,0.021,0.0288,2049
17,0.0942,-1.0161,-0.0942,0.0023,0.0216,0.031,2046
17,0.0857,-1.0117,-0.0947,-0.0043,0.0245,0.0298,2049
17,0.0774,-1.012,-0.0896,-0.0049,0.0256,0.028,2047
17,0.0752,-1.0078,-0.0977,-0.0047,0.0213,0.0257,2048
17,0.0759,-1.0117,-0.114,-0.0036,0.022,0.0212,2049
17,0.0864,-1.0081,-0.1057,-0.0045,0.0178,0.0224,2049
17,0.0869,-1.0107,-0.1104,0.0012,0.0164,0.021,2050
17,0.0906,-1.0156,-0.1006,-0.0007,0.0176,0.0194,2050
17,0.0845,-1.0127,-0.093,-0.0092,0.0157,0.0238,2049
17,0.0896,-1.0168,-0.0994,-0.0072,0.0181,0.0181,2049
17,0.0801,-1.0066,-0.1021,-0.0125,0.0301,0.0181,2047
17,0.0818,-1.0063,-0.1055,-0.0113,0.0332,0.0131,2046
17,0.0864,-1.0107,-0.1099,-0.0101,0.0257,0.0117,2048
17,0.082,-1.0129,-0.116,-0.0077,0.0217,0.0132,2046
17,0.0886,-1.0088,-0.1143,-0.0069,0.0176,0.0146,2041
17,0.1003,-1.0083,-0.1047,-0.0068,0.0071,0.0168,2048
17,0.0857,-1.0129,-0.1077,-0.0012,0.0158,0.0185,2045
17,0.0894,-1.009,-0.0999,-0.0019,0.0218,0.0229,2045
17,0.0969,-1.0085,-0.0942,-0.0067,0.0245,0.0249,2045
17,0.0986,-1.0115,-0.106,-0.0072,0.0274,0.0245,2050
17,0.0977,-1.009,-0.1074,-0.0073,0.0272,0.0269,2049
17,0.095,-1.0173,-0.1118,-0.0103,0.0348,0.0285,2046
17,0.1003,-1.0151,-0.114,-0.0052,0.0377,0.0361,2045
17,0.0828,-1.0125,-0.1174,-0.0089,0.0405,0.0442,2042
17,0.083,-1.0105,-0.1018,-0.0109,0.0411,0.0394,2046
17,0.0862,-1.0149,-0.0969,-0.0129,0.036,0.0386,2047
17,0.0911,-1.0078,-0.0999,-0.0068,0.0332,0.038,2051
17,0.0869,-1.0115,-0.1067,-0.0067,0.0419,0.0395,2053
17,0.0813,-1.011,-0.0996,-0.0096,0.0333,0.0389,2049
17,0.0806,-1.0081,-0.1047,-0.0101,0.0389,0.0413,2049
17,0.0769,-1.0122,-0.1157,-0.0112,0.0302,0.0389,2049
17,0.0747,-1.0161,-0.1067,-0.0057,0.0318,0.038,2046
17,0.0847,-1.0073,-0.0974,-0.0088,0.0209,0.0365,2048
17,0.0815,-1.012,-0.1016,-0.0059,0.026,0.0352,2043
17,0.0671,-1.009,-0.0955,-0.0111,0.036,0.0301,2041
17,0.0791,-1.0056,-0.104,-0.0085,0.0274,0.0265,2051
17,0.0691,-1.0017,-0.1057,-0.0146,0.0225,0.0258,2045
17,0.0796,-1.0093,-0.105,-0.0088,0.0133,0.02,2048
17,0.0913,-1.0095,-0.1072,-0.0115,0.0169,0.0182,2048
17,0.083,-1.0071,-0.1118,-0.0099,0.0132,0.0174,2044
17,0.0854,-1.0076,-0.1191,-0.0065,0.014,0.0182,2047
17,0.0771,-1.0134,-0.1162,-0.0076,0.0178,0.0166,2049
17,0.0784,-1.0093,-0.1174,-0.0032,0.0128,0.0185,2047
17,0.0813,-1.0024,-0.1145,-0.0001,0.0119,0.0158,2048
17,0.0823,-1.0081,-0.1125,-0.0019,0.0141,0.018,2038
17,0.0952,-1.0183,-0.1079,0.0,0.0144,0.0158,2051
17,0.0928,-1.0186,-0.1064,0.0031,0.0233,0.0209,2044
17,0.0894,-1.0112,-0.1121,0.0013,0.0254,0.0209,2047
17,0.0852,-1.0098,-0.1021,-0.0047,0.0281,0.0201,2046
17,0.0764,-1.0049,-0.1089,-0.0007,0.03,0.0232,2043
17,0.0845,-1.0137,-0.1055,-0.0088,0.0174,0.023,2050
17,0.0757,-1.0107,-0.1084,-0.0047,0.0076,0.019,2051
17,0.0747,-1.0054,-0.0959,-0.0055,0.0131,0.016,2046
17,0.0769,-1.0103,-0.1084,0.0004,0.0136,0.0162,2053
17,0.0806,-1.0056,-0.104,-0.0009,0.0129,0.016,2046
17,0.0835,-1.0129,-0.1169,-0.0012,0.0116,0.0111,2051
17,0.0864,-1.0095,-0.1194,0.0017,0.02,0.0144,2049
17,0.0776,-1.0151,-0.1252,0.0056,0.0205,0.0154,2045
17,0.0796,-1.0142,-0.1123,0.0067,0.0156,0.0149,2050
17,0.0884,-1.0137,-0.1023,0.0044,0.0133,0.0128,2053
17,0.0806,-1.0105,-0.1008,0.0073,0.0156,0.0153,2051
17,0.0823,-1.0159,-0.1116,0.0003,0.0222,0.018,2050
17,0.0938,-1.0132,-0.105,0.0029,0.0232,0.0156,2045
17,0.095,-1.0161,-0.1089,0.0053,0.0237,0.0189,2047
17,0.0989,-1.0132,-0.1113,-0.0033,0.0258,0.0238,2041
17,0.0974,-1.0129,-0.1179,0.0012,0.0285,0.0261,2047
17,0.0911,-1.0132,-0.1245,0.0005,0.0249,0.0302,2054
17,0.0986,-1.0195,-0.1023,0.0041,0.0256,0.0318,2049
17,0.0857,-1.0149,-0.1042,0.0033,0.0348,0.0399,2047
17,0.0835,-1.0146,-0.0999,0.0041,0.0342,0.0382,2048
17,0.0842,-1.0107,-0.0972,0.0019,0.0415,0.0386,2048
17,0.0786,-1.0129,-0.1096,0.0032,0.0394,0.0393,2045
17,0.0698,-1.0093,-0.115,0.0039,0.0373,0.0356,2044
17,0.0728,-1.0151,-0.0972,-0.0023,0.0321,0.034,2046
17,0.0774,-1.0098,-0.1128,-0.0031,0.0266,0.0281,2045
17,0.0742,-1.0071,-0.0967,-0.004,0.0157,0.028,2048
17,0.0833,-1.0171,-0.1021,-0.0057,0.0216,0.0268,2047
17,0.0774,-1.0042,-0.1035,-0.0081,0.0266,0.0254,2043
17,0.0742,-1.0122,-0.0974,-0.0023,0.0228,0.0265,2047
17,0.0764,-1.0132,-0.0945,-0.0065,0.0262,0.0226,2047
17,0.074,-1.009,-0.0986,-0.0059,0.0221,0.0209,2045
17,0.0771,-1.0085,-0.1047,-0.0049,0.0166,0.014,2045
17,0.0776,-1.01,-0.1243,0.0009,0.0198,0.0154,2051
17,0.072,-1.0066,-0.1106,-0.0036,0.0234,0.0149,2044
17,0.0745,-1.0122,-0.1123,-0.0039,0.0209,0.019,2048
17,0.0747,-1.0125,-0.1057,-0.0029,0.0137,0.0186,2046
17,0.0737,-1.0076,-0.1045,-0.0005,0.0129,0.0166,2053
17,0.0867,-1.0042,-0.1035,-0.0053,0.0142,0.0169,2046
17,0.0813,-1.0142,-0.1057,-0.0065,0.0153,0.0182,2047
17,0.074,-1.0085,-0.1143,-0.0064,0.019,0.0198,2049
17,0.0837,-1.0117,-0.1096,-0.0051,0.0193,0.0209,2047
17,0.0867,-1.0076,-0.116,-0.0037,0.0127,0.0172,2050
17,0.0879,-1.0208,-0.1125,-0.0068,0.0145,0.0185,2047
17,0.0894,-1.0146,-0.1121,-0.006,0.0153,0.0206,2045
17,0.082,-1.0137,-0.1187,-0.0053,0.0236,0.0176,2049
17,0.0764,-1.0125,-0.1028,-0.0011,0.0148,0.0189,2048
17,0.0703,-1.0105,-0.0935,0.0017,0.0109,0.0138,2052
17,0.0759,-1.0115,-0.1116,-0.0007,0.0153,0.0141,2048
17,0.0869,-1.0115,-0.1255,0.0047,0.0261,0.0129,2049
17,0.0828,-1.0125,-0.1133,0.01,0.0184,0.0115,2041
17,0.0913,-1.0068,-0.1321,-0.0011,0.0233,0.0127,2050
17,0.0833,-1.0166,-0.1021,-0.0029,0.0112,0.0129,2042
18,0.0864,-1.0137,-0.1089,-0.0091,0.0079,0.015,2045
18,0.0676,-1.0098,-0.1021,-0.0105,0.0162,0.014,2045
18,0.0793,-1.0061,-0.1021,0.0023,0.0162,0.0119,2049
18,0.082,-1.0125,-0.1003,-0.0068,0.0252,0.0093,2046
18,0.0879,-1.0056,-0.1228,-0.0068,0.0218,0.0148,2047
18,0.0891,-1.0107,-0.1238,-0.0021,0.0284,0.0158,2048
18,0.0991,-1.0122,-0.1128,-0.0032,0.0265,0.0186,2045
18,0.0903,-1.021,-0.1233,0.0027,0.024,0.0232,2048
18,0.0881,-1.0103,-0.1228,0.0101,0.0325,0.0292,2046
18,0.0859,-1.0081,-0.1118,0.0077,0.0365,0.0326,2044
18,0.0791,-1.0042,-0.1025,0.0099,0.0361,0.0328,2038
18,0.072,-1.01,-0.1086,0.0081,0.0274,0.0364,2048
18,0.083,-1.0122,-0.0972,0.0048,0.02,0.031,2047
18,0.0847,-1.0081,-0.0959,0.0015,0.022,0.0313,2049
18,0.0808,-1.0112,-0.1035,0.0035,0.0277,0.0297,2050
18,0.0715,-1.0085,-0.1079,0.0016,0.034,0.0288,2048
18,0.0632,-1.01,-0.1006,0.0073,0.0384,0.0288,2046
18,0.0715,-1.0059,-0.0894,0.0096,0.0238,0.0214,2048
18,0.0762,-1.0078,-0.1023,0.0,0.0173,0.0189,2051
18,0.0818,-1.0161,-0.1125,-0.0031,0.017,0.0192,2045
18,0.0806,-1.0078,-0.1133,0.0019,0.02,0.0153,2048
18,0.0691,-1.0168,-0.1069,0.0031,0.0261,0.0145,2049
18,0.0786,-1.0076,-0.1021,0.0004,0.0238,0.0133,2050
18,0.072,-1.0156,-0.0925,0.006,0.0129,0.0148,2044
18,0.0796,-1.0164,-0.0996,-0.0084,0.0079,0.0079,2052
18,0.0823,-1.0122,-0.1091,-0.004,0.0123,0.0125,2047
18,0.0833,-1.0151,-0.1108,-0.0003,0.022,0.0096,2042
18,0.082,-1.0088,-0.1099,0.0032,0.0266,0.0111,2042
18,0.0813,-1.0076,-0.0996,0.0063,0.0201,0.0132,2049
18,0.0859,-1.0066,-0.1052,0.0031,0.0186,0.0096,2049
18,0.0828,-1.0137,-0.1069,0.0033,0.0166,0.0091,2051
18,0.0825,-1.0125,-0.1091,0.0111,0.0152,0.0145,2049
18,0.0857,-1.0146,-0.1108,0.0044,0.0128,0.0154,2051
18,0.0891,-1.0112,-0.1094,0.0029,0.0213,0.0204,2047
18,0.0859,-1.0127,-0.1042,0.0036,0.0154,0.0184,2044
18,0.0815,-1.0115,-0.105,-0.0013,0.0225,0.0241,2051
18,0.0754,-1.0166,-0.1079,0.0081,0.0244,0.022,2053
18,0.0837,-1.0137,-0.1155,0.0024,0.0308,0.0208,2044
18,0.0818,-1.0142,-0.1033,0.0125,0.0325,0.0224,2046
18,0.0659,-1.0068,-0.1062,0.0108,0.0261,0.0202,2043
18,0.0752,-1.0134,-0.1121,0.008,0.0128,0.0202,2051
18,0.0769,-1.0103,-0.1179,0.0031,0.0008,0.0201,2050
18,0.0811,-1.0088,-0.1233,0.0013,-0.0004,0.019,2045
18,0.0784,-1.0105,-0.1101,0.0045,0.0123,0.022,2046
18,0.0786,-1.0105,-0.1057,0.0049,0.0108,0.0198,2050
18,0.0791,-1.0146,-0.1152,0.0075,0.0266,0.0158,2048
18,0.075,-1.0085,-0.103,0.0037,0.0246,0.0168,2046
18,0.0793,-1.0151,-0.1162,0.0071,0.0168,0.0189,2052
18,0.0881,-1.0168,-0.1094,0.0057,0.01,0.0205,2050
18,0.0801,-1.0132,-0.1101,0.0049,0.023,0.0212,2048
18,0.0833,-1.0078,-0.1091,0.0063,0.0213,0.0208,2051
18,0.0845,-1.0093,-0.1123,0.0003,0.0113,0.0272,2047
18,0.0881,-1.0105,-0.1106,0.0007,0.0142,0.032,2047
18,0.0918,-1.0146,-0.094,0.0035,0.0344,0.0308,2046
18,0.0847,-1.0149,-0.1099,0.0067,0.0384,0.0369,2052
18,0.0732,-1.019,-0.1172,0.0181,0.0449,0.0403,2046
18,0.0786,-1.0063,-0.1038,0.0172,0.0397,0.0368,2050
18,0.0701,-1.0115,-0.1155,0.0206,0.0384,0.0381,2053
18,0.0674,-1.0061,-0.1123,0.0165,0.0293,0.0344,2048
18,0.0779,-1.0071,-0.0994,0.0065,0.0261,0.0316,2045
18,0.0657,-1.0032,-0.1062,0.0049,0.029,0.0325,2043
18,0.0706,-1.001,-0.1086,0.0084,0.033,0.029,2048
18,0.0706,-1.0122,-0.1013,0.0009,0.0264,0.0257,2045
18,0.0806,-1.0125,-0.1147,-0.0024,0.0214,0.0242,2047
18,0.0764,-1.0127,-0.0984,-0.0047,0.0265,0.0256,2044
18,0.0742,-1.0149,-0.1067,0.0049,0.0176,0.0218,2049
18,0.0767,-1.0122,-0.0959,0.0001,0.0212,0.021,2051
18,0.071,-1.0105,-0.1052,-0.0013,0.0204,0.0205,2047
18,0.0696,-1.0117,-0.0945,-0.0029,0.0206,0.0144,2046
18,0.0693,-1.0093,-0.1047,-0.0024,0.0087,0.0134,2046
18,0.0757,-1.0122,-0.1016,-0.0075,0.0083,0.0128,2046
18,0.0825,-1.0056,-0.1155,-0.0037,0.0072,0.0107,2050
18,0.0881,-1.011,-0.1108,0.0011,0.0091,0.0105,2046
18,0.083,-1.0186,-0.1062,-0.0065,0.01,0.0153,2047
18,0.0767,-1.0125,-0.1082,-0.0017,0.0124,0.0193,2049
18,0.0779,-1.0085,-0.1121,0.0023,0.0093,0.0137,2048
18,0.0825,-1.0146,-0.1062,0.0005,0.014,0.018,2048
18,0.0835,-1.0149,-0.1006,-0.002,0.0261,0.0202,2051
18,0.0786,-1.0078,-0.1006,0.0028,0.027,0.021,2043
18,0.0823,-1.0117,-0.1089,-0.0017,0.0305,0.0264,2046
18,0.0828,-1.0088,-0.1001,0.0032,0.0269,0.0221,2042
18,0.0657,-1.0098,-0.0981,-0.0003,0.0277,0.0257,2051
18,0.0715,-1.0149,-0.1062,-0.0049,0.0045,0.0242,2048
18,0.0728,-1.0117,-0.1045,-0.0063,-0.0005,0.0212,2039
18,0.0684,-1.0063,-0.1052,-0.0111,0.0124,0.0169,2048
18,0.0859,-1.0142,-0.1108,-0.006,0.0101,0.0154,2050
18,0.092,-1.0122,-0.1191,0.0104,0.0142,0.0142,2051
18,0.0803,-1.0093,-0.1284,0.0221,0.0091,0.0178,2042
18,0.0769,-1.0071,-0.1255,0.0274,0.0269,0.0213,2047
18,0.0771,-1.0095,-0.113,0.0273,0.0194,0.0124,2045
18,0.0588,-1.0144,-0.1045,0.024,-0.0075,0.0129,2043
18,0.0728,-1.0022,-0.1194,0.0184,-0.0035,0.015,2048
18,0.0723,-1.011,-0.1006,0.0095,-0.0035,0.0117,2050
18,0.0784,-1.0159,-0.105,0.0037,0.008,0.0153,2046
18,0.1035,-1.0181,-0.0986,-0.0069,0.0224,0.0149,2044
18,0.0916,-1.0212,-0.1218,0.0025,0.0543,0.0244,2047
18,0.0779,-1.0112,-0.0979,-0.0092,0.0676,0.0261,2040
18,0.0759,-1.0105,-0.1006,0.0005,0.0768,0.03,2044
18,0.0737,-1.0032,-0.1169,0.0088,0.0629,0.0284,2049
18,0.0789,-1.0115,-0.1121,0.0025,0.0478,0.0278,2045
18,0.0669,-1.0115,-0.1099,0.0068,0.0397,0.0285,2048
19,0.0664,-1.0132,-0.1079,0.0069,0.024,0.0258,2054
19,0.0769,-1.0222,-0.0989,0.0071,0.0164,0.0214,2045
19,0.0762,-1.0168,-0.1003,0.0084,0.0221,0.0234,2045
19,0.0632,-1.0081,-0.1016,0.0097,0.0334,0.0202,2048
19,0.0698,-1.0168,-0.0972,0.002,0.0241,0.0181,2047
19,0.0779,-1.011,-0.1157,0.0045,0.0178,0.0214,2053
19,0.083,-1.0068,-0.1155,0.0047,0.0208,0.0229,2047
19,0.0786,-1.012,-0.1169,0.0045,0.0093,0.0206,2040
19,0.072,-1.0083,-0.1021,0.0117,0.0168,0.0218,2045
19,0.0784,-1.0144,-0.0969,0.0109,0.0157,0.0226,2045
19,0.0676,-1.0107,-0.0803,0.0061,0.0213,0.0214,2053
19,0.0686,-1.0076,-0.103,0.0071,0.019,0.0206,2049
19,0.0664,-1.0098,-0.093,0.0025,0.0146,0.0178,2052
19,0.0674,-1.0134,-0.0974,0.0001,0.0073,0.0165,2042
19,0.0679,-1.0125,-0.1074,-0.0128,0.0003,0.0168,2049
19,0.0767,-1.0134,-0.1118,-0.0153,-0.0021,0.0148,2046
19,0.0801,-1.0117,-0.1069,-0.0085,0.0,0.0164,2047
19,0.0781,-1.0134,-0.1006,-0.0071,0.0056,0.0176,2050
19,0.0703,-1.0142,-0.1194,-0.0036,0.0131,0.0178,2053
19,0.0703,-1.0115,-0.1025,-0.0063,0.0056,0.0196,2049
19,0.0732,-1.0107,-0.114,-0.0008,0.0164,0.02,2053
19,0.0762,-1.0129,-0.0935,-0.0008,0.0176,0.0202,2051
19,0.0833,-1.0115,-0.1096,-0.0097,0.0129,0.0196,2047
19,0.0708,-1.0076,-0.1091,-0.0095,0.0115,0.0233,2049
19,0.0784,-1.0085,-0.1042,-0.017,0.0001,0.022,2043
19,0.0725,-1.0127,-0.1121,-0.0108,0.0003,0.0217,2049
19,0.0735,-1.0081,-0.1067,-0.016,0.0145,0.0249,2048
19,0.0696,-1.0134,-0.1021,-0.0101,0.0128,0.0224,2049
19,0.0742,-1.0103,-0.0957,-0.006,0.014,0.0158,2047
19,0.0723,-1.0115,-0.1094,-0.0076,0.014,0.0161,2046
19,0.0845,-1.0151,-0.1135,-0.0111,0.0154,0.017,2050
19,0.0679,-1.0142,-0.123,-0.0095,0.0224,0.0156,2045
19,0.0735,-1.0078,-0.1138,-0.0088,0.0285,0.0182,2049
19,0.0808,-1.0093,-0.1028,-0.0124,0.016,0.0166,2046
19,0.0881,-1.0134,-0.1038,-0.0136,0.0047,0.0193,2057
19,0.0833,-1.0139,-0.0967,-0.0071,0.0131,0.0237,2049
19,0.0852,-1.0071,-0.1016,-0.0112,0.0206,0.0228,2050
19,0.0762,-1.0122,-0.0984,-0.0051,0.0178,0.0252,2047
19,0.0806,-1.0139,-0.1018,-0.0041,0.0194,0.0265,2054
19,0.0796,-1.012,-0.1177,-0.0097,0.0306,0.0296,2046
19,0.0791,-1.0164,-0.1169,-0.0071,0.0334,0.0325,2052
19,0.0933,-1.0078,-0.1182,-0.0161,0.0278,0.0389,2054
19,0.082,-1.0181,-0.1228,-0.0077,0.0328,0.0418,2049
19,0.0881,-1.0127,-0.1052,-0.0132,0.0269,0.0461,2050
19,0.0781,-1.019,-0.1077,-0.0056,0.0282,0.0454,2054
19,0.0828,-1.0176,-0.1143,-0.0021,0.0233,0.0483,2058
19,0.0659,-1.0061,-0.1062,-0.004,0.0405,0.0421,2050
19,0.0691,-1.0142,-0.1016,-0.0024,0.033,0.0414,2049
19,0.0603,-1.0083,-0.1089,0.0065,0.0332,0.0334,2045
19,0.061,-1.0129,-0.1116,-0.0031,0.0284,0.0341,2050
19,0.0564,-1.0068,-0.1047,-0.0015,0.0197,0.0312,2050
19,0.0762,-1.0071,-0.0996,-0.0091,0.0197,0.0348,2048
19,0.0725,-1.0151,-0.0984,-0.0103,0.0293,0.0298,2043
19,0.0706,-1.0134,-0.0896,-0.0131,0.0141,0.0346,2048
19,0.0652,-1.0083,-0.103,-0.0177,0.0061,0.0244,2051
19,0.061,-1.0107,-0.1084,-0.0077,0.0172,0.0224,2046
19,0.0684,-1.0117,-0.1116,-0.012,0.0304,0.0205,2048
19,0.0603,-1.0098,-0.1174,-0.0121,0.0374,0.0168,2046
19,0.0706,-1.0154,-0.1133,-0.0176,0.0459,0.0144,2049
19,0.0745,-1.0129,-0.1267,-0.0123,0.0541,0.0205,2041
19,0.0784,-1.0059,-0.1218,-0.0097,0.0507,0.0233,2042
19,0.0718,-1.0063,-0.1187,-0.0188,0.0386,0.0218,2047
19,0.0747,-1.0161,-0.1189,-0.0181,0.0356,0.0238,2046
19,0.0674,-1.0161,-0.1074,-0.0193,0.0205,0.021,2051
19,0.071,-1.011,-0.1128,-0.0068,0.0292,0.0181,2050
19,0.0774,-1.0103,-0.105,0.0076,0.0249,0.0174,2049
19,0.0762,-1.0149,-0.1167,0.0044,0.0225,0.0202,2047
19,0.0728,-1.0137,-0.1191,0.0056,0.0186,0.0188,2052
19,0.072,-1.0178,-0.1113,0.0045,0.0244,0.0237,2054
19,0.0728,-1.0081,-0.1038,-0.0145,0.0313,0.0242,2048
19,0.0674,-1.0098,-0.1055,-0.0156,0.0378,0.0265,2045
19,0.0559,-1.0051,-0.1096,-0.0176,0.0485,0.0245,2049
19,0.0652,-1.0154,-0.103,-0.0125,0.0402,0.0196,2049
19,0.0623,-1.0085,-0.1123,-0.0144,0.0481,0.018,2054
19,0.0571,-1.0105,-0.116,-0.0144,0.045,0.006,2052
19,0.0564,-1.0044,-0.1079,-0.0067,0.0317,0.0089,2044
19,0.0681,-1.011,-0.1128,-0.0004,0.0186,0.0037,2042
19,0.075,-1.0159,-0.1064,-0.0036,0.0072,0.0031,2044
19,0.0833,-1.0146,-0.1038,0.0045,0.0043,0.0019,2045
19,0.0706,-1.0142,-0.1128,0.0037,-0.0017,0.0071,2045
19,0.0776,-1.0134,-0.1016,0.0023,-0.0051,0.0069,2052
19,0.0759,-1.0129,-0.1143,0.0047,-0.0096,0.0121,2050
19,0.0869,-1.0129,-0.1106,0.0045,-0.0149,0.0084,2051
19,0.0789,-1.019,-0.1172,0.0041,-0.002,0.0158,2045
19,0.0735,-1.0151,-0.1094,0.0024,-0.0047,0.0198,2034
19,0.0791,-1.0066,-0.1099,0.0097,-0.01,0.0205,2053
19,0.0742,-1.0161,-0.114,0.0087,0.0027,0.0249,2048
19,0.0679,-1.0088,-0.0994,0.0059,-0.0059,0.0238,2045
19,0.0693,-1.0149,-0.1023,-0.0004,-0.002,0.0266,2046
19,0.0823,-1.0168,-0.1191,0.0087,-0.0081,0.0246,2050
19,0.0664,-1.0173,-0.1113,0.0043,0.0013,0.0261,2050
19,0.0725,-1.0117,-0.103,0.0031,0.0087,0.0316,2043
19,0.0583,-1.011,-0.0977,-0.0048,0.0154,0.0294,2043
19,0.0679,-1.0107,-0.1057,-0.0025,0.0069,0.0252,2051
19,0.0649,-1.0122,-0.1077,-0.0065,0.0108,0.0224,2048
19,0.0671,-1.0181,-0.1072,-0.0096,0.0144,0.0274,2046
19,0.0681,-1.0015,-0.114,-0.0065,0.0146,0.0233,2045
19,0.0603,-1.0127,-0.1101,-0.0041,0.0206,0.025,2049
19,0.0593,-1.0117,-0.0989,-0.0031,0.0096,0.0161,2051
19,0.0574,-1.0059,-0.0933,0.0011,0.0033,0.0131,2037
19,0.061,-1.0122,-0.0928,-0.0001,-0.0009,0.0093,2048
19,0.0664,-1.0061,-0.1057,-0.004,0.0025,0.0048,2046
19,0.0701,-1.0115,-0.1179,-0.0024,0.0047,0.0068,2044
19,0.0679,-1.0107,-0.1201,-0.0072,0.0099,0.0064,2041
20,0.0706,-1.0173,-0.1218,-0.0079,0.0015,0.0081,2048
20,0.082,-1.012,-0.1187,-0.0123,0.0007,0.0088,2054
20,0.0835,-1.0122,-0.1287,-0.0124,0.0087,0.0148,2052
20,0.0796,-1.0173,-0.1204,-0.0129,0.0172,0.017,2046
20,0.0791,-1.0127,-0.1106,-0.0112,0.0245,0.0244,2054
20,0.0669,-1.0088,-0.1133,-0.008,0.0225,0.0228,2051
20,0.0669,-1.0117,-0.1055,-0.0061,0.0168,0.0208,2044
20,0.0754,-1.0142,-0.1082,-0.0053,0.0096,0.021,2046
20,0.0706,-1.0122,-0.1147,-0.0057,0.0075,0.0222,2045
20,0.0667,-1.0166,-0.1011,-0.0119,0.0217,0.0262,2045
20,0.0723,-1.0093,-0.1091,-0.0072,0.0161,0.0221,2047
20,0.0781,-1.0122,-0.1079,-0.0117,0.0169,0.0222,2049
20,0.0667,-1.0125,-0.116,-0.0128,0.0265,0.0222,2045
20,0.0688,-1.0115,-0.1147,-0.0107,0.0253,0.0182,2048
20,0.064,-1.0088,-0.123,-0.0099,0.0188,0.0192,2048
20,0.0715,-1.0071,-0.1135,-0.0142,0.0134,0.023,2046
20,0.0608,-1.0122,-0.113,-0.0117,0.015,0.017,2050
20,0.0591,-1.0107,-0.1067,-0.0103,0.019,0.0189,2050
20,0.0723,-1.0105,-0.1262,-0.0125,0.0099,0.0133,2053
20,0.0718,-1.0161,-0.1216,-0.0087,0.0125,0.0123,2048
20,0.0764,-1.0159,-0.1187,-0.0036,0.0127,0.0149,2044
20,0.0747,-1.011,-0.1172,-0.0052,0.0232,0.0192,2044
20,0.0808,-1.0105,-0.114,-0.0033,0.0254,0.0173,2050
20,0.0671,-1.0137,-0.1221,-0.0029,0.0256,0.029,2044
20,0.0801,-1.0129,-0.1143,0.0001,0.0314,0.0257,2049
20,0.0811,-1.0166,-0.1162,-0.0057,0.0314,0.033,2049
20,0.0764,-1.0127,-0.1011,-0.0072,0.0294,0.0384,2048
20,0.0703,-1.0217,-0.1182,-0.0061,0.0337,0.0399,2047
20,0.071,-1.0093,-0.1111,-0.0083,0.0265,0.043,2049
20,0.0752,-1.0037,-0.1147,-0.0115,0.0224,0.0531,2052
20,0.0737,-1.0317,-0.1299,-0.0161,0.0216,0.0546,2046
20,0.0635,-1.0134,-0.1145,-0.0005,0.0324,0.0501,2048
20,0.0674,-1.0161,-0.103,0.0011,0.0342,0.0421,2040
20,0.0615,-1.0068,-0.1248,-0.0036,0.0378,0.043,2049
20,0.0544,-1.0166,-0.103,-0.0037,0.0292,0.0409,2047
20,0.0505,-1.0085,-0.1096,-0.0048,0.0302,0.0362,2047
20,0.0474,-1.0132,-0.0981,-0.0009,0.0264,0.0296,2046
20,0.0613,-1.021,-0.1047,-0.0021,0.0113,0.0288,2049
20,0.0706,-1.0122,-0.1035,-0.0061,0.0145,0.0257,2047
20,0.0632,-1.0112,-0.1099,-0.0107,0.0264,0.0312,2047
20,0.0566,-1.0137,-0.1064,-0.0101,0.0212,0.025,2049
20,0.0632,-1.0103,-0.103,-0.0077,0.0166,0.0325,2050
20,0.0579,-1.0144,-0.1155,-0.008,0.0088,0.0201,2046
20,0.0586,-1.0156,-0.1245,-0.0049,0.0035,0.0136,2048
20,0.0708,-1.0134,-0.1199,-0.012,0.0164,0.0149,2045
20,0.0681,-1.0046,-0.1306,-0.0121,0.0107,0.0166,2047
20,0.0701,-1.0088,-0.1335,-0.0111,0.0138,0.014,2052
20,0.0688,-1.0115,-0.1245,-0.0057,0.0193,0.0157,2045
20,0.0593,-1.0144,-0.115,-0.0031,0.019,0.0197,2048
20,0.0693,-1.0115,-0.1062,-0.0051,0.0221,0.0188,2051
20,0.0605,-1.0166,-0.1155,-0.008,0.0238,0.0229,2048
20,0.0642,-1.0154,-0.1018,-0.0107,0.021,0.0186,2050
20,0.0686,-1.0195,-0.1072,-0.0085,0.023,0.0194,2054
20,0.0703,-1.0142,-0.1077,-0.0099,0.0174,0.0192,2046
20,0.0681,-1.0144,-0.123,-0.0111,0.0146,0.0149,2041
20,0.0652,-1.0063,-0.1235,-0.0068,0.0136,0.019,2051
20,0.0627,-1.0181,-0.1155,-0.0071,0.0111,0.021,2052
20,0.0647,-1.0107,-0.1277,-0.006,0.0229,0.0208,2050
20,0.0679,-1.0068,-0.1191,-0.0109,0.018,0.0209,2048
20,0.0652,-1.0146,-0.1062,-0.0107,0.0196,0.0182,2047
20,0.0681,-1.012,-0.1138,-0.0085,0.0277,0.0238,2048
20,0.0652,-1.0137,-0.1182,-0.0116,0.0194,0.0246,2050
20,0.0671,-1.0078,-0.114,-0.0009,0.0233,0.0253,2049
20,0.0835,-1.0046,-0.1143,-0.0041,0.0188,0.0477,2047
20,0.0564,-1.0266,-0.1191,-0.0108,0.0157,0.0266,2050
20,0.0593,-1.0134,-0.1187,-0.0059,0.014,0.0237,2049
20,0.0566,-1.0134,-0.1167,-0.0085,0.0168,0.0238,2049
20,0.0635,-1.011,-0.1223,-0.0075,0.0164,0.0244,2047
20,0.0598,-1.0129,-0.1194,-0.0051,0.0185,0.0234,2052
20,0.0706,-1.0093,-0.1301,-0.0055,0.0274,0.0249,2050
20,0.073,-1.0142,-0.1155,-0.004,0.0288,0.0258,2045
20,0.0759,-1.0132,-0.1333,-0.0063,0.0308,0.0265,2044
20,0.0696,-1.0176,-0.1313,-0.004,0.0356,0.0301,2042
20,0.0698,-1.0093,-0.1287,-0.0012,0.036,0.0342,2039
20,0.0742,-1.0132,-0.1414,0.0047,0.0431,0.0399,2047
20,0.0715,-1.0066,-0.1326,0.0069,0.0288,0.0543,2045
20,0.0559,-1.0166,-0.1282,0.0025,0.0289,0.0495,2045
20,0.0701,-1.0171,-0.1135,0.008,0.0273,0.0406,2045
20,0.0603,-1.0112,-0.1174,0.0023,0.0234,0.0423,2052
20,0.0632,-1.0115,-0.1104,-0.0011,0.0226,0.0473,2057
20,0.0544,-1.0203,-0.1177,-0.0085,0.0318,0.0455,2048
20,0.0508,-1.0151,-0.115,-0.0024,0.0333,0.0318,2050
20,0.0537,-1.0168,-0.1216,-0.0009,0.0268,0.0308,2046
20,0.0645,-1.0137,-0.1147,0.0033,0.0237,0.0297,2047
20,0.0588,-1.0159,-0.1233,0.0047,0.0312,0.0328,2054
20,0.0552,-1.011,-0.115,0.0035,0.0306,0.0326,2049
20,0.0508,-1.0122,-0.1082,-0.0019,0.0213,0.0286,2046
20,0.0576,-1.0176,-0.1021,-0.0105,0.0204,0.0292,2045
20,0.0508,-1.011,-0.1208,-0.0127,0.0154,0.0189,2049
20,0.0552,-1.0198,-0.1152,-0.0121,0.0124,0.0192,2035
20,0.0542,-1.0095,-0.1199,-0.0053,0.0148,0.0153,2043
20,0.0481,-1.0044,-0.1233,-0.0019,0.0133,0.0095,2049
20,0.0522,-1.0151,-0.1243,-0.0007,0.0121,0.0107,2044
20,0.0598,-1.0103,-0.1243,0.0027,0.01,0.0099,2049
20,0.0544,-1.0103,-0.1174,0.0087,0.0169,0.0075,2048
20,0.0576,-1.0166,-0.1328,0.006,0.0188,0.0068,2043
20,0.0583,-1.0142,-0.1208,-0.0015,0.0131,0.0123,2053
20,0.0635,-1.0122,-0.1096,0.0025,0.0084,0.0124,2046
20,0.0586,-1.0168,-0.1001,0.0029,0.0037,0.0121,2047
20,0.0632,-1.0171,-0.1108,0.0007,0.0212,0.0125,2052
20,0.0554,-1.0154,-0.1143,0.0063,0.0168,0.0113,2045
21,0.0591,-1.0129,-0.1245,0.0096,0.0,0.0152,2053
21,0.0667,-1.0151,-0.1279,0.0093,0.0008,0.0144,2046
21,0.061,-1.01,-0.1167,0.004,0.0015,0.017,2048
21,0.0579,-1.0198,-0.1106,0.0044,0.008,0.0158,2052
21,0.0439,-1.0088,-0.1096,0.0028,-0.0011,0.012,2060
21,0.0537,-1.0103,-0.1172,0.0053,-0.0125,0.0109,2050
21,0.0667,-1.0195,-0.1157,0.0101,0.0013,0.0085,2055
21,0.0742,-1.0132,-0.123,0.01,0.0268,0.0065,2038
21,0.0664,-1.0107,-0.1372,0.0004,0.0537,0.0142,2043
21,0.0708,-1.012,-0.137,-0.0089,0.0956,0.021,2044
21,0.0525,-1.0151,-0.1262,-0.0007,0.0916,0.0192,2048
21,0.053,-1.0151,-0.1157,-0.0043,0.0826,0.0225,2052
21,0.0605,-1.0115,-0.1255,-0.0015,0.0611,0.0193,2044
21,0.0715,-1.0159,-0.1001,-0.0041,0.0459,0.0123,2045
21,0.0642,-1.0159,-0.115,0.0156,0.0417,0.0119,2049
21,0.0544,-1.0195,-0.1077,0.0146,0.0475,0.0132,2051
21,0.064,-1.0203,-0.1123,0.0085,0.0338,0.0137,2051
21,0.0632,-1.0166,-0.1211,-0.0083,0.0388,0.0174,2046
21,0.0674,-1.0161,-0.124,-0.0136,0.0487,0.0176,2048
21,0.0605,-1.0105,-0.1255,-0.0088,0.0525,0.0249,2063
21,0.0737,-1.0107,-0.1292,-0.0197,0.0529,0.036,2047
21,0.0769,-1.0198,-0.1387,0.0015,0.0675,0.0332,2047
21,0.05,-1.0054,-0.1094,0.0134,0.083,0.0338,2046
21,0.0459,-1.0139,-0.1064,0.0257,0.0623,0.027,2043
21,0.0498,-1.0139,-0.0981,0.0257,0.0498,0.0202,2046
21,0.0588,-1.0159,-0.0969,0.0308,0.039,0.0188,2044
21,0.0466,-1.0098,-0.1067,0.0288,0.0189,0.0169,2049
21,0.0593,-1.0107,-0.1243,0.012,0.0138,0.0146,2046
21,0.061,-1.0139,-0.1094,0.0071,0.01,0.0178,2049
21,0.0588,-1.0146,-0.1084,0.0,0.0045,0.0188,2042
21,0.0625,-1.0171,-0.1094,-0.0021,0.0057,0.0123,2050
21,0.0522,-1.0173,-0.1099,0.0111,0.0124,0.0127,2049
21,0.0547,-1.0132,-0.1082,0.0053,0.0019,0.0096,2049
21,0.0525,-1.0139,-0.1194,0.0013,-0.0032,0.0075,2056
21,0.0559,-1.0107,-0.1248,0.0,-0.017,0.0069,2051
21,0.0593,-1.0103,-0.1101,-0.0093,-0.0252,0.0041,2046
21,0.0686,-1.0154,-0.1191,-0.0129,-0.0324,0.0077,2046
21,0.0669,-1.0168,-0.1204,-0.0144,-0.0329,0.0077,2052
21,0.0632,-1.012,-0.1143,-0.0096,-0.0313,0.0091,2047
21,0.0664,-1.0164,-0.1067,-0.0152,-0.028,0.0149,2052
21,0.0708,-1.0137,-0.1155,-0.0141,-0.0297,0.0123,2054
21,0.0747,-1.0178,-0.1294,-0.0041,-0.0168,0.0127,2047
21,0.0574,-1.0149,-0.1235,0.0045,-0.0065,0.0145,2045
21,0.0583,-1.0144,-0.1135,0.0071,-0.0101,0.0115,2047
21,0.0593,-1.0137,-0.1196,0.0045,-0.0123,0.0158,2043
21,0.0659,-1.0115,-0.1223,0.0057,-0.008,0.0182,2045
21,0.0742,-1.0156,-0.125,-0.0012,-0.0035,0.0176,2048
21,0.0676,-1.0129,-0.114,-0.0009,0.0048,0.0228,2049
21,0.0544,-1.0176,-0.1099,-0.006,0.0013,0.0209,2045
21,0.0486,-1.0142,-0.1133,-0.0089,0.0047,0.0213,2049
21,0.0579,-1.0076,-0.1199,-0.0105,0.0064,0.0197,2044
21,0.0605,-1.0203,-0.1113,-0.0137,0.0029,0.0173,2050
21,0.0664,-1.0132,-0.125,-0.0044,0.0129,0.0221,2045
21,0.0615,-1.0093,-0.1321,-0.0055,0.0258,0.0212,2045
21,0.0654,-1.0159,-0.1147,-0.0052,0.0212,0.0244,2047
21,0.0645,-1.0125,-0.1165,0.0011,0.0192,0.0246,2048
21,0.0601,-1.01,-0.1267,0.0036,0.0201,0.0233,2045
21,0.0566,-1.0186,-0.1155,0.0025,0.021,0.0225,2049
21,0.0552,-1.0063,-0.1257,0.0099,0.0232,0.0261,2049
21,0.0574,-1.0112,-0.1121,0.0072,0.0238,0.0194,2051
21,0.0591,-1.0139,-0.1062,0.0023,0.0168,0.0254,2049
21,0.0706,-1.0142,-0.1128,-0.0023,0.0132,0.021,2045
21,0.0696,-1.0142,-0.1196,-0.002,0.0166,0.0262,2047
21,0.0632,-1.0139,-0.1248,-0.0035,0.0289,0.031,2044
21,0.0703,-1.0139,-0.1177,-0.002,0.0346,0.0349,2048
21,0.071,-1.0129,-0.1296,-0.0036,0.0325,0.0362,2043
21,0.0601,-1.0239,-0.1252,0.0032,0.043,0.0397,2051
21,0.0635,-1.0144,-0.115,0.0037,0.032,0.0407,2055
21,0.0562,-1.0137,-0.1235,0.0115,0.0284,0.0378,2046
21,0.0444,-1.012,-0.1191,0.0072,0.0312,0.0365,2045
21,0.0483,-1.0107,-0.1157,0.0079,0.0245,0.0322,2043
21,0.0505,-1.0125,-0.1311,-0.0027,0.0214,0.0294,2047
21,0.0566,-1.0142,-0.1133,-0.0003,0.0189,0.0253,2044
21,0.0562,-1.0137,-0.1182,-0.0061,0.0196,0.0269,2048
21,0.0493,-1.0137,-0.1194,-0.0052,0.017,0.0216,2047
21,0.0559,-1.0071,-0.1116,-0.0072,0.02,0.02,2049
21,0.0479,-1.0234,-0.1152,0.0019,0.0257,0.0177,2046
21,0.053,-1.0088,-0.1233,-0.0011,0.0228,0.0148,2049
21,0.0408,-1.0132,-0.1072,0.0004,0.0178,0.0148,2047
21,0.0542,-1.0156,-0.1138,0.0031,0.0081,0.0116,2046
21,0.054,-1.0168,-0.1282,-0.0027,0.0084,0.0087,2047
21,0.0535,-1.0103,-0.1228,-0.0021,-0.0011,0.0068,2046
21,0.0652,-1.0137,-0.1196,-0.0076,0.0076,0.0071,2051
21,0.05,-1.0056,-0.1218,-0.0065,0.0116,0.0105,2049
21,0.0554,-1.0122,-0.1204,-0.0049,0.0029,0.0073,2048
21,0.0693,-1.0173,-0.1162,-0.0017,0.0101,0.0104,2046
21,0.0557,-1.0139,-0.125,0.0012,0.0161,0.0105,2048
21,0.0642,-1.0129,-0.125,0.0044,0.0123,0.0128,2050
21,0.0674,-1.0112,-0.1245,0.0016,0.0202,0.0152,2048
21,0.0518,-1.0073,-0.1143,0.0077,0.0266,0.0149,2051
21,0.0698,-1.0142,-0.1238,0.004,0.023,0.0141,2049
21,0.0608,-1.0205,-0.1128,0.0076,0.0117,0.0149,2044
21,0.0552,-1.0137,-0.1157,0.0004,0.0111,0.015,2048
21,0.0557,-1.0161,-0.1074,0.0032,0.0153,0.0161,2052
21,0.0557,-1.009,-0.1082,0.0047,0.014,0.0131,2047
21,0.054,-1.012,-0.125,0.0004,0.0088,0.0145,2052
21,0.0564,-1.011,-0.1204,0.0048,0.0112,0.0099,2053
21,0.0615,-1.0176,-0.116,0.0013,0.0198,0.0109,2050
21,0.0691,-1.0156,-0.1277,0.0099,0.0134,0.0113,2058
21,0.0725,-1.0137,-0.1326,0.0039,0.0518,0.0205,2049
22,0.0559,-1.0122,-0.1157,0.0004,0.075,0.0252,2043
22,0.0479,-1.0095,-0.1191,0.0043,0.0699,0.021,2044
22,0.0557,-1.0166,-0.1028,0.008,0.0638,0.0172,2050
22,0.0435,-1.0085,-0.1067,0.0095,0.0538,0.019,2048
22,0.0508,-1.0144,-0.1189,0.0061,0.0419,0.0149,2056
22,0.062,-1.0215,-0.1255,-0.0017,0.0421,0.0145,2044
22,0.0566,-1.0093,-0.1243,-0.0008,0.039,0.0124,2045
22,0.0627,-1.0171,-0.1208,0.0041,0.0265,0.0069,2052
22,0.073,-1.0159,-0.1187,0.006,0.0292,0.0148,2045
22,0.0674,-1.0188,-0.1213,0.0077,0.0345,0.0166,2051
22,0.0566,-1.0171,-0.1355,0.0182,0.0252,0.0214,2042
22,0.0684,-1.02,-0.1206,0.0169,0.0332,0.0254,2047
22,0.0657,-1.0063,-0.1118,0.0108,0.0361,0.0245,2049
22,0.0588,-1.0237,-0.1182,0.0028,0.045,0.03,2048
22,0.0566,-1.0134,-0.1138,0.0044,0.0482,0.0276,2039
22,0.0542,-1.0115,-0.1306,0.0116,0.0525,0.0272,2048
22,0.0493,-1.0125,-0.1118,0.0148,0.0687,0.0237,2053
22,0.0474,-1.0125,-0.1162,0.0149,0.0664,0.0253,2052
22,0.0459,-1.0085,-0.1074,0.0057,0.0414,0.0201,2046
22,0.0615,-1.0178,-0.1047,0.0031,0.0433,0.0194,2048
22,0.054,-1.0217,-0.1187,0.0101,0.0257,0.0153,2046
22,0.0593,-1.0107,-0.1167,0.0091,0.0121,0.0149,2045
