Timestamp,Ax,Ay,Az,Rx,Ry,Rz,EMG
0,0.043,-1.0662,-0.0203,-0.1032,0.9379,-0.243,2040
0,0.0303,-1.051,-0.0417,-0.1159,0.8883,-0.2328,2039
0,-0.0037,-1.0493,-0.0476,-0.0874,0.8058,-0.2079,2028
0,-0.0164,-1.0576,-0.0757,-0.0415,0.7731,-0.2051,2039
0,-0.0229,-1.0698,-0.0818,-0.0028,0.7763,-0.2124,2033
0,-0.0156,-1.0754,-0.0835,0.0332,0.7662,-0.2032,2039
0,-0.0076,-1.0667,-0.0669,0.0759,0.7368,-0.1918,2037
0,-0.0239,-1.0574,-0.0349,0.1281,0.6718,-0.1518,2038
0,-0.0491,-1.0505,-0.0186,0.1537,0.5996,-0.1105,2036
0,-0.0972,-1.0488,-0.0298,0.1886,0.5352,-0.1149,2040
0,-0.0994,-1.0918,-0.0161,0.1823,0.4225,-0.0655,2039
0,-0.092,-1.0935,-0.0349,0.1566,0.28,-0.0459,2039
0,-0.0559,-1.1143,-0.041,0.134,0.2068,-0.0583,2037
0,-0.0491,-1.1255,-0.0474,0.1073,0.1467,-0.0591,2039
0,-0.0505,-1.1338,-0.041,0.0762,0.0377,-0.0431,2035
0,-0.04,-1.1296,-0.0444,0.0384,-0.0902,-0.0298,2037
0,-0.0391,-1.1306,-0.0481,-0.0016,-0.187,-0.0257,2034
0,-0.0442,-1.1248,-0.0476,-0.0816,-0.2525,-0.0186,2035
0,-0.0569,-1.1091,-0.0454,-0.1585,-0.2879,0.0029,2036
0,-0.0713,-1.0979,-0.033,-0.1947,-0.2863,0.0117,2040
0,-0.0901,-1.0972,-0.0315,-0.2522,-0.2787,0.0304,2036
0,-0.0986,-1.1052,-0.0264,-0.3332,-0.2743,0.0557,2036
0,-0.1028,-1.1113,-0.0315,-0.402,-0.2792,0.0762,2035
0,-0.1162,-1.1101,-0.032,-0.4595,-0.2851,0.0879,2032
0,-0.1167,-1.0969,-0.0354,-0.5277,-0.3032,0.112,2039
0,-0.1152,-1.0815,-0.0552,-0.5727,-0.2675,0.1461,2039
0,-0.1086,-1.0647,-0.0723,-0.6438,-0.1991,0.1518,2039
0,-0.1108,-1.0662,-0.1147,-0.6666,-0.1633,0.195,2039
0,-0.1279,-1.0894,-0.1187,-0.65,-0.1069,0.2707,2031
0,-0.1211,-1.0874,-0.0979,-0.6927,-0.0722,0.3156,2044
0,-0.1177,-1.0764,-0.1194,-0.768,-0.0388,0.3365,2052
0,-0.1233,-1.0981,-0.1492,-0.8435,0.0574,0.3559,2003
0,-0.1533,-1.1257,-0.2058,-0.9071,0.1493,0.441,2025
0,-0.198,-1.0879,-0.2527,-0.9854,0.1747,0.5018,2036
0,-0.1387,-1.0063,-0.2698,-0.9508,0.1147,0.4871,2031
0,-0.0505,-0.9446,-0.2637,-0.804,0.027,0.5125,2034
0,0.0181,-0.8989,-0.241,-0.66,-0.0407,0.5293,2037
0,0.0105,-0.9224,-0.2063,-0.5826,-0.0882,0.5548,2035
0,0.0125,-0.958,-0.1936,-0.5406,-0.2141,0.6034,2039
0,-0.0007,-0.9958,-0.2024,-0.5504,-0.4026,0.6399,2038
0,-0.0171,-1.0242,-0.2361,-0.5908,-0.6249,0.699,2036
0,-0.0544,-1.0068,-0.283,-0.557,-0.813,0.7803,2035
0,-0.0762,-1.0154,-0.2959,-0.4887,-0.9339,0.8289,2032
0,-0.0872,-1.0137,-0.2649,-0.4433,-0.9628,0.8906,2033
0,-0.0986,-1.0015,-0.2603,-0.4179,-0.9597,0.9784,2038
0,-0.134,-0.9949,-0.2544,-0.3946,-0.9449,1.0239,2040
0,-0.1553,-1.0063,-0.248,-0.347,-0.914,1.0489,2036
0,-0.1753,-1.0117,-0.25,-0.2986,-0.8713,1.0589,2034
0,-0.1978,-1.0266,-0.2495,-0.2978,-0.8055,1.0841,2035
0,-0.2168,-1.0164,-0.272,-0.3184,-0.695,1.0761,2039
0,-0.23,-1.0029,-0.2747,-0.3101,-0.5581,1.071,2023
0,-0.2275,-0.9597,-0.2717,-0.2522,-0.4564,0.9465,2037
0,-0.1873,-0.9775,-0.2671,-0.1657,-0.3409,0.9279,2036
0,-0.1753,-0.9963,-0.2534,-0.1081,-0.2453,0.8337,2035
0,-0.1455,-1.0669,-0.26,0.0317,-0.1009,0.8086,2038
0,-0.0828,-1.0591,-0.3059,-0.118,-0.0368,0.6047,2042
0,0.0723,-1.0122,-0.3359,-0.1193,0.082,0.4602,2036
0,0.1921,-0.9854,-0.4282,-0.1742,-0.0814,0.116,2042
0,0.377,-0.9697,-0.4958,-0.1771,0.1177,-0.3502,2038
0,0.5447,-0.9717,-0.4658,-0.0077,0.3842,-0.6999,2029
0,0.512,-1.0359,-0.437,-0.0397,0.3047,-0.7444,2039
0,0.385,-1.1067,-0.3862,-0.055,0.0812,-0.6373,2036
0,0.2131,-1.2085,-0.2981,-0.0851,-0.2779,-0.4392,2036
0,0.0557,-1.2478,-0.2666,-0.2718,-0.5485,-0.2167,2032
0,-0.0137,-1.1982,-0.2537,-0.3998,-0.7252,-0.1863,2033
0,-0.0691,-1.3096,-0.2603,-0.3641,-0.9328,-0.0949,1986
0,-0.0466,-1.3782,-0.2783,-0.4061,-1.2227,-0.071,2043
0,0.0149,-1.3298,-0.2773,-0.4886,-1.4665,-0.0132,2011
0,-0.0378,-1.2837,-0.186,-0.4283,-1.44,-0.0489,2018
0,-0.1663,-1.3091,-0.0872,-0.4779,-1.3356,-0.0591,2033
0,-0.3147,-1.3391,-0.0615,-0.4466,-1.1941,-0.0931,2020
0,-0.3765,-1.2546,-0.0935,-0.3292,-0.8939,-0.0834,2052
0,-0.4426,-1.1282,-0.104,-0.2313,-0.5363,-0.0316,2049
0,-0.4775,-1.1655,-0.0947,-0.1454,-0.1522,0.0618,2050
0,-0.4316,-1.1104,-0.1101,0.0184,0.055,0.2179,2042
0,-0.3618,-1.021,-0.1326,0.1474,0.1108,0.4506,2043
0,-0.3203,-0.8535,-0.1497,0.341,0.038,0.5545,2036
0,-0.1948,-0.7983,-0.1069,0.4034,0.0072,0.6642,2032
0,-0.1406,-0.7251,-0.1042,0.5095,0.034,0.7564,2046
0,-0.1638,-0.6294,-0.147,0.651,-0.0222,0.9578,2032
0,-0.1389,-0.5569,-0.1719,0.7098,-0.0309,1.178,2040
0,-0.1316,-0.4136,-0.231,0.826,-0.0766,1.3058,2035
0,-0.0862,-0.2607,-0.3145,0.9404,-0.0473,1.4203,2031
0,0.0022,-0.2715,-0.4316,0.9851,-0.1021,1.6106,2061
0,0.1377,-0.0078,-0.6089,1.0031,-0.1533,1.5668,2045
0,0.345,0.1018,-0.7268,0.8741,-0.3835,1.3742,2034
0,0.4912,0.1106,-1.0032,0.5213,-0.6871,0.8212,2034
0,0.261,-0.074,-0.9316,0.5698,-0.1253,0.5087,2026
0,0.0435,-0.3201,-0.8035,0.4434,0.7103,0.5409,2035
0,0.0127,-0.1982,-0.6316,0.537,0.9074,0.6554,2039
0,0.0535,-0.1499,-0.468,0.6669,0.6979,0.8644,2046
0,0.0686,-0.2532,-0.374,0.7083,0.687,1.0256,2036
0,0.0093,-0.3579,-0.3132,0.7176,0.8425,1.1627,2026
0,-0.1089,-0.5232,-0.2537,0.712,0.9754,1.2832,2034
0,-0.2815,-0.7683,-0.2197,0.7613,0.9568,1.4671,2038
0,-0.3914,-1.0271,-0.304,0.8934,0.9504,1.5811,2036
0,-0.4905,-1.2725,-0.2668,0.9293,1.1078,1.2595,2019
0,-0.4983,-1.4929,-0.2454,0.583,1.3451,0.8975,2035
0,-0.6223,-1.4517,-0.178,0.241,1.7503,0.7364,2038
0,-0.6626,-1.3076,-0.1089,0.2566,1.9232,0.8463,2033
0,-0.6602,-1.3057,-0.0837,0.3484,1.6827,0.9922,2029
0,-0.6626,-1.3474,-0.0659,0.2908,1.4826,1.1255,2015
1,-0.7336,-1.324,-0.0225,0.1382,1.3147,1.2179,2040
1,-0.8159,-1.1216,-0.0637,0.2651,1.2334,1.2083,2034
1,-0.6846,-1.072,-0.137,0.5312,1.1705,1.0108,2039
1,-0.5723,-1.0864,-0.1653,0.6862,1.2821,0.8387,2040
1,-0.592,-1.0447,-0.1182,0.7557,1.4814,0.6493,2032
1,-0.5459,-1.0293,-0.0779,0.7573,1.4866,0.5831,2037
1,-0.4829,-1.0225,-0.0505,0.7601,1.2962,0.56,2038
1,-0.4546,-1.0171,-0.0381,0.6861,0.9823,0.5727,2036
1,-0.4734,-0.967,-0.0088,0.6422,0.6683,0.591,2037
1,-0.4521,-0.9409,-0.0105,0.6711,0.4843,0.5908,2040
1,-0.481,-0.9585,-0.063,0.626,0.4191,0.542,2034
1,-0.499,-0.9539,-0.1526,0.5815,0.3653,0.4859,2035
1,-0.4922,-0.9312,-0.1965,0.6237,0.4203,0.4456,2032
1,-0.4692,-0.9368,-0.2043,0.6253,0.5504,0.3749,2080
1,-0.4976,-0.9268,-0.2351,0.5729,0.6352,0.3192,2024
1,-0.3945,-0.9741,-0.2349,0.4753,0.6606,0.3827,2027
1,-0.321,-0.8423,-0.2773,0.5521,0.4706,0.3301,2032
1,-0.3413,-0.9233,-0.2351,0.587,0.2979,0.3751,2032
1,-0.3896,-1.0127,-0.2671,0.5345,0.2527,0.337,2034
1,-0.3943,-1.0015,-0.2451,0.4412,0.3285,0.2811,2028
1,-0.373,-0.979,-0.2144,0.4269,0.3326,0.2378,2032
1,-0.4019,-0.9661,-0.199,0.403,0.4188,0.2127,2036
1,-0.4233,-0.9656,-0.1814,0.4183,0.4209,0.2181,2032
1,-0.4067,-0.9492,-0.1941,0.3915,0.3814,0.1674,2040
1,-0.4136,-0.958,-0.1638,0.3642,0.3305,0.1273,2039
1,-0.4055,-0.957,-0.1714,0.3582,0.2229,0.0663,2032
1,-0.4048,-0.9421,-0.1543,0.3547,0.1073,0.0425,2032
1,-0.425,-0.9529,-0.1682,0.3562,0.0228,0.0254,2064
1,-0.4458,-0.9417,-0.1677,0.3168,-0.0129,-0.0039,2027
1,-0.4678,-0.9319,-0.1975,0.3216,-0.0622,-0.0535,2036
1,-0.4722,-0.9531,-0.1824,0.3197,-0.0981,-0.0748,2034
1,-0.4348,-0.9204,-0.1616,0.3318,-0.1728,-0.0924,2038
1,-0.4373,-0.9036,-0.1514,0.3075,-0.2385,-0.0847,2039
1,-0.4492,-0.9048,-0.1614,0.2487,-0.2105,-0.077,2036
1,-0.4336,-0.8784,-0.1624,0.1984,-0.1321,-0.0767,2035
1,-0.4434,-0.825,-0.1863,0.2179,-0.1148,-0.0479,2036
1,-0.4563,-0.8489,-0.1665,0.1943,-0.169,-0.0209,2037
1,-0.4666,-0.8635,-0.1526,0.1357,-0.1634,-0.0361,2036
1,-0.4653,-0.8604,-0.1228,0.1328,-0.1551,-0.0153,2043
1,-0.4893,-0.8523,-0.1116,0.1212,-0.1402,0.0104,2033
1,-0.4756,-0.8303,-0.0847,0.1414,-0.106,0.0152,2029
1,-0.4756,-0.864,-0.0723,0.1028,-0.063,0.0423,2034
1,-0.4885,-0.8508,-0.0796,0.1123,-0.0903,0.067,2034
1,-0.5051,-0.8542,-0.0996,0.131,-0.0964,0.0633,2031
1,-0.4978,-0.8484,-0.1355,0.163,-0.0783,0.0662,2034
1,-0.4841,-0.8635,-0.1379,0.2092,-0.0796,0.0671,2034
1,-0.4966,-0.8958,-0.0959,0.1868,-0.0842,0.074,2039
1,-0.5105,-0.9036,-0.0649,0.1591,-0.1016,0.0831,2036
1,-0.5322,-0.9268,-0.0286,0.1254,-0.0983,0.0768,2038
1,-0.5225,-0.8953,-0.0278,0.0917,-0.1205,0.0842,2026
1,-0.5232,-0.863,-0.0557,0.0843,-0.1163,0.0839,2031
1,-0.5046,-0.8328,-0.0581,0.0911,-0.0997,0.0779,2033
1,-0.4529,-0.8545,-0.085,0.1007,-0.0688,0.0602,2032
1,-0.4238,-0.8762,-0.1145,0.0744,-0.0268,0.0365,2038
1,-0.4075,-0.8721,-0.1152,0.0559,-0.0277,0.0533,2034
1,-0.4048,-0.8774,-0.1213,0.039,-0.0898,0.071,2042
1,-0.4409,-0.8872,-0.1226,-0.0016,-0.0939,0.0672,2033
1,-0.4644,-0.9023,-0.1108,-0.0194,-0.0867,0.0641,2033
1,-0.4648,-0.9209,-0.1062,-0.066,-0.0486,0.0708,2036
1,-0.4626,-0.9138,-0.1079,-0.0864,-0.0225,0.0755,2033
1,-0.4778,-0.8928,-0.1023,-0.098,-0.033,0.0759,2037
1,-0.4668,-0.8855,-0.0959,-0.1057,-0.0322,0.0734,2039
1,-0.4561,-0.876,-0.1216,-0.0908,-0.0129,0.0862,2037
1,-0.4358,-0.8699,-0.137,-0.0633,0.0121,0.0851,2036
1,-0.438,-0.8838,-0.1458,-0.0466,0.0043,0.087,2032
1,-0.4304,-0.9133,-0.0952,-0.0493,-0.0213,0.0828,2040
1,-0.4402,-0.9211,-0.0718,-0.0591,-0.0678,0.0892,2039
1,-0.4548,-0.9248,-0.0386,-0.0907,-0.0776,0.0875,2039
1,-0.4644,-0.9177,-0.0439,-0.1256,-0.0442,0.0892,2035
1,-0.4519,-0.9084,-0.0676,-0.1196,-0.0036,0.0948,2035
1,-0.4441,-0.8997,-0.1282,-0.0856,-0.0083,0.1079,2035
1,-0.4341,-0.9224,-0.168,-0.0872,0.0308,0.1103,2034
1,-0.4346,-0.9238,-0.1567,-0.0739,0.0586,0.1035,2040
1,-0.4409,-0.9241,-0.0969,-0.086,0.0186,0.0862,2039
1,-0.4341,-0.8928,-0.0789,-0.1175,0.0357,0.0847,2035
1,-0.446,-0.8767,-0.1147,-0.0791,0.0055,0.106,2040
1,-0.4502,-0.9211,-0.144,-0.0585,0.0134,0.0976,2035
1,-0.4561,-0.9541,-0.1311,-0.0637,0.0342,0.0816,2032
1,-0.449,-0.9329,-0.0999,-0.0611,0.0237,0.0626,2037
1,-0.4358,-0.9102,-0.1013,-0.0397,-0.0132,0.0726,2036
1,-0.4341,-0.9036,-0.1333,-0.0246,-0.032,0.0683,2032
1,-0.4297,-0.9229,-0.1455,-0.0056,-0.0158,0.0692,2038
1,-0.427,-0.9373,-0.1326,0.0084,-0.0154,0.0646,2031
1,-0.4197,-0.9373,-0.1355,0.0158,-0.0378,0.063,2035
1,-0.4009,-0.9326,-0.1479,0.019,-0.0153,0.0523,2037
1,-0.4163,-0.9197,-0.1394,0.037,0.0033,0.0534,2038
1,-0.438,-0.9207,-0.144,0.0328,0.0053,0.0369,2038
1,-0.4304,-0.8977,-0.1335,0.0403,-0.0001,0.0225,2036
1,-0.4219,-0.8982,-0.1133,0.0481,-0.0232,0.0184,2032
1,-0.4265,-0.9258,-0.1282,0.0394,-0.0169,0.0079,2038
1,-0.425,-0.9343,-0.1096,0.026,0.0052,0.0019,2038
1,-0.439,-0.9385,-0.1001,0.0087,0.0127,-0.0084,2034
1,-0.428,-0.9419,-0.075,0.0028,-0.0043,-0.017,2036
1,-0.4246,-0.9297,-0.1233,0.0132,-0.032,-0.0107,2039
1,-0.4167,-0.9126,-0.1272,0.0284,-0.0635,-0.0021,2032
1,-0.428,-0.9067,-0.1523,0.026,-0.0545,-0.0221,2032
1,-0.439,-0.8845,-0.1409,0.0264,-0.035,-0.0158,2036
1,-0.4478,-0.885,-0.1511,0.053,-0.047,-0.0202,2032
1,-0.4412,-0.8833,-0.1516,0.0629,-0.0085,-0.0188,2037
1,-0.4375,-0.8923,-0.1458,0.0826,-0.0088,-0.0093,2032
1,-0.4226,-0.916,-0.1433,0.0956,-0.0352,0.0023,2041
2,-0.4326,-0.9395,-0.1267,0.0895,-0.0293,0.0124,2033
2,-0.4355,-0.9338,-0.1062,0.0848,-0.0123,0.0293,2039
2,-0.4348,-0.9248,-0.116,0.0858,0.0004,0.032,2039
2,-0.4316,-0.894,-0.1221,0.0852,0.0177,0.0446,2035
2,-0.425,-0.9084,-0.1584,0.0899,0.0296,0.0482,2041
2,-0.4324,-0.9216,-0.1677,0.0754,0.0667,0.0445,2035
2,-0.4253,-0.917,-0.1392,0.0656,0.0891,0.0527,2035
2,-0.4233,-0.9407,-0.1299,0.0546,0.091,0.0483,2036
2,-0.4438,-0.9512,-0.1238,0.0341,0.0818,0.0505,2038
2,-0.4475,-0.9487,-0.1155,0.0061,0.0997,0.043,2036
2,-0.4697,-0.9507,-0.0933,-0.0112,0.1083,0.0441,2033
2,-0.4597,-0.9314,-0.0967,-0.0144,0.088,0.0498,2037
2,-0.4272,-0.9033,-0.1169,0.0023,0.0655,0.0454,2036
2,-0.3813,-0.8643,-0.1123,0.0373,0.0566,0.0409,2032
2,-0.3687,-0.8748,-0.1042,0.0578,0.0372,0.0317,2048
2,-0.3889,-0.8875,-0.1184,0.0534,0.0209,0.0397,2036
2,-0.4031,-0.8823,-0.1296,0.069,0.0025,0.0555,2032
2,-0.4343,-0.8909,-0.1421,0.0838,0.0033,0.0651,2038
2,-0.4587,-0.8838,-0.1296,0.0972,0.0252,0.073,2037
2,-0.458,-0.9036,-0.1047,0.0941,0.0441,0.0822,2034
2,-0.4575,-0.9001,-0.1074,0.0663,0.022,0.0985,2038
2,-0.4402,-0.9082,-0.1404,0.0421,0.0097,0.0971,2037
2,-0.4307,-0.8867,-0.1436,0.0457,-0.0324,0.1021,2038
2,-0.4338,-0.8899,-0.1494,0.0384,-0.0599,0.1004,2041
2,-0.428,-0.8884,-0.1577,0.0229,-0.0623,0.0944,2037
2,-0.4172,-0.8994,-0.1536,0.015,-0.0718,0.0847,2034
2,-0.4001,-0.9006,-0.134,-0.0004,-0.0842,0.0812,2034
2,-0.3975,-0.9106,-0.1121,-0.0212,-0.089,0.0775,2039
2,-0.4041,-0.9246,-0.1123,-0.0325,-0.0662,0.0823,2038
2,-0.4155,-0.9207,-0.1099,-0.038,-0.043,0.0775,2032
2,-0.3979,-0.9211,-0.1284,-0.039,-0.0181,0.0671,2032
2,-0.3789,-0.927,-0.1431,-0.0281,-0.0297,0.0719,2037
2,-0.3948,-0.9194,-0.1304,-0.0345,-0.0538,0.0775,2032
2,-0.4131,-0.8999,-0.104,-0.055,-0.068,0.0788,2035
2,-0.4338,-0.9124,-0.0879,-0.0744,-0.0848,0.0723,2038
2,-0.4407,-0.9036,-0.0945,-0.069,-0.0867,0.0638,2035
2,-0.4272,-0.9199,-0.1191,-0.0598,-0.0611,0.0656,2032
2,-0.429,-0.9346,-0.1418,-0.0459,-0.0431,0.0663,2037
2,-0.4172,-0.9338,-0.1472,-0.0409,-0.0622,0.0653,2033
2,-0.4082,-0.9319,-0.1445,-0.0402,-0.09,0.0708,2045
2,-0.4158,-0.9199,-0.1345,-0.0314,-0.0906,0.0649,2035
2,-0.4189,-0.9202,-0.1328,-0.0244,-0.0863,0.0703,2032
2,-0.4136,-0.9214,-0.1265,-0.0345,-0.0714,0.068,2042
2,-0.4062,-0.9189,-0.1355,-0.0366,-0.0766,0.0641,2038
2,-0.3962,-0.9194,-0.1301,-0.0346,-0.074,0.0623,2037
2,-0.4006,-0.917,-0.1357,-0.0376,-0.0581,0.0638,2037
2,-0.4072,-0.9304,-0.1311,-0.0385,-0.0483,0.0561,2039
2,-0.4038,-0.9158,-0.1108,-0.0326,-0.0511,0.0609,2032
2,-0.4019,-0.9224,-0.1025,-0.0398,-0.0674,0.0477,2036
2,-0.397,-0.9158,-0.1086,-0.0406,-0.0756,0.0473,2035
2,-0.3987,-0.9202,-0.1025,-0.0305,-0.068,0.0425,2040
2,-0.4021,-0.9224,-0.1133,-0.0294,-0.0618,0.0511,2035
2,-0.4126,-0.9219,-0.1016,-0.0285,-0.0562,0.0469,2032
2,-0.4185,-0.9336,-0.1113,-0.0341,-0.0455,0.0445,2037
2,-0.4226,-0.9307,-0.1106,-0.0244,-0.0345,0.0598,2037
2,-0.4319,-0.929,-0.1045,-0.0226,-0.0242,0.0523,2034
2,-0.4197,-0.9182,-0.1025,-0.0264,-0.016,0.0559,2038
2,-0.4058,-0.9111,-0.0981,-0.0149,-0.0385,0.0537,2037
2,-0.4036,-0.9163,-0.1079,-0.0076,-0.0581,0.0402,2039
2,-0.406,-0.9177,-0.1108,-0.0061,-0.0671,0.0551,2037
2,-0.4143,-0.9197,-0.1147,-0.0047,-0.0675,0.0523,2037
2,-0.4246,-0.9158,-0.1274,0.0043,-0.0593,0.055,2030
2,-0.4241,-0.9204,-0.1301,0.0049,-0.0477,0.0571,2032
2,-0.4216,-0.9192,-0.136,0.0043,-0.035,0.0582,2036
2,-0.4102,-0.9106,-0.1221,0.0033,-0.0373,0.0569,2043
2,-0.4131,-0.9087,-0.1189,0.0004,-0.0547,0.0684,2038
2,-0.418,-0.9019,-0.1318,-0.0021,-0.0623,0.061,2036
2,-0.4092,-0.915,-0.1357,-0.0005,-0.0454,0.0724,2032
2,-0.4182,-0.9177,-0.1375,-0.0015,-0.0257,0.0682,2034
2,-0.429,-0.9331,-0.1387,-0.0041,-0.0131,0.0571,2037
2,-0.4165,-0.9333,-0.1389,-0.0059,-0.012,0.0566,2036
2,-0.3982,-0.9202,-0.1257,-0.0025,-0.0431,0.0683,2037
2,-0.4082,-0.9165,-0.1233,-0.0128,-0.0778,0.0758,2039
2,-0.4211,-0.9136,-0.1038,-0.0249,-0.0876,0.0712,2037
2,-0.4265,-0.9009,-0.1133,-0.0433,-0.0738,0.0664,2034
2,-0.4353,-0.9172,-0.1326,-0.0482,-0.0499,0.0706,2034
2,-0.4285,-0.9316,-0.147,-0.0463,-0.0144,0.0678,2035
2,-0.4062,-0.9224,-0.1562,-0.0333,-0.01,0.0606,2032
2,-0.3972,-0.9138,-0.1558,-0.02,-0.0361,0.0738,2038
2,-0.387,-0.9172,-0.1577,-0.0088,-0.057,0.0647,2035
2,-0.4055,-0.9219,-0.1523,-0.0051,-0.0471,0.0732,2036
2,-0.4233,-0.9265,-0.1218,-0.0039,-0.0514,0.0658,2036
2,-0.4126,-0.927,-0.1287,-0.0156,-0.0621,0.0631,2039
2,-0.425,-0.9275,-0.1228,-0.0277,-0.0341,0.0724,2028
2,-0.4255,-0.9077,-0.1272,-0.024,-0.0115,0.0699,2043
2,-0.427,-0.9058,-0.1333,-0.0177,-0.0064,0.0722,2037
2,-0.4187,-0.907,-0.1431,-0.0129,-0.0105,0.066,2036
2,-0.4165,-0.9124,-0.1411,-0.0077,0.0029,0.063,2036
2,-0.4211,-0.9102,-0.1436,0.0061,-0.0116,0.0598,2037
2,-0.4326,-0.9199,-0.1453,0.0087,-0.0272,0.0682,2035
2,-0.4453,-0.9199,-0.1375,0.0084,-0.0225,0.0635,2039
2,-0.4355,-0.9202,-0.1323,0.0178,-0.0316,0.0674,2043
2,-0.4399,-0.9216,-0.1245,0.0137,-0.0321,0.0738,2034
2,-0.4338,-0.9148,-0.1357,0.0123,-0.051,0.0792,2037
2,-0.4294,-0.9016,-0.1306,0.0048,-0.0388,0.066,2032
2,-0.4177,-0.9062,-0.1389,0.0001,-0.0357,0.0621,2030
2,-0.4163,-0.9087,-0.1484,0.0043,-0.037,0.0715,2040
2,-0.4204,-0.8989,-0.1499,0.0103,-0.027,0.0799,2037
2,-0.4238,-0.9153,-0.1504,0.0059,-0.0316,0.068,2039
2,-0.4304,-0.9133,-0.1333,0.0051,-0.0348,0.0752,2035
2,-0.4319,-0.9106,-0.1206,-0.0043,-0.0333,0.0896,2027
2,-0.4194,-0.9031,-0.1377,-0.0055,-0.0209,0.0899,2036
2,-0.4199,-0.9016,-0.1572,-0.0013,-0.0133,0.0916,2034
2,-0.4041,-0.9004,-0.1538,-0.0005,-0.0188,0.0989,2037
3,-0.4072,-0.9053,-0.1348,0.0053,-0.0212,0.0868,2035
3,-0.4204,-0.9067,-0.1316,0.0047,-0.0362,0.0924,2040
3,-0.4189,-0.9106,-0.134,-0.0032,-0.0549,0.0973,2036
3,-0.416,-0.9272,-0.1455,-0.0035,-0.038,0.1011,2036
3,-0.4202,-0.916,-0.1306,-0.0091,-0.0134,0.1013,2033
3,-0.4319,-0.9167,-0.1414,-0.0109,0.0045,0.0904,2032
3,-0.4055,-0.9021,-0.1328,-0.0096,0.0037,0.0846,2037
3,-0.3975,-0.9062,-0.1394,-0.0029,-0.0394,0.0927,2037
3,-0.4175,-0.9092,-0.1389,0.0043,-0.073,0.0921,2039
3,-0.4324,-0.9084,-0.1404,-0.0129,-0.0682,0.0891,2035
3,-0.4421,-0.9167,-0.1394,-0.024,-0.0514,0.0879,2041
3,-0.4321,-0.9204,-0.1526,-0.0044,-0.0309,0.0808,2035
3,-0.4192,-0.9177,-0.1663,0.0036,-0.0272,0.0778,2039
3,-0.4136,-0.9268,-0.1553,0.0075,-0.0481,0.0847,2036
3,-0.407,-0.9158,-0.1479,0.0169,-0.0662,0.0838,2038
3,-0.4133,-0.9114,-0.1614,0.03,-0.0587,0.0843,2038
3,-0.4189,-0.9226,-0.1455,0.0364,-0.0378,0.0896,2042
3,-0.4199,-0.9189,-0.1426,0.0352,-0.018,0.09,2037
3,-0.4143,-0.917,-0.1287,0.038,-0.0092,0.0914,2039
3,-0.418,-0.9253,-0.1199,0.0306,-0.0214,0.0904,2037
3,-0.417,-0.9197,-0.127,0.0185,-0.0208,0.0862,2033
3,-0.4126,-0.9216,-0.125,0.0276,-0.0353,0.0949,2033
3,-0.4109,-0.9224,-0.1301,0.0257,-0.0274,0.0832,2034
3,-0.4197,-0.9187,-0.1277,0.0218,-0.0206,0.0804,2039
3,-0.4028,-0.9175,-0.1326,0.0201,-0.0317,0.084,2035
3,-0.4177,-0.9238,-0.1472,0.0221,-0.0344,0.0808,2035
3,-0.4243,-0.9258,-0.1318,0.0088,-0.0329,0.0671,2028
3,-0.4272,-0.9128,-0.1155,0.002,-0.0374,0.0695,2036
3,-0.4243,-0.9229,-0.1218,-0.0007,-0.0377,0.0663,2039
3,-0.4185,-0.9067,-0.1257,-0.0067,-0.0431,0.0718,2037
3,-0.4131,-0.9148,-0.1382,-0.0176,-0.0446,0.068,2026
3,-0.4111,-0.9065,-0.1479,-0.01,-0.0522,0.0735,2032
3,-0.4116,-0.9053,-0.1506,0.0051,-0.0482,0.0799,2039
3,-0.425,-0.9158,-0.1497,0.0103,-0.0245,0.0816,2037
3,-0.437,-0.9219,-0.1414,0.0093,0.0059,0.0822,2034
3,-0.4336,-0.9189,-0.1404,0.0197,-0.0149,0.068,2035
3,-0.4277,-0.9268,-0.1228,0.0063,-0.0208,0.0823,2036
3,-0.4319,-0.9216,-0.1194,-0.0081,-0.0241,0.0774,2039
3,-0.4373,-0.9111,-0.1021,-0.0088,-0.0459,0.0858,2035
3,-0.4336,-0.9094,-0.1104,-0.0125,-0.0666,0.0796,2030
3,-0.4197,-0.906,-0.1311,-0.0111,-0.0587,0.0807,2035
3,-0.4124,-0.905,-0.1511,0.0072,-0.0459,0.092,2040
3,-0.4216,-0.8994,-0.1702,0.0194,-0.0485,0.0919,2036
3,-0.425,-0.9153,-0.1765,0.0246,-0.0154,0.091,2035
3,-0.427,-0.9175,-0.1509,0.0333,0.0286,0.0858,2037
3,-0.4302,-0.9163,-0.1333,0.0284,0.0306,0.082,2034
3,-0.4141,-0.9077,-0.1321,0.0296,0.0023,0.0814,2032
3,-0.4043,-0.9014,-0.1152,0.0409,-0.0545,0.091,2038
3,-0.4312,-0.9006,-0.1211,0.0382,-0.0804,0.0943,2033
3,-0.4451,-0.9128,-0.1372,0.0146,-0.0498,0.1057,2032
3,-0.45,-0.9207,-0.1353,0.0261,-0.0177,0.0995,2036
3,-0.436,-0.9163,-0.134,0.0316,-0.0019,0.1067,2034
3,-0.4177,-0.9167,-0.1409,0.0317,-0.0047,0.104,2032
3,-0.4126,-0.9243,-0.1313,0.0364,-0.0298,0.0941,2042
3,-0.4163,-0.906,-0.1345,0.049,-0.0289,0.0912,2033
3,-0.4172,-0.9016,-0.1475,0.0479,-0.0136,0.0983,2034
3,-0.4272,-0.9109,-0.1414,0.0442,-0.0045,0.1037,2039
3,-0.4216,-0.9189,-0.1431,0.053,-0.0104,0.1004,2037
3,-0.4224,-0.9104,-0.134,0.0562,-0.0043,0.1073,2039
3,-0.426,-0.918,-0.1282,0.0611,0.0111,0.1093,2038
3,-0.4202,-0.9114,-0.1404,0.0549,0.0184,0.1085,2038
3,-0.415,-0.9072,-0.145,0.0534,0.0169,0.1055,2043
3,-0.4155,-0.9146,-0.1282,0.0505,0.0071,0.0975,2039
3,-0.4197,-0.9133,-0.1218,0.0394,0.0035,0.1053,2037
3,-0.4336,-0.905,-0.1279,0.0421,-0.0115,0.1015,2039
3,-0.4399,-0.9055,-0.1326,0.0399,-0.0144,0.1075,2039
3,-0.4375,-0.9048,-0.147,0.0372,-0.0079,0.102,2033
3,-0.4341,-0.9077,-0.1394,0.0378,0.0076,0.1017,2037
3,-0.4312,-0.9119,-0.126,0.0389,0.012,0.1123,2035
3,-0.4324,-0.907,-0.136,0.0325,0.0093,0.1172,2034
3,-0.4292,-0.9065,-0.124,0.0399,-0.0125,0.1107,2036
3,-0.4294,-0.908,-0.1167,0.0376,-0.0173,0.1093,2038
3,-0.4285,-0.9031,-0.135,0.0366,-0.0178,0.1177,2036
3,-0.4363,-0.9131,-0.1399,0.0443,-0.031,0.1229,2031
3,-0.4414,-0.9099,-0.1365,0.0381,-0.0166,0.1164,2030
3,-0.4368,-0.905,-0.1133,0.0483,-0.015,0.1176,2043
3,-0.4312,-0.908,-0.1292,0.0557,-0.0298,0.1286,2037
3,-0.4434,-0.9131,-0.1311,0.049,-0.0288,0.1348,2037
3,-0.4385,-0.9124,-0.1299,0.0521,-0.0252,0.1246,2032
3,-0.4443,-0.9065,-0.1201,0.0561,-0.0381,0.129,2033
3,-0.4312,-0.9065,-0.1265,0.053,-0.0559,0.1242,2042
3,-0.4382,-0.9026,-0.1479,0.0491,-0.0573,0.1304,2038
3,-0.4331,-0.9087,-0.1519,0.0599,-0.0555,0.1224,2034
3,-0.4448,-0.9087,-0.1404,0.0605,-0.0414,0.1318,2035
3,-0.4468,-0.9006,-0.1436,0.0623,-0.0064,0.1204,2032
3,-0.4421,-0.916,-0.134,0.067,-0.0076,0.1222,2036
3,-0.4263,-0.928,-0.1289,0.0626,-0.0551,0.1089,2035
3,-0.427,-0.9094,-0.1169,0.0546,-0.0991,0.1052,2035
3,-0.4448,-0.9067,-0.1021,0.0274,-0.1064,0.1093,2031
3,-0.4492,-0.9192,-0.1289,-0.0023,-0.0675,0.1101,2037
3,-0.4468,-0.9258,-0.1475,0.0119,-0.0417,0.1045,2033
3,-0.4397,-0.9167,-0.1575,0.0158,-0.0228,0.0941,2033
3,-0.4236,-0.897,-0.1619,0.0281,-0.0206,0.0939,2039
3,-0.4075,-0.8896,-0.1614,0.0402,-0.0415,0.0903,2036
3,-0.4233,-0.8989,-0.1646,0.035,-0.0423,0.0783,2040
3,-0.4348,-0.9241,-0.1326,0.0189,-0.0281,0.0759,2036
3,-0.4399,-0.9321,-0.1172,-0.0032,-0.021,0.0791,2034
3,-0.4519,-0.928,-0.0979,-0.01,-0.0296,0.0814,2035
3,-0.4348,-0.9185,-0.1179,-0.0132,-0.0398,0.0748,2036
3,-0.4312,-0.8999,-0.1311,-0.017,-0.0298,0.0794,2037
3,-0.428,-0.8965,-0.1248,-0.008,-0.019,0.0742,2037
3,-0.4246,-0.8894,-0.1499,-0.0023,-0.0216,0.0768,2039
3,-0.4341,-0.8938,-0.1443,0.0011,-0.0193,0.0766,2036
4,-0.4426,-0.9148,-0.1174,-0.0033,0.0073,0.0768,2032
4,-0.4561,-0.9197,-0.1077,-0.0035,-0.0055,0.0704,2040
4,-0.4497,-0.9165,-0.093,-0.0029,-0.0193,0.0707,2032
4,-0.4492,-0.9146,-0.0999,-0.0103,-0.0218,0.0722,2036
4,-0.4465,-0.8999,-0.113,-0.014,-0.0258,0.0734,2037
4,-0.4475,-0.8831,-0.1321,-0.0172,-0.0298,0.0771,2041
4,-0.4316,-0.887,-0.1384,-0.0051,-0.0333,0.0806,2032
4,-0.4292,-0.8855,-0.1543,0.0069,-0.0289,0.0836,2036
4,-0.4463,-0.8926,-0.1577,0.014,-0.0149,0.0819,2033
4,-0.4551,-0.8992,-0.1274,0.0274,-0.0192,0.077,2033
4,-0.4521,-0.9077,-0.1084,0.0217,-0.0222,0.0858,2032
4,-0.4421,-0.9082,-0.1106,0.0153,-0.0092,0.0917,2036
4,-0.4453,-0.9153,-0.1072,0.0188,-0.0144,0.0936,2037
4,-0.4517,-0.9128,-0.1348,0.0177,-0.0178,0.0975,2035
4,-0.4456,-0.9087,-0.1296,0.0157,-0.0053,0.0915,2038
4,-0.4495,-0.9016,-0.1111,0.0182,-0.0194,0.0902,2033
4,-0.438,-0.894,-0.1077,0.0169,-0.0304,0.0921,2034
4,-0.4348,-0.8872,-0.1257,0.0194,-0.0328,0.0968,2039
4,-0.4373,-0.9041,-0.1411,0.0194,-0.0292,0.0931,2034
4,-0.4355,-0.9185,-0.1311,0.0218,-0.0093,0.0902,2039
4,-0.4453,-0.9214,-0.1323,0.0244,-0.0075,0.0916,2035
4,-0.4451,-0.9077,-0.1257,0.0115,0.0224,0.0935,2036
4,-0.436,-0.9028,-0.1135,0.0221,0.0112,0.0838,2041
4,-0.4395,-0.9055,-0.1294,0.0228,-0.0401,0.0855,2041
4,-0.4399,-0.9028,-0.1306,0.0073,-0.0625,0.0846,2032
4,-0.4565,-0.9014,-0.1172,-0.0016,-0.0507,0.0859,2038
4,-0.458,-0.9004,-0.1238,-0.0004,-0.0208,0.0896,2032
4,-0.4412,-0.895,-0.1355,0.0073,0.0045,0.0854,2037
4,-0.4385,-0.9016,-0.1414,0.0146,-0.0017,0.0771,2029
4,-0.4248,-0.9021,-0.1289,0.0209,-0.0112,0.0779,2033
4,-0.4368,-0.9141,-0.1372,0.0233,-0.0092,0.072,2036
4,-0.4604,-0.9111,-0.1187,0.0124,0.0035,0.089,2034
4,-0.4592,-0.9146,-0.1162,0.0109,0.0004,0.0774,2036
4,-0.4546,-0.9109,-0.1138,0.0112,-0.018,0.08,2031
4,-0.4434,-0.9016,-0.1182,0.0085,-0.0354,0.082,2036
4,-0.4314,-0.8901,-0.1375,0.0099,-0.0321,0.0888,2037
4,-0.4346,-0.8965,-0.1533,0.025,-0.0236,0.0858,2037
4,-0.4473,-0.8982,-0.1538,0.0286,-0.0053,0.073,2032
4,-0.4417,-0.9077,-0.1436,0.0308,0.0071,0.0762,2032
4,-0.4473,-0.9211,-0.113,0.0174,0.0093,0.0672,2038
4,-0.4448,-0.9109,-0.1211,0.0091,0.0,0.074,2035
4,-0.439,-0.9062,-0.127,0.0112,-0.0182,0.0766,2037
4,-0.4492,-0.9041,-0.1182,0.0005,-0.0176,0.078,2040
4,-0.4529,-0.8979,-0.1326,0.0016,-0.022,0.0672,2032
4,-0.4443,-0.8984,-0.1431,0.0055,-0.0241,0.0778,2033
4,-0.4382,-0.8975,-0.1448,0.0088,-0.027,0.0711,2032
4,-0.4431,-0.8977,-0.1331,0.01,-0.0153,0.0645,2038
4,-0.4504,-0.9019,-0.1218,0.0081,-0.0204,0.0759,2033
4,-0.4478,-0.9106,-0.1135,0.0049,-0.0286,0.0822,2041
4,-0.4521,-0.9111,-0.1172,-0.002,-0.0213,0.0814,2031
4,-0.4453,-0.8997,-0.1128,0.0076,-0.0286,0.0906,2033
4,-0.4429,-0.8943,-0.124,-0.0007,-0.0384,0.0967,2036
4,-0.4348,-0.8923,-0.1189,-0.0162,-0.0244,0.1007,2041
4,-0.4536,-0.884,-0.1155,-0.0157,-0.0157,0.0995,2036
4,-0.448,-0.887,-0.135,-0.0036,-0.0294,0.0992,2035
4,-0.4409,-0.8906,-0.1396,-0.0015,-0.0329,0.0972,2038
4,-0.4443,-0.8977,-0.1316,-0.0001,-0.0221,0.1112,2032
4,-0.4409,-0.9001,-0.1023,0.0069,-0.0381,0.1121,2036
4,-0.4463,-0.9192,-0.1172,0.0059,-0.0555,0.1139,2037
4,-0.4531,-0.9148,-0.1111,-0.0067,-0.0285,0.1257,2033
4,-0.468,-0.9121,-0.1138,-0.0037,0.0136,0.1384,2039
4,-0.4568,-0.9006,-0.1367,-0.0041,0.016,0.1141,2035
4,-0.4429,-0.8921,-0.1396,0.0012,-0.0212,0.1242,2034
4,-0.4417,-0.897,-0.1282,0.0087,-0.0724,0.1212,2035
4,-0.449,-0.9006,-0.1211,-0.0076,-0.0927,0.116,2036
4,-0.4634,-0.9065,-0.1111,-0.0051,-0.0975,0.1178,2036
4,-0.4578,-0.9109,-0.1235,-0.0053,-0.0598,0.1156,2036
4,-0.4551,-0.9041,-0.127,-0.0194,-0.0101,0.102,2032
4,-0.4307,-0.8994,-0.1255,-0.0141,-0.0182,0.0992,2037
4,-0.4224,-0.8982,-0.1309,-0.0128,-0.0354,0.0944,2036
4,-0.4321,-0.9036,-0.1509,-0.0073,-0.0336,0.1041,2037
4,-0.4475,-0.9089,-0.1399,0.0053,-0.0266,0.1093,2036
4,-0.4619,-0.9048,-0.1213,0.0089,-0.0134,0.1077,2036
4,-0.4556,-0.9006,-0.1147,0.017,-0.0188,0.1117,2032
4,-0.4514,-0.9097,-0.1221,0.0104,-0.0136,0.112,2033
4,-0.4565,-0.8994,-0.1257,0.0157,-0.0093,0.1104,2041
4,-0.4563,-0.8928,-0.1306,0.0252,-0.0184,0.1178,2042
4,-0.4417,-0.8943,-0.135,0.0264,-0.019,0.112,2032
4,-0.4487,-0.8904,-0.1306,0.0234,-0.0108,0.1123,2037
4,-0.458,-0.9055,-0.1169,0.0152,-0.0172,0.1029,2047
4,-0.4524,-0.9082,-0.1111,0.0011,-0.0202,0.1061,2038
4,-0.449,-0.9026,-0.1174,0.0009,-0.0212,0.1072,2034
4,-0.4543,-0.9084,-0.1426,0.0029,-0.024,0.1071,2033
4,-0.46,-0.9004,-0.1428,0.0053,-0.0173,0.0981,2037
4,-0.4514,-0.9023,-0.1284,0.0076,-0.0144,0.0963,2043
4,-0.4575,-0.8977,-0.1472,-0.0009,-0.0089,0.0983,2035
4,-0.459,-0.8962,-0.1477,0.0005,0.0001,0.0944,2031
4,-0.4495,-0.8992,-0.1265,0.0056,-0.0089,0.0904,2035
4,-0.4617,-0.9031,-0.1252,-0.0039,-0.0096,0.0932,2036
4,-0.4524,-0.9048,-0.1306,-0.0033,-0.0043,0.0955,2039
4,-0.4617,-0.8921,-0.1333,0.0028,-0.0065,0.0939,2038
4,-0.457,-0.8872,-0.1306,0.0027,-0.0181,0.0928,2034
4,-0.4536,-0.8933,-0.1321,0.0061,-0.0039,0.0882,2037
4,-0.457,-0.8987,-0.1399,0.0077,-0.0071,0.085,2035
4,-0.4602,-0.9099,-0.1299,-0.0023,0.0019,0.0917,2031
4,-0.448,-0.896,-0.1226,0.0057,-0.0009,0.088,2037
4,-0.4395,-0.8889,-0.1316,0.0061,-0.0221,0.0856,2033
4,-0.449,-0.8933,-0.1536,0.0048,-0.0132,0.091,2039
4,-0.4741,-0.9075,-0.1426,0.0084,-0.0044,0.0924,2034
4,-0.4741,-0.8936,-0.1177,0.0057,0.0197,0.0798,2037
4,-0.4722,-0.8945,-0.1086,0.008,0.0083,0.0872,2036
4,-0.4392,-0.8972,-0.135,0.018,-0.0119,0.096,2035
5,-0.4429,-0.9033,-0.1274,0.0165,-0.0314,0.0981,2034
5,-0.4585,-0.9016,-0.1248,0.0015,-0.0421,0.0867,2034
5,-0.4702,-0.8914,-0.1296,-0.0073,-0.0497,0.0868,2040
5,-0.4722,-0.8894,-0.1409,-0.0036,-0.0314,0.0774,2036
5,-0.4685,-0.9104,-0.1543,0.0068,-0.0003,0.0782,2028
5,-0.4614,-0.8979,-0.1445,0.0153,0.0048,0.0876,2035
5,-0.4375,-0.8977,-0.1445,0.0172,-0.0149,0.082,2035
5,-0.4402,-0.8911,-0.1335,0.0202,-0.0096,0.0764,2047
5,-0.447,-0.8848,-0.1299,0.022,-0.0142,0.0815,2041
5,-0.458,-0.8982,-0.1194,0.0121,-0.0069,0.0796,2032
5,-0.4553,-0.8962,-0.1187,0.0152,-0.0123,0.0788,2041
5,-0.4626,-0.8972,-0.1221,0.016,-0.0149,0.0787,2032
5,-0.4636,-0.9014,-0.1272,0.0258,-0.0003,0.0818,2032
5,-0.4653,-0.8979,-0.1218,0.0202,0.0182,0.0715,2031
5,-0.4548,-0.9021,-0.1243,0.0144,0.0145,0.0788,2039
5,-0.448,-0.9001,-0.1396,0.0173,0.0064,0.0752,2038
5,-0.458,-0.8887,-0.1458,0.0237,-0.0196,0.078,2035
5,-0.4656,-0.8945,-0.1375,0.0169,-0.0298,0.0736,2037
5,-0.4753,-0.8921,-0.1389,0.0228,-0.0352,0.0728,2039
5,-0.4673,-0.895,-0.1067,0.0035,-0.0313,0.0704,2028
5,-0.4558,-0.8823,-0.1421,0.0075,-0.0302,0.0743,2038
5,-0.4536,-0.8779,-0.1384,0.0124,-0.0297,0.0704,2032
5,-0.4641,-0.8813,-0.1438,0.01,-0.0061,0.079,2035
5,-0.4634,-0.8901,-0.1309,0.0197,0.0091,0.0775,2034
5,-0.4678,-0.8972,-0.1355,0.0169,0.0115,0.0783,2037
5,-0.4731,-0.9045,-0.1316,0.0096,0.0017,0.0831,2038
5,-0.4678,-0.8958,-0.1194,0.0096,-0.0246,0.0756,2032
5,-0.4573,-0.8904,-0.1121,0.0063,-0.0296,0.0779,2034
5,-0.4558,-0.8789,-0.1394,0.0117,-0.0277,0.0767,2038
5,-0.4543,-0.8811,-0.155,0.0249,-0.0188,0.0684,2037
5,-0.4536,-0.8987,-0.1433,0.0261,-0.0161,0.0667,2034
5,-0.4624,-0.8997,-0.1511,0.0202,-0.0154,0.0614,2034
5,-0.4624,-0.8984,-0.137,0.0304,-0.0132,0.0699,2036
5,-0.4575,-0.9019,-0.1147,0.0301,-0.0177,0.0694,2032
5,-0.4619,-0.8875,-0.123,0.021,-0.026,0.0695,2032
5,-0.4644,-0.8931,-0.1165,0.0185,-0.0324,0.0605,2036
5,-0.4636,-0.8896,-0.1248,0.0144,-0.0077,0.0651,2037
5,-0.4844,-0.8984,-0.125,0.0142,0.0144,0.0587,2036
5,-0.4629,-0.9006,-0.1504,0.0224,-0.0115,0.0641,2032
5,-0.447,-0.9045,-0.1541,0.0369,-0.0415,0.0635,2039
5,-0.4614,-0.8984,-0.1233,0.031,-0.0503,0.0646,2034
5,-0.47,-0.8972,-0.1177,0.0201,-0.0471,0.0525,2039
5,-0.4763,-0.8962,-0.1323,0.0197,-0.0509,0.0455,2038
5,-0.4631,-0.8972,-0.1348,0.019,-0.0288,0.0526,2036
5,-0.4551,-0.8972,-0.1318,0.0217,-0.033,0.0498,2032
5,-0.4541,-0.9011,-0.1379,0.0153,-0.0421,0.0507,2032
5,-0.4412,-0.8962,-0.1318,0.022,-0.035,0.0513,2033
5,-0.4358,-0.8833,-0.1306,0.0324,-0.022,0.0502,2037
5,-0.4329,-0.8796,-0.1331,0.0354,-0.0192,0.0482,2035
5,-0.4395,-0.895,-0.1372,0.0346,-0.0201,0.0411,2034
5,-0.4585,-0.9026,-0.1133,0.0297,-0.0141,0.0439,2034
5,-0.47,-0.9141,-0.1199,0.0297,-0.0168,0.0406,2040
5,-0.4702,-0.9185,-0.1204,0.031,-0.0134,0.0406,2038
5,-0.4648,-0.9089,-0.1106,0.0308,-0.0085,0.0384,2037
5,-0.4614,-0.9006,-0.1167,0.027,-0.0324,0.0403,2040
5,-0.4446,-0.8896,-0.135,0.0256,-0.0434,0.0433,2038
5,-0.447,-0.8904,-0.1448,0.038,-0.0451,0.0318,2035
5,-0.458,-0.8975,-0.1379,0.0332,-0.0232,0.0386,2036
5,-0.4617,-0.8997,-0.1196,0.0333,-0.0208,0.023,2038
5,-0.4531,-0.8989,-0.1194,0.0338,-0.0266,0.0237,2034
5,-0.4517,-0.9026,-0.115,0.0226,-0.035,0.0302,2036
5,-0.4497,-0.8938,-0.1172,0.0228,-0.0447,0.0224,2031
5,-0.4521,-0.8926,-0.1284,0.0164,-0.0365,0.0257,2032
5,-0.4612,-0.8909,-0.1365,0.0115,-0.0264,0.0317,2032
5,-0.4541,-0.9004,-0.1448,0.0194,-0.0217,0.036,2037
5,-0.4414,-0.8928,-0.1516,0.0306,-0.0093,0.0372,2032
5,-0.446,-0.8972,-0.1428,0.0405,-0.0131,0.0384,2031
5,-0.4399,-0.8979,-0.1328,0.0461,-0.0095,0.036,2036
5,-0.4521,-0.9021,-0.1167,0.0372,-0.0063,0.0294,2035
5,-0.4663,-0.9021,-0.1082,0.0305,-0.0178,0.0333,2039
5,-0.4651,-0.9026,-0.1147,0.0268,-0.0272,0.0348,2036
5,-0.4521,-0.8916,-0.1335,0.0358,-0.0395,0.0346,2039
5,-0.4468,-0.9016,-0.1445,0.0328,-0.0198,0.0336,2037
5,-0.4426,-0.8979,-0.1406,0.0388,-0.0128,0.0374,2035
5,-0.4453,-0.8953,-0.1257,0.0365,-0.0216,0.0446,2034
5,-0.4502,-0.9048,-0.1326,0.0384,-0.0292,0.0453,2037
5,-0.4658,-0.9033,-0.1138,0.0316,-0.0064,0.0469,2034
5,-0.4724,-0.9009,-0.1121,0.0286,0.0096,0.0385,2037
5,-0.449,-0.9028,-0.1108,0.0317,-0.0011,0.0479,2040
5,-0.4263,-0.9065,-0.1458,0.0349,-0.0384,0.0502,2036
5,-0.4207,-0.9033,-0.137,0.0368,-0.0654,0.0447,2036
5,-0.4514,-0.8982,-0.1123,0.0108,-0.0533,0.0392,2037
5,-0.4573,-0.9023,-0.1165,0.0023,-0.0258,0.0462,2037
5,-0.4604,-0.8989,-0.1313,0.0071,-0.0103,0.0478,2039
5,-0.4565,-0.9185,-0.1455,0.0173,-0.0059,0.0435,2037
5,-0.4382,-0.9004,-0.1323,0.032,-0.0131,0.0328,2036
5,-0.4321,-0.907,-0.1187,0.0258,-0.0353,0.0368,2034
5,-0.4312,-0.9065,-0.1333,0.022,-0.0413,0.038,2038
5,-0.438,-0.905,-0.1294,0.0276,-0.0373,0.0451,2031
5,-0.4392,-0.9077,-0.1313,0.0321,-0.0344,0.0417,2036
5,-0.4377,-0.9092,-0.1406,0.0362,-0.0222,0.0386,2032
5,-0.4377,-0.9124,-0.1335,0.0338,-0.0019,0.0348,2032
5,-0.4402,-0.9194,-0.1252,0.0218,0.0107,0.0318,2043
5,-0.4426,-0.9128,-0.1028,0.014,-0.0025,0.0356,2037
5,-0.4412,-0.9111,-0.1062,0.0032,-0.014,0.0301,2036
5,-0.4314,-0.9016,-0.1223,0.0041,-0.0229,0.0298,2038
5,-0.4304,-0.9038,-0.1321,0.016,-0.0373,0.0312,2035
5,-0.4412,-0.9087,-0.1357,0.0053,-0.021,0.0214,2035
5,-0.4358,-0.9006,-0.1338,0.0164,-0.0145,0.0145,2037
5,-0.4402,-0.9111,-0.1257,0.02,-0.0324,0.0104,2038
5,-0.4385,-0.9062,-0.1162,0.0071,-0.0294,0.0134,2040
5,-0.4392,-0.9116,-0.1221,0.0072,-0.0153,0.0148,2037
5,-0.4412,-0.915,-0.1101,0.0079,-0.0177,0.0035,2036
6,-0.4385,-0.9045,-0.1218,-0.0051,-0.0316,0.0096,2030
6,-0.4297,-0.9011,-0.134,0.0075,-0.0344,0.0125,2038
6,-0.4216,-0.8882,-0.1604,0.0294,-0.0392,0.0161,2036
6,-0.4395,-0.9019,-0.1692,0.0384,-0.0304,0.0099,2037
6,-0.4316,-0.9065,-0.1497,0.0445,-0.0088,0.0081,2042
6,-0.4412,-0.9263,-0.124,0.0426,-0.0016,0.0081,2030
6,-0.4414,-0.9204,-0.1064,0.0344,-0.0053,0.0088,2032
6,-0.4387,-0.9163,-0.0984,0.0206,-0.0188,0.0007,2035
6,-0.4314,-0.9089,-0.1006,0.0237,-0.028,0.0063,2038
6,-0.4277,-0.8965,-0.1272,0.0329,-0.0415,0.0017,2037
6,-0.4248,-0.8987,-0.1333,0.0245,-0.0417,0.0049,2035
6,-0.4163,-0.8955,-0.1511,0.0321,-0.0268,0.0182,2041
6,-0.4126,-0.8979,-0.1455,0.0467,-0.0252,0.0112,2037
6,-0.4297,-0.9221,-0.1492,0.0365,-0.0039,0.0109,2040
6,-0.45,-0.9226,-0.1248,0.0394,0.0205,0.0328,2035
6,-0.4443,-0.9158,-0.1172,0.0392,0.0237,0.032,2032
6,-0.427,-0.9202,-0.1252,0.0298,-0.0158,0.0326,2039
6,-0.4138,-0.9097,-0.1091,0.0258,-0.049,0.0262,2035
6,-0.4204,-0.897,-0.0986,0.0153,-0.0529,0.0329,2033
6,-0.4336,-0.9041,-0.1111,0.0009,-0.0385,0.0443,2034
6,-0.4341,-0.9026,-0.1272,0.0061,-0.0044,0.0372,2036
6,-0.4258,-0.9082,-0.1455,0.0158,0.0268,0.047,2030
6,-0.4216,-0.9167,-0.145,0.0253,0.0261,0.0493,2039
6,-0.4221,-0.9265,-0.1143,0.0213,0.0076,0.0606,2032
6,-0.4246,-0.928,-0.1025,0.0153,-0.0093,0.0578,2040
6,-0.4219,-0.9165,-0.1104,0.0072,-0.0059,0.0534,2036
6,-0.4197,-0.9077,-0.1226,0.0049,-0.0029,0.0463,2038
6,-0.4138,-0.8994,-0.1458,0.0138,-0.002,0.0601,2038
6,-0.4148,-0.9224,-0.1433,0.0158,0.0073,0.0419,2030
6,-0.415,-0.938,-0.1333,0.0047,0.0309,0.0353,2042
6,-0.4084,-0.9382,-0.1208,0.0019,0.032,0.0305,2040
6,-0.3877,-0.9404,-0.1184,-0.0029,0.0422,0.0129,2032
6,-0.3914,-0.9377,-0.135,-0.0306,0.0469,0.0112,2038
6,-0.4124,-0.9431,-0.1274,-0.0499,0.0526,0.0068,2036
6,-0.3994,-0.9417,-0.1389,-0.0469,0.0417,-0.0119,2040
6,-0.3965,-0.9275,-0.1477,-0.0506,0.038,-0.0252,2037
6,-0.3862,-0.9426,-0.1519,-0.053,0.0453,-0.043,2035
6,-0.3787,-0.9592,-0.1565,-0.0598,0.045,-0.0649,2039
6,-0.3855,-0.9705,-0.145,-0.0758,0.041,-0.0887,2037
6,-0.3855,-0.9673,-0.1465,-0.0896,0.0434,-0.0989,2029
6,-0.3767,-0.9451,-0.158,-0.0917,0.0625,-0.1229,2033
6,-0.3789,-0.9424,-0.1562,-0.0855,0.0884,-0.1244,2037
6,-0.376,-0.9343,-0.1692,-0.0754,0.1149,-0.1439,2027
6,-0.3665,-0.9451,-0.1755,-0.0658,0.1085,-0.1594,2035
6,-0.3528,-0.9456,-0.1655,-0.0499,0.1071,-0.1862,2041
6,-0.344,-0.9448,-0.1653,-0.0353,0.1064,-0.2044,2029
6,-0.3521,-0.9502,-0.1379,-0.0264,0.1197,-0.2144,2042
6,-0.355,-0.9634,-0.136,-0.0132,0.1277,-0.2281,2038
6,-0.3584,-0.9565,-0.1172,0.0013,0.1396,-0.249,2032
6,-0.3569,-0.9531,-0.1082,0.0246,0.1396,-0.2657,2050
6,-0.3386,-0.9417,-0.1118,0.0473,0.1274,-0.2719,2035
6,-0.3325,-0.9414,-0.125,0.0768,0.1153,-0.2827,2040
6,-0.333,-0.9482,-0.1086,0.1044,0.1198,-0.3093,2024
6,-0.3403,-0.9685,-0.1074,0.1198,0.1414,-0.3314,2042
6,-0.3489,-0.967,-0.1057,0.147,0.1712,-0.3382,2026
6,-0.3542,-0.9551,-0.0999,0.165,0.2143,-0.3614,2026
6,-0.3496,-0.9343,-0.0789,0.1788,0.2377,-0.3859,2019
6,-0.3308,-0.9417,-0.0818,0.2024,0.2044,-0.4128,2019
6,-0.2993,-0.9597,-0.093,0.2055,0.1493,-0.4533,2022
6,-0.2983,-0.9714,-0.0903,0.2124,0.0868,-0.4936,2023
6,-0.3096,-0.9927,-0.0784,0.2226,0.0641,-0.5347,2029
6,-0.324,-1.0146,-0.0901,0.2642,0.0896,-0.5501,2052
6,-0.325,-1.0344,-0.0935,0.331,0.0868,-0.5895,2024
6,-0.3135,-1.0498,-0.0784,0.3852,0.0834,-0.6165,2030
6,-0.3057,-1.0579,-0.0657,0.443,0.0723,-0.6316,2030
6,-0.3013,-1.0654,-0.0383,0.5123,0.0399,-0.6733,2015
6,-0.2812,-1.083,-0.0117,0.5827,-0.0091,-0.7003,2046
6,-0.2639,-1.0869,0.0095,0.6476,-0.0659,-0.7379,2036
6,-0.2429,-1.0981,0.0276,0.6658,-0.1043,-0.7451,2019
6,-0.2305,-1.0828,0.0693,0.659,-0.1437,-0.7613,2036
6,-0.2329,-1.1006,0.0527,0.6359,-0.2208,-0.7628,2030
6,-0.2249,-1.0891,0.0283,0.6173,-0.3101,-0.7753,2054
6,-0.2141,-1.0896,0.0171,0.6076,-0.4562,-0.7743,2043
6,-0.2053,-1.0886,0.0012,0.5919,-0.6307,-0.7802,2040
6,-0.2083,-1.0874,-0.0142,0.5882,-0.8231,-0.7719,2033
6,-0.2207,-1.0879,-0.0029,0.5907,-1.0255,-0.7525,2036
6,-0.2542,-1.1128,0.0132,0.6168,-1.2047,-0.7287,2040
6,-0.2996,-1.1562,0.0227,0.6489,-1.3431,-0.724,2038
6,-0.3464,-1.1875,0.0232,0.65,-1.4435,-0.7199,2037
6,-0.3992,-1.2051,0.0454,0.651,-1.4607,-0.7269,2033
6,-0.4326,-1.2178,0.0859,0.6601,-1.4454,-0.7071,2038
6,-0.4817,-1.2527,0.1392,0.6161,-1.3475,-0.72,2036
6,-0.4919,-1.3201,0.1689,0.4846,-1.1396,-0.6907,2017
6,-0.4751,-1.3499,0.1775,0.3577,-0.9084,-0.6827,2040
6,-0.4092,-1.343,0.1841,0.1923,-0.7299,-0.715,2032
6,-0.3838,-1.3457,0.1777,0.1196,-0.6379,-0.7034,2036
6,-0.2661,-1.3516,0.1526,0.0262,-0.7315,-0.711,2036
6,-0.198,-1.3784,0.1594,-0.0274,-0.8251,-0.5935,2039
6,-0.0947,-1.2986,0.0891,-0.2581,-1.1468,-0.6795,2033
6,-0.1038,-1.3784,0.1458,-0.2816,-1.2411,-0.7116,2041
6,-0.2004,-1.3635,0.2056,-0.4044,-1.3497,-0.6914,2037
6,-0.1594,-1.301,0.1934,-0.4801,-1.6001,-0.66,2044
6,-0.1318,-1.2129,0.1841,-0.5787,-1.8217,-0.748,2040
6,-0.0876,-1.1987,0.1521,-0.5771,-1.9311,-0.8014,2044
6,-0.0703,-1.1958,0.1482,-0.593,-2.0205,-0.8943,2042
6,-0.0251,-1.1887,0.1304,-0.6208,-2.1728,-0.9476,2041
6,-0.02,-1.1528,0.0674,-0.6913,-2.2009,-1.0146,2009
6,-0.0466,-1.0879,0.0488,-0.749,-2.0503,-1.0846,2032
6,-0.0522,-1.0581,0.0635,-0.7632,-1.8218,-1.146,2026
6,-0.0559,-1.0356,0.0352,-0.8468,-1.6243,-1.1918,2039
6,0.022,-1.043,0.0259,-0.8946,-1.4198,-1.2175,2007
