,timestamp,node,accx,accy,accz,gyrox,gyroy,gyroz,q0,q1,q2,q3,timestamp,node,accx,accy,accz,gyrox,gyroy,gyroz,q0,q1,q2,q3,timestamp,node,accx,accy,accz,gyrox,gyroy,gyroz,q0,q1,q2,q3,timestamp,node,accx,accy,accz,gyrox,gyroy,gyroz,q0,q1,q2,q3,timestamp,node,accx,accy,accz,gyrox,gyroy,gyroz,q0,q1,q2,q3,timestamp,node,accx,accy,accz,gyrox,gyroy,gyroz,q0,q1,q2,q3,timestamp,node,accx,accy,accz,gyrox,gyroy,gyroz,q0,q1,q2,q3,timestamp,node,accx,accy,accz,gyrox,gyroy,gyroz,q0,q1,q2,q3,timestamp,node,accx,accy,accz,gyrox,gyroy,gyroz,q0,q1,q2,q3
0,0.011,0.0,-1.18e-16,5.57e-17,1.0,-0.023101447,-0.014069178,-0.054774532,0.9999953329573464,-0.001155066959228072,-0.0007066190295333219,-0.0027387174722165748,0.012,1.0,6.76e-17,8.5e-17,1.0,-0.03424523,0.012844863,-0.036551227,0.9999966598636961,-0.0017122557808131982,0.0006391117523340072,-0.0018275606037945434,0.013,2.0,-1.02e-16,-4.58e-17,1.0,-0.027989138,0.012698819,-0.061571028,0.9999940832060132,-0.0013994486197018317,0.0006306289186777992,-0.0030785392140900755,0.013,3.0,-1.29e-16,1.07e-16,1.0,-0.043393959,0.031092324,-0.096506549,0.9999848123547853,-0.002169664997397307,0.0015441232449714705,-0.00482527687995301,0.014,4.0,-7e-17,5.47e-17,1.0,-0.052930467,0.031807061,-0.128259493,0.9999746977436069,-0.002646456386987645,0.0015733411527572945,-0.006412857303159614,0.0,5.0,2.65e-17,8.41e-18,1.0,0.037758379,0.024702977,0.001799345,0.9999974512571173,0.0018879141381800133,0.00123497585147991,8.996734136048235e-05,0.045,6.0,6.49e-17,-2.47e-17,1.0,-0.001877759,0.001701298,-0.027663458,0.9999990354032894,-9.38878594359935e-05,8.493495480386315e-05,-0.0013831715779885547,0.0,7.0,4.97e-17,5.14e-17,1.0,0.014143999,0.026211594,-0.022066659,0.9999982814336429,0.0007071987346299608,0.0013113577233479325,-0.0011033316056600236,0.0,8.0,-5.45e-17,2.19e-17,1.0,-0.004292704,-0.001376181,0.00669373,0.9999999185959414,-0.0002146351825278225,-6.873720890064424e-05,0.00033468648817358706
1,0.071,0.0,6.81e-05,-0.001281138,0.979203428,-0.010140016,-0.016428831,-0.057010617,0.9999820127799102,-0.0016122095713557666,-0.0014638869593324771,-0.005588553650811073,0.071,1.0,-0.001306622,-0.000337793,0.979951621,-0.004512848,0.014365961,-0.020226512,0.999993454648963,-0.0017831176747204738,0.0013588015717970138,-0.0028398607146455633,0.071,2.0,-0.001375993,-6.64e-06,0.980435672,-0.000434809,0.024643031,-0.008280665,0.9999913315430636,-0.0012778340136273963,0.0018694174128725395,-0.0034941747953813663,0.071,3.0,-0.001680397,-0.001772083,0.980300482,-0.029900846,0.028115628,-0.062177955,0.9999581280336303,-0.003535654668787657,0.0028777904700849235,-0.007934711560683896,0.072,4.0,-0.000786175,-0.001405953,0.979613396,-0.025718932,0.020124267,-0.036811359,0.9999559215016927,-0.003735643247979064,0.0024641316691455164,-0.008253973488082232,0.045,5.0,-0.000220667,0.00243009,0.979271692,0.017865003,0.000298134,-0.029661218,0.9999946919580139,0.002714607982158403,0.0011417678734506995,-0.0013940320738581383,0.097,6.0,-0.034698139,-0.086282761,0.98055715,0.118225412,-1.235284767,-1.474438025,0.9954213764820432,0.001351215660779665,-0.0595544611660072,-0.07475107767824597,0.045,7.0,-0.001276001,0.0006008,0.97857499,0.016242864,0.01930559,-0.01389017,0.9999948448650919,0.0014795412438666552,0.0022107899537729017,-0.0017982237704188358,0.045,8.0,-4.27e-17,1.86e-17,0.979864276,-0.000260861,0.0091274,-0.00148997,0.9999998670742481,-0.00020636231114222676,0.0003944867191759304,0.000260089043993711
2,0.18,0.0,0.001832811,-0.00159881,0.980089325,0.000575609,-0.020567541,-0.038073818,0.9999678283204122,-0.0015072525807518272,-0.002441914618281932,-0.007490498435596259,0.18,1.0,-0.000792713,0.000514667,0.979855656,-0.000529803,0.005772918,0.00297597,0.9999938870772461,-0.0016038976963463798,0.001552255652750966,-0.002691435064824323,0.18,2.0,-0.001604792,0.00014797,0.979474554,0.009174011,-0.001945882,-0.004676071,0.9999914280125932,-0.0006842914850752926,0.0016653135933237307,-0.0037285891613399935,0.18,3.0,-0.002503436,-0.0031887,0.979738519,-0.003712728,0.015200752,-0.046546377,0.9999350635522414,-0.003530088596918724,0.003472300519336837,-0.010264028564661814,0.181,4.0,-0.001850844,-0.003251558,0.980291794,-0.012532642,0.009680463,-0.060737816,0.9999237213804523,-0.004157202953570298,0.002790014266849187,-0.011290921338017174,0.098,5.0,-0.028727095,0.064830121,0.955615409,2.144445887,2.314290854,0.960184206,0.9863971679274782,0.11172742541506388,0.11111732057944879,0.046803318066307525,0.149,6.0,6.24e-17,-2.35e-17,0.979987755,0.006321016,-0.011100951,-0.071191445,0.9954547113536755,0.0017016264055400804,-0.05418882784627965,-0.07829810373178,0.098,7.0,0.020923903,0.019532386,0.998215746,0.230482467,-0.547829262,0.192828114,0.9995208630319099,0.013797215429932601,-0.026592330752409663,0.007780048552591625,0.098,8.0,-4.27e-17,1.86e-17,0.979864276,-0.023339691,-0.169907332,0.084021101,0.9999560437131102,-0.0013487841433466442,-0.008134608672457593,0.004463133955562451
3,0.249,0.0,0.003080211,-0.002120625,0.979674954,-0.00826117,-0.019714689,-0.037107989,0.9999489825206199,-0.0018818201299869552,-0.0033401910954901364,-0.009345278616549544,0.25,1.0,-0.000278803,0.001367127,0.979759692,0.012952228,0.003694153,-0.034227042,0.9999887689665433,-0.0007282562995021922,0.0015927854384332858,-0.004403932116486691,0.25,2.0,-0.001604792,0.00014797,0.979474554,0.002244632,0.006281794,-0.026762889,0.9999852460009183,-0.0004968307610811535,0.0018936753524754551,-0.0050670438459787725,0.25,3.0,-0.002503436,-0.0031887,0.979738519,0.002844937,-0.009074462,-0.04899716,0.999910144122602,-0.0032094159190159026,0.0027914852602540247,-0.012712629162281303,0.25,4.0,-0.000338681,-0.002278297,0.979416507,0.010517165,-0.008565311,-0.071114714,0.9998820196454766,-0.0033465379101814846,0.002083559488708313,-0.014846085462345943,0.15,5.0,-0.002151825,0.003446196,0.978783681,0.043845289,0.056542799,-0.048979677,0.9883045690425027,0.10272655955180074,0.10351238878671953,0.044570372895346065,0.241,6.0,6.24e-17,-2.35e-17,0.979987755,-0.009079588,-0.002315531,-0.020472256,0.9956470004251797,0.001126217896820775,-0.048862615645294004,-0.07936136950614685,0.15,7.0,-0.002218295,0.00028134,0.978675125,-0.001436285,0.008257467,-0.018545609,0.999626039853004,0.01238172587354755,-0.023398149841257217,0.006855647029921453,0.15,8.0,-4.27e-17,1.86e-17,0.979864276,0.00502845,0.005934171,-0.008484009,0.9999667082892237,-0.0009603717845419283,-0.007023774685036657,0.004040617332017826
4,0.294,0.0,0.003080211,-0.002120625,0.979674954,-0.000298245,-0.012637471,-0.040581909,0.9999264619237845,-0.001817369663749673,-0.0037977317702025362,-0.01137300072493008,0.294,1.0,-0.000557606,0.002734254,0.979990415,0.007391884,0.005630533,-0.057715147,0.9999719001547568,-0.0001495771599972512,0.0017407974138259528,-0.0072901407340605455,0.294,2.0,-0.00227074,0.000843246,0.979744932,0.003471896,-0.004681032,-0.092376397,0.999951809690333,-0.00023987119469192288,0.0015839266799664944,-0.009685656152805918,0.294,3.0,-0.002503436,-0.0031887,0.979738519,0.012521141,-0.006196267,-0.05303184,0.9998763056470913,-0.0024349228673772177,0.002317959655394212,-0.01536462232501737,0.295,4.0,0.000108813,-0.003150641,0.979219619,-0.014213417,-0.019152839,-0.085732214,0.9998090105554353,-0.003906488188362617,0.0009083785451022873,-0.019127378560970895,0.241,5.0,-0.004005088,0.005445877,0.980035357,0.007140262,-0.0057068,-0.050867047,0.9903704309331977,0.0929998024963841,0.09352599940477507,0.04207533367858203,0.296,6.0,6.24e-17,-2.35e-17,0.979987755,-0.001829849,0.002897329,-0.014544473,0.9958216212295835,0.0009696786738672544,-0.04383432919319869,-0.08010561777513453,0.242,7.0,-0.004436589,0.000562679,0.978671038,0.009047166,0.03228839,-0.040184443,0.9997359363653197,0.011659653468332757,-0.01919239889270768,0.004874612343436069,0.242,8.0,-4.27e-17,1.86e-17,0.979864276,-0.000112167,-0.000134856,-0.009883851,0.9999733100069277,-0.0008664482849213601,-0.006328618771194007,0.003546424341129355
5,0.34,0.0,0.003080211,-0.002120625,0.979674954,-0.001490235,-0.00204629,-0.004857645,0.9999241205164723,-0.0018203919673058584,-0.003675826070021134,-0.011615837686015007,0.34,1.0,0.000235106,0.002219587,0.979663727,-0.012227991,-0.016076437,-0.060974958,0.9999460781533691,-0.0006439636899957927,0.0007526052277877144,-0.010337295673107344,0.34,2.0,-0.000710045,-0.000701916,0.980165294,-0.017692758,-0.02449989,-0.045127762,0.9999280212026896,-0.0011513493749316784,0.0002431607675036569,-0.01194017090043462,0.34,3.0,-0.001680397,-0.001772083,0.980300482,0.013543029,-0.00861741,0.005615193,0.9998834278841419,-0.0016093828014014976,0.0017324763126487985,-0.015084397750085785,0.341,4.0,0.000138906,-0.002231318,0.980293834,0.039815333,0.002210551,0.014215109,0.9998286240328991,-0.0016365636336882182,0.0008862248957344804,-0.018418980139706703,0.296,5.0,-0.004225755,0.007875967,0.979820959,0.036006849,0.023792084,0.013629086,0.9916753469562541,0.08602215075560005,0.08573683335015937,0.04277138325634374,0.331,6.0,0.000373098,0.000927772,0.979981633,-0.001160993,0.019322004,0.00652512,0.9960664672706718,0.000923658885695749,-0.03851365867255991,-0.07979622628194838,0.296,7.0,-0.004716563,0.001934899,0.980414203,0.008690575,0.01435374,-0.013608044,0.9997972959509035,0.011035733289412885,-0.016305949643507407,0.004206614582974008,0.296,8.0,-4.27e-17,1.86e-17,0.979864276,-0.002726256,0.002939994,0.007079359,0.9999765795162048,-0.0009188774398800749,-0.005548940235070187,0.0038994032350321826
6,0.415,0.0,0.003377165,-0.001202465,0.979412655,0.011870768,0.009325846,0.02146395,0.9999392664077037,-0.001106761448029011,-0.003019362716963745,-0.010541443160403717,0.415,1.0,0.001355697,0.001613104,0.980277287,-0.010114418,-0.02570998,0.035728212,0.9999627098523964,-0.0010156511077254232,-0.0006710634918319987,-0.00854968018520173,0.415,2.0,0.000665948,-0.000695276,0.9798388,0.005499388,-0.040775092,0.026089588,0.9999414044877658,-0.0008211647286265845,-0.0018555603205498978,-0.010633446074508522,0.415,3.0,-0.001680397,-0.001772083,0.980300482,0.013367365,-0.004130053,0.029655764,0.9999060785843936,-0.0008697626488427464,0.0014310107120410701,-0.013602563407577914,0.415,4.0,0.000447494,-0.000872344,0.98005308,0.026120218,0.00098568,0.039043386,0.9998640453358419,-0.00020934531702867775,0.0008012206834682835,-0.016468304849014723,0.331,5.0,-0.003678062,0.007137365,0.980214022,-0.016636198,-0.026126957,0.004280082,0.9931815420507993,0.07711983443004693,0.07611487608937216,0.043005596205355365,0.391,6.0,6.24e-17,-2.35e-17,0.979987755,-0.00494933,0.008973706,0.003470043,0.9962364620463413,0.0006139366311464852,-0.03420036608572358,-0.07964213539831906,0.331,7.0,-0.005658857,0.001615439,0.980514338,-0.00262952,0.019037227,0.004616384,0.9998510801175403,0.009874505139043638,-0.013438233313012912,0.004441353563071381,0.331,8.0,-4.27e-17,1.86e-17,0.979864276,-0.0018427,0.010054242,0.005936723,0.9999806874528986,-0.0009227322828485933,-0.0044914411222468364,0.0041952643549674025
7,0.529,0.0,0.002129765,-0.00068065,0.979827026,0.015489188,0.0106628,0.009613042,0.9999467275416128,-0.0002533742420338078,-0.002300662607128462,-0.010059067147653797,0.529,1.0,0.002148409,0.001098438,0.9799506,-0.019589807,-0.01277805,0.008924703,0.9999645618428271,-0.0018441968253306855,-0.0013437328650722413,-0.008103602812316523,0.53,2.0,0.001560695,-0.001545163,0.980529539,-0.02124628,0.002098831,-0.009313678,0.9999352819693285,-0.001878946857585576,-0.0016333897079246716,-0.011101057142802993,0.53,3.0,-0.001203755,-0.000491946,0.979934339,0.012821782,-0.018603626,0.043647019,0.999934685301865,-0.00017552769673766092,0.00041120092780085765,-0.011420386774739041,0.531,4.0,0.000756082,0.00048663,0.979812325,0.027441277,-0.021473299,0.058226963,0.9999072888588681,0.0011923744308569878,-0.0004175301047022086,-0.013557934899398284,0.391,5.0,-0.004773448,0.008614569,0.979427896,0.02428516,0.031866836,0.026041858,0.9939892997239107,0.07114563314287987,0.0703812028831978,0.04438532640166532,0.48,6.0,6.24e-17,-2.35e-17,0.979987755,-0.008531137,0.004610321,0.007705191,0.9963850283401309,0.0001327270641266013,-0.03051998821061209,-0.07928043896691628,0.391,7.0,-0.005658857,0.001615439,0.980514338,-0.006560433,-0.00051213,0.023779747,0.9998768677586648,0.00862459414427021,-0.01184325297613671,0.005621659533582661,0.391,8.0,-4.27e-17,1.86e-17,0.979864276,-0.000870013,0.004641236,0.001351927,0.9999832731167894,-0.000875237621222264,-0.0038103696514048754,0.004262455731004258
8,0.586,0.0,-1.32e-16,-1.58e-17,0.979798449,0.006991137,0.029123984,-0.010575486,0.9999437522561049,0.00013736508651590563,-0.0006179207945589616,-0.010587333408660624,0.586,1.0,0.002941122,0.000583771,0.979623912,-0.009897842,0.009966776,0.013705998,0.9999698499318288,-0.002122958260163345,-0.0008559214676207942,-0.007420220615497721,0.586,2.0,0.000621851,-0.002092469,0.979624538,0.000884627,0.022229844,0.037323448,0.9999557429306374,-0.0017446712786742013,-0.0003863881874220723,-0.00923682880295324,0.586,3.0,-0.000380717,0.000924671,0.980496303,0.011425597,-0.022606993,0.048329817,0.9999590824860781,0.0004487402971933935,-0.0007489585110409915,-0.00900394618460935,0.586,4.0,0.003193326,0.000634526,0.979617476,-0.000111701,-0.033858778,0.016794154,0.9999160265379224,0.0010744200056190835,-0.0022328122103083678,-0.012720064618468264,0.48,5.0,-0.005061527,0.007414868,0.980119075,-0.02132876,-0.005173888,0.008896405,0.9949605019015795,0.06343174980969377,0.06333806225175716,0.04492552328053385,0.571,6.0,6.24e-17,-2.35e-17,0.979987755,-0.003979647,0.001669082,0.010408704,0.9965166541167506,-8.812532845041898e-05,-0.027371293921403396,-0.07877412373965918,0.48,7.0,-0.00571259,0.001163479,0.978566816,-0.009461669,0.009867235,0.006932958,0.9999064762815246,0.007340219234702852,-0.009878913955130976,0.005963801716887338,0.481,8.0,-4.27e-17,1.86e-17,0.979864276,-0.002190706,0.000266321,0.008761698,0.9999827154095265,-0.0008989745251841299,-0.003416095303057944,0.004700108495900494
9,0.642,0.0,-0.0012474,0.000521814,0.98021282,0.00049731,0.033198399,-0.003665055,0.9999412990784864,0.0001934692479725858,0.0011668101474960864,-0.010770307375325644,0.642,1.0,0.001913303,-0.001121149,0.979815841,-0.019711283,0.017748131,-0.026105041,0.9999575666749092,-0.002946416986116161,2.3299632654123278e-05,-0.008728283546359981,0.642,2.0,-0.000754143,-0.002099109,0.979951032,-0.024567729,0.020325743,-0.056618763,0.9999227165068832,-0.002894750346120259,0.0007110764103167307,-0.012069623203202885,0.643,3.0,0.001334001,0.001635603,0.979751777,0.006555839,-0.014021984,0.045311907,0.9999759215534825,0.0008064939500183443,-0.0014487485289244315,-0.006738472265429812,0.643,4.0,0.003949408,0.001121156,0.979179833,-0.000779257,-0.027325707,0.05281533,0.9999423178663122,0.000959415536490281,-0.0035801448948832994,-0.010080824594581497,0.571,5.0,-0.005609221,0.008153471,0.979726011,-0.005117344,0.005949789,0.00188149,0.9956739720404352,0.057266526157986206,0.05762641563029089,0.04508971728259405,0.611,6.0,6.24e-17,-2.35e-17,0.979987755,-0.004941314,-0.006089545,0.001896734,0.9965874357923779,-0.00035213764295283917,-0.02491988241939137,-0.07869153880854793,0.571,7.0,-0.00571259,0.001163479,0.978566816,-0.001663212,-0.009263606,0.008827413,0.9999167917859809,0.0065792947211139536,-0.009065556280803997,0.006398286858506006,0.571,8.0,-4.27e-17,1.86e-17,0.979864276,-0.002503851,-0.003065199,0.003639159,0.9999824371002448,-0.000934169787122628,-0.003228165708783499,0.004881778776280518
10,0.696,0.0,-0.00425953,0.0013613,0.979741294,0.003749538,0.018202595,0.001422202,0.9999402988912329,0.0004432821914622077,0.002174770934098609,-0.01069918340783374,0.696,1.0,0.00112059,-0.000606482,0.980142529,0.001644765,0.005163974,0.00921193,0.9999624126329355,-0.0025987122783702986,0.00022274554692699457,-0.008268639563698412,0.696,2.0,-0.000754143,-0.002099109,0.979951032,0.010471249,0.010533194,0.030980595,0.9999415342602099,-0.0021809085683707685,0.0012034236162918215,-0.010522522071902856,0.697,3.0,0.001334001,0.001635603,0.979751777,0.006239537,-0.001031889,0.030732165,0.9999848271836155,0.001118251338861539,-0.0014279248349721408,-0.0052015331551120815,0.697,4.0,0.004396902,0.000248812,0.978982944,0.0123511,0.003534942,0.045208703,0.9999629587842958,0.0014851345312414115,-0.0032796403449569475,-0.00781788935636195,0.611,5.0,-0.004552782,0.006184479,0.979642294,-0.013413801,-0.013579465,-0.004162121,0.9963499057278367,0.0512224680219134,0.05144223822073657,0.04490902195234479,0.694,6.0,6.24e-17,-2.35e-17,0.979987755,-0.005866283,0.005811414,0.010024014,0.9966919030161475,-0.0005989302278145753,-0.0221160911436315,-0.0782033903175511,0.611,7.0,-0.00571259,0.001163479,0.978566816,-0.00469864,-0.01737769,-0.012506467,0.9999286920749388,0.0057553659471002595,-0.008733646228156672,0.005762807621161826,0.611,8.0,-4.27e-17,1.86e-17,0.979864276,-0.000235872,-0.002992503,-0.0039384,0.9999839960267646,-0.0008511809640944555,-0.0030552001031501855,0.004684968904916819
11,0.774,0.0,-0.00425953,0.0013613,0.979741294,0.002011199,0.025744016,0.00522513,0.9999393708048305,0.0005856411247784073,0.003459808741078811,-0.010437502689229645,0.775,1.0,0.001913303,-0.001121149,0.979815841,-0.018865668,0.010967284,-0.036343291,0.9999433451489453,-0.0033359591887561512,0.0006533844902841591,-0.010087167954181254,0.775,2.0,-0.002174233,-0.003502942,0.980063264,-0.027369283,0.020724541,-0.068417655,0.9998941554361178,-0.0035018680153998723,0.002234407081086452,-0.013943538650269522,0.775,3.0,0.000953285,0.002560274,0.979757897,-0.006606159,0.019415877,0.020672346,0.9999909222746192,0.0008100970457839395,-0.0003627925185599911,-0.004167432389535261,0.775,4.0,0.002745832,0.00150687,0.979814365,0.001957131,0.032234789,0.022075634,0.9999752241589255,0.0015192493465606184,-0.001483126575198344,-0.006711429452193746,0.695,5.0,-0.004005088,0.005445877,0.980035357,-0.035290595,-0.028226161,-0.014966567,0.9970055669966706,0.04465262897396911,0.04508068395778834,0.04420151623257021,0.747,6.0,-0.000746197,-0.001855543,0.98,0.001330358,0.004027043,0.007144185,0.9967712001750877,-0.0005563134167711402,-0.019664318480934126,-0.07784715534673076,0.695,7.0,-0.004436589,0.000562679,0.978671038,-0.011253257,-0.007286652,0.012038694,0.9999369938206704,0.0046415623739634445,-0.008003938150215235,0.006356198682926329,0.695,8.0,-4.27e-17,1.86e-17,0.979864276,-0.002482431,-0.00339365,-0.008333142,0.9999862331304965,-0.0008881153611704242,-0.0029203138970734996,0.004268087080668459
12,0.82,0.0,-0.008450978,0.001441463,0.979089119,-0.000545357,0.049600855,0.006657841,0.9999306321802397,0.0006049567445472058,0.006024538856276023,-0.010102959295792443,0.82,1.0,0.000606681,-0.001458942,0.980238493,0.003430719,0.01955942,-0.022489404,0.9999317424374101,-0.002896436379943486,0.001530770918013886,-0.011215073017078744,0.82,2.0,-0.003550227,-0.003509582,0.980389759,0.007251326,0.018666956,-0.041761077,0.9998621994733521,-0.002957258934000228,0.003116488415198634,-0.016035092262468163,0.82,3.0,-0.001965188,0.001357397,0.979946578,-0.005732331,0.035254659,0.020461765,0.9999937447117275,0.0005191215430483387,0.0015368533845932625,-0.003143108638618349,0.82,4.0,0.000308588,0.001358974,0.980009213,0.024407841,0.053698842,0.071966858,0.9999907432206224,0.0026695976344764637,0.0013161158623739766,-0.0031071788770189266,0.8,5.0,-0.002987598,0.002985098,0.979081796,0.001443686,0.015676278,0.024781355,0.9972838828853375,0.04044062639793857,0.04148130617968811,0.045483116772200245,0.8,6.0,6.24e-17,-2.35e-17,0.979987755,0.005667324,-1.09e-05,0.001624245,0.9968143256564664,-0.00021988295776020667,-0.017721109708024336,-0.077763192374318,0.8,7.0,-0.004102883,-0.000357581,0.978875395,-0.009920723,-0.019642817,0.018274897,0.9999350767180917,0.003660792747470493,-0.007982779611484558,0.007260590535107207,0.8,8.0,-4.27e-17,1.86e-17,0.979864276,-0.000933659,-0.002812057,0.002563852,0.9999861450357147,-0.0008457612027780192,-0.0027689769223375894,0.004396270169331127
13,0.933,0.0,-0.010877697,0.001203953,0.979322841,0.001377299,0.059030772,0.008573467,0.9999131151717372,0.0007127919631181339,0.008927033756068998,-0.009672750564745883,0.934,1.0,-0.001027819,-0.00170492,0.979720897,-0.015940782,0.019469234,-0.059736069,0.9998901746088674,-0.003483810849468136,0.0024030061386727287,-0.014203075163888931,0.934,2.0,-0.005199116,-0.004758804,0.979540874,-0.02561324,0.027258667,-0.060884015,0.9997994204014727,-0.004168174660493402,0.004444570590510697,-0.019078550184555503,0.934,3.0,-0.004407019,0.001434657,0.979769116,0.000747383,0.033155517,0.027754662,0.999992960102321,0.0005858402321524568,0.0032646657451905585,-0.0017545639322828117,0.934,4.0,-0.003501233,0.002908788,0.979720511,0.009378675,0.037090342,0.022749017,0.9999883246672291,0.0030278230209100903,0.003212316827630834,-0.001965664666595357,0.827,5.0,-0.001931159,0.001016106,0.978998079,-0.061136162,-0.040935495,-0.019264646,0.9978217395230589,0.03345590531279904,0.03529431479704235,0.044573421204629225,0.826,6.0,6.24e-17,-2.35e-17,0.979987755,0.007870488,0.00267801,0.001719349,0.9968529562807147,0.00020326914261823193,-0.015846594669018728,-0.07767256705846039,0.827,7.0,-0.001884588,-0.00063892,0.978879482,-0.018610077,-0.030746989,-0.001312904,0.9999342051622248,0.0023426567988516613,-0.008632402810395245,0.007181847076612832,0.827,8.0,-4.27e-17,1.86e-17,0.979864276,0.00109231,-0.006743654,-0.014270043,0.9999889666271216,-0.0007031124104247628,-0.002829520582213438,0.0036832146604364583
14,0.967,0.0,-0.015434181,0.001647093,0.979527985,0.005240481,0.057496545,-0.00440056,0.9998821714783827,0.0010210278459951599,0.011693391639117482,-0.009892686884055295,0.968,1.0,-0.002334441,-0.002042713,0.98014355,-0.013203654,0.028588935,-0.020447634,0.9998695982152183,-0.0038801855411755046,0.0037179298949009745,-0.01522851674986234,0.968,2.0,-0.006619207,-0.006162637,0.979653106,-0.009690909,0.031337551,-0.019890976,0.99977072592474,-0.004518334312723069,0.00591514120648095,-0.020077134842007214,0.968,3.0,-0.005645095,0.002003863,0.980147498,0.011142443,0.014912322,0.037088573,0.9999914076415867,0.0011944602678221298,0.00396839728051771,9.864426333526834e-05,0.968,4.0,-0.003948727,0.003781132,0.9799174,0.010998461,0.010439047,0.050548761,0.9999873007052383,0.00347741668652498,0.0036042515174720363,0.0005615803046377308,0.9,5.0,0.00076836,-0.003168693,0.980093551,-0.052265849,-0.035516593,-0.007676885,0.9981992703693685,0.027413693813384835,0.02984634381957206,0.04422557841532591,0.9,6.0,6.24e-17,-2.35e-17,0.979987755,-0.005205996,-0.015328497,0.011085116,0.9969083985748796,-0.00014486906596833182,-0.01500599386356466,-0.07712615647100018,0.9,7.0,0.000667413,-0.00184052,0.979087926,-0.020770875,-0.035407378,-0.003397998,0.999929106033447,0.0009903789782535362,-0.009581511719897982,0.0069997635526239995,0.9,8.0,-4.27e-17,1.86e-17,0.979864276,0.006170687,-0.012840092,-0.013190461,0.9999902928266285,-0.0003200392952947175,-0.0031876425979265517,0.003025022649701768
15,1.059,0.0,-0.018446311,0.002486579,0.979056459,-0.001762186,0.051465216,-0.004828609,0.999849651488281,0.0009897363357681632,0.01403863195637608,-0.010129741040231453,1.06,1.0,-0.003362259,-0.003747633,0.980335479,-0.024816927,0.022481952,-0.045951672,0.9998235261111887,-0.0049127207398592014,0.004652017092193053,-0.01752542571509722,1.06,2.0,-0.008039298,-0.00756647,0.979765338,-0.02090115,0.024074488,-0.041089912,0.9997158953889018,-0.005477040370968759,0.006954648424129478,-0.022130598745580626,1.06,3.0,-0.005645095,0.002003863,0.980147498,0.002393968,0.010377023,0.006983167,0.9999894737016268,0.0012982382420139446,0.004377939487534313,0.00044800586386417265,1.06,4.0,-0.003948727,0.003781132,0.9799174,-0.006460097,-0.000203749,-0.013779956,0.9999895940683091,0.0029970112834130226,0.003437110753116144,-0.0001262859311104293,1.012,5.0,0.005648168,-0.007661683,0.980116012,-0.080499459,-0.071731773,-0.014630326,0.9985835055227268,0.020415536162489076,0.022815745422786686,0.04351586080893801,1.01,6.0,0.000922389,-0.000370207,0.98009796,-0.003151199,-0.008145307,-0.00098737,0.9969196749174488,-0.00034058822038199045,-0.013945016995484017,-0.07717889778396875,1.013,7.0,0.00227712,-0.003361579,0.979396505,-0.014955052,-0.033524816,0.001560968,0.9999206874778321,-1.6144685482819755e-05,-0.010422218542202088,0.0070707746299317545,1.013,8.0,0.000827226,-0.000552143,0.979968372,-3.75e-05,-0.012599081,-0.004493777,0.9999897584879465,-0.0003153322271915354,-0.0035411964062236332,0.0028006093654283355
16,1.099,0.0,-0.019990664,0.002090234,0.979733129,-0.006410296,0.016887814,0.006610458,0.9998466489707936,0.0007004696607929832,0.014500973651790445,-0.009793347092753087,1.1,1.0,-0.005045834,-0.005268922,0.978646912,-0.017614128,0.005926967,0.014702917,0.9998322732455748,-0.005558022139131515,0.00476510296827575,-0.016787720517959653,1.1,2.0,-0.008749343,-0.008268386,0.979821455,-0.006804243,0.003025773,0.007735933,0.9997238440918429,-0.00567534110460054,0.0068758363598371815,-0.021742790343640413,1.1,3.0,-0.006025812,0.002928535,0.980153617,0.010889057,-0.003756546,0.018678503,0.999989072072527,0.0018662838902224535,0.0040582717716323635,0.0013795470978547595,1.1,4.0,-0.004396221,0.004653476,0.980114288,0.032249659,0.006145847,0.035430408,0.9999817474764444,0.004553302623036937,0.0036166454837220975,0.0016407390482653743,1.036,5.0,0.007761046,-0.011599667,0.979948577,-0.048761472,-0.042100846,-0.019159871,0.9988134969144237,0.015436681916157194,0.01792132392687803,0.042569159983579935,1.036,6.0,0.001844778,-0.000740413,0.980208166,-0.000743698,-0.0054237,0.016511733,0.9969968978186442,-0.00042097375651492313,-0.012908690781841255,-0.07635688720341614,1.037,7.0,0.005744549,-0.004469699,0.978531053,-0.022803147,-0.03266742,0.007134834,0.9999075140953969,-0.001373036523747281,-0.01131596823077742,0.007418011139665361,1.037,8.0,0.000827226,-0.000552143,0.979968372,0.002504315,0.001865118,-0.020068189,0.9999934502314763,-0.00018334505386707417,-0.0031359402857562245,0.0017977088929052303
17,1.195,0.0,-0.020873029,0.00224907,0.979290181,0.003404838,0.015633549,0.008674111,0.9998448093079335,0.0009398136762910992,0.014894733321136926,-0.009360607326882625,1.195,1.0,-0.005045834,-0.005268922,0.978646912,0.000254564,0.008989958,0.003016595,0.9998352880548284,-0.005246056567823782,0.005000870872307809,-0.016639319136440928,1.195,2.0,-0.009415291,-0.00757311,0.980091833,0.000571661,0.02200548,-0.006765425,0.9997110539069411,-0.005433428755642482,0.0077743372164615744,-0.02208724131880564,1.195,3.0,-0.006025812,0.002928535,0.980153617,0.01011083,0.000798646,-0.005019407,0.9999886386443279,0.0023330822596760083,0.004001250768109411,0.0011266329145518895,1.195,4.0,-0.004396221,0.004653476,0.980114288,0.004281272,-0.001162559,-0.001074706,0.9999825405442151,0.004548958070269166,0.003422107190680197,0.001585802505831038,1.14,5.0,0.011036722,-0.013385063,0.979661692,-0.013987899,-0.034439272,0.035146031,0.998842996471578,0.012642427640693345,0.013767313420240372,0.04430912439010384,1.14,6.0,0.001844778,-0.000740413,0.980208166,0.001986074,0.01330754,-0.000426364,0.9970176773220379,-0.0002736350406468447,-0.011053092519224985,-0.07637738786443693,1.14,7.0,0.005744549,-0.004469699,0.978531053,-0.002887051,-0.007197933,0.003900904,0.999910963581962,-0.0016058050769820896,-0.010840271723519807,0.007614118964613528,1.14,8.0,0.000827226,-0.000552143,0.979968372,0.00138375,-0.006909326,0.004331688,0.9999928110855787,-0.00012397721850468797,-0.003209918446837826,0.0020146539097343785
18,1.225,0.0,-0.023002794,0.00292972,0.979261604,0.009724841,0.016530821,0.010985189,0.9998414171104687,0.001508442767230072,0.015399093067791619,-0.008816641290031348,1.225,1.0,-0.005838546,-0.004754255,0.978973599,0.001063765,0.00961003,0.023770521,0.9998546361726177,-0.004892145328662968,0.005288329888070982,-0.015453381675220668,1.225,2.0,-0.009415291,-0.00757311,0.980091833,0.008379111,0.012717469,0.031830013,0.999745194650723,-0.0048204298876668,0.008119734667738876,-0.02050314945103506,1.225,3.0,-0.006406529,0.003853206,0.980159737,0.016650597,-0.001523497,0.039706327,0.9999828513956294,0.0031365015447052283,0.003846679138919926,0.003108429238207521,1.225,4.0,-0.004087633,0.00601245,0.979873534,0.030303031,-0.000682028,0.044415315,0.9999699700827486,0.005923269203059503,0.0032440971943802285,0.003801269268100937,1.235,5.0,0.011036722,-0.013385063,0.979661692,-0.004409834,0.014023284,0.00230148,0.9988792710100309,0.010472105068814883,0.012488200018384337,0.044436266969643985,1.235,6.0,0.000922389,-0.000370207,0.98009796,0.000416928,-0.003465569,0.013375444,0.9970779391686431,-0.0002685440386741104,-0.010167495126994795,-0.07571085226143894,1.236,7.0,0.006713709,-0.003924258,0.97940468,-0.003667898,0.002496958,0.02748252,0.9999081649763003,-0.0018421633810557856,-0.009974564888926835,0.008987552674788764,1.236,8.0,-4.27e-17,1.86e-17,0.979864276,-0.003204602,-0.00285672,0.010313653,0.9999921662688586,-0.0002731759918560744,-0.0030319464267614883,0.0025298372789810497
19,1.301,0.0,-0.023002794,0.00292972,0.979261604,0.006675571,0.017675875,0.002891074,0.9998340198726668,0.001861237298421256,0.015912517632746006,-0.008675268501331187,1.301,1.0,-0.005838546,-0.004754255,0.978973599,-0.000339206,0.016734982,-0.000475029,0.9998519757091059,-0.0046452638910024725,0.005898184524078276,-0.015480943553296492,1.301,2.0,-0.011686031,-0.006729864,0.979727587,0.004944323,0.023226264,0.004738397,0.9997436762495325,-0.004396632454561013,0.009068013731246653,-0.02027369105761328,1.301,3.0,-0.006787245,0.004777877,0.980165856,0.030773708,0.003110378,0.018521502,0.9999734097872978,0.004607215413318178,0.003965013054938627,0.004028890166598273,1.301,4.0,-0.004087633,0.00601245,0.979873534,-0.003407758,-0.014591838,0.012583286,0.9999723653407188,0.005471369476123225,0.0023957643783290715,0.004426396275470197,1.305,5.0,0.012601907,-0.016584445,0.979101194,-0.032130117,-0.024270116,-0.003499974,0.9989517781902582,0.007055234615043993,0.009277440520731341,0.0442662129895023,1.304,6.0,0.000922389,-0.000370207,0.98009796,0.000407222,-0.016596677,-0.010065689,0.9970411316986358,-0.00030149270246711236,-0.010025436372282487,-0.07621273796944579,1.305,7.0,0.006686843,-0.004150238,0.978430918,-0.007575186,-0.013933014,-0.007670196,0.9999102743574286,-0.0022355854659919087,-0.010021589082138755,0.008603089232649151,1.305,8.0,-4.27e-17,1.86e-17,0.979864276,0.000536509,-0.011734399,-0.014528494,0.9999928537307682,-0.00021534649890783472,-0.003315557785642897,0.0018036601259463331
20,1.36,0.0,-0.024250194,0.003451534,0.979675974,0.011479601,0.014305769,-0.020101957,0.9998177667231347,0.0024260370579525957,0.016269689046991803,-0.009687358116167973,1.36,1.0,-0.007145168,-0.005092048,0.979396252,-0.007846699,0.020924096,-0.025291648,0.9998255335489761,-0.004818543224657035,0.006723114675550037,-0.016747651589314246,1.36,2.0,-0.011686031,-0.006729864,0.979727587,-0.004389623,0.022883048,-0.021241852,0.999713102482626,-0.004494092511131546,0.009907911161782381,-0.021338911721875763,1.361,3.0,-0.007167962,0.005702549,0.980171975,0.031172394,0.002142065,0.018515094,0.9999615963389139,0.005997701719033523,0.004043138618893579,0.004948378676764007,1.361,4.0,-0.00422654,0.008243768,0.979829667,0.026035945,-0.007203551,0.024607496,0.9999598947744356,0.006650214447389899,0.0020111313363064803,0.0056514459434410325,1.356,5.0,0.015080759,-0.018339153,0.979982268,-0.048593596,-0.043750941,-0.028266895,0.9990625527790791,0.0031058397853744864,0.005251519133582025,0.04285779906349906,1.353,6.0,0.001844778,-0.000740413,0.980208166,-0.001295403,-0.013555783,0.004897669,0.9970620538646634,-0.0004348668274926453,-0.009784656671070749,-0.07596928410779193,1.356,7.0,0.010208005,-0.004806397,0.979512989,-0.003117887,-0.025229809,-0.001766053,0.999902470438931,-0.002397005556429244,-0.01080551159107028,0.008517329026187239,1.357,8.0,-4.27e-17,1.86e-17,0.979864276,-0.000900484,-0.008223267,-0.006281918,0.9999930984585562,-0.00023705295724078663,-0.0033953215891319374,0.0014895074548157631
21,1.484,0.0,-0.025132559,0.00361037,0.979233026,0.016870998,0.004882761,-0.005062852,0.9998146743218651,0.0032217950876192946,0.016160572498766998,-0.00995353924934936,1.484,1.0,-0.00845179,-0.005429841,0.979818904,-0.010605882,0.013235459,-0.006517841,0.9998154937453883,-0.005127810018773348,0.0071555256146171,-0.0170728581161895,1.484,2.0,-0.013062024,-0.006736504,0.980054082,0.009608911,-0.003850852,0.017431582,0.9997387587043602,-0.003889184923648248,0.009391277683361267,-0.020471748542048047,1.484,3.0,-0.007548679,0.00662722,0.980178095,0.019460176,0.012683293,0.007232375,0.9999525583180351,0.00670536340219009,0.004662066719465136,0.005308893365352362,1.485,4.0,-0.004982621,0.007757138,0.980267311,0.033560254,0.022090857,0.022722665,0.9999394858378542,0.008053351638639428,0.003171191044759515,0.0067905623530003165,1.458,5.0,0.016934022,-0.020338833,0.978730592,-0.030621308,-0.029196499,0.004233931,0.9990693775508237,0.0003288046383307604,0.00229395297636783,0.04306980969845932,1.457,6.0,0.001844778,-0.000740413,0.980208166,-0.002057554,-0.009618783,0.013416051,0.9971166358800116,-0.0005818743873241466,-0.009368519598017148,-0.0753014389906795,1.458,7.0,0.010181138,-0.005032378,0.978539227,-0.002441044,-0.012235,0.012943923,0.999895822597174,-0.002533806529237152,-0.010858442845993865,0.009166133107975573,1.458,8.0,0.000827226,-0.000552143,0.979968372,0.001655686,-0.012113855,0.006421386,0.9999914891723846,-0.00015886059490477782,-0.003703554364136668,0.001811085635739247
22,1.517,0.0,-0.02696537,0.00520918,0.97894215,0.018298723,0.010758451,-0.008164121,0.9998025027141777,0.004092803636081888,0.016449044255679487,-0.01037465507561996,1.518,1.0,-0.007937881,-0.004577381,0.979722939,-0.006709248,0.006899046,-0.00738166,0.9998086026799455,-0.005173837269835369,0.007197711056648796,-0.01744082482639906,1.518,2.0,-0.013062024,-0.006736504,0.980054082,-0.00572659,0.012827993,-0.027080931,0.9997056087577632,-0.004116031354556157,0.009766886913232348,-0.0218257193279576,1.518,3.0,-0.008310112,0.008476563,0.980190334,-0.001747155,0.004114851,-0.017441897,0.9999581700302604,0.0063724303685655315,0.004832851719377773,0.0044377770549173055,1.518,4.0,-0.005599115,0.009941477,0.979346117,0.017178449,0.012386463,-0.021155118,0.9999393992248853,0.008604905117700267,0.003777573142054214,0.0057344072795010815,1.471,5.0,0.019085847,-0.023785029,0.979433001,-0.041679056,-0.028481035,-0.01453642,0.9990987530583366,-0.0028970700799068024,-0.0004752414673614971,0.042344571880901814,1.47,6.0,0.002767168,-0.00111062,0.980318371,-0.005749145,-0.021359031,-0.023631341,0.9970242136128711,-0.000946744544489408,-0.009612505079359058,-0.07648150685298027,1.471,7.0,0.010181138,-0.005032378,0.978539227,-0.001181657,0.037521637,0.021436601,0.9999087738841321,-0.002620670593659449,-0.00841693423282868,0.01023382691329334,1.471,8.0,0.001654451,-0.001104286,0.980072468,-0.005949469,-0.0256475,0.005132869,0.9999866937415521,-0.0004952553920828068,-0.004700476709922546,0.002067022166140936
23,1.615,0.0,-0.027330405,0.005572159,0.979799469,-0.011639035,-0.020962916,-0.053286244,0.9997944934063352,0.0033457041800389027,0.01516233648300133,-0.013033831757592798,1.615,1.0,-0.00845179,-0.005429841,0.979818904,-0.025215818,0.004603765,-0.048672132,0.9997578607316672,-0.006199951337538617,0.007151013110523867,-0.019865636666000015,1.615,2.0,-0.01377207,-0.00743842,0.980110198,-0.024201633,0.022039678,-0.067870609,0.999611850956682,-0.005287115432057494,0.010610812525519358,-0.025211197807971868,1.615,3.0,-0.00669132,0.006982686,0.979805832,-0.037387185,-0.045307418,-0.100301276,0.9999880065314519,0.0042063497068007775,0.0024399587107835777,-0.0005831096696779626,1.615,4.0,-0.005599115,0.009941477,0.979346117,-0.015837814,-0.028827855,-0.079356442,0.9999681116259942,0.007451625672291645,0.0022722057306797144,0.0017567262453061453,1.545,5.0,0.01227488,-0.018275933,0.978922529,0.125378699,0.131608104,0.050399838,0.9989746444787018,0.0024695853822199326,0.005739508443258149,0.04483992506150217,1.545,6.0,0.003689557,-0.001480826,0.980428577,-0.002049775,-0.060839692,-0.079527099,0.9966879672076597,-0.0012383134472685104,-0.011862296655257372,-0.08044158452773115,1.545,7.0,0.00227712,-0.003361579,0.979396505,0.045283732,0.213381433,0.017520182,0.9999338236968535,-0.00038135936036270073,0.002999170025251125,0.011099899602593409,1.545,8.0,0.005524967,-0.002494724,0.980365366,-0.049935369,-0.100234774,0.052947087,0.9999388886910806,-0.0030710658730095856,-0.009520853583308831,0.004705399525593092
24,1.631,0.0,-0.025132559,0.00361037,0.979233026,-0.041329037,-0.074970963,-0.043061498,0.9998215703369046,0.0010645284392350178,0.011207692433021572,-0.015168450763846366,1.631,1.0,-0.006352456,-0.005606715,0.979069564,-0.012656901,-0.055463001,0.006979507,0.9997805009506195,-0.006545049871953734,0.004008223977901312,-0.019494778317409367,1.631,2.0,-0.012440174,-0.008828973,0.979569442,-0.014511222,-0.073569801,0.081145386,0.9997374313228751,-0.005967821007587881,0.006560582725778516,-0.021128470807405902,1.631,3.0,-0.002726622,0.00320674,0.979958817,-0.076752848,-0.060059016,-0.149258029,0.9999673799277935,9.176950900106009e-05,-0.0006650431998213376,-0.008049122700235035,1.631,4.0,-0.002853964,0.006546059,0.980313217,-0.069460504,-0.062961425,-0.177647371,0.9999677584632796,0.003552132914681339,-0.0009315063855805879,-0.0071411960856735774,1.658,5.0,0.002554211,-0.008798164,0.979747451,0.147066166,0.136713389,0.151882865,0.9985140749107014,0.008859616042979994,0.012103168812657486,0.0523895286626003,1.658,6.0,0.006007413,-0.001340232,0.979648975,0.002665352,-2.83e-05,-0.012900994,0.9966462089444218,-0.0010669716218239284,-0.01098910746666798,-0.08108289144669058,1.658,7.0,-0.010757767,0.000486438,0.978863133,0.051432683,0.040980399,-0.070256389,0.9999546035669744,0.0022137643823540148,0.0053341882245553345,0.0075786864600477484,1.659,8.0,0.009974078,-0.003227643,0.979547906,-0.001481172,-0.033829941,0.041912407,0.9999143708736595,-0.003012351022995741,-0.010764017797751104,0.006805334855619587
25,1.747,0.0,-0.023002794,0.00292972,0.979261604,-0.031493722,-0.056620501,0.003030372,0.9998516281583091,-0.0004902793853422241,0.008452072763195848,-0.015001458639360863,1.748,1.0,-0.001919169,-0.009307956,0.980352834,-0.089883507,-0.061779616,-0.120775529,0.999614922774885,-0.010939937708029219,0.0006481850526155927,-0.025493210563652273,1.748,2.0,-0.00590085,-0.012601294,0.979486798,-0.093831135,-0.091254404,-0.036469935,0.9996779811032619,-0.010805998156189522,0.0017372696655578426,-0.022894243714608246,1.748,3.0,0.001334001,0.001635603,0.979751777,-0.033490728,-0.074207236,0.059706167,0.9999764823045241,-0.0015408356579550506,-0.004359475071254138,-0.005065139726417667,1.748,4.0,0.002159432,0.004610532,0.979967387,-0.008251797,-0.073788141,0.120245845,0.9999840550485619,0.0029867432597626246,-0.0046545459705707075,-0.0011420223916494888,1.695,5.0,0.009030205,-0.005325501,0.979793394,0.038355668,-0.050613897,0.098329273,0.9982796874319767,0.009833505348391527,0.00794494755478361,0.05725247279926106,1.695,6.0,0.003316459,-0.002408598,0.980434699,-0.000302808,0.074616166,0.085315253,0.9970237596271517,-0.0008559109784347163,-0.006323750149820291,-0.07683033476029505,1.695,7.0,-0.008205766,-0.000715162,0.979071578,-0.022692453,-0.041613514,0.099901223,0.9999156947872371,0.0008605591317094749,0.0031260501498022214,0.01257340711974829,1.695,8.0,0.009974078,-0.003227643,0.979547906,0.004114947,-0.011374942,0.084690118,0.9998775264932271,-0.0027083636938336963,-0.010753580567185846,0.011043427224960748
26,1.78,0.0,-0.019990664,0.002090234,0.979733129,-0.03934292,-0.117580868,0.021630147,0.9998967562780376,-0.0023652981969033496,0.00277869196971122,-0.013898238019107887,1.78,1.0,0.004564379,-0.014461381,0.979715793,-0.073910646,-0.145784275,0.036968348,0.9995945433089582,-0.014467906790601259,-0.006795987184953001,-0.023563599432933645,1.78,2.0,0.003434558,-0.014963143,0.978965427,-0.050576262,-0.181420979,0.023714245,0.9996502565721547,-0.013226427535352258,-0.007588676852926425,-0.0216064373162147,1.78,3.0,0.008251493,-0.001998618,0.978781854,-0.03635865,-0.135845989,0.096920234,0.9999325914808886,-0.0033642653947743304,-0.01111068575798579,-0.00021650555479913656,1.781,4.0,0.010535153,0.001997535,0.980107147,-0.059730578,-0.164953182,0.102222972,0.9999081470496095,-0.0002302422102120189,-0.012968688969735088,0.003931610197783946,1.764,5.0,0.006081555,-0.001848617,0.980258944,0.041091328,0.018438398,-0.017280698,0.9983198746299344,0.010765442477963901,0.007882836989409305,0.05638611573893134,1.763,6.0,0.000176193,-0.00222575,0.980110206,-0.003631592,0.047315383,0.021466393,0.9971200273947003,-0.0008903071053478798,-0.0033176847409803743,-0.07576180627208962,1.764,7.0,-0.010424061,-0.000433822,0.97906749,-0.004005292,0.125287748,0.079651978,0.9998166330627513,0.0004791068168879874,0.009604148458688185,0.01655992270831451,1.764,8.0,0.009974078,-0.003227643,0.979547906,-0.016313355,-0.003797005,0.129618087,0.9997868194802968,-0.0034796857870150006,-0.010365220975729996,0.017514838692392284
27,1.847,0.0,-0.014415653,-0.00107402,0.978780892,-0.078024915,-0.168503395,-0.067334047,0.999819046456207,-0.006200301151350513,-0.005152588673443392,-0.017230247792641745,1.847,1.0,0.015016866,-0.017326116,0.978981767,-0.060125699,-0.151384551,0.002842691,0.9994782542240404,-0.01710736388813851,-0.014353909049068763,-0.02333501080081783,1.848,2.0,0.010246779,-0.017492882,0.980058163,-0.068634752,-0.122360279,0.048772779,0.9995940955001511,-0.016387923230253468,-0.013334347302892463,-0.019112179243610875,1.848,3.0,0.019065041,-0.007286481,0.979833369,-0.144904204,-0.201590065,-0.115985188,0.9997028539590423,-0.010580292117298476,-0.021107531951859573,-0.006060800257330951,1.848,4.0,0.021148345,-0.004977182,0.979262465,-0.170616992,-0.243850887,-0.209777277,0.9996249080109948,-0.008800634689120667,-0.025064092464211863,-0.0066620854110541255,1.874,5.0,0.005601274,0.002519777,0.978960304,0.158853143,0.056934756,0.079682406,0.9979722429522158,0.017631162936455037,0.010034975155168263,0.06033111688065447,1.874,6.0,-0.002787881,-0.004268652,0.979908162,-0.038149914,0.02486657,0.017996707,0.9971882500737154,-0.0028186090268229997,-0.001440652382581831,-0.07487038051718162,1.875,7.0,-0.018688652,0.001931256,0.97874665,0.034600649,0.08493008,-0.165128382,0.9998669616466171,0.0020941883252348485,0.013891274237903177,0.008288901185810164,1.875,8.0,0.01023969,-0.004597919,0.979775489,-0.033546868,-0.045775397,-0.006391462,0.999765724571923,-0.004990705977056537,-0.012174464697470041,0.017186367689488273
28,1.946,0.0,-0.005608136,-0.005791776,0.979862748,-0.102653276,-0.173713994,-0.108797884,0.9995973758588874,-0.011122805532853447,-0.013000305299538072,-0.022635402254507556,1.946,1.0,0.022577307,-0.01949931,0.979323768,-0.045580629,-0.147757123,-0.03435943,0.9992815025853208,-0.01884336207166441,-0.021408697224860704,-0.02496144987364044,1.946,2.0,0.017496149,-0.020563287,0.979919403,-0.087167754,-0.105026751,-0.065331616,0.9993816366053062,-0.02022721854696191,-0.018103872106771928,-0.02234846439231897,1.946,3.0,0.031531702,-0.015129373,0.979566156,-0.131968975,-0.21149218,-0.125186485,0.9992942498780617,-0.016828826641711373,-0.03123159439292795,-0.012344240202648427,1.947,4.0,0.035571357,-0.013501712,0.978706484,-0.121129918,-0.218908275,-0.036727676,0.999232359122476,-0.014700214590412805,-0.035291494217927544,-0.008550240311996544,1.95,5.0,-0.005510807,0.022948297,0.979404414,0.253606612,0.12860282,0.046357459,0.9974708110244233,0.02930264191388557,0.016493229498525677,0.06262036179913795,1.949,6.0,-0.003907175,-0.007051967,0.97992653,-0.062746319,-0.022765674,0.024261092,0.9972628792620911,-0.006096317485040214,-0.0019636981262692336,-0.07365954417911169,1.95,7.0,-0.024072628,0.005706675,0.980072927,0.053779617,0.039068374,-0.066471939,0.9998527237374002,0.004791831506785161,0.01572352105995804,0.004933565768273331,1.95,8.0,0.014658413,-0.008889522,0.97953668,-0.099902622,-0.078311645,0.033132897,0.9996511991752877,-0.009878587504031608,-0.015696376605491336,0.018802054616275266
29,1.978,0.0,0.002682051,-0.010713676,0.979644335,-0.097526088,-0.173725057,-0.069762157,0.9993291581690352,-0.015584361983559697,-0.020449096255417146,-0.026080562821181184,1.978,1.0,0.031679476,-0.019115125,0.979377875,-0.072892388,-0.172248878,-0.068992544,0.9989279305950555,-0.021756060944523897,-0.02944611913831031,-0.028330008064783994,1.979,2.0,0.026121511,-0.023627052,0.979454149,-0.080053166,-0.187415657,-0.054129275,0.9990474300978673,-0.02359826735430941,-0.026934682909009872,-0.02493746276814007,1.979,3.0,0.042544138,-0.021395883,0.977454967,-0.124145609,-0.162529587,-0.077762361,0.9988777195255797,-0.022444973069228418,-0.038396207539427976,-0.0162866775583077,1.979,4.0,0.043916985,-0.017034031,0.977772029,-0.082491122,-0.150005537,-0.06005838,0.9989051510441773,-0.01819783934826291,-0.041509912865178585,-0.01158727726384895,1.982,5.0,-0.007008579,0.02977747,0.979059335,-0.001312163,-0.050455841,-0.001512106,0.9975723250446632,0.02795874689213606,0.01277804090527548,0.062485889989897306,1.982,6.0,-0.001336913,-0.011316107,0.980385719,-0.096387222,-0.058578847,0.01606471,0.9972728145157704,-0.011080641336931237,-0.004213854115136018,-0.07284501526427642,1.982,7.0,-0.027292042,0.008748794,0.979455769,-0.011026709,0.016205331,-0.11655434,0.9998570687178943,0.004105272295722596,0.016377219439481328,-0.000880657520749715,1.983,8.0,0.01960836,-0.015921678,0.979753036,-0.14209161,-0.092403934,-0.031620128,0.9995153142002849,-0.016673252501234255,-0.01991973381193209,0.01715644295876635
30,2.035,0.0,0.012380429,-0.012676953,0.979939294,-0.067116545,-0.167561577,-0.051687692,0.9990509570653768,-0.018207311719627917,-0.02734865844085384,-0.028595976433480788,2.035,1.0,0.042880979,-0.018907813,0.978682643,-0.067096728,-0.196383106,-0.046826004,0.9985013314670488,-0.024166474789059415,-0.03842738538981155,-0.030568097862042076,2.035,2.0,0.038918951,-0.025273704,0.978223673,-0.071885282,-0.214011523,-0.050182777,0.9985996832796263,-0.026366439572597773,-0.03685712785702895,-0.027295339239967173,2.035,3.0,0.050154422,-0.024757143,0.978341258,-0.106351528,-0.11746594,-0.075798068,0.9985142187960223,-0.02676586700865262,-0.042975193893372225,-0.020151325893636614,2.036,4.0,0.047726805,-0.018583845,0.978060731,-0.099902435,-0.113896298,-0.109807698,0.9985686446845544,-0.022181645356501106,-0.045535994740705674,-0.017178755633195528,2.041,5.0,-0.006460886,0.029038867,0.979452399,-0.10384956,-0.007263164,-0.057658336,0.9979242121281184,0.021424684937052074,0.011296711365643976,0.05967104855910954,2.041,6.0,0.002805008,-0.017295198,0.980077552,-0.138687926,-0.123987496,0.012604284,0.9971804147289228,-0.018231554269992553,-0.00953604779613024,-0.07216574466035436,2.042,7.0,-0.026958336,0.007828534,0.979660126,-0.07779042,-0.064051101,-0.108454535,0.9998970391743056,0.00011451297452967129,0.012915993338052524,-0.0062510041855044374,2.042,8.0,0.026777948,-0.027119897,0.978659007,-0.173806861,-0.122211458,0.042189204,0.9991776376900423,-0.024986649010428113,-0.025519782990315338,0.019195217829011672
31,2.11,0.0,0.017666983,-0.01384605,0.978019511,-0.058553664,-0.156664186,-0.057745053,0.9987477096919044,-0.02018941763591759,-0.03329516494916856,-0.03141387896624319,2.11,1.0,0.049555935,-0.018254938,0.978545843,-0.052500959,-0.20258106,-0.058275346,0.9980013591799282,-0.025576884424063896,-0.04718726049974749,-0.03335374798584292,2.11,2.0,0.046966561,-0.024847807,0.978457321,-0.069904811,-0.206391553,-0.044888608,0.9981036429886518,-0.02875115550181588,-0.045802146952136184,-0.029404969727363117,2.11,3.0,0.055833837,-0.027822158,0.977749718,-0.109070798,-0.123417646,-0.058675691,0.9981143893668649,-0.03100948253128651,-0.04764013197519262,-0.023162373741449555,2.11,4.0,0.055007765,-0.023961769,0.977804673,-0.103901419,-0.119966445,-0.103525937,0.9981604113537286,-0.026288429061691286,-0.04980441929157883,-0.02245510014790025,2.115,5.0,-0.009767563,0.019659229,0.979155304,-0.148789435,0.087559654,-0.263555231,0.9987230724933099,0.01241089245511966,0.014815085929040002,0.046676626344513694,2.115,6.0,0.00961717,-0.027585194,0.979234684,-0.146783002,-0.214501962,-0.114426284,0.9964529056803816,-0.025879280968936005,-0.019275535776341276,-0.07771951684223538,2.116,7.0,-0.020906946,0.002212596,0.978742563,-0.074085485,-0.099518916,0.008470386,0.9999471981404507,-0.0035069766008600407,0.007740236580114626,-0.005778475912114894,2.116,8.0,0.03475778,-0.038709646,0.978655946,-0.209911356,-0.147174898,0.039087075,0.9986507288805853,-0.03481773508534915,-0.032260240291058,0.02106475554488185
32,2.251,0.0,0.023623161,-0.014243884,0.979557583,-0.081789804,-0.156537172,0.003560492,0.9984869899764338,-0.023270852086919543,-0.03883166125974225,-0.031213785011731433,2.251,1.0,0.054038785,-0.015113788,0.978352893,-0.053050751,-0.20576923,0.092332047,0.9976939488971631,-0.027091374351605284,-0.055251410944252025,-0.028637795976569614,2.251,2.0,0.050657392,-0.024287221,0.978709334,-0.05974645,-0.215431389,0.007896201,0.9976350639794912,-0.030507317452751835,-0.05441656144382919,-0.028851699102536037,2.251,3.0,0.065416346,-0.037929078,0.976736959,-0.174137674,-0.179156047,0.03736733,0.9975070428961056,-0.03890421817522702,-0.054831796817966696,-0.021439105358071274,2.251,4.0,0.063631206,-0.031956725,0.976957951,-0.136785119,-0.155196425,-0.032810767,0.9976326580280332,-0.032280334989014975,-0.055677857081087904,-0.024228822500813613,2.296,5.0,-0.02154086,-0.006480006,0.979515697,-0.072529097,0.14980424,-1.365598677,0.999506721140667,0.005775484033256436,0.02209333108185022,-0.021560215688216557,2.296,6.0,0.033093944,-0.058591265,0.978024465,-0.435551285,0.016686387,-1.207987745,0.9891838688418745,-0.04666203483866855,-0.019066907094386187,-0.1377475269527191,2.296,7.0,0.001975373,-0.005747539,0.978931593,-0.051223551,-0.23736235,-0.280644811,0.9997730268924777,-0.0061875574846737055,-0.005071640960976791,-0.019745563769873953,2.296,8.0,0.058482608,-0.072590456,0.975458564,-0.291891573,-0.208556821,-0.086035989,0.9977242082837893,-0.04917682537846352,-0.043016968074455104,0.01666086756034781
33,2.282,0.0,0.033822737,-0.019132416,0.977805182,-0.098152097,-0.220548356,0.077033127,0.9981279841293631,-0.0273676167362549,-0.0473945303421515,-0.02730017116573535,2.283,1.0,0.062020363,-0.01412312,0.97779344,-0.03473108,-0.211689439,0.252427549,0.9974945929971833,-0.02792717067465833,-0.06302420828355967,-0.015892112814923795,2.283,2.0,0.05194519,-0.027074966,0.977954316,-0.090773004,-0.147642586,0.152213153,0.9974751636778784,-0.034070807691195484,-0.05856186539478994,-0.021283463781582388,2.283,3.0,0.082297063,-0.052594891,0.974748158,-0.220793241,-0.30937805,0.212524667,0.9963784064011998,-0.04969986081244114,-0.06813544363689718,-0.010842343521261268,2.283,4.0,0.08303752,-0.043336105,0.974981924,-0.173228356,-0.303065048,0.29573864,0.9967505644197012,-0.04118728056048009,-0.06857366534105215,-0.00946428395245982,2.333,5.0,-0.052477899,-0.009817786,0.978189491,0.056360314,0.840118884,-1.652502985,0.9925183833499545,0.006618886016496692,0.06465425991255068,-0.10335993293077335,2.332,6.0,0.023478759,-0.094633466,0.973722371,-0.366535291,0.653050538,-2.112177904,0.9687632480719489,-0.057957286870106386,0.010420602447254162,-0.24089444395498194,2.333,7.0,0.019812515,-0.014384715,0.979416941,-0.191663611,-0.256604022,-0.324999978,0.9990542979953273,-0.016066065990532372,-0.018449261885303582,-0.0359446229155214,2.333,8.0,0.073413785,-0.090610076,0.972568368,-0.1989539,-0.203619162,0.103640606,0.9966453896812842,-0.05879192905140388,-0.05255040655584357,0.021907329282027096
34,2.337,0.0,0.046007419,-0.025052638,0.978501243,-0.101882893,-0.281699557,0.266642128,0.9976790967699517,-0.032069772110756706,-0.05844966547368622,-0.01384146636277289,2.337,1.0,0.072707957,-0.014768268,0.977194173,0.030520495,-0.204466005,0.449601159,0.9971814409091038,-0.026001650771497117,-0.07004255665841122,0.006865006944909348,2.337,2.0,0.052094106,-0.037164535,0.978376718,-0.176082055,-0.058174354,0.232312171,0.9974020223138239,-0.04213900579731347,-0.05754775160054714,-0.010087931424735522,2.338,3.0,0.103368649,-0.067688185,0.971258067,-0.179290141,-0.374582078,0.354620278,0.9947132843370935,-0.05856796436002298,-0.08405041656056408,0.007127621625163232,2.338,4.0,0.106501373,-0.061647258,0.972308116,-0.293495241,-0.45630519,0.540897361,0.9943320521984788,-0.05690866766376276,-0.08809881093976321,0.017429085647189112,2.397,5.0,-0.079838947,0.045497578,0.98033041,1.176464318,2.157482082,0.799435585,0.9820562936136537,0.07999863884970514,0.15822317229023233,-0.06427349147528208,2.396,6.0,-0.021662812,-0.084051603,0.969689667,-1.977805816,-1.576710075,2.698800368,0.9809002364378522,-0.16948216537753885,-0.01963189890591524,-0.0934082989913316,2.397,7.0,-0.023108524,-0.036386602,0.984680157,-0.394190383,-1.10319317,-6.754849801,0.9335299870909541,-0.02977568299558958,-0.07547313355052132,-0.34919762028996476,2.397,8.0,0.054131083,-0.110099567,0.974395152,-0.150003108,-0.639048814,-0.608117751,0.9944110174180079,-0.06357424707663735,-0.0840149114003668,-0.006821891871743288
35,2.38,0.0,0.063546736,-0.033423095,0.976682502,-0.118516069,-0.348337084,0.413789399,0.996635020757169,-0.03796427844849221,-0.07230577298978072,0.007015992773163452,2.38,1.0,0.078448354,-0.012564635,0.9754076,0.161102993,-0.197270136,0.31436878,0.996647958381399,-0.017022335730920355,-0.0765536819419001,0.023294225069560713,2.38,2.0,0.048199412,-0.058992232,0.976833012,-0.47745152,0.195924679,0.393597532,0.9968810970499121,-0.06577412990196342,-0.0428993261306932,0.007841555823645553,2.38,3.0,0.129039107,-0.079806518,0.967768995,-0.122713274,-0.446169353,0.431099573,0.9921532402078357,-0.06447418280728551,-0.10303835705946966,0.02929376505180629,2.38,4.0,0.1415829,-0.08692617,0.965962796,-0.238200186,-0.562920335,0.612393278,0.990039775832365,-0.0695005797214589,-0.11249528973196432,0.04832930246033826,2.46,5.0,-0.165060368,0.008509578,0.965970839,0.862010651,1.553505785,-0.321384094,0.9640332100748787,0.11697290700367773,0.22461899889601986,-0.08064498890063497,2.46,6.0,0.009733743,-0.07938598,0.976653019,-0.327752818,-0.181060478,0.681133937,0.9827368979666963,-0.17436351875357536,-0.01922421257055606,-0.05878760374185103,2.461,7.0,0.076926826,-0.036842082,0.975864194,-0.199220453,-1.217689345,-3.450057606,0.8597143216369907,-0.04623395537966969,-0.12736459027104552,-0.49247534728886494,2.461,8.0,0.094798151,-0.0934013,0.970350714,0.001960131,-0.432931751,-0.730835845,0.9919527947719688,-0.0589660107102106,-0.10401511252691537,-0.041635548405379856
36,2.49,0.0,0.082265371,-0.041034228,0.97504441,-0.068151859,-0.290997972,0.243003727,0.9955147467975711,-0.0404046099881922,-0.08331145155667803,0.01941799268176112,2.49,1.0,0.077803353,-0.002656955,0.97660001,0.143704928,0.0575539,0.235058518,0.9968941189043357,-0.009169199257715402,-0.0697274770113421,0.03544178929672546,2.491,2.0,0.029333045,-0.082676218,0.976473868,-0.314594219,0.409963664,0.547064868,0.9960585844688445,-0.08036510138042866,-0.017624335033105336,0.03313803857617737,2.491,3.0,0.154363168,-0.092061331,0.963351817,-0.088735984,-0.579234846,0.918648163,0.9865671281227925,-0.07069744854627946,-0.12611225171716534,0.076045200002486,2.491,4.0,0.179858435,-0.106668268,0.957582281,-0.158338097,-0.676209112,0.76397564,0.9830300371577856,-0.07795456643990524,-0.14125306018678752,0.08730752891129574,2.491,5.0,-0.213268604,-0.00828898,0.955783864,0.549001363,0.902293876,-1.445057991,0.9455385325775264,0.11939976469675093,0.2621291702275064,-0.1516208353668374,2.49,6.0,-0.008306155,-0.083991605,0.976061175,0.680083255,1.610278985,-0.837093165,0.9846731901642943,-0.12149461975625536,0.055630032538780405,-0.1120850811735827,2.491,7.0,0.135260842,-0.035500651,0.969835661,-0.084740771,-0.952912702,-0.38466736,0.8445853494291748,-0.07111829256779015,-0.159348064317105,-0.5061876829696995,2.492,8.0,0.120110232,-0.086585681,0.968663746,0.024336473,-0.236712077,-0.432904993,0.990189827531042,-0.05477784130972822,-0.11253022844699401,-0.06213244918043043
37,2.518,0.0,0.090751305,-0.052712859,0.974270781,-0.134016383,-0.391224117,0.242125539,0.9935381419813738,-0.04625058620594302,-0.09867398853987107,0.03172203791435292,2.518,1.0,0.0730417,-0.004430979,0.977023683,-0.081324282,0.05940186,0.159456013,0.9969626079947301,-0.013062357946610639,-0.06357141237631886,0.043053554948466424,2.518,2.0,-0.017251314,-0.089725755,0.976024939,-0.166449187,0.586569111,0.820588576,0.99350774083333,-0.08680874469485189,0.017299844430559982,0.07146555905773673,2.518,3.0,0.189375686,-0.107862614,0.953685224,-0.146628639,-0.63833371,0.713880276,0.9788258986091242,-0.07762499133152125,-0.15256464217989185,0.11224193017470663,2.519,4.0,0.227575722,-0.117373184,0.94585772,-0.00580783,-0.87064416,0.564433,0.9737535097535849,-0.07557998696376028,-0.17945750946353534,0.11784214063855904,2.55,5.0,-0.256452507,0.028890863,0.945893984,0.843957614,0.302256546,-1.176806074,0.9296625392794362,0.13728509300537828,0.26453937143795414,-0.2165624327029676,2.55,6.0,-0.146583942,-0.069405431,0.96649575,0.400707134,2.611040669,2.656904819,0.9790156742216537,-0.06893274500899357,0.1916571781510436,0.006641713410343187,2.55,7.0,0.157944912,-0.037978247,0.965676994,0.010048012,-0.258502737,0.238949156,0.8502790995637464,-0.077886766514383,-0.1597647844346509,-0.4954132801021268,2.55,8.0,0.152639273,-0.08757021,0.964317225,-0.111578822,-0.507749907,-0.267334199,0.9863317549375856,-0.059818334400440695,-0.13428629241851625,-0.07442195737675913
38,2.62,0.0,0.114230667,-0.064610548,0.970642484,-0.140322526,-0.379506614,0.31326483,0.991067563418452,-0.05263652645558747,-0.11295661628339308,0.04748982691386619,2.62,1.0,0.068793956,-0.005352543,0.977351391,0.077185959,0.037723352,0.408344542,0.9962177664950649,-0.009412168516738848,-0.05848953888477052,0.06356529433931403,2.62,2.0,-0.049882726,-0.105401268,0.972947731,-0.183765745,0.304550829,0.862150743,0.9885734249981347,-0.09304133278839889,0.03611214321201254,0.11296816760951248,2.62,3.0,0.220516446,-0.127427049,0.944939598,-0.102395195,-0.530600142,0.734371412,0.9701434820269026,-0.08266517143804988,-0.17253061427888536,0.14906804100270737,2.621,4.0,0.261455716,-0.127559519,0.935938822,0.017700677,-0.579950129,0.626785012,0.9651001408066266,-0.07429383455044229,-0.20115819268622512,0.15032473475124622,2.613,5.0,-0.258885249,0.074322137,0.945609141,1.380776563,0.664586506,1.639147419,0.9305865989710242,0.2231022185233956,0.24749601650664052,-0.15159057925486516,2.613,6.0,-0.240072008,-0.030759448,0.962316106,-0.789440432,-0.279005704,8.617426153,0.900774806132649,-0.0181709077911267,0.16518909977444757,0.40123201275875553,2.613,7.0,0.133904243,-0.035577792,0.966810154,0.051086392,0.199846305,-2.867884222,0.7801519971657175,-0.044961404876599984,-0.14913800107807373,-0.6058871099671137,2.613,8.0,0.196710882,-0.085523312,0.951569541,-0.194022417,-1.280427281,-0.965905302,0.9713188004783655,-0.06653766931524063,-0.19500827971860304,-0.1186772819058309
39,2.661,0.0,0.129411347,-0.074499654,0.968462444,-0.015280189,-0.404549873,0.163553891,0.9888011713210983,-0.05158474012367539,-0.1280862682509895,0.05661418608380971,2.661,1.0,0.070013184,0.002158678,0.977659703,0.16059941,-0.001919487,0.582914,0.9941115156612288,-0.0018496474079195638,-0.055710483055244966,0.09292585922095166,2.661,2.0,-0.062917277,-0.096459432,0.97332728,0.214318151,-0.105018481,0.797925685,0.9847900498804572,-0.07636087733994584,0.03419328723790677,0.15227735608483192,2.661,3.0,0.237657656,-0.139805548,0.940362296,-0.034967838,-0.339900648,0.35677219,0.965167618468653,-0.08193072181228955,-0.18367997476046494,0.1673334752966696,2.661,4.0,0.243729203,-0.126323448,0.94096305,0.062711521,-0.318731767,0.446651715,0.9600529935051113,-0.07048634616022359,-0.20774673481606498,0.17369864374864738,2.675,5.0,-0.300838606,0.082530018,0.927901896,0.463282251,0.882036534,3.226282931,0.9341845818373837,0.2736819425009494,0.22886791901516085,0.004103297684723972,2.675,6.0,-0.234868159,-0.021068373,0.951315968,0.503069736,0.819881901,2.214652807,0.8483503932960751,0.0013742071848340948,0.20373489510960796,0.4886632933459243,2.675,7.0,0.191661629,-0.038782301,0.960825558,0.008042816,-0.538149855,-0.072493247,0.7752981943938674,-0.06342232123101159,-0.16223810594746607,-0.6070989342091272,2.675,8.0,0.191897841,-0.08633635,0.956685556,-0.046633788,-0.596639285,-0.552403043,0.9637116179222314,-0.06584649338135845,-0.21521135913184622,-0.1435556606049285
40,2.725,0.0,0.148171603,-0.070241441,0.966482445,0.141360548,-0.203839218,-0.054440892,0.9887072613827436,-0.041676013123125424,-0.13286493531260224,0.055389260543668835,2.725,1.0,0.072539034,0.010007691,0.977545362,0.155953588,-0.099167281,0.374377822,0.9920036004452731,0.006337510269697373,-0.058084074007434656,0.11187016140998046,2.725,2.0,-0.04420685,-0.078132771,0.975983107,0.327610821,-0.411863825,0.159925581,0.9853967184906453,-0.0534351879379448,0.015012024989197245,0.16097399474333732,2.725,3.0,0.248515547,-0.14179892,0.936602952,0.063088893,-0.14184082,0.05955682,0.9647090084926467,-0.07512209803202671,-0.18530997260531074,0.17132837877427046,2.726,4.0,0.234210093,-0.121486092,0.943606254,0.046649632,-0.104786561,-0.110498708,0.9618999817945828,-0.06318299413917515,-0.20502009460265194,0.16947889273980307,2.747,5.0,-0.293616003,0.141984449,0.922705294,-0.057955736,-0.129720038,0.924879409,0.9423048789700811,0.2624920164830581,0.20310029905255936,0.043700399043944675,2.747,6.0,-0.305258802,0.029738178,0.930776936,0.103486889,0.980129464,-1.957362415,0.885177768383558,-0.04456118853561187,0.2387187073064277,0.39684757479131194,2.747,7.0,0.228399512,-0.037145935,0.952243584,0.048964421,-0.59686574,-0.104805084,0.7688537698448966,-0.08109766110327964,-0.179092009519571,-0.6084513966498148,2.747,8.0,0.237320749,-0.079822325,0.947287316,-0.049842082,-0.783420338,-0.815108095,0.9505441770172189,-0.06425339873619822,-0.2447609306006419,-0.18008152359698876
41,2.786,0.0,0.142563467,-0.076033218,0.966546744,0.172570998,-0.092348139,-0.256309256,0.9898481782644136,-0.030479001583484,-0.13158745025749624,0.04423072895427505,2.786,1.0,0.087010025,0.016274038,0.975238131,0.09513455,-0.311790883,-0.419648845,0.9931836366554987,0.014711654031923297,-0.07122489389626359,0.0910870221539231,2.786,2.0,-0.013364932,-0.060757485,0.977678836,0.285293947,-0.565768722,-0.767267228,0.9916583744534999,-0.033068921678200996,-0.013369394638648058,0.12386030067087414,2.786,3.0,0.243271416,-0.131004354,0.940205232,0.163475334,0.067939689,-0.437706792,0.9706335090809687,-0.060661407700744165,-0.17688967896370175,0.1513301891264522,2.786,4.0,0.227050189,-0.107528588,0.94675647,0.12395052,0.137192888,-0.774681573,0.9713963160331872,-0.047452304466601376,-0.19099688507364476,0.13288215038193088,2.761,5.0,-0.269979798,0.119638564,0.934280751,-0.020260076,-0.644109365,-0.829992912,0.9560461025605421,0.23457416428548622,0.1758220223399635,-0.006117817327177201,2.76,6.0,-0.280453738,0.049979538,0.936344353,-0.164089975,-1.149544069,0.015631578,0.8992200833014717,-0.028069331243026463,0.17392325648534362,0.40045730769258897,2.761,7.0,0.242050608,-0.021967073,0.949371345,0.233168911,0.234832231,-0.683775033,0.752731856351029,-0.059415711442276135,-0.170827621029486,-0.6329948258568537,2.761,8.0,0.320520275,-0.057217254,0.924773994,-0.015156427,-1.623540636,-1.754297076,0.912665994780259,-0.05731457222126493,-0.3143274516089877,-0.2548608933278176
42,2.845,0.0,0.148112018,-0.066046987,0.96584762,0.056600711,-0.137915353,-0.29026325,0.9902818989376448,-0.025444251520241896,-0.13325205681930335,0.030630704439368984,2.845,1.0,0.108718956,0.025321031,0.973869105,0.002430259,-0.464026673,-0.575189342,0.993643431605433,0.019304489468490636,-0.09195931662984246,0.061996383755124486,2.846,2.0,0.036981829,-0.036071829,0.979028686,0.465277963,-0.83288441,-1.109493333,0.9961736125605644,-0.002203378167840175,-0.05283208875358013,0.06958483427168563,2.846,3.0,0.238438273,-0.10706344,0.943875844,0.1046171,0.325677136,-1.346889676,0.982836822409573,-0.043442672872101254,-0.15789576770710087,0.08493198001793165,2.846,4.0,0.214042089,-0.088052223,0.952794726,-0.077923536,0.442421262,-1.439679548,0.9837847985154008,-0.038599255291748034,-0.16439640219197452,0.06042673785063336,2.855,5.0,-0.225280477,0.116168109,0.946887362,-0.247715368,-1.027566151,-1.186096632,0.9693147649939576,0.19431434839147085,0.1310630706125789,-0.07411674504124476,2.855,6.0,-0.214809809,0.014008312,0.95570786,-0.588413712,-0.896173996,-2.242828116,0.9470381955005942,-0.05850401054974952,0.10499172744046735,0.2977795731436927,2.855,7.0,0.157078087,0.01208335,0.967433443,0.63006826,1.931802659,1.31877611,0.8129427364558844,0.01696475105826112,-0.10216742871466843,-0.5730603118127993,2.856,8.0,0.422773382,-0.011393261,0.883610129,0.633370614,-1.060598993,-0.012090217,0.900123663096679,-0.0426721559821024,-0.3599898947132858,-0.24158591420356632
43,2.92,0.0,0.149291337,-0.065287663,0.96602827,0.024622277,0.06549838,-0.079542821,0.9915521682860973,-0.024340890544342547,-0.12450870194979506,0.027007438853476295,2.92,1.0,0.139098163,0.021864298,0.970382736,-0.002074318,-0.446225255,-0.350244704,0.9925418669316981,0.0218157915485995,-0.11153389554370008,0.04410106315832329,2.92,2.0,0.098139696,-0.017153269,0.973755804,-0.02035424,-0.870273403,-1.249592045,0.9953841190066165,0.0027966896524336923,-0.09567591750167656,0.006982332462881441,2.92,3.0,0.207486378,-0.092833294,0.953335399,-0.153179917,0.72912107,-0.998396713,0.9912295868145163,-0.04564115916945169,-0.11959171588255522,0.0328422335637859,2.921,4.0,0.169718583,-0.067300879,0.963273686,0.385428285,1.103449949,-0.539853991,0.9941389193098707,-0.017281909041037918,-0.1009133882207386,0.03472222359109665,2.942,5.0,-0.16729882,0.075503474,0.962683401,-0.622584856,-0.739597413,-0.624835498,0.9791836572070631,0.14204297817989836,0.0964649456257745,-0.10824819663071547,2.941,6.0,-0.131963533,-0.059097392,0.969493746,0.152809417,-1.318304568,-2.511556613,0.9833066142568022,-0.043158889948547975,0.030936028174208263,0.17403555595922984,2.942,7.0,0.051837764,0.028392889,0.977848501,0.381946805,1.738567808,2.006752899,0.8760322624656155,0.07062355155700034,-0.03613253490514642,-0.47568290804503305,2.942,8.0,0.41749006,-0.062745582,0.883770356,-0.036687645,1.401052038,5.565110842,0.9648080419941866,-0.12804385881968242,-0.22816383526396697,0.02629594264419253
44,3.041,0.0,0.136570502,-0.046205017,0.968862526,0.169685252,0.137629449,-0.28630125,0.993485836289279,-0.014046748162854858,-0.11224097802960281,0.013803796926904742,3.041,1.0,0.160944051,0.030580255,0.966806527,0.135896148,-0.226137987,-0.462623834,0.9921986695695545,0.0313741065002658,-0.11870602017911142,0.021595053112976263,3.041,2.0,0.128793088,-0.012738773,0.971330564,-0.410942627,0.280561184,-1.108766253,0.9954962369581656,-0.01334678777401311,-0.07943259613505178,-0.04999568110840052,3.041,3.0,0.096201752,-0.086861711,0.971365156,-0.113626323,0.926302485,-0.695574339,0.9964941691790083,-0.048284761195882535,-0.06819062057433468,-0.004241685299736437,3.041,4.0,0.016846652,-0.02991143,0.978380037,-0.015521874,1.08790069,-0.634083435,0.9991499758850759,-0.016479082836565878,-0.03772323780765976,0.0021732112241182777,3.015,5.0,-0.120567054,0.059084431,0.971023489,-0.121657205,-0.584986093,1.384571985,0.9891809711215083,0.1286624679894159,0.0551416819689418,-0.04389043872665498,3.015,6.0,-0.049273003,-0.028698966,0.978393858,0.590612901,-0.760587601,1.43858424,0.9699120190639342,-0.0031501426627531643,-0.0015701066528278046,0.24343025005456007,3.015,7.0,-0.122412893,0.033503152,0.97222766,-0.147843203,3.06336138,-1.704818256,0.8349158972709374,0.1369217232621446,0.11522410481255456,-0.5204721816325398,3.015,8.0,0.520550915,-0.166145207,0.813201399,-3.071349077,-4.540406892,2.252323089,0.8671199410905683,-0.27334982757383147,-0.3974272377114281,0.12423554343870434
45,3.115,0.0,0.129849297,-0.034844059,0.970522051,0.006268806,0.046659663,-0.345256706,0.9943334822267678,-0.012107841754368062,-0.10556416687332017,-0.003245452693052256,3.115,1.0,0.174338148,0.033866371,0.963520254,-0.157798444,-0.197245987,-0.836669172,0.9916232145253462,0.02749377649165771,-0.12442419722959724,-0.021121359151724382,3.115,2.0,0.136576114,-0.020696032,0.97027864,-0.375463668,-0.020224863,-1.215536451,0.9901624539195486,-0.02721155566153483,-0.0799730117457015,-0.11154444620338065,3.116,3.0,0.050897736,-0.086074012,0.97522853,-0.047359731,0.629880254,-0.439207025,0.9978758218605429,-0.048553976002526124,-0.03353380715717635,-0.027601437245862646,3.116,4.0,-0.036215059,-0.027383541,0.978634054,0.031679083,0.570452065,-0.749044773,0.9992718952474667,-0.013284665339367204,-0.004065144994522737,-0.035534091117272425,3.076,5.0,-0.072607614,0.040420735,0.975979149,-0.618969637,-0.768993247,0.635442689,0.9959864381409815,0.08706689195832645,0.013407465138841475,-0.015830705685744614,3.076,6.0,0.044874557,-0.018050501,0.979314277,-0.120188923,-1.284708286,1.450922447,0.9482625038511434,0.006613239343143665,-0.06665056702782719,0.31034205446606755,3.076,7.0,-0.275139508,-0.001765442,0.940467508,-0.179334616,1.285702324,-0.733627382,0.8090326281698538,0.15272963632294081,0.17799465430812586,-0.5389413398348397,3.076,8.0,0.484275026,-0.235731936,0.818835852,0.020411598,1.806716774,1.331073768,0.9009455808267507,-0.29163678352403066,-0.2827157445916861,0.15269857446772386
46,3.235,0.0,0.13132557,-0.033166574,0.970440402,-0.105543307,-0.005064019,-0.261643225,0.9944902607348212,-0.016476077139244056,-0.10216920829050155,-0.016706677197488647,3.235,1.0,0.184369986,0.033404854,0.96104049,-0.176366907,-0.151988548,-0.692310746,0.9899208735888247,0.02166303978753908,-0.1279882366804011,-0.056624976924881935,3.235,2.0,0.140808912,-0.032162873,0.969507297,-0.248140925,-0.052684409,-0.632559558,0.985603937908989,-0.036910430012215105,-0.08128806271287228,-0.1435783709163585,3.236,3.0,0.025491822,-0.086800534,0.97512042,-0.05529194,0.394211668,-0.260551518,0.9978134853295972,-0.04993182587940857,-0.012261394329008395,-0.041529741967158834,3.236,4.0,-0.067202663,-0.02575591,0.977178303,-0.113201641,0.432064129,-0.864090507,0.9965162445878336,-0.017833245313787355,0.02076694916477394,-0.07877869925637777,3.166,5.0,-0.041828454,0.014660649,0.978818393,-0.07254455,0.02505338,3.553003406,0.9842755811282209,0.07673598762175982,0.0016266140337591118,0.15909281167042635,3.165,6.0,0.147642403,-0.000166324,0.968687614,0.61043894,-2.458620262,1.013325179,0.917371395928008,0.07071057218636308,-0.17359562829327463,0.3511328733565659,3.166,7.0,-0.258628169,0.02895256,0.944179654,0.90912142,-1.042274459,1.112976252,0.841664913178614,0.16598211664583837,0.09235817304911507,-0.5054899393151491,3.166,8.0,0.259282994,-0.196190145,0.924045321,1.538996596,4.052669403,0.547418725,0.963943872602962,-0.22775284228894035,-0.05018742785623994,0.12814864566466672
47,3.267,0.0,0.13175019,-0.037724007,0.970217907,-0.166206411,-0.03089149,-0.221774733,0.9942579444711809,-0.024019067961877156,-0.10032068066404973,-0.02846024000753911,3.268,1.0,0.187447577,0.028090509,0.961575441,-0.13972778,-0.035924846,-0.112563726,0.9899029070427057,0.01409836736499733,-0.12616727461032778,-0.06304989677584116,3.268,2.0,0.148976677,-0.034917418,0.967119808,-0.016463394,-0.138386927,-0.172697119,0.9838119251910626,-0.037192897086687354,-0.08745999191610826,-0.15192608094790172,3.268,3.0,0.012171852,-0.094445277,0.974751217,-0.168844016,0.141142818,-0.658233709,0.9955313860721101,-0.05746622264501378,-0.005967240120251897,-0.07469460921381349,3.268,4.0,-0.079093222,-0.041768921,0.975389983,-0.18860145,0.105098773,-0.617740458,0.9932385766827175,-0.0274448005874839,0.027983953889367072,-0.10927401811373388,3.229,5.0,-0.022735445,0.034060398,0.978491691,-0.282372944,-0.847521913,-0.005998708,0.9850123887656377,0.0633732610808116,-0.04108407495686703,0.155069412016471,3.229,6.0,0.257634536,-0.005747407,0.945805695,-0.305114286,-1.269168176,0.547062124,0.8975123487337215,0.07186580502742362,-0.23289170286534938,0.3675164549713613,3.229,7.0,-0.123222331,0.108768446,0.965052684,0.913969888,-1.528461361,1.56837045,0.8787191863548188,0.16559347070620212,-0.018147327751076713,-0.4473276969816358,3.23,8.0,-0.070426465,-0.061258849,0.974435974,2.428655648,5.090531979,-1.530540523,0.9709175738367577,-0.10817080809587715,0.21340780403891388,-0.008674691125200093
48,3.355,0.0,0.133092131,-0.052677444,0.968955402,-0.229963501,0.035810079,0.059965996,0.9944839429924418,-0.036182342789409405,-0.09480334234760716,-0.0265490391577151,3.355,1.0,0.18450059,0.017077634,0.962591236,-0.207036565,0.162575779,0.062641658,0.9915625983630277,0.002820593111007162,-0.11432158069244866,-0.06104288631808966,3.355,2.0,0.144716405,-0.039128916,0.967456506,-0.126977672,0.030704784,0.176991753,0.9851735442002675,-0.04337868548517766,-0.08286794558638012,-0.14382030818961059,3.355,3.0,0.01071464,-0.1026128,0.974341218,-0.138477764,0.004527627,-0.229744413,0.9942234597844655,-0.06378384963454208,-0.005515718660605612,-0.08614470028772775,3.355,4.0,-0.07839869,-0.052925512,0.975609315,-0.139972604,-0.068897639,-0.12899822,0.9923749139065037,-0.03445321699013672,0.02658210710931906,-0.11531867875465285,3.292,5.0,0.038269324,0.021082794,0.978498837,-1.185619025,-1.582422817,-1.066161854,0.9877382972390657,0.013812889305449572,-0.12501047399078646,0.09249130580171003,3.292,6.0,0.212219726,0.062158719,0.955146628,0.771620429,1.269724966,-1.966469942,0.9433402725942514,0.10752034312580834,-0.13229218479451324,0.2846880463914955,3.293,7.0,-0.136281556,0.133709842,0.961678749,-0.488045484,1.371333215,-0.489571241,0.8721976030587901,0.16792690729519355,0.06152694576403237,-0.455287085221756,3.293,8.0,-0.206490574,0.095025354,0.953752497,1.069551593,2.127115647,0.699036707,0.9521323056505289,-0.03344375642691294,0.3038133671717947,0.004798501891348415
49,3.394,0.0,0.115867731,-0.059452627,0.971488576,-0.119118308,0.522394677,0.175981232,0.9968528630425803,-0.04181727714461191,-0.06455557054457317,-0.01919018206495407,3.394,1.0,0.163534809,0.000673583,0.965109793,-0.244301584,0.395426192,0.136427435,0.9942796096751926,-0.009656864805085964,-0.09074607241704592,-0.05549732504511438,3.395,2.0,0.111279066,-0.037581866,0.973584394,-0.133398037,0.28111161,0.428724247,0.9890778142854544,-0.04809675655712437,-0.06399962347833102,-0.12375713107382831,3.395,3.0,0.013190792,-0.103751212,0.973584454,0.033635103,-0.150772936,0.460944023,0.9960524431259297,-0.06183044495577904,-0.011405428876241262,-0.06266133426273404,3.395,4.0,-0.072012718,-0.056558748,0.975747035,0.041920946,-0.144614477,0.464759695,0.9950418276359764,-0.031574623352884926,0.02120221137775862,-0.09189815366846138,3.369,5.0,0.152973174,-0.097015135,0.963107092,-0.900028671,-1.197338573,1.951232223,0.9663675831217894,-0.0417977720179039,-0.1780099333433254,0.18082893622646706,3.368,6.0,0.282505977,0.02946626,0.937595389,-0.095799006,-1.185922509,1.173202186,0.9172015405625656,0.10709767355739527,-0.19426848922197187,0.3309549461840122,3.369,7.0,-0.14344153,0.141182639,0.958088195,0.328487208,-0.036697087,0.589676837,0.8839205029992366,0.17642032694649704,0.04419260466604714,-0.43082180342979176,3.37,8.0,-0.229955146,0.096817827,0.947990474,-0.412100919,-0.573229164,1.324184819,0.9624616681429757,-0.025116221429321066,0.25915096556851136,0.07666478866769336
50,3.445,0.0,0.084091516,-0.064739552,0.974194235,0.010902244,0.404954383,0.099064603,0.9981911417815953,-0.04040032445063722,-0.04191556212853504,-0.01501145910587372,3.445,1.0,0.137020039,-0.012127801,0.969915164,-0.039812673,0.488050317,0.690251336,0.9976522475416302,-0.013453524317956263,-0.06362788477135303,-0.021458982689852538,3.445,2.0,0.088400387,-0.042813048,0.975067902,0.257184942,0.222185349,1.078789288,0.9956800735502657,-0.03520209069379996,-0.05031873414889728,-0.06964214915821994,3.446,3.0,0.031079362,-0.107202527,0.973880224,0.056335667,-0.512195178,0.698373302,0.9972176157478473,-0.06034673260700814,-0.035101863734688,-0.026137288845413206,3.446,4.0,-0.062589498,-0.041612955,0.976655987,0.142602732,-0.35335813,1.269198488,0.9993254271081392,-0.02332177297831649,0.0055892632076391105,-0.027812690935594492,3.478,5.0,0.163568899,-0.140294358,0.956061561,0.18128188,0.827042611,0.854795114,0.9657231389333526,-0.04932168861740971,-0.12587249148346927,0.22159040107455866,3.478,6.0,0.359498959,-0.035083958,0.91115016,-0.454478787,-1.114215607,2.297136317,0.867152777127183,0.07740835689734275,-0.2568741572933861,0.4196065713473522,3.478,7.0,-0.144683043,0.159796577,0.955856616,-0.069654756,-0.178984646,0.973154879,0.9062745260202026,0.16433959207271792,0.02811800419381658,-0.38841776453245025,3.478,8.0,-0.137401517,0.047420616,0.968768862,-1.271336919,-1.701051306,0.305725361,0.9796241604904815,-0.07257674393444066,0.1521500848559638,0.10917633489688566
51,3.52,0.0,0.072221752,-0.073964971,0.974212606,-0.093906462,0.068925985,0.425736142,0.9982566292019401,-0.04571286197230578,-0.036864370060695484,0.005920703058686003,3.52,1.0,0.105470679,-0.014906977,0.974264193,0.237787772,0.42578227,0.850768592,0.9989063970207036,-0.0033398721723385334,-0.04140280450688513,0.021463061849451154,3.52,2.0,0.065584968,-0.023828124,0.97731051,0.058312329,0.67832334,0.476583858,0.9983804778596684,-0.029022241463204715,-0.014142241634132443,-0.04684151930406776,3.52,3.0,0.071173568,-0.09825681,0.972684904,0.136102051,-0.355099521,-0.251133588,0.9964722367015904,-0.05265585633353121,-0.05361658490298998,-0.037359123384427186,3.52,4.0,-0.014806072,-0.021110173,0.979181873,-0.062707891,-0.81766313,-0.292500634,0.9981725147148476,-0.02637331655539356,-0.03529665954254726,-0.04135486509280401,3.481,5.0,-0.036416061,-0.023082474,0.979221665,2.609010229,3.850278063,-0.718576424,0.9773569238437849,0.04597728467310037,0.10952304787311601,0.1751120632431868,3.481,6.0,0.281143698,-0.074552583,0.935309646,0.13328699,0.327246562,4.802938259,0.7646413109166496,0.009120203081963516,-0.23157914122052697,0.6013414910738942,3.481,7.0,-0.109272053,0.151184826,0.962012873,-0.530312404,0.086760898,0.515356189,0.9210568148196835,0.1350975741039495,0.03813682489391787,-0.36324726004810837,3.481,8.0,-0.055660802,-0.040393988,0.977374136,-1.314871781,-1.299799974,-0.908645407,0.9862893767751222,-0.13202075772544425,0.061578565214204385,0.07753621796490248
52,3.615,0.0,0.05380007,-0.065435678,0.975588399,0.25345675,0.328872537,0.615043922,0.9986258151002848,-0.03301130264693681,-0.018409342429679582,0.03630194793879539,3.618,1.0,0.069455578,0.004892931,0.978121149,0.307131197,0.581237233,0.500590171,0.9987704079736275,0.011000846833253053,-0.011683138327516192,0.04690583976398953,3.619,2.0,0.010166896,-0.027427841,0.979519447,-0.024594839,0.860078551,0.16455001,0.9983967545973101,-0.02684572634678977,0.030046458619151943,-0.039754719354052365,3.619,3.0,0.079928988,-0.094648179,0.972118861,0.256293995,-0.32209291,1.354956364,0.9963802298279194,-0.043698786427687916,-0.0655897418472913,0.031856544652797664,3.62,4.0,0.02537777,-0.055371218,0.978518777,-0.399260221,-0.403953538,-0.336550235,0.9958019607901236,-0.04671827528728389,-0.0530058093268484,-0.05819142392425709,3.57,5.0,-0.267132883,0.147197848,0.931217921,1.428414253,2.118709853,-0.431738758,0.9579053902238033,0.09373149473133406,0.22844005773959492,0.14644729528244496,3.57,6.0,0.46094154,-0.092392755,0.858651545,-0.470541188,-1.905069839,-0.590930276,0.7611674500830564,0.06492172825217958,-0.3151032601151903,0.5631333923677294,3.57,7.0,-0.110624648,0.09797219,0.969264483,-0.978372935,0.116347755,-0.830048394,0.9116604203257918,0.08414860357584043,0.0642204154147216,-0.3970768549935857,3.57,8.0,0.051108351,-0.113301795,0.971824387,-0.73631327,-1.011977752,-0.301073593,0.9849926078344767,-0.15753389202672596,-0.0027180877122108763,0.07046451144751546
53,3.655,0.0,0.043472828,-0.055071553,0.977300996,0.209637019,0.078835236,0.600458875,0.9974488352392653,-0.022664394186009552,-0.013885138446044852,0.06625216408803827,3.655,1.0,0.048141196,0.028316748,0.978269179,0.45408274,0.414757161,0.341576402,0.9973478100420824,0.03292542733957902,0.008291504385737052,0.06437789211980831,3.655,2.0,-0.04197767,-0.04327315,0.976898311,-0.288434595,0.710612323,0.984167721,0.9969942695002362,-0.03772730236725927,0.06706895635085862,0.008990680385077292,3.655,3.0,0.098520373,-0.093470891,0.970394213,0.134884667,-0.403307265,1.595563758,0.9895524604647097,-0.04169584502088326,-0.08042821121735967,0.11215474727629522,3.655,4.0,0.041017962,-0.042746666,0.978447367,0.371148666,-0.30538765,1.959052695,0.9966746391766262,-0.031662916020782465,-0.06259048354034714,0.04146751428996244,3.638,5.0,-0.377779795,0.168365546,0.888565962,1.459318569,2.06951782,-0.450456544,0.9253662394207808,0.13706379702367372,0.33445141635425163,0.11425011415456164,3.638,6.0,0.42959918,-0.048399377,0.878582406,0.841805176,1.011078555,-0.907828681,0.8032851375387406,0.08934464887303965,-0.23477579312024818,0.5400285626630117,3.638,7.0,-0.023643044,-0.005132244,0.979495618,-0.525936205,-2.343746678,-5.313343426,0.7990090580711264,-0.008323267235252382,-0.027125975863748302,-0.6006491736248882,3.639,8.0,0.12907655,-0.149091174,0.95973802,0.116251387,-1.370443935,0.661517262,0.9814345542454105,-0.13822837756656856,-0.07167186493767629,0.11199229948876921
54,3.745,0.0,0.042555508,-0.044675549,0.978341006,0.130872572,-0.168813944,0.193360984,0.9967189757550934,-0.01557991333742242,-0.022640450141299253,0.07613120048649837,3.745,1.0,0.020529298,0.057838266,0.978018038,0.347136203,0.418607432,0.099510225,0.9959676046063224,0.048618293061710845,0.02832763639192757,0.06987372303632164,3.745,2.0,-0.096734907,-0.039493269,0.972853863,0.09323727,0.826268696,0.843816143,0.9925747481682128,-0.02888839870017522,0.10746015755209432,0.04912376469925498,3.745,3.0,0.120160477,-0.08994707,0.967186634,0.294597425,-0.565811072,1.348291827,0.9778039391733641,-0.029142656060245152,-0.10287455004454052,0.1801859847156253,3.746,4.0,0.06987827,-0.033358643,0.977051804,0.028645851,-0.68565334,1.064148601,0.9907028553399863,-0.030489010354447114,-0.09214985166397073,0.09532406572903064,3.716,5.0,-0.479341817,0.286002182,0.805911394,0.71662462,0.78576975,-1.711533728,0.9153249400818031,0.13458844964917854,0.3785391200889406,0.027826926664019806,3.716,6.0,0.253154038,0.082265494,0.943226071,1.404296379,4.122521953,-1.675836221,0.8813874436848979,0.06218608483657338,0.008018275616799455,0.46821445110486754,3.717,7.0,0.050817472,-0.043626987,0.978159123,-1.783907124,-1.999950605,-2.927982461,0.7052284225004483,-0.1292993191197717,-0.061114325309264375,-0.694405931292847,3.717,8.0,0.165331149,-0.116622184,0.959130793,1.168227956,0.44911135,-2.983119748,0.9960047628561285,-0.06141637542805309,-0.052912685545369126,-0.037453823644119935
55,3.782,0.0,0.056521912,-0.04508681,0.977463275,-0.03304504,-0.249332449,-0.232808551,0.997115175493734,-0.016529984000764063,-0.03617429887573038,0.06464910308646143,3.782,1.0,0.007179385,0.056532517,0.978291639,0.296606507,0.367286319,0.16780644,0.9940866186271701,0.06035553477266508,0.04411975004652603,0.07875564579468058,3.783,2.0,-0.138936301,-0.008411689,0.970212321,0.513503337,0.571037464,0.966022771,0.9867145538090126,0.0023578938319566505,0.13295907363695367,0.09333120794118956,3.783,3.0,0.143127546,-0.079399381,0.965683304,0.304232846,-0.405162778,0.290355917,0.9734051932201804,-0.011925752767931078,-0.11731762062406156,0.19640947564720565,3.783,4.0,0.12417926,-0.057894042,0.970462669,-0.398909463,-0.895657997,0.286200889,0.9838004496073685,-0.046428272894733315,-0.13475454946193635,0.1087304107766653,3.784,5.0,-0.52179593,0.146467403,0.816574128,0.767039314,-0.840852385,-4.396986591,0.9168659568907701,0.08053921310050778,0.34092745835210997,-0.1914124353052691,3.784,6.0,-0.10656218,0.155908649,0.961932427,0.44932181,3.793980645,-3.268935321,0.9331285880728087,-0.007797016962777908,0.20187002371762308,0.2974201374688253,3.784,7.0,0.204853544,-0.141106294,0.948264752,-1.413523878,-1.150468072,-3.747968294,0.5650172300761176,-0.19761853241997498,-0.07831380773862096,-0.7972260613394203,3.784,8.0,0.245489165,-0.058580845,0.947010747,-0.538227664,-0.560073353,-3.649746189,0.9687743721100803,-0.0754847125045171,-0.09892702909376905,-0.21445679526541145
56,3.883,0.0,0.076589153,-0.045544866,0.975703729,-0.027755743,-0.340204968,-0.495008971,0.9975974327522136,-0.01632836291637204,-0.05405887291812052,0.040129602408779386,3.883,1.0,-0.000288283,0.056394309,0.978755127,0.120158613,0.164405981,0.092396014,0.9933393668457422,0.0627250926976315,0.04831494952898366,0.08371457861439398,3.884,2.0,-0.147474757,0.020033928,0.968497206,0.332892598,0.051591656,0.465843621,0.9845755351960662,0.021673691529854655,0.1308582767635439,0.11409372459221406,3.884,3.0,0.159430581,-0.057541895,0.965004052,0.390582387,-0.154166742,0.193010427,0.9709388638944062,0.007341436605254107,-0.1178819259189284,0.2081530144620908,3.884,4.0,0.165200627,-0.07612927,0.96164655,-0.217248602,-0.610978091,0.019283107,0.9794338664150689,-0.0521875724599441,-0.16117891835922238,0.10957698150851883,3.843,5.0,-0.506423455,0.1587456675,0.8233143974999999,1.6116998855000002,-0.5987640870000001,-2.2912060745,0.8927060307249421,0.11225640702568711,0.2995512371921576,-0.3174011627036823,3.843,6.0,-0.237235484,0.1096495365,0.9338596275,-1.753319773,2.040971605,-3.6143605985,0.9510296289995198,-0.15442394683212823,0.23546234259779517,0.12748872353342472,3.844,7.0,0.241715434,-0.138502928,0.938941472,-0.4798316144999999,-1.1452083045,-1.768673394,0.48794543346471236,-0.24303527178213613,-0.10301796812207929,-0.8320038514782943,3.844,8.0,0.2826331135,-0.0484050395,0.936367436,-0.173630269,-0.7585562395000001,-1.973051678,0.9382342832896108,-0.07983587901676283,-0.1437418639814727,-0.30443544245173454
57,3.912,0.0,0.085217916,-0.03767926,0.974881111,0.139552119,0.02769736,-0.610073877,0.9985846022781267,-0.007875792883342026,-0.0516344938584974,0.010032099654169737,3.912,1.0,-0.00644933,0.056593894,0.978795963,-0.166467356,-0.046062754,-0.755028309,0.9967802175291823,0.04932830253583612,0.04289298016483659,0.04643391824935705,3.912,2.0,-0.152875199,0.031108073,0.96740243,0.07882731,0.099260639,-0.59751725,0.9875294415631428,0.01960189024705437,0.1316192645402644,0.08412928828065644,3.912,3.0,0.162345003,-0.041206849,0.96582405,0.148864868,-0.006887375,0.148737006,0.9695977615788193,0.012708499753517639,-0.11354963052212048,0.21639121096673045,3.913,4.0,0.166016895,-0.073803994,0.963357338,0.090662996,-0.069983594,-0.043219179,0.9806031273024152,-0.04462142801160249,-0.15701903959001606,0.1084963413814401,3.902,5.0,-0.49105098,0.171023932,0.830054667,2.456360457,-0.356675789,-0.185425558,0.8781278653597008,0.21639191720699658,0.2370250906520871,-0.35480289830787104,3.902,6.0,-0.367908788,0.063390424,0.905786828,-3.955961356,0.287962565,-3.959785876,0.9196088105225987,-0.3646346497002816,0.1432575074777677,-0.028956767748168265,3.903,7.0,0.278577324,-0.135899562,0.929618192,0.453860649,-1.139948537,0.210621506,0.499248363599672,-0.2722900766439106,-0.1386269333240676,-0.8107969899805175,3.903,8.0,0.319777062,-0.038229234,0.925724125,0.190967126,-0.957039126,-0.296357167,0.9265921796200693,-0.08238217370673913,-0.1927969981928242,-0.31220094107820723
58,3.985,0.0,0.085123375,-0.023247637,0.975729244,0.186765607,0.036193214,-0.610058023,0.9986047860558598,0.0026541372051727156,-0.048825381501729936,-0.019937877099560453,3.985,1.0,0.006511899,0.035857938,0.978632619,-0.362042061,-0.423888038,-1.215628013,0.9993860087477048,0.02641691793788975,0.01784946594665562,-0.014530950809033908,3.985,2.0,-0.147651146,0.014445158,0.967640159,-0.128678395,-0.368812467,-1.401908482,0.9941330501619364,0.003635591484147979,0.10708462112378977,0.014803545827256378,3.985,3.0,0.166501552,-0.040573178,0.965256987,-0.045725073,-0.046314007,-0.295812862,0.9727410871660569,0.011232351567825627,-0.11353371156204485,0.20188785985343627,3.986,4.0,0.162776305,-0.059644658,0.964363204,0.214129076,0.099310535,-0.229905406,0.9841350991314677,-0.030480648792348818,-0.144251224251802,0.09869458449454195,3.916,5.0,-0.416890862,0.168974964,0.8704289,-0.747512458,-1.409354913,0.535731032,0.9125971930451567,0.15786319912531482,0.174218705523366,-0.3345047327823401,3.916,6.0,-0.403991518,-0.000872576,0.892100943,-0.566309031,0.547364498,-2.507136601,0.9071374455660536,-0.37495138223101043,0.12829750567487663,-0.1416081419006505,3.916,7.0,0.323496634,-0.112454656,0.917803289,0.953387066,-0.871482287,1.441703614,0.5688349633020772,-0.28159598522307444,-0.17151115717521817,-0.7534682532103051,3.916,8.0,0.387797678,-0.015633821,0.898897961,0.271876936,-1.017427542,0.007911712,0.9172017787563668,-0.08480315276760804,-0.24308819826978234,-0.3040681670099347
59,4.098,0.0,0.080311559,-0.011853311,0.97585478,0.065068108,0.188068209,-0.369912415,0.9985078975218523,0.006041420200942013,-0.0385882999956975,-0.03816310956785046,4.099,1.0,0.041881511,0.020398631,0.978615264,-0.144904991,-0.772039827,-0.621085066,0.9985046520100305,0.016406629112980853,-0.024032586097520042,-0.04627869100290567,4.099,2.0,-0.078530662,-0.000601414,0.976857499,-0.006626642,-1.645789116,-1.504728977,0.998037577735846,-0.003966006557171564,0.017248377725418797,-0.06006461258507346,4.099,3.0,0.158822627,-0.035089614,0.966239148,-0.152200998,0.288002106,-1.136051079,0.9845972674298579,0.006031103723393596,-0.09729859888874552,0.14513727781594213,4.099,4.0,0.141270747,-0.051037163,0.968770243,-0.226314347,0.562303715,-1.786867701,0.9931591031026048,-0.03032905565970664,-0.11251327979856272,0.007477043278613254,4.036,5.0,-0.348185142,0.061303532,0.913281985,-1.187444282,-1.537137063,-2.940258694,0.8784851641143337,0.04716250585084665,0.12995480008308363,-0.4573305854720926,4.035,6.0,-0.378595472,-0.06706976,0.901794941,-0.475553864,-1.433326161,-1.219471443,0.9084621141834528,-0.38276715621698115,0.050375173685629555,-0.16015065747925855,4.036,7.0,0.357858955,-0.072686492,0.908653202,0.749906809,-0.505529479,0.378924254,0.5928311948263786,-0.27107497815517556,-0.20076028307324573,-0.7312761717704535,4.036,8.0,0.458640665,-0.004467385,0.865874,0.180955153,-1.535569003,-0.173546628,0.8953291432098457,-0.09707842487391442,-0.31349342544824915,-0.3011368076868826
60,4.12,0.0,0.089653399,-0.010540294,0.975777213,-0.052580692,-0.475723311,-0.119827962,0.997036683534772,0.0014294817047647002,-0.06287829636144841,-0.044295915327715006,4.12,1.0,0.099971254,-0.004461918,0.975074787,-0.473658085,-0.813531696,1.534713586,0.9973567065675104,-0.013086933738792333,-0.06508667333682333,0.029530610966771034,4.121,2.0,0.038368671,-0.006105703,0.979357221,0.085376689,-1.388980352,-1.034785179,0.9922819068039974,-0.004791122098163174,-0.0558714524125692,-0.11059856863347389,4.121,3.0,0.14086243,-0.039259902,0.969245808,-0.555751088,0.466819354,-2.266980932,0.9965093718710588,-0.01565548802736085,-0.07678117888571037,0.028785899963240737,4.121,4.0,0.091813472,-0.032027584,0.97529817,0.519731431,1.169246589,-0.43127697,0.9988080074983803,-0.000876475704825875,-0.0471035019239222,-0.012769340388509033,4.066,5.0,-0.287475053,0.000488416,0.935749889,-0.179398812,-0.762739658,-1.657511501,0.8443162923475839,0.013406780814028624,0.10287063350402756,-0.5257070376807921,4.066,6.0,-0.300164356,-0.07687211,0.929262631,-0.582140126,-1.526327622,-0.056984644,0.9119012368709608,-0.39011090565912415,-0.0052806519839805,-0.1273645562692152,4.066,7.0,0.222591045,-0.026063796,0.952912853,1.630728908,3.460445046,1.908771097,0.7266999425647122,-0.08863945488450027,-0.11115801107060073,-0.6720819422429463,4.066,8.0,0.536130795,0.012400883,0.819876813,-0.134559085,-1.438657422,-0.00250721,0.8723260975710018,-0.1231881060432197,-0.3698815266603205,-0.2950585132841653
61,4.182,0.0,0.117451876,-0.027993738,0.972840895,-0.267863961,-0.012032548,-0.362008188,0.9959573671369624,-0.01262814380387542,-0.06273972863897997,-0.06303316016182132,4.182,1.0,0.117705867,-0.00256564,0.972266294,0.209042609,0.019600255,-1.116233071,0.9976770980078239,0.00231050369890864,-0.06307983482727215,-0.025612577408539776,4.182,2.0,0.066112849,0.015525655,0.977272759,0.591864189,0.071487312,0.277918243,0.9937036717904346,0.02512984413818803,-0.05376051565800868,-0.09503320766965485,4.182,3.0,0.097846764,-0.059152401,0.972063786,-0.553260578,1.243080247,-2.129506708,0.9959193326067576,-0.03805106237531886,-0.016515123733055498,-0.08015017330176018,4.183,4.0,-0.010101263,-0.024404675,0.979076798,-0.195289003,1.692947689,-1.69520395,0.9943697369026256,-0.0066897970019233755,0.0421846995449261,-0.0969769254646714,4.145,5.0,-0.271416087,0.013951037,0.941215,-0.075885786,-0.523570935,-0.470477243,0.8346899734248369,0.0005866244154476223,0.08426432790100234,-0.544235084480257,4.144,6.0,-0.170681182,-0.101796842,0.959558928,0.490633985,-1.653604107,1.473706402,0.9370115465321979,-0.3446890409968476,-0.05135833779605801,-0.023688558859467232,4.145,7.0,-0.204436377,0.07608099,0.955367181,0.80716309,6.593476312,2.965405027,0.8500729441115258,0.16631368514048545,0.13881743133659924,-0.48004736076939636,4.145,8.0,0.60062054,0.033174477,0.773020324,-1.406878029,-2.724345056,0.197046645,0.814910687835515,-0.22028496155495353,-0.4512536531586389,-0.28942226430453344
62,4.257,0.0,0.108992401,-0.029465591,0.973361411,0.028309918,0.056291423,-0.011779121,0.9961542606420575,-0.011593286762858661,-0.05922332686614974,-0.0635207230879438,4.257,1.0,0.128770901,0.003539787,0.971131054,-0.027039239,-0.424085526,-1.036582306,0.9934520625690735,0.003468610981306935,-0.08411293919147916,-0.07723976680237009,4.257,2.0,0.063360862,0.015512375,0.977925747,-0.696019033,-0.018297731,-1.4374567,0.9846389255446178,-0.007463340884642165,-0.04966141175077345,-0.1672250849247818,4.257,3.0,0.02073542,-0.095246263,0.974905222,-0.429452775,1.070272667,-0.201515009,0.9934185642245807,-0.0559961259686298,0.03881137076686025,-0.09207425063325483,4.257,4.0,-0.117343934,-0.045574264,0.971339996,0.130384385,1.617809778,-1.575033954,0.9771287183505578,0.0031701151058937662,0.12253386640346944,-0.1737667106468565,4.261,5.0,-0.232837269,0.011837412,0.952178913,-0.288317835,-0.576031525,2.116730453,0.8922058143788006,-0.011824055306714596,0.06900435555096777,-0.4461696711115181,4.261,6.0,-0.068411484,-0.030708635,0.977569357,0.802807259,-1.698534338,2.827603715,0.9456404686268305,-0.2810719292765428,-0.08428166005043955,0.14021154177574802,4.261,7.0,-0.456166406,0.023553389,0.86564626,-0.581012362,2.926641391,-1.22882171,0.799137002793468,0.20031707670959947,0.28720055072273837,-0.48863991160091375,4.262,8.0,0.70894938,-0.069868747,0.672084916,0.005000666,-0.504848755,1.641755483,0.8314247705811143,-0.2590830412089347,-0.44116885808506695,-0.21674608941798476
63,4.316,0.0,0.100931087,-0.022344393,0.973912544,0.18242459,0.232084778,0.104002942,0.9971961278181896,-0.0023750831455639984,-0.0473657448658729,-0.057885471905838516,4.317,1.0,0.15369438,0.0069414,0.968089797,0.109032609,-0.376520355,-0.511005888,0.9894582738791928,0.008959831589869236,-0.10235215081371138,-0.1020592126840913,4.317,2.0,0.066435617,-0.026075203,0.977786987,-0.19069582,-0.224148937,0.263569673,0.9861356252066615,-0.02052599860573084,-0.05699243329029482,-0.15448972337070022,4.317,3.0,-0.036421332,-0.089580141,0.974932759,0.301702311,0.651140969,0.581465154,0.9948203573786416,-0.035596736629520294,0.06920601324106543,-0.0653900345437893,4.317,4.0,-0.18627162,-0.03168614,0.961385392,0.486643221,1.056403924,-0.444423604,0.9653794075734136,0.03285520592549826,0.1672968094970291,-0.1974206483854031,4.32,5.0,-0.162079413,0.097186471,0.960537378,-1.072083551,-3.159881652,8.407765268,0.9948496453896188,-0.09186778270918353,-0.03466795800682485,0.025152062656664337,4.319,6.0,0.003907175,0.007051967,0.98004898,0.252666577,-0.544681072,0.904840925,0.9467552054744314,-0.24246967819640103,-0.08959808566344134,0.19192503512529901,4.32,7.0,-0.526460877,-0.079912366,0.822791565,-0.995610374,1.995423762,0.667768203,0.7952068289400108,0.20983271967054817,0.38013242784084816,-0.4232205881885428,4.32,8.0,0.658108508,-0.193407684,0.699422376,-0.513216761,2.138180713,1.34753005,0.8880945752733576,-0.2803673626836768,-0.3070973660494932,-0.1958912327729286
64,4.39,0.0,0.090078018,-0.015097727,0.975554719,-0.006073149,-0.008187772,0.068265675,0.9973762922072956,-0.0036608197538081414,-0.04755678376696089,-0.05445624352909393,4.391,1.0,0.16503284,0.006817676,0.965187381,-0.046721635,-0.050497414,0.096006128,0.9899010919384325,0.004492813529590499,-0.102847866747228,-0.0974574733472596,4.391,2.0,0.083396822,-0.019164169,0.975901483,0.261667711,-0.283164535,0.602552142,0.9897416951283682,-0.011039667149077954,-0.0710112832297956,-0.12347833950827039,4.391,3.0,-0.065634413,-0.081059948,0.974885844,0.061909904,0.387344029,0.22551909,0.9943474783587508,-0.030813455326258364,0.08530556361715094,-0.05519587003037785,4.391,4.0,-0.245587872,-0.00517054,0.947802122,0.430423551,0.901093982,-0.0338885,0.9566707127366155,0.06101401693374607,0.20187695853073265,-0.20075888708598968,4.396,5.0,-0.005276265,0.125991449,0.971719772,-0.409890709,-1.650219699,1.311107459,0.984940007517608,-0.09663157272524624,-0.1061823639009614,0.0963370455238457,4.396,6.0,0.082863789,-0.026879073,0.97650812,-0.780461589,-2.583226499,1.050488334,0.9143851502997565,-0.23476771325910026,-0.19796053895764876,0.26380967142616596,4.396,7.0,-0.569153698,-0.111328277,0.79018231,0.087563259,-0.627990104,-0.307994471,0.803284526352091,0.1833885342600518,0.3474975503494413,-0.44760257788174573,4.396,8.0,0.402776576,-0.22412563,0.865196355,0.698195511,4.36981705,0.643687144,0.9559543749860103,-0.1965360759687308,-0.0785042282257375,-0.20337622756507417
65,4.45,0.0,0.091750038,-0.020176974,0.974917853,-0.080595994,-0.011355186,-0.02319806,0.9972634763688267,-0.008572384818144218,-0.04778358526658934,-0.05575663098110234,4.451,1.0,0.162742096,0.001188249,0.965436481,-0.156031598,0.143578023,-0.04758434,0.9905786645040203,-0.003488157706591805,-0.09299831632767122,-0.10046419932226741,4.451,2.0,0.091207321,-0.011443088,0.975284205,0.006498027,0.059507658,-0.358430394,0.9877619956132511,-0.009128572021505002,-0.06572389869139483,-0.1411498435556311,4.451,3.0,-0.078351545,-0.071148727,0.973864926,0.073591634,-0.005426058,0.064913014,0.9949930124582781,-0.02721356970801815,0.08060502489831123,-0.05245147037110043,4.451,4.0,-0.257678205,-0.025693167,0.945224208,-0.07512424,-0.144891039,-0.221104958,0.9575455931465041,0.04915533091392994,0.18934075900521619,-0.21175520647148205,4.447,5.0,0.017341552,0.144313716,0.969545162,-1.012346066,-0.797109527,0.656512382,0.974168326371454,-0.1290922822227555,-0.1356765913341977,0.12618683421456406,4.447,6.0,0.168983618,-0.040032841,0.964661033,-0.246846598,-1.090955091,-0.054629132,0.9082498736711867,-0.20889438286276607,-0.24120049106261446,0.2706799344166668,4.447,7.0,-0.448713671,-0.063378504,0.868156787,1.233347492,-3.609571421,1.572026499,0.8832304696124788,0.17353787627331735,0.12938984821898164,-0.4159889544501584,4.448,8.0,0.136915001,-0.129716876,0.961786262,1.895923691,4.309259059,-1.367281186,0.9515796429278116,-0.04151881163225877,0.10974854702899754,-0.28412607742170964
66,4.528,0.0,0.089908731,-0.021491479,0.975856822,-0.030913026,0.126355095,-0.299351338,0.9965930006405324,-0.009537620347422249,-0.041282514333509955,-0.0707614222773398,4.528,1.0,0.148598983,-0.005169913,0.96868396,-0.03764035,0.251514925,-0.240750315,0.9905297568991087,-0.003645527930905035,-0.0786213238579746,-0.11249977003672974,4.528,2.0,0.07126533,-0.018212793,0.97686158,-0.263718076,0.487589866,-0.326388294,0.9865695761519229,-0.018141013825125236,-0.03697694443015285,-0.1580635334586105,4.528,3.0,-0.060816407,-0.069348259,0.975675245,0.029040465,-0.407054781,-0.658434144,0.9944509684497694,-0.030112497223264166,0.054479250293738124,-0.08480872683708125,4.528,4.0,-0.218012582,-0.010935989,0.954756471,0.125953498,-0.946993128,0.493015068,0.9714340556399749,0.04683442575721033,0.13265374995315632,-0.19111618123599072,4.56,5.0,0.124590978,0.041346343,0.970075032,-1.619873312,-1.409529913,-0.816005311,0.9574912815720289,-0.17657626802419207,-0.21288763111902653,0.08191534533121102,4.559,6.0,0.174462453,-0.034695824,0.963954902,-0.503409088,-0.920533123,1.04191866,0.8848338791823893,-0.2115165170800486,-0.2639758600070796,0.3203849475036133,4.56,7.0,-0.182965516,0.064159376,0.959595329,0.417390491,-0.551099402,1.26671294,0.909995533042847,0.17861977173655708,0.07809666011321804,-0.36592898035821864,4.56,8.0,-0.215281778,-0.0961043,0.951268479,-0.673921342,3.362855205,-5.226628594,0.8332414579613631,-0.047587430661407935,0.24446616298056345,-0.4936399541518374
67,4.617,0.0,0.073880643,-0.021680706,0.976110956,-0.101052527,0.339117543,-0.802434118,0.9934709644988237,-0.012111423738579074,-0.02408764316702133,-0.11085369438796396,4.617,1.0,0.124894732,-0.001060305,0.972033529,-0.016424348,0.485900543,-0.454878151,0.98943775017641,-0.00034415220730690154,-0.05293309520492697,-0.1349477955252641,4.617,2.0,0.035324627,-0.030180479,0.978289993,-0.208870983,0.644165024,-0.162081891,0.9857405149093107,-0.023029663218169762,-0.0015842922686193548,-0.16668161835185094,4.617,3.0,-0.014891226,-0.077484601,0.976970515,-0.198829828,-0.755935309,-0.992214216,0.9900866769594489,-0.04665000903156384,0.011143719086760883,-0.13201502296960965,4.618,4.0,-0.13620975,-0.012700109,0.970730968,-0.251672799,-1.395589841,0.697736454,0.9855658531736444,0.021627370241960493,0.058710065245949274,-0.1573064974924432,4.62,5.0,0.241923949,-0.07348952,0.946973122,-1.238033977,-1.443458515,1.193769419,0.9279101070214182,-0.22642018118988477,-0.26295398358746946,0.13627889547879724,4.62,6.0,0.258162047,-0.072804999,0.942977089,-0.781980432,-1.620599723,0.903014718,0.8474846041623966,-0.2108129798406047,-0.324038717758407,0.36376729186654244,4.62,7.0,-0.285737516,0.028360814,0.936849367,-0.303965878,0.458605236,-1.168975815,0.8887808353734321,0.1583216921507269,0.11827986290862078,-0.4135368695748332,4.62,8.0,-0.315451142,-0.093968587,0.922851278,-0.505345104,-0.412569026,2.079015319,0.8882891016033866,-0.04558655342612081,0.23472422793292902,-0.39213374624057284
68,4.671,0.0,0.049809204,-0.030812535,0.977892955,-0.345189839,0.507941515,-0.762678561,0.9884896693877572,-0.026059585913520752,0.002018122464081477,-0.14901341777644844,4.671,1.0,0.095488404,-0.007603068,0.975267737,-0.347248972,0.514157232,-0.871539444,0.9835682190227072,-0.01265381673938763,-0.025274651144243872,-0.17831049172710664,4.671,2.0,-0.006665842,-0.04465989,0.978673623,-0.319001525,0.532555388,-0.48522744,0.9806568880538034,-0.03406916143396931,0.027229189360472614,-0.19081386584466983,4.672,3.0,0.035958973,-0.092224877,0.975243828,0.053454448,-0.649234533,-0.877529717,0.9832997492410057,-0.048968010641369214,-0.025584200219327117,-0.17340468787071278,4.672,4.0,-0.055572748,-0.020993447,0.977431299,-0.881066758,-1.250946306,0.598730301,0.9916044534734253,-0.03296456439463336,0.001450247898237669,-0.1250273655124149,4.674,5.0,0.249464664,-0.117413437,0.940428874,0.230895713,1.426903588,-1.250875015,0.961011281546707,-0.18977316469982364,-0.19122970811584414,0.06224677850056628,4.674,6.0,0.355437756,-0.128348469,0.904062317,-0.873917462,-1.121675116,-0.36211119,0.8353968877957573,-0.2012117399160999,-0.3788174527480998,0.34369057751783066,4.674,7.0,-0.29380526,0.007356373,0.933730878,0.290947229,-0.645520118,1.047994483,0.9113555646058661,0.15525896449373552,0.07623269436499416,-0.3735160841464654,4.674,8.0,-0.21713017,-0.158549304,0.942146808,-0.782727477,-1.595768514,-3.028755564,0.841459959966001,-0.14313302140631007,0.1499559229251571,-0.4989702347202498
69,4.72,0.0,0.03937409,-0.050229815,0.978171583,-0.326263687,0.16063115,-0.942258405,0.979860390395428,-0.041142618752823115,0.00858446986311509,-0.1952106737180329,4.72,1.0,0.065005182,-0.017126063,0.977522902,0.12142194,0.452659923,0.44271876,0.987675490601558,-0.003364431342587919,-0.004500968204928752,-0.1564146641205061,4.72,2.0,-0.028325756,-0.032654289,0.979518427,0.725615801,0.282740328,0.532113336,0.9856272586234627,0.0072021285511183804,0.03303663986988523,-0.16551621319024476,4.721,3.0,0.074679743,-0.043845368,0.976304522,0.6168402,-0.824610437,-0.64716798,0.9765107849570569,-0.023065768314491485,-0.07268483774028144,-0.2015231290876649,4.721,4.0,0.039483518,-0.114232924,0.97171235,-0.495180421,-1.53837697,0.078398003,0.9879826961657422,-0.0696404313642179,-0.0726035905425769,-0.11734189804499584,4.77,5.0,-0.072610935,0.08625173,0.973060271,2.70125554,4.675615399,-4.374626994,0.9822827848235386,0.002607838191495826,0.08093025922789748,-0.16900894343373138,4.769,6.0,0.436768885,-0.188314118,0.856708664,0.08096781,-2.028986576,0.157348741,0.8030350953241173,-0.14897291666088477,-0.4452108524401621,0.36705449547558855,4.77,7.0,-0.235256075,0.071131163,0.94915064,-0.5291176,-0.149216009,-0.66198087,0.9035329063767636,0.11858983678706317,0.08529475779859316,-0.402851761814759,4.77,8.0,-0.053964003,-0.18961267,0.960143178,-0.221342486,-2.750749328,-1.723657852,0.8144351437807055,-0.22536714035652963,0.015679383507589986,-0.5344709585704761
70,4.796,0.0,0.036625789,-0.057428199,0.976549821,0.176966384,0.153499317,-0.713569856,0.9725963369991798,-0.030459949426585416,0.011128868366835605,-0.23022750710021875,4.796,1.0,0.034025159,-0.001781282,0.979189009,0.309469021,0.321310595,-0.46635137,0.9836750737663751,0.014448933938216781,0.007976507574150901,-0.17919529258796085,4.796,2.0,-0.052923645,0.003477302,0.977660471,0.260464848,0.4904137,-0.385889557,0.9810301460941349,0.023296517243311526,0.05470606931744859,-0.18451116692137295,4.796,3.0,0.100665261,-0.045022163,0.973243808,-0.361766313,-0.184271796,1.258653454,0.9863497350080965,-0.048278005155137055,-0.07223815510289282,-0.13987524232339565,4.796,4.0,0.080837957,-0.107648737,0.970504495,-0.095231912,-0.102150049,-1.043010041,0.9802584922596737,-0.0700314614464464,-0.07685661215641593,-0.1681723637471523,4.845,5.0,-0.294738621,0.067361937,0.931605879,-0.074875175,2.022857014,-2.877132295,0.9363641207302776,0.009890042051450398,0.18261085310029412,-0.2996292656053769,4.845,6.0,0.493747075,-0.156421792,0.831761413,-0.260849905,-1.209338033,-2.997309897,0.8367293258500095,-0.05438094083045171,-0.49024653669126506,0.23787619006366198,4.845,7.0,-0.22859859,-0.000735331,0.952294673,-0.188102482,-0.012485395,-1.766347457,0.8672502175163067,0.09567667316488199,0.09896011623290202,-0.47846622642062137,4.845,8.0,0.072525067,-0.211409419,0.953707593,0.578973061,-0.058152128,0.958879913,0.8485120497011863,-0.1899963566039466,0.008290504668259617,-0.49382178315811753
71,4.859,0.0,0.030795445,-0.04331276,0.97742245,0.140273228,0.119290923,-0.662593443,0.964633984682508,-0.022153757621740145,0.012413333547341506,-0.2623669105833021,4.859,1.0,0.03086604,0.021135594,0.978274284,0.350643372,-0.021670528,-0.860948041,0.974781959777374,0.030325835209527113,0.0025605883690487455,-0.22107446256551425,4.86,2.0,-0.090260791,-0.00872847,0.976261647,-0.312013542,0.678045766,-0.132078037,0.9777651676184096,0.01201273922623262,0.08991842851644766,-0.18906519325766508,4.86,3.0,0.112727972,-0.071399665,0.970465606,-0.367053729,-0.353591451,0.132575505,0.9850078125157851,-0.06888919143211662,-0.08458751627297019,-0.13363697346717743,4.86,4.0,0.079448211,-0.090237843,0.971468535,0.220865393,-0.051030527,0.456832224,0.9848313568618328,-0.05955155934040927,-0.07538581176157584,-0.14449148662414518,4.875,5.0,-0.385736435,0.077413847,0.896657961,0.625241834,0.478572864,-2.000268742,0.8979079204713747,0.03522795874705082,0.19718678323293368,-0.3919664906539018,4.875,6.0,0.490454263,-0.093582175,0.843565642,-0.662946157,2.380510671,-2.508635466,0.9242501472046117,-0.043884806956307,-0.365536534400447,0.10108823437557923,4.875,7.0,-0.179671925,-0.044901417,0.962221317,-0.476920333,-1.295549386,-3.491540329,0.7872023367382581,0.02174074347959029,0.06190528216109235,-0.6131945508134726,4.876,8.0,0.099209006,-0.204167198,0.952988105,0.177645793,-0.340068832,0.012067061,0.8518103406279168,-0.1834885019181434,-0.010421130128231556,-0.49055327265245935
72,4.966,0.0,0.033154083,-0.041794112,0.977783749,-0.052679071,-0.026083693,-1.086491802,0.9491670533424166,-0.02593608175015677,0.008163817404929021,-0.31359619991017484,4.966,1.0,0.030325542,0.049590082,0.978050707,0.344796056,-0.036951338,-1.459039809,0.9558628442827882,0.04524245974882272,-0.0019924771552360426,-0.29030220941336315,4.966,2.0,-0.14795854,-0.017922658,0.968749219,0.34145035,0.864957157,-0.371067129,0.9692181644132682,0.03439035469808173,0.12777983553303063,-0.207619283560721,4.966,3.0,0.131261802,-0.088620507,0.967158077,-0.311128123,-0.175849218,-0.257630799,0.9815778665840277,-0.08274453271398714,-0.0897914763370628,-0.1469548397144618,4.967,4.0,0.086512225,-0.084412197,0.971870473,-0.117615665,-0.147536323,-0.145511946,0.9831951673586722,-0.0648082966003122,-0.07849092200869519,-0.1515464375580744,4.935,5.0,-0.408202547,0.0507447,0.8880248625,0.3377921015,0.444752914,-2.3169039405,0.8445813195091657,0.04208790406656192,0.2123460712620846,-0.4897143545854035,4.935,6.0,0.3990467545,-0.069473623,0.8865620974999999,-0.5216226185,2.7915068015,-2.612535858,0.975483629757736,-0.032403932940399005,-0.21422787435531335,-0.038575783256735934,4.935,7.0,-0.0755698675,-0.068161023,0.968854747,-0.4143249169999999,-1.4417506755,-2.3065832755,0.7204043646991549,-0.04693239367268253,0.016325201267892896,-0.6917719201804322,4.936,8.0,0.1205191049999999,-0.1875964875,0.9531911945,0.2502426855,-0.284591165,-0.8004019265,0.8350001591345294,-0.17276481586337714,-0.0349299486104638,-0.5212551691207241
73,4.99,0.0,0.040493824,-0.045276037,0.977717408,-0.162431716,-0.171057639,-1.239796187,0.9281491101622381,-0.03687671074651,-0.0015408628989910522,-0.37037408555552376,4.99,1.0,0.026411541,0.059005808,0.978207925,-0.033558557,-0.073162409,-1.431617836,0.9333596117168981,0.040669104688102184,-0.003912460114079146,-0.35660980328000685,4.99,2.0,-0.177679489,0.008872494,0.96348756,0.478179788,0.288306432,-1.092188362,0.954104242340774,0.05208639258654475,0.13530922909687088,-0.26203723967380704,4.99,3.0,0.128347379,-0.104955553,0.966338079,-0.535405424,-0.033533043,-1.147902348,0.9693896719368754,-0.10167171966758076,-0.08993021258272695,-0.20459492228982598,4.991,4.0,0.100444726,-0.109616214,0.967915359,-0.603910487,-0.088847009,-1.095061005,0.9710639392274593,-0.09023105929779633,-0.07946154446497314,-0.2063469040748806,4.994,5.0,-0.430668659,0.024075553,0.879391764,0.050342369,0.410932964,-2.633539139,0.774362372208356,0.03339258106688445,0.22867337774151114,-0.5890299978352777,4.994,6.0,0.307639246,-0.045365071,0.929558553,-0.38029908,3.202502932,-2.71643625,0.9833572253091293,-0.01561034441010501,-0.04790024462465738,-0.17455787333897604,4.995,7.0,0.02853219,-0.091420629,0.975488177,-0.351729501,-1.587951965,-1.121626222,0.6821184657023927,-0.11444978989748343,-0.031555763548738916,-0.7215399352267979,4.995,8.0,0.141829204,-0.171025777,0.953394284,0.322839578,-0.229113498,-1.612870914,0.7952549904218942,-0.15709200430821094,-0.06331708380457943,-0.5821361947946425
74,5.057,0.0,0.052814668,-0.053758535,0.977223429,-0.211531375,-0.156974706,-1.105022283,0.9062596068123083,-0.04911436831301962,-0.00875903675807458,-0.41976729644016336,5.057,1.0,0.034529588,0.05409836,0.97808848,-0.142688987,-0.305430857,-1.203889306,0.9109347815997043,0.026825901181409366,-0.015834738363834415,-0.41137264828699177,5.057,2.0,-0.169157657,-0.005291976,0.965423059,0.032283359,-0.504647334,-1.393979693,0.9377653449167446,0.03435725976422535,0.10831645904096097,-0.3281513085079815,5.057,3.0,0.133276448,-0.126691658,0.962307442,-0.618883289,0.115680107,-1.279727559,0.9520776198631942,-0.1216104518546707,-0.08212025363417613,-0.26835679178734545,5.057,4.0,0.105075743,-0.136284157,0.96454275,-0.549998231,0.217926744,-1.512649537,0.9514862824358487,-0.1068264241235646,-0.06725505172682601,-0.2806042185402828,5.109,5.0,-0.396522458,-0.016209228,0.89604029,1.021065722,-1.192526355,-0.69437133,0.7670513806343437,0.037548870578273254,0.14843288065191104,-0.6230489079732173,5.109,6.0,-0.043659402,-0.036346241,0.978312224,-0.613070668,6.393256375,-2.442188882,0.9270341126478648,0.015373595951380018,0.26470484917850534,-0.2651466563170172,5.109,7.0,0.081124221,-0.110461058,0.970240287,-0.311940859,-0.443375327,-1.322386328,0.6328379340206649,-0.133756771766967,-0.039106570908373266,-0.7616403031501973,5.11,8.0,0.161622573,-0.150236315,0.954404628,-0.052034475,-0.510560776,-0.775547578,0.7714746941164026,-0.16694918293306432,-0.08396198917923535,-0.6081982826587488
75,5.125,0.0,0.066849154,-0.055450935,0.975750677,-0.009039261,-0.185883002,-1.188564868,0.8802510582528686,-0.05196414138655875,-0.020844797782994254,-0.4711934813429074,5.126,1.0,0.063093642,0.054313398,0.97665718,0.011257343,-0.472464354,-0.693807283,0.8957750047807814,0.016680746545285674,-0.03908595447015741,-0.4424716732942798,5.126,2.0,-0.113573419,-0.012484684,0.972883452,0.16826421,-1.021045771,-1.118994523,0.9230266355139347,0.017182376631843584,0.05410809046489784,-0.38052452038120954,5.126,3.0,0.13551023,-0.15602608,0.958245188,-0.577806007,0.214471717,-1.330836224,0.9301873699585858,-0.137359798452757,-0.0697942354710458,-0.3331853946882419,5.126,4.0,0.096438698,-0.149823997,0.964270371,-0.304925493,0.357786182,-1.297848596,0.9315882233871707,-0.1095502534278779,-0.049264506905928415,-0.34309638934203074,5.115,5.0,-0.331704577,0.002236694,0.921796654,1.633220645,0.084735998,-2.846044145,0.6743832098207914,0.08055238191723327,0.10993511290128194,-0.7256947505877722,5.115,6.0,-0.285127971,-0.148695323,0.925099314,0.145865222,3.464074933,0.56832798,0.8832332856549001,0.07009546720109712,0.4021875032299634,-0.23071801150919632,5.115,7.0,0.115709129,-0.097268812,0.96827846,0.3968612,-0.030609175,0.281676658,0.647027482284833,-0.11704021261858631,-0.049566747787734095,-0.7517979537828587,5.115,8.0,0.216757522,-0.149459568,0.943067343,-0.049915775,-0.800543474,-0.434207046,0.7553983011742783,-0.18761743567428352,-0.11249795449192206,-0.617670878906521
76,5.229,0.0,0.089673193,-0.045797292,0.974383049,0.09036413,-0.239786421,-1.073744715,0.8542667617162183,-0.051655280754926626,-0.03681202842315183,-0.5159504882838939,5.23,1.0,0.096370273,0.055027149,0.973631236,-0.10999188,-0.707365878,-0.905380903,0.8735709135313678,-0.003319022242480119,-0.06936471531433407,-0.481717115528073,5.23,2.0,-0.052634125,-0.009561263,0.978615466,0.086612245,-1.043824555,-1.60042487,0.892716062913143,-0.004259879886559043,0.0027172420060846696,-0.45059127936089693,5.23,3.0,0.128250393,-0.167660509,0.957278324,-0.212902167,0.471589314,-1.622371251,0.9017361171998333,-0.1297712782331768,-0.051825360921235714,-0.4090788704497945,5.23,4.0,0.086199209,-0.167095066,0.961650631,-0.42656288,0.428780571,-1.578601352,0.9013719469139769,-0.11590387994095092,-0.02807794272895728,-0.41630101256572727,5.175,5.0,-0.302498099,-0.028754449,0.932262346,-0.306397869,-0.393416756,-0.567651321,0.6571915850844143,0.05542973220556994,0.11042925756388612,-0.7435268282689891,5.175,6.0,-0.293420851,-0.18529479,0.916931865,0.880851029,-0.285511227,0.635356941,0.9009432567451656,0.10793651126736,0.35441061969098314,-0.22592934805177267,5.175,7.0,0.08738148,-0.103772377,0.970569302,-0.614390584,0.47662446,-1.702300342,0.5822467833257963,-0.10801452245304542,-0.016321176875457248,-0.8056396002130256,5.175,8.0,0.285078764,-0.135115947,0.927722361,-0.095013419,-0.94552512,-1.431662653,0.7058149665924032,-0.2080455147030393,-0.15386714492812129,-0.6594446136392205
77,5.275,0.0,0.099939019,-0.032773764,0.974406523,0.094194939,-0.100417021,-1.014062483,0.8277482501163683,-0.04738355120356616,-0.045620291502532946,-0.5572310315370577,5.275,1.0,0.140148955,0.059718557,0.968395046,-0.094338509,-0.722779942,-1.584119287,0.8313767090436426,-0.019580200971894706,-0.09934691124979464,-0.5464060528716607,5.275,2.0,0.023930654,-0.012848847,0.979628619,0.117616043,-1.303624796,-2.280636581,0.8378668251548106,-0.02956326610902748,-0.05891432899760888,-0.5418803359051945,5.275,3.0,0.106287127,-0.15186153,0.962074905,0.180244171,0.650286862,-1.483967481,0.8730945912460902,-0.1009593051550788,-0.031240552693704158,-0.4759591172640969,5.275,4.0,0.080295753,-0.190858257,0.957018139,-0.74992918,0.454427859,-1.784511573,0.8584968773263891,-0.13487842127474414,-0.0019532285382518845,-0.4947596466907428,5.251,5.0,-0.256734392,-0.044867143,0.945071104,0.340180446,-0.700475091,-1.72099499,0.5968613443184843,0.03271867008217023,0.07916272339493663,-0.7977589156575329,5.251,6.0,-0.219782792,-0.182444712,0.936279046,0.270409139,-1.305506303,-0.532489511,0.9217627806210329,0.08023189608021691,0.2718359441204197,-0.2646156431455154,5.251,7.0,0.041751174,-0.086722207,0.975060049,0.660332213,2.012701479,-0.186339567,0.5818216413967586,-0.0011992215924059714,0.01940453927487291,-0.8130840075450285,5.251,8.0,0.379585635,-0.104550488,0.896001641,-0.442908002,-1.123657506,-1.907211946,0.6311209087923153,-0.24109901288089822,-0.19361123565007232,-0.7113876256325173
78,5.327,0.0,0.123000427,-0.018007507,0.972141772,0.112393246,-0.339098015,-1.37980395,0.7881777555178592,-0.0487689431077452,-0.06558604642272127,-0.6099966281952875,5.331,1.0,0.18297597,0.040240488,0.962194106,-0.569514607,-0.706694225,-1.610639667,0.7822660508030626,-0.054484842535828505,-0.11472117701631457,-0.6098608687551756,5.331,2.0,0.086289413,-0.022099884,0.975781088,-0.877551768,-0.640023837,-2.080985321,0.7766871304430099,-0.07503266323407312,-0.065046376767081,-0.6220097826575399,5.331,3.0,0.096097729,-0.144178403,0.964748058,-0.059271309,0.319055232,-1.472800644,0.8373605673899536,-0.0921698525840353,-0.020997419819117003,-0.53841536643743,5.331,4.0,0.063930255,-0.198147828,0.957198705,0.488489031,0.49114759,-0.257403,0.8556361773690954,-0.0987427800093262,0.008072310576496655,-0.5080073160646292,5.333,5.0,-0.199119494,-0.033857028,0.959259156,0.112261587,-1.008408829,0.18527392,0.6084570062975755,0.0005118446530381615,0.04369858506334917,-0.7923826368402481,5.332,6.0,-0.074963683,-0.125135042,0.969279458,0.546371404,-1.813724986,1.102797218,0.9586501389521704,0.08446859829906775,0.15040099343517813,-0.22635041012131332,5.333,7.0,-0.139009887,-0.040531507,0.969327833,0.42527745,3.047102348,-0.787161282,0.5494859343761539,0.13888845161415625,0.09497203911371527,-0.8183859222381396,5.333,8.0,0.466382761,-0.086884407,0.85712789,-3.500743264,-4.303795933,-3.411897178,0.4363177130231576,-0.44130475014523124,-0.23427418215873444,-0.748326518556808
