Timestamp,Ax,Ay,Az,Rx,Ry,Rz,HR_value
0,-0.8173,0.2479,-0.1387,1.3878,-0.2268,0.5865,109
0,-0.7755,0.2418,-0.1785,1.3878,-0.2268,0.5865,109
0,-0.7612,0.2377,-0.1837,1.3846,-0.2115,0.5887,109
0,-0.7612,0.2377,-0.1837,1.3454,-0.1701,0.5931,109
0,-0.7459,0.2418,-0.1837,1.317,-0.1362,0.5974,109
0,-0.7194,0.251,-0.2051,1.2909,-0.1133,0.6028,109
0,-0.7142,0.2531,-0.2081,1.2352,-0.1035,0.6083,109
0,-0.7153,0.2561,-0.2101,1.1796,-0.0915,0.6148,109
0,-0.7224,0.2693,-0.2071,1.1262,-0.0915,0.6181,109
0,-0.7234,0.251,-0.1765,1.0772,-0.0969,0.6192,109
0,-0.7438,0.2428,-0.1653,1.0303,-0.0925,0.6148,109
0,-0.7438,0.2428,-0.1653,1.0303,-0.0925,0.6148,109
0,-0.7479,0.2622,-0.1183,1.016,-0.0904,0.6062,109
0,-0.7479,0.2622,-0.1183,1.0194,-0.1013,0.6007,109
0,-0.7724,0.25,-0.1122,1.0041,-0.1068,0.5931,109
0,-0.751,0.2561,-0.0918,1.0051,-0.11,0.5767,109
0,-0.7388,0.2775,-0.0979,1.04,-0.1221,0.556,109
0,-0.7388,0.3316,-0.0867,1.0826,-0.1112,0.5309,109
0,-0.7367,0.299,-0.1,1.0816,-0.1013,0.4971,109
0,-0.7336,0.2888,-0.1275,1.0444,-0.1035,0.4437,109
0,-0.7092,0.3582,-0.0989,1.1098,-0.1112,0.3891,109
0,-0.7092,0.3582,-0.0989,1.1098,-0.1112,0.3891,109
0,-0.6796,0.3796,-0.0602,1.184,-0.1177,0.3096,109
0,-0.7092,0.3132,-0.0693,1.136,-0.0806,0.2278,109
0,-0.6938,0.2643,-0.0612,1.1055,-0.0751,0.1537,109
0,-0.7101,0.2061,-0.001,1.209,-0.098,0.0925,109
0,-0.7663,0.1602,-0.0153,1.2886,-0.0446,0.0305,109
0,-0.8041,0.1826,-0.0347,1.341,0.0065,-0.0349,109
0,-0.7724,0.2408,-0.0612,1.4794,-0.0097,-0.098,109
0,-0.8418,0.2479,-0.1204,1.5601,0.0043,-0.1701,109
0,-0.8806,0.2214,-0.1612,1.4958,0.0806,-0.2213,109
0,-0.8591,0.2306,-0.1969,1.4958,0.0806,-0.2213,109
0,-0.8591,0.2306,-0.1969,1.449,0.0959,-0.2573,109
0,-0.8418,0.2336,-0.2326,1.4282,0.0883,-0.2768,109
0,-0.9081,0.1867,-0.2795,1.3497,0.1558,-0.2976,109
0,-0.9214,0.1847,-0.2898,1.2897,0.2071,-0.2943,109
0,-0.9449,0.1673,-0.3184,1.2537,0.2201,-0.2714,109
0,-1.0061,0.1551,-0.353,1.1959,0.2529,-0.2453,109
0,-1.0234,0.1816,-0.3734,1.1654,0.3117,-0.218,109
0,-0.9969,0.2265,-0.3898,1.1764,0.3292,-0.182,109
0,-1.0336,0.2877,-0.4194,1.1764,0.3292,-0.182,109
0,-1.1112,0.3214,-0.5081,1.1589,0.3575,-0.1482,109
0,-1.1112,0.3214,-0.5081,1.1022,0.4034,-0.1144,109
0,-1.1755,0.3489,-0.5388,1.0738,0.4307,-0.0686,109
0,-1.1908,0.3479,-0.5469,1.016,0.4481,-0.0228,109
0,-1.2275,0.3275,-0.5724,0.8994,0.4601,0.0131,109
0,-1.2234,0.3255,-0.5816,0.7991,0.4589,0.0806,109
0,-1.2061,0.2857,-0.5806,0.6791,0.4328,0.1537,109
0,-1.1918,0.2224,-0.5632,0.5276,0.4099,0.2388,109
0,-1.0693,0.1837,-0.499,0.5276,0.4099,0.2388,109
0,-1.0275,0.1694,-0.4836,0.4414,0.3804,0.3281,109
0,-0.9642,0.1541,-0.4663,0.4109,0.3489,0.4229,109
0,-0.9642,0.1541,-0.4663,0.3542,0.3357,0.5156,109
0,-0.9092,0.1571,-0.4571,0.3151,0.326,0.6039,109
0,-0.8132,0.1898,-0.452,0.3314,0.3161,0.6923,109
0,-0.7908,0.2051,-0.4398,0.363,0.3248,0.7718,109
0,-0.7704,0.2133,-0.4418,0.388,0.3357,0.8351,109
0,-0.704,0.2561,-0.4347,0.4295,0.3248,0.8918,109
0,-0.6928,0.2898,-0.4296,0.4721,0.3183,0.9321,109
0,-0.6806,0.3173,-0.4296,0.5135,0.3357,0.9507,109
0,-0.6775,0.3428,-0.4408,0.5135,0.3357,0.9507,109
0,-0.6775,0.3428,-0.4408,0.5593,0.3597,0.9517,109
0,-0.6622,0.3469,-0.454,0.5778,0.3838,0.9408,109
0,-0.6541,0.3439,-0.4642,0.5833,0.3979,0.9212,109
0,-0.6367,0.3265,-0.4745,0.5931,0.4208,0.8939,109
0,-0.6694,0.3184,-0.5102,0.5887,0.4666,0.8744,109
0,-0.6928,0.3469,-0.5224,0.5984,0.508,0.8645,109
0,-0.6867,0.3632,-0.5183,0.6106,0.5179,0.8656,109
0,-0.6735,0.3316,-0.5357,0.5669,0.5276,0.8601,109
0,-0.6877,0.2898,-0.5377,0.5112,0.5516,0.8514,109
0,-0.6765,0.301,-0.5347,0.5112,0.5516,0.8514,109
0,-0.6765,0.301,-0.5347,0.4992,0.5582,0.8514,109
0,-0.6581,0.2969,-0.5469,0.4797,0.5331,0.8569,109
0,-0.6377,0.2898,-0.5928,0.4252,0.4916,0.8471,109
0,-0.6377,0.2898,-0.5928,0.4481,0.4742,0.8405,109
0,-0.6408,0.2908,-0.5989,0.4458,0.4372,0.8252,109
0,-0.6224,0.2959,-0.6275,0.4132,0.3946,0.8078,109
0,-0.6255,0.3143,-0.6489,0.4077,0.3575,0.7871,109
0,-0.6418,0.3214,-0.6683,0.4055,0.339,0.7686,109
0,-0.65,0.3306,-0.6775,0.3771,0.3183,0.7533,109
0,-0.6632,0.3612,-0.7081,0.3412,0.2899,0.7447,109
0,-0.6673,0.3806,-0.7245,0.3412,0.2899,0.7447,109
0,-0.6673,0.3806,-0.7245,0.314,0.2725,0.7327,109
0,-0.6755,0.403,-0.7194,0.2682,0.2714,0.7163,109
0,-0.6755,0.403,-0.7194,0.1787,0.2703,0.6923,109
0,-0.6683,0.3928,-0.7234,0.0719,0.2507,0.6869,109
0,-0.6479,0.3877,-0.7092,-0.0206,0.2365,0.6737,109
0,-0.6469,0.3806,-0.7122,-0.1035,0.242,0.6562,109
0,-0.65,0.3785,-0.7194,-0.1766,0.2518,0.6345,109
0,-0.6224,0.3745,-0.701,-0.2388,0.2573,0.6028,109
0,-0.6143,0.3734,-0.7081,-0.3096,0.2398,0.5745,109
0,-0.5948,0.353,-0.7092,-0.3685,0.2213,0.544,109
0,-0.6071,0.3224,-0.7101,-0.3685,0.2213,0.544,109
0,-0.6071,0.3224,-0.7101,-0.4284,0.231,0.508,109
0,-0.6,0.3336,-0.7133,-0.4448,0.2409,0.4742,109
0,-0.6082,0.3489,-0.7061,-0.4622,0.2321,0.4448,109
0,-0.6163,0.3234,-0.7061,-0.5167,0.2354,0.424,109
0,-0.6346,0.3336,-0.7,-0.5679,0.2453,0.4,109
0,-0.6449,0.3561,-0.6949,-0.5996,0.2464,0.3859,109
0,-0.6459,0.3612,-0.6673,-0.6476,0.2562,0.3706,109
0,-0.6703,0.3622,-0.6612,-0.7163,0.2638,0.363,109
0,-0.6642,0.3591,-0.65,-0.7773,0.2605,0.363,109
0,-0.6653,0.3418,-0.6469,-0.7773,0.2605,0.363,109
0,-0.6653,0.3418,-0.6469,-0.8307,0.2507,0.3695,109
0,-0.6724,0.3265,-0.6592,-0.8809,0.242,0.3783,109
0,-0.6673,0.3612,-0.652,-0.8809,0.2201,0.3903,109
0,-0.6673,0.401,-0.6408,-0.846,0.2147,0.3958,109
0,-0.703,0.4285,-0.6459,-0.8373,0.2278,0.3914,109
0,-0.7336,0.4785,-0.6439,-0.8656,0.2333,0.3914,109
1,-0.7397,0.502,-0.6377,-0.8918,0.2289,0.388,109
1,-0.7561,0.504,-0.6439,-0.9365,0.218,0.4012,109
1,-0.7826,0.5102,-0.6346,-0.9365,0.218,0.4012,109
1,-0.8602,0.5306,-0.5908,-0.9877,0.218,0.4208,109
1,-0.8602,0.5306,-0.5908,-1.0303,0.2169,0.4742,109
1,-0.9041,0.5234,-0.5745,-1.0869,0.1995,0.5374,109
1,-0.9265,0.5357,-0.5398,-1.1316,0.1635,0.5952,109
1,-0.9122,0.5428,-0.4347,-1.1382,0.1089,0.6541,109
1,-0.8949,0.5398,-0.3704,-1.173,0.0621,0.7031,109
1,-0.8448,0.5183,-0.3663,-1.1915,0.0011,0.7598,109
1,-0.7877,0.5326,-0.3081,-1.1698,-0.0534,0.81,109
1,-0.7071,0.5581,-0.2693,-1.1295,-0.085,0.8504,109
1,-0.6428,0.5745,-0.2438,-1.1295,-0.085,0.8504,109
1,-0.5908,0.5786,-0.2673,-1.1043,-0.0883,0.8634,109
1,-0.5908,0.5786,-0.2673,-1.0869,-0.0915,0.8601,109
1,-0.5163,0.6112,-0.2602,-1.0782,-0.0719,0.8373,109
1,-0.5071,0.6214,-0.2693,-1.0684,-0.0261,0.8078,109
1,-0.5102,0.6418,-0.2653,-1.0629,0.0185,0.7741,109
1,-0.4979,0.6459,-0.2653,-1.0717,0.0414,0.7359,109
1,-0.5234,0.7101,-0.3143,-1.0869,0.0469,0.701,109
1,-0.553,0.7388,-0.3326,-1.111,0.0643,0.6672,109
1,-0.6224,0.7979,-0.3347,-1.135,0.0925,0.6345,109
1,-0.6153,0.8632,-0.3418,-1.135,0.0925,0.6345,109
1,-0.6153,0.8632,-0.3418,-1.1589,0.0577,0.628,109
1,-0.5959,0.8408,-0.3377,-1.268,0.0032,0.5865,109
1,-0.5755,0.8306,-0.3102,-1.3922,-0.0053,0.5669,109
1,-0.5959,0.8286,-0.2622,-1.4914,0.0076,0.6454,109
1,-0.5561,0.6714,-0.2786,-1.6724,0.0206,0.7293,109
1,-0.5163,0.6275,-0.2163,-1.8556,-0.0043,0.7729,109
1,-0.4816,0.6357,-0.2153,-1.8741,-0.0185,0.8199,109
1,-0.4745,0.6898,-0.1857,-1.8556,-0.0021,0.8525,109
1,-0.4357,0.7234,-0.153,-1.8556,0.0076,0.8733,109
1,-0.4194,0.7397,-0.1316,-1.8556,0.0076,0.8733,109
1,-0.4194,0.7397,-0.1316,-1.8622,0.0217,0.8842,109
1,-0.4092,0.7469,-0.101,-1.8534,0.0425,0.8722,109
1,-0.4163,0.7643,-0.0398,-1.8349,0.0763,0.846,109
1,-0.3918,0.7857,-0.0112,-1.8109,0.1047,0.809,109
1,-0.4041,0.8234,-0.0183,-1.8153,0.1123,0.7741,109
1,-0.3653,0.85,-0.001,-1.8273,0.1264,0.7501,109
1,-0.3989,0.8765,-0.0316,-1.8425,0.1657,0.6999,109
1,-0.4326,0.9438,-0.0102,-1.7901,0.2474,0.6574,109
1,-0.4418,0.9622,-0.0163,-1.7771,0.2594,0.6301,109
1,-0.499,0.8877,-0.051,-1.7771,0.2594,0.6301,109
1,-0.5286,0.9051,-0.0163,-1.8338,0.2464,0.5996,109
1,-0.5286,0.9051,-0.0163,-1.8327,0.267,0.5778,109
1,-0.5388,0.9469,0.0143,-1.7357,0.2638,0.5494,109
1,-0.5408,0.95,0.0367,-1.6844,0.2201,0.5331,109
1,-0.4734,0.8173,0.0734,-1.7444,0.1623,0.5255,109
1,-0.4561,0.7816,0.1183,-1.7575,0.1264,0.5167,109
1,-0.45,0.7877,0.1683,-1.6615,0.1253,0.5135,109
1,-0.4163,0.7918,0.2183,-1.5547,0.1396,0.5102,109
1,-0.3683,0.8132,0.2693,-1.4914,0.1482,0.508,109
1,-0.3459,0.8755,0.3184,-1.4914,0.1482,0.508,109
1,-0.3469,0.9183,0.3377,-1.3977,0.1852,0.507,109
1,-0.3469,0.9183,0.3377,-1.3149,0.2464,0.5004,109
1,-0.3602,0.9785,0.2949,-1.3105,0.3063,0.4841,109
1,-0.3959,1.0561,0.3245,-1.2701,0.3445,0.483,109
1,-0.45,1.0602,0.3612,-1.1501,0.4109,0.4677,109
1,-0.5183,0.9275,0.3061,-1.1884,0.4895,0.4263,109
1,-0.4857,0.8755,0.2683,-1.2178,0.4666,0.3968,109
1,-0.4347,0.9561,0.2938,-1.0662,0.3434,0.4109,109
1,-0.4285,0.9377,0.2826,-1.0662,0.3434,0.4109,109
1,-0.4285,0.9377,0.2826,-0.9845,0.2768,0.4338,109
1,-0.3918,0.8673,0.3071,-1.0139,0.2725,0.4481,109
1,-0.3918,0.8673,0.3071,-0.9027,0.2115,0.4807,109
1,-0.3204,0.8612,0.3214,-0.7327,0.0992,0.5167,109
1,-0.2938,0.8224,0.3152,-0.653,0.0555,0.5309,109
1,-0.2122,0.9806,0.4071,-0.4982,0.086,0.5255,109
1,-0.1826,1.0684,0.4306,-0.2888,0.1047,0.5091,109
1,-0.1479,1.0826,0.4367,-0.2453,0.1537,0.4698,109
1,-0.1377,1.0918,0.4275,-0.267,0.2333,0.4023,109
1,-0.1255,1.1234,0.4092,-0.2344,0.3183,0.3248,109
1,-0.1255,1.1234,0.4092,-0.2344,0.3183,0.3248,109
1,-0.1275,1.1265,0.3857,-0.1744,0.4099,0.2344,109
1,-0.1826,1.0877,0.3296,-0.0925,0.532,0.0337,109
1,-0.1918,1.0796,0.3173,-0.0196,0.5635,-0.0479,109
1,-0.1918,1.0796,0.3173,0.0414,0.5679,-0.1253,109
1,-0.2092,1.0755,0.3184,0.1024,0.569,-0.1896,109
1,-0.2388,1.0541,0.3296,0.1766,0.5635,-0.2485,109
1,-0.2285,1.05,0.3489,0.2464,0.5461,-0.3085,109
1,-0.2153,1.0561,0.3643,0.3368,0.5418,-0.3695,109
1,-0.2296,1.0051,0.3704,0.4307,0.5516,-0.4328,109
1,-0.2326,0.9612,0.3582,0.5026,0.5734,-0.4884,109
1,-0.25,0.953,0.3469,0.5026,0.5734,-0.4884,109
1,-0.2714,0.9581,0.3367,0.5963,0.5865,-0.532,109
1,-0.2714,0.9581,0.3367,0.7359,0.5984,-0.5734,109
1,-0.2898,0.9755,0.3336,0.8624,0.6138,-0.6159,109
1,-0.3041,0.9785,0.3204,0.9528,0.6213,-0.6562,109
1,-0.3132,0.9673,0.2959,1.0009,0.6213,-0.6944,109
1,-0.3051,0.9438,0.2714,1.0171,0.6291,-0.738,109
1,-0.2908,0.9377,0.2275,1.0618,0.6486,-0.7817,109
1,-0.3,0.9357,0.2194,1.1459,0.6781,-0.8264,109
1,-0.3051,0.9306,0.2173,1.1993,0.7163,-0.8733,109
1,-0.2938,0.9285,0.1908,1.1993,0.7163,-0.8733,109
1,-0.2938,0.9285,0.1908,1.2331,0.7272,-0.9147,109
1,-0.2979,0.9183,0.1806,1.2712,0.7413,-0.9561,109
1,-0.3051,0.8806,0.1703,1.3224,0.7762,-1.0019,109
1,-0.3336,0.8448,0.1489,1.3704,0.8132,-1.0509,109
1,-0.3724,0.8112,0.105,1.4402,0.81,-1.0902,109
1,-0.3806,0.7908,0.0745,1.5143,0.7861,-1.124,109
1,-0.3949,0.7602,0.0469,1.5896,0.7566,-1.1589,109
1,-0.4398,0.7367,0.0469,1.7215,0.7249,-1.1915,109
1,-0.4438,0.752,0.0255,1.8731,0.6803,-1.2308,109
1,-0.4459,0.7357,0.0469,1.8731,0.6803,-1.2308,109
1,-0.4459,0.7357,0.0469,1.9875,0.6127,-1.2668,109
1,-0.4622,0.6867,0.0316,2.0463,0.544,-1.2876,109
1,-0.4622,0.5806,0.0224,2.0944,0.4677,-1.2962,109
1,-0.4796,0.5693,0.0153,2.2154,0.3935,-1.3006,109
1,-0.4979,0.5602,-0.001,2.38,0.3554,-1.3203,109
1,-0.5061,0.5673,-0.0265,2.5076,0.3151,-1.3399,109
2,-0.5306,0.6,-0.0734,2.6352,0.2562,-1.3432,109
2,-0.5734,0.5438,-0.1418,2.6821,0.2136,-1.329,109
2,-0.603,0.4337,-0.203,2.669,0.1831,-1.3061,109
2,-0.7112,0.2714,-0.3357,2.669,0.1831,-1.3061,109
2,-0.7836,0.2306,-0.3928,2.706,0.1646,-1.2636,109
2,-0.7836,0.2306,-0.3928,2.8052,0.1623,-1.2069,109
2,-0.8143,0.0479,-0.4826,2.8903,0.1613,-1.1491,109
2,-0.9051,0.1724,-0.5918,3.0396,0.1787,-1.0488,109
2,-1.0265,0.2551,-0.5979,3.1574,0.1701,-1.0303,109
2,-0.9408,0.2214,-0.6735,3.0789,-0.0053,-1.0041,109
2,-0.8714,0.2092,-0.6908,2.9404,-0.1842,-0.9212,109
2,-0.9449,0.1112,-0.7765,2.7703,-0.1667,-0.8252,109
2,-0.8816,0.2571,-0.8,2.7703,-0.1667,-0.8252,109
2,-0.8469,0.351,-0.7938,2.693,-0.1995,-0.7304,109
2,-0.8245,0.2898,-0.8316,2.6558,-0.3422,-0.64,109
2,-0.8245,0.2898,-0.8316,2.4433,-0.4807,-0.5582,109
2,-0.7336,0.4326,-0.7734,2.3069,-0.5822,-0.496,109
2,-0.7316,0.449,-0.7734,2.3386,-0.6454,-0.4698,109
2,-0.751,0.3908,-0.7326,2.2296,-0.6356,-0.4655,109
2,-0.7275,0.3387,-0.7357,2.0999,-0.6508,-0.4349,109
2,-0.7428,0.203,-0.7081,1.9897,-0.664,-0.4012,109
2,-0.7734,0.1571,-0.6765,1.9002,-0.6083,-0.3609,109
2,-0.7826,0.1234,-0.6571,1.9002,-0.6083,-0.3609,109
2,-0.7959,0.0796,-0.6459,1.8534,-0.5658,-0.2998,109
2,-0.8347,0.0643,-0.6602,1.7968,-0.5614,-0.2071,109
2,-0.8347,0.0643,-0.6602,1.7182,-0.544,-0.1198,109
2,-0.8224,0.0877,-0.6285,1.7062,-0.5233,-0.0206,109
2,-0.8326,0.0979,-0.6204,1.7247,-0.5255,0.0664,109
2,-0.8428,0.101,-0.6275,1.6909,-0.5265,0.1537,109
2,-0.8071,0.1132,-0.6214,1.6419,-0.5658,0.2388,109
2,-0.7877,0.1163,-0.6326,1.5831,-0.6171,0.3151,109
2,-0.7296,0.1898,-0.653,1.5459,-0.653,0.3761,109
2,-0.7347,0.2663,-0.6581,1.5874,-0.6749,0.4197,109
2,-0.7347,0.2663,-0.6581,1.5874,-0.6749,0.4197,109
2,-0.7663,0.2826,-0.7092,1.6092,-0.6749,0.4546,109
2,-0.8051,0.2795,-0.7336,1.5623,-0.6672,0.4698,109
2,-0.7775,0.2173,-0.8122,1.4958,-0.6934,0.4742,109
2,-0.7938,0.1928,-0.8326,1.4086,-0.7435,0.5004,109
2,-0.7857,0.15,-0.8683,1.2897,-0.7783,0.532,109
2,-0.7632,0.1285,-0.9,1.1698,-0.8067,0.5658,109
2,-0.7663,0.1703,-0.8663,1.1066,-0.8373,0.6138,109
2,-0.8081,0.1173,-0.9163,0.9736,-0.8493,0.6356,109
2,-0.7245,0.2347,-0.8724,0.9736,-0.8493,0.6356,109
2,-0.7153,0.1979,-0.8336,0.8765,-0.9223,0.6508,109
2,-0.7153,0.1979,-0.8336,0.7478,-1.0118,0.6432,109
2,-0.7245,0.2101,-0.7469,0.5734,-1.015,0.6148,109
2,-0.6653,0.2112,-0.749,0.5211,-1.0772,0.5767,109
2,-0.65,0.2183,-0.7061,0.4851,-1.1251,0.532,109
2,-0.6949,0.1071,-0.7245,0.4034,-1.1152,0.4666,109
2,-0.7122,0.1112,-0.7224,0.3935,-1.1142,0.4372,109
2,-0.6979,0.1316,-0.7459,0.4338,-1.1665,0.4023,109
2,-0.7734,0.203,-0.754,0.4404,-1.1753,0.3597,109
2,-0.8091,0.2755,-0.7561,0.4404,-1.1753,0.3597,109
2,-0.7979,0.3387,-0.749,0.3859,-1.1501,0.3216,109
2,-0.7979,0.3387,-0.749,0.2954,-1.1796,0.2911,109
2,-0.7786,0.3612,-0.7581,0.1024,-1.2188,0.2539,109
2,-0.7051,0.3469,-0.7133,-0.1547,-1.2352,0.2039,109
2,-0.6642,0.355,-0.6642,-0.3586,-1.2298,0.1591,109
2,-0.6163,0.3612,-0.602,-0.5341,-1.1873,0.1188,109
2,-0.5939,0.3286,-0.5632,-0.7293,-1.1055,0.0784,109
2,-0.5591,0.2214,-0.4816,-0.9027,-1.0118,0.0469,109
2,-0.5469,0.1755,-0.4387,-1.0118,-0.9191,0.0217,109
2,-0.5643,0.1428,-0.4102,-1.0118,-0.9191,0.0217,109
2,-0.5959,0.1163,-0.3582,-1.0564,-0.8012,-0.0011,109
2,-0.5959,0.1163,-0.3582,-1.0629,-0.6911,-0.012,109
2,-0.602,0.1082,-0.3591,-1.0477,-0.6106,-0.0349,109
2,-0.6204,0.1173,-0.3632,-1.0204,-0.5385,-0.0751,109
2,-0.6357,0.152,-0.3602,-0.9702,-0.4797,-0.1112,109
2,-0.653,0.1979,-0.3561,-0.9321,-0.4382,-0.1482,109
2,-0.6673,0.1673,-0.3683,-0.9605,-0.4077,-0.1755,109
2,-0.652,0.1357,-0.353,-1.0019,-0.3783,-0.2016,109
2,-0.65,0.1418,-0.3286,-0.9834,-0.3434,-0.2234,109
2,-0.6694,0.1694,-0.3316,-0.9834,-0.3434,-0.2234,109
2,-0.6694,0.1694,-0.3316,-0.979,-0.2791,-0.2464,109
2,-0.8245,0.3479,-0.4601,-1.0913,-0.1558,-0.2594,109
2,-0.8734,0.3989,-0.4877,-1.1753,-0.098,-0.2594,109
2,-0.8734,0.3989,-0.4877,-1.2407,-0.0545,-0.2627,109
2,-0.9367,0.4551,-0.5122,-1.2865,-0.0425,-0.2747,109
2,-0.9918,0.4918,-0.5255,-1.3334,-0.0511,-0.2878,109
2,-1.1612,0.5357,-0.5163,-1.4118,-0.0675,-0.2899,109
2,-1.2285,0.5153,-0.5204,-1.5362,-0.1188,-0.2638,109
2,-1.2888,0.4734,-0.5224,-1.6964,-0.2213,-0.2344,109
2,-1.252,0.3826,-0.4418,-1.8534,-0.3575,-0.1896,109
2,-1.2326,0.3459,-0.3908,-1.9341,-0.4797,-0.1613,109
2,-1.1887,0.2979,-0.3489,-1.9341,-0.4797,-0.1613,109
2,-1.103,0.2592,-0.3132,-1.994,-0.5745,-0.1329,109
2,-1.103,0.2592,-0.3132,-2.0463,-0.6846,-0.1057,109
2,-0.901,0.2683,-0.2693,-2.065,-0.7795,-0.0904,109
2,-0.8173,0.3245,-0.2306,-2.0236,-0.809,-0.0839,109
2,-0.751,0.3775,-0.2051,-1.9887,-0.7653,-0.1089,109
2,-0.6796,0.4459,-0.1785,-2.0093,-0.6978,-0.1581,109
2,-0.6663,0.4367,-0.202,-2.1009,-0.6159,-0.218,109
2,-0.6571,0.4081,-0.2255,-2.223,-0.5299,-0.2932,109
2,-0.6642,0.3989,-0.2245,-2.3037,-0.4099,-0.3826,109
2,-0.704,0.3561,-0.2092,-2.3037,-0.4099,-0.3826,109
2,-0.7092,0.2806,-0.2133,-2.3561,-0.2976,-0.4797,109
2,-0.7092,0.2806,-0.2133,-2.4574,-0.2115,-0.5702,109
2,-0.7194,0.1949,-0.2122,-2.5904,-0.1526,-0.6432,109
2,-0.7438,0.1489,-0.1898,-2.6733,-0.098,-0.6661,109
2,-0.8867,0.1,-0.1642,-2.7376,-0.0261,-0.6694,109
2,-0.8979,0.1143,-0.1204,-2.8368,-0.0162,-0.6814,109
2,-0.954,0.1183,-0.1765,-2.9458,-0.0643,-0.6585,109
2,-1.0234,0.1275,-0.153,-3.0963,-0.1024,-0.6203,109
2,-1.0581,0.1377,-0.1632,-3.2588,-0.1503,-0.5635,109
2,-1.1296,0.1571,-0.1326,-3.2588,-0.1503,-0.5635,109
2,-1.1296,0.1571,-0.1326,-3.3515,-0.1842,-0.5179,109
2,-1.1245,0.1102,-0.1102,-3.4725,-0.2453,-0.4677,109
2,-1.1091,-0.0459,-0.0836,-3.5902,-0.3542,-0.4109,109
2,-1.103,-0.0745,-0.0092,-3.5663,-0.4229,-0.3412,109
2,-1.1439,-0.0326,0.1245,-3.4768,-0.4546,-0.2627,109
3,-0.9612,-0.1622,0.201,-3.466,-0.5036,-0.218,109
3,-0.9888,-0.053,0.3265,-3.2828,-0.5059,-0.1047,109
3,-0.8837,-0.1367,0.3479,-3.1552,-0.4175,-0.0097,109
3,-0.8816,-0.2,0.3918,-3.1977,-0.339,0.0,109
3,-0.8653,-0.1735,0.4704,-3.1977,-0.339,0.0,109
3,-0.8653,-0.1735,0.4704,-3.0843,-0.2409,0.1188,109
3,-0.9734,-0.202,0.5224,-2.9295,-0.086,0.2224,109
3,-1.0755,-0.1082,0.5071,-2.8086,0.0479,0.2856,109
3,-0.9714,-0.105,0.4908,-2.6602,0.0043,0.3663,109
3,-1.0367,-0.1367,0.4918,-2.5065,0.074,0.4546,109
3,-1.1102,0.0031,0.5918,-2.1751,0.3586,0.5167,109
3,-1.105,0.0887,0.6204,-1.9221,0.3914,0.5614,109
3,-0.9775,-0.1255,0.5316,-1.9963,0.2539,0.665,109
3,-0.9724,-0.1479,0.5306,-2.0431,0.2278,0.7522,109
3,-1.0255,-0.0816,0.5541,-2.0431,0.2278,0.7522,109
3,-1.0255,-0.0816,0.5541,-1.7564,0.3271,0.8231,109
3,-1.0438,-0.0663,0.5234,-1.4685,0.3958,0.8863,109
3,-1.0796,0.0612,0.4683,-1.2941,0.3848,0.9365,109
3,-0.9694,0.1979,0.4796,-1.0564,0.2888,0.991,109
3,-0.9398,0.3,0.502,-0.8416,0.218,1.0379,109
3,-1.0632,0.1653,0.5,-0.8319,0.3193,1.0499,109
3,-1.051,0.1041,0.4642,-0.9168,0.3336,1.0957,109
3,-1.0081,0.105,0.4479,-0.9168,0.3336,1.0957,109
3,-0.9888,0.1285,0.4112,-0.8656,0.2201,1.1808,109
3,-1.0867,0.2347,0.3939,-0.7228,0.1623,1.2461,109
3,-1.0867,0.2347,0.3939,-0.5353,0.2201,1.2832,109
3,-1.1102,0.3061,0.3796,-0.3445,0.255,1.3235,109
3,-1.0755,0.3408,0.3857,-0.2518,0.1984,1.3727,109
3,-1.0265,0.199,0.2836,-0.2888,0.1406,1.4063,109
3,-0.9867,0.2051,0.2693,-0.3008,0.1264,1.4412,109
3,-0.9449,0.2888,0.2836,-0.1558,0.1177,1.4794,109
3,-0.9,0.3653,0.3041,-0.0282,0.0937,1.5253,109
3,-0.8336,0.3775,0.2765,-0.0425,0.0904,1.5753,109
3,-0.8112,0.3582,0.2745,-0.0425,0.0904,1.5753,109
3,-0.8112,0.3582,0.2745,-0.1013,0.0883,1.6201,109
3,-0.7979,0.3306,0.2388,-0.1047,0.1024,1.6669,109
3,-0.7806,0.3214,0.1877,-0.061,0.1079,1.6909,109
3,-0.7163,0.4592,0.1806,0.0555,0.1253,1.6909,109
3,-0.6755,0.5092,0.1592,0.1537,0.1123,1.6844,109
3,-0.6449,0.5479,0.1449,0.1602,0.1035,1.6528,109
3,-0.5561,0.652,0.1041,0.1635,0.1003,1.6146,109
3,-0.5673,0.7265,0.0877,0.1635,0.0828,1.5874,109
3,-0.5469,0.7316,0.0765,0.1112,0.0904,1.5177,109
3,-0.5265,0.7296,0.0673,0.1112,0.0904,1.5177,109
3,-0.5265,0.7296,0.0673,-0.012,0.1112,1.4042,109
3,-0.5275,0.8214,0.0969,-0.0643,0.1232,1.3639,109
3,-0.5388,0.7786,0.0877,-0.2159,0.1373,1.3105,109
3,-0.552,0.7449,0.0765,-0.4099,0.1537,1.2374,109
3,-0.5826,0.7979,0.1163,-0.483,0.1581,1.1741,109
3,-0.6234,0.7847,0.1306,-0.5047,0.1864,1.099,109
3,-0.651,0.7449,0.1387,-0.5887,0.2016,1.0248,109
3,-0.6612,0.7438,0.1581,-0.6072,0.181,0.9855,109
3,-0.6694,0.7888,0.2724,-0.5484,0.1711,0.9387,109
3,-0.6602,0.7602,0.302,-0.5484,0.1711,0.9387,109
3,-0.6377,0.6765,0.2959,-0.508,0.1732,0.9059,109
3,-0.6377,0.6765,0.2959,-0.4982,0.1308,0.8897,109
3,-0.5918,0.6071,0.2908,-0.4034,0.049,0.8842,109
3,-0.4642,0.8051,0.2786,-0.1417,-0.012,0.8897,109
3,-0.5989,0.9367,0.3071,0.1907,0.0141,0.8809,109
3,-0.6469,0.9092,0.2622,0.3107,0.1177,0.8046,109
3,-0.6847,0.9173,0.1285,0.2453,0.1155,0.7424,109
3,-0.7683,0.8867,0.101,0.2245,0.1951,0.6901,109
3,-0.8,0.8122,0.0612,0.2245,0.1951,0.6901,109
3,-0.7142,0.6642,-0.0102,0.061,0.2583,0.6486,109
3,-0.6398,0.6887,-0.004,-0.218,0.1842,0.6737,109
3,-0.6398,0.6887,-0.004,-0.3477,0.157,0.6955,109
3,-0.605,0.8489,0.0571,-0.3151,0.1744,0.7501,109
3,-0.6214,0.8286,0.0989,-0.3979,0.1493,0.797,109
3,-0.5806,0.8275,0.1346,-0.5757,0.11,0.8275,109
3,-0.6571,0.7745,0.2234,-0.5528,0.0904,0.87,109
3,-0.6153,0.9183,0.2867,-0.4437,0.1057,0.9387,109
3,-0.6102,0.8234,0.3296,-0.4469,0.0904,0.8231,109
3,-0.5163,0.7775,0.3224,-0.4469,0.0904,0.8231,109
3,-0.5316,0.9183,0.4051,-0.4546,0.0763,0.7403,109
3,-0.4785,0.8296,0.3255,-0.3183,0.1798,0.6574,109
3,-0.5031,1.049,0.3724,-0.3183,0.1798,0.6574,109
3,-0.5031,1.049,0.3724,-0.2791,0.1951,0.6312,109
3,-0.4847,1.0755,0.35,-0.1188,0.2125,0.5757,109
3,-0.5214,1.0245,0.3132,-0.1678,0.2388,0.4807,109
3,-0.4642,1.0388,0.3969,-0.1068,0.2093,0.4393,109
3,-0.3939,0.9775,0.3969,-0.0305,0.0969,0.4034,109
3,-0.3785,0.9112,0.3918,-0.0011,0.0784,0.3357,109
3,-0.3724,0.8949,0.3837,0.1112,0.1297,0.2737,109
3,-0.3591,0.9622,0.3785,0.2693,0.1396,0.231,109
3,-0.3653,0.9357,0.3469,0.3314,0.1482,0.193,109
3,-0.353,0.9316,0.3184,0.3314,0.1482,0.193,109
3,-0.3806,1.0031,0.2836,0.3542,0.1558,0.1526,109
3,-0.3806,1.0031,0.2836,0.4731,0.182,0.1013,109
3,-0.3939,0.9969,0.2592,0.5604,0.2344,0.0402,109
3,-0.3939,0.9796,0.2122,0.5429,0.2605,-0.0174,109
3,-0.3806,0.9949,0.1887,0.5156,0.2539,-0.061,109
3,-0.3622,0.9785,0.1837,0.4797,0.255,-0.1013,109
3,-0.3704,0.9469,0.1703,0.3717,0.2779,-0.1384,109
3,-0.3806,0.9132,0.1744,0.2747,0.2998,-0.1537,109
3,-0.3796,0.8714,0.1826,0.2747,0.2998,-0.1537,109
3,-0.352,0.7673,0.203,0.2169,0.2911,-0.1701,109
3,-0.352,0.7673,0.203,0.1602,0.2802,-0.1896,109
3,-0.3683,0.7877,0.2214,0.1711,0.3063,-0.2136,109
3,-0.3612,0.8377,0.2438,0.2321,0.3336,-0.2333,109
3,-0.3622,0.8296,0.2418,0.2278,0.3477,-0.2485,109
3,-0.3541,0.8102,0.2265,0.1896,0.3771,-0.2682,109
3,-0.3428,0.8275,0.2285,0.2256,0.3924,-0.2812,109
3,-0.3448,0.85,0.2469,0.3096,0.4284,-0.2954,109
3,-0.401,0.8734,0.2275,0.3575,0.4513,-0.3107,109
3,-0.4092,0.9081,0.2357,0.3575,0.4513,-0.3107,109
3,-0.4092,0.9081,0.2357,0.4197,0.4372,-0.3172,109
3,-0.4265,0.903,0.252,0.495,0.4143,-0.3401,109
3,-0.4877,0.7285,0.1489,0.5124,0.4273,-0.3794,109
3,-0.4765,0.7418,0.1337,0.5593,0.4153,-0.4175,109
3,-0.4438,0.8214,0.1673,0.7249,0.3674,-0.4338,109
4,-0.4296,0.8591,0.1602,0.8296,0.3281,-0.4328,109
4,-0.4785,0.7908,0.1224,0.7686,0.3434,-0.4328,109
4,-0.4326,0.8418,0.1551,0.7718,0.3575,-0.4349,109
4,-0.3816,0.9275,0.1775,0.8416,0.3434,-0.4317,109
4,-0.35,0.9581,0.1663,0.8416,0.3434,-0.4317,109
4,-0.35,0.9581,0.1663,0.8155,0.4,-0.4481,109
4,-0.3918,0.9897,0.152,0.7544,0.5233,-0.4698,109
4,-0.4081,0.9867,0.1449,0.7642,0.6236,-0.4851,109
4,-0.4214,0.9592,0.1061,0.7163,0.6825,-0.508,109
4,-0.4928,0.8653,0.0948,0.6574,0.7348,-0.5276,109
4,-0.5306,0.803,0.0316,0.5778,0.7598,-0.5429,109
4,-0.5602,0.8286,-0.0092,0.5473,0.7632,-0.5963,109
4,-0.5377,0.9255,-0.002,0.6715,0.7293,-0.6705,109
4,-0.552,1.0622,0.051,0.7676,0.7119,-0.7642,109
4,-0.5745,0.9734,0.0418,0.7676,0.7119,-0.7642,109
4,-0.5887,0.8173,0.0071,0.6901,0.7031,-0.8744,109
4,-0.5887,0.8173,0.0071,0.5255,0.6225,-0.9528,109
4,-0.5112,0.651,0.0724,0.4884,0.4982,-0.9975,109
4,-0.5224,0.7122,0.1265,0.6966,0.4143,-1.0345,109
4,-0.5541,0.752,0.1489,0.9038,0.3958,-1.0553,109
4,-0.5581,0.704,0.1163,0.9082,0.3771,-1.0564,109
4,-0.6285,0.7224,0.1683,0.9582,0.3619,-1.0761,109
4,-0.5979,0.7734,0.1928,1.1033,0.3532,-1.1033,109
4,-0.5581,0.7275,0.1683,1.1033,0.3532,-1.1033,109
4,-0.5857,0.6571,0.1367,1.1098,0.3314,-1.1382,109
4,-0.5724,0.6428,0.202,1.0652,0.3838,-1.1894,109
4,-0.5724,0.6428,0.202,1.173,0.4307,-1.2374,109
4,-0.5602,0.5367,0.1938,1.2571,0.4426,-1.2722,109
4,-0.6041,0.3826,0.1357,1.1993,0.4731,-1.2985,109
4,-0.6224,0.3306,0.0652,1.2581,0.4557,-1.2516,109
4,-0.6602,0.3448,0.0377,1.4479,0.4034,-1.1982,109
4,-0.7163,0.3489,0.0,1.644,0.387,-1.2188,109
4,-0.751,0.4092,-0.0163,1.8719,0.3532,-1.2439,109
4,-0.851,0.5724,-0.0234,2.1041,0.3073,-1.2483,109
4,-0.9194,0.5786,-0.0163,2.1041,0.3073,-1.2483,109
4,-0.9806,0.5541,-0.002,2.2535,0.2954,-1.2734,109
4,-0.9806,0.5541,-0.002,2.3691,0.2779,-1.3071,109
4,-1.0643,0.4326,0.0438,2.4836,0.2659,-1.3519,109
4,-1.0887,0.2786,0.0163,2.512,0.2398,-1.3977,109
4,-1.0948,0.1428,0.0071,2.4956,0.2049,-1.4261,109
4,-1.0948,0.0714,-0.004,2.5784,0.157,-1.3846,109
4,-1.1479,-0.0796,-0.0449,2.6831,0.1242,-1.2974,109
4,-1.1898,-0.0745,-0.052,2.754,0.0915,-1.2113,109
4,-1.2959,-0.0591,-0.0643,2.875,0.0479,-1.1501,109
4,-1.2959,-0.0591,-0.0643,2.875,0.0479,-1.1501,109
4,-1.3448,-0.2133,-0.1887,2.9011,-0.0698,-1.1993,109
4,-1.4377,-0.0581,-0.1071,3.2567,-0.0763,-1.0618,109
4,-1.5887,-0.0643,-0.102,3.4757,-0.0589,-0.9048,109
4,-1.6122,-0.1867,-0.1785,3.2915,-0.1558,-0.7544,109
4,-1.6316,-0.3296,-0.2071,3.2435,-0.2899,-0.5669,109
4,-1.5948,-0.3408,-0.1602,3.4168,-0.3619,-0.3412,109
4,-1.5418,-0.4418,-0.1714,3.5019,-0.4197,-0.1035,109
4,-1.4326,-0.5836,-0.2336,3.5051,-0.4687,0.1537,109
4,-1.1255,-0.6061,-0.2326,3.5051,-0.4687,0.1537,109
4,-1.0295,-0.6377,-0.2755,3.6415,-0.5299,0.4992,109
4,-1.0295,-0.6377,-0.2755,3.7636,-0.5255,0.8493,109
4,-0.9785,-0.6439,-0.3193,3.8235,-0.4753,1.1272,109
4,-0.7786,-0.6673,-0.3867,3.9227,-0.4906,1.3279,109
4,-0.7112,-0.6285,-0.4071,4.0873,-0.5276,1.4402,109
4,-0.6255,-0.5745,-0.4398,4.3109,-0.4677,1.5209,109
4,-0.5357,-0.5265,-0.4918,4.3634,-0.3935,1.5982,109
4,-0.4775,-0.4357,-0.5459,4.3634,-0.3161,1.643,109
4,-0.3989,-0.4551,-0.549,4.3634,-0.2321,1.6223,109
4,-0.403,-0.4296,-0.8408,4.3634,-0.2321,1.6223,109
4,-0.4377,-0.2867,-1.101,4.3634,-0.0555,1.5753,109
4,-0.4377,-0.2867,-1.101,4.2401,0.2159,1.5002,109
4,-0.3316,-0.1979,-0.9235,4.3634,-0.0152,1.6898,109
4,-0.4081,-0.2357,-0.9959,4.3634,0.0654,1.7542,109
4,-0.5612,-0.1153,-1.0388,4.3634,0.2474,1.7945,109
4,-0.4418,-0.0398,-0.9041,4.3634,0.2147,1.8044,109
4,-0.4969,-0.1,-1.001,4.3634,0.0643,1.7607,109
4,-0.4633,-0.1632,-0.952,4.3634,0.0631,1.7487,109
4,-0.6061,-0.1622,-1.0867,4.3634,0.0631,1.7487,109
4,-0.4265,-0.152,-1.101,4.1867,0.0698,1.727,109
4,-0.5092,-0.2408,-1.1571,3.6011,-0.1013,1.5307,109
4,-0.3826,-0.1245,-1.1439,3.6011,-0.1013,1.5307,109
4,-0.3826,-0.1245,-1.1439,3.6459,-0.2583,1.4565,109
4,-0.453,-0.1143,-1.1785,3.5488,-0.3271,1.3834,109
4,-0.4806,-0.051,-1.1622,3.4408,-0.326,1.305,109
4,-0.4888,0.049,-1.1408,3.4332,-0.4252,1.2276,109
4,-0.4836,0.0122,-1.1622,3.2718,-0.4927,1.1001,109
4,-0.5153,0.0367,-1.1622,3.0102,-0.4763,0.9572,109
4,-0.5979,0.1041,-1.1642,2.8445,-0.4687,0.9725,109
4,-0.7092,0.0234,-1.2357,2.5806,-0.495,0.9648,109
4,-0.7479,0.0193,-1.2479,2.2699,-0.5396,0.9311,109
4,-0.8081,0.0847,-1.2469,2.2699,-0.5396,0.9311,109
4,-0.8622,0.151,-1.2204,2.1129,-0.5745,0.9071,109
4,-0.8622,0.151,-1.2204,1.97,-0.6039,0.8798,109
4,-0.8837,0.1439,-1.2214,1.6898,-0.6629,0.8252,109
4,-0.8673,0.1816,-1.1969,1.3727,-0.7795,0.8373,109
4,-0.85,0.199,-1.1571,1.0761,-0.8842,0.9147,109
4,-0.8694,0.1724,-1.0704,0.7783,-0.9408,0.9855,109
4,-0.8377,0.1469,-1.0234,0.495,-1.0303,1.0292,109
4,-0.7663,0.1357,-1.0092,0.2627,-1.1818,1.0652,109
4,-0.7112,0.1714,-0.9775,0.1079,-1.3258,1.0772,109
4,-0.701,0.3673,-0.8949,0.1079,-1.3258,1.0772,109
4,-0.6571,0.4,-0.8612,0.0664,-1.3912,1.0499,109
4,-0.6571,0.4,-0.8612,0.0206,-1.4544,0.9736,109
4,-0.6408,0.3326,-0.902,-0.1089,-1.5482,0.8722,109
4,-0.6683,0.2296,-0.9469,-0.2464,-1.6135,0.7664,109
4,-0.7245,0.3071,-0.8663,-0.2071,-1.6997,0.6508,109
4,-0.6551,0.2418,-0.8785,-0.2039,-1.7901,0.5179,109
4,-0.6642,0.1816,-0.9173,-0.3227,-1.8817,0.3489,109
4,-0.6479,0.2714,-0.7949,-0.351,-1.9134,0.2081,109
4,-0.6316,0.2683,-0.703,-0.4,-1.9635,0.085,109
4,-0.6316,0.2683,-0.703,-0.4,-1.9635,0.085,109
4,-0.7316,0.1153,-0.6275,-0.6585,-1.9471,-0.0469,109
4,-0.7316,0.1153,-0.6275,-0.9485,-1.9002,-0.1362,109
4,-0.8439,0.0367,-0.4826,-1.1698,-1.8643,-0.2039,109
4,-0.8857,-0.0602,-0.4183,-1.4402,-1.8195,-0.2388,109
5,-0.9459,-0.0775,-0.3653,-1.7084,-1.751,-0.2638,109
5,-0.9765,-0.101,-0.3336,-1.9385,-1.6986,-0.2856,109
5,-0.8541,-0.2194,-0.2408,-2.0616,-1.594,-0.3946,109
5,-0.8377,-0.2683,-0.249,-2.1129,-1.4707,-0.4481,109
5,-0.7133,-0.2816,-0.2204,-2.1129,-1.4707,-0.4481,109
5,-0.7133,-0.2816,-0.2204,-2.0889,-1.3454,-0.3489,109
5,-0.8102,0.001,-0.2888,-1.9919,-1.1295,-0.2169,109
5,-1.0051,0.2786,-0.1551,-1.6528,-0.9812,-0.0011,109
5,-1.1816,0.601,-0.0765,-1.6016,-0.8634,0.2256,109
5,-1.3439,0.4765,-0.2,-2.0572,-0.7272,0.1547,109
5,-1.751,0.6153,-0.2051,-2.4967,-0.6083,0.1744,109
5,-1.9592,0.4785,-0.0765,-2.8368,-0.5528,0.4263,109
5,-1.9132,-0.053,0.0286,-3.3122,-0.5898,0.6901,109
5,-1.6153,-0.6755,0.2449,-3.5749,-0.7795,0.8132,109
5,-0.9979,-0.6122,0.949,-3.5749,-0.7795,0.8132,109
5,-0.6918,-0.603,0.551,-2.9383,-1.0238,1.1459,109
5,-0.6918,-0.603,0.551,-1.8687,-1.0629,1.317,109
5,-0.7734,-0.6387,0.9306,-1.6026,-0.6715,1.2734,109
5,-0.5275,-0.0612,0.7683,-1.2461,-0.5604,1.3432,109
5,-0.3622,-0.1938,0.7326,-1.0902,-0.3302,0.9103,109
5,-0.1703,-0.0786,0.7153,-0.8427,-0.1744,0.6835,109
5,-0.6479,0.254,0.7367,-0.4753,0.3695,0.5418,109
5,-0.5388,0.2367,0.6153,-0.2998,0.6106,0.4611,109
5,-0.4653,0.0877,0.4459,-0.4513,0.4611,0.3422,109
5,-0.6775,0.004,0.3,-0.4513,0.4611,0.3422,109
5,-0.8163,0.1153,0.1357,-0.4992,0.6508,0.206,109
5,-0.8163,0.1153,0.1357,-0.2529,0.8668,0.1711,109
5,-0.8918,0.2316,0.0469,-0.0032,0.8493,0.0925,109
5,-0.9142,0.2653,0.0112,0.0152,0.8285,-0.0566,109
5,-0.9438,0.2285,-0.0939,-0.1732,0.7239,-0.1984,109
5,-0.9683,0.3041,-0.1449,-0.3151,0.5908,-0.1852,109
5,-0.8826,0.1204,-0.103,-0.5789,0.4916,-0.0534,109
5,-1.3428,0.4051,-0.2122,-0.7741,0.4458,0.0948,109
5,-1.1489,-0.0551,-0.1204,-0.9561,0.2911,0.1232,109
5,-1.0755,-0.0153,-0.0918,-0.9561,0.2911,0.1232,109
5,-0.9908,0.1673,0.1316,-1.2854,-0.1886,0.2453,109
5,-0.9908,0.1673,0.1316,-1.0629,-0.4524,0.2802,109
5,-1.1194,0.2969,0.2245,-0.8361,-0.4338,0.2562,109
5,-1.0622,0.101,0.2847,-0.8918,-0.5004,0.2321,109
5,-0.9571,0.1061,0.2,-0.7174,-0.689,0.2388,109
5,-1.0591,0.252,0.2888,-0.3008,-0.664,0.2442,109
5,-0.9673,0.1224,0.0652,-0.086,-0.5789,0.2594,109
5,-0.9235,0.0796,-0.0806,-0.049,-0.6465,0.3031,109
5,-0.7806,0.2142,-0.001,0.1972,-0.6345,0.3368,109
5,-0.7806,0.2142,-0.001,0.1972,-0.6345,0.3368,109
5,-0.7388,0.2214,-0.1357,0.3838,-0.4992,0.3227,109
5,-0.7153,0.3336,-0.1132,0.4666,-0.2932,0.2594,109
5,-0.6796,0.3591,-0.1153,0.5996,-0.2125,0.2125,109
5,-0.5734,0.3255,-0.152,0.5179,-0.2594,0.1493,109
5,-0.5255,0.401,-0.2622,0.3151,-0.2321,0.073,109
5,-0.7928,0.6479,-0.1306,0.4502,-0.1396,-0.0261,109
5,-0.6306,0.3724,-0.1449,0.4317,-0.0294,-0.1919,109
5,-0.6173,0.2326,-0.2847,-0.0534,-0.3161,-0.2932,109
5,-0.6132,0.204,-0.2745,-0.0959,-0.4927,-0.3946,109
5,-0.8143,0.3306,-0.1551,-0.0959,-0.4927,-0.3946,109
5,-0.8143,0.3306,-0.1551,0.1144,-0.3073,-0.5167,109
5,-0.95,0.3193,-0.1744,0.1623,-0.2245,-0.6148,109
5,-0.9244,0.2194,-0.1541,-0.1242,-0.3968,-0.6694,109
5,-1.0031,0.1153,-0.1755,-0.3183,-0.5276,-0.6966,109
5,-1.0673,0.2775,-0.0388,-0.1886,-0.4698,-0.7228,109
5,-1.1173,0.2571,-0.0449,-0.1396,-0.4393,-0.7205,109
5,-1.0745,0.004,-0.0326,-0.3575,-0.4851,-0.6966,109
5,-1.0031,0.0704,0.0336,-0.4295,-0.5461,-0.6497,109
5,-1.0602,0.1367,0.0551,-0.2104,-0.5244,-0.5887,109
5,-1.1102,0.1826,0.1122,-0.2104,-0.5244,-0.5887,109
5,-1.1183,0.1357,0.0031,-0.1471,-0.4109,-0.5353,109
5,-1.1183,0.1357,0.0031,-0.242,-0.4437,-0.4568,109
5,-1.1214,0.3296,0.0786,-0.0446,-0.5102,-0.3838,109
5,-1.2163,0.2745,0.0112,0.0566,-0.471,-0.3761,109
5,-1.2775,0.3408,0.0469,-0.0446,-0.4971,-0.4023,109
5,-1.2622,0.2602,0.0775,-0.0708,-0.6127,-0.4034,109
5,-1.3152,0.1826,0.0948,-0.1112,-0.6803,-0.4437,109
5,-1.3357,0.1173,0.1255,-0.1657,-0.7217,-0.5026,109
5,-1.102,0.102,0.2408,-0.1657,-0.7217,-0.5026,109
5,-0.9877,-0.0745,0.2938,-0.3597,-0.9899,-0.5887,109
5,-0.9551,-0.1387,0.2704,-0.3597,-0.9899,-0.5887,109
5,-0.9551,-0.1387,0.2704,-0.4992,-0.9376,-0.5963,109
5,-0.9775,0.1122,0.3571,-0.4164,-0.8624,-0.5593,109
5,-0.9398,0.0704,0.3347,-0.5015,-0.7947,-0.5418,109
5,-0.9183,-0.0081,0.25,-0.7403,-0.7293,-0.507,109
5,-1.0663,0.1173,0.3459,-0.7621,-0.5625,-0.4938,109
5,-0.9897,0.049,0.302,-0.8252,-0.5047,-0.4797,109
5,-0.8887,-0.0234,0.2745,-1.0816,-0.5799,-0.4578,109
5,-0.8816,-0.0204,0.3041,-1.2079,-0.5516,-0.4578,109
5,-0.8541,-0.0234,0.3704,-1.2352,-0.4698,-0.4448,109
5,-0.8939,-0.0418,0.403,-1.2352,-0.4698,-0.4448,109
5,-0.8949,-0.0408,0.452,-1.33,-0.4273,-0.4546,109
5,-0.8949,-0.0408,0.452,-1.4173,-0.3968,-0.4687,109
5,-0.8846,-0.0306,0.4755,-1.4544,-0.3848,-0.4721,109
5,-0.9469,-0.0265,0.5224,-1.4576,-0.3117,-0.5059,109
5,-0.9622,-0.0193,0.5449,-1.4609,-0.2333,-0.5221,109
5,-0.9775,-0.0377,0.5326,-1.4773,-0.1875,-0.5211,109
5,-1.0102,-0.1714,0.4938,-1.5285,-0.1242,-0.4982,109
5,-1.0428,-0.2153,0.4775,-1.5285,-0.0316,-0.4404,109
5,-1.0806,-0.2408,0.4683,-1.4707,0.0708,-0.3609,109
5,-1.1275,-0.2357,0.4714,-1.4707,0.0708,-0.3609,109
5,-1.1214,-0.1969,0.4857,-1.4031,0.1657,-0.2638,109
5,-1.1214,-0.1969,0.4857,-1.3683,0.2376,-0.1842,109
5,-1.1163,-0.1561,0.4755,-1.3378,0.3019,-0.1047,109
5,-1.0796,-0.1224,0.4642,-1.317,0.3838,-0.0392,109
5,-1.0295,-0.101,0.4122,-1.3323,0.4502,0.0152,109
5,-0.9826,-0.103,0.3867,-1.366,0.5026,0.0643,109
5,-0.9275,-0.0898,0.3765,-1.3933,0.5135,0.1035,109
5,-0.8939,-0.0612,0.3663,-1.3824,0.5331,0.1242,109
5,-0.8622,-0.05,0.3214,-1.3464,0.5723,0.1047,109
5,-0.855,-0.05,0.3163,-1.3464,0.5723,0.1047,109
5,-0.8418,-0.102,0.2795,-1.3137,0.6083,0.0774,109
5,-0.8418,-0.102,0.2795,-1.3017,0.6116,0.0566,109
5,-0.8602,-0.1938,0.2061,-1.3258,0.5996,0.0577,109
5,-0.855,-0.1673,0.2081,-1.3203,0.5919,0.0795,109
6,-0.8541,-0.1346,0.1979,-1.2396,0.5713,0.1079,109
6,-0.8632,-0.1132,0.1847,-1.2211,0.5635,0.1089,109
6,-0.8245,-0.1163,0.1785,-1.2537,0.5484,0.1123,109
6,-0.8061,-0.1653,0.1612,-1.2985,0.5091,0.1198,109
6,-0.799,-0.2133,0.1551,-1.341,0.4938,0.1362,109
6,-0.799,-0.2133,0.1551,-1.341,0.4938,0.1362,109
6,-0.8081,-0.2265,0.1673,-1.3311,0.4927,0.1667,109
6,-0.8265,-0.2622,0.1959,-1.2952,0.4731,0.2071,109
6,-0.8541,-0.2795,0.202,-1.2657,0.4557,0.2518,109
6,-0.8673,-0.2857,0.2265,-1.2123,0.4382,0.3019,109
6,-0.8949,-0.254,0.2622,-1.1251,0.4219,0.3401,109
6,-0.8928,-0.2388,0.2683,-1.0118,0.424,0.351,109
6,-0.903,-0.2285,0.2786,-0.9124,0.4448,0.3346,109
6,-0.9173,-0.2071,0.2857,-0.8078,0.4797,0.3019,109
6,-0.9296,-0.2081,0.251,-0.702,0.4938,0.2649,109
6,-0.9449,-0.2194,0.2296,-0.702,0.4938,0.2649,109
6,-0.9449,-0.2194,0.2296,-0.6127,0.5135,0.2213,109
6,-0.9653,-0.2081,0.1857,-0.5287,0.532,0.1798,109
6,-0.9755,-0.0459,0.0765,-0.424,0.5233,0.1438,109
6,-1.0173,0.0357,0.0153,-0.3336,0.5189,0.1396,109
6,-1.0704,0.1091,-0.1908,-0.4109,0.4775,0.2081,109
6,-1.1459,0.1847,-0.3265,-0.6106,0.4307,0.3019,109
6,-1.4428,0.203,-0.4081,-0.7098,0.5221,0.3368,109
6,-1.3846,0.0622,-0.3245,-0.8842,0.6454,0.4187,109
6,-1.5459,0.2693,-0.5693,-1.0608,0.6486,0.5408,109
6,-1.4194,0.1398,-0.2581,-1.0608,0.6486,0.5408,109
6,-1.4194,0.1398,-0.2581,-1.2113,0.5112,0.5702,109
6,-1.0591,0.2581,-0.2959,-1.4435,0.3521,0.6454,109
6,-1.102,0.2847,-0.2449,-1.6037,0.4153,0.6432,109
6,-1.1132,0.3204,-0.1592,-1.813,0.5757,0.6333,109
6,-1.0775,0.3908,-0.0959,-2.0104,0.5679,0.6312,109
6,-1.0132,0.3357,-0.0632,-2.2481,0.4841,0.6181,109
6,-1.0438,0.2959,-0.0745,-2.379,0.4906,0.5778,109
6,-1.1112,0.3234,0.0326,-2.379,0.4906,0.5778,109
6,-1.1449,0.1857,0.0796,-2.2623,0.5984,0.5244,109
6,-1.0775,0.1234,0.0857,-2.1478,0.6257,0.495,109
6,-1.0775,0.1234,0.0857,-2.1173,0.5528,0.4992,109
6,-1.0887,0.1346,0.1326,-1.9788,0.508,0.5211,109
6,-1.0541,0.2224,0.1224,-1.7945,0.52,0.545,109
6,-1.0847,0.2643,0.1755,-1.6747,0.5276,0.5887,109
6,-1.0786,0.2479,0.1357,-1.6539,0.5145,0.6356,109
6,-1.0163,0.3234,0.1775,-1.5394,0.4448,0.6955,109
6,-1.0173,0.4745,0.3265,-1.33,0.4328,0.7184,109
6,-0.9132,0.3887,0.3275,-1.2428,0.3729,0.7337,109
6,-0.851,0.3245,0.3347,-1.2428,0.3729,0.7337,109
6,-0.851,0.3245,0.3347,-1.111,0.2737,0.726,109
6,-0.8163,0.3571,0.3816,-0.7598,0.2529,0.6988,109
6,-0.7071,0.4285,0.3765,-0.3815,0.2147,0.6541,109
6,-0.6694,0.4398,0.3479,-0.0589,0.1831,0.5854,109
6,-0.6898,0.4601,0.3071,0.2388,0.206,0.4971,109
6,-0.7224,0.451,0.1918,0.4895,0.2344,0.4065,109
6,-0.7326,0.4357,0.1153,0.652,0.194,0.326,109
6,-0.7714,0.4438,0.0581,0.7795,0.1537,0.267,109
6,-0.8377,0.4428,0.0143,0.8787,0.1144,0.2147,109
6,-0.9071,0.3234,-0.0867,0.8787,0.1144,0.2147,109
6,-0.9071,0.3234,-0.0867,0.8962,0.0446,0.1842,109
6,-0.9326,0.2714,-0.0969,0.9092,-0.0337,0.1766,109
6,-0.9694,0.249,-0.1214,0.9191,-0.1003,0.1732,109
6,-0.954,0.2918,-0.102,0.8798,-0.1744,0.181,109
6,-0.9561,0.3245,-0.0847,0.8035,-0.2409,0.1831,109
6,-0.9459,0.3367,-0.1041,0.6846,-0.2899,0.182,109
6,-0.9796,0.2724,-0.2214,0.6062,-0.3063,0.157,109
6,-0.9173,0.204,-0.2183,0.6454,-0.2954,0.1003,109
6,-0.8877,0.2173,-0.0388,0.4557,-0.3422,0.0534,109
6,-0.8643,0.2724,-0.0591,0.4557,-0.3422,0.0534,109
6,-0.8887,0.2816,-0.0306,0.5265,-0.3434,-0.0011,109
6,-0.8887,0.2816,-0.0306,0.6062,-0.3193,-0.0446,109
6,-0.9612,0.2561,-0.0643,0.5461,-0.2562,-0.085,109
6,-0.9734,0.301,-0.0408,0.5418,-0.2104,-0.1232,109
6,-1.0143,0.3286,-0.0286,0.5658,-0.1951,-0.1613,109
6,-0.9897,0.2714,0.0071,0.545,-0.2005,-0.1951,109
6,-1.0214,0.2377,0.0163,0.4938,-0.1602,-0.231,109
6,-0.9704,0.2316,0.0561,0.4971,-0.157,-0.231,109
6,-0.9112,0.2112,0.0755,0.4971,-0.157,-0.231,109
6,-0.8826,0.2245,0.1091,0.5669,-0.1558,-0.1657,109
6,-0.8561,0.2734,0.1275,0.6835,-0.1581,-0.1362,109
6,-0.8959,0.2602,0.1173,0.6835,-0.1581,-0.1362,109
6,-0.8959,0.2602,0.1173,0.7435,-0.1286,-0.1198,109
6,-0.8959,0.2826,0.1357,0.809,-0.0883,-0.1297,109
6,-0.902,0.302,0.1581,0.9191,-0.0818,-0.1438,109
6,-0.9367,0.2561,0.1449,0.9714,-0.0621,-0.169,109
6,-0.9897,0.1418,0.1571,1.0194,-0.0402,-0.2027,109
6,-1.002,0.1255,0.1551,1.1589,-0.0457,-0.2201,109
6,-1.0479,0.1183,0.1642,1.341,-0.024,-0.2398,109
6,-1.0704,0.0826,0.1398,1.4707,-0.0108,-0.2529,109
6,-1.0234,0.0714,0.0948,1.5874,-0.0337,-0.2376,109
6,-1.0612,0.0724,0.0755,1.5874,-0.0337,-0.2376,109
6,-1.0612,0.0724,0.0755,1.7041,-0.0141,-0.2159,109
6,-1.0673,0.0408,0.0541,1.7596,0.024,-0.182,109
6,-1.0428,-0.0632,-0.0286,1.7836,0.0141,-0.1493,109
6,-1.0612,-0.0051,-0.0826,1.7913,0.0076,-0.1057,109
6,-1.0663,0.1735,0.0755,2.0158,0.0577,-0.0763,109
6,-1.05,0.1265,0.0051,2.0311,0.0316,-0.0664,109
6,-1.0,0.051,-0.0255,1.9341,0.0076,-0.0784,109
6,-0.9918,0.0928,0.0051,2.0355,0.0305,-0.1079,109
6,-0.9571,0.0867,0.0367,2.1184,0.024,-0.1253,109
6,-0.9581,-0.0428,0.0071,2.1184,0.024,-0.1253,109
6,-0.9551,-0.0163,0.0581,2.0747,0.0043,-0.1526,109
6,-0.9551,-0.0163,0.0581,2.1293,0.0076,-0.1744,109
6,-0.951,0.0153,0.105,2.2743,0.0174,-0.2016,109
6,-0.9551,-0.0295,0.1214,2.2993,0.0032,-0.2289,109
6,-0.9459,-0.153,0.1479,2.247,-0.0076,-0.2539,109
6,-0.9112,-0.1785,0.1714,2.2884,-0.0337,-0.2594,109
6,-0.9255,-0.2051,0.2061,2.3899,-0.0272,-0.2474,109
6,-0.9642,-0.2826,0.2377,2.4759,0.0108,-0.2268,109
6,-0.9592,-0.3152,0.2428,2.4759,0.0108,-0.2268,109
6,-0.9694,-0.3439,0.2469,2.586,0.0305,-0.2147,109
6,-0.9694,-0.3439,0.2469,2.7169,0.0446,-0.194,109
6,-0.9806,-0.3734,0.254,2.851,0.0937,-0.1831,109
7,-1.0398,-0.4173,0.254,2.9927,0.1678,-0.1907,109
7,-1.0847,-0.4081,0.2459,3.1531,0.2442,-0.2169,109
7,-1.0877,-0.3877,0.2428,3.3023,0.3117,-0.2388,109
7,-1.0796,-0.3949,0.2133,3.4082,0.3794,-0.2617,109
7,-1.1479,-0.4306,0.1183,3.4757,0.4742,-0.2693,109
7,-1.0918,-0.3979,0.1,3.5488,0.5287,-0.2594,109
7,-1.051,-0.3928,0.0663,3.5488,0.5287,-0.2594,109
7,-1.051,-0.3928,0.0663,3.6098,0.5276,-0.2268,109
7,-1.0652,-0.5081,-0.0418,3.5913,0.5865,-0.1842,109
7,-1.0469,-0.4928,-0.0571,3.5663,0.6411,-0.1155,109
7,-0.9806,-0.4438,-0.0796,3.6001,0.6138,-0.0152,109
7,-0.9755,-0.3846,-0.1224,3.6186,0.581,0.0784,109
7,-1.0132,-0.3,-0.1469,3.5663,0.6148,0.1613,109
7,-0.9806,-0.2173,-0.1622,3.539,0.569,0.2289,109
7,-0.9479,-0.1724,-0.1765,3.5183,0.4992,0.2725,109
7,-0.9296,-0.2724,-0.2326,3.4179,0.4938,0.2834,109
7,-0.8959,-0.3163,-0.2786,3.4179,0.4938,0.2834,109
7,-0.8959,-0.3163,-0.2786,3.3111,0.4807,0.2966,109
7,-0.8622,-0.3582,-0.3448,3.2392,0.4317,0.3248,109
7,-0.8204,-0.4173,-0.3857,3.1453,0.3826,0.3815,109
7,-0.8132,-0.355,-0.3918,3.0528,0.3706,0.4578,109
7,-0.8275,-0.3439,-0.6224,2.9677,0.3314,0.5364,109
7,-0.9601,-0.105,-0.3306,2.9185,0.3794,0.5952,109
7,-0.8541,-0.1296,-0.5204,2.6613,0.1744,0.6562,109
7,-0.852,-0.0652,-0.5591,2.3985,0.1482,0.6629,109
7,-0.9357,0.052,-0.5652,2.3561,0.181,0.6508,109
7,-0.9633,0.1102,-0.5581,2.3561,0.181,0.6508,109
7,-0.9469,0.1541,-0.5806,2.2983,0.1995,0.5974,109
7,-0.9469,0.1541,-0.5806,2.0627,0.1602,0.5287,109
7,-0.9479,0.2051,-0.6479,1.8981,0.0969,0.4982,109
7,-1.0541,0.1918,-0.5479,1.7281,0.1646,0.4895,109
7,-1.0571,0.2051,-0.6632,1.5122,0.1962,0.4807,109
7,-1.0602,0.2092,-0.6061,1.305,0.1972,0.4818,109
7,-1.0775,0.1898,-0.5714,1.0543,0.2365,0.5299,109
7,-1.0826,0.1449,-0.549,0.7741,0.2649,0.6367,109
7,-0.9438,0.0469,-0.5295,0.7741,0.2649,0.6367,109
7,-0.9592,0.0847,-0.4306,0.4807,0.2474,0.7249,109
7,-0.9592,0.0989,-0.3857,0.3031,0.2617,0.8035,109
7,-0.9592,0.0989,-0.3857,0.1995,0.3456,0.8481,109
7,-0.9316,0.0918,-0.3714,0.012,0.338,0.8939,109
7,-0.7449,0.0408,-0.3724,-0.1907,0.2594,0.9376,109
7,-0.7673,0.0704,-0.3622,-0.2779,0.2888,0.9431,109
7,-0.8071,0.1194,-0.3571,-0.2779,0.4065,0.9246,109
7,-0.7928,0.1775,-0.3479,-0.3227,0.4317,0.9082,109
7,-0.7275,0.1622,-0.4285,-0.4851,0.3958,0.8983,109
7,-0.7775,0.1887,-0.4387,-0.4851,0.3958,0.8983,109
7,-0.7775,0.1887,-0.4387,-0.6377,0.4524,0.8754,109
7,-0.8418,0.302,-0.4296,-0.689,0.5484,0.8439,109
7,-0.8418,0.302,-0.4296,-0.8046,0.5843,0.8307,109
7,-0.8439,0.251,-0.4622,-1.0587,0.5799,0.8144,109
7,-0.8663,0.2449,-0.4571,-1.2298,0.5974,0.8056,109
7,-0.9153,0.2755,-0.4408,-1.2647,0.6508,0.7795,109
7,-0.9755,0.2561,-0.4071,-1.3344,0.6661,0.7435,109
7,-0.9316,0.201,-0.4142,-1.462,0.6116,0.713,109
7,-0.903,0.1724,-0.4112,-1.5351,0.5461,0.6944,109
7,-0.8989,0.1449,-0.4061,-1.5328,0.5364,0.6857,109
7,-0.8989,0.1449,-0.4061,-1.5328,0.5364,0.6857,109
7,-0.8887,0.153,-0.3989,-1.5219,0.5374,0.6869,109
7,-0.8622,0.1642,-0.4214,-1.5427,0.4884,0.7098,109
7,-0.8489,0.1775,-0.4398,-1.5645,0.4404,0.726,109
7,-0.852,0.2673,-0.4469,-1.5547,0.4524,0.7228,109
7,-0.8683,0.3143,-0.4714,-1.5285,0.4687,0.6955,109
7,-0.8448,0.3347,-0.4836,-1.5645,0.4393,0.6508,109
7,-0.8265,0.3326,-0.5449,-1.6211,0.3903,0.5799,109
7,-0.7979,0.3663,-0.6153,-1.6049,0.3532,0.5004,109
7,-0.8071,0.4051,-0.602,-1.6049,0.3532,0.5004,109
7,-0.8224,0.4081,-0.6173,-1.5416,0.3271,0.4143,109
7,-0.8224,0.4081,-0.6173,-1.5067,0.2693,0.3183,109
7,-0.7806,0.3214,-0.6938,-1.5459,0.1602,0.2344,109
7,-0.799,0.299,-0.6622,-1.5416,0.0577,0.1678,109
7,-0.8184,0.2826,-0.6387,-1.4729,0.0087,0.098,109
7,-0.8459,0.2918,-0.5836,-1.4162,-0.0698,0.0446,109
7,-0.8326,0.1938,-0.5031,-1.449,-0.1919,0.0043,109
7,-0.8367,0.1408,-0.4408,-1.5165,-0.2932,-0.0131,109
7,-0.8428,0.1082,-0.402,-1.5372,-0.3729,-0.0228,109
7,-0.8122,0.0867,-0.3275,-1.5547,-0.5309,-0.0076,109
7,-0.8234,0.1796,-0.2928,-1.4565,-0.5996,0.0043,109
7,-0.8081,0.2632,-0.2786,-1.4565,-0.5996,0.0043,109
7,-0.8081,0.2632,-0.2786,-1.3258,-0.6007,0.0065,109
7,-0.8122,0.4041,-0.2663,-1.2461,-0.5767,-0.0043,109
7,-0.8173,0.4785,-0.2479,-1.2386,-0.545,-0.036,109
7,-0.803,0.4755,-0.2908,-1.268,-0.5385,-0.086,109
7,-0.7612,0.4622,-0.3132,-1.3149,-0.5364,-0.1461,109
7,-0.8071,0.4979,-0.301,-1.2897,-0.4982,-0.1907,109
7,-0.7938,0.4601,-0.2949,-1.317,-0.495,-0.2464,109
7,-0.7561,0.3796,-0.2969,-1.4107,-0.5287,-0.3073,109
7,-0.7806,0.3132,-0.2714,-1.449,-0.5385,-0.3695,109
7,-0.803,0.3071,-0.2347,-1.449,-0.5385,-0.3695,109
7,-0.803,0.3071,-0.2347,-1.4271,-0.5276,-0.4252,109
7,-0.7898,0.2653,-0.2408,-1.4565,-0.5484,-0.4687,109
7,-0.8,0.2173,-0.2581,-1.5263,-0.6007,-0.5112,109
7,-0.8091,0.2571,-0.2602,-1.4729,-0.6421,-0.5484,109
7,-0.8459,0.301,-0.249,-1.3529,-0.6291,-0.5931,109
7,-0.8806,0.3275,-0.2551,-1.3083,-0.6356,-0.6312,109
7,-0.8816,0.3132,-0.2714,-1.3334,-0.6825,-0.6541,109
7,-0.9041,0.301,-0.2704,-1.3956,-0.7174,-0.6737,109
7,-0.9316,0.299,-0.2816,-1.449,-0.701,-0.6966,109
7,-0.9479,0.3152,-0.2867,-1.449,-0.701,-0.6966,109
7,-0.8887,0.2877,-0.3387,-1.5285,-0.7205,-0.6999,109
7,-0.8887,0.2877,-0.3387,-1.6604,-0.7806,-0.6955,109
7,-0.8887,0.2734,-0.355,-1.8076,-0.8373,-0.6879,109
7,-0.8898,0.2683,-0.3775,-1.9036,-0.8548,-0.6857,109
7,-0.8837,0.303,-0.351,-1.9777,-0.8897,-0.6869,109
7,-0.8265,0.3357,-0.3265,-2.1031,-0.9551,-0.6988,109
7,-0.7877,0.3163,-0.3234,-2.2895,-1.0106,-0.7195,109
7,-0.7673,0.3102,-0.2755,-2.4673,-1.0226,-0.7554,109
7,-0.7734,0.2714,-0.2224,-2.6461,-1.0171,-0.8035,109
7,-0.7612,0.2071,-0.2071,-2.6461,-1.0171,-0.8035,109
7,-0.7653,0.1479,-0.2,-2.8412,-1.0368,-0.846,109
7,-0.7653,0.1479,-0.2,-3.0299,-1.0324,-0.8983,109
8,-0.7795,0.1122,-0.1612,-3.1333,-1.0259,-0.9408,109
8,-0.8071,0.052,-0.0979,-3.1945,-1.0019,-0.9834,109
8,-0.8224,0.0102,-0.0336,-3.2718,-0.9714,-1.027,109
8,-0.8224,-0.0714,-0.0234,-3.3481,-0.9311,-1.0532,109
8,-0.9183,-0.0112,0.15,-3.3776,-0.8754,-1.0662,109
8,-0.8173,-0.2959,0.05,-3.4866,-0.8264,-1.1055,109
8,-0.701,-0.2949,0.1561,-3.4866,-0.8264,-1.1055,109
8,-0.8816,-0.2071,0.203,-3.5608,-0.8601,-1.0641,109
8,-0.9581,-0.453,0.1837,-3.3994,-0.7205,-0.9082,109
8,-0.9581,-0.453,0.1837,-3.4572,-0.5341,-0.8613,109
8,-0.8979,-0.5245,0.2367,-3.54,-0.5429,-0.8624,109
8,-0.8734,-0.4367,0.2979,-3.2991,-0.5702,-0.7359,109
8,-1.0153,-0.3704,0.3173,-3.0833,-0.4426,-0.6388,109
8,-1.0163,-0.3571,0.4265,-3.0375,-0.3575,-0.5833,109
8,-0.9836,-0.3826,0.2908,-3.057,-0.4219,-0.4655,109
8,-0.9173,-0.2531,0.3979,-2.9349,-0.4469,-0.3489,109
8,-1.199,-0.1592,0.3959,-2.911,-0.2562,-0.2922,109
8,-1.199,-0.1592,0.3959,-2.911,-0.2562,-0.2922,109
8,-1.204,-0.1234,0.3949,-2.9524,-0.2104,-0.2495,109
8,-1.1581,-0.1622,0.3694,-3.0364,-0.3292,-0.218,109
8,-1.1714,-0.2531,0.35,-3.177,-0.3674,-0.2093,109
8,-1.1082,-0.3091,0.4071,-3.176,-0.3445,-0.218,109
8,-1.0745,-0.3418,0.4316,-3.0724,-0.3477,-0.2268,109
8,-1.0918,-0.4,0.4581,-3.0658,-0.2987,-0.2278,109
8,-0.9642,-0.4571,0.4918,-3.0898,-0.2779,-0.218,109
8,-0.8959,-0.4163,0.5336,-3.0353,-0.2888,-0.1744,109
8,-0.8877,-0.4,0.5673,-3.0353,-0.2888,-0.1744,109
8,-0.8939,-0.4102,0.5786,-2.9427,-0.2016,-0.1417,109
8,-0.8939,-0.4102,0.5786,-2.8739,-0.0566,-0.1177,109
8,-0.9183,-0.302,0.6245,-2.7659,0.0566,-0.086,109
8,-0.8979,-0.3071,0.6316,-2.6548,0.1396,-0.0545,109
8,-0.9163,-0.3745,0.601,-2.6089,0.2234,-0.0282,109
8,-0.9836,-0.3979,0.6255,-2.4574,0.3412,-0.012,109
8,-0.9816,-0.4061,0.652,-2.2045,0.4317,0.0174,109
8,-0.9836,-0.4377,0.6337,-2.0038,0.4851,0.0435,109
8,-0.9806,-0.4561,0.6071,-2.0038,0.4851,0.0435,109
8,-0.9326,-0.3479,0.6102,-1.8447,0.5179,0.0719,109
8,-0.9653,-0.2949,0.5622,-1.6016,0.532,0.1155,109
8,-0.9653,-0.2949,0.5622,-1.3758,0.5745,0.1384,109
8,-0.9847,-0.2592,0.5377,-1.2308,0.6171,0.1591,109
8,-0.9326,-0.1479,0.4867,-1.1066,0.5974,0.1744,109
8,-0.9306,-0.0877,0.4571,-0.9812,0.5647,0.1852,109
8,-0.9326,-0.0663,0.4224,-0.883,0.5734,0.1798,109
8,-0.9428,-0.0663,0.4183,-0.822,0.5898,0.1635,109
8,-0.9826,-0.1153,0.3755,-0.7762,0.5974,0.1417,109
8,-0.9765,-0.1285,0.3785,-0.7762,0.5974,0.1417,109
8,-0.9959,-0.1245,0.4,-0.7249,0.5713,0.1188,109
8,-1.0255,-0.1082,0.3979,-0.6148,0.5658,0.0904,109
8,-1.0255,-0.1082,0.3979,-0.4938,0.5799,0.0479,109
8,-1.0245,-0.0806,0.4408,-0.3848,0.5745,0.0076,109
8,-0.9888,-0.0887,0.4561,-0.2768,0.5364,-0.0185,109
8,-0.9694,-0.1357,0.4479,-0.1852,0.5036,-0.0425,109
8,-0.9673,-0.2,0.4438,-0.0686,0.4992,-0.0577,109
8,-0.9683,-0.2,0.4459,0.1221,0.4916,-0.0686,109
8,-0.9826,-0.2204,0.4163,0.3008,0.4687,-0.0784,109
8,-0.9806,-0.2367,0.3959,0.4502,0.4437,-0.0948,109
8,-0.9765,-0.1857,0.3765,0.4502,0.4437,-0.0948,109
8,-0.9765,-0.1857,0.3765,0.6432,0.4143,-0.1123,109
8,-1.0102,-0.1918,0.351,0.809,0.4012,-0.1329,109
8,-1.0286,-0.2357,0.3132,0.883,0.3903,-0.1471,109
8,-1.0163,-0.2795,0.2949,0.9626,0.3368,-0.1471,109
8,-1.0887,-0.3357,0.2724,1.0738,0.3073,-0.1362,110
8,-1.0898,-0.3653,0.2724,1.1513,0.2791,-0.1112,110
8,-1.1041,-0.3683,0.2622,1.2134,0.2191,-0.0774,110
8,-1.0898,-0.3612,0.2479,1.2756,0.1526,-0.0337,110
8,-1.0643,-0.3939,0.2285,1.2995,0.0883,0.0032,110
8,-1.0632,-0.4061,0.201,1.2995,0.0883,0.0032,110
8,-1.0632,-0.4061,0.201,1.3334,0.0534,0.024,110
8,-1.0684,-0.3867,0.1765,1.4424,0.0349,0.0349,110
8,-1.0765,-0.3765,0.1234,1.5503,0.0131,0.0381,110
8,-1.0867,-0.3796,0.0684,1.6146,-0.0174,0.0305,110
8,-1.0836,-0.3418,0.0295,1.6877,-0.0675,0.0414,110
8,-1.1082,-0.2112,0.0275,1.776,-0.1013,0.0511,110
8,-1.1439,-0.1673,0.0081,1.7836,-0.1177,0.0698,110
8,-1.1449,-0.1194,0.0336,1.6921,-0.1503,0.0904,110
8,-1.1592,-0.0591,0.0857,1.4042,-0.2093,0.1461,110
8,-1.1306,-0.051,0.1449,1.2386,-0.2005,0.1646,110
8,-1.1418,-0.0622,0.1642,1.2386,-0.2005,0.1646,110
8,-1.0847,-0.053,0.2408,1.1272,-0.1852,0.1875,110
8,-1.0948,-0.0969,0.2632,1.0389,-0.181,0.2093,110
8,-1.0948,-0.0969,0.2632,0.967,-0.1613,0.2388,110
8,-1.0755,-0.1041,0.3296,0.9288,-0.1123,0.2617,110
8,-1.0765,-0.1041,0.3796,0.942,-0.0925,0.2812,110
8,-1.0224,-0.1887,0.4469,0.9299,-0.0894,0.3019,110
8,-1.0081,-0.2173,0.502,0.9594,-0.0589,0.3151,110
8,-1.0092,-0.2581,0.4877,1.0345,-0.0272,0.3271,110
8,-0.9847,-0.2663,0.5908,1.1207,-0.012,0.3445,110
8,-0.8326,-0.4826,0.5275,1.1207,-0.012,0.3445,110
8,-0.8326,-0.4826,0.5275,1.1567,-0.0141,0.3489,110
8,-0.8745,-0.4449,0.5591,1.3834,0.0469,0.3674,110
8,-0.9132,-0.4153,0.5673,1.7182,0.181,0.3674,110
8,-0.7949,-0.4163,0.5265,1.9286,0.1852,0.3554,110
8,-0.802,-0.4041,0.499,2.1445,0.2016,0.3434,110
8,-0.7928,-0.355,0.4888,2.4051,0.2911,0.3346,110
8,-0.803,-0.301,0.4612,2.6613,0.3968,0.2987,110
8,-0.8193,-0.251,0.3939,2.8401,0.4786,0.2659,110
8,-0.8081,-0.2632,0.3387,2.9524,0.5299,0.2442,110
8,-0.8184,-0.2592,0.3071,2.9524,0.5299,0.2442,110
8,-0.9163,-0.151,0.2643,3.0778,0.6116,0.2136,110
8,-0.9163,-0.151,0.2643,3.2544,0.726,0.182,110
8,-0.9163,-0.1245,0.2285,3.4017,0.846,0.1396,110
8,-0.9163,-0.1418,0.1469,3.4147,0.9136,0.1003,110
8,-0.9265,-0.1357,0.0959,3.4059,0.9681,0.0719,110
8,-0.8979,-0.1112,0.051,3.4485,1.0345,0.0534,110
8,-0.9316,-0.1632,-0.004,3.4496,1.1087,0.0566,110
8,-0.9377,-0.2459,-0.0602,3.383,1.1545,0.074,110
8,-0.9041,-0.2693,-0.0704,3.3624,1.1469,0.1274,110
8,-0.8724,-0.2275,-0.1234,3.3624,1.1469,0.1274,110
8,-0.8837,-0.2388,-0.1357,3.4049,1.124,0.1962,110
8,-0.8837,-0.2388,-0.1357,3.3744,1.1436,0.2649,110
9,-0.8785,-0.25,-0.1683,3.2752,1.1339,0.339,110
9,-0.851,-0.1755,-0.201,3.214,1.0652,0.4175,110
9,-0.851,-0.1612,-0.2101,3.164,1.0357,0.4763,110
9,-0.7734,-0.2459,-0.2449,3.0702,1.0084,0.5059,110
9,-0.8469,-0.0714,-0.1408,3.0702,1.0171,0.5026,110
9,-0.7714,-0.1459,-0.2163,2.9546,0.9692,0.4938,110
9,-0.7612,-0.1918,-0.3041,2.8128,0.8231,0.471,110
9,-0.7938,-0.1326,-0.2622,2.8128,0.8231,0.471,110
9,-0.8949,0.0132,-0.2133,2.8674,0.8525,0.4273,110
9,-0.8949,0.0132,-0.2133,3.007,0.9212,0.3924,110
9,-0.8989,-0.0112,-0.2296,2.9883,0.8798,0.351,110
9,-0.9071,-0.0765,-0.2877,2.85,0.7751,0.3151,110
9,-0.9244,-0.0734,-0.2938,2.8456,0.7337,0.2725,110
9,-1.0959,0.0591,-0.2438,2.9906,0.7632,0.2191,110
9,-1.1122,-0.0071,-0.2806,3.008,0.7272,0.1503,110
9,-1.0959,-0.0898,-0.2888,2.862,0.6039,0.0948,110
9,-1.0704,-0.1847,-0.3296,2.7964,0.5036,0.0992,110
9,-1.0704,-0.1847,-0.3296,2.7964,0.5036,0.0992,110
9,-1.1194,-0.1581,-0.3326,2.8729,0.483,0.11,110
9,-1.1,-0.103,-0.3184,2.9677,0.4643,0.1503,110
9,-1.0796,-0.103,-0.3377,2.9208,0.3739,0.2169,110
9,-1.0122,-0.1479,-0.3724,2.7747,0.2966,0.2922,110
9,-0.9826,-0.0786,-0.3459,2.7104,0.2605,0.3717,110
9,-0.9479,-0.0367,-0.3428,2.6962,0.2409,0.4328,110
9,-0.9112,-0.0673,-0.3571,2.5545,0.2125,0.4818,110
9,-0.8122,-0.105,-0.4142,2.3866,0.1537,0.5408,110
9,-0.7847,-0.0796,-0.4122,2.3113,0.1144,0.5974,110
9,-0.7918,-0.0388,-0.4081,2.3113,0.1144,0.5974,110
9,-0.7918,-0.0388,-0.4081,2.2666,0.1232,0.6356,110
9,-0.8163,0.0193,-0.4203,2.1772,0.1297,0.6629,110
9,-0.8102,0.0602,-0.4438,2.0726,0.0883,0.6759,110
9,-0.8286,0.0745,-0.454,1.9363,0.0643,0.6596,110
9,-0.8622,0.0969,-0.4663,1.8044,0.0795,0.628,110
9,-0.9408,0.1224,-0.4724,1.6877,0.0992,0.5952,110
9,-0.9551,0.0836,-0.5,1.5253,0.1144,0.556,110
9,-0.9816,0.0388,-0.5286,1.3529,0.1177,0.5276,110
9,-1.0102,0.0388,-0.5234,1.3529,0.1177,0.5276,110
9,-1.0153,0.102,-0.5286,1.2439,0.1297,0.4992,110
9,-1.0265,0.1275,-0.4877,1.1753,0.1198,0.4698,110
9,-1.0265,0.1275,-0.4877,1.1055,0.1144,0.4361,110
9,-1.0092,0.1041,-0.5061,0.9496,0.1013,0.4252,110
9,-0.9755,0.1122,-0.4796,0.7751,0.0806,0.4197,110
9,-0.949,0.1153,-0.4796,0.652,0.0631,0.4175,110
9,-0.9387,0.1214,-0.4306,0.5145,0.0577,0.4175,110
9,-0.9224,0.1,-0.4326,0.3729,0.0446,0.4208,110
9,-0.8949,0.105,-0.3857,0.2617,0.025,0.4208,110
9,-0.8887,0.0887,-0.3714,0.2617,0.025,0.4208,110
9,-0.9051,0.0939,-0.3602,0.1722,0.0392,0.4099,110
9,-0.9051,0.0939,-0.3602,0.1003,0.0511,0.4023,110
9,-0.8643,0.1102,-0.3377,0.0545,0.0381,0.4012,110
9,-0.8765,0.1265,-0.3296,0.0053,0.0545,0.3946,110
9,-0.8714,0.152,-0.3265,-0.0435,0.085,0.4012,110
9,-0.8765,0.1908,-0.3173,-0.085,0.1123,0.4088,110
9,-0.9071,0.2153,-0.3408,-0.157,0.1515,0.4034,110
9,-0.9163,0.2142,-0.3591,-0.2442,0.1984,0.3968,110
9,-0.9357,0.2092,-0.3837,-0.3368,0.2398,0.4055,110
9,-0.9357,0.2092,-0.3837,-0.3368,0.2398,0.4055,110
9,-0.9235,0.2071,-0.4581,-0.4284,0.2518,0.4143,110
9,-0.9296,0.2245,-0.4908,-0.5026,0.2464,0.4208,110
9,-0.9326,0.2438,-0.504,-0.5822,0.2442,0.4175,110
9,-0.9316,0.2745,-0.5286,-0.6749,0.2125,0.4055,110
9,-0.8734,0.3418,-0.5255,-0.7871,0.1581,0.3859,110
9,-0.8479,0.3459,-0.5245,-0.9038,0.1112,0.3336,111
9,-0.855,0.3612,-0.5122,-1.0051,0.098,0.2954,111
9,-0.7918,0.2938,-0.5734,-1.099,0.085,0.2693,111
9,-0.8826,0.2816,-0.4949,-1.1665,0.0969,0.218,111
9,-0.7693,0.2847,-0.5673,-1.1665,0.0969,0.218,111
9,-0.7693,0.2847,-0.5673,-1.2603,0.0065,0.1701,111
9,-0.8,0.3102,-0.5693,-1.3105,-0.0664,0.1396,111
9,-0.8459,0.3714,-0.553,-1.3497,-0.0043,0.0763,111
9,-0.8428,0.3745,-0.5183,-1.4238,-0.025,0.0196,111
9,-0.8122,0.3184,-0.4969,-1.5656,-0.0839,-0.0228,111
9,-0.7938,0.2449,-0.453,-1.7247,-0.1089,-0.0414,111
9,-0.8806,0.1234,-0.3582,-1.8447,-0.0664,-0.0631,111
9,-0.8765,0.0979,-0.3316,-1.933,-0.0915,-0.0566,111
9,-0.9571,-0.053,-0.2112,-2.0879,-0.182,-0.0282,111
9,-0.951,-0.0377,-0.152,-2.0616,-0.1962,-0.0087,111
9,-1.0092,0.0214,-0.102,-1.9504,-0.2333,0.0076,111
9,-1.0092,0.0214,-0.102,-1.9504,-0.2333,0.0076,111
9,-0.9633,0.1306,-0.1428,-1.9025,-0.2812,0.0282,111
9,-0.9633,0.1306,-0.1428,-1.8883,-0.3292,0.037,111
9,-0.9571,0.2173,-0.1398,-1.7804,-0.3216,0.0523,111
9,-0.9479,0.2643,-0.1632,-1.7323,-0.3302,0.0589,111
9,-0.9734,0.301,-0.1306,-1.7455,-0.3401,0.0577,111
9,-0.9734,0.3275,-0.0734,-1.7596,-0.3641,0.0392,111
9,-0.9959,0.301,-0.0693,-1.7432,-0.4187,-0.0065,111
9,-0.9255,0.2173,-0.0673,-1.7749,-0.4895,-0.0686,111
9,-0.9347,0.2336,-0.0122,-1.7062,-0.5276,-0.1329,111
9,-0.8989,0.2336,0.0102,-1.7062,-0.5276,-0.1329,111
9,-0.8989,0.2336,0.0102,-1.5591,-0.5516,-0.1984,111
9,-0.8806,0.1959,0.0071,-1.5328,-0.6116,-0.2453,111
9,-0.8541,0.1398,-0.0183,-1.5579,-0.6705,-0.2747,111
9,-0.8061,0.1255,-0.001,-1.5122,-0.7293,-0.2998,111
9,-0.8102,0.1285,0.0071,-1.4063,-0.7205,-0.3302,111
9,-0.7867,0.1255,0.0071,-1.3497,-0.7272,-0.3641,111
9,-0.7255,0.1296,-0.0112,-1.3029,-0.7708,-0.4,111
9,-0.7153,0.1418,-0.0051,-1.2374,-0.7741,-0.4414,111
9,-0.7214,0.151,-0.0153,-1.1915,-0.7424,-0.4862,111
9,-0.6867,0.1592,-0.0367,-1.1915,-0.7424,-0.4862,111
9,-0.6867,0.1592,-0.0367,-1.1959,-0.7478,-0.5179,111
9,-0.6439,0.1908,-0.1,-1.209,-0.7632,-0.544,111
9,-0.6898,0.2571,-0.0939,-1.2276,-0.714,-0.5679,111
9,-0.7397,0.2765,-0.1459,-1.2734,-0.6682,-0.5854,111
9,-0.851,0.352,-0.204,-1.3834,-0.6672,-0.5996,111
9,-0.9377,0.3837,-0.2234,-1.498,-0.64,-0.6323,111
9,-0.9755,0.3765,-0.2714,-1.6463,-0.6465,-0.6791,111
9,-1.0224,0.3622,-0.2316,-1.8273,-0.652,-0.7435,111
9,-1.0265,0.1898,-0.1837,-1.8273,-0.652,-0.7435,111
9,-0.9969,0.1071,-0.1459,-2.0453,-0.6552,-0.8144,111
9,-0.9969,0.1071,-0.1459,-2.2525,-0.6682,-0.8678,111
10,-0.9561,0.0469,-0.1255,-2.4574,-0.6879,-0.8929,111
10,-0.9337,-0.0051,-0.0857,-2.6602,-0.6825,-0.8929,111
10,-0.9408,-0.1102,-0.0612,-2.8336,-0.6552,-0.8809,111
10,-1.0459,-0.1173,0.0051,-2.9938,-0.6148,-0.8569,111
10,-0.851,-0.2857,-0.0612,-3.1465,-0.6694,-0.8252,111
10,-1.0765,-0.1234,0.1091,-3.1476,-0.6737,-0.7348,111
10,-1.001,-0.3102,0.0367,-3.1443,-0.5189,-0.6737,111
10,-0.9918,-0.3112,0.103,-3.1443,-0.5189,-0.6737,111
10,-0.9132,-0.3,0.0939,-3.334,-0.581,-0.7239,111
10,-0.9132,-0.3,0.0939,-3.2533,-0.6574,-0.6661,111
10,-0.9949,-0.2857,0.2306,-3.1901,-0.5974,-0.6236,111
10,-1.004,-0.3602,0.2326,-3.2218,-0.4763,-0.6148,111
10,-0.9857,-0.3541,0.2949,-3.226,-0.4851,-0.5931,111
10,-0.9337,-0.4235,0.3489,-3.177,-0.5179,-0.5341,111
10,-0.9836,-0.4653,0.352,-3.2119,-0.4568,-0.4763,111
10,-1.0347,-0.4888,0.3448,-3.1705,-0.3586,-0.3903,111
10,-0.9857,-0.4479,0.4112,-3.0865,-0.3466,-0.3128,111
10,-0.9683,-0.3826,0.403,-3.0865,-0.3466,-0.3128,111
10,-0.9683,-0.3826,0.403,-2.9938,-0.3434,-0.2844,111
10,-1.0193,-0.3755,0.4071,-2.9164,-0.3161,-0.2659,111
10,-0.9928,-0.3857,0.3102,-2.9175,-0.2922,-0.206,111
10,-0.8245,-0.3326,0.4,-2.8325,-0.2911,-0.1667,111
10,-1.1122,-0.3663,0.3785,-2.7693,-0.0621,-0.1766,111
10,-1.049,-0.3704,0.3908,-2.7016,0.0272,-0.1635,111
10,-0.9857,-0.4296,0.3489,-2.7027,-0.0784,-0.1297,111
10,-1.0989,-0.4704,0.3949,-2.6787,-0.0196,-0.1057,111
10,-1.0602,-0.453,0.4041,-2.5305,0.1013,-0.073,111
10,-1.0765,-0.4285,0.4214,-2.5305,0.1013,-0.073,111
10,-1.0765,-0.4285,0.4214,-2.3887,0.1352,-0.0305,111
10,-1.1377,-0.4459,0.4183,-2.3353,0.2016,0.0131,111
10,-1.1346,-0.4561,0.4061,-2.3212,0.2115,0.086,111
10,-1.1265,-0.3979,0.3959,-2.2329,0.193,0.1581,111
10,-1.1541,-0.3418,0.4041,-2.1184,0.2388,0.2147,111
10,-1.1796,-0.2326,0.3949,-2.0595,0.2976,0.2594,111
10,-1.1653,-0.2101,0.3806,-2.0169,0.2954,0.3031,111
10,-1.1735,-0.2612,0.352,-2.0049,0.2998,0.3346,111
10,-1.2092,-0.3224,0.3132,-1.9929,0.3445,0.3597,111
10,-1.2255,-0.2857,0.3,-1.9929,0.3445,0.3597,111
10,-1.1683,-0.2428,0.3418,-1.8719,0.3609,0.3914,111
10,-1.1683,-0.2428,0.3418,-1.7247,0.3227,0.4361,111
10,-1.1449,-0.2786,0.3081,-1.7008,0.2802,0.4753,111
10,-1.1224,-0.2826,0.3071,-1.7258,0.2617,0.5179,111
10,-1.0704,-0.1602,0.353,-1.6463,0.2649,0.556,111
10,-1.1,-0.1724,0.3541,-1.6211,0.2878,0.5887,111
10,-1.1102,-0.2142,0.3193,-1.6692,0.2834,0.6062,111
10,-1.0163,-0.1938,0.351,-1.606,0.2376,0.6148,111
10,-1.0122,-0.202,0.3622,-1.606,0.2376,0.6148,111
10,-0.9908,-0.2122,0.3377,-1.4467,0.2125,0.6018,111
10,-0.9347,-0.1622,0.3602,-1.317,0.2321,0.569,111
10,-0.9347,-0.1622,0.3602,-1.1545,0.2169,0.5528,111
10,-0.8918,-0.1265,0.3724,-0.991,0.1962,0.5461,111
10,-0.8796,-0.1337,0.353,-0.9648,0.1886,0.5255,111
10,-0.8837,-0.0459,0.3775,-0.8056,0.2005,0.4927,111
10,-0.951,0.0081,0.3653,-0.6127,0.2147,0.4437,111
10,-0.9398,-0.0643,0.3306,-0.5713,0.2027,0.3739,111
10,-0.9377,-0.0847,0.3296,-0.4927,0.1438,0.2966,111
10,-0.9255,-0.0214,0.353,-0.4927,0.1438,0.2966,111
10,-0.9255,-0.0214,0.353,-0.2725,0.098,0.2256,111
10,-0.9275,-0.0898,0.3439,-0.1461,0.0599,0.1711,111
10,-0.9132,-0.0898,0.301,-0.0751,-0.0162,0.1396,111
10,-0.951,-0.0295,0.3448,0.0904,-0.0698,0.1167,111
10,-0.9816,-0.001,0.3377,0.2256,-0.0883,0.0969,112
10,-0.9428,-0.0143,0.3428,0.2998,-0.1581,0.0806,112
10,-0.9551,-0.0143,0.3214,0.4143,-0.1951,0.0675,112
10,-0.952,-0.0204,0.3132,0.5418,-0.2027,0.0589,112
10,-0.9775,-0.0193,0.302,0.6552,-0.2005,0.0501,112
10,-0.9694,-0.0061,0.2836,0.6552,-0.2005,0.0501,112
10,-0.9694,-0.0061,0.2836,0.7501,-0.2289,0.0599,112
10,-0.9551,0.0112,0.2836,0.8176,-0.2693,0.0751,112
10,-0.949,0.0245,0.2847,0.8678,-0.2779,0.0883,112
10,-0.9694,0.0286,0.2806,0.8929,-0.2649,0.0992,112
10,-0.9724,0.002,0.2928,0.8962,-0.2573,0.1177,112
10,-0.9775,-0.0336,0.302,0.8874,-0.2562,0.1428,112
10,-1.0265,-0.0745,0.3051,0.9027,-0.2409,0.1581,112
10,-1.0255,-0.0541,0.3286,0.9572,-0.2191,0.1657,112
10,-1.0214,-0.0714,0.3286,1.0488,-0.2136,0.1646,112
10,-1.0153,-0.1245,0.3152,1.0881,-0.206,0.1515,112
10,-1.0132,-0.1234,0.3112,1.0881,-0.206,0.1515,112
10,-1.0347,-0.1245,0.299,1.1949,-0.1962,0.1438,112
10,-1.0408,-0.152,0.2918,1.317,-0.1907,0.1373,112
10,-1.0408,-0.152,0.2918,1.4009,-0.1919,0.1362,112
10,-1.0357,-0.1837,0.2704,1.4761,-0.1984,0.1428,112
10,-1.051,-0.1694,0.252,1.5776,-0.1831,0.1482,112
10,-1.0673,-0.1581,0.2377,1.6659,-0.1581,0.1591,112
10,-1.0979,-0.1683,0.1826,1.7149,-0.1264,0.1657,112
10,-1.0959,-0.1541,0.153,1.7378,-0.1221,0.1831,112
10,-1.101,-0.1194,0.1449,1.7586,-0.1133,0.2071,112
10,-1.105,-0.0857,0.1398,1.7466,-0.0883,0.23,112
10,-1.0928,-0.0286,0.1102,1.7466,-0.0883,0.23,112
10,-1.0928,-0.0286,0.1102,1.6669,-0.085,0.2594,112
10,-1.0816,0.0031,0.1408,1.5339,-0.0818,0.2768,112
10,-1.0887,0.0775,0.1765,1.4347,-0.0555,0.2834,112
10,-1.0652,0.1357,0.2459,1.3529,-0.0349,0.2954,112
10,-1.0836,0.0939,0.2888,1.2134,0.0097,0.2802,112
10,-1.0612,0.0408,0.3224,1.0662,0.0577,0.2791,112
10,-1.0204,0.0234,0.3469,0.9975,0.0708,0.2856,112
10,-0.9724,-0.0591,0.4337,0.9845,0.1112,0.2834,112
10,-0.9633,-0.1041,0.4459,0.9681,0.181,0.2856,112
10,-0.9173,-0.1183,0.4806,0.9681,0.181,0.2856,112
10,-0.9173,-0.1183,0.4806,1.0467,0.23,0.2987,112
10,-0.8898,-0.1041,0.5132,1.2167,0.2987,0.3085,112
10,-0.8887,-0.0948,0.5153,1.4053,0.3979,0.3085,112
10,-0.8663,-0.0663,0.5,1.6114,0.4906,0.2987,112
10,-0.8489,-0.0092,0.504,1.8556,0.5734,0.2779,112
10,-0.8448,-0.0561,0.4285,2.0453,0.6803,0.242,112
10,-0.85,-0.105,0.3745,2.1838,0.7697,0.1962,112
10,-0.8173,-0.1194,0.3418,2.4019,0.8384,0.1602,112
10,-0.7979,-0.1245,0.303,2.6548,0.9136,0.1221,112
10,-0.8612,-0.1551,0.2101,2.6548,0.9136,0.1221,112
10,-0.8591,-0.1561,0.1694,2.851,0.9986,0.0948,112
11,-0.8591,-0.1561,0.1694,3.019,1.0412,0.0818,112
11,-0.851,-0.1449,0.1377,3.1617,1.0587,0.0751,112
11,-0.8837,-0.1306,0.052,3.2915,1.0837,0.0621,112
11,-0.8949,-0.1102,0.0295,3.3907,1.1262,0.0501,112
11,-0.8846,-0.0836,0.004,3.4822,1.136,0.049,112
11,-0.8969,-0.0684,-0.0071,3.5564,1.1425,0.0545,112
11,-0.9173,-0.0765,-0.0388,3.5826,1.1818,0.0577,112
11,-0.9306,-0.0704,-0.0377,3.5826,1.1818,0.0577,112
11,-0.9367,-0.102,-0.0357,3.6043,1.2037,0.073,112
11,-0.9367,-0.102,-0.0357,3.5837,1.2145,0.0959,112
11,-0.9163,-0.2142,-0.0551,3.5129,1.2264,0.1221,112
11,-0.9,-0.2153,-0.0673,3.49,1.2157,0.1515,112
11,-0.8704,-0.201,-0.0796,3.5564,1.2145,0.1766,112
11,-0.8469,-0.2449,-0.0806,3.6022,1.2211,0.1755,112
11,-0.8255,-0.3582,-0.1867,3.5892,1.2079,0.1732,112
11,-0.7714,-0.3132,-0.1898,3.6796,1.1556,0.1842,112
11,-0.7734,-0.2531,-0.1877,3.8454,1.1382,0.1842,112
11,-0.799,-0.2347,-0.2377,3.8454,1.1382,0.1842,112
11,-0.799,-0.2347,-0.2377,3.9086,1.1327,0.1722,112
11,-0.7949,-0.2469,-0.2847,3.8693,1.0935,0.1537,112
11,-0.7163,-0.355,-0.3152,3.8552,1.0314,0.1274,112
11,-0.8428,-0.1826,-0.3296,3.9217,1.0433,0.0915,112
11,-0.7949,-0.3193,-0.4326,3.8727,1.0041,0.0774,112
11,-0.7928,-0.3163,-0.4877,3.7167,0.8144,0.0806,112
11,-0.7704,-0.2867,-0.4918,3.7189,0.7512,0.0969,112
11,-0.8663,-0.199,-0.5265,3.7102,0.7632,0.1308,112
11,-0.8745,-0.0704,-0.5652,3.6001,0.6934,0.1732,112
11,-0.855,-0.0765,-0.5684,3.6001,0.6934,0.1732,112
11,-0.855,-0.0765,-0.5684,3.3613,0.5713,0.2093,112
11,-0.8887,-0.1163,-0.6265,3.0484,0.5299,0.2115,112
11,-1.004,-0.0673,-0.6755,2.7737,0.5374,0.2659,112
11,-1.0347,0.0224,-0.7326,2.5316,0.4916,0.3183,112
11,-1.004,0.0367,-0.7061,2.2678,0.4273,0.326,112
11,-1.0306,0.0173,-0.7734,1.9952,0.4099,0.2791,112
11,-1.0652,0.1387,-0.7306,1.7138,0.4546,0.3073,112
11,-1.0469,0.1632,-0.7275,1.4118,0.4763,0.3783,112
11,-1.0265,0.1959,-0.6877,1.0292,0.4797,0.4317,112
11,-1.0163,0.2112,-0.6112,1.0292,0.4797,0.4317,112
11,-1.002,0.1571,-0.602,0.6213,0.4927,0.5059,112
11,-1.002,0.1571,-0.602,0.2398,0.5299,0.5734,112
11,-1.004,0.1285,-0.5745,-0.1188,0.5156,0.6291,112
11,-0.9438,0.1102,-0.5326,-0.3859,0.4687,0.6694,112
11,-0.9224,0.0224,-0.5,-0.5952,0.4307,0.6803,112
11,-0.8857,-0.002,-0.502,-0.7392,0.4393,0.6672,112
11,-0.8632,0.0143,-0.4816,-0.822,0.3979,0.664,112
11,-0.8591,0.0265,-0.4928,-0.8863,0.3542,0.664,112
11,-0.9142,0.053,-0.4877,-0.9572,0.3325,0.6682,112
11,-0.9428,0.0643,-0.5092,-0.9572,0.3325,0.6682,112
11,-0.9683,0.0796,-0.4969,-1.0118,0.3151,0.664,112
11,-0.9683,0.0796,-0.4969,-1.0575,0.267,0.6606,112
11,-0.9561,0.0418,-0.4601,-1.1131,0.2081,0.6552,112
11,-0.9337,0.0796,-0.4214,-1.1284,0.1547,0.6497,112
11,-0.8918,0.1224,-0.3796,-1.0826,0.1013,0.6454,112
11,-0.8806,0.1194,-0.3428,-1.1142,0.0828,0.6411,112
11,-0.8296,0.051,-0.3398,-1.2003,0.0698,0.652,112
11,-0.8102,0.0632,-0.3214,-1.2102,0.0534,0.6705,112
11,-0.8071,0.0663,-0.303,-1.173,0.0795,0.6966,112
11,-0.8071,0.0663,-0.303,-1.173,0.0795,0.6966,112
11,-0.8275,0.0816,-0.2816,-1.172,0.1373,0.7283,112
11,-0.8275,0.0816,-0.2816,-1.1459,0.1547,0.7577,112
11,-0.8245,0.101,-0.2693,-1.0935,0.1732,0.7795,112
11,-0.8571,0.1346,-0.2592,-1.0357,0.2289,0.7882,113
11,-0.8632,0.2194,-0.2255,-0.9626,0.2888,0.7783,113
11,-0.8448,0.2418,-0.251,-0.9082,0.3107,0.7577,113
11,-0.8286,0.2663,-0.2786,-0.9136,0.3161,0.726,113
11,-0.8061,0.2959,-0.2847,-0.8918,0.3193,0.7043,113
11,-0.8377,0.2898,-0.2847,-0.858,0.3554,0.6791,113
11,-0.8367,0.2408,-0.3193,-0.858,0.3554,0.6791,113
11,-0.8367,0.2408,-0.3193,-0.8645,0.3914,0.6442,113
11,-0.7928,0.2173,-0.3439,-0.8514,0.3706,0.6192,113
11,-0.7898,0.2755,-0.3846,-0.7435,0.3729,0.5854,113
11,-0.8326,0.3367,-0.3867,-0.5974,0.4284,0.5396,113
11,-0.8326,0.3714,-0.3887,-0.5036,0.4633,0.4982,113
11,-0.7959,0.3602,-0.4275,-0.4938,0.4284,0.4513,113
11,-0.8184,0.3367,-0.4836,-0.4906,0.4284,0.4164,113
11,-0.8336,0.3357,-0.5316,-0.4284,0.4372,0.3946,113
11,-0.8275,0.3234,-0.5806,-0.4,0.4077,0.3815,113
11,-0.8245,0.3102,-0.6,-0.3794,0.3859,0.3641,113
11,-0.8143,0.2918,-0.6194,-0.3794,0.3859,0.3641,113
11,-0.7938,0.2734,-0.6428,-0.3597,0.3368,0.3597,113
11,-0.7938,0.2734,-0.6428,-0.3466,0.2507,0.363,113
11,-0.7296,0.303,-0.6622,-0.2976,0.1635,0.3609,113
11,-0.7061,0.3724,-0.6949,-0.1831,0.085,0.3456,113
11,-0.6602,0.4255,-0.702,-0.074,-0.0011,0.3128,113
11,-0.6091,0.4275,-0.7265,0.0141,-0.061,0.218,113
11,-0.5449,0.5245,-0.7306,0.1167,-0.0969,0.1493,113
11,-0.6173,0.5561,-0.7204,0.1831,-0.1003,0.1079,113
11,-0.5908,0.4867,-0.6949,0.11,-0.0915,0.0806,113
11,-0.6561,0.3367,-0.7397,0.11,-0.0915,0.0806,113
11,-0.6561,0.3367,-0.7397,-0.0511,-0.1123,0.0806,113
11,-0.6469,0.3152,-0.7755,-0.0751,-0.1547,0.1221,113
11,-0.653,0.35,-0.7377,-0.0294,-0.2027,0.0959,113
11,-0.6877,0.3816,-0.7531,0.0,-0.231,0.0719,113
11,-0.704,0.4592,-0.7214,0.0043,-0.2954,0.0599,113
11,-0.7316,0.4479,-0.704,-0.0631,-0.387,0.0425,113
11,-0.7612,0.4081,-0.699,-0.1558,-0.4361,0.0282,113
11,-0.7704,0.3653,-0.6837,-0.2245,-0.5026,0.0108,113
11,-0.7275,0.3582,-0.6714,-0.2409,-0.5908,-0.0021,113
11,-0.7234,0.3632,-0.6673,-0.2409,-0.5908,-0.0021,113
11,-0.7234,0.3632,-0.6673,-0.2495,-0.6825,-0.0053,113
11,-0.7275,0.3653,-0.6703,-0.2529,-0.7522,-0.0021,113
11,-0.7438,0.4326,-0.6183,-0.2321,-0.8067,-0.0011,113
11,-0.7704,0.4449,-0.6194,-0.2224,-0.8863,-0.0206,113
11,-0.8061,0.4479,-0.6204,-0.2737,-0.9637,-0.0511,113
11,-0.7898,0.4561,-0.6102,-0.3151,-1.0629,-0.1003,113
11,-0.7949,0.4908,-0.5602,-0.3216,-1.1491,-0.1646,113
11,-0.7959,0.4775,-0.5122,-0.3609,-1.2188,-0.2398,113
11,-0.7673,0.4244,-0.4918,-0.4361,-1.2985,-0.3128,113
11,-0.7061,0.3683,-0.4428,-0.4361,-1.2985,-0.3128,113
11,-0.6959,0.3714,-0.4081,-0.5124,-1.3737,-0.3783,113
12,-0.6959,0.3714,-0.4081,-0.5549,-1.4162,-0.4328,113
12,-0.704,0.3775,-0.3663,-0.5877,-1.4336,-0.4721,113
12,-0.701,0.3785,-0.3591,-0.6476,-1.462,-0.4971,113
12,-0.752,0.3939,-0.3439,-0.7031,-1.4904,-0.5233,113
12,-0.7786,0.4244,-0.3173,-0.7283,-1.5045,-0.5669,113
12,-0.8173,0.4601,-0.2877,-0.7501,-1.523,-0.6268,113
12,-0.8428,0.4102,-0.2234,-0.8264,-1.5601,-0.6835,113
12,-0.8122,0.3745,-0.1785,-0.9463,-1.6016,-0.7435,113
12,-0.799,0.3949,-0.1387,-0.9463,-1.6016,-0.7435,113
12,-0.7959,0.4285,-0.1112,-1.0314,-1.6484,-0.7958,113
12,-0.7959,0.4285,-0.1112,-1.0782,-1.6506,-0.858,113
12,-0.8377,0.3224,-0.0714,-1.1884,-1.5972,-0.9256,113
12,-0.8275,0.2755,-0.0734,-1.3399,-1.5732,-0.9943,113
12,-0.7969,0.2612,-0.0459,-1.3889,-1.5972,-1.0324,113
12,-0.7745,0.2397,-0.0295,-1.4217,-1.5928,-1.0761,113
12,-0.7581,0.1928,-0.001,-1.5055,-1.5656,-1.1251,113
12,-0.7336,0.2,0.0347,-1.5688,-1.5677,-1.1524,113
12,-0.7306,0.1857,0.0183,-1.5688,-1.5677,-1.1524,113
12,-0.7306,0.1857,0.0183,-1.6669,-1.5667,-1.1785,113
12,-0.7714,0.1714,0.0326,-1.8153,-1.5328,-1.2037,113
12,-0.7714,0.1714,0.0326,-1.9297,-1.5055,-1.2188,113
12,-0.7806,0.1826,0.0418,-2.0453,-1.4893,-1.2493,113
12,-0.7795,0.153,0.0622,-2.21,-1.4729,-1.2722,113
12,-0.7938,0.0612,0.0939,-2.3996,-1.4467,-1.2842,113
12,-0.8357,0.0326,0.1082,-2.5719,-1.4097,-1.2777,113
12,-0.8051,-0.0388,0.1459,-2.7409,-1.3715,-1.2777,113
12,-0.7979,-0.204,0.151,-2.8958,-1.3443,-1.2766,113
12,-0.7265,-0.2816,0.199,-3.0755,-1.3071,-1.2548,113
12,-0.7265,-0.2816,0.199,-3.0755,-1.3071,-1.2548,113
12,-0.8408,-0.1928,0.251,-3.0767,-1.2254,-1.1873,113
12,-0.8459,-0.2459,0.2408,-3.057,-1.1196,-1.1295,113
12,-0.85,-0.4285,0.2734,-3.1487,-1.099,-1.173,113
12,-0.9041,-0.5265,0.2704,-3.1214,-1.0433,-1.0967,113
12,-0.9642,-0.5132,0.3081,-3.1104,-1.0019,-0.967,113
12,-0.8663,-0.403,0.4183,-2.9775,-1.04,-0.8307,113
12,-0.8275,-0.3959,0.4571,-2.8739,-1.0597,-0.8231,113
12,-0.8775,-0.3816,0.4867,-2.8935,-0.9921,-0.8132,113
12,-0.851,-0.4092,0.5326,-2.8935,-0.9921,-0.8132,113
12,-0.7388,-0.5398,0.5459,-2.9938,-0.9572,-0.7239,113
12,-0.7388,-0.5398,0.5459,-3.0942,-0.9746,-0.5799,113
12,-0.7499,-0.6561,0.5469,-3.0997,-0.8733,-0.4492,113
12,-0.9367,-0.65,0.5663,-2.9938,-0.6159,-0.3063,113
12,-1.0234,-0.5796,0.5928,-2.705,-0.4502,-0.193,113
12,-0.853,-0.549,0.5724,-2.5501,-0.5124,-0.2136,113
12,-0.8489,-0.5449,0.5438,-2.4597,-0.4895,-0.2268,113
12,-0.8582,-0.5092,0.5306,-2.3376,-0.339,-0.2027,113
12,-0.9235,-0.3918,0.4888,-2.2111,-0.1886,-0.1962,113
12,-0.9265,-0.3826,0.4581,-2.2111,-0.1886,-0.1962,113
12,-0.9387,-0.4071,0.4357,-2.151,-0.1123,-0.1886,113
12,-0.9387,-0.4071,0.4357,-2.1652,-0.0959,-0.1798,113
12,-0.9469,-0.4796,0.3939,-2.2012,-0.0589,-0.181,113
12,-1.001,-0.5295,0.3826,-2.1533,-0.0011,-0.1744,113
12,-1.0245,-0.5061,0.3796,-2.0224,0.0589,-0.1646,113
12,-1.0275,-0.5245,0.3459,-1.9853,0.0534,-0.1362,113
12,-1.0449,-0.5275,0.3122,-2.0236,0.0282,-0.1003,113
12,-1.0632,-0.4938,0.3184,-2.0377,0.0294,-0.0545,113
12,-1.0887,-0.4745,0.3204,-2.0453,0.037,-0.0011,113
12,-1.1122,-0.4775,0.3286,-2.0453,0.037,-0.0011,113
12,-1.1255,-0.5643,0.301,-2.1129,0.0555,0.0446,113
12,-1.1255,-0.5643,0.301,-2.235,0.0511,0.1112,113
12,-1.0979,-0.5969,0.3051,-2.3233,0.0305,0.193,114
12,-1.0836,-0.6183,0.3152,-2.3538,0.024,0.2899,114
12,-1.0847,-0.6224,0.3184,-2.3386,0.0446,0.4,114
12,-1.05,-0.5939,0.3173,-2.3222,0.0555,0.5026,114
12,-1.0214,-0.5122,0.3408,-2.2808,0.0523,0.5996,114
12,-1.0153,-0.451,0.35,-2.2197,0.0589,0.6869,114
12,-0.9826,-0.4969,0.3734,-2.2459,0.0959,0.7447,114
12,-0.9724,-0.4877,0.3775,-2.2459,0.0959,0.7447,114
12,-0.9724,-0.4877,0.3775,-2.271,0.1461,0.7762,114
12,-0.9296,-0.4418,0.4112,-2.2088,0.1602,0.7903,114
12,-0.9061,-0.3939,0.4438,-2.1335,0.194,0.785,114
12,-0.9163,-0.3582,0.4928,-2.1205,0.2725,0.7522,114
12,-0.9,-0.3479,0.5153,-2.1085,0.3368,0.714,114
12,-0.901,-0.3663,0.5286,-2.0759,0.3924,0.6661,114
12,-0.9694,-0.4285,0.5071,-2.0421,0.4655,0.6116,114
12,-1.0061,-0.3224,0.5479,-1.6877,0.5604,0.507,114
12,-1.0336,-0.3234,0.5388,-1.5362,0.581,0.4655,114
12,-1.0775,-0.3204,0.5255,-1.4456,0.5702,0.4295,114
12,-1.0673,-0.2898,0.5388,-1.4456,0.5702,0.4295,114
12,-1.0786,-0.2979,0.5336,-1.2636,0.5494,0.4164,114
12,-1.1173,-0.3459,0.501,-1.0858,0.5233,0.4088,114
12,-1.1173,-0.3459,0.501,-0.9551,0.5059,0.4044,114
12,-1.0714,-0.3622,0.4836,-0.7751,0.4524,0.4219,114
12,-1.0775,-0.3122,0.4714,-0.4982,0.3979,0.4414,114
12,-1.101,-0.2592,0.4847,-0.2191,0.3826,0.4578,114
12,-1.0561,-0.2531,0.4724,-0.012,0.3586,0.4775,114
12,-1.053,-0.2622,0.4724,0.1547,0.3073,0.5047,114
12,-1.0643,-0.2734,0.4561,0.3073,0.2812,0.5429,114
12,-1.0316,-0.2938,0.4367,0.3073,0.2812,0.5429,114
12,-1.0316,-0.2938,0.4367,0.4437,0.2617,0.5887,114
12,-1.0408,-0.2683,0.4092,0.5833,0.242,0.6508,114
12,-1.0224,-0.2459,0.3959,0.7217,0.2388,0.7098,114
12,-1.001,-0.2214,0.3908,0.8405,0.2201,0.7718,114
12,-1.0275,-0.1275,0.3806,0.9572,0.2333,0.8176,114
12,-1.0367,-0.0806,0.3887,1.0837,0.2495,0.859,114
12,-1.0367,-0.0336,0.4142,1.2113,0.2594,0.8733,114
12,-1.0418,-0.0245,0.4173,1.3071,0.2768,0.8601,114
12,-0.9969,-0.0898,0.3755,1.3672,0.2834,0.8285,114
12,-0.95,-0.1255,0.3408,1.3672,0.2834,0.8285,114
12,-0.95,-0.1255,0.3408,1.4653,0.2725,0.7926,114
12,-0.9244,-0.1143,0.3245,1.655,0.2922,0.7632,114
12,-0.9377,-0.0663,0.2857,1.884,0.3412,0.7337,114
12,-0.9347,0.0632,0.2469,2.0802,0.3848,0.7043,114
12,-0.9357,0.0806,0.2234,2.1991,0.4164,0.665,114
12,-0.949,0.0939,0.1785,2.2644,0.4448,0.6062,114
12,-0.9214,0.1337,0.0989,2.3113,0.4643,0.5418,114
12,-0.9255,0.1326,0.0684,2.3527,0.4851,0.4731,114
12,-0.9296,0.1285,0.0367,2.3386,0.508,0.4044,114
12,-0.9051,0.1418,0.0255,2.3386,0.508,0.4044,114
12,-0.8632,0.1938,0.051,2.3015,0.4916,0.3729,114
13,-0.8632,0.1938,0.051,2.3059,0.4589,0.3357,114
13,-0.851,0.1938,0.0612,2.283,0.4687,0.267,114
13,-0.8571,0.1908,0.0816,2.2274,0.4971,0.1886,114
13,-0.8582,0.15,0.1041,2.1751,0.52,0.1341,114
13,-0.8643,0.1408,0.1296,2.1379,0.5385,0.0643,114
13,-0.8724,0.1204,0.1387,2.1314,0.5898,-0.0185,114
13,-0.8663,0.0734,0.1449,2.1369,0.6421,-0.0969,114
13,-0.8653,-0.0643,0.1306,2.1608,0.6857,-0.169,114
13,-0.8663,-0.1102,0.1398,2.1608,0.6857,-0.169,114
13,-0.8704,-0.1459,0.1326,2.2285,0.7489,-0.231,114
13,-0.8704,-0.1459,0.1326,2.3222,0.7861,-0.2693,114
13,-0.8806,-0.2306,0.1132,2.4095,0.7981,-0.2812,114
13,-0.9163,-0.2693,0.1224,2.5021,0.8275,-0.2823,114
13,-0.9408,-0.2959,0.1306,2.6144,0.858,-0.2659,114
13,-0.9673,-0.3245,0.1224,2.7147,0.8449,-0.2376,114
13,-1.0092,-0.3582,0.1296,2.8008,0.8275,-0.2039,114
13,-1.0143,-0.3643,0.1265,2.8794,0.809,-0.1701,114
13,-1.0153,-0.3694,0.1112,2.8794,0.809,-0.1701,114
13,-0.9979,-0.3775,0.1,2.9458,0.785,-0.1438,114
13,-0.9642,-0.3816,0.0693,3.0211,0.7697,-0.1253,114
13,-0.9642,-0.3816,0.0693,3.0963,0.7566,-0.0937,114
13,-0.9601,-0.3765,0.0693,3.1802,0.7621,-0.0675,114
13,-0.9601,-0.3734,0.0693,3.2664,0.7817,-0.0294,114
13,-0.9908,-0.3673,0.0561,3.3252,0.8046,0.0053,114
13,-1.0,-0.3663,0.0591,3.383,0.8176,0.036,114
13,-0.9601,-0.3887,0.0479,3.4168,0.8155,0.0566,114
13,-0.9622,-0.4214,0.0295,3.4191,0.8329,0.0719,114
13,-0.9663,-0.4438,-0.0092,3.4431,0.8863,0.0883,114
13,-0.9663,-0.4438,-0.0092,3.4431,0.8863,0.0883,114
13,-0.952,-0.4377,-0.0173,3.5161,0.9048,0.1133,114
13,-0.953,-0.449,-0.0693,3.5553,0.9202,0.1406,114
13,-0.9459,-0.4102,-0.1183,3.5804,0.9288,0.1635,114
13,-0.9469,-0.3632,-0.1296,3.6087,0.9353,0.1864,114
13,-1.0214,-0.3745,-0.2051,3.5761,0.9408,0.1995,114
13,-0.9806,-0.3989,-0.2326,3.4866,0.9299,0.2093,114
13,-1.0459,-0.3173,-0.203,3.4311,0.9005,0.218,114
13,-1.052,-0.3541,-0.2928,3.4322,0.8775,0.2278,114
13,-0.9112,-0.4235,-0.352,3.1879,0.7184,0.2758,114
13,-0.9561,-0.3612,-0.3163,3.1879,0.7184,0.2758,114
13,-0.9561,-0.3612,-0.3163,3.1127,0.665,0.2998,114
13,-1.0326,-0.1898,-0.2786,3.1268,0.677,0.3368,114
13,-1.0102,-0.1877,-0.2755,3.0341,0.6705,0.3695,114
13,-0.9398,-0.2336,-0.301,2.7605,0.5364,0.4109,114
13,-0.8877,-0.2888,-0.3041,2.5763,0.4742,0.4437,114
13,-0.9694,-0.2745,-0.2469,2.4727,0.5124,0.4687,114
13,-0.999,-0.3184,-0.2612,2.3615,0.5778,0.5112,114
13,-0.9673,-0.3663,-0.302,2.1347,0.5124,0.5843,114
13,-0.8969,-0.3724,-0.3612,2.1347,0.5124,0.5843,114
13,-0.9479,-0.2816,-0.351,1.9723,0.4469,0.6596,114
13,-0.9479,-0.2816,-0.351,1.933,0.4643,0.7283,114
13,-0.949,-0.2163,-0.3673,1.9025,0.5112,0.7893,114
13,-0.8887,-0.0918,-0.3765,1.7978,0.4633,0.8645,114
13,-0.8765,-0.0745,-0.4203,1.6484,0.4077,0.9256,114
13,-0.9051,-0.0092,-0.3887,1.5209,0.4197,0.9605,114
13,-0.9102,0.0245,-0.3857,1.4075,0.4382,0.9845,114
13,-0.903,0.0122,-0.3806,1.2386,0.4044,1.0009,114
13,-0.9122,-0.0326,-0.3765,1.0063,0.3554,1.0259,114
13,-0.9469,-0.052,-0.3846,1.0063,0.3554,1.0259,114
13,-0.9592,-0.0143,-0.3765,0.8471,0.339,1.0587,114
13,-0.9592,-0.0143,-0.3765,0.809,0.3281,1.0412,114
13,-0.9469,0.0143,-0.3152,0.7533,0.3161,1.0095,114
13,-0.9265,-0.0224,-0.3357,0.5908,0.2856,0.9746,115
13,-0.8877,-0.0204,-0.3286,0.471,0.2562,0.9496,115
13,-0.855,0.1275,-0.2388,0.4721,0.2802,0.9267,115
13,-0.8541,0.1632,-0.2275,0.4492,0.338,0.9005,115
13,-0.8265,0.152,-0.2173,0.3466,0.3903,0.8558,115
13,-0.7979,0.1622,-0.2133,0.2627,0.4263,0.8296,115
13,-0.8408,0.1571,-0.1949,0.2627,0.4263,0.8296,115
13,-0.8408,0.1571,-0.1949,0.2147,0.5124,0.8275,115
13,-0.8683,0.1194,-0.1938,0.1079,0.6127,0.8329,115
13,-0.8704,0.0765,-0.2112,0.0011,0.6574,0.8569,115
13,-0.8602,0.0663,-0.2397,-0.0643,0.6737,0.8842,115
13,-0.8969,0.0551,-0.2418,-0.1047,0.7174,0.9147,115
13,-0.9112,0.0336,-0.2673,-0.1896,0.7783,0.9507,115
13,-0.9,0.0367,-0.2857,-0.2791,0.7697,1.0041,115
13,-0.8448,0.1735,-0.2938,-0.3586,0.7827,1.0532,115
13,-0.8326,0.2061,-0.3,-0.3979,0.8176,1.04,115
13,-0.7704,0.3081,-0.3255,-0.4328,0.8296,1.0095,115
13,-0.7755,0.254,-0.3224,-0.4328,0.8296,1.0095,115
13,-0.8061,0.2786,-0.3234,-0.4927,0.871,0.9954,115
13,-0.7806,0.2459,-0.3418,-0.5364,0.9288,0.9267,115
13,-0.7806,0.2459,-0.3418,-0.6356,0.9582,0.8842,115
13,-0.8398,0.2,-0.3704,-0.7871,0.9725,0.8569,115
13,-0.8132,0.1816,-0.4296,-0.8525,1.0215,0.8416,115
13,-0.8143,0.199,-0.452,-0.9168,1.0095,0.8275,115
13,-0.8336,0.2245,-0.4724,-0.9648,1.0303,0.8078,115
13,-0.8591,0.2949,-0.5255,-0.9986,1.0357,0.7903,115
13,-0.8214,0.3163,-0.5469,-1.0357,1.0226,0.7554,115
13,-0.8051,0.3632,-0.549,-1.0357,1.0226,0.7554,115
13,-0.7592,0.3714,-0.5816,-1.099,0.9769,0.714,115
13,-0.7693,0.3775,-0.6112,-1.1579,0.9463,0.6835,115
13,-0.7693,0.3775,-0.6112,-1.2352,0.9223,0.6749,115
13,-0.7449,0.3765,-0.6428,-1.2995,0.8634,0.6869,115
13,-0.7326,0.3918,-0.7,-1.3094,0.7861,0.677,115
13,-0.752,0.5092,-0.7571,-1.2331,0.7359,0.6333,115
13,-0.7622,0.5357,-0.7969,-1.1611,0.6999,0.5418,115
13,-0.7581,0.5469,-0.8245,-1.1545,0.6148,0.4252,115
13,-0.6469,0.5234,-0.8806,-1.209,0.483,0.3117,115
13,-0.6112,0.5326,-0.9041,-1.2374,0.375,0.2125,115
13,-0.6112,0.5326,-0.9041,-1.2374,0.375,0.2125,115
13,-0.6091,0.5561,-0.8877,-1.1993,0.3216,0.1362,115
13,-0.6112,0.5836,-0.8367,-1.1753,0.2932,0.0654,115
13,-0.5857,0.4806,-0.802,-1.2647,0.2268,0.0011,115
13,-0.5561,0.401,-0.7938,-1.4227,0.1352,-0.0479,115
13,-0.5398,0.3622,-0.749,-1.486,0.0654,-0.1024,115
13,-0.5643,0.3459,-0.6969,-1.4609,0.0446,-0.1591,115
13,-0.602,0.3143,-0.6683,-1.4544,0.0043,-0.1864,115
13,-0.6112,0.3061,-0.6663,-1.4479,-0.085,-0.1972,115
13,-0.6459,0.3306,-0.6602,-1.4479,-0.085,-0.1972,115
13,-0.7316,0.4724,-0.6071,-1.3834,-0.1482,-0.206,115
14,-0.7316,0.4724,-0.6071,-1.2701,-0.1623,-0.2268,115
14,-0.7316,0.5255,-0.5887,-1.1982,-0.1864,-0.2594,115
14,-0.7112,0.5336,-0.601,-1.2505,-0.2562,-0.2922,115
14,-0.6847,0.5265,-0.6173,-1.3552,-0.3193,-0.3325,115
14,-0.6479,0.5428,-0.5836,-1.4021,-0.339,-0.3783,115
14,-0.652,0.551,-0.5571,-1.3912,-0.3357,-0.4219,115
14,-0.6673,0.5234,-0.5367,-1.3966,-0.3521,-0.4633,115
14,-0.6775,0.4081,-0.4928,-1.4304,-0.3903,-0.5047,115
14,-0.6938,0.3663,-0.4724,-1.4304,-0.3903,-0.5047,115
14,-0.7255,0.3286,-0.4551,-1.4282,-0.4284,-0.5484,115
14,-0.7255,0.3286,-0.4551,-1.3857,-0.471,-0.581,115
14,-0.7245,0.3275,-0.4337,-1.3258,-0.5211,-0.6138,115
14,-0.7479,0.355,-0.4214,-1.2581,-0.5799,-0.6301,115
14,-0.7816,0.3775,-0.4275,-1.1938,-0.6116,-0.6497,115
14,-0.8061,0.3959,-0.4132,-1.135,-0.6333,-0.6661,115
14,-0.8265,0.4153,-0.3765,-1.0946,-0.6749,-0.6825,115
14,-0.8398,0.3908,-0.3571,-1.0848,-0.7098,-0.702,115
14,-0.8408,0.3591,-0.3357,-1.1142,-0.7217,-0.7304,115
14,-0.8489,0.3275,-0.2888,-1.1142,-0.7217,-0.7304,115
14,-0.8347,0.351,-0.2775,-1.1371,-0.738,-0.7435,115
14,-0.8347,0.351,-0.2775,-1.1556,-0.7533,-0.7512,115
14,-0.8387,0.3286,-0.2357,-1.1927,-0.7676,-0.7489,115
14,-0.8673,0.2786,-0.2714,-1.281,-0.7249,-0.7577,115
14,-0.8734,0.3143,-0.2377,-1.3029,-0.6999,-0.7577,115
14,-0.8643,0.3204,-0.2296,-1.3029,-0.702,-0.7522,115
14,-0.8765,0.2632,-0.2347,-1.3966,-0.6737,-0.7577,115
14,-0.8918,0.2388,-0.2377,-1.4794,-0.6312,-0.7664,115
14,-0.8785,0.2571,-0.1806,-1.4816,-0.6062,-0.7741,115
14,-0.9163,0.2214,-0.1735,-1.4816,-0.6062,-0.7741,115
14,-0.9163,0.2214,-0.1735,-1.5394,-0.5713,-0.785,115
14,-0.9326,0.1806,-0.1928,-1.656,-0.5244,-0.7915,115
14,-0.9469,0.1847,-0.2173,-1.7247,-0.5167,-0.7915,115
14,-0.9642,0.2755,-0.2775,-1.7313,-0.5026,-0.797,115
14,-0.9765,0.3418,-0.3041,-1.727,-0.495,-0.8067,115
14,-0.9755,0.3796,-0.3143,-1.751,-0.495,-0.809,115
14,-0.954,0.3775,-0.3122,-1.8382,-0.507,-0.8264,115
14,-0.9,0.2877,-0.2918,-1.9614,-0.5233,-0.8558,115
14,-0.8653,0.2153,-0.2592,-2.1108,-0.5408,-0.8885,115
14,-0.8479,0.1581,-0.2388,-2.1108,-0.5408,-0.8885,115
14,-0.8479,0.1581,-0.2388,-2.271,-0.5396,-0.9168,115
14,-0.7938,0.0786,-0.1449,-2.5446,-0.5549,-0.9136,115
14,-0.7857,0.001,-0.1275,-2.5446,-0.5549,-0.9136,115
14,-0.8316,-0.0295,-0.0959,-2.6896,-0.5036,-0.8733,115
14,-0.8734,-0.0652,-0.0693,-2.7899,-0.4481,-0.8242,115
14,-0.8734,-0.0939,-0.0183,-2.8227,-0.4437,-0.858,115
14,-0.8602,-0.0663,0.0275,-2.7703,-0.4219,-0.9005,115
14,-0.9142,-0.049,0.0326,-2.7737,-0.3619,-0.9092,115
14,-0.9561,-0.1642,0.049,-2.8641,-0.2954,-0.9124,115
14,-1.0153,-0.1122,0.1122,-2.8641,-0.2954,-0.9124,115
14,-0.9918,-0.1744,0.1091,-2.8958,-0.2802,-0.8754,115
14,-0.9918,-0.1744,0.1091,-2.8554,-0.2583,-0.8416,115
14,-1.0918,-0.2,0.1346,-2.8914,-0.2136,-0.8231,115
14,-1.1265,-0.2428,0.1765,-2.8717,-0.1907,-0.7741,115
14,-1.1592,-0.2449,0.1928,-2.8422,-0.2104,-0.726,115
14,-1.1541,-0.2571,0.1857,-2.826,-0.2159,-0.6737,115
14,-1.1255,-0.2326,0.2224,-2.7943,-0.2321,-0.6291,115
14,-1.1132,-0.2163,0.2234,-2.7354,-0.2289,-0.5887,115
14,-1.1071,-0.2173,0.2367,-2.7354,-0.2289,-0.5887,115
14,-1.0826,-0.251,0.2296,-2.705,-0.2268,-0.5309,115
14,-1.0836,-0.2367,0.2408,-2.6896,-0.2115,-0.4677,115
14,-1.0836,-0.2367,0.2408,-2.6602,-0.2027,-0.3935,115
14,-1.0571,-0.2122,0.2459,-2.573,-0.1886,-0.3161,115
14,-1.0388,-0.2112,0.252,-2.5141,-0.1711,-0.2464,115
14,-1.0295,-0.2112,0.249,-2.4978,-0.1373,-0.1842,115
14,-0.9663,-0.1816,0.2469,-2.4563,-0.1232,-0.1232,115
14,-0.9449,-0.1775,0.2479,-2.4029,-0.0915,-0.074,115
14,-0.9459,-0.1744,0.2316,-2.3735,-0.0479,-0.0381,115
14,-0.9296,-0.0959,0.2877,-2.3735,-0.0479,-0.0381,115
14,-0.9296,-0.0959,0.2877,-2.2895,-0.0032,-0.0141,115
14,-0.9265,-0.052,0.2959,-2.2088,0.0457,-0.0032,115
14,-0.9459,-0.051,0.2745,-2.1871,0.0904,0.0043,115
14,-0.9653,-0.0826,0.2888,-2.2001,0.1318,0.0087,115
14,-0.954,-0.0908,0.3184,-2.1816,0.1667,-0.0011,115
14,-0.9612,-0.05,0.3347,-2.065,0.1919,-0.0206,115
14,-1.0234,-0.0989,0.3387,-1.9843,0.2464,-0.0435,115
14,-0.9633,-0.1561,0.3867,-1.7978,0.2115,-0.0381,115
14,-0.9857,-0.1153,0.3877,-1.7313,0.2539,-0.0228,115
14,-1.0122,-0.1418,0.3582,-1.5961,0.2867,-0.0087,115
14,-1.0693,0.0591,0.4357,-1.4315,0.2987,0.0108,115
14,-1.0847,0.052,0.4244,-1.4315,0.2987,0.0108,115
14,-1.0357,-0.0163,0.3949,-1.2722,0.3031,0.0131,115
14,-1.0357,-0.0163,0.3949,-1.2974,0.2638,0.0043,115
14,-1.0571,-0.004,0.3724,-1.2319,0.23,-0.0152,115
14,-1.0132,0.0357,0.4183,-1.0183,0.2344,-0.0305,115
14,-1.0612,-0.0071,0.4316,-0.8634,0.2562,-0.0511,115
14,-1.0459,-0.0602,0.4224,-0.7958,0.2518,-0.0719,115
14,-0.9357,-0.0367,0.4387,-0.665,0.1449,-0.0621,115
14,-0.9755,-0.0388,0.4469,-0.4601,0.1406,-0.0719,115
14,-1.001,-0.0295,0.4428,-0.3216,0.2125,-0.0992,115
14,-1.001,-0.0295,0.4428,-0.3216,0.2125,-0.0992,115
14,-0.9265,-0.0092,0.4438,-0.1286,0.1995,-0.1221,115
14,-0.9265,-0.0092,0.4438,0.0131,0.157,-0.1471,115
14,-0.9592,-0.0714,0.4275,0.0686,0.1678,-0.1711,115
14,-0.9714,-0.0908,0.4183,0.2562,0.2201,-0.2016,115
14,-0.9734,-0.1163,0.3969,0.4841,0.2201,-0.1972,115
14,-0.9826,-0.1581,0.3428,0.6257,0.2278,-0.1886,115
14,-0.9765,-0.1551,0.303,0.7249,0.2159,-0.1635,115
14,-0.9888,-0.0918,0.3152,0.8842,0.2245,-0.1362,115
14,-1.0051,-0.0857,0.2531,0.9736,0.2464,-0.1089,115
14,-1.0153,-0.0939,0.2255,0.9736,0.2464,-0.1089,115
14,-1.0153,-0.0939,0.2255,0.9681,0.2507,-0.086,115
14,-0.9897,-0.0959,0.2092,0.9954,0.2365,-0.0664,115
14,-0.9949,-0.0979,0.2,1.0543,0.2289,-0.0469,115
14,-1.0479,-0.1755,0.1642,1.0902,0.2573,-0.0435,115
14,-1.0602,-0.1928,0.1398,1.1295,0.2495,-0.0337,115
14,-1.049,-0.2051,0.1337,1.28,0.1984,0.0087,115
14,-1.103,-0.2857,0.0673,1.28,0.1984,0.0087,115
14,-1.1265,-0.2693,0.0714,1.3834,0.2016,0.0534,115
14,-1.1326,-0.2397,0.0684,1.5297,0.1667,0.1089,115
14,-1.1703,-0.2316,0.0306,1.5297,0.1667,0.1089,115
15,-1.1703,-0.2316,0.0306,1.6037,0.1341,0.1667,115
15,-1.2183,-0.2112,-0.0031,1.631,0.1177,0.2201,115
15,-1.202,-0.1346,0.0275,1.6867,0.0904,0.2693,115
15,-1.2061,-0.0714,0.0295,1.7226,0.0654,0.3172,115
15,-1.1785,0.0255,0.0286,1.5994,0.0589,0.3521,115
15,-1.1561,0.151,0.0551,1.4653,0.0392,0.387,115
15,-1.1255,0.2163,0.0847,1.2079,0.074,0.3958,115
15,-1.1122,0.2224,0.1173,1.2079,0.074,0.3958,115
15,-1.0704,0.1969,0.1755,1.0455,0.1177,0.3685,115
15,-1.0224,0.1837,0.2142,1.0455,0.1177,0.3685,115
15,-0.9959,0.1439,0.2877,0.9986,0.1308,0.3346,115
15,-0.9959,0.1439,0.2877,0.9725,0.1657,0.3031,115
15,-0.9877,0.0,0.3306,0.9114,0.2376,0.2737,115
15,-0.9908,-0.0306,0.3765,0.9234,0.2943,0.2518,115
15,-1.0163,-0.0632,0.4071,1.0379,0.3695,0.2344,115
15,-1.0398,-0.0847,0.4479,1.1425,0.4492,0.2268,115
15,-1.0918,-0.2561,0.4663,1.2319,0.5036,0.231,115
15,-1.0673,-0.302,0.4979,1.6255,0.5484,0.3128,115
15,-1.0775,-0.3448,0.4877,1.6255,0.5484,0.3128,115
15,-1.0643,-0.3846,0.4683,1.6255,0.5484,0.3128,115
15,-1.0643,-0.3846,0.4683,1.8556,0.5778,0.363,115
15,-1.0275,-0.3806,0.3908,2.0824,0.6106,0.4077,115
15,-0.9694,-0.3561,0.3591,2.3527,0.6171,0.4448,115
15,-0.9469,-0.3439,0.3112,2.7813,0.6879,0.4851,115
15,-0.9367,-0.3857,0.204,2.7813,0.6879,0.4851,115
15,-0.9428,-0.3541,0.1561,2.9481,0.7205,0.5341,115
15,-0.9347,-0.2816,0.1224,3.1596,0.7272,0.5854,115
15,-0.9265,-0.2357,0.0867,3.334,0.7272,0.6203,115
15,-0.9714,-0.151,0.0428,3.334,0.7272,0.6203,115
15,-0.9714,-0.151,0.0428,3.5095,0.7522,0.6672,115
15,-0.9785,-0.1163,0.0102,3.5095,0.7522,0.6672,115
15,-0.9459,-0.0959,-0.0092,3.5673,0.7337,0.665,115
15,-0.8989,-0.1204,-0.05,3.5968,0.7249,0.653,115
15,-0.8796,-0.1316,-0.0571,3.6392,0.7533,0.6432,115
15,-0.8591,-0.1816,-0.0755,3.6459,0.7512,0.6705,115
15,-0.8255,-0.2285,-0.0959,3.6459,0.7512,0.6705,115
15,-0.7928,-0.2877,-0.1581,3.6447,0.7369,0.7043,115
15,-0.7653,-0.2908,-0.1612,3.6785,0.713,0.7392,115
15,-0.7499,-0.3132,-0.2173,3.6785,0.713,0.7392,115
15,-0.7499,-0.3132,-0.2173,3.7113,0.6846,0.7686,115
15,-0.7347,-0.3051,-0.2306,3.7428,0.6486,0.7958,115
15,-0.6867,-0.2592,-0.25,3.8072,0.6116,0.8111,115
15,-0.6622,-0.2704,-0.4051,3.8835,0.5418,0.8111,115
15,-0.7285,-0.1439,-0.2265,4.0045,0.545,0.7871,115
15,-0.6408,-0.2592,-0.4163,3.9555,0.5112,0.7588,115
15,-0.6346,-0.2204,-0.4041,3.8944,0.3968,0.7327,115
15,-0.6255,-0.1755,-0.4745,3.9969,0.3903,0.6911,115
15,-0.6979,-0.105,-0.4745,4.0612,0.4361,0.6562,115
15,-0.702,-0.1,-0.5684,4.0612,0.4361,0.6562,115
15,-0.6837,-0.1439,-0.6143,4.0034,0.4077,0.6388,115
15,-0.6837,-0.1439,-0.6143,3.8508,0.3336,0.6323,115
15,-0.7306,-0.1938,-0.6959,3.6535,0.3401,0.6791,115
15,-0.9551,-0.152,-0.8469,3.6535,0.3401,0.6791,115
15,-1.0367,-0.0143,-0.803,3.7308,0.3117,0.7327,115
15,-1.1071,0.001,-0.9132,3.6861,0.2354,0.7664,115
15,-1.1908,0.1071,-0.8989,3.5215,0.1962,0.7489,115
15,-1.1326,0.2183,-0.8734,3.1062,0.0839,0.6781,115
15,-1.0234,0.2173,-0.8989,3.1062,0.0839,0.6781,115
15,-0.9826,0.2449,-0.8398,3.1062,0.0839,0.6781,115
15,-0.9479,0.254,-0.749,2.8313,0.0425,0.6944,115
15,-0.9479,0.254,-0.749,2.5228,0.0566,0.809,116
15,-0.8193,0.002,-0.749,2.066,0.0621,0.834,116
15,-0.7653,0.0612,-0.6337,1.6986,-0.0032,0.9082,116
15,-0.7092,0.0857,-0.6132,1.6986,-0.0032,0.9082,116
15,-0.7255,-0.0183,-0.6041,1.4893,0.0511,0.8973,116
15,-0.7285,-0.0071,-0.6551,1.2788,0.0425,0.9038,116
15,-0.6959,0.0336,-0.6204,1.2428,0.0043,0.9267,116
15,-0.7388,0.1041,-0.6428,1.2428,0.0043,0.9267,116
15,-0.7388,0.1041,-0.6428,1.2264,0.0479,0.846,116
15,-0.8591,0.204,-0.6724,1.2264,0.0479,0.846,116
15,-0.8591,0.204,-0.6724,1.099,0.0316,0.8166,116
15,-0.8898,0.2061,-0.6898,0.9616,0.0076,0.7762,116
15,-0.9673,0.2194,-0.6775,0.8373,0.0174,0.7392,116
15,-0.9765,0.1969,-0.6908,0.508,-0.0141,0.7152,116
15,-0.9642,0.1694,-0.6724,0.508,-0.0141,0.7152,116
15,-0.9337,0.2142,-0.6265,0.1701,-0.0643,0.7882,116
15,-0.9122,0.2285,-0.5989,0.0381,-0.0664,0.8319,116
15,-0.8898,0.2133,-0.5948,-0.3117,-0.1155,0.9027,116
15,-0.8694,0.2265,-0.6,-0.3117,-0.1155,0.9027,116
15,-0.8837,0.3275,-0.5326,-0.3117,-0.1155,0.9027,116
15,-0.8887,0.3367,-0.5051,-0.3695,-0.1047,0.8973,116
15,-0.8887,0.3367,-0.5051,-0.4426,-0.0828,0.858,116
15,-0.8591,0.3193,-0.4897,-0.5528,-0.0969,0.7937,116
15,-0.8051,0.2755,-0.4755,-0.6213,-0.0774,0.6323,116
15,-0.7928,0.302,-0.4561,-0.6213,-0.0774,0.6323,116
15,-0.7877,0.3245,-0.4469,-0.5898,-0.0402,0.5582,116
15,-0.7581,0.3152,-0.4428,-0.6106,-0.0087,0.5004,116
15,-0.7418,0.2979,-0.4592,-0.6552,0.025,0.4502,116
15,-0.7643,0.3193,-0.4571,-0.6552,0.025,0.4502,116
15,-0.7663,0.3234,-0.4765,-0.6682,0.098,0.3729,116
15,-0.7499,0.3459,-0.551,-0.6682,0.098,0.3729,116
15,-0.7499,0.3459,-0.551,-0.6944,0.085,0.338,116
15,-0.7438,0.3428,-0.5918,-0.6988,0.0523,0.2922,116
15,-0.7683,0.3602,-0.5979,-0.6694,0.0555,0.1831,116
15,-0.7734,0.3939,-0.6071,-0.6955,0.0162,0.1362,116
15,-0.7499,0.4173,-0.5684,-0.6955,0.0162,0.1362,116
15,-0.749,0.3745,-0.551,-0.822,-0.0185,0.0925,116
15,-0.7683,0.3152,-0.5193,-0.9834,-0.0392,0.0566,116
15,-0.7714,0.2673,-0.4765,-1.1001,-0.0631,0.0217,116
15,-0.7653,0.1285,-0.3714,-1.1001,-0.0631,0.0217,116
15,-0.7653,0.1285,-0.3714,-1.2211,-0.1537,-0.024,116
15,-0.803,0.0643,-0.3408,-1.2211,-0.1537,-0.024,116
15,-0.8051,0.0816,-0.2979,-1.1425,-0.1972,-0.037,116
15,-0.8163,0.1408,-0.2234,-0.9997,-0.2485,-0.0545,116
15,-0.8041,0.1714,-0.2367,-0.9179,-0.2844,-0.0751,116
15,-0.7806,0.2397,-0.2377,-0.7501,-0.2911,-0.1079,116
15,-0.7643,0.302,-0.2377,-0.7501,-0.2911,-0.1079,116
16,-0.8,0.3418,-0.2898,-0.7447,-0.2191,-0.1274,116
16,-0.7816,0.3582,-0.3193,-0.7795,-0.1613,-0.1449,116
16,-0.752,0.3683,-0.3367,-0.7795,-0.1613,-0.1449,116
16,-0.752,0.3683,-0.3367,-0.7861,-0.1352,-0.1667,116
16,-0.803,0.3989,-0.3918,-0.7435,-0.0131,-0.2474,116
16,-0.7959,0.4092,-0.4132,-0.7435,-0.0131,-0.2474,116
16,-0.7908,0.401,-0.4347,-0.7512,-0.0217,-0.2943,116
16,-0.7826,0.3643,-0.4785,-0.834,-0.0774,-0.3903,116
16,-0.799,0.3857,-0.4847,-0.834,-0.0774,-0.3903,116
16,-0.8071,0.4183,-0.4704,-0.8624,-0.1787,-0.495,116
16,-0.8193,0.4081,-0.4714,-0.8624,-0.1787,-0.495,116
16,-0.8255,0.3571,-0.4745,-0.9921,-0.2693,-0.545,116
16,-0.8193,0.3367,-0.4071,-0.9921,-0.2693,-0.545,116
16,-0.8683,0.3582,-0.3826,-1.0618,-0.3565,-0.5887,116
16,-0.8683,0.3582,-0.3826,-1.0706,-0.4197,-0.6301,116
16,-0.9061,0.3418,-0.3489,-1.2243,-0.5473,-0.6966,116
16,-0.901,0.2816,-0.3234,-1.2243,-0.5473,-0.6966,116
16,-0.901,0.2908,-0.3081,-1.2581,-0.6291,-0.7163,116
16,-0.9235,0.2908,-0.3041,-1.2581,-0.6541,-0.738,116
16,-0.9163,0.2898,-0.2786,-1.2842,-0.6508,-0.7566,116
16,-0.8755,0.2949,-0.2938,-1.3683,-0.6869,-0.7729,116
16,-0.8683,0.3061,-0.2765,-1.3683,-0.6869,-0.7729,116
16,-0.8887,0.299,-0.2724,-1.3683,-0.6869,-0.7729,116
16,-0.9183,0.2561,-0.302,-1.4206,-0.6596,-0.7729,116
16,-0.9183,0.2561,-0.302,-1.5177,-0.6442,-0.7741,116
16,-0.903,0.2347,-0.3234,-1.6234,-0.6803,-0.7632,116
16,-0.8918,0.2245,-0.3234,-1.812,-0.7217,-0.7632,116
16,-0.9112,0.2255,-0.3255,-1.812,-0.7217,-0.7632,116
16,-0.9214,0.2122,-0.3122,-1.921,-0.7544,-0.7697,116
16,-0.8908,0.1602,-0.3163,-2.053,-0.8111,-0.7783,116
16,-0.8837,0.1194,-0.303,-2.2186,-0.87,-0.7947,116
16,-0.8898,0.051,-0.2479,-2.2186,-0.87,-0.7947,116
16,-0.8898,0.051,-0.2479,-2.4368,-0.9299,-0.834,116
16,-0.8663,0.052,-0.1683,-2.4368,-0.9299,-0.834,116
16,-0.8663,0.052,-0.1683,-2.5446,-0.9736,-0.8449,116
16,-0.8448,0.0367,-0.1285,-2.6678,-1.0106,-0.859,116
16,-0.8765,-0.0459,-0.052,-2.8107,-1.0009,-0.8525,116
16,-0.8489,-0.1326,0.0908,-3.0724,-0.8809,-0.8035,116
16,-0.9592,-0.0928,0.1826,-3.0724,-0.8809,-0.8035,116
16,-0.8704,-0.3255,0.199,-3.2838,-0.8329,-0.7174,116
16,-0.9959,-0.4479,0.3887,-3.4517,-0.7598,-0.6497,116
16,-1.0561,-0.5612,0.4428,-3.4517,-0.7598,-0.6497,116
16,-1.0561,-0.5612,0.4428,-3.383,-0.5723,-0.4317,116
16,-1.1082,-0.6735,0.4622,-3.3874,-0.3859,-0.3336,116
16,-1.2367,-0.6918,0.4724,-3.3874,-0.3859,-0.3336,116
16,-1.199,-0.502,0.6918,-3.0538,-0.363,-0.2899,116
16,-1.1592,-0.4183,0.5867,-2.7321,-0.3924,-0.1875,116
16,-1.1346,-0.4408,0.6071,-2.5577,-0.2966,-0.0818,116
16,-1.4551,-0.3745,0.6796,-2.4149,-0.0185,-0.036,116
16,-1.2418,-0.3091,0.7316,-2.1587,-0.0392,0.0392,116
16,-1.1418,-0.3173,0.6826,-2.0072,-0.2594,0.1188,116
16,-1.0663,-0.3408,0.6898,-2.0072,-0.2594,0.1188,116
16,-1.0663,-0.3102,0.6163,-1.9068,-0.1842,0.1373,116
16,-1.0663,-0.3102,0.6163,-1.6659,-0.036,0.1515,116
16,-1.0071,-0.2418,0.6061,-1.2625,0.0305,0.2224,116
16,-0.9571,-0.2622,0.5286,-1.2625,0.0305,0.2224,116
16,-0.9428,-0.2194,0.3582,-1.209,0.073,0.2682,116
16,-0.9918,-0.0979,0.3,-1.0292,0.1581,0.3041,116
16,-1.051,0.0183,0.2683,-0.846,0.2562,0.3456,116
16,-1.1061,0.1153,0.2438,-0.9594,0.314,0.3706,116
16,-1.1245,0.1346,0.1826,-0.9594,0.314,0.3706,116
16,-1.1041,0.105,0.1796,-0.9594,0.314,0.3706,116
16,-1.0959,0.0704,0.201,-1.1535,0.2932,0.3456,116
16,-1.0959,0.0704,0.201,-1.3094,0.3205,0.375,116
16,-1.1214,-0.0153,0.2551,-1.4315,0.3859,0.4338,116
16,-1.0959,-0.0551,0.2979,-1.5961,0.4448,0.4938,116
16,-1.0632,-0.0877,0.3184,-1.5961,0.4448,0.4938,116
16,-1.0449,-0.105,0.3541,-1.6102,0.4601,0.5364,116
16,-1.0316,-0.1285,0.4285,-1.5514,0.5233,0.5745,116
16,-1.0275,-0.1214,0.4653,-1.4784,0.5734,0.6148,116
16,-1.0347,-0.1214,0.4601,-1.2571,0.6257,0.6846,116
16,-0.9897,-0.0969,0.4377,-1.2571,0.6257,0.6846,116
16,-0.9979,-0.0541,0.4183,-1.2571,0.6257,0.6846,116
16,-0.9979,-0.0541,0.4183,-1.099,0.6442,0.7184,116
16,-1.0051,-0.0316,0.3561,-0.9343,0.6672,0.7501,116
16,-0.9785,0.0102,0.3,-0.5908,0.6171,0.81,116
16,-0.95,0.1622,0.202,-0.4361,0.5854,0.8405,116
16,-0.95,0.2214,0.1367,-0.4361,0.5854,0.8405,116
16,-0.9724,0.3081,0.0061,-0.2507,0.5299,0.8319,116
16,-0.9408,0.5132,-0.0336,-0.1406,0.4927,0.8373,116
16,-0.9673,0.652,-0.0541,-0.157,0.4546,0.6388,116
16,-0.9928,0.653,-0.0602,-0.157,0.4546,0.6388,116
16,-0.9398,0.6255,-0.0571,-0.3554,0.4263,0.5887,116
16,-0.9194,0.5816,0.0132,-0.4906,0.4143,0.6377,116
16,-0.9857,0.5449,-0.0836,-0.4906,0.4143,0.6377,116
16,-0.9857,0.5449,-0.0836,-0.653,0.4469,0.7075,116
16,-0.9928,0.5714,0.0765,-0.9059,0.375,0.6978,116
16,-0.9041,0.4438,0.0438,-0.9059,0.375,0.6978,116
16,-0.8765,0.5398,0.1326,-0.7937,0.3128,0.7098,116
16,-0.7938,0.4459,0.0704,-0.6966,0.2703,0.6923,116
16,-0.7857,0.4836,0.1183,-0.6759,0.2333,0.6541,116
16,-0.7857,0.5969,0.1479,-0.2627,0.2268,0.5745,116
16,-0.7388,0.6153,0.1449,-0.2627,0.2268,0.5745,116
16,-0.7173,0.5918,0.1183,-0.2856,0.1711,0.52,116
16,-0.7204,0.6816,0.1449,-0.2856,0.1711,0.52,116
16,-0.754,0.65,0.1214,-0.2081,0.1646,0.4557,116
16,-0.754,0.65,0.1214,-0.0643,0.1678,0.388,116
16,-0.7734,0.5765,0.0765,0.0131,0.1274,0.2442,116
16,-0.7602,0.5438,0.052,0.0131,0.1274,0.2442,116
16,-0.7296,0.5652,0.0193,0.1242,0.0511,0.1919,116
16,-0.7214,0.5469,0.0173,0.1896,-0.0032,0.1515,116
16,-0.7163,0.5163,0.0061,0.2136,-0.0534,0.1155,116
16,-0.7224,0.5561,0.0071,0.3205,-0.1646,0.0621,116
16,-0.7234,0.6061,0.0347,0.3205,-0.1646,0.0621,116
16,-0.7265,0.6285,0.0469,0.3205,-0.1646,0.0621,116
16,-0.7234,0.6285,0.0775,0.3151,-0.2016,0.0228,116
16,-0.7234,0.6285,0.0775,0.2049,-0.2289,-0.0294,116
16,-0.6694,0.5836,0.1541,0.1013,-0.2649,-0.0915,116
16,-0.6479,0.5255,0.1887,0.0828,-0.2256,-0.2594,116
16,-0.6398,0.4551,0.2255,0.0828,-0.2256,-0.2594,116
16,-0.6592,0.353,0.2673,0.182,-0.1591,-0.3434,116
17,-0.6622,0.3418,0.2734,0.3346,-0.1188,-0.412,116
17,-0.6735,0.3643,0.2479,0.5102,-0.0948,-0.4775,116
17,-0.6938,0.3898,0.2479,0.5102,-0.0948,-0.4775,116
17,-0.6938,0.3898,0.2479,0.8231,-0.0152,-0.6039,116
17,-0.7265,0.4633,0.1439,0.8231,-0.0152,-0.6039,116
17,-0.7643,0.5438,0.1592,0.9986,0.0686,-0.6803,116
17,-0.7816,0.5428,0.1143,1.1295,0.0894,-0.7501,116
17,-0.7643,0.4918,0.0745,1.1196,0.0435,-0.8046,116
17,-0.7836,0.4081,0.0092,1.2276,0.0435,-0.9136,116
17,-0.7959,0.4163,0.0071,1.2276,0.0435,-0.9136,116
17,-0.8143,0.4092,0.0,1.3126,0.049,-0.9561,116
17,-0.8326,0.3704,-0.0541,1.3071,0.0282,-0.9943,116
17,-0.8469,0.3969,-0.0571,1.3071,0.0282,-0.9943,116
17,-0.8469,0.3969,-0.0571,1.3061,-0.0087,-1.0238,116
17,-0.8949,0.4214,-0.0408,1.3388,-0.0032,-1.1131,116
17,-0.9398,0.403,-0.0377,1.3388,-0.0032,-1.1131,116
17,-0.9949,0.2397,-0.0357,1.2821,-0.0272,-1.1709,116
17,-1.0224,0.1847,0.0061,1.2613,-0.0435,-1.2308,116
17,-1.0643,0.1622,0.0541,1.2832,-0.0414,-1.2821,116
17,-1.1132,0.0418,0.0847,1.2167,-0.0894,-1.3311,116
17,-1.1234,-0.0173,0.1061,1.2167,-0.0894,-1.3311,116
17,-1.1428,-0.0724,0.1204,1.1915,-0.1123,-1.3137,116
17,-1.1653,-0.1,0.1337,1.1915,-0.1123,-1.3137,116
17,-1.0622,-0.4224,0.1153,1.1884,-0.1221,-1.2701,116
17,-1.0622,-0.4224,0.1153,1.1339,-0.1547,-1.2613,116
17,-1.1143,-0.2683,0.0591,1.3901,-0.1623,-1.2079,116
17,-1.1898,-0.1061,0.2081,1.3901,-0.1623,-1.2079,116
17,-1.1622,-0.15,0.2092,1.4304,-0.1503,-1.2342,116
17,-1.0857,-0.3561,0.1642,1.2483,-0.2125,-1.2232,116
17,-1.1622,-0.3091,0.2245,1.3246,-0.2278,-1.1611,116
17,-1.2234,-0.3234,0.2408,1.4315,-0.1123,-1.0946,116
17,-1.1847,-0.4622,0.2469,1.4315,-0.1123,-1.0946,116
17,-1.1653,-0.4601,0.2571,1.4315,-0.1123,-1.0946,116
17,-1.1602,-0.4653,0.2602,1.4238,-0.1471,-1.0324,116
17,-1.1602,-0.4653,0.2602,1.4914,-0.1406,-0.9343,116
17,-1.1714,-0.504,0.25,1.5579,-0.0457,-0.8122,116
17,-1.1541,-0.4959,0.2397,1.6823,-0.0457,-0.7566,116
17,-1.1346,-0.4601,0.249,1.6823,-0.0457,-0.7566,116
17,-1.1245,-0.453,0.251,1.7651,-0.0305,-0.7075,116
17,-1.1449,-0.453,0.2438,1.7695,0.0065,-0.6432,116
17,-1.1265,-0.4244,0.2734,1.812,0.025,-0.5723,116
17,-1.0867,-0.4347,0.2959,1.812,0.025,-0.5723,116
17,-1.0989,-0.4663,0.2928,1.8567,0.0479,-0.4372,116
17,-1.0979,-0.4847,0.3184,1.8567,0.0479,-0.4372,116
17,-1.0979,-0.4847,0.3184,1.8698,0.0904,-0.363,116
17,-1.0959,-0.4765,0.3479,1.9275,0.1068,-0.2779,116
17,-1.1214,-0.4877,0.3408,1.9122,0.1831,-0.1035,116
17,-1.0908,-0.5255,0.3428,1.9538,0.2376,-0.0174,116
17,-1.1326,-0.504,0.35,1.9538,0.2376,-0.0174,116
17,-1.1346,-0.4857,0.3245,1.9995,0.3227,0.0751,116
17,-1.1346,-0.4479,0.3081,2.0148,0.3554,0.1667,116
17,-1.1061,-0.45,0.299,2.0257,0.3946,0.2518,116
17,-1.0948,-0.4847,0.2724,2.0257,0.3946,0.2518,116
17,-1.0948,-0.4847,0.2724,2.0038,0.5189,0.4338,116
17,-1.0816,-0.4806,0.2377,2.0038,0.5189,0.4338,116
17,-1.0306,-0.4235,0.2469,2.0889,0.5778,0.5385,116
17,-0.9592,-0.4051,0.1949,2.1543,0.6345,0.6432,116
17,-0.9561,-0.4337,0.1449,2.1423,0.7327,0.7403,116
17,-0.9571,-0.3857,0.1112,2.379,0.9179,0.9267,116
17,-0.9806,-0.2551,0.0347,2.379,0.9179,0.9267,116
17,-0.9969,-0.2418,-0.0071,2.4433,0.9736,0.9975,116
17,-0.9755,-0.2397,-0.0286,2.4389,1.0063,1.0433,116
17,-0.9601,-0.2336,-0.0581,2.4389,1.0063,1.0433,116
17,-0.9601,-0.2336,-0.0581,2.4248,1.0074,1.0902,116
17,-0.9438,-0.1877,-0.1122,2.3495,1.0118,1.1818,116
17,-0.9306,-0.1703,-0.1275,2.3495,1.0118,1.1818,116
17,-0.9173,-0.1469,-0.1489,2.1457,0.9463,1.2865,116
17,-0.8785,-0.1061,-0.1694,2.1457,0.9463,1.2865,116
17,-0.8816,-0.0969,-0.1612,2.0289,0.9179,1.3454,116
17,-0.8846,-0.0816,-0.1551,1.7662,0.8744,1.4173,116
17,-0.9061,-0.0724,-0.1867,1.7662,0.8744,1.4173,116
17,-0.8765,0.0836,-0.0377,1.7662,0.8744,1.4173,116
17,-0.9337,0.0836,-0.1735,1.6823,0.8439,1.425,116
17,-0.9337,0.0836,-0.1735,1.6844,0.8405,1.413,116
17,-0.7786,0.0388,-0.1653,1.4751,0.7392,1.3956,116
17,-0.7571,0.0377,-0.2081,1.3191,0.7621,1.3115,116
17,-0.8112,0.1439,-0.2285,1.3191,0.7621,1.3115,116
17,-0.7745,0.1714,-0.3336,1.0106,0.6911,1.1764,116
17,-0.7745,0.1714,-0.3336,1.0106,0.6911,1.1764,116
17,-0.8316,0.2214,-0.3132,0.8285,0.8231,1.1567,116
17,-0.803,0.2306,-0.3398,0.8285,0.8231,1.1567,116
17,-0.8296,0.2632,-0.3326,0.7249,0.8285,1.1404,116
17,-0.8184,0.302,-0.4041,0.5461,0.9299,1.0782,116
17,-0.8469,0.353,-0.4041,0.5461,0.9299,1.0782,116
17,-0.8643,0.351,-0.4592,0.3641,1.0357,0.9834,116
17,-0.8459,0.3979,-0.4928,0.3641,1.0357,0.9834,116
17,-0.8214,0.352,-0.4826,0.3641,1.0357,0.9834,116
17,-0.8316,0.4428,-0.601,0.2518,1.04,0.9616,116
17,-0.8316,0.4428,-0.601,0.1503,1.0673,0.9376,116
17,-0.9183,0.4398,-0.5673,-0.0795,1.0074,0.883,116
17,-0.7704,0.3541,-0.6653,-0.2495,0.8809,0.8449,116
17,-0.8071,0.3479,-0.6357,-0.2495,0.8809,0.8449,116
17,-0.8132,0.355,-0.6479,-0.2725,0.8668,0.8166,116
17,-0.803,0.4122,-0.6173,-0.2321,0.7937,0.7806,116
17,-0.7142,0.3622,-0.6602,-0.2834,0.653,0.7489,116
17,-0.699,0.3561,-0.6387,-0.3619,0.4666,0.677,116
17,-0.6796,0.3816,-0.6357,-0.3619,0.4666,0.677,116
17,-0.6796,0.4326,-0.6387,-0.3619,0.4666,0.677,116
17,-0.6796,0.4326,-0.6387,-0.3302,0.4208,0.6301,116
17,-0.6735,0.4285,-0.6826,-0.3815,0.3489,0.5789,116
17,-0.6357,0.4387,-0.7081,-0.3521,0.2823,0.4698,116
17,-0.6326,0.4469,-0.7275,-0.2911,0.3172,0.4034,116
17,-0.6571,0.5214,-0.7765,-0.2911,0.3172,0.4034,116
17,-0.6439,0.5347,-0.7938,-0.3172,0.3193,0.3183,116
17,-0.5928,0.501,-0.8296,-0.4153,0.2834,0.2485,116
17,-0.5928,0.5438,-0.802,-0.5408,0.2682,0.2071,116
17,-0.5928,0.5438,-0.802,-0.5408,0.2682,0.2071,116
17,-0.6459,0.5836,-0.7622,-0.8471,0.2747,0.2867,116
17,-0.6694,0.5255,-0.7449,-0.8471,0.2747,0.2867,116
18,-0.6703,0.3928,-0.752,-1.1567,0.1984,0.2844,116
18,-0.6694,0.2734,-0.6489,-1.3378,0.1112,0.2791,116
18,-0.701,0.2693,-0.5948,-1.3279,0.0719,0.2779,116
18,-0.7316,0.25,-0.5652,-1.3268,-0.0392,0.2507,116
18,-0.7153,0.2592,-0.5561,-1.3268,-0.0392,0.2507,116
18,-0.6724,0.449,-0.5286,-1.2407,-0.1232,0.2485,116
18,-0.6969,0.5408,-0.501,-1.1284,-0.1133,0.2224,116
18,-0.7265,0.5877,-0.4734,-1.1284,-0.1133,0.2224,116
18,-0.7265,0.5877,-0.4734,-1.1131,-0.061,0.181,116
18,-0.7112,0.5581,-0.4551,-1.2701,-0.0621,0.0883,116
18,-0.7194,0.5071,-0.4551,-1.2701,-0.0621,0.0883,116
18,-0.7275,0.4836,-0.4203,-1.3203,-0.0196,0.0326,116
18,-0.7479,0.4796,-0.3816,-1.2995,0.0206,-0.0719,116
18,-0.751,0.4153,-0.3316,-1.2995,0.0206,-0.0719,116
18,-0.752,0.3775,-0.2949,-1.2962,-0.0032,-0.1177,116
18,-0.7632,0.3673,-0.2673,-1.2962,-0.0032,-0.1177,116
18,-0.8224,0.3663,-0.2163,-1.2287,0.0076,-0.1384,116
18,-0.8347,0.3673,-0.2,-1.2287,0.0076,-0.1384,116
18,-0.8377,0.3632,-0.2142,-1.1774,0.0141,-0.1515,116
18,-0.8377,0.3632,-0.2142,-1.1447,-0.012,-0.1581,116
18,-0.8387,0.3632,-0.2285,-1.0019,-0.0621,-0.1776,116
18,-0.8224,0.3785,-0.2643,-1.0019,-0.0621,-0.1776,116
18,-0.8265,0.4142,-0.2918,-0.8907,-0.0708,-0.2016,116
18,-0.8143,0.4612,-0.3081,-0.7653,-0.0915,-0.2321,116
18,-0.7959,0.4612,-0.3439,-0.6923,-0.1286,-0.2649,116
18,-0.7959,0.4561,-0.3704,-0.6585,-0.2081,-0.339,116
18,-0.8041,0.4755,-0.3806,-0.6585,-0.2081,-0.339,116
18,-0.8173,0.501,-0.3816,-0.6585,-0.2081,-0.339,116
18,-0.8173,0.501,-0.3816,-0.628,-0.2703,-0.3695,116
18,-0.8387,0.5132,-0.3908,-0.6367,-0.3456,-0.3946,116
18,-0.8377,0.5265,-0.3898,-0.6781,-0.5233,-0.4589,116
18,-0.8245,0.5224,-0.3704,-0.7195,-0.5833,-0.5091,116
18,-0.8163,0.4959,-0.353,-0.7195,-0.5833,-0.5091,116
18,-0.7949,0.4316,-0.3377,-0.7817,-0.6356,-0.5549,116
18,-0.7643,0.4285,-0.3173,-0.8111,-0.6944,-0.5919,116
18,-0.749,0.4235,-0.3,-0.8252,-0.726,-0.6291,116
18,-0.7612,0.4183,-0.299,-0.8252,-0.726,-0.6291,116
18,-0.7612,0.4183,-0.299,-0.8819,-0.7337,-0.6934,116
18,-0.7499,0.4285,-0.2928,-0.8819,-0.7337,-0.6934,116
18,-0.7397,0.4316,-0.2959,-0.9048,-0.7413,-0.7174,116
18,-0.7479,0.4265,-0.302,-0.9387,-0.726,-0.7501,116
18,-0.7418,0.45,-0.2959,-0.9845,-0.6988,-0.7795,116
18,-0.7265,0.4592,-0.2959,-1.1535,-0.6629,-0.8199,116
18,-0.7316,0.4408,-0.3041,-1.1535,-0.6629,-0.8199,116
18,-0.7388,0.4122,-0.3286,-1.2832,-0.6301,-0.8319,116
18,-0.7418,0.3898,-0.3204,-1.3824,-0.6051,-0.8439,116
18,-0.7561,0.3877,-0.3255,-1.3824,-0.6051,-0.8439,116
18,-0.7561,0.3877,-0.3255,-1.4522,-0.5778,-0.8613,116
18,-0.7663,0.3939,-0.3234,-1.6299,-0.5331,-0.9048,116
18,-0.7643,0.3939,-0.3214,-1.6299,-0.5331,-0.9048,116
18,-0.7745,0.3785,-0.3265,-1.7444,-0.52,-0.9267,116
18,-0.7918,0.3541,-0.3286,-2.0158,-0.4721,-0.9769,116
18,-0.7959,0.3255,-0.3184,-2.0158,-0.4721,-0.9769,116
18,-0.8163,0.2571,-0.3143,-2.296,-0.4338,-1.0084,116
18,-0.8245,0.2214,-0.3112,-2.296,-0.4338,-1.0084,116
18,-0.8448,0.1908,-0.3051,-2.4236,-0.4187,-1.0118,116
18,-0.8796,0.1306,-0.2795,-2.4236,-0.4187,-1.0118,116
18,-0.9102,0.1112,-0.2367,-2.5522,-0.3979,-1.0084,116
18,-0.9102,0.1112,-0.2367,-2.6831,-0.3838,-0.9986,116
18,-0.9306,0.0826,-0.2092,-2.9328,-0.3586,-0.966,116
18,-0.9479,0.049,-0.1806,-2.9328,-0.3586,-0.966,116
18,-0.9806,-0.0193,-0.1418,-3.0419,-0.3641,-0.9353,116
18,-1.0143,-0.0357,-0.0724,-3.1421,-0.3346,-0.895,116
18,-1.0622,-0.0765,-0.05,-3.2272,-0.2802,-0.8634,116
18,-1.0684,-0.1132,0.0,-3.3275,-0.2987,-0.797,116
18,-1.0724,-0.0979,0.0418,-3.3275,-0.2987,-0.797,116
18,-1.0643,-0.1612,0.0541,-3.3275,-0.2987,-0.797,116
18,-1.001,-0.2581,0.0571,-3.3613,-0.2966,-0.7621,116
18,-1.001,-0.2581,0.0571,-3.4256,-0.2867,-0.7554,116
18,-1.0734,-0.1703,0.1887,-3.3721,-0.2573,-0.6682,116
18,-1.0449,-0.3143,0.1653,-3.4332,-0.1907,-0.6116,116
18,-1.0939,-0.3582,0.2071,-3.4332,-0.1907,-0.6116,116
18,-1.0438,-0.3939,0.2112,-3.3929,-0.1972,-0.52,116
18,-1.0939,-0.3745,0.2795,-3.2861,-0.1875,-0.4044,116
18,-1.1204,-0.403,0.2806,-3.2163,-0.1123,-0.3586,116
18,-1.1163,-0.3622,0.2938,-2.9982,-0.0937,-0.2682,116
18,-1.1183,-0.3204,0.3163,-2.9982,-0.0937,-0.2682,116
18,-1.101,-0.2949,0.3347,-2.9982,-0.0937,-0.2682,116
18,-1.0449,-0.2326,0.3796,-2.8695,-0.0446,-0.1264,116
18,-1.0295,-0.2397,0.4,-2.8695,-0.0446,-0.1264,116
18,-1.0295,-0.2397,0.4,-2.8128,0.0141,-0.0589,116
18,-1.0193,-0.2183,0.4449,-2.8128,0.0141,-0.0589,116
18,-0.9806,-0.251,0.3928,-2.7976,0.0414,-0.024,116
18,-1.0092,-0.2428,0.452,-2.718,0.0818,0.0185,116
18,-1.0316,-0.2704,0.4755,-2.6318,0.1886,0.0392,116
18,-1.0581,-0.2051,0.4734,-2.2863,0.2529,0.036,116
18,-1.004,-0.0051,0.4959,-2.2863,0.2529,0.036,116
18,-1.0959,-0.1122,0.5132,-2.1205,0.2659,0.0621,116
18,-1.1091,-0.3224,0.4642,-2.3092,0.35,0.0534,116
18,-1.049,-0.303,0.4918,-2.3092,0.35,0.0534,116
18,-1.049,-0.303,0.4918,-2.2808,0.3041,0.0654,116
18,-1.004,-0.1204,0.5836,-1.8523,0.2268,0.1024,116
18,-1.0286,-0.1194,0.5898,-1.6495,0.2583,0.0937,116
18,-1.0234,-0.1306,0.5806,-1.6125,0.2758,0.0883,116
18,-0.9826,-0.0459,0.6204,-1.366,0.2409,0.0937,116
18,-0.9897,-0.0632,0.603,-1.1186,0.23,0.0925,116
18,-0.9796,-0.0898,0.5734,-0.7632,0.2638,0.049,116
18,-0.9449,-0.0153,0.5989,-0.7632,0.2638,0.049,116
18,-0.9347,0.0561,0.6285,-0.7632,0.2638,0.049,116
18,-0.949,0.0061,0.5673,-0.4469,0.2617,0.037,116
18,-0.949,0.0061,0.5673,-0.3096,0.2725,0.0185,116
18,-0.9285,0.0286,0.5693,-0.169,0.2693,0.0097,116
18,-0.9163,0.0428,0.5602,0.2268,0.2693,-0.0316,116
18,-0.9367,0.0295,0.5245,0.2268,0.2693,-0.0316,116
18,-0.9857,-0.0408,0.45,0.3891,0.2856,-0.0664,116
18,-0.9153,-0.0102,0.4612,0.5408,0.2682,-0.0883,116
18,-0.8806,-0.0286,0.4142,0.7327,0.2147,-0.1047,116
18,-0.9601,-0.0867,0.3837,1.0074,0.2899,-0.1144,116
18,-0.9347,-0.0826,0.3591,1.0074,0.2899,-0.1144,116
18,-0.9326,-0.0887,0.3428,1.0074,0.2899,-0.1144,116
