,Unnamed: 0,timestamp,node,accx,accy,accz,gyrox,gyroy,gyroz,q0,q1,q2,q3,timestamp.1,node.1,accx.1,accy.1,accz.1,gyrox.1,gyroy.1,gyroz.1,q0.1,q1.1,q2.1,q3.1,timestamp.2,node.2,accx.2,accy.2,accz.2,gyrox.2,gyroy.2,gyroz.2,q0.2,q1.2,q2.2,q3.2,timestamp.3,node.3,accx.3,accy.3,accz.3,gyrox.3,gyroy.3,gyroz.3,q0.3,q1.3,q2.3,q3.3,timestamp.4,node.4,accx.4,accy.4,accz.4,gyrox.4,gyroy.4,gyroz.4,q0.4,q1.4,q2.4,q3.4,timestamp.5,node.5,accx.5,accy.5,accz.5,gyrox.5,gyroy.5,gyroz.5,q0.5,q1.5,q2.5,q3.5,timestamp.6,node.6,accx.6,accy.6,accz.6,gyrox.6,gyroy.6,gyroz.6,q0.6,q1.6,q2.6,q3.6,timestamp.7,node.7,accx.7,accy.7,accz.7,gyrox.7,gyroy.7,gyroz.7,q0.7,q1.7,q2.7,q3.7,timestamp.8,node.8,accx.8,accy.8,accz.8,gyrox.8,gyroy.8,gyroz.8,q0.8,q1.8,q2.8,q3.8
0,0,0.0369999999998071,0.0,-1.675990361440371e-16,9.529433881539552e-17,1.0,0.0219308628223178,0.0153278501544219,-0.0096028026359195,0.9999989894481736,0.0010965420330022,0.000766918227078,-0.0004801402239126,0.0369999999998071,1.0,7.975449367116731e-17,3.5286740859643666e-17,1.0,0.0187253884959917,-0.0152463391252978,-0.0244148110978754,0.9999985269050397,0.0009362680455858,-0.0007611728929261,-0.0012207398267271,0.0369999999998071,2.0,-4.1177195895260206e-17,3.72280331097809e-17,1.0,0.0173955825168972,-0.0076521712282647,-0.0343176961008403,0.9999980769903748,0.0008697774532512,-0.0003811153877374,-0.0017158828034703,0.0380000000000109,3.0,3.6910327174502506e-18,-4.275566379789941e-17,1.0,0.0227455239189626,-0.0126330876467665,-0.003878869769724,0.9999991351411308,0.0011372752123647,-0.0006314332689243,-0.0001939435715981,0.0380000000000109,4.0,3.8049919803630056e-17,-1.1815093380094462e-16,1.0,0.0138348643774826,-0.0078969025804691,-0.032930067122195,0.9999983277596314,0.0006917420621131,-0.0003937055131206,-0.0016465013906252,0.0,5.0,-3.4289458738416666e-17,5.1730966627358624e-17,1.0,-0.0308653392406505,-0.0466926916197524,-0.0202064565889901,0.9999955699137536,-0.0015432601252267,-0.0023361834292913,-0.00101032075988,0.0,6.0,-5.597797517462233e-17,4.668780054335409e-17,1.0,0.007523399016511,-0.023969124184694,-0.0094029974122754,0.9999991007921112,0.0003761696125705,-0.0011982782754787,-0.0004701495143792,0.0,7.0,5.4692893349948967e-17,1.0439503706778465e-17,1.0,0.0196280866611171,0.0088534199616586,-0.0170090713219435,0.9999990584391416,0.0009814034090039,0.0004435052193102,-0.0008504535844607,0.0,8.0,-9.200101695495723e-17,1.4230166161933313e-17,1.0,0.0039315295011783,-0.0173121588314522,0.0086770295066075,0.9999995118532624,0.0001965763791007,-0.000865692803981,0.0004338512803122
1,1,0.1109999999998763,0.0,0.0003519121491377,0.0009037280239744,0.9801086977644358,0.0285581359535516,0.0089129261928761,-0.0195208977961389,0.9999952855346111,0.0024603468852458,0.0011196107997081,-0.0014567338166589,0.1109999999998763,1.0,0.0006314496706411,-0.000669209149694,0.9799454849278236,0.0126536224061847,-0.008808109739945,-0.0229236019496152,0.9999954911849926,0.0014414696131377,-0.0011567558169808,-0.0023667891793416,0.1109999999998763,2.0,0.000766159057665,0.0006040720697652,0.9801245064262158,0.026306357982415,-0.0084104700077025,-0.0052767011726065,0.9999954524740132,0.0021282389576436,-0.0008043581524151,-0.0019795550498273,0.1109999999998763,3.0,0.0005748154122883,0.0021131448979177,0.9798720346075208,0.0185222581048541,-0.0121129918647594,0.0171272387532575,0.9999969391438474,0.0020568201918049,-0.00120523013217,0.0006622793696434,0.1109999999998763,4.0,0.0009304561420267,0.0002257097817603,0.9802102240368962,0.0181096989911649,-0.0087458340821143,0.03642375578253,0.9999984462697058,0.0015380481207507,-0.0008433981034801,0.0001747735442153,0.0319999999999254,5.0,0.0034625627459531,-0.0022349852500361,0.9797979462624744,-0.0302404211078639,-0.0489782947600758,-0.0332914062563921,0.9999806882106456,-0.0030137349160522,-0.0047314912434031,-0.0026746211382871,0.030999999999949,6.0,0.0006230241545606,0.0007821600252214,0.9803106650784732,0.0155786296329667,-0.0247415454450872,-0.0156675080902835,0.9999957910417168,0.0011577159788219,-0.0023467762217735,-0.00125308975269,0.0319999999999254,7.0,-0.0002946632345333,0.0009552042086526,0.9803346371308616,0.0158968375385015,0.022355465603389,-0.0284476143715892,0.999994751198912,0.0017271499588534,0.00153368935986,-0.0022720749533502,0.0319999999999254,8.0,0.0022335554042018,5.776721246994413e-05,0.9793365141222936,0.0134828850273506,-0.0160756425566848,0.0133110523307756,0.9999975903862574,0.0008538325997626,-0.001697211403796,0.0010998477263817
2,2,0.1869999999998981,0.0,0.0010557364474133,0.0027111840719231,0.9796211180356832,0.0292937848850964,0.0132288904061619,-0.0160621156605664,0.9999888554516666,0.00381734779305,0.0016159323586604,-0.002259555466255,0.1879999999998745,1.0,0.0007276259752966,0.0006859733227736,0.9803382069475006,0.007594507864333,-0.0049424657252197,-0.040357004792969,0.9999880446295568,0.0017136894341103,-0.0013228333294593,-0.004384515761376,0.1879999999998745,2.0,0.00153231811533,0.0012081441395304,0.9799051956127856,0.0145869876434098,-0.0097685255876378,-0.0404088953288695,0.9999875073271098,0.0027069013721273,-0.0012866242793062,-0.0040003090679025,0.1879999999998745,3.0,0.0013280334226839,0.003244174539647,0.9794803273464888,0.0146864551203746,-0.0017126369394335,0.0010171195205596,0.999995195040858,0.0027511033953437,-0.0012376747295228,0.0007137832784599,0.1879999999998745,4.0,0.000784225827918,0.0011767427783456,0.9804825344014468,0.0101634613248218,-0.0007290205915938,-0.0240428508515198,0.9999972176777024,0.0019534495172762,-0.0008330528370712,-0.0010269833533425,0.155999999999949,5.0,0.0066523385866457,-0.0030932022143564,0.9794999634973908,-0.0187565078036736,-0.0413062964940614,-0.0226572352814935,0.9999632941797508,-0.0038091132744717,-0.006664525754491,-0.003805922452031,0.155999999999949,6.0,0.0018690724636821,0.0023464800756641,0.9803269865710014,0.0167191361298636,-0.0269201079451602,-0.022257119561165,0.999988895188932,0.0019983732869216,-0.0035523885235918,-0.0023657004889366,0.1569999999999254,7.0,-0.0005893264690666,0.0019104084173052,0.9803070962887048,0.0209746582559841,0.0169983729407877,-0.0277618465574348,0.9999870981423044,0.0027004615573587,0.0022614290708044,-0.0036601905508048,0.1569999999999254,8.0,0.0030980385433888,0.0018229901021691,0.9789668425765352,0.0186891848496285,-0.0164101184437759,-0.0053831304368595,0.9999949021415876,0.0017975436769304,-0.0025046057654503,0.0008315512766807
3,3,0.252999999999929,0.0,0.0010968877411952,0.0039733912638164,0.9802576237903728,0.0266766483028746,0.0167978679044965,-0.0109052758757717,0.9999812023276574,0.0049729795688708,0.0022375094609008,-0.0028032154666639,0.252999999999929,1.0,0.0014552519505932,0.0013719466455472,0.9803392270046946,0.0097002690425279,-0.0023861711474939,-0.0105849856625844,0.9999847710145118,0.0020971505812542,-0.0013854012315253,-0.0049132842296803,0.252999999999929,2.0,0.0009507061301736,0.002005069877633,0.9800684036599894,0.0213209260232222,-0.0084008968552327,-0.0027712517444175,0.9999836159689368,0.0036028354939046,-0.0016306759233711,-0.0041386309483899,0.252999999999929,3.0,0.0013280334226839,0.003244174539647,0.9794803273464888,0.0207029319125174,-0.0049561693816048,0.0201524260267302,0.9999907361055198,0.0036757124522719,-0.0014323516923546,0.0017219784372196,0.2539999999999054,4.0,0.0003020370892975,0.0023389423769865,0.9798369446607706,0.0206950084842288,-0.0042877368213835,0.0222423382515663,0.999995275162272,0.0029110391297801,-0.0009839678726116,8.550755865329274e-05,0.2259999999998854,5.0,0.0088697847821943,-0.0041242696191419,0.979359136026221,-0.0024432105200458,-0.0398819696768651,-0.017889972019608,0.9999462217190848,-0.0037642562774436,-0.0084469742463416,-0.0046938971533572,0.2259999999998854,6.0,0.0017102451740275,0.0037516632520657,0.980311685171756,0.0273339410033423,-0.0188755670839717,-0.0210270421362131,0.999979593369764,0.003357846597136,-0.0042282914804891,-0.0034145660672219,0.2259999999998854,7.0,5.930221538607006e-05,0.0031517484909461,0.9801112503000344,0.0260660734468957,0.000493629055592,-0.0272859749667716,0.9999776774176172,0.0038914652880232,0.0020568916833874,-0.0050269633958274,0.2259999999998854,8.0,0.0035302801129822,0.0027056015470188,0.978782006803656,0.0279355770727283,-0.0024219841865397,-0.0406633720504275,0.999991049279795,0.0031581049838278,-0.0025478778274065,-0.0011983537801669
4,4,0.3199999999999363,0.0,0.0005658584822726,0.0051111456641921,0.9796068374578536,0.0331317235521915,0.0153760728572212,-0.006857923957401,0.9999708265177306,0.006394401160481,0.0027504784186902,-0.0031452528855359,0.3209999999999127,1.0,0.0021828779258898,0.0020579199683208,0.9803402470618884,0.0159769562910026,0.0021394851603008,-0.002851563625559,0.9999825423744376,0.0027914033235243,-0.0012552621475869,-0.0050544367422817,0.3209999999999127,2.0,0.0011352532026821,0.0034060676855007,0.980012300893763,0.0242915099621468,-0.0023787200543272,-0.0012723972900778,0.9999790958560024,0.0046302484194044,-0.0016499129104283,-0.0042007663556054,0.3209999999999127,3.0,0.0009712282264696,0.0052084050520237,0.9793599589694008,0.0242044735393165,0.0032969779818752,0.0168527072810532,0.9999845772917392,0.0047828433783395,-0.0011753421810711,0.0025667408590674,0.3209999999999127,4.0,0.0010862629172155,0.0035156851553322,0.9798206264366776,0.0185394937931757,0.0006037935147221,0.0040013566717108,0.9999926015780572,0.0037261114704826,-0.0009114638034197,0.0002865592318562,0.2559999999998581,5.0,0.0110008238639477,-0.0035670160546806,0.9804306493938162,0.0103233584600394,-0.0300545608157482,-0.0102761720525198,0.9999350635411391,-0.0030589466325587,-0.0096690310990121,-0.005198209699815,0.2559999999998581,6.0,0.002956293483149,0.0053159833025085,0.9803280066642844,0.0316463897486095,-0.0168130892856422,-0.0132611212795077,0.999968297253021,0.0048748731406947,-0.0047999634285856,-0.0040743652069915,0.2559999999998581,7.0,-0.0002353610191472,0.0041069526995987,0.9800837094578778,0.0277599675595594,0.0066897828667389,-0.0269612500205053,0.9999642607715312,0.0050987509355987,0.0021965299432111,-0.0063761410547809,0.2559999999998581,8.0,0.0043056713259943,0.0049220673225255,0.9803587274297634,0.029212068744619,-0.012888376820919,-0.0168370090050262,0.9999825701908744,0.0045550076336896,-0.0031553036068026,-0.0020384501610272
5,5,0.4289999999998599,0.0,-0.0002759316320058,0.0066073792324868,0.9798363467444005,0.0292559684771007,0.021768424663208,0.0026528367614868,0.9999605288811652,0.0075586982488555,0.003571230153769,-0.0030088329418463,0.4299999999998363,1.0,0.0012834137901147,0.0030127857552713,0.979811857435414,0.0198138673128581,0.0059534743306688,-0.0005088199314383,0.9999800097622468,0.0036578819809775,-0.0009032511208982,-0.005077805896563,0.4299999999998363,2.0,0.0013198002751908,0.0048070654933685,0.9799561981275368,0.0233708308933705,0.0001332210367211,0.0024301417391301,0.9999749111971996,0.0055805459351408,-0.0015522168385056,-0.0040773896189705,0.4299999999998363,3.0,0.0001778365956722,0.006156819330489,0.9805728233792108,0.018785622937476,0.0078690375423859,0.0205254113926627,0.9999778748699694,0.0055555585921315,-0.0006759180202871,0.0035956465481423,0.4299999999998363,4.0,0.0009400326031068,0.0044667181519174,0.9800929368012284,0.0193839729782474,0.0102692372433838,0.014282167914708,0.9999890823067216,0.0045497727140755,-0.0003577227139387,0.0010034291561271,0.3599999999998999,5.0,0.0139178127993796,-0.0030484647332852,0.9799591835120744,0.0050558834239549,-0.034676487962257,-0.0135220289487539,0.9999171010332368,-0.0026619763191609,-0.0111481652189877,-0.0058671420312282,0.3599999999998999,6.0,0.0048253659468312,0.0076624633781726,0.9803524889030768,0.035037306083907,-0.0180504943940622,-0.0252179225104993,0.9999495002356692,0.0065313111705247,-0.0054690302087095,-0.0053318534681332,0.3609999999998763,7.0,-0.000824687488214,0.0060173611169039,0.9800286277735644,0.0349805561182258,0.0171374451103432,-0.0143583971306286,0.9999486278381486,0.0066489542379416,0.0028674428727091,-0.0070930151217215,0.3609999999998763,8.0,0.0056023960347747,0.0075699016570743,0.979804220111126,0.0368145379267561,-0.0244790068306687,-0.0138019022868432,0.9999668115704194,0.0063255449165761,-0.0043497331283506,-0.0027281973736668
6,6,0.459999999999809,0.0,0.0004278926662697,0.0084148352804355,0.9793487670156475,0.0263266297391774,0.0249676861820824,0.0052725597965366,0.9999498423751372,0.0085533364023226,0.0044330896508856,-0.0027387746300327,0.4610000000000127,1.0,0.0006519641194737,0.0036819949049654,0.9802035593978968,0.0218451935329177,0.0053228953811265,0.001169680528184,0.9999767829786782,0.0045732720458861,-0.0005868108345758,-0.0050174036564771,0.4610000000000127,2.0,0.0007381882900343,0.005603991231471,0.9801194061747406,0.0232850158648783,0.006918616186106,0.0160451666109235,0.9999730957424012,0.0064725990647213,-0.0010998367705206,-0.0032716374774615,0.4610000000000127,3.0,-5.660024348964898e-07,0.0071389345866773,0.980512639190667,0.0208261962029726,0.0105559135950758,0.0206226190345716,0.999968779723797,0.0064027138838968,-8.206774084609034e-05,0.0046301293186209,0.4610000000000127,4.0,-0.0004726122775403,0.0054032079687978,0.9797359756491956,0.0170313852313162,0.0120504944517093,0.0189756049609734,0.9999844134640172,0.0052211260455651,0.0003008610202698,0.0019550331169028,0.405999999999949,5.0,0.0161352589949282,-0.0040795321380706,0.9798183560409048,-0.0131063831108486,-0.0535793154532741,-0.0222992363591147,0.9998786991142112,-0.0032672811281359,-0.0135338199664516,-0.0069819516482492,0.405999999999949,6.0,0.0052895628117373,0.0098498065797956,0.9803453482500956,0.0369636705569456,-0.0250406876112018,-0.0369870697241368,0.9999196049800784,0.0082305299422133,-0.0064411301002068,-0.0071800972407251,0.405999999999949,7.0,-0.0004707220382946,0.0082139053991974,0.9798052409427374,0.0413699674610881,0.0145177245080171,-0.0151488460129873,0.9999277635573304,0.0084746905546938,0.0033193303235643,-0.0078504352389526,0.405999999999949,8.0,0.0068545747804677,0.0104433574345269,0.9802229088784212,0.0346502659268045,-0.0367513872049512,-0.0123111727906378,0.999944131030598,0.0079547693949153,-0.006103120122159,-0.003347892786621
7,7,0.5629999999998745,0.0,-0.0007658095971465,0.0090073408247558,0.9798220661665706,0.027872106715077,0.0242848389537582,-0.0036188318133509,0.9999363882009998,0.0095537926794689,0.0052396958598019,-0.002913792078009,0.5639999999998508,1.0,-0.0008789496869422,0.00530606984161,0.9800668717339056,0.0229260943763769,0.0105352002257981,0.0024730642643841,0.9999727159140348,0.0055357059181019,3.5661278314104825e-05,-0.0048910240001897,0.5639999999998508,2.0,0.0003411233773864,0.0078019147774413,0.980226511455718,0.0307858483212701,0.0017513289955765,0.0081207681530171,0.9999653406731576,0.0077623135160852,-0.0009291800291616,-0.0028636629982417,0.5639999999998508,3.0,-0.000178968600542,0.0081210498428657,0.980452455002123,0.0238170280370811,0.005780163598725,0.0237232935611018,0.999955920891833,0.0073658939943792,0.000222954691056,0.0058180899129615,0.5639999999998508,4.0,0.0003116135503776,0.0065799507471436,0.9797196574251028,0.0237590057098133,0.0026590889573742,0.0073173971289065,0.9999778693004744,0.0062226197347753,0.0003885263547112,0.0023214134038966,0.4669999999998708,5.0,0.0192818312787231,-0.0041435886177676,0.9801265436952036,-0.0199869978928467,-0.0526739555070638,-0.0294463909646942,0.9998308308417186,-0.0041564040801442,-0.0157947988912538,-0.0084592157713542,0.4659999999998945,6.0,0.0063767838312042,0.0128193098066399,0.9803463683433786,0.044335299796158,-0.0210374188127572,-0.0424340213436156,0.9998781932137774,0.0102814675253424,-0.007172746484997,-0.0092974119484688,0.4669999999998708,7.0,-0.0010600485073613,0.0101243138165026,0.9797501592584238,0.0456439522481591,0.0185307877819377,-0.0040750844408085,0.9999053573476068,0.0104328664314663,0.0039481031008402,-0.0080525851428468,0.4669999999998708,8.0,0.0099526133238565,0.0122663475366961,0.9799420810466988,0.0291027908862492,-0.0456478271591756,-0.0026116283247128,0.9999169547462848,0.0092315557476163,-0.0082885190384987,-0.0034874692175613
8,8,0.6259999999999764,0.0,-0.0012556875622872,0.0114073024170248,0.979807785588741,0.0317757735241228,0.0169402333022199,-0.0030169097215056,0.9999214961276112,0.0107710482047706,0.0056220735563371,-0.0030624159444832,0.6259999999999764,1.0,-0.0015103993575833,0.0059752789913041,0.9804585736963884,0.023298000825219,0.0071031058371349,-0.0079956654796456,0.9999650797155292,0.0064538062833977,0.0004596520275904,-0.0052892772649109,0.6259999999999764,2.0,0.000525670449895,0.0092029125853091,0.9801704086894916,0.0402377396888808,-0.0043781944873545,0.0043619708974672,0.999951097507312,0.0094663997485294,-0.0010911462092623,-0.0026456132887372,0.6259999999999764,3.0,-0.0005357737967564,0.0100852803552424,0.9803320866250352,0.02395239899743,0.0069939056306969,0.0083287009086822,0.9999456092778596,0.0083391104355957,0.0005841473588,0.0062367054552817,0.6259999999999764,4.0,1.91529221602798e-05,0.0084820167403141,0.980264278154204,0.0202502096128301,0.0058150750178213,0.0021022297385517,0.9999720307939528,0.0070448343334399,0.0006420574031661,0.0024281065304839,0.5259999999998399,5.0,0.0221988202141551,-0.0036250372963721,0.9796550778134616,-0.0041948026598208,-0.0432538788518125,-0.0046714406647512,0.9998003174944432,-0.0041596506022422,-0.0175079529726047,-0.0086887299179569,0.5259999999998399,6.0,0.0068409806961104,0.0150066530082629,0.9803392276903974,0.0537008107283902,-0.0144758282582252,-0.0389513835509561,0.999827750342969,0.0127071315978078,-0.007535326163585,-0.0112346477595844,0.5269999999998163,7.0,-0.0010007462919754,0.0132760623074488,0.97949923158544,0.0485119216535104,0.0253072959066913,0.0038165862927939,0.9998792380344804,0.0125038643771237,0.0048422230109133,-0.0078559276688502,0.5269999999998163,8.0,0.0130506518672455,0.0140893376388653,0.9796612532149764,0.0270495100838853,-0.0550974606318747,0.0296142575527871,0.9998848989445984,0.0103554658440389,-0.0109027254741905,-0.002020833228468
9,9,0.6649999999999636,0.0,-0.0017455655274279,0.0138072640092938,0.9797935050109116,0.0397171621183248,-0.0150088711660058,0.0016941409719017,0.9999092164075126,0.0123826223229773,0.0043892984186895,-0.00299393839491,0.6649999999999636,1.0,-0.0009546115427652,0.0083020914238019,0.9799322241843024,0.0234145148497727,-0.0138757872391131,-0.0134046812798414,0.9999548108270148,0.0073989648573424,-0.0002348395074876,-0.0059646016928933,0.6649999999999636,2.0,0.0010793116674208,0.0134059060089124,0.9800021003908128,0.0605215141345021,-0.0301318080807329,-0.0307292758155723,0.9999132432836366,0.0122269975252351,-0.0025345791425788,-0.0041931308215629,0.66599999999994,3.0,3.904161553200738e-05,0.0121984252531601,0.9798801951754592,0.01984390286839,-0.0233325911126074,0.0679209021902734,0.9999118112384204,0.0091289283443824,-0.0006637186272615,0.0096224680185468,0.66599999999994,4.0,0.0023718304059143,0.0120122450753512,0.9802153234819254,0.0281106587341872,-0.0380004993632178,0.1401193972113515,0.9999194951562748,0.0083676867564252,-0.001496724670188,0.0094204479739015,0.6459999999999582,5.0,0.0230603844868346,-0.0085495026381429,0.979569356744054,-0.071263981893087,0.0460292114090815,-0.043788789583337,0.9998036708883044,-0.0076942718434829,-0.0146147891443806,-0.0109464970348887,0.6449999999999818,6.0,0.0063644988271467,0.0192222025374678,0.9802933234926616,0.1274291256298055,0.0121894753720181,-0.203300160660602,0.9995738232583876,0.0188643561552397,-0.0063875469117718,-0.0213426138958684,0.6459999999999582,7.0,0.0001547332039911,0.0167895190560921,0.98006534889644,0.0736843149293872,-0.0528751342751192,0.0710901952265087,0.9998645744820548,0.0157898364972195,0.0016148676020688,-0.0043480986463721,0.6459999999999582,8.0,0.0215971778775473,0.0132121736009917,0.9792282677580662,-0.0405650038461238,-0.1615561895479922,0.130827197676971,0.9997779547995694,0.0078762108901341,-0.019039080379578,0.0044181237085859
10,10,0.7309999999999945,0.0,0.001427965885244,0.0169541233523885,0.979632338489692,0.026439969476595,-0.0951828386655738,-0.1228107999691081,0.9998690996300356,0.0132896372411912,-0.0008060408029736,-0.0091934457763872,0.7309999999999945,1.0,-0.0009546115427652,0.0083020914238019,0.9799322241843024,0.028745324732397,0.0057106092899005,0.1225791367159308,0.9999636861361964,0.0085202818748884,5.9554519814167736e-05,0.0001663097765851,0.7309999999999945,2.0,0.0023991119426116,0.0182129715022809,0.979614481278704,0.0496141455163958,0.0202410745785153,0.0651386585827607,0.999894698984828,0.0144095975022586,-0.001452826475128,-0.0009185516296517,0.7309999999999945,3.0,0.0056872130058852,0.0112091934841245,0.9802259992418388,-0.0582920022981184,-0.1130948888848209,-0.0603557975749012,0.999939504149536,0.005932280545484,-0.0065464153787441,0.0065529027460144,0.7309999999999945,4.0,0.0112620457579894,0.0103313245335121,0.9798430639948054,-0.0583628008470417,-0.152377290530068,-0.0920329834914655,0.9999295637586212,0.0052238066895377,-0.0095383552038563,0.0047538558212303,0.7269999999998618,5.0,0.0165700674329849,-0.0119303844917383,0.9802367564987275,0.0151803961951688,0.1093833856022747,-0.1045057630366078,0.999810011701057,-0.0066471474746914,-0.0085661642561757,-0.0161980481144612,0.7269999999998618,6.0,0.0063522138230892,0.0256250952682956,0.9802402786419444,0.0774565232779449,0.0072816195192374,-0.0668568178185331,0.999433522648142,0.0221771106637793,-0.0057451820691782,-0.0246536498864609,0.7269999999998618,7.0,0.0036100642032352,0.0262235403079518,0.9798205414106024,0.185468543175124,0.0626904163221574,0.3040205264192934,0.9996238548586176,0.0248535254714584,0.0039784287474993,0.0108914266254804,0.7269999999998618,8.0,0.0511900641356358,-0.0048117413414341,0.9785961498386616,-0.0525263468166575,-0.1020053007295837,0.5165810807254277,0.9992265642426948,0.0037597546944044,-0.0249468321465043,0.0301627770974724
11,11,0.793999999999869,0.0,0.0117143697204065,0.0173873605569166,0.979679260388275,-0.0378663003293625,-0.2039976447087199,-0.0591674639728589,0.9997997602267944,0.0108573290260611,-0.0114794492349812,-0.0122792549499392,0.793999999999869,1.0,-0.0016822375180617,0.0076161181010283,0.9799312041271084,-0.0584234578166118,-0.0159962347797275,0.0748396140443917,0.9999789713460469,0.005135976845659,-0.0006800112498748,0.0039007937965305,0.7949999999998454,2.0,0.0018174999574551,0.0190098972403834,0.9797776893259076,-2.8833596643170447e-05,-0.0706332305987822,-0.0155931424442091,0.9998892625474728,0.0139349046411865,-0.0049215706698724,-0.0017490617638157,0.7949999999998454,3.0,0.0119107658109618,0.0051941720263292,0.9799311987250724,-0.097548972548022,-0.0902592902349188,-0.0614412829095506,0.999932894695109,0.0007804502624672,-0.0110397380456792,0.0034236220484338,0.7959999999998217,4.0,0.0185742329931484,0.0020559100648245,0.9796207281915394,-0.1823241276263819,-0.1127301764767727,-0.1849025867772743,0.999864353214779,-0.0041896302115495,-0.0152486502652218,-0.0046044363576075,0.7579999999998108,5.0,0.0091425716874549,-0.0055010379048578,0.9795326191428794,0.172083035291006,0.125902746030938,0.1692187881428587,0.9999654684620084,0.0023632948259976,-0.0020351289074207,-0.0077029196705843,0.7579999999998108,6.0,0.0102960570124621,0.0288963982589867,0.9783051616840494,-0.01128905701044,-0.1203422199377484,-0.0298257722478246,0.9993715180865916,0.0207181319359911,-0.0117012821894394,-0.026275613056734,0.7579999999998108,7.0,-0.004854541783076,0.0330279906031862,0.9795971545797754,0.0669652594716305,0.1662237710731605,0.0232685719308919,0.9994780362045936,0.0273103591361584,0.0121580353168723,0.0122466977466084,0.7579999999998108,8.0,0.0485242671618404,-0.0057521199987536,0.9786921418975052,-0.0641607353091502,-0.0157828116604797,0.0163247712513086,0.9991885924569806,-3.656746444545568e-05,-0.0258216066575775,0.0309095453910252
12,12,0.8650000000000091,0.0,0.0217805051520024,0.0185998729939015,0.9781951003352728,-0.0959088908898228,-0.2090542995864497,-0.0056277312171907,0.9996636449671596,0.0057886449932065,-0.0218439357606071,-0.012725210827412,0.8650000000000091,1.0,0.0048048529131094,0.0007362658420121,0.9791661612316336,-0.147527843686466,-0.1724953164032357,0.0011805405757059,0.9999435344026466,-0.0026817671490284,-0.0095100311662411,0.0039109383169053,0.8650000000000091,2.0,0.0098083959241104,0.0150532900885403,0.9785566891227642,-0.1006158956493598,-0.1990714526718119,-0.0944502627009929,0.9998336419516688,0.0082844868059944,-0.0148354239597421,-0.0066306783934998,0.8650000000000091,3.0,0.0222176062462637,-0.0021894224016785,0.9784306742954416,-0.1091597005676104,-0.2254815671664264,0.0689362413510911,0.9997154003948904,-0.0048614575983037,-0.0223431184412278,0.0068021688912513,0.8650000000000091,4.0,0.0290137470788993,-0.0057535416606373,0.9794504067275694,-0.08790939264693,-0.197994842320666,0.203960251679778,0.999634675634284,-0.0086656224892693,-0.0249889193132425,0.0055656237718239,0.8249999999998181,5.0,-0.0025414892611408,0.013979235540689,0.97957343869974,0.2225069591867109,0.1718090819570085,0.5105848312354178,0.9997219047437886,0.0139767510788855,0.0064390037213519,0.0178690468634061,0.8249999999998181,6.0,0.0177969168753059,0.0254765330999876,0.978509180340654,-0.0453576214471994,-0.0987425398017174,0.0945509187667559,0.9994773762444948,0.0174710533283085,-0.0164312655618357,-0.0216737210246959,0.8260000000000218,7.0,-0.0058571359174481,0.0295901062472517,0.9800163873992724,-0.0936631355064518,-0.0721738835237104,0.0388436194358537,0.999640734898388,0.0214704365194862,0.0075529723404984,0.0141553557460613,0.8260000000000218,8.0,0.0607541405825639,-0.0106822389501794,0.9783398306177078,-0.003486038605042,-0.1061807248280558,-0.0024440905764544,0.9990240075339426,-0.0004883478146981,-0.0316640269386158,0.0307925849071385
13,13,0.9659999999998944,0.0,0.0392765959318764,0.0117535912517265,0.9780716753411742,-0.1753030340617213,-0.3652172619810651,0.0124908180674233,0.9991256159598396,-0.0032199840503273,-0.039800639699638,-0.0123912999756502,0.9659999999998944,1.0,0.0117728248675583,0.0006323259453343,0.9803647284345438,-0.1457949626546271,-0.254148810873316,0.1211974182107199,0.9996655288078476,-0.0096740206642457,-0.0218313850286249,0.0099314885715163,0.9659999999998944,2.0,0.0242838314810253,0.0103353101590132,0.9796532431899148,-0.0838879346530626,-0.2976105555423136,0.1254999967678791,0.999559335510268,0.0035898802545147,-0.0294611351736968,-0.0005376507294124,0.9659999999998944,3.0,0.0378742606150415,-0.0104807361686271,0.9794905280564116,-0.1971967119153636,-0.282143697956921,-0.1249415518606334,0.9992356470510624,-0.014512776238453,-0.0362951419764823,0.0004045456760883,0.9659999999998944,4.0,0.0420983992766217,-0.0119348310442325,0.9786865098622194,-0.1304024909320157,-0.235131533670859,-0.1096126794253667,0.9992252391324922,-0.0147084005412287,-0.0365045749872901,2.095542787387517e-05,0.9579999999998564,5.0,-0.0282621809850147,0.0421878973028494,0.9787264328948794,0.5421840109446875,0.5599176855882095,0.4098560458843641,0.9977934868213174,0.0413723728697118,0.0348381867822166,0.0385069495262114,0.95699999999988,6.0,0.0226468528302522,0.0203332110165045,0.9786652546129564,-0.0986270587885701,-0.0420877313744862,0.078693798220607,0.999609970447162,0.0116969949792636,-0.0180092277547853,-0.0178537112880002,0.9579999999998564,7.0,0.0118393091703991,0.0235260427123161,0.9797654597262888,-0.1113138260423237,-0.2557565330346643,-0.1191628394509826,0.9998325555902992,0.0151007115384721,-0.0065642624036622,0.0079837179245673,0.9579999999998564,8.0,0.0616547974998682,-0.0110946610663693,0.9784766703611654,-0.0194849933559565,0.035232786192452,-0.0359610865054265,0.9991300327263088,-0.0018787294929633,-0.029932480525564,0.028977485905511
14,14,0.9809999999999944,0.0,0.0691913974468287,-0.0013140892066719,0.9769139284957052,-0.2511252292891096,-0.5620794774438153,0.0101787322328197,0.9975366435923286,-0.015901723390548,-0.0672080903693818,-0.0122822014583348,0.9809999999999944,1.0,0.0305680135322733,-0.0076395919905093,0.978842803101146,-0.1284703246684194,-0.303014098674968,0.2633552622395049,0.9989554851564376,-0.0156335566329362,-0.0362017796114031,0.0230859640439548,0.9819999999999708,2.0,0.04185878754427,0.0072316718226117,0.9777855310997264,-0.0861377232694856,-0.328348139301362,0.1873664205400017,0.9989474385710416,-0.000988534854543,-0.0450383181575853,0.0086364152709509,0.9819999999999708,3.0,0.0589829756595651,-0.0261148268730131,0.9774911889115604,-0.2696120686725778,-0.3618704180720771,-0.1963094085472407,0.998116138126312,-0.0274813875542446,-0.0540029261003738,-0.0096245583019928,0.9819999999999708,4.0,0.058739492806182,-0.024744265044515,0.9772749834781812,-0.2452279238430313,-0.2636705472542774,-0.1241590055900333,0.998417390066096,-0.0265141978726972,-0.0491764248513402,-0.0064336431058475,0.9610000000000128,5.0,-0.0620991184995078,0.0785737290551679,0.9748363291260482,0.4243016238011614,0.494589987144273,0.4349270132037068,0.9945153717766712,0.0619993663345318,0.0587167476223138,0.0603953427234546,0.9610000000000128,6.0,0.0262507404760771,0.0136255688825788,0.9788050073927308,-0.1541084905578627,-0.1114953130092563,-0.0047890943195515,0.9995624739838664,0.0034013346343591,-0.0229941041513573,-0.0182910551973973,0.9610000000000128,7.0,0.024513523940127,0.0158801550670211,0.9783853575248784,-0.1363917675587089,-0.2357236776198444,-0.2650642146089952,0.9997764000350696,0.0077722546204629,-0.0188870187021347,-0.0054792805710119,0.9610000000000128,8.0,0.0599703771845817,-0.0148507282886715,0.9782428173667492,-0.1016689074293094,-0.0104166751705422,-0.1109187226977568,0.9992299083147876,-0.0072577141456909,-0.0307275722025721,0.023296613941434
15,15,1.0559999999998126,0.0,0.1058196858709202,-0.0142746341468301,0.973538611921558,-0.333936124015825,-0.8085752845939314,-0.002938754205883,0.9937813970939235,-0.0321781977060216,-0.1058133745546313,-0.0129084525719591,1.0559999999998126,1.0,0.0511621304685382,-0.0178212415002541,0.9783776570206976,-0.2288811112638267,-0.4017449156460005,0.375766011837136,0.997261617776028,-0.0265437901042804,-0.0549987570814145,0.0417112651107443,1.0559999999998126,2.0,0.0646942132128573,0.001359080356977,0.9775488794312808,-0.0858122826473825,-0.4273407152469131,0.2238212171123818,0.997669762617356,-0.0053920152871681,-0.0651211901976672,0.019626551337682,1.0559999999998126,3.0,0.088356321321843,-0.0413092909336233,0.974782900427081,-0.3673540060476173,-0.542230697577608,-0.2398014606106888,0.9955158654424824,-0.044772689198978,-0.0804187008459817,-0.0218266009365082,1.0559999999998126,4.0,0.0792729860920918,-0.0443930102635402,0.9761337276806822,-0.3228232567458624,-0.3544546928226517,0.1031623408109805,0.9969330219890442,-0.0426078435339511,-0.0656244754489989,-0.0015967339233794,1.0369999999998072,5.0,-0.0852755808708806,0.106877836771662,0.9707462095285996,0.376158120794765,0.3753267569201245,0.5822750950408055,0.9899482177765672,0.0801471424320896,0.0748741750091917,0.0892906467535189,1.0359999999998308,6.0,0.0361328751618012,0.0019255045470934,0.9781327659192184,-0.1398168380884121,-0.1173693406501936,0.1515003522364253,0.9995330409366212,-0.0041434207421667,-0.0282471567381895,-0.0108917526942088,1.0369999999998072,7.0,0.0386721623711774,0.0045645953725333,0.9790861189530892,-0.1797493118426846,-0.1407177003462413,-0.0675945952704023,0.9996202763054444,-0.0017418710933938,-0.0259614812445698,-0.0090703128782319,1.0369999999998072,8.0,0.059231159749687,-0.0192448390700672,0.9771726080298576,-0.0542646089014152,-0.000964419626977,-0.0436877848697855,0.9992521437988592,-0.0100870994873102,-0.0308362932676766,0.0210363151437517
16,16,1.1299999999998818,0.0,0.1656511566946187,-0.0375269205102013,0.9655057868924224,-0.4502764185901442,-1.1447048912249325,0.0643212772342696,0.9856572108627204,-0.0542216741556791,-0.1594829795431453,-0.0102494859441166,1.1299999999998818,1.0,0.0706644306597172,-0.0297583901679837,0.9765986772744208,-0.3321432215238742,-0.529221966878315,0.4658558031058372,0.993881644769478,-0.0419291516170619,-0.0791560396462593,0.0646184480045003,1.1299999999998818,2.0,0.0984006240062515,-0.0074548277893076,0.9752700870721978,-0.1229390996092954,-0.6243377101043737,0.4117949060386233,0.9946510831148424,-0.0119742535199693,-0.0945282113545756,0.0398780311602158,1.130999999999858,3.0,0.1218933018551497,-0.0620312158048352,0.9692265737321816,-0.4772859039070575,-0.6985818840091231,-0.3425634688424404,0.99050628352587,-0.0665954645821881,-0.1136993566160487,-0.0391765580155817,1.130999999999858,4.0,0.1008396680378429,-0.0664579780885051,0.9729690120956604,-0.4265355296711152,-0.4099893482136866,0.2696226232451223,0.9943805443362916,-0.0638583466218341,-0.08367336643802,0.011323089733558,1.1039999999998145,5.0,-0.1051758602877658,0.1327354065545892,0.9651457663273028,0.3481631843630435,0.4864260345381561,0.8288978810337839,0.9821785634467384,0.0963752986602544,0.0947376826433769,0.130620989129661,1.1039999999998145,6.0,0.0492778074278641,-0.0136635985773968,0.9785693658443524,-0.2691346413454277,-0.2487303911866622,0.4147484937673394,0.9989883836451794,-0.0186159913316023,-0.03981083685544,0.0095263569953541,1.1039999999998145,7.0,0.0468652785651221,-0.0086189242973021,0.9788260109993864,-0.1848714671496349,-0.116696418356021,-0.0098357477145386,0.9993917801691132,-0.0113069900391872,-0.0315044239413556,-0.0097822788136537,1.1039999999998145,8.0,0.0597357488755151,-0.0227175176369958,0.97800079483541,-0.0782038122831554,0.007311275775162,-0.0601526461957016,0.9992737431297786,-0.0139956132569541,-0.030584151576811,0.017908622875301
17,17,1.2289999999998145,0.0,0.2537320963269571,-0.072178582280453,0.9436881240926536,-0.6034491891550358,-1.5762664805576372,0.0596958593495512,0.9691380269535173,-0.0830533637822294,-0.2319741486098553,-0.0078497040602283,1.2289999999998145,1.0,0.1074861531161854,-0.0556906074717638,0.9730376576102848,-0.4531021077596401,-0.7160642592186061,0.5735892548592599,0.9874263651682416,-0.062517167153329,-0.1118603590354346,0.0925636929806772,1.2289999999998145,2.0,0.1477266460959781,-0.0227859733792435,0.9685693766841867,-0.2122129131777285,-0.8206706335526679,0.5443674164129996,0.9886365262122984,-0.0230546196895857,-0.132945259401864,0.066271121556969,1.2289999999998145,3.0,0.1805230977010318,-0.0886547077614918,0.9591401117606064,-0.4131923822888915,-0.9953104816682417,-0.4273525674435215,0.9815224289943882,-0.0845663064694194,-0.1611011378683021,-0.0592341503578334,1.2289999999998145,4.0,0.1320773751666524,-0.1035328715872077,0.9649904204032256,-0.5237887157374163,-0.6284849966750883,0.6318170487301097,0.9887999072913504,-0.0908162189422689,-0.1105482062608142,0.0425000212960305,1.1849999999999454,5.0,-0.1314016951343441,0.1628126919109919,0.9568655192180966,0.3442178976519027,0.6369710504868421,1.081125754632364,0.969107894367657,0.1116436498199012,0.1199813970524816,0.1843096549031334,1.1849999999999454,6.0,0.0654504741575451,-0.0367589778452696,0.977138174968271,-0.3220207686418641,-0.2327859922544752,0.785421794718606,0.9969534063669336,-0.0360849205530894,-0.0494935529176847,0.0482925694245926,1.1859999999999218,7.0,0.0538204396055475,-0.0211333756234734,0.9787066673500406,-0.2104695550902692,-0.0020578670829204,-0.0755882766367956,0.9991825662219256,-0.0216773768437413,-0.0311691556024908,-0.0138843231872953,1.1859999999999218,8.0,0.0549532900168397,-0.0282965749614672,0.9780477696727164,-0.1213668971131127,0.0853868723725474,-0.283062511411716,0.9994492772272462,-0.0196967128336812,-0.0264727275913164,0.0035180175324583
18,18,1.2519999999999527,0.0,0.3513315604308634,-0.1120530393629832,0.9080458419125832,-0.7534601868804126,-1.934193488557765,0.1364367423363261,0.9412878148208343,-0.1182905412314389,-0.3161971527243247,-0.0019895059743874,1.2519999999999527,1.0,0.1573010597552636,-0.0939374819342145,0.9629554123051234,-0.4976314556041571,-0.8613605153184478,0.6943415891551457,0.976878230724755,-0.0844556270284833,-0.1504620294260256,0.1262432061550248,1.2519999999999527,2.0,0.1927988462457971,-0.0433429342857249,0.9599723927977268,-0.2678162322899297,-0.8281823749056431,0.6031912671212587,0.9801817408771812,-0.0366811319276569,-0.1699208009676087,0.0950008989958012,1.2519999999999527,3.0,0.2511470659787758,-0.1095768765415509,0.94007396484407,-0.4318263297860447,-1.1019238784004617,-0.1196002945988952,0.9698376517303374,-0.1056835322747453,-0.2102014752868006,-0.0637280164399442,1.252999999999929,4.0,0.1791763345062105,-0.1350797994048676,0.9535676635381778,-0.2234564886938754,-0.9472968605769462,0.6208194145271506,0.9802219598036588,-0.1005512730053018,-0.1526229321424277,0.0758985612507612,1.2459999999998672,5.0,-0.1665540838838894,0.1944202127491356,0.9459442467799988,0.3330630936675446,0.7734175051095147,0.9611693992979886,0.9528109588555118,0.1231177872064978,0.1520986603403356,0.2320760321120876,1.2459999999998672,6.0,0.0651931100765855,-0.0531655266770676,0.9762670153045692,-0.0097615405399068,0.1125013600968536,1.31906958306419,0.9919916107972336,-0.03896811162895,-0.039776103576091,0.1133666263425328,1.2459999999998672,7.0,0.0570506276967588,-0.0327469709127222,0.9770664571949274,-0.1316285603905543,-0.0533970964666099,-0.050760704511576,0.9989127613171658,-0.0277550186010934,-0.0335885361305836,-0.0165760206555249,1.2459999999998672,8.0,0.0457398941278777,-0.0361688117167675,0.978423568371167,-0.1891065263475262,0.2410479619475395,-0.3884273577547075,0.9993504805296092,-0.0285361175047288,-0.0147009758015774,-0.0163764579038738
19,19,1.3279999999999743,0.0,0.4749511699486184,-0.1638866379116422,0.8410199498694766,-0.8153525506568376,-2.118652031954521,0.2130992917766912,0.9020390589851164,-0.155292841841425,-0.4026831732649739,0.0074787236418317,1.3279999999999743,1.0,0.2107525851422597,-0.1316606464780952,0.9476290529657818,-0.5035715731899428,-0.8576339836107719,0.3722884821937542,0.9657981263210108,-0.10303536145044,-0.1896158534643943,0.1437481185983715,1.3279999999999743,2.0,0.2421009156252855,-0.0724807560647459,0.9470769169680364,-0.2467223142951706,-0.8424239489167417,0.7618040369650381,0.968492241006572,-0.0499191917192091,-0.2056023909829676,0.131371649263668,1.3279999999999743,3.0,0.3122244332287539,-0.1672909243679577,0.9138509998457616,-0.8413833818572474,-0.9178149882779788,0.2041470862391009,0.9563298508736991,-0.1499543967856659,-0.244286082892353,-0.0571944483114015,1.3279999999999743,4.0,0.2293042726876525,-0.1440046896319312,0.941882795198637,-0.1566288464205628,-0.8923263364288363,0.512793464643651,0.9704531212574335,-0.1050808360462892,-0.1907768558299669,0.1038409775433077,1.306,5.0,-0.1240036697111898,0.2135669842813919,0.950287447629984,-0.5832364201408748,1.3444805614986437,16.99546629427095,0.6366124943901343,0.1804816796034596,0.0082518055162944,0.7497218170892498,1.306,6.0,-0.0613062410704507,-0.1173058040109908,0.9738300124514272,-1.36573013364689,-6.71189653952188,17.413353828212205,0.68534320524576,-0.0763085093714443,-0.1962647904259384,0.6971096287242337,1.306,7.0,-0.037557396710764,-0.0712259722596338,0.9815035928757369,-0.2558998128883131,2.645289394168594,-8.964128277355092,0.9027911934600494,-0.0218174125953246,0.0841636257900009,-0.4211989382851119,1.306,8.0,0.0248976350385181,-0.1653739626510812,0.9673497610722648,-0.0979146030267532,0.713687373788119,6.908786741322367,0.9487746892917928,-0.0411500029564753,0.0345826576318372,0.3113475646396859
20,20,1.381,0.0,0.5559302419485745,-0.1903065290109084,0.7656317594658804,-0.8919515342993718,-1.780553068769105,0.0800983656043763,0.8624999379694062,-0.1895551196191736,-0.4691724073809013,0.0063218495189961,1.381,1.0,0.2276447621626966,-0.1626850098086332,0.9385107617089188,-0.3343687520964215,-1.0971809072719507,-0.809085824701469,0.9591746642170728,-0.0996901442900396,-0.242288070802066,0.1065003727810847,1.381,2.0,0.2661453811052869,-0.0953577685675413,0.9361450379562672,-1.7646745301769111,-0.5231379229815067,-0.9153040734414664,0.960815933062466,-0.1197343784694785,-0.240462043073947,0.0683697829931734,1.381,3.0,0.3312993212256623,-0.1943254543659553,0.897999096625871,-0.6343608612445314,-0.7432257658445917,0.0325248580172383,0.9445104876111152,-0.178589217522377,-0.2696051593657788,-0.0576097927501177,1.381,4.0,0.2530400644709,-0.1735440350564757,0.9329363288396908,-0.5731435122719863,-0.2453578771209584,1.3951578492994352,0.9571262453742184,-0.1413705737821364,-0.1901772029729636,0.1666023491843417,1.3659999999999854,5.0,-0.1967611573852798,0.2112289833253358,0.936616978037314,0.0183289949304399,0.4296680847442779,0.086222526529133,0.6371324372029632,0.1476626540709178,0.0355370079314893,0.7556421898781339,1.3659999999999854,6.0,0.037989405862581,-0.0583599965012367,0.9776727038485752,0.0066272987142432,0.2953675070836193,1.2547466285995308,0.6472240451503585,-0.0926298460454807,-0.165333403040935,0.7383668551876506,1.3659999999999854,7.0,0.0591725725538784,-0.0362816518823442,0.9770083154170408,-0.0163472478991951,-0.101357380921425,0.183009745662256,0.9076160666915274,-0.0246923142130716,0.0698163727994744,-0.4132179076363087,1.3659999999999854,8.0,0.0160284318096219,-0.047621209835036,0.9786911207053898,-0.1146118846758875,0.5407926164158234,-0.1105349899615863,0.9494085412379474,-0.0531403724505401,0.0531845047847922,0.3049113495608961
21,21,1.433999999999969,0.0,0.5787611949103508,-0.2148412097145868,0.7609630305568832,-0.7922872259091369,-1.7953811099303465,-0.0987554580205587,0.8211194862580273,-0.212356284785878,-0.5297807043367952,-5.396018221159604e-05,1.433999999999969,1.0,0.2591376390905201,-0.1494335824259016,0.9334512780268464,-0.1451057626871074,-0.9075205333723776,-0.5464054877104184,0.9523755150487646,-0.0913973280418158,-0.2787627812252003,0.0831788348440167,1.433999999999969,2.0,0.2874294404276487,-0.1026439102106255,0.9311549519130112,-0.3927720847204877,-0.7258080661496793,-0.0543203440831282,0.9526851775362966,-0.1278536066407039,-0.2680578964132741,0.0647253577980816,1.433999999999969,3.0,0.3540970662740505,-0.2182914312257684,0.8879544575649794,-0.7331726769501634,-0.8794640419626706,0.2917117656778376,0.929752989306012,-0.2138213729906797,-0.2962293525262056,-0.0456943107051687,1.433999999999969,4.0,0.2568741980179013,-0.171042119946977,0.9299296960505692,-0.3157726344756826,-0.2796509074683806,0.2103906538224692,0.9524578456007152,-0.1486114879925611,-0.2001923587388978,0.1751048185882885,1.42899999999986,5.0,-0.221139733198527,0.2009254935542813,0.93353101953864,0.3491471222035426,-0.1018589783404443,-2.067631859753272,0.7158434223873856,0.1443896109646511,0.0731159387435937,0.6792450915331184,1.4279999999998836,6.0,-0.0082606671016651,-0.0522026740672224,0.977538051535216,-0.0766354377515453,0.9104689186216608,-2.281021820472501,0.7407547957092205,-0.1018274887232877,-0.1313323230047066,0.6508957797591615,1.42899999999986,7.0,0.0603512254920118,-0.0401024687169546,0.977118478785668,-0.1755996281668037,0.1011891783444098,-0.6700736652300141,0.893317575345001,-0.0335019110888233,0.0680645408097331,-0.4429769179285588,1.42899999999986,8.0,0.0009418377987011,-0.0687524925898458,0.9777618358804172,-0.5673270837601332,0.015104017886173,-0.8834866106315221,0.9607119776371512,-0.0809419029653661,0.0351420122265682,0.2631462394668156
22,22,1.490000000000009,0.0,0.6537224144352181,-0.237457161964896,0.6909892192332429,-0.5583053212268234,-1.620211922986709,-0.2213186171645392,0.7834824761815478,-0.2213154171032678,-0.5806204781765354,-0.0073862027381001,1.490000000000009,1.0,0.3060115381169145,-0.1626843177300527,0.916770282733918,-0.3646485244408575,-0.5081353721410851,-0.1095850008391323,0.947253617874648,-0.102915684825657,-0.2938723697803418,0.075881325238442,1.490000000000009,2.0,0.3361126877821399,-0.0989877528254251,0.9152309467573956,0.3300338020825277,-0.8046714305807127,0.3539359907315425,0.9456170969154928,-0.1058755827409899,-0.2941042750482145,0.0900074574617881,1.490000000000009,3.0,0.3964276192529617,-0.2634133570210976,0.8569361388320047,-0.6179731155755351,-0.6803952907228672,0.2610509443103909,0.91765719400508,-0.2412741783751579,-0.3137412518785586,-0.035474949045635,1.490000000000009,4.0,0.2788901158792303,-0.1867107838421142,0.9193565067273592,-0.3743288603569034,-0.4179278520173801,-0.2110791741127925,0.9492375286019246,-0.1528938494113081,-0.220872684983091,0.163666863274955,1.4549999999999272,5.0,-0.2212153476175279,0.2058112566529863,0.9320737613587106,0.2332486285169552,-0.0918506567229991,0.0793749511212854,0.7143610427166909,0.1422967432501369,0.0854422808616625,0.67980846872504,1.4549999999999272,6.0,-0.0410247177343622,-0.0644530581026194,0.9768709105281188,-0.2053567276921676,-0.2057060129194598,-0.1515179781830269,0.7446994429331856,-0.0955659921159045,-0.1341206936991328,0.64676233684992,1.4559999999999036,7.0,0.0390808449741485,-0.0497759234157709,0.9781160692904568,-0.2439933394123326,0.573562326826782,-2.129363539831884,0.8416289425669093,-0.0382235457053343,0.0862399927952548,-0.5317540288799818,1.4559999999999036,8.0,-0.002573380485186,-0.10161127152627,0.9749433456420394,-0.4924586788071667,-0.1096977453166652,0.3839879638891544,0.9539332853883172,-0.0992592359620012,0.0206187577366946,0.2823716663085851
23,23,1.5219999999999343,0.0,0.722490399962799,-0.2484615438350463,0.6141005481162678,-0.4630179344567622,-1.348515061230357,-0.2263517255521637,0.7523079047340955,-0.2261218671513267,-0.6185977355908863,-0.0154453615179699,1.5229999999999109,1.0,0.331709377568168,-0.1913791794647972,0.9025496653928358,-0.5437640569738509,-0.4118020497014713,-0.2621496189310022,0.9425278094252546,-0.1213216895911183,-0.305790394876333,0.0584346686151608,1.5229999999999109,2.0,0.3717781446643642,-0.1014028481504628,0.900943102274998,-0.3561844177900092,-0.6120412008318926,-0.3190375530663767,0.9395358222763204,-0.1083521536190729,-0.3167543732767679,0.0721035122286656,1.5229999999999109,3.0,0.4228391426416532,-0.2926300703568805,0.8335734528960235,-0.3439345397232099,-0.4139217495828061,0.137396948615115,0.9122986346139362,-0.2524298331233796,-0.3210882205173023,-0.0298786759392523,1.5229999999999109,4.0,0.2999033504189978,-0.217019082020598,0.907961286865468,-0.6646649480244925,-0.2650430305337091,0.2726164760793901,0.9409573599636172,-0.1784093077348717,-0.2315696502605721,0.1707186654178722,1.5169999999998254,5.0,-0.246833559798459,0.224861047717228,0.921787233029798,-0.0511320316871633,0.0079974541542615,-1.5291947123567868,0.7689612688962987,0.1194813125541088,0.1025793427707964,0.6195968538690727,1.5169999999998254,6.0,-0.0255588011437685,-0.0691054452189947,0.9772718071883468,0.3079315038089883,0.2460871447154431,-0.1933140826915575,0.7554622127106538,-0.0845590143620247,-0.1037949618136753,0.6413682438026873,1.5169999999998254,7.0,0.0289881896111792,-0.0549849711333656,0.9780518073254246,-0.1128978010242319,0.0663468755879222,0.3023867540333913,0.8496135289630677,-0.039265430657239,0.0842882611547093,-0.5191440709376728,1.5169999999998254,8.0,0.0010737931471183,-0.1034865814339331,0.9745175085299368,0.1770696501660087,-0.0746339500548079,0.5062181580690585,0.9480173410830034,-0.0844379433648571,0.0181540584641482,0.3062740356078292
24,24,1.5960000000000036,0.0,0.7711508861925187,-0.256421506748776,0.5481854810200472,-0.3935815090371174,-1.0083674124257278,-0.1359437750863056,0.7311226611383689,-0.2312123696913898,-0.6415004018305578,-0.0218570108403413,1.59699999999998,1.0,0.3595554619871537,-0.2063176915397102,0.8887136096138788,-0.2995981319464305,-0.5025389136408728,-0.1421610486329717,0.9370797111121448,-0.1291690568153282,-0.3203102031569784,0.0509739495914603,1.59699999999998,2.0,0.4017134030266123,-0.1202517412549881,0.8852078064239615,-0.3352961120668675,-0.3544074983559801,-0.038600798662012,0.936240405466745,-0.1163120319368815,-0.3248396753685588,0.0663671583287086,1.59699999999998,3.0,0.4327756611492067,-0.3149969248797993,0.8212856777231279,-0.1090365856512388,-0.2735118094608905,0.5346813764492755,0.9123713749557002,-0.2588736425411492,-0.3170914835711957,-0.0039877820327753,1.59699999999998,4.0,0.301212591252107,-0.2545898748103535,0.8966598967921111,-0.6714291975117979,0.200774514229457,-0.5374696544799099,0.9437531246788284,-0.1980771350829163,-0.2276665666137404,0.1351422312328861,1.5949999999998,5.0,-0.2704289258493879,0.200444174208085,0.9207504162855346,0.0685958639587693,0.1653288052009344,-1.2606314013627389,0.8081124155485674,0.0983856862598006,0.1251318771174016,0.5671125055088477,1.5949999999998,6.0,-0.0399497817189528,-0.0550806621449472,0.9768188857706848,0.0866846895450993,0.2750314597478608,-0.2347040782687934,0.7656534475855872,-0.0838291909580931,-0.0814506087317371,0.6325450681815845,1.5949999999998,7.0,0.0131421995880849,-0.0588346579426531,0.977761098435992,-0.018509463274288,0.1523322489893842,0.5700423591675245,0.8640356305559396,-0.0326324998594403,0.0848001769288456,-0.4951630833125183,1.5949999999998,8.0,0.0022090783734893,-0.0960322142017986,0.9748963708047332,0.0234804815702901,0.0484582816075346,0.4213323062075951,0.9418853668400216,-0.0799037196198068,0.0190902041242927,0.3257344246929544
25,25,1.7010000000000218,0.0,0.8031451463048302,-0.2626939522762286,0.4972833813878031,-0.2850507024981168,-0.7638154620808142,-0.0485185524307924,0.7184471002603119,-0.2352907186909559,-0.6541233022028552,-0.0243874422741476,1.7010000000000218,1.0,0.3812163478339773,-0.2278135160320232,0.8735565797687357,-0.2543750974589198,-0.3747388435235484,0.3999230303315395,0.9322533861145348,-0.144340767167089,-0.3245069264269486,0.0690262393045952,1.7010000000000218,2.0,0.4154684953669633,-0.1409843628152359,0.876154860055626,-0.1554866654371317,-0.26150091606227,0.3623982249545708,0.9339531692480822,-0.1230787361105989,-0.3253806134699802,0.0819180001390399,1.7010000000000218,3.0,0.4472893694560354,-0.3253213850479463,0.8091713146189182,-0.1507559434546928,-0.3257022304553857,0.186577428089976,0.9101953948470702,-0.260755134213237,-0.3217424880844535,0.0057336325177133,1.7010000000000218,4.0,0.2998801099701793,-0.2792830820317317,0.8903773805163349,-0.4209323234752131,0.0197060753502077,-0.155139214578774,0.9435350703719086,-0.2089280901393646,-0.226022968829148,0.1224918025447131,1.6809999999998126,5.0,-0.3053006755386058,0.1808803325467725,0.91255180829005,0.356441261753624,0.2709868838592514,-1.855636653109067,0.8567091341174965,0.08321259150089,0.1606679701815885,0.4830226987348355,1.6809999999998126,6.0,-0.0858956196298854,-0.0325332648633704,0.9755560102863022,0.5271666590629724,0.7685198957218865,-1.6230434534372846,0.8220219548217302,-0.0749720486412254,-0.0285989577710424,0.5637740658526328,1.6809999999998126,7.0,0.0111963135347268,-0.062558678163576,0.9783486364020026,-0.145418160630935,0.1189901472008867,0.0996980357229004,0.8661908477519791,-0.0353505533553077,0.0863762159716229,-0.4909204650069144,1.6809999999998126,8.0,0.0126738117377216,-0.1023151339267338,0.9747768913272368,-0.0914517857692739,-0.207768556035952,0.3813205490589044,0.9357071166784252,-0.0771878547139223,0.0051730245061829,0.3441910322763637
26,26,1.731999999999971,0.0,0.8208339454674413,-0.276816409889861,0.4581596983411373,-0.2138266455554974,-0.5624149992829194,0.1164693433256507,0.7129015162946821,-0.2425378018654144,-0.6576623121678647,-0.0206670240976778,1.7329999999999472,1.0,0.3901654269083672,-0.254783052096741,0.862576684132884,-0.3460082953760905,-0.1084506199102626,0.1287684736356138,0.9314874289645716,-0.159533538594937,-0.3190782348910875,0.0711990151837628,1.7329999999999472,2.0,0.4259793088834883,-0.1519330003112463,0.8690379691472453,-0.2467036816861722,-0.2391372975937439,-0.3124763484030871,0.9337449859074526,-0.1225377313369672,-0.3301169222493211,0.0642465822913253,1.7329999999999472,3.0,0.4636084372429677,-0.3406042329494067,0.7938702497348543,-0.1215146363624074,-0.4986514351638138,0.197907281415615,0.905067809020632,-0.2617180523080177,-0.3346756391503621,0.0186584760896178,1.7329999999999472,4.0,0.3065857755419803,-0.3017337346152101,0.8805793068375388,-0.2507585496948729,-0.3358644327017958,0.4256032637319518,0.93701914647281,-0.2163745957872163,-0.2340443493842267,0.1428299547104856,1.7489999999997965,5.0,-0.3559540031641371,0.1482654997809797,0.9005304487945545,0.3209252463764396,0.7144106294003505,-1.726489877677804,0.8898918943261429,0.0558367018368287,0.2087056601509178,0.4017668808669821,1.7489999999997965,6.0,-0.1206295485614459,-0.0393467640435552,0.971796966538362,-0.1074870580463239,0.8624355904694361,-0.6686910256919484,0.8412000028664735,-0.1003642616892115,0.0081718036615375,0.5312652743949503,1.7489999999997965,7.0,0.0052539647397881,-0.0717609117221774,0.9769318130777168,-0.1238175864740717,-0.0074652645916163,-0.201625885015968,0.861445401929269,-0.0415454698878746,0.0816805041939214,-0.4995138523217776,1.7489999999997965,8.0,0.0278923610970595,-0.1159179400160112,0.9724618488017284,-0.1858724233327587,-0.2647157229495008,0.0594981795876114,0.9342066725010342,-0.0786627807352785,-0.0140334135980489,0.3476681223297947
27,27,1.836999999999989,0.0,0.8280371083690664,-0.290889534752026,0.4368979580354483,-0.1229560418075506,-0.3167847472744886,0.2453997735772464,0.7163145953792409,-0.2504086518108221,-0.6511848847778939,-0.0121306793610939,1.836999999999989,1.0,0.3893542320091752,-0.2757799983334505,0.8562941518752465,-0.3365988674808835,0.039072438783185,-0.049730472039375,0.9333326551816392,-0.1715010910090317,-0.3088120645370485,0.0641298631736314,1.836999999999989,2.0,0.438267833602456,-0.1566710640321042,0.8624392637887368,-0.3363776388345032,-0.0903326539045976,-0.5437615722856545,0.9354685700686272,-0.1236095007946329,-0.3294009283965016,0.0333807444282263,1.836999999999989,3.0,0.4924745933725836,-0.3457964430182446,0.7731148652551175,-0.0563572607700235,-0.572271103835404,-0.0569072407547996,0.8992235218605266,-0.255171781399289,-0.3546977639187971,0.021769611417513,1.8379999999999648,4.0,0.3295478864705617,-0.3232004198985168,0.8650576160581492,-0.2313309665054674,-0.5380518875915338,0.2769067335864668,0.9286528030111552,-0.2193560146140624,-0.2538547747483181,0.1582550588437553,1.846000000000004,5.0,-0.4161360599532825,0.1703416887815909,0.8706178775269858,0.1202291043044314,1.0290581431232968,1.161595006937279,0.8544736734578817,0.0464491658666769,0.2546343031658932,0.4504204569165385,1.846000000000004,6.0,-0.1698675489074294,-0.0179492224879885,0.964464536019992,0.0802059321090342,-0.6438453253753964,0.1293959908791405,0.8382367343527625,-0.0753240847806491,-0.0102365785308922,0.5399821033085771,1.84699999999998,7.0,0.0156876302216244,-0.0821756153797427,0.9761117080001602,-0.1802242743519245,-0.1880258102717388,-0.4358609909517271,0.8511533455487046,-0.0556038027211686,0.0702944781198417,-0.5172087449280531,1.84699999999998,8.0,0.0560076537557812,-0.1257014642635404,0.9698516817548828,-0.1702081577392626,-0.4202983165606229,-0.1859963087885741,0.9364635839294408,-0.076360269331252,-0.0408930363605953,0.3399011986135044
28,28,1.8669999999999616,0.0,0.8339004133270473,-0.2989628461343788,0.4195358355185066,0.0389523937463465,-0.272157169653524,0.0403172081524612,0.7220291104190726,-0.2450608019387843,-0.6469758544941063,-0.0064351194381686,1.8669999999999616,1.0,0.3874180985353044,-0.2839278573413362,0.8543285016624738,-0.1815868688261174,0.1089140920246738,-0.3482523484906197,0.9380021442685824,-0.1713223993557754,-0.2979762955524628,0.0448412769148346,1.8669999999999616,2.0,0.4461139712516151,-0.1492293455265843,0.8601900528882094,-0.0171466074121572,-0.0375726531514969,-0.4315848053485112,0.9391259185267072,-0.1121096397182555,-0.324521004154877,0.012651312023718,1.8679999999999384,3.0,0.5255215264872938,-0.3420415188864167,0.7530449684821867,0.0516845472590556,-0.5501280805821429,-0.1608312897901032,0.8946968900300931,-0.2422280598513705,-0.3746698741100379,0.0215760845727105,1.8679999999999384,4.0,0.360757025285435,-0.33320266740908,0.8469760038741818,-0.0577740718690353,-0.6301056241170903,0.1826990726423435,0.9210903551723154,-0.2119280005082148,-0.2776322353445647,0.1720448258643893,1.877999999999929,5.0,-0.4557639028926236,0.2608319734163223,0.8267756324806811,1.038139451609711,0.751716783051846,0.9750693753677812,0.8199241022467485,0.0811376977846049,0.3070475431295561,0.4763013193464626,1.877999999999929,6.0,-0.1737042306260988,-0.0404539146475163,0.9635597132779508,0.2721609196506154,1.1355988672389703,-0.7624291924765207,0.8591525743871329,-0.0927530781686352,0.049819123783146,0.5007711806001667,1.877999999999929,7.0,0.0436880288718804,-0.106064228548206,0.9735993711767504,-0.2872173169376693,-0.0812132902059588,-1.087253358203943,0.8221879040653641,-0.0736161345501927,0.0643970555458961,-0.5607501532585708,1.8789999999999047,8.0,0.1240164415161777,-0.1449995510230144,0.960997946114761,-0.6095909158375785,-1.4749183037341718,-0.9266379182435868,0.9434447257517212,-0.0752022809881535,-0.1285557861072787,0.2961926336757517
29,29,1.9399999999998272,0.0,0.8401752312228465,-0.2944140855977988,0.4085387705484609,0.2622490958355936,-0.1903796963016284,0.0128812395839619,0.7320606896474062,-0.2305158483870638,-0.6410395757075033,0.0042252446201971,1.9399999999998272,1.0,0.388338077119912,-0.2805315190736272,0.8551149657590218,0.0732582454564948,0.0209214102752668,-0.1096895065423354,0.942379707549993,-0.1629102453079404,-0.2892771540576043,0.0412245911080933,1.9399999999998272,2.0,0.4535350732204956,-0.1345897843133881,0.8580428470171846,0.0480246146913574,0.0063903480201613,-0.2268621878849885,0.9429387522128642,-0.1018968457169766,-0.31698300608827,0.0023057015030673,1.9399999999998272,3.0,0.5502996375992832,-0.329114391215667,0.7410060906314053,0.2948896316869536,-0.3108101608623997,-0.1664283847467554,0.8971502656873582,-0.2189082343793676,-0.3829982042419168,0.0226486477626681,1.9409999999998035,4.0,0.3895045936345944,-0.3338284713268931,0.8352207631932405,0.0610626530259366,-0.4555912401135943,-0.0463489146108255,0.9186715220808832,-0.1973471007974416,-0.2941535394643598,0.1748440778094205,1.9549999999999272,5.0,-0.4591265257386269,0.2788507613215927,0.8194260712679002,0.3091850811116922,-0.656059254269498,-1.0708762989173353,0.8554223858416434,0.0863362815333712,0.2886587902490469,0.4212774514544278,1.9549999999999272,6.0,-0.2329276972957086,-0.0430127207413342,0.9511890420347298,0.0758903001820651,0.3080359629992361,-2.8519360230898774,0.9239712200670082,-0.1018860857013548,0.0554959805219989,0.3644401270088716,1.9549999999999272,7.0,0.0422378861413804,-0.1086224810881967,0.9730057130235938,0.081896894151943,0.0421940128846416,-0.6358904896775804,0.8045672316394902,-0.0696939166978328,0.0565670063331244,-0.5870387564222577,1.9549999999999272,8.0,0.2271940295439422,-0.1827557049356948,0.9354272955462886,-0.5991453509431277,-1.4464423613517972,-0.2412267315867739,0.9331992078491838,-0.0780896048531953,-0.2066423947944475,0.283443420733563
30,30,2.0549999999998363,0.0,0.8412082658713775,-0.2825089720147039,0.413143236857225,0.3500783233655076,0.1734617640501646,-0.1266831476235675,0.7537527742307812,-0.2078977445734283,-0.6233543847841795,0.0080370461625702,2.0549999999998363,1.0,0.3915788943970127,-0.2635665919081619,0.8594379681470501,0.4314282819223997,-0.0746903455193652,0.1605257450597243,0.9469766529180004,-0.1412486420125988,-0.283104151782124,0.0560007071521547,2.0559999999998126,2.0,0.4513303173090779,-0.1241992177054692,0.8607214990919168,0.464725557224305,0.0395469051339948,0.22037362042533,0.9484296796349644,-0.0797208542691986,-0.306178586096734,0.0195038867386144,2.0559999999998126,3.0,0.5643082309549553,-0.2979314854100161,0.7431002963785375,0.4736604805769243,-0.0974795749665119,-0.3673989531343203,0.9050926267871866,-0.1841869671097674,-0.3829381344511188,0.0155204144749097,2.0559999999998126,4.0,0.4084157535644263,-0.3269753333146976,0.8287862834555986,0.2786771937461816,-0.3806201418815175,0.0528720569477407,0.9180829055705948,-0.1755639617008316,-0.3037274103788916,0.1845284098329994,2.024999999999864,5.0,-0.4672886458400183,0.3687004811593543,0.7786657027645832,-0.0599839342722012,-0.1735462081406494,-0.1944019640796634,0.8620514683441399,0.082906130625244,0.283170072668271,0.4120783291748168,2.024999999999864,6.0,-0.1644747417084925,-0.1270099073780601,0.957487097964114,0.3808164977431472,2.0324199992678342,-0.6537899792190361,0.928110871616886,-0.1214082072756007,0.1524091712429344,0.3172407630077048,2.024999999999864,7.0,0.0614799049483328,-0.0984905215179957,0.973302542100172,0.1642186548719948,-0.3500416526275949,-0.0760379779604078,0.8039398414307096,-0.0725350504212515,0.0322016742919962,-0.589391593080139,2.024999999999864,8.0,0.2904141470987674,-0.2046899827616669,0.9136074836175128,-0.3320182992047262,-0.9057499230947356,-0.0024863314768132,0.9227448234677986,-0.0785397146637414,-0.249870613740892,0.2827334086602946
31,31,2.078999999999951,0.0,0.8373432395575516,-0.2602401590418711,0.4367898336604529,0.3649028371673211,0.3155626994513693,-0.2808293244953033,0.7779582080263179,-0.1801232833055674,-0.6019255753631395,0.0047149866866836,2.078999999999951,1.0,0.3919502366705923,-0.2406431499244718,0.8642730392464497,0.4897767619636797,-0.0379481403079598,0.0470024637085738,0.9518132991424526,-0.1157315286555654,-0.2762954580702941,0.0657151177457071,2.078999999999951,2.0,0.4478715116164163,-0.1014130146119982,0.8658033896617251,0.3894299710747455,0.0377450107963332,-0.0723041050821388,0.9528618816455738,-0.0570673852733886,-0.2972105281249506,0.0215278892742205,2.08199999999988,3.0,0.5730212667315222,-0.2581117481650086,0.7522911360188986,0.4634872235786252,0.0415537363142961,-0.4783116263005619,0.914068280014935,-0.1491150110809658,-0.377148010527779,0.0018086170960586,2.0829999999998563,4.0,0.4261509105172431,-0.3022491917897331,0.8290728722662308,0.4781374676911844,-0.2083113808556203,-0.0008369758027663,0.9216114992856966,-0.1455614105315457,-0.3037069815284194,0.1928890601338855,2.086999999999989,5.0,-0.4708511812636417,0.369135592756613,0.7761920376188209,-0.4569591117422863,0.9672124084467304,2.08138828003628,0.8040346772846291,0.0726371487067796,0.3070496391167379,0.5039569440635109,2.086999999999989,6.0,-0.2057682559938975,-0.2344609330718356,0.9293957691362243,-1.0156431452955497,-0.0716277208739029,-1.807147177850132,0.9483083584323786,-0.1844125792206048,0.1065321011638308,0.2352746679396464,2.086999999999989,7.0,0.0827502854661962,-0.0888170668191793,0.9723049515953832,0.0884746421174364,-0.2003559524751865,-0.8485746477403296,0.7793678320655405,-0.0753318704290996,0.0147166191911566,-0.6218474995999383,2.086999999999989,8.0,0.3763191337829935,-0.2419373060058839,0.8717151194693326,-0.4926383516886706,-1.496599874501065,0.2942864711551453,0.8970161052965548,-0.081641058197718,-0.319949705323165,0.293818022794002
32,32,2.135999999999968,0.0,0.8368264074895448,-0.2289962017241932,0.4534195665429922,0.2898986919826563,0.1375449022105579,-0.4318904058539994,0.7931639111161836,-0.1516419980646943,-0.5898021961072898,-0.0053929577083764,2.135999999999968,1.0,0.3971477018703963,-0.2111791596964612,0.8708197663173245,0.421922776916757,-0.0799316379503459,-0.3136978136785598,0.9558733111533296,-0.0889744350387131,-0.2740569718615324,0.057293447342595,2.135999999999968,2.0,0.448859997472906,-0.077205323593739,0.8675384952135603,0.3517199936553785,-0.048542257889509,-0.3072195868550068,0.9552652988963428,-0.0335404679538818,-0.2935978112774471,0.0119821094556771,2.135999999999968,3.0,0.573452529776269,-0.2332062325750447,0.7586573990816614,0.2540083365820864,0.0783554696146584,-0.1065034342293991,0.9203831995483168,-0.1330743297671462,-0.3676743478125185,0.0012500827441405,2.135999999999968,4.0,0.4302747602252509,-0.2768788552230737,0.8344895027760764,0.499177225537806,-0.0598684866108808,0.0887399055775614,0.925491619581415,-0.118534778133175,-0.2959636613980894,0.204500072345526,2.161999999999807,5.0,-0.4423968415229125,0.3523741789681453,0.8001796502080495,0.6496270376001542,-0.954699990917043,-0.7578566461205095,0.8353094316998776,0.1084795465523041,0.2867013866412827,0.4563909028354967,2.161999999999807,6.0,-0.1484309416386245,-0.2456903942995245,0.9368342893560287,0.758837001358151,-0.4863118537712856,-0.5007421044789658,0.9639858096368564,-0.1402206624092684,0.0821676760432858,0.2105184022025778,2.161999999999807,7.0,0.0564353905655876,-0.066477153810324,0.9756894150870904,0.4839065370953443,1.104534025250336,0.2220921020240653,0.7870856986828187,-0.0186644902563995,0.0417591062804364,-0.6151454435945265,2.161999999999807,8.0,0.4973394783863677,-0.2844884694445998,0.7946406445629652,-0.5448701771999231,-2.557661681418156,0.7001901548329671,0.8409050775409441,-0.0762452380139803,-0.4295964221554985,0.3201753087251499
33,33,2.240999999999985,0.0,0.847750196047474,-0.2080709441729114,0.4442106339254638,0.1791661649556138,-0.6137269335144232,-0.1600870642437789,0.7826102116057735,-0.1378869873182092,-0.6070457961091693,-0.0019587865782508,2.240999999999985,1.0,0.4133124374137916,-0.1831320303066448,0.869384545845414,0.209316223772102,-0.3233207172524538,-0.3212612136601185,0.9546250050867808,-0.0729956666511702,-0.2849432094872905,0.0465843286985786,2.241999999999962,2.0,0.4613757534700412,-0.0447384982149367,0.8638969156603258,0.2453609952707362,-0.262971185004389,-0.334314688068318,0.9534425950042188,-0.0155284672046589,-0.3011744759871304,-0.0001405410007373,2.241999999999962,3.0,0.5561273835323014,-0.2449420451614659,0.7680440923525389,-0.1006783900719242,0.3489243893319346,0.4823973738722973,0.928311308487052,-0.1462342229904512,-0.3412487051105319,0.0200745565784542,2.241999999999962,4.0,0.4171863950481459,-0.2509354729385736,0.850695539078363,0.1687303595961718,0.7195258877229445,-0.4238755548545274,0.942837528662705,-0.1079668415081075,-0.257085954447786,0.1825030621815341,2.222,5.0,-0.4201573920635954,0.3254211191113014,0.8222293543353132,0.1185698738472099,-0.6730725052980433,-0.2532411352251535,0.8514307784791099,0.1192909035580171,0.2614827505905759,0.4387050044510041,2.222,6.0,-0.1382419051028839,-0.187462225361377,0.9500975422218948,0.8386356964445357,-0.8607414587520396,1.0312371629011094,0.960501861484638,-0.0832248940464596,0.0504348216631551,0.2607031259101174,2.223,7.0,-0.0390033299803858,-0.0630337621616406,0.9724732567418968,0.0417558965885086,2.1935155839859464,0.9533259483959574,0.8102868545053014,0.0529523381704881,0.1261272505945656,-0.5698448735889782,2.223,8.0,0.5571385748680341,-0.2752377363699363,0.7541314851350323,-0.1533455064383928,-2.4913726619924628,-0.3575145044212707,0.7953456431548749,-0.0310719329136958,-0.5218773136551207,0.3067636099534624
34,34,2.317000000000008,0.0,0.8656302397443374,-0.2087920546351544,0.409920926474109,0.0487092493998885,-0.3080979129236114,0.1674440084979686,0.779897020961756,-0.1398869106098438,-0.6100146360346902,0.0086274421746293,2.317999999999984,1.0,0.430389244473722,-0.1749955571452472,0.8625889248192115,0.1750249863425202,-0.2288307598504778,0.2916884140900138,0.9526423167637722,-0.0689285030592998,-0.2890730126667205,0.0644846580571142,2.317999999999984,2.0,0.4719872017561826,-0.0392863804179619,0.8567086212312933,0.199038100257985,-0.1106749113395893,0.3610469593281972,0.9533304695806232,-0.0119389427596982,-0.3010034605668639,0.020381220320231,2.317999999999984,3.0,0.525243181096344,-0.2627585221256615,0.7848589425891328,0.1188014907505608,0.3050289159667623,0.6582794688486551,0.9352522892216316,-0.1508846595427235,-0.3161556734087301,0.0508189452059597,2.317999999999984,4.0,0.3715912996216258,-0.2372247647945042,0.8738062239499691,-0.0120565626184814,1.1303069902066698,-0.4852921699656856,0.9613972967352874,-0.1101375138423321,-0.2008534310634837,0.1524561087813089,2.2829999999999018,5.0,-0.3979179426042784,0.2984680592544575,0.844279058462577,-0.4124872899057343,-0.3914450196790435,0.2513743756702024,0.8549012921960526,0.1064884933620547,0.2340129937123553,0.4506017090033947,2.2829999999999018,6.0,-0.1280528685671433,-0.1292340564232297,0.9633607950877612,0.9184343915309204,-1.2351710637327935,2.563216430281185,0.925721651204342,-0.0173950869509684,0.0064819608172016,0.3777496785245999,2.283999999999878,7.0,-0.1344420505263592,-0.0595903705129573,0.9692570983967032,-0.400394743918327,3.282497142721556,1.6845597947678497,0.8337234283916318,0.1356043100228554,0.2567270637934356,-0.4696891852812138,2.283999999999878,8.0,0.6169376713497005,-0.2659870032952729,0.7136223257070993,0.2381791643231375,-2.425083642566769,-1.4152191636755087,0.7615598489306243,0.0532820979970261,-0.5922479209023415,0.2577402077997416
35,35,2.349999999999909,0.0,0.8714112421147542,-0.2193897804012936,0.3912857924477881,-0.1309732190937099,-0.3200397611305932,0.1322711779751914,0.7751394173301358,-0.1475571912477734,-0.6141924381236484,0.0123857968614751,2.349999999999909,1.0,0.4402867236496249,-0.170910556391469,0.8588004324008212,-0.220786277748936,-0.1358144829385388,-0.2989991844415126,0.9521798050364522,-0.0750797614489114,-0.2922410919622283,0.0480811030472791,2.349999999999909,2.0,0.4735195198715128,-0.0380782362784315,0.8562699996044332,-0.0677530548811656,-0.0986376299069213,-0.2003987454914893,0.953541147844736,-0.0122973726989204,-0.3008442428493645,0.0100396980054155,2.3509999999998854,3.0,0.5070661954822422,-0.2716632023513356,0.7931235577685117,0.0756937787136587,0.096382378801804,0.2986451986567762,0.937988955924236,-0.1502990949272459,-0.3055024665953298,0.0652314612160587,2.3509999999998854,4.0,0.3430769571791637,-0.2341681950910465,0.8882141959350165,0.3544195238356785,-0.0679622011373778,0.9122240571327392,0.954871995452942,-0.1000454921551837,-0.1960926647065085,0.199394179071116,2.346000000000004,5.0,-0.4224640529107629,0.2804732195637661,0.8380601989748395,-0.7177008765906426,0.3550288623693731,-0.3095540094974992,0.8620660349634583,0.0565678225621709,0.2370774677503282,0.4443382800277827,2.346000000000004,6.0,-0.0079257631635591,-0.1291032827740981,0.9701770584049214,0.2634106312484129,-1.3809457852623923,1.9750206101604968,0.8848353664968914,0.0166182406468796,-0.0540449409342569,0.4624601092348688,2.346000000000004,7.0,-0.3682045157150443,-0.1421552052355707,0.8971796543789223,-1.978855763281644,4.358107984975899,0.7443555648625874,0.7977385938423092,0.1550393549283918,0.4618396311501919,-0.3553590992460135,2.346000000000004,8.0,0.7173362051333652,-0.2143606396589891,0.6322659922610513,0.2340939350156645,-1.1302106246039452,-0.2764007471386802,0.7416607701107356,0.0815654701362762,-0.6147970642658215,0.2555600632538783
36,36,2.4079999999999018,0.0,0.8782891322263664,-0.2260141149036166,0.3725557945830279,-0.1914143134548399,-0.3066015805679453,0.0275433211332383,0.7701336472664304,-0.1539189567572949,-0.6189543294742565,0.0099326795943875,2.4079999999999018,1.0,0.4457151191653027,-0.1941504941952787,0.851090840128825,-0.6514531880173817,0.0204462880286598,-0.2496630567506805,0.9513575979939356,-0.1037630293849705,-0.2887932662703588,0.0273934997574391,2.4079999999999018,2.0,0.4890243526466759,-0.0476003649018209,0.8477301385344946,-0.5525099167348192,-0.2789343167626446,-0.5203131079399331,0.9497054856666348,-0.0314811614443629,-0.3107404002959461,-0.0225572736103034,2.4079999999999018,3.0,0.5061747484941411,-0.2738915606570714,0.792633923692222,-0.1682507221663421,0.0336277747492765,-0.1849950443513563,0.9389212991954206,-0.1533174920846797,-0.303412638417522,0.0534912271925562,2.408999999999878,4.0,0.3412752796166303,-0.2389524464333825,0.8855941010790959,0.0959016657700891,-0.190236538894393,0.719738134934484,0.9458407745486,-0.0992691585524106,-0.200843729537114,0.2349311807045269,2.451999999999998,5.0,-0.4396473215252767,0.3172335223649903,0.8167197346480316,-0.0774564596164294,1.0904997045937963,3.343361197758898,0.7700844324109255,0.0672910731904574,0.2692193148627861,0.5744239191851529,2.451999999999998,6.0,-0.0069777637803711,-0.0698470322092632,0.977713507579896,1.0786240485302905,0.0152061428128502,1.7436184592217312,0.8416026066600624,0.0520590363132303,-0.0291488902541351,0.5367916275409654,2.451999999999998,7.0,-0.4931541093554513,-0.1406093658599248,0.8352586609298353,0.0288961530149585,-0.0984408867099117,1.5428387192059323,0.8353945934410737,0.1796488260404374,0.424541960185933,-0.299343108477883,2.451999999999998,8.0,0.7001490999862399,-0.1317109376140395,0.6729431377919599,0.8147683756790296,2.186077628614324,0.4058420155279309,0.8120245417456236,0.0722747235247655,-0.4935718092941957,0.3029511132382305
37,37,2.4809999999999945,0.0,0.8811023596530205,-0.233447664053384,0.3572643558513744,-0.2067516610829741,-0.0822081453754489,0.0719157145587112,0.7718381289985752,-0.1624377438466822,-0.6146785609778903,0.0070815727157649,2.481999999999971,1.0,0.4486721078411243,-0.2235138993848123,0.8422000216262159,-0.4931884447140988,-0.0430022232708887,0.0189621770740259,0.9492115841726112,-0.1279546301993742,-0.2865942487722278,0.0221069593962085,2.481999999999971,2.0,0.4974163315833716,-0.0725614909504253,0.8402123678601695,-0.5257841914600498,-0.1063999286896173,0.1429865133802677,0.9485971590405696,-0.0599238582452054,-0.3098917276753345,-0.0232309748302797,2.481999999999971,3.0,0.5037366918648474,-0.2763025343260711,0.793748861286774,-0.2065129257481855,0.1242732172246062,-0.1496673659924111,0.9406702606111011,-0.1590765293074166,-0.2967379881414952,0.04219816369331,2.481999999999971,4.0,0.3387232975613931,-0.2474635495331064,0.884570132517265,-0.0057599353869151,-0.0034450101352618,0.2127554397730754,0.9434301181778996,-0.1000802343293644,-0.200221186670347,0.2446120095574461,2.467999999999847,5.0,-0.3898636763312997,0.3935179178430322,0.8077598419170936,-0.7443238327990809,-0.2444739096405703,2.198081323800594,0.7116296738023884,0.075158454317104,0.2326512998154376,0.6586408632955881,2.466999999999871,6.0,-0.0399963959324619,0.0139706856941103,0.979249768064129,1.476230396519466,0.5557781399269731,-0.4991450868929448,0.8509886032020073,0.0949378945845904,0.041547336556199,0.5148582447793058,2.467999999999847,7.0,-0.403223983117722,-0.0694153698071965,0.8899302927045516,0.1087288946708737,-2.3585260901600544,0.8835124883405827,0.9022565149712956,0.154109994444843,0.2860344115549018,-0.2834918097767616,2.467999999999847,8.0,0.5084870711509668,-0.1125307488785547,0.8302955672705613,1.3353618797304456,4.618215922541208,-0.1072840447187853,0.9151851541178434,0.0635463508846811,-0.2300519767709234,0.3247677369372315
38,38,2.5699999999999363,0.0,0.8794478032937778,-0.2446358193006411,0.354420480780742,-0.2344253980693305,0.0796067479949329,0.1177883734287213,0.7779037773773926,-0.1735689553008794,-0.6039238570954335,0.0039377314179411,2.5699999999999363,1.0,0.450675240538463,-0.2431221348028951,0.8355288475776772,-0.3654633789225062,-0.0210170255333256,0.0371434989278668,0.9477825870441996,-0.1452069422773328,-0.2832913217180922,0.0192129812753762,2.5709999999999127,2.0,0.5005948599132509,-0.0995481769935832,0.8362606930172476,-0.3264101056937705,-0.061292378176681,0.1177801574937281,0.948188354758898,-0.0771605692948055,-0.3073887566026721,-0.0222989407815443,2.5709999999999127,3.0,0.5021723741071541,-0.2838208101139255,0.7920086201739597,-0.2298646855804642,0.080605475057532,-0.0506432230388235,0.9410479788766504,-0.1674715603813736,-0.291746980902442,0.0355763552083337,2.5709999999999127,4.0,0.3346559381076944,-0.2523962304282496,0.8849240340022803,-0.2918493899786109,0.1420682609608019,-0.3048633630376087,0.9470841060174,-0.1110122892651023,-0.1989359447166949,0.2261248718319575,2.564999999999827,5.0,-0.3015837665068411,0.3857040148063954,0.8490345368368564,-0.9949757383502742,-0.7084646636195904,2.1293262949408787,0.6535738531156214,0.0875861672105238,0.1693640838873865,0.732451833860737,2.564999999999827,6.0,0.0050904769440961,0.0688563133572944,0.9768535689423076,0.7781985258871305,-0.918975520395118,0.4797407000832643,0.8368259996961692,0.1458446442321862,0.017031652251236,0.5274101902721325,2.564999999999827,7.0,-0.2258476862157243,0.0363171568450513,0.9527417733833736,1.2473819483321316,-1.6820694643949177,1.351248864560506,0.9354098371859688,0.1971853138494717,0.1566922675698369,-0.2481409312903199,2.564999999999827,8.0,0.0818298237373742,0.0631701421226648,0.9745134237614752,2.057248815135236,5.496741210674859,0.1245242137095141,0.9381357483985692,0.068922330629208,0.0877201831910129,0.3278051240878176
39,39,2.63799999999992,0.0,0.8759286818023998,-0.2536730995403847,0.3568583794245051,-0.2195167164354845,0.1383094154831302,0.0977583075809178,0.7851363502566274,-0.1833065104973656,-0.5915738427195656,-0.0001527252057887,2.63799999999992,1.0,0.4494044341291084,-0.2650907109996346,0.8301653868518033,-0.3515261686516398,0.040490654703561,0.0628024085844865,0.9469890739930936,-0.1617539429089277,-0.2770364820017011,0.0172668274804523,2.6389999999998963,2.0,0.5018440052151522,-0.1255450836303012,0.8328547450821633,-0.4285908723650012,-0.0181563975651224,-0.0153237794807436,0.9474407700769476,-0.0967532647330326,-0.3035329113596403,-0.0293694514937117,2.6389999999998963,3.0,0.5024712975664665,-0.2910412571306978,0.7896053329161693,-0.2149006045849574,0.0095920554053449,-0.1489406231457588,0.9404642961825586,-0.1733617965406673,-0.2912825635857515,0.0250412311388605,2.6389999999998963,4.0,0.3307844672285441,-0.2668537844689503,0.8819255603252053,-0.2967621635371468,0.0629138892180885,-0.0989970422604207,0.9472747108326752,-0.1233211456858277,-0.2000857728139953,0.2177801661332659,2.6109999999998763,5.0,-0.2020789624305126,0.3595750539263967,0.888709105127677,-1.0829010601361018,-0.6530262524618253,1.0354849885341542,0.6265510847666308,0.0824646855093129,0.1089302247918667,0.767311879191507,2.6109999999998763,6.0,0.0594833313241715,0.1112432426755362,0.9717775847659847,0.4658169914852356,-0.9690148695761877,-0.1544604430263008,0.83887697258662,0.1826246221710716,-0.0111588822546384,0.5126491505772811,2.6109999999998763,7.0,-0.1697914205592484,0.0298795652846469,0.9648352631837586,-0.1232816017673448,-0.9669583224558022,-2.160661576963708,0.9157359205098689,0.1465128829140896,0.1216091292504021,-0.3537978500656899,2.6109999999998763,8.0,-0.3620689725355492,0.1566028345295626,0.8965699143649413,-1.1462127337916908,-0.6460098617471546,-1.3451284990700845,0.963611506961322,0.0130982905165567,0.0503529568936425,0.2621943519020598
40,40,2.67899999999986,0.0,0.871166516889598,-0.2612764631084526,0.3628174605445317,-0.1062503221722244,0.2381980097457516,0.0810066786811568,0.7956134490016065,-0.1879073527706461,-0.5759197313431768,-0.0025553066546476,2.67899999999986,1.0,0.4389086271121572,-0.2831110889905275,0.8287148655219834,-0.2250511832631963,0.1541513926147441,0.2342471302764868,0.9484160833685482,-0.174179338869653,-0.2637823201182843,0.0242358889213575,2.6799999999998363,2.0,0.5052468693725525,-0.1383314484003606,0.8277626540094047,-0.102443847405269,-0.1057945019481666,0.0916250671509375,0.9468015295141716,-0.1016873998576653,-0.3042040229677213,-0.0262001685121806,2.6799999999998363,3.0,0.5039777335872576,-0.288779197847239,0.7888219183941052,-0.0768208888281412,0.0203677763473367,-0.1446052691382062,0.941225803350674,-0.1724756852607439,-0.2899528960618047,0.016536117019654,2.6799999999998363,4.0,0.3321936961122568,-0.2822960221960748,0.8778572230810378,-0.2528264674105452,-0.0351308659619669,0.1510047107568145,0.943921062857192,-0.1346461800558706,-0.2037063979939336,0.2222321684798318,2.6749999999999545,5.0,-0.1382886270178533,0.3113269194907504,0.9185237094587798,-1.027560430870693,-0.6888735849660017,1.2484968408743484,0.5874297441324294,0.0820686185350078,0.0500613091253583,0.8035452089888405,2.6749999999999545,6.0,0.1558083002342628,0.1113390269527703,0.9610309020293364,-0.1471288021301397,-1.5663392478594094,0.0356448271844477,0.8383013767402167,0.2071926409731533,-0.0836162475925844,0.4973231689963407,2.6749999999999545,7.0,-0.1984199425844134,-0.0335901899081164,0.95790721133455,-0.5206285952411337,-0.0156295346491825,-0.6309608659044922,0.909247032570798,0.1064453314340779,0.1313605521232392,-0.3803730149773577,2.675999999999931,8.0,-0.353798935759165,0.1380987633284377,0.903293443252434,-0.3428077736871672,-0.5322886765360652,1.2655307801775852,0.9462042998439628,0.0077550334886513,0.0343732974410803,0.3216453929957857
41,41,2.7359999999998763,0.0,0.8623644608571693,-0.2642195974935745,0.3802203847124151,-0.0460274305572473,0.2093539689334105,-0.0370663659764496,0.805081589789009,-0.186522093504996,-0.5630214055809903,-0.007748501462963,2.7359999999998763,1.0,0.4138704743501947,-0.2871847038978178,0.841264629179349,-0.1199924952867017,0.2810036150195423,0.3094194890556085,0.9521032961572732,-0.1815010222196812,-0.2435984824010907,0.0348779550941908,2.7359999999998763,2.0,0.4985011006504057,-0.1415651525344445,0.8317673714676678,0.0898372246054051,0.158919656319526,0.1451567278711099,0.9512925725057332,-0.0975235512730684,-0.2918427228823493,-0.0189584689025703,2.7369999999998527,3.0,0.5057429194469594,-0.2916581416603579,0.786456373763029,-0.1069070505590123,-0.1321761962433501,0.097172212750041,0.9391378726025784,-0.1768468911387421,-0.293818071624099,0.02040034620199,2.7369999999998527,4.0,0.3290098790073558,-0.3031996406108167,0.8720346767468807,-0.2559538426330909,-0.0654610222224747,0.3590834458795114,0.9377484856106376,-0.1477223925475917,-0.2069884379039065,0.2365621674086362,2.74799999999982,5.0,-0.0850211362519078,0.2719847172739505,0.9375701146900128,-0.5132706077199005,-0.2466962878738176,0.6410595867488976,0.5651138334595263,0.0756931016445079,0.0287114610449128,0.8210314011052071,2.74799999999982,6.0,0.2366379876990483,0.1110483038313649,0.9449226089971188,0.1731441663817807,-0.8465549153536829,0.293515630682966,0.8268145080791789,0.2247779358722428,-0.1168329476011829,0.5021978804511409,2.74799999999982,7.0,-0.20454019802551,-0.0522476689395562,0.9572431710292154,-0.0892554419819069,-0.4354239216247584,0.9040112846607232,0.929654120845683,0.0908248231432136,0.1060628801802625,-0.3409468177641659,2.7489999999997963,8.0,-0.2502759454440413,0.135134764798629,0.9364627843512576,1.026489619962097,0.1543706110729704,0.7240730173104938,0.9319364410812196,0.0559398828646462,0.0668200970257003,0.3519947072378167
42,42,2.810999999999922,0.0,0.8666924110332694,-0.2600443763332675,0.3732320819473855,-0.1612625679510541,-0.1380049760340922,-0.1716350312616865,0.8022470270596753,-0.1864007316831473,-0.5668457618806595,-0.0184487679760612,2.810999999999922,1.0,0.4020029843065458,-0.2862660556203219,0.8460935799355849,0.0430097035014524,0.2312853377866877,-0.2286728993271046,0.9569459393497436,-0.1733399671254941,-0.2317833373448188,0.0220047605819189,2.810999999999922,2.0,0.4868830046988293,-0.1390225018856405,0.8392208789734067,0.0851261835456711,0.2407436821056894,-0.238017695677948,0.9561095455703876,-0.0879125309366758,-0.2778500311364147,-0.0304184807475406,2.810999999999922,3.0,0.5222575319460642,-0.293448509806739,0.7747490189847356,-0.0135093941131682,-0.2090704276130304,-0.3092901475896981,0.936869304041217,-0.1704042775784472,-0.3052693533633477,0.0069936560836675,2.810999999999922,4.0,0.3367052354427035,-0.3297574151913497,0.8587506224462336,-0.4281641108215868,-0.2532854659206807,-0.0061370512020363,0.9321375644397992,-0.1624607713850366,-0.2245570196189297,0.2330240409508888,2.8079999999999927,5.0,-0.1408572146290237,0.3045458367849339,0.9206259166371092,1.741315463743137,1.689248825168856,-1.8192347527330608,0.6330936749939547,0.0551718851227918,0.1737478587374428,0.7523032256735311,2.8079999999999927,6.0,0.2907427218626689,0.0757524644175097,0.9324774709442372,-0.5665912593239775,-0.4642670249059942,0.6015967026939558,0.8165970131104473,0.1987541335608863,-0.155011798042065,0.5192662660324886,2.8079999999999927,7.0,-0.2033383716452098,-0.0634027593574203,0.9568973804554696,-0.5286310001036557,0.4292970305626022,-0.1267917393399091,0.9274435878381168,0.0645394723122234,0.1356212935703256,-0.3424761489825714,2.8079999999999927,8.0,-0.1937731925688292,0.1234048438249044,0.9530714529153804,-0.923802397071057,-1.5276292798153974,0.1293056341058202,0.9348301728724182,0.0367433007288536,-0.016359423805347,0.3528099304039368
43,43,2.923999999999978,0.0,0.8711685866560466,-0.2466130897668902,0.3761585803611748,0.1620179113014259,-0.0629006584716747,-0.2405621429940721,0.8047599720690901,-0.1711776560756069,-0.567897077306681,-0.023505467499032,2.9249999999999545,1.0,0.3927992537120645,-0.2765135750121669,0.8528892009617872,0.2579217515519626,0.0460729786679185,-0.0608262360026231,0.960759385147651,-0.1571464264825673,-0.2275771349619174,0.0213319510826414,2.9249999999999545,2.0,0.4734921020241527,-0.1290891548608233,0.8471589103692813,0.1597157692622475,0.3397990357444155,-0.0078101016816044,0.9622877695345096,-0.0784275779429698,-0.2587335508550905,-0.0301382362492302,2.9249999999999545,3.0,0.5318319218675673,-0.2899614344612287,0.7700403712844128,-0.1567683751966515,-0.1369370510007351,0.2049847454976749,0.9341652200347648,-0.1792708746645215,-0.3081666269380061,0.0151863496624027,2.9249999999999545,4.0,0.3506090033157298,-0.3323036762262151,0.8530759600179187,0.1447980537993267,-0.225806203709983,0.558086280267277,0.9247080302277376,-0.1558141263751225,-0.2285019277191287,0.2615795976045095,2.9269999999999072,5.0,-0.3474644582188816,0.4084522865702417,0.8192607520626142,0.7365700635226375,1.801037775935288,-1.124862536412052,0.6582413686074544,-0.0031054479339785,0.2720339715575983,0.7019303207338421,2.925999999999931,6.0,0.3982547477560536,0.0390963746739898,0.8942872186144186,-0.2430874916950124,-1.215322594947963,-2.09282157681364,0.8610991405928426,0.2281694970702695,-0.1899000885139151,0.4127770670221094,2.9269999999999072,7.0,-0.194297394520884,-0.0899379137274134,0.956514868758848,-0.0455073324350792,-0.3484796291944091,-1.028979116613298,0.9117763049708154,0.0423545609449492,0.1200231307526115,-0.3904670395120037,2.927999999999884,8.0,-0.1008867927993562,0.0493301028871495,0.973468744227468,-0.8608247882906864,-0.5759126610270714,-0.733001175207842,0.947753749501512,0.0035369624087051,-0.0512507314602366,0.3148391378585828
44,44,2.9449999999999363,0.0,0.8775668584331916,-0.2382777076546304,0.3670710326551979,0.2897956643612073,-0.2267965105371717,0.0608309836493459,0.8031881337648046,-0.1606014733139945,-0.5735651904284488,-0.0109069187932372,2.9449999999999363,1.0,0.3922095885033712,-0.2656888794055049,0.856421659024492,0.2098198354600965,0.0382273070973362,0.0029145875078995,0.963533928664812,-0.1449870662167382,-0.2236857705003647,0.0233622562539339,2.9449999999999363,2.0,0.4630701052898627,-0.1195390046987643,0.8552938114720954,0.1537823368751944,0.1221145142201195,-0.0813996004162356,0.9647987888753587,-0.0690061174481733,-0.2516688858670789,-0.0326224558516489,2.9449999999999363,3.0,0.5322111925676831,-0.3013407693183902,0.7659947697290665,0.0840763865990402,-0.1200516309309386,0.3465947374060727,0.9336397800559938,-0.178558891011882,-0.308731520386794,0.033441469125335,2.9459999999999127,4.0,0.3460159573271162,-0.3377650569138323,0.8513217509279289,-0.0957945237087906,-0.0879152097408667,0.212015298261399,0.9209497580586722,-0.1582849309103409,-0.2316386031212013,0.2704458935211264,2.9699999999998,5.0,-0.472004508850692,0.4388523396300329,0.7375624499836358,1.037166331455759,0.9523902307982978,-0.0385338641077833,0.6457025571309037,-0.0055322387416049,0.3470549265557388,0.6801400444044657,2.9699999999998,6.0,0.3493872275593872,0.0138760965654764,0.9153562252819776,-0.8304681717191404,2.5508477618361867,0.7058723369084317,0.8772531591341585,0.1175902730151303,-0.0945036505743073,0.4557065750123593,2.9699999999998,7.0,-0.1455956437742311,-0.0809360226488267,0.9655207241441044,0.1767119246642662,-0.5183571089484754,-0.0650672951951852,0.9133315653503108,0.0348455801450544,0.0894777281060563,-0.3957334626387873,2.971000000000004,8.0,-0.0150874352813434,-0.0381598950124979,0.978156016036944,-1.2878802773844369,-1.815650095690812,-0.4393085719007784,0.9457337605648538,-0.0302524088849997,-0.1524693654518614,0.2853516050125199
45,45,3.019999999999982,0.0,0.8735660488408982,-0.2470186446213535,0.3658102616411011,0.3880665053466155,0.038018020139586,0.495641272445775,0.8098695166985803,-0.1586047801131165,-0.5643992195488571,0.0202338978034099,3.020999999999958,1.0,0.3908922973193813,-0.2555501571216164,0.8599530970300029,0.4058325911052554,-0.1117980165827926,0.59749204142151,0.9643442427486364,-0.1303533651304132,-0.2230768190168857,0.057314173587724,3.020999999999958,2.0,0.4578007131477848,-0.1115647263699061,0.8588497068005483,0.5431145267660513,0.0057204390155162,0.9183382789843232,0.9670413658118824,-0.0539451493324889,-0.248143287085311,0.0185964175765486,3.020999999999958,3.0,0.5341494576356561,-0.2813121290316449,0.7713889051361951,0.5562670317698937,-0.1137746881629155,0.0643140713891149,0.9374998494268186,-0.1497519644167426,-0.31084501783352,0.0452079237092104,3.020999999999958,4.0,0.3519843108642281,-0.3451958049742974,0.8474278147037546,0.0723012925059775,-0.3190972561871745,0.1758359422613441,0.9161182067914954,-0.1493086001642814,-0.2436424800191785,0.2811987109362736,3.076000000000022,5.0,-0.4706810705676466,0.4608212691835568,0.7253716893271683,0.4503104322568153,-0.0752593021583108,-0.2741313519449955,0.656235555299506,0.0063823936458612,0.3612869308706475,0.6624091745999344,3.076000000000022,6.0,0.0401763896644172,0.0102109910764462,0.978159288344577,0.216912579307316,6.490822494394491,-0.0124314555101816,0.8788066426429078,-0.029717736890828,0.2064086756595014,0.429198321959999,3.076000000000022,7.0,-0.1156994016397439,-0.1198599617566265,0.9658971156535798,-0.6808853339557218,-0.2208554635693601,-0.9644496471103664,0.895399408932361,-0.0109431166095973,0.0913883685707369,-0.4356470047784406,3.076000000000022,8.0,0.1317279685212849,-0.1177143820040856,0.9632455899606558,-0.5027209144271263,-1.8420268921545824,0.3794667616975902,0.9236730686268638,-0.030864875000873,-0.2368379357804185,0.2996384720957633
46,46,3.080999999999904,0.0,0.8601068322821142,-0.2642346577019286,0.3851094425364972,0.3997909195872803,0.3109137619719451,0.3565308637458486,0.8236154380490246,-0.15144569312807,-0.5448216965940202,0.0434871378764474,3.080999999999904,1.0,0.3856491029092245,-0.2514537705213501,0.864925875850588,0.2936647336401811,-0.0260599190009152,0.537089347272243,0.964353065421702,-0.1210160166759529,-0.2188429544514868,0.0865219637236506,3.080999999999904,2.0,0.4542153109465722,-0.10958265708311,0.8609030680444312,0.3599751115291945,-0.0735401555786385,0.5329469964656207,0.9662340573205724,-0.0429727688534533,-0.2492848976239948,0.0490115030119148,3.080999999999904,3.0,0.5370772250490339,-0.255878357854963,0.778975173105714,0.6338036632495404,-0.0800531620666123,0.2020597924776725,0.940836133610878,-0.1203580666385351,-0.3101238537080485,0.0645329439002822,3.08199999999988,4.0,0.3668716091366556,-0.3415844484661304,0.8428097572854567,0.5184483682776982,-0.5314331750841451,0.8929262645488377,0.9003353352884976,-0.1260100092115259,-0.2536490030205173,0.3304238866609937,3.1059999999999945,5.0,-0.4893904629119067,0.457938213630679,0.7146177770721998,-0.1894220325226106,-1.229600888316699,-1.789166049213745,0.7383435120563061,0.0059992440391851,0.3110451531841431,0.5983843079125412,3.1059999999999945,6.0,-0.282550706609824,0.0081625193140421,0.937600379411579,-0.5478392454955919,3.20218747607103,-4.851188749030238,0.925519036124018,-0.173170437924628,0.2880375414175698,0.1745304785279149,3.1059999999999945,7.0,-0.1092399148348622,-0.1693480705699014,0.959556601770382,-0.616434224481306,0.0558159769225658,-0.9303091985245464,0.8736313374183806,-0.04503872436798,0.1048149848883887,-0.4730260231009743,3.1059999999999945,8.0,0.2116856116624366,-0.1225694041048872,0.948507745351862,0.0935075452139119,-1.1859706414134052,0.8877306626118717,0.897573185169737,-0.0190216535137308,-0.276595024482045,0.3427765254413337
47,47,3.184999999999945,0.0,0.8483844746701366,-0.2677381011514602,0.4085255100119048,0.3254565320382347,0.3549081494872497,0.1438474518882791,0.8370033478422584,-0.1411231039731496,-0.5258003785232874,0.0551690780292971,3.184999999999945,1.0,0.3802340703385893,-0.2457165448113596,0.8693712851018924,0.1965645277922329,0.0727548368685264,0.0981139421188962,0.9661613181798332,-0.1118904143390305,-0.2130530995391032,0.0928505207784448,3.184999999999945,2.0,0.4543718872514501,-0.1031817401135365,0.8608418650267297,0.1729678011463358,0.0037083413675513,0.0176063323919076,0.9667630034516153,-0.0347556071931906,-0.2479005707732819,0.0520254739154371,3.184999999999945,3.0,0.5343396789579928,-0.2439299499205131,0.7826821110916267,0.2485577919863514,0.0246962792894782,-0.0437900842842457,0.943360018698182,-0.1071596386033332,-0.3069528256029183,0.0660957625763795,3.184999999999945,4.0,0.3715769641041637,-0.3345239917960562,0.8427118479408993,0.1394754042726707,-0.0245733610804106,0.1927662788314658,0.8983779570488561,-0.1191733090496546,-0.2504145915993516,0.3405984454060368,3.1829999999999927,5.0,-0.522919929019851,0.4528635042867844,0.6924813313866068,-0.2124848695949838,-1.0080810240264273,-0.7997532065738208,0.775917498550687,0.0162562344825177,0.2735564616182782,0.5682029853759849,3.1829999999999927,6.0,-0.2461254299026607,-0.0324542751397411,0.9467914198916172,-0.4094794857941641,1.0552452462588489,-1.054815872377663,0.9215350148206904,-0.2037330720534733,0.3064702378835259,0.1238630094204838,3.1829999999999927,7.0,-0.0888674378165067,-0.1650823273311867,0.9621576813074084,0.3347867778212248,-0.2775361706372344,0.018051075220242,0.8762404062575824,-0.0375840362047989,0.0823184248574653,-0.4733010327403578,3.1829999999999927,8.0,0.2685835451557694,-0.1625493865011892,0.9285271004228396,-0.5514406274211049,-0.8659822024175222,1.6572310056676849,0.8579581145822205,-0.0517603515311908,-0.3074044931033859,0.4083273408084977
48,48,3.214999999999918,0.0,0.8336677027552716,-0.2764298863684363,0.4329973202054274,0.0954294955276024,0.2834535599695102,-0.2340097198676697,0.8467815817891247,-0.1309912067008107,-0.5135275862583404,0.0457348298505212,3.214999999999918,1.0,0.3744548469981644,-0.2410488449365804,0.8725038807445626,0.3081612311628703,0.070510255838901,0.0256439548370812,0.9685638943620896,-0.0970870401929428,-0.2075220879330543,0.0969157994582033,3.2159999999998945,2.0,0.4514618182969716,-0.0897938137476283,0.8647527378578508,0.2445804203807099,0.1485919374133943,-0.0143729086361506,0.969178185544034,-0.0230684683329728,-0.2392337316344339,0.0541175764665044,3.2159999999998945,3.0,0.5301712866995629,-0.2216517243405364,0.793040932018138,0.1601021346744405,0.0922747167537098,-0.6536909476858013,0.9479923319993188,-0.0889929437562791,-0.3033421044140699,0.0370723902888478,3.2159999999998945,4.0,0.3744214067876184,-0.3279149546895028,0.8431911957736288,0.2048548602301251,-0.249282597578986,-0.2486948460959443,0.9012043149607992,-0.1000115558725206,-0.2589430602799021,0.332831733644605,3.242999999999938,5.0,-0.4688337421968299,0.5153935649141027,0.6886504159752241,-0.3441474349939168,0.6548711416096953,2.644614626446036,0.6881161271059497,0.0264834770828563,0.2926418248517479,0.66344222311046,3.242999999999938,6.0,-0.3172205152102337,-0.0727576962044504,0.9244503569001284,0.1957454068720306,-0.7457473449439505,1.3320063157102833,0.9313892091757088,-0.1555402546273616,0.2682257251746417,0.1907257994505218,3.2439999999999145,7.0,-0.0721022877814488,-0.1440652595022631,0.9670783117727472,0.3499531831662144,-0.0553010648143271,-0.478351891075167,0.8655830354424198,-0.0266690999282977,0.0695333123113805,-0.4951968157634997,3.2439999999999145,8.0,0.3954927892343954,-0.3122285920551133,0.8405942897539095,-2.5091608513856865,-4.009376846687017,1.1071680406477604,0.7623727230067826,-0.0834512513095413,-0.4997968745874761,0.4025255321376344
49,49,3.27599999999984,0.0,0.8295639585429798,-0.2638379348662119,0.4491404934004876,0.0809041919393347,0.1940132465651774,-0.3452684581107625,0.8536185844632276,-0.1190227455594457,-0.506105572414934,0.0320319819717575,3.27599999999984,1.0,0.3731793402761224,-0.220754636195724,0.8791760748502953,0.1173326848892942,0.108044953975953,-0.3100194621728048,0.9716898821064658,-0.0885345991341998,-0.2028964525653304,0.0825434873534785,3.27599999999984,2.0,0.4436185760984589,-0.0742309644265867,0.8710994907934883,0.1086142508275824,0.0749714298644151,-0.433506842726947,0.9712806173455972,-0.0130744723031461,-0.2350781409333726,0.0343698734076693,3.2769999999998163,3.0,0.5263993072553144,-0.1962782386064534,0.8028876773065292,0.333700902932,0.2928617411829854,-0.3947903218717028,0.9548773857570528,-0.0679983918472827,-0.2882435099395928,0.022384723667362,3.2769999999998163,4.0,0.3858765966529455,-0.3023380158512168,0.8481509160088725,0.289632607451285,0.2480766526866858,-0.3423284434577788,0.9120432892013092,-0.0844851291602961,-0.2429347739579267,0.3194088245112153,3.319,5.0,-1.1274886358322962,0.8044981060401375,0.2085022144891021,14.64898660442526,17.144234055648255,21.166508176727543,-0.2009018081153273,-0.3280893585490216,0.7166514155586483,-0.5817272426839485,3.319,6.0,-0.5967099234302597,0.0528113068029025,0.9138628087156316,-4.054019565648712,-6.0836125128892125,12.380431421447502,0.7455358562595938,-0.0829918404552583,0.0238423684422218,0.6608480785446748,3.319,7.0,0.5515208795844821,-0.1990869002612287,1.100853362408788,12.73289321964421,-3.8333264953436457,5.17518045700248,0.7860845098071453,0.408669363230348,-0.4630574948131595,0.0252636397916608,3.319,8.0,0.776164768957771,-1.2221551737159622,1.3731245328767658,-8.14535221703866,-7.178652996915123,-2.206594589704455,0.5556607080507294,-0.1267647645849586,-0.82107382472123,0.0317749326660637
50,50,3.3799999999998818,0.0,0.830843900954202,-0.2443595781317573,0.4575639942373893,0.0666534714277461,0.0483046262506797,-0.3282369648133732,0.8559393081348909,-0.1084961607469671,-0.5051767039610268,0.0198237652277733,3.3799999999998818,1.0,0.3721087935441514,-0.2167058529514004,0.8807449228146151,-0.1703337975900681,0.1271916620155915,-0.3056412607193648,0.9731988585819744,-0.0950016851458009,-0.198916776925815,0.0655040253087262,3.3799999999998818,2.0,0.4477904947641707,-0.0634086893003192,0.86988563094241,-0.0778305155166929,-0.0604943985298006,-0.4289762751828163,0.9709765374763096,-0.0128271506066146,-0.2384813135706774,0.0129108851530827,3.3799999999998818,3.0,0.5142834819573776,-0.181463360849112,0.8147082599649649,0.156383297373224,0.3511312058066863,-0.060894000324884,0.9605613637381518,-0.0620304591812149,-0.2702290436018532,0.0212215131717192,3.3799999999998818,4.0,0.3768086771363104,-0.2876585999729326,0.8581152315956151,0.1621873704334324,0.2418438438612371,-0.1569804901431754,0.918324091831978,-0.078302414778419,-0.2292671845922516,0.3130273985931322,3.394999999999982,5.0,-0.446080996787191,0.49530331952154,0.7182425537214356,1.173053411544952,-0.2151650104373351,0.4409374767035047,-0.1688600161533008,-0.3213410551851439,0.6764452268020802,-0.6408182865164566,3.394999999999982,6.0,-0.2123139653323774,-0.0249683308556696,0.9565251499982234,-0.2112504014335284,-1.4089321944050537,0.2598075211463149,0.7372175056697011,-0.0438599194692913,-0.0296855798486616,0.6735765904092422,3.394999999999982,7.0,-0.1563368587343386,-0.1231943002462338,0.9582499418147232,0.0420226422963737,2.955161207422352,0.2560579041338505,0.8747471569135002,0.367918151656059,-0.3005205980884886,0.0956086569211926,3.394999999999982,8.0,0.5574659943979885,-0.3738092393773465,0.714318778729771,-1.8645464103272733,-2.511900044588498,-2.1617124745675627,0.4807526626556806,-0.0829475957437532,-0.8695706348068196,-0.0764426895881402
51,51,3.41599999999994,0.0,0.833142680823039,-0.2430823107315099,0.4533114421679968,-0.0582531134249818,-0.0106097011640396,0.2030385939558482,0.8550318515563562,-0.1179513759163968,-0.5041940766868066,0.0282194751453085,3.41599999999994,1.0,0.3714773438735103,-0.2160366438017063,0.881136624777098,0.1074981145920378,0.0114328579069375,-0.0160029031410769,0.9737590166616128,-0.0901081709912667,-0.1983543957283148,0.0657983942514745,3.41599999999994,2.0,0.4471480367644102,-0.0662131953899711,0.8690359290466555,0.0748450217373297,0.1944419986843293,0.1460586398161967,0.973212294287692,-0.0128317438554189,-0.2285682824105857,0.0212065290132648,3.4169999999999163,3.0,0.4901375019921437,-0.1798821925308709,0.8290076151346188,-0.3493777699679842,0.2932230115153612,-0.3041470443672356,0.963340086728781,-0.0776064831029008,-0.2568075564546682,0.0017291701957987,3.4169999999999163,4.0,0.3489018248693779,-0.2654183976052576,0.8756246860473244,-0.2983254749612364,1.0640389168934166,-1.7054706332698142,0.9522644548281428,-0.0887107778722206,-0.1887028609656179,0.2229664464074268,3.413999999999988,5.0,-0.3611311678357505,0.4454808857662647,0.7945200186493044,-0.9145432399709654,-1.8250176725383047,-1.363099242175537,-0.1733839436907266,-0.4091279305341604,0.6732310415850365,-0.5910264877088105,3.413000000000011,6.0,-0.1485950722993029,-0.0055338023000481,0.9688621581631048,0.4264633498159422,-1.2762407163065763,-0.4475541192300171,0.7510629968919644,0.0148862115179204,-0.0545384489996208,0.6578056954656294,3.413999999999988,7.0,-0.3588920487983521,-0.1623112902309628,0.8972806374668302,-1.5338369870198527,2.899786217705193,0.7405699556205886,0.950504357432956,0.2327942183453489,-0.1397334959342694,0.1510723949632388,3.413999999999988,8.0,0.7103233542059535,-0.2591455381481786,0.62383196658034,0.6463527941882694,-1.5067470597641368,-0.8327176824231134,0.4562735251837063,-0.0432696727610148,-0.8870931579355033,-0.0548446422142114
52,52,3.5219999999999345,0.0,0.8319223392004981,-0.250842323571006,0.4514967887423673,-0.2799585816959813,0.1076654201084954,-0.0944960714345194,0.8560072161499291,-0.1288250972857711,-0.5003609996853178,0.0171642128415359,3.5219999999999345,1.0,0.3643185304383153,-0.2157369121546661,0.8844018278549838,-0.2502932240765383,0.2990510079929814,-0.1542552248339757,0.9757808539680494,-0.1026755075589977,-0.1852790211073546,0.0545999039778185,3.5219999999999345,2.0,0.4344624471327945,-0.059277208123143,0.8757417396861413,0.0148025070685275,0.3227824831933187,-0.1534708391690864,0.976910936428792,-0.0119594387746327,-0.2128528835152059,0.0139872831271153,3.522999999999911,3.0,0.481874003379259,-0.1945996883480016,0.8293391382071068,-0.236998472750543,0.1273239967718271,0.0455839747602056,0.9637454018312996,-0.0919861729930896,-0.2504641882578269,0.0010172646952764,3.522999999999911,4.0,0.3364202783380789,-0.2595676180171156,0.8815390223920041,0.0450600657106708,-0.0530723815631039,0.477460696673787,0.946126103535342,-0.0908326784704125,-0.1898836646244291,0.2460467732763826,3.466999999999871,5.0,-0.3750571681314906,0.3923213770120248,0.8153318697147658,-0.6386128018223645,1.3642557722293145,1.789546846077449,-0.189525200234441,-0.2948561129249095,0.6910591006042462,-0.632121341689203,3.466999999999871,6.0,-0.0216390144448208,0.0850413909429962,0.9760935994464554,0.3840176294544474,-2.9523048659976494,2.6259420110800944,0.6565764384622009,0.1178125935541773,-0.1457432905896678,0.7306069165457069,3.466999999999871,7.0,-0.5045049488322257,-0.2022638761709552,0.8153619325183717,-0.7893645585059939,0.7914373474720735,0.6473610779521866,0.96796756070575,0.1540063307894869,-0.0797275013327715,0.181560945771254,3.466999999999871,8.0,0.7326949207991216,-0.1996739349984734,0.6192886828591286,1.595406692704087,1.4976638651567038,-1.2919395415575776,0.5668715614077182,0.0590103162852215,-0.8216339453635954,-0.0095955857218854
53,53,3.558999999999969,0.0,0.8338280556264156,-0.2517309913866263,0.4468515207826616,-0.2971757750559705,-0.0984539802991082,-0.1675175352131215,0.8513372107133521,-0.138070010547099,-0.506110835588521,0.0036671436053652,3.559999999999945,1.0,0.357021756236517,-0.2269478494370615,0.8841335528129708,-0.5226661264479182,0.2690652944354829,-0.603598414699468,0.976051863055282,-0.1237667285372961,-0.1779073491256406,0.0188024642155257,3.559999999999945,2.0,0.4291273044967699,-0.0685056317732053,0.8772820156316271,-0.8390648429637763,0.0380424576061895,-1.0509914380186134,0.974649859056153,-0.0436619565209318,-0.2145786090245867,-0.0459054064752624,3.559999999999945,3.0,0.4777688162475672,-0.1909549456196818,0.8345221189188354,0.2731846089963085,-0.0044816779573354,0.3118625893808003,0.9645333296455038,-0.0835413741461727,-0.2496181939352014,0.0196736388412352,3.559999999999945,4.0,0.3346525221107597,-0.2669019783384938,0.88049873560608,0.1017200157272203,-0.1409218479666924,0.3307927025232668,0.940774483035949,-0.0875048224148067,-0.195270748054817,0.2629745483439567,3.54099999999994,5.0,-0.3836002025344529,0.4115560889927428,0.8027206676226323,-0.8152760884371539,0.471684647857905,2.082555962093551,-0.1597259555292185,-0.1911787991711331,0.7154308143017396,-0.6527610863289198,3.54099999999994,6.0,0.1550052823477467,0.0863751901569925,0.9642186935387836,-0.2896703199582062,-2.185939571962904,0.5175221836835243,0.6260718519251048,0.1819142531227079,-0.2175067094515144,0.7263828687967879,3.54099999999994,7.0,-0.5295058662607691,-0.1620009838367693,0.8090489594773305,0.1582492286407247,-1.4754616720746832,1.9883041981654,0.9451523319376874,0.1426786765518506,-0.1322815254674035,0.2623575093458937,3.5419999999999163,8.0,0.5407738730462583,-0.1018347123960581,0.8107979462121012,1.2560806647539935,5.292201462131097,0.4536004329854539,0.8166898974501909,0.0873634531993771,-0.5652398466699873,0.0767408247568785
54,54,3.649999999999864,0.0,0.8363141424692628,-0.2545988247299776,0.4398091558301343,-0.3545618878789739,0.0385258326468623,-0.0740399779127184,0.8497141672619594,-0.1521540278593674,-0.5047461951977315,-0.0081402821756602,3.649999999999864,1.0,0.3564446984085838,-0.2350789442718677,0.8817772206949088,-0.1312560579217903,0.0219996810244079,-0.2157610149577675,0.9754063884658056,-0.127870379748659,-0.1794043560510588,0.0067542840429395,3.649999999999864,2.0,0.4225003323531851,-0.087541040078342,0.8792150109406972,-0.194825567813473,0.2133660163964719,0.0208803475261642,0.9763156977361304,-0.054108003613577,-0.2040937833387907,-0.0471774300002107,3.649999999999864,3.0,0.4771762927187785,-0.2004037509421897,0.8316291975847552,-0.3739625463391888,0.0286878905059525,-0.1430162980685414,0.9629133197491022,-0.1014331588193946,-0.2498791425166713,0.0083466805866515,3.649999999999864,4.0,0.3371514299086225,-0.2643227830000419,0.8801774705692507,-0.2376627973933991,0.2151593617747411,-0.5265464260373841,0.9481435601688908,-0.0962880680066367,-0.191863816281477,0.2343942688542486,3.614,5.0,-0.3307686734150167,0.4050527887290467,0.8265541863847115,-0.973001888581214,-0.3102592852236748,1.7181730818168703,-0.1056845656013007,-0.1232543268430286,0.7379808742901136,-0.6549987577775516,3.614,6.0,0.2107722561911029,0.0676450364489764,0.9526763380413774,-0.3806051165713305,-1.7498889371657678,0.6879556512078693,0.5902414173807374,0.2193038095708529,-0.2746901173180557,0.7266816687958229,3.615,7.0,-0.4392690108349953,-0.1002028145700175,0.8613490187329939,0.9030092059036184,-2.456821909386674,1.7298818905165485,0.9014711074723764,0.182030153132631,-0.2174004918967443,0.3270350009801576,3.615,8.0,0.3372197594244532,-0.0313512216025849,0.8904631855151226,1.806896406552356,5.344357571129832,0.4010827849716868,0.94519909179994,0.1317845422260991,-0.2537097319095778,0.1576796855184469
55,55,3.689999999999827,0.0,0.8357153225574339,-0.2630757959053116,0.4362339111663731,-0.4073310097792269,0.0250674784928474,-0.0612149960575418,0.8470810403462457,-0.1685854775788523,-0.5035916297987899,-0.0206910181487282,3.689999999999827,1.0,0.3586819681771813,-0.2418213282880471,0.8790322467859459,-0.2221789320022267,-0.0280365687768839,-0.0932723192933309,0.9735472740504773,-0.1376149075635436,-0.1823945998548616,0.0002287989240576,3.689999999999827,2.0,0.4190666019775078,-0.0927593239731384,0.8802044597268702,-0.1687914143093106,-0.1026069377611399,-0.0470219074094549,0.9743438514771956,-0.0625863662943227,-0.2101191230102914,-0.0508621665685139,3.690999999999804,3.0,0.4758134090655287,-0.2254581809176947,0.8255944575944802,-0.5278629702003749,0.0251553954571419,-0.1069552895318988,0.9599057396265214,-0.1269336913546113,-0.2499172901691741,-0.0031870214386213,3.690999999999804,4.0,0.3235802044631733,-0.2764934364774764,0.8823447347065925,-0.2569354039642741,0.2952140081966768,0.0526228510515534,0.9487931829512044,-0.112784827851006,-0.1812764947075398,0.2328302193841862,3.6879999999998745,5.0,-0.2779371442955806,0.3985494884653507,0.8503877051467906,-1.130727688725274,-1.0922032183052546,1.3537902015401897,-0.0277799005454738,-0.0958886695765809,0.7606938385284804,-0.6413879669882518,3.686999999999898,6.0,0.2665392300344593,0.0489148827409603,0.9411339825439712,-0.4715399131844549,-1.3138383023686315,0.8583891187322144,0.5527213081335609,0.2330368591056236,-0.3197425589586684,0.733455979472438,3.688999999999851,7.0,-0.3490321554092215,-0.0384046453032658,0.9136490779886572,1.6477691831665122,-3.438182146698665,1.4714595828676968,0.8289880143575167,0.2680130717106744,-0.3216154045035816,0.3708252917881791,3.688999999999851,8.0,0.1336656458026482,0.0391322691908883,0.970128424818144,2.357712148350718,5.396513680128566,0.3485651369579198,0.9576356336858712,0.1845338114856976,0.0485254758829853,0.2157001244875647
56,56,3.7409999999999854,0.0,0.8360899365054543,-0.2713659973925091,0.4306542854001037,-0.326469903589664,-0.0224255674285362,0.0362374546308028,0.8438372193061199,-0.183764536171233,-0.5034382997580694,-0.0268182940581855,3.7409999999999854,1.0,0.3622365291297686,-0.2587024345881151,0.8727558348714721,-0.555782644595161,0.0449482674137452,-0.4465261647517242,0.9693213837370842,-0.160224365465681,-0.1844296307486566,-0.0270170139552499,3.7409999999999854,2.0,0.4287155261460939,-0.1071115186807331,0.8743809925925798,-0.5752209239403346,-0.1800398629383656,-0.4959725234290263,0.968254916110993,-0.0861457295601856,-0.2204771972126512,-0.0803189654732369,3.7409999999999854,3.0,0.4764916032249567,-0.2440579627916285,0.8191455687813434,-0.3470271319546973,-0.0265225743536466,-0.0363195167711696,0.957064720622156,-0.1434579487886347,-0.2517243325088859,-0.0090442187472589,3.7409999999999854,4.0,0.3193631986984313,-0.2949808322862785,0.8785456481599582,-0.3076337236616849,-0.0112224127139326,0.1181907023805581,0.94524566012997,-0.1280458333512926,-0.1863918632010799,0.2353146402144583,3.6920000000000073,5.0,-0.1882394713637737,0.3333537417943369,0.9009529312080634,-1.3401176174181495,-1.4819173703383854,-0.4680841253369779,0.0108451105616986,-0.1530493383440827,0.775201213823818,-0.6127979778813099,3.6920000000000073,6.0,0.3453202775705943,0.0055988470282414,0.9163293942739814,-0.4194557445282992,-0.9963107155975326,0.5395950319847638,0.5290426008245118,0.241511295228789,-0.3489023948645705,0.7348832149719547,3.6920000000000073,7.0,-0.2024433639745445,0.0698231978030932,0.9566892940925074,0.7213135097815544,-1.8019685379889228,-2.8442476453853938,0.8547466135655568,0.3549260831106055,-0.2976064711677387,0.2342351178731788,3.6920000000000073,8.0,-0.3808499711800985,0.1475582223831502,0.8906143219481948,-1.118817281158388,6.207873696034387,-3.907022886749151,0.9362229026112918,0.0358346921127704,0.3463438703859405,0.0474180863527577
57,57,3.800999999999931,0.0,0.8332973411112345,-0.2877897510954758,0.4272687684132211,-0.2069364958667833,0.0971519249911378,0.2046107838384527,0.8449381768376674,-0.1978582612611056,-0.4963449923261789,-0.0239423132904115,3.8019999999999072,1.0,0.3651178559497672,-0.2850698181954568,0.8637303688192596,-0.4249828199270599,-0.0358869824565489,0.1363633855583428,0.965591769397212,-0.1815470469718351,-0.1846333152577205,-0.0241607844473321,3.8019999999999072,2.0,0.4489081390781783,-0.1238109998948782,0.862448444241392,-0.1751371152763992,-0.3168207456397132,0.1015849096017725,0.9640554725890752,-0.0968252648598801,-0.23546209857982,-0.0760231148286903,3.8019999999999072,3.0,0.4793094965568013,-0.2601652585664676,0.8137963164978748,-0.3865449722908612,-0.0853317868577489,-0.1016608557313731,0.9529315739671652,-0.1604033094742794,-0.2566305857509976,-0.0182465367470048,3.8019999999999072,4.0,0.3197549758475285,-0.3140305785773932,0.8718408978357772,-0.3325686372704499,0.0392720369848901,-0.12346478916494,0.9446795011325614,-0.142256294629514,-0.1908902682734995,0.2256206822449735,3.8099999999999454,5.0,-0.1312041873067907,0.2723242544252467,0.9321839741622348,-0.8256848525924375,-0.3595905150012191,0.5130348974922546,0.0380652967244742,-0.1371607769963404,0.7788382301547473,-0.6108592028352023,3.8099999999999454,6.0,0.4354727444015879,-0.0159455502129116,0.8776076733437084,-0.4751716052754456,-1.854632043467682,-0.2215987418708651,0.5184015405768192,0.2955315152812197,-0.3923748072148798,0.6999735544049164,3.8099999999999454,7.0,-0.2329167080156823,-0.0685761878476982,0.9486902094927588,-1.1868080615832233,0.2622787207529546,-2.6799368225746645,0.921215854190534,0.3014985551378611,-0.2236708795892846,0.1021337792385184,3.8099999999999454,8.0,-0.3825891534112566,0.1690901045562851,0.8865704011713917,0.6444206537136521,0.529946601371138,1.5239240710848423,0.9250861555880148,0.0944411944167258,0.3509055583567914,0.1102803457141743
58,58,3.875,0.0,0.8341288715948393,-0.3018457396860842,0.4173825283900615,-0.4692921380196547,-0.455689563621917,0.0137534124109213,0.8286884527684354,-0.2180597231432624,-0.5145792746084414,-0.0305544683211884,3.875,1.0,0.3689396758032061,-0.3036896594804302,0.8557494413336683,-0.2564271672694795,-0.2193713798869146,0.0420598958511242,0.9613756288993682,-0.1929297987903913,-0.1949628976096658,-0.0229011233935448,3.875,2.0,0.4597551714927471,-0.1405589927646134,0.8542115381090752,-0.2757804903662132,-0.1029935787594148,-0.078851245188843,0.9611187399061628,-0.1091661343628076,-0.2398001546378076,-0.082640236841108,3.875999999999976,3.0,0.4953526723907576,-0.284781698382618,0.7965438558055963,-0.4992752804807259,-0.4519867880678303,-0.1682931335404439,0.9423391404693908,-0.1818609646533465,-0.2794151566403168,-0.0291668324373938,3.875999999999976,4.0,0.3231000886620401,-0.339377959689742,0.8593380785135787,-0.5528469222370468,-0.2825541648088465,0.105399319737685,0.9363931550849516,-0.1652089537258781,-0.2110000396861347,0.2266116589482983,3.8859999999999673,5.0,-0.1323304858812967,0.2678482486871689,0.9330187341000376,0.0143832033594555,0.0892016839279926,-0.2704573212132398,0.0326035831612362,-0.1375122738896523,0.7514434882947707,-0.6444843402241303,3.884999999999991,6.0,0.5566557254840976,-0.0656769084443568,0.8038345271154783,-0.6306568020815969,-1.837291820094871,0.2130008407265928,0.4923134278762734,0.3326672425330271,-0.4468939653437724,0.6687643667372719,3.8859999999999673,7.0,-0.1989518146804908,-0.0452419796632484,0.9588833811843284,0.3253879555839769,-0.8309505868108968,2.154187907434607,0.9072667089460704,0.2688651305795412,-0.2616681328432612,0.1900222319912442,3.8859999999999673,8.0,-0.313824357943092,0.1723718813198057,0.9115630570025736,0.8494426862162473,0.1407378656179009,0.6047107485638086,0.9210732349690484,0.1409242744087186,0.3406905588055153,0.1252772439304685
59,59,3.981999999999971,0.0,0.8461928817252812,-0.3099983232348922,0.3840659403136647,-0.2891006500093026,0.0285613747418743,-0.0343823738271861,0.8266230241303926,-0.228314154438594,-0.5127979395117576,-0.0400661464706825,3.981999999999971,1.0,0.3762277873726494,-0.3172387950418113,0.8472462445647666,-0.1961014985899115,-0.0225274598170218,0.0146564352819208,0.9596576060549734,-0.200529278280104,-0.1955904874656159,-0.0242826873772396,3.981999999999971,2.0,0.4666526120404288,-0.1445256418121219,0.8491429081931023,-0.1851710083682005,0.019325553557273,-0.1265126448420309,0.9598815986165006,-0.1153205658173634,-0.2387269726016806,-0.0913121913515993,3.981999999999971,3.0,0.5205100542028628,-0.2832339055690299,0.7804593763994683,-0.247921948735506,-0.2889855937343691,-0.6459234161677726,0.9349799754942006,-0.182811788289873,-0.2978075841800166,-0.060851773121126,3.9829999999999472,4.0,0.3578718292728969,-0.3662730913570794,0.8360662511790553,-0.4524069505094655,-0.398261182740879,-0.5985754742376804,0.9344848346009642,-0.1734432316859772,-0.2415258004268028,0.1957570612042524,3.9249999999999545,5.0,-0.2024868401891866,0.3351849406759369,0.8975383752766604,2.994338186708919,2.5221727878960047,-0.008404247338987,-0.0342933935028163,-0.0547855616166259,0.6275296805334328,-0.7759052812360666,3.9249999999999545,6.0,0.6315081416755065,-0.0428864078737674,0.7473835849262634,0.5045063652521218,-1.7251839758772434,-0.4191546243380022,0.4710779901853192,0.4052569346083057,-0.4435536100177472,0.6458425033667758,3.925999999999931,7.0,-0.1904047330366266,-0.0562289550507903,0.9583998863997988,-0.9080769722778288,0.200250091323541,-0.0503505256320817,0.9356529408843072,0.1986568636496606,-0.2303946017145503,0.1789059871558831,3.925999999999931,8.0,-0.2328194731014196,0.1456612111793671,0.9409866654222772,-0.5573568017363714,-1.8412308510069864,0.302713976355836,0.9573073454990562,0.1219419995965389,0.2249566169328982,0.1344890905837858
60,60,4.01299999999992,0.0,0.8484011691423291,-0.3091418518991827,0.3822247658149232,-0.0564231654694264,-0.0726004888352925,-0.1093133958303173,0.8244657085489826,-0.2268837242639172,-0.5164155896334091,-0.0457712778337803,4.01299999999992,1.0,0.3725147512046262,-0.3162195617258386,0.8497311038892683,0.0567670480740868,0.1273732873963493,-0.0481247873082195,0.9620247675746209,-0.1943995201693567,-0.1895889326657368,-0.0278066492333651,4.01299999999992,2.0,0.4553707349868962,-0.1477823465370427,0.8554764004749048,0.0093783603112257,0.3330715046439201,-0.0294810909267048,0.9639733203910268,-0.1115365559169041,-0.2221016836708955,-0.0947938625600174,4.01299999999992,3.0,0.5331652786800872,-0.310606959277634,0.7614972767241438,-0.5466882722719243,-0.1792869593570721,0.2521315200393391,0.928397932779762,-0.2126650577998956,-0.2996993942152839,-0.0550556510108008,4.01299999999992,4.0,0.3674253535250872,-0.3676089589237604,0.8311728237291893,0.3462404114237468,-0.2421291445081456,0.7194221774589611,0.927413950283598,-0.161398767129756,-0.2422252606683851,0.2349057808622413,4.005999999999858,5.0,-0.3475239636489698,0.5147044998007348,0.7575885245795272,2.167986753880052,1.181514541473446,-0.7095887735023558,-0.08577807016511,-0.0289191923205617,0.5067330369520421,-0.8573374086412164,4.004999999999882,6.0,0.6803176151885806,0.0247937993144455,0.70495688519205,-0.0994647924116884,0.5273298913617792,-0.5805434886976372,0.5165727799423563,0.3902358500504524,-0.4017434864597285,0.6476655892088204,4.005999999999858,7.0,-0.2026804142271835,-0.1135769067592639,0.9525245067396926,-0.2891164815361394,0.2710429064123304,-1.3275914772334267,0.9614161028615398,0.1729985584801043,-0.1794243473616998,0.1164365900229085,4.005999999999858,8.0,-0.1071821777650932,0.0711976935211519,0.971193528194458,-1.193003009524647,-1.4255777703634935,-0.4850469118702583,0.9831448317096152,0.0574688882073566,0.1308069352059851,0.1140750300148977
