Timestamp,Ax,Ay,Az,Rx,Ry,Rz,EMG
0,0.0667,-1.0012,-0.2341,0.0751,-0.0012,0.027,2031
0,0.074,-1.0027,-0.2361,0.0702,0.0091,0.0285,2034
0,0.0032,-0.9797,-0.22,0.1281,0.031,-0.0085,2038
0,-0.0034,-1.0002,-0.2332,0.0558,0.0197,0.0514,2033
0,0.0024,-1.0059,-0.2368,0.0599,0.1109,0.0599,2035
0,-0.0229,-0.9727,-0.2573,0.0451,0.1159,0.0771,2068
0,-0.0151,-0.9741,-0.2717,0.053,0.1382,0.0895,2076
0,-0.0415,-1.0151,-0.3015,-0.016,0.0883,0.0683,2032
0,-0.0554,-0.9805,-0.3601,0.0045,0.0736,0.0759,2030
0,-0.0791,-0.9871,-0.3621,-0.0128,0.0703,0.1009,2160
0,-0.0828,-0.9719,-0.3928,-0.0309,0.0935,0.1159,2022
0,-0.0776,-0.8259,-0.4553,0.0573,0.2357,0.2364,2037
0,-0.0439,-0.9817,-0.3882,0.0073,0.1776,0.1495,2048
0,-0.0894,-0.9604,-0.3357,0.0509,0.1493,0.1533,2021
0,-0.0811,-0.9663,-0.3584,0.0257,0.102,0.1288,2032
0,-0.1157,-0.9805,-0.3594,0.0587,0.0635,0.1236,2049
0,-0.1123,-0.9888,-0.3306,0.0465,0.069,0.1145,1988
0,-0.1169,-0.9905,-0.345,0.0318,0.0601,0.1057,2018
0,-0.105,-0.98,-0.3398,0.0382,0.0699,0.0963,1992
0,-0.0981,-0.9885,-0.3462,0.041,0.0684,0.0864,2064
0,-0.1211,-0.9878,-0.3315,0.0417,0.0489,0.0824,2087
0,-0.1287,-1.0007,-0.3486,0.0503,0.0281,0.0774,2017
0,-0.116,-1.0042,-0.3398,0.0839,0.0418,0.076,2023
0,-0.1033,-0.9878,-0.3296,0.0903,0.0976,0.0798,2071
0,-0.093,-0.9893,-0.3333,0.0634,0.0953,0.0727,2036
0,-0.0803,-0.9768,-0.3401,0.0823,0.1043,0.0723,1966
0,-0.074,-0.9805,-0.3284,0.0836,0.1186,0.0712,2049
0,-0.062,-0.9856,-0.3125,0.0927,0.1306,0.0687,2027
0,-0.0486,-0.9768,-0.3298,0.092,0.1418,0.0738,2009
0,-0.0449,-0.9795,-0.3318,0.1069,0.1766,0.0798,2053
0,-0.0447,-0.9812,-0.2856,0.0675,0.1655,0.0812,2027
0,-0.0447,-0.9849,-0.3025,0.0546,0.1503,0.0807,2010
0,-0.0623,-0.9973,-0.3103,0.0707,0.12,0.0832,2004
0,-0.0806,-1.0034,-0.3174,0.0563,0.1205,0.0935,2034
0,-0.0803,-1.0168,-0.3062,0.0326,0.1443,0.1025,2038
0,-0.0791,-0.9961,-0.3186,0.0361,0.1774,0.1085,1976
0,-0.0676,-0.9895,-0.3125,0.0429,0.2161,0.1033,2024
0,-0.074,-0.9919,-0.3323,0.0791,0.2204,0.1031,2057
0,-0.0845,-0.9778,-0.3181,0.121,0.2107,0.1057,2006
0,-0.094,-0.9841,-0.3237,0.133,0.1767,0.1008,2020
0,-0.0942,-0.9868,-0.3059,0.1346,0.1633,0.0947,2052
0,-0.1055,-0.9783,-0.3535,0.167,0.1888,0.0855,2047
0,-0.1021,-0.9746,-0.3467,0.1495,0.2334,0.0896,1907
0,-0.0945,-0.9912,-0.3066,0.0969,0.2055,0.0894,2002
0,-0.1233,-0.9919,-0.335,0.1008,0.1991,0.0808,2102
0,-0.1064,-0.9995,-0.3284,0.1124,0.1416,0.0971,2023
0,-0.0959,-0.99,-0.3228,0.1361,0.1798,0.0952,1982
0,-0.1018,-0.9792,-0.3325,0.1107,0.1613,0.084,2037
0,-0.0999,-0.9763,-0.3376,0.1144,0.1878,0.0675,2001
0,-0.103,-0.9814,-0.3157,0.1049,0.1944,0.0607,2080
0,-0.1331,-0.968,-0.3223,0.0687,0.1734,0.0414,2052
0,-0.1042,-0.9924,-0.3303,0.0672,0.1985,0.0119,2038
0,-0.1233,-0.9836,-0.3203,0.0684,0.2039,-0.01,2029
0,-0.1274,-1.0083,-0.3198,0.039,0.2149,-0.0482,1947
0,-0.1177,-0.9888,-0.332,0.0434,0.2495,-0.0414,2024
0,-0.1091,-0.9719,-0.3567,0.073,0.2566,-0.0631,2042
0,-0.1245,-0.9709,-0.3513,0.0843,0.2204,-0.0368,2100
0,-0.1135,-1.0032,-0.3279,0.1001,0.2261,-0.0684,2028
0,-0.1135,-0.9954,-0.3362,0.1077,0.2606,-0.0426,2032
0,-0.0935,-0.9658,-0.3499,0.112,0.2963,-0.0309,2033
0,-0.0605,-0.9919,-0.3147,0.1228,0.2827,-0.0449,2028
0,-0.0759,-0.9692,-0.3113,0.1264,0.2931,-0.0378,2003
0,-0.0918,-0.9749,-0.3479,0.1272,0.2627,-0.0382,2035
0,-0.1106,-0.9841,-0.345,0.084,0.2811,-0.0642,2001
0,-0.0874,-0.9929,-0.3152,0.0621,0.3196,-0.0373,2016
0,-0.0493,-0.9763,-0.3403,0.067,0.3276,-0.0059,2078
0,-0.0125,-0.9795,-0.3262,0.0463,0.3357,0.0097,2032
0,-0.0366,-0.9678,-0.3198,0.0691,0.3746,0.0067,2061
0,-0.0547,-0.9927,-0.3171,0.0567,0.3758,0.0085,2038
0,-0.0139,-1.0076,-0.2961,0.0575,0.3823,0.0157,2010
0,-0.0044,-0.9951,-0.3098,0.1184,0.3689,0.0486,2035
0,0.0042,-0.9709,-0.3113,0.1816,0.3698,0.0478,2029
0,0.0066,-0.979,-0.3389,0.2261,0.4315,0.1439,2043
0,0.0015,-0.9446,-0.3149,0.2067,0.4741,0.1294,2037
0,0.0452,-0.9568,-0.2949,0.2438,0.5502,0.1748,2040
0,0.0903,-0.9807,-0.2488,0.2169,0.5541,0.2065,2047
0,0.1221,-0.9775,-0.2263,0.1683,0.5947,0.23,2041
0,0.1189,-0.9778,-0.2361,0.1626,0.5813,0.2547,2048
0,0.0784,-0.9956,-0.2822,0.2316,0.5151,0.3244,2045
0,0.042,-1.0024,-0.2942,0.2976,0.4135,0.3642,2046
0,0.0393,-0.9773,-0.3105,0.4031,0.3452,0.3781,2048
0,0.0291,-1.0073,-0.3232,0.4761,0.2358,0.4481,2042
0,-0.0762,-1.0193,-0.3037,0.4683,0.2004,0.4655,2035
0,-0.1384,-1.0308,-0.2837,0.3958,0.2016,0.4633,2041
0,-0.1931,-1.0205,-0.2683,0.3706,0.2337,0.4533,2034
0,-0.2119,-1.043,-0.2424,0.365,0.2321,0.4277,2032
0,-0.2871,-1.0371,-0.2197,0.3394,0.2044,0.3277,2033
0,-0.3599,-1.0562,-0.2512,0.3349,0.1623,0.2663,2035
0,-0.3992,-1.0254,-0.2734,0.3352,0.1611,0.1712,2037
0,-0.4221,-1.022,-0.3088,0.4026,0.1767,0.0565,2035
0,-0.439,-1.001,-0.3716,0.4366,0.3036,-0.0292,2061
0,-0.4607,-0.9885,-0.2473,0.335,0.2562,-0.1465,1932
0,-0.5183,-0.9539,-0.3965,0.5406,0.2872,-0.2232,2032
0,-0.6655,-0.9482,-0.4463,0.8163,0.28,-0.2982,2258
0,-0.7129,-1.0569,-0.3308,0.7449,0.1843,-0.3293,1725
0,-0.8242,-1.062,-0.365,0.8135,0.1356,-0.3951,1744
0,-0.8416,-1.1531,-0.3225,0.742,0.0346,-0.5147,2276
0,-0.8503,-1.1558,-0.3164,0.7798,0.0403,-0.6638,2006
0,-0.854,-1.2749,-0.3472,0.7606,0.302,-0.8476,2030
0,-0.7961,-1.3518,-0.3262,0.7412,0.4205,-1.1235,2035
0,-0.7317,-1.2363,-0.1038,0.6978,0.5837,-1.2857,2032
0,-0.6035,-1.2573,0.1052,0.83,0.6885,-1.4031,2031
0,-0.3284,-1.333,0.1626,0.9353,0.467,-1.5619,2034
0,-0.2214,-1.2852,0.1787,0.9914,0.2722,-1.6859,2035
1,0.0139,-0.9551,0.2764,0.8139,0.0577,-1.68,2036
1,0.1572,-0.9421,0.2886,0.8822,-0.5633,-1.7447,2039
1,0.0322,-1.2183,0.3125,0.77,-1.236,-1.4392,2056
1,0.2104,-1.0664,0.2261,0.5542,-1.9162,-1.2734,2055
1,0.3557,-0.7068,0.0608,0.7056,-2.4894,-1.5842,2048
1,0.3862,-0.8657,-0.0784,1.0453,-2.9295,-1.3198,2034
1,-0.1724,-1.1824,-0.0305,1.0255,-2.6088,-1.1243,2040
1,-0.3589,-0.8687,-0.0808,0.2943,-1.4861,-1.1231,2042
1,-0.0884,-0.3796,-0.2043,-0.0073,-0.5781,-0.972,2037
1,-0.1462,-0.249,-0.1921,0.1001,0.2161,-0.4699,2034
1,-0.0645,-0.2788,-0.0659,0.4016,0.8514,0.0357,2048
1,0.1838,-0.2332,0.0588,0.809,1.0572,0.7311,2042
1,0.0762,-0.3276,0.1238,0.8151,1.415,1.4905,2042
1,-0.0115,-0.5061,0.1741,0.5356,1.723,1.9821,2041
1,-0.0347,-0.6733,0.1484,0.2978,1.9983,2.3394,2038
1,-0.0208,-0.8008,0.1113,0.1072,2.1888,2.586,2037
1,0.0579,-0.825,0.083,-0.0968,2.3109,2.7751,2040
1,0.1975,-0.7859,0.0759,-0.2274,2.338,2.9048,2038
1,0.3225,-0.8379,0.1038,-0.3939,2.2675,3.1167,2034
1,0.167,-0.8362,-0.0129,-0.4685,2.1767,3.1082,2039
1,0.1052,-0.8279,-0.0581,-0.5104,2.162,3.2222,2040
1,0.0696,-0.9648,-0.1355,-0.6514,2.2487,3.1973,2041
1,0.075,-0.9624,-0.1719,-0.6032,2.3,2.959,2043
1,0.105,-1.0125,-0.1646,-0.679,2.2751,2.9027,2044
1,0.2917,-0.8691,-0.2234,-0.5683,1.9226,2.8083,2043
1,0.4006,-0.8853,-0.2151,-0.1352,1.113,2.5603,2042
1,0.4043,-0.981,-0.2441,0.0245,0.836,2.1113,2041
1,0.1235,-1.1577,-0.2236,0.0609,0.2333,1.6078,2030
1,-0.1511,-0.9019,-0.3428,0.0137,-0.2646,0.918,2027
1,-0.4192,-0.8875,-0.4897,0.0924,-0.3798,0.282,2030
1,-0.5144,-0.9001,-0.5232,0.2041,-0.3799,-0.2775,2029
1,-0.4897,-1.3093,-0.4849,0.4565,-0.2,-0.7799,2039
1,-0.9233,-2.0,-0.2153,-0.1485,0.2936,-0.7592,2050
1,0.1306,0.3083,0.0847,-0.2995,0.8709,-0.5223,2073
1,-1.7659,-2.0,0.0554,1.5448,2.836,-0.679,2020
1,-2.0,-1.9875,-0.2454,-0.6281,2.2593,0.5448,2064
1,-1.4966,-1.2529,-0.72,-1.025,0.9287,0.0249,2038
1,-0.5696,-0.9253,-0.0071,0.0262,1.2757,-0.0635,2049
1,0.5063,-1.2917,1.2163,0.7431,1.8317,-0.3713,2032
1,0.6626,-1.6189,0.7759,-0.534,0.1171,-0.7243,2028
1,0.5388,-2.0,-0.1121,-0.6436,-0.6693,-1.8556,2017
1,0.9875,-1.2896,-0.886,-1.1613,-1.9864,-1.9426,2028
1,0.2976,-0.2478,-0.5569,-0.7661,-1.368,-1.6551,2046
1,-0.4966,-1.0203,-0.7437,-0.3819,-0.1041,-1.4483,2044
1,-0.6797,-1.2891,-0.9048,-0.7534,0.2061,-1.1449,2058
1,-0.5876,-0.7092,-0.6348,-0.6915,0.84,-1.1575,2038
1,-0.0469,-0.877,-0.0667,-0.0822,1.3712,-1.1316,2034
1,0.3672,-1.1584,-0.0437,-0.398,1.4846,-1.2567,2034
1,0.2827,-0.9763,-0.2065,-0.5494,0.6968,-1.2295,2030
1,0.1416,-0.8835,-0.2061,-0.1605,-0.0132,-1.1405,2034
1,0.0334,-0.9844,-0.312,-0.0718,-0.0772,-1.0581,2037
1,-0.1147,-0.9805,-0.4382,-0.1426,0.0196,-0.9823,2047
1,-0.2566,-0.9678,-0.533,-0.1863,0.1872,-0.9355,2039
1,-0.178,-0.9146,-0.5132,-0.1458,0.3729,-0.9312,2040
1,-0.165,-0.939,-0.3477,0.0356,0.3272,-0.8779,2034
1,-0.0532,-0.9875,-0.2095,-0.0305,0.2405,-0.9118,2041
1,0.0042,-0.9368,-0.2246,0.0,0.0309,-0.9212,2034
1,-0.0461,-0.9385,-0.3005,0.0541,-0.2056,-0.9282,2028
1,-0.1357,-0.9766,-0.344,0.057,-0.3445,-0.9107,2025
1,-0.2136,-0.9468,-0.4209,0.017,-0.3906,-0.8907,2040
1,-0.2251,-0.928,-0.397,0.0594,-0.3514,-0.8404,2050
1,-0.1423,-0.9585,-0.3899,0.0542,-0.2101,-0.8194,2040
1,-0.0774,-0.9517,-0.3164,0.0902,-0.1815,-0.8176,2020
1,-0.0349,-0.9399,-0.2419,0.1463,-0.1554,-0.8304,2067
1,-0.0696,-1.0186,-0.1338,0.0949,-0.0597,-0.8668,2032
1,-0.0779,-1.0,-0.1123,0.1205,-0.0494,-0.9115,2057
1,-0.0359,-1.0376,-0.144,0.1226,-0.0971,-0.9461,2055
1,-0.0242,-1.0002,-0.1414,0.1591,-0.1565,-0.9851,1985
1,0.0405,-1.1052,-0.1467,0.1294,-0.0981,-0.8957,2059
1,-0.0554,-0.99,-0.178,-0.039,-0.2991,-0.8662,2049
1,-0.0959,-1.0869,-0.2708,-0.0052,-0.1655,-0.793,2034
1,-0.0229,-0.9333,-0.3059,0.0306,-0.1324,-0.813,2008
1,0.0452,-1.0039,-0.2927,0.094,-0.0557,-0.8585,2028
1,0.0264,-1.0039,-0.2974,0.1139,0.0294,-0.8533,2035
1,0.0789,-0.9539,-0.2778,0.0728,0.059,-0.8372,2027
1,0.1199,-0.9751,-0.2546,0.1,0.0904,-0.8778,2050
1,0.1235,-0.959,-0.2383,0.1144,0.0855,-0.8373,2047
1,0.0872,-0.9624,-0.2581,0.1365,0.0635,-0.824,2046
1,0.0493,-0.9712,-0.269,0.1661,0.1153,-0.7801,2046
1,0.0989,-0.9675,-0.3044,0.1851,0.1697,-0.815,2036
1,0.1509,-0.9587,-0.3333,0.2083,0.2121,-0.7877,2022
1,0.187,-0.948,-0.3337,0.2499,0.2502,-0.7971,2048
1,0.1609,-0.9751,-0.3577,0.2851,0.3137,-0.8497,2025
1,0.1111,-0.9648,-0.3191,0.3035,0.3575,-0.8353,2057
1,0.071,-0.9419,-0.3247,0.3243,0.3803,-0.8449,2036
1,-0.0308,-0.9558,-0.3762,0.2831,0.3693,-1.03,2049
1,-0.3655,-1.0254,-0.2656,0.3025,0.2706,-1.1872,2031
1,0.145,-0.6428,-0.4338,0.5703,0.7006,-0.0626,2060
1,0.0063,-1.1526,-0.2537,0.6967,0.3002,-0.6785,2014
1,0.2583,-1.2927,-0.6521,0.4225,0.8071,-0.6399,2026
1,0.5671,-0.7146,-0.1555,0.6231,0.0925,-1.1211,2015
1,-0.0176,-1.0886,-0.2517,0.4699,-0.1005,-0.9749,2043
1,0.0916,-1.116,-0.083,0.3509,0.1023,-1.0765,2038
1,0.2051,-0.8757,-0.1619,0.38,0.1943,-1.0804,2021
1,0.2234,-0.9136,-0.1938,0.4974,0.0908,-1.1898,2027
1,0.2317,-0.9998,-0.2014,0.4803,0.076,-1.1797,2059
1,0.1582,-1.0081,-0.2166,0.4583,0.1261,-1.0974,1993
1,0.2458,-0.9131,-0.2068,0.4806,0.1907,-1.0987,2036
1,0.344,-0.9189,-0.1323,0.5686,0.1056,-1.0692,2055
1,0.3203,-1.0325,-0.0964,0.598,0.0754,-0.9927,2046
1,0.3418,-1.0566,-0.1052,0.5569,0.094,-0.9752,1974
1,0.3403,-1.0081,-0.1245,0.575,0.0266,-0.9788,2043
1,0.2981,-1.0081,-0.1758,0.6124,0.0274,-1.0128,2090
2,0.2336,-1.0364,-0.2808,0.6517,0.0578,-1.0869,2156
2,0.1182,-1.0737,-0.3308,0.6528,0.0808,-1.1247,2088
2,-0.0095,-1.0889,-0.417,0.6098,0.1738,-1.1569,1945
2,-0.1499,-1.0386,-0.3989,0.609,0.2677,-1.226,2017
2,-0.1597,-1.0227,-0.325,0.7285,0.3184,-1.3218,1905
2,-0.0242,-1.092,-0.3003,0.8766,0.1973,-1.3736,1965
2,0.0598,-1.1665,-0.1848,1.009,-0.0751,-1.5322,2076
2,-0.1479,-1.259,-0.23,1.0436,-0.2607,-1.6183,2029
2,-0.2812,-1.2656,-0.3235,1.1027,-0.2453,-1.7654,2036
2,-0.2227,-1.3157,-0.366,1.2114,-0.2152,-1.8723,2038
2,-0.2168,-1.4204,-0.4329,1.3194,-0.2803,-1.9602,2039
2,-0.4104,-1.5669,-0.5256,1.4093,-0.2542,-2.1216,2034
2,-0.5823,-1.6553,-0.5813,1.4318,-0.1534,-2.2514,2039
2,-0.7373,-1.7339,-0.6558,1.4933,0.0489,-2.4197,2038
2,-1.0388,-1.6643,-0.658,1.4854,0.3799,-2.8352,2043
2,-1.0645,-1.6453,-0.5134,1.6004,0.6714,-2.9498,2046
2,-0.9036,-1.7922,-0.584,1.5652,0.6008,-2.9573,2043
2,-0.542,-1.9285,-0.5403,1.5567,0.4637,-2.797,2041
2,-0.2061,-2.0,-0.5195,1.1421,0.31,-2.5812,2037
2,0.28,-1.8853,-0.5303,0.7435,0.6002,-2.1699,2042
2,0.2214,-0.9966,-0.7988,0.9364,0.8909,-1.7978,2067
2,0.5288,-0.8618,-0.7471,2.0052,1.7648,-2.2577,2046
2,1.241,-1.3818,-0.022,2.2024,2.0867,-2.3079,2036
2,0.8169,-0.873,0.1404,2.3747,1.4788,-1.5783,2045
2,1.0869,-0.196,0.2554,1.3203,0.8052,0.1429,2045
2,1.3982,0.553,-0.1667,1.4229,-0.7988,0.7542,2008
2,1.7485,-1.9456,-0.0288,1.6789,-1.6098,-0.5557,2019
2,1.5417,-1.9495,0.574,1.5194,-2.2419,-1.5568,2046
2,1.1226,-1.1567,0.9468,1.2505,-1.3319,-1.5227,2046
2,1.2971,-0.5325,0.8879,1.3527,-1.5129,-1.4908,2031
2,1.3638,-0.5659,0.52,0.2111,-2.2565,-1.115,2030
2,0.9421,-0.6885,0.1138,-1.0227,-2.8152,-0.2103,2034
2,0.5142,-0.3621,-0.1606,-1.8445,-2.8044,0.6999,2053
2,0.3196,-0.1182,-0.3101,-1.7438,-2.4172,1.3013,2046
2,0.1455,0.0068,-0.3586,-1.3695,-1.9807,1.8033,2040
2,0.1921,0.0557,-0.3521,-0.9564,-1.6416,2.0949,2042
2,0.3486,0.0078,-0.2991,-0.5815,-1.5055,2.3641,2035
2,0.4524,-0.0864,-0.24,-0.2171,-1.3464,2.6139,2034
2,0.5898,-0.1602,-0.1707,-0.0822,-1.1158,2.9183,2042
2,0.6689,-0.1907,-0.1172,-0.1408,-0.8409,3.2099,2040
2,0.6531,-0.1802,-0.0947,-0.3348,-0.5173,3.621,2036
2,0.5977,-0.137,-0.0603,-0.5315,-0.1859,4.0841,2044
2,0.5513,-0.1394,-0.0176,-0.6285,0.0883,4.3634,2036
2,0.5022,-0.2173,-0.012,-0.77,0.2416,4.3634,2032
2,0.571,-0.3218,-0.0603,-0.8191,0.2175,4.3634,2032
2,0.6836,-0.3713,0.1458,-0.8136,0.3049,4.3634,2034
2,0.6592,-0.4651,0.3313,-1.3428,0.2366,4.3634,2047
2,0.7451,-0.3511,0.2839,-1.6579,-0.3759,4.3634,2033
2,0.7397,-0.3337,0.1904,-1.5888,-0.9919,4.3634,2040
2,0.7288,-0.4331,0.196,-1.398,-1.5193,4.3634,2044
2,0.8621,-0.6035,0.1721,-1.4446,-1.8713,4.3634,2043
2,1.0918,-0.7837,0.2314,-1.3033,-1.9193,4.3634,2041
2,1.1743,-1.0298,0.5701,-1.3447,-1.6575,4.3634,2042
2,0.8176,-1.2646,0.5149,-1.3356,-2.0527,4.3634,2044
2,0.2529,-1.2283,0.2021,-1.6103,-2.8225,4.3634,2037
2,-0.3521,-0.9392,-0.4583,-1.5129,-3.2417,4.3634,2034
2,-0.4717,-1.1304,-0.5667,-1.1026,-2.0011,4.3634,2051
2,-0.1968,-1.843,-0.1682,-0.4207,-1.6985,4.3634,2015
2,-0.7664,-1.8994,-0.1616,-0.9877,-1.5869,4.125,2046
2,-0.4785,-0.325,-0.8184,-1.3567,-0.8178,3.2464,2075
2,-0.5349,-1.7925,-0.6021,0.2597,-0.473,1.8025,1986
2,-0.3926,-1.093,-0.7764,-0.5556,-0.0862,0.7371,2045
2,-0.1445,-1.3062,-0.7278,0.1161,-0.2511,0.0316,2031
2,0.3616,-1.5244,-0.5898,0.085,-1.1853,-0.8943,2033
2,0.3418,-1.6848,-0.2158,-0.1144,-1.5516,-1.1155,2041
2,0.2812,-1.0774,-0.156,-0.5846,-1.2977,-1.2663,2048
2,0.1931,-0.6572,-0.29,-0.2579,-1.3111,-1.6632,2041
2,0.063,-0.6821,-0.1277,-0.3988,-1.001,-2.0162,2042
2,-0.6052,-0.7283,0.2095,0.0936,0.1308,-1.9122,2048
2,-0.9995,-1.3894,0.3535,0.469,1.091,-1.454,2048
2,-0.5718,-1.5623,0.1946,-0.2233,1.0428,-1.1762,2043
2,0.0146,-1.2576,0.0237,-0.4583,0.392,-1.1644,2038
2,0.3738,-1.2249,-0.0173,-0.1455,-0.9083,-1.2628,2046
2,1.3406,-2.0,0.0254,-0.1445,-3.0805,-3.0183,2038
2,1.6658,-2.0,0.4639,0.0125,-3.6507,-4.3635,2028
2,0.9978,0.0649,0.8049,0.0726,-0.0482,-3.3878,2045
2,0.4451,-0.3557,-0.1213,-0.7862,-1.0786,-1.3611,2016
2,-0.3623,-1.3215,-1.1995,-1.1862,-1.7721,-1.3933,2008
2,0.4607,-1.0911,-0.6729,0.3629,-0.612,-1.7117,2118
2,0.9646,-0.2542,-0.1804,-0.6015,-0.0668,-1.4027,2033
2,1.1843,-2.0,0.0417,0.2264,-0.9975,-0.282,1998
2,-0.2942,-1.3733,0.0781,-0.9222,-0.4425,-0.6123,2005
2,0.0193,-0.9224,0.0557,-0.7951,-0.1847,-0.9802,2043
2,0.2158,-0.8435,-0.3428,0.1244,-0.3402,-0.8492,2035
2,0.3867,-0.8762,-0.3145,0.4823,-0.3248,-0.8902,2064
2,0.3997,-1.0652,-0.3401,0.1763,-0.3888,-0.8825,2024
2,0.1274,-1.0576,-0.3672,-0.0358,-0.3924,-0.8487,2021
2,-0.2104,-0.9932,-0.408,-0.0791,-0.0686,-0.7849,2019
2,-0.2612,-0.9041,-0.3965,0.133,0.345,-0.7042,2040
2,0.1772,-0.9343,-0.3108,0.2987,0.5189,-0.6594,2045
2,0.3538,-1.0249,-0.2075,0.3304,0.573,-0.6281,2035
2,0.2869,-1.1001,-0.1641,0.2722,0.3818,-0.5729,2040
2,0.1558,-1.0242,-0.252,0.2717,0.2948,-0.5051,2041
2,0.0332,-0.9697,-0.3035,0.3659,0.3958,-0.4414,2034
2,0.04,-0.9573,-0.3228,0.4561,0.4742,-0.4899,2044
2,0.0244,-1.0098,-0.2832,0.445,0.5008,-0.4762,2052
2,0.0161,-1.002,-0.2144,0.3958,0.4915,-0.4393,2049
2,0.0244,-0.9851,-0.1931,0.3786,0.3691,-0.5062,2046
2,-0.019,-0.97,-0.2124,0.4591,0.239,-0.5691,2087
2,-0.094,-0.9707,-0.2239,0.4871,0.1575,-0.6047,2032
2,-0.1282,-0.9622,-0.2593,0.4903,0.1052,-0.5807,2057
2,-0.1033,-1.0208,-0.2478,0.4342,0.1015,-0.7616,1995
3,-0.1013,-0.9094,-0.271,0.4388,-0.0185,-0.6111,2034
3,-0.001,-0.9744,-0.2329,0.345,-0.0551,-0.9019,2045
3,-0.0288,-0.9368,-0.2266,0.3824,-0.1601,-0.8874,2051
3,0.052,-0.9912,-0.1738,0.3862,-0.0968,-1.0131,2049
3,0.0513,-0.9402,-0.1592,0.3934,-0.1321,-0.9444,2037
3,0.1504,-0.9783,-0.0933,0.4497,-0.1426,-0.9198,2027
3,0.2444,-1.0103,-0.0544,0.3767,-0.1779,-1.0126,2016
3,0.1401,-0.9624,-0.0974,0.3337,-0.2619,-1.0919,2032
3,0.0444,-0.9609,-0.1887,0.3678,-0.2081,-1.0978,2026
3,0.106,-0.9509,-0.1797,0.4207,-0.1021,-1.1098,2046
3,0.1287,-0.9578,-0.2349,0.3935,-0.0726,-1.0931,2059
3,0.1479,-0.9832,-0.281,0.4743,-0.0241,-1.084,2043
3,0.1282,-1.0166,-0.271,0.5316,0.0473,-1.0991,2041
3,0.1772,-1.0652,-0.2866,0.5561,0.1417,-1.0826,2034
3,0.1562,-1.0859,-0.2708,0.5665,0.2175,-1.0846,2063
3,0.1223,-1.0869,-0.252,0.5926,0.2834,-1.0911,2069
3,0.0679,-1.0859,-0.2366,0.6018,0.3211,-1.0849,1997
3,0.001,-1.052,-0.2263,0.6247,0.3125,-1.1423,2004
3,-0.0537,-1.1108,-0.2378,0.7008,0.3128,-1.1849,2034
3,-0.0454,-1.2168,-0.1191,0.6786,0.2923,-1.2323,2089
3,-0.0637,-1.1919,-0.0671,0.6233,0.1326,-1.3336,2002
3,-0.136,-1.0894,-0.0994,0.6683,-0.0325,-1.4423,2001
3,-0.1611,-1.095,-0.2659,0.8159,-0.163,-1.5703,2017
3,-0.1292,-1.1694,-0.3218,0.9837,-0.1811,-1.693,2038
3,-0.1899,-1.3298,-0.4458,1.065,-0.141,-1.7323,2029
3,-0.2542,-1.3721,-0.4612,1.1318,0.024,-1.8278,2044
3,-0.2893,-1.4097,-0.5056,1.2023,0.1838,-1.8994,2040
3,-0.3408,-1.4717,-0.5378,1.2589,0.2321,-1.9785,2039
3,-0.5051,-1.4812,-0.5562,1.3571,0.34,-2.1114,2041
3,-0.7656,-1.5376,-0.5903,1.3918,0.4127,-2.3206,2044
3,-0.9358,-1.4731,-0.6077,1.4177,0.5299,-2.6338,2046
3,-0.887,-1.3889,-0.4912,1.6458,0.5714,-2.734,2049
3,-0.8252,-1.936,-0.4712,1.7235,0.3384,-2.2897,2030
3,-0.687,-1.9937,-0.4768,1.4844,0.35,-2.58,2029
3,-0.3513,-1.7769,-0.4624,1.1567,0.329,-2.5911,2053
3,-0.0239,-2.0,-0.6089,1.3111,0.2987,-2.1144,2053
3,0.3962,-1.0544,-0.6648,1.2485,0.6574,-1.7302,2071
3,0.4551,-1.0623,-0.9158,2.0339,0.8573,-1.3861,2046
3,1.0334,-1.3269,-0.4907,2.4448,1.2284,-2.0407,2030
3,0.9292,-1.022,-0.1196,2.529,1.0164,-1.749,2032
3,1.2527,-0.2959,0.1641,2.4068,0.1057,-0.6978,2033
3,1.6682,0.5442,0.1653,3.0051,-1.5032,0.4554,2028
3,0.948,-1.3064,-0.5598,1.7205,-1.7439,1.3559,2029
3,1.6082,-1.97,0.1924,2.5424,-3.1672,-0.9812,2038
3,1.6956,-1.1345,0.6882,1.9258,-2.5531,-1.1288,2039
3,1.4429,-0.8203,0.8149,2.1094,-2.4671,-1.45,2029
3,1.4995,-0.752,0.571,1.7435,-3.5207,-1.3267,2038
3,1.3047,-0.6956,0.1943,0.1915,-4.0744,-0.6289,2037
3,0.6675,-0.2451,-0.1914,-0.7272,-4.1504,0.4999,2043
3,0.2034,-0.0149,-0.4229,-0.8744,-3.7556,1.1918,2044
3,0.1902,0.041,-0.5393,-0.6083,-3.3134,1.7402,2042
3,0.2583,0.1296,-0.554,-0.1459,-3.032,2.2088,2047
3,0.3279,0.1367,-0.5825,0.2911,-2.91,2.4409,2054
3,0.4927,0.1101,-0.5393,0.783,-2.8737,2.6924,2040
3,0.6208,0.0273,-0.4624,1.1332,-2.7203,2.8975,2033
3,0.7358,-0.0952,-0.4478,1.3757,-2.3004,3.107,2037
3,0.7039,-0.2334,-0.4299,1.3471,-1.7018,3.4732,2035
3,0.5828,-0.3284,-0.4456,1.1023,-1.1359,3.8052,2039
3,0.4937,-0.4146,-0.4541,0.7806,-0.7212,4.1959,2039
3,0.4824,-0.4072,-0.4502,0.5509,-0.4799,4.3634,2040
3,0.5483,-0.3459,-0.3994,0.4068,-0.4077,4.3634,2038
3,0.552,-0.5769,-0.231,0.5934,-0.5932,4.3634,2035
3,0.635,-0.6663,0.1123,-0.3088,-0.6191,4.3634,2038
3,0.7412,-0.6619,0.1812,-0.8144,-0.9614,4.3634,2037
3,0.6895,-0.6616,0.0398,-1.1128,-1.0263,4.3634,2036
3,0.7012,-0.5994,0.0745,-1.1537,-1.3483,4.3634,2038
3,0.5908,-0.7039,0.1475,-1.5203,-1.9325,4.3634,2038
3,0.6631,-0.8367,0.0901,-1.7021,-2.3832,4.3634,2039
3,0.5725,-0.9727,0.0259,-1.8391,-2.1513,4.3634,2038
3,0.4912,-0.9949,-0.0908,-1.8222,-1.9674,4.3634,2046
3,0.3284,-1.134,-0.1675,-1.8243,-1.4862,4.3634,2043
3,0.2556,-1.094,-0.2375,-1.9564,-0.9654,4.3634,2046
3,0.1584,-1.2966,-0.3982,-1.9623,-0.2005,4.3634,2039
3,-0.0247,-1.5759,-0.4878,-2.1762,0.6996,4.3634,2044
3,-0.0825,-1.7324,-0.3494,-2.6247,1.7693,4.3634,2041
3,-0.3459,-1.1936,-0.8623,-3.3804,2.1012,3.9779,2041
3,-0.2214,-0.4346,-1.7446,-2.2639,2.622,3.2222,2031
3,1.0642,-1.4573,-0.8728,-0.9396,3.7609,2.7803,2024
3,0.8662,-1.1619,-0.0684,-1.8298,0.8316,1.6908,2057
3,-0.8015,-1.2046,-0.0061,-0.9397,-1.588,0.3386,1978
3,-0.6956,-1.2732,-0.1909,-0.7517,-0.269,-0.7191,2026
3,0.0786,-1.0986,-0.2339,-0.4601,0.0799,-1.6163,2071
3,0.5703,-1.2371,-0.1746,-0.6898,-0.5935,-1.8004,2054
3,-0.1492,-2.0,0.136,-0.4827,0.0242,-1.5724,2038
3,0.8645,-0.041,0.6211,-1.3978,0.9447,-1.6555,2059
3,0.3606,0.2888,0.8816,-0.253,0.1458,-1.0389,2037
3,-0.8389,-1.5466,0.8816,0.5249,-0.7783,-0.6472,2057
3,-0.8203,-2.0,0.49,0.1892,-1.8315,-0.6829,2042
3,-0.4861,-1.4517,0.2021,-0.5212,-1.1664,-1.1521,2037
3,-0.4861,-1.1775,-0.2358,-0.4079,-2.0699,-0.8722,2038
3,0.1831,-1.9521,-0.1411,1.801,-4.3635,-1.9181,2017
3,1.4741,-2.0,-0.7493,0.0778,-4.3635,-3.4745,2000
3,0.7397,-1.1653,-0.3506,-0.561,-1.9821,-4.3635,2070
3,0.043,0.1362,-0.4458,0.218,-0.0032,-2.0387,2072
3,-1.323,-0.6748,-1.3403,-0.5364,-0.75,-1.7355,2056
3,-0.9219,-1.2478,-1.2266,-0.1055,0.8791,-2.0264,2028
3,0.9324,-0.5366,0.147,0.6256,2.0921,-2.0201,2048
3,1.9999,-1.7957,0.5637,-0.4445,-0.2586,-0.7084,2014
3,1.0437,-1.7603,0.5989,-0.8184,-0.6084,-0.7987,2031
3,0.1106,-0.729,0.0354,-0.906,-0.8027,-1.0825,2053
3,0.2805,-0.728,-0.3967,0.1947,-0.7255,-0.932,2074
3,0.4275,-0.8867,-0.4565,0.5568,-0.6181,-1.0583,2051
3,0.2847,-1.0547,-0.3489,0.178,-0.5307,-0.9889,2057
3,0.063,-0.9504,-0.4299,0.0194,-0.2932,-0.8805,2043
3,-0.0352,-0.8699,-0.4121,0.1782,0.0735,-0.7407,2038
4,0.0686,-0.9299,-0.2981,0.3356,0.3659,-0.6674,2045
4,0.3533,-1.0466,-0.1697,0.4268,0.3524,-0.6328,2056
4,0.3372,-1.0745,-0.1279,0.4035,0.2622,-0.5849,2037
4,0.1301,-1.043,-0.1926,0.284,0.1682,-0.5296,2013
4,0.0132,-0.9883,-0.3464,0.3187,0.1871,-0.51,2037
4,-0.0046,-0.9536,-0.4038,0.4412,0.2832,-0.5406,2013
4,-0.0496,-0.9563,-0.3809,0.4986,0.3718,-0.5754,2049
4,-0.0352,-0.9441,-0.3186,0.4992,0.2914,-0.644,2068
4,-0.0613,-0.9619,-0.3042,0.4528,0.1808,-0.76,2056
4,-0.1404,-0.9385,-0.3198,0.489,0.0306,-0.8993,2053
4,-0.2356,-0.895,-0.3486,0.6007,-0.1563,-0.8818,2028
4,-0.1318,-0.9578,-0.3083,0.5705,-0.2631,-1.1199,2039
4,-0.2112,-0.9666,-0.314,0.4661,-0.3193,-1.0251,2060
4,-0.1292,-0.9587,-0.3149,0.4318,-0.2766,-1.3483,2039
4,-0.106,-0.8267,-0.2812,0.4191,-0.3171,-1.0212,2059
4,-0.1594,-0.9043,-0.2947,0.4326,-0.2657,-1.1001,2052
4,0.1108,-0.8435,-0.2764,0.2168,-0.1099,-0.8696,2020
4,0.1577,-0.946,-0.2466,0.485,-0.0799,-1.0861,2010
4,0.2102,-0.9875,-0.2222,0.6229,-0.0414,-1.0584,2053
4,0.3394,-0.9668,-0.1636,0.5235,-0.0723,-1.0772,2046
4,0.3372,-1.0457,-0.1477,0.4884,-0.1758,-1.191,2069
4,0.1843,-1.0505,-0.217,0.4599,-0.1273,-1.0294,2013
4,0.1487,-1.0095,-0.2388,0.4879,-0.0124,-1.0176,1992
4,0.2273,-0.9768,-0.2622,0.5024,0.0284,-1.0247,2062
4,0.1975,-0.9927,-0.3235,0.4444,0.0527,-1.0881,2039
4,0.0994,-1.0076,-0.3459,0.4472,0.1868,-1.132,2000
4,0.0093,-0.9766,-0.4143,0.4842,0.3346,-1.1678,2091
4,-0.0337,-0.9866,-0.4443,0.5714,0.4675,-1.2125,2024
4,-0.0337,-1.0557,-0.4165,0.6436,0.5843,-1.2724,2087
4,-0.0498,-1.1335,-0.3948,0.6481,0.6648,-1.2985,2032
4,-0.0872,-1.1389,-0.3479,0.6789,0.6918,-1.3111,2053
4,-0.0735,-1.1772,-0.291,0.7095,0.5324,-1.3454,2024
4,-0.0916,-1.1445,-0.26,0.7014,0.3737,-1.3809,2041
4,-0.1272,-0.9963,-0.3696,0.7458,0.2666,-1.5882,2034
4,-0.1863,-1.1536,-0.4526,0.9035,0.2511,-1.7137,2037
4,-0.2937,-1.2585,-0.4404,0.9372,0.2991,-1.8259,2043
4,-0.4341,-1.3352,-0.448,0.9726,0.4538,-1.9857,2039
4,-0.5735,-1.3125,-0.4729,1.0355,0.6746,-2.1202,2038
4,-0.6057,-1.3618,-0.4568,1.2115,0.8223,-2.2883,2041
4,-0.6643,-1.5132,-0.4102,1.3311,0.8921,-2.4392,2042
4,-0.7883,-1.7097,-0.3345,1.3326,0.9139,-2.5908,2037
4,-0.9768,-1.739,-0.302,1.2422,0.9737,-2.8325,2041
4,-1.1016,-1.6943,-0.2715,1.1472,1.1443,-3.0949,2046
4,-0.9351,-1.491,-0.3311,1.2499,1.2224,-3.5029,2048
4,-0.6152,-1.8994,-0.3425,1.3649,1.0641,-2.9215,2037
4,-0.5159,-2.0,-0.3657,1.0543,0.9048,-2.7128,2031
4,0.1753,-1.666,-0.4766,0.8032,0.6592,-3.0514,2042
4,0.6509,-1.8535,-0.6636,1.0556,0.2424,-2.4084,2054
4,0.969,-1.2202,-0.7639,1.0302,0.2503,-2.322,2056
4,0.7871,-0.7437,-0.7017,1.3794,0.4867,-1.9618,2054
4,1.1458,-1.1228,-0.1897,2.3595,1.319,-2.104,2048
4,1.5435,-1.0437,0.3779,2.1443,1.033,-1.8952,2043
4,0.9258,-0.3752,0.3193,0.7646,0.3911,-0.1507,2028
4,1.3933,0.7014,-0.3018,0.6934,-0.6994,0.3855,1999
4,1.9565,-1.5725,-0.2339,1.0477,-1.1746,-0.9604,2028
4,1.5166,-1.4226,0.3069,1.5375,-1.7467,-1.4274,2057
4,1.0967,-0.7793,0.7554,1.8194,-1.1074,-1.2001,2051
4,1.3845,-0.4321,0.8113,1.3158,-1.3432,-1.0066,2038
4,1.4067,-0.3721,0.3257,-0.0551,-2.0819,-0.558,2025
4,0.8584,-0.2856,0.0786,-1.0327,-2.5482,0.4497,2042
4,0.5283,-0.1287,-0.0347,-1.6454,-2.5966,1.0393,2046
4,0.3225,0.1106,-0.1609,-1.744,-2.3585,1.6656,2042
4,0.2493,0.1858,-0.189,-1.3644,-2.1329,2.1838,2044
4,0.3191,0.2048,-0.1807,-0.8871,-2.0196,2.5199,2040
4,0.4697,0.1821,-0.092,-0.489,-2.003,2.61,2039
4,0.6357,0.0769,-0.0107,-0.3526,-1.9547,2.8391,2039
4,0.7188,0.071,0.0657,-0.4108,-1.747,3.0755,2037
4,0.7729,0.095,0.1233,-0.6516,-1.4022,3.5058,2035
4,0.7212,0.1013,0.1121,-0.9933,-1.1051,4.0113,2031
4,0.5139,0.106,-0.0049,-1.2246,-0.7962,4.3634,2034
4,0.6746,0.0562,-0.1909,-0.8509,-0.7048,4.3634,2032
4,0.4937,-0.3533,0.1399,-1.2572,0.3496,4.3634,2042
4,0.6045,-0.3081,0.3914,-1.8678,0.7798,4.3634,2040
4,0.5457,0.1724,0.1582,-1.9498,0.747,4.3634,2025
4,0.4648,0.2656,-0.5403,-1.3307,0.14,4.3634,2051
4,0.5706,-0.4629,-0.2397,-1.4222,0.0222,4.3634,2041
4,0.9861,-1.0896,0.4473,-2.6317,0.7839,4.3634,2054
4,1.3008,-1.2231,0.459,-2.728,1.1959,4.3634,2033
4,1.0173,-1.0884,0.1443,-1.6058,0.985,4.3634,2022
4,0.6167,-1.2275,-0.0803,-1.3668,0.8388,4.0924,2031
4,0.5308,-1.3782,-0.2837,-1.9293,1.0465,3.7346,2054
4,0.3616,-1.479,-0.5017,-1.9419,1.3266,3.2568,2038
4,0.0417,-1.5469,-0.5872,-1.7811,1.5849,2.7975,2040
4,-0.272,-1.375,-0.6746,-1.6133,2.5517,2.4866,2042
4,-0.22,-1.4199,-0.7754,-0.8407,2.9605,1.807,2042
4,-0.3894,-1.7632,-0.6926,-0.7799,2.7328,0.6921,2040
4,-0.4692,-1.2104,-0.4875,-2.6627,3.6094,1.0881,2050
4,0.0881,-0.9944,-0.1846,0.7066,2.8718,-0.6027,2020
4,0.8872,-1.4116,1.5359,1.509,1.1572,-2.2863,2018
4,1.4155,-1.8286,0.9546,2.4948,-1.6185,-2.9112,2047
4,1.3567,-1.0881,1.1631,-1.9936,-3.2311,-1.2991,2026
4,-0.4497,-1.562,0.0452,-0.0502,-4.3635,-1.9068,2032
4,0.304,-0.6301,-1.488,-0.6553,-3.9811,-1.6965,2051
4,0.3313,-0.1121,-1.1731,0.3963,-0.7604,-0.9349,2082
4,0.5713,-0.5891,-0.6936,-0.3128,-0.3541,-1.1627,2046
4,0.3108,-0.6355,-0.8508,0.135,0.5295,-1.1158,2043
4,0.6611,-1.2122,-0.0916,-0.3886,1.0921,-0.9002,2012
4,0.376,-1.2046,0.1372,-0.2071,0.8649,-0.4903,2036
4,0.0833,-1.2341,0.2961,-0.0854,0.075,-0.8066,2035
4,0.0596,-1.2305,0.1758,0.182,-0.5498,-0.9863,2012
4,0.0378,-1.0833,-0.1846,0.3747,-0.6834,-0.876,2027
5,0.0439,-0.9504,-0.4846,0.5183,-0.6157,-0.9395,2067
5,0.1614,-0.9866,-0.6421,0.4541,-0.5464,-1.0231,2054
5,0.1628,-0.865,-0.6145,0.3017,-0.296,-1.4514,2054
5,-0.0852,-1.0542,-0.6165,0.0834,-0.0397,-1.073,2036
5,0.1331,-0.9961,-0.4858,0.0854,0.0944,-0.964,2039
5,-0.2251,-0.9529,-0.4705,0.3199,0.3111,-0.7704,2035
5,0.2534,-0.9534,-0.3999,0.3578,0.3129,-0.9705,2052
5,-0.2097,-0.9851,-0.3918,0.2755,0.2377,-0.3912,2050
5,0.1375,-1.0422,-0.375,0.2884,0.1918,-0.4089,2037
5,-0.0444,-1.0276,-0.4399,0.3393,0.2258,-0.3148,2021
5,0.1152,-1.0105,-0.4224,0.3581,0.3207,-0.6068,2014
5,0.1882,-0.8977,-0.4307,0.502,0.3113,-0.9662,2047
5,-0.0466,-1.0645,-0.4294,0.3603,0.3183,-0.4558,2039
5,0.2224,-0.9819,-0.4014,0.4172,0.5217,-0.2139,2043
5,0.2031,-0.864,-0.3745,0.4219,0.5678,-0.6652,2032
5,0.2434,-1.0037,-0.334,0.4528,0.4894,-0.7321,2069
5,0.0466,-1.0608,-0.3391,0.2806,0.5649,-0.1601,2035
5,-0.1025,-0.9556,-0.4087,0.3843,0.8506,-0.405,2070
5,0.7202,-0.9419,-0.2212,0.3835,0.4729,-0.8375,2040
5,0.3687,-1.0173,-0.2212,0.3681,0.2922,-0.8638,2039
5,0.3142,-1.0544,-0.2253,0.2687,0.2804,-0.8447,2048
5,0.3193,-0.9478,-0.2278,0.2245,0.2962,-0.9003,2048
5,0.1726,-0.8904,-0.2832,0.246,0.4417,-0.8299,2032
5,0.2307,-0.939,-0.252,0.3063,0.4232,-1.0045,2032
5,0.2014,-0.9167,-0.2832,0.2297,0.4018,-1.0628,2019
5,0.2024,-0.9172,-0.3518,0.2699,0.278,-1.1923,2034
5,0.1816,-0.9412,-0.3547,0.2595,0.1794,-1.2354,2061
5,0.1848,-0.946,-0.3662,0.231,0.1706,-1.233,2044
5,0.1914,-0.8735,-0.3552,0.2282,0.2894,-1.2275,2046
5,0.2002,-0.8918,-0.333,0.2679,0.3504,-1.2183,2043
5,0.1785,-0.9436,-0.3228,0.2755,0.4184,-1.2754,2053
5,0.1541,-0.9285,-0.3306,0.2603,0.3429,-1.281,2071
5,0.0759,-0.936,-0.3545,0.2916,0.3621,-1.4605,2054
5,-0.0085,-0.9624,-0.3391,0.302,0.4361,-1.4747,2037
5,0.0999,-0.9995,-0.2957,0.3113,0.5083,-1.5484,2051
5,0.2188,-1.0237,-0.1975,0.2875,0.5954,-1.5783,2035
5,0.1887,-1.0125,-0.1956,0.2931,0.6056,-1.6856,2032
5,0.103,-0.9944,-0.2424,0.3394,0.6324,-1.7853,2045
5,0.0771,-0.9661,-0.3088,0.3974,0.5882,-1.9297,2069
5,0.1033,-0.9944,-0.3809,0.4522,0.4767,-2.0658,2032
5,0.1682,-1.0105,-0.4382,0.4742,0.4034,-2.1337,2042
5,0.3025,-1.01,-0.4209,0.4911,0.4402,-2.1246,2072
5,0.2278,-1.0574,-0.374,0.3924,0.5978,-2.1748,2038
5,-0.0359,-1.1279,-0.3411,0.3313,0.8801,-2.2421,2041
5,-0.2976,-1.281,-0.3286,0.2922,1.2274,-2.3234,2033
5,-0.4832,-1.5374,-0.376,0.3191,1.5314,-2.4571,2032
5,-0.6497,-1.9431,-0.3875,0.4253,1.8712,-2.5669,2040
5,-0.7319,-2.0,-0.3835,0.4141,2.3373,-2.5886,2035
5,-0.8203,-2.0,-0.345,0.2161,2.7771,-2.7458,2031
5,-1.1755,-2.0,-0.4275,-0.0241,3.4151,-2.8035,2036
5,-0.6958,-1.8821,-0.3716,0.1309,3.955,-2.7789,2053
5,0.1738,-1.8091,-0.1812,0.1888,4.0217,-2.6168,2052
5,0.8193,-1.9407,0.1318,0.023,4.0259,-2.0771,2045
5,1.0623,-1.4856,0.0547,0.1228,3.5828,-1.7708,2041
5,1.4802,-0.8962,0.0396,0.4038,2.879,-1.8671,2053
5,1.9675,-0.4641,0.4065,0.465,2.7666,-2.5647,2045
5,1.9999,-0.5129,1.0801,-1.0693,2.1698,-2.6984,2043
5,0.8342,-2.0,0.8811,-4.1564,1.8433,-0.8712,1976
5,1.9999,0.9133,1.2773,-3.1899,2.527,-1.3179,2041
5,1.2229,1.9999,0.1758,-1.4149,2.4506,0.3123,2061
5,0.2656,-0.8887,-0.1284,-0.0646,2.1289,1.1275,2073
5,1.8574,-0.6868,0.5869,-1.3828,2.1557,-0.563,2040
5,1.7734,-1.3044,1.2346,-2.3838,0.9429,0.0033,2026
5,0.9907,-0.218,0.927,-2.7987,-0.6241,0.7513,2036
5,0.9468,0.095,0.5098,-2.5964,-1.3814,1.7498,2050
5,0.3596,-0.0513,0.2439,-3.2226,-1.8148,2.4554,2042
5,-0.0166,-0.1562,-0.0454,-3.0959,-1.5205,2.706,2044
5,0.033,0.0684,0.0388,-2.5952,-1.6109,3.0122,2054
5,0.1318,0.156,0.1741,-2.4097,-1.9249,3.2336,2037
5,0.2915,0.0063,0.1396,-2.2118,-1.835,3.3753,2057
5,0.532,-0.0193,0.0664,-1.8933,-1.4462,3.5177,2016
5,0.5105,-0.0015,0.0002,-1.8916,-1.0095,3.7615,2030
5,0.4006,-0.0376,-0.0889,-1.8676,-0.6243,4.0892,2089
5,0.3694,-0.1099,-0.0745,-1.6318,-0.3127,4.3634,2055
5,0.4512,-0.2361,0.0898,-1.9711,0.1679,4.3634,2037
5,0.21,-0.238,-0.0093,-2.0069,0.1787,4.3634,2035
5,0.2722,-0.1211,-0.0847,-1.8711,0.2502,4.3634,2039
5,0.1648,-0.1814,-0.2109,-1.3663,0.4216,4.3634,2033
5,0.2224,-0.4031,-0.0837,-1.2003,0.1133,4.3634,2038
5,0.4512,-0.4875,0.0229,-1.4374,0.1879,4.3634,2043
5,0.6655,-0.6694,0.0869,-1.5213,0.4103,4.3634,2032
5,0.885,-0.7495,0.0842,-1.3248,0.2601,4.3634,2032
5,0.7949,-0.8574,0.1318,-1.1473,0.1677,4.3634,2043
5,0.8801,-1.1477,0.1926,-1.0082,-0.0915,4.3634,2040
5,0.8291,-1.2871,0.2139,-1.493,-0.6448,4.3634,2039
5,0.3721,-1.0557,-0.1912,-1.5179,-1.2107,4.3634,2033
5,-0.2373,-1.0828,-0.5264,-1.3592,-0.708,4.3634,2032
5,-0.3442,-1.2424,-0.7417,-1.1075,0.3484,4.3634,2034
5,-0.3232,-1.2542,-0.8245,-0.3486,0.836,4.3634,2043
5,-0.8657,-1.6248,-0.6624,-0.4938,1.3431,3.941,2034
5,-1.3838,-1.6489,-0.6729,-0.648,1.682,2.9284,2024
5,-1.5593,-0.9224,-0.7229,-0.3602,1.7169,1.326,2021
5,-1.5359,-1.239,-0.8364,0.5851,2.0178,-0.5837,2060
5,0.083,-1.4368,-0.2317,0.3583,2.1234,-0.9662,2058
5,0.7988,-1.4617,-0.054,0.5453,1.4145,-1.5057,2038
5,0.2727,-1.2686,-0.0103,0.4829,1.5938,-1.9989,2051
5,0.4995,-0.365,-0.0718,0.1993,1.4237,-1.9678,2044
5,0.4978,-0.6409,-0.0437,0.3887,1.1407,-1.9148,2044
5,-0.2031,-0.8743,0.5085,0.3968,1.723,-1.6844,1982
5,-0.8542,-0.9158,-0.0144,1.0347,1.9824,-1.1166,2109
5,-1.0171,-1.7476,-0.8525,0.367,1.5414,-0.089,1707
5,-0.6343,-2.0,-2.0,-1.1733,-1.3284,-0.4818,2089
6,-0.7217,-1.9771,-2.0,-3.4868,-2.3115,-0.2649,2063
6,1.3818,-0.5703,-0.7507,-0.224,-2.3024,-2.5215,2031
6,1.2087,-0.9368,1.083,0.791,-0.9819,-2.6501,2007
6,-0.979,-1.5327,0.8696,2.4426,2.5743,-2.7592,2038
6,0.04,-2.0,0.7048,-1.0919,3.2682,-4.3635,2046
6,0.3967,-0.4524,-0.2148,-0.6058,-0.7835,-0.2149,2048
6,0.0251,-0.2368,-0.1633,-0.5505,-0.9119,-2.4257,2081
6,1.946,-0.7705,-0.0193,-0.3791,-1.3708,-1.7303,2030
6,0.8794,-1.145,-0.1155,-0.632,-1.0784,-1.4628,2043
6,0.5466,-0.9985,-0.5808,-0.3124,0.2872,-1.0648,2064
6,0.5398,-0.8276,-0.7632,0.0087,0.5348,-0.8327,2061
6,0.5229,-0.8413,-0.7173,0.3872,0.5645,-0.6926,2049
6,0.6453,-0.8374,-0.5723,0.3484,0.3537,-0.5352,2044
6,0.5735,-0.897,-0.3254,0.1854,0.2815,-0.3703,2025
6,0.4185,-1.0171,-0.4006,0.2004,0.2317,-0.2566,2037
6,0.1484,-1.105,-0.4434,0.5034,0.4125,-0.1337,2041
6,0.0073,-1.0356,-0.4709,0.7355,0.6899,-0.0818,2043
6,0.0176,-0.9421,-0.4692,0.5505,0.8084,-0.1634,2063
6,0.1514,-1.0486,-0.449,0.5187,0.6881,-0.2649,2043
6,0.0994,-0.9363,-0.4819,0.5345,0.5621,-0.2663,2038
6,-0.1899,-0.863,-0.5811,0.6237,0.575,-0.3356,2030
6,-0.3057,-0.8416,-0.6614,0.719,0.579,-0.5488,2046
6,-0.3813,-0.9299,-0.6052,0.7122,0.5606,-0.8128,2023
6,-0.335,-0.897,-0.5535,0.5995,0.4943,-0.9578,2047
6,-0.563,-0.8938,-0.5647,0.5928,0.6762,-0.7429,2032
6,-0.0791,-0.8811,-0.4775,0.5608,0.4422,-1.06,1996
6,0.2109,-0.9812,-0.3389,0.4509,0.1866,-1.4846,2045
6,-0.1841,-0.9539,-0.3284,0.4874,0.2414,-1.3248,2038
6,0.1196,-0.8699,-0.3074,0.4627,0.2076,-1.2479,2032
6,0.0271,-0.8564,-0.3245,0.6197,0.2698,-1.3503,2054
6,0.1328,-0.8921,-0.2822,0.6094,0.3535,-1.0226,2046
6,0.3472,-0.9568,-0.2498,0.7561,0.4907,-0.9894,2046
6,0.4038,-0.9712,-0.2183,0.5468,0.441,-0.8003,2051
6,0.2041,-0.8799,-0.2395,0.4987,0.4725,-0.658,2053
6,0.2275,-0.8684,-0.3005,0.5329,0.5592,-0.612,2059
6,0.4395,-1.0273,-0.2056,0.5315,0.2771,-0.4778,2041
6,0.1702,-0.9709,-0.2659,0.4156,0.3782,-0.3611,2032
6,0.1001,-1.0249,-0.2944,0.4494,0.4964,-0.5805,2036
6,0.24,-0.989,-0.2654,0.369,0.5231,-0.6707,2052
6,0.1426,-0.95,-0.3486,0.398,0.5474,-0.7813,2049
6,0.1384,-0.9646,-0.384,0.4349,0.5775,-0.9669,2053
6,0.1553,-0.9583,-0.4326,0.4064,0.5613,-1.0666,2061
6,0.0315,-0.9673,-0.4707,0.4458,0.5774,-1.2271,2053
6,-0.0334,-0.9612,-0.5354,0.5058,0.6043,-1.2307,2090
6,-0.0012,-1.0173,-0.533,0.6179,0.6281,-1.3657,2038
6,0.0317,-1.0872,-0.5276,0.6695,0.5839,-1.4255,2046
6,-0.0598,-1.103,-0.4888,0.6512,0.658,-1.5245,2038
6,-0.1023,-1.0674,-0.468,0.6922,0.7055,-1.5909,2042
6,-0.0991,-1.116,-0.4534,0.7108,0.6927,-1.7013,2033
6,-0.158,-1.1763,-0.4968,0.6119,0.6351,-1.8322,2065
6,-0.3208,-1.1248,-0.6536,0.649,0.7387,-2.045,2039
6,-0.4099,-1.1099,-0.5483,0.9208,0.9681,-2.1204,2073
6,-0.3933,-1.408,-0.3257,1.0138,1.0557,-2.2788,2029
6,-0.4058,-1.5679,-0.2681,0.8734,1.052,-2.5164,2041
6,-0.6516,-1.5457,-0.2717,0.8372,1.1654,-2.6092,2045
6,-0.7456,-1.6094,-0.4316,0.865,1.1503,-2.9749,2035
6,-0.9004,-1.675,-0.4277,0.9554,1.4384,-3.0111,2024
6,-1.1677,-1.8152,-0.3521,1.0118,1.8161,-3.1855,2039
6,-1.157,-1.7698,-0.2004,1.0095,2.1534,-3.6201,2043
6,-1.1455,-1.7371,-0.1953,1.0626,2.255,-3.8612,2039
6,-0.8838,-1.9768,-0.2959,1.0732,2.1064,-3.5315,2041
6,-0.418,-2.0,-0.1904,0.9447,2.113,-3.2192,2041
6,0.4917,-1.748,-0.3545,0.6152,1.6306,-2.8899,2048
6,0.9719,-1.717,-0.6079,0.8104,1.0963,-2.3051,2043
6,1.2368,-1.3074,-0.6145,1.377,0.8846,-2.6678,2058
6,1.2051,-0.9514,-0.3271,2.0,1.0973,-2.9363,2048
6,1.1541,-0.9619,0.1399,2.1952,1.4557,-2.1566,2049
6,0.1799,-1.4922,0.1218,1.2978,2.3886,-0.681,2065
6,1.1003,0.47,0.8435,0.7558,1.1529,0.1972,2029
6,1.627,0.4675,-0.6489,-1.2035,1.7855,1.1415,1978
6,1.136,-1.6587,-0.3389,0.0561,1.0709,0.2677,2043
6,1.3652,-1.27,0.4031,0.2345,0.6508,-0.4544,2043
6,1.262,-0.501,0.7952,0.5008,1.5442,-0.9668,2049
6,1.627,-0.1624,0.8445,0.7464,0.7249,-0.6413,2023
6,1.5286,-0.4023,0.385,-0.3806,-0.4646,-0.2819,2023
6,0.7695,-0.2854,0.1272,-1.6318,-1.1488,0.9319,2050
6,0.251,-0.1758,-0.092,-2.8107,-1.0768,1.7925,2053
6,0.1472,0.1499,-0.1997,-2.902,-0.9115,2.3711,2046
6,0.1067,0.2563,-0.2615,-2.3657,-0.7897,2.9453,2049
6,0.2261,0.1921,-0.1804,-1.544,-0.9347,3.1708,2043
6,0.4404,0.1086,-0.0691,-1.0255,-1.1812,3.378,2036
6,0.5388,-0.0503,-0.0117,-0.7215,-1.2146,3.6121,2032
6,0.6497,-0.1201,0.0408,-0.8528,-1.0885,3.9008,2035
6,0.6416,-0.1272,0.012,-1.1452,-0.821,4.2313,2040
6,0.5933,-0.1111,0.0007,-1.3274,-0.5225,4.3634,2037
6,0.5891,-0.1509,-0.0491,-1.2563,-0.4255,4.3634,2038
6,0.5588,-0.2869,0.1782,-1.4961,0.2774,4.3634,2038
6,0.584,-0.2593,0.1553,-1.9249,0.1237,4.3634,2038
6,0.5493,-0.095,0.0676,-2.1185,-0.2051,4.3634,2029
6,0.6997,-0.1213,0.0232,-1.8381,-0.5986,4.3634,2038
6,0.6152,-0.1587,-0.0371,-1.3589,-0.8078,4.3634,2036
6,0.4668,-0.3804,-0.0728,-1.3177,-1.1243,4.3634,2046
6,0.6987,-0.6169,-0.1262,-1.3141,-1.2018,4.3634,2051
6,1.0291,-0.9187,0.353,-1.4965,-0.4856,4.3634,2049
6,0.9148,-1.0532,0.4497,-1.8691,-0.5817,4.3634,2042
6,0.8909,-1.1479,0.2271,-1.896,-1.46,4.3634,2039
6,0.3086,-1.1877,-0.3542,-1.4904,-1.8331,4.3634,2039
6,-0.0173,-1.4209,-0.4248,-0.9118,-1.3749,4.3634,2049
6,-0.302,-1.8997,-0.2388,-1.4029,-0.5589,4.3634,2015
6,-0.7009,-1.5674,-0.5549,-1.731,0.243,3.8845,2045
6,-0.6824,-1.2854,-1.0781,-0.9859,1.1179,2.9706,2030
6,-0.8323,-0.9424,-1.1401,-0.9401,1.4264,1.4696,2045
6,-1.0735,-1.1721,-1.1169,-0.3385,2.4001,0.0554,2021
6,-0.6311,-1.5149,-0.2651,-0.2476,1.586,-0.6482,2043
6,0.1675,-2.0,-0.0044,0.1547,-0.0321,-1.4031,2029
7,1.2935,-1.5754,0.2698,-1.3569,0.185,-1.8202,2064
7,1.2302,0.1013,0.2322,-0.8585,-1.3523,-1.9903,2047
7,-0.801,-0.156,0.7051,0.1258,-1.6583,-1.6299,2045
7,-1.9719,-1.2026,0.1541,0.2681,-0.4444,-1.0581,2069
7,-1.8042,-2.0,-0.5491,0.4852,-0.5678,-0.6979,2060
7,-0.562,-1.8655,-1.1558,-1.1619,-1.3468,-1.6476,1945
7,1.4209,-1.8274,-1.4023,-1.6591,-4.3073,-2.7789,2016
7,1.9233,-1.9216,0.074,0.6963,-4.3635,-4.3635,2020
7,1.9036,-0.3809,1.1543,2.0475,-0.8811,-4.3635,2084
7,1.2546,-0.3213,0.4204,-0.5002,-2.606,-1.6364,2035
7,-1.0586,-2.0,-1.4983,-1.3364,-3.0384,-2.3778,1961
7,0.6829,0.437,-0.2749,0.248,1.768,-3.3112,2100
7,1.9999,-1.3267,0.0298,0.4141,-0.6925,-1.5165,1963
7,1.0305,-1.6982,0.3757,-0.77,-0.7577,-0.9026,2023
7,-0.0459,-1.0562,0.3567,-1.5209,-0.0005,-1.2738,2027
7,0.6104,-0.759,-0.251,-0.8736,0.0712,-1.393,2032
7,0.9895,-0.8354,-0.3535,0.5116,0.0583,-1.1226,2065
7,0.6748,-1.0635,-0.2109,0.5062,-0.0698,-0.9319,2051
7,0.4104,-1.0483,-0.3179,-0.0538,-0.2173,-0.8698,2032
7,0.1492,-0.9258,-0.491,-0.2205,-0.0768,-0.8164,2022
7,-0.0886,-0.8828,-0.623,0.1047,0.2614,-0.7546,2030
7,0.0569,-1.0557,-0.5415,0.4263,0.7184,-0.698,2018
7,0.2422,-1.0295,-0.3835,0.4231,0.7528,-0.6308,2061
7,0.2412,-1.0776,-0.3105,0.45,0.7779,-0.6252,2045
7,0.2014,-1.0059,-0.3071,0.4374,0.6139,-0.6446,2027
7,0.071,-0.9407,-0.3953,0.526,0.6383,-0.6411,2043
7,-0.0583,-0.9395,-0.481,0.6082,0.777,-0.6204,2044
7,-0.1748,-0.9126,-0.5107,0.6613,0.9756,-0.6846,2020
7,-0.176,-0.8308,-0.46,0.6404,0.9179,-0.5932,2044
7,-0.2488,-0.9819,-0.458,0.6715,0.8112,-1.005,2040
7,-0.3018,-0.9338,-0.428,0.6552,0.7769,-1.0412,2040
7,-0.5623,-0.7422,-0.55,0.6136,0.7514,0.1115,2045
7,-0.0708,-0.6929,-0.335,0.7056,0.4397,-1.0449,2015
7,-0.0718,-0.9443,-0.2329,0.233,0.3211,-1.1688,2017
7,-0.0203,-0.9834,-0.1997,-0.0581,0.2005,-1.0556,1983
7,0.1477,-0.9207,-0.2515,0.2764,0.206,-1.5071,2046
7,0.4458,-1.0366,-0.1216,0.9391,0.1288,-1.3463,2052
7,0.3542,-0.9644,-0.0657,0.5746,-0.2131,-0.7875,2062
7,0.4363,-0.8679,-0.1086,0.2967,-0.1838,-0.8214,2032
7,0.3704,-0.8552,-0.1846,0.2163,0.0246,-1.223,2040
7,0.3435,-0.9292,-0.2515,0.4425,-0.1079,-0.9079,2040
7,0.4219,-0.9121,-0.281,0.3221,0.1137,-1.0569,2006
7,0.4849,-0.9939,-0.2458,0.2497,0.1816,-1.1091,2042
7,0.2961,-0.9905,-0.2996,0.2193,0.2547,-1.1166,2015
7,0.0747,-0.9888,-0.3523,0.2155,0.3983,-1.0935,2067
7,-0.0293,-0.9734,-0.397,0.2357,0.5786,-1.1541,2057
7,-0.1047,-0.9363,-0.4792,0.3313,0.7529,-1.221,2000
7,-0.0303,-1.042,-0.4773,0.3858,0.9025,-1.4229,2065
7,-0.0176,-1.1909,-0.4375,0.3814,0.9557,-1.5803,2049
7,-0.1223,-1.1975,-0.4133,0.4586,0.9376,-1.6588,2084
7,-0.061,-1.2188,-0.3701,0.5594,0.8491,-1.6796,2048
7,-0.0776,-1.1753,-0.4055,0.5437,0.6253,-1.8187,2019
7,-0.2305,-1.0498,-0.6003,0.677,0.4721,-1.9627,2077
7,-0.3271,-1.2581,-0.626,0.8568,0.4859,-2.1533,2051
7,-0.5483,-1.5574,-0.6841,0.8787,0.6307,-2.3534,2054
7,-0.7141,-1.5513,-0.6348,0.8319,1.0397,-2.3619,2042
7,-0.75,-1.5303,-0.5132,0.9106,1.3066,-2.5999,2038
7,-0.8035,-1.6221,-0.4023,0.9524,1.429,-2.7781,2038
7,-1.0061,-1.8298,-0.3235,0.9732,1.5126,-3.0271,2036
7,-1.2424,-1.8582,-0.325,1.0224,1.7691,-3.2377,2047
7,-1.4653,-1.8862,-0.2839,1.0231,2.177,-3.639,2043
7,-1.4529,-1.8472,-0.1523,1.026,2.5847,-3.742,2039
7,-1.0215,-1.9075,-0.314,0.9961,2.3638,-3.363,2036
7,-0.5254,-2.0,-0.5439,0.8355,1.9992,-3.259,2032
7,0.2747,-1.6448,-0.575,0.8055,1.8973,-2.9401,2052
7,0.9097,-1.8477,-0.7175,1.231,1.3886,-2.2736,2049
7,1.1565,-1.4102,-0.5996,1.7203,1.1223,-2.2599,2055
7,1.1245,-1.0913,-0.4551,2.7883,0.9296,-2.6292,2053
7,1.5889,-1.2549,-0.0076,2.5679,0.7718,-2.6839,2041
7,0.5242,-1.4275,0.28,1.6753,1.5495,-0.855,2067
7,0.791,0.7065,0.7205,2.2149,0.7621,-0.0886,2034
7,1.3438,0.249,-0.5288,-0.5279,1.7428,1.4259,1972
7,1.1704,-1.8643,-0.3206,0.4409,0.8135,0.1859,2041
7,1.8005,-1.2239,0.5884,0.8146,0.1707,-0.9359,2033
7,1.3389,-0.4121,1.0127,0.8365,0.9074,-1.0812,2040
7,1.7087,-0.3257,0.9714,1.1093,-0.0626,-0.7854,2033
7,1.6714,-0.769,0.4243,0.1266,-1.2002,-0.6951,2033
7,0.9417,-0.4612,0.1848,-1.6241,-1.7937,0.6865,2049
7,-0.0469,0.0496,-0.0972,-2.8754,-1.8387,1.8215,2050
7,-0.1238,0.2297,-0.2649,-3.1015,-1.3236,2.5583,2048
7,0.1238,0.0894,-0.3933,-2.5753,-0.7672,2.8232,2044
7,0.3579,0.0701,-0.2991,-1.527,-1.0874,3.3998,2051
7,0.4619,0.0928,-0.1121,-1.087,-1.5488,3.6061,2044
7,0.4834,-0.0242,-0.0518,-0.7431,-1.5667,3.756,2040
7,0.5518,-0.1509,0.0193,-0.7204,-1.3412,3.9772,2034
7,0.6899,-0.2283,0.0593,-1.0495,-0.993,4.203,2034
7,0.6265,-0.2495,-0.0334,-1.3595,-0.6866,4.3634,2040
7,0.6704,-0.2312,0.0969,-1.381,-0.2305,4.3634,2035
7,0.5667,-0.2891,0.1902,-1.9755,0.0629,4.3634,2039
7,0.4656,-0.1394,0.1213,-2.1857,-0.1282,4.3634,2035
7,0.4429,-0.0952,0.0557,-2.1803,-0.3073,4.3634,2029
7,0.5256,-0.2495,0.0442,-1.8326,-0.6128,4.3634,2037
7,0.4082,-0.2004,-0.0583,-1.519,-0.7846,4.3634,2040
7,0.4507,-0.3728,-0.0103,-1.4806,-1.0115,4.3634,2046
7,0.5608,-0.5774,-0.0381,-1.6345,-0.9584,4.3634,2047
7,0.8271,-0.7561,0.0034,-1.8833,-0.4875,4.3634,2046
7,1.052,-1.0769,0.4219,-2.0706,0.2775,4.3634,2046
7,1.0305,-1.2798,0.4797,-2.6484,0.0019,4.3634,2033
7,0.4722,-0.9919,-0.1897,-2.2297,-1.0537,4.3634,2042
7,-0.2209,-0.7097,-0.5586,-1.6313,-0.068,4.3634,2046
7,-0.2935,-1.2964,-0.5479,-1.3894,1.7386,4.3634,2047
8,0.2288,-1.7771,-0.4116,-1.7279,2.1419,4.3634,2021
8,0.2188,-1.7627,-0.604,-1.7217,1.9772,3.9165,2017
8,-0.0432,-1.4712,-0.2368,-1.7295,1.2355,2.7633,2035
8,-0.9646,-0.7893,-0.5042,-0.9789,0.2637,1.0284,1997
8,-1.0759,-1.1213,-0.7371,0.3293,0.3517,-0.7735,2047
8,0.2983,-1.6204,0.0205,0.4799,0.1324,-1.442,2089
8,0.8044,-1.6018,0.0808,0.2354,-0.4151,-2.0501,2043
8,0.4075,-2.0,0.2898,0.9274,-0.5529,-2.412,2017
8,0.7246,-0.7551,0.4739,-0.5604,-0.5147,-1.8994,2055
8,-0.1123,0.5051,0.4717,-0.4856,0.242,-1.3623,2050
8,-2.0,-0.3972,0.0237,1.4607,0.8919,-0.855,2054
8,-1.967,-2.0,-0.7371,1.7861,0.6425,-0.8951,2114
8,-0.6982,-2.0,-2.0,-2.1447,-1.0158,-0.1565,2012
8,1.1414,-1.3254,-1.9495,-1.7744,-2.1208,-1.5799,1993
8,1.9999,-1.9543,-1.2151,-0.9251,-4.1943,-2.7785,2014
8,0.8289,-0.7249,0.4006,-0.4835,-0.7493,-4.3635,2009
8,-1.189,-0.5652,0.6758,0.8552,3.8041,-2.8605,2052
8,-2.0,-1.0913,-0.2759,2.2021,1.3749,-1.5957,2099
8,1.9999,-2.0,0.3967,1.0053,0.2673,-4.3635,2036
8,1.4238,-0.1025,0.6904,-1.4996,-1.6985,-2.2124,1991
8,1.9999,-2.0,0.7734,1.5229,-2.1423,-1.1544,1820
8,1.1021,-0.9236,-0.208,-1.3419,-1.1548,-1.8318,2024
8,-0.1919,-0.8782,-0.3384,-1.3655,-0.2465,-0.7452,2065
8,-0.0173,-0.3633,-1.0491,-0.3274,0.893,-1.468,2071
8,0.2976,-0.3508,-0.8704,0.9022,0.9116,-1.2605,2072
8,0.4771,-1.0173,-0.343,0.8348,0.3935,-1.3005,2057
8,0.4995,-1.3247,-0.0408,0.3579,0.1206,-1.1262,2038
8,0.4739,-1.0654,-0.0981,0.0313,0.1977,-0.8869,2038
8,0.4116,-0.9011,-0.2532,0.2951,0.2187,-0.8046,2025
8,0.2148,-0.9114,-0.3677,0.6143,0.4342,-0.7233,2027
8,0.04,-0.7798,-0.4482,0.7203,0.5331,-0.6224,2059
8,0.1096,-0.9463,-0.405,0.7735,0.5775,-0.7176,2043
8,0.146,-0.9119,-0.3926,0.707,0.6341,-0.6762,2022
8,0.1475,-0.968,-0.396,0.7646,0.7188,-0.6413,2079
8,0.062,-0.9106,-0.436,0.7341,0.7369,-0.7071,2062
8,-0.0344,-0.8989,-0.4292,0.8413,0.715,-0.8867,2045
8,-0.1475,-0.9897,-0.4111,0.9282,0.7481,-1.0142,2047
8,-0.3391,-0.825,-0.4304,0.8316,0.7448,-0.4073,2034
8,0.384,-1.0454,-0.3445,0.7261,0.3681,-1.6245,2037
8,-0.2583,-1.0071,-0.3884,0.8163,-0.1611,-1.1848,2029
8,-0.3857,-1.0105,-0.3464,0.5918,-0.4456,-1.3083,2032
8,-0.8596,-0.968,-0.3147,0.5336,-0.6149,-0.1904,2024
8,-0.0662,-0.8911,-0.1511,0.2954,-0.1047,-1.6249,2043
8,-0.2322,-0.6023,-0.1433,0.4888,0.0176,-1.2432,2019
8,0.2639,-0.7075,-0.0989,0.7372,0.0158,-1.256,2027
8,0.4824,-0.8215,-0.1248,0.7379,-0.1772,-1.2587,2023
8,0.5317,-0.9436,-0.2566,0.7007,-0.3886,-1.4249,2004
8,0.3235,-1.0012,-0.3328,0.5513,-0.2519,-1.5567,2058
8,0.2388,-1.012,-0.4397,0.5624,0.0282,-1.4978,2032
8,0.3169,-1.043,-0.4192,0.5364,0.2461,-1.39,2017
8,0.2986,-1.0117,-0.3555,0.5076,0.2598,-1.381,1997
8,0.1125,-1.0083,-0.3499,0.4809,0.4051,-1.4294,2010
8,-0.0581,-0.9651,-0.3892,0.505,0.5815,-1.5318,2054
8,-0.1382,-1.0476,-0.469,0.5829,0.7545,-1.5797,1951
8,-0.0945,-1.1299,-0.4795,0.6999,0.9605,-1.6704,2090
8,-0.1516,-1.2791,-0.4226,0.7271,1.1223,-1.6844,2057
8,-0.2439,-1.5034,-0.3137,0.6131,1.001,-1.7213,2026
8,-0.0745,-1.3494,-0.1868,0.7533,1.0343,-1.9044,2019
8,-0.1697,-1.3911,-0.1733,0.8722,0.753,-2.0499,1990
8,-0.4373,-1.4043,-0.3523,0.8593,0.4984,-2.2708,2038
8,-0.6348,-1.3979,-0.5186,0.9756,0.6196,-2.4483,2032
8,-0.864,-1.5952,-0.6084,1.0461,0.8713,-2.6671,2040
8,-1.0857,-1.7236,-0.6704,1.0758,1.2328,-2.8849,2032
8,-1.3164,-1.7498,-0.6436,1.1411,1.682,-3.0409,2048
8,-1.3728,-1.7959,-0.5396,1.2356,2.0783,-3.4765,2044
8,-1.5413,-1.8176,-0.4944,1.2657,2.4538,-3.9258,2044
8,-1.3823,-1.9583,-0.2939,1.3081,2.6614,-3.7664,2047
8,-1.2341,-2.0,-0.4185,1.1471,2.3545,-3.5304,2041
8,-0.3818,-2.0,-0.5581,1.1074,1.9985,-3.0156,2039
8,0.3718,-1.9487,-0.7515,0.9568,1.4777,-2.6553,2055
8,0.9688,-1.6614,-0.7825,1.5074,1.4063,-2.5751,2052
8,0.9727,-1.2861,-0.6321,2.1836,1.3612,-2.075,2053
8,1.6482,-1.3462,-0.3689,2.8991,1.2196,-3.3423,2040
8,1.1287,-1.6028,0.1233,2.5278,1.2621,-2.0421,2045
8,0.8948,0.0068,0.7073,2.9545,-0.5105,-0.0487,2063
8,1.8169,0.5562,0.0398,1.4725,0.3777,0.498,1957
8,0.5217,-1.8872,-0.3948,0.3908,0.6705,0.9857,2047
8,1.906,-2.0,0.8381,1.4684,0.2633,-1.0694,2038
8,1.6021,-0.9072,1.0713,0.66,0.9428,-1.4898,2039
8,1.6655,-0.4333,1.0703,1.5898,0.0483,-1.3149,2032
8,1.8372,-0.6145,0.5894,-0.0586,-1.1352,-1.1773,2028
8,1.3474,-0.4792,0.2517,-1.345,-1.8904,-0.0848,2047
8,0.2056,-0.0725,0.0408,-2.5096,-2.0991,1.2464,2054
8,-0.1567,0.1726,-0.083,-2.7639,-1.6166,2.0319,2051
8,-0.0981,0.0977,-0.2217,-2.5557,-0.9621,2.5107,2040
8,0.2625,-0.1389,-0.231,-1.6929,-0.7786,2.9007,2042
8,0.4004,0.0471,-0.0796,-1.1488,-1.162,3.3419,2051
8,0.5139,0.1204,-0.0264,-0.8601,-1.4776,3.4928,2037
8,0.5957,0.0544,0.0166,-0.6493,-1.5781,3.7371,2040
8,0.7063,-0.0574,0.0317,-0.7759,-1.3071,4.0648,2036
8,0.762,-0.1331,0.0359,-1.1563,-0.9419,4.3634,2038
8,0.6992,-0.0737,-0.0576,-1.2761,-0.7219,4.3634,2041
8,0.7737,-0.0627,0.001,-1.2424,-0.2128,4.3634,2032
8,0.7383,-0.0732,0.0681,-1.7343,-0.0342,4.3634,2039
8,0.7466,-0.0068,-0.0334,-1.9089,-0.3571,4.3634,2033
8,0.7471,0.0291,-0.0884,-1.7351,-0.6509,4.3634,2035
8,0.6594,0.0647,-0.0823,-1.4544,-0.9413,4.3634,2040
8,0.5386,0.1133,-0.0649,-1.3816,-1.3224,4.3634,2039
8,0.4636,0.0535,-0.2195,-1.0712,-1.4918,4.3634,2041
8,0.5725,-0.2124,-0.3374,-0.6528,-1.6002,4.3634,2037
8,1.0139,-0.7004,-0.0415,-0.8031,-0.8403,4.3634,2043
8,1.3086,-1.1023,0.4622,-1.4608,-0.0465,4.3634,2051
8,1.3994,-1.1907,0.8003,-2.2961,-0.6472,4.3634,2032
8,1.0435,-1.3113,0.468,-2.6382,-1.6366,4.3634,2032
9,0.2043,-1.0488,-0.1028,-1.4434,-2.1852,4.3634,2042
9,-0.2346,-1.7173,0.0586,-1.8721,-1.7159,4.3634,2025
9,-1.1348,-1.9341,-0.0032,-2.8148,-1.048,4.1531,2006
9,-1.9543,-1.3362,-1.1289,-2.4117,1.9439,3.5904,2032
9,-1.291,-1.4214,-1.6782,-1.6299,3.8644,3.1143,2032
9,-0.2708,-1.1099,-1.5737,-1.5324,4.3634,1.1658,2075
9,-0.4021,-0.5034,-0.9214,-0.1509,3.5889,-0.4741,2053
9,-0.0723,-2.0,0.3782,1.5382,0.8616,-1.0565,2024
9,1.293,-2.0,0.2605,-0.235,0.7388,-2.3939,2048
9,1.2883,-1.1147,0.0906,-0.0458,-0.5707,-2.9311,2004
9,0.1924,-0.676,0.752,-0.2377,-1.0617,-2.0442,2047
9,-2.0,-0.2034,0.583,-0.1509,0.0739,-1.1271,2065
9,-2.0,-2.0,-0.8555,0.7006,1.8817,-0.5742,2075
9,-1.0015,-2.0,-0.936,-1.2071,0.7231,-0.5003,2042
9,0.1362,-0.7764,-0.3801,-1.2607,0.6313,-1.7182,2008
9,1.9999,-1.7893,0.2463,1.5307,-3.0116,-2.7107,1997
9,1.9999,-1.7117,1.1179,0.8501,-4.0982,-4.3635,2028
9,1.5291,-0.5537,0.4922,0.4177,-1.2627,-3.7803,2015
9,-0.0969,-1.0527,-1.0334,-1.3258,-2.8316,-2.0555,2035
9,-1.4709,-1.7249,-1.7458,-0.7433,-1.5323,-3.1226,2056
9,-0.2266,-0.4495,-0.6973,1.4117,1.0656,-2.0482,2103
9,1.4956,-0.1858,0.116,0.3468,-0.3309,-2.0173,2024
9,1.6187,-2.0,0.8438,-0.5072,-0.8046,-0.6315,2010
9,0.4985,-1.075,0.2603,-0.6814,0.2597,-0.8431,2029
9,0.5469,-0.9524,-0.033,-0.3599,0.0601,-1.0959,2022
9,0.8743,-0.7839,-0.2896,0.8392,-0.1205,-1.0208,2041
9,0.5508,-1.0803,-0.1448,0.6199,-0.3682,-0.8413,2042
9,0.3262,-1.1816,-0.321,0.159,-0.2779,-0.6323,2050
9,0.1536,-0.9524,-0.543,0.1948,0.0519,-0.6144,2052
9,-0.1113,-0.8379,-0.6299,0.5924,0.3565,-0.512,2050
9,-0.0938,-0.8994,-0.5398,0.7845,0.7352,-0.4599,2045
9,0.0891,-0.9958,-0.3269,0.7068,0.9943,-0.4614,2046
9,0.1135,-1.0166,-0.229,0.5442,0.7584,-0.4324,2041
9,0.0071,-0.9832,-0.3108,0.6183,0.6135,-0.4525,2048
9,-0.2705,-0.9092,-0.4351,0.7369,0.5984,-0.6936,2062
9,-0.6006,-0.9214,-0.4644,0.7051,0.4723,-1.0544,2073
9,-0.6091,-0.9556,-0.4524,0.6067,0.2783,-1.3873,2037
9,-0.5603,-0.9238,-0.4673,0.5546,0.0939,-1.1429,2027
9,-0.4353,-1.0186,-0.4717,0.5857,-0.1418,-1.2734,2053
9,-0.2688,-0.8855,-0.3977,0.4763,-0.3349,-1.1919,2017
9,-0.0645,-1.0127,-0.3499,0.4791,-0.565,-1.421,2058
9,-0.0356,-0.9292,-0.229,0.1723,-0.4496,-1.5597,2033
9,-0.0369,-0.835,-0.1768,0.2397,-0.3727,-1.7086,1994
9,0.0259,-0.7683,-0.1667,0.1815,-0.1294,-1.7301,2056
9,0.1855,-0.8301,-0.1016,0.4562,-0.0672,-1.6676,2020
9,0.4368,-0.8284,-0.0317,0.546,-0.1254,-1.511,1977
9,0.427,-1.04,-0.0789,0.5645,-0.2907,-1.4078,2068
9,0.4573,-1.0969,-0.1323,0.5477,-0.3747,-1.4917,2038
9,0.3242,-0.9822,-0.2092,0.4292,-0.2352,-1.3565,2048
9,0.3154,-0.9595,-0.2324,0.3741,0.0097,-1.3753,2032
9,0.2837,-0.9805,-0.2488,0.3235,0.1575,-1.3669,2068
9,0.2217,-0.9795,-0.3025,0.2912,0.3116,-1.3513,2005
9,0.1301,-1.0266,-0.3491,0.3008,0.4739,-1.3591,2047
9,0.0249,-0.9836,-0.4314,0.3334,0.6813,-1.4459,2013
9,-0.0017,-1.0803,-0.4644,0.4263,0.7962,-1.5277,1983
9,-0.0178,-1.2212,-0.4531,0.4655,0.9078,-1.5585,2027
9,-0.1035,-1.2988,-0.439,0.4769,1.0345,-1.5784,2035
9,-0.2949,-1.3384,-0.4109,0.4518,1.1162,-1.6085,2038
9,-0.2483,-1.1816,-0.396,0.599,1.2069,-1.6647,2017
9,-0.1301,-1.2319,-0.2444,0.7275,0.8813,-1.7167,2033
9,-0.2981,-1.229,-0.3425,0.659,0.567,-1.9917,2028
9,-0.4861,-1.2859,-0.5171,0.8465,0.6316,-2.2095,2061
9,-0.6023,-1.4729,-0.5286,0.8855,0.7751,-2.3111,2042
9,-0.6848,-1.4861,-0.5657,0.8927,1.0933,-2.4903,2052
9,-0.7854,-1.5386,-0.5464,0.9475,1.2408,-2.6509,2038
9,-0.9714,-1.5054,-0.5625,1.0886,1.4572,-2.9372,2038
9,-1.1011,-1.7559,-0.4587,1.0905,1.4306,-3.3256,2034
9,-1.2825,-1.7046,-0.4534,1.1407,1.6262,-3.7688,2049
9,-1.5098,-1.9683,-0.3877,1.1599,1.8809,-3.5424,2032
9,-1.5532,-2.0,-0.3345,1.122,2.0813,-3.1568,2027
9,-0.8279,-2.0,-0.3691,0.6422,1.9889,-3.1032,2045
9,0.5183,-1.4255,-0.5789,0.6022,1.3715,-3.1405,2051
9,0.5237,-2.0,-0.647,1.1757,1.2006,-2.481,2053
9,0.7598,-1.5562,-0.574,1.4087,1.4366,-2.4372,2050
9,1.0012,-1.1938,-0.4453,2.2174,1.5504,-2.8245,2046
9,1.3491,-1.1392,-0.1902,2.1742,1.242,-2.6916,2030
9,0.7292,-1.4993,0.0583,1.4199,1.3165,-0.7248,2067
9,1.0237,0.3215,0.6934,2.9638,-0.3147,-0.4144,2029
9,1.2888,-0.0356,-0.355,-0.1866,1.3865,0.9304,2007
9,1.1345,-2.0,0.1711,1.1806,1.1091,-1.0124,2025
9,1.6816,-1.3137,0.9702,0.9725,1.3595,-1.3575,2055
9,1.4924,-0.5681,0.9592,1.0127,1.3833,-1.2489,2035
9,1.7761,-0.5134,0.7495,0.6686,-0.2983,-0.659,2028
9,1.6104,-0.563,0.332,-0.6084,-1.4474,-0.2734,2028
9,0.4614,-0.2354,0.1038,-2.234,-1.9137,1.1603,2045
9,-0.0815,0.0688,-0.1829,-2.9381,-1.43,2.1138,2055
9,0.0249,0.2261,-0.2571,-2.6456,-0.9325,2.6358,2054
9,0.1782,0.0146,-0.2749,-1.9941,-0.7408,2.6717,2046
9,0.425,-0.2004,-0.1082,-0.8026,-1.1106,3.0155,2039
9,0.627,0.0332,0.0654,-0.5261,-1.368,3.274,2041
9,0.6582,0.0312,0.0989,-0.5275,-1.5789,3.5035,2042
9,0.7178,-0.0815,0.1042,-0.734,-1.46,3.8053,2036
9,0.7253,-0.1687,0.0391,-1.0477,-1.238,4.2257,2047
9,0.6396,-0.1204,-0.0491,-1.1818,-1.1829,4.3634,2038
9,0.708,-0.1514,0.0793,-1.3003,-0.7662,4.3634,2038
9,0.6265,-0.1677,0.0554,-1.6888,-0.5011,4.3634,2036
9,0.5701,-0.1128,0.0276,-1.7805,-0.6601,4.3634,2037
9,0.5977,-0.0615,0.0093,-1.7219,-0.9167,4.3634,2039
9,0.5752,-0.0232,0.0178,-1.5273,-1.2495,4.3634,2037
9,0.3787,0.0059,-0.094,-1.1552,-1.4929,4.3634,2037
9,0.2886,-0.1809,-0.1738,-0.9369,-1.7426,4.3634,2041
9,0.4006,-0.364,-0.2502,-0.9372,-1.4268,4.3634,2043
9,0.7871,-0.7258,-0.1333,-1.1469,-0.5144,4.3634,2042
10,0.8855,-1.0183,0.3018,-1.5471,0.2675,4.3634,2046
10,1.0059,-1.2329,0.4517,-1.845,0.4344,4.3634,2036
10,0.5422,-1.0627,0.0154,-1.8666,0.293,4.3634,2037
10,0.1191,-1.0952,-0.4963,-2.0819,0.8648,4.3634,2038
10,0.488,-1.3408,-0.4819,-1.6965,1.413,4.3634,2051
10,0.3977,-1.9189,-0.1406,-1.6066,1.7709,4.3634,2013
10,0.0754,-1.6226,-0.4741,-2.4168,1.9728,4.0528,2025
10,-0.4783,-1.2947,-0.804,-1.7357,1.1268,2.8558,2011
10,-1.2705,-0.9954,-0.7385,-1.1003,0.5,0.8998,2017
10,-1.5728,-0.9502,-0.9255,-0.0527,0.8819,-1.3379,2018
10,0.1406,-1.6128,-0.0105,0.7363,0.6355,-1.3565,2090
10,0.5769,-2.0,0.0518,0.5677,0.4734,-1.6805,2011
10,1.5012,-1.1379,0.3362,-1.2268,-0.0688,-2.1224,2051
10,1.8633,1.1116,1.1318,-0.1862,-1.386,-2.0566,2045
10,-2.0,-0.3303,0.8657,1.5815,-1.0199,-0.9855,2045
10,-2.0,-2.0,-0.7151,1.1601,0.2207,-0.5164,2098
10,-0.4993,-2.0,-1.4182,-1.9443,-0.4818,-0.194,2052
10,0.0461,-0.811,-1.283,-1.9578,-0.7012,-1.4149,2020
10,1.9319,-1.5398,-0.4365,1.1239,-2.9142,-3.177,1986
10,1.9456,-2.0,0.6541,0.7461,-2.4036,-4.3635,2060
10,0.3438,-0.4192,-0.2654,-0.2478,1.2456,-3.3953,2023
10,-0.9749,-0.7041,-1.4338,-1.1664,-0.5131,-2.1088,2057
10,-1.1116,-1.4326,-0.5151,1.0971,-0.8063,-2.6489,2029
10,0.9236,-0.1704,0.4402,1.3576,0.3053,-2.3555,2083
10,1.9999,-2.0,-0.0342,0.0818,-0.3717,-1.6298,1940
10,1.1692,-0.6101,0.6252,-0.4697,-0.4713,-2.3883,2101
10,1.4341,-0.802,0.2395,-0.8296,-0.9083,-0.8721,2016
10,0.1555,-1.1077,-0.2319,-0.3639,-0.4414,-0.8857,2043
10,0.1248,-0.8752,-0.5413,0.2578,0.2308,-1.3051,2049
10,0.354,-0.7903,-0.4768,0.681,0.0465,-1.283,2077
10,0.406,-0.832,-0.325,0.3131,-0.2823,-1.1111,2044
10,0.4365,-0.9636,-0.2676,0.2768,-0.0734,-0.9325,2044
10,0.2639,-0.9497,-0.3792,0.3617,0.0173,-0.805,2032
10,0.1289,-0.9172,-0.4131,0.5709,0.2714,-0.6901,2045
10,0.0989,-0.9482,-0.3872,0.7404,0.5536,-0.6811,2037
10,0.1211,-1.0232,-0.2695,0.7392,0.5938,-0.7628,2050
10,0.1787,-0.9919,-0.2117,0.7592,0.5946,-0.675,2052
10,0.051,-1.0415,-0.2161,0.7969,0.5815,-0.7327,2006
10,-0.042,-0.9729,-0.3103,0.8235,0.5295,-0.8052,2023
10,-0.189,-0.8965,-0.3328,0.7534,0.3991,-0.9488,2012
10,-0.2371,-0.8193,-0.3584,0.7313,0.2956,-0.6409,2025
10,-0.5244,-1.033,-0.3772,0.7544,0.0929,-1.0665,2080
10,-0.5869,-0.9539,-0.4172,0.6268,0.0206,-1.0824,2040
10,-0.2288,-0.894,-0.3604,0.5793,-0.2959,-1.1499,2022
10,-0.2039,-0.9771,-0.3066,0.4908,-0.4742,-1.372,2069
10,-0.043,-0.8896,-0.3103,0.3482,-0.647,-1.7117,2024
10,0.0156,-0.9878,-0.2742,0.2401,-0.4007,-1.9768,2004
10,-0.2354,-0.8381,-0.2632,0.6481,-0.295,-1.5245,2009
10,0.1199,-0.8347,-0.155,0.7826,-0.0948,-1.4022,2063
10,0.5034,-0.9961,-0.0693,0.661,-0.026,-1.4452,2031
10,0.4407,-1.0493,-0.1221,0.5609,-0.1594,-1.5472,2008
10,0.3486,-0.9312,-0.189,0.5522,-0.1408,-1.4262,2054
10,0.3491,-0.8713,-0.2468,0.5706,-0.0087,-1.4571,2049
10,0.3484,-0.9114,-0.2734,0.5749,0.0883,-1.409,2070
10,0.3755,-1.0474,-0.3052,0.5886,0.1625,-1.3347,2080
10,0.2295,-0.9595,-0.3679,0.5034,0.2541,-1.3512,2021
10,0.0981,-0.9724,-0.4336,0.6132,0.4161,-1.429,1969
10,0.0142,-1.1445,-0.4688,0.6589,0.5954,-1.517,2020
10,-0.1128,-1.3081,-0.3809,0.5031,0.6376,-1.562,2055
10,-0.1667,-1.3259,-0.3696,0.5376,0.7431,-1.5848,2041
10,-0.3066,-1.2959,-0.3147,0.6537,0.9861,-1.6246,1991
10,-0.3286,-1.3384,-0.1824,0.7947,0.9118,-1.7474,2096
10,-0.2512,-1.2966,-0.1877,0.8708,0.66,-1.8731,2049
10,-0.3945,-1.1753,-0.4131,1.1515,0.5189,-2.1096,2035
10,-0.4766,-1.396,-0.4868,1.2471,0.5273,-2.2349,2038
10,-0.6218,-1.5264,-0.5581,1.3115,0.6212,-2.3133,2035
10,-0.6819,-1.6121,-0.636,1.3183,0.8431,-2.5345,2037
10,-0.801,-1.616,-0.6738,1.3669,0.9198,-2.7195,2037
10,-1.0125,-1.7534,-0.6831,1.4478,1.0689,-2.8637,2049
10,-1.2886,-1.8167,-0.5845,1.4934,1.3284,-3.1947,2047
10,-1.4141,-1.7163,-0.5525,1.3371,1.4035,-3.7352,2042
10,-1.1592,-1.6511,-0.4329,1.5197,1.3362,-3.544,2048
10,-0.8474,-2.0,-0.584,1.5071,0.9602,-2.7393,2030
10,-0.239,-2.0,-0.7217,1.0477,0.7268,-2.9943,2046
10,0.197,-1.8572,-0.8745,1.1833,0.9566,-2.8532,2052
10,0.479,-1.4553,-1.0405,1.6755,1.2456,-2.3531,2066
10,1.3054,-1.5745,-0.7932,2.3724,1.4013,-2.6995,2023
10,1.3894,-1.5513,0.1353,2.6165,1.4552,-2.1885,2059
10,0.8853,-1.0938,0.2712,2.8203,0.282,-1.2657,2046
10,0.8101,0.23,0.4089,1.3688,-0.0057,0.6759,2027
10,1.3689,0.1116,-0.3606,1.5101,-0.0514,0.9512,2002
10,1.8638,-2.0,0.1548,1.7865,-1.1674,-0.4141,2019
10,1.8425,-1.8179,0.8235,0.6622,-1.1938,-1.4006,2061
10,1.3589,-0.6753,0.9805,0.5255,-0.7512,-1.4617,2034
10,1.4358,-0.4246,0.8459,0.706,-1.617,-1.2162,2031
10,1.5469,-0.5571,0.4463,-0.3851,-2.7847,-0.8941,2028
10,0.8606,-0.4011,0.1733,-1.7076,-3.2937,0.6759,2041
10,-0.0745,-0.0972,-0.1379,-2.7425,-2.9377,1.7604,2045
10,-0.26,0.0789,-0.3684,-2.7408,-2.1551,2.1901,2051
10,-0.0007,0.1355,-0.4231,-2.0576,-1.6844,2.6882,2044
10,0.3193,0.1011,-0.3857,-1.354,-1.6098,3.0115,2045
10,0.3938,0.0867,-0.2932,-0.8969,-1.6238,3.2367,2041
10,0.4475,0.0261,-0.179,-0.6028,-1.5952,3.4794,2040
10,0.5215,-0.0542,-0.1438,-0.5685,-1.287,3.7869,2037
10,0.6462,-0.1475,-0.1121,-0.7713,-0.8119,4.1632,2033
10,0.6033,-0.1477,-0.0894,-1.1412,-0.2956,4.3634,2043
10,0.4856,-0.1575,-0.2444,-1.1643,0.0495,4.3634,2035
10,0.4739,-0.3035,-0.0762,-1.1243,0.6646,4.3634,2032
10,0.5063,-0.2473,0.0232,-1.6941,0.7988,4.3634,2033
10,0.4946,-0.1453,0.0225,-1.6773,0.4773,4.3634,2037
10,0.5964,-0.2366,0.0325,-1.5788,0.139,4.3634,2035
10,0.6885,-0.2778,0.0259,-1.3059,-0.1774,4.3634,2040
10,0.6189,-0.4753,0.1746,-1.5077,-0.571,4.3634,2042
11,0.561,-0.636,0.1323,-1.8761,-0.7328,4.3634,2047
11,0.7644,-0.7036,0.0667,-2.064,-0.7252,4.3634,2045
11,1.0027,-0.9316,0.1565,-2.1636,-0.3016,4.3634,2045
11,1.2029,-1.3257,0.585,-2.3601,0.1017,4.3634,2043
11,0.8352,-1.1643,0.4861,-2.7753,-0.1336,4.3634,2033
11,-0.02,-0.7629,-0.4993,-2.4412,-0.6016,4.3634,2040
11,-0.1926,-0.8938,-1.0417,-2.2458,0.8042,4.3634,2032
11,0.3875,-1.0398,-0.5728,-1.0219,2.2477,4.3634,2050
11,0.7793,-1.8994,-0.3701,-1.3322,1.3579,4.3634,2022
11,0.1367,-1.8713,0.0591,-1.9889,-0.0924,3.3061,1983
11,-0.9316,-1.0735,0.2002,-1.3017,-1.3399,1.4561,1981
11,-1.7803,-1.0725,-0.8015,0.031,-0.8389,-0.6453,2028
11,-0.6604,-1.9231,-0.5369,0.4406,-0.7082,-1.0549,2076
11,0.6838,-1.0632,0.051,-0.0475,-0.5875,-1.3117,2083
11,1.2515,-1.2693,0.0852,1.0939,-0.8351,-2.2425,2037
11,0.6936,-1.8198,0.2964,0.3739,-0.9437,-2.2413,2034
11,0.2502,-0.6794,-0.0293,-0.2715,-1.3127,-1.7084,2046
11,-1.2249,0.5078,-0.0227,-0.5418,-0.1892,-1.2473,2043
11,-2.0,-1.6465,-0.6338,2.2575,0.876,-1.0942,2069
11,-0.6973,-2.0,-0.7214,0.0627,0.1715,-1.1311,2090
11,-0.7039,-1.2278,-1.5093,-2.171,0.5951,-1.1279,1993
11,0.6416,-1.3237,-1.2075,0.3778,-0.3349,-2.2051,1995
11,1.9999,-2.0,-1.0552,-0.3528,-3.3718,-3.2563,2014
11,0.8779,-1.0059,0.3679,-0.938,-0.488,-4.3635,2021
11,-0.6721,0.0505,1.2346,0.7739,2.6771,-2.7078,2068
11,-1.2749,-0.8474,0.0962,1.6725,0.3701,-2.3152,2044
11,1.9999,-0.6506,-0.3481,0.0989,-0.2039,-1.429,2043
11,1.5115,-0.7488,-0.0527,-0.0722,-0.7188,0.2691,1928
11,1.9999,-1.0107,0.3237,-0.3017,-2.4257,-2.3212,2071
11,1.175,-1.2783,-0.1084,-1.1963,-1.4235,-0.5833,1981
11,-0.165,-0.9788,-0.2375,-1.3588,-0.4358,-0.9271,2069
11,0.0225,-0.5693,-0.748,-0.2161,0.6817,-0.8867,2063
11,0.3396,-0.7288,-0.4585,1.0268,0.7323,-0.8757,2077
11,0.5144,-1.1304,-0.0703,0.7887,0.3878,-0.9412,2032
11,0.5217,-1.3167,0.075,0.353,0.0465,-0.7693,2042
11,0.3894,-1.1047,-0.0823,0.1119,-0.0385,-0.6397,2031
11,0.2988,-0.9045,-0.3252,0.4205,-0.0011,-0.4635,2029
11,0.2073,-0.8682,-0.4568,0.7245,0.2838,-0.4332,2042
11,0.0042,-0.9507,-0.4949,0.7578,0.4006,-0.5003,2061
11,-0.0864,-1.0132,-0.4182,0.6693,0.4309,-0.5866,2044
11,-0.0764,-1.0281,-0.3311,0.5774,0.4279,-0.5894,2053
11,-0.0127,-0.9719,-0.2939,0.6528,0.3304,-0.5927,2037
11,-0.175,-0.9062,-0.3735,0.7106,0.1137,-0.8127,2026
11,-0.4722,-0.8752,-0.4817,0.7164,-0.1394,-1.2496,2049
11,-0.6362,-0.8438,-0.4729,0.8171,-0.4916,-1.7981,2062
11,-0.8704,-0.9854,-0.4949,0.6287,-0.7945,-1.2372,2023
11,-0.5278,-1.0898,-0.407,0.208,-0.7787,-1.7117,2044
11,-0.2737,-0.8586,-0.3521,-0.0072,-0.7617,-1.899,2030
11,-0.3179,-0.8984,-0.3164,0.2967,-0.6505,-1.7034,2054
11,-0.1584,-0.6821,-0.2751,0.2671,-0.3414,-1.6672,2057
11,0.0764,-0.9541,-0.2903,0.2895,-0.0782,-1.4007,1973
11,0.5398,-0.8909,-0.165,0.7408,-0.3243,-1.5199,2036
11,0.7454,-0.9836,-0.032,0.6047,-0.6862,-1.661,2054
11,0.3469,-0.9902,-0.0999,0.3995,-0.6641,-1.7358,2050
11,0.2808,-1.0139,-0.209,0.2727,-0.4546,-1.5273,2059
11,0.417,-1.0527,-0.2102,0.2709,-0.3506,-1.2901,2035
11,0.4944,-0.9795,-0.1909,0.1614,-0.3445,-1.1987,2072
11,0.3784,-0.9521,-0.2117,0.1361,-0.3151,-1.2814,2021
11,0.0603,-0.9993,-0.2854,0.1591,-0.1289,-1.3782,2010
11,-0.2095,-1.0405,-0.3652,0.1767,0.1894,-1.4817,2035
11,-0.2957,-1.0281,-0.449,0.2332,0.5904,-1.5556,2016
11,-0.0811,-1.0869,-0.4365,0.3318,0.7939,-1.6307,2078
11,0.0249,-1.1838,-0.4465,0.3589,0.7851,-1.7025,2007
11,-0.0559,-1.2344,-0.4036,0.3819,0.7965,-1.7841,2067
11,-0.2004,-1.1855,-0.3677,0.4107,0.789,-1.7953,2006
11,-0.1223,-1.2307,-0.3257,0.4998,0.6458,-1.8721,2049
11,-0.1536,-1.1641,-0.4641,0.5179,0.4874,-2.0708,2069
11,-0.3108,-1.2537,-0.5974,0.6064,0.3769,-2.1975,2029
11,-0.5146,-1.3384,-0.7441,0.751,0.556,-2.372,2033
11,-0.5872,-1.4722,-0.738,0.9211,0.7529,-2.5048,2039
11,-0.6401,-1.5764,-0.7395,0.9107,1.0013,-2.604,2031
11,-0.8206,-1.6943,-0.7185,1.0053,1.2603,-2.7701,2040
11,-1.0964,-1.801,-0.6873,1.0941,1.6889,-2.852,2042
11,-1.3455,-2.0,-0.5447,1.0234,1.9912,-3.0429,2042
11,-1.5947,-2.0,-0.3762,0.9014,2.2385,-3.3299,2045
11,-1.4504,-1.8689,-0.3052,0.9503,2.5241,-3.7884,2046
11,-1.0254,-1.9292,-0.2598,1.2448,2.3981,-3.8603,2040
11,-0.3899,-2.0,-0.2061,1.273,2.0009,-2.652,2032
11,0.3972,-2.0,-0.353,0.8614,1.2079,-2.9118,2059
11,0.9763,-1.7212,-0.4492,1.3876,0.9315,-2.5553,2053
11,1.009,-1.1152,-0.4431,1.857,0.583,-2.1459,2066
11,1.0671,-1.1765,-0.1895,2.3252,0.8626,-2.5284,2053
11,0.9336,-1.5454,0.0715,1.8752,1.805,-2.2077,2032
11,1.2588,-0.2405,0.99,2.7686,0.053,-1.1933,2044
11,1.5825,0.3027,0.2424,0.9268,0.6546,-0.0654,1978
11,0.6011,-1.6101,-0.415,-0.6707,0.1597,0.4288,2010
11,1.5771,-1.6025,0.3691,0.4984,-0.1254,-1.0939,2053
11,1.2412,-0.6482,0.9058,0.6501,0.8736,-1.2628,2050
11,1.4302,-0.3218,0.9514,1.4627,0.4253,-1.2471,2039
11,1.5547,-0.26,0.4941,0.1599,-0.9364,-0.7521,2020
11,1.0923,-0.3284,0.1267,-1.3252,-1.3857,0.5137,2043
11,0.2239,-0.1169,-0.1348,-2.2778,-1.0323,1.6964,2060
11,0.1912,0.0815,-0.2625,-2.6189,-0.5533,2.1466,2053
11,0.1899,0.1807,-0.3179,-2.0178,-0.2771,2.6265,2046
11,0.3196,0.1682,-0.2083,-1.1649,-0.5388,3.2014,2052
11,0.5278,0.156,-0.0737,-0.8799,-1.0352,3.3983,2036
11,0.5452,0.1194,-0.0273,-0.757,-1.2449,3.5186,2031
11,0.582,-0.0054,-0.0144,-0.642,-1.2142,3.7917,2040
11,0.7075,-0.0488,0.0269,-0.8379,-0.8653,4.1125,2039
11,0.7871,-0.0364,-0.0376,-1.0312,-0.4994,4.3634,2040
12,0.8123,-0.0825,0.095,-1.1665,-0.0758,4.3634,2041
12,0.7024,-0.0986,0.0945,-1.5246,0.1561,4.3634,2032
12,0.6121,-0.0457,0.0413,-1.6697,0.0527,4.3634,2030
12,0.5562,0.0073,-0.0483,-1.6783,-0.0731,4.3634,2038
12,0.5806,0.012,-0.0708,-1.6061,-0.3121,4.3634,2039
12,0.552,-0.0508,-0.074,-1.6102,-0.6755,4.3634,2037
12,0.54,-0.1191,-0.1514,-1.5222,-0.8728,4.3634,2037
12,0.5469,-0.1704,-0.3215,-1.1324,-0.8524,4.3634,2038
12,0.7783,-0.4863,-0.2263,-1.2299,-0.5195,4.3634,2042
12,1.2017,-0.856,0.1907,-1.6033,0.104,4.3634,2044
12,1.2737,-1.0093,0.4478,-1.9435,-0.3208,4.3634,2039
12,1.0938,-1.0588,0.1121,-2.0331,-0.9517,4.3634,2025
12,0.4138,-1.1804,-0.5171,-1.4363,-1.4404,4.3634,2029
12,0.0564,-1.5698,-0.6204,-0.8003,-0.4678,4.3634,2030
12,0.2458,-1.9421,-0.3691,-1.9698,0.1939,4.3634,2014
12,-0.8228,-1.4504,-0.7688,-1.8887,1.0638,4.2714,2023
12,-1.4683,-1.5435,-1.0801,-1.193,2.378,3.6029,2039
12,-0.8262,-1.668,-0.9531,-1.6748,3.0582,1.8848,2016
12,-0.5862,-1.29,-0.7898,-1.2733,2.4844,0.5799,2055
12,-0.6177,-0.884,-0.6062,-0.3056,2.1028,-0.597,2055
12,0.6348,-1.2273,-0.3726,0.5629,1.3474,-1.9097,2063
12,0.603,-1.9419,-0.0293,0.2706,0.8267,-2.5635,2041
12,0.9014,-1.2283,0.2415,-0.1661,-0.0317,-2.5561,2030
12,0.667,-0.4695,0.45,-0.3068,-0.5952,-2.3936,2020
12,-0.8804,0.3213,0.7703,0.0819,0.3674,-1.532,2040
12,-2.0,-1.0286,0.167,1.4996,0.0072,-0.9636,2078
12,-1.7441,-2.0,-0.2029,-0.133,-1.2054,-0.6552,2070
12,-0.6033,-2.0,-0.1768,-2.7075,-0.2924,-0.3587,2063
12,-0.0037,0.6506,0.6768,-0.4093,0.128,0.0699,2055
12,-0.1155,-0.5078,0.4607,2.7565,-1.3794,-0.8044,2003
12,1.3196,-2.0,-0.1748,1.4555,-3.4912,-3.2676,2012
12,1.7844,-2.0,-1.1658,-0.1151,-3.0838,-4.3635,2022
12,0.7996,-0.0144,-0.5503,-0.5701,-0.4404,-4.1992,2061
12,-0.9924,0.5969,-1.4839,-1.4109,1.8371,-2.1198,2019
12,-1.3904,-1.7034,-1.4509,0.0374,2.3212,-1.7919,2030
12,0.1716,0.3772,-0.8137,-0.5581,0.4283,-1.4211,2078
12,1.8633,-0.8381,0.615,0.2887,0.8969,-1.2595,2007
12,1.2559,-1.4531,0.6238,-1.1644,0.5496,-1.2993,2008
12,0.7817,-1.2458,0.1738,-0.6731,0.0414,-1.1419,2036
12,0.6851,-0.9927,0.1196,0.4529,-0.4761,-0.8015,2060
12,0.6187,-0.7896,-0.2837,0.35,-0.5221,-0.9483,2045
12,0.3699,-1.0493,-0.4194,0.3324,-0.424,-0.8708,2052
12,0.0981,-0.9585,-0.5774,0.1784,-0.1164,-0.7396,2061
12,-0.0916,-0.813,-0.6917,0.291,0.1225,-0.7014,2014
12,0.0037,-0.8579,-0.6287,0.6552,0.2667,-0.685,2042
12,0.1748,-1.0151,-0.4131,0.6984,0.4871,-0.6083,2016
12,0.2263,-1.1108,-0.2676,0.5452,0.5332,-0.5225,2032
12,0.1799,-1.0315,-0.2283,0.6011,0.4056,-0.4793,2038
12,0.0122,-0.928,-0.3276,0.7419,0.3824,-0.4617,2050
12,-0.1387,-0.9016,-0.4373,0.7367,0.5,-0.552,2040
12,-0.1206,-0.9595,-0.4275,0.7984,0.5449,-0.705,2029
12,-0.1436,-0.9644,-0.4524,0.7485,0.5056,-0.8437,2032
12,-0.3376,-0.9858,-0.3999,0.7399,0.6203,-0.9146,2012
12,-0.3186,-0.9236,-0.3838,0.7725,0.7196,-0.876,2051
12,-0.4536,-0.8667,-0.3679,0.7416,0.589,-0.5984,2050
12,-0.0667,-0.8921,-0.2812,0.5008,0.4707,-0.9377,2053
12,-0.4299,-0.9509,-0.3774,0.612,0.3253,-0.5987,2027
12,-0.0164,-0.8213,-0.2,0.54,-0.0364,-0.9862,2037
12,0.0271,-0.958,-0.2046,0.496,-0.1567,-1.3525,2047
12,0.0732,-0.8853,-0.2,0.4267,-0.202,-0.7841,2030
12,0.1621,-0.9031,-0.1482,0.473,-0.025,-1.6438,2044
12,0.0889,-0.8147,-0.1746,0.6751,-0.2009,-1.3145,2018
12,0.1619,-0.9526,-0.1858,0.7099,-0.2342,-1.2929,2047
12,0.3535,-1.0547,-0.1511,0.6806,-0.2077,-1.3788,2002
12,0.2273,-1.0559,-0.2129,0.5647,-0.2228,-1.2661,2046
12,0.1648,-0.9854,-0.2124,0.5469,-0.1465,-1.3932,2006
12,0.1763,-0.9148,-0.2334,0.481,-0.028,-1.4268,2059
12,0.1626,-0.9788,-0.3306,0.5522,0.0533,-1.4476,2075
12,0.1079,-1.0332,-0.3762,0.5304,0.2059,-1.4692,2136
12,-0.0112,-1.0317,-0.4634,0.5899,0.3691,-1.4685,2006
12,-0.0166,-1.0972,-0.541,0.6528,0.5855,-1.4984,2059
12,0.0088,-1.1819,-0.533,0.6954,0.7301,-1.5028,1992
12,-0.1304,-1.2363,-0.4929,0.7311,0.8656,-1.5593,1991
12,-0.2751,-1.2517,-0.4143,0.6114,0.912,-1.6127,2017
12,-0.2251,-1.2344,-0.3672,0.5854,0.9373,-1.6333,1897
12,-0.1509,-1.2095,-0.2957,0.7079,0.8737,-1.7294,2027
12,-0.1914,-1.1838,-0.3228,0.8676,0.8376,-1.8903,2038
12,-0.2034,-1.3423,-0.3459,1.0555,0.7032,-2.0587,2015
12,-0.3472,-1.4707,-0.4143,1.0596,0.7465,-2.1771,2065
12,-0.4321,-1.426,-0.4861,1.1419,0.8182,-2.2522,2034
12,-0.5217,-1.5217,-0.4734,1.2278,0.9068,-2.4073,2040
12,-0.6831,-1.6208,-0.582,1.274,0.8985,-2.5569,2036
12,-0.8889,-1.6702,-0.6021,1.3525,1.0592,-2.7305,2041
12,-1.2222,-1.814,-0.5613,1.3266,1.2255,-2.8894,2042
12,-1.4155,-1.7163,-0.53,1.1836,1.4767,-3.3709,2044
12,-1.0867,-1.6223,-0.5901,1.3579,1.3123,-3.5214,2057
12,-0.6233,-2.0,-0.5349,1.4495,1.1275,-2.9139,2039
12,-0.561,-2.0,-0.5125,1.023,0.9451,-2.7288,2040
12,-0.1777,-1.8643,-0.4316,1.1019,1.4287,-2.5099,2053
12,0.3291,-1.4905,-0.7039,1.2239,1.6129,-2.2023,2058
12,0.9353,-1.3682,-0.6038,2.007,1.7423,-2.459,2043
12,1.2529,-1.4443,-0.0688,2.0274,1.8245,-2.3044,2049
12,0.6545,-1.1963,0.1719,2.2563,1.5261,-1.2982,2058
12,0.7126,-0.0022,0.5276,1.7733,0.5517,-0.2189,2027
12,1.5774,0.4204,-0.0183,1.5066,0.8268,0.1167,1986
12,1.2173,-2.0,-0.2434,0.4361,0.0414,-0.1455,2026
12,1.7166,-1.8352,0.5232,0.3886,-0.7931,-1.0308,2049
12,1.3071,-0.7981,0.8374,0.1591,-0.1437,-1.3557,2040
12,1.3303,-0.4202,0.8655,0.7681,-0.6414,-1.1481,2035
12,1.52,-0.5635,0.4265,-0.2792,-1.9238,-0.767,2030
12,0.9104,-0.4839,0.1069,-1.7857,-2.528,0.6637,2046
12,0.0996,-0.2715,-0.1643,-2.7517,-2.5093,1.6488,2044
12,-0.0234,-0.0273,-0.3489,-2.8074,-2.0311,2.2004,2049
13,0.1199,0.0833,-0.4434,-2.2975,-1.6986,2.6835,2048
13,0.3674,0.0713,-0.3975,-1.6175,-1.6539,3.0898,2042
13,0.5232,0.0889,-0.2952,-1.1509,-1.7677,3.3071,2032
13,0.6003,-0.0027,-0.2168,-0.8054,-1.8005,3.5612,2020
13,0.677,-0.1294,-0.1829,-0.6714,-1.5965,3.7807,2040
13,0.7344,-0.2632,-0.1418,-0.8485,-1.0618,4.1121,2038
13,0.6924,-0.2712,-0.1206,-1.1738,-0.5418,4.3634,2033
13,0.6165,-0.1851,-0.2488,-1.1911,-0.4275,4.3634,2043
13,0.5234,-0.2439,-0.0432,-1.5163,0.1835,4.3634,2028
13,0.2976,-0.0874,-0.0679,-1.7916,0.0353,4.3634,2032
13,0.3445,-0.1174,-0.0779,-1.5796,-0.3179,4.3634,2035
13,0.5017,-0.2017,-0.0784,-1.16,-0.4786,4.3634,2032
13,0.6101,-0.3823,0.062,-1.4608,-0.7413,4.3634,2039
13,0.5601,-0.5972,0.0332,-1.788,-0.9312,4.3634,2043
13,0.6355,-0.6694,0.0193,-2.0012,-0.793,4.3634,2048
13,0.8394,-0.8198,0.0938,-2.061,-0.3803,4.3634,2049
13,1.1218,-1.0771,0.3296,-2.1543,-0.1569,4.3634,2047
13,1.1404,-1.312,0.4119,-2.4356,-0.3029,4.3634,2028
13,0.1907,-1.3401,0.1741,-2.5727,0.2755,4.3634,2038
13,-0.5449,-0.9573,-0.7344,-2.5518,0.0582,4.3634,2046
13,-0.2925,-0.9539,-0.9944,-1.9271,2.1072,4.3634,2044
13,0.3564,-1.5332,-0.6396,-1.4411,3.0982,4.3634,2029
13,0.5901,-1.71,-0.6985,-1.5568,2.8212,3.6725,2017
13,-0.1311,-1.5625,-0.1821,-2.0333,0.9889,2.4583,2006
13,-0.7288,-0.8933,-0.0754,-0.9934,-0.2195,0.4918,2016
13,-0.5654,-1.1975,-0.5659,0.3598,-0.1675,-1.2066,2045
13,0.2717,-1.8713,0.0037,0.6082,-0.5327,-1.7174,2074
13,0.8425,-1.5359,0.0842,-0.1631,-1.1917,-1.9783,2044
13,0.8838,-1.1714,0.2295,0.4786,-1.2861,-2.2111,2032
13,0.229,-1.6453,0.437,0.2061,-0.7417,-1.9917,2032
13,0.3438,0.3928,0.8149,-0.3169,-0.3027,-1.9299,2046
13,-1.5488,-0.3142,0.1562,0.811,-1.0399,-0.5232,2056
13,-1.804,-2.0,-0.324,1.5769,-1.3781,-0.8337,2075
13,-1.0559,-2.0,-1.1597,-1.4617,-2.2399,-0.7285,2027
13,0.0728,-1.6765,-1.6936,-1.1107,-2.1616,-1.2725,2030
13,1.8879,-1.7747,-1.3259,-0.0338,-3.2697,-2.2097,2010
13,1.3958,-1.3381,0.0574,-0.3982,-2.3684,-3.7743,2038
13,-0.0671,0.1914,0.1448,0.5972,0.7665,-3.0059,2040
13,-1.4385,-1.1448,-0.5745,0.8753,0.5353,-2.1611,2061
13,-1.104,-1.9048,-0.5154,-0.1108,1.0556,-2.5886,2058
13,0.7688,-0.2297,0.4736,0.2919,1.7681,-1.9499,2078
13,1.9999,-2.0,1.1404,0.9628,-0.5059,-1.474,1974
13,1.0183,-0.8792,0.8882,-1.113,-0.5702,-1.9069,2073
13,1.2004,-0.9575,-0.0935,-1.033,-0.9312,-1.169,2030
13,0.4988,-0.7629,-0.8948,-0.3649,-0.8124,-0.9957,2053
13,0.4487,-0.6028,-0.77,0.4192,-0.224,-0.9585,2064
13,0.0698,-0.7729,-0.6421,0.2691,0.0919,-0.8597,2055
13,0.0466,-0.9333,-0.4937,0.1185,0.2898,-0.8537,2031
13,0.1865,-1.0127,-0.3743,0.2156,0.3964,-0.7887,2023
13,0.3398,-1.0474,-0.2588,0.4952,0.483,-0.5906,2032
13,0.1709,-1.0144,-0.2317,0.5344,0.5027,-0.5296,2055
13,-0.0066,-0.9988,-0.2974,0.496,0.4031,-0.5208,2020
13,-0.1111,-0.9768,-0.4524,0.7634,0.3247,-0.5679,2023
13,-0.0691,-0.9026,-0.4939,1.0184,0.3938,-0.6999,2054
13,-0.1904,-0.9958,-0.5105,0.9323,0.4848,-0.9103,2074
13,-0.4543,-0.8721,-0.4734,0.8449,0.2954,-1.1644,2066
13,-0.4495,-0.9316,-0.4309,0.7657,0.1614,-1.4902,2063
13,-0.5369,-0.9766,-0.4412,0.6184,0.2476,-1.2571,2031
13,-0.6509,-0.7935,-0.4565,0.7437,0.2374,-0.7146,2049
13,-0.2104,-0.749,-0.3657,0.4583,0.1161,-0.9945,2033
13,-0.0059,-0.9451,-0.2781,0.4525,-0.0716,-1.3516,2044
13,-0.075,-0.9602,-0.2642,0.2987,-0.0743,-1.2464,2050
13,0.0901,-0.7817,-0.2214,0.243,-0.2157,-1.5199,2046
13,0.0286,-0.8735,-0.2114,0.4394,-0.09,-1.5229,2072
13,0.137,-0.7205,-0.1631,0.4264,-0.0076,-1.3941,2032
13,0.3999,-0.8442,-0.1562,0.5907,-0.1115,-1.4805,2039
13,0.4104,-0.9705,-0.176,0.6637,-0.2579,-1.305,2070
13,0.3899,-1.0376,-0.1953,0.5606,-0.3534,-1.2949,2036
13,0.3108,-0.9949,-0.2168,0.5785,-0.3136,-1.342,2005
13,0.2581,-0.9182,-0.2383,0.4485,-0.1104,-1.2769,2019
13,0.3208,-1.0098,-0.2617,0.4221,-0.0334,-1.325,2056
13,0.2024,-0.9956,-0.2957,0.3484,0.0198,-1.3392,2004
13,0.0444,-0.9504,-0.3967,0.341,0.1683,-1.3733,2117
13,-0.043,-0.9578,-0.479,0.4476,0.3774,-1.5091,2087
13,-0.0112,-1.0837,-0.4939,0.5518,0.5291,-1.5335,2067
13,0.0042,-1.2756,-0.4919,0.5393,0.6618,-1.6194,2059
13,-0.0688,-1.2969,-0.4932,0.5243,0.7146,-1.592,2059
13,-0.1787,-1.2485,-0.4341,0.5323,0.8423,-1.6237,2023
13,-0.2344,-1.2556,-0.4629,0.5754,0.8782,-1.6604,2048
13,-0.3159,-1.2034,-0.519,0.7457,1.0191,-1.8378,2014
13,-0.2864,-1.2825,-0.3865,0.8965,1.0527,-1.9064,2090
13,-0.2742,-1.4131,-0.3728,0.8637,0.8369,-2.0953,2028
13,-0.491,-1.4011,-0.4033,0.9483,0.8538,-2.2349,2014
13,-0.6458,-1.4956,-0.4644,0.9728,0.9535,-2.338,2038
13,-0.791,-1.5698,-0.5908,1.0483,1.1178,-2.5421,2030
13,-0.9143,-1.6833,-0.6399,1.1163,1.1591,-2.754,2038
13,-1.0566,-1.7959,-0.593,1.1535,1.2461,-2.9727,2043
13,-1.3774,-1.8726,-0.5068,1.0662,1.5494,-3.3564,2040
13,-1.4595,-1.7549,-0.4299,0.9549,1.8425,-3.5282,2051
13,-0.9573,-1.8516,-0.3926,1.0656,1.8234,-3.3616,2039
13,-0.688,-2.0,-0.4021,0.9586,1.6227,-2.8253,2041
13,-0.2327,-1.9233,-0.4624,0.7372,1.5812,-2.7747,2046
13,0.4004,-1.5972,-0.5771,0.8608,1.6037,-2.4334,2057
13,0.8181,-1.4468,-0.5249,1.6534,1.6351,-2.1326,2061
13,1.3215,-1.2454,-0.2837,1.8885,1.2667,-2.8916,2045
13,0.5701,-1.4744,-0.2456,1.8249,1.4484,-2.0616,2041
13,0.8232,-0.7039,0.5198,2.1078,0.962,-0.8118,2045
13,1.4077,0.4749,0.6455,2.7899,0.4738,-0.9804,2000
13,0.731,-0.4202,-0.25,-0.4035,1.3169,1.1307,2022
13,0.7278,-1.7529,-0.3401,0.0643,0.5422,0.3041,2027
13,1.7368,-1.3289,0.6108,0.657,0.2373,-0.834,2033
13,1.4238,-0.6848,0.8511,0.5645,0.8403,-1.2142,2048
13,1.5083,-0.5493,0.8025,0.7674,-0.2627,-0.8754,2043
13,1.4446,-0.6729,0.3806,-0.4215,-1.3637,-0.3864,2024
13,0.7664,-0.4717,0.0701,-1.9041,-1.8666,0.7959,2034
14,0.0452,-0.1794,-0.1716,-2.9612,-1.6889,1.9057,2046
14,-0.082,0.0757,-0.3115,-2.9696,-1.1419,2.5254,2050
14,0.1772,0.0637,-0.3516,-2.2218,-0.7462,2.7701,2045
14,0.4104,-0.0337,-0.2498,-1.2648,-0.8925,3.2547,2046
14,0.5383,0.0474,-0.1433,-0.8742,-1.1493,3.5885,2040
14,0.5681,0.0022,-0.1243,-0.6155,-1.2483,3.8179,2035
14,0.6294,-0.1611,-0.1035,-0.5677,-1.1196,4.169,2040
14,0.6924,-0.218,-0.1248,-0.7175,-0.8283,4.3634,2040
14,0.7959,-0.3044,0.0315,-0.6052,-0.2633,4.3634,2038
14,0.7156,-0.2847,0.2048,-1.4137,0.3099,4.3634,2033
14,0.6594,-0.1191,0.126,-1.6904,0.2057,4.3634,2041
14,0.5598,-0.0947,0.092,-1.6209,-0.08,4.3634,2035
14,0.5576,-0.0398,0.082,-1.3711,-0.4252,4.3634,2037
14,0.4988,-0.0576,0.0769,-1.1168,-0.9287,4.3634,2041
14,0.4868,-0.2246,0.0776,-0.9906,-1.3138,4.3634,2038
14,0.5781,-0.4514,0.1287,-1.1541,-1.4085,4.3634,2042
14,0.8789,-0.6311,0.0369,-1.4978,-1.4427,4.3634,2044
14,1.1362,-0.8933,0.2871,-1.6347,-0.9793,4.3634,2050
14,1.1338,-1.2026,0.6934,-2.0387,-0.7918,4.3634,2045
14,0.6069,-1.1157,0.5039,-2.1739,-1.3065,4.3634,2059
14,0.0559,-1.0891,-0.0525,-1.6085,-1.7381,4.3634,2027
14,0.0679,-1.3245,-0.5488,-1.4051,-1.1724,4.3634,2016
14,-0.1707,-1.6663,-0.4526,-1.9616,-0.0049,4.3634,2016
14,-0.6831,-1.4326,-0.7693,-1.966,1.3358,3.7527,2005
14,-0.6724,-1.2839,-1.0293,-1.6676,2.0489,2.9415,2047
14,-0.5583,-1.1707,-1.1021,-1.2298,2.0045,1.297,2060
14,-0.835,-1.272,-0.7002,-0.5052,0.9628,-0.5155,2007
14,0.0964,-1.3984,-0.3228,0.4133,0.6329,-1.0401,2071
14,0.5237,-1.9719,-0.1121,0.7192,-0.1249,-1.9931,2067
14,0.2136,-2.0,-0.1118,-0.0292,0.507,-2.1357,2032
14,0.9377,-0.4802,0.26,-0.4821,0.3734,-2.2158,2047
14,-0.6536,0.7659,0.4351,-0.2089,0.4083,-1.2556,2033
14,-2.0,-0.938,0.0891,0.9123,1.2581,-1.0551,2060
14,-1.3752,-2.0,-0.1765,-0.0539,1.6669,-1.5992,2089
14,-0.406,-1.7549,0.1882,-0.9055,1.855,-0.6709,1995
14,0.3042,-0.5908,0.2068,0.121,1.2235,-1.485,2030
14,1.6943,-2.0,-0.2283,1.0677,-2.746,-1.9556,2020
14,1.9999,-2.0,-0.6086,-0.5975,-4.3635,-3.4804,2028
14,0.8506,-0.4663,0.2871,-0.1538,-2.2087,-4.3635,2040
14,-0.1267,0.2195,-0.5039,0.0712,0.1213,-2.4405,2044
14,-1.2483,-1.0967,-1.7585,-0.8522,0.2055,-2.4024,2066
14,-0.9167,-1.439,-1.5161,0.4382,0.8392,-2.1627,2036
14,1.2549,-0.6602,0.1304,0.7962,0.5436,-1.8286,2051
14,1.9999,-1.1838,0.6479,-0.7343,-1.03,-1.2475,2018
14,0.8643,-1.4307,0.3984,-0.7781,-0.6149,-1.0046,2008
14,0.4739,-0.8047,0.063,-0.6165,-0.2791,-1.1696,2024
14,0.5798,-0.8425,-0.2229,0.2695,-0.2928,-1.1362,2036
14,0.5298,-1.0066,-0.2708,0.6674,-0.1989,-1.005,2055
14,0.3096,-1.0432,-0.2197,0.2394,-0.2164,-0.9405,2033
14,0.2532,-0.957,-0.3726,0.0131,-0.1566,-0.8854,2020
14,0.0896,-0.8987,-0.481,0.3396,-0.0348,-0.8026,2017
14,0.1211,-0.967,-0.457,0.6582,0.2278,-0.7729,2048
14,0.1626,-1.0273,-0.3591,0.6177,0.4713,-0.6653,2053
14,0.1331,-1.0747,-0.2627,0.5175,0.4758,-0.6693,2065
14,0.0989,-1.0269,-0.2561,0.5051,0.3599,-0.6172,2041
14,0.0193,-0.9753,-0.2993,0.5339,0.3996,-0.5869,2040
14,0.0088,-0.9749,-0.3191,0.6364,0.4444,-0.6509,2044
14,-0.019,-0.9751,-0.3052,0.6592,0.3663,-0.7613,2044
14,-0.1143,-0.9495,-0.3013,0.6718,0.238,-1.0298,2043
14,-0.2778,-0.866,-0.3254,0.7256,0.0788,-1.0385,2029
14,-0.239,-0.9097,-0.3303,0.5882,-0.0555,-1.2259,2036
14,-0.2832,-0.9424,-0.3054,0.3971,-0.2314,-1.1184,2046
14,-0.1836,-0.981,-0.2957,0.4576,-0.6056,-1.3945,2037
14,-0.5503,-0.9211,-0.2961,0.29,-0.7264,-0.7846,2038
14,-0.0447,-0.8762,-0.2749,0.0872,-0.4458,-1.7307,2039
14,-0.0244,-0.833,-0.2871,0.1766,-0.3856,-1.7093,2033
14,-0.1411,-0.8462,-0.2893,0.5374,-0.1309,-1.4942,2032
14,0.1699,-0.8811,-0.2002,0.632,-0.0388,-1.4171,2059
14,0.5293,-1.0007,-0.0786,0.5075,-0.1625,-1.3699,2032
14,0.3782,-1.0747,-0.0969,0.34,-0.3321,-1.4652,2083
14,0.2012,-0.9631,-0.2178,0.1995,-0.172,-1.4639,2094
14,0.2434,-0.9231,-0.2607,0.2318,-0.0427,-1.3928,2030
14,0.3552,-0.9761,-0.2864,0.295,0.0309,-1.3777,1981
14,0.2812,-1.0457,-0.3223,0.2342,0.1127,-1.3189,1981
14,0.1833,-0.9668,-0.3462,0.2521,0.3567,-1.3411,2013
14,0.0786,-0.9741,-0.4275,0.31,0.5888,-1.4243,2015
14,0.0686,-1.0525,-0.4663,0.4149,0.7561,-1.4882,2064
14,0.0596,-1.1589,-0.4434,0.4747,0.8664,-1.5079,2036
14,-0.0281,-1.2288,-0.4597,0.4574,0.9319,-1.5194,1972
14,-0.1204,-1.2563,-0.4077,0.4654,1.0267,-1.5507,1987
14,-0.1423,-1.2798,-0.3225,0.471,1.0151,-1.6478,2066
14,-0.2351,-1.2039,-0.3718,0.4449,0.9682,-1.7322,2076
14,-0.2209,-1.1851,-0.4065,0.6695,0.8509,-1.8611,2009
14,-0.2356,-1.2593,-0.4971,0.7935,0.675,-2.1113,2028
14,-0.5,-1.3767,-0.5522,0.8261,0.7979,-2.2406,2021
14,-0.5327,-1.4666,-0.6553,0.8837,0.9817,-2.3293,2026
14,-0.4922,-1.5142,-0.5042,0.9553,1.2188,-2.433,2035
14,-0.675,-1.6252,-0.5706,1.0379,1.1226,-2.6205,2028
14,-0.9424,-1.717,-0.676,1.1643,1.2627,-2.8185,2041
14,-1.1687,-1.9412,-0.5154,1.2006,1.5677,-2.9536,2042
14,-1.386,-1.9648,-0.4368,1.0797,1.7291,-3.4327,2034
14,-1.4741,-1.7683,-0.323,1.0375,2.07,-3.7427,2048
14,-0.8604,-1.8799,-0.259,1.286,1.9915,-3.1978,2041
14,-0.5593,-2.0,-0.3235,0.9869,1.43,-3.03,2032
14,-0.062,-1.9126,-0.478,0.7264,1.4225,-2.9229,2046
14,0.6829,-1.6245,-0.6394,1.1067,1.3379,-2.6659,2061
14,0.8113,-1.2458,-0.3975,1.8271,1.536,-2.1377,2065
14,1.113,-1.1646,-0.4468,2.5535,1.1708,-2.594,2035
14,1.0994,-1.3875,0.3074,2.1735,1.3914,-1.6729,2043
14,0.4294,-1.0679,0.218,1.3778,1.2507,-0.0369,2042
14,0.9827,0.8342,0.3596,1.9425,0.5478,-0.0662,2015
14,1.0896,-0.7583,-0.5608,0.2168,1.329,1.2531,2005
15,1.6985,-2.0,0.1743,0.9516,0.1306,-0.697,2034
15,1.5696,-1.2615,0.5896,-0.1573,0.1742,-0.7915,2042
15,1.322,-0.5007,0.8933,0.4795,0.7263,-0.85,2042
15,1.5615,-0.4531,0.7258,0.5915,-0.8652,-0.5397,2033
15,1.439,-0.5151,0.2124,-0.439,-1.7385,-0.1562,2034
15,0.7537,-0.3809,0.019,-1.9574,-2.1201,1.2079,2041
15,0.0566,-0.0244,-0.2998,-2.9677,-1.9531,2.392,2047
15,0.1467,0.1177,-0.4229,-2.8047,-1.6803,2.9738,2041
15,0.4221,-0.0159,-0.4448,-1.8511,-1.4087,3.3208,2051
15,0.5276,0.1255,-0.3137,-1.2267,-1.7399,3.739,2042
15,0.584,0.1611,-0.2136,-0.9531,-2.0526,3.7503,2037
15,0.6333,0.0042,-0.2034,-0.5906,-2.0868,3.9552,2037
15,0.6868,-0.1658,-0.1711,-0.6411,-1.8703,4.3634,2039
15,0.6907,-0.1746,-0.1685,-0.9232,-1.4142,4.3634,2038
15,0.6372,-0.1064,-0.3364,-0.9653,-1.3187,4.3634,2044
15,0.6277,-0.1172,-0.0947,-1.1267,-0.7528,4.3634,2032
15,0.4546,-0.0271,-0.0796,-1.4974,-0.9202,4.3634,2042
15,0.4661,0.0027,-0.0784,-1.3009,-1.4185,4.3634,2033
15,0.3735,-0.0491,-0.1477,-0.8732,-1.621,4.3634,2034
15,0.3845,-0.2925,-0.1179,-1.1267,-1.4708,4.3634,2036
15,0.4978,-0.5247,-0.1973,-1.2563,-1.1211,4.3634,2045
15,0.6118,-0.7153,-0.1858,-1.5837,-0.6284,4.3634,2043
15,0.8049,-0.8752,-0.1382,-1.9287,-0.0309,4.3634,2046
15,0.9202,-1.0327,0.0491,-2.2244,0.4666,4.3634,2046
15,0.8645,-1.3506,0.0732,-2.1859,1.2065,4.3634,2032
15,0.0754,-1.5237,-0.2336,-2.6673,1.919,4.3634,2032
15,-0.969,-1.3296,-0.897,-2.538,3.2981,4.3634,2038
15,-0.3806,-1.5447,-1.1523,-2.8663,4.3634,4.3634,2042
15,0.6946,-1.5806,-0.8999,-2.4045,4.3634,4.3634,2031
15,1.5347,-1.7012,-0.8721,-1.7403,4.3634,3.8145,2028
15,0.9924,-1.4634,0.1309,-2.3035,1.7732,2.3111,2025
15,-0.8171,-1.385,0.5212,-0.8327,-1.0937,0.2855,1946
15,-0.7185,-1.3589,-0.1138,-0.6225,-0.2518,-1.2296,2037
15,0.3523,-1.2224,-0.0251,0.3111,-0.834,-1.7864,2103
15,0.3921,-1.4568,0.1292,-0.0238,-1.3673,-2.294,2073
15,0.5759,-1.2576,0.5791,0.6417,-0.7257,-2.0896,2034
15,0.5156,-1.5103,0.6924,-0.0093,-0.2144,-2.0805,2030
15,0.2786,0.3845,0.8716,0.4344,-0.8407,-1.4607,2041
15,-1.5205,-0.8696,0.5105,0.8344,-1.3395,-1.0435,2066
15,-1.9998,-2.0,-0.1262,1.551,-2.283,-0.5898,2091
15,-1.1985,-2.0,-0.967,-0.8676,-2.4975,-0.7994,2061
15,0.0105,-1.2769,-1.9558,-1.6904,-1.8891,-0.5091,2028
15,1.7095,-1.2693,-2.0,-0.0478,-3.6424,-1.947,1969
15,1.7549,-1.543,-0.9846,-0.2333,-3.5448,-2.966,2032
15,0.1602,-0.374,-0.2241,-0.0515,0.8692,-3.3905,2051
15,-1.0627,-0.4663,-0.0928,0.7413,2.6882,-1.768,2063
15,-1.4741,-2.0,-0.2483,0.5327,2.8067,-2.1549,2056
15,-0.2693,-1.1687,0.7522,0.2032,2.5904,-1.6392,2083
15,1.5422,-0.0042,1.6384,0.9818,0.9082,-1.9443,2025
15,1.9999,-2.0,1.6816,-1.0524,-1.1504,-1.132,2004
15,1.6172,-1.4907,0.0112,-0.9214,-2.1407,-0.8814,1992
15,1.0874,-0.6548,-0.8674,-0.4755,-2.0947,-1.1359,2043
15,0.3984,-0.7017,-1.3997,0.347,-1.3697,-1.0385,2049
15,-0.3892,-0.5151,-1.2405,0.3089,-0.1722,-0.611,2053
15,-0.3816,-0.6826,-0.9558,0.1991,0.66,-1.0813,2072
15,0.0222,-0.9275,-0.6228,0.3686,0.6929,-0.9048,2037
15,0.4314,-1.0205,-0.1052,0.367,0.812,-0.6979,2031
15,0.4138,-1.1699,0.1343,0.3278,0.5846,-0.5907,2035
15,0.2332,-1.0693,-0.0615,0.4287,0.1515,-0.5549,2017
15,-0.0315,-0.9773,-0.3757,0.7103,0.0703,-0.6164,2030
15,-0.1448,-0.8801,-0.6321,1.0419,0.281,-0.6801,2007
15,-0.3003,-0.9114,-0.6504,1.1656,0.4785,-0.8664,2078
15,-0.311,-0.8625,-0.5454,0.9553,0.4105,-1.0597,2050
15,-0.3074,-0.8997,-0.5325,0.7245,0.2782,-1.254,2030
15,-0.2908,-0.9607,-0.4316,0.6839,0.1708,-1.2904,2058
15,-0.4065,-0.8909,-0.4756,0.6675,0.3253,-1.2531,2015
15,-0.5933,-0.7915,-0.4294,0.5116,0.191,-0.9412,2020
15,-0.1082,-0.9314,-0.2678,0.52,0.3826,-1.3853,2039
15,0.2148,-0.9897,-0.2332,0.5014,0.1695,-1.4368,2031
15,0.0642,-0.8564,-0.2307,0.4798,-0.1408,-1.485,2026
15,0.1267,-0.9092,-0.1848,0.4337,-0.2457,-1.6455,2021
15,-0.0972,-0.8579,-0.2656,0.6285,-0.1563,-1.4881,2021
15,0.1562,-0.865,-0.1836,0.5944,-0.0666,-1.256,2066
15,0.1848,-0.9019,-0.2673,0.7248,-0.0274,-0.8022,2039
15,0.4722,-0.99,-0.2102,0.7026,0.008,-1.5307,2061
15,0.4277,-0.9626,-0.2339,0.4879,-0.0726,-1.3046,2028
15,0.1472,-0.9404,-0.2686,0.5413,-0.0997,-1.1958,2021
15,0.2395,-0.9473,-0.292,0.4922,-0.0161,-1.4061,2049
15,0.1731,-0.9883,-0.2822,0.4255,0.0138,-1.4668,2032
15,0.0806,-0.9458,-0.3562,0.4721,0.1697,-1.5017,2011
15,0.0659,-0.9709,-0.4424,0.5378,0.3129,-1.5617,2032
15,0.0745,-1.0889,-0.5339,0.6071,0.3931,-1.644,2037
15,0.0515,-1.2483,-0.5745,0.6548,0.5538,-1.6044,2184
15,-0.061,-1.2419,-0.5081,0.5413,0.6461,-1.6677,1966
15,-0.2258,-1.2754,-0.571,0.5295,0.6019,-1.7136,2005
15,-0.3694,-1.2686,-0.4233,0.532,1.0063,-1.8266,1989
15,-0.3179,-1.1716,-0.3674,0.6831,1.0702,-1.8406,2018
15,-0.3501,-1.168,-0.3811,0.8256,1.1415,-2.0022,2017
15,-0.3369,-1.3083,-0.2971,0.9437,1.1495,-2.1345,2028
15,-0.2812,-1.3906,-0.437,1.0875,0.9345,-2.3934,2033
15,-0.4639,-1.4771,-0.4912,1.1447,0.9568,-2.5675,2050
15,-0.5896,-1.7295,-0.6248,1.1256,1.0067,-2.6689,2034
15,-0.8301,-1.6392,-0.6331,1.2243,1.1866,-2.8915,2038
15,-0.9954,-1.855,-0.5662,1.307,1.3376,-3.1311,2041
15,-1.2368,-1.8601,-0.4351,1.2978,1.5603,-3.5003,2050
15,-1.4692,-1.8992,-0.4729,1.1119,1.7548,-3.7679,2030
15,-1.1689,-1.8223,-0.6531,1.221,1.6499,-3.5672,2037
15,-0.4236,-2.0,-0.6362,1.4105,1.3328,-3.1432,2051
15,0.2056,-2.0,-0.5542,1.0491,0.717,-3.0475,2047
15,0.2932,-2.0,-0.5645,0.7488,0.6524,-2.7629,2068
15,0.6033,-1.53,-0.5454,1.0842,0.9999,-2.4858,2057
15,0.561,-0.8816,-0.3665,1.9953,1.3833,-2.2212,2059
15,1.0916,-1.0576,-0.0054,2.2751,1.3187,-2.6593,2037
15,0.2419,-1.113,0.0769,1.8182,1.3258,-1.3438,2028
15,0.3748,0.2251,0.3936,1.3416,0.8829,0.9962,2036
16,1.1304,0.426,-0.5159,0.7276,1.4937,1.1307,1977
16,1.0796,-2.0,-0.0981,1.4918,0.6841,-0.129,2018
16,1.5295,-1.5708,0.6851,0.966,0.3795,-1.0846,2043
16,1.1853,-0.8167,0.9521,0.65,1.3845,-1.0203,2066
16,1.4661,-0.5068,0.8906,1.1511,0.6558,-0.5504,2048
16,1.5042,-0.6631,0.5127,0.1222,-0.6283,-0.4887,2021
16,0.9536,-0.5691,0.2446,-1.7908,-1.1657,0.7325,2033
16,-0.0044,-0.2285,-0.0632,-3.2453,-1.2192,2.0715,2047
16,-0.1726,0.1326,-0.2639,-3.3764,-0.9014,2.7781,2042
16,0.011,0.0396,-0.3777,-2.7494,-0.3144,2.9727,2033
16,0.3174,-0.177,-0.2595,-1.4607,-0.4263,3.4139,2048
16,0.5417,-0.0229,-0.0242,-0.9452,-0.7084,3.5869,2050
16,0.6133,-0.0203,0.0618,-0.7686,-0.978,3.7611,2039
16,0.6599,-0.1785,0.0737,-0.9328,-0.9234,4.0781,2035
16,0.7158,-0.3013,-0.0303,-1.1721,-0.7542,4.3634,2039
16,0.7554,-0.3967,0.0999,-1.3583,-0.2513,4.3634,2035
16,0.6262,-0.3235,0.1738,-2.0572,0.1601,4.3634,2033
16,0.6497,-0.1479,0.0728,-2.3148,0.0241,4.3634,2032
16,0.6184,-0.1248,-0.0398,-2.2233,-0.2454,4.3634,2038
16,0.4941,-0.1543,-0.0562,-2.0297,-0.5035,4.3634,2037
16,0.5466,-0.1511,-0.0781,-1.7259,-0.7223,4.3634,2041
16,0.4495,-0.3005,-0.0972,-1.4689,-0.9215,4.3634,2047
16,0.5081,-0.4519,-0.1958,-1.608,-0.9099,4.3634,2041
16,0.7126,-0.6843,-0.2109,-1.7138,-0.4152,4.3634,2042
16,0.9055,-1.1257,0.248,-1.8417,0.6614,4.3634,2050
16,0.7229,-1.2073,0.2329,-2.1968,0.7762,4.3634,2044
16,0.739,-0.8481,-0.2739,-1.9648,0.2661,4.3634,2033
16,0.4226,-1.0095,-0.5537,-2.0283,1.1571,4.3634,2025
16,-0.2744,-1.2791,-0.6685,-1.8415,2.0537,4.3634,2039
16,0.6582,-1.7534,-0.0349,-1.5418,2.0636,4.3634,2064
16,0.6858,-1.9214,-0.0339,-1.9674,1.1978,4.2403,2014
16,0.2302,-1.4639,0.1228,-1.9206,-0.1342,3.0291,1985
16,-0.4331,-0.9756,0.0051,-0.9527,-1.1934,1.1368,1999
16,-0.9883,-1.0132,-0.7671,-0.3709,-1.0677,-0.7409,2029
16,-0.5959,-1.2056,-0.6777,0.4537,-0.7762,-1.6098,2075
16,0.054,-2.0,-0.1384,0.7935,-0.0117,-1.6082,2076
16,0.2588,-2.0,0.2598,-0.2152,0.4677,-2.0374,2048
16,1.9976,0.2546,0.7512,-0.7913,-0.1465,-2.5629,2049
16,-0.9839,0.3159,1.0679,1.0567,-0.3386,-1.7399,2023
16,-2.0,-1.8855,0.178,2.4506,0.1217,-1.2362,2087
16,-1.24,-2.0,-0.9814,0.1842,-1.0886,-1.2768,2078
16,-0.7412,-2.0,-2.0,-2.9681,-2.8454,-0.6819,2001
16,0.946,-1.364,-1.8,-1.1304,-4.3635,-2.5372,1963
16,1.9999,-1.4185,0.252,0.5047,-4.3635,-4.3635,1998
16,1.9999,0.1155,1.0615,1.1587,-0.5742,-4.3635,2074
16,0.6963,-0.2334,-0.7029,-0.2867,0.0752,-1.9125,2055
16,-1.8494,-1.7971,-1.8726,-2.2008,0.8156,-2.9975,2057
16,-0.6079,-1.1379,-0.7307,0.7452,0.6084,-2.1426,2029
16,1.9199,0.0276,1.3452,1.3968,1.4861,-2.1076,2051
16,1.9999,-2.0,1.4268,-0.8712,-1.1425,-0.0915,1938
16,0.7515,-1.2881,0.5476,-0.8853,-0.7051,-1.6406,2057
16,1.0762,-0.6765,0.0127,-0.7745,-1.2753,-1.2491,2025
16,0.6152,-0.7126,-0.4888,0.0676,-0.6913,-0.9973,2032
16,0.1169,-0.8679,-0.6033,0.4694,-0.2103,-0.9508,2043
16,0.0439,-1.0156,-0.606,0.4806,0.1091,-0.9851,2055
16,-0.0051,-0.9197,-0.636,0.3236,0.1125,-0.8967,2061
16,0.104,-1.009,-0.5408,0.4745,0.3441,-0.8098,2031
16,0.1875,-1.0701,-0.2856,0.4589,0.6232,-0.719,2039
16,0.1785,-1.0847,-0.1899,0.3892,0.6586,-0.6288,2035
16,0.1682,-0.9727,-0.1924,0.4457,0.5268,-0.6189,2036
16,0.0093,-0.9246,-0.2842,0.5681,0.488,-0.5783,2027
16,-0.219,-0.9456,-0.3528,0.702,0.6468,-0.7698,2060
16,-0.2666,-0.9919,-0.3696,0.758,0.6114,-0.9112,2050
16,-0.1794,-0.9187,-0.4102,0.7327,0.5846,-1.1547,2052
16,-0.2727,-0.8564,-0.4492,0.6834,0.4622,-0.9501,2050
16,-0.385,-0.9568,-0.4619,0.7223,0.5446,-1.1625,2039
16,-0.1899,-0.9539,-0.4404,0.5384,0.5098,-1.0196,2034
16,-0.1721,-0.8882,-0.3503,0.3984,0.3063,-1.37,2016
16,-0.1262,-1.0068,-0.3052,0.4389,0.0828,-1.9069,2031
16,-0.1597,-0.8928,-0.2822,0.4821,-0.008,-1.3848,2045
16,-0.0039,-0.8142,-0.2139,0.2457,0.104,-1.5796,2007
16,0.0,-0.8828,-0.2297,0.3493,0.1133,-1.5535,2034
16,0.0515,-0.8452,-0.1948,0.5594,0.2629,-1.4142,2028
16,0.2927,-0.8882,-0.1199,0.6363,0.2618,-1.4743,2059
16,0.4253,-0.9683,-0.0935,0.5658,0.1293,-1.4928,2064
16,0.4124,-0.96,-0.123,0.4759,-0.0332,-1.4085,2034
16,0.262,-0.895,-0.2419,0.4388,-0.035,-1.4675,2032
16,0.2444,-0.9297,-0.3311,0.5067,0.0032,-1.4094,2075
16,0.2937,-1.0078,-0.3589,0.5217,0.1645,-1.4623,2035
16,0.1763,-1.0789,-0.3696,0.5007,0.2424,-1.4583,2008
16,0.1084,-1.0859,-0.4458,0.5022,0.4151,-1.5584,2061
16,0.0266,-1.1167,-0.4749,0.5529,0.5635,-1.5872,2027
16,-0.0398,-1.239,-0.4497,0.6007,0.7549,-1.6531,2042
16,-0.1753,-1.3333,-0.4297,0.6509,0.9005,-1.7275,2012
16,-0.2898,-1.3684,-0.3958,0.636,0.9837,-1.7847,2066
16,-0.3657,-1.3489,-0.3362,0.7191,1.0108,-1.8683,2036
16,-0.4124,-1.2678,-0.2871,0.8116,0.8372,-2.0142,2049
16,-0.3845,-1.2698,-0.3787,0.9937,0.3898,-2.2774,2035
16,-0.6021,-1.4519,-0.551,1.1212,0.3281,-2.5125,2037
16,-0.8818,-1.6467,-0.6377,1.1654,0.6624,-2.633,2040
16,-1.0664,-1.6692,-0.6814,1.2192,0.9794,-2.8725,2048
16,-1.2251,-1.8037,-0.636,1.2507,1.3151,-3.0379,2051
16,-1.2883,-1.9224,-0.5471,1.2073,1.5984,-3.2784,2040
16,-1.3079,-1.9988,-0.4551,1.2149,1.8133,-3.786,2047
16,-1.4451,-1.9863,-0.3706,1.2083,2.0547,-4.0041,2052
16,-1.2773,-2.0,-0.3501,1.0046,2.0731,-3.2206,2040
16,-0.9993,-2.0,-0.3115,0.7785,2.1128,-3.214,2029
16,0.0312,-1.6084,-0.5151,0.3513,1.8856,-3.2513,2049
16,0.6133,-1.6013,-0.6719,1.042,1.7989,-2.7269,2054
16,0.8628,-1.0571,-0.6021,1.478,1.9141,-2.2148,2065
16,1.3794,-1.3152,-0.2188,2.5256,2.1346,-2.7048,2048
16,0.9241,-1.3257,-0.2219,2.4693,1.9331,-2.0579,2051
17,1.0747,-0.6377,0.4243,2.857,0.1563,-0.3698,2042
17,1.9999,0.5063,0.3511,2.64,-0.014,0.1107,1973
17,0.3164,-1.2583,-0.7471,-0.3955,0.7074,2.2843,2024
17,1.7058,-2.0,0.4692,1.707,0.0352,-0.7588,2005
17,1.6472,-0.9683,1.0796,-0.1112,1.3352,-1.7727,2028
17,1.613,-0.3918,1.0999,1.3828,0.6356,-1.5315,2054
17,1.8521,-0.53,0.6431,0.5726,-0.8726,-1.1505,2048
17,1.7952,-0.5552,0.3508,-1.2716,-1.5131,-0.0724,2040
17,0.3159,-0.0559,0.0981,-2.8802,-1.831,1.6636,2053
17,-0.2275,0.2427,-0.1042,-3.1497,-1.6824,2.6255,2041
17,-0.3008,0.1416,-0.2598,-3.2344,-0.8862,2.7472,2033
17,0.0391,-0.0132,-0.4163,-2.0948,-0.5849,3.3191,2042
17,0.3379,0.1428,-0.1284,-1.115,-0.9672,3.801,2052
17,0.5312,0.137,0.02,-0.8167,-1.2451,3.7629,2039
17,0.5632,0.0579,0.1035,-0.7545,-1.1445,3.9578,2038
17,0.7139,-0.0771,0.1169,-0.9863,-0.812,4.3185,2033
17,0.7664,-0.2002,0.1089,-1.3227,-0.403,4.3634,2041
17,0.7793,-0.1931,0.0061,-1.4731,-0.2068,4.3634,2043
17,0.6572,-0.2314,0.2461,-2.0835,0.3682,4.3634,2034
17,0.5647,-0.1562,0.1157,-2.5963,0.2751,4.3634,2032
17,0.5625,-0.0188,-0.0142,-2.5031,0.0465,4.3634,2034
17,0.5559,-0.0503,-0.0439,-2.2815,-0.2859,4.3634,2036
17,0.5476,-0.0662,0.0332,-2.1927,-0.6899,4.3634,2042
17,0.4724,-0.095,-0.1338,-1.7623,-1.0504,4.3634,2040
17,0.6003,-0.4072,-0.1128,-1.4664,-1.218,4.3634,2033
17,0.9363,-0.9287,0.1372,-1.7391,-0.6577,4.3634,2052
17,1.0593,-1.1199,0.5479,-2.2871,-0.2398,4.3634,2058
17,0.9902,-1.0972,0.3181,-2.4297,-1.0106,4.3634,2056
17,0.6865,-1.1157,-0.1858,-1.8576,-1.1415,4.3634,2024
17,0.229,-1.3977,-0.4194,-1.3766,-0.5914,4.3634,1994
17,0.0513,-1.699,-0.459,-1.4599,0.2164,4.3634,2035
17,-0.4092,-1.679,-0.3398,-2.2075,0.8293,3.9877,1995
17,-0.6194,-1.2671,-0.6741,-2.0521,1.4708,3.6355,2032
17,-0.3752,-1.3447,-0.6003,-1.3315,1.664,2.2182,2054
17,-0.4131,-1.2659,-0.2629,-1.4547,0.7581,0.5167,2052
17,-0.4668,-1.0518,-0.571,-0.346,0.7092,-0.5711,2055
17,0.2332,-1.1848,-0.4187,0.64,0.0346,-1.4502,2067
17,0.6267,-1.8921,-0.0774,0.5453,-0.6365,-2.1742,2040
17,0.9041,-1.2954,-0.0459,-0.193,-0.9634,-2.4356,2018
17,0.7556,-0.7402,-0.0327,0.277,-1.5,-2.5156,2024
17,0.1445,-1.2959,0.0232,-0.1056,-0.6596,-2.5044,2024
17,-0.1128,0.2358,0.6877,-0.5835,0.1491,-2.4229,2043
17,-2.0,-0.4783,0.4814,0.7034,0.2522,-0.4028,2072
17,-2.0,-2.0,-0.23,0.4232,-0.2554,-1.0399,2120
17,-0.3555,-2.0,-1.1182,-1.9975,-1.3904,-0.9242,2041
17,0.7952,-1.0754,-0.8662,-1.866,-1.4747,-0.6351,2000
17,1.9999,-1.3772,-0.7991,0.1477,-4.1385,-2.694,1981
17,1.6445,-1.5959,0.4438,0.295,-3.7777,-3.946,2027
17,0.1831,-0.0139,0.3389,0.9139,0.177,-3.2552,2048
17,-1.1375,-0.9155,-0.6196,0.8542,0.4886,-2.2121,2046
17,-1.4722,-2.0,-1.2524,-3.0191,0.4433,-3.4017,2070
17,0.8423,0.3901,0.0242,0.7739,0.6913,-1.6518,1985
17,1.9636,-1.2183,1.3916,-0.1076,-0.8223,-2.6188,2000
17,0.9583,-1.3237,0.3132,-1.8405,-0.7861,-1.2543,2005
17,1.022,-0.8037,0.0698,-0.4839,-0.5267,-1.2593,2066
17,1.0745,-0.6384,-0.5686,0.0605,-0.426,-1.0983,2040
17,0.5208,-0.9053,-0.5916,0.3273,-0.2441,-0.8542,2030
17,0.0193,-0.9485,-0.6479,0.2582,0.027,-0.8172,2073
17,-0.0466,-0.8579,-0.5894,0.2562,0.1932,-0.9076,2031
17,0.1467,-0.9229,-0.4773,0.553,0.347,-0.7909,2020
17,0.2502,-1.0447,-0.3076,0.693,0.6303,-0.6834,2023
17,0.3572,-1.0869,-0.2,0.6913,0.6846,-0.589,2015
17,0.2595,-1.0742,-0.1753,0.6906,0.5385,-0.5811,2008
17,0.0791,-0.9802,-0.2676,0.8343,0.3796,-0.6277,2056
17,-0.1091,-0.9192,-0.3748,0.914,0.359,-0.7638,2062
17,-0.1311,-0.9456,-0.3872,0.9178,0.4381,-0.9175,2048
17,-0.301,-0.9255,-0.4524,1.0228,0.448,-0.9564,2060
17,-0.449,-1.01,-0.4097,0.9072,0.4404,-1.2228,2054
17,-0.4829,-1.0364,-0.4285,0.6165,0.7007,-1.5102,2025
17,-0.5884,-0.8286,-0.4573,0.6505,0.384,-1.0291,2024
17,-0.3721,-1.0544,-0.4399,0.6778,0.3209,-1.0168,2038
17,0.0154,-0.7175,-0.2966,0.2915,-0.1693,-1.1272,2052
17,0.0698,-0.9309,-0.2241,0.3119,-0.3927,-1.7692,2040
17,-0.4409,-0.7363,-0.3486,0.4105,-0.3196,-1.5673,2031
17,-0.1736,-0.7395,-0.2405,0.4697,0.0613,-1.4657,1994
17,0.2734,-0.8647,-0.0518,0.6526,0.1638,-1.322,2096
17,0.5854,-0.9309,-0.0442,0.6446,-0.1304,-1.3989,2043
17,0.6006,-1.0024,-0.0691,0.5702,-0.2192,-1.4741,2051
17,0.3259,-0.9756,-0.2659,0.4472,-0.1842,-1.4267,2049
17,0.2415,-0.9358,-0.3315,0.4137,-0.0302,-1.3556,2055
17,0.3083,-1.0376,-0.3306,0.4073,0.1888,-1.2146,2039
17,0.3093,-0.9504,-0.342,0.3927,0.3168,-1.2758,2074
17,0.1819,-0.8716,-0.3679,0.4265,0.5201,-1.3683,2030
17,0.054,-0.9634,-0.4417,0.5233,0.6727,-1.447,1998
17,0.0322,-1.0757,-0.479,0.5802,0.7653,-1.5546,2048
17,-0.022,-1.1829,-0.4551,0.6375,0.9058,-1.5611,2092
17,-0.1223,-1.3386,-0.4255,0.6388,1.0383,-1.6647,2065
17,-0.209,-1.342,-0.3721,0.6119,1.1698,-1.6656,2074
17,-0.2944,-1.2812,-0.334,0.6887,1.2481,-1.7733,2039
17,-0.2124,-1.3215,-0.269,0.8669,1.0733,-1.8201,2047
17,-0.2834,-1.3762,-0.2671,0.8642,0.8622,-2.0688,2044
17,-0.4873,-1.4238,-0.3757,0.9594,0.8415,-2.2501,2028
17,-0.6499,-1.5137,-0.4797,1.0903,0.9754,-2.444,2040
17,-0.8701,-1.6106,-0.5913,1.1172,1.0828,-2.6731,2045
17,-1.0513,-1.7092,-0.6709,1.1721,1.2576,-2.8717,2042
17,-1.1526,-1.8286,-0.73,1.2496,1.3576,-3.0857,2041
17,-1.3174,-1.9446,-0.6497,1.4111,1.5791,-3.4765,2039
17,-1.4587,-1.9404,-0.5129,1.3386,1.8178,-3.9381,2045
17,-1.1958,-1.9524,-0.3911,1.2663,1.9555,-3.855,2051
17,-0.8711,-2.0,-0.2976,1.3356,1.5707,-3.0871,2042
17,-0.335,-2.0,-0.4326,0.7915,1.2065,-3.1421,2039
17,0.5803,-1.6748,-0.7273,0.9001,0.9431,-2.9311,2050
17,0.8484,-1.4951,-0.6743,1.5332,1.0708,-2.3116,2067
18,0.9233,-1.2249,-0.6025,2.379,1.2105,-2.3204,2072
18,1.4197,-1.343,-0.3005,2.9436,1.0041,-2.6987,2038
18,0.7808,-1.4348,0.155,2.4986,0.9293,-1.3869,2070
18,0.7695,0.1687,0.5388,2.0631,-0.2723,0.4492,2011
18,1.5066,0.4292,-0.384,0.5561,0.8617,1.2247,1945
18,1.0222,-2.0,-0.2529,1.1729,0.1883,0.6726,2036
18,1.8042,-1.5227,0.6399,0.7902,-0.2409,-0.6549,2018
18,1.3281,-0.6702,0.8445,0.4177,0.9602,-1.0387,2053
18,1.6567,-0.4583,0.9829,1.5123,-0.2309,-0.8236,2049
18,1.8098,-0.5598,0.438,0.2722,-1.7034,-0.6561,2057
18,1.1887,-0.4541,0.1245,-1.2789,-2.1021,0.5175,2045
18,0.1211,0.0728,-0.0967,-2.6123,-2.1851,1.9704,2052
18,-0.1702,0.3481,-0.2419,-2.701,-1.9005,2.853,2040
18,-0.0403,0.2617,-0.3904,-2.4631,-1.1539,2.8725,2034
18,0.1716,-0.0481,-0.4128,-1.3388,-0.9467,3.5041,2049
18,0.4502,0.2258,-0.1685,-0.7419,-1.2587,3.7362,2050
18,0.5032,0.2087,-0.0708,-0.5416,-1.5226,3.8432,2038
18,0.5195,0.0315,-0.0178,-0.4951,-1.4398,4.1196,2038
18,0.6201,-0.1082,-0.0225,-0.763,-1.0785,4.3634,2044
18,0.6423,-0.1633,-0.0813,-1.089,-0.7026,4.3634,2037
18,0.7246,-0.1436,-0.1047,-1.0195,-0.336,4.3634,2045
18,0.6787,-0.3359,0.1301,-1.827,0.1892,4.3634,2032
18,0.6101,-0.1125,-0.0063,-2.2349,-0.0045,4.3634,2029
18,0.5601,0.019,-0.1069,-2.0595,-0.3859,4.3634,2033
18,0.5244,-0.021,-0.1135,-1.7136,-0.8184,4.3634,2032
18,0.53,-0.1001,-0.1929,-1.2515,-0.9813,4.3634,2039
18,0.4978,-0.3901,-0.2234,-1.1769,-1.1384,4.3634,2034
18,0.6208,-0.7085,-0.2378,-1.4605,-0.9786,4.3634,2037
18,0.8977,-1.0332,-0.0039,-1.7652,-0.3779,4.3634,2062
18,1.0813,-1.3196,0.3599,-2.1683,0.1212,4.3634,2072
18,0.8318,-1.4028,0.2786,-2.0861,0.3559,4.3634,2041
18,0.1301,-1.0693,-0.2966,-2.1614,-0.0961,4.3634,2031
18,-0.4099,-1.1973,-1.04,-1.6339,1.5001,4.3634,2020
18,-0.0854,-1.939,-0.6555,-1.7112,2.9814,4.3634,2037
18,0.02,-1.7512,-0.468,-2.5304,3.5786,3.9881,2024
18,0.127,-1.1907,-0.6243,-2.3293,2.79,3.3837,2019
18,0.0083,-1.3279,-0.3262,-1.4507,1.2826,1.7974,2019
18,-0.2925,-0.947,-0.1665,-1.0559,0.0771,-0.0112,2048
18,-0.3059,-1.1133,-0.542,0.3237,-0.0542,-1.3434,2043
18,0.2136,-1.6836,-0.2393,0.3356,-0.537,-1.7896,2085
18,0.8215,-1.5447,-0.051,-0.2545,-1.1312,-2.1526,2068
18,0.4409,-2.0,0.2104,0.6673,-1.4328,-2.3938,1990
18,0.5095,-0.9663,0.5293,-0.9641,-0.8857,-2.0674,2035
18,-0.1909,0.9946,0.6626,-0.3761,-0.7381,-1.1083,2037
18,-2.0,-1.2161,0.2329,1.1678,-0.6958,-1.3422,2061
18,-1.5872,-2.0,-0.1409,0.7704,-1.3503,-1.3584,2174
18,-0.4729,-2.0,-1.0425,-1.7054,-1.8578,-0.7927,2104
18,0.6628,-1.1755,-1.1902,-1.0094,-2.6509,-1.6202,2048
18,1.9875,-1.6831,-1.2881,0.2366,-4.3635,-2.5254,1966
18,1.1343,-0.9546,0.3,0.0597,-2.8715,-4.0407,1941
18,0.4749,0.1138,0.0581,1.0746,0.3904,-3.2142,1952
18,-0.9065,-1.1204,-0.7776,0.3116,0.3737,-2.2812,2024
18,-1.3623,-2.0,-0.8555,-0.6895,0.7008,-2.5808,2069
18,1.073,-0.0657,0.7915,0.3662,2.3421,-1.9174,2042
18,1.9999,-2.0,1.8545,0.2364,-0.0933,-1.5958,1963
18,1.0129,-1.105,0.6133,-1.1941,-0.7954,-1.1995,2042
18,1.345,-0.8176,0.1743,-0.5339,-0.9508,-1.1666,2036
18,0.9253,-0.9023,-0.5796,0.0273,-1.1183,-1.0042,2002
18,0.3391,-0.8806,-0.6741,0.5931,-0.5333,-0.8215,2008
18,-0.083,-0.8777,-0.7156,0.3914,0.1281,-0.8114,2050
18,-0.0698,-0.8369,-0.6968,0.3787,0.31,-0.7592,2089
18,0.1106,-0.9368,-0.5046,0.6887,0.338,-0.6801,2093
18,0.2864,-1.0857,-0.231,0.7561,0.5878,-0.5588,2021
18,0.2917,-1.0728,-0.1167,0.577,0.6465,-0.4424,2056
18,0.1284,-0.979,-0.2468,0.658,0.4257,-0.4642,2025
18,-0.0913,-0.9241,-0.3882,0.9148,0.3571,-0.4536,2021
18,-0.3887,-0.9653,-0.4468,1.1291,0.3177,-0.8819,2037
18,-0.575,-1.0073,-0.4304,0.9822,0.3418,-1.1101,2056
18,-0.582,-0.9282,-0.4434,0.9397,0.2686,-1.5468,2045
18,-0.7708,-0.9817,-0.4705,0.8171,-0.037,-1.5583,2025
18,-0.6753,-0.8464,-0.4873,0.5763,-0.1369,-1.3422,2032
18,-0.3279,-0.823,-0.4299,0.5823,-0.1782,-1.4885,2051
18,-0.2339,-1.0723,-0.3235,0.4665,-0.2224,-1.7407,2004
18,0.0649,-0.7473,-0.2334,0.2766,-0.4428,-1.7928,2032
18,-0.061,-0.8572,-0.2019,0.5111,-0.3233,-1.9154,2082
18,-0.0022,-0.8264,-0.189,0.5673,0.0302,-1.7594,2040
18,0.1709,-0.7769,-0.1062,0.6257,0.1811,-1.6036,2046
18,0.5212,-0.8477,-0.0081,0.77,0.0798,-1.5841,2062
18,0.5996,-1.0176,-0.0315,0.7601,-0.1919,-1.4969,2022
18,0.52,-0.9685,-0.1433,0.651,-0.2175,-1.6021,2038
18,0.3081,-0.9104,-0.2483,0.5288,-0.1667,-1.5078,1988
18,0.3438,-0.8735,-0.2922,0.5707,-0.0047,-1.5036,2060
18,0.3779,-1.0459,-0.3145,0.6116,0.0977,-1.4042,2052
18,0.252,-1.0781,-0.3008,0.5667,0.2514,-1.4142,2030
18,0.0874,-1.012,-0.3665,0.555,0.4729,-1.4592,2045
18,-0.012,-1.0244,-0.4441,0.6441,0.6863,-1.5307,2025
18,-0.0244,-1.1223,-0.4644,0.6689,0.8612,-1.6121,2023
18,-0.0884,-1.1643,-0.488,0.7541,0.9901,-1.6721,2045
18,-0.1948,-1.2781,-0.4678,0.7879,1.0837,-1.7654,2019
18,-0.3398,-1.2908,-0.4343,0.8214,1.2119,-1.8271,2007
18,-0.3279,-1.1877,-0.324,0.9052,1.2187,-1.9507,2059
18,-0.2737,-1.321,-0.2146,0.9568,0.9056,-2.0382,2023
18,-0.4148,-1.2622,-0.3521,1.0632,0.6654,-2.2991,2047
18,-0.5576,-1.3862,-0.4846,1.24,0.6683,-2.5181,2043
18,-0.688,-1.6279,-0.6284,1.3427,0.7416,-2.6544,2043
18,-0.8694,-1.6943,-0.6951,1.4334,0.9427,-2.828,2044
18,-1.0198,-1.8284,-0.7944,1.4701,1.0308,-3.0311,2041
18,-1.1765,-2.0,-0.6638,1.6032,1.2792,-3.2155,2044
18,-1.4556,-2.0,-0.5127,1.4537,1.5559,-3.5212,2045
18,-1.2622,-1.8726,-0.416,1.329,1.8044,-3.737,2063
18,-0.7925,-1.8894,-0.4402,1.4976,1.3688,-3.6414,2075
18,-0.3157,-2.0,-0.6538,1.3716,0.7248,-2.9618,2059
18,0.0149,-2.0,-0.689,1.2246,0.5888,-3.0293,2078
19,0.4866,-1.5991,-0.9741,1.7034,0.5789,-2.8237,2125
19,0.8845,-1.1628,-1.084,2.4233,0.5904,-2.2391,2099
19,1.9507,-1.9915,0.033,3.0329,0.9457,-2.0326,2034
19,1.7288,-1.5046,0.2593,2.9223,-0.2075,-1.6462,2026
19,0.7288,-0.5408,0.4941,2.2674,-0.3418,-1.0206,2103
19,0.7219,0.7686,-0.1157,0.5216,-0.93,1.4198,2293
19,1.9999,-2.0,-0.0076,1.2601,-0.9455,-0.8316,1809
19,1.7561,-1.8999,0.5056,0.143,-1.3865,-1.3842,1779
19,1.1064,-0.6956,0.7046,0.4434,-0.8473,-1.3177,1931
19,1.1592,-0.2117,0.7817,1.28,-1.3186,-0.8186,2042
19,1.4414,-0.2578,0.4456,0.1354,-2.2549,-0.4631,2037
19,0.8628,-0.2217,0.1216,-1.2613,-2.6569,1.1218,2058
19,-0.0598,-0.2598,-0.1184,-2.3124,-2.5398,2.0289,2076
19,-0.1218,0.0171,-0.3804,-2.624,-2.0064,2.5517,2049
19,0.0725,0.1021,-0.4712,-1.9271,-1.5949,3.2026,2032
19,0.3906,0.0747,-0.364,-1.1915,-1.4912,3.3979,2011
19,0.552,0.1316,-0.2678,-0.9015,-1.335,3.4544,2006
19,0.4629,0.0452,-0.2437,-0.7216,-1.0688,3.7131,2030
19,0.5974,-0.0215,-0.209,-0.6565,-0.8363,3.993,2042
19,0.8057,-0.0906,-0.136,-0.9565,-0.6572,4.3634,2039
19,0.5967,-0.1023,-0.1733,-1.3079,-0.3663,4.3634,2036
19,0.4963,-0.147,-0.2668,-1.1447,-0.2617,4.3634,2047
19,0.5378,-0.2405,-0.0188,-1.3101,0.4008,4.3634,2058
19,0.5005,-0.137,0.0298,-1.6319,0.3721,4.3634,2045
19,0.334,-0.0962,0.022,-1.7033,0.0265,4.3634,2022
19,0.5103,-0.1753,-0.0776,-1.3894,-0.1814,4.3634,2029
19,0.7258,-0.3289,0.001,-1.1208,-0.5063,4.3634,2036
19,0.6692,-0.5603,0.103,-1.5992,-0.7798,4.3634,2044
19,0.719,-0.6594,0.054,-1.8952,-0.9067,4.3634,2048
19,0.9385,-0.7722,0.0913,-2.067,-0.7088,4.3634,2047
19,1.1072,-0.9673,0.3452,-2.0767,-0.2992,4.3634,2053
19,1.2861,-1.1721,0.4761,-2.4567,-0.5196,4.3634,2040
19,0.5498,-1.2961,0.2183,-2.6426,-0.4572,4.3634,2029
19,-0.4036,-0.8784,-0.7644,-2.3518,-0.3157,4.3634,2035
19,-0.3398,-0.9773,-1.0146,-1.9568,1.6199,4.3634,2021
19,0.1687,-1.8823,-0.6611,-1.4249,2.8963,4.3634,2019
19,0.1641,-1.8713,-0.9272,-2.2356,3.6296,3.8283,2016
19,-0.0681,-1.4719,-0.7234,-2.2473,2.9934,2.952,1962
19,-0.2036,-1.1772,-0.0566,-1.3025,1.1356,1.1973,1950
19,-0.4968,-1.0691,-0.2822,-0.3225,0.3803,-0.824,1986
19,0.2979,-1.1985,-0.1636,0.5398,-0.1964,-1.5169,2085
19,0.9937,-1.8911,0.0066,0.169,-0.62,-2.2324,2160
19,1.0327,-1.1907,0.1846,-0.0013,-0.8985,-2.4675,2118
19,0.2734,-1.4871,0.4258,0.7152,-1.1001,-2.2867,2025
19,0.3657,0.1641,0.969,-0.4193,-0.2924,-2.5663,2030
19,-1.1526,-0.0334,0.7295,0.561,0.3886,-1.6301,2038
19,-2.0,-2.0,-0.0808,2.0162,-0.418,-0.8621,2158
19,-1.1599,-2.0,-1.4778,-0.3032,-3.1638,-0.8602,2225
19,-0.1284,-1.8586,-2.0,-3.5587,-3.164,0.086,2079
19,0.7634,-0.0237,-1.4248,-0.1874,-1.5908,-1.3705,1964
19,1.9999,-1.9956,-0.0872,0.9597,-3.568,-3.613,1846
19,0.0796,-1.0664,0.3552,0.7955,0.7506,-4.3635,1911
19,-1.6311,-1.064,-0.179,0.8212,3.7944,-1.8876,2020
19,-1.5425,-2.0,-0.0586,-0.4418,1.9185,-4.0065,2119
19,1.9999,0.0078,0.519,0.6261,-0.239,-0.8612,2079
19,1.887,-0.4331,1.0464,0.1039,-1.3707,-0.4257,1978
19,1.8245,-0.9717,0.8579,-1.0544,-1.6571,-2.3446,2019
19,1.1089,-1.2883,-0.5667,-1.2523,-1.0373,-1.1978,2002
19,0.5293,-0.7317,-0.7769,-0.5408,-0.2284,-0.8995,2092
19,0.0464,-0.4109,-0.9902,0.1213,0.3834,-0.693,2093
19,-0.0979,-0.6714,-0.7466,0.488,0.7155,-0.966,2082
19,0.1655,-1.0542,-0.3486,0.3177,0.3362,-1.0098,2074
19,0.406,-1.1619,-0.1084,0.2554,0.353,-0.7419,2055
19,0.4512,-1.0227,-0.1074,0.3806,0.4492,-0.5846,2030
19,0.3396,-0.9673,-0.252,0.6067,0.438,-0.538,1990
19,0.0464,-0.9517,-0.4104,0.7746,0.4056,-0.558,2013
19,-0.1255,-0.9812,-0.4712,1.001,0.3926,-0.6996,2033
19,-0.0938,-0.8879,-0.4587,0.9106,0.3906,-0.8312,2048
19,-0.1292,-0.9741,-0.4927,0.8481,0.4093,-1.0047,2076
19,-0.2241,-0.9138,-0.4807,0.8389,0.2495,-1.3673,2055
19,-0.5325,-0.8777,-0.5283,0.963,0.0216,-1.5569,2029
19,-0.5549,-0.884,-0.5107,0.7255,0.0759,-1.4984,2060
19,-0.7671,-0.918,-0.4656,0.2384,0.1381,-0.9452,2062
19,-0.2356,-0.5164,-0.3489,0.3814,0.3773,-1.697,2088
19,-0.0051,-1.1541,-0.3396,0.5317,0.0333,-1.98,2048
19,-0.4104,-1.0764,-0.3452,0.4919,-0.3192,-0.8697,2036
19,0.3853,-0.7473,-0.1782,0.3934,-0.0256,-1.6376,2012
19,0.1189,-0.9006,-0.1387,0.5105,-0.0077,-1.4968,2035
19,0.2417,-0.8459,-0.1404,0.6236,-0.0605,-1.1857,2046
19,0.3135,-0.873,-0.1401,0.7877,-0.1485,-0.9204,2025
19,0.4939,-0.9165,-0.1426,0.7241,-0.07,-1.223,2035
19,0.5208,-1.0063,-0.1699,0.5733,-0.179,-1.5235,2034
19,0.3025,-0.9111,-0.2888,0.4482,-0.065,-1.4918,2032
19,0.2068,-0.9048,-0.374,0.4904,0.1409,-1.4601,2058
19,0.145,-0.9912,-0.3975,0.5064,0.4012,-1.4661,2025
19,0.0593,-1.0276,-0.375,0.4829,0.7038,-1.4572,2008
19,0.0593,-1.0447,-0.4414,0.5225,0.8757,-1.4893,2007
19,0.1077,-1.1252,-0.4517,0.6181,0.9431,-1.646,2027
19,0.0305,-1.2678,-0.4805,0.6148,0.9886,-1.7137,2089
19,-0.3215,-1.2913,-0.5242,0.644,1.1893,-1.8076,1967
19,-0.4084,-1.2717,-0.4673,0.6675,1.3484,-1.8413,2060
19,-0.3171,-1.3083,-0.3989,0.7072,1.3123,-2.0226,2040
19,-0.3306,-1.3162,-0.3054,0.8002,1.0725,-2.1285,2031
19,-0.4934,-1.3062,-0.4114,0.9339,0.7613,-2.421,2042
19,-0.7991,-1.3806,-0.5481,1.0519,0.8091,-2.6356,2047
19,-0.9421,-1.5901,-0.6323,1.1178,0.954,-2.8558,2050
19,-1.1062,-1.6621,-0.7246,1.2493,1.2339,-3.1251,2045
19,-1.2913,-1.8406,-0.7798,1.2656,1.5712,-3.3235,2040
19,-1.4802,-2.0,-0.6165,1.2876,2.0042,-3.4663,2043
19,-1.5305,-2.0,-0.429,1.2363,2.4004,-3.8087,2052
19,-1.3252,-1.9756,-0.3142,1.0903,2.5766,-3.995,2062
19,-0.7939,-1.9661,-0.3159,1.2022,2.2402,-3.796,2079
19,-0.2163,-2.0,-0.5581,1.0698,1.6418,-3.3621,2071
20,0.4482,-1.9434,-0.8,1.0479,0.9417,-2.8662,2116
20,1.0762,-1.6394,-0.686,1.6898,0.9148,-2.5252,2117
20,1.0684,-1.2087,-0.6582,2.5633,0.6441,-2.3113,2099
20,1.7205,-1.4543,-0.2668,3.0676,0.3914,-2.7759,2017
20,1.1284,-1.5735,0.3174,2.8046,0.575,-1.4745,2118
20,0.8171,0.0527,0.9331,2.3621,-0.226,-0.0385,2256
20,1.4717,0.3694,-0.0842,0.3225,0.8453,0.5532,1843
20,1.1055,-2.0,-0.3315,-0.0688,0.5715,0.2073,1977
20,1.8643,-1.6704,0.6638,0.142,0.1914,-1.0015,1891
20,1.1726,-0.582,0.9519,0.1599,0.9724,-1.1874,1907
20,1.4944,-0.1599,1.02,1.1163,0.2926,-0.7698,2000
20,1.6389,-0.2588,0.5557,-0.2412,-0.7749,-0.2678,2038
20,0.782,-0.2319,0.1963,-1.9315,-1.0871,1.3444,2073
20,-0.1943,-0.0532,-0.0396,-2.9943,-1.1227,2.2075,2052
20,-0.0115,-0.0247,-0.1772,-3.4235,-0.766,2.5812,2043
20,0.1299,0.136,-0.2668,-2.3931,-0.5197,3.3925,2030
20,0.2903,0.1423,-0.1243,-1.3946,-0.6256,3.853,2038
20,0.5312,0.1531,-0.0032,-1.1404,-0.7502,3.7548,2034
20,0.5479,0.0916,0.0337,-1.0979,-0.8432,3.984,2036
20,0.6399,0.0,0.0464,-1.1419,-0.7231,4.3353,2044
20,0.7498,-0.063,0.0486,-1.3884,-0.4393,4.3634,2034
20,0.8113,-0.0962,0.0115,-1.3195,-0.2065,4.3634,2052
20,0.8049,-0.1975,0.2402,-1.9379,0.3595,4.3634,2048
20,0.7744,-0.1702,0.1658,-2.4804,0.1161,4.3634,2032
20,0.6641,0.04,0.0884,-2.529,-0.2361,4.3634,2032
20,0.5828,0.0603,0.0322,-2.2228,-0.5991,4.3634,2032
20,0.4185,0.0598,0.001,-1.9927,-0.9066,4.3634,2038
20,0.3706,-0.0037,-0.2205,-1.5636,-1.1832,4.3634,2045
20,0.5503,-0.2292,-0.2593,-1.2728,-1.415,4.3634,2027
20,0.8474,-0.635,-0.0964,-1.5869,-0.722,4.3634,2025
20,1.1052,-1.0249,0.3308,-2.005,-0.2641,4.3634,2044
20,1.0081,-1.1274,0.4158,-2.4904,-0.2974,4.3634,2056
20,0.8792,-0.9548,-0.0759,-2.0194,-0.8022,4.3634,2040
20,0.2244,-1.1562,-0.6086,-1.6467,-0.2091,4.3634,2020
20,-0.3333,-1.4719,-0.5674,-1.647,1.0955,4.3634,1994
20,-0.116,-1.8083,-0.5684,-1.6432,2.1274,4.3634,1991
20,-0.3035,-1.6694,-0.7566,-2.449,2.6115,4.1442,1982
20,-0.0498,-1.4949,-0.6965,-1.9041,2.2525,3.1283,1981
20,-0.5657,-1.179,-0.3064,-1.3687,1.1395,1.2655,1996
20,-0.8452,-0.9626,-0.7031,-0.3219,1.3154,-0.487,2032
20,0.1794,-1.3733,-0.4282,0.5059,0.7399,-1.3708,2127
20,0.8237,-1.9211,0.0068,0.5713,0.226,-2.0623,2168
20,0.29,-2.0,0.2854,-0.3129,0.2336,-2.1596,2054
20,1.23,0.0867,0.6211,-0.7433,-0.2085,-2.4742,2085
20,-1.0823,0.8157,0.8005,0.7648,-0.5042,-1.1589,2076
20,-2.0,-1.6729,-0.1091,2.2659,-0.6807,-1.0836,2103
20,-1.5198,-2.0,-0.9082,-0.6801,-0.8742,-1.294,2178
20,-0.4783,-1.9087,-1.1072,-2.5433,-1.3882,-0.0385,2121
20,-0.1917,0.8416,-0.2976,-0.5207,0.5621,-1.5211,1972
20,1.5674,-2.0,-0.0903,2.6765,-1.9756,-2.8271,1903
20,1.9999,-2.0,-0.4424,0.7488,-3.1255,-3.8723,1978
20,0.6565,-0.3533,-0.0369,-0.3469,0.0077,-3.8809,2004
20,-0.5505,-0.2114,-0.8132,0.0281,0.1924,-2.2557,2024
20,-0.7561,-1.7581,-1.0161,-0.2602,0.2762,-2.3684,2033
20,0.2422,-0.6343,-0.4097,-0.4259,1.5265,-2.2305,2085
20,1.9999,-1.5479,1.0354,0.8927,0.1916,-1.3427,2038
20,1.531,-0.9932,0.6692,-1.1697,-0.7119,-1.2661,2028
20,0.8037,-0.8574,0.0833,-0.7851,-0.0979,-1.3224,2050
20,0.8538,-0.7915,-0.1335,0.0107,-0.532,-1.0497,2069
20,0.6995,-0.7966,-0.3977,0.3759,-0.5279,-0.9009,2028
20,0.3242,-0.9839,-0.4346,0.4184,-0.3412,-0.862,2036
20,0.147,-0.9033,-0.5659,0.1282,-0.0671,-0.7869,2059
20,0.0547,-0.884,-0.6191,0.2466,0.204,-0.71,2070
20,0.0664,-0.9468,-0.564,0.6123,0.3806,-0.6333,2043
20,0.1602,-0.9951,-0.4175,0.7002,0.4818,-0.5667,2015
20,0.1414,-1.0012,-0.3347,0.6578,0.4972,-0.518,2033
20,0.0317,-0.991,-0.334,0.665,0.4179,-0.5477,1996
20,-0.1106,-1.0002,-0.4165,0.7913,0.4196,-0.597,2032
20,-0.1328,-1.0227,-0.4468,0.8602,0.5509,-0.6682,2047
20,-0.1755,-0.8977,-0.4121,0.8339,0.5188,-0.779,2045
20,-0.2607,-0.9087,-0.4202,0.8043,0.4151,-0.8239,2030
20,-0.2957,-0.9556,-0.4043,0.7681,0.341,-1.1971,2037
20,-0.3621,-0.8687,-0.3853,0.8377,0.3068,-0.789,2058
20,0.1814,-0.9138,-0.3447,0.6247,0.1096,-1.5579,2069
20,-0.2915,-1.0225,-0.3945,0.6332,-0.2032,-1.3499,2023
20,-0.1306,-1.0022,-0.3132,0.5643,-0.3264,-1.5234,2035
20,-0.408,-0.749,-0.3779,0.408,-0.3908,-0.5979,2068
20,0.2388,-0.9302,-0.2646,0.4248,-0.1442,-1.6384,2056
20,0.1418,-0.835,-0.2551,0.5564,-0.1597,-1.6916,2049
20,-0.0649,-0.7444,-0.2441,0.7598,-0.0667,-1.3917,2013
20,0.3306,-0.8896,-0.1572,0.7935,0.0132,-1.3567,2024
20,0.4038,-0.9575,-0.136,0.6522,-0.1017,-1.4344,2056
20,0.3662,-1.0095,-0.1155,0.5627,-0.202,-1.4118,2047
20,0.2192,-0.8948,-0.1919,0.5031,-0.1317,-1.4057,2014
20,0.2178,-0.9287,-0.2449,0.4939,-0.041,-1.4312,2020
20,0.2102,-1.0798,-0.3074,0.5123,0.0334,-1.4178,1940
20,0.0759,-1.0327,-0.3696,0.4763,0.2337,-1.4605,2032
20,0.0259,-0.9795,-0.4319,0.5335,0.4481,-1.549,2091
20,0.0144,-1.0957,-0.5251,0.5896,0.5721,-1.6347,2058
20,-0.0222,-1.1575,-0.5002,0.6213,0.7391,-1.6813,2043
20,-0.1045,-1.1909,-0.5317,0.7401,0.8552,-1.7345,2176
20,-0.1968,-1.3015,-0.4094,0.7127,0.859,-1.8241,1986
20,-0.2463,-1.2656,-0.3938,0.6948,0.8349,-1.8463,2030
20,-0.2705,-1.241,-0.3887,0.7316,0.7833,-1.9562,2022
20,-0.3752,-1.1804,-0.4758,0.9192,0.7714,-2.0949,2039
20,-0.3535,-1.4009,-0.426,1.0769,0.6256,-2.3205,2054
20,-0.5615,-1.5051,-0.5508,1.1097,0.6566,-2.4944,2035
20,-0.7913,-1.6736,-0.6072,1.1532,0.8473,-2.6594,2041
20,-0.9255,-1.6843,-0.6257,1.2672,1.1295,-2.9181,2048
20,-1.0867,-1.7898,-0.6826,1.3063,1.3255,-3.0373,2042
20,-1.261,-2.0,-0.5774,1.285,1.5567,-3.217,2058
20,-1.4648,-2.0,-0.4636,1.1423,1.8437,-3.3358,2049
21,-1.4473,-1.8828,-0.3989,1.118,2.1206,-3.696,2067
21,-0.9236,-1.8674,-0.5359,1.0541,1.9578,-3.8091,2070
21,-0.4038,-1.8816,-0.6006,1.1091,1.7187,-3.6609,2073
21,0.3372,-1.9688,-0.5864,1.1612,1.3496,-2.8083,2084
21,0.6992,-1.4507,-0.7141,1.4001,1.0955,-2.6091,2244
21,0.9636,-1.2766,-0.8403,2.4902,0.7351,-2.2364,2066
21,1.7322,-1.6882,-0.1731,3.0156,0.8688,-2.3446,2011
21,1.4858,-1.4915,0.4641,3.1154,0.643,-1.8191,2050
21,0.7888,-0.2976,0.7268,1.7887,0.4047,-0.2936,2158
21,1.0574,0.9426,0.2114,0.8388,0.6248,0.6986,1975
21,1.781,-1.9143,-0.1941,-0.0668,0.0971,-0.1645,1866
21,1.9448,-1.8542,0.5605,-0.1595,-0.9052,-1.117,1894
21,1.1521,-0.6479,0.8682,-0.2298,-0.1712,-1.2503,1955
21,1.1987,-0.1626,1.0291,0.9979,-0.811,-0.8793,2022
21,1.575,-0.2483,0.5828,0.208,-1.8094,-0.7456,2022
21,0.8433,-0.1807,0.2034,-1.9198,-2.1756,1.0728,2034
21,-0.1487,-0.2712,-0.1091,-3.4113,-1.8606,1.7147,2079
21,-0.1519,0.1147,-0.3281,-3.2407,-1.5779,2.275,2057
21,-0.0317,0.127,-0.356,-2.349,-1.1874,3.0457,2032
21,0.1775,0.1248,-0.2615,-1.5356,-1.0537,3.548,2032
21,0.3779,0.1748,-0.1929,-1.2323,-1.0214,3.5147,2032
21,0.436,0.0991,-0.1436,-1.1121,-0.9537,3.6721,2032
21,0.5354,-0.052,-0.0996,-1.065,-0.7096,3.9025,2036
21,0.7227,-0.1636,-0.0747,-1.2999,-0.2943,4.2271,2032
21,0.6643,-0.145,-0.042,-1.5844,0.1617,4.3634,2037
21,0.6108,-0.1506,-0.1633,-1.6482,0.2951,4.3634,2055
21,0.7085,-0.2583,0.0464,-1.9325,0.8343,4.3634,2062
21,0.6086,-0.2334,0.0222,-2.2293,0.6771,4.3634,2049
21,0.4458,-0.1221,0.0144,-2.3422,0.2922,4.3634,2024
21,0.4998,-0.1809,-0.0146,-2.1784,0.0478,4.3634,2020
21,0.5598,-0.1917,-0.1179,-1.7278,-0.2721,4.3634,2039
21,0.5518,-0.3955,-0.1243,-1.7667,-0.5557,4.3634,2043
21,0.7144,-0.6699,-0.1597,-2.0953,-0.549,4.3634,2034
21,1.0295,-0.896,0.05,-2.3497,-0.1152,4.3634,2045
21,1.229,-1.2576,0.4851,-2.7299,0.4036,4.3634,2062
21,0.9341,-1.2344,0.311,-2.6542,0.0798,4.3634,2039
21,0.323,-0.8904,-0.542,-2.4076,-0.7819,4.3634,2013
21,-0.5847,-0.8933,-1.229,-2.0582,0.8979,4.3634,1964
21,-0.0784,-1.5195,-0.9417,-1.4067,2.633,4.3634,2012
21,0.1885,-1.6008,-0.7905,-2.0715,3.1986,4.3634,2040
21,0.033,-1.6836,-0.6782,-1.8646,2.5975,3.9634,2058
21,-0.2729,-1.3684,-0.1802,-1.2543,1.4731,2.8068,2009
21,-0.6448,-1.2397,0.1243,-0.6076,0.5541,0.7617,1972
21,-1.0537,-1.2878,-0.6465,-0.2096,0.3886,-0.9191,2006
21,-0.1277,-1.5049,-0.2043,-0.0699,-0.2788,-1.2864,2104
21,0.7668,-1.345,0.2002,0.0855,-0.0752,-2.0425,2150
21,1.0166,-1.6428,0.28,0.7979,-0.5075,-2.137,2088
21,0.7581,-0.7197,0.6013,-0.3192,-0.8187,-2.179,2032
21,-0.0049,0.3545,0.5464,-0.241,-0.6295,-1.7735,2047
21,-0.999,-1.5627,0.063,1.2608,-2.2925,-1.8564,2095
21,-1.6062,-2.0,-0.73,0.512,-2.6127,-1.2086,2144
21,-0.7478,-1.9783,-1.4365,-1.9542,-2.4103,-0.952,2135
21,-0.6611,-0.2236,-1.3599,-1.6438,-0.989,-0.5781,2023
21,0.8398,-1.823,-1.1204,1.4671,-2.1429,-2.684,1919
21,1.5024,-2.0,-0.0435,0.4485,-3.2058,-3.9342,1920
21,0.2158,-0.4167,0.4536,1.1243,2.1047,-4.3635,1946
21,0.2258,-0.6506,0.6472,1.4222,3.3983,-1.2091,2020
21,0.8154,0.9021,-0.6616,-2.1879,-0.0599,-0.9548,2065
21,0.3623,-0.8301,0.2817,0.5028,-0.3622,-2.6129,2097
21,1.9999,-1.0552,0.7708,-0.2452,-1.0668,-2.3786,1996
21,0.9583,-1.3643,-0.1221,-1.0481,-1.1706,-1.3318,1972
21,0.5828,-0.9358,-0.2361,-0.4104,-0.1549,-1.1203,2053
21,0.7278,-0.7349,-0.6641,0.0535,0.0788,-1.0696,2053
21,0.5835,-0.751,-0.7043,0.4263,0.3133,-0.8677,2062
21,0.2502,-0.9185,-0.6379,0.3658,0.2766,-0.8072,2047
21,0.1917,-1.0032,-0.4319,0.1369,0.4669,-0.7007,2030
21,0.2256,-1.0149,-0.3684,0.2256,0.4603,-0.6304,2019
21,0.3721,-1.0442,-0.2966,0.5655,0.3787,-0.5482,1985
21,0.2239,-1.0586,-0.2759,0.6371,0.4252,-0.4565,2043
21,-0.0198,-1.0164,-0.4102,0.5669,0.5962,-0.4856,2049
21,0.0645,-0.9883,-0.4641,0.7469,0.6403,-0.5064,2070
21,0.1035,-0.9712,-0.4575,0.9212,0.6215,-0.5381,2054
21,0.0515,-0.9539,-0.4463,0.8528,0.7014,-0.5436,2045
21,-0.187,-0.9067,-0.5164,0.8159,0.6144,-0.7779,2051
21,-0.3865,-0.9199,-0.5552,0.8248,0.628,-0.8946,2032
21,-0.2085,-0.9097,-0.5176,0.6253,0.7574,-0.7267,2026
21,-0.4028,-0.8208,-0.511,0.5662,0.5794,-0.4212,2048
21,-0.5298,-0.7412,-0.562,0.6187,0.5171,-0.2308,2049
21,0.0833,-0.8875,-0.5188,0.8758,0.4445,-1.076,2045
21,-0.2239,-0.97,-0.4307,0.3553,0.365,-1.5984,2078
21,0.0247,-0.9839,-0.3711,0.5968,0.1828,-1.2441,2073
21,-0.0708,-0.9219,-0.2141,0.367,0.4168,-1.5502,2083
21,0.2456,-0.687,-0.1826,0.6223,0.2177,-0.9327,2050
21,0.3259,-1.0415,-0.179,0.7516,0.2234,-1.0196,2046
21,0.4792,-0.8472,-0.1194,0.7067,-0.1041,-0.7083,2061
21,0.2185,-0.8831,-0.24,0.5849,-0.1479,-1.016,2073
21,0.3096,-0.9814,-0.2373,0.563,-0.0538,-1.3133,2047
21,0.2476,-0.8628,-0.3257,0.3623,-0.0012,-1.3007,2055
21,0.1702,-0.8979,-0.3379,0.39,0.0878,-1.28,2038
21,0.1384,-0.9431,-0.3081,0.4481,0.2417,-1.2981,2012
21,0.1589,-1.0029,-0.3379,0.4908,0.3497,-1.3394,1987
