Timestamp,Ax,Ay,Az,Rx,Ry,Rz,EMG
0,0.1909,-1.1099,-0.4338,-1.0449,-0.4801,-0.5204,2037
0,0.1306,-0.897,-0.5227,-1.1693,-0.2669,-0.3954,2048
0,0.0374,-0.646,-0.4783,-1.0096,-0.1397,-0.1482,2059
0,0.0625,-0.4949,-0.4241,-0.7016,0.0188,-0.0415,2050
0,0.1536,-0.5671,-0.3684,-0.3743,0.1547,-0.063,2051
0,0.1602,-0.6455,-0.3975,-0.1143,0.1434,-0.1561,2027
0,0.134,-0.5903,-0.4419,0.1671,0.0641,-0.2854,2056
0,0.1499,-0.6201,-0.46,0.3316,0.0372,-0.3153,2048
0,0.219,-0.7483,-0.5144,0.5951,0.0192,-0.2778,2065
0,0.2002,-0.947,-0.5518,0.6637,-0.0017,-0.2737,2034
0,0.1411,-1.1562,-0.5801,0.585,-0.034,-0.3364,2049
0,0.0723,-1.3701,-0.6414,0.381,-0.0803,-0.2836,2059
0,0.0022,-1.407,-0.7131,0.3304,-0.1164,-0.2891,2052
0,0.0393,-1.3606,-0.6067,0.326,-0.1107,-0.3979,2037
0,0.0637,-1.2798,-0.5305,0.1871,-0.0427,-0.4751,2058
0,0.1191,-1.1875,-0.5115,0.1446,-0.2051,-0.4273,2002
0,0.1958,-1.137,-0.4612,0.2485,-0.4149,-0.2899,2052
0,0.2231,-1.1179,-0.4026,0.2384,-0.5232,-0.1611,2051
0,0.231,-1.0667,-0.4324,0.2748,-0.5988,-0.0951,2056
0,0.2939,-1.042,-0.363,0.4738,-0.7436,-0.0989,2107
0,0.2981,-1.0327,-0.302,0.6075,-0.7716,-0.1457,2016
0,0.3149,-1.0642,-0.3284,0.691,-0.7693,-0.1571,2062
0,0.3022,-1.1741,-0.3252,0.6122,-0.7573,-0.1087,2047
0,0.311,-1.29,-0.3503,0.4773,-0.6926,-0.0306,2109
0,0.2903,-1.3213,-0.3289,0.294,-0.6255,0.0501,2010
0,0.2256,-1.2839,-0.3206,0.2035,-0.5703,0.1024,2103
0,0.1423,-1.2249,-0.3237,0.1005,-0.4434,0.1535,2045
0,0.0664,-1.1296,-0.3108,0.0879,-0.2276,0.2185,2060
0,0.0408,-1.0247,-0.377,0.0466,-0.0983,0.3267,2090
0,0.1794,-0.999,-0.3374,0.0222,0.0198,0.4018,2043
0,0.2522,-1.0093,-0.3296,0.0294,0.2085,0.4203,2073
0,0.2207,-1.0388,-0.3215,-0.0298,0.1811,0.4492,1983
0,0.1545,-1.0339,-0.3735,-0.1595,0.0545,0.4911,2054
0,0.0684,-0.9058,-0.5625,-0.1288,0.167,0.5635,2014
0,0.0918,-0.791,-0.4561,-0.108,0.1543,0.5486,2107
0,0.1067,-0.6826,-0.3923,0.0951,0.3666,0.4147,1996
0,0.0498,-0.6589,-0.3511,0.2926,0.3583,0.2497,2115
0,0.0891,-0.7085,-0.269,0.5123,0.1268,0.0543,1974
0,0.1697,-0.7527,-0.2092,0.7047,-0.1896,-0.1823,2129
0,0.1672,-0.8711,-0.0959,0.7557,-0.5842,-0.3264,2041
0,0.1104,-1.1111,-0.0559,0.6454,-0.9709,-0.3526,2023
0,0.0059,-1.3269,-0.0635,0.4842,-1.111,-0.3281,2135
0,-0.093,-1.4827,-0.0747,0.3329,-1.1057,-0.3804,2040
0,-0.0403,-1.4382,-0.0352,0.2398,-0.925,-0.5347,2049
0,0.0447,-1.2949,-0.0833,0.1302,-0.7641,-0.5968,2059
0,0.0784,-1.1711,-0.0527,0.1245,-0.6317,-0.5172,2043
0,0.0994,-1.0854,-0.0354,0.1919,-0.5119,-0.4199,2038
0,0.1235,-1.0635,-0.0754,0.2988,-0.4414,-0.432,2056
0,0.1514,-1.072,-0.115,0.3754,-0.424,-0.4544,2097
0,0.145,-1.0544,-0.1121,0.4562,-0.3972,-0.4267,2049
0,0.0955,-1.032,-0.1221,0.5401,-0.3926,-0.3597,2075
0,0.0525,-1.0413,-0.1194,0.5994,-0.4425,-0.2911,2050
0,0.0303,-1.033,-0.1057,0.7285,-0.4883,-0.2775,2068
0,0.0261,-1.0371,-0.1072,0.8019,-0.4398,-0.2963,2106
0,0.0171,-1.0505,-0.071,0.9046,-0.4156,-0.3047,2028
0,-0.021,-1.0388,-0.0488,0.9971,-0.447,-0.3293,2102
0,-0.0427,-1.0642,-0.0486,1.0616,-0.5012,-0.324,2043
0,-0.0498,-1.0876,-0.0657,1.0995,-0.5671,-0.2992,2072
0,-0.0627,-1.1062,-0.0664,1.1604,-0.6901,-0.3645,2025
0,0.0078,-1.1211,-0.054,1.2126,-0.8493,-0.3766,2061
0,0.0425,-1.0747,0.0154,1.1523,-0.9401,-0.3458,2050
0,-0.0056,-1.0125,-0.0042,1.1567,-0.9714,-0.3204,2102
0,-0.0483,-1.019,-0.0137,1.1725,-1.0437,-0.3125,2014
0,-0.0229,-1.0496,0.0015,1.1531,-1.0981,-0.3149,2022
0,-0.0103,-1.032,0.0063,1.1254,-1.0376,-0.3261,2047
0,-0.0225,-1.0312,-0.0398,1.0994,-1.1156,-0.3313,2109
0,0.0017,-1.042,-0.1062,1.0857,-1.1788,-0.369,1996
0,0.0322,-1.0723,-0.1174,1.0524,-1.2324,-0.3956,2043
0,0.0125,-1.0701,-0.1626,1.015,-1.2597,-0.3866,1983
0,0.0195,-1.0432,-0.1882,1.0397,-1.2963,-0.3773,2104
0,0.0359,-1.0237,-0.2087,1.0062,-1.3559,-0.2936,2065
0,0.0454,-0.9883,-0.1946,0.942,-1.368,-0.1507,2035
0,0.0142,-0.9675,-0.218,0.8897,-1.4155,-0.0503,2035
0,-0.0215,-0.9294,-0.2996,0.8568,-1.5141,0.0218,2106
0,0.0166,-0.8923,-0.3293,0.8347,-1.597,0.0236,2110
0,0.1133,-0.8818,-0.2925,0.9199,-1.6535,-0.1445,2062
0,0.1599,-1.0,-0.2625,0.8656,-1.6688,-0.335,2046
0,0.1753,-0.991,-0.2437,0.9014,-1.7849,-0.4565,2069
0,0.2192,-0.991,-0.1697,0.8272,-2.0128,-0.5004,2025
0,0.2812,-0.9802,-0.1011,0.8256,-2.0534,-0.488,1974
0,0.2971,-1.0151,-0.0361,0.7128,-2.0375,-0.5552,2118
0,0.3608,-1.0103,-0.0298,0.6766,-2.0672,-0.6118,2081
0,0.4202,-0.9897,0.0115,0.6536,-2.0908,-0.644,2179
0,0.4456,-0.9688,0.0439,0.6309,-2.0658,-0.6885,1983
0,0.4585,-1.0024,0.0723,0.5741,-2.1337,-0.7569,2078
0,0.4199,-0.9976,0.0771,0.5787,-2.1489,-0.838,2057
0,0.356,-0.9897,0.1248,0.5722,-2.0813,-0.8678,1962
0,0.3386,-1.0186,0.1206,0.5004,-2.0069,-0.8424,2112
0,0.3347,-1.0117,0.1157,0.4578,-1.8098,-0.7871,2035
0,0.301,-0.9839,0.0957,0.3579,-1.5728,-0.7504,2077
0,0.271,-0.9517,0.106,0.3137,-1.3268,-0.7018,2065
0,0.2563,-0.9512,0.0933,0.3442,-1.1235,-0.6493,2101
0,0.2759,-0.9358,0.054,0.3742,-0.9336,-0.6664,1996
0,0.2993,-0.9028,0.0671,0.4438,-0.8823,-0.7399,2078
0,0.231,-0.8694,0.0732,0.4908,-1.0119,-0.7733,2054
0,0.1943,-0.8638,0.0618,0.5657,-1.0102,-0.7436,2018
0,0.2114,-0.8545,0.0757,0.5855,-1.0484,-0.7477,2044
0,0.2126,-0.8066,0.0625,0.6939,-1.1037,-0.7007,2032
0,0.2324,-0.8691,0.0439,0.6456,-1.1512,-0.6785,2006
0,0.2715,-0.8687,-0.0024,0.6612,-1.0781,-0.6994,2048
1,0.2869,-0.822,0.0737,0.7472,-0.8558,-0.6461,2029
1,0.1514,-0.8445,0.1638,0.763,-0.7024,-0.488,2106
1,0.1248,-0.915,0.0986,0.8931,-0.6648,-0.4725,2035
1,0.207,-0.9377,0.0269,0.8359,-0.8064,-0.5815,2005
1,0.2041,-0.9009,0.0522,0.9255,-1.0035,-0.6395,2144
1,0.1567,-0.9026,0.1001,0.9051,-1.0372,-0.5801,2065
1,0.1689,-0.9001,0.0083,0.9018,-1.0645,-0.503,2040
1,0.1758,-0.8713,-0.0059,0.9316,-1.0065,-0.4498,2059
1,0.1521,-0.8889,0.0322,0.889,-0.9409,-0.3785,2090
1,0.1135,-0.9106,0.0408,0.8099,-0.7994,-0.286,2016
1,0.0415,-0.9514,0.0176,0.7521,-0.5657,-0.1001,2038
1,-0.0439,-0.9724,-0.0403,0.738,-0.3432,0.0182,2077
1,-0.0244,-0.9624,-0.0503,0.7729,-0.19,0.0581,2045
1,0.0203,-0.9219,-0.0681,0.7545,-0.1545,0.0067,2074
1,0.054,-0.8843,-0.0417,0.7661,-0.1984,-0.0154,2004
1,0.0518,-0.8909,-0.04,0.7644,-0.2834,0.0076,2059
1,0.061,-0.9077,-0.0552,0.7566,-0.4406,0.0306,2117
1,0.0667,-0.856,-0.0339,0.7746,-0.6396,-0.0146,2063
1,0.0806,-0.8445,-0.041,0.7597,-0.746,-0.0111,2043
1,0.0896,-0.845,-0.0525,0.775,-0.8757,0.0048,2067
1,0.082,-0.8384,-0.0693,0.7866,-0.9541,0.0174,2064
1,0.0967,-0.8384,-0.0522,0.7761,-1.0271,0.0103,2077
1,0.1094,-0.8879,-0.0315,0.7514,-1.0511,0.008,2011
1,0.1335,-0.9336,-0.0002,0.6851,-1.1113,0.0543,2086
1,0.0981,-0.8369,0.0173,0.6648,-1.1195,0.0582,2049
1,0.1267,-0.7419,0.0251,0.6943,-1.1123,0.1442,2059
1,0.158,-0.6914,0.042,0.6682,-1.1184,0.1843,2040
1,0.1726,-0.677,0.0293,0.6806,-1.0204,0.1618,2043
1,0.1321,-0.7222,0.033,0.6769,-0.83,0.1804,2078
1,0.0713,-0.7246,-0.0137,0.7277,-0.613,0.1965,2063
1,0.1284,-0.7681,0.0164,0.687,-0.4605,0.2183,2059
1,0.1909,-0.8035,0.0166,0.7396,-0.3694,0.1714,2011
1,0.1841,-0.9133,0.0693,0.7187,-0.2318,0.1892,2112
1,0.1865,-0.854,0.0752,0.6739,-0.3261,0.1286,1993
1,0.2434,-0.7568,0.0823,0.6497,-0.4658,0.1125,2026
1,0.3608,-0.6665,0.0703,0.6835,-0.6714,0.1132,2073
1,0.3884,-0.657,0.1111,0.7019,-0.8154,0.1264,1945
1,0.3213,-0.6785,0.0896,0.6409,-0.9114,0.1276,2074
1,0.1729,-0.7864,0.0896,0.6267,-0.8664,0.0818,2017
1,0.0046,-1.0283,0.1345,0.6401,-0.5896,0.0487,2032
1,-0.0847,-1.175,0.1714,0.5747,-0.2441,0.0037,2083
1,-0.0293,-1.0422,0.1489,0.4382,-0.1732,-0.1863,2082
1,0.0813,-0.8943,0.1799,0.4501,-0.1378,-0.1526,2066
1,0.2065,-0.8438,0.2053,0.4361,-0.3361,-0.1708,2070
1,0.3076,-0.8542,0.2012,0.4821,-0.5746,-0.1361,2068
1,0.3044,-0.9417,0.1973,0.4426,-0.7797,-0.1261,2031
1,0.2163,-1.0347,0.1738,0.393,-0.9058,-0.1021,2027
1,0.1436,-1.1514,0.2046,0.3525,-0.8946,-0.0916,2004
1,0.0623,-1.3008,0.2573,0.3304,-0.7327,-0.0656,2044
1,0.0317,-1.3247,0.2156,0.3149,-0.649,0.0381,2067
1,0.0591,-1.2192,0.2192,0.2886,-0.5845,0.1824,2017
1,0.1553,-1.1121,0.2141,0.3099,-0.3674,0.2994,2046
1,0.2188,-1.042,0.2378,0.312,-0.3706,0.3473,2058
1,0.2339,-1.0127,0.2212,0.3641,-0.3289,0.3984,2010
1,0.2361,-0.9631,0.2188,0.3655,-0.1839,0.3972,2134
1,0.2871,-0.9636,0.2766,0.4147,-0.1847,0.399,2035
1,0.3386,-1.0222,0.3572,0.3781,-0.2011,0.3675,2080
1,0.2993,-1.0171,0.3979,0.3181,-0.296,0.3183,2057
1,0.2351,-0.9814,0.376,0.229,-0.6221,0.3228,2040
1,0.2307,-0.9387,0.3518,0.1023,-0.8087,0.3416,2030
1,0.28,-0.8513,0.3167,0.1013,-0.8939,0.3478,2050
1,0.2549,-0.8481,0.3015,0.0382,-0.9797,0.2991,2051
1,0.2236,-0.8159,0.2625,-0.0011,-0.9551,0.2486,2077
1,0.2056,-0.772,0.1885,0.0233,-0.7847,0.2808,2061
1,0.1938,-0.7415,0.1013,0.0896,-0.5424,0.3125,2059
1,0.2046,-0.7942,0.0554,0.149,-0.2972,0.3796,2042
1,0.1978,-0.9565,0.0493,0.2326,-0.066,0.3814,2062
1,0.1741,-1.0249,0.0532,0.175,0.096,0.3509,2045
1,0.1501,-0.9126,-0.0007,0.1988,-0.0261,0.4176,2057
1,0.1824,-0.8079,0.01,0.2558,-0.076,0.5402,2063
1,0.2273,-0.8032,0.061,0.3257,-0.09,0.6453,2029
1,0.2292,-0.8411,0.0808,0.2651,-0.1816,0.6849,2085
1,0.1907,-0.8655,0.0884,0.1786,-0.2602,0.6801,2036
1,0.1628,-0.8623,0.0916,0.1376,-0.2031,0.747,2103
1,0.1577,-0.9526,0.1865,0.1274,-0.1687,0.8151,2033
1,0.1194,-1.1011,0.2632,0.0073,-0.0788,0.8666,2069
1,0.0945,-1.1189,0.2532,-0.1396,-0.1779,0.883,2062
1,0.1411,-1.0383,0.2646,-0.2666,-0.3609,0.9485,2041
1,0.2393,-0.9431,0.2532,-0.4048,-0.4301,1.032,2074
1,0.2739,-0.9502,0.1858,-0.4361,-0.4806,1.0761,2027
1,0.2935,-0.9626,0.1687,-0.4896,-0.5199,1.0836,2070
1,0.3252,-1.0012,0.1426,-0.456,-0.6221,1.1154,2067
1,0.3823,-0.896,0.1633,-0.1995,-0.5825,1.0906,2025
1,0.5212,-0.8132,0.2507,0.1241,-0.7809,1.0637,2056
1,0.7317,-0.7795,0.3601,0.4084,-1.0822,1.0138,2044
1,0.646,-0.835,0.4465,0.6016,-1.2258,0.8505,2032
1,0.5039,-0.9565,0.4521,0.7217,-1.4322,0.7055,2065
1,0.3347,-0.9382,0.3977,0.7654,-1.6258,0.6746,2039
1,0.2012,-0.8877,0.3572,0.8142,-1.7551,0.7355,2056
1,0.0876,-0.8967,0.301,0.8094,-1.6819,0.8007,2080
1,-0.0422,-0.978,0.2844,0.7894,-1.6143,0.8966,2028
1,-0.0347,-0.9563,0.2129,0.8122,-1.7689,0.9931,2042
1,0.0344,-0.9658,0.1338,0.7819,-1.9726,1.0473,2128
1,0.0874,-0.9763,0.1467,0.7913,-2.1012,1.0551,2060
1,0.1357,-1.0271,0.1633,0.7656,-2.2622,1.0516,2049
1,0.145,-1.0417,0.1667,0.7399,-2.4206,1.0383,2041
1,0.1699,-0.9797,0.1882,0.7255,-2.4818,1.0356,2063
1,0.1787,-0.9631,0.2024,0.7012,-2.4996,1.0298,2053
1,0.1943,-0.9414,0.2224,0.6915,-2.4366,1.0083,2026
1,0.1958,-0.9568,0.21,0.66,-2.4252,0.9827,2042
1,0.2253,-0.9573,0.188,0.6179,-2.4511,0.9573,2041
1,0.1824,-0.9668,0.1609,0.6179,-2.3981,0.9118,2035
1,0.1765,-0.9546,0.1277,0.6187,-2.3328,0.8592,2086
1,0.136,-0.9082,0.1272,0.6247,-2.325,0.8475,2005
1,0.1736,-0.9062,0.1265,0.6317,-2.1818,0.8388,2121
2,0.1682,-0.9109,0.1541,0.6333,-1.9283,0.8163,2012
2,0.1809,-0.8923,0.1538,0.6881,-1.7928,0.7696,2036
2,0.2231,-0.9155,0.1599,0.6846,-1.6556,0.7055,2025
2,0.2751,-0.9229,0.1782,0.6687,-1.5776,0.6614,2043
2,0.2524,-0.9292,0.2112,0.661,-1.5406,0.6102,2091
2,0.2451,-0.9224,0.2429,0.6658,-1.5062,0.5436,2029
2,0.2458,-0.8936,0.2544,0.6572,-1.4624,0.4995,2048
2,0.259,-0.9019,0.2939,0.6132,-1.4832,0.5034,2022
2,0.1667,-0.9221,0.3142,0.5584,-1.4516,0.5236,2124
2,0.0994,-0.9319,0.3311,0.5572,-1.325,0.4942,2049
2,0.0969,-0.9399,0.3171,0.4906,-1.135,0.4229,2058
2,0.1702,-0.9214,0.3582,0.4726,-1.0802,0.4121,2060
2,0.1924,-0.9182,0.3474,0.4184,-1.0266,0.3749,2058
2,0.1553,-0.8784,0.333,0.3896,-1.0523,0.3976,2050
2,0.1602,-0.8491,0.2952,0.4437,-1.0841,0.4227,2024
2,0.1704,-0.8367,0.2883,0.4497,-1.0983,0.4141,2043
2,0.0308,-0.8516,0.292,0.5083,-1.0198,0.4147,2102
2,-0.0508,-0.8284,0.386,0.5417,-0.8686,0.4207,2014
2,0.0317,-0.8359,0.3792,0.5317,-0.7938,0.4554,2060
2,0.1555,-0.8459,0.4111,0.5353,-0.7364,0.4221,2065
2,0.281,-0.825,0.4495,0.4819,-0.8138,0.3999,2036
2,0.2683,-0.8284,0.4512,0.4649,-0.9187,0.4028,2050
2,0.3105,-0.8389,0.4521,0.3943,-1.0103,0.3757,2075
2,0.311,-0.8115,0.448,0.3725,-1.0934,0.3444,2042
2,0.2507,-0.8091,0.459,0.3614,-1.1187,0.3248,2047
2,0.156,-0.7759,0.4907,0.3722,-1.0638,0.3152,2067
2,0.0662,-0.7642,0.4741,0.3095,-0.9624,0.348,2033
2,0.1184,-0.769,0.46,0.306,-0.9729,0.3778,2071
2,0.231,-0.7756,0.4336,0.2461,-0.9408,0.344,2103
2,0.2544,-0.8052,0.4453,0.3009,-0.8835,0.3193,2030
2,0.1365,-0.8503,0.4705,0.331,-0.8855,0.2944,2019
2,0.0764,-0.8569,0.4854,0.347,-0.819,0.3113,2060
2,0.0679,-0.8726,0.4717,0.3092,-0.8369,0.3192,2017
2,0.0505,-0.8704,0.4709,0.1416,-0.7522,0.3123,2034
2,0.0327,-0.8911,0.4695,-0.0426,-0.6377,0.3144,2069
2,0.0518,-0.8171,0.4849,-0.0964,-0.4645,0.3255,2051
2,0.1274,-0.7786,0.4954,-0.1655,-0.2257,0.2954,2013
2,0.2307,-0.7749,0.4814,-0.253,-0.1896,0.2565,2025
2,0.2024,-0.8171,0.4915,-0.3213,-0.1643,0.2625,2048
2,0.1748,-0.8062,0.4233,-0.4683,-0.1132,0.1991,2087
2,0.1172,-0.7742,0.4231,-0.5509,-0.0084,0.1747,2078
2,0.0134,-0.7891,0.4211,-0.6179,0.1073,0.1844,2056
2,-0.0115,-0.8079,0.4097,-0.6866,0.2212,0.2088,2019
2,0.03,-0.8245,0.3979,-0.7316,0.3129,0.186,1992
2,0.0515,-0.8687,0.3855,-0.8104,0.337,0.1426,2068
2,0.0513,-0.8677,0.4143,-0.8146,0.3934,0.1281,2072
2,0.0393,-0.9094,0.3889,-0.7987,0.3496,0.1242,2071
2,0.0518,-0.9607,0.3804,-0.8242,0.333,0.1633,2022
2,0.1201,-0.9888,0.3469,-0.7337,0.1977,0.228,2030
2,0.1865,-0.9912,0.3538,-0.6114,-0.1449,0.2633,2083
2,0.2412,-1.0134,0.3623,-0.4165,-0.4646,0.3265,2072
2,0.3013,-1.0793,0.3621,-0.2111,-0.9243,0.3623,2041
2,0.3132,-1.1082,0.3655,0.0603,-1.3326,0.337,2041
2,0.2671,-1.1069,0.3823,0.1398,-1.5655,0.3091,2036
2,0.1526,-1.1101,0.3647,0.1232,-1.5973,0.328,1989
2,0.0303,-1.187,0.248,-0.0083,-1.48,0.3069,2131
2,-0.0637,-1.1775,0.1409,-0.2153,-1.2411,0.2425,2032
2,-0.0605,-1.1523,0.0239,-0.3051,-0.9986,0.1908,2044
2,0.0425,-1.1953,-0.0156,-0.2647,-0.853,0.0746,2068
2,0.1628,-1.1787,-0.0417,-0.2972,-0.5382,-0.0141,2072
2,0.1541,-1.1694,-0.0415,-0.2677,-0.4354,0.0134,2057
2,0.1252,-1.1426,-0.0376,-0.2727,-0.4273,0.0437,2055
2,0.1426,-1.1392,-0.0505,-0.2654,-0.3619,0.0558,2058
2,0.158,-1.2261,-0.0396,-0.3012,-0.3844,-0.0095,2060
2,0.1558,-1.2356,-0.0435,-0.3516,-0.5004,-0.0679,2041
2,0.1648,-1.1394,-0.0198,-0.448,-0.6432,-0.0609,2059
2,0.1589,-1.0154,0.0288,-0.5177,-0.7969,-0.0111,2030
2,0.1418,-0.9214,0.0471,-0.6,-0.8662,0.0607,2026
2,0.0947,-0.8733,0.0576,-0.6224,-0.9199,0.1079,2037
2,0.0681,-0.8342,0.0542,-0.6388,-0.9609,0.0892,2048
2,0.0903,-0.8225,0.0408,-0.6091,-0.906,0.0304,2052
2,0.1406,-0.8035,0.0193,-0.6118,-0.7336,-0.0028,2041
2,0.1636,-0.8313,-0.0261,-0.6072,-0.5801,-0.0137,2072
2,0.1941,-0.8408,-0.0317,-0.6107,-0.498,-0.0236,2020
2,0.2097,-0.835,-0.0491,-0.6184,-0.4247,-0.0225,2020
2,0.1785,-0.8433,-0.0598,-0.6128,-0.3589,-0.0418,2054
2,0.1672,-0.8608,-0.0591,-0.6003,-0.3509,-0.0674,2032
2,0.1516,-0.8564,-0.0437,-0.5935,-0.3912,-0.086,2054
2,0.1189,-0.8511,-0.0344,-0.5855,-0.4057,-0.1213,2060
2,0.1143,-0.8269,-0.0305,-0.5341,-0.3998,-0.1237,2046
2,0.0967,-0.825,-0.0168,-0.4777,-0.4264,-0.0774,2073
2,0.1484,-0.8682,0.0156,-0.4372,-0.452,-0.0349,2035
2,0.1841,-0.8972,-0.0056,-0.4055,-0.4754,-0.0372,2021
2,0.1721,-0.9458,-0.022,-0.3647,-0.5552,-0.0419,2055
2,0.1204,-1.0264,0.0034,-0.3461,-0.5753,-0.0107,2079
2,0.0999,-1.0315,0.0293,-0.2104,-0.3413,0.0888,2047
2,0.0706,-1.0928,0.0918,-0.1954,-0.1364,0.1459,2052
2,0.1052,-1.1418,0.1099,-0.1894,-0.0683,0.1714,2046
2,0.1416,-1.1345,0.0964,-0.1892,0.0193,0.2136,2095
2,0.1545,-1.1123,0.0896,-0.2121,0.0475,0.223,2084
2,0.1726,-1.052,0.1233,-0.1722,0.0093,0.2316,2075
2,0.1443,-1.1106,0.1436,-0.1971,0.0462,0.2422,2021
2,0.1726,-1.072,0.1387,-0.1867,0.0209,0.3164,2095
2,0.1497,-1.1191,0.1624,-0.1987,0.0221,0.3231,2031
2,0.2349,-1.0784,0.1687,-0.1627,-0.0888,0.3747,2047
2,0.2747,-1.0801,0.147,-0.13,-0.261,0.3822,2115
2,0.2878,-1.0945,0.1472,-0.0738,-0.4295,0.3348,2021
2,0.2732,-1.0735,0.1538,-0.0226,-0.6215,0.2824,2062
2,0.2634,-1.0225,0.1462,0.026,-0.7907,0.2298,2014
2,0.25,-0.9978,0.1145,0.0756,-0.912,0.2057,2099
2,0.24,-0.9409,0.1221,0.1362,-0.9524,0.1835,2038
2,0.2153,-0.9502,0.0955,0.1818,-0.9203,0.1555,2023
3,0.2061,-0.9407,0.0647,0.2128,-0.8725,0.1141,2095
3,0.2002,-0.9163,0.0225,0.2338,-0.7891,0.0959,2015
3,0.1809,-0.9324,0.0432,0.322,-0.6392,0.1064,2081
3,0.1912,-0.9253,0.0151,0.2811,-0.5004,0.0718,2046
3,0.1587,-0.9272,0.0076,0.2456,-0.3281,0.0702,2082
3,0.1572,-0.9417,0.0085,0.2148,-0.1697,0.0855,2034
3,0.1445,-0.9387,0.0034,0.1878,0.0153,0.1157,2065
3,0.1414,-0.9294,-0.0029,0.1844,0.1748,0.1433,2037
3,0.1267,-0.9272,0.011,0.1882,0.2472,0.1784,2077
3,0.1335,-0.9314,0.0166,0.1874,0.2926,0.2099,2026
3,0.1294,-0.9343,0.0444,0.1951,0.3465,0.2714,2040
3,0.1545,-0.8933,0.0486,0.1482,0.3429,0.2958,2042
3,0.0728,-0.9294,0.0056,0.1397,0.2191,0.3321,2023
3,0.2231,-0.9009,0.1223,0.0441,0.2487,0.3778,2063
3,0.166,-0.9331,0.1399,0.0601,0.2294,0.3666,2003
3,0.1875,-0.9741,0.1221,0.0672,0.0284,0.3777,2056
3,0.231,-0.9292,0.1113,0.0772,-0.1092,0.3534,2041
3,0.1909,-0.9517,0.0798,0.073,-0.2393,0.3408,2041
3,0.1758,-0.9104,0.0676,0.1246,-0.3858,0.3631,2049
3,0.1597,-0.9324,0.0745,0.1687,-0.508,0.3936,2016
3,0.1895,-0.9285,0.0969,0.1832,-0.6008,0.4219,2101
3,0.1631,-0.9272,0.0698,0.2191,-0.7427,0.4315,2022
3,0.1404,-0.9778,0.0808,0.2445,-0.906,0.4494,2047
3,0.1672,-0.9551,0.0593,0.2149,-0.9926,0.4594,2051
3,0.1453,-0.9712,0.0579,0.2203,-1.1219,0.4787,2138
3,0.1797,-0.9722,0.0747,0.2112,-1.225,0.4795,1997
3,0.2007,-0.9761,0.0835,0.1984,-1.3525,0.4775,2085
3,0.1541,-1.02,0.0566,0.1704,-1.3957,0.5247,2058
3,0.2075,-0.9846,0.0764,0.2024,-1.4452,0.5783,2030
3,0.2078,-1.0156,0.0833,0.2289,-1.4793,0.5922,2063
3,0.2378,-0.9971,0.0808,0.282,-1.5656,0.587,2054
3,0.1521,-1.0627,0.0544,0.3044,-1.5838,0.5429,2054
3,0.0769,-1.175,0.0759,0.316,-1.6106,0.5958,2030
3,0.2102,-1.0054,0.0347,0.4291,-1.6374,0.7307,2054
3,0.2048,-1.0586,0.042,0.4015,-1.5994,0.6929,2066
3,0.2112,-1.0786,0.0352,0.4496,-1.4661,0.8224,2055
3,0.1653,-1.2051,0.0647,0.3113,-1.3998,0.6734,2074
3,0.2397,-1.21,0.042,0.3057,-1.2338,0.699,2054
3,0.2488,-1.2615,0.0383,0.241,-1.1465,0.649,2036
3,0.1584,-1.2583,0.0886,0.1743,-1.034,0.6157,2044
3,0.1187,-1.2307,0.1472,0.2095,-0.8923,0.7221,2043
3,0.116,-1.1475,0.1914,0.1806,-0.8704,0.6413,2042
3,0.1628,-1.0762,0.1895,0.2184,-0.8632,0.6152,2091
3,0.1973,-1.0762,0.22,0.3377,-0.9242,0.7237,2028
3,0.2083,-1.1086,0.1379,0.338,-0.9838,0.5498,2011
3,0.187,-1.1553,0.1396,0.2305,-0.71,0.3433,2111
3,0.1204,-1.1624,0.1233,0.2326,-0.7152,0.1661,2053
3,0.0437,-1.1287,0.1274,0.275,-0.7024,0.0447,2074
3,0.0166,-1.074,0.1094,0.2723,-0.3047,-0.0535,2046
3,-0.197,-1.0947,0.1707,0.2352,-0.0204,-0.2272,2035
3,-0.0425,-0.9824,0.1685,0.3645,0.0485,-0.3227,2060
3,-0.1086,-0.9521,0.2295,0.3781,0.2449,-0.542,2045
3,0.0129,-0.8799,0.2332,0.4611,0.188,-0.6628,2057
3,-0.0112,-0.8,0.2668,0.5235,0.1204,-0.8585,2054
3,0.0203,-0.7705,0.3342,0.5339,0.0302,-0.899,2028
3,0.0071,-0.7729,0.344,0.4183,-0.0184,-0.9271,2054
3,0.0269,-0.8223,0.4521,0.2574,0.2119,-0.869,2038
3,-0.0315,-0.9326,0.4451,0.1557,0.4779,-0.8813,2071
3,0.0276,-0.927,0.4246,0.1931,0.5461,-0.8433,2038
3,0.1597,-0.9724,0.4104,0.0312,0.4035,-0.8248,2051
3,0.1694,-1.0256,0.5347,0.1346,0.4537,-0.8317,2081
3,0.0854,-1.0337,0.5142,0.1368,-0.0092,-0.6897,2039
3,-0.0347,-1.0408,0.5139,0.1795,-0.4754,-0.583,2049
3,-0.1521,-1.0408,0.5051,0.1226,-0.6244,-0.4394,2032
3,-0.2686,-1.0867,0.4924,0.0292,-0.8898,-0.3019,2107
3,-0.3503,-1.1296,0.4341,-0.0369,-0.9682,-0.2442,2044
3,-0.3335,-1.1011,0.4053,-0.1016,-0.9688,-0.1828,2040
3,-0.2852,-1.0405,0.3872,-0.1776,-0.9054,-0.1939,2074
3,-0.1477,-0.9829,0.3503,-0.2105,-0.8698,-0.1499,2019
3,-0.0857,-0.9148,0.3369,-0.1907,-1.0475,-0.0699,2018
3,-0.0354,-0.8928,0.3022,-0.2113,-0.9693,-0.0441,2068
3,0.1138,-0.825,0.301,-0.1453,-1.1274,0.0166,2067
3,0.2139,-0.8396,0.2834,-0.1321,-1.2864,-0.0181,2027
3,0.2825,-0.7908,0.2798,-0.0108,-1.5515,-0.0007,2101
3,0.2083,-0.8262,0.2747,-0.08,-1.551,-0.0212,1993
3,0.2034,-0.8308,0.2627,-0.1354,-1.5475,-0.0336,2067
3,0.1577,-0.7969,0.2463,-0.1482,-1.4312,-0.0188,2048
3,0.1807,-0.7798,0.2266,-0.1159,-1.3452,-0.0529,2051
3,0.1758,-0.8372,0.2312,-0.0906,-1.283,-0.0165,2040
3,0.196,-0.7905,0.1736,-0.0755,-0.9464,0.0531,2035
3,0.2244,-0.7732,0.1641,-0.0626,-0.7794,0.0189,2037
3,0.2605,-0.7324,0.1741,-0.0878,-0.6059,-0.0194,2068
3,0.2654,-0.7449,0.1765,-0.068,-0.4196,-0.057,2053
3,0.2473,-0.7141,0.168,-0.0397,-0.2621,-0.1193,2044
3,0.2437,-0.7307,0.1716,-0.0234,-0.118,-0.1366,2046
3,0.2397,-0.7209,0.1538,-0.0329,-0.0138,-0.1599,2074
3,0.229,-0.73,0.1375,-0.036,0.0743,-0.1923,2065
3,0.2273,-0.7458,0.1528,-0.0786,0.1125,-0.2056,2044
3,0.2229,-0.7788,0.1445,-0.1312,0.2059,-0.2069,2078
3,0.2478,-0.78,0.1191,-0.1716,0.2494,-0.2068,2036
3,0.2688,-0.8181,0.0935,-0.2557,0.2581,-0.2061,2049
3,0.269,-0.8718,0.0793,-0.3591,0.3064,-0.1948,2025
3,0.6487,-0.8101,0.1055,-0.4224,0.0166,0.0093,2112
3,0.0991,-0.9409,0.0432,-0.5412,0.4212,-0.1776,2022
3,0.1909,-0.9058,0.0505,-0.6172,0.5417,-0.1194,2059
3,0.1985,-0.886,0.0291,-0.7148,0.6628,-0.087,2028
3,0.2009,-0.8467,0.0269,-0.7512,0.862,-0.0688,2062
3,0.1816,-0.8069,0.0295,-0.771,1.0128,-0.0609,2045
3,0.2166,-0.7939,0.0774,-0.6913,1.1553,-0.0597,2042
3,0.2625,-0.8079,0.1208,-0.6715,1.2354,-0.0711,2076
3,0.293,-0.8064,0.137,-0.6244,1.2844,-0.1156,2073
4,0.3408,-0.8201,0.1506,-0.5739,1.2488,-0.1463,2001
4,0.3738,-0.811,0.1741,-0.5394,1.1915,-0.1996,2014
4,0.3835,-0.8228,0.1787,-0.5469,1.111,-0.2273,2118
4,0.365,-0.8638,0.2068,-0.5598,0.979,-0.2594,2078
4,0.3254,-0.8989,0.2061,-0.5979,0.8736,-0.2878,2025
4,0.3159,-0.9346,0.208,-0.6652,0.7931,-0.3243,2065
4,0.2969,-0.9336,0.167,-0.7035,0.7476,-0.3265,2046
4,0.3367,-0.9375,0.1614,-0.7043,0.6525,-0.3217,2048
4,0.3118,-0.9438,0.145,-0.7122,0.6391,-0.3211,2073
4,0.3291,-0.9404,0.1482,-0.6694,0.6022,-0.3073,2047
4,0.365,-0.9541,0.1433,-0.6488,0.5482,-0.2987,2070
4,0.3733,-0.9426,0.1592,-0.5689,0.4746,-0.2687,2023
4,0.3982,-0.9121,0.1787,-0.4765,0.3539,-0.2505,2029
4,0.4202,-0.8706,0.2085,-0.3777,0.2056,-0.1677,2003
4,0.3264,-0.9255,0.2795,-0.3027,0.1485,-0.1125,2097
4,0.261,-0.9412,0.2913,-0.1557,0.0679,-0.0289,2016
4,0.2166,-1.0032,0.3293,-0.0149,-0.0828,0.0149,2076
4,0.2036,-1.0718,0.3381,0.125,-0.1883,0.0858,2063
4,0.1414,-1.1331,0.3054,0.1759,-0.1806,0.1396,2022
4,0.0796,-1.158,0.2886,0.1637,-0.1577,0.1824,2056
4,0.0505,-1.1509,0.3538,0.3185,-0.2024,0.1786,2043
4,0.0574,-1.1238,0.3906,0.4618,-0.1635,0.2127,2083
4,0.0247,-1.1716,0.4595,0.5105,-0.126,0.2755,2020
4,0.0222,-1.2798,0.4487,0.5015,-0.3071,0.3392,2076
4,-0.0671,-1.3459,0.3711,0.292,-0.3341,0.3687,2042
4,-0.2925,-1.4216,0.2092,0.0021,-0.289,0.42,2079
4,-0.3748,-1.3701,0.1321,-0.1666,-0.3518,0.434,2077
4,-0.3362,-1.2935,0.0925,-0.255,-0.2112,0.4377,2051
4,-0.27,-1.1487,0.0662,-0.359,-0.1172,0.4542,2009
4,-0.1858,-1.0481,0.0989,-0.4576,-0.1442,0.4259,2123
4,-0.0728,-0.9578,0.105,-0.5759,-0.2478,0.3779,2021
4,0.0383,-0.8633,0.0989,-0.6341,-0.3982,0.3789,2052
4,0.072,-0.8193,0.1079,-0.6079,-0.5581,0.3645,2074
4,0.1267,-0.8557,0.0984,-0.5946,-0.573,0.3806,2005
4,0.1501,-0.9099,0.0793,-0.6185,-0.4947,0.3959,2067
4,0.2,-0.916,-0.0911,-0.5412,-0.4914,0.3381,2054
4,0.1426,-0.9709,-0.0759,-0.4719,-0.3019,0.3045,2016
4,0.0193,-1.0212,-0.1311,-0.3793,-0.0925,0.2758,2062
4,-0.0251,-1.0586,-0.1316,-0.3185,0.0836,0.2445,2105
4,-0.1125,-1.062,-0.0881,-0.2376,0.3136,0.1886,1999
4,-0.1873,-1.0503,-0.0273,-0.2236,0.5988,0.1553,2074
4,-0.1345,-1.0371,0.0732,-0.1329,0.909,0.1635,2035
4,-0.0164,-1.042,0.1475,-0.0752,1.184,0.1665,2040
4,0.0967,-1.032,0.2026,-0.0409,1.2521,0.137,2103
4,0.1697,-1.0952,0.2522,-0.0426,1.1784,0.0589,2065
4,0.1948,-1.126,0.2634,-0.0462,1.0308,-0.067,2029
4,0.1929,-1.1035,0.2417,-0.1001,0.867,-0.128,2045
4,0.135,-1.0923,0.2312,-0.1047,0.6173,-0.1462,2057
4,0.0732,-1.0955,0.2231,-0.1186,0.4103,-0.1649,2053
4,0.0278,-1.0615,0.1963,-0.1081,0.2526,-0.191,2053
4,0.0503,-1.02,0.1719,-0.1151,0.1321,-0.2345,2033
4,0.0522,-0.9939,0.1218,-0.1318,0.0417,-0.2631,2086
4,0.0686,-0.9343,0.0913,-0.0631,-0.019,-0.2867,2051
4,0.0908,-0.9163,0.0938,-0.0172,-0.0574,-0.2747,2022
4,0.1194,-0.9185,0.0745,-0.0033,-0.1145,-0.1807,2054
4,0.0994,-0.9167,0.0627,-0.0386,-0.1766,-0.1923,2072
4,0.0547,-0.8848,0.0508,-0.0742,-0.1767,-0.2288,2053
4,0.0374,-0.8599,0.0247,-0.0792,-0.1205,-0.2493,2052
4,0.0322,-0.8438,0.012,-0.0591,-0.0264,-0.2189,2024
4,0.0146,-0.8044,-0.0415,0.0096,0.1137,-0.1799,2052
4,-0.0056,-0.8044,-0.0767,0.1017,0.2975,-0.1589,2036
4,0.0303,-0.8237,-0.0774,0.1561,0.4061,-0.1242,2042
4,0.04,-0.8564,-0.0967,0.1748,0.4413,-0.1292,2056
4,0.0481,-0.8655,-0.0969,0.1734,0.4099,-0.1392,2056
4,0.0356,-0.8779,-0.1001,0.1651,0.3394,-0.1337,2043
4,0.0325,-0.884,-0.0913,0.1571,0.2659,-0.1129,2075
4,0.0325,-0.8567,-0.0681,0.1309,0.2103,-0.1007,2028
4,0.0371,-0.8257,-0.0464,0.1039,0.1591,-0.0898,2051
4,0.0398,-0.7939,-0.0427,0.0831,0.1178,-0.0835,2079
4,0.0569,-0.7661,-0.0378,0.087,0.0679,-0.0911,2031
4,0.0386,-0.7368,0.0188,0.0169,0.0565,-0.1108,2046
4,0.0103,-0.7319,0.0276,-0.0314,0.0964,-0.1541,2033
4,0.0195,-0.731,0.0076,-0.0525,0.1855,-0.1493,2050
4,0.0251,-0.7405,0.0103,-0.0772,0.2938,-0.1704,2054
4,0.0894,-0.7209,0.0137,-0.1081,0.3726,-0.2079,2034
4,0.1699,-0.6699,0.0029,-0.1008,0.3815,-0.2199,2073
4,0.2278,-0.6833,0.0029,-0.1139,0.3615,-0.2149,2061
4,0.2522,-0.6772,0.0029,-0.0791,0.2984,-0.2055,2035
4,0.2478,-0.696,0.0293,-0.0095,0.238,-0.231,2082
4,0.2261,-0.6926,0.0569,0.0313,0.2249,-0.248,2040
4,0.1987,-0.7114,0.073,0.0706,0.289,-0.2649,2024
4,0.1819,-0.7131,0.0479,0.1372,0.3185,-0.2647,2071
4,0.1917,-0.7126,0.0459,0.2369,0.337,-0.2787,2072
4,0.1824,-0.7402,0.0374,0.2639,0.3159,-0.3156,2050
4,0.1194,-0.7578,0.0059,0.2914,0.263,-0.3352,2079
4,0.0647,-0.7881,-0.0154,0.3217,0.2183,-0.3187,2046
4,0.0242,-0.8142,0.011,0.3622,0.2055,-0.2854,2020
4,0.002,-0.8218,0.0225,0.3898,0.176,-0.2794,2118
4,0.0103,-0.7876,0.0505,0.4385,0.0762,-0.2693,2039
4,0.0308,-0.7502,0.0698,0.483,-0.0365,-0.2473,2032
4,0.0608,-0.749,0.1018,0.5414,-0.127,-0.2246,2054
4,0.0732,-0.748,0.137,0.5629,-0.2268,-0.2176,2061
4,0.0786,-0.7817,0.1665,0.5613,-0.3538,-0.202,2121
4,0.0979,-0.8672,0.1475,0.5087,-0.4132,-0.1788,2058
4,0.1001,-1.0703,0.1067,0.3751,-0.507,-0.1964,2074
4,0.0369,-1.3027,0.0977,0.1927,-0.4972,-0.2021,2025
4,-0.0454,-1.3459,0.0845,0.0915,-0.4452,-0.1549,2024
4,-0.1104,-1.3235,0.1355,-0.1001,-0.3743,-0.1065,2086
4,-0.1868,-1.2827,0.2507,-0.1876,-0.1052,-0.0189,2060
4,-0.0383,-1.5,0.259,-0.2362,-0.0437,0.1236,2119
4,-0.0239,-1.8579,0.2759,-0.1163,0.0162,0.2908,1957
4,-0.0059,-2.0,0.3716,-0.2053,0.4722,0.2145,2099
4,0.0405,-1.8008,0.4988,-0.2305,0.72,0.2654,2012
4,0.1409,-1.4978,0.6301,-0.3731,0.8594,0.3938,1980
4,0.3037,-1.2258,0.6682,-0.4317,0.9084,0.5658,2142
5,0.3408,-1.2317,0.6077,-0.4157,0.6714,0.555,1974
5,0.3157,-1.4082,0.6138,-0.1779,0.2088,0.6677,2121
5,0.3889,-1.4587,0.5164,-0.3597,-0.1997,0.5777,2042
5,0.5281,-1.3804,0.3652,-0.4647,-0.8199,0.5203,2056
5,0.4016,-1.4175,0.2979,-0.5773,-1.2077,0.2597,2058
5,0.3596,-1.2852,0.2048,-0.5046,-1.307,0.1854,2023
5,0.3318,-1.2417,0.1511,-0.3946,-1.3391,0.1337,2046
5,0.3928,-1.1992,0.137,-0.2687,-1.3149,0.0919,2062
5,0.3879,-1.1294,0.1824,-0.1506,-1.2227,0.0663,2055
5,0.3774,-1.0256,0.2039,-0.036,-1.1327,0.0194,2044
5,0.3821,-0.9492,0.1914,0.0526,-1.0248,-0.0435,2045
5,0.3357,-0.8577,0.2083,0.0641,-0.8407,-0.1202,2049
5,0.2715,-0.7988,0.2007,0.0708,-0.6275,-0.1742,2053
5,0.2166,-0.6575,0.1584,0.1178,-0.4397,-0.1959,2053
5,0.2048,-0.6184,0.1868,0.1854,-0.2461,-0.1752,2053
5,0.2156,-0.5859,0.1733,0.2864,-0.072,-0.1378,2044
5,0.2114,-0.5786,0.1514,0.3321,0.0418,-0.1286,2044
5,0.2017,-0.5737,0.1047,0.3131,0.1293,-0.1206,2023
5,0.2007,-0.5542,0.0583,0.2816,0.1646,-0.0852,2039
5,0.2148,-0.5229,0.022,0.2602,0.1663,-0.0498,2050
5,0.2024,-0.5354,0.0005,0.2325,0.1823,-0.0304,2042
5,0.1643,-0.54,-0.0325,0.1218,0.2318,0.0344,2061
5,0.0806,-0.5386,-0.0562,0.0065,0.2454,0.0755,2065
5,0.0142,-0.5388,-0.0723,-0.059,0.2507,0.1388,2060
5,-0.0437,-0.5371,-0.0413,-0.1206,0.347,0.1879,2032
5,-0.0686,-0.5356,-0.03,-0.153,0.4382,0.1871,2046
5,-0.032,-0.4832,0.0044,-0.0783,0.481,0.2112,2065
5,0.0771,-0.5002,0.0452,-0.08,0.4505,0.1843,2026
5,0.166,-0.5127,0.0349,-0.1097,0.3599,0.1627,2047
5,0.1389,-0.5803,0.0386,-0.2229,0.2847,0.1506,2076
5,0.1118,-0.6047,0.0303,-0.2906,0.3008,0.1811,1971
5,0.0662,-0.6897,0.062,-0.4077,0.4629,0.1196,2011
5,0.0317,-0.676,0.0637,-0.5113,0.6795,0.1642,2043
5,-0.0051,-0.7109,0.064,-0.5635,0.7263,0.237,2091
5,-0.0244,-0.7715,0.113,-0.6299,0.9088,0.2868,2050
5,0.04,-0.7395,0.1355,-0.6829,1.1789,0.3167,2021
5,0.0222,-0.7004,0.1606,-0.6658,1.3492,0.3919,2046
5,0.0537,-0.6768,0.1741,-0.6135,1.2529,0.4835,2047
5,0.2939,-0.6194,0.2473,-0.575,1.1646,0.5147,2063
5,0.3118,-0.7009,0.1753,-0.4217,0.7111,0.5473,2023
5,0.4331,-0.6975,0.2578,-0.4578,0.2053,0.6287,2099
5,0.1475,-0.8716,0.2014,-0.0455,-0.2325,0.3595,2046
5,0.3569,-0.771,0.2505,-0.0778,-0.3372,0.558,2003
5,0.2356,-1.0085,0.2183,0.1481,-0.2796,0.1111,2156
5,0.0076,-1.1663,0.2517,0.3755,-0.3314,0.1378,2044
5,0.0715,-1.2542,0.2939,0.3758,-0.1513,0.0546,2016
5,0.2454,-1.2649,0.231,0.2037,-0.0688,0.1209,2027
5,0.071,-1.5679,0.1667,-0.0003,-0.0123,0.3589,2059
5,-0.3911,-2.0,0.0886,-0.2007,0.3452,0.4699,2012
5,-0.3264,-2.0,0.0227,-0.1617,0.5207,0.3396,2066
5,-0.3406,-2.0,-0.1077,-0.3532,0.6787,0.1297,2113
5,-0.4355,-1.9404,-0.2437,-0.6163,0.4906,0.206,2007
5,-0.4824,-1.6074,-0.3232,-0.8775,0.4316,0.444,2028
5,-0.3936,-1.4377,-0.1816,-0.6819,0.5169,0.7014,2130
5,-0.0996,-1.4675,0.0698,-0.3729,0.781,0.7668,2044
5,0.2292,-1.429,0.3857,-0.2065,1.0215,0.7315,2035
5,0.3438,-1.4692,0.5205,-0.0555,0.9195,0.6257,2053
5,0.2993,-1.6057,0.5017,-0.0738,0.8046,0.5196,2045
5,0.2603,-1.6768,0.345,-0.0617,0.6188,0.4079,2053
5,0.1895,-1.6196,0.1292,0.0189,0.4501,0.1776,2048
5,0.3708,-1.6157,0.0728,0.0474,-0.0454,0.075,2066
5,0.1216,-1.377,0.0618,0.2155,-0.1907,-0.0039,2054
5,0.0676,-1.2959,0.051,0.3059,-0.4654,-0.2121,2057
5,-0.1042,-1.3523,0.127,0.1774,-0.355,-0.7486,2055
5,0.2175,-1.0962,0.0435,0.534,-0.6279,-0.7188,2040
5,0.0859,-1.1204,0.0986,0.5624,-0.5091,-0.8513,2097
5,0.1091,-1.1145,0.0923,0.5392,-0.2441,-0.8122,2046
5,0.1499,-1.0525,0.1694,0.5321,0.0326,-0.6169,2048
5,0.1538,-0.9941,0.1702,0.5152,0.2661,-0.6096,2016
5,0.1758,-0.9783,0.1477,0.4441,0.4578,-0.6305,2072
5,0.2107,-0.9304,0.0996,0.3859,0.5797,-0.608,2044
5,0.2151,-0.8501,0.0833,0.3233,0.6521,-0.6391,2047
5,0.1772,-0.7773,0.0703,0.2774,0.7297,-0.6496,2054
5,0.1655,-0.7412,0.0657,0.2701,0.734,-0.6994,2040
5,0.1665,-0.7229,0.0718,0.2223,0.6938,-0.7216,2060
5,0.1565,-0.6289,0.0706,0.1947,0.6146,-0.7617,2052
5,0.1042,-0.5537,0.0576,0.1629,0.5343,-0.7708,2043
5,0.0493,-0.5122,0.073,0.1755,0.4181,-0.7433,2042
5,-0.0059,-0.4814,0.0569,0.1902,0.3934,-0.7324,2056
5,-0.0544,-0.4805,0.012,0.2024,0.4505,-0.6781,2050
5,-0.0474,-0.4792,0.01,0.2392,0.4723,-0.6546,2053
5,-0.03,-0.4998,-0.0071,0.2567,0.5231,-0.648,2050
5,-0.0103,-0.5413,-0.0312,0.2233,0.4851,-0.5793,2048
5,-0.0156,-0.5659,-0.1086,0.2019,0.5588,-0.5858,2027
5,-0.0076,-0.6196,-0.1428,0.2165,0.5593,-0.5292,2050
5,-0.0073,-0.6792,-0.1582,0.2163,0.5504,-0.4739,2066
5,0.0264,-0.7366,-0.1736,0.1679,0.5461,-0.4402,2036
5,0.02,-0.7478,-0.1846,0.1128,0.4805,-0.4318,2064
5,0.0039,-0.7026,-0.1802,0.0607,0.3621,-0.4008,2063
5,-0.0332,-0.6335,-0.1572,0.0459,0.2947,-0.3432,2014
5,-0.0737,-0.5984,-0.0874,0.02,0.2071,-0.2898,2133
5,-0.0862,-0.5459,-0.0129,0.0465,0.1178,-0.2328,2007
5,-0.0498,-0.5208,0.0,0.1233,0.1125,-0.1129,2058
5,-0.104,-0.5483,0.0566,0.1527,0.1081,-0.0574,2110
5,-0.041,-0.5725,0.1111,0.2575,0.0622,0.0116,2015
5,0.0999,-0.6257,0.1465,0.3314,-0.1439,0.0083,1953
5,0.1814,-0.6775,0.1472,0.2208,-0.1916,-0.0583,2122
5,0.0891,-0.7214,0.0396,0.0309,-0.2321,-0.0549,2056
5,-0.0422,-0.7285,0.0166,0.016,-0.3229,0.0553,2055
5,-0.1162,-0.7793,0.0349,-0.0563,-0.1738,0.1389,2038
5,-0.1135,-0.833,0.0254,0.0031,0.1249,0.1541,2066
5,-0.063,-0.9001,0.0251,0.0554,0.1523,0.1824,2048
6,0.1045,-1.0684,0.0249,0.1531,0.0968,0.1946,2039
6,0.2021,-1.2844,0.0654,0.1475,0.0152,0.2276,2039
6,0.1272,-1.3091,0.0945,0.2268,-0.157,0.1655,1988
6,0.073,-1.2278,0.1946,0.133,-0.2883,0.2338,2052
6,0.0173,-1.1934,0.3284,0.1048,-0.282,0.2237,2017
6,0.1301,-1.3096,0.4644,-0.0004,-0.2766,0.3614,2164
6,0.1475,-1.6814,0.436,0.0422,-0.3418,0.4368,2038
6,0.0967,-2.0,0.5305,-0.0688,-0.2493,0.4682,2033
6,0.1001,-2.0,0.6663,-0.2348,-0.0397,0.4538,2007
6,0.2651,-1.6301,0.7566,-0.2639,0.1586,0.5263,2040
6,0.3813,-1.3306,0.9158,-0.0788,0.1469,0.6092,2119
6,0.5657,-1.2195,0.9641,0.1762,-0.2594,0.6426,2025
6,0.4778,-1.2163,0.9419,0.3689,-0.6706,0.3699,2064
6,0.4614,-1.2891,0.8394,0.461,-1.0475,0.059,2049
6,0.5,-1.3315,0.707,0.7364,-1.5728,-0.1168,2059
6,0.5789,-1.4773,0.4817,0.6304,-1.8664,-0.2051,2052
6,0.48,-1.5508,0.2585,0.3952,-2.0232,-0.283,2055
6,0.2493,-1.5076,0.1704,0.1991,-2.1895,-0.2878,2053
6,0.1819,-1.3271,0.0579,0.076,-2.2449,-0.235,2048
6,0.1782,-1.1824,0.0051,0.0557,-2.179,-0.177,2056
6,0.2952,-1.1201,0.0725,0.0065,-2.1514,-0.0659,2031
6,0.1453,-1.0156,0.0854,-0.0253,-1.9237,-0.0814,2046
6,0.1636,-0.927,0.1235,-0.0595,-1.7408,-0.0003,2051
6,0.1567,-0.8362,0.1738,-0.0603,-1.5336,0.0212,2063
6,0.1379,-0.7515,0.1719,-0.0392,-1.2888,0.1242,2056
6,0.0947,-0.6262,0.2341,0.0361,-0.9565,0.1412,2067
6,0.0789,-0.5491,0.217,0.1023,-0.6926,0.1766,2057
6,0.1052,-0.5454,0.2263,0.1549,-0.4472,0.1936,2056
6,0.1189,-0.5508,0.1445,0.0802,-0.2476,0.1803,2059
6,0.0864,-0.5488,0.0847,0.027,-0.0731,0.1674,2048
6,0.0796,-0.5864,0.0369,0.0189,-0.0148,0.2017,2058
6,0.1094,-0.5854,0.0537,0.0318,0.0304,0.2284,2037
6,0.1138,-0.6177,0.0652,-0.051,0.0748,0.2385,2062
6,0.1179,-0.6069,0.0793,-0.1107,0.0961,0.236,2035
6,0.0872,-0.583,0.0793,-0.2249,0.135,0.245,2066
6,0.0686,-0.5889,0.0977,-0.3585,0.2096,0.2771,2054
6,-0.0286,-0.6401,0.1311,-0.524,0.3386,0.2503,2056
6,0.0452,-0.5496,0.1104,-0.6183,0.4675,0.2938,2032
6,0.0735,-0.5156,0.1289,-0.6827,0.5794,0.3152,2075
6,0.1355,-0.4658,0.0959,-0.713,0.6917,0.3377,2030
6,0.1387,-0.4714,0.1013,-0.7469,0.8178,0.3563,2079
6,0.1614,-0.5034,0.062,-0.7794,0.8299,0.3639,2043
6,0.2043,-0.5247,0.0154,-0.7978,0.8669,0.3402,2052
6,0.2183,-0.5161,-0.0056,-0.6842,0.8411,0.3506,2023
6,0.2668,-0.4504,0.0283,-0.6715,0.7939,0.3761,2056
6,0.3638,-0.4111,0.0496,-0.6629,0.6148,0.5959,2124
6,0.3591,-0.4824,-0.0171,-0.6885,0.4177,0.7188,2080
6,0.2393,-0.6001,-0.0264,-0.6719,0.2444,0.7458,2047
6,0.2168,-0.7466,-0.0154,-0.6492,0.1055,0.7553,2009
6,0.0371,-0.9563,0.0093,-0.6303,0.1666,0.6645,2120
6,0.1155,-0.9233,0.0925,-0.5376,0.2052,0.6629,2075
6,0.0618,-0.9666,0.1807,-0.4626,0.2634,0.612,2070
6,0.0159,-0.9707,0.1973,-0.3542,0.2274,0.6068,2042
6,-0.4324,-1.1445,0.0781,0.0269,0.1952,0.2759,2052
6,0.3164,-0.7808,0.4421,-0.3549,0.4939,0.6123,2049
6,0.3916,-0.7742,0.2859,-0.2819,1.0143,0.2623,2030
6,0.071,-0.9736,0.2874,-0.2365,0.605,0.3649,2056
6,0.0369,-1.0754,0.2507,-0.0675,0.4529,0.2288,2000
6,0.1418,-1.1416,0.2258,0.2376,0.2577,0.0979,2046
6,0.1179,-1.1909,0.2568,0.4852,0.0806,-0.0395,2103
6,0.043,-1.2073,0.3513,0.5908,0.0257,-0.2257,2064
6,0.0681,-1.2781,0.3687,0.2523,0.755,-0.7996,2074
6,0.1548,-1.2837,0.3137,0.4003,0.169,0.0073,2019
6,-0.3086,-1.6594,0.2307,0.0578,0.488,0.1096,2052
6,-0.2666,-1.9817,0.1145,-0.1156,0.7835,0.2884,2064
6,-0.2261,-2.0,-0.1199,-0.1645,0.9692,0.2466,2054
6,-0.3794,-1.9856,-0.1709,-0.2602,0.9593,0.1611,1990
6,-0.3398,-1.854,-0.1653,-0.4047,0.7277,0.3217,2145
6,-0.2222,-1.6309,-0.1052,-0.4248,0.6995,0.6426,2013
6,0.0117,-1.6345,0.0452,-0.5071,0.4602,0.9676,2054
6,-0.0076,-1.5312,0.2192,-0.4615,0.434,0.9926,2041
6,0.01,-1.3826,0.3311,-0.2284,0.4018,0.7969,2046
6,0.1843,-1.6697,0.4016,-0.4417,0.034,0.8537,2070
6,0.1663,-1.4888,0.2732,-0.4289,0.0341,0.7458,2024
6,0.1682,-1.4668,0.2012,-0.3983,-0.0471,0.6139,2069
6,0.1741,-1.4348,0.1555,-0.3025,-0.2175,0.4497,2047
6,0.0579,-1.3723,0.0842,-0.0722,-0.2261,0.2157,2065
6,0.0811,-1.2949,0.0593,0.171,-0.3156,0.0872,2053
6,0.0193,-1.2195,0.053,0.3924,-0.3982,-0.0923,2053
6,-0.0454,-1.1729,0.0769,0.5538,-0.3139,-0.3348,2047
6,-0.071,-1.1467,0.075,0.6537,-0.0842,-0.6004,2048
6,-0.0146,-1.0659,0.1265,0.8143,0.1222,-0.8684,2062
6,0.0725,-1.0208,0.1594,0.852,0.3282,-1.1669,2045
6,0.137,-0.9426,0.2024,0.8773,0.5586,-1.3789,2052
6,0.1553,-0.9331,0.1921,0.8279,0.7138,-1.4708,2041
6,0.2205,-0.9412,0.1812,0.7383,0.7654,-1.3988,2044
6,0.2761,-0.8586,0.2068,0.5739,0.7327,-1.3038,2045
6,0.2729,-0.7688,0.0698,0.2269,0.4488,-0.8742,2044
6,0.2244,-0.6848,0.158,0.1175,0.2133,-0.6396,2061
6,0.1704,-0.5967,0.104,0.0667,0.2585,-0.7462,2053
6,0.1511,-0.6348,0.0913,0.0635,0.1811,-0.7678,2052
6,0.1096,-0.6423,0.0737,0.0304,0.2015,-0.8167,2029
6,0.0918,-0.6404,0.0386,0.0023,0.2313,-0.8497,2053
6,0.0542,-0.6619,0.0071,-0.024,0.2425,-0.8112,2056
6,-0.0078,-0.6282,-0.054,-0.0534,0.2754,-0.769,2058
6,-0.042,-0.5964,-0.0505,-0.0806,0.2935,-0.6975,2070
6,-0.0662,-0.5476,-0.0874,-0.0535,0.3151,-0.6292,2051
6,-0.0981,-0.519,-0.1104,-0.0067,0.4244,-0.571,2046
6,-0.1086,-0.5183,-0.135,0.0619,0.5597,-0.5372,2059
6,-0.0803,-0.5298,-0.1267,0.126,0.645,-0.5078,2051
6,-0.0437,-0.5764,-0.1433,0.1233,0.6925,-0.461,2053
7,-0.0049,-0.6331,-0.1675,0.134,0.6878,-0.4159,2040
7,0.0144,-0.7202,-0.1755,0.1417,0.6035,-0.3769,2055
7,-0.0068,-0.7959,-0.1829,0.1135,0.4749,-0.3646,2067
7,-0.0498,-0.823,-0.1726,0.0499,0.3282,-0.3237,2038
7,-0.0554,-0.8328,-0.0896,-0.0325,0.2236,-0.224,2030
7,-0.0571,-0.7566,-0.0962,-0.0569,0.1529,-0.0752,2029
7,-0.1604,-0.7266,-0.0168,-0.08,0.1123,-0.0064,2040
7,-0.0779,-0.7241,0.0127,-0.1044,-0.0342,0.1194,2119
7,-0.0222,-0.6853,-0.0056,0.0035,-0.0615,0.1916,1975
7,-0.0066,-0.7598,0.0105,0.0382,-0.0848,0.2045,2043
7,0.0769,-0.8008,0.0977,0.2302,-0.3083,0.1896,2061
7,0.3389,-0.8381,0.1912,0.3773,-0.6597,0.1234,2069
7,0.4175,-0.998,0.1423,0.0973,-0.7688,0.0422,2067
7,0.1287,-1.0239,0.0767,-0.1589,-0.9581,0.0274,2038
7,-0.0747,-0.8445,0.0247,-0.2069,-1.0841,0.1834,2065
7,-0.1543,-0.7708,-0.0032,-0.2535,-0.785,0.2201,2038
7,-0.1667,-0.72,0.0564,-0.1642,-0.3823,0.2571,2141
7,-0.0667,-0.6768,0.1267,-0.1004,-0.1736,0.2585,2004
7,0.1067,-0.6621,0.1704,-0.0828,-0.0997,0.174,2047
7,0.3057,-0.6504,0.2031,0.0144,-0.1946,0.136,2130
7,0.3813,-0.7495,0.2002,0.1445,-0.3657,0.1623,2009
7,0.3474,-0.9775,0.1978,0.1798,-0.491,0.1322,2067
7,0.303,-1.1785,0.2307,0.2079,-0.4919,0.0055,1994
7,0.24,-1.2478,0.2573,0.2369,-0.365,-0.1462,2168
7,0.3135,-1.2168,0.3738,0.3184,-0.3842,-0.1288,2024
7,0.2871,-1.0549,0.4709,0.4036,-0.3719,-0.022,2060
7,0.4341,-1.0503,0.4846,0.5035,-0.3642,0.0575,1985
7,0.4739,-1.3816,0.4351,0.642,-0.4155,-0.0244,2114
7,0.3047,-1.8374,0.4753,0.7839,-0.3595,-0.0894,2028
7,-0.0198,-2.0,0.5229,0.4332,-0.127,-0.0844,2092
7,-0.1995,-1.8926,0.4998,0.2539,0.0892,0.0999,2054
7,-0.2737,-1.6794,0.4561,-0.0344,0.4051,0.1152,2032
7,-0.1851,-1.5925,0.446,-0.1541,0.4135,0.1015,2097
7,-0.2126,-1.6069,0.4722,-0.342,0.4248,0.0871,2032
7,0.0518,-1.4663,0.3677,-0.4412,0.1647,0.0401,2042
7,0.3176,-1.4077,0.2732,-0.5741,-0.3039,-0.0294,2050
7,0.3855,-1.3813,0.2415,-0.6239,-0.6293,-0.1003,2048
7,0.3804,-1.2983,0.2336,-0.5795,-0.9015,-0.1169,2052
7,0.3718,-1.2444,0.2068,-0.5223,-1.0641,-0.1617,2061
7,0.3484,-1.2056,0.2522,-0.4303,-1.1959,-0.1527,2055
7,0.3271,-1.0557,0.2698,-0.3317,-1.3073,-0.0724,2048
7,0.3052,-0.9832,0.2705,-0.2808,-1.3785,-0.0324,2053
7,0.2544,-0.8958,0.27,-0.2061,-1.4103,0.032,2055
7,0.2009,-0.781,0.2419,-0.1193,-1.3234,0.12,2058
7,0.0776,-0.6899,0.1853,-0.0547,-1.0995,0.2107,2038
7,-0.0054,-0.6184,0.1824,0.0834,-0.7893,0.2891,2054
7,0.022,-0.6021,0.1404,0.1967,-0.5016,0.3219,2039
7,0.1235,-0.6367,0.0986,0.2461,-0.2665,0.3021,2030
7,0.1709,-0.6616,0.0698,0.2348,-0.0832,0.2352,2061
7,0.2039,-0.676,0.0295,0.1751,0.0138,0.1703,2052
7,0.2251,-0.6699,-0.0352,0.0894,0.0434,0.1165,2056
7,0.2168,-0.667,-0.0603,-0.0256,0.1109,0.0948,2046
7,0.1794,-0.6497,-0.0796,-0.1373,0.1838,0.1165,2048
7,0.1379,-0.6331,-0.0378,-0.2237,0.2141,0.1397,2056
7,0.113,-0.6111,-0.001,-0.3272,0.2128,0.1695,2045
7,0.0845,-0.5483,0.033,-0.4402,0.2298,0.1513,2052
7,0.072,-0.459,0.0271,-0.4473,0.3133,0.1768,2079
7,0.0557,-0.4653,0.0557,-0.5496,0.3686,0.1665,2033
7,0.0671,-0.4346,0.0474,-0.5995,0.4219,0.1555,2051
7,0.0803,-0.4014,0.0339,-0.5998,0.4862,0.1611,2064
7,0.126,-0.4072,0.032,-0.5529,0.5501,0.1659,2044
7,0.167,-0.4333,0.0103,-0.4626,0.5797,0.2096,2059
7,0.1873,-0.519,0.0208,-0.3866,0.5422,0.2321,2052
7,0.197,-0.5857,0.0476,-0.2967,0.5058,0.2741,2059
7,0.1824,-0.6443,0.0688,-0.3418,0.6477,0.2975,2061
7,0.2852,-0.5913,0.0378,-0.4315,0.708,0.3394,2034
7,0.2129,-0.6321,0.0999,-0.5892,0.7528,0.5221,2078
7,0.0952,-0.7051,0.071,-0.5805,0.6601,0.5805,2055
7,0.1394,-0.7781,0.1084,-0.6645,0.6131,0.6287,2012
7,0.1135,-0.8037,0.1453,-0.5912,0.4718,0.5911,2108
7,-0.1562,-0.8582,0.1216,-0.4991,0.31,0.4369,2079
7,0.04,-0.8191,0.2629,-0.3927,0.2436,0.3603,2016
7,0.2161,-0.7451,0.186,-0.4936,0.2503,0.5612,2049
7,0.2383,-0.7471,0.2368,-0.4217,0.1838,0.5647,2078
7,0.1362,-0.9065,0.2429,-0.2402,-0.1084,0.4879,2046
7,0.0251,-1.0203,0.2166,0.0663,-0.11,0.2792,2065
7,-0.1628,-1.0842,0.2585,0.4522,-0.0105,0.0578,2017
7,0.0603,-1.2009,0.3291,0.7782,0.0358,0.0189,2108
7,-0.0066,-1.3853,0.3611,0.5329,1.101,-0.801,2011
7,0.1487,-1.595,0.3091,0.4328,0.3967,0.1711,2115
7,-0.4424,-1.9265,0.0881,-0.0256,0.648,0.1766,1987
7,-0.45,-2.0,-0.0808,-0.329,0.8893,0.3623,2062
7,-0.4373,-2.0,-0.2539,-0.3984,0.9953,0.2404,2060
7,-0.3286,-2.0,-0.3315,-0.6407,0.9175,0.229,2004
7,-0.0007,-1.6809,-0.3179,-0.9178,0.6176,0.5573,2045
7,-0.0742,-1.4932,-0.207,-1.0493,0.344,0.8071,2046
7,-0.0894,-1.3752,0.0283,-0.8104,0.461,0.8496,2061
7,0.0784,-1.3215,0.4082,-0.6597,0.4821,0.9015,2045
7,0.1624,-1.4873,0.6548,-0.1479,0.5209,0.9383,2036
7,0.2588,-1.6099,0.4878,-0.0968,0.3199,0.7383,2058
7,0.3845,-1.887,0.3713,-0.2546,0.1262,0.5797,2059
7,0.2812,-1.6392,0.126,-0.0477,-0.0249,0.3265,2054
7,0.1348,-1.5413,0.0249,0.1657,-0.1526,0.1879,2045
7,0.0698,-1.4421,0.0181,0.3064,-0.2583,0.131,2051
7,-0.054,-1.3552,0.0205,0.5054,-0.3304,-0.031,2051
7,-0.0215,-1.2832,0.05,0.7321,-0.3492,-0.2346,2074
7,-0.0039,-1.2412,0.0583,0.9686,-0.29,-0.5481,2036
7,-0.0132,-1.1299,0.1047,1.1367,-0.172,-0.9413,2068
7,0.2385,-1.0779,0.0662,0.9496,0.4586,-1.7929,2053
7,0.1714,-1.0298,0.2219,1.3692,0.3345,-1.1913,2046
7,-0.2319,-1.354,0.4917,0.8841,1.0231,-1.3608,2046
7,0.2893,-0.9053,0.1858,0.8914,0.8499,-1.1524,2044
7,0.3003,-0.842,0.1919,0.6666,0.8023,-0.9317,2046
7,0.2058,-0.9265,0.1499,0.512,0.7195,-0.7626,2050
8,0.2473,-0.7065,0.1423,0.3653,0.6289,-0.7825,2061
8,0.1804,-0.6931,0.1008,0.2605,0.5819,-0.7926,2044
8,0.1206,-0.6975,0.0857,0.1625,0.4686,-0.7376,2054
8,0.0554,-0.5962,0.0752,0.1057,0.4311,-0.7455,2047
8,0.0374,-0.5374,0.0608,0.0626,0.4301,-0.7385,2043
8,-0.0042,-0.4998,0.0229,0.0742,0.4342,-0.744,2099
8,-0.0193,-0.5054,0.0315,0.0936,0.4299,-0.7376,2054
8,-0.0317,-0.4998,0.0005,0.104,0.3942,-0.7231,2051
8,-0.0273,-0.4961,-0.0442,0.1308,0.4337,-0.7066,2045
8,-0.0198,-0.4944,-0.0703,0.137,0.4287,-0.6826,2064
8,0.009,-0.499,-0.1035,0.1117,0.4032,-0.6759,2053
8,0.0134,-0.5117,-0.1584,0.1185,0.3954,-0.6999,2030
8,0.0076,-0.5403,-0.1921,0.123,0.3649,-0.6652,2044
8,-0.0115,-0.584,-0.2231,0.133,0.3578,-0.6352,2054
8,-0.0334,-0.6021,-0.21,0.0923,0.3538,-0.5821,2037
8,-0.0398,-0.6152,-0.1907,0.0774,0.2911,-0.5137,2042
8,-0.0537,-0.5938,-0.1611,0.0894,0.2663,-0.4641,2050
8,-0.0557,-0.5769,-0.1101,0.087,0.2252,-0.3875,2041
8,-0.0271,-0.5723,-0.0825,0.0617,0.1582,-0.3053,2042
8,-0.0034,-0.5852,-0.0356,0.0369,0.0796,-0.2276,2061
8,0.0017,-0.6028,-0.0217,0.0273,0.0154,-0.1382,2042
8,0.0044,-0.6609,0.0107,0.0381,-0.0622,-0.0631,2068
8,0.1296,-0.675,0.042,0.3718,-0.2983,0.0914,2089
8,0.2793,-0.8171,0.1494,0.4271,-0.5111,0.0004,2065
8,0.2585,-1.0105,0.1152,0.1973,-0.6813,-0.0874,2025
8,-0.0386,-1.0576,0.0308,-0.1326,-0.8867,-0.1032,2054
8,-0.2354,-0.8984,0.0159,-0.2035,-0.8646,0.125,2045
8,-0.2888,-0.823,-0.0195,-0.2735,-0.5465,0.3087,2068
8,-0.3032,-0.8142,-0.0154,-0.2155,-0.2607,0.4358,2004
8,-0.252,-0.8579,-0.0051,0.0186,-0.0653,0.4802,2055
8,0.0159,-1.156,0.0513,0.0294,-0.1767,0.4016,2032
8,0.1394,-1.3357,0.1189,-0.0146,-0.3529,0.3899,2083
8,0.1628,-1.3059,0.3005,-0.1497,-0.3719,0.35,2057
8,0.2209,-1.3074,0.4204,-0.295,-0.2966,0.4135,2019
8,0.2148,-1.2986,0.5469,-0.4984,-0.2179,0.713,2081
8,0.3735,-1.1831,0.6406,-0.5715,-0.1012,1.0303,2036
8,0.1538,-1.4036,0.6099,-0.3551,-0.3048,1.0144,2064
8,-0.041,-1.8071,0.5532,-0.1678,-0.3505,0.6686,2003
8,0.1174,-1.9192,0.5288,-0.1487,0.0902,0.5,2094
8,0.1929,-1.7034,0.6685,0.1534,0.1489,0.4594,2036
8,0.2217,-1.6108,0.73,0.2832,-0.0718,0.4445,2081
8,0.302,-1.4871,0.6638,0.4036,-0.3304,0.184,2039
8,0.4292,-1.3743,0.5615,0.4486,-0.4257,-0.1852,2034
8,0.5007,-1.2769,0.436,0.3678,-0.6709,-0.4613,2041
8,0.4783,-1.3616,0.3765,0.4288,-1.2022,-0.5414,2074
8,0.4062,-1.4773,0.3311,0.3095,-1.4267,-0.4966,2039
8,0.334,-1.5149,0.2048,0.091,-1.6595,-0.435,2049
8,0.2185,-1.4897,0.1228,-0.0796,-1.7638,-0.4051,2050
8,0.2212,-1.3542,0.0603,-0.2392,-1.7029,-0.3755,2052
8,0.219,-1.2549,-0.0085,-0.3485,-1.5689,-0.3976,2057
8,0.1907,-1.125,-0.0139,-0.4116,-1.388,-0.3582,2057
8,0.22,-1.0312,0.0288,-0.4526,-1.2629,-0.2823,2054
8,0.1145,-0.929,0.0491,-0.4609,-1.0369,-0.2589,2053
8,0.1936,-0.8657,0.1194,-0.4707,-0.8388,-0.1513,2047
8,0.1267,-0.7803,0.1318,-0.4798,-0.6074,-0.1076,2046
8,0.0388,-0.6799,0.1204,-0.3872,-0.3655,-0.0021,2047
8,0.0068,-0.6377,0.1382,-0.291,-0.1534,0.085,2044
8,0.0334,-0.5896,0.1833,-0.1888,0.0655,0.1336,2058
8,0.042,-0.5452,0.1909,-0.067,0.2768,0.1401,2041
8,0.0671,-0.5203,0.2209,-0.0099,0.352,0.1485,2048
8,0.1287,-0.5073,0.2283,0.0035,0.4007,0.1437,2059
8,0.1936,-0.5215,0.178,-0.0445,0.3802,0.1467,2050
8,0.188,-0.5334,0.1023,-0.151,0.3123,0.1441,2057
8,0.1343,-0.5435,0.0298,-0.2835,0.2474,0.1369,2067
8,0.0886,-0.5186,-0.0178,-0.3482,0.2446,0.153,2017
8,0.0637,-0.5237,-0.0493,-0.3988,0.3164,0.1851,2052
8,0.083,-0.501,-0.0264,-0.3808,0.3654,0.2352,2056
8,0.127,-0.4978,-0.0046,-0.3739,0.3642,0.3117,2049
8,0.1282,-0.5073,0.001,-0.3707,0.4195,0.4357,2022
8,0.1316,-0.5381,0.0186,-0.4291,0.4117,0.4457,2080
8,0.1233,-0.5059,0.0076,-0.4737,0.4352,0.3963,2016
8,0.1362,-0.4783,-0.0088,-0.4884,0.5169,0.3653,2052
8,0.1333,-0.4575,0.0239,-0.4627,0.6151,0.3694,2021
8,0.1025,-0.478,0.0222,-0.4137,0.7439,0.4145,2015
8,0.137,-0.4851,0.0535,-0.3836,0.8371,0.4922,2085
8,0.2385,-0.4275,0.0356,-0.2587,0.6907,0.5602,2009
8,-0.0469,-0.6521,-0.0505,-0.2093,0.5813,0.4413,2070
8,0.2405,-0.6702,-0.0085,-0.3651,0.5505,0.5738,2048
8,0.2249,-0.7402,-0.0046,-0.4698,0.4898,0.5573,2064
8,0.1499,-0.8169,-0.0159,-0.5556,0.3948,0.5912,2082
8,0.1233,-0.8354,0.031,-0.5404,0.4247,0.5786,2069
8,0.1106,-0.8572,-0.0054,-0.4884,0.4882,0.5833,2022
8,0.0569,-0.9077,0.217,-0.4177,0.5177,0.5348,2034
8,0.084,-0.863,0.23,-0.3952,0.5172,0.5577,2080
8,0.155,-0.8325,0.3208,-0.2356,0.3839,0.5125,2063
8,0.1414,-0.9338,0.2878,-0.1055,0.1887,0.4429,2030
8,-0.1309,-1.054,0.281,0.1393,0.1842,0.1582,2053
8,-0.1028,-1.1101,0.2546,0.5052,0.2936,0.0205,2070
8,-0.009,-1.1628,0.2676,0.8428,0.5011,-0.1534,2071
8,0.3013,-1.342,0.3999,0.6775,1.0901,-0.4803,2024
8,0.0425,-1.7458,0.2385,0.448,0.5873,-0.1081,2047
8,-0.1514,-1.8347,0.1572,0.1133,0.7423,-0.0919,2067
8,-0.4397,-1.8652,-0.0361,-0.3237,0.6873,0.1013,2040
8,-0.5586,-1.8567,-0.1362,-0.5751,0.706,0.2111,2068
8,-0.4363,-1.8162,-0.2068,-0.6404,0.9476,0.2784,2096
8,-0.1318,-1.6533,-0.2793,-0.754,0.8901,0.4159,2047
8,0.0352,-1.4648,-0.1216,-0.8004,0.6719,0.3831,2031
8,-0.0356,-1.4878,-0.0198,-0.7211,0.7524,0.377,2040
8,0.0288,-1.4717,0.2148,-0.5313,0.8906,0.479,2058
8,0.1599,-1.6052,0.4473,-0.2831,0.9433,0.5881,2068
8,0.2112,-1.6128,0.4976,-0.1836,0.8778,0.6426,2062
9,0.1392,-1.741,0.3921,-0.0732,0.6516,0.728,2050
9,0.1694,-1.6392,0.2131,-0.0762,0.6537,0.5509,2065
9,0.1013,-1.6138,0.064,-0.0779,0.4518,0.4713,2049
9,0.0691,-1.4888,-0.0095,0.0224,0.3004,0.3177,2060
9,0.0488,-1.4062,-0.02,0.1023,0.1446,0.2373,2038
9,-0.0637,-1.3491,0.042,0.222,-0.0103,0.1593,2049
9,-0.0684,-1.281,0.0896,0.3836,-0.1222,0.0517,2067
9,-0.0488,-1.2336,0.1609,0.5643,-0.1673,-0.0928,2046
9,0.0161,-1.2285,0.2444,0.7512,-0.2671,-0.3083,2051
9,0.0691,-1.1328,0.26,0.9397,-0.2567,-0.6142,2051
9,0.0854,-1.083,0.2202,1.0295,-0.1397,-0.8802,2051
9,0.145,-1.0515,0.2444,1.061,-0.0614,-1.0796,2053
9,0.2136,-1.0022,0.24,1.0054,-0.0004,-1.1967,2048
9,0.2485,-0.9785,0.1995,0.7841,0.1494,-1.2099,2045
9,0.2097,-0.8884,0.199,0.6092,0.142,-1.0786,2052
9,0.2156,-0.6851,0.2224,0.5963,-0.0193,-0.9605,2051
9,0.3816,-0.4509,0.2773,1.0127,-0.451,-0.8871,2047
9,0.5762,-0.3127,0.4739,1.4268,-0.7526,-0.9238,2039
9,0.5515,-0.5662,0.3467,1.0365,-0.8162,-0.9104,2042
9,0.3176,-0.9146,0.1467,0.5967,-1.2857,-0.8729,2069
9,-0.1895,-0.9314,0.0068,0.3974,-1.5024,-0.9238,2051
9,-0.449,-0.873,-0.1384,0.1985,-1.0087,-0.8186,2040
9,-0.5056,-0.7754,-0.2078,0.206,-0.3823,-0.6225,2057
9,-0.4727,-0.7988,-0.1558,0.028,-0.0439,-0.4003,2038
9,-0.4578,-0.615,-0.2537,-0.0246,0.3843,-0.3282,2064
9,-0.376,-0.604,-0.2378,-0.0778,0.6135,-0.388,2054
9,-0.2417,-0.5715,-0.26,0.0246,0.6393,-0.3662,2039
9,-0.1436,-0.5862,-0.2485,0.0686,0.6103,-0.393,2067
9,-0.0432,-0.6223,-0.2156,0.0937,0.4705,-0.41,2055
9,0.0107,-0.6802,-0.1934,0.0906,0.3033,-0.3967,2040
9,0.1033,-0.7227,-0.1604,0.1147,0.0566,-0.3232,2096
9,0.1465,-0.7698,-0.1165,0.0686,-0.1999,-0.3227,2045
9,0.1643,-0.812,-0.0945,0.0039,-0.45,-0.2741,2038
9,0.0945,-0.8384,-0.0444,-0.081,-0.6574,-0.2068,2023
9,0.0393,-0.8438,0.0015,-0.2224,-0.7682,-0.1077,2078
9,-0.0378,-0.8567,-0.0317,-0.3514,-0.8186,-0.0041,2024
9,-0.2026,-0.8582,-0.0483,-0.4184,-0.7835,0.0289,2022
9,-0.2158,-0.8809,-0.0764,-0.4093,-0.6668,0.1386,2113
9,-0.0547,-0.8279,0.0342,-0.239,-0.5345,0.1862,2031
9,0.073,-0.8169,0.1011,-0.1372,-0.5726,0.3127,2059
9,-0.0171,-1.0146,0.0959,-0.3928,-0.4147,0.2683,2057
9,-0.0303,-0.9177,0.0945,-0.524,-0.3922,0.4165,2000
9,0.0933,-0.781,0.1165,-0.5163,-0.2053,0.5903,2069
9,0.2773,-0.772,0.1392,-0.491,-0.0985,0.6713,2032
9,0.6685,-0.8074,0.3171,-0.3469,0.1784,0.6686,2036
9,0.3804,-0.7788,0.4968,0.1505,-0.289,0.7865,2062
9,0.5398,-0.6726,0.6926,0.0458,-0.7055,0.903,2047
9,0.5134,-0.6414,0.6663,0.3128,-0.8006,0.991,2050
9,0.1885,-0.699,0.5496,0.7584,-0.7992,0.5806,2080
9,0.2214,-0.6301,0.3555,1.1077,-0.816,0.2713,2018
9,0.1631,-0.7629,0.1123,1.0857,-0.5103,-0.0828,2038
9,-0.0068,-0.8669,-0.1145,1.0152,-0.4446,-0.2169,2130
9,-0.1179,-0.9053,-0.2119,0.7906,-0.3791,-0.2313,2019
9,-0.1396,-0.9597,-0.2629,0.6277,-0.3257,-0.1474,2106
9,-0.1638,-1.103,-0.2244,0.4205,-0.184,-0.222,2067
9,0.1633,-1.1243,-0.179,0.2723,-0.1981,-0.2297,2047
9,0.4746,-1.1387,-0.075,0.1683,-0.3316,-0.1799,2053
9,0.6772,-1.135,0.0046,0.0903,-0.5305,-0.0719,2059
9,0.4172,-1.2993,0.1409,-0.0787,-0.3911,-0.1308,2066
9,0.135,-1.2375,0.2642,-0.1376,-0.0491,-0.3436,2050
9,-0.0312,-1.2051,0.3262,-0.143,0.1743,-0.2695,2062
9,0.0818,-1.1555,0.2561,-0.0474,0.2729,-0.0413,2044
9,-0.0164,-1.146,0.2954,-0.0759,0.5612,-0.0427,2046
9,-0.0925,-1.2529,0.3,-0.0904,0.8019,-0.1405,2001
9,-0.0051,-1.4746,0.2791,0.1048,0.8271,-0.1281,2070
9,0.1431,-1.783,0.3625,0.0229,1.0993,-0.3337,2060
9,0.2629,-1.7859,0.4636,-0.1386,1.3046,-0.3926,2052
9,0.3706,-1.6367,0.4785,-0.1807,1.1156,-0.4485,2038
9,0.3679,-1.4619,0.5073,-0.1919,0.9662,-0.4426,2045
9,0.5046,-1.2463,0.4502,-0.1306,0.6982,-0.3601,2027
9,0.5337,-1.3037,0.4946,-0.1545,0.2565,-0.4,2085
9,0.197,-1.4739,0.4653,-0.2425,-0.1409,-0.5125,2036
9,0.0674,-1.509,0.3713,-0.2803,-0.5103,-0.3529,2052
9,-0.1311,-1.3713,0.3972,-0.3187,-0.683,-0.3023,2063
9,-0.2695,-1.2678,0.4385,-0.2535,-0.6062,-0.239,2040
9,-0.0261,-1.0933,0.4324,-0.2963,-0.6336,-0.2806,2062
9,0.2771,-0.9355,0.3914,-0.2454,-0.864,-0.2466,2051
9,0.3372,-0.9089,0.4338,-0.2545,-1.2142,-0.153,2037
9,0.4836,-0.8601,0.3984,-0.2032,-1.6034,-0.1581,2054
9,0.5996,-0.7754,0.4353,-0.1432,-1.9017,-0.1137,2053
9,0.2559,-0.8398,0.3713,-0.082,-2.0912,-0.2567,2046
9,0.3093,-0.717,0.2603,0.0029,-2.0427,-0.1522,2054
9,0.1665,-0.6575,0.1897,0.0928,-1.7229,-0.1036,2056
9,0.1663,-0.6184,0.1467,0.1032,-1.5281,0.0119,2058
9,0.1001,-0.6123,0.0952,0.1168,-1.169,0.0272,2045
9,0.0676,-0.6082,0.0295,0.0779,-0.9376,0.123,2040
9,-0.0789,-0.5825,-0.0369,0.1342,-0.404,0.0073,2052
9,-0.0164,-0.6123,-0.0679,0.1196,-0.1236,0.0,2068
9,0.0076,-0.6189,-0.0708,0.0309,0.12,0.0208,2036
9,0.0396,-0.6118,-0.1089,0.0045,0.3685,0.0358,2013
9,0.0586,-0.6328,-0.1086,-0.0348,0.5418,0.0513,2069
9,0.0955,-0.6641,-0.0801,-0.0814,0.6296,0.0771,2042
9,0.1365,-0.6792,-0.0894,-0.1683,0.6879,0.114,2040
9,0.1365,-0.6792,-0.0667,-0.2428,0.7116,0.1478,2070
9,0.1135,-0.657,-0.0481,-0.3314,0.7355,0.1808,2040
9,0.082,-0.6301,-0.031,-0.3912,0.8335,0.2159,2110
9,0.0593,-0.6042,-0.0002,-0.4096,0.9042,0.2425,2026
9,0.1133,-0.5701,0.0862,-0.402,0.8582,0.3143,2047
9,0.1714,-0.5498,0.1223,-0.3542,0.8253,0.3892,2026
9,0.1685,-0.551,0.146,-0.3831,0.7624,0.4626,2005
9,0.167,-0.5667,0.1165,-0.3525,0.6606,0.4727,2120
9,0.2009,-0.5886,0.1238,-0.3473,0.6331,0.5422,2023
10,0.1882,-0.604,0.1011,-0.2811,0.6181,0.5131,2066
10,0.1826,-0.6548,0.1057,-0.1823,0.6693,0.5063,2074
10,0.1406,-0.7109,0.1323,-0.2135,0.7858,0.3786,2073
10,0.1543,-0.6838,0.1213,-0.1697,0.7925,0.3631,2015
10,0.1003,-0.7314,0.1287,-0.2413,0.8609,0.3159,2051
10,0.1868,-0.7139,0.0996,-0.3111,0.8039,0.3413,2050
10,0.2004,-0.7786,0.0959,-0.4067,0.8851,0.2634,2094
10,0.1914,-0.8198,0.1401,-0.4474,0.922,0.2799,1977
10,0.2356,-0.8594,0.1462,-0.5055,0.974,0.2277,2068
10,0.3188,-0.8308,0.1685,-0.4345,1.1716,0.2225,2042
10,0.3215,-0.854,0.231,-0.459,1.2308,0.1939,2071
10,0.3875,-0.8303,0.2188,-0.4107,1.2291,0.1895,2034
10,0.3657,-0.873,0.2104,-0.3974,1.1621,0.12,2018
10,0.3291,-0.9443,0.2095,-0.2671,0.9837,0.0711,2063
10,0.0449,-1.1577,0.2009,-0.244,1.0029,0.1104,2025
10,0.0566,-1.1802,0.2444,-0.1353,1.0668,0.0474,2118
10,0.0854,-1.1768,0.2354,0.0055,1.19,-0.0782,2024
10,0.0825,-1.176,0.2107,0.1308,1.28,-0.196,2042
10,0.0388,-1.3213,0.1804,0.1021,1.4268,-0.2187,2073
10,-0.1157,-1.553,0.1121,-0.0451,1.5631,-0.2025,2035
10,-0.28,-1.7922,0.0242,-0.1145,1.6343,-0.1001,2072
10,-0.3303,-2.0,-0.0994,-0.2201,1.6033,0.0465,2034
10,-0.5032,-2.0,-0.2412,-0.343,1.6146,0.2858,2044
10,-0.3699,-1.8386,-0.3459,-0.5363,1.3057,0.3155,2052
10,-0.053,-1.5564,-0.3682,-0.4088,0.8858,0.1812,2057
10,-0.0815,-1.4138,-0.1211,-0.0783,0.6395,0.1229,2040
10,0.0862,-1.3982,0.0798,0.1931,0.3212,0.0831,2046
10,0.2283,-1.4067,0.3149,0.1758,0.3448,0.1217,2047
10,0.1875,-1.4807,0.5923,0.2232,0.4208,0.1566,2043
10,0.4001,-1.6165,0.7275,0.0989,0.4324,0.2602,2048
10,0.2739,-1.6511,0.6079,0.0585,0.3702,0.3306,2055
10,0.394,-1.376,0.4617,0.0555,-0.067,0.2418,2072
10,0.0911,-1.2954,0.3643,0.0984,-0.4397,0.2032,2044
10,-0.0564,-1.2781,0.073,0.1296,-0.6658,0.2265,2046
10,-0.2261,-1.3284,-0.0662,0.0587,-0.7873,0.083,2065
10,-0.2896,-1.2239,-0.1172,0.0108,-0.7144,0.1025,2071
10,-0.282,-1.0439,-0.094,0.1019,-0.4642,0.2582,2051
10,-0.4993,-1.0588,0.0002,0.137,-0.1184,-0.0643,2059
10,0.2173,-0.895,0.0747,0.1669,0.2762,-0.0368,2045
10,0.3088,-0.9026,0.1057,0.187,-0.1502,-0.0872,2047
10,0.168,-0.8069,0.126,0.2802,-0.139,-0.2075,2054
10,0.1484,-0.7827,0.1233,0.3412,-0.0296,-0.2855,2054
10,0.0537,-0.8245,0.1345,0.2557,0.6521,-0.5879,2047
10,0.313,-0.6458,0.0996,0.5593,-0.0814,-0.3549,2047
10,0.1057,-0.7598,0.093,0.5757,0.0224,-0.4494,2055
10,0.0906,-0.6729,0.0537,0.5673,0.0089,-0.5462,2055
10,0.0808,-0.6787,-0.0488,0.295,0.1172,-0.6404,2058
10,0.051,-0.7383,0.0374,0.3804,0.0249,-0.5429,2038
10,0.0645,-0.7188,-0.0212,0.3589,-0.0425,-0.5116,2074
10,0.0876,-0.6616,-0.0967,0.1502,0.059,-0.4738,2048
10,0.0879,-0.5891,-0.0984,0.2177,-0.0426,-0.4651,2046
10,0.0645,-0.6218,-0.1167,0.183,-0.0615,-0.3549,2052
10,0.0891,-0.5352,-0.1184,0.2157,-0.0089,-0.3201,2021
10,0.0732,-0.4211,-0.1345,0.2659,0.1574,-0.324,2032
10,0.0242,-0.5554,-0.1375,0.2533,0.296,-0.3239,2096
10,0.0327,-0.5889,-0.1345,0.3321,0.4464,-0.246,2064
10,0.1033,-0.6863,-0.1162,0.3161,0.5964,-0.1372,2041
10,0.1216,-0.7329,-0.1387,0.2903,0.6725,-0.1734,2047
10,0.0735,-0.7971,-0.106,0.1993,0.7598,-0.1334,2089
10,0.0864,-0.7808,-0.0996,0.1756,0.7488,-0.1061,2009
10,0.0229,-0.7681,-0.0471,0.1404,0.7674,-0.0578,2064
10,-0.019,-0.7327,-0.0012,0.1538,0.6899,0.032,2029
10,0.0288,-0.7397,0.0369,0.2041,0.5442,0.1172,2085
10,0.1169,-0.7729,0.0735,0.2502,0.3378,0.1714,2044
10,0.1331,-0.8323,0.1089,0.236,0.1811,0.1852,2074
10,0.1743,-0.8735,0.0935,0.2305,0.0192,0.2261,2044
10,0.2427,-0.9119,0.0627,0.2108,-0.0939,0.2787,2082
10,0.3447,-0.9211,0.0886,0.2023,-0.102,0.3919,2028
10,0.2991,-0.9243,0.116,0.2301,-0.2293,0.3887,2024
10,0.2839,-0.9026,0.1514,0.2273,-0.3502,0.3745,2071
10,0.0862,-0.9607,0.1597,0.2839,-0.3023,0.3156,2003
10,0.1274,-0.9666,0.2146,0.3131,-0.3089,0.2922,2108
10,0.3027,-1.0549,0.3154,0.294,-0.3197,0.2747,2047
10,0.2063,-0.9282,0.3005,0.2495,-0.2577,0.2272,2036
10,0.2378,-1.02,0.2524,0.2743,-0.3758,0.2228,2115
10,0.217,-1.135,0.2583,0.2575,-0.3542,0.1882,2003
10,0.2971,-1.3086,0.2048,0.2645,-0.4613,0.0308,2122
10,0.1458,-1.2979,0.2173,0.2123,-0.34,-0.0776,2034
10,0.2144,-1.271,0.178,0.2468,-0.4171,-0.1467,2095
10,-0.0278,-1.2522,0.2178,0.2236,-0.1923,-0.3048,2056
10,-0.1558,-1.3669,0.188,0.1823,0.1599,-0.4137,2012
10,-0.1094,-1.3337,0.0693,0.2767,0.216,-0.426,2067
10,-0.019,-1.4814,0.0525,0.2772,0.2253,-0.4573,2070
10,0.6804,-1.3701,0.0286,0.0851,0.6308,-0.6533,2006
10,-0.2178,-1.7224,0.2852,-0.2928,1.1516,-0.4727,2056
10,-0.2056,-1.5859,0.4243,-0.459,1.8093,-0.4073,2033
10,-0.187,-1.48,0.5439,-0.4603,2.0905,-0.5293,2069
10,-0.0432,-1.3564,0.6243,-0.157,2.0988,-0.4954,2046
10,0.1047,-1.2544,0.6599,0.0489,1.8507,-0.5762,2034
10,0.2307,-1.1978,0.6367,0.1538,1.447,-0.6987,2113
10,0.3943,-1.1631,0.5024,0.2135,0.8198,-0.8204,2019
10,0.4358,-1.2322,0.4373,-0.0557,0.3271,-0.7436,2069
10,0.3713,-1.2412,0.3999,-0.2567,-0.175,-0.8074,2052
10,0.2065,-1.1528,0.3452,-0.3452,-0.7197,-0.7658,2051
10,0.1187,-1.0808,0.2922,-0.4396,-0.9677,-0.75,2049
10,0.1763,-0.9941,0.3037,-0.487,-1.0785,-0.7522,2050
10,0.0698,-0.9719,0.3005,-0.5826,-0.9451,-0.773,2053
10,0.0837,-0.8584,0.2388,-0.6228,-0.9188,-0.71,2047
10,0.0806,-0.8049,0.2327,-0.6446,-0.8505,-0.638,2063
10,0.0188,-0.769,0.1853,-0.6552,-0.5227,-0.603,2049
10,0.1074,-0.6782,0.1479,-0.5561,-0.2204,-0.4955,2050
10,0.1382,-0.635,0.1145,-0.516,-0.021,-0.4719,2061
10,0.167,-0.6348,0.0735,-0.4762,0.1402,-0.4498,2067
11,0.2249,-0.6577,0.0676,-0.4342,0.2211,-0.4026,2051
11,0.2241,-0.6665,0.0525,-0.4425,0.3241,-0.3734,2047
11,0.2134,-0.647,0.0237,-0.3718,0.3398,-0.3337,2062
11,0.1404,-0.7141,0.0327,-0.363,0.2276,-0.2735,2053
11,0.1387,-0.6746,-0.009,-0.3785,0.5895,-0.2445,2055
11,0.1687,-0.6975,0.0066,-0.3325,0.6335,-0.198,2066
11,0.1506,-0.8049,0.0249,-0.3618,0.787,-0.1486,2042
11,0.1721,-0.7524,-0.0305,-0.3065,0.9266,-0.1029,2041
11,0.1492,-0.8296,0.0051,-0.397,1.0553,-0.081,2079
11,0.1716,-0.8181,-0.0212,-0.3793,1.1271,-0.066,2054
11,0.1843,-0.8508,-0.0259,-0.406,1.1893,-0.0949,2044
11,0.228,-0.8828,-0.0339,-0.4105,1.1828,-0.0522,2034
11,0.1892,-0.9399,-0.0063,-0.4918,1.182,-0.0791,2062
11,0.1985,-0.9236,-0.0034,-0.4801,1.1435,-0.102,2073
11,0.1719,-0.9685,0.0605,-0.4682,1.1888,-0.1246,2050
11,0.2031,-1.0061,0.0635,-0.4847,1.2639,-0.147,2019
11,0.1758,-1.022,0.1602,-0.5312,1.1919,-0.143,2041
11,0.4866,-0.9592,-0.0505,-0.638,1.5677,-0.1776,2063
11,0.2729,-0.9766,0.1567,-0.6418,1.4776,-0.1557,2027
11,0.3032,-0.9199,0.1301,-0.6363,1.3355,-0.1103,2071
11,0.3015,-0.8687,0.0933,-0.5715,1.2957,-0.0799,2035
11,0.2639,-0.8533,0.156,-0.3987,1.3207,-0.0208,2049
11,0.2585,-0.8586,0.218,-0.2848,1.2272,0.0539,2046
11,0.2871,-0.9072,0.2336,-0.2515,1.0967,0.1043,2031
11,0.3347,-0.8987,0.2112,-0.2456,1.0139,0.0993,2027
11,0.3286,-0.9119,0.1687,-0.2626,0.9608,0.0435,2110
11,0.3259,-0.9465,0.0591,-0.3012,0.9901,0.0061,2001
11,0.3169,-1.0154,-0.0474,-0.3915,1.0609,-0.0127,2096
11,0.2507,-1.0684,-0.0933,-0.4819,1.1809,-0.0154,2027
11,0.2273,-1.0603,-0.1323,-0.5426,1.292,-0.0316,2084
11,0.2197,-1.0637,-0.1479,-0.6059,1.3833,-0.0313,2061
11,0.3984,-0.969,-0.1191,-0.5643,1.2258,0.1563,2067
11,0.0103,-1.167,-0.0547,-0.605,1.4841,0.0473,2037
11,0.1165,-1.1865,0.0122,-0.5703,1.5596,0.1024,2031
11,0.1362,-1.2954,0.0312,-0.5646,1.7668,0.1494,2099
11,0.0417,-1.3352,0.0388,-0.5083,2.0276,0.1973,2065
11,-0.0225,-1.291,-0.0005,-0.4639,2.0518,0.247,2047
11,-0.0486,-1.2776,-0.0547,-0.5779,2.1158,0.2626,2016
11,-0.1399,-1.1101,-0.0049,-0.4702,2.0913,0.169,2041
11,-0.2488,-1.0315,0.042,-0.2763,2.2943,0.1353,2109
11,-0.3025,-1.084,0.2,-0.1234,2.4907,0.1314,2021
11,-0.134,-1.009,0.324,-0.0668,2.5534,-0.022,2047
11,0.0334,-1.012,0.415,-0.1388,2.5711,-0.0638,2052
11,0.1899,-1.0466,0.4373,-0.4332,2.3677,-0.0772,2102
11,0.2283,-1.0471,0.396,-0.7102,2.1622,-0.0105,2050
11,0.2253,-1.012,0.2961,-0.7819,1.839,-0.0071,2063
11,0.0505,-1.0371,0.1733,-0.7014,1.593,0.0189,2065
11,-0.0986,-1.0286,0.0613,-0.4697,1.4872,0.0181,2041
11,-0.1626,-1.0334,0.0007,-0.1924,1.5524,-0.0059,2041
11,-0.2676,-1.0576,-0.0747,-0.0643,1.7291,0.0197,2052
11,-0.3154,-1.062,-0.1538,-0.0025,1.8185,0.0313,2057
11,-0.3264,-1.0854,-0.1802,0.0138,1.9001,0.0344,2020
11,-0.3318,-1.1052,-0.1938,0.0111,2.0129,0.0269,2039
11,-0.3362,-1.1274,-0.1926,-0.0107,2.0475,0.0198,2094
11,-0.3179,-1.1477,-0.2007,-0.026,2.0411,0.0418,2052
11,-0.2944,-1.1548,-0.1621,-0.0888,2.1141,0.0595,2042
11,-0.2649,-1.1553,-0.0964,-0.1302,2.1133,0.0471,2077
11,-0.2288,-1.1255,-0.0308,-0.1711,2.0443,0.0369,2050
11,-0.1746,-1.0947,0.0195,-0.1904,2.0169,0.0176,2061
11,-0.1604,-1.0837,0.0679,-0.2197,1.9628,0.0016,2053
11,-0.1353,-1.0471,0.116,-0.2329,1.9022,-0.0007,2060
11,-0.1099,-1.0369,0.1418,-0.2286,1.8273,-0.0009,2032
11,-0.0911,-1.0288,0.1758,-0.2273,1.7899,0.0301,2075
11,-0.0613,-1.0234,0.1584,-0.2306,1.749,0.0659,2065
11,-0.0449,-1.0291,0.1514,-0.2477,1.7487,0.0623,2052
11,0.002,-0.9658,0.1084,-0.225,1.7089,-0.0087,2065
11,0.043,-0.9568,0.1077,-0.2139,1.7001,-0.0836,2041
11,0.0635,-0.9004,0.0952,-0.195,1.6657,-0.1345,2042
11,0.0508,-0.8899,0.1033,-0.2228,1.6286,-0.1834,2055
11,0.0193,-0.8616,0.0706,-0.183,1.6065,-0.1888,2039
11,-0.0396,-0.9048,0.0105,-0.2365,1.694,-0.2296,2058
11,-0.0745,-0.9431,-0.0063,-0.1955,1.8016,-0.2551,2056
11,-0.0708,-0.9497,-0.0388,-0.1816,1.9948,-0.2645,2022
11,-0.0552,-0.9658,-0.0657,-0.2137,2.137,-0.2717,2080
11,0.0081,-0.9182,-0.0911,-0.1674,2.2394,-0.2706,2038
11,0.0442,-0.9202,-0.1101,-0.1152,2.2674,-0.2655,2042
11,0.1057,-0.938,-0.0901,-0.0734,2.2808,-0.3,2078
11,0.1553,-0.8479,-0.0857,0.0759,2.137,-0.31,2040
11,0.1384,-0.8708,-0.0703,0.1001,2.0137,-0.3013,2058
11,0.1086,-0.9211,-0.012,0.1269,1.8305,-0.2914,2058
11,0.0312,-0.9502,-0.0107,0.1425,1.8407,-0.2908,2051
11,-0.0225,-0.9907,-0.0063,0.1697,1.8314,-0.2858,2064
11,-0.0918,-1.0173,-0.032,0.202,1.9026,-0.2823,2011
11,-0.1042,-1.0371,-0.0176,0.2139,1.9801,-0.2585,1998
11,-0.1033,-1.0225,-0.0164,0.2324,2.1258,-0.2527,2104
11,-0.0789,-1.0063,0.0029,0.2611,2.1855,-0.2609,2039
11,-0.04,-0.9873,0.0095,0.2759,2.171,-0.2879,2061
11,0.0093,-0.9995,0.0034,0.2685,2.0421,-0.2946,2003
11,-0.002,-1.0735,-0.0015,0.2529,1.9892,-0.2903,2079
11,-0.0339,-1.0654,-0.009,0.3003,1.927,-0.2649,2058
11,-0.0615,-1.0793,0.002,0.3115,1.9403,-0.238,2052
11,-0.0833,-1.0588,0.019,0.351,1.9057,-0.2225,2066
11,-0.0581,-1.0469,0.0405,0.352,1.8618,-0.1934,2048
11,0.0037,-1.0251,0.0764,0.3639,1.7692,-0.1999,2053
11,0.0217,-0.9985,0.1023,0.395,1.6146,-0.216,2061
11,0.0693,-1.0669,0.145,0.3284,1.4383,-0.2581,2074
11,0.0581,-0.9998,0.1223,0.271,1.3091,-0.2366,2060
11,0.0264,-0.999,0.0779,0.2421,1.2487,-0.2436,2038
11,-0.0291,-0.9871,0.0613,0.2472,1.2192,-0.1906,2026
11,-0.0276,-1.0032,0.0464,0.2374,1.2589,-0.1394,2069
11,-0.0381,-0.9929,0.0293,0.2429,1.2613,-0.0964,2055
12,0.0212,-0.9658,0.0403,0.265,1.2133,-0.0487,2044
12,0.0764,-0.988,0.0359,0.2523,1.128,-0.0384,2066
12,0.0762,-0.9697,0.0356,0.2525,1.0336,-0.0433,2017
12,0.1123,-0.9883,0.0535,0.2181,0.8959,-0.0205,2054
12,-0.0293,-1.0632,0.0747,0.153,0.9392,-0.036,2061
12,0.1677,-0.9102,0.0479,0.2727,0.6361,0.0029,2022
12,0.0601,-1.011,0.0537,0.2502,0.5833,0.0056,2073
12,0.0535,-1.0381,0.0618,0.2436,0.5283,0.0104,2024
12,0.0461,-1.0081,0.0635,0.2292,0.456,-0.0052,2074
12,-0.2368,-1.1829,0.1245,0.0571,0.7855,-0.0607,2063
12,0.2559,-0.958,0.0623,0.1589,0.2115,0.0064,2025
12,0.05,-1.0566,0.0547,0.1108,0.2594,0.0397,2072
12,0.0486,-1.074,0.063,0.0807,0.2168,0.0561,2050
12,0.0642,-1.033,0.053,0.0595,0.1262,0.0212,2060
12,0.0212,-1.0276,0.0469,0.0457,0.1051,0.032,2052
12,0.042,-1.0015,0.0271,0.0886,0.1378,0.0246,2032
12,0.0278,-1.0393,0.0657,0.1044,0.1983,0.0533,2066
12,0.0662,-1.0437,0.0796,0.0645,0.2649,0.0514,2054
12,0.0667,-1.0535,0.0881,0.0491,0.3259,0.0385,2056
12,0.0559,-1.084,0.0833,0.0304,0.4354,0.0304,2047
12,0.012,-1.084,0.1013,0.0145,0.5476,0.0099,2016
12,-0.0278,-1.0503,0.0874,-0.0212,0.6441,-0.0057,2044
12,-0.0439,-1.053,0.0891,-0.0667,0.6934,-0.0334,2082
12,-0.0779,-1.0188,0.1028,-0.1112,0.7662,-0.0593,2029
12,-0.0793,-0.9871,0.1448,-0.1681,0.8198,-0.1024,2077
12,-0.0952,-0.9583,0.1917,-0.1955,0.8465,-0.1712,2016
12,-0.1362,-0.9346,0.1997,-0.1814,0.8729,-0.2465,2076
12,-0.175,-0.8999,0.2473,-0.1537,0.9321,-0.265,2041
12,-0.1453,-0.8457,0.2781,-0.0728,0.9907,-0.3085,2057
12,-0.0244,-0.8057,0.3425,0.0431,1.0263,-0.4276,2043
12,0.1794,-0.7915,0.4509,0.222,0.9278,-0.5786,2048
12,0.4329,-0.7354,0.4961,0.4104,0.6191,-0.7704,2048
12,0.5525,-0.7639,0.4961,0.4472,0.2172,-0.9171,2037
12,0.592,-0.8359,0.5249,0.4386,-0.1954,-0.9736,2050
12,0.4893,-0.9521,0.4905,0.3597,-0.5823,-0.9717,2055
12,0.2937,-1.0994,0.4143,0.3272,-0.8764,-0.916,2028
12,-0.0876,-1.261,0.3545,0.1626,-1.0135,-0.9287,2068
12,-0.4407,-1.3674,0.2793,0.0469,-1.0741,-0.8429,2053
12,-0.7708,-1.3716,0.1611,-0.0957,-0.8785,-0.6984,2052
12,-0.7778,-1.2434,0.0828,-0.2428,-0.4638,-0.6098,2041
12,-0.7314,-1.0806,0.019,-0.3101,-0.0273,-0.5355,2039
12,-0.585,-0.9675,-0.0212,-0.2301,0.2706,-0.4598,2064
12,-0.522,-0.9094,-0.1079,-0.2826,0.3613,-0.3968,2073
12,-0.2778,-1.0132,-0.0413,-0.4056,0.3017,-0.3956,2026
12,-0.0222,-0.9551,-0.0229,-0.5084,0.0631,-0.4308,2052
12,0.1819,-0.8628,-0.0181,-0.5311,-0.1173,-0.3671,2038
12,0.3154,-0.824,0.0056,-0.5453,-0.4136,-0.3766,2069
12,0.3916,-0.8281,0.0969,-0.5425,-0.6913,-0.3775,2060
12,0.3516,-0.8115,0.1184,-0.5729,-0.9752,-0.3819,2020
12,0.2964,-0.8425,0.1865,-0.4867,-0.9203,-0.3709,2063
12,0.3892,-0.8074,0.2419,-0.5233,-1.191,-0.2171,2074
12,0.0081,-0.7634,0.2131,-0.4498,-0.581,-0.3822,2021
12,0.0151,-0.7773,0.2039,-0.3554,-0.3844,-0.3199,2046
12,0.0417,-0.7859,0.2056,-0.3013,-0.2751,-0.2197,2069
12,-0.1016,-0.894,0.2,-0.2641,0.4124,-0.2976,2022
12,0.0454,-0.8696,0.1499,-0.1719,0.662,-0.251,2044
12,0.3904,-0.804,0.1167,-0.0626,0.5958,-0.0591,2050
12,0.0171,-1.0657,0.1082,-0.1774,0.9959,-0.3029,2066
12,0.1375,-0.9868,0.0481,-0.1398,1.1709,-0.2099,2064
12,0.1543,-0.9966,-0.0085,-0.2051,1.174,-0.2863,2063
12,0.0742,-1.0325,-0.0168,-0.2531,1.2704,-0.3211,2018
12,0.1045,-1.0183,-0.031,-0.2733,1.3348,-0.3105,2032
12,0.0862,-0.9854,-0.0322,-0.2883,1.3039,-0.3717,2073
12,0.0986,-1.0386,0.0046,-0.2948,1.313,-0.4273,2057
12,0.1182,-1.0469,0.0276,-0.2827,1.2833,-0.502,2036
12,0.1562,-1.0464,0.0784,-0.2899,1.2368,-0.5574,2020
12,0.2163,-1.0122,0.1289,-0.3068,1.1366,-0.5606,2095
12,0.2449,-1.0383,0.1465,-0.348,1.0352,-0.5765,2038
12,0.2578,-0.991,0.1533,-0.3709,0.9423,-0.5858,2046
12,0.2183,-1.002,0.197,-0.402,0.8927,-0.5759,2059
12,0.2185,-0.9673,0.198,-0.4263,0.8088,-0.5513,2034
12,0.2122,-0.9216,0.1785,-0.4044,0.7576,-0.4998,2057
12,0.1719,-0.8958,0.1943,-0.3971,0.7399,-0.438,2050
12,0.1667,-0.844,0.1606,-0.3396,0.6817,-0.367,2035
12,0.1428,-0.9036,0.155,-0.3345,0.6781,-0.3229,2062
12,0.1074,-0.9182,0.1045,-0.293,0.685,-0.28,2044
12,0.1182,-0.9031,0.0852,-0.253,0.7255,-0.2778,2062
12,0.0869,-0.8906,0.0764,-0.2329,0.8395,-0.2521,2047
12,0.0994,-0.8511,0.0281,-0.2092,0.9513,-0.2314,2047
12,0.1663,-0.8594,0.0295,-0.2053,0.9801,-0.2175,2032
12,0.1946,-0.8899,0.0225,-0.2409,0.9909,-0.1919,2052
12,0.2004,-0.9077,0.009,-0.2558,0.9701,-0.1638,2047
12,0.1809,-0.9216,-0.0291,-0.2683,0.9496,-0.1357,2032
12,0.2144,-0.9314,-0.0378,-0.308,0.9642,-0.1041,2067
12,0.2146,-0.9353,-0.0391,-0.3137,0.9921,-0.0846,2049
12,0.1953,-0.9219,-0.0176,-0.322,1.0066,-0.0823,2062
12,0.2136,-0.9128,-0.0066,-0.3217,1.0049,-0.0824,2062
12,0.2185,-0.8992,0.0149,-0.3445,1.0029,-0.0824,2024
12,0.2439,-0.8826,0.0408,-0.3488,1.014,-0.083,2073
12,0.2605,-0.8562,0.0671,-0.3525,1.0341,-0.0838,1981
12,0.261,-0.8721,0.0808,-0.3397,1.0608,-0.0756,2100
12,0.2632,-0.9053,0.1431,-0.3904,1.0565,-0.0522,2006
12,0.2329,-0.8926,0.1277,-0.3931,1.0649,-0.0099,2066
12,0.2085,-0.9209,0.1633,-0.4133,1.0846,0.0052,2064
12,0.199,-0.9453,0.1589,-0.3906,1.1761,0.0346,2041
12,0.2017,-1.0125,0.1326,-0.3742,1.1709,0.0764,2079
12,0.1492,-1.0649,0.1326,-0.4128,1.1864,0.129,2054
12,0.0708,-1.071,0.1052,-0.3894,1.0923,0.1858,2034
12,0.0593,-1.01,0.137,-0.3609,1.0435,0.1277,2053
12,0.0266,-0.95,0.1655,-0.2962,1.0637,0.1617,2043
12,0.1201,-0.907,0.1941,-0.1673,1.0053,0.0682,2032
12,0.1646,-0.9463,0.2734,0.0011,1.0186,0.1605,2034
13,0.1453,-1.0535,0.3066,0.0517,1.0151,0.2944,2079
13,0.1294,-1.2112,0.3757,0.1687,1.1457,0.3619,2031
13,0.0554,-1.2319,0.3152,0.2087,1.3519,0.3401,2059
13,-0.0115,-1.344,0.2368,-0.0112,1.4322,0.2472,2064
13,-0.1511,-1.4976,0.1436,-0.3345,1.3653,0.1653,2061
13,-0.3311,-1.5081,0.0461,-0.4625,1.4821,0.147,2049
13,-0.3984,-1.4541,-0.0288,-0.5434,1.6448,0.0672,2047
13,-0.415,-1.2625,-0.0757,-0.4863,1.768,0.0389,2025
13,-0.2612,-1.0779,-0.0361,-0.4097,1.693,-0.0015,2051
13,-0.1084,-0.9614,0.0513,-0.3514,1.5454,0.0201,2041
13,-0.0234,-0.9272,0.1379,-0.2879,1.3512,0.0567,2046
13,0.0503,-0.9387,0.1807,-0.4255,1.1802,-0.0201,2054
13,0.0679,-0.9739,0.2253,-0.663,1.0812,-0.019,2052
13,0.0952,-0.9409,0.175,-0.8091,1.016,0.0068,2047
13,0.0356,-0.9468,0.1155,-0.9251,1.0528,0.0758,2070
13,0.0537,-0.9175,0.0352,-0.7955,1.0886,0.0959,2053
13,0.0808,-0.9309,-0.0586,-0.618,1.1728,0.1164,2034
13,0.0759,-0.9392,-0.1184,-0.4309,1.2605,0.1127,2086
13,0.0632,-0.9421,-0.1367,-0.2899,1.1971,0.1566,2067
13,-0.0215,-0.9229,-0.2009,-0.1739,1.1782,0.1916,2041
13,-0.1099,-0.9224,-0.2046,0.0032,1.1923,0.1364,2012
13,-0.1917,-0.9841,-0.147,0.1365,1.2781,0.2228,2118
13,-0.26,-1.0493,-0.0605,0.1776,1.4635,0.2172,1981
13,-0.3018,-1.1057,0.021,0.1244,1.6161,0.1698,2097
13,-0.2654,-1.1123,0.0645,0.0707,1.6681,0.1051,2053
13,-0.1902,-1.0774,0.1162,0.0386,1.6922,0.0056,2008
13,-0.0881,-1.0505,0.157,-0.0089,1.6985,-0.0453,2076
13,-0.0474,-1.0063,0.1643,-0.0574,1.6542,-0.1244,2018
13,-0.0061,-1.0156,0.1455,-0.0794,1.5368,-0.1574,2049
13,0.0342,-0.9985,0.1626,-0.1155,1.4565,-0.1934,2043
13,0.0383,-0.9856,0.1619,-0.1342,1.3496,-0.2385,2044
13,0.0261,-0.9355,0.1362,-0.1533,1.2467,-0.2358,2050
13,0.0916,-0.9443,0.0708,-0.1711,1.1102,-0.2559,2069
13,0.1077,-0.9451,0.0469,-0.1934,1.026,-0.3221,2040
13,0.0952,-0.9958,0.0381,-0.2614,0.9697,-0.3173,2043
13,0.0955,-0.8655,-0.0212,-0.2723,0.9243,-0.2856,2043
13,0.0806,-0.8037,-0.0603,-0.1678,0.8577,-0.2534,2094
13,0.0811,-0.988,-0.0576,-0.1204,0.8431,-0.239,2037
13,-0.021,-1.0588,0.0029,-0.1594,0.9565,-0.2051,2055
13,-0.104,-0.9402,-0.0513,-0.1204,1.0512,-0.1248,2061
13,-0.1531,-0.896,-0.021,-0.008,1.1367,-0.066,2033
13,-0.1743,-0.9072,0.0132,0.0811,1.2153,-0.0101,2047
13,-0.1829,-0.9727,0.0137,0.0591,1.3418,0.0229,2057
13,-0.1516,-0.9807,0.002,0.0541,1.3792,-0.0178,2045
13,-0.1147,-0.9407,-0.0288,0.0463,1.358,-0.0366,2046
13,-0.0493,-0.9431,-0.02,-0.0073,1.1958,-0.0217,2110
13,-0.0239,-0.9172,-0.0432,-0.0867,1.1194,-0.0044,1998
13,0.0176,-0.8994,-0.0713,-0.1369,0.9317,-0.0181,2093
13,-0.0076,-0.8477,-0.0903,-0.114,0.8593,-0.0342,2022
13,0.0469,-0.8906,-0.0715,-0.1562,0.6982,-0.0293,2067
13,-0.0273,-0.8999,-0.0381,-0.1252,0.7114,-0.0439,2048
13,0.0737,-0.8799,0.0127,-0.0744,0.5674,-0.0345,2027
13,-0.0293,-0.7515,0.053,0.0338,0.6142,-0.0537,2071
13,0.1423,-0.7366,0.1082,0.0814,0.4026,-0.0024,2038
13,0.073,-0.8354,0.1042,0.0868,0.4038,-0.0302,2058
13,0.0134,-0.8228,0.1079,0.0932,0.4172,-0.0856,2050
13,-0.1851,-0.8411,0.1699,0.0326,0.6878,-0.2863,2057
13,0.1238,-0.731,0.1506,0.1394,0.4132,-0.1461,2052
13,0.0471,-0.6057,0.1667,0.1631,0.5661,-0.2334,2047
13,0.2751,-0.5176,0.0991,0.1748,0.4673,-0.3043,2067
13,0.3623,-0.554,0.1025,0.3651,0.2378,-0.2755,2037
13,0.3101,-0.5952,0.0845,0.4798,0.1124,-0.3691,2047
13,0.2639,-0.6277,0.0906,0.6606,0.0747,-0.3498,2075
13,0.2383,-0.6846,0.1084,0.8569,-0.1555,-0.4305,2052
13,0.156,-0.7761,0.1558,1.0993,-0.2296,-0.4061,2044
13,-0.0034,-0.8403,0.0774,1.0465,-0.3593,-0.3442,2096
13,-0.1543,-0.9238,0.0188,0.8558,-0.532,-0.3155,2021
13,-0.2612,-0.9304,-0.0315,0.6297,-0.5916,-0.2996,2055
13,-0.3196,-0.8909,-0.0964,0.3895,-0.414,-0.2458,2051
13,-0.3672,-0.8313,-0.1382,0.1767,-0.1561,-0.0951,2042
13,-0.3254,-0.7693,-0.1143,0.1229,-0.0927,-0.0277,2044
13,-0.1296,-0.7166,-0.0647,0.1113,0.0438,0.0621,2027
13,-0.0168,-0.7234,-0.04,0.1543,0.2089,0.0808,2046
13,-0.0693,-0.7942,0.0039,0.2115,0.2108,0.088,2059
13,-0.0632,-0.7742,0.0054,0.2811,0.08,0.1123,2049
13,0.0193,-0.7627,0.0125,0.2573,0.089,0.1202,2043
13,0.1123,-0.7427,0.0308,0.2513,-0.1003,0.1117,2054
13,0.2339,-0.717,-0.001,0.2638,-0.3887,0.1438,2026
13,0.2791,-0.8433,0.0173,0.2808,-0.7389,0.2534,2016
13,0.2156,-1.0122,0.0391,0.2963,-1.0076,0.3203,2060
13,0.062,-1.1079,0.0444,0.2944,-1.2216,0.3501,2022
13,-0.1062,-1.1797,0.0776,0.2442,-1.1013,0.3916,2061
13,-0.238,-1.3093,0.1748,0.0907,-0.877,0.4617,2015
13,-0.3489,-1.5813,0.2212,-0.1244,-0.4811,0.4233,2032
13,-0.3999,-1.7544,0.2463,-0.138,0.0471,0.3249,2111
13,-0.3999,-1.9133,0.4797,-0.31,0.6849,0.5309,2011
13,-0.3364,-1.8508,0.5847,-0.7052,1.2644,0.6943,2083
13,-0.1304,-1.5574,0.7461,-0.9894,1.8061,0.9957,2053
13,0.0176,-1.4036,0.8164,-0.915,2.2551,0.834,1973
13,0.0134,-1.3269,0.7458,-0.656,1.7412,0.6894,2109
13,0.2473,-1.3042,0.6245,-1.1547,1.5551,0.6733,2023
13,0.4309,-1.1428,0.4348,-0.7954,0.9728,0.5626,2061
13,0.1687,-1.4441,0.4634,-0.8564,0.8966,0.2535,2049
13,0.1204,-1.4136,0.3181,-0.6793,0.6922,0.1385,2043
13,0.1865,-1.4077,0.4521,-0.4683,0.7661,-0.0009,2052
13,0.5752,-1.2522,0.1362,-0.0076,0.4322,-0.0348,2065
13,0.2141,-1.3567,0.3989,-0.0419,0.919,-0.3855,2033
13,0.2588,-1.2473,0.4692,0.1404,0.6325,-0.4227,2063
13,0.2964,-1.1433,0.4514,0.2493,0.1719,-0.3286,2063
13,0.2266,-1.1328,0.4363,0.2517,-0.1995,-0.3015,2029
13,0.252,-1.1091,0.3547,0.2223,-0.5601,-0.2875,2048
13,0.1858,-1.0803,0.2703,0.0899,-0.8218,-0.2585,2048
13,0.2561,-0.917,0.1675,0.2063,-1.6884,-0.0991,2052
13,0.0945,-0.9363,0.0771,-0.1297,-0.812,-0.2133,2064
13,0.0125,-0.8716,0.0386,-0.214,-0.685,-0.2108,2077
14,-0.0173,-0.7649,0.0178,-0.2242,-0.4996,-0.1992,2021
14,-0.0374,-0.6946,-0.019,-0.3219,-0.4508,-0.2782,2081
14,-0.1812,-0.6831,0.0239,-0.2224,-0.0855,-0.0571,2038
14,-0.1638,-0.6289,0.0371,-0.2526,0.2481,-0.0109,2067
14,-0.1125,-0.5925,0.043,-0.242,0.5581,0.0451,2044
14,-0.0518,-0.5393,0.0542,-0.2626,0.6779,0.1072,2072
14,0.0281,-0.5867,0.1013,-0.2603,0.6505,0.1738,2062
14,0.0342,-0.5911,0.1577,-0.2326,0.6179,0.2246,2044
14,0.0071,-0.6042,0.1846,-0.1659,0.5441,0.3,2044
14,0.0193,-0.6304,0.1978,-0.1273,0.3081,0.336,2067
14,0.0537,-0.6262,0.1978,-0.1711,0.0812,0.3392,2048
14,0.0735,-0.6064,0.1387,-0.2153,-0.1117,0.3312,2036
14,0.085,-0.5959,0.1016,-0.2851,-0.1678,0.3051,2107
14,0.1045,-0.6155,0.0093,-0.3341,-0.19,0.3036,2021
14,0.125,-0.6169,-0.0283,-0.4061,-0.1595,0.2911,2075
14,0.1726,-0.6077,-0.0371,-0.5277,-0.167,0.2932,2041
14,0.1848,-0.6265,-0.0295,-0.5964,-0.2344,0.2546,2070
14,0.2034,-0.6357,-0.019,-0.728,-0.3384,0.3081,2014
14,0.1755,-0.7217,-0.0012,-0.8726,-0.3678,0.3907,2075
14,0.2581,-0.5623,0.01,-0.8487,-0.4591,0.4558,2048
14,0.2451,-0.5642,0.0505,-0.8485,-0.6184,0.5401,2052
14,0.2156,-0.6274,0.0808,-0.7721,-0.8267,0.5751,2027
14,0.1458,-0.6387,0.1243,-0.648,-0.9866,0.5564,2034
14,0.0684,-0.6252,0.1533,-0.4936,-1.1443,0.6199,2013
14,0.0903,-0.6267,0.1082,-0.2934,-1.1023,0.5763,2131
14,0.1267,-0.7217,0.1057,-0.2621,-1.0073,0.5247,2032
14,0.0618,-0.8689,0.0444,-0.1262,-0.8396,0.3972,2028
14,0.085,-0.8562,-0.0256,-0.1225,-0.6633,0.3816,2105
14,-0.3667,-0.8303,-0.0781,-0.028,-0.3711,-0.078,2004
14,-0.0508,-0.8628,0.1016,0.0414,-0.2457,0.1009,2116
14,-0.2075,-0.8416,0.1392,-0.1168,0.4136,-0.5584,2072
14,0.053,-0.7668,0.083,0.0953,0.2348,0.0178,2024
14,-0.0215,-0.8274,0.1145,0.0834,0.6257,-0.1683,2059
14,0.1807,-0.8013,0.1228,0.0824,0.543,-0.0103,2016
14,0.0232,-0.9263,0.2017,0.1015,0.5867,-0.0202,2108
14,0.0508,-1.02,0.1592,0.0939,0.3555,-0.0326,2019
14,-0.1333,-1.1462,0.2229,0.2701,0.5401,0.1521,2058
14,-0.1211,-1.248,0.2278,0.3687,0.4349,0.0866,2081
14,-0.0793,-1.2937,0.2891,0.4868,0.3458,0.1008,2019
14,-0.0801,-1.4346,0.3066,0.5255,0.231,0.0687,2104
14,0.02,-1.5908,0.2263,0.2935,-0.0619,0.1127,2039
14,-0.4685,-1.8586,0.1313,-0.0569,0.2518,0.2976,2087
14,-0.5999,-1.9912,-0.1067,-0.2551,0.3376,0.3349,2019
14,-0.5732,-2.0,-0.2102,-0.3245,0.2886,0.2392,2122
14,-0.5254,-1.9163,-0.2058,-0.1631,0.4991,0.3009,2074
14,-0.2749,-1.6699,-0.1082,-0.1437,0.2558,0.3927,2025
14,-0.3174,-1.4929,0.0471,-0.2503,-0.0696,0.5159,2036
14,-0.3254,-1.3601,0.1113,-0.2027,0.1934,0.3381,2047
14,-0.3169,-1.4287,0.2595,-0.1248,0.6268,0.3501,1997
14,-0.2368,-1.4707,0.2666,0.0004,0.9535,0.2441,2033
14,-0.2283,-1.4341,0.179,0.1973,1.1615,0.3777,2101
14,-0.0427,-1.6267,0.2444,0.2161,0.8538,0.1912,2034
14,-0.0549,-1.4883,0.2036,0.3002,0.5175,0.0421,2046
14,-0.1182,-1.4285,0.1716,0.412,0.4312,-0.0923,2070
14,-0.5642,-1.365,0.1545,0.4228,1.1172,-0.6869,2046
14,0.0996,-1.2993,0.0945,0.61,0.4525,-0.4678,2062
14,0.0054,-1.2773,0.0994,0.6909,0.4655,-0.5378,2054
14,0.0002,-1.2034,0.1006,0.6528,0.5714,-0.6707,2047
14,0.1138,-0.958,0.1721,0.9688,0.5586,-0.7032,2053
14,0.302,-0.7493,0.3718,1.4697,0.5392,-0.8152,2051
14,0.4941,-0.7148,0.4268,1.5616,0.7806,-0.9119,2048
14,0.4177,-0.9636,0.3315,1.2744,0.9236,-0.8889,2046
14,0.1155,-1.1794,0.1577,0.9796,0.6303,-0.9496,2046
14,-0.1541,-1.4084,0.0916,0.4573,0.63,-0.6028,2062
14,-0.3083,-1.2776,0.0027,0.0356,0.7745,-0.5171,2041
14,-0.2922,-0.9465,-0.1382,-0.2522,0.917,-0.4617,2050
14,-0.2742,-0.6902,-0.1479,-0.4014,0.9557,-0.4609,2040
14,-0.238,-0.635,-0.0964,-0.4501,0.8182,-0.5574,2081
14,-0.0935,-0.6016,-0.1018,-0.5023,0.5747,-0.4589,2052
14,-0.0127,-0.4766,-0.075,-0.4109,0.3263,-0.4713,2046
14,0.0686,-0.3704,-0.0203,-0.3622,0.03,-0.5441,2058
14,0.1338,-0.2815,-0.0415,-0.2482,-0.2426,-0.624,2029
14,0.1799,-0.2578,-0.0442,-0.1566,-0.3838,-0.6666,2069
14,0.1484,-0.3506,-0.1121,-0.1779,-0.5128,-0.6276,2026
14,0.0286,-0.4587,-0.1853,-0.1726,-0.6596,-0.6309,2047
14,-0.0288,-0.5442,-0.2366,-0.1995,-0.6216,-0.6289,2024
14,-0.0332,-0.5686,-0.2815,-0.2365,-0.5156,-0.6363,2044
14,-0.0269,-0.561,-0.3105,-0.2458,-0.4236,-0.6243,2070
14,-0.0076,-0.5613,-0.3127,-0.2326,-0.38,-0.5958,2024
14,-0.0122,-0.5625,-0.3081,-0.2129,-0.3309,-0.6039,2059
14,0.0061,-0.5713,-0.3103,-0.1706,-0.3107,-0.6139,2033
14,0.012,-0.5605,-0.3022,-0.1149,-0.3104,-0.6457,2070
14,0.0349,-0.5518,-0.228,-0.1233,-0.3995,-0.6106,1996
14,0.0408,-0.5718,-0.1614,-0.0816,-0.51,-0.5458,2079
14,-0.0149,-0.6514,-0.0713,-0.0471,-0.3535,-0.4332,2058
14,-0.0322,-0.7285,-0.0173,-0.0388,-0.2085,-0.351,2065
14,-0.0691,-0.7461,0.0305,0.0234,-0.1936,-0.2843,2004
14,0.001,-0.7744,0.0513,0.0256,-0.0614,-0.2219,2048
14,0.0315,-0.8057,0.0979,0.0811,0.0193,-0.1225,1989
14,0.0286,-0.8416,0.1179,0.0758,0.0314,-0.0867,2123
14,0.0129,-0.8738,0.1133,0.0799,-0.0361,-0.1124,2056
14,0.0334,-0.8452,0.1206,0.0505,-0.0992,-0.1541,2074
14,0.0398,-0.8003,0.166,0.1096,-0.2305,-0.1689,2068
14,0.0518,-0.8252,0.1599,0.1673,-0.3914,-0.1954,2012
14,0.0955,-0.9082,0.1411,0.2091,-0.4421,-0.2507,2024
14,0.2175,-1.0112,0.1819,0.3634,-0.665,-0.1772,2137
14,0.2261,-1.2495,0.2141,0.3824,-0.5959,-0.4577,2048
14,0.2949,-1.4089,0.2258,0.2422,-0.469,-0.4948,2060
14,0.1472,-1.4302,0.2698,0.1522,-0.4275,-0.3631,2098
14,0.0466,-1.4946,0.2588,0.0156,-0.3907,-0.1804,2025
14,-0.0205,-1.6387,0.1931,-0.0064,-0.3958,-0.0739,2007
14,-0.0007,-1.8376,0.2341,-0.0614,-0.2834,-0.029,2077
15,-0.1187,-1.8962,0.345,-0.2336,-0.1364,-0.1587,1987
15,-0.1038,-1.6208,0.3572,-0.2678,0.1447,-0.1948,2110
15,0.27,-1.2151,0.2788,0.0649,0.1665,0.0774,1998
15,0.1309,-1.5964,0.3135,-0.3091,0.3286,-0.2004,2104
15,-0.0312,-1.7239,0.6111,-0.1625,0.1049,-0.2234,2027
15,-0.0271,-1.447,0.6174,-0.349,0.3892,-0.1657,2042
15,0.1382,-1.467,0.5212,-0.1708,0.3497,-0.0947,2049
15,0.3457,-1.49,0.4954,-0.2388,0.0577,-0.1141,2039
15,0.4275,-1.4255,0.417,-0.2808,-0.3534,-0.1155,2041
15,0.4983,-1.4431,0.2883,-0.2756,-0.755,-0.165,2041
15,0.4146,-1.4116,0.2358,-0.2598,-1.0132,-0.2304,2052
15,0.3296,-1.2954,0.2083,-0.2254,-1.2766,-0.2739,2062
15,0.144,-1.3376,0.217,-0.1495,-1.6054,-0.2468,2027
15,0.1985,-1.0862,0.1802,-0.2187,-1.4347,-0.2517,2050
15,0.2,-1.0359,0.1672,-0.2493,-1.3893,-0.2265,2038
15,0.1765,-0.9531,0.1777,-0.2338,-1.2527,-0.2089,2057
15,0.1848,-0.8518,0.176,-0.1934,-1.1274,-0.2053,2046
15,0.344,-0.7148,0.1799,-0.1349,-1.1469,-0.0794,2061
15,0.0903,-0.7881,0.1785,-0.0977,-0.8831,-0.2137,2041
15,0.1902,-0.6431,0.1956,-0.0087,-0.6648,-0.1819,2054
15,0.2883,-0.5281,0.1389,0.1305,-0.9384,-0.0212,2047
15,0.147,-0.5439,0.1282,0.1838,-0.5398,-0.0707,2053
15,0.1765,-0.5046,0.1348,0.2625,-0.3177,-0.0903,2055
15,0.1758,-0.5171,0.0842,0.2574,-0.2826,-0.0069,2052
15,0.0474,-0.4744,0.0244,0.2534,0.0033,-0.0097,2041
15,0.1089,-0.4854,-0.0229,0.2139,0.1381,0.0446,2060
15,0.0725,-0.4807,-0.0432,0.1406,0.3036,0.0868,2053
15,0.063,-0.501,-0.0593,0.0158,0.4193,0.119,2048
15,0.0559,-0.5112,-0.041,-0.0786,0.5102,0.1426,2050
15,0.0784,-0.5269,-0.0503,-0.1288,0.6361,0.1647,2047
15,0.0911,-0.5215,0.0303,-0.1117,0.6984,0.2131,2064
15,0.1086,-0.501,0.0339,-0.165,0.7111,0.2713,2028
15,0.1216,-0.4795,0.0225,-0.2723,0.6805,0.2786,2097
15,0.1226,-0.4431,0.033,-0.3325,0.6239,0.2816,2000
15,0.1165,-0.4949,0.0793,-0.4932,0.5212,0.24,2028
15,0.0967,-0.3679,0.0046,-0.4998,0.5384,0.2482,2083
15,0.0786,-0.3586,-0.0117,-0.3707,0.6107,0.283,2007
15,0.0742,-0.4622,-0.0022,-0.2855,0.7039,0.2623,2083
15,0.0862,-0.5481,0.0015,-0.1918,0.8273,0.2848,2047
15,0.0989,-0.6558,-0.0308,-0.1731,0.9104,0.2559,2055
15,0.0786,-0.7341,-0.0151,-0.2023,0.9758,0.2529,2033
15,0.0784,-0.707,-0.0537,-0.3448,0.9746,0.2699,2061
15,0.0811,-0.6685,-0.1216,-0.4219,0.9464,0.3069,2011
15,0.0903,-0.699,-0.0928,-0.4261,0.9055,0.3557,2097
15,0.1011,-0.7769,0.043,-0.4775,0.8235,0.3597,2019
15,0.1335,-0.8145,0.1484,-0.6597,0.6944,0.3256,2113
15,0.2544,-0.8308,0.2234,-0.8484,0.5512,0.4315,2004
15,0.4204,-1.021,0.3176,-0.7757,0.2971,0.5898,2069
15,0.3342,-1.1677,0.2429,-0.7243,0.1193,0.6159,2030
15,0.0625,-1.342,0.2874,-0.3779,-0.0377,0.4461,2002
15,0.0955,-1.2739,0.25,0.0518,-0.0582,0.2229,2105
15,0.4041,-1.1165,0.1265,0.3151,0.1826,0.1089,2020
15,0.2415,-1.5303,0.1514,0.1249,0.495,-0.0154,2006
15,-0.1692,-2.0,-0.0212,-0.072,0.7044,-0.0447,2078
15,-0.4563,-2.0,-0.2703,-0.4926,1.0656,0.1505,2023
15,-0.4968,-2.0,-0.4475,-0.616,1.2395,0.4453,2069
15,-0.3113,-2.0,-0.4084,-0.8359,1.1517,0.5071,2037
15,-0.0837,-1.7246,-0.2759,-0.6853,1.0291,0.4851,2030
15,0.0933,-1.6365,0.0703,-0.4394,0.9769,0.4607,2039
15,0.3574,-1.571,0.2954,-0.5094,0.9031,0.507,2058
15,0.1907,-1.6387,0.6045,-0.382,0.846,0.6196,2059
15,0.2603,-1.5198,0.4644,-0.2065,0.6071,0.6577,2026
15,0.3237,-1.7578,0.5259,-0.2669,0.6327,0.5582,2116
15,0.2949,-1.635,0.2605,-0.0198,0.3967,0.3091,2026
15,0.1357,-1.4846,0.1318,0.2051,0.2647,0.2072,2048
15,0.0898,-1.457,0.0054,0.3163,0.1561,0.1699,2051
15,-0.0913,-1.4314,0.0154,0.4059,0.0278,-0.0055,2054
15,-0.0662,-1.2195,-0.071,0.6548,-0.0558,0.0539,2048
15,-0.0244,-1.2432,-0.0708,0.6442,-0.1123,-0.1682,2044
15,-0.0867,-1.2134,-0.0303,0.7453,-0.0642,-0.2317,2055
15,-0.0166,-1.1033,0.0132,0.8267,0.0641,-0.3257,2049
15,0.0813,-0.9807,0.1047,0.9021,0.1132,-0.4401,2052
15,0.1072,-0.8894,0.2046,1.0124,0.172,-0.4817,2048
15,0.1064,-0.7239,0.3523,1.4142,0.121,-0.5116,2048
15,0.1758,-0.6099,0.4392,1.5123,0.4131,-0.5356,2048
15,0.3621,-0.6614,0.4163,1.4295,0.3061,-0.3742,2045
15,0.5261,-0.6885,0.2017,1.0065,0.1469,-0.5649,2057
15,0.2363,-0.9897,0.0679,0.604,-0.2121,-0.6934,2052
15,0.0164,-0.936,-0.0562,0.2265,-0.4119,-0.5975,2047
15,-0.1763,-0.7988,-0.1362,-0.0731,-0.2305,-0.4288,2040
15,-0.2922,-0.6409,-0.1577,-0.1513,-0.0071,-0.352,2055
15,-0.3228,-0.5735,-0.1226,-0.2075,0.128,-0.3015,2066
15,-0.261,-0.5393,-0.0901,-0.2561,0.2539,-0.3067,2049
15,-0.2107,-0.49,-0.1099,-0.2831,0.3883,-0.3088,2044
15,-0.1812,-0.4478,-0.1147,-0.2381,0.4297,-0.2986,2051
15,-0.1101,-0.4143,-0.1208,-0.1847,0.4386,-0.2924,2041
15,-0.0337,-0.4014,-0.1226,-0.083,0.4324,-0.2952,2059
15,0.0522,-0.3967,-0.1267,0.0181,0.3272,-0.2984,2039
15,0.1179,-0.4167,-0.1558,0.1361,0.1924,-0.2562,2042
15,0.1902,-0.4426,-0.157,0.2023,0.002,-0.2394,2066
15,0.1504,-0.5557,-0.168,0.1575,-0.0899,-0.1899,2061
15,0.146,-0.5952,-0.1897,0.1681,-0.21,-0.1432,2051
15,0.1348,-0.6536,-0.186,0.083,-0.3109,-0.1465,2045
15,0.0769,-0.6902,-0.1663,0.024,-0.334,-0.1225,2049
15,-0.0132,-0.7312,-0.1428,-0.0991,-0.3007,-0.0699,2080
15,-0.0801,-0.7498,-0.1255,-0.2001,-0.2121,0.0136,2059
15,-0.1023,-0.7646,-0.1125,-0.2017,-0.0948,0.1244,2072
15,-0.1204,-0.7727,-0.0928,-0.1655,0.089,0.2297,2012
15,-0.1638,-0.8035,-0.0527,-0.194,0.2328,0.33,2140
15,-0.1404,-0.803,-0.0732,-0.023,0.3879,0.3866,2037
15,-0.0764,-0.8232,-0.0095,0.0956,0.5136,0.4597,2001
16,0.011,-0.8984,0.0203,0.1394,0.4449,0.5086,2063
16,0.0972,-0.9651,0.1528,0.1816,0.2515,0.4516,2080
16,0.2332,-1.0195,0.1909,-0.0614,-0.1483,0.5287,2010
16,0.2397,-0.8501,0.2507,-0.24,-0.5204,0.5151,2098
16,0.333,-0.614,0.3027,-0.3452,-0.7668,0.6297,2049
16,0.0945,-0.7991,0.3149,-0.0782,-1.3026,0.5018,2059
16,0.1985,-0.8384,0.3936,0.0629,-1.5293,0.4894,2048
16,0.0742,-1.092,0.2671,0.4295,-1.6974,0.2808,2039
16,0.2695,-1.2166,0.3381,0.4224,-1.6772,0.312,2063
16,0.2166,-1.3323,0.1802,0.4568,-1.396,0.2598,2069
16,0.0686,-1.3394,0.2463,0.518,-1.2909,0.1092,2004
16,-0.521,-1.5981,0.2639,0.384,-0.6644,-0.3498,2043
16,-0.0396,-1.3059,0.092,0.6172,-0.4813,-0.1214,2050
16,0.1133,-1.3831,0.0608,0.5335,-0.42,0.1871,2077
16,-0.1838,-1.7549,0.0254,0.1997,0.1718,0.2458,2012
16,-0.2173,-1.8416,0.1189,-0.3723,0.7283,0.371,2039
16,-0.1343,-1.782,0.0659,-0.6942,1.2852,0.3199,2081
16,-0.0339,-1.6763,0.137,-0.8163,1.7612,0.2776,1977
16,0.064,-1.5391,0.2632,-0.6428,1.7467,0.2566,2130
16,0.0476,-1.4954,0.408,-0.6819,1.811,-0.0205,2041
16,0.1294,-1.46,0.4451,-0.5882,1.5755,-0.1742,2048
16,0.2771,-1.4058,0.4465,-0.5136,1.0128,-0.2542,2051
16,0.6096,-1.0566,0.3845,-0.1844,0.0276,-0.3967,2061
16,0.0488,-1.5264,0.3584,-0.4793,0.1567,-0.4858,2061
16,0.217,-1.3579,0.3909,-0.4369,0.0293,-0.4735,2051
16,0.2981,-1.2039,0.3086,-0.369,-0.1906,-0.4715,2053
16,0.2148,-1.188,0.2639,-0.2494,-0.4324,-0.4813,2054
16,0.2043,-1.1912,0.2683,-0.1482,-0.6931,-0.5717,2052
16,0.2212,-1.1213,0.3179,-0.0526,-1.1979,-0.8147,2049
16,0.261,-1.021,0.2812,-0.0856,-1.0781,-0.4944,2049
16,0.2512,-0.8271,0.2583,-0.0434,-1.246,-0.5614,2046
16,0.1667,-0.7971,0.2146,-0.0128,-1.0833,-0.4143,2050
16,0.303,-0.594,0.1619,0.1519,-1.6056,-0.443,2054
16,0.0164,-0.73,0.1226,0.0423,-0.719,-0.3007,2050
16,0.0798,-0.6541,0.074,0.1063,-0.7003,-0.2838,2059
16,0.0964,-0.5957,0.0886,0.0842,-0.4972,-0.2229,2050
16,0.0093,-0.552,0.0703,0.1426,-0.2874,-0.2071,2056
16,0.0142,-0.5056,0.0671,0.0586,-0.0116,-0.2067,2046
16,0.0186,-0.4812,0.0483,0.0481,0.1455,-0.183,2057
16,0.0396,-0.4338,0.0308,-0.0047,0.2741,-0.1663,2033
16,0.0583,-0.4072,0.0293,-0.0301,0.3598,-0.1326,2048
16,0.043,-0.3904,-0.01,-0.0582,0.4874,-0.1057,2045
16,0.0542,-0.3938,-0.0122,-0.0852,0.573,-0.0834,2056
16,0.0596,-0.4365,-0.0291,-0.1037,0.651,-0.0553,2045
16,0.0569,-0.4751,-0.0393,-0.0955,0.7324,-0.0365,2060
16,0.0803,-0.54,-0.063,-0.079,0.7774,-0.0064,2042
16,0.1174,-0.5742,-0.0544,-0.0799,0.7393,0.0166,2052
16,0.1279,-0.5593,-0.0432,-0.0992,0.6817,0.0497,2045
16,0.1433,-0.5466,-0.0564,-0.1306,0.5964,0.1172,2070
16,0.1599,-0.5667,-0.0818,-0.2485,0.4449,0.1694,2042
16,0.1147,-0.6162,-0.0845,-0.3333,0.3004,0.1788,2056
16,0.0981,-0.6421,-0.0886,-0.2843,0.3219,0.2234,2048
16,0.0464,-0.6851,-0.0608,-0.3187,0.3416,0.2738,2056
16,0.0417,-0.7451,0.0017,-0.2951,0.3159,0.3176,1991
16,0.0466,-0.782,0.0239,-0.3115,0.3654,0.4057,2097
16,0.0105,-0.8079,0.0576,-0.2796,0.4516,0.4678,1988
16,0.0164,-0.7368,0.1348,-0.2743,0.5044,0.5477,2094
16,0.3584,-0.6057,0.2605,-0.5084,0.5429,0.6879,2056
16,0.324,-0.6255,0.2524,-0.6902,0.3228,0.7305,2024
16,0.0981,-0.7751,0.1511,-0.5588,-0.3231,0.6098,2039
16,0.2336,-0.7856,0.2551,-0.8084,-0.3409,0.5528,2052
16,0.2419,-0.7495,0.1045,-0.8116,-0.2173,0.2741,2066
16,0.2317,-0.6887,0.2029,-0.8781,-0.373,0.2268,2054
16,0.1536,-0.707,0.1431,-0.5698,-0.5553,0.1163,2067
16,0.0186,-0.95,0.1377,-0.1935,-0.5261,0.0827,2046
16,-0.0664,-1.1541,0.1218,0.2157,-0.5635,-0.1148,2066
16,-0.0266,-1.2869,0.1445,0.5895,-0.382,-0.3228,2046
16,0.2588,-1.2595,0.2368,0.8662,-0.0961,-0.4175,2011
16,0.3635,-1.4309,0.2476,0.5185,0.1445,-0.3578,2057
16,0.1533,-1.5789,0.2007,0.2268,0.3866,-0.5141,2055
16,-0.1047,-1.7493,0.0161,0.0056,0.4492,-0.3783,2011
16,-0.2488,-1.9233,-0.1169,-0.1364,0.4145,0.1277,2078
16,-0.5396,-2.0,-0.3247,-0.4362,0.632,0.3213,2076
16,-0.4744,-2.0,-0.4768,-0.5617,0.8183,0.4782,2022
16,-0.3257,-1.9194,-0.4841,-0.8437,0.8375,0.5308,2115
16,-0.2705,-1.7322,-0.3794,-0.8223,1.0042,0.5108,2009
16,0.0322,-1.6187,-0.0398,-0.9495,1.3772,0.6568,2051
16,0.3235,-1.4849,-0.0889,-0.799,1.3784,0.8934,2039
16,0.2856,-1.4067,0.3357,-0.6835,1.0593,0.8871,2029
16,0.5662,-1.5203,0.9277,0.1693,0.1505,0.6893,2058
16,0.6511,-1.6729,0.7971,0.6801,-0.3164,0.2477,2050
16,0.0588,-1.9949,0.345,0.3294,-0.3496,-0.1451,2065
16,-0.093,-1.4272,-0.0986,0.2336,-0.4109,-0.2132,2047
16,-0.2192,-1.3281,-0.353,0.1204,-0.4023,-0.1408,2044
16,-0.106,-1.3091,-0.3301,-0.067,-0.279,-0.0185,2060
16,-0.2375,-1.2512,-0.2026,-0.2216,-0.4244,0.0186,2058
16,-0.1553,-1.1394,-0.0767,-0.1991,-0.5577,0.1254,2059
16,-0.04,-1.0642,0.0767,-0.0795,-0.5525,0.1382,2054
16,-0.0623,-1.1313,0.095,0.2181,-0.6143,0.0489,2050
16,0.1584,-0.9084,0.2146,0.4426,-0.6644,0.0009,2044
16,0.0894,-0.8884,0.2485,0.6867,-0.7319,-0.0784,2042
16,-0.0217,-0.8032,0.2234,0.8525,-0.6652,-0.2755,2050
16,-0.0164,-0.7349,0.2148,0.8994,-0.4834,-0.4059,2045
16,0.1858,-0.5027,-0.0066,0.6584,0.0715,-0.6351,2044
16,-0.0674,-0.6572,0.0823,0.8257,0.0072,-0.3802,2055
16,-0.0469,-0.6582,0.0332,0.5486,0.276,-0.4175,2048
16,-0.0386,-0.6521,0.0234,0.3888,0.359,-0.3196,2052
16,-0.1223,-0.5811,-0.0518,0.2959,0.3573,-0.2591,2048
16,-0.1248,-0.5505,-0.0969,0.2341,0.3504,-0.2203,2044
16,-0.0474,-0.4172,-0.0938,0.2537,0.3666,-0.1549,2062
16,0.0352,-0.3972,-0.0945,0.2203,0.2948,-0.2029,2041
16,0.0557,-0.3779,-0.1125,0.2071,0.3139,-0.2173,2057
16,0.0527,-0.3398,-0.1184,0.3131,0.2824,-0.2683,2049
17,0.0447,-0.4392,-0.1206,0.3012,0.2666,-0.2345,2043
17,0.0667,-0.4507,-0.1394,0.2497,0.3555,-0.2143,2058
17,0.0828,-0.5242,-0.1294,0.2353,0.3959,-0.1433,2067
17,0.0291,-0.541,-0.1458,0.2404,0.4848,-0.135,2042
17,0.113,-0.6338,-0.1287,0.1467,0.5638,-0.0601,2067
17,0.0845,-0.7012,-0.1355,0.0353,0.6171,0.0284,2041
17,0.0884,-0.7512,-0.115,-0.0989,0.6365,0.1353,2056
17,0.0869,-0.7844,-0.1086,-0.2547,0.6142,0.2281,2012
17,0.0842,-0.8079,-0.0957,-0.3464,0.4478,0.2892,2133
17,0.0737,-0.7998,-0.0332,-0.3988,0.2771,0.3904,1994
17,0.0974,-0.7947,-0.0095,-0.4271,0.0937,0.5541,1996
17,0.1255,-0.8462,0.0095,-0.4225,-0.1101,0.6887,2151
17,0.1702,-0.9153,0.0176,-0.3571,-0.3678,0.8018,1959
17,0.1353,-0.9053,0.022,-0.2863,-0.5626,0.6761,2076
17,0.0601,-0.8572,-0.0225,-0.182,-0.7292,0.5686,2048
17,0.0012,-0.866,0.0408,-0.1689,-0.7638,0.5211,2022
17,-0.062,-0.887,0.0405,-0.1028,-0.8413,0.4517,2048
17,-0.0061,-0.8545,0.0818,0.0033,-0.9335,0.3958,2124
17,0.0479,-0.9106,0.1497,0.0752,-1.1491,0.3782,2002
17,0.0925,-0.9937,0.1011,0.1337,-1.1536,0.2611,2021
17,0.519,-1.0637,0.0378,0.1341,-1.1314,-0.1248,2062
17,0.019,-1.1558,0.0891,0.2465,-1.2142,0.1377,2061
17,0.0176,-1.2178,0.064,0.177,-0.8945,-0.0007,2042
17,-0.0234,-1.1736,0.0952,0.2836,-0.718,-0.0353,2077
17,-0.0779,-1.1521,0.1479,0.562,-0.5805,-0.1916,1995
17,-0.2534,-1.3269,0.1785,0.783,-0.172,-0.4815,2067
17,-0.3291,-1.5203,0.1741,0.7482,0.5667,-0.7142,2051
17,-0.2847,-1.8098,0.1299,0.3677,1.5498,-0.6364,2032
17,-0.1936,-2.0,0.2371,-0.224,2.3109,-0.3292,2044
17,-0.3162,-1.8967,0.1982,-0.6207,2.4551,-0.2951,2027
17,-0.2808,-1.4648,0.2861,-0.7737,2.6121,-0.2257,2082
17,-0.1829,-1.084,0.3091,-0.8381,2.5055,-0.1583,2035
17,0.0444,-1.1113,0.2761,-0.7857,2.1869,0.0156,2055
17,0.1631,-1.1768,0.3013,-0.7207,1.7333,-0.0899,2074
17,0.271,-1.2703,0.3132,-0.5927,1.0556,-0.2485,2033
17,0.2485,-1.2725,0.3384,-0.4946,0.5661,-0.4462,2049
17,0.2549,-1.2708,0.2209,-0.2519,0.0314,-0.373,2053
17,0.2358,-1.1609,0.3162,-0.1621,-0.2308,-0.2956,2052
17,0.1675,-1.1863,0.3037,0.0739,-0.4299,-0.1539,2051
17,0.2627,-1.105,0.2881,0.1834,-0.7895,-0.2472,2056
17,0.1843,-1.0217,0.2957,0.1783,-1.0456,-0.2878,2056
17,0.1624,-0.9871,0.2739,0.267,-1.1954,-0.2634,2052
17,0.1721,-0.9468,0.2246,0.4061,-1.6073,-0.2824,2047
17,0.2603,-0.8364,0.1765,0.4115,-1.319,-0.0218,2049
17,0.2349,-0.7607,0.1401,0.3694,-1.3854,-0.0095,2046
17,0.1382,-0.7363,0.0183,0.2903,-1.3732,-0.0084,2054
17,0.1487,-0.7451,-0.051,0.0806,-0.9608,0.0068,2049
17,0.144,-0.7197,-0.1169,-0.0515,-0.6693,-0.0563,2038
17,0.1162,-0.6521,-0.1433,-0.1312,-0.4396,-0.0798,2061
17,0.0872,-0.6101,-0.1096,-0.2469,-0.1983,-0.0694,2040
17,0.0728,-0.5913,-0.0688,-0.2313,0.0137,-0.059,2068
17,0.0803,-0.5784,-0.0122,-0.22,0.2489,-0.0598,2054
17,0.1313,-0.5896,0.0264,-0.2093,0.3267,-0.0619,2050
17,0.1885,-0.5146,0.0679,-0.191,0.3462,-0.0352,2054
17,0.2166,-0.5259,0.0737,-0.1834,0.3722,0.0093,2009
17,0.2405,-0.5659,0.0825,-0.1578,0.2655,0.0748,2061
17,0.2568,-0.5696,0.0681,-0.1294,0.1866,0.1402,2042
17,0.2375,-0.5916,0.094,-0.0142,0.0569,0.1742,2020
17,0.1836,-0.5894,0.0791,0.0392,-0.0044,0.2055,2107
17,0.1143,-0.6182,0.0698,0.0519,-0.0297,0.2306,2016
17,0.103,-0.6138,0.0703,0.1654,0.0293,0.2491,2014
17,0.0598,-0.5857,0.1328,0.1951,0.0886,0.2706,2139
17,0.0076,-0.5701,0.146,0.2446,0.0678,0.2748,1988
17,0.0566,-0.5908,0.1772,0.1723,0.1069,0.282,2107
17,0.0134,-0.624,0.0981,0.0123,0.1169,0.184,2000
17,0.0334,-0.7554,0.0979,-0.1976,0.1394,0.1862,2072
17,-0.0193,-0.8015,0.0142,-0.5602,0.3549,0.0562,2107
17,-0.0427,-0.8342,-0.0085,-0.5902,0.4894,0.1129,2009
17,-0.0928,-0.9563,0.009,-0.5861,0.6474,0.1843,2011
17,-0.1448,-1.0447,0.0425,-0.4264,0.699,0.1899,2115
17,-0.0847,-0.9006,0.0667,-0.2682,0.6861,0.0863,2033
17,-0.1821,-1.0286,0.1824,-0.4152,0.8933,-0.0109,2024
17,-0.1628,-1.0095,0.167,-0.4091,1.0941,-0.1778,2096
17,-0.0867,-1.1177,0.116,-0.2123,0.9977,-0.1795,2013
17,0.4685,-1.1262,-0.0347,0.2412,0.0405,0.3346,2118
17,0.0728,-1.4612,-0.0715,0.4546,-0.004,0.0866,2038
17,-0.0022,-1.905,-0.2371,0.1119,0.2992,-0.1852,2059
17,-0.2266,-2.0,-0.4038,-0.255,0.5727,-0.2131,2019
17,-0.3286,-1.772,-0.3835,-0.4164,0.8522,-0.1579,2048
17,-0.1401,-1.488,-0.28,-0.597,1.2153,-0.039,2077
17,-0.0374,-1.4775,-0.1636,-0.6512,1.5791,0.061,2080
17,0.2229,-1.3826,0.1101,-0.5698,1.4059,0.1715,2029
17,0.2783,-1.4863,0.25,-0.4685,0.8929,0.2614,1997
17,0.373,-1.5459,0.3726,-0.5516,0.5466,0.4179,2126
17,0.2273,-1.6096,0.3057,-0.4879,0.1208,0.3743,2031
17,0.1614,-1.3914,0.2009,-0.1907,-0.1868,0.3409,2051
17,0.0293,-1.2029,0.1243,0.1329,-0.3851,0.3079,2054
17,-0.0378,-1.0459,0.3411,0.7228,-0.6524,0.2143,2054
17,0.3376,-0.748,0.5808,1.8855,-1.3527,0.2505,2056
17,0.3462,-1.0024,0.3601,1.7199,-1.2713,-0.6725,2056
17,0.2146,-1.1516,0.0474,1.0641,-0.7229,-0.885,2050
17,-0.303,-1.2307,-0.2371,0.7086,-0.7478,-0.4763,2052
17,-0.4651,-1.1919,-0.4407,0.4035,-0.8228,-0.1832,2047
17,-0.4922,-1.2971,-0.3513,-0.0939,-0.2458,0.1751,2051
17,-0.4768,-0.9993,-0.3428,-0.3473,0.3915,0.0826,2047
17,-0.2036,-0.6038,-0.2629,-0.2577,0.4773,0.1313,2050
17,0.1072,-0.4951,-0.1436,-0.1501,0.2788,0.2353,2054
17,0.2471,-0.5894,-0.0208,-0.0574,-0.1836,0.2823,2044
17,0.116,-0.5798,0.0474,0.1912,-0.5843,0.1726,2056
17,0.1716,-0.4131,0.0859,0.5533,-1.0124,0.1069,2043
17,0.0027,-0.458,0.1821,0.7509,-1.1049,0.0028,2055
17,0.0317,-0.3979,0.2639,0.8597,-0.9584,-0.0714,2057
18,0.0496,-0.3792,0.262,0.7267,-0.8124,-0.1036,2049
18,-0.0188,-0.3447,0.2544,0.6588,-0.7316,-0.2386,2054
18,-0.0269,-0.3303,0.2478,0.5365,-0.7267,-0.3669,2048
18,-0.0186,-0.3977,0.262,0.2886,-0.6116,-0.3721,2053
18,0.0012,-0.4102,0.2061,0.1332,-0.6244,-0.3108,2038
18,0.0461,-0.4636,0.1809,0.0751,-0.6308,-0.2184,2060
18,0.0583,-0.6035,0.1758,-0.0027,-0.5639,-0.1012,2046
18,0.0103,-0.7581,0.2122,-0.0643,-0.4311,0.0228,2102
18,-0.0168,-0.8713,0.1829,-0.0854,-0.293,0.0776,1992
18,-0.0461,-0.8691,0.1511,-0.1767,-0.1244,0.0414,2052
18,-0.0461,-0.8325,0.0903,-0.1298,-0.0495,0.0308,2047
18,-0.0027,-0.9868,-0.0593,0.031,0.0301,0.1068,2032
18,0.0017,-1.6558,-0.0132,-0.0378,-0.0365,0.2421,2122
18,-0.3149,-1.8774,-0.0122,-0.0814,-0.0602,0.1894,2032
18,-0.4651,-1.6521,0.0237,-0.4585,-0.1115,0.2787,2016
18,-0.4377,-1.3845,-0.0239,-0.7622,0.0289,0.2509,2040
18,-0.4553,-1.3752,-0.0552,-0.8135,0.2486,0.3771,2033
18,-0.3237,-1.4331,0.0999,-1.0071,0.598,0.7269,2034
18,-0.1843,-1.1021,0.084,-0.7983,0.8411,0.8942,2045
18,0.3276,-0.8003,0.4177,-0.7705,1.3201,1.0943,2021
18,0.7241,-0.9331,0.5615,-0.7708,1.2713,1.1974,2133
18,1.0076,-0.9116,0.7585,-1.0889,1.136,1.2395,2017
18,0.3816,-1.1694,0.8025,-1.0624,0.1202,1.0975,2022
18,0.1899,-1.2446,0.6724,-0.8259,-0.7307,1.1126,2109
18,0.1343,-1.1348,0.6013,-0.4105,-1.3181,0.972,2042
18,-0.0847,-0.9492,0.5642,-0.0896,-1.855,0.7253,2047
18,-0.1177,-0.7805,0.3533,-0.0481,-1.9162,0.4679,2053
18,-0.177,-0.6597,0.1355,0.0368,-1.9193,0.3558,2058
18,-0.0823,-0.512,0.0383,0.049,-1.4295,0.2091,2047
18,0.3645,-0.458,0.0969,0.1333,-1.5838,0.6012,2053
18,0.4067,-0.5237,0.1165,0.3231,-1.5214,0.3493,2047
18,0.0374,-0.6362,-0.0557,0.4213,-1.4343,-0.0206,2055
18,0.1797,-0.6641,-0.05,0.0898,-0.4912,-0.5795,2028
18,0.0132,-0.554,-0.0833,0.2886,-0.127,-0.9469,2034
18,0.5774,-0.2634,-0.137,0.8893,-0.3189,-0.5962,2086
18,-0.3867,-0.8069,0.1145,0.5536,0.2583,-0.5058,1999
18,-0.22,-0.7876,0.001,0.0828,0.8388,-0.6412,2099
18,-0.3682,-0.7864,-0.3201,-0.0513,1.1729,-0.5691,2026
18,-0.4077,-1.2751,-0.5552,0.4277,1.2362,-0.0666,2028
18,-1.032,-2.0,-0.6841,0.4377,1.6032,-0.4887,2080
18,-0.4087,-2.0,-0.4478,-0.0165,1.8168,-1.1615,2032
18,-0.0955,-1.6587,-0.4153,-0.613,1.8117,-0.247,2057
18,0.0425,-1.4653,-0.3521,-1.5451,2.3039,-0.0483,2024
18,0.2192,-1.313,-0.2605,-2.2061,2.2968,-0.1153,1996
18,0.3237,-1.2532,-0.1313,-1.804,0.6441,0.2164,2078
18,-0.1743,-1.4453,0.2002,-1.286,0.3224,0.0925,2056
18,-0.2222,-1.5503,0.4065,-0.6766,0.7407,0.069,2038
18,-0.031,-1.4563,0.4009,-0.5421,0.7688,-0.0013,2047
18,0.1421,-1.5205,0.2493,-0.3424,0.3808,0.1309,2047
18,0.146,-1.522,0.0596,-0.1096,0.1017,0.2674,2065
18,0.1931,-1.4006,0.1072,0.4671,-0.3334,0.3115,2045
18,0.5276,-0.6384,0.0376,1.9618,-1.9563,0.7002,2058
18,0.0852,-1.0278,-0.0715,1.5588,-1.4946,-0.2745,2067
18,0.084,-1.0508,-0.1641,1.3953,-0.5012,-0.9058,2056
18,-0.1543,-1.2773,-0.2788,0.6448,0.1107,-0.9058,2045
18,-0.3362,-1.3706,-0.374,0.2301,0.0647,-0.4303,2052
18,-0.2822,-1.033,-0.3684,0.1539,0.0103,-0.2365,2055
18,-0.5718,-0.5127,-0.1614,0.4775,0.6281,-0.5892,2050
18,-0.1245,-0.6316,-0.0125,0.3651,0.2641,-0.3337,2058
18,-0.0532,-0.5842,0.0928,0.4871,0.1204,-0.5682,2049
18,-0.0342,-0.5002,0.1663,0.4231,0.043,-0.9843,2044
18,0.0823,-0.4128,0.238,0.3076,0.0109,-1.1781,2055
18,0.1875,-0.2256,0.2925,0.1582,0.1483,-0.9732,2043
18,0.1216,-0.1067,0.2705,0.1701,0.1747,-0.9104,2045
18,0.1848,-0.043,0.269,0.0864,0.083,-0.9348,2078
18,0.2893,-0.0559,0.2957,0.1971,-0.1378,-1.0054,2013
18,0.3779,-0.1875,0.3384,0.4255,-0.4151,-0.8829,2044
18,0.3835,-0.4058,0.364,0.5268,-0.7669,-0.8191,2066
18,0.2427,-0.6748,0.3079,0.5536,-0.8741,-0.7719,2042
18,-0.0083,-0.9937,0.2708,0.554,-0.8285,-0.7054,2058
18,-0.2607,-1.2778,0.229,0.371,-0.7122,-0.6268,2072
18,-0.4312,-1.374,0.1018,0.087,-0.498,-0.4565,2055
18,-0.3999,-1.5229,-0.125,-0.0003,-0.2912,-0.2723,1995
18,-0.3789,-1.7527,-0.2708,-0.0984,-0.0376,-0.1603,2099
18,-0.3945,-1.6445,-0.1914,-0.1939,0.0561,0.0843,1991
18,-0.3108,-1.3538,-0.1741,-0.2653,0.1272,0.3064,2050
18,-0.1357,-1.1387,-0.1948,-0.1241,0.0446,0.5135,2068
18,-0.1619,-1.2896,-0.2236,-0.3741,-0.1907,0.4738,2031
18,-0.2939,-1.4473,-0.1367,-0.5759,-0.2,0.4598,2095
18,-0.5852,-1.3777,-0.0242,-0.8496,0.0611,0.4698,2015
18,-0.7488,-1.3318,0.1179,-1.0373,0.457,0.4493,2057
18,-0.5715,-1.0127,0.0913,-0.9777,0.75,0.6613,2046
18,-0.2546,-0.96,0.1907,-0.975,1.2307,0.7739,2082
18,0.083,-0.939,0.4146,-0.6304,1.3382,0.8263,2056
18,0.9658,-0.8398,0.7959,-0.5662,1.4491,1.25,2049
18,1.675,-0.9128,1.124,-0.7498,0.9716,1.7749,2044
18,0.8542,-0.7112,1.0547,-0.9788,0.0976,1.7281,2067
18,0.2742,-0.9346,1.0664,-0.4566,-2.3634,1.2288,2053
18,-0.0588,-0.906,0.6362,0.1891,-3.4969,0.3381,2041
18,-0.5264,-0.7336,0.2048,0.7919,-2.9445,-0.6952,2105
18,-0.1643,-0.5747,0.1362,0.8413,-2.3105,-0.6673,2033
18,-0.1965,-0.6125,0.0471,0.9765,-1.4149,-0.469,2043
18,-0.3696,-0.9539,0.1052,0.6497,-0.2424,-0.2972,2057
18,0.137,-0.812,-0.0149,0.4729,0.0786,0.0103,2064
18,0.1648,-0.8975,-0.0452,0.1876,0.3567,-0.2358,2021
18,0.2283,-0.7322,-0.2212,0.3999,0.543,-0.6779,2071
18,0.803,-0.4802,-0.1553,0.1706,0.5837,-0.1164,2033
18,0.1741,-0.7117,-0.2241,0.2061,0.463,-0.3169,2071
18,-0.2,-0.9275,-0.1543,0.2204,0.4911,-0.7316,2044
18,-0.3423,-1.0906,-0.0339,-0.0318,0.8658,-0.9762,2092
18,-0.2712,-0.9441,-0.0645,-0.1724,1.0387,-0.9102,2003
19,-0.2893,-0.8198,-0.1646,-0.2318,1.4057,-0.6557,2078
19,-0.3232,-1.2991,-0.1626,-0.338,1.574,-0.2394,2038
19,-0.2793,-1.5996,-0.4602,-0.3031,1.7908,-0.0362,2081
19,-0.1958,-1.8652,-0.6921,-0.169,1.8021,-0.3168,2054
19,-0.1401,-1.9385,-0.6333,-0.1563,1.4583,-0.7263,2054
19,-0.0903,-1.7681,-0.5271,-0.3325,1.3039,-0.7526,2021
19,-0.0232,-1.6208,-0.418,-1.1075,1.6407,-0.4228,2080
19,0.2747,-1.3113,-0.1072,-1.7919,2.4963,0.006,2045
19,0.2092,-1.3008,0.1765,-1.9012,2.7886,0.2289,2064
19,0.0325,-1.3699,0.4355,-1.7685,2.5388,0.0398,2075
19,0.3049,-1.3115,0.6567,-1.4298,1.7262,0.1253,2044
19,0.1633,-1.3643,0.5576,-1.0577,0.9013,0.0459,2052
19,0.2236,-1.3037,0.3062,-0.4264,0.2445,0.0019,2044
19,0.2495,-1.2581,-0.0161,0.1594,-0.2266,-0.1123,2051
19,0.1858,-1.0408,-0.1677,0.6056,-0.6196,-0.0719,2058
19,0.1624,-0.8799,-0.2649,0.7958,-0.7809,-0.0196,2064
19,-0.0383,-0.5808,-0.1138,1.6652,-1.1521,0.2974,2072
19,-0.0315,-1.333,-0.1531,0.8873,-0.7891,-0.1039,2053
19,0.0759,-0.9163,-0.2317,1.0123,-0.5924,-0.4311,2035
19,0.0034,-0.7988,-0.1309,1.2025,-0.6191,-0.5833,2075
19,0.0164,-0.6785,-0.0566,1.7685,-0.556,-0.7753,2043
19,0.1414,-0.6345,0.0339,2.4389,-0.4338,-0.975,2056
19,0.3252,-0.625,0.1716,2.7674,-0.032,-1.532,2055
19,0.6653,-0.8384,0.1638,2.2059,-0.0168,-1.2488,2047
19,0.438,-0.9678,0.0391,1.6129,-0.2023,-1.0053,2046
19,0.1746,-0.9739,-0.0266,1.1564,-0.3852,-1.0063,2050
19,-0.0759,-0.9128,-0.1614,0.7023,-0.1908,-0.8592,2047
19,-0.1421,-0.8408,-0.1875,0.4657,-0.0053,-0.6375,2057
19,-0.0037,-0.7251,-0.2424,0.3111,0.2601,-0.5352,2014
19,-0.0295,-0.6836,-0.2324,0.2396,0.4851,-0.5043,2119
19,-0.0574,-0.6858,-0.2527,0.2196,0.5113,-0.3697,2036
19,-0.0474,-0.6777,-0.2014,0.1971,0.4868,-0.2739,2033
19,-0.0391,-0.7034,-0.1829,0.2274,0.4377,-0.2476,2062
19,-0.0591,-0.7603,-0.1672,0.2955,0.4633,-0.2767,2076
19,0.0886,-0.8755,-0.1492,0.3321,0.32,-0.0929,2043
19,0.0857,-0.9941,-0.1528,0.4815,0.1902,-0.0542,2038
19,0.1143,-1.1699,-0.1167,0.5124,-0.0196,-0.0429,2005
19,0.0378,-1.262,-0.0576,0.4601,-0.1047,0.0213,2058
19,-0.0906,-1.1409,0.0557,0.3024,-0.0202,0.1619,2052
19,-0.1619,-1.0115,0.1653,0.1185,0.1593,0.3723,2037
19,-0.1609,-1.0376,0.2517,-0.0694,0.4243,0.5366,2074
19,-0.2371,-1.3337,0.262,-0.0866,0.752,0.5786,2071
19,-0.24,-1.8257,0.3289,-0.2778,0.9913,0.4333,2023
19,-0.2505,-2.0,0.4214,-0.5613,1.199,0.3923,2072
19,-0.3892,-1.8376,0.6406,-0.8251,1.6584,0.2862,2006
19,-0.3428,-1.4395,0.78,-0.7364,2.1438,0.2312,2097
19,0.155,-1.1187,0.8872,-2.6727,3.7362,0.8067,2044
19,-0.2449,-1.2065,0.8176,-2.3774,2.9807,0.7963,2023
19,-0.0627,-1.2739,0.7852,-1.961,2.0679,0.6727,2073
19,0.1362,-1.2703,0.6943,-1.5339,1.7488,0.3794,2033
19,0.2563,-1.2734,0.604,-1.2898,1.5221,0.2089,2048
19,0.1831,-1.3113,0.5181,-1.0877,1.2702,0.084,2056
19,0.2043,-1.3311,0.4387,-0.8183,1.1621,0.016,2041
19,0.3875,-1.3455,0.3359,-0.5389,0.9714,0.0362,2048
19,0.2729,-1.4119,0.2837,-0.2934,1.1128,-0.2502,2052
19,0.1694,-1.3643,0.1846,-0.0933,1.3976,-0.5412,2057
19,0.1487,-1.1716,0.1128,0.2123,1.4715,-0.5581,2055
19,0.1785,-1.0493,0.0872,0.4854,1.4175,-0.3404,2048
19,0.2424,-1.1655,0.0903,0.614,1.2251,0.0254,2043
19,0.0881,-1.0486,0.0571,0.6118,1.5846,-0.1783,2052
19,0.1458,-0.96,0.0166,0.5617,1.639,-0.1053,2060
19,0.127,-0.8965,-0.061,0.4528,1.8853,-0.0445,2032
19,0.1267,-0.8635,-0.0713,0.3199,2.3085,0.0116,2033
19,0.1643,-0.8267,-0.1025,0.1991,2.5278,0.1386,2074
19,-0.1599,-0.9307,-0.1179,0.0694,2.6886,0.0361,2029
19,0.1631,-0.8088,-0.1118,-0.015,3.1646,-0.1585,2050
19,0.1726,-0.8169,-0.1218,-0.1685,3.3444,-0.3894,2055
19,0.3662,-0.7769,-0.179,-0.0879,3.3448,-0.4702,2055
19,0.2058,-0.8296,-0.1838,-0.0932,3.2714,-0.7079,2050
19,0.2168,-0.8235,-0.2046,-0.037,3.0407,-0.8544,2045
19,0.0967,-0.8958,-0.2263,0.1553,1.6251,-0.738,2071
19,-0.0154,-0.6396,-0.2593,0.2144,2.017,-1.116,2048
19,-0.0366,-0.6177,-0.1887,0.4192,1.7001,-0.9548,2040
19,-0.1223,-0.5461,-0.1292,0.5321,1.799,-0.8879,2058
19,-0.1975,-0.5361,-0.052,0.6674,2.0714,-0.8737,2066
19,-0.1204,-0.5442,-0.0063,0.6939,2.3815,-0.8132,2022
19,-0.0608,-0.5356,0.0266,0.7685,2.5685,-0.7596,2050
19,-0.0334,-0.6323,0.0474,0.6208,2.8181,-0.6763,2077
19,0.0269,-0.7087,0.0488,0.6473,2.8341,-0.6264,2043
19,0.0129,-0.772,0.0635,0.6569,2.7492,-0.5573,2007
19,-0.0422,-0.8835,0.0793,0.6357,2.6045,-0.5349,2063
19,-0.0967,-0.9878,0.075,0.5288,2.39,-0.5056,2061
19,-0.1357,-1.0886,0.0474,0.3125,2.261,-0.4887,2067
19,-0.1672,-1.1711,0.0,0.1047,2.2174,-0.509,2060
19,-0.2205,-1.2173,-0.0176,-0.0941,2.2565,-0.5778,2070
19,-0.25,-1.2532,-0.0203,-0.3268,2.416,-0.5711,2057
19,-0.2073,-1.2646,-0.0571,-0.4484,2.5093,-0.5466,2035
19,-0.0935,-1.2214,-0.0364,-0.6059,2.5209,-0.5141,2047
19,-0.0059,-1.1411,-0.0308,-0.764,2.4711,-0.4738,2023
19,0.0554,-1.0669,-0.0132,-0.9055,2.3057,-0.4259,2065
19,0.1643,-1.0483,0.051,-1.0337,2.1439,-0.295,2032
19,0.1467,-0.9944,0.1011,-1.1491,2.0258,-0.2433,1988
19,0.1382,-0.9395,0.1204,-1.0966,2.0156,-0.1991,2099
19,0.1611,-0.9067,0.1748,-1.0053,1.9105,-0.1148,2042
19,0.1758,-0.8933,0.2319,-0.9268,1.8615,-0.0756,2061
19,0.1648,-0.9507,0.2617,-0.8091,1.9603,-0.0527,2007
19,0.1523,-0.9709,0.2593,-0.6104,1.9772,-0.0288,2063
19,0.0957,-1.0479,0.2888,-0.4442,1.9466,-0.0615,2046
19,0.0476,-1.0413,0.2764,-0.1653,1.8711,-0.1674,2028
19,-0.0242,-1.0269,0.27,0.128,1.7928,-0.3318,2079
19,-0.0281,-0.9436,0.2959,0.3289,1.7415,-0.5203,2006
19,0.0598,-0.8774,0.3352,0.4205,1.7813,-0.6157,2060
19,0.1023,-0.8403,0.3057,0.4112,1.8279,-0.6432,2032
19,0.1177,-0.8821,0.2703,0.3615,1.6816,-0.5928,2068
20,0.0933,-0.9155,0.2056,0.2912,1.6012,-0.5699,2060
20,0.0718,-1.0322,0.1392,0.2396,1.4484,-0.4978,2029
20,0.0366,-1.1692,0.0342,0.2582,1.3941,-0.3489,2040
20,-0.0029,-1.3062,-0.0042,0.2903,1.4279,-0.2237,2053
20,-0.0422,-1.3984,-0.0396,0.3729,1.3697,-0.1593,2059
20,-0.0742,-1.4053,-0.0439,0.4032,1.2825,-0.1047,2027
20,-0.0764,-1.3574,-0.0356,0.4377,1.2059,-0.0427,2097
20,-0.1455,-1.2659,0.0315,0.5175,1.1136,-0.0522,2028
20,-0.2241,-1.2317,0.0967,0.5135,1.0674,-0.1092,2060
20,-0.3528,-1.3149,0.1379,0.3713,1.1465,-0.1405,2032
20,-0.5034,-1.334,0.1665,0.226,1.3838,-0.1354,2053
20,-0.5676,-1.301,0.1411,0.0204,1.6571,-0.0614,2071
20,-0.4897,-1.1553,0.0715,0.0581,1.7973,-0.0184,2034
20,-0.4172,-1.1399,0.0288,0.0153,2.0112,0.067,2061
20,-0.2966,-1.1125,-0.0027,-0.0197,2.0791,0.1097,2050
20,-0.1577,-1.0962,-0.062,-0.1276,2.0831,-0.0438,2049
20,0.0024,-1.0398,-0.1108,-0.1309,1.9186,-0.1077,2050
20,0.0923,-0.9597,-0.1785,-0.0855,1.6704,-0.1276,2049
20,0.1321,-0.9658,-0.1855,-0.0834,1.4833,-0.1677,2066
20,0.1169,-1.0266,-0.1746,-0.0425,1.3585,-0.2791,2073
20,0.1011,-1.0144,-0.1443,-0.0032,1.2503,-0.3023,2045
20,0.0781,-0.9365,-0.0872,0.0053,1.1758,-0.2601,2054
20,-0.0093,-0.8579,-0.0146,0.0603,1.2021,-0.2003,2061
20,-0.1311,-0.8206,0.0188,0.1172,1.3596,-0.1396,2035
20,-0.1653,-0.8223,0.0535,0.1864,1.5669,-0.1553,2067
20,-0.0823,-0.8711,0.0581,0.1424,1.6483,-0.1591,2076
20,-0.033,-0.8882,0.0557,0.1091,1.7293,-0.1394,2043
20,-0.0369,-0.8835,0.0515,0.079,1.7753,-0.1519,2071
20,-0.0095,-0.8911,0.0352,0.0842,1.7078,-0.1633,2044
20,0.0149,-0.8987,0.0183,0.1065,1.6342,-0.169,2050
20,0.0249,-0.8865,-0.0022,0.1465,1.5897,-0.175,2040
20,0.0527,-0.8645,-0.0107,0.1521,1.539,-0.1944,2057
20,0.0728,-0.8401,-0.0212,0.1533,1.4679,-0.2225,2052
20,0.0588,-0.8357,-0.0615,0.1868,1.4181,-0.2424,2045
20,0.0518,-0.8472,-0.0586,0.1748,1.3822,-0.2418,2052
20,0.0244,-0.8269,-0.0652,0.2023,1.332,-0.2513,2047
20,0.0095,-0.8284,-0.0469,0.244,1.3129,-0.2862,2065
20,0.0146,-0.8877,-0.0527,0.2599,1.3018,-0.3059,2027
20,-0.0137,-0.9429,-0.0488,0.2221,1.2007,-0.2928,2081
20,-0.0461,-0.97,-0.0479,0.261,1.2134,-0.2844,2028
20,-0.0371,-1.0015,-0.0339,0.2788,1.1953,-0.2662,2053
20,-0.0024,-1.0103,-0.0166,0.3047,1.2175,-0.2654,2020
20,0.0117,-0.9917,-0.0425,0.3504,1.1966,-0.2594,2084
20,0.033,-0.97,-0.0334,0.38,1.1861,-0.2282,2012
20,0.0454,-1.0151,-0.0381,0.4077,1.117,-0.1964,2059
20,-0.0093,-1.0476,-0.0344,0.4175,1.1282,-0.2219,2050
20,-0.0474,-1.0757,-0.0586,0.463,1.1395,-0.2067,2050
20,-0.1177,-1.1084,-0.019,0.4528,1.1476,-0.2017,2052
20,-0.1626,-1.1157,-0.0181,0.4268,1.2563,-0.2133,2048
20,-0.1821,-1.1011,0.0352,0.4111,1.3476,-0.2273,2042
20,-0.2253,-1.1333,0.0669,0.3342,1.4292,-0.2589,2057
20,-0.1294,-1.1536,0.0715,0.2898,1.347,-0.2422,2039
20,-0.2205,-1.1689,0.0813,0.2329,1.4209,-0.3,2053
20,-0.2095,-1.1628,0.0764,0.1999,1.3954,-0.2918,2039
20,-0.1589,-1.1873,0.0791,0.1666,1.2402,-0.2903,2058
20,-0.1167,-1.1882,0.0903,0.1144,1.2342,-0.3132,2062
20,-0.0269,-1.2065,0.0857,0.0618,1.0195,-0.3497,2053
20,-0.0549,-1.3247,0.1245,-0.0145,0.8741,-0.416,2054
20,-0.0271,-1.3872,0.0906,-0.0586,0.6678,-0.392,2057
20,-0.0339,-1.4485,0.1492,-0.0411,0.4725,-0.3534,2039
20,-0.0852,-1.4341,0.1755,-0.1534,0.3781,-0.3461,2038
20,-0.1265,-1.3291,0.2976,-0.2542,0.3655,-0.3449,2098
20,-0.1111,-1.0554,0.3372,-0.3124,0.4067,-0.2543,2029
20,-0.0574,-0.8596,0.345,-0.3581,0.4185,-0.2535,2048
20,-0.0952,-0.8628,0.3235,-0.4252,0.4683,-0.2967,2043
20,-0.0981,-0.8933,0.2976,-0.3765,0.5062,-0.4031,2052
20,-0.1235,-0.9619,0.2739,-0.5548,0.5569,-0.5504,2056
20,-0.1553,-0.8523,0.2373,-0.6223,0.7988,-0.6349,2045
20,-0.1472,-0.7798,0.2209,-0.6187,1.0254,-0.6675,2052
20,-0.1536,-0.792,0.2156,-0.5794,1.2363,-0.7186,2055
20,-0.1401,-0.8359,0.2227,-0.5401,1.3695,-0.8174,2047
20,-0.1216,-0.8918,0.2285,-0.516,1.3977,-0.9315,2041
20,-0.1001,-0.9272,0.1833,-0.4793,1.3047,-1.0337,2062
20,-0.0715,-0.9365,0.1506,-0.4312,1.1206,-1.1464,2038
20,-0.0149,-0.9072,0.1589,-0.2519,0.8419,-1.2457,2040
20,0.0745,-0.8921,0.1746,-0.1445,0.5701,-1.3103,2041
20,0.1873,-0.8604,0.1616,-0.0329,0.2388,-1.303,2047
20,0.2698,-0.8591,0.1687,0.0313,0.0113,-1.2929,2031
20,0.2996,-0.8865,0.1201,0.1061,-0.1675,-1.2127,2073
20,0.2122,-1.0427,0.0422,0.1017,-0.2244,-1.0915,2046
20,0.093,-1.2068,0.0168,0.049,-0.0981,-0.9211,2063
20,-0.1836,-1.3306,-0.0413,-0.0313,0.1478,-0.7739,2043
20,-0.3655,-1.332,-0.0461,-0.1686,0.437,-0.6437,2057
20,-0.479,-1.2539,-0.0588,-0.3766,0.8805,-0.6269,2067
20,-0.4634,-1.0859,-0.0342,-0.3502,1.1303,-0.5281,2042
20,-0.3848,-0.8899,-0.0576,-0.1316,1.233,-0.2646,2042
20,-0.3271,-1.0381,0.0005,-0.3516,1.5111,-0.3168,2052
20,-0.1716,-1.0288,0.0605,-0.4132,1.4699,-0.3919,2055
20,0.0396,-0.9812,0.0667,-0.6426,1.2893,-0.5062,2047
20,0.1707,-0.9001,0.0386,-0.7224,1.0357,-0.598,2054
20,0.2239,-0.8901,0.0261,-0.8023,0.775,-0.6709,2052
20,0.2185,-0.8699,0.0261,-0.8277,0.6236,-0.7225,2052
20,0.1865,-0.8362,0.0325,-0.7779,0.5874,-0.7375,2049
20,0.1704,-0.7666,0.0271,-0.7227,0.6409,-0.7256,2062
20,0.1326,-0.781,0.0718,-0.706,0.6906,-0.7383,2051
20,0.1194,-0.7427,0.0908,-0.6859,0.9017,-0.7194,2060
20,0.1338,-0.7197,0.0918,-0.6517,1.0804,-0.7188,2041
20,0.1736,-0.6194,0.0439,-0.455,1.0583,-0.5906,2050
20,0.0889,-0.8618,0.0869,-0.6529,1.482,-0.6573,2045
20,0.1536,-0.8262,0.0449,-0.4979,1.5326,-0.644,2067
20,0.1475,-0.8562,0.0601,-0.4829,1.6683,-0.6598,2048
20,0.1221,-0.8379,0.0583,-0.4227,1.7297,-0.6381,2057
20,0.1438,-0.769,0.0442,-0.3964,1.6303,-0.6003,2065
21,0.2231,-0.688,0.0522,-0.3891,1.5755,-0.5557,2040
21,0.2468,-0.6941,0.0759,-0.3828,1.4737,-0.5821,2074
21,0.2488,-0.7712,0.0684,-0.3966,1.3448,-0.5589,2043
21,0.2043,-0.7729,0.0591,-0.3072,1.2069,-0.6227,2034
21,0.2205,-0.7727,0.0557,-0.1313,1.0146,-0.4139,2054
21,0.2092,-0.8545,0.0232,-0.2477,1.2523,-0.4841,2039
21,0.137,-0.9465,0.0601,-0.1579,1.1955,-0.5094,2063
21,0.1025,-1.0549,0.0759,-0.2176,1.2378,-0.4694,2055
21,0.1167,-0.906,0.0833,-0.191,1.2232,-0.3858,2025
21,-0.0176,-1.0586,0.0884,-0.1575,1.2054,-0.3895,2063
21,0.0735,-0.8906,0.1111,-0.3321,1.4705,-0.3016,2071
21,0.1611,-0.9016,0.0959,-0.3872,1.4439,-0.2879,2033
21,0.2239,-0.8921,0.0825,-0.3971,1.2914,-0.2828,2065
21,0.2898,-0.9421,0.062,-0.4217,1.0871,-0.2791,1958
21,0.2664,-0.9763,0.0771,-0.4324,0.9344,-0.2951,2137
21,0.2952,-0.8738,0.0398,-0.3338,0.6209,-0.4231,1997
21,0.2214,-1.0828,0.0671,-0.2795,0.391,-0.2975,2032
21,0.2285,-1.0083,0.021,-0.5418,0.4223,-0.2971,1996
21,0.2227,-0.9497,0.0264,-0.5532,0.2354,-0.2613,2100
21,0.2239,-0.9976,-0.0068,-0.6063,0.1252,-0.127,2045
21,0.1545,-1.1538,-0.0203,-0.3549,-0.0792,0.0716,2040
21,0.0869,-1.3445,-0.03,-0.5477,0.0021,0.1338,2046
21,0.0325,-1.3474,-0.0535,-0.5054,0.0342,0.236,2019
21,0.075,-1.3701,-0.0593,-0.4956,0.1526,0.292,2078
21,0.0581,-1.3489,-0.0229,-0.5168,0.4032,0.2322,2032
21,-0.0288,-1.4014,0.0481,-0.5305,0.6409,0.1694,2013
21,-0.0764,-1.292,0.0601,-0.5975,0.8981,0.1148,2096
21,-0.1438,-1.1895,0.0925,-0.5171,1.1107,0.1027,2013
21,-0.1721,-1.1409,0.1323,-0.6521,1.4917,0.1606,2075
21,-0.1533,-1.0405,0.1848,-0.5923,1.8024,0.2228,2035
21,-0.0535,-1.0779,0.1819,-0.5992,1.9138,0.283,2064
21,0.0554,-1.0754,0.1819,-0.5982,1.9073,0.2738,2041
21,0.2249,-1.0352,0.1863,-0.5751,1.7108,0.1844,2047
21,0.3667,-0.9832,0.2097,-0.5612,1.252,0.1392,2044
21,0.3464,-0.9604,0.0979,-0.5119,1.0982,0.2799,2052
21,0.0557,-1.2439,0.0291,-0.4751,0.913,0.2147,2064
21,-0.0972,-1.1846,-0.1658,-0.4032,0.6056,0.0908,2054
21,-0.2659,-1.2017,-0.2639,-0.3723,0.6277,0.0566,2050
21,-0.3923,-1.2166,-0.3088,-0.3213,0.7569,0.0883,2038
21,-0.4517,-1.1418,-0.2781,-0.2257,0.9088,0.1848,2066
21,-0.3865,-1.0989,-0.2236,-0.1309,1.0825,0.284,2040
21,-0.3337,-1.0535,-0.1392,0.0016,1.2372,0.352,2043
21,-0.29,-1.0745,0.0112,0.0529,1.3227,0.4177,2053
21,-0.2031,-1.032,0.1384,0.237,1.3491,0.4311,2050
21,-0.0266,-0.9558,0.1819,0.0598,1.3162,0.4936,2048
21,-0.0002,-0.8875,0.1926,0.0131,1.2264,0.5215,2047
21,0.0078,-0.8455,0.167,-0.0197,1.0793,0.5473,2046
21,0.02,-0.803,0.1299,-0.0248,0.9469,0.559,2055
21,-0.0073,-0.8496,0.0972,-0.0676,0.908,0.5296,2052
21,-0.0054,-0.8352,-0.0054,0.0011,0.9096,0.5588,2024
21,-0.0132,-0.9236,0.0254,0.0808,0.8902,0.5494,2070
21,-0.0073,-0.8621,-0.032,0.0134,0.8497,0.4801,2047
21,-0.0217,-0.8411,-0.0359,0.0249,0.8891,0.4686,2045
21,-0.0288,-0.8269,-0.0798,0.0021,0.8821,0.4039,2050
21,-0.0012,-0.8252,-0.0886,0.0084,0.8708,0.3337,2052
21,0.03,-0.7996,-0.1013,-0.0031,0.804,0.2643,2046
21,0.0662,-0.8135,-0.1062,-0.0461,0.7574,0.2092,2066
21,0.104,-0.804,-0.1189,-0.1131,0.7146,0.157,2039
21,0.1016,-0.7542,-0.1282,-0.165,0.6372,0.0626,2062
21,0.1421,-0.7273,-0.1255,-0.1577,0.5878,-0.0085,2063
21,0.1719,-0.6848,-0.1492,-0.0916,0.5413,-0.0855,2043
21,0.2739,-0.7358,0.0444,-0.0419,0.408,-0.1599,2051
21,0.3804,-0.7722,0.0889,0.0565,0.1364,-0.3529,2045
21,0.4258,-0.6079,0.1062,0.172,0.253,-0.6112,2052
21,0.2876,-0.7415,0.0222,-0.1525,0.1638,-0.6795,2048
21,0.0181,-0.751,-0.0107,-0.1064,-0.0093,-0.6241,2059
21,-0.0098,-0.6985,-0.0574,-0.1282,0.3263,-0.5052,2008
21,-0.0742,-0.6826,-0.0117,0.0463,0.5062,-0.4381,2028
21,-0.0789,-0.7109,0.0945,0.1926,0.5304,-0.3958,2070
21,-0.0767,-0.7263,0.115,0.3401,0.5307,-0.3344,2052
21,-0.092,-0.7817,0.1558,0.5654,0.3959,-0.2819,2017
21,-0.0557,-0.844,0.1204,0.4983,0.3177,-0.291,2067
21,-0.0715,-0.8333,0.0684,0.4938,0.1976,-0.2605,2078
21,-0.1135,-0.845,-0.0337,0.4252,0.0198,-0.2187,2046
21,-0.1567,-0.8557,-0.0603,0.3271,-0.1093,-0.1502,2047
21,-0.1716,-0.8621,-0.0747,0.2894,-0.2016,0.0146,2060
21,-0.1345,-0.8499,-0.1064,0.1964,-0.3097,-0.0236,2059
21,-0.1272,-0.7563,-0.1643,0.2099,-0.295,0.0775,2068
21,-0.0068,-0.6296,-0.0762,0.3574,-0.4385,-0.0041,2070
21,0.2756,-0.6594,0.0571,0.5188,-0.6665,-0.1277,2034
21,0.3618,-0.813,0.0742,0.5032,-0.6616,-0.2181,2045
21,0.1953,-0.8525,0.0088,0.5055,-0.8939,-0.2257,2053
21,-0.0215,-0.8171,-0.002,0.4069,-1.1404,-0.1555,2040
21,-0.126,-0.8621,-0.0479,0.3083,-1.0405,-0.0017,2047
21,-0.0444,-0.8518,-0.0676,0.4107,-0.859,0.1256,2050
21,-0.0112,-1.1292,0.0378,0.4457,-0.7835,0.1306,2078
21,-0.0295,-1.2673,0.1096,0.3802,-0.6405,0.1441,2079
21,-0.0706,-1.1755,0.1636,0.2872,-0.5265,0.0907,2071
21,-0.1462,-0.9204,0.1934,0.2228,-0.2325,0.0501,1998
21,-0.2229,-0.9146,0.2136,0.0945,0.0928,0.104,2082
21,-0.2266,-1.2405,0.2092,-0.008,0.2826,0.1506,2042
21,-0.187,-1.5754,0.2256,0.0236,0.4044,0.231,2036
21,-0.3457,-2.0,0.3386,-0.2296,0.6291,0.0985,2092
21,-0.2417,-1.7617,0.3098,-0.446,0.7853,0.243,2034
21,-0.0913,-1.4014,0.3044,-0.6237,0.8347,0.4514,2059
21,0.124,-1.2195,0.2324,-0.8331,0.8044,0.6392,2067
21,0.1553,-1.0762,0.3,-0.6964,0.5729,0.757,2054
21,0.4849,-1.2178,0.2971,-0.5413,0.2199,0.6099,2037
21,0.4504,-1.3804,0.2732,-0.5802,-0.2546,0.4377,2044
21,0.2227,-1.2603,0.3064,-0.661,-0.7834,0.3879,2053
21,0.1868,-1.1917,0.3298,-0.7052,-1.2769,0.4603,2046
21,0.1433,-1.071,0.2231,-0.5915,-1.3617,0.4842,2041
22,0.1221,-1.0669,0.2405,-0.4662,-1.2635,0.5536,2044
22,0.2031,-1.0164,0.2451,-0.3247,-1.2491,0.5488,2051
22,0.2173,-0.9666,0.2617,-0.2266,-1.1734,0.5625,2042
22,0.2144,-0.8599,0.2407,-0.2104,-1.1027,0.5141,2075
22,0.2664,-0.7131,0.1975,-0.1708,-1.0598,0.5072,2043
22,0.1895,-0.7385,0.1902,-0.1814,-1.007,0.5642,2054
22,0.0806,-0.7666,0.1602,-0.129,-0.817,0.5171,2049
22,0.0222,-0.7832,0.0786,0.081,-0.6718,0.4364,2056
22,0.2917,-0.7566,0.0439,0.0212,-0.3992,0.4942,2047
22,0.2727,-0.7715,-0.0146,-0.0173,-0.1426,0.4369,2049
22,0.2688,-0.7771,-0.0422,-0.0847,-0.0401,0.3341,2053
22,0.2607,-0.759,-0.0786,-0.0839,0.0835,0.3682,2029
22,0.199,-0.7046,-0.0623,-0.1045,0.2487,0.3673,2052
22,0.1526,-0.7,0.0056,0.0871,0.3344,0.4325,2063
22,0.1616,-0.6675,0.0496,0.065,0.3779,0.5596,2047
