Timestamp,Ax,Ay,Az,Rx,Ry,Rz,EMG
0,0.1624,-0.9656,0.1255,-0.3292,0.6047,0.3107,2043
0,0.1624,-0.9585,0.092,-0.3406,0.649,0.3208,2173
0,0.0947,-1.0591,0.0044,-0.404,0.6544,0.3095,1996
0,-0.0161,-1.0032,-0.0754,-0.3365,0.6707,0.3779,2009
0,-0.1853,-1.022,-0.1431,-0.2109,0.5153,0.3824,2118
0,-0.1338,-0.905,-0.0369,-0.0732,0.3976,0.4193,2069
0,-0.2402,-1.0115,0.0337,-0.0236,0.2843,0.3235,2148
0,-0.0667,-1.0623,0.1538,-0.0192,0.2028,0.2647,2006
0,-0.1257,-1.0862,0.2817,-0.067,0.0815,0.2061,2085
0,-0.2581,-1.0327,0.168,-0.0708,0.1964,0.1895,2129
0,-0.0396,-0.9941,0.241,-0.0309,0.0858,0.2007,2074
0,0.0627,-0.9697,0.1987,-0.1144,0.172,0.231,2064
0,0.0754,-1.0408,0.2173,-0.1691,0.0016,0.1542,2035
0,-0.1726,-0.9561,-0.0022,-0.1557,0.1867,0.2048,2069
0,-0.1079,-0.947,-0.1675,-0.2007,0.2037,0.3057,2149
0,-0.0723,-0.9817,-0.0293,-0.3117,0.2368,0.3027,2081
0,0.1692,-1.104,0.1624,-0.4031,0.2089,0.2642,2066
0,0.1089,-1.083,-0.0183,-0.4333,0.4265,0.1967,1966
0,-0.0801,-0.969,0.0183,-0.1678,0.1477,0.2645,1954
0,0.0339,-1.0149,0.1226,-0.1583,0.124,0.3663,2144
0,0.1169,-0.9543,0.106,-0.2168,0.2248,0.4654,2029
0,-0.0371,-1.0378,0.2751,-0.2546,0.2687,0.5588,2047
0,-0.2046,-1.1558,0.0676,-0.2605,0.4791,0.436,2213
0,-0.1348,-1.0112,0.1506,-0.2597,0.4983,0.4057,1887
0,-0.2061,-1.0078,0.0801,-0.2839,0.5016,0.3904,2025
0,-0.1748,-0.9824,-0.0356,-0.3334,0.4762,0.3561,1997
0,-0.1716,-1.0112,-0.0129,-0.3462,0.3761,0.3272,2044
0,-0.1804,-1.0168,0.0149,-0.35,0.2573,0.2497,2112
0,-0.1929,-1.0,0.0242,-0.3614,0.1362,0.1831,2015
0,-0.1511,-0.9941,0.0393,-0.4095,0.1169,0.1555,2023
0,-0.1453,-1.012,0.0229,-0.4498,0.0357,0.119,2007
0,-0.1968,-1.0159,0.1086,-0.4837,0.0312,0.0811,2032
0,-0.2419,-1.0308,0.2009,-0.4273,-0.036,0.0545,2038
0,-0.1755,-1.0686,0.2446,-0.4251,-0.1607,-0.0044,2056
0,-0.1602,-1.0505,0.2432,-0.4291,-0.2545,-0.0201,2038
0,-0.0444,-1.0071,0.1711,-0.4534,-0.4287,-0.004,2038
0,-0.009,-1.0198,0.0979,-0.5044,-0.4362,-0.0039,2045
0,0.0679,-0.9587,-0.021,-0.5478,-0.512,-0.0077,2074
0,-0.0068,-1.0046,-0.1006,-0.5758,-0.4241,0.0061,2053
0,-0.0325,-1.0032,-0.1604,-0.5421,-0.171,0.0684,2043
0,-0.0229,-1.0437,-0.0229,-0.4376,-0.2221,0.0798,2039
0,-0.0925,-1.0576,-0.0916,-0.3968,-0.1013,0.0941,2049
0,-0.1289,-1.0437,0.0078,-0.3542,-0.1931,0.089,2029
0,-0.0623,-1.0815,0.0278,-0.3167,-0.1926,0.0819,2023
0,0.0403,-1.0581,-0.0269,-0.4295,-0.0188,0.1173,2041
0,-0.0671,-1.0234,-0.2139,-0.3512,0.1747,0.1388,2046
0,-0.1631,-0.978,-0.2495,-0.1892,0.2523,0.1911,2056
0,-0.2283,-1.0059,-0.2458,-0.1015,0.2029,0.1802,2039
0,-0.1079,-1.0491,-0.0828,-0.0272,0.0784,0.155,2046
0,-0.084,-1.0469,-0.0071,-0.065,0.1479,0.1063,2073
0,-0.1155,-1.0117,-0.0176,-0.0786,0.214,0.1043,2039
0,-0.1831,-1.0447,-0.0139,-0.0334,0.1876,0.0858,2082
0,-0.2434,-1.0288,-0.0232,0.0358,0.1137,0.0409,2064
0,-0.3293,-1.0496,0.0215,0.1348,-0.0289,-0.0611,1979
0,-0.3884,-1.0681,0.0752,0.3895,-0.141,-0.169,2161
0,-0.4082,-1.0867,0.1775,0.6136,-0.3663,-0.2077,2040
0,-0.334,-1.0596,0.168,0.7869,-0.6979,-0.1666,2019
0,-0.2759,-1.1777,0.4097,0.8144,-1.1982,-0.0228,2029
0,-0.1943,-1.1523,0.3972,0.549,-2.003,-0.5161,2008
0,-0.1504,-1.0513,0.2778,0.4798,-2.4181,-0.4952,1999
0,-0.4263,-1.3325,0.1792,0.557,-2.1623,-0.3785,2024
0,-0.4128,-1.3306,0.1697,0.5914,-1.135,0.1418,2111
0,-0.3208,-1.2029,0.1726,0.6751,-0.7443,0.6996,2122
0,-0.1018,-1.1575,0.1023,0.6008,-0.7958,0.3765,2130
0,0.2554,-0.8699,-0.0569,0.3369,-0.8488,-0.0803,2087
0,0.636,-0.7961,-0.3657,0.1991,-1.2621,-0.0972,1987
0,0.7161,-0.5791,-0.5056,-0.1056,-1.3798,-0.5078,2020
0,0.5181,-0.6836,-0.7864,-0.2491,-1.1182,-0.3828,2083
0,0.7205,-0.3708,-0.8152,-0.1716,-1.1733,-0.2872,1942
0,0.9836,0.0349,-0.8909,0.3935,-1.7342,0.2084,1970
0,1.2781,0.4939,-0.9622,1.7781,-3.9161,0.7194,2160
0,0.5952,-0.2625,-0.4238,2.2863,-4.3635,1.0587,2131
0,0.3213,-2.0,1.0815,-1.0881,-1.6648,-0.2882,2022
0,-1.4607,-1.8987,-1.0076,-2.8095,2.1732,-3.2042,1914
0,-2.0,-1.8306,-0.2678,0.3779,0.6191,1.1364,2043
0,-2.0,-1.3789,1.6238,1.1576,-0.8656,0.0684,2077
0,0.7634,-1.2419,1.0125,1.3258,0.6608,-0.2129,1850
0,1.9999,-1.0071,1.2207,0.9572,0.334,1.6596,2214
0,-0.3076,-1.1575,0.6531,-0.3896,2.3426,-0.0321,2179
0,-0.718,-0.8892,0.0388,0.2205,-0.1623,0.0794,2089
0,0.0188,-1.1907,-0.0188,0.1995,0.2216,0.2414,1766
0,-0.5208,-0.9316,-0.4644,0.2121,0.2029,0.2456,2179
0,-0.1499,-0.8933,-0.1907,0.4576,-0.3655,0.2109,2134
0,0.1179,-0.9465,0.0161,0.2727,0.0959,0.2954,2120
0,0.1323,-0.9409,0.02,0.0907,0.0999,0.0637,2018
0,0.1045,-1.0032,0.0837,0.1129,0.0727,0.0838,2052
0,-0.1169,-1.0044,0.0945,0.0393,0.0541,0.1193,2090
0,-0.084,-1.0237,0.1643,-0.0234,0.0286,0.1385,2081
0,0.0168,-1.031,0.2009,-0.057,0.0992,0.1432,1933
0,-0.0525,-1.0215,0.2344,-0.0756,0.1341,0.1256,1934
0,-0.1316,-1.0283,0.1934,-0.0666,0.1413,0.1072,2068
0,-0.1399,-1.0381,0.1326,0.0136,0.0655,0.0798,2085
0,-0.1233,-1.0098,0.072,0.0791,0.0312,0.057,2032
0,-0.0996,-0.9988,0.0522,0.1436,-0.0341,0.0558,2106
0,-0.0701,-1.009,0.0334,0.2059,-0.051,0.061,1922
0,-0.0649,-0.9963,0.0508,0.2325,-0.0455,0.066,2039
0,-0.0598,-0.9944,0.0676,0.2236,-0.0518,0.0703,1963
0,-0.0244,-0.99,0.0525,0.1959,0.008,0.0792,2090
0,-0.0432,-0.9744,0.0732,0.1927,0.0653,0.0762,2085
0,-0.0791,-0.9854,0.158,0.1539,0.0192,0.0778,2074
1,-0.063,-0.9919,0.2136,0.0832,0.0431,0.0743,2088
1,-0.0615,-1.0002,0.1892,0.0105,0.0606,0.0756,2134
1,-0.054,-0.9966,0.1919,-0.0641,0.0758,0.0711,2036
1,-0.0806,-1.0046,0.165,-0.0908,0.1518,0.0663,2061
1,-0.1331,-1.0095,0.1304,-0.1285,0.0989,0.071,2052
1,-0.0806,-0.9858,0.0562,-0.1558,0.0269,0.0578,2067
1,-0.0432,-0.9685,0.0259,-0.2139,0.0747,0.0421,2086
1,-0.0454,-0.9839,0.0544,-0.3436,0.0996,0.0301,2150
1,-0.0649,-0.9751,0.0439,-0.4428,0.1613,0.0067,2084
1,-0.1309,-0.9902,0.1277,-0.4303,0.1328,-0.01,2159
1,-0.175,-1.0459,0.2207,-0.3537,0.0606,-0.0393,2772
1,-0.1453,-1.0513,0.2178,-0.3112,0.014,-0.0574,1848
1,-0.1587,-1.0186,0.2065,-0.1848,0.0394,-0.088,1929
1,-0.082,-1.0593,0.3198,-0.2571,-0.027,-0.1004,1929
1,-0.0286,-1.03,0.1951,-0.3015,0.026,-0.0747,1847
1,-0.0715,-0.9995,0.0884,-0.2878,-0.0578,-0.0776,1967
1,-0.1206,-0.9873,0.1016,-0.2799,-0.0414,-0.1084,1980
1,-0.1033,-0.9929,0.1333,-0.2838,-0.069,-0.122,2164
1,-0.1055,-1.0315,0.0842,-0.3294,-0.1599,-0.1186,2042
1,-0.043,-1.0227,0.0732,-0.3641,-0.2133,-0.1266,2143
1,-0.0496,-1.0005,0.1187,-0.3587,-0.1615,-0.1293,2016
1,-0.0242,-0.9829,0.1428,-0.3452,-0.2081,-0.1206,2050
1,-0.0527,-1.0137,0.155,-0.3493,-0.2487,-0.14,2108
1,-0.0396,-0.9944,0.1255,-0.3265,-0.3017,-0.1274,2067
1,-0.0398,-0.9744,0.177,-0.3019,-0.3603,-0.1241,2050
1,-0.0627,-0.9951,0.1885,-0.3147,-0.4073,-0.1332,2043
1,-0.0854,-0.9529,0.1157,-0.1859,-0.163,-0.098,2020
1,-0.0696,-0.9648,0.0569,-0.1559,-0.0499,-0.1308,2043
1,-0.0288,-1.0024,0.0247,-0.2804,-0.01,-0.129,2043
1,-0.0244,-1.0327,-0.0574,-0.2795,-0.0683,-0.0908,2042
1,-0.0107,-1.0125,-0.0742,-0.2225,-0.0031,-0.0563,2047
1,-0.0176,-0.99,-0.1016,-0.198,-0.006,-0.0358,2077
1,-0.0183,-0.991,-0.1101,-0.1665,0.0288,-0.0221,2044
1,0.0066,-1.02,-0.0417,-0.1814,0.1032,0.0194,2049
1,0.071,-0.9883,0.0269,-0.1324,0.1454,0.0509,2106
1,0.0679,-1.0452,0.0627,-0.12,0.2087,0.0798,2040
1,0.0508,-1.0283,0.072,-0.1278,0.2397,0.081,2054
1,-0.0232,-1.0386,0.0537,-0.1938,0.2605,0.1164,2040
1,-0.0559,-1.0461,0.0183,-0.1918,0.2216,0.1312,2047
1,-0.1389,-1.0488,-0.062,-0.1858,0.1437,0.1132,2048
1,-0.1479,-1.0212,-0.0356,-0.163,-0.0077,0.1005,2061
1,-0.1135,-1.0105,-0.0984,-0.1526,-0.0388,0.1198,1939
1,-0.0999,-1.0095,-0.207,-0.1487,0.0538,0.0728,1980
1,-0.062,-0.9873,-0.1877,-0.0365,0.1204,0.0455,2054
1,-0.032,-0.9731,-0.0774,-0.0049,0.2346,0.0824,2032
1,-0.094,-0.9893,0.0334,0.0503,0.1129,0.0746,2071
1,-0.0386,-1.0271,0.1106,0.0527,0.1088,0.0109,2079
1,-0.104,-1.0449,0.073,-0.012,0.1048,-0.0036,2079
1,-0.0752,-1.0349,0.0713,0.0237,0.0399,0.0137,1978
1,-0.0815,-1.0229,0.0054,0.0016,0.0746,0.0021,2078
1,-0.0845,-0.9824,-0.0166,-0.0113,0.0385,-0.0136,2054
1,-0.0332,-1.0098,0.0325,-0.0647,0.0601,-0.0296,1977
1,-0.1138,-1.0042,0.0027,-0.0392,0.0782,-0.039,2027
1,-0.1538,-1.0039,0.0186,0.0201,0.0218,-0.0149,2032
1,-0.0833,-1.0239,0.0762,-0.027,-0.0017,-0.0594,2110
1,-0.1316,-1.0125,-0.0044,-0.0301,0.0372,-0.1113,2066
1,-0.2202,-1.033,0.0237,0.0065,-0.0731,-0.1546,2185
1,-0.1965,-1.0701,0.0891,0.0658,-0.0734,-0.1264,2122
1,-0.1838,-1.0532,0.1606,0.0471,-0.1651,-0.1491,2094
1,-0.1057,-1.0376,0.1516,0.0774,-0.243,-0.192,2045
1,-0.0933,-0.9937,0.1797,0.0514,-0.2888,-0.3011,2052
1,-0.0371,-1.0149,0.1714,-0.0036,-0.345,-0.2738,2044
1,-0.0442,-1.0317,0.124,-0.0474,-0.3035,-0.238,2064
1,-0.1733,-1.0066,0.0964,-0.0481,-0.3049,-0.2233,2166
1,-0.2192,-1.0374,0.0601,0.0125,-0.349,-0.1828,1948
1,-0.1045,-1.0911,0.0112,0.136,-0.4091,-0.1108,2064
1,-0.0825,-1.082,-0.0225,0.1758,-0.3928,-0.0904,2046
1,-0.0825,-1.0115,-0.0452,0.1662,-0.4089,-0.0509,2003
1,-0.1707,-0.9983,-0.0476,0.2366,-0.4425,-0.0176,2045
1,-0.1113,-1.0234,-0.0815,0.3207,-0.4255,-0.0112,2074
1,-0.0085,-1.0146,-0.115,0.3816,-0.3814,-0.0631,2050
1,-0.0955,-1.0137,-0.0327,0.483,-0.2305,0.0166,2046
1,-0.2991,-1.0454,0.0254,0.4627,0.174,-0.0461,2047
1,-0.2317,-1.0261,0.0325,0.4164,0.7106,-0.1766,1984
1,0.0115,-0.991,-0.0264,0.3567,0.5558,-0.1121,2056
1,0.1833,-1.0217,0.0217,0.3377,0.3224,-0.1109,2117
1,0.0281,-0.9583,0.1082,0.2551,0.4141,-0.183,2066
1,-0.0862,-0.9695,0.1555,0.2155,0.4112,-0.1384,2056
1,-0.1355,-0.9575,0.1047,0.2308,0.3814,-0.1336,2109
1,-0.0356,-0.9839,0.1384,0.2695,0.4141,-0.032,2045
1,-0.0234,-1.0339,0.0046,0.2147,0.2252,-0.0896,2067
1,-0.0361,-1.0063,-0.0417,0.2408,0.0538,-0.2421,2081
1,0.144,-0.8972,-0.0752,0.2404,-0.1388,-0.3401,2056
1,0.3401,-0.8159,-0.0986,0.3559,-0.1987,-0.2241,1999
1,0.3638,-0.7688,-0.0474,0.4072,-0.2694,-0.1418,2065
1,0.2625,-0.866,0.0017,0.4346,-0.1952,-0.0851,2164
1,0.1182,-1.0684,0.0723,0.4247,-0.1752,-0.0629,2071
1,-0.0952,-1.3015,0.031,0.5522,-0.233,-0.0342,2063
1,-0.0586,-1.2815,0.0525,0.5896,-0.0587,-0.1232,2063
1,0.1367,-1.0149,-0.0327,0.6968,0.3305,-0.1601,2054
1,0.3901,-0.9851,-0.0085,0.7478,0.8656,-0.0894,2051
1,0.4053,-0.9263,0.0352,0.7417,1.1603,0.047,2109
1,0.5032,-0.9221,-0.0308,0.6649,1.3098,-0.0253,2037
1,0.6423,-0.9717,-0.053,0.5976,1.6608,0.0184,2054
1,0.355,-0.9644,-0.0168,0.6521,2.1086,0.2349,2054
1,0.2358,-0.8145,0.0398,0.866,2.5328,0.7279,2034
1,0.2334,-1.0422,0.1196,0.817,3.0248,1.3723,1840
1,0.8518,-1.3254,0.2437,0.699,2.7698,1.5643,2087
1,0.9841,-1.4011,-0.1523,1.7105,1.226,2.7482,3315
1,0.6194,-2.0,0.1179,1.5902,1.1828,3.5009,2248
1,0.1494,-1.5125,-0.1731,1.0645,1.4143,2.6291,1590
1,-0.8577,-1.8179,-0.387,0.4733,-0.8027,2.1137,1696
1,-1.8462,-0.9058,0.1104,0.1242,-1.2207,1.3639,1661
2,-2.0,-0.8735,1.5183,0.347,0.2618,0.5228,1676
2,-2.0,-1.1602,1.9999,1.1788,1.3548,0.3196,2054
2,-1.6313,-1.4077,1.0515,0.6713,2.8446,-0.4039,2032
2,-1.771,-1.5322,1.3989,0.6076,2.7087,-1.3873,2001
2,-2.0,-0.7869,1.2725,-0.1269,4.3634,-2.372,2512
2,-0.9814,-0.9526,0.7769,-0.3796,4.3634,-3.5874,1913
2,1.0276,-0.5852,0.7329,-0.7135,4.3634,-4.027,2176
2,0.0122,-0.5574,1.9999,2.183,3.3903,-3.1536,2250
2,-0.7185,-0.9607,1.7166,-1.6414,2.0505,-2.5506,1377
2,-1.0959,-2.0,1.6055,-3.1432,-0.9445,-4.3635,2045
2,1.9999,1.9999,-0.6753,-2.6689,3.1427,-4.0783,2332
2,1.9999,-0.6453,0.094,0.2735,0.0324,-2.9376,2700
2,-2.0,-0.9734,1.042,0.5875,-4.0939,0.8191,2073
2,-2.0,-0.9753,-0.605,-1.5316,-4.3635,0.5493,1750
2,1.9999,0.9688,-1.7151,-0.1987,-2.0711,-2.1397,2300
2,1.9999,-0.2297,1.134,-1.1669,1.6592,-1.8217,1984
2,-0.5266,-0.0083,-1.7661,-0.8857,-3.7587,-1.0863,2064
2,-0.7393,0.7625,-1.4629,0.1321,-3.1538,-0.5888,2088
2,-1.0042,0.0361,0.1072,-0.3404,-2.535,-0.6625,1908
2,0.0625,0.2864,0.115,-0.9515,-2.329,-0.9585,1988
2,1.1177,0.0852,-1.2205,-1.0159,-0.9646,-0.6669,2126
2,1.4551,-0.5928,-1.1863,-0.4529,-0.9581,-0.2697,2008
2,1.1606,-0.062,-0.8022,0.3168,-2.5225,0.3593,1957
2,0.6787,-0.3025,-0.7979,1.2018,-4.3635,1.3873,2205
2,1.9999,0.5745,-2.0,4.3634,-4.3635,4.3634,2226
2,-2.0,-2.0,1.9999,1.7157,0.8024,-2.0443,1721
2,-2.0,0.9429,1.5083,0.6632,-0.8702,0.6485,2326
2,-1.3057,-0.8777,0.1499,2.0399,2.7855,3.9155,1577
2,1.636,-2.0,-0.9155,-0.161,4.3634,2.5257,2482
2,-2.0,0.1121,-2.0,1.3798,-3.2886,-4.3635,1865
2,-1.7446,-2.0,1.9999,-2.4093,4.3634,-1.4677,2178
2,0.7024,-0.5234,0.6799,0.7838,2.4208,0.6725,2345
2,1.4402,0.5608,1.9999,1.5515,-3.2965,4.3634,2012
2,-2.0,-2.0,1.9841,-1.5448,0.6052,-3.3709,2138
2,-0.3455,-0.5366,0.812,-0.6642,-1.0838,0.0989,1783
2,1.4937,-0.9463,0.5781,-0.9744,-0.7941,0.2465,2374
2,0.6912,-0.9473,-0.1169,-0.5526,-0.1619,0.4305,2062
2,-0.3066,-1.0542,-0.791,-0.3761,-0.9749,0.709,1724
2,-0.6282,-0.8958,-0.8499,-0.2044,0.1019,0.4135,2160
2,-0.5486,-1.0598,-0.6245,-0.124,0.1657,0.2694,2035
2,-0.6245,-1.0471,-0.3081,0.0269,-0.2045,0.1385,2022
2,0.115,-1.0181,0.3657,-0.1646,0.4687,0.0784,2141
2,0.0605,-0.9468,0.4348,-0.2719,0.8517,-0.1627,2085
2,0.3479,-1.041,0.3027,-0.4377,0.267,-0.0099,2060
2,0.4084,-1.0752,0.2004,-0.5328,0.0358,0.175,2052
2,0.2847,-0.9971,-0.0007,-0.4307,0.0764,0.2896,2029
2,-0.0483,-1.0374,-0.0557,-0.3232,0.1113,0.2868,2055
2,-0.1702,-1.0322,-0.0813,-0.3031,0.3366,0.2935,2062
2,0.0056,-1.042,-0.116,-0.1816,0.3883,0.275,2082
2,0.1455,-0.9668,-0.0007,-0.0001,0.6449,0.3017,2053
2,-0.0698,-0.9775,0.053,0.1561,0.7494,0.287,1664
2,-0.0293,-1.0637,0.2559,0.2566,0.6056,0.3052,2084
2,-0.2539,-0.9924,0.2388,0.2491,0.4039,0.3207,2067
2,-0.1128,-1.0037,0.2131,0.2246,0.2767,0.2589,2066
2,0.0261,-0.9861,0.0549,0.1963,0.1662,0.2485,2034
2,-0.1609,-0.9912,-0.0889,0.2442,-0.1157,0.1956,2031
2,-0.2451,-1.0586,-0.1399,0.2678,-0.1226,0.1457,2048
2,-0.4255,-1.0486,-0.0798,0.3015,-0.1449,0.0694,2050
2,-0.3831,-1.0452,-0.0403,0.3056,-0.1715,-0.0411,2047
2,-0.2937,-1.0486,0.0786,0.2754,-0.2569,-0.1491,2004
2,-0.2778,-0.9883,0.2273,0.1519,-0.3281,-0.2266,2088
2,-0.1304,-1.0042,0.1191,0.1011,-0.2409,-0.2711,2006
2,-0.2449,-1.021,0.1436,0.0266,-0.2517,-0.2983,2086
2,-0.5359,-1.0686,0.0288,-0.0606,-0.3353,-0.3539,2010
2,-0.1443,-1.0327,-0.0898,0.0193,-0.3711,-0.4252,1982
2,-0.043,-1.011,0.0161,0.0787,-0.226,-0.4759,2042
2,-0.1633,-1.0183,0.0359,0.1779,-0.1164,-0.5484,1944
2,-0.0249,-1.0244,0.1025,0.2473,-0.1758,-0.612,2067
2,0.0327,-1.0129,-0.0366,0.3316,-0.4014,-0.5963,2193
2,0.1296,-0.9919,0.0054,0.4509,-0.342,-0.5679,1969
2,0.0718,-0.8621,0.1599,0.526,-0.3244,-0.5332,1964
2,0.124,-0.9285,0.1199,0.4653,-0.4964,-0.4715,2085
2,0.5452,-0.8784,-0.053,0.5165,-0.1715,-0.384,2068
2,0.4795,-0.9453,-0.0188,0.539,0.2758,-0.237,2110
2,0.2544,-0.9741,0.0127,0.4936,0.5332,-0.1136,2107
2,0.2253,-0.9878,0.2129,0.5851,0.5771,-0.0578,2180
2,0.3035,-0.9963,0.1611,0.5685,0.8038,0.0533,2033
2,0.2891,-0.9766,0.0867,0.6526,0.9203,0.1896,2083
2,0.2593,-0.9336,0.0266,0.7453,0.991,0.3252,2131
2,0.2642,-0.8965,-0.0083,0.8706,0.9166,0.5086,1994
2,0.2722,-0.9536,0.0466,0.9777,0.716,0.7465,2081
2,0.3723,-0.9463,0.0896,1.2163,0.4786,1.0712,2153
2,0.3362,-1.0164,0.1116,1.4631,0.2345,1.6819,2017
2,0.2039,-1.3679,0.1067,1.3689,-0.1284,2.5818,2104
2,0.0891,-1.4558,0.0818,1.2387,-0.0137,2.8348,1687
2,0.3652,-1.6545,-0.064,1.0709,0.232,2.6413,2566
2,-0.2483,-1.8616,0.1323,0.6894,0.3855,2.2819,2142
2,-0.0991,-1.9258,0.1292,1.1144,-0.3871,2.6417,1728
2,-0.2468,-1.3706,0.0527,0.6078,0.239,2.3961,2063
2,-0.7505,-1.8506,0.2542,0.3539,1.1379,0.7493,2001
2,0.2527,-2.0,-0.0503,-0.8889,2.8195,-0.5767,2126
2,1.8359,-1.2297,-0.6631,-1.4342,3.5786,-1.1199,1821
2,0.8955,-0.8745,-1.1501,-2.8915,1.0942,1.2472,2156
2,-2.0,1.9999,1.9999,0.1514,-4.3635,-3.6841,1851
2,-2.0,-2.0,1.9999,2.9385,4.3634,0.8773,1831
2,1.9999,-2.0,-2.0,-1.7665,3.423,0.2228,1946
2,-1.2507,-1.1375,0.2571,0.0754,2.6188,-1.1563,2241
2,-2.0,-0.1672,1.0635,-0.49,4.3634,-2.7231,2293
2,0.5833,-0.7905,1.4824,0.8778,4.3634,-1.333,2525
2,-1.0286,-0.8799,1.9999,-0.5141,4.3634,-1.5195,1865
2,-0.4656,0.5769,-1.1003,-1.2172,4.3634,-1.9208,1687
2,1.1333,-1.0693,0.2722,0.5659,4.3634,-3.4966,2368
3,0.1782,-0.4253,0.5247,-1.0661,1.9929,-2.1498,2084
3,0.1572,-1.2402,-0.0515,-2.4003,-2.6168,-2.871,2180
3,0.1499,0.2485,-0.1736,-0.7773,0.6408,-1.7235,2222
3,1.2925,-0.8042,-0.5886,0.1353,-1.3705,-0.6325,2164
3,0.0088,-1.0071,-0.2686,-0.4629,-1.6961,-0.5865,2062
3,-0.1274,-0.4619,-0.1494,-0.4886,-1.5231,-0.9654,2073
3,0.2185,-0.9956,-0.0681,-0.5084,-2.2723,-0.9773,2169
3,0.0046,-0.3184,-0.093,-0.647,-1.7325,-0.5655,2054
3,0.186,-0.9231,1.9999,0.6265,-1.9094,-1.348,1983
3,1.9999,-2.0,1.9999,-4.3635,-3.7137,-4.3635,876
3,-1.6687,-0.667,1.9999,1.2386,-1.1059,0.0028,2940
3,-2.0,0.4312,1.9999,2.5717,-4.3635,0.2304,2970
3,-1.0933,1.9999,-2.0,-0.7874,-4.3635,4.3634,1696
3,1.9999,0.9736,-2.0,4.3634,4.3634,-4.3635,2031
3,1.9999,-2.0,1.9999,-2.2365,-1.8287,-4.3635,2242
3,0.9285,1.9999,0.6792,-1.7844,-4.3635,-0.2314,1957
3,-1.4131,1.7346,-2.0,-0.0605,-4.3635,0.015,1999
3,0.0911,0.9651,-1.1069,2.6244,-4.3635,0.8942,2157
3,0.3691,0.1204,1.3335,1.5653,-4.3635,1.3296,1984
3,-0.1172,0.2134,-0.1445,0.1133,-4.3635,0.762,1861
3,-1.7632,-0.355,-1.4268,1.5893,-4.3635,0.7713,2068
3,-2.0,-2.0,-2.0,3.9583,-1.3119,0.6032,2090
3,-2.0,-2.0,0.0659,2.9272,4.3634,-1.1856,2160
3,-0.3806,-1.2703,-0.3352,0.2665,3.6423,0.5655,1974
3,-0.4243,-2.0,-0.5244,-0.1104,2.2834,2.8806,1960
3,1.9999,-2.0,1.3484,-3.0267,1.0437,3.2066,2152
3,-2.0,-2.0,1.4802,-4.3635,4.3634,0.0117,2220
3,-0.2639,1.9353,1.9999,0.9986,3.7062,4.3634,1372
3,-0.6333,1.0808,1.9999,0.5952,-2.3702,-0.3675,2344
3,-0.2292,-1.4194,1.9999,2.0928,-1.8241,-4.3635,2080
3,1.5408,-2.0,1.9999,-0.862,0.438,3.3355,2246
3,1.5579,-1.9211,-1.0425,-3.4416,-2.3947,0.2189,1910
3,-1.853,1.4666,-0.4043,-1.6187,-2.5762,0.0414,1645
3,0.5784,-0.4385,-2.0,-0.4406,-4.3635,2.3975,2268
3,-0.2158,-1.1072,-0.8938,-0.6288,-2.8323,0.273,2026
3,-1.0427,-1.4062,-0.9683,-0.6875,-1.061,-0.1152,2091
3,-0.2566,-1.252,-0.1953,-0.0059,-0.2406,0.0883,2048
3,0.4448,-0.928,0.6194,0.4019,0.0835,-0.1202,2016
3,0.4536,-0.8076,0.6782,0.5247,0.0505,-0.3639,2053
3,0.7834,-1.2708,0.2134,0.0818,0.0296,0.0241,2052
3,0.5034,-1.4075,-0.0811,-0.3385,-0.0915,0.3019,2058
3,0.4075,-0.9465,-0.0469,-0.2546,0.134,0.5494,2035
3,0.0217,-0.9128,-0.272,-0.106,0.5659,0.6275,2026
3,-0.2529,-1.0618,-0.4585,0.2507,0.5621,0.3534,2064
3,-0.3508,-1.0415,-0.5969,0.4809,0.5702,0.0683,2064
3,-0.6262,-0.9663,-0.5054,0.5794,0.4858,-0.1593,2292
3,-0.512,-1.0266,-0.5283,0.911,0.5766,-0.1226,2090
3,-0.1414,-1.0498,-0.0276,1.1812,0.9741,-0.0676,2066
3,0.5674,-0.9902,0.1807,0.9606,0.5151,0.237,2032
3,1.0593,-0.9973,-0.0293,0.7897,-0.9332,0.708,2053
3,0.5989,-1.0635,0.0662,0.7285,-1.0375,0.3256,2075
3,-0.2688,-1.0249,0.1213,0.5052,-0.1301,-0.0406,2486
3,-0.7112,-0.9475,-0.3586,0.8586,0.8492,-0.1059,1991
3,-0.4661,-1.0471,0.1167,1.0127,1.5199,-0.2771,2086
3,0.1663,-0.801,0.1067,0.9042,2.3997,-0.3112,1902
3,0.3423,-1.0823,0.1316,0.8283,1.9475,-0.1362,2085
3,0.209,-0.9956,-0.0198,0.5317,1.1813,-0.0035,2127
3,-0.7346,-0.9468,0.3679,0.5669,1.0283,0.0101,2087
3,-0.1465,-1.0012,0.0447,0.4643,1.1786,-0.1758,1962
3,-0.1196,-0.9688,0.2524,0.5983,1.1734,-0.173,2229
3,0.0288,-1.0049,0.301,0.5573,0.8827,-0.2123,1977
3,0.0034,-1.1353,0.2173,0.7416,0.4416,-0.1816,2045
3,-0.3884,-1.032,0.3459,0.7221,0.0744,-0.1752,2076
3,-0.4395,-1.0586,0.3521,0.6243,0.0457,-0.348,2012
3,-0.2219,-1.0081,0.2871,0.4718,0.3539,-0.5011,2043
3,-0.0803,-0.9226,0.2659,0.4626,0.2703,-0.5932,2137
3,-0.1013,-0.9624,0.1853,0.5031,0.0262,-0.6878,2016
3,-0.2402,-1.0291,0.3911,0.4486,-0.2401,-0.7529,2078
3,-0.272,-1.175,0.3279,0.2349,-0.4264,-0.7574,2127
3,-0.0576,-1.1372,0.2737,0.147,-0.4148,-0.685,2019
3,0.1658,-1.0205,0.2378,0.2358,-0.2522,-0.6229,2124
3,0.4492,-1.0208,0.168,0.2822,-0.3057,-0.4275,2053
3,0.2588,-1.1245,-0.1116,0.2165,0.5175,-0.4779,2038
3,0.04,-0.8999,-0.064,0.4394,0.9568,-0.6738,2050
3,0.1047,-0.5813,0.2019,0.2141,1.3492,-0.632,1934
3,0.8176,-0.606,0.106,0.1558,1.521,-0.4259,2086
3,1.0156,-0.6255,0.1824,0.2116,1.4836,-0.2237,2141
3,1.0571,-0.6077,0.262,0.2565,1.4759,0.0244,1998
3,1.0134,-0.5959,0.1855,0.4577,1.2497,0.289,2056
3,0.8149,-0.7422,0.2891,0.5217,1.1668,0.5018,2021
3,0.4385,-0.8103,0.2915,0.5273,1.1718,0.6846,2147
3,0.2375,-1.51,0.3586,0.595,1.1661,0.7891,2114
3,-0.1079,-0.7671,1.0952,0.8582,1.5029,0.9047,2019
3,0.3926,-1.113,0.5576,0.5299,1.0798,1.1639,2056
3,0.6194,-1.1931,0.4834,0.8253,0.7815,1.5087,2039
3,0.2939,-1.1458,0.325,0.9094,-0.3678,2.0498,2189
3,0.011,-0.9531,0.2966,0.8738,-0.136,2.1017,1921
3,0.2144,-1.1304,0.3735,0.7662,-0.3396,1.9546,2405
3,0.1655,-1.1936,0.1731,0.5963,-0.4281,1.5575,2026
3,-0.1287,-1.3176,0.135,0.512,-0.4402,1.1417,1855
3,-0.5046,-1.2522,0.0571,0.3634,-0.3942,0.7645,1979
3,-1.1221,-0.854,-0.123,0.3726,0.5144,0.3192,1844
3,-0.9553,-0.8447,0.082,0.44,1.1328,-0.0577,1985
3,-0.9399,-0.8608,0.2544,0.3966,2.4495,-0.3506,2116
3,-0.1208,-0.6511,0.5234,0.5512,3.2363,-0.3982,2141
3,0.5391,-0.8342,1.1934,0.5116,3.8656,-0.42,2069
3,0.2502,-1.0603,0.8984,0.1449,3.7744,-0.5145,2045
3,0.6528,-0.9731,0.4026,-0.1081,3.1613,-0.3956,2074
3,1.2014,-1.1411,0.5054,-0.0276,3.2901,-0.626,2040
3,0.8105,-1.6875,0.5679,-0.2868,2.6742,-0.7269,1980
3,0.5671,-0.8774,0.126,-0.4591,1.9006,-0.9124,2206
4,0.7861,-1.5488,-0.1855,-0.1828,1.5519,-0.8613,2084
4,0.0979,-1.1846,-0.4124,-0.2659,1.2849,-1.1639,2256
4,-0.1062,-1.3752,-0.3438,-0.1939,0.9127,-1.3255,2088
4,0.1665,-1.4185,-0.5063,0.1342,1.0164,-1.7976,1825
4,0.4778,-1.6357,-0.4282,-0.0638,1.6559,-2.2202,2112
4,-0.0332,-2.0,-0.1335,-0.8771,3.1168,-3.9374,2012
4,1.9999,1.9999,-1.8438,0.4233,-0.3361,-1.8803,1896
4,-2.0,-0.6663,1.9999,4.3634,-4.3635,1.233,2621
4,-1.1489,-2.0,1.9999,-4.0683,1.4488,-0.3191,1185
4,1.9999,-2.0,-2.0,-0.0902,3.3809,-0.5829,2655
4,-2.0,-2.0,1.9999,-1.5817,2.3389,-1.2874,2494
4,-0.5063,1.9999,-2.0,-0.383,4.3634,-2.4172,1855
4,-1.9021,-2.0,1.9999,0.8142,3.3766,-0.6493,2336
4,1.9999,-1.3218,-1.6687,-2.8994,4.1054,-0.8424,1780
4,1.9999,-0.5613,1.6218,0.1337,-1.693,-2.8296,2340
4,-1.9292,-0.5747,-0.4939,-1.313,-2.3035,-2.4479,1905
4,-1.3767,-0.2295,-0.8408,0.0506,-1.8893,-0.1474,2206
4,1.6304,-1.8328,1.1973,-1.1091,-2.5773,0.5461,2319
4,1.9265,-2.0,1.114,-4.3635,4.3634,-3.3369,1700
4,1.9999,-1.2668,-2.0,1.2788,-4.3635,-1.4157,2303
4,-2.0,-0.8931,1.9999,0.4255,-4.3635,-0.7998,2371
4,-2.0,-1.6667,-0.3569,-4.3635,-4.3635,3.0423,2178
4,1.9999,-1.3191,-1.9309,0.3879,0.8533,-1.1163,2704
4,1.9999,-2.0,1.0901,-4.3265,-0.6919,-4.3635,1218
4,-1.6035,1.4109,-0.2378,-2.8079,-2.4332,-3.595,1753
4,-2.0,1.7881,-0.0674,-1.7432,-3.909,-2.4312,2396
4,-0.2993,-0.9734,0.1042,-1.8535,-1.5519,2.0612,2107
4,-2.0,-0.626,-0.7002,-1.1326,2.3507,-2.5759,2505
4,0.6064,1.2827,-0.0225,-1.0184,-0.5197,-2.9458,1603
4,1.1494,0.4246,-0.0527,-0.7727,0.7766,-0.9596,2154
4,-0.0542,0.3713,0.311,-0.6741,-0.7999,-1.0456,2071
4,1.9999,1.2834,-0.4109,-2.5362,3.0905,-2.1,2005
4,1.208,0.7729,-0.9233,0.2476,-2.0454,-0.0577,2204
4,0.624,-0.5088,0.2515,0.5825,-2.5646,1.0998,2151
4,-0.2773,-0.4409,0.1562,0.3948,-4.0831,2.2411,2085
4,-0.3206,-0.0989,0.23,1.6536,-3.0783,2.6783,2075
4,-0.1648,-1.0217,0.4355,1.5455,-2.8245,3.9119,2021
4,0.001,-0.595,-0.4673,2.75,-4.3635,4.3634,2146
4,-0.188,-1.4148,-0.1067,2.1704,-2.3812,3.5195,1887
4,-1.5068,-2.0,0.2329,1.7122,-1.6338,1.5536,2015
4,-1.0032,-1.3506,0.1392,1.4367,-0.392,0.6411,1967
4,-0.8044,-2.0,-0.634,1.2742,1.7772,2.3722,2048
4,1.2859,-2.0,-0.5176,0.1127,0.1185,-0.0923,1853
4,1.9999,-2.0,1.1016,0.1835,1.6306,-1.3577,2360
4,0.2686,-0.8735,0.1025,0.7292,-1.5093,0.4627,2019
4,-1.9016,-1.1221,1.6711,-1.01,-0.2282,3.0389,2106
4,-0.5933,-0.7722,-0.0676,1.0686,-1.4551,3.3448,1854
4,0.48,-2.0,0.8025,0.2289,-1.1904,0.3642,2552
4,-1.6492,-2.0,0.8125,0.2979,-0.8893,-0.4255,1950
4,-1.3647,-1.7461,0.5378,-0.1389,1.3627,0.2484,2299
4,0.9656,-0.9805,0.2827,0.1609,1.2993,-0.1136,1938
4,1.2136,-0.7913,-0.0959,-0.0503,0.8879,0.3394,2072
4,0.4517,-0.6621,-0.0505,-0.0388,0.0462,0.865,2074
4,0.0784,-0.6685,-0.3853,0.1072,-0.0198,0.7618,1953
4,0.144,-1.1035,-0.54,0.2743,0.002,0.601,2090
4,-0.031,-1.3369,-0.304,0.2583,0.7698,0.5438,2251
4,-0.0574,-1.0327,-0.2695,0.2637,1.2268,0.7363,1903
4,0.1018,-1.009,-0.0049,0.3903,1.2472,0.8682,2028
4,0.1367,-1.1057,0.1255,0.3156,0.857,0.7641,2268
4,-0.0156,-1.0112,0.0522,0.4412,0.5329,0.6984,2121
4,-0.5508,-1.0093,0.2805,0.2727,0.8769,0.486,2076
4,0.0322,-0.908,-0.2058,0.2334,1.8776,0.4789,2124
4,0.1526,-0.998,0.1589,0.2661,1.2683,0.3715,1976
4,-0.1448,-0.8887,0.2632,0.1465,1.4976,0.2661,2079
4,-0.2568,-0.9875,0.0312,0.026,0.8951,0.2758,2063
4,0.1719,-0.9255,0.1868,0.1535,0.8304,0.3943,2084
4,-0.0103,-0.9111,0.1787,0.1317,1.0673,0.2695,2086
4,0.0095,-0.9824,0.0793,0.1822,0.8862,0.3416,2088
4,-0.2297,-1.0024,0.085,0.1855,0.8487,0.3629,2080
4,-0.144,-0.9807,0.1458,0.1617,0.7532,0.3775,2087
4,-0.1997,-0.979,0.1277,0.0314,0.6348,0.3502,2060
4,-0.1912,-1.0264,0.0532,-0.0097,0.4916,0.2911,2179
4,-0.1167,-0.9971,0.0186,0.2155,0.3204,0.2984,2089
4,-0.2881,-0.9709,0.0693,0.3583,0.0041,0.3337,2105
4,-0.4768,-1.0271,0.1653,0.4224,-0.1595,0.2994,1988
4,-0.2036,-1.0437,0.2258,0.3524,0.036,0.2388,2025
4,-0.3074,-0.9587,0.176,0.3188,-0.0527,0.1569,2000
4,-0.217,-1.0244,0.3069,0.2665,-0.2047,0.0915,1878
4,-0.0894,-0.9753,0.2354,0.2229,-0.1445,0.0316,2030
4,-0.175,-0.9758,0.1921,0.2416,-0.206,-0.0481,2036
4,-0.2676,-1.0701,0.1787,0.2364,-0.3192,-0.0987,2065
4,-0.1465,-1.0,0.0366,0.2742,-0.1289,-0.1643,2063
4,-0.2593,-0.9622,-0.04,0.2819,-0.1366,-0.1791,2048
4,-0.2832,-1.0251,-0.0183,0.276,-0.1148,-0.1991,2090
4,-0.1746,-0.9946,0.0955,0.3133,-0.0565,-0.2495,2011
4,-0.1006,-0.9714,0.2173,0.3091,-0.1147,-0.3019,2063
4,-0.0774,-0.9875,0.251,0.2694,-0.318,-0.3236,1927
4,-0.0225,-0.9822,0.2671,0.2417,-0.3739,-0.331,2087
4,-0.0857,-1.0146,0.2747,0.2402,-0.4364,-0.3534,2058
4,-0.0911,-1.0146,0.2034,0.2116,-0.4458,-0.353,2079
4,0.0093,-0.8716,0.0435,0.178,-0.4368,-0.275,2026
4,0.4346,-0.855,-0.1084,0.1682,-0.1353,-0.1284,2015
4,0.6277,-0.8262,-0.2329,0.3083,0.1281,0.0581,2042
4,0.4949,-0.8218,-0.2278,0.4655,0.3079,0.2735,2153
4,0.5894,-0.8572,-0.2285,0.6161,0.5765,0.5155,2001
4,0.677,-0.8738,-0.2859,1.1018,0.4613,0.8376,2178
4,0.6553,-0.8821,-0.1223,1.5209,0.1425,1.3584,2076
4,0.5171,-1.0671,-0.0977,1.7808,-0.0784,2.0651,2016
4,0.5906,-1.3186,0.0542,1.8291,-0.2273,2.7719,2451
4,0.2664,-1.6567,0.0381,1.9421,-0.2914,3.2688,1657
4,0.2175,-2.0,0.115,2.019,-0.036,3.3922,1919
4,0.5703,-2.0,0.0562,1.9895,0.3157,2.3963,2382
4,-0.1829,-2.0,-0.3188,1.578,1.0344,1.4838,1992
4,-1.2825,-2.0,-0.5659,0.916,1.5639,0.6047,2901
5,0.2761,-1.7439,0.5889,1.3195,3.4473,-1.5359,2194
5,-1.1621,-2.0,1.3259,-0.1256,4.3634,-2.7706,2208
5,-0.7234,-2.0,0.4622,-1.481,4.3634,-4.3635,2042
5,1.9999,-2.0,0.6555,-2.5658,4.3634,-4.3635,2217
5,1.9999,-2.0,0.8413,-2.5031,4.3634,-4.3635,1903
5,1.9999,-2.0,1.9595,-3.4705,1.1093,-4.3635,2117
5,-0.4861,1.9999,1.9999,4.2094,4.3634,-4.3635,2177
5,-2.0,-2.0,1.9999,-4.3635,-4.3635,4.3634,780
5,1.9999,-2.0,-2.0,-4.3635,4.3634,-0.6769,1746
5,1.9999,1.9999,1.9999,2.1732,4.3634,-1.4917,3333
5,-2.0,-2.0,-2.0,0.4506,-0.2654,-4.3094,1963
5,-2.0,1.1125,-2.0,0.4372,2.3336,1.0356,3120
5,-1.1035,-0.6003,1.2512,-1.6203,4.3634,-1.7299,1484
5,1.9999,0.7798,1.0066,-0.0558,4.3634,-0.5337,1964
5,1.9999,-2.0,0.3547,-2.2989,-4.0495,-4.0358,2552
5,1.9999,1.9999,1.9999,3.0063,-4.3635,-3.4311,2255
5,-2.0,-2.0,-2.0,1.9076,-1.2882,-3.1617,1785
5,-2.0,-2.0,1.729,-1.3219,-4.3635,4.3634,2179
5,1.9999,1.9999,-1.6113,1.2355,-4.3635,-1.1427,2801
5,1.9999,-2.0,1.9999,-0.5727,-1.244,-4.3635,2634
5,-1.4229,-2.0,-1.7886,-4.3635,-3.5501,-3.6459,1330
5,-2.0,1.0955,-2.0,1.2191,-4.3635,-0.2441,2607
5,-0.0759,-0.5784,-0.5454,2.3031,-4.3635,1.8663,2053
5,-0.6213,-1.5632,0.4294,-2.6216,-3.3549,-0.3187,1948
5,-1.0935,0.1965,-0.2478,-1.7776,-2.0611,-1.1196,1927
5,-0.425,-0.9719,-0.1167,-1.1199,1.5331,-2.3682,2066
5,0.4316,-1.2483,0.1545,-1.4865,1.0439,-2.2012,2001
5,0.1487,-0.3066,0.178,-0.5008,-0.314,-1.1556,2173
5,0.3364,-0.0754,-0.0806,0.1152,-2.0971,0.2482,2183
5,0.3826,-0.9211,-0.1143,-0.1541,-2.6806,0.6122,2090
5,0.3542,-0.7344,-0.366,-0.1257,-3.0411,0.2127,2068
5,0.3037,-0.426,0.1697,-0.2212,-2.2437,0.2502,2034
5,0.3027,-0.2043,0.6086,-0.3691,-1.9088,0.3864,2041
5,0.0,-0.1331,0.5029,-0.5289,-2.5077,0.7996,2051
5,-0.3037,-0.46,0.0579,-0.5706,-3.0308,1.4924,2062
5,-0.5178,-0.7725,-0.4634,-0.2163,-3.3728,1.7891,2031
5,-0.8054,-0.9236,-0.2888,0.6494,-1.7662,1.4183,2044
5,-1.3645,-0.6121,-0.0293,1.5225,2.2015,0.9179,2001
5,1.9999,-1.2544,0.2778,0.607,2.1968,4.3634,2143
5,-0.5898,-2.0,0.1406,-0.2466,2.2897,1.1033,2029
5,0.8518,-1.804,-0.2095,1.2584,0.6288,1.3603,2212
5,1.1934,-2.0,1.0225,0.4421,2.1041,0.5345,2169
5,-0.7031,-1.9846,1.238,0.298,-1.1869,0.8475,2178
5,-2.0,-1.4944,1.9999,0.9475,-0.3205,2.3715,2619
5,-1.7505,-2.0,0.675,-0.5842,-2.0209,0.8088,1963
5,1.7466,-1.2227,0.781,-0.4064,0.1069,-1.8064,1831
5,1.5249,-0.5981,0.2009,-0.3637,-0.4595,0.1763,1879
5,0.8962,-0.6753,0.2932,-0.0915,-0.5616,0.5343,1911
5,0.8928,-0.8047,-0.0234,-0.2782,0.5738,0.6771,1960
5,-0.24,-0.8538,-0.5615,0.11,0.4295,0.9042,1965
5,-0.2693,-1.0864,-0.4761,0.1096,0.7011,0.5151,1929
5,-0.0562,-0.9758,-0.5188,0.1265,0.4264,0.4687,2040
5,0.0725,-0.8167,-0.0747,0.3442,-0.2631,0.4173,2166
5,0.3713,-0.9373,-0.2236,0.8802,-0.3609,-0.0984,2081
5,0.4468,-1.2551,-0.0298,1.0263,-0.4833,-0.5417,2142
5,0.2107,-1.4092,0.042,0.873,-0.6694,0.0676,2106
5,-0.0083,-1.1846,0.063,0.7357,-0.5533,0.5544,1989
5,-0.251,-1.0527,0.1187,0.5705,0.2621,0.8112,2070
5,-0.2317,-0.9661,0.1694,0.3975,0.359,0.4841,2106
5,0.1812,-1.0115,0.0125,0.4109,0.1586,0.5596,2142
5,0.0559,-0.9861,0.0518,0.3453,0.1015,0.4827,2088
5,-0.0266,-0.9973,0.1003,0.3301,0.3013,0.5886,1970
5,0.2275,-0.9905,0.1443,0.3595,0.4083,0.557,2064
5,0.064,-0.9319,0.1018,0.3089,0.1691,0.5658,1904
5,-0.0645,-1.0576,0.084,0.2225,0.3031,0.7331,2094
5,-0.0598,-1.0408,-0.0466,0.3137,0.5076,0.5745,2115
5,-0.1133,-1.0818,0.0007,0.3193,0.5686,0.3767,1821
5,-0.5664,-1.0151,0.1953,0.0077,0.968,-0.112,1846
5,-0.187,-1.0005,0.0088,0.3129,0.8542,0.2775,2476
5,-0.0918,-0.998,0.2278,0.2053,0.9465,0.1214,2060
5,-0.0144,-0.9819,0.179,0.2336,0.7447,0.1565,1610
5,-0.1223,-0.9985,0.2351,0.2987,0.5534,0.1774,2014
5,-0.2585,-0.9956,0.2717,0.3341,0.3618,0.1128,1904
5,-0.1631,-1.031,0.2239,0.2776,0.3298,0.1258,2054
5,-0.1975,-1.019,0.1941,0.234,0.2155,0.0965,2087
5,-0.3159,-0.9983,0.1873,0.224,0.0503,0.0454,2062
5,-0.2781,-0.9536,0.1995,0.173,-0.0356,-0.0228,1772
5,-0.0591,-0.9763,0.1272,0.0959,0.0127,-0.1044,2117
5,-0.0576,-0.9189,0.1316,0.1139,-0.1268,-0.1438,2058
5,0.0027,-0.9702,0.1218,0.0246,-0.1565,-0.1474,2069
5,0.0173,-0.9712,-0.0081,0.038,-0.0924,-0.1442,2114
5,-0.0432,-0.9937,0.0486,0.0389,-0.1313,-0.1501,2030
5,-0.2603,-1.0164,0.0454,0.0856,-0.1734,-0.1818,2084
5,-0.2502,-1.0125,0.1204,0.1366,-0.2388,-0.2308,2066
5,-0.1196,-1.0,0.1528,0.1148,-0.2165,-0.2768,2064
5,0.0288,-0.9526,0.1426,0.145,-0.225,-0.2902,2060
5,0.1912,-0.9707,0.1399,0.1764,-0.2645,-0.2702,2084
5,0.2903,-0.9727,0.1592,0.2466,-0.2518,-0.2394,2109
5,0.2725,-0.9946,0.1382,0.2868,-0.1198,-0.1671,2138
5,0.2903,-1.0015,0.144,0.3798,0.0945,-0.0744,2127
5,0.3005,-0.9871,0.0745,0.4442,0.4038,0.0117,1946
5,0.3926,-0.9736,-0.073,0.5217,0.6578,0.1169,1988
5,0.5894,-0.9753,-0.251,0.6247,1.0108,0.1985,2034
5,0.5273,-0.8926,-0.2603,0.812,1.2449,0.4694,2079
5,0.4648,-0.8818,-0.2146,1.0168,1.4043,0.8128,2001
5,0.6426,-0.7932,-0.0447,1.2318,1.2077,1.5672,1970
5,0.5994,-0.7798,0.1003,1.4294,0.3751,2.8999,2321
5,0.8501,-1.2029,0.2927,1.5446,-0.383,3.2961,1925
5,0.3325,-1.4851,0.2,1.6223,-1.4829,3.8105,1586
5,-0.5168,-2.0,0.3325,1.1987,-0.9078,3.2973,1960
5,0.0693,-2.0,0.1685,1.064,-0.0871,2.9968,2082
6,0.313,-1.6899,-0.1208,0.9231,-0.1007,1.7748,2111
6,0.3406,-1.1292,-0.3596,0.9279,0.1617,0.3802,2171
6,1.4854,-2.0,-0.2634,0.8785,1.0838,0.4814,1951
6,1.3042,-2.0,-0.7524,-0.2995,1.7366,-0.9392,1642
6,-0.373,-2.0,-0.792,-1.0914,1.5832,-2.4401,2029
6,-0.3201,-2.0,-0.2051,-1.8695,2.5582,-3.8318,2163
6,-1.2363,-2.0,0.4297,-4.3635,4.3634,-4.3635,2162
6,1.9999,1.9999,-2.0,4.3634,-2.386,-2.0716,2114
6,-2.0,-1.8464,1.9999,4.3634,-4.3635,-4.3635,506
6,-2.0,-1.4158,-2.0,-1.4238,0.0867,-4.3635,222
6,1.9999,-2.0,1.9999,-1.3316,4.3634,-3.7037,4064
6,1.9999,1.9999,-2.0,0.0695,4.3634,-2.6642,1764
6,-2.0,-2.0,1.9136,1.5197,-4.3635,-1.6783,1302
6,0.4421,-0.9128,0.468,-4.3635,4.3634,-1.2998,2317
6,1.9999,1.5364,-0.9417,0.6022,4.3634,-2.7625,2317
6,1.2483,-0.1384,0.9478,-1.0216,-3.6857,-0.8902,2124
6,1.9999,-2.0,1.2751,-2.3434,-0.8156,-4.3635,1297
6,1.9999,1.7556,1.9999,3.1475,0.0454,-2.123,3385
6,-2.0,-2.0,-2.0,-1.5567,-4.3635,-0.3006,1383
6,-2.0,0.9841,-1.8948,0.2619,-4.3635,4.2001,378
6,1.9999,0.9661,-2.0,4.3634,-2.7554,4.3634,4064
6,1.9999,-2.0,1.9999,0.5751,1.1155,-4.3635,2569
6,-0.8965,-2.0,-1.8105,-4.3635,-2.3017,1.6524,320
6,-2.0,0.5874,-2.0,1.4041,-4.3635,0.6536,2504
6,-2.0,-2.0,-2.0,0.6907,-4.3635,-0.1149,2059
6,-2.0,-0.4348,1.1658,-1.5399,-3.2722,-2.3816,2132
6,-1.9375,-0.2285,0.1519,-0.92,1.4564,-1.6125,1907
6,0.3259,0.8386,-0.2036,-1.284,2.6891,-2.771,2102
6,-0.2263,-1.0325,-0.7822,-1.2255,3.0028,-0.8359,1682
6,-0.5022,-0.2104,-0.5054,-0.446,-0.4012,-1.0218,2541
6,0.2556,-1.0278,0.2134,-0.6253,0.4952,-0.9457,2793
6,1.417,-0.7905,0.3936,-0.8239,-0.346,-1.4151,2242
6,0.8994,-0.8569,-0.0769,-1.6234,-0.2858,-0.5132,2068
6,0.9641,-0.5054,-0.3911,-1.5079,-1.744,0.0001,2006
6,0.6255,-0.3918,-0.106,-1.0327,-1.8985,0.0083,1935
6,0.5935,-0.5378,0.0974,-0.9372,-2.0768,0.2373,1926
6,0.6196,-0.4951,-0.1145,-0.5634,-2.2728,0.4243,1965
6,0.4194,-0.4709,0.1819,-0.8592,-2.0124,0.7124,2083
6,0.426,-0.5146,-0.0615,-1.0183,-1.4107,0.9043,2150
6,0.4287,-0.5825,-0.2961,-0.6731,-1.4053,0.6873,1995
6,0.335,-0.5249,-0.3188,-0.1798,-2.1063,0.6387,2008
6,0.7534,-0.9792,-0.1099,-0.2115,-3.3756,1.4123,2043
6,-0.3132,-0.9224,-0.1956,0.3306,-2.6283,2.0124,2204
6,-1.6411,0.696,0.4468,1.1533,0.4778,0.5272,1736
6,-1.4487,-0.2808,-0.7383,0.4558,-0.6277,1.7511,1856
6,0.7888,-1.1582,0.2175,3.3764,-3.2022,1.7522,2418
6,1.9999,-2.0,0.1672,0.4903,0.3067,1.8327,2299
6,-2.0,-2.0,-0.3501,1.6247,0.9562,1.8468,2126
6,-2.0,-1.6204,1.458,0.4059,0.4453,3.2347,1768
6,-1.3894,-1.396,1.5208,1.2655,0.1197,1.8855,2254
6,0.3857,-2.0,1.8777,0.6501,0.626,-0.9182,1971
6,0.4194,-2.0,1.0305,0.1763,-0.0768,-0.2746,2033
6,1.135,-0.9565,0.6299,-0.1113,-0.3115,-0.6863,2040
6,0.5786,-0.7041,-0.1157,0.0502,0.3434,1.0545,2023
6,-0.0266,-0.7908,-0.5112,0.1147,0.4352,1.3027,1913
6,0.1685,-0.7153,-0.5759,0.2466,0.3926,0.8395,2044
6,-0.1042,-0.8835,-0.8132,0.4449,0.324,1.241,2238
6,-0.2524,-0.9836,-0.5569,0.6862,0.598,0.8869,2117
6,-0.0564,-0.8718,-0.095,0.6614,0.8568,0.388,2362
6,0.0356,-0.801,0.0105,0.9733,0.7857,0.457,2023
6,-0.0032,-1.2581,0.3596,1.0953,0.3084,0.0746,1824
6,0.1995,-1.5964,0.3787,0.7951,0.3902,0.3721,2295
6,-0.3589,-1.3074,0.1316,0.6718,0.64,0.7582,1955
6,-0.4448,-0.8472,0.0522,0.5829,0.8927,0.541,2162
6,-0.2495,-0.9429,0.0964,0.5368,0.9819,0.5613,2115
6,-0.0579,-0.9185,0.2935,0.3906,0.7696,0.4091,1943
6,0.0547,-0.8835,0.1733,0.2796,0.6755,0.5691,2114
6,0.1775,-0.9507,0.05,0.223,0.3362,0.5569,2004
6,0.0103,-1.0261,-0.0881,0.1019,0.6107,0.369,1900
6,-0.4944,-0.9282,-0.2554,-0.0531,0.9187,-0.2743,2138
6,-0.0012,-1.0701,0.0098,0.1194,1.1732,0.1902,1976
6,0.1135,-0.9973,0.1191,0.0726,1.3154,0.1096,1676
6,0.1462,-0.9583,0.2046,0.1518,1.0646,0.1639,2262
6,0.0076,-0.9937,0.2461,0.2135,0.8728,0.2511,2140
6,-0.0105,-0.9224,0.2747,0.1973,0.9248,0.2416,2120
6,-0.0156,-0.9563,0.2109,0.1744,0.8556,0.281,1997
6,-0.1147,-1.0049,0.1292,0.1526,0.6653,0.2835,2084
6,-0.2532,-0.9927,0.1526,0.1847,0.6384,0.2336,1999
6,-0.3027,-1.033,0.2737,0.2212,0.4188,0.1944,2001
6,-0.301,-1.0295,0.2339,0.2919,0.2085,0.132,2110
6,-0.4409,-1.1077,0.2566,0.2587,-0.1514,0.0539,1915
6,-0.4839,-1.0508,0.1863,0.1835,-0.1432,-0.0353,2150
6,-0.4387,-1.0828,0.2271,0.2156,-0.2952,-0.0615,2027
6,-0.4277,-0.9854,0.3408,0.1698,-0.5235,-0.0374,2085
6,-0.2859,-0.9011,0.4021,0.0643,-0.7339,-0.0189,2142
6,0.0276,-0.9019,0.3423,-0.0675,-0.8451,-0.0906,2063
6,0.0549,-0.8418,0.251,-0.0459,-1.0598,-0.1743,2028
6,-0.0266,-0.9399,0.2219,0.0065,-1.1934,-0.086,2003
6,-0.2131,-1.0444,0.0149,0.0695,-0.9986,-0.0469,2184
6,-0.6987,-0.9211,-0.209,0.0274,-0.8499,0.0445,2113
6,-0.2954,-0.4858,-0.5879,-0.0527,0.0738,-0.0847,1915
6,0.9661,-0.5742,-0.7561,0.2071,0.1554,-0.1746,2118
6,1.1357,-0.5728,-0.4688,0.1932,-0.5066,-0.2029,2222
6,0.72,-0.8276,-0.2292,0.3674,-0.6327,0.3521,2109
6,-0.2334,-2.0,0.5183,-0.3073,-0.2539,-0.1164,2028
6,0.0359,-1.5889,0.032,0.8008,0.3802,-0.863,2443
6,0.3047,-1.1389,0.251,1.2359,1.5306,-0.4863,1965
6,1.094,-0.9172,0.0771,1.2187,1.8611,-0.3806,2238
6,1.4753,-1.0391,0.2637,1.0098,2.337,0.4416,2420
6,0.6667,-1.1826,0.2773,1.0597,2.1806,1.1263,2513
6,0.948,-1.2571,0.6724,1.3527,1.5432,2.5675,1759
6,1.8157,-1.6963,0.5991,1.8554,0.3482,4.3634,1922
7,1.6377,-2.0,0.4434,2.5658,-2.6164,4.3634,1825
7,-1.8401,-1.1108,0.3398,3.3091,-0.2838,1.5344,2005
7,-0.488,-2.0,-0.5955,1.1989,2.127,2.9976,2088
7,0.9998,-2.0,-0.7849,0.4152,-1.077,-1.1051,2111
7,1.5403,-2.0,-0.8994,-1.3153,-0.0724,-0.4789,2086
7,-2.0,1.9999,0.8999,-1.3772,-4.3635,-0.3028,1781
7,-2.0,1.9999,1.9999,0.8413,4.3634,-1.831,1339
7,1.9999,-2.0,-2.0,-2.3688,4.3634,0.5243,2408
7,1.9999,0.3347,1.2646,0.924,2.088,0.6605,2002
7,-2.0,-1.969,-0.4072,1.5002,0.3189,-3.3561,2266
7,1.5488,0.1846,1.25,-0.398,2.4555,-0.5221,2029
7,1.9999,-2.0,-2.0,-4.3635,0.8584,-1.9054,1297
7,1.9999,1.9999,-2.0,0.4023,-3.9556,-4.107,2282
7,-0.25,-2.0,1.9999,0.4781,-4.3635,-4.3635,1709
7,-2.0,1.395,1.9999,-0.3573,-2.3714,-2.9798,2548
7,-2.0,-1.7585,-2.0,-3.9938,-1.1427,4.3634,1834
7,1.9999,-2.0,0.1763,-0.6735,3.3104,-4.3635,2188
7,0.678,1.9999,0.4736,-2.6101,-1.6586,-2.396,2066
7,-2.0,1.9999,1.9999,-4.3635,0.6432,-4.3635,1931
7,-0.5618,0.4619,-1.7727,0.8476,-0.0653,3.2682,2255
7,1.9999,-2.0,0.0098,-2.6227,4.3634,2.5021,2306
7,1.323,0.0415,0.2424,-1.846,-1.7871,-4.3635,2015
7,0.6343,0.4463,-0.3638,-0.4452,-2.3723,-1.0399,2169
7,1.0293,-0.554,-0.0452,-0.7235,-1.0039,-1.1331,2141
7,0.6077,-0.4001,-0.1348,-0.4406,-2.3052,-0.8898,2059
7,0.4836,-0.5864,-0.2222,-0.4059,-1.2455,-1.073,2065
7,-0.0286,-0.8604,0.7734,-0.3127,-1.2362,-0.2566,2034
7,-1.2043,-0.9727,0.0627,-1.0744,-1.809,0.335,2013
7,-0.7798,-1.6289,-0.2268,-0.9902,-1.307,0.5161,2105
7,-0.0015,-1.3354,-0.1826,0.0097,-2.4377,-0.2807,2070
7,0.7537,-0.8718,-0.0317,-0.4691,-0.9539,-0.8059,2017
7,1.0222,-0.8879,0.5962,0.2088,-0.9078,-0.593,2084
7,0.6526,-0.2896,1.5662,-0.3804,0.3831,-0.9432,1890
7,-2.0,-0.5581,0.1042,-1.0596,-2.6429,0.6897,2304
7,-1.8003,0.0027,0.0105,0.6123,-1.5555,1.5151,1807
7,-1.085,-2.0,0.8408,-1.2086,-2.0401,4.3634,2047
7,-0.0186,-1.8611,0.3286,1.1909,2.9344,3.6459,1927
7,0.9241,-1.6694,0.8853,1.0993,2.9584,1.6267,1878
7,0.4722,-2.0,-0.9746,0.4793,0.3252,1.3733,2116
7,-0.9993,-2.0,0.3862,-0.2493,-0.0475,0.7873,2261
7,-2.0,-2.0,-0.4146,-0.6042,-0.4316,0.5568,1966
7,-2.0,-2.0,1.3108,0.3828,-0.2673,0.9263,1950
7,0.4058,-0.6331,1.1892,-0.3289,-1.8459,-1.7578,1906
7,1.9999,-0.3425,0.5647,-0.2918,-0.5597,-0.9475,2034
7,1.1577,-0.938,-0.0083,-0.2898,0.0169,0.8736,2191
7,0.7017,-0.9084,-0.3381,-0.1437,0.5184,1.0393,2128
7,0.2715,-1.0886,-0.5093,-0.0579,1.381,1.2095,1970
7,-0.7251,-1.0703,-0.2046,-0.3179,1.1425,1.0412,2032
7,-0.1047,-0.8674,-0.4058,-0.2219,0.0049,0.791,1982
7,0.3813,-0.7644,-0.2275,-0.1618,-0.3814,0.3265,2221
7,0.3357,-1.0112,-0.2092,0.1783,-0.3541,0.0127,1718
7,0.1746,-1.1633,-0.0149,0.7134,0.0646,-0.3982,1933
7,-0.1335,-1.5471,-0.0107,0.5642,0.4311,0.2747,2079
7,-0.239,-1.2761,-0.0474,0.5817,0.4365,0.5426,2063
7,-0.0615,-0.9763,-0.0281,0.5514,-0.0382,0.599,1618
7,-0.0945,-0.8765,0.0288,0.716,0.3285,0.5485,2117
7,-0.1777,-1.0398,0.0728,0.5131,0.1164,0.5468,2145
7,-0.0239,-1.1423,-0.0205,0.5516,0.2621,0.5669,2073
7,0.2251,-1.1387,0.0049,0.5562,0.3156,0.5795,2057
7,0.2415,-1.061,-0.04,0.4962,0.2988,0.8497,2214
7,0.0684,-1.0005,-0.019,0.401,0.442,0.8638,2139
7,-0.0676,-0.9067,0.0049,0.4095,0.6361,0.8023,2063
7,-0.3438,-0.8579,-0.1951,-0.4892,1.5969,-0.3991,1854
7,0.2812,-1.0225,0.0442,0.379,1.3414,0.45,1922
7,-0.3198,-1.0215,0.2847,0.0292,1.4532,0.1938,2075
7,-0.1697,-0.9719,-0.0769,0.0123,1.3515,0.263,2104
7,0.0312,-1.0085,-0.0281,0.2075,1.0026,0.4067,2070
7,-0.3096,-0.9106,0.0056,0.3297,0.8526,0.277,2182
7,-0.3787,-1.0466,0.1345,0.3209,0.991,0.2137,2020
7,-0.2537,-0.9741,0.1907,0.2928,0.5843,0.1779,2083
7,-0.2312,-0.9858,0.1748,0.2449,0.2943,0.1265,2050
7,-0.1172,-0.9873,0.1287,0.1735,0.2405,0.0985,2033
7,-0.1057,-0.9741,0.1348,0.1389,0.2286,0.0892,2175
7,-0.1726,-1.0146,0.1172,0.1101,0.2318,0.0417,2127
7,-0.2224,-1.0325,0.0918,0.1655,0.2077,-0.0009,2078
7,-0.1843,-1.0103,0.1672,0.1923,0.0883,-0.0441,1956
7,-0.1592,-1.0151,0.1936,0.1723,-0.0128,-0.0882,2070
7,-0.1704,-1.0188,0.1555,0.1694,-0.1662,-0.1649,2024
7,-0.332,-0.9978,0.1799,0.1547,-0.3389,-0.2422,2157
7,-0.0432,-1.05,0.1558,0.0606,-0.2738,-0.239,2058
7,0.0042,-0.9788,0.0259,0.1336,-0.2987,-0.2462,2121
7,-0.1335,-1.0227,0.0474,0.2067,-0.3445,-0.3131,2047
7,-0.1616,-1.05,-0.0442,0.2734,-0.3165,-0.3244,2152
7,-0.2598,-1.0095,0.041,0.3502,-0.4325,-0.3643,2066
7,-0.2268,-1.0046,0.0491,0.3019,-0.4163,-0.4107,2056
7,-0.1118,-1.0393,0.0288,0.2782,-0.3808,-0.4264,2061
7,-0.0542,-0.9453,0.0132,0.3199,-0.5213,-0.4316,2086
7,0.0129,-0.9668,0.022,0.3549,-0.4661,-0.3951,2028
7,0.1445,-0.8684,0.0381,0.3372,-0.4461,-0.3353,1986
7,0.2561,-0.8894,0.0632,0.2593,-0.1443,-0.2875,2297
7,0.5659,-0.9194,0.0645,0.3836,0.0715,-0.1967,2052
7,0.5249,-0.9958,0.0891,0.4771,0.1567,-0.0497,2057
7,0.4441,-1.0005,0.106,0.5645,0.2823,0.1979,1726
7,0.5098,-0.9575,0.2151,0.6016,0.6384,0.3362,2266
7,0.6357,-0.8845,0.3032,0.715,0.8367,0.5181,2038
7,0.6792,-0.9053,0.3887,0.8127,1.0903,0.7782,1985
7,0.7754,-0.8564,0.5261,0.7031,1.5157,1.2027,2119
7,1.229,-0.5613,0.2446,0.9138,1.1604,2.2035,2127
7,1.4875,-0.9016,0.5139,1.3042,-0.5606,4.3634,1871
7,0.8584,-1.8872,0.8496,1.5936,-1.8623,4.3634,2058
7,-0.0935,-2.0,0.7717,1.1338,-1.3475,3.9452,2142
7,0.7878,-2.0,0.364,1.2742,-1.401,3.1604,2075
7,1.1609,-1.6165,-0.1719,1.4077,-1.394,2.8344,2063
8,1.7825,-0.3999,-0.522,0.5987,-2.3447,0.6759,2315
8,1.8511,-2.0,-0.6882,1.5078,-0.9021,1.241,2194
8,1.1091,-2.0,-1.1206,0.9738,-2.2514,0.2509,2008
8,0.0254,-2.0,-1.686,-0.079,-0.9072,-1.9803,1595
8,-0.8718,-2.0,-1.4451,-0.7578,0.7984,-4.3635,1477
8,0.0044,-1.8892,0.554,-1.8488,2.0409,-4.3635,1952
8,1.665,-1.7766,-0.0671,-3.3873,3.8348,-4.3635,1928
8,1.9999,-2.0,1.1785,-4.3635,2.6492,-4.3635,1881
8,-2.0,1.9999,-2.0,4.3634,4.3634,-4.3635,2017
8,-2.0,1.9999,1.9999,-4.3635,4.3634,4.3634,75
8,1.9999,-2.0,-0.5342,-4.3635,4.3634,-3.5563,2467
8,1.9999,1.9999,1.9999,-0.1322,4.3634,-4.3635,3649
8,-2.0,-2.0,-0.9243,-1.9496,-4.3635,-4.3635,1056
8,1.9999,1.9999,1.0562,2.0825,0.0719,-2.4176,2617
8,-2.0,-1.0928,0.2446,1.3836,-3.4932,-4.3635,1263
8,-2.0,-1.9517,-1.2119,-3.5707,-3.1054,0.2697,2165
8,1.9999,1.9999,-1.4541,-0.3532,4.3634,2.4452,2733
8,1.9999,-2.0,1.1077,1.2597,-3.9318,-2.7072,1605
8,-0.8938,-1.168,0.7329,0.0541,-4.3635,-4.3635,1632
8,-1.8145,0.1555,0.738,-1.8789,-4.3635,1.5965,1716
8,-1.2097,-1.0994,-0.46,-2.1888,-4.3635,-0.3006,2272
8,-0.21,-1.187,-1.2217,-1.0322,-1.2801,-3.3445,2191
8,-0.3103,0.1638,0.4905,-2.6127,0.7546,-2.6701,2363
8,-0.8926,-0.6147,-0.3545,-1.4599,-0.4996,0.1409,2173
8,-0.1248,-0.6465,0.364,-1.152,0.6253,-0.5167,2084
8,1.1606,-1.1067,-0.1621,-0.9371,-0.0394,-1.3219,1848
8,0.9688,-1.3784,-0.3735,-1.2963,-0.5826,-0.9226,2146
8,1.0083,-1.2271,-0.2932,-1.5645,-1.4768,-1.1148,2134
8,0.4761,-0.7888,-0.5564,-0.9937,-2.2482,-2.3397,2018
8,0.6809,-1.2981,-0.29,-1.4262,-1.9735,-1.0878,2072
8,-0.4419,-1.0723,-0.1667,-2.289,-1.8877,-0.9166,2061
8,-0.6411,-0.3406,-0.3789,-1.7964,-2.6552,-1.2416,2159
8,0.6765,-0.6304,0.0913,-1.7728,-2.4376,-1.3571,1930
8,-0.9011,-0.2793,0.99,-1.4639,-2.3037,-0.1862,2063
8,-0.98,0.1331,0.7278,-1.703,-2.5818,1.7486,2082
8,-0.2766,0.7378,0.0186,-0.6111,-1.9578,1.2507,1867
8,-0.1943,0.7607,-0.1443,0.1454,-1.8943,0.8019,1616
8,-0.3684,0.6423,-0.396,-0.1485,-0.1631,0.2312,2397
8,0.3389,0.2815,-0.6187,0.6754,-0.4787,0.9769,2223
8,1.2405,-0.1772,-0.2102,1.3643,-0.0767,1.1633,2232
8,1.1587,-0.344,0.1978,1.6715,-0.5944,2.0313,2057
8,0.5305,-0.4514,0.1995,1.6338,-1.4588,3.5434,2033
8,1.3579,-1.0491,-0.4634,2.1767,-2.065,4.3634,1875
8,-0.7039,-2.0,-0.2991,3.1239,2.2136,4.3634,1914
8,-0.8289,-2.0,-0.8315,-0.872,-2.1989,2.269,1250
8,1.9999,-2.0,0.4011,1.8209,-1.0668,-3.0911,2512
8,1.9999,-2.0,1.3396,-1.1967,2.3121,-4.2801,2276
8,-2.0,-1.718,0.8811,1.2312,-3.4244,2.6995,1798
8,-2.0,-0.9282,1.9999,1.4139,0.738,4.3634,1861
8,-0.4353,-2.0,0.6284,-0.7652,-1.6029,2.2405,1399
8,0.6501,-2.0,0.7805,-0.5175,-0.2213,-3.4402,2652
8,1.0425,-0.802,0.1892,-0.6016,-0.9035,-2.7123,2080
8,1.8328,-0.396,-0.4033,-0.3574,-0.0277,0.2767,2078
8,1.0581,-0.415,-0.6121,-0.2959,0.6074,0.8694,1900
8,-0.4431,-0.668,-1.1001,-0.0039,1.4491,1.827,2055
8,-0.2693,-0.9478,-0.8142,-0.0338,0.9842,2.1331,2058
8,0.1438,-0.6882,-0.6436,0.3882,1.271,1.6209,1831
8,0.4058,-0.6992,-0.2959,0.4264,0.9325,0.9503,2262
8,0.2568,-1.0706,-0.2397,0.4317,0.399,1.062,2154
8,-0.1506,-1.282,-0.2563,0.4259,-0.0269,1.0391,2045
8,-0.3242,-1.1743,-0.1541,0.6466,-0.0177,0.7819,1844
8,-0.345,-0.9646,0.2253,0.8135,0.2021,0.6019,2065
8,-0.0745,-0.9341,0.1917,0.7311,0.3259,0.2425,2064
8,0.219,-1.1633,-0.1504,0.6995,0.3035,-0.031,2076
8,0.1921,-1.3289,-0.0627,0.7592,0.1298,0.3721,2119
8,-0.1194,-1.1096,-0.0259,0.7287,0.4022,0.9223,2037
8,-0.054,-0.8521,0.0859,0.5994,0.7279,0.7925,2012
8,0.2271,-0.9929,0.0142,0.5789,0.5429,0.8557,2045
8,0.3057,-1.0872,0.0134,0.4862,0.4609,0.8481,2054
8,0.217,-0.9507,0.0317,0.3789,0.6727,0.9481,2037
8,0.0352,-0.9319,0.0542,0.2587,0.9998,0.9188,2045
8,-0.8628,-1.0251,0.5315,-1.0678,1.6752,-0.7146,2024
8,-0.071,-1.0283,-0.1589,0.3899,1.5514,0.5711,2035
8,-0.3735,-1.0857,0.2178,0.2144,1.6009,0.1872,2089
8,-0.1648,-0.9451,0.0442,0.2573,1.1573,0.4645,2132
8,-0.0906,-0.9353,-0.1389,0.498,0.6517,0.5959,1994
8,-0.0977,-0.8782,0.0769,0.587,1.0561,0.5416,2053
8,-0.0369,-0.8958,0.1362,0.4834,1.0144,0.6239,2044
8,-0.0798,-0.9355,0.1399,0.4655,0.7822,0.6546,2056
8,-0.26,-0.8931,0.0613,0.4996,0.2663,0.6404,2062
8,-0.2288,-0.9905,0.1038,0.5484,0.167,0.6103,2003
8,-0.2683,-1.0645,0.2512,0.5717,0.2286,0.4999,2049
8,-0.3711,-1.1091,0.2769,0.5806,0.0674,0.4036,2039
8,-0.3511,-1.1235,0.2935,0.5267,0.1005,0.3271,2294
8,-0.2913,-1.0662,0.3923,0.4127,0.194,0.1758,1948
8,-0.1558,-1.2952,0.2983,0.4826,-0.0762,0.0008,2008
8,0.0559,-1.2058,-0.1697,0.4763,-0.589,0.0386,2015
8,0.1328,-0.5549,-0.4055,0.5568,-0.4601,-0.0133,1993
8,-0.2542,-0.6672,0.0381,0.6512,0.3711,0.0186,2050
8,-0.4214,-0.929,0.3845,0.4701,0.5525,0.2513,1991
8,-0.3635,-1.042,0.342,0.3454,0.1001,0.3215,2049
8,-0.4065,-1.0562,0.2283,0.3381,-0.4271,0.1409,2051
8,-0.0898,-0.9297,0.0481,0.273,-0.6389,0.0206,2054
8,-0.0652,-0.7778,-0.03,0.3822,-0.3703,0.014,2059
8,-0.2336,-0.9548,0.0122,0.5068,-0.0192,0.0884,2058
8,-0.2795,-1.116,-0.041,0.4691,0.1425,0.091,2070
8,-0.3083,-1.0693,-0.2415,0.4326,-0.0727,0.1212,2043
8,-0.2048,-1.1035,-0.3379,0.6114,-0.6605,0.0131,2067
8,-0.1086,-0.9475,-0.2053,0.8518,-0.8432,-0.0754,2049
8,0.1006,-1.0032,-0.1858,0.7957,-0.8463,0.0121,2065
8,0.2708,-1.1523,-0.2808,0.7476,-1.1749,0.2432,2065
8,0.2,-1.1055,-0.3491,0.9812,-1.2398,0.4028,2056
