Timestamp,Ax,Ay,Az,Rx,Ry,Rz,HR_value
0,-0.1551,0.8193,-0.2928,0.4862,-0.0228,-1.2537,0
0,-0.1908,0.8204,-0.2949,0.4862,-0.0228,-1.2537,0
0,-0.1908,0.8204,-0.2949,0.5059,0.0131,-1.2909,0
0,-0.2296,0.7959,-0.3061,0.4589,0.0828,-1.3115,0
0,-0.2714,0.7734,-0.3214,0.3935,0.1503,-1.3246,0
0,-0.3234,0.7795,-0.3326,0.3685,0.181,-1.3607,0
0,-0.3265,0.7969,-0.3347,0.3848,0.1678,-1.4097,0
0,-0.3336,0.8071,-0.3275,0.3848,0.1537,-1.449,0
0,-0.3591,0.7979,-0.3255,0.3412,0.169,-1.449,0
0,-0.4122,0.7714,-0.3357,0.2856,0.1875,-1.4271,0
0,-0.4224,0.7643,-0.3439,0.2856,0.1875,-1.4271,0
0,-0.4275,0.7755,-0.3347,0.2518,0.1678,-1.4151,0
0,-0.4275,0.7755,-0.3347,0.2388,0.1286,-1.4261,0
0,-0.4285,0.8081,-0.3112,0.2398,0.0839,-1.4412,0
0,-0.4449,0.8081,-0.2969,0.2039,0.049,-1.4304,0
0,-0.4428,0.7877,-0.2898,0.1362,0.024,-1.4107,0
0,-0.4551,0.749,-0.2745,0.0763,-0.0011,-1.3988,0
0,-0.4928,0.7224,-0.2377,0.0818,-0.0053,-1.4336,0
0,-0.5163,0.7112,-0.2316,0.0904,-0.0032,-1.4511,0
0,-0.5286,0.6642,-0.2122,0.098,-0.0282,-1.4467,0
0,-0.5745,0.652,-0.2234,0.1209,-0.0402,-1.4141,0
0,-0.6041,0.6571,-0.2316,0.1526,-0.0545,-1.4021,0
0,-0.6041,0.6806,-0.2714,0.181,-0.1123,-1.3966,0
0,-0.6,0.6959,-0.2949,0.181,-0.1123,-1.3966,0
0,-0.605,0.7142,-0.2938,0.2027,-0.1776,-1.3922,0
0,-0.6214,0.7101,-0.3081,0.2159,-0.206,-1.3573,0
0,-0.6214,0.7101,-0.3081,0.2005,-0.193,-1.3094,0
0,-0.6469,0.6755,-0.3234,0.1537,-0.1646,-1.2788,0
0,-0.6428,0.6673,-0.3224,0.1264,-0.1558,-1.2505,0
0,-0.6469,0.6724,-0.3193,0.1264,-0.1515,-1.2211,0
0,-0.6642,0.6479,-0.3091,0.0948,-0.1242,-1.185,0
0,-0.6867,0.6346,-0.3071,0.0337,-0.073,-1.148,0
0,-0.7133,0.6245,-0.3112,-0.0206,-0.0435,-1.0946,0
0,-0.704,0.6112,-0.2918,-0.0479,-0.0686,-1.0488,0
0,-0.7173,0.6337,-0.2847,-0.0479,-0.0686,-1.0488,0
0,-0.7173,0.6337,-0.2847,-0.073,-0.1362,-0.9931,0
0,-0.7285,0.603,-0.3234,-0.073,-0.1362,-0.9931,0
0,-0.7081,0.603,-0.2836,-0.0992,-0.1623,-0.9736,0
0,-0.6969,0.5847,-0.2632,-0.1657,-0.1711,-0.9223,0
0,-0.7367,0.6,-0.2683,-0.1657,-0.1711,-0.9223,0
0,-0.7336,0.5939,-0.2479,-0.2365,-0.1482,-0.8939,0
0,-0.7531,0.5673,-0.2234,-0.2365,-0.1482,-0.8939,0
0,-0.7755,0.5449,-0.2459,-0.2856,-0.1657,-0.8252,0
0,-0.7898,0.5316,-0.251,-0.2638,-0.1972,-0.7926,0
0,-0.7877,0.551,-0.2571,-0.2638,-0.1972,-0.7926,0
0,-0.7877,0.551,-0.2571,-0.2398,-0.2442,-0.7915,0
0,-0.7765,0.5673,-0.2622,-0.2388,-0.2703,-0.7871,0
0,-0.7581,0.5806,-0.2551,-0.2518,-0.2682,-0.7806,0
0,-0.7499,0.5857,-0.2734,-0.2693,-0.2617,-0.7609,0
0,-0.7408,0.6061,-0.2632,-0.2998,-0.2605,-0.7457,0
0,-0.7296,0.601,-0.2775,-0.3346,-0.2659,-0.7554,0
0,-0.7326,0.6082,-0.2693,-0.3422,-0.2779,-0.7708,0
0,-0.7408,0.6326,-0.2643,-0.3663,-0.2747,-0.8067,0
0,-0.7438,0.653,-0.2551,-0.3935,-0.2932,-0.8493,0
0,-0.751,0.6663,-0.254,-0.3935,-0.2932,-0.8493,0
0,-0.7734,0.7122,-0.2306,-0.4109,-0.3183,-0.9092,0
0,-0.7734,0.7122,-0.2306,-0.412,-0.3368,-0.9681,0
0,-0.7847,0.7408,-0.2275,-0.4,-0.3456,-1.0509,0
0,-0.802,0.7795,-0.2194,-0.3292,-0.3542,-1.1535,0
0,-0.7928,0.8377,-0.1826,-0.2344,-0.3586,-1.2613,0
0,-0.7693,0.9326,-0.0939,-0.194,-0.3117,-1.341,0
0,-0.7877,0.9275,-0.0632,-0.2344,-0.1995,-1.3443,0
0,-0.8448,0.8816,-0.0418,-0.351,-0.1112,-1.2777,0
0,-0.9571,0.6928,-0.0336,-0.4404,-0.1177,-1.173,0
0,-0.9438,0.6275,0.004,-0.4404,-0.1177,-1.173,0
0,-0.953,0.6285,0.0031,-0.3891,-0.2442,-1.0946,0
0,-0.953,0.6285,0.0031,-0.218,-0.3783,-1.0706,0
0,-0.8582,0.6755,0.052,-0.0719,-0.4088,-1.123,0
0,-0.8704,0.6908,0.051,0.0675,-0.3445,-1.136,0
0,-0.8857,0.7245,0.0989,0.1732,-0.3085,-1.0499,0
0,-0.9214,0.7408,0.1183,0.169,-0.326,-0.9353,0
0,-0.9479,0.6214,0.0989,0.1515,-0.3848,-0.8307,0
0,-0.9449,0.5928,0.1,0.2627,-0.4295,-0.7043,0
0,-0.9592,0.6041,0.1102,0.4164,-0.4382,-0.6072,0
0,-0.9897,0.5908,0.1082,0.4164,-0.4382,-0.6072,0
0,-0.999,0.5622,0.0989,0.5102,-0.412,-0.5505,0
0,-0.999,0.5622,0.0989,0.6018,-0.4088,-0.4721,0
0,-1.0265,0.5643,0.0775,0.7392,-0.4557,-0.3456,0
0,-0.9979,0.5724,0.0408,0.809,-0.5538,-0.2321,0
0,-0.9459,0.5469,-0.0061,0.8078,-0.6465,-0.1449,0
0,-0.8877,0.5336,-0.0602,0.8319,-0.6934,-0.0501,0
0,-0.8255,0.5469,-0.0877,0.87,-0.6749,0.012,0
0,-0.7469,0.5663,-0.1153,0.8504,-0.6007,0.0228,0
0,-0.7224,0.5245,-0.1245,0.7937,-0.5059,0.0272,0
0,-0.7285,0.4959,-0.1122,0.7937,-0.5059,0.0272,0
0,-0.7285,0.4959,-0.1122,0.7653,-0.4328,0.0664,0
0,-0.7367,0.4357,-0.0867,0.7435,-0.4252,0.0969,0
0,-0.7224,0.403,-0.0765,0.7205,-0.4338,0.1253,0
0,-0.7234,0.3714,-0.0755,0.7098,-0.4252,0.157,0
0,-0.7265,0.3582,-0.0704,0.7337,-0.4175,0.1864,0
0,-0.7499,0.3459,-0.0652,0.7915,-0.4307,0.2039,0
0,-0.7551,0.3765,-0.0469,0.8668,-0.4643,0.206,0
0,-0.7632,0.4142,-0.0295,0.883,-0.4938,0.1591,0
0,-0.7581,0.4112,-0.0255,0.8471,-0.5244,0.0719,0
0,-0.7602,0.3898,-0.053,0.8471,-0.5244,0.0719,0
0,-0.7602,0.3898,-0.053,0.8405,-0.5473,0.0206,0
0,-0.7418,0.4041,-0.0418,0.8842,-0.5505,0.0337,0
0,-0.7449,0.4347,-0.0204,0.8874,-0.5233,0.0545,0
0,-0.749,0.4061,-0.0438,0.8634,-0.5026,0.0523,0
0,-0.7367,0.3806,-0.0551,0.8787,-0.5124,0.0664,0
0,-0.7122,0.3796,-0.0541,0.9278,-0.5287,0.0904,0
0,-0.6642,0.3775,-0.051,0.9168,-0.5091,0.0795,0
0,-0.6479,0.3448,-0.0581,0.8765,-0.471,0.0479,0
0,-0.6245,0.3265,-0.0704,0.8853,-0.4448,0.024,0
0,-0.5295,0.3479,0.0306,0.8853,-0.4448,0.024,0
0,-0.5816,0.3796,-0.0928,0.9103,-0.4219,-0.0196,0
0,-0.5816,0.3796,-0.0928,0.9071,-0.3804,-0.1013,0
0,-0.4775,0.403,-0.0265,0.9572,-0.4044,-0.2081,0
0,-0.5714,0.549,-0.0745,1.0423,-0.3783,-0.2987,0
0,-0.6867,0.6357,-0.1622,1.0706,-0.2888,-0.412,0
0,-0.7857,0.7234,-0.1785,1.0543,-0.2005,-0.5299,0
1,-0.9316,0.7959,-0.251,1.0433,-0.1297,-0.6465,0
1,-1.3347,0.8479,-0.3806,1.124,-0.0915,-0.7205,0
1,-1.4224,0.8184,-0.3857,1.124,-0.0915,-0.7205,0
1,-1.4622,0.8714,-0.3091,1.2712,-0.0806,-0.7239,0
1,-1.3143,0.7949,-0.2306,1.3485,-0.085,-0.6411,0
1,-1.3143,0.7949,-0.2306,1.185,-0.0828,-0.495,0
1,-1.2418,0.6612,-0.2428,0.8525,-0.0774,-0.2201,0
1,-1.2112,0.5265,-0.3286,0.5822,-0.1079,0.1123,0
1,-1.0663,0.4265,-0.4377,0.5614,-0.193,0.3739,0
1,-1.0051,0.5092,-0.4357,0.7064,-0.2485,0.496,0
1,-0.8877,0.6112,-0.4112,0.7522,-0.2191,0.4458,0
1,-0.8224,0.6224,-0.4642,0.701,-0.1503,0.3216,0
1,-0.7234,0.7092,-0.4377,0.7119,-0.1003,0.3248,0
1,-0.7234,0.7092,-0.4377,0.7119,-0.1003,0.3248,0
1,-0.5908,0.5612,-0.4979,0.5723,-0.0402,0.2966,0
1,-0.5908,0.5612,-0.4979,0.4884,0.0839,0.3073,0
1,-0.6612,0.4908,-0.4347,0.3521,0.2495,0.267,0
1,-0.6612,0.4908,-0.4347,0.2812,0.267,0.1852,0
1,-0.6683,0.4724,-0.4326,0.2333,0.2758,0.1188,0
1,-0.6765,0.4908,-0.4041,0.2027,0.2834,0.1221,0
1,-0.6837,0.5051,-0.3622,0.1167,0.3019,0.1035,0
1,-0.6877,0.4796,-0.3591,0.0185,0.3336,0.0566,0
1,-0.7142,0.4796,-0.3296,-0.0152,0.3412,0.0272,0
1,-0.7377,0.4724,-0.3306,-0.0457,0.3346,0.0087,0
1,-0.7479,0.4704,-0.2888,-0.0992,0.3151,0.0011,0
1,-0.7714,0.3939,-0.2949,-0.1678,0.2779,-0.0021,0
1,-0.7867,0.3846,-0.2847,-0.1678,0.2779,-0.0021,0
1,-0.7867,0.3846,-0.2847,-0.1591,0.2245,0.0228,0
1,-0.7857,0.3837,-0.2724,-0.1384,0.1842,0.0402,0
1,-0.7969,0.3714,-0.2877,-0.1461,0.1755,0.0577,0
1,-0.8143,0.3448,-0.2949,-0.1493,0.1711,0.0915,0
1,-0.8296,0.3387,-0.3071,-0.1198,0.169,0.1341,0
1,-0.8418,0.351,-0.3,-0.0763,0.1558,0.1776,0
1,-0.8714,0.3673,-0.302,-0.0599,0.1406,0.2005,0
1,-0.8826,0.3643,-0.3091,-0.061,0.1112,0.2136,0
1,-0.8928,0.3632,-0.3193,-0.0349,0.0599,0.2201,0
1,-0.8683,0.3949,-0.3163,-0.0349,0.0599,0.2201,0
1,-0.8439,0.4173,-0.3041,0.0076,-0.0021,0.2321,0
1,-0.8439,0.4173,-0.3041,0.0425,-0.0566,0.2388,0
1,-0.8204,0.4285,-0.2877,0.0392,-0.1024,0.2518,0
1,-0.7979,0.4265,-0.2745,0.0174,-0.1461,0.2627,0
1,-0.7581,0.3969,-0.2581,-0.0032,-0.1962,0.2605,0
1,-0.7388,0.3816,-0.2592,-0.0076,-0.255,0.2268,0
1,-0.7214,0.3694,-0.2449,0.0021,-0.3096,0.1711,0
1,-0.6847,0.3459,-0.2459,0.0,-0.3477,0.0992,0
1,-0.6694,0.3347,-0.2336,0.0,-0.3838,0.0316,0
1,-0.6561,0.3214,-0.2459,0.0,-0.3838,0.0316,0
1,-0.6724,0.3143,-0.2683,0.0065,-0.4229,-0.037,0
1,-0.6724,0.3143,-0.2683,0.0654,-0.4633,-0.1177,0
1,-0.6949,0.3448,-0.252,0.1995,-0.5004,-0.2125,0
1,-0.7377,0.4,-0.2316,0.3717,-0.5179,-0.3401,0
1,-0.7857,0.4694,-0.202,0.5287,-0.5102,-0.4971,0
1,-0.9479,0.6428,-0.1479,0.6749,-0.4721,-0.6236,0
1,-1.053,0.7204,-0.0898,0.7806,-0.4229,-0.6857,0
1,-1.1642,0.7438,-0.0449,0.7554,-0.4295,-0.6606,0
1,-1.2888,0.5847,-0.0663,0.7554,-0.4295,-0.6606,0
1,-1.2531,0.454,-0.1367,0.5778,-0.556,-0.5156,0
1,-1.1255,0.3632,-0.202,0.3794,-0.8067,-0.2812,0
1,-1.1255,0.3632,-0.202,0.326,-1.0488,-0.0501,0
1,-0.9918,0.4592,-0.3,0.4633,-1.099,0.1198,0
1,-0.9592,0.5887,-0.2632,0.6072,-0.9605,0.1232,0
1,-0.8939,0.6285,-0.2673,0.6062,-0.7468,-0.0698,0
1,-0.9296,0.6673,-0.2745,0.6127,-0.6127,-0.2005,0
1,-0.903,0.6744,-0.199,0.5604,-0.5854,-0.2507,0
1,-0.8245,0.6367,-0.1367,0.4797,-0.6051,-0.1755,0
1,-0.8234,0.5898,-0.1234,0.4197,-0.5822,-0.0053,0
1,-0.8694,0.4918,-0.1132,0.4197,-0.5822,-0.0053,0
1,-0.8694,0.4918,-0.1132,0.3946,-0.483,0.1875,0
1,-0.8846,0.4663,-0.0775,0.4263,-0.3891,0.3205,0
1,-0.9408,0.4642,-0.101,0.4906,-0.3674,0.3489,0
1,-0.9112,0.5438,-0.0867,0.544,-0.4229,0.3302,0
1,-0.8775,0.5591,-0.0836,0.5244,-0.4884,0.2844,0
1,-0.8632,0.5622,-0.0979,0.4742,-0.5102,0.2943,0
1,-0.8582,0.5541,-0.0816,0.4252,-0.4884,0.3422,0
1,-0.9142,0.5122,-0.053,0.4034,-0.4502,0.3739,0
1,-0.9194,0.4683,-0.0357,0.4088,-0.4557,0.338,0
1,-0.9122,0.4275,-0.0347,0.4088,-0.4557,0.338,0
1,-0.9122,0.4275,-0.0347,0.4643,-0.4818,0.3183,0
1,-0.8694,0.4163,-0.0071,0.5374,-0.5015,0.3422,0
1,-0.851,0.403,-0.0051,0.5635,-0.4971,0.3783,0
1,-0.8286,0.3734,-0.0163,0.5789,-0.4906,0.3946,0
1,-0.802,0.3561,-0.0306,0.6432,-0.4927,0.4077,0
1,-0.7561,0.3582,-0.0265,0.7195,-0.4884,0.4208,0
1,-0.7428,0.355,-0.0255,0.7621,-0.4655,0.4197,0
1,-0.7581,0.352,-0.051,0.7958,-0.4382,0.4187,0
1,-0.7531,0.353,-0.0591,0.8449,-0.4426,0.4263,0
1,-0.7051,0.3673,-0.004,0.8449,-0.4426,0.4263,0
1,-0.7388,0.3816,-0.049,0.9038,-0.4589,0.4458,0
1,-0.7388,0.3816,-0.049,0.9158,-0.4698,0.4513,0
1,-0.7347,0.3622,-0.0724,0.9103,-0.4775,0.4578,0
1,-0.701,0.3612,-0.049,0.9311,-0.496,0.4687,0
1,-0.7071,0.3694,-0.0806,0.9528,-0.52,0.4721,0
1,-0.6663,0.3734,-0.0745,0.9561,-0.5473,0.4578,0
1,-0.6082,0.3673,-0.1132,0.9431,-0.5604,0.4611,0
1,-0.5663,0.3683,-0.1143,0.9288,-0.5669,0.4763,0
1,-0.5449,0.3643,-0.1316,0.8994,-0.556,0.4971,0
1,-0.4847,0.3428,-0.1469,0.8994,-0.556,0.4971,0
1,-0.4571,0.3357,-0.15,0.858,-0.5461,0.5091,0
1,-0.4571,0.3357,-0.15,0.8144,-0.5265,0.5135,0
1,-0.4316,0.3387,-0.15,0.7773,-0.5112,0.5004,0
1,-0.3734,0.3286,-0.1673,0.7327,-0.4731,0.4721,0
1,-0.3561,0.3091,-0.1255,0.6694,-0.4458,0.4633,0
1,-0.3663,0.2928,-0.1744,0.6486,-0.3958,0.424,0
1,-0.3489,0.2898,-0.1581,0.6781,-0.3783,0.3586,0
1,-0.351,0.3234,-0.1285,0.7086,-0.339,0.2682,0
1,-0.3336,0.3184,-0.1112,0.7086,-0.339,0.2682,0
1,-0.3663,0.3173,-0.1265,0.7108,-0.2649,0.1613,0
1,-0.4377,0.3387,-0.0989,0.7249,-0.1755,0.073,0
1,-0.4377,0.3387,-0.0989,0.7577,-0.1089,-0.0206,0
1,-0.4969,0.3683,-0.0948,0.7926,-0.0675,-0.1242,0
2,-0.5295,0.3755,-0.0908,0.7926,-0.0621,-0.2495,0
2,-0.6082,0.4203,-0.0939,0.785,-0.073,-0.3401,0
2,-0.6541,0.4347,-0.1071,0.7642,-0.0828,-0.4044,0
2,-0.6867,0.4387,-0.1163,0.7304,-0.1024,-0.4818,0
2,-0.7081,0.4244,-0.1204,0.6879,-0.1274,-0.557,0
2,-0.703,0.3857,-0.1551,0.6367,-0.157,-0.5996,0
2,-0.703,0.3857,-0.1551,0.6367,-0.157,-0.5996,0
2,-0.7092,0.3969,-0.1735,0.6039,-0.1732,-0.6018,0
2,-0.7326,0.4316,-0.2071,0.6127,-0.1623,-0.6007,0
2,-0.9142,0.5877,-0.2786,0.6835,-0.1188,-0.5854,0
2,-1.05,0.7224,-0.3193,0.7435,-0.0511,-0.5124,0
2,-1.2459,0.8796,-0.3949,0.7272,0.0131,-0.4044,0
2,-1.4622,1.1642,-0.6316,0.7447,0.0087,-0.3031,0
2,-1.7336,1.2285,-0.704,0.9278,-0.0446,-0.1657,0
2,-1.7938,1.3469,-0.6785,1.0575,0.0021,0.2049,0
2,-1.652,1.3428,-0.5122,0.5757,-0.0294,0.6039,0
2,-0.8622,0.7122,-0.5745,-0.351,-0.3968,1.0837,0
2,-0.7622,0.6653,-0.6082,-0.3248,-0.4088,1.0532,0
2,-0.8602,0.5336,-0.5684,-0.3248,-0.4088,1.0532,0
2,-0.853,0.451,-0.4612,-0.3281,-0.1461,0.7991,0
2,-0.853,0.451,-0.4612,-0.2878,0.1123,0.4786,0
2,-0.855,0.5102,-0.4347,0.0698,0.4164,0.2922,0
2,-1.1806,0.9122,-0.1714,0.4622,0.6247,0.1428,0
2,-1.2326,0.9561,-0.2245,0.3848,0.6083,-0.074,0
2,-1.1337,0.8112,-0.3091,-0.0435,0.2932,-0.4382,0
2,-0.9571,0.8071,-0.3561,-0.1515,-0.1657,-0.4655,0
2,-0.7857,0.7561,-0.353,-0.2714,-0.3521,-0.3706,0
2,-0.704,0.5928,-0.3224,-0.2714,-0.3521,-0.3706,0
2,-0.704,0.5928,-0.3224,-0.6312,-0.2016,-0.2834,0
2,-0.8969,0.3898,-0.2551,-0.7981,0.0511,-0.1635,0
2,-0.8969,0.3898,-0.2551,-0.6323,0.1613,-0.0774,0
2,-0.8826,0.4265,-0.1622,-0.3794,0.2245,-0.0828,0
2,-0.8734,0.4285,-0.1163,-0.3412,0.2376,-0.0839,0
2,-0.8387,0.3286,-0.1091,-0.3532,0.2747,-0.0435,0
2,-0.802,0.3785,-0.105,-0.2027,0.1438,0.1035,0
2,-0.8163,0.501,-0.0857,-0.0751,-0.0763,0.2115,0
2,-0.6765,0.4806,-0.1377,-0.2191,-0.2442,0.0839,0
2,-0.5092,0.4142,-0.2316,-0.2954,-0.3107,0.0032,0
2,-0.4418,0.4051,-0.2234,-0.2954,-0.3107,0.0032,0
2,-0.4418,0.4051,-0.2234,-0.2617,-0.3031,-0.0162,0
2,-0.4316,0.3775,-0.2683,-0.242,-0.206,-0.0719,0
2,-0.4235,0.3326,-0.2265,-0.2529,-0.0686,-0.1123,0
2,-0.453,0.2745,-0.2795,-0.3008,0.0435,-0.2039,0
2,-0.4622,0.2653,-0.249,-0.2682,0.1013,-0.2693,0
2,-0.4765,0.2765,-0.2194,-0.2093,0.085,-0.3227,0
2,-0.4959,0.3132,-0.1775,-0.1798,0.0446,-0.387,0
2,-0.5224,0.3286,-0.1622,-0.1864,-0.0021,-0.4589,0
2,-0.551,0.3286,-0.1673,-0.2093,-0.037,-0.5516,0
2,-0.6091,0.3602,-0.1234,-0.2093,-0.037,-0.5516,0
2,-0.6091,0.3602,-0.1234,-0.193,-0.0806,-0.6203,0
2,-0.6357,0.3775,-0.1204,-0.1667,-0.1188,-0.6682,0
2,-0.6541,0.3734,-0.1082,-0.1776,-0.1428,-0.6988,0
2,-0.6938,0.3041,-0.103,-0.2256,-0.1591,-0.702,0
2,-0.7,0.2581,-0.0989,-0.2659,-0.181,-0.665,0
2,-0.702,0.252,-0.0734,-0.2474,-0.2125,-0.5789,0
2,-0.6959,0.2683,-0.0591,-0.194,-0.2234,-0.4797,0
2,-0.7704,0.3816,-0.0051,-0.0937,-0.1798,-0.3597,0
2,-0.8591,0.4857,0.0,0.0402,-0.074,-0.2104,0
2,-1.0,0.6234,0.0031,0.0402,-0.074,-0.2104,0
2,-1.4826,1.201,-0.0928,0.2268,0.0534,-0.0566,0
2,-1.4826,1.201,-0.0928,0.5549,0.2518,0.0643,0
2,-1.7531,1.3061,0.3877,0.9092,0.4338,0.0631,0
2,1.6704,1.553,0.4622,0.8624,0.4393,0.1362,0
2,-1.3724,0.4367,-0.0581,-0.1471,-0.4197,0.3663,0
2,-1.0541,0.1255,-0.0183,-0.9626,-0.4361,0.701,0
2,-0.9194,0.299,-0.1775,-0.6715,-0.5647,1.1327,0
2,-0.9836,0.3275,-0.302,-0.0152,-0.5843,1.209,0
2,-0.85,0.7724,0.0408,-0.0152,-0.5843,1.209,0
2,-0.9142,1.2173,0.0398,0.6585,-0.6028,1.0379,0
2,-1.0377,1.0643,-0.2101,1.003,-0.3935,0.6442,0
2,-1.0377,1.0643,-0.2101,0.3271,0.1373,0.0206,0
2,-1.2367,0.5887,-0.0908,-0.3422,0.1755,-0.2071,0
2,-1.2765,0.4203,-0.2357,-0.4012,0.0577,-0.3663,0
2,-1.0357,0.5306,-0.0071,-0.0621,-0.255,-0.3216,0
2,-0.9377,0.4928,-0.0612,0.0206,-0.242,-0.193,0
2,-1.0081,0.4244,-0.1551,-0.0948,0.0097,-0.0206,0
2,-1.0591,0.4622,-0.1,-0.0643,0.1951,0.1308,0
2,-0.9612,0.5214,-0.0163,0.0337,0.1274,0.2268,0
2,-0.9612,0.5214,-0.0163,0.0337,0.1274,0.2268,0
2,-0.7551,0.4244,-0.0551,-0.0282,-0.0108,0.1657,0
2,-0.7551,0.4244,-0.0551,-0.1438,-0.0555,0.0392,0
2,-0.6979,0.3979,-0.05,-0.1057,-0.0457,0.0523,0
2,-0.6357,0.3775,0.0714,-0.0469,-0.0425,0.0589,0
2,-0.5959,0.2786,0.0428,-0.0959,-0.0294,-0.0457,0
2,-0.5102,0.252,0.1489,-0.0904,-0.0872,-0.0751,0
2,-0.5551,0.2755,0.1377,-0.0108,-0.1613,-0.0643,0
2,-0.4071,0.1918,0.1928,0.0021,-0.2049,-0.1003,0
2,-0.4214,0.1541,0.1418,0.0501,-0.2049,-0.1232,0
2,-0.4203,0.1571,0.1387,0.0501,-0.2049,-0.1232,0
2,-0.4203,0.1571,0.1387,0.1776,-0.1623,-0.1232,0
2,-0.4857,0.1551,0.0847,0.3117,-0.073,-0.1188,0
2,-0.5306,0.1735,0.0673,0.4437,0.0511,-0.1417,0
2,-0.5796,0.2275,0.0367,0.5647,0.1253,-0.1962,0
2,-0.6755,0.3132,-0.0051,0.6333,0.1503,-0.3041,0
2,-0.7183,0.3469,-0.0581,0.6454,0.1089,-0.4273,0
2,-0.7092,0.4071,-0.0755,0.6388,-0.0053,-0.4906,0
2,-0.6581,0.4408,-0.0979,0.5778,-0.0959,-0.4807,0
2,-0.7296,0.4714,-0.1612,0.5004,-0.0523,-0.4132,0
2,-0.7367,0.4316,-0.1938,0.5004,-0.0523,-0.4132,0
2,-0.7367,0.4316,-0.1938,0.3848,0.0469,-0.3924,0
2,-0.7397,0.4337,-0.2408,0.3346,0.1657,-0.387,0
2,-0.801,0.5214,-0.2194,0.3336,0.2093,-0.3466,0
2,-0.8602,0.5326,-0.252,0.2659,0.2376,-0.2888,0
2,-0.8877,0.5204,-0.2663,0.1297,0.2398,-0.1787,0
2,-0.9377,0.5388,-0.2836,0.0053,0.1995,0.0043,0
2,-0.9102,0.549,-0.3041,-0.1057,0.1449,0.1951,0
2,-0.9877,0.6,-0.401,-0.1384,0.1198,0.326,0
3,-1.0806,0.6571,-0.4714,0.0174,0.0664,0.3641,0
3,-1.5031,0.8479,-0.5979,0.0174,0.0664,0.3641,0
3,-1.6061,0.951,-0.6541,0.326,0.037,0.3663,0
3,-1.6061,0.951,-0.6541,0.5538,0.1297,0.3924,0
3,-1.5336,1.0245,-0.5969,0.5276,0.1852,0.4328,0
3,-1.1724,0.9979,-0.4469,0.3489,0.1995,0.3838,0
3,-1.102,0.8785,-0.4581,0.0664,0.2693,0.2911,0
3,-1.0275,0.6612,-0.4826,-0.3685,0.4065,0.2573,0
3,-1.0551,0.3826,-0.4857,-0.6377,0.556,0.3586,0
3,-1.1449,0.4235,-0.4745,-0.4927,0.6323,0.5233,0
3,-1.1581,0.501,-0.3734,-0.1428,0.6803,0.5745,0
3,-1.1571,0.699,-0.2153,-0.1428,0.6803,0.5745,0
3,-1.2214,0.7092,-0.1346,0.1013,0.6923,0.5484,0
3,-1.2214,0.7092,-0.1346,-0.0686,0.6846,0.3935,0
3,-1.2377,0.55,-0.2479,-0.4273,0.5179,0.1722,0
3,-1.1377,0.504,-0.2632,-0.4589,0.1657,0.0631,0
3,-0.9428,0.5765,-0.2377,-0.3325,-0.1308,0.0076,0
3,-0.8796,0.5214,-0.2347,-0.424,-0.1547,-0.037,0
3,-0.8734,0.3979,-0.2724,-0.6062,-0.0457,-0.0131,0
3,-0.7602,0.4265,-0.1918,-0.3248,-0.0654,0.2256,0
3,-0.6847,0.4428,-0.1632,-0.2474,-0.1089,0.2812,0
3,-0.652,0.4092,-0.201,-0.3336,-0.1068,0.2474,0
3,-0.5449,0.3418,-0.2326,-0.363,-0.1167,0.2289,0
3,-0.5153,0.3448,-0.2479,-0.363,-0.1167,0.2289,0
3,-0.5153,0.3448,-0.2479,-0.3128,-0.1417,0.2278,0
3,-0.4694,0.3632,-0.2377,-0.2867,-0.1198,0.2201,0
3,-0.3959,0.2969,-0.2428,-0.338,-0.0523,0.1875,0
3,-0.3939,0.2602,-0.2561,-0.4065,-0.0076,0.1766,0
3,-0.3989,0.2622,-0.252,-0.3958,-0.0032,0.1766,0
3,-0.352,0.2347,-0.2347,-0.3575,-0.0206,0.1657,0
3,-0.3398,0.2397,-0.2194,-0.3619,-0.0425,0.1373,0
3,-0.3336,0.2367,-0.202,-0.3695,-0.0446,0.074,0
3,-0.3541,0.2459,-0.1979,-0.3565,-0.0435,0.0043,0
3,-0.3846,0.2561,-0.1541,-0.3565,-0.0435,0.0043,0
3,-0.4153,0.2734,-0.1234,-0.339,-0.0316,-0.0555,0
3,-0.4153,0.2734,-0.1234,-0.3008,0.0043,-0.1167,0
3,-0.4612,0.301,-0.1143,-0.2573,0.0402,-0.1896,0
3,-0.5724,0.3469,-0.0898,-0.2115,0.0708,-0.2693,0
3,-0.6398,0.3643,-0.0867,-0.1766,0.0621,-0.3445,0
3,-0.6877,0.3846,-0.0612,-0.1547,-0.0217,-0.4012,0
3,-0.7122,0.3918,-0.0418,-0.1657,-0.169,-0.4372,0
3,-0.6755,0.3265,-0.0336,-0.2245,-0.326,-0.4426,0
3,-0.651,0.2663,-0.0581,-0.3205,-0.4295,-0.3935,0
3,-0.6112,0.2112,-0.0449,-0.3205,-0.4295,-0.3935,0
3,-0.5775,0.1867,-0.0745,-0.3859,-0.4797,-0.2844,0
3,-0.5775,0.1867,-0.0745,-0.3586,-0.4742,-0.1623,0
3,-0.5734,0.2449,-0.0622,-0.242,-0.4219,-0.0534,0
3,-0.6041,0.3428,-0.0377,-0.0795,-0.3063,0.012,0
3,-0.7693,0.6541,-0.0347,0.0545,-0.1318,0.0076,0
3,-1.0183,0.9857,0.0163,0.2737,0.0402,-0.1089,0
3,1.9316,1.6683,0.4581,0.8405,0.2213,-0.2834,0
3,1.5419,1.6867,-0.2643,1.437,-0.1907,-0.3346,0
3,-1.8643,1.2173,0.4306,1.437,-0.1907,-0.3346,0
3,-1.8643,1.2173,0.4306,0.8819,-0.4851,-0.1417,0
3,-1.8877,0.3714,-0.0469,-0.4252,0.0643,0.3292,0
3,-1.3755,0.2234,0.1285,-1.052,0.098,0.9648,0
3,-1.2408,0.3734,-0.2571,-0.5679,-0.0937,1.4183,0
3,-1.1041,0.5428,-0.2081,0.2507,-0.5102,1.4849,0
3,-0.9847,0.8143,-0.0224,1.0074,-0.9637,1.2505,0
3,-0.902,1.2408,-0.4663,1.1611,-0.954,0.7468,0
3,-0.8796,1.1418,-0.0418,0.3979,-0.4546,0.1406,0
3,-0.8928,0.7888,-0.0622,-0.2834,-0.3815,0.1057,0
3,-1.1224,0.4367,-0.2234,-0.2834,-0.3815,0.1057,0
3,-1.1224,0.4367,-0.2234,-0.5091,-0.0305,-0.1123,0
3,-1.0081,0.4224,-0.0275,-0.0643,-0.1177,-0.1068,0
3,-0.9938,0.6428,-0.0438,0.4763,-0.2409,0.0774,0
3,-0.9194,0.7612,0.0112,0.5908,-0.2049,0.2812,0
3,-0.9265,0.6255,-0.1428,0.2693,-0.0534,0.363,0
3,-0.8275,0.5989,-0.1255,0.1167,0.0032,0.4023,0
3,-0.701,0.6918,-0.004,0.2071,-0.1068,0.4317,0
3,-0.7336,0.7377,-0.0479,0.1766,-0.098,0.4601,0
3,-0.6224,0.5051,-0.0693,-0.1493,-0.0621,0.3107,0
3,-0.5745,0.4387,-0.049,-0.1493,-0.0621,0.3107,0
3,-0.5755,0.4938,0.0153,-0.3117,-0.0686,0.2529,0
3,-0.5755,0.4938,0.0153,-0.1831,-0.1657,0.2693,0
3,-0.4581,0.4806,0.0796,-0.1167,-0.2027,0.2321,0
3,-0.4418,0.4194,0.0959,-0.2115,-0.1744,0.2104,0
3,-0.4612,0.3469,0.0765,-0.2998,-0.1123,0.1831,0
3,-0.3428,0.2867,0.1346,-0.2573,-0.0948,0.1482,0
3,-0.4092,0.2632,0.0877,-0.1318,-0.0511,0.1188,0
3,-0.4214,0.2673,0.0969,0.0141,0.073,0.0272,0
3,-0.4153,0.2928,0.1091,0.1558,0.1493,-0.0457,0
3,-0.4888,0.3081,0.0714,0.1558,0.1493,-0.0457,0
3,-0.5295,0.3102,0.0357,0.2344,0.2104,-0.1417,0
3,-0.5295,0.3102,0.0357,0.2823,0.2115,-0.2136,0
3,-0.5,0.3204,-0.0081,0.3237,0.1253,-0.2605,0
3,-0.5306,0.4071,-0.051,0.3739,0.085,-0.2856,0
3,-0.5306,0.3959,-0.0796,0.3663,0.1428,-0.3412,0
3,-0.55,0.401,-0.1337,0.3336,0.2115,-0.4317,0
3,-0.5643,0.5112,-0.1102,0.3663,0.2354,-0.4546,0
3,-0.6112,0.5326,-0.1489,0.3422,0.2442,-0.4763,0
3,-0.6877,0.551,-0.199,0.2638,0.2627,-0.4992,0
3,-0.7806,0.5918,-0.2581,0.2638,0.2627,-0.4992,0
3,-0.9877,0.7663,-0.3582,0.23,0.2703,-0.5026,0
3,-0.9877,0.7663,-0.3582,0.2649,0.2682,-0.4906,0
3,-1.0948,0.8704,-0.3918,0.2562,0.2617,-0.4666,0
3,-1.2214,0.9673,-0.4479,0.1526,0.2747,-0.4426,0
3,-1.451,0.9979,-0.4633,0.0566,0.2779,-0.4109,0
3,-1.3816,0.9836,-0.4081,0.0196,0.2693,-0.3205,0
3,-1.2683,0.9387,-0.3683,-0.0162,0.3085,-0.1264,0
3,-0.9357,0.8112,-0.2622,-0.0828,0.4295,0.085,0
3,-0.9622,0.8051,-0.2877,-0.1024,0.5004,0.351,0
3,-1.0132,0.7806,-0.3,-0.1024,0.5004,0.351,0
3,-1.0132,0.7806,-0.3,-0.0839,0.6388,0.5135,0
3,-1.0193,0.7122,-0.3582,-0.1057,0.6661,0.5516,0
3,-1.1255,0.6857,-0.3959,-0.0523,0.6159,0.508,0
3,-1.0673,0.7214,-0.3428,0.0282,0.5036,0.4153,0
3,-1.1071,0.7888,-0.3204,0.074,0.4,0.3151,0
3,-1.0204,0.7183,-0.3296,-0.0141,0.3532,0.1297,0
3,-0.9928,0.7347,-0.2765,-0.0959,0.2812,-0.0349,0
4,-0.9051,0.7265,-0.2561,-0.1047,0.1984,-0.1057,0
4,-0.852,0.6439,-0.2255,-0.1951,0.1864,-0.1657,0
4,-0.8377,0.5693,-0.2071,-0.1951,0.1864,-0.1657,0
4,-0.8377,0.5693,-0.2071,-0.326,0.1972,-0.1503,0
4,-0.8541,0.501,-0.2296,-0.4164,0.2125,-0.1112,0
4,-0.8428,0.4694,-0.2142,-0.4143,0.2005,-0.0589,0
4,-0.7816,0.4551,-0.204,-0.3729,0.1591,-0.0162,0
4,-0.7418,0.4469,-0.1918,-0.338,0.1318,-0.012,0
4,-0.7142,0.4326,-0.1877,-0.3117,0.1167,-0.0065,0
4,-0.6489,0.4102,-0.1744,-0.3008,0.0992,0.0108,0
4,-0.6204,0.4061,-0.1765,-0.2823,0.0806,0.0577,0
4,-0.5969,0.3969,-0.1918,-0.2693,0.061,0.0894,0
4,-0.5286,0.3949,-0.2204,-0.2693,0.061,0.0894,0
4,-0.5071,0.4357,-0.2173,-0.2605,0.049,0.1079,0
4,-0.5071,0.4357,-0.2173,-0.2289,0.0414,0.1003,0
4,-0.4765,0.4337,-0.2316,-0.2453,0.0381,0.086,0
4,-0.4663,0.4275,-0.2479,-0.3271,0.049,0.0599,0
4,-0.402,0.3489,-0.2459,-0.4187,0.0555,0.0381,0
4,-0.403,0.3296,-0.2693,-0.5036,0.024,0.0261,0
4,-0.3428,0.2592,-0.2377,-0.5604,-0.1013,-0.0414,0
4,-0.3469,0.25,-0.2296,-0.5635,-0.1558,-0.1144,0
4,-0.355,0.2418,-0.2101,-0.5702,-0.1635,-0.1864,0
4,-0.3387,0.2285,-0.1826,-0.556,-0.1177,-0.2649,0
4,-0.3867,0.2316,-0.1367,-0.495,0.0021,-0.339,0
4,-0.4235,0.2408,-0.1082,-0.387,0.1907,-0.424,0
4,-0.4694,0.25,-0.0948,-0.2583,0.388,-0.5102,0
4,-0.5438,0.352,0.053,-0.2583,0.388,-0.5102,0
4,-0.6224,0.2857,-0.0061,-0.1024,0.5211,-0.5843,0
4,-0.6224,0.2857,-0.0061,-0.0839,0.5528,-0.6345,0
4,-0.8979,0.4214,0.1724,-0.1089,0.4317,-0.6465,0
4,-0.4408,0.2602,0.0561,-0.218,-0.1079,-0.6312,0
4,-0.6398,0.299,-0.1592,-0.2268,-0.4448,-0.6106,0
4,-0.5449,0.3184,-0.0796,-0.1123,-0.3205,-0.6497,0
4,-0.7551,0.4826,-0.1653,0.0894,-0.0904,-0.6257,0
4,-1.353,0.8377,-0.3234,0.2888,0.1198,-0.6411,0
4,-1.4704,1.2418,0.2122,0.2115,-0.1482,-0.6203,0
4,-1.9745,1.4734,0.0265,0.2115,-0.1482,-0.6203,0
4,-1.8091,1.5112,0.3296,0.5418,-0.2442,-0.5385,0
4,-1.8091,1.5112,0.3296,0.9626,-0.2573,-0.4088,0
4,-1.7163,0.9826,0.0939,0.5047,-0.2354,-0.0839,0
4,-1.4377,0.3653,-0.0275,-0.5822,0.1503,0.2518,0
4,-1.1102,0.3143,-0.153,-0.9452,0.1493,0.6018,0
4,-1.1622,0.3989,-0.1622,-0.3641,0.0316,0.7806,0
4,-1.0102,0.4816,-0.1337,0.2966,-0.3073,0.8264,0
4,-0.9092,0.7081,0.1122,0.7544,-0.6257,0.8405,0
4,-1.052,0.9847,-0.0939,0.7533,-0.5091,0.689,0
4,-1.0132,0.6714,-0.0979,0.7533,-0.5091,0.689,0
4,-1.0132,0.6714,-0.0979,-0.0545,-0.182,0.2474,0
4,-1.0673,0.4908,-0.1755,-0.4568,-0.073,-0.0097,0
4,-1.0398,0.4918,-0.0643,-0.1003,-0.1253,-0.1177,0
4,-0.9642,0.6663,0.0,0.3445,-0.2779,-0.0937,0
4,-1.0143,0.6449,-0.0183,0.4328,-0.1864,-0.0523,0
4,-0.9428,0.3989,-0.1469,0.11,0.0196,-0.0282,0
4,-0.9081,0.4663,-0.1255,0.0959,0.0708,0.1384,0
4,-0.7693,0.5836,-0.0652,0.3434,-0.0011,0.242,0
4,-0.7122,0.6296,-0.0418,0.3826,-0.0261,0.2442,0
4,-0.6367,0.451,-0.0734,0.3826,-0.0261,0.2442,0
4,-0.6367,0.451,-0.0734,0.1373,0.0469,0.2278,0
4,-0.6224,0.3734,-0.052,-0.0751,0.0894,0.2191,0
4,-0.5643,0.3806,-0.0255,0.0076,0.0021,0.2649,0
4,-0.5775,0.3989,0.0265,0.1438,-0.1057,0.2714,0
4,-0.5081,0.3489,0.101,0.1396,-0.1133,0.194,0
4,-0.4918,0.3143,0.1224,0.061,-0.1373,0.1591,0
4,-0.4683,0.2561,0.1459,0.0566,-0.1144,0.1362,0
4,-0.4357,0.2418,0.1337,0.1209,-0.1123,0.1155,0
4,-0.4479,0.2561,0.1551,0.23,-0.1297,0.1024,0
4,-0.4581,0.2388,0.1449,0.23,-0.1297,0.1024,0
4,-0.4888,0.1969,0.0612,0.3052,-0.1123,0.0545,0
4,-0.4888,0.1969,0.0612,0.3412,-0.0806,-0.037,0
4,-0.4806,0.2214,0.0428,0.4295,-0.0818,-0.1297,0
4,-0.4877,0.254,0.0163,0.5418,-0.0937,-0.1962,0
4,-0.4704,0.2632,-0.049,0.5877,-0.085,-0.2758,0
4,-0.4775,0.2867,-0.0847,0.5745,-0.061,-0.3412,0
4,-0.4888,0.3224,-0.101,0.5984,-0.0414,-0.3597,0
4,-0.5377,0.3785,-0.1469,0.6497,-0.0337,-0.3794,0
4,-0.7122,0.5092,-0.2581,0.6923,-0.0272,-0.4023,0
4,-0.7867,0.5959,-0.3408,0.6923,-0.0272,-0.4023,0
4,-0.8846,0.7173,-0.4224,0.713,-0.0326,-0.399,0
4,-0.8846,0.7173,-0.4224,0.6705,-0.0228,-0.3891,0
4,-1.1673,0.9806,-0.6653,0.581,-0.0053,-0.412,0
4,-1.5622,1.1224,-0.8296,0.5494,-0.0162,-0.5331,0
4,-1.9244,1.2857,-1.0061,0.8373,-0.1112,-0.6803,0
4,-1.3704,1.5306,-0.6785,1.1873,-0.2682,-0.6411,0
4,-1.1377,1.3755,-0.5112,0.9473,-0.2529,-0.5408,0
4,-1.0204,0.9326,-0.5684,-0.025,0.0969,-0.495,0
4,-0.951,0.4633,-0.6785,-1.1207,0.4361,-0.3695,0
4,-1.0449,0.3734,-0.6265,-1.1207,0.4361,-0.3695,0
4,-1.0265,0.3796,-0.55,-1.329,0.5396,-0.1188,0
4,-1.0265,0.3796,-0.55,-0.8765,0.5505,0.0959,0
4,-1.0336,0.4357,-0.4051,-0.3968,0.5887,0.2998,0
4,-1.2673,0.5469,-0.5479,0.0523,0.6236,0.3848,0
4,-0.9796,0.7908,0.2571,0.0261,0.2376,0.3794,0
4,-1.3775,0.5684,-0.3448,-0.2725,0.1318,0.3565,0
4,-1.151,0.4897,-0.1581,-0.4481,0.2376,0.2409,0
4,-1.249,0.5214,-0.3653,-0.2966,0.1144,0.2485,0
4,-1.0295,0.551,-0.1285,-0.0457,0.0174,0.2039,0
4,-0.9704,0.6765,-0.1622,-0.0457,0.0174,0.2039,0
4,-0.9704,0.6765,-0.1622,-0.0108,-0.098,0.1167,0
4,-0.9112,0.4347,-0.2092,-0.2627,0.036,-0.0076,0
4,-0.851,0.3326,-0.2214,-0.5582,0.11,0.0065,0
4,-0.8306,0.3163,-0.2101,-0.4742,0.085,0.1406,0
4,-0.699,0.3979,-0.1296,-0.2071,0.024,0.2627,0
4,-0.6632,0.4132,-0.1459,-0.024,0.0883,0.3128,0
4,-0.6234,0.3683,-0.1898,-0.024,0.0883,0.3128,0
4,-0.603,0.4071,-0.2306,-0.0631,0.1526,0.2998,0
4,-0.5551,0.4061,-0.2622,0.0011,0.1438,0.3063,0
4,-0.5031,0.452,-0.2316,0.0011,0.1438,0.3063,0
4,-0.5031,0.452,-0.2316,0.0392,0.1024,0.2737,0
4,-0.5031,0.4377,-0.2734,-0.157,0.0,0.1907,0
4,-0.4347,0.3408,-0.2979,-0.157,0.0,0.1907,0
5,-0.4724,0.3439,-0.3051,-0.1972,-0.0414,0.1667,0
5,-0.4142,0.3387,-0.2418,-0.1842,-0.0784,0.1558,0
5,-0.4357,0.2795,-0.249,-0.2344,-0.0937,0.1297,0
5,-0.4357,0.2734,-0.2224,-0.2954,-0.0206,-0.0053,0
5,-0.454,0.2938,-0.1969,-0.2954,-0.0206,-0.0053,0
5,-0.4367,0.3081,-0.1541,-0.2464,0.0534,-0.0784,0
5,-0.5112,0.3184,-0.1255,-0.2464,0.0534,-0.0784,0
5,-0.7245,0.451,0.1194,-0.1362,0.2453,-0.2768,0
5,-0.7245,0.451,0.1194,-0.1047,0.1711,-0.3128,0
5,-0.8398,0.3163,-0.2928,-0.1919,-0.3412,-0.2333,0
5,-0.6622,0.3102,-0.1703,-0.0545,-0.2289,-0.2518,0
5,-0.951,0.4275,0.0326,-0.0196,-0.2049,-0.3073,0
5,-0.5745,0.2336,-0.151,-0.0108,-0.3729,-0.2474,0
5,-0.8479,0.3591,-0.0786,0.0174,-0.3193,-0.2518,0
5,-0.6663,0.2949,-0.1204,-0.0316,-0.3641,-0.1972,0
5,-0.7581,0.3428,-0.0591,0.0076,-0.3477,-0.1635,0
5,-0.7122,0.3265,-0.0969,0.0076,-0.3477,-0.1635,0
5,-0.7347,0.4224,-0.0908,0.0839,-0.3783,-0.1264,0
5,-0.7347,0.4224,-0.0908,0.1896,-0.3968,-0.0948,0
5,-0.903,0.7531,-0.0908,0.2638,-0.3739,-0.0839,0
5,-1.0336,0.8286,-0.0693,0.2605,-0.3401,-0.1274,0
5,-1.0336,0.8286,-0.0693,0.3172,-0.3205,-0.1678,0
5,-1.2101,0.9306,-0.0224,0.3521,-0.2867,-0.1167,0
5,-1.4785,1.0377,0.0255,0.2474,-0.23,0.0686,0
5,-1.4622,1.0183,0.0286,0.0381,-0.1766,0.3914,0
5,-1.5102,0.9224,-0.001,-0.1286,-0.1274,0.6465,0
5,-1.4347,0.8071,-0.0265,-0.0969,-0.1711,0.7086,0
5,-1.2959,0.7622,-0.051,0.1209,-0.2474,0.677,0
5,-1.1837,0.7745,-0.0326,0.1962,-0.2605,0.5702,0
5,-1.1602,0.7704,-0.0652,0.1962,-0.2605,0.5702,0
5,-1.1602,0.7704,-0.0652,0.1003,-0.1787,0.5179,0
5,-1.0939,0.6592,-0.1428,0.0141,-0.1068,0.4938,0
5,-1.051,0.6785,-0.1357,0.074,-0.0795,0.4786,0
5,-0.9694,0.699,-0.0928,0.0872,-0.0261,0.3859,0
5,-0.9081,0.5612,-0.0989,0.0435,0.0675,0.2899,0
5,-0.8785,0.4836,-0.0989,0.049,0.1242,0.2714,0
5,-0.8571,0.4244,-0.1214,0.1329,0.1396,0.2791,0
5,-0.8306,0.403,-0.1122,0.2442,0.1329,0.3019,0
5,-0.8143,0.4724,-0.1122,0.3227,0.1167,0.2899,0
5,-0.7704,0.5234,-0.0948,0.3227,0.1167,0.2899,0
5,-0.7704,0.5234,-0.0948,0.3477,0.1013,0.2365,0
5,-0.7428,0.5755,-0.0775,0.3041,0.1155,0.2027,0
5,-0.7122,0.5775,-0.0786,0.193,0.1286,0.1919,0
5,-0.6979,0.5469,-0.0816,0.0959,0.1297,0.2245,0
5,-0.702,0.5173,-0.0745,0.0414,0.1123,0.2495,0
5,-0.6265,0.4836,-0.0275,0.0196,0.0795,0.2703,0
5,-0.6071,0.4653,-0.0193,-0.0076,0.061,0.2791,0
5,-0.553,0.4265,0.0061,-0.0545,0.0479,0.2823,0
5,-0.5388,0.3908,0.0214,-0.0708,0.049,0.2779,0
5,-0.4796,0.3418,0.0316,-0.0708,0.049,0.2779,0
5,-0.4163,0.3479,0.0551,-0.036,0.0349,0.2539,0
5,-0.4163,0.3479,0.0551,0.0065,0.025,0.2104,0
5,-0.401,0.355,0.0551,0.049,0.037,0.1198,0
5,-0.3673,0.3448,0.0714,0.0599,0.0534,0.0217,0
5,-0.3837,0.3163,0.0265,0.0664,0.0774,-0.0675,0
5,-0.3204,0.2888,0.0826,0.0763,0.0763,-0.1133,0
5,-0.3928,0.2336,0.0347,0.1493,0.0992,-0.1438,0
5,-0.3928,0.2397,0.0591,0.2234,0.0818,-0.1657,0
5,-0.4275,0.2234,0.0163,0.2791,0.0839,-0.1766,0
5,-0.4561,0.2214,0.0031,0.2791,0.0839,-0.1766,0
5,-0.4816,0.2438,-0.0541,0.3041,0.0839,-0.169,0
5,-0.4816,0.2438,-0.0541,0.3575,0.0664,-0.1962,0
5,-0.5377,0.2979,-0.0826,0.4742,0.0196,-0.2453,0
5,-0.5571,0.3489,-0.1041,0.5898,-0.0446,-0.3248,0
5,-0.6428,0.502,-0.2265,0.6562,-0.0774,-0.4088,0
5,-0.7061,0.6112,-0.3102,0.7337,-0.1068,-0.496,0
5,-0.8745,0.7418,-0.451,0.8918,-0.1232,-0.6171,0
5,-1.6082,1.0918,-0.9398,1.1611,-0.11,-0.7501,0
5,-1.8071,1.3245,-0.9051,1.3279,-0.169,-0.7403,0
5,-1.6826,1.4734,-0.8959,1.3279,-0.169,-0.7403,0
5,-1.3785,1.4642,-0.8265,1.1873,-0.1068,-0.581,0
5,-1.3785,1.4642,-0.8265,0.7566,0.2278,-0.3575,0
5,-0.9255,1.1683,-0.454,-0.0872,0.7152,0.2714,0
5,-1.0418,0.8408,-0.6204,-1.1272,1.1087,0.9408,0
5,-1.0265,0.5224,-0.6826,-1.5024,1.123,1.2145,0
5,-1.0755,0.4979,-0.6908,-1.0772,0.9528,1.2037,0
5,-0.9775,0.4877,-0.6163,-0.5233,0.8275,1.1033,0
5,-1.2612,0.7081,-0.0602,-0.1558,0.5799,0.9582,0
5,-1.2163,0.5745,-0.5469,-0.0523,0.2834,0.8231,0
5,-1.1122,0.7561,-0.199,-0.0523,0.2834,0.8231,0
5,-1.1122,0.7561,-0.199,-0.2638,0.2966,0.5604,0
5,-1.0959,0.6102,-0.2194,-0.5473,0.3466,0.3107,0
5,-0.9806,0.5204,-0.1663,-0.4557,0.2737,0.1177,0
5,-0.8561,0.5571,-0.1979,-0.2268,0.1842,-0.0545,0
5,-0.8071,0.6337,-0.1316,-0.1461,0.1198,-0.0664,0
5,-0.8275,0.5693,-0.1663,-0.2987,0.181,-0.0425,0
5,-0.8081,0.401,-0.2122,-0.3357,0.1864,0.0446,0
5,-0.8102,0.4092,-0.2357,-0.169,0.1406,0.1537,0
5,-0.7673,0.4714,-0.2173,-0.0141,0.0969,0.218,0
5,-0.6959,0.5193,-0.2153,-0.0141,0.0969,0.218,0
5,-0.6959,0.5193,-0.2153,-0.0011,0.1144,0.2256,0
5,-0.6326,0.5295,-0.2581,-0.0806,0.1635,0.1984,0
5,-0.6071,0.5153,-0.2888,-0.1057,0.1396,0.1396,0
5,-0.5204,0.4816,-0.2734,-0.0523,0.0686,0.0904,0
5,-0.4806,0.499,-0.3245,-0.0883,0.0087,0.0185,0
5,-0.45,0.4316,-0.2877,-0.194,0.0097,-0.0534,0
5,-0.3959,0.3826,-0.2877,-0.2943,-0.0381,-0.1089,0
5,-0.4051,0.3091,-0.3377,-0.2791,-0.1428,-0.1526,0
5,-0.3469,0.3184,-0.3081,-0.2388,-0.2649,-0.1907,0
5,-0.3418,0.3214,-0.2959,-0.2388,-0.2649,-0.1907,0
5,-0.3367,0.3193,-0.2877,-0.2354,-0.3674,-0.2507,0
5,-0.3367,0.3193,-0.2877,-0.2539,-0.4197,-0.3248,0
5,-0.2836,0.2867,-0.203,-0.2779,-0.4034,-0.4153,0
5,-0.2938,0.2602,-0.202,-0.2583,-0.3248,-0.507,0
5,-0.3132,0.2683,-0.1755,-0.181,-0.1984,-0.5723,0
5,-0.3489,0.2408,-0.1346,-0.182,-0.0435,-0.665,0
5,-0.3724,0.2071,-0.1296,-0.2191,0.1024,-0.7424,0
5,-0.3867,0.1949,-0.1245,-0.255,0.1678,-0.7882,0
5,-0.3541,0.203,-0.1071,-0.2867,0.1515,-0.8111,0
5,-0.3428,0.2234,-0.0867,-0.2867,0.1515,-0.8111,0
6,-0.3306,0.2347,-0.0479,-0.3193,0.0698,-0.8155,0
6,-0.3306,0.2347,-0.0479,-0.375,-0.0446,-0.8252,0
6,-0.3367,0.2326,-0.1346,-0.3532,-0.1907,-0.8645,0
6,-0.3347,0.5295,-0.1234,-0.2539,-0.2976,-0.9332,0
6,-0.3775,0.7592,-0.1602,-0.0021,-0.3107,-1.2014,0
6,-0.453,0.9183,-0.3928,0.6944,-0.1798,-1.6223,0
6,0.948,1.9999,-0.3857,1.6343,0.231,-1.582,0
6,1.799,1.7714,0.552,0.6966,-0.6661,-1.2188,0
6,1.9225,1.1735,0.2469,-0.6857,-0.0261,-0.5221,0
6,1.9725,0.2724,0.1683,-0.6857,-0.0261,-0.5221,0
6,-1.2051,0.0612,0.002,-1.7455,0.424,0.2888,0
6,-1.2051,0.0612,0.002,-1.3508,0.3281,1.2777,0
6,-1.6694,0.551,-0.2285,-0.5418,0.2878,1.6735,0
6,-1.25,0.3602,-0.3152,-0.1787,-0.0555,1.6419,0
6,-1.3255,0.6367,-0.4051,0.4775,-0.2802,1.3693,0
6,-1.0948,0.6367,-0.1683,0.9114,-0.5984,1.0738,0
6,-0.7051,1.1224,0.1612,0.7827,-0.4557,0.7751,0
6,-0.9601,0.7336,-0.2755,0.0883,0.169,0.3891,0
6,-0.8469,0.5724,-0.0836,-0.3848,-0.0305,0.5135,0
6,-1.0336,0.4877,-0.299,0.1623,-0.0414,0.0806,0
6,-0.7285,0.6908,-0.0357,0.5211,-0.2758,-0.0566,0
6,-0.7204,0.85,0.0061,0.5211,-0.2758,-0.0566,0
6,-0.8091,0.801,-0.2173,0.5124,-0.1493,-0.1449,0
6,-0.8091,0.801,-0.2173,0.0011,-0.012,-0.0719,0
6,-0.6979,0.4449,-0.1622,-0.3357,-0.0545,0.0643,0
6,-0.8102,0.3857,-0.1234,-0.1842,-0.0021,0.0675,0
6,-0.7388,0.4877,-0.0214,0.0076,-0.1318,0.0992,0
6,-0.5908,0.4704,0.0459,-0.0719,-0.1057,0.0915,0
6,-0.5693,0.3969,0.0367,-0.2725,-0.0261,0.0915,0
6,-0.5398,0.2888,0.052,-0.3663,0.0076,0.0654,0
6,-0.4714,0.2367,0.05,-0.2333,-0.0316,0.0751,0
6,-0.454,0.2683,0.0724,-0.2333,-0.0316,0.0751,0
6,-0.3877,0.2602,0.0918,-0.0228,-0.061,0.0806,0
6,-0.3877,0.2602,0.0918,0.0566,-0.0894,0.0806,0
6,-0.449,0.2397,0.0847,0.0925,-0.0414,0.0446,0
6,-0.4173,0.1724,0.0224,0.0948,-0.0337,0.0131,0
6,-0.4428,0.1775,-0.0112,0.1396,-0.0272,-0.024,0
6,-0.4357,0.204,-0.0295,0.2147,-0.0501,-0.0698,0
6,-0.4337,0.2898,-0.0898,0.2888,-0.0806,-0.1711,0
6,-0.4673,0.3448,-0.1306,0.3838,-0.1133,-0.3237,0
6,-0.4928,0.4153,-0.1622,0.4677,-0.1613,-0.4786,0
6,-0.5734,0.5469,-0.2316,0.4677,-0.1613,-0.4786,0
6,-0.8541,0.9142,-0.5438,0.5299,-0.2005,-0.6356,0
6,-0.8541,0.9142,-0.5438,0.7413,-0.2856,-0.9048,0
6,-1.5204,1.0316,-0.9479,1.3311,-0.3783,-1.2995,0
6,1.9796,1.3724,-0.8193,1.8174,-0.5156,-1.4031,0
6,-1.5224,1.5051,-0.5193,1.3922,-0.4589,-1.1774,0
6,-1.5255,1.1887,-0.7275,0.2539,0.1646,-0.9223,0
6,-1.1857,0.7071,-0.5928,-0.821,0.5942,-0.5112,0
6,-1.2438,0.5571,-0.7479,-0.7741,0.6062,-0.0162,0
6,-1.0928,0.8122,-0.551,-0.0839,0.4132,0.5276,0
6,-1.0153,0.9183,-0.3908,-0.0839,0.4132,0.5276,0
6,-1.0153,0.9183,-0.3908,-0.1406,0.3019,0.5723,0
6,-1.2234,0.7051,-0.4826,-0.545,0.4884,0.3542,0
6,-1.1938,0.5336,-0.3949,-0.4992,0.3271,0.4153,0
6,-1.2336,0.5418,-0.4,-0.2659,0.1144,0.5135,0
6,-1.0928,0.6418,-0.1928,-0.1798,0.024,0.5167,0
6,-1.051,0.5765,-0.2888,-0.3183,0.1112,0.3794,0
6,-0.9459,0.5183,-0.2428,-0.4546,0.1068,0.3281,0
6,-0.8806,0.4408,-0.2724,-0.4786,0.0828,0.2115,0
6,-0.8286,0.4316,-0.2214,-0.3685,0.0469,0.1515,0
6,-0.7949,0.4398,-0.1796,-0.3685,0.0469,0.1515,0
6,-0.7949,0.4398,-0.1796,-0.2943,0.024,0.1362,0
6,-0.7459,0.3846,-0.1694,-0.3542,0.0501,0.0751,0
6,-0.7775,0.351,-0.2081,-0.3565,0.0806,0.0806,0
6,-0.6234,0.3296,-0.1744,-0.2888,0.0664,0.1242,0
6,-0.6398,0.3632,-0.1816,-0.1972,0.0828,0.1461,0
6,-0.5745,0.3653,-0.1918,-0.1537,0.11,0.1526,0
6,-0.4938,0.3724,-0.199,-0.1471,0.1438,0.1613,0
6,-0.4694,0.3571,-0.1887,-0.193,0.1503,0.1732,0
6,-0.4745,0.3398,-0.2326,-0.2398,0.1177,0.1623,0
6,-0.4194,0.2867,-0.2336,-0.2398,0.1177,0.1623,0
6,-0.4041,0.2786,-0.2561,-0.2573,0.0534,0.1591,0
6,-0.4041,0.2786,-0.2561,-0.2649,-0.0217,0.1471,0
6,-0.3898,0.249,-0.2479,-0.2779,-0.0818,0.11,0
6,-0.351,0.2388,-0.2245,-0.3117,-0.1482,0.0599,0
6,-0.3571,0.2214,-0.2693,-0.2791,-0.1852,-0.0228,0
6,-0.3122,0.2316,-0.1938,-0.23,-0.231,-0.0937,0
6,-0.3591,0.252,-0.2133,-0.1657,-0.2278,-0.1864,0
6,-0.3602,0.2693,-0.1744,-0.1177,-0.1766,-0.3172,0
6,-0.3969,0.2888,-0.1663,-0.1177,-0.1766,-0.3172,0
6,-0.4306,0.2857,-0.1551,-0.0708,-0.0751,-0.4295,0
6,-0.4633,0.2643,-0.1612,-0.0435,0.0435,-0.5484,0
6,-0.4633,0.2643,-0.1612,-0.0097,0.1591,-0.6552,0
6,-0.5061,0.3051,-0.1224,0.0675,0.23,-0.7337,0
6,-0.5316,0.355,-0.1183,0.1558,0.2737,-0.809,0
6,-0.7377,0.549,0.1622,0.2081,0.2627,-0.8668,0
6,-0.4316,0.3918,0.0143,0.0381,-0.3314,-0.8548,0
6,-0.7479,0.5469,-0.1724,0.231,-0.314,-0.8252,0
6,-1.1398,0.8398,0.15,0.3575,-0.0992,-0.9027,0
6,-1.1806,0.9888,0.0357,0.3575,-0.0992,-0.9027,0
6,-1.1806,0.9888,0.0357,0.2725,-0.2617,-0.8754,0
6,-1.9428,1.1194,-0.1296,0.388,-0.1318,-0.8885,0
6,-1.9428,1.1194,-0.1296,0.4382,-0.1003,-0.677,0
6,-1.8704,1.0347,0.0398,0.2737,-0.0872,-0.1678,0
6,-1.5734,0.5081,-0.0541,-0.2539,0.0654,0.4263,0
6,-1.3326,0.4601,-0.0224,-0.6028,0.1167,0.8525,0
6,-1.2693,0.4877,-0.0948,-0.4536,0.1133,1.0106,0
6,-1.0153,0.4796,-0.1979,-0.0904,-0.0969,0.9889,0
6,-1.0143,0.5591,-0.1928,0.3826,-0.35,0.9616,0
6,-1.001,0.9235,-0.0265,0.6062,-0.4109,0.8775,0
6,-1.001,0.9235,-0.0265,0.6062,-0.4109,0.8775,0
6,-0.9714,0.6265,-0.2204,-0.0174,-0.1253,0.5374,0
6,-0.9265,0.4214,-0.1439,-0.5833,0.0751,0.3052,0
6,-0.9183,0.4041,-0.2142,-0.4971,0.0511,0.2376,0
6,-1.0,0.402,-0.1887,-0.2039,-0.0152,0.1613,0
6,-0.8377,0.3612,-0.0602,-0.0076,-0.1297,0.1396,0
6,-0.8,0.4724,-0.0153,0.0795,-0.1123,0.1264,0
6,-0.7622,0.3989,-0.0581,-0.0959,0.0206,0.0446,0
6,-0.7571,0.2959,-0.0979,-0.1744,0.098,0.0446,0
