Timestamp,Ax,Ay,Az,Rx,Ry,Rz,HR_value
0,-0.9377,-0.2306,-0.0887,-0.8558,-0.3477,-0.194,157
0,-0.9479,-0.2816,-0.0898,-0.7817,-0.339,-0.1602,157
0,-0.9857,-0.1979,-0.0347,-0.6846,-0.3565,-0.1155,157
0,-1.0388,-0.2234,-0.0388,-0.7098,-0.3597,-0.0894,157
0,-1.0061,-0.2663,-0.0775,-0.6988,-0.3826,-0.0654,157
0,-1.002,-0.2449,-0.0602,-0.6988,-0.3826,-0.0654,157
0,-1.0449,-0.199,-0.0336,-0.6083,-0.3771,-0.0196,157
0,-1.0449,-0.199,-0.0336,-0.5593,-0.363,0.0108,157
0,-1.004,-0.2408,-0.0581,-0.5974,-0.387,0.0337,157
0,-1.0295,-0.302,-0.0887,-0.5713,-0.3826,0.0643,157
0,-1.0143,-0.2795,-0.0745,-0.4601,-0.399,0.1167,157
0,-1.002,-0.2836,-0.0816,-0.4361,-0.3838,0.1755,157
0,-0.9418,-0.2775,-0.0857,-0.3838,-0.388,0.2268,157
0,-0.9683,-0.2632,-0.0714,-0.339,-0.3706,0.2791,157
0,-0.95,-0.2755,-0.0643,-0.3336,-0.3761,0.3248,157
0,-0.9449,-0.3439,-0.0724,-0.3336,-0.3761,0.3248,157
0,-0.9203,-0.3643,-0.0551,-0.2966,-0.3532,0.3804,157
0,-0.953,-0.3653,-0.0449,-0.2201,-0.3412,0.4492,157
0,-0.953,-0.3653,-0.0449,-0.1373,-0.3117,0.5299,157
0,-0.9469,-0.3571,-0.0193,-0.0589,-0.3031,0.5984,157
0,-0.9755,-0.3541,0.001,0.0108,-0.267,0.6629,157
0,-1.2428,-0.1877,0.0939,0.1995,-0.1471,0.7588,157
0,-1.2428,-0.1877,0.0939,0.2856,-0.0904,0.7762,157
0,-1.4214,0.0755,0.3377,0.3271,-0.0599,0.7947,157
0,-1.5357,0.1541,0.4102,0.2485,-0.0152,0.8056,157
0,-1.6489,0.2051,0.4224,0.2682,0.0654,0.7882,157
0,-1.7306,0.3132,0.3908,0.4219,0.1373,0.7554,157
0,-1.754,0.4785,0.0775,0.4382,0.1242,0.6705,157
0,-1.6561,0.4745,-0.0153,0.2987,0.0631,0.6018,157
0,-1.6275,0.4183,0.0122,0.0566,-0.0043,0.6039,157
0,-1.4622,0.0918,0.1153,-0.1155,-0.1024,0.6039,157
0,-1.2224,0.0428,0.2336,-0.1155,-0.1024,0.6039,157
0,-1.2255,0.0326,0.2775,-0.0294,-0.1951,0.6268,157
0,-1.2255,0.0326,0.2775,0.0828,-0.1886,0.6497,157
0,-0.9765,-0.002,0.3316,0.1341,-0.2147,0.664,157
0,-0.9745,-0.002,0.2643,0.3489,-0.1035,0.702,157
0,-0.7969,0.1428,0.2806,0.5505,-0.1384,0.7392,157
0,-0.8632,0.1928,0.2888,0.4492,-0.0904,0.7522,157
0,-0.7245,0.0948,0.1755,0.4404,-0.0545,0.7588,157
0,-0.6867,0.3122,0.249,0.5702,-0.0185,0.7795,157
0,-0.7734,0.3541,0.2285,0.5059,0.0425,0.7718,157
0,-0.7316,0.3541,0.1979,0.5059,0.0425,0.7718,157
0,-0.7816,0.3939,0.1969,0.4513,0.0599,0.7522,157
0,-0.7816,0.3939,0.1969,0.4536,0.11,0.738,157
0,-0.8234,0.449,0.1673,0.4393,0.1329,0.7228,157
0,-0.8184,0.4775,0.1561,0.3903,0.1438,0.702,157
0,-0.8428,0.4459,0.1346,0.3052,0.157,0.6825,157
0,-0.7234,0.3765,0.1275,0.2169,0.1428,0.6629,157
0,-0.7693,0.5786,0.102,0.3073,0.2027,0.64,157
0,-0.6816,0.5469,0.1428,0.1482,0.1776,0.5265,157
0,-0.5734,0.3061,0.1234,-0.1842,0.182,0.5211,157
0,-0.5786,0.0847,0.0143,-0.1842,0.182,0.5211,157
0,-0.5449,0.3602,0.0775,-0.1635,0.231,0.5429,157
0,-0.5449,0.3602,0.0775,0.2388,0.2714,0.5854,157
0,-0.6183,0.4357,0.1265,0.1896,0.2758,0.5887,157
0,-0.5071,0.3173,0.0948,-0.1384,0.2245,0.532,157
0,-0.551,0.0857,-0.0704,-0.0141,0.2333,0.52,157
0,-0.6041,0.501,0.0755,0.2725,0.2617,0.5418,157
0,-0.5948,0.4938,0.0602,-0.0435,0.1896,0.5004,157
0,-0.5551,0.2265,-0.0908,-0.2747,0.1558,0.4481,157
0,-0.6642,0.2255,-0.1551,0.0784,0.1396,0.4622,157
0,-0.7234,0.6285,-0.001,0.0784,0.1396,0.4622,157
0,-0.7234,0.6285,-0.001,0.025,0.0872,0.4055,157
0,-0.6938,0.4551,-0.101,-0.3346,0.012,0.3281,157
0,-0.7316,0.3837,-0.1541,-0.2867,-0.0108,0.3227,157
0,-0.8224,0.5388,-0.0959,-0.1493,-0.0654,0.2987,157
0,-0.8439,0.6337,-0.0377,-0.3859,-0.0925,0.2104,157
0,-0.8387,0.5031,-0.105,-0.5494,-0.1396,0.1406,157
0,-0.853,0.5031,-0.0765,-0.4328,-0.1264,0.086,157
0,-0.9,0.5786,0.0143,-0.4589,-0.11,0.0174,157
0,-0.902,0.3826,-0.001,-0.6148,-0.1057,-0.0577,157
0,-0.8969,0.3184,0.0092,-0.6148,-0.1057,-0.0577,157
0,-0.8969,0.3184,0.0092,-0.508,-0.0664,-0.1068,157
0,-0.8969,0.3877,0.0652,-0.3706,-0.0065,-0.1482,157
0,-0.9224,0.3969,0.1102,-0.4862,0.0217,-0.2005,157
0,-0.9051,0.1153,-0.0163,-0.4763,0.0523,-0.23,157
0,-0.901,0.1439,-0.0031,-0.2442,0.1003,-0.2268,157
0,-0.9592,0.1928,-0.0183,-0.1352,0.1384,-0.2289,157
0,-0.9734,0.1816,-0.0939,-0.1362,0.1079,-0.2333,157
0,-1.0734,0.2377,-0.1224,-0.0108,0.1264,-0.2278,157
0,-0.9857,0.3959,-0.0663,0.1133,0.085,-0.231,157
0,-1.1163,0.4949,-0.0765,0.0043,0.0806,-0.2802,157
0,-1.0336,0.5143,-0.1357,0.0043,0.0806,-0.2802,157
0,-1.0336,0.5143,-0.1357,-0.074,0.0185,-0.3117,157
0,-1.0183,0.5632,-0.0898,-0.0839,0.0196,-0.35,157
0,-0.9642,0.5724,-0.0806,-0.181,0.012,-0.4,157
0,-0.9897,0.5428,-0.0622,-0.2682,0.0011,-0.4502,157
0,-1.0122,0.4959,-0.002,-0.2867,0.0402,-0.4938,157
0,-0.9775,0.3826,0.0143,-0.363,0.0282,-0.52,157
0,-1.0336,0.2653,0.0153,-0.3281,0.0392,-0.5145,157
0,-1.1255,0.3132,0.0704,-0.1177,0.0784,-0.4775,157
0,-1.4694,0.4836,0.1581,-0.1177,0.0784,-0.4775,157
0,-1.5602,0.3347,0.0948,-0.1177,0.0784,-0.4775,157
0,-1.5714,0.2632,0.0581,-0.3456,0.086,-0.4797,157
0,-1.5714,0.2632,0.0581,-0.3456,0.086,-0.4797,157
0,-1.5948,0.3887,0.1153,-0.1242,0.169,-0.4753,157
0,-1.5214,0.2877,0.1265,-0.1242,0.169,-0.4753,157
0,-1.4877,0.1071,0.0295,-0.3838,0.1787,-0.544,157
0,-1.501,0.2408,0.0632,-0.3838,0.1787,-0.544,157
0,-1.553,0.5398,0.1755,-0.0108,0.1951,-0.4916,157
0,-1.4714,0.5153,0.0347,-0.3073,0.1221,-0.4513,157
0,-1.3347,0.55,0.0,-0.3073,0.1221,-0.4513,157
0,-1.2898,0.6806,0.0939,-0.3073,0.1221,-0.4513,157
0,-1.2,0.6612,0.1337,-0.2932,0.0937,-0.4263,157
0,-1.2,0.6612,0.1337,-0.3695,0.0948,-0.4229,157
0,-0.9714,0.3184,0.1296,-0.7249,0.0316,-0.4414,157
0,-0.9275,0.3275,0.2101,-0.8798,0.0131,-0.4492,157
0,-0.8898,0.3561,0.2836,-0.7708,0.0511,-0.4437,157
0,-0.7377,0.1724,0.2531,-0.8569,0.0523,-0.4513,157
0,-0.7428,0.0286,0.2081,-0.9921,0.0969,-0.4557,157
1,-0.7081,0.0652,0.2336,-0.7806,0.1482,-0.4055,157
1,-0.7428,0.0132,0.1735,-0.6617,0.2005,-0.4132,157
1,-0.7234,-0.0367,0.1255,-0.6617,0.2005,-0.4132,157
1,-0.8152,-0.0132,0.0847,-0.6825,0.2388,-0.4044,157
1,-0.8152,-0.0132,0.0847,-0.6072,0.2737,-0.3804,157
1,-0.9,-0.0286,0.05,-0.5189,0.2976,-0.3466,157
1,-0.902,-0.0316,0.0163,-0.5091,0.3073,-0.326,157
1,-0.9581,-0.002,0.0122,-0.4502,0.2737,-0.2943,157
1,-0.9357,0.05,-0.0031,-0.388,0.2605,-0.2659,157
1,-0.9255,0.0541,-0.0245,-0.388,0.231,-0.2507,157
1,-0.8877,0.0908,-0.0326,-0.3663,0.2136,-0.2453,157
1,-0.8898,0.1551,-0.0295,-0.3052,0.1962,-0.2474,157
1,-0.8377,0.1785,-0.0602,-0.3052,0.1962,-0.2474,157
1,-0.8377,0.1785,-0.0602,-0.3041,0.1667,-0.2659,157
1,-0.8112,0.1602,-0.0775,-0.3717,0.1471,-0.2867,157
1,-0.7908,0.15,-0.0867,-0.4044,0.1167,-0.2987,157
1,-0.7163,0.1337,-0.1041,-0.4229,0.0894,-0.3041,157
1,-0.7388,0.0663,-0.1326,-0.4906,0.0196,-0.3096,157
1,-0.7061,0.053,-0.1377,-0.5505,-0.0043,-0.3151,157
1,-0.7255,0.0918,-0.1173,-0.5026,-0.0446,-0.3041,157
1,-0.7306,0.0316,-0.1367,-0.5156,-0.085,-0.2922,157
1,-0.7449,0.0428,-0.1091,-0.5702,-0.1962,-0.2693,157
1,-0.7612,0.0643,-0.101,-0.556,-0.2278,-0.2485,157
1,-0.7663,0.0163,-0.0857,-0.6051,-0.2878,-0.2376,157
1,-0.7816,-0.0265,-0.0836,-0.6737,-0.3292,-0.2398,157
1,-0.8275,-0.0286,-0.049,-0.6737,-0.3292,-0.2398,157
1,-0.85,-0.053,-0.0122,-0.6749,-0.3542,-0.2388,157
1,-0.85,-0.053,-0.0122,-0.6388,-0.3695,-0.2354,157
1,-0.8877,-0.1898,-0.0102,-0.6432,-0.388,-0.2333,157
1,-0.9479,-0.1694,-0.001,-0.6039,-0.3903,-0.2049,157
1,-1.0173,-0.1653,-0.0081,-0.4906,-0.3848,-0.1177,157
1,-0.8989,-0.2122,-0.0193,-0.4263,-0.4109,-0.1461,157
1,-1.0388,-0.1163,0.0,-0.3183,-0.3968,-0.1547,157
1,-0.9888,-0.1346,0.001,-0.1919,-0.3565,-0.098,157
1,-1.0693,-0.2449,-0.05,-0.2725,-0.3783,-0.0523,157
1,-1.0204,-0.2938,-0.0622,-0.2725,-0.3783,-0.0523,157
1,-1.0367,-0.2357,0.0051,-0.3346,-0.3651,0.0021,157
1,-1.0367,-0.2357,0.0051,-0.206,-0.3477,0.0872,157
1,-1.0734,-0.3132,-0.0234,-0.169,-0.3489,0.169,157
1,-1.0336,-0.3143,-0.0214,-0.1678,-0.3237,0.231,157
1,-1.0224,-0.2377,0.0031,-0.0043,-0.3151,0.3052,157
1,-0.9969,-0.1847,-0.0275,0.1167,-0.2703,0.3641,157
1,-1.1183,-0.152,-0.0316,0.1308,-0.242,0.4077,157
1,-1.0724,-0.0265,-0.0092,0.2507,-0.1776,0.4458,157
1,-1.103,0.0989,0.0367,0.3456,-0.1667,0.4797,157
1,-1.2928,0.0673,0.0775,0.3456,-0.1667,0.4797,157
1,-1.4357,0.1183,0.1071,0.255,-0.1428,0.4807,157
1,-1.4357,0.1183,0.1071,0.1602,-0.0992,0.4589,157
1,-1.5234,0.2479,0.1744,0.2617,-0.0774,0.4502,157
1,-1.5612,0.3418,0.2224,0.3542,-0.0751,0.4437,157
1,-1.4581,0.3439,0.2285,0.2888,-0.0969,0.4197,157
1,-1.3857,0.2836,0.2285,0.1852,-0.1035,0.3914,157
1,-1.3591,0.2296,0.2234,0.1428,-0.0969,0.3783,157
1,-1.2888,0.1796,0.2336,0.1623,-0.0784,0.3641,157
1,-1.2061,0.0122,0.2306,0.1755,-0.0763,0.363,157
1,-1.1979,-0.0183,0.251,0.1755,-0.0763,0.363,157
1,-1.1979,-0.0183,0.251,0.2344,-0.0664,0.3815,157
1,-1.1877,-0.0326,0.2683,0.3771,-0.0425,0.4153,157
1,-1.1724,-0.0275,0.2643,0.5102,-0.0305,0.4502,157
1,-1.0796,0.0561,0.2459,0.6465,-0.0282,0.4906,157
1,-1.0347,0.1214,0.2438,0.7741,-0.0097,0.5233,157
1,-1.004,0.1928,0.2316,0.871,0.0043,0.5516,157
1,-0.9847,0.2551,0.2122,0.9256,0.024,0.5778,157
1,-1.0,0.3694,0.1755,0.9616,0.0392,0.5974,157
1,-1.0102,0.4438,0.153,0.9834,0.0446,0.6213,157
1,-1.0469,0.5061,0.1387,0.9834,0.0446,0.6213,157
1,-1.0469,0.5061,0.1387,0.9986,0.0457,0.6323,157
1,-1.0622,0.5326,0.0989,0.9801,0.036,0.5974,157
1,-1.0622,0.6703,0.0643,0.9736,0.012,0.5614,157
1,-1.0224,0.7245,0.0561,0.9376,-0.0053,0.5429,157
1,-0.9959,0.7234,0.0541,0.7958,-0.0152,0.5396,157
1,-0.9112,0.6224,0.0479,0.6051,-0.0076,0.5364,157
1,-0.8745,0.5948,0.0693,0.4807,-0.0043,0.5036,157
1,-0.8275,0.552,0.0948,0.4219,0.0152,0.4698,157
1,-0.7938,0.4734,0.0948,0.3227,0.0294,0.4404,157
1,-0.7734,0.201,0.0204,0.2398,0.0457,0.4077,157
1,-0.6806,0.3846,0.0418,0.2398,0.0457,0.4077,157
1,-0.6806,0.3846,0.0418,0.2562,0.0708,0.3891,157
1,-0.7592,0.5939,0.1153,0.5429,0.1035,0.4284,157
1,-0.7204,0.5796,0.1061,0.4524,0.1547,0.4132,157
1,-0.6581,0.1887,-0.0673,0.0087,0.0643,0.3859,157
1,-0.4224,0.301,-0.004,0.0272,0.0839,0.387,157
1,-0.5684,0.3745,0.0193,0.2104,0.0294,0.4187,157
1,-0.552,0.3357,-0.0255,0.086,0.0589,0.4143,157
1,-0.6183,0.3204,-0.0071,0.0152,0.0032,0.4132,157
1,-0.5693,0.3887,-0.0143,0.0915,0.0032,0.4132,157
1,-0.6183,0.4581,-0.004,0.0915,0.0032,0.4132,157
1,-0.5295,0.4857,-0.0081,0.1482,-0.0272,0.4044,157
1,-0.5295,0.4857,-0.0081,0.0828,-0.0719,0.3771,157
1,-0.553,0.4745,0.0,-0.0402,-0.1024,0.3401,157
1,-0.5245,0.3979,-0.0449,-0.1613,-0.1646,0.3041,157
1,-0.6245,0.3336,-0.0622,-0.2844,-0.1678,0.2617,157
1,-0.5306,0.3796,-0.0459,-0.218,-0.2039,0.2344,157
1,-0.5765,0.453,-0.0214,-0.1373,-0.1984,0.1995,157
1,-0.6367,0.4408,-0.0357,-0.1875,-0.2518,0.1591,157
1,-0.6744,0.4857,0.0061,-0.2136,-0.2617,0.1057,157
1,-0.6724,0.5061,0.0153,-0.2136,-0.2617,0.1057,157
1,-0.7438,0.5071,0.0255,-0.2104,-0.314,0.074,157
1,-0.7438,0.5071,0.0255,-0.2725,-0.2911,0.0261,157
1,-0.8643,0.5673,0.0684,-0.2573,-0.2998,-0.012,157
1,-0.8326,0.6245,0.0939,-0.2398,-0.2617,-0.0599,157
1,-0.8928,0.5877,0.0887,-0.3281,-0.2518,-0.1274,157
1,-0.9796,0.3898,0.0561,-0.4404,-0.2093,-0.2027,157
1,-1.0398,0.3775,0.0193,-0.4,-0.182,-0.2583,157
1,-1.0418,0.4755,0.0061,-0.2539,-0.1602,-0.2856,157
1,-1.0918,0.5632,0.0173,-0.1558,-0.1449,-0.3096,157
1,-1.0449,0.4561,-0.0581,-0.1558,-0.1449,-0.3096,157
1,-1.0255,0.45,-0.0571,-0.2583,-0.1602,-0.3532,157
1,-1.0255,0.45,-0.0571,-0.3346,-0.1613,-0.4012,157
1,-1.0449,0.5295,0.0112,-0.2268,-0.1329,-0.4393,157
2,-0.9949,0.5224,0.0224,-0.2344,-0.1232,-0.4851,157
2,-0.954,0.4051,0.0214,-0.3248,-0.0959,-0.5374,157
2,-0.9694,0.4479,0.0786,-0.23,-0.0708,-0.5757,157
2,-0.9642,0.3724,0.0989,-0.1766,-0.0294,-0.6106,157
2,-0.9244,0.1908,0.0581,-0.2539,-0.0272,-0.6247,157
2,-1.0918,0.4041,0.2092,-0.0719,0.0032,-0.5898,157
2,-1.2071,0.4949,0.254,-0.0719,0.0032,-0.5898,157
2,-1.2071,0.4949,0.254,0.1995,0.0425,-0.5364,157
2,-1.4377,0.4102,0.2571,0.0708,0.1047,-0.5255,157
2,-1.3775,0.252,0.1918,-0.0969,0.061,-0.5233,157
2,-1.4326,0.353,0.2949,0.025,0.1079,-0.4971,157
2,-1.4816,0.3286,0.2969,0.098,0.1362,-0.4851,157
2,-1.35,0.1551,0.2204,-0.0664,0.181,-0.5036,157
2,-1.3591,0.3336,0.25,0.0152,0.2518,-0.4938,157
2,-1.3887,0.5092,0.3,0.3107,0.2605,-0.4437,157
2,-1.3448,0.5224,0.2418,0.2474,0.2682,-0.412,157
2,-1.3,0.5918,0.204,0.2474,0.2682,-0.412,157
2,-1.3,0.5918,0.204,0.1123,0.2495,-0.388,157
2,-1.2255,0.8418,0.2224,0.1297,0.2954,-0.3739,157
2,-1.1275,0.7357,0.1703,-0.074,0.3073,-0.4109,157
2,-1.0734,0.6234,0.1387,-0.4143,0.3161,-0.4557,157
2,-0.9061,0.3663,0.2081,-0.6715,0.314,-0.4982,157
2,-0.8448,0.2428,0.2081,-0.7751,0.3248,-0.5353,157
2,-0.8184,0.1469,0.2101,-0.8176,0.3346,-0.5505,157
2,-0.8785,0.1285,0.2214,-0.7697,0.3685,-0.5331,157
2,-0.852,-0.002,0.1744,-0.7566,0.3663,-0.544,157
2,-0.7908,0.0663,0.1806,-0.6367,0.4382,-0.496,157
2,-0.8091,0.0347,0.1847,-0.557,0.4143,-0.5047,157
2,-0.8152,-0.0684,0.1489,-0.6291,0.4404,-0.5156,157
2,-0.8806,-0.0939,0.1153,-0.5843,0.4372,-0.4786,157
2,-0.8806,-0.0887,0.0898,-0.4513,0.4666,-0.4208,157
2,-0.8989,-0.101,0.0571,-0.4513,0.4666,-0.4208,157
2,-0.8989,-0.101,0.0571,-0.3958,0.4601,-0.4197,157
2,-0.8785,-0.1082,0.0438,-0.3565,0.4361,-0.4012,157
2,-0.8653,-0.0928,-0.0061,-0.2812,0.4197,-0.3804,157
2,-0.85,-0.0602,-0.0112,-0.1919,0.3968,-0.363,157
2,-0.7918,-0.0255,-0.0377,-0.1089,0.3575,-0.3521,157
2,-0.7908,0.0143,-0.0581,-0.061,0.3302,-0.351,157
2,-0.7285,0.0867,-0.0775,-0.0326,0.2966,-0.351,157
2,-0.7214,0.1041,-0.0786,-0.0392,0.2703,-0.3521,157
2,-0.7051,0.1153,-0.0714,-0.0664,0.2388,-0.3554,157
2,-0.703,0.1082,-0.0775,-0.0664,0.2388,-0.3554,157
2,-0.6408,0.1326,-0.049,-0.1003,0.2115,-0.3521,157
2,-0.6408,0.1326,-0.049,-0.1253,0.1657,-0.3434,157
2,-0.6755,0.103,-0.0541,-0.1972,0.1274,-0.3401,157
2,-0.6387,0.0989,-0.05,-0.2344,0.1167,-0.3412,157
2,-0.6571,0.0887,-0.0398,-0.242,0.0883,-0.3401,157
2,-0.6571,0.0153,-0.0663,-0.2888,0.0664,-0.339,157
2,-0.7265,0.0092,-0.0612,-0.2888,0.0501,-0.339,157
2,-0.7224,0.0163,-0.0581,-0.2594,0.0316,-0.3302,157
2,-0.7531,-0.0112,-0.0734,-0.2856,0.0021,-0.3271,157
2,-0.8428,-0.0948,-0.0826,-0.2856,0.0021,-0.3271,157
2,-0.9255,-0.1234,-0.0714,-0.3031,-0.025,-0.3172,157
2,-0.9255,-0.1234,-0.0714,-0.2594,-0.0425,-0.3031,157
2,-0.9592,-0.1541,-0.0786,-0.2125,-0.073,-0.2747,157
2,-1.0031,-0.1703,-0.0796,-0.2125,-0.073,-0.2747,157
2,-1.0581,-0.1132,-0.0652,-0.0631,-0.1242,-0.1951,157
2,-1.0786,-0.105,-0.0673,-0.0272,-0.1384,-0.1635,157
2,-1.0826,-0.1,-0.0663,-0.025,-0.1581,-0.1384,157
2,-1.1439,-0.0765,-0.0571,-0.0131,-0.1591,-0.1079,157
2,-1.1224,-0.0745,-0.0632,0.0261,-0.1515,-0.074,157
2,-1.1703,-0.0989,-0.0857,0.0261,-0.1515,-0.074,157
2,-1.1703,-0.0816,-0.0959,0.0053,-0.157,-0.0349,157
2,-1.1703,-0.0816,-0.0959,0.025,-0.1591,0.0152,157
2,-1.2,0.0122,-0.105,0.0925,-0.1591,0.073,157
2,-1.1703,-0.0071,-0.1387,0.0643,-0.1787,0.1144,157
2,-1.152,-0.0224,-0.1735,0.0185,-0.2115,0.1396,157
2,-1.1163,0.0,-0.1612,0.0469,-0.2365,0.169,157
2,-1.0561,-0.004,-0.1265,0.0577,-0.2617,0.1951,157
2,-1.0652,-0.0316,-0.1153,0.0185,-0.2932,0.2159,157
2,-1.002,-0.0224,-0.0673,0.0316,-0.3041,0.2398,157
2,-1.0275,-0.0602,-0.0469,0.0316,-0.3041,0.2398,157
2,-1.0275,-0.0602,-0.0469,0.0305,-0.3052,0.2594,157
2,-1.0551,-0.1296,-0.0265,0.0316,-0.2943,0.2812,157
2,-1.0234,-0.0939,0.0102,0.0925,-0.2878,0.3073,157
2,-0.9347,-0.0632,0.0081,0.157,-0.3008,0.3401,157
2,-1.0663,0.0275,0.0908,0.1919,-0.2333,0.3663,157
2,-1.2755,0.1041,0.1357,0.1635,-0.2147,0.3706,157
2,-1.2683,0.1245,0.1744,0.1352,-0.1297,0.3422,157
2,-1.4285,0.1847,0.2153,0.2049,-0.085,0.3117,157
2,-1.4479,0.2377,0.249,0.2834,-0.0206,0.2768,157
2,-1.5183,0.1326,0.1969,0.2376,0.0152,0.242,157
2,-1.5183,0.1326,0.1969,0.2376,0.0152,0.242,157
2,-1.5673,0.0622,0.1337,0.1852,0.036,0.242,157
2,-1.5622,0.0632,0.1122,0.2594,0.049,0.2812,157
2,-1.551,0.0724,0.1143,0.3085,0.0152,0.3477,157
2,-1.4622,-0.0418,0.0969,0.2495,-0.0217,0.4055,157
2,-1.3908,-0.0826,0.1153,0.2453,-0.0479,0.4557,157
2,-1.3163,-0.0877,0.1367,0.3542,-0.0631,0.508,157
2,-1.2296,-0.051,0.1703,0.5036,-0.0675,0.5408,157
2,-1.0571,0.0051,0.2183,0.6171,-0.0698,0.5669,157
2,-0.9979,0.0428,0.2408,0.6999,-0.0577,0.5877,157
2,-0.949,0.1,0.2459,0.6999,-0.0577,0.5877,157
2,-0.949,0.1,0.2459,0.785,-0.0294,0.6148,157
2,-0.9265,0.1632,0.2388,0.8525,0.0032,0.6442,157
2,-0.9296,0.3204,0.1969,0.9059,0.037,0.665,157
2,-0.9357,0.3745,0.1755,0.9191,0.0555,0.6737,157
2,-0.95,0.4377,0.1398,0.8973,0.0698,0.6661,157
2,-0.951,0.5132,0.1275,0.895,0.085,0.6486,157
2,-0.9622,0.5612,0.0796,0.8275,0.0883,0.6106,157
2,-0.9316,0.549,0.0541,0.7119,0.0839,0.5538,157
2,-0.9214,0.5663,0.0581,0.6508,0.0969,0.5299,157
2,-0.8775,0.5459,0.0581,0.6508,0.0969,0.5299,157
2,-0.8152,0.4173,0.051,0.545,0.1068,0.4992,157
2,-0.8152,0.4173,0.051,0.4317,0.1264,0.4666,157
2,-0.7867,0.2959,0.0643,0.3783,0.1438,0.4469,157
2,-0.7918,0.2928,-0.0428,0.3477,0.1558,0.4361,157
2,-0.7918,0.6541,0.0898,0.5582,0.1766,0.4536,157
2,-0.6489,0.4642,0.0143,0.3771,0.1602,0.3946,157
2,-0.6173,0.2408,-0.0551,-0.0305,0.1089,0.3609,157
3,-0.5173,0.1275,-0.0541,-0.0349,0.1198,0.387,157
3,-0.5051,0.2622,-0.0122,0.1362,0.1253,0.4208,157
3,-0.5306,0.2245,-0.0183,0.1362,0.1253,0.4208,157
3,-0.5306,0.1703,-0.0449,0.1089,0.1013,0.4197,157
3,-0.5306,0.1703,-0.0449,0.0435,0.0795,0.4197,157
3,-0.5316,0.1857,-0.0479,0.1198,0.061,0.4252,157
3,-0.5449,0.3918,-0.0234,0.2464,0.0511,0.4273,157
3,-0.5367,0.3949,-0.0469,0.2136,0.0131,0.4132,157
3,-0.551,0.35,-0.0755,0.0534,-0.0326,0.3891,157
3,-0.5245,0.3428,-0.0745,-0.036,-0.1024,0.3739,157
3,-0.6061,0.3398,-0.0652,-0.073,-0.1352,0.3586,157
3,-0.6316,0.3367,-0.0724,-0.073,-0.1352,0.3586,157
3,-0.6703,0.35,-0.0836,-0.0925,-0.1798,0.3434,157
3,-0.6806,0.3939,-0.0928,-0.0872,-0.218,0.3205,157
3,-0.6806,0.3939,-0.0928,-0.049,-0.2638,0.3019,157
3,-0.7673,0.553,-0.0469,-0.0206,-0.2966,0.267,157
3,-0.8193,0.5551,-0.0306,-0.1079,-0.339,0.2201,157
3,-0.8408,0.5163,-0.0398,-0.2365,-0.3717,0.1667,157
3,-0.9041,0.5193,-0.0286,-0.2539,-0.3619,0.1047,157
3,-0.9867,0.5796,0.0306,-0.2278,-0.3422,0.0446,157
3,-0.9836,0.5388,0.0408,-0.2899,-0.3183,-0.037,157
3,-1.0479,0.4244,0.0714,-0.3248,-0.2398,-0.1875,157
3,-1.0581,0.3612,0.0347,-0.2714,-0.194,-0.2344,157
3,-1.0622,0.3745,0.0112,-0.1962,-0.1471,-0.267,157
3,-1.0724,0.3908,-0.0031,-0.1962,-0.1471,-0.267,157
3,-1.0684,0.3582,-0.0357,-0.1406,-0.1209,-0.2911,157
3,-1.0684,0.3582,-0.0357,-0.1417,-0.1013,-0.3183,157
3,-1.0306,0.3398,-0.0541,-0.1079,-0.0959,-0.3445,157
3,-1.0326,0.3591,-0.052,-0.0435,-0.0992,-0.3619,157
3,-0.9938,0.3989,-0.052,-0.0053,-0.0925,-0.3859,157
3,-0.9969,0.4806,-0.002,0.0162,-0.0904,-0.4065,157
3,-0.9398,0.3316,-0.0183,-0.0925,-0.0883,-0.4372,157
3,-0.8826,0.2581,-0.0286,-0.1308,-0.0708,-0.4546,157
3,-0.9051,0.3255,0.0204,0.0228,-0.073,-0.4273,157
3,-0.9745,0.4938,0.1173,0.1503,-0.0675,-0.3903,157
3,-1.2724,0.5367,0.1816,0.1503,-0.0675,-0.3903,157
3,-1.3439,0.4377,0.1571,0.0402,-0.0414,-0.3914,157
3,-1.3439,0.4377,0.1571,-0.1417,-0.0316,-0.4273,157
3,-1.3989,0.403,0.1877,-0.1635,-0.0152,-0.4458,157
3,-1.3745,0.3714,0.2194,-0.1798,0.025,-0.471,157
3,-1.2306,0.1632,0.1979,-0.2562,0.0948,-0.4982,157
3,-1.2632,0.1061,0.204,-0.206,0.1886,-0.5059,157
3,-1.1949,0.1744,0.2469,-0.0185,0.2583,-0.4797,157
3,-1.2663,0.2653,0.2367,0.049,0.3151,-0.4382,157
3,-1.3306,0.3653,0.2122,0.0686,0.3542,-0.3903,157
3,-1.3398,0.4969,0.1867,0.0686,0.3542,-0.3903,157
3,-1.3663,0.5969,0.1346,0.1438,0.4012,-0.3434,157
3,-1.3663,0.5969,0.1346,0.0992,0.4426,-0.3205,157
3,-1.2551,0.6561,0.0796,-0.0523,0.4372,-0.3117,157
3,-1.153,0.6551,0.0918,-0.2256,0.4187,-0.3117,157
3,-1.1163,0.6479,0.1112,-0.388,0.388,-0.3128,157
3,-0.9673,0.6204,0.1592,-0.5854,0.3368,-0.3314,157
3,-0.8928,0.3928,0.1541,-0.7817,0.3575,-0.3761,157
3,-0.8296,0.3622,0.1826,-0.7926,0.3685,-0.4055,157
3,-0.8591,0.3152,0.1867,-0.7926,0.3685,-0.4055,157
3,-0.7908,0.2275,0.1612,-0.7915,0.4034,-0.4349,157
3,-0.853,0.0887,0.1091,-0.8548,0.3958,-0.4557,157
3,-0.853,0.0887,0.1091,-0.8504,0.4481,-0.4643,157
3,-0.8591,0.0948,0.1082,-0.7359,0.4513,-0.4502,157
3,-0.9326,0.0398,0.0847,-0.7327,0.4568,-0.4437,157
3,-0.9061,-0.0347,0.0377,-0.7544,0.4252,-0.4284,157
3,-1.0031,-0.0061,0.0204,-0.6715,0.4229,-0.3815,157
3,-1.0347,-0.0102,0.0061,-0.6203,0.3838,-0.3914,157
3,-1.0081,-0.0112,-0.004,-0.5789,0.3532,-0.3903,157
3,-0.9826,-0.0163,-0.0153,-0.5374,0.3193,-0.3903,157
3,-0.8837,0.0,-0.0438,-0.5374,0.3193,-0.3903,157
3,-0.8837,0.0,-0.0438,-0.496,0.2888,-0.3946,157
3,-0.8418,0.0,-0.051,-0.4622,0.2638,-0.4109,157
3,-0.7949,-0.0163,-0.0612,-0.4513,0.23,-0.424,157
3,-0.7581,-0.0357,-0.0724,-0.4229,0.2081,-0.4273,157
3,-0.7224,-0.0286,-0.0622,-0.387,0.1852,-0.4197,157
3,-0.7071,-0.0479,-0.0796,-0.3794,0.1471,-0.4034,157
3,-0.702,-0.0663,-0.0847,-0.3729,0.1198,-0.3771,157
3,-0.6755,-0.052,-0.0908,-0.3237,0.0839,-0.339,157
3,-0.6867,-0.0071,-0.0816,-0.2932,0.0589,-0.3052,157
3,-0.6898,-0.002,-0.0877,-0.2932,0.0589,-0.3052,157
3,-0.6898,-0.002,-0.0877,-0.3019,0.0206,-0.2768,157
3,-0.7081,0.0092,-0.0857,-0.2922,0.0,-0.2507,157
3,-0.7153,0.0449,-0.0786,-0.2747,-0.0349,-0.2289,157
3,-0.7449,0.0704,-0.0867,-0.2911,-0.0631,-0.218,157
3,-0.7704,0.0816,-0.0693,-0.3085,-0.098,-0.2136,157
3,-0.7928,0.1102,-0.0591,-0.3216,-0.1232,-0.2136,157
3,-0.7969,0.0928,-0.051,-0.3761,-0.1547,-0.23,157
3,-0.8377,-0.0214,-0.0786,-0.4307,-0.1831,-0.2539,157
3,-0.8867,-0.0316,-0.0734,-0.3903,-0.1984,-0.255,157
3,-0.903,-0.0122,-0.053,-0.3903,-0.1984,-0.255,157
3,-0.9194,-0.0581,-0.0622,-0.3325,-0.2104,-0.2562,157
3,-0.9194,-0.0581,-0.0622,-0.3695,-0.2201,-0.2539,157
3,-0.9357,-0.1602,-0.1,-0.3695,-0.2354,-0.2388,157
3,-0.9816,-0.1102,-0.0724,-0.267,-0.23,-0.1776,157
3,-0.9745,-0.1082,-0.0745,-0.2605,-0.2321,-0.1362,157
3,-0.9877,-0.1551,-0.0908,-0.3041,-0.2245,-0.0925,157
3,-1.0541,-0.1796,-0.0541,-0.2539,-0.2115,-0.0185,157
3,-1.1183,-0.2275,-0.0847,-0.23,-0.1995,0.0643,157
3,-1.1439,-0.2122,-0.0704,-0.1623,-0.1951,0.1581,157
3,-1.1479,-0.1041,-0.0602,-0.0631,-0.2039,0.2453,157
3,-1.0898,-0.0857,-0.0612,-0.0631,-0.2039,0.2453,157
3,-1.1,-0.0918,-0.0775,-0.0479,-0.1962,0.3063,157
3,-1.1,-0.0918,-0.0775,-0.0675,-0.1951,0.3456,157
3,-1.0928,-0.1041,-0.0867,-0.0435,-0.1776,0.3794,157
3,-0.9949,-0.0245,-0.0479,0.0032,-0.1766,0.4055,157
3,-1.0122,0.0143,0.002,0.0185,-0.1667,0.4252,157
3,-1.1234,-0.001,0.0224,-0.025,-0.1232,0.4187,157
3,-1.2397,0.0,0.0459,0.0011,-0.0784,0.4034,157
3,-1.4785,0.0581,0.105,0.098,-0.0316,0.3826,157
3,-1.5591,0.1194,0.1387,0.2213,-0.0053,0.3783,157
3,-1.5857,0.1724,0.1561,0.2213,-0.0053,0.3783,157
3,-1.6561,0.1765,0.1428,0.3096,0.0021,0.3771,157
3,-1.6561,0.1765,0.1428,0.3008,0.0065,0.3804,157
3,-1.702,0.1234,0.0724,0.2899,-0.0294,0.4055,157
4,-1.6561,0.1581,0.0724,0.3336,-0.0969,0.4437,157
4,-1.5765,0.1673,0.0948,0.3292,-0.1558,0.4818,157
4,-1.4867,0.1143,0.101,0.2605,-0.2049,0.5026,157
4,-1.2928,-0.0479,0.1153,0.255,-0.2268,0.508,157
4,-1.2234,-0.0673,0.1387,0.3838,-0.2234,0.5167,157
4,-1.153,-0.0316,0.1694,0.3838,-0.2234,0.5167,157
4,-1.0786,0.002,0.1867,0.5679,-0.2115,0.5364,157
4,-0.9642,0.0643,0.1877,0.6814,-0.2016,0.557,157
4,-0.9642,0.0643,0.1877,0.7632,-0.1896,0.5778,157
4,-0.9285,0.1255,0.1908,0.8678,-0.1732,0.6039,157
4,-0.9061,0.1959,0.1826,0.9397,-0.1547,0.628,157
4,-0.8969,0.2622,0.1694,0.979,-0.1428,0.6421,157
4,-0.9194,0.3826,0.1377,0.9866,-0.1274,0.6476,157
4,-0.9275,0.454,0.1163,0.9855,-0.1242,0.6421,157
4,-0.9428,0.5275,0.1122,0.9692,-0.1297,0.6247,157
4,-0.9642,0.5541,0.0918,0.8819,-0.1329,0.5877,157
4,-0.9459,0.5469,0.0275,0.8819,-0.1329,0.5877,157
4,-0.9459,0.5469,0.0275,0.8002,-0.1396,0.5484,157
4,-0.9244,0.5693,0.0286,0.7762,-0.1384,0.52,157
4,-0.8887,0.5643,0.0183,0.6934,-0.1329,0.4818,157
4,-0.8582,0.5377,0.0163,0.6007,-0.1253,0.4448,157
4,-0.7459,0.5092,-0.0286,0.5843,-0.0719,0.3815,157
4,-0.7908,0.7173,0.0714,0.5843,-0.0719,0.3815,157
4,-0.7908,0.7173,0.0714,0.5538,-0.0751,0.3107,157
4,-0.6224,0.4214,-0.0163,0.1286,-0.1167,0.218,157
4,-0.5663,0.2397,-0.0398,-0.0566,-0.1089,0.2856,157
4,-0.5571,0.199,-0.0316,0.0196,-0.1057,0.3063,157
4,-0.5591,0.2449,0.0031,0.0751,-0.1242,0.3151,157
4,-0.65,0.2061,-0.0051,0.0686,-0.1297,0.3041,157
4,-0.6091,0.1887,-0.0143,0.1035,-0.1732,0.3151,157
4,-0.6408,0.2377,-0.0326,0.2104,-0.193,0.3205,157
4,-0.6102,0.4469,-0.0112,0.2104,-0.193,0.3205,157
4,-0.6102,0.4469,-0.0112,0.2791,-0.2245,0.3216,157
4,-0.551,0.4235,-0.0316,0.1558,-0.2693,0.2998,157
4,-0.5295,0.3041,-0.0755,-0.0435,-0.3227,0.2682,157
4,-0.6234,0.2908,-0.0591,-0.0349,-0.3445,0.2398,157
4,-0.6479,0.3234,-0.0193,0.0174,-0.3958,0.2245,157
4,-0.5714,0.3214,-0.0428,0.0152,-0.4034,0.1919,157
4,-0.6143,0.3939,-0.0234,0.0774,-0.4307,0.1678,157
4,-0.6571,0.4949,0.0347,0.0894,-0.4448,0.1396,157
4,-0.7592,0.4398,0.0347,-0.0566,-0.4536,0.0959,157
4,-0.752,0.4428,0.0286,-0.11,-0.4568,0.0599,157
4,-0.752,0.4428,0.0286,-0.11,-0.4568,0.0599,157
4,-0.8347,0.5551,0.0898,-0.0196,-0.4229,0.025,157
4,-0.8234,0.6316,0.0979,-0.0589,-0.3979,-0.037,157
4,-0.8734,0.5693,0.0786,-0.194,-0.35,-0.1264,157
4,-0.9235,0.5449,0.0745,-0.2191,-0.3107,-0.206,157
4,-0.9408,0.5449,0.0734,-0.1896,-0.2682,-0.2812,157
4,-0.9592,0.5234,0.0479,-0.193,-0.2344,-0.3466,157
4,-0.9694,0.5,0.0051,-0.1842,-0.2093,-0.3935,157
4,-0.9816,0.5051,0.0071,-0.1732,-0.1896,-0.4317,157
4,-0.9775,0.4704,0.002,-0.1984,-0.1722,-0.471,157
4,-0.9683,0.4244,-0.0081,-0.1984,-0.1722,-0.471,157
4,-0.9683,0.4244,-0.0081,-0.1907,-0.1428,-0.5156,157
4,-1.0786,0.4183,0.0438,-0.1286,-0.1024,-0.5593,157
4,-1.0306,0.3439,0.0806,-0.1297,-0.1133,-0.5789,157
4,-1.053,0.3245,0.1082,-0.0839,-0.1177,-0.5734,157
4,-1.102,0.4826,0.1969,0.0948,-0.0828,-0.5713,157
4,-1.3439,0.3846,0.2928,-0.073,-0.0217,-0.6312,157
4,-1.4601,0.0847,0.2397,-0.3477,0.0282,-0.6944,157
4,-1.4438,0.0428,0.2408,-0.0577,0.0577,-0.6672,157
4,-1.4571,0.2561,0.3541,0.2333,0.1133,-0.6312,157
4,-1.3908,0.1459,0.251,0.2333,0.1133,-0.6312,157
4,-1.2245,0.1234,0.199,0.1047,0.2016,-0.6323,157
4,-1.2245,0.1234,0.199,0.1003,0.2039,-0.5887,157
4,-1.4051,0.3204,0.2469,0.2737,0.2867,-0.5255,157
4,-1.2795,0.4408,0.2531,0.2039,0.2856,-0.4721,157
4,-1.3184,0.4633,0.1703,0.0217,0.2617,-0.4393,157
4,-1.4571,0.5734,0.1724,0.0087,0.2617,-0.4153,157
4,-1.3765,0.7408,0.2051,-0.0282,0.2388,-0.4187,157
4,-1.3969,0.7816,0.1735,-0.2922,0.231,-0.4687,157
4,-1.254,0.6928,0.1296,-0.5233,0.1613,-0.496,157
4,-1.1949,0.6408,0.1561,-0.5233,0.1613,-0.496,157
4,-1.0714,0.5693,0.1806,-0.6934,0.1428,-0.5396,157
4,-1.0714,0.5693,0.1806,-0.895,0.086,-0.581,157
4,-1.0092,0.4203,0.1816,-1.0761,0.073,-0.6247,157
4,-0.8846,0.2204,0.2234,-1.0967,0.074,-0.6421,157
4,-0.8796,0.1765,0.249,-1.1001,0.0751,-0.6465,157
4,-0.704,0.0316,0.2142,-1.1567,0.0751,-0.628,157
4,-0.7592,-0.0786,0.1959,-1.1218,0.1318,-0.5341,157
4,-0.7908,-0.1346,0.1755,-1.0804,0.1144,-0.5473,157
4,-0.7806,-0.1592,0.1469,-1.0804,0.1144,-0.5473,157
4,-0.8377,-0.1143,0.1571,-0.9692,0.1341,-0.5734,157
4,-0.8489,-0.2326,0.1112,-0.8471,0.157,-0.544,157
4,-0.8489,-0.2326,0.1112,-0.8994,0.1461,-0.5135,157
4,-0.8439,-0.3275,0.0734,-0.9321,0.1482,-0.483,157
4,-0.8612,-0.2969,0.0816,-0.7773,0.1461,-0.3739,157
4,-0.9347,-0.3,0.0714,-0.6606,0.1384,-0.3368,157
4,-0.7888,-0.2826,0.0163,-0.5047,0.0818,-0.3729,157
4,-0.7949,-0.1653,0.0673,-0.2932,0.074,-0.3445,157
4,-0.6898,-0.1653,0.051,-0.2714,0.0469,-0.326,157
4,-0.7071,-0.2163,0.0143,-0.2529,0.0599,-0.3085,157
4,-0.653,-0.0336,0.0551,-0.2529,0.0599,-0.3085,157
4,-0.653,-0.0336,0.0551,-0.086,0.0511,-0.2649,157
4,-0.6694,0.0183,0.0602,-0.0686,0.0545,-0.2321,157
4,-0.652,0.0,0.0336,-0.1667,0.036,-0.2136,157
4,-0.653,-0.0071,0.0132,-0.1744,0.0402,-0.1852,157
4,-0.6816,0.0684,0.0408,-0.157,0.0316,-0.1526,157
4,-0.7214,0.0581,0.0214,-0.2289,0.0272,-0.1352,157
4,-0.7183,0.0388,0.0092,-0.2737,0.0152,-0.11,157
4,-0.7602,0.0693,0.0143,-0.2583,0.0032,-0.085,157
4,-0.7816,0.1122,0.0245,-0.314,-0.0162,-0.0818,157
4,-0.7683,0.0673,0.0081,-0.314,-0.0162,-0.0818,157
4,-0.7683,0.0673,0.0081,-0.4197,-0.0337,-0.0894,157
4,-0.7745,0.0265,0.004,-0.4578,-0.0469,-0.0904,157
4,-0.803,0.0112,0.0112,-0.4763,-0.0511,-0.0904,157
4,-0.852,-0.0826,0.0132,-0.5112,-0.0599,-0.0904,157
4,-0.8653,-0.1234,0.0102,-0.4982,-0.073,-0.0795,157
4,-0.8867,-0.1122,0.0347,-0.4404,-0.0839,-0.061,157
5,-0.8857,-0.1632,0.0255,-0.4153,-0.0686,-0.0534,157
5,-0.9235,-0.201,0.0306,-0.35,-0.0751,-0.024,157
5,-1.0071,-0.1632,0.0663,-0.2737,-0.0534,0.0065,157
5,-0.999,-0.2051,0.053,-0.2737,-0.0349,0.0326,157
5,-1.0418,-0.2438,0.0255,-0.2737,-0.0349,0.0326,157
5,-1.0418,-0.2438,0.0255,-0.2365,-0.0185,0.0654,157
5,-1.0336,-0.2153,0.0265,-0.1503,-0.0141,0.1089,157
5,-1.0398,-0.2214,0.0112,-0.11,0.012,0.1503,157
5,-1.0224,-0.2183,0.0112,-0.061,0.0206,0.1896,157
5,-1.0153,-0.2101,0.0143,-0.012,0.0326,0.2268,157
5,-1.0051,-0.2173,0.0,0.0534,0.0545,0.2693,157
5,-0.9836,-0.1694,0.0051,0.1329,0.074,0.3172,157
5,-0.9836,-0.1408,0.0081,0.1526,0.0872,0.3586,157
5,-1.0122,-0.153,-0.002,0.1515,0.1013,0.4012,157
5,-1.0449,-0.1112,0.0143,0.1515,0.1013,0.4012,157
5,-1.0102,-0.0245,0.0571,0.2125,0.1003,0.4513,157
5,-1.0102,-0.0245,0.0571,0.2714,0.0937,0.5004,157
5,-1.0612,0.0561,0.103,0.2376,0.1155,0.5221,157
5,-1.3091,0.1561,0.1346,0.2005,0.1471,0.5135,157
5,-1.4041,0.2408,0.1877,0.2453,0.1755,0.4763,157
5,-1.5163,0.2795,0.2296,0.2376,0.2125,0.4175,157
5,-1.5418,0.2775,0.2632,0.2049,0.2234,0.3609,157
5,-1.5796,0.1816,0.2469,0.1722,0.2791,0.2966,157
5,-1.5336,0.1234,0.2092,0.1602,0.2507,0.3107,157
5,-1.4683,0.0745,0.1785,0.1755,0.2398,0.3422,157
5,-1.4469,-0.0234,0.1653,0.2125,0.2442,0.3794,157
5,-1.4469,-0.0234,0.1653,0.2125,0.2442,0.3794,157
5,-1.3949,-0.0745,0.152,0.2583,0.2081,0.4109,157
5,-1.3224,-0.1082,0.1296,0.3729,0.182,0.4393,157
5,-1.2479,-0.0652,0.1326,0.5877,0.1613,0.4698,157
5,-1.105,0.1071,0.1898,0.6966,0.1515,0.4895,157
5,-1.049,0.103,0.1673,0.6682,0.1438,0.4992,157
5,-0.9979,0.1173,0.1571,0.6988,0.1406,0.5244,157
5,-0.9765,0.1857,0.1561,0.7827,0.1526,0.557,157
5,-0.9694,0.3081,0.1561,0.7926,0.1438,0.5843,157
5,-0.9601,0.3296,0.1214,0.7554,0.1198,0.5865,157
5,-0.953,0.3796,0.1102,0.7554,0.1198,0.5865,157
5,-0.953,0.3796,0.1102,0.7903,0.1079,0.5877,157
5,-0.9877,0.4347,0.1041,0.8012,0.0948,0.5244,157
5,-0.9255,0.5061,0.0745,0.7795,0.073,0.4721,157
5,-0.9194,0.553,0.0765,0.7163,0.0904,0.4698,157
5,-0.8877,0.5643,0.0704,0.569,0.0937,0.4851,157
5,-0.8918,0.5153,0.0469,0.4229,0.1123,0.471,157
5,-0.8622,0.3541,0.0765,0.375,0.1167,0.4448,157
5,-0.852,0.3877,-0.0438,0.351,0.1308,0.4252,157
5,-0.8418,0.6102,0.0275,0.5156,0.1438,0.4273,157
5,-0.8479,0.7316,0.0836,0.5156,0.1438,0.4273,157
5,-0.6653,0.351,-0.0112,0.2005,0.0959,0.3041,157
5,-0.6653,0.351,-0.0112,-0.1646,0.0719,0.2932,157
5,-0.5948,0.1683,-0.0245,-0.218,0.0904,0.3422,157
5,-0.552,0.1449,-0.0092,-0.1188,0.0818,0.3761,157
5,-0.5428,0.1847,-0.0193,-0.0337,0.0959,0.3891,157
5,-0.6255,0.2888,0.0173,-0.0097,0.0795,0.3968,157
5,-0.6102,0.2234,-0.0255,-0.0751,0.0469,0.3979,157
5,-0.6398,0.2449,-0.0367,0.0196,0.0228,0.4044,157
5,-0.5755,0.3959,-0.0245,0.0925,-0.0021,0.4012,157
5,-0.5153,0.4122,-0.0234,-0.1406,-0.0599,0.3729,157
5,-0.6245,0.3132,-0.052,-0.1406,-0.0599,0.3729,157
5,-0.5163,0.2816,-0.0806,-0.339,-0.1024,0.3368,157
5,-0.5163,0.2816,-0.0806,-0.3172,-0.1657,0.3248,157
5,-0.651,0.302,-0.0408,-0.2539,-0.1503,0.3019,157
5,-0.6398,0.3193,-0.0826,-0.2507,-0.2115,0.2791,157
5,-0.7133,0.3367,-0.0826,-0.2278,-0.2256,0.2464,157
5,-0.6714,0.4183,-0.0775,-0.1919,-0.2682,0.2234,157
5,-0.8265,0.4683,-0.0234,-0.2812,-0.2888,0.1798,157
5,-0.803,0.4153,-0.0418,-0.3979,-0.3489,0.1329,157
5,-0.8969,0.4,-0.0428,-0.3794,-0.3193,0.0872,157
5,-0.8837,0.4765,0.0,-0.3794,-0.3193,0.0872,157
5,-0.9408,0.4347,0.0224,-0.2966,-0.3172,0.036,157
5,-0.9408,0.4347,0.0224,-0.3924,-0.2954,-0.036,157
5,-0.9398,0.3428,-0.001,-0.4426,-0.2911,-0.1024,157
5,-0.9724,0.3602,0.0234,-0.3117,-0.243,-0.1537,157
5,-0.9734,0.4081,0.0571,-0.2649,-0.2191,-0.1984,157
5,-0.9745,0.3112,-0.0092,-0.3096,-0.1972,-0.2409,157
5,-1.0132,0.3081,-0.0245,-0.2321,-0.1755,-0.2747,157
5,-1.0275,0.3469,-0.0204,-0.1471,-0.1722,-0.2976,157
5,-1.0551,0.3418,-0.0367,-0.1471,-0.1722,-0.2976,157
5,-1.0918,0.3275,-0.0734,-0.1701,-0.1875,-0.3237,156
5,-1.0979,0.3439,-0.0377,-0.1406,-0.2093,-0.3412,156
5,-1.0979,0.3439,-0.0377,-0.0675,-0.23,-0.351,156
5,-1.049,0.3326,-0.0377,-0.0925,-0.2888,-0.3695,156
5,-1.0132,0.3286,-0.0571,-0.024,-0.3183,-0.3586,156
5,-1.0652,0.5745,0.1622,0.0425,-0.2998,-0.3532,156
5,-1.1163,0.5031,0.1918,-0.1438,-0.2737,-0.3794,156
5,-1.2326,0.3357,0.1632,-0.231,-0.2169,-0.4153,156
5,-1.3286,0.303,0.202,-0.0545,-0.1667,-0.4284,156
5,-1.3765,0.2755,0.2734,-0.0631,-0.1438,-0.4469,156
5,-1.4255,0.1163,0.2224,-0.0631,-0.1438,-0.4469,156
5,-1.4255,0.1163,0.2224,-0.1329,-0.0839,-0.4797,156
5,-1.3469,0.1112,0.1867,0.0675,-0.0305,-0.4851,156
5,-1.4071,0.2224,0.25,0.1547,0.0305,-0.4884,156
5,-1.4142,0.1204,0.1969,0.0992,0.0621,-0.4916,156
5,-1.3448,0.151,0.1979,0.2147,0.0479,-0.4578,156
5,-1.4428,0.3102,0.2673,0.3456,0.0654,-0.4109,156
5,-1.3908,0.3887,0.2612,0.2867,0.0872,-0.3674,156
5,-1.3336,0.6091,0.1928,0.267,0.0806,-0.3302,156
5,-1.3816,0.7612,0.201,0.1896,0.1112,-0.3477,156
5,-1.2459,0.8051,0.1928,0.1896,0.1112,-0.3477,156
5,-1.2459,0.8051,0.1928,-0.0545,0.0698,-0.4284,156
5,-1.1653,0.7418,0.1867,-0.3085,0.085,-0.4731,156
5,-1.0224,0.5806,0.2255,-0.5124,0.0904,-0.5233,156
5,-0.9908,0.4847,0.2724,-0.6585,0.1144,-0.5723,156
5,-0.8959,0.3398,0.2786,-0.7861,0.1417,-0.6072,156
5,-0.8989,0.202,0.2704,-0.797,0.1678,-0.6148,156
5,-0.7224,0.0245,0.2673,-0.7817,0.1951,-0.6039,156
5,-0.8448,-0.0224,0.2602,-0.726,0.2802,-0.5461,156
5,-0.7367,-0.0336,0.2388,-0.6486,0.2659,-0.5516,156
5,-0.8143,-0.0663,0.2163,-0.6486,0.2659,-0.5516,156
5,-0.8683,-0.1357,0.1724,-0.5898,0.3008,-0.5789,156
5,-0.8683,-0.1357,0.1724,-0.5244,0.3325,-0.5516,156
6,-0.8724,-0.1541,0.1479,-0.4458,0.3314,-0.5145,156
6,-0.9092,-0.1428,0.1357,-0.3761,0.3422,-0.4818,156
6,-0.9622,-0.1653,0.0918,-0.2987,0.3237,-0.4546,156
6,-0.9724,-0.1357,0.0908,-0.2093,0.3063,-0.4208,156
6,-0.9449,-0.1224,0.0786,-0.1635,0.2737,-0.3935,156
6,-0.9367,-0.1234,0.051,-0.1232,0.255,-0.3663,156
6,-0.8582,-0.0796,0.0245,-0.0643,0.2409,-0.3434,156
6,-0.8224,-0.0704,0.0092,-0.0643,0.2409,-0.3434,156
6,-0.801,-0.0652,0.002,-0.0479,0.2159,-0.3237,156
6,-0.801,-0.0652,0.002,-0.0272,0.2005,-0.3063,156
6,-0.7673,-0.0326,0.0,0.0196,0.1831,-0.2802,156
6,-0.7234,0.0591,0.004,0.0261,0.1623,-0.2638,156
6,-0.7081,0.0643,-0.004,-0.0228,0.1449,-0.2529,156
6,-0.703,0.0643,-0.0153,-0.0479,0.1362,-0.242,156
6,-0.7071,0.0826,-0.0081,-0.0545,0.1242,-0.2278,156
6,-0.7,0.0928,-0.0102,-0.098,0.1003,-0.2159,156
6,-0.6898,0.0847,-0.0193,-0.1318,0.0806,-0.2016,156
6,-0.6918,0.0979,-0.0183,-0.1471,0.0589,-0.193,156
6,-0.6918,0.1122,-0.0092,-0.1471,0.0589,-0.193,156
6,-0.7133,0.0643,-0.0214,-0.1972,0.0457,-0.1896,156
6,-0.7133,0.0643,-0.0214,-0.255,0.0141,-0.1919,156
6,-0.7336,0.05,-0.0255,-0.2791,-0.0043,-0.1919,156
6,-0.7693,0.0081,-0.0153,-0.3466,-0.049,-0.1995,156
6,-0.7949,-0.0948,-0.0418,-0.326,-0.0818,-0.1896,156
6,-0.8398,-0.0704,-0.0092,-0.2453,-0.0872,-0.1667,156
6,-0.8387,-0.0684,0.004,-0.2638,-0.1089,-0.1471,156
6,-0.8663,-0.1285,-0.004,-0.2976,-0.1198,-0.1253,156
6,-0.8949,-0.1489,0.002,-0.2136,-0.1362,-0.0904,156
6,-0.9337,-0.1449,0.004,-0.1635,-0.1232,-0.0566,156
6,-0.9571,-0.1439,0.0,-0.157,-0.1417,-0.0326,156
6,-0.9367,-0.1602,-0.0193,-0.157,-0.1417,-0.0326,156
6,-0.9367,-0.1602,-0.0193,-0.1198,-0.1253,-0.0076,156
6,-0.9785,-0.1234,-0.0224,-0.0675,-0.1144,0.024,156
6,-1.0122,-0.1408,-0.0224,-0.0708,-0.1024,0.049,156
6,-1.0357,-0.1969,-0.0693,-0.0381,-0.1003,0.086,156
6,-1.0704,-0.1806,-0.0693,0.0915,-0.098,0.1318,156
6,-1.0898,-0.0939,-0.0541,0.1232,-0.1079,0.1711,156
6,-1.0887,-0.0969,-0.0734,0.1221,-0.11,0.2115,156
6,-1.101,-0.0755,-0.0724,0.1581,-0.1047,0.2562,156
6,-1.1143,-0.0388,-0.0571,0.1493,-0.1057,0.2943,156
6,-1.1265,-0.0714,-0.049,0.1493,-0.1057,0.2943,156
6,-1.1561,-0.0939,-0.0377,0.0969,-0.1112,0.3172,156
6,-1.1561,-0.0939,-0.0377,0.098,-0.1167,0.3422,156
6,-1.1735,-0.0857,-0.0081,0.1318,-0.1274,0.3771,156
6,-1.1377,-0.052,0.0347,0.1035,-0.1308,0.4044,156
6,-1.1908,-0.0255,0.0734,0.0948,-0.1144,0.4372,156
6,-1.2428,0.0714,0.1183,0.169,-0.085,0.4524,156
6,-1.3204,0.1714,0.1724,0.1744,-0.0425,0.4273,156
6,-1.403,0.254,0.2173,0.1384,-0.0021,0.375,156
6,-1.4153,0.2531,0.2101,0.1286,0.0511,0.326,156
6,-1.4612,0.2204,0.1969,0.1286,0.0511,0.326,156
6,-1.4949,0.1571,0.1724,0.1068,0.1133,0.2888,156
6,-1.4949,0.1571,0.1724,0.0621,0.1438,0.2791,156
6,-1.5438,-0.0255,0.105,0.0545,0.1449,0.3117,156
6,-1.5132,-0.051,0.0928,0.1297,0.1362,0.3739,156
6,-1.4704,-0.0347,0.1173,0.2005,0.1373,0.4349,156
6,-1.4285,-0.0469,0.1408,0.2104,0.1274,0.4687,156
6,-1.2888,-0.1234,0.1561,0.2725,0.1264,0.4862,156
6,-1.2163,-0.1071,0.1796,0.4307,0.1362,0.5112,156
6,-1.1387,-0.0541,0.204,0.4307,0.1362,0.5112,156
6,-1.0734,0.0051,0.2142,0.5799,0.1406,0.5299,156
6,-0.9673,0.0796,0.1847,0.6508,0.1406,0.5484,156
6,-0.9673,0.0796,0.1847,0.6999,0.1406,0.5757,156
6,-0.9367,0.1561,0.1714,0.7708,0.1471,0.6062,156
6,-0.9275,0.2479,0.1642,0.7981,0.1493,0.6323,156
6,-0.9275,0.3102,0.1541,0.7577,0.1417,0.6411,156
6,-0.9122,0.3775,0.1224,0.7228,0.1286,0.6442,156
6,-0.9214,0.4357,0.1306,0.7043,0.1373,0.6388,156
6,-0.9316,0.4601,0.1408,0.6159,0.1406,0.6257,156
6,-0.9296,0.4408,0.1204,0.5353,0.1384,0.6127,156
6,-0.9153,0.4642,0.1102,0.5353,0.1384,0.6127,156
6,-0.9153,0.4642,0.1102,0.5276,0.1515,0.6106,156
6,-0.8979,0.4867,0.1194,0.4589,0.1591,0.5984,156
6,-0.8724,0.452,0.0908,0.3412,0.1732,0.5843,156
6,-0.8408,0.4071,0.0775,0.2954,0.181,0.5757,156
6,-0.7938,0.3622,0.0867,0.2954,0.181,0.5757,156
6,-0.7449,0.2285,0.0561,0.1755,0.2081,0.556,156
6,-0.7581,0.2571,-0.051,0.1755,0.2081,0.556,156
6,-0.7204,0.4938,0.0286,0.3445,0.2376,0.5789,156
6,-0.5622,0.4398,0.0051,-0.0032,0.1875,0.4414,156
6,-0.5826,0.2449,-0.0612,-0.0032,0.1875,0.4414,156
6,-0.5826,0.2449,-0.0612,-0.1787,0.2191,0.5211,156
6,-0.552,0.2153,-0.0336,-0.0828,0.1755,0.5408,156
6,-0.4469,0.2438,-0.049,-0.0828,0.1755,0.5408,156
6,-0.5347,0.3296,-0.0245,-0.049,0.2071,0.5364,156
6,-0.5918,0.2938,-0.049,-0.085,0.1744,0.5265,156
6,-0.5857,0.2724,-0.0765,-0.1449,0.157,0.5059,156
6,-0.5724,0.3336,-0.0796,-0.0446,0.0818,0.471,156
6,-0.5479,0.4132,-0.0714,-0.0446,0.0818,0.471,156
6,-0.6837,0.351,-0.1112,-0.1537,0.0043,0.4448,156
6,-0.5867,0.3459,-0.1061,-0.2714,-0.0479,0.4132,156
6,-0.7418,0.3785,-0.103,-0.2714,-0.0479,0.4132,156
6,-0.7418,0.3785,-0.103,-0.2768,-0.1297,0.3914,156
6,-0.6826,0.4265,-0.0765,-0.231,-0.1264,0.3586,156
6,-0.8051,0.4244,-0.0632,-0.2201,-0.1951,0.3271,156
6,-0.7734,0.452,-0.0643,-0.2693,-0.2016,0.2768,156
6,-0.8612,0.4387,-0.0234,-0.2888,-0.2594,0.2191,156
6,-0.901,0.3928,-0.0234,-0.3619,-0.2703,0.1526,156
6,-0.9377,0.3969,-0.0061,-0.375,-0.2714,0.0872,156
6,-0.9326,0.4459,0.0224,-0.3073,-0.2627,0.0326,156
6,-0.9642,0.3479,0.0214,-0.2823,-0.2507,-0.0228,156
6,-0.9734,0.2683,0.0031,-0.2823,-0.2507,-0.0228,156
6,-0.9908,0.2745,-0.0071,-0.3466,-0.2245,-0.0937,156
6,-0.9908,0.2745,-0.0071,-0.2998,-0.1962,-0.1449,156
6,-0.9959,0.3326,-0.0173,-0.1417,-0.1701,-0.1755,156
6,-1.0326,0.3377,-0.0908,-0.0675,-0.1547,-0.2005,156
6,-1.049,0.352,-0.1082,-0.0795,-0.1503,-0.2278,156
6,-1.053,0.4061,-0.0836,-0.0349,-0.1547,-0.2485,156
7,-1.0826,0.4183,-0.0673,0.0053,-0.1667,-0.2703,156
7,-1.0224,0.3469,-0.0898,-0.0349,-0.181,-0.3019,156
7,-1.0684,0.4449,-0.0591,-0.0621,-0.2049,-0.3292,156
7,-1.0132,0.6,0.0102,-0.0621,-0.2049,-0.3292,156
7,-1.0643,0.5367,0.0295,0.0818,-0.1732,-0.3542,156
7,-1.0643,0.5367,0.0295,0.061,-0.1711,-0.3946,156
7,-0.9683,0.2571,0.0388,-0.1722,-0.1842,-0.4393,156
7,-1.1112,0.3939,0.1112,-0.085,-0.193,-0.4404,156
7,-1.355,0.5652,0.2224,0.1732,-0.1352,-0.4197,156
7,-1.4203,0.4663,0.2255,0.1177,-0.1167,-0.4197,156
7,-1.5398,0.4357,0.1775,-0.085,-0.0904,-0.4393,156
7,-1.5541,0.6132,0.2724,0.0894,-0.0774,-0.4458,156
7,-1.4847,0.5112,0.2428,0.098,-0.0196,-0.5036,156
7,-1.4265,0.2101,0.1183,0.098,-0.0196,-0.5036,156
7,-1.3622,0.3918,0.2183,-0.2583,-0.012,-0.5952,156
7,-1.3622,0.3918,0.2183,-0.242,0.0272,-0.6291,156
7,-1.35,0.552,0.2765,0.1318,0.0457,-0.5908,156
7,-1.3112,0.5143,0.2622,0.073,0.0698,-0.5734,156
7,-1.1969,0.45,0.1714,-0.1558,0.0566,-0.5702,156
7,-1.1102,0.6714,0.2397,-0.1188,0.1274,-0.5549,156
7,-1.0928,0.5449,0.2092,-0.1831,0.1449,-0.5473,156
7,-0.9642,0.3184,0.1326,-0.5473,0.1503,-0.569,156
7,-0.9081,0.2459,0.152,-0.6574,0.1482,-0.5723,156
7,-0.8152,0.2877,0.2581,-0.6574,0.1482,-0.5723,156
7,-0.7643,0.0183,0.1826,-0.7544,0.2081,-0.5723,156
7,-0.7724,0.0693,0.2163,-0.7544,0.2081,-0.5723,156
7,-0.8071,-0.0071,0.1694,-0.5877,0.2594,-0.5156,156
7,-0.8071,-0.0071,0.1694,-0.5309,0.2867,-0.5473,156
7,-0.8602,0.0092,0.15,-0.5189,0.2954,-0.5505,156
7,-0.8959,0.0255,0.1326,-0.4721,0.3085,-0.5287,156
7,-0.9653,-0.0122,0.0684,-0.4655,0.3128,-0.5135,156
7,-0.9877,-0.0071,0.051,-0.4742,0.3096,-0.5026,156
7,-0.9775,0.0173,0.0398,-0.4372,0.2987,-0.4895,156
7,-0.9633,0.0408,0.0234,-0.388,0.2802,-0.4677,156
7,-0.8755,0.0367,-0.0102,-0.3891,0.2617,-0.4589,156
7,-0.8653,0.0336,-0.0336,-0.3891,0.2617,-0.4589,156
7,-0.8489,0.0295,-0.0408,-0.4132,0.2376,-0.4513,156
7,-0.8489,0.0295,-0.0408,-0.4034,0.2224,-0.4414,156
7,-0.8367,0.0204,-0.0663,-0.4055,0.1972,-0.4284,156
7,-0.8173,0.051,-0.0652,-0.4023,0.1678,-0.4132,156
7,-0.7938,0.0449,-0.0724,-0.3804,0.1373,-0.3979,156
7,-0.799,0.0286,-0.0857,-0.4044,0.1068,-0.3826,156
7,-0.7612,0.0224,-0.0765,-0.4208,0.0631,-0.3597,156
7,-0.7683,-0.004,-0.0847,-0.4361,0.0272,-0.3314,156
7,-0.7561,0.0102,-0.0826,-0.4317,-0.0032,-0.2998,156
7,-0.7867,0.0306,-0.0775,-0.4317,-0.0032,-0.2998,156
7,-0.7612,0.0428,-0.0857,-0.4077,-0.037,-0.2659,156
7,-0.7806,0.0755,-0.0765,-0.412,-0.074,-0.2376,156
7,-0.7806,0.0755,-0.0765,-0.4317,-0.1112,-0.2268,156
7,-0.7826,0.0693,-0.0786,-0.4502,-0.1558,-0.2268,156
7,-0.803,0.0367,-0.0867,-0.5026,-0.1907,-0.2398,156
7,-0.8071,0.0286,-0.0918,-0.532,-0.2256,-0.2539,156
7,-0.8265,0.0234,-0.0745,-0.5145,-0.255,-0.2682,156
7,-0.8418,-0.0163,-0.0796,-0.544,-0.2888,-0.2844,156
7,-0.8398,-0.051,-0.0826,-0.5734,-0.3161,-0.2966,156
7,-0.8846,-0.0806,-0.0765,-0.5734,-0.3161,-0.2966,156
7,-0.8846,-0.0806,-0.0765,-0.5635,-0.3336,-0.2976,156
7,-0.9551,-0.1908,-0.0693,-0.5494,-0.3466,-0.2899,156
7,-0.9551,-0.1908,-0.0693,-0.5385,-0.363,-0.2507,156
7,-1.0122,-0.2245,-0.0652,-0.4982,-0.3641,-0.1526,156
7,-1.0143,-0.2765,-0.0724,-0.4404,-0.3761,-0.1537,156
7,-1.0193,-0.1714,-0.0051,-0.2823,-0.3815,-0.1482,156
7,-1.0948,-0.1469,0.0143,-0.1776,-0.3597,-0.0904,156
7,-1.0245,-0.1377,0.002,-0.1732,-0.3466,-0.0589,156
7,-1.0836,-0.1408,-0.001,-0.1776,-0.3292,-0.0294,156
7,-1.0775,-0.1204,-0.0234,-0.1493,-0.2987,0.0011,156
7,-1.0306,-0.1346,-0.0357,-0.1493,-0.2987,0.0011,156
7,-1.0306,-0.1346,-0.0357,-0.1352,-0.2802,0.0272,156
7,-1.0693,-0.1653,-0.0663,-0.1428,-0.2529,0.0511,156
7,-1.0602,-0.1367,-0.0438,-0.0818,-0.2104,0.0795,156
7,-1.0989,-0.2101,-0.0163,-0.0719,-0.2093,0.1112,156
7,-1.0836,-0.2388,0.002,-0.1167,-0.1766,0.1417,156
7,-1.0959,-0.1959,0.049,-0.0469,-0.1646,0.1962,156
7,-1.0826,-0.101,0.1214,0.049,-0.1274,0.2725,156
7,-1.2296,0.0541,0.249,0.0534,-0.0937,0.3336,156
7,-1.3448,0.0581,0.2632,-0.0294,-0.036,0.3477,156
7,-1.4847,0.1245,0.2836,-0.0294,-0.036,0.3477,155
7,-1.4847,0.1245,0.2836,0.0108,0.0337,0.3368,155
7,-1.5826,0.2469,0.3,0.1623,0.1003,0.314,155
7,-1.6724,0.2388,0.1785,0.1461,0.1242,0.2878,155
7,-1.6561,0.1826,0.1245,0.0217,0.1352,0.2693,155
7,-1.5979,0.1581,0.1337,-0.036,0.1188,0.2812,155
7,-1.3663,0.0459,0.203,-0.0751,0.0818,0.3216,155
7,-1.2194,-0.0622,0.2265,-0.1471,0.0457,0.3434,155
7,-1.1132,-0.1132,0.25,-0.1471,0.0294,0.3597,155
7,-1.0071,-0.0714,0.3041,0.0097,0.0545,0.3946,155
7,-0.8867,0.1132,0.401,0.0097,0.0545,0.3946,155
7,-0.8296,0.1683,0.4112,0.2005,0.0894,0.4317,155
7,-0.8296,0.1683,0.4112,0.2529,0.1352,0.4546,155
7,-0.8091,0.202,0.3765,0.218,0.1776,0.4698,155
7,-0.7969,0.2867,0.3632,0.2245,0.242,0.4938,155
7,-0.7898,0.4275,0.3286,0.2594,0.3052,0.5004,155
7,-0.7806,0.4092,0.2734,0.1602,0.35,0.4721,155
7,-0.7724,0.4275,0.2408,0.0654,0.3859,0.4404,155
7,-0.8132,0.4765,0.2214,0.0708,0.4382,0.4088,155
7,-0.8245,0.4663,0.1428,0.0206,0.4786,0.3466,155
7,-0.8877,0.5,0.1132,0.0206,0.4786,0.3466,155
7,-0.901,0.5,0.0847,-0.0501,0.4862,0.3073,155
7,-0.901,0.5,0.0847,-0.1047,0.5179,0.3172,155
7,-0.9142,0.4755,0.0561,-0.2224,0.5211,0.3031,155
7,-0.8969,0.4203,0.0255,-0.3205,0.5102,0.2812,155
7,-0.8643,0.3673,0.0183,-0.3968,0.5102,0.2627,155
7,-0.852,0.2877,0.0132,-0.4862,0.5015,0.242,155
7,-0.8377,0.2142,0.0081,-0.5418,0.5047,0.23,155
7,-0.8265,0.151,0.0183,-0.5309,0.495,0.23,155
7,-0.8387,0.103,0.0336,-0.5124,0.4971,0.2354,155
7,-0.8143,-0.0357,0.0112,-0.5167,0.4786,0.2485,155
7,-0.7826,0.004,-0.1122,-0.5167,0.4786,0.2485,155
7,-0.8152,0.4214,0.0143,-0.4841,0.4414,0.2703,155
8,-0.8152,0.4214,0.0143,-0.2049,0.4372,0.3128,155
8,-0.6735,0.2979,-0.0418,-0.3052,0.4099,0.3107,155
8,-0.6694,-0.0112,-0.1612,-0.7272,0.3107,0.2802,155
8,-0.5979,0.004,-0.1091,-0.6835,0.2725,0.2911,155
8,-0.7683,0.2571,-0.0347,-0.4414,0.2201,0.3336,155
8,-0.5571,0.1877,-0.0816,-0.471,0.2104,0.3489,155
8,-0.754,0.1153,-0.0816,-0.5996,0.1384,0.3336,155
8,-0.6459,0.1673,-0.0969,-0.5996,0.1384,0.3336,155
8,-0.7632,0.3939,-0.0347,-0.508,0.1024,0.3477,155
8,-0.6469,0.401,-0.0734,-0.3815,0.073,0.3575,155
8,-0.6469,0.401,-0.0734,-0.4492,0.0152,0.351,155
8,-0.7816,0.3224,-0.103,-0.64,-0.0381,0.3183,155
8,-0.754,0.3428,-0.1061,-0.6715,-0.0577,0.3019,155
8,-0.9316,0.5612,-0.049,-0.5734,-0.0469,0.2823,155
8,-0.8653,0.5051,-0.0989,-0.664,-0.0795,0.2039,155
8,-0.9949,0.5286,-0.1071,-0.7817,-0.0883,0.1297,155
8,-1.05,0.5857,-0.0775,-0.8056,-0.1024,0.1264,155
8,-1.0479,0.4877,-0.1306,-0.966,-0.1373,0.0664,155
8,-1.0561,0.4163,-0.1541,-0.966,-0.1373,0.0664,155
8,-1.0561,0.4163,-0.1541,-1.111,-0.1667,0.0087,155
8,-1.0581,0.3989,-0.1561,-1.1164,-0.181,-0.0349,155
8,-1.05,0.2806,-0.1877,-1.1251,-0.2081,-0.0751,155
8,-1.0449,0.2224,-0.201,-1.1764,-0.2321,-0.1144,155
8,-1.0336,0.2449,-0.1796,-1.1207,-0.2518,-0.1297,155
8,-1.0286,0.2959,-0.151,-1.0183,-0.2529,-0.1286,155
8,-0.9183,0.2561,-0.1346,-1.0673,-0.2201,-0.1341,155
8,-0.8632,0.2551,-0.1132,-1.0532,-0.2039,-0.1384,155
8,-0.8143,0.252,-0.0877,-1.0389,-0.1591,-0.1471,155
8,-0.6806,0.251,-0.0275,-1.0379,-0.1079,-0.1646,155
8,-0.6377,0.2469,0.0051,-1.0335,-0.025,-0.1852,155
8,-0.6122,0.2469,0.0265,-1.0335,-0.025,-0.1852,155
8,-0.6326,0.2704,0.0693,-1.016,0.0654,-0.2093,155
8,-0.6326,0.2704,0.0693,-0.9866,0.1732,-0.23,155
8,-0.7449,0.2449,0.1183,-0.966,0.267,-0.2529,155
8,-0.7071,0.299,0.1153,-0.9059,0.4044,-0.2617,155
8,-0.8245,0.3571,0.1122,-0.8405,0.4622,-0.2562,155
8,-0.8428,0.3459,0.0765,-0.8765,0.5538,-0.2737,155
8,-1.0602,0.3265,0.0193,-0.9168,0.6181,-0.2834,155
8,-1.1571,0.4081,0.0122,-0.8842,0.6421,-0.2856,155
8,-1.2357,0.4949,0.0173,-0.8842,0.6421,-0.2856,155
8,-1.2194,0.4826,0.0204,-0.8613,0.6486,-0.3008,155
8,-1.2092,0.2908,0.0275,-0.9834,0.6138,-0.35,155
8,-1.2092,0.2908,0.0275,-1.1884,0.5789,-0.4109,155
8,-1.1857,0.3173,0.0939,-1.2319,0.5843,-0.4513,155
8,-1.3683,0.3061,0.15,-1.2493,0.6236,-0.4655,155
8,-1.4755,0.2377,0.1071,-1.354,0.6497,-0.471,155
8,-1.651,0.1908,-0.0887,-1.3889,0.628,-0.4492,155
8,-1.5326,0.2806,-0.1091,-1.3126,0.5908,-0.4187,155
8,-1.4163,0.1928,-0.1285,-1.4118,0.4775,-0.4088,155
8,-1.3887,0.0561,-0.1346,-1.6604,0.4065,-0.4143,155
8,-1.1346,0.002,-0.0479,-1.6604,0.4065,-0.4143,155
8,-0.9642,0.0796,0.0459,-1.6964,0.2714,-0.3729,155
8,-0.9642,0.0796,0.0459,-1.6321,0.2932,-0.3183,155
8,-0.8591,0.0193,0.0071,-1.6518,0.2039,-0.2649,155
8,-0.9061,0.0112,0.0367,-1.7117,0.2388,-0.2333,155
8,-0.8602,0.0286,0.0357,-1.6735,0.1766,-0.1875,155
8,-0.6949,-0.0153,0.0234,-1.6867,0.2093,-0.2049,155
8,-0.7643,-0.0122,0.0102,-1.644,0.1831,-0.2234,155
8,-0.8071,0.0214,0.0173,-1.5797,0.2256,-0.2365,155
8,-0.851,-0.051,-0.0245,-1.6005,0.218,-0.2495,155
8,-0.7775,-0.051,-0.0295,-1.6321,0.2191,-0.2529,155
8,-0.7775,-0.051,-0.0295,-1.6321,0.2191,-0.2529,155
8,-0.8602,-0.0255,-0.0265,-1.5579,0.2388,-0.2464,155
8,-0.8928,0.001,-0.0122,-1.5526,0.2573,-0.2354,155
8,-0.9612,-0.0602,-0.0663,-1.6114,0.2474,-0.2321,155
8,-0.9214,-0.0347,-0.0693,-1.5994,0.242,-0.2191,155
8,-0.9908,0.0132,-0.0775,-1.5351,0.2398,-0.1984,155
8,-0.9877,0.0306,-0.1541,-1.5591,0.2169,-0.181,155
8,-0.9979,0.05,-0.1735,-1.606,0.2005,-0.1657,155
8,-0.9796,0.0939,-0.1816,-1.6114,0.1766,-0.1493,155
8,-1.0031,0.0959,-0.1816,-1.6625,0.1623,-0.1449,155
8,-1.0,0.0428,-0.1724,-1.6625,0.1623,-0.1449,155
8,-1.0,0.0428,-0.1724,-1.7487,0.1329,-0.1449,155
8,-0.9877,-0.004,-0.1663,-1.8076,0.1089,-0.1406,155
8,-1.002,-0.0643,-0.1694,-1.8556,0.0959,-0.1308,155
8,-1.0031,-0.1143,-0.1653,-1.8708,0.0806,-0.1112,155
8,-1.0112,-0.2204,-0.1469,-1.8544,0.0599,-0.0795,155
8,-1.0306,-0.2275,-0.1357,-1.8207,0.0501,-0.0097,154
8,-1.0632,-0.2438,-0.1479,-1.7749,0.0392,0.0904,154
8,-1.004,-0.2836,-0.1612,-1.7128,0.0185,0.0818,154
8,-0.9918,-0.1775,-0.105,-1.5645,0.0076,0.1013,154
8,-1.0469,-0.1928,-0.1132,-1.5645,0.0076,0.1013,154
8,-0.9888,-0.2194,-0.1469,-1.5067,0.0076,0.1428,154
8,-0.9888,-0.2194,-0.1469,-1.5318,0.0065,0.169,154
8,-1.0336,-0.2112,-0.1377,-1.4761,0.0032,0.2016,154
8,-1.0336,-0.1735,-0.1296,-1.4009,-0.0043,0.2388,154
8,-1.0163,-0.1806,-0.1439,-1.3781,-0.0087,0.2703,154
8,-0.9816,-0.1735,-0.1459,-1.3497,-0.036,0.3041,154
8,-1.0081,-0.1398,-0.1398,-1.2865,-0.0272,0.3314,154
8,-0.9775,-0.1194,-0.1245,-1.2483,-0.049,0.3586,154
8,-0.9377,-0.1255,-0.1346,-1.2592,-0.0435,0.3739,154
8,-0.9551,-0.1173,-0.1316,-1.2592,-0.0435,0.3739,154
8,-0.9449,-0.0979,-0.1143,-1.2222,-0.0435,0.3924,154
8,-0.9449,-0.0979,-0.1143,-1.1709,-0.0316,0.4065,154
8,-0.9337,-0.1785,-0.1204,-1.184,-0.0316,0.4164,154
8,-0.903,-0.203,-0.1234,-1.173,-0.0326,0.4338,154
8,-0.9398,-0.1887,-0.0969,-1.0913,-0.0141,0.4721,154
8,-0.8918,-0.1959,-0.0724,-1.0455,-0.0032,0.5015,154
8,-0.9051,-0.3163,-0.053,-1.0259,0.025,0.532,154
8,-0.8826,-0.3143,-0.0153,-0.9071,0.0435,0.581,154
8,-0.9041,-0.3336,0.004,-0.7827,0.0915,0.6421,154
8,-0.8643,-0.3591,-0.004,-0.7827,0.0915,0.6421,154
8,-0.8704,-0.3091,-0.001,-0.6737,0.1384,0.7119,154
8,-0.8704,-0.3091,-0.001,-0.5167,0.2039,0.8056,154
8,-0.8857,-0.301,-0.0234,-0.4012,0.2627,0.8329,154
8,-0.8887,-0.2122,0.0081,-0.206,0.3248,0.871,154
8,-0.949,-0.103,0.0347,-0.0664,0.3848,0.8885,154
8,-1.0673,0.0571,0.0714,-0.0076,0.4513,0.87,154
8,-1.1408,0.1959,0.1071,0.0534,0.5004,0.8319,154
8,-1.1234,0.3041,0.1204,0.0708,0.5385,0.7926,154
9,-1.1612,0.4581,0.1071,0.0326,0.6028,0.7108,154
9,-1.2081,0.5734,0.1102,0.0326,0.6028,0.7108,154
9,-1.2081,0.5734,0.1102,0.0316,0.6257,0.6454,154
9,-1.2245,0.6071,0.0265,-0.0337,0.6672,0.5843,154
9,-1.2245,0.6071,0.0265,-0.194,0.6726,0.4982,154
9,-1.2459,0.6234,0.0071,-0.2911,0.664,0.4721,154
9,-1.2245,0.5877,0.0051,-0.3935,0.6291,0.4307,154
9,-1.2428,0.5581,0.0051,-0.5059,0.5658,0.3838,154
9,-1.1877,0.5959,0.052,-0.569,0.4633,0.3619,154
9,-1.1245,0.5286,0.0408,-0.6901,0.3695,0.339,154
9,-1.002,0.4642,0.0388,-0.8361,0.3019,0.3117,154
9,-0.9806,0.4326,0.0561,-0.8994,0.2659,0.2779,154
9,-0.8857,0.4183,0.0826,-0.8994,0.2659,0.2779,154
9,-0.8857,0.4183,0.0826,-0.8994,0.2485,0.2289,154
9,-0.8591,0.2765,0.1194,-0.9202,0.2779,0.1667,154
9,-0.7234,0.2336,0.0459,-0.9202,0.2856,0.1089,154
9,-0.853,0.3796,0.0388,-0.8264,0.2976,0.073,154
9,-0.801,0.5469,0.1367,-0.702,0.3346,0.0414,154
9,-0.8439,0.1703,-0.0204,-0.9582,0.35,-0.0152,154
9,-0.8571,0.1071,-0.0887,-1.1131,0.3008,-0.036,154
9,-0.9367,0.4173,-0.002,-0.7676,0.3609,0.0,154
9,-0.954,0.5979,0.0479,-0.7108,0.3052,0.0185,154
9,-0.9479,0.1602,-0.1592,-0.7108,0.3052,0.0185,154
9,-0.9479,0.1602,-0.1592,-1.1579,0.2703,-0.0076,154
9,-1.0816,0.3428,-0.1255,-1.111,0.2278,0.0294,154
9,-0.9102,0.501,-0.1204,-0.9801,0.1755,-0.0206,154
9,-0.9102,0.501,-0.1204,-1.2974,0.1384,-0.0479,154
9,-0.9398,0.6204,-0.0867,-1.2407,0.1274,-0.0566,154
9,-0.9337,0.6969,-0.0591,-1.2613,0.1515,-0.1057,154
9,-0.9316,0.5684,-0.1132,-1.5253,0.1471,-0.1798,154
9,-0.8591,0.4112,-0.1642,-1.631,0.1352,-0.2147,154
9,-0.9224,0.4244,-0.1346,-1.5645,0.1352,-0.231,154
9,-0.8765,0.3612,-0.1459,-1.6245,0.1352,-0.2539,154
9,-0.9347,0.2561,-0.1847,-1.6245,0.1352,-0.2539,154
9,-0.8643,0.2459,-0.1571,-1.7062,0.1297,-0.2594,154
9,-1.0173,0.2133,-0.1592,-1.6375,0.0969,-0.2453,154
9,-1.0173,0.2133,-0.1592,-1.6255,0.1198,-0.2518,154
9,-0.9367,0.1581,-0.1683,-1.6474,0.0959,-0.2289,154
9,-1.0561,0.1857,-0.1857,-1.5787,0.11,-0.2159,154
9,-0.9949,0.4092,-0.1653,-1.462,0.0806,-0.194,154
9,-0.9663,0.3326,-0.1908,-1.5601,0.0925,-0.2125,154
9,-0.8867,0.1918,-0.2551,-1.7476,0.0349,-0.2365,154
9,-0.8704,0.1826,-0.2581,-1.6528,0.0392,-0.2594,154
9,-0.8704,0.4367,-0.1132,-1.5055,0.0664,-0.2768,154
9,-0.802,0.301,-0.1541,-1.5055,0.0664,-0.2768,154
9,-0.802,0.301,-0.1541,-1.6877,0.0631,-0.3172,154
9,-0.7765,0.204,-0.1571,-1.8262,0.0839,-0.3597,154
9,-0.6408,0.2265,-0.1541,-1.6867,0.11,-0.3771,154
9,-0.6245,0.2643,-0.053,-1.6594,0.2071,-0.4132,154
9,-0.5979,0.1255,-0.101,-1.7913,0.2453,-0.4492,154
9,-0.6214,0.1337,-0.0652,-1.7117,0.351,-0.4317,154
9,-0.6459,0.1816,-0.0102,-1.5688,0.4295,-0.4481,154
9,-0.653,0.1469,-0.0102,-1.5558,0.5112,-0.4851,154
9,-0.7397,0.1581,-0.0286,-1.5034,0.5877,-0.4927,154
9,-0.7765,0.252,-0.0286,-1.5034,0.5877,-0.4927,154
9,-0.7765,0.252,-0.0286,-1.3813,0.6629,-0.4938,154
9,-0.8673,0.3152,-0.101,-1.3781,0.7447,-0.5244,154
9,-0.8724,0.2581,-0.1387,-1.4696,0.7893,-0.5713,154
9,-0.9102,0.2255,-0.1469,-1.4948,0.8187,-0.6181,154
9,-0.999,0.2561,-0.15,-1.4424,0.8471,-0.653,154
9,-1.0153,0.2602,-0.1551,-1.4609,0.8144,-0.6869,154
9,-1.0388,0.2204,-0.1642,-1.5471,0.8329,-0.7272,154
9,-1.0061,0.2449,-0.1357,-1.5143,0.8252,-0.7489,154
9,-1.0081,0.2388,-0.105,-1.5459,0.8285,-0.7621,154
9,-0.9897,0.0806,-0.1296,-1.6506,0.8166,-0.7598,154
9,-0.9888,0.0826,-0.0948,-1.6506,0.8166,-0.7598,154
9,-0.9888,0.0826,-0.0948,-1.6234,0.8264,-0.726,154
9,-1.0459,0.1061,-0.052,-1.5732,0.8504,-0.6835,154
9,-1.1122,0.0877,-0.0286,-1.6081,0.8548,-0.64,154
9,-1.4877,0.0877,-0.0652,-1.6102,0.87,-0.5952,154
9,-1.6887,0.153,-0.1346,-1.5318,0.8548,-0.5429,154
9,-1.7959,0.1847,-0.2551,-1.5633,0.7838,-0.5004,154
9,-1.7214,0.1581,-0.351,-1.7084,0.652,-0.4492,154
9,-1.3612,0.1908,-0.3081,-1.8393,0.4927,-0.4,154
9,-1.2632,0.0663,-0.2745,-2.0759,0.3532,-0.3729,154
9,-1.1091,-0.0428,-0.251,-2.0759,0.3532,-0.3729,154
9,-1.0295,-0.05,-0.1551,-2.1903,0.3161,-0.3445,154
9,-1.0295,-0.05,-0.1551,-2.1282,0.2768,-0.2987,154
9,-0.9612,-0.1703,-0.1357,-2.1587,0.2453,-0.2354,154
9,-1.0214,-0.1959,-0.1316,-2.102,0.1984,-0.1711,154
9,-1.0286,-0.1612,-0.1439,-1.9156,0.1667,-0.2125,154
9,-1.0163,-0.0989,-0.1163,-1.7552,0.1242,-0.2779,154
9,-1.0826,-0.1428,-0.1663,-1.7869,0.0915,-0.2976,154
9,-1.0887,-0.2275,-0.1969,-1.8654,0.037,-0.3216,154
9,-1.0959,-0.2581,-0.1908,-1.7825,0.0087,-0.326,154
9,-1.0775,-0.2438,-0.1694,-1.7825,0.0087,-0.326,154
9,-1.0316,-0.2938,-0.2101,-1.7062,-0.0337,-0.3248,154
9,-1.0316,-0.2938,-0.2101,-1.7029,-0.0664,-0.3281,154
9,-0.9897,-0.2643,-0.1735,-1.6102,-0.085,-0.3073,154
9,-1.0122,-0.2592,-0.1387,-1.5558,-0.1112,-0.2844,154
9,-0.902,-0.3245,-0.1683,-1.5492,-0.1635,-0.2583,154
9,-0.8765,-0.1969,-0.1408,-1.4097,-0.1428,-0.2027,154
9,-0.8632,-0.0867,-0.1173,-1.2974,-0.1341,-0.1701,154
9,-0.8673,-0.0877,-0.1143,-1.3912,-0.1133,-0.1503,154
9,-0.8112,-0.1816,-0.1755,-1.4925,-0.1089,-0.1318,154
9,-0.8898,-0.0948,-0.1377,-1.4925,-0.1089,-0.1318,154
9,-0.9296,-0.0704,-0.1346,-1.3781,-0.0643,-0.086,154
9,-0.9296,-0.0704,-0.1346,-1.3344,-0.061,-0.0414,154
9,-0.949,-0.1663,-0.1887,-1.4544,-0.0643,-0.0131,154
9,-0.9908,-0.1581,-0.2061,-1.3998,-0.074,0.0337,154
9,-1.0143,-0.0704,-0.1642,-1.2472,-0.0654,0.0937,154
9,-1.0204,-0.1163,-0.1816,-1.3137,-0.0904,0.1286,154
9,-1.0193,-0.2265,-0.2336,-1.4086,-0.1167,0.1591,154
9,-1.0224,-0.1428,-0.1622,-1.2756,-0.1264,0.2049,154
9,-0.9888,-0.1439,-0.1439,-1.2079,-0.1384,0.2442,154
9,-0.9888,-0.1439,-0.1439,-1.2079,-0.1384,0.2442,154
9,-0.9612,-0.2581,-0.1877,-1.3094,-0.1787,0.2649,154
9,-0.9235,-0.3071,-0.1877,-1.2483,-0.193,0.2998,154
9,-0.9183,-0.1918,-0.0908,-1.0837,-0.1831,0.3445,154
9,-0.8612,-0.2459,-0.0775,-1.0837,-0.1886,0.3717,154
9,-0.8561,-0.3387,-0.1082,-1.1152,-0.1657,0.3903,154
