Timestamp,Ax,Ay,Az,Rx,Ry,Rz,EMG
0,-0.4856,-1.2849,-0.0315,0.4847,0.5333,-0.067,2049
0,-0.4858,-1.3035,-0.0457,0.4376,0.5675,-0.0459,2043
0,-0.4856,-1.283,-0.0613,0.3602,0.5902,-0.0676,2046
0,-0.5176,-1.3408,-0.0852,0.3193,0.5952,-0.0613,2046
0,-0.5513,-1.4883,-0.1152,0.3063,0.5837,-0.0605,2045
0,-0.5979,-1.6262,-0.1536,0.2472,0.5674,-0.0895,2045
0,-0.5972,-1.6887,-0.2053,0.1685,0.5408,-0.1657,2043
0,-0.5652,-1.6392,-0.2334,0.0607,0.5039,-0.2076,2052
0,-0.4878,-1.5706,-0.199,-0.0341,0.4271,-0.1373,2043
0,-0.4326,-1.5012,-0.177,-0.0973,0.28,-0.0394,2049
0,-0.4097,-1.4519,-0.1357,-0.1884,0.0941,0.075,2043
0,-0.3669,-1.3948,-0.0884,-0.3302,-0.1229,0.1832,2044
0,-0.3083,-1.3269,-0.073,-0.4842,-0.38,0.2955,2046
0,-0.2715,-1.2632,-0.0874,-0.6481,-0.6414,0.387,2044
0,-0.2727,-1.218,-0.1079,-0.785,-0.9036,0.4589,2047
0,-0.283,-1.2134,-0.1377,-0.8706,-1.1591,0.5287,2040
0,-0.3252,-1.2739,-0.1531,-0.9634,-1.3957,0.5883,2046
0,-0.3628,-1.3369,-0.1965,-1.0493,-1.5957,0.6379,2050
0,-0.3748,-1.4092,-0.24,-1.1066,-1.7283,0.7116,2048
0,-0.4207,-1.489,-0.248,-1.1785,-1.7683,0.7814,2045
0,-0.4231,-1.5039,-0.2278,-1.2387,-1.7523,0.8895,2045
0,-0.4216,-1.4976,-0.1641,-1.3657,-1.6708,1.0182,2045
0,-0.4121,-1.4214,-0.114,-1.5358,-1.5599,1.1427,2044
0,-0.3757,-1.343,-0.0261,-1.6847,-1.4809,1.2697,2049
0,-0.3394,-1.2783,0.002,-1.8197,-1.4094,1.3842,2049
0,-0.3367,-1.2312,0.0239,-1.9443,-1.3363,1.4741,2048
0,-0.3247,-1.1829,0.0127,-2.0517,-1.3095,1.5331,2045
0,-0.3218,-1.1345,-0.0186,-2.1543,-1.2881,1.5804,2049
0,-0.2981,-1.0938,-0.0593,-2.2256,-1.2781,1.6349,2052
0,-0.3169,-1.0364,-0.0825,-2.2754,-1.2704,1.643,2048
0,-0.3149,-1.0015,-0.1252,-2.2886,-1.2993,1.6719,2046
0,-0.3259,-0.989,-0.1487,-2.3099,-1.3219,1.6796,2045
0,-0.3118,-0.9639,-0.1799,-2.3097,-1.3745,1.7117,2044
0,-0.3057,-0.9529,-0.196,-2.3003,-1.4498,1.743,2043
0,-0.3074,-0.9211,-0.2305,-2.2912,-1.5386,1.7397,2046
0,-0.303,-0.8965,-0.2537,-2.2164,-1.6207,1.7499,2043
0,-0.3306,-0.8704,-0.2734,-2.1783,-1.6992,1.7491,2049
0,-0.3269,-0.8367,-0.3101,-2.0624,-1.754,1.7251,2042
0,-0.3193,-0.8372,-0.2927,-1.9935,-1.8141,1.7408,2043
0,-0.3259,-0.8259,-0.3164,-1.8996,-1.855,1.7169,2044
0,-0.3313,-0.8225,-0.3228,-1.7965,-1.8994,1.6937,2042
0,-0.343,-0.8188,-0.345,-1.6731,-1.9057,1.6582,2049
0,-0.3562,-0.8293,-0.3528,-1.543,-1.917,1.6093,2046
0,-0.3672,-0.8398,-0.3738,-1.3905,-1.8753,1.5374,2046
0,-0.3967,-0.8687,-0.3962,-1.2318,-1.8297,1.491,2044
0,-0.4177,-0.9058,-0.4082,-1.0893,-1.7387,1.3884,2045
0,-0.4514,-0.9395,-0.4229,-0.922,-1.6435,1.277,2043
0,-0.4675,-0.9502,-0.417,-0.7602,-1.5077,1.1686,2046
0,-0.4768,-0.9688,-0.4004,-0.5978,-1.3382,1.0547,2040
0,-0.4807,-1.0061,-0.4001,-0.4416,-1.1741,0.9472,2046
0,-0.4846,-1.0332,-0.3743,-0.3109,-1.0037,0.8016,2045
0,-0.4797,-1.0447,-0.3362,-0.2157,-0.872,0.6871,2053
0,-0.4739,-1.0479,-0.2959,-0.128,-0.762,0.5775,2047
0,-0.4683,-1.0554,-0.2715,-0.0546,-0.6582,0.4516,2041
0,-0.4666,-1.0779,-0.2659,0.0414,-0.5634,0.3502,2049
0,-0.4763,-1.1016,-0.2708,0.1396,-0.4438,0.2128,2042
0,-0.4685,-1.1267,-0.2654,0.242,-0.3249,0.0904,2045
0,-0.4639,-1.1682,-0.2515,0.3068,-0.2453,-0.0224,2046
0,-0.4636,-1.1729,-0.2324,0.3685,-0.1939,-0.1509,2045
0,-0.4641,-1.1643,-0.2263,0.4315,-0.1598,-0.2667,2045
0,-0.4651,-1.1372,-0.2371,0.4998,-0.1353,-0.3828,2046
0,-0.4739,-1.1296,-0.2642,0.5886,-0.1025,-0.4904,2045
0,-0.4961,-1.1604,-0.291,0.7126,-0.055,-0.5839,2042
0,-0.5398,-1.2219,-0.363,0.8909,0.0132,-0.6992,2043
0,-0.5845,-1.3069,-0.4167,1.1065,0.1429,-0.8433,2048
0,-0.6292,-1.4316,-0.4534,1.3663,0.3133,-0.9666,2044
0,-0.6392,-1.5095,-0.4438,1.5684,0.5613,-1.15,2041
0,-0.6165,-1.4624,-0.3542,1.7041,0.9005,-1.3443,2046
0,-0.5452,-1.3562,-0.1753,1.711,1.1785,-1.4274,2046
0,-0.4851,-1.3022,0.0059,1.5628,1.3049,-1.4146,2044
0,-0.4194,-1.2188,0.0732,1.4011,1.3492,-1.4326,2047
0,-0.3696,-1.1501,0.0732,1.2969,1.3596,-1.4769,2044
0,-0.3303,-1.1108,0.0452,1.2379,1.2793,-1.4985,2050
0,-0.3223,-1.1191,0.0151,1.2418,1.0871,-1.4667,2047
0,-0.3345,-1.1729,-0.0439,1.2782,0.8387,-1.423,2042
0,-0.3613,-1.2427,-0.105,1.3311,0.6323,-1.4037,2047
0,-0.3574,-1.2986,-0.1318,1.341,0.4512,-1.3671,2046
0,-0.2986,-1.2974,-0.1372,1.3161,0.3224,-1.3009,2046
0,-0.283,-1.2727,-0.1038,1.2252,0.2733,-1.1888,2046
0,-0.2922,-1.2253,-0.1062,1.1385,0.3277,-1.0806,2045
0,-0.3328,-1.188,-0.1492,1.087,0.4212,-1.0318,2046
0,-0.3799,-1.1465,-0.199,1.0776,0.49,-1.0393,2044
0,-0.4358,-1.1208,-0.2466,1.0973,0.5482,-1.0934,2041
0,-0.4785,-1.0708,-0.2727,1.1346,0.6813,-1.1652,2044
0,-0.5034,-1.0178,-0.2915,1.1463,0.8761,-1.2431,2038
0,-0.4915,-0.9346,-0.2622,1.1459,1.0935,-1.2708,2050
0,-0.4626,-0.8752,-0.2256,1.1144,1.2472,-1.2592,2046
0,-0.4346,-0.8184,-0.2107,1.0742,1.3272,-1.2211,2048
0,-0.4026,-0.7935,-0.2061,1.0239,1.3131,-1.1716,2047
0,-0.3721,-0.7397,-0.2141,0.9862,1.2342,-1.1188,2045
0,-0.3442,-0.7134,-0.2385,0.9586,1.1283,-1.0628,2046
0,-0.3542,-0.6975,-0.2485,0.959,1.0219,-1.0435,2047
0,-0.3589,-0.6895,-0.2637,0.9642,0.9035,-1.038,2044
0,-0.3628,-0.6895,-0.2761,0.9592,0.7709,-1.029,2040
0,-0.3574,-0.6841,-0.2668,0.9384,0.6188,-1.0275,2044
0,-0.3655,-0.6931,-0.2795,0.9238,0.5086,-1.0303,2061
0,-0.386,-0.6924,-0.3003,0.925,0.4014,-1.0228,2047
0,-0.4131,-0.7051,-0.3066,0.9292,0.3386,-1.0128,2048
0,-0.429,-0.7048,-0.2932,0.9507,0.2858,-0.9998,2046
0,-0.4355,-0.7102,-0.2759,0.9801,0.2322,-0.9657,2047
0,-0.4424,-0.7266,-0.2529,1.0023,0.1984,-0.9321,2047
1,-0.4507,-0.7588,-0.2144,1.0455,0.1555,-0.8806,2044
1,-0.4392,-0.7832,-0.1814,1.0638,0.1225,-0.8203,2047
1,-0.4648,-0.8096,-0.147,1.1219,0.1443,-0.7452,2042
1,-0.4768,-0.8657,-0.1089,1.1709,0.1719,-0.6767,2041
1,-0.4851,-0.9275,-0.0842,1.2075,0.1899,-0.6268,2041
1,-0.4885,-0.9846,-0.0525,1.2282,0.222,-0.5771,2044
1,-0.5034,-1.0527,-0.0144,1.2254,0.2834,-0.5351,2044
1,-0.4973,-1.1116,0.0098,1.182,0.3478,-0.4951,2045
1,-0.4868,-1.1697,0.0312,1.1408,0.3852,-0.4646,2042
1,-0.4619,-1.2417,0.0552,1.0832,0.4304,-0.4071,2047
1,-0.4358,-1.3245,0.0903,0.9686,0.4681,-0.3562,2045
1,-0.425,-1.3447,0.0854,0.906,0.4725,-0.2617,2043
1,-0.4294,-1.3538,0.0806,0.8545,0.4847,-0.22,2046
1,-0.45,-1.3494,0.0688,0.8199,0.4801,-0.1748,2047
1,-0.4653,-1.3108,0.0701,0.7564,0.4959,-0.1501,2042
1,-0.5022,-1.2834,0.0518,0.666,0.5317,-0.1301,2047
1,-0.5408,-1.2952,0.031,0.5781,0.559,-0.1465,2044
1,-0.5806,-1.3457,-0.0244,0.4915,0.5477,-0.1744,2061
1,-0.6125,-1.4431,-0.0833,0.4428,0.4988,-0.2064,2044
1,-0.6218,-1.5439,-0.1501,0.4159,0.4356,-0.2308,2042
1,-0.5742,-1.5859,-0.2026,0.4067,0.3598,-0.2176,2046
1,-0.4839,-1.5852,-0.1946,0.3622,0.2902,-0.1368,2049
1,-0.4058,-1.5164,-0.156,0.2954,0.2317,0.0292,2043
1,-0.3757,-1.4841,-0.0955,0.2103,0.1854,0.1852,2047
1,-0.3718,-1.4583,-0.0576,0.1083,0.083,0.2742,2045
1,-0.3325,-1.4021,-0.0513,-0.0027,-0.0896,0.3718,2043
1,-0.3071,-1.3081,-0.0581,-0.1161,-0.2494,0.4072,2048
1,-0.2751,-1.2524,-0.042,-0.259,-0.399,0.4783,2049
1,-0.251,-1.1843,-0.0581,-0.4229,-0.543,0.5172,2045
1,-0.2429,-1.1636,-0.075,-0.5414,-0.7094,0.5975,2041
1,-0.2688,-1.1772,-0.1013,-0.5811,-0.8815,0.694,2050
1,-0.3086,-1.2739,-0.1692,-0.6624,-0.9999,0.7901,2049
1,-0.3616,-1.333,-0.2209,-0.7401,-1.0166,0.8642,2042
1,-0.3821,-1.4312,-0.2166,-0.7927,-0.9317,0.9417,2044
1,-0.374,-1.5,-0.1621,-0.9405,-0.7365,1.0678,2048
1,-0.355,-1.4973,-0.0928,-1.123,-0.5171,1.1583,2045
1,-0.3274,-1.4265,-0.0322,-1.2909,-0.3542,1.2219,2045
1,-0.2847,-1.3689,0.0239,-1.5117,-0.2321,1.2864,2047
1,-0.2317,-1.2747,0.041,-1.6398,-0.224,1.3394,2048
1,-0.2136,-1.2,0.0391,-1.7849,-0.2842,1.3804,2046
1,-0.1831,-1.124,-0.0027,-1.8819,-0.3963,1.4432,2047
1,-0.189,-1.0688,-0.0552,-2.0134,-0.5098,1.4625,2047
1,-0.1992,-1.0093,-0.0947,-2.0989,-0.605,1.4691,2045
1,-0.2075,-0.9727,-0.1265,-2.1676,-0.6925,1.4691,2042
1,-0.2041,-0.9329,-0.1714,-2.2148,-0.8207,1.4579,2041
1,-0.2148,-0.9087,-0.2036,-2.2154,-0.9637,1.4414,2049
1,-0.2229,-0.8816,-0.2427,-2.2185,-1.0963,1.4495,2045
1,-0.2249,-0.8542,-0.27,-2.2065,-1.2294,1.4648,2044
1,-0.2278,-0.8293,-0.3147,-2.1616,-1.3523,1.4567,2049
1,-0.2417,-0.8198,-0.3296,-2.1342,-1.4537,1.4597,2044
1,-0.2639,-0.7844,-0.3523,-2.0698,-1.5214,1.4287,2042
1,-0.2729,-0.7717,-0.3384,-1.9732,-1.5495,1.4107,2046
1,-0.2874,-0.7842,-0.3516,-1.8941,-1.5414,1.3754,2044
1,-0.281,-0.7986,-0.3601,-1.7998,-1.5223,1.3232,2044
1,-0.2922,-0.8225,-0.3567,-1.7385,-1.5186,1.3039,2048
1,-0.3279,-0.8132,-0.3772,-1.6502,-1.507,1.2192,2044
1,-0.3469,-0.8318,-0.3772,-1.5454,-1.4603,1.1448,2045
1,-0.374,-0.8662,-0.3855,-1.4294,-1.4106,1.0649,2044
1,-0.3777,-0.9014,-0.384,-1.3282,-1.3616,0.9802,2048
1,-0.4036,-0.938,-0.395,-1.2138,-1.3081,0.8721,2046
1,-0.4121,-0.9829,-0.4172,-1.0726,-1.2368,0.7803,2041
1,-0.4253,-1.0276,-0.4268,-0.9256,-1.1459,0.6624,2052
1,-0.4336,-1.0637,-0.4236,-0.781,-1.0524,0.5695,2042
1,-0.4382,-1.0918,-0.4075,-0.6504,-0.9594,0.4595,2051
1,-0.4351,-1.1138,-0.3787,-0.5393,-0.8708,0.357,2047
1,-0.4419,-1.1323,-0.3501,-0.457,-0.8072,0.2457,2042
1,-0.4448,-1.1562,-0.3252,-0.3603,-0.756,0.1424,2044
1,-0.4417,-1.1812,-0.3044,-0.2705,-0.717,0.0429,2041
1,-0.4563,-1.1936,-0.3042,-0.1824,-0.6616,-0.077,2046
1,-0.4524,-1.2246,-0.2988,-0.0679,-0.5916,-0.1675,2043
1,-0.4539,-1.2312,-0.2754,0.0411,-0.4947,-0.2643,2045
1,-0.4648,-1.2273,-0.2363,0.1188,-0.392,-0.3473,2043
1,-0.459,-1.2424,-0.22,0.2112,-0.2896,-0.3934,2038
1,-0.4509,-1.2158,-0.1995,0.2626,-0.2217,-0.4826,2037
1,-0.4663,-1.1926,-0.1907,0.3433,-0.1799,-0.5508,2042
1,-0.4841,-1.1765,-0.2314,0.5132,-0.1111,-0.6281,2045
1,-0.5144,-1.2256,-0.2966,0.7474,-0.0461,-0.6951,2044
1,-0.571,-1.3218,-0.363,1.0487,0.03,-0.8178,2051
1,-0.6213,-1.4314,-0.408,1.3916,0.172,-0.9499,2044
1,-0.6218,-1.5322,-0.3879,1.6921,0.3558,-1.0661,2042
1,-0.5808,-1.5625,-0.2654,1.7179,0.5885,-1.1734,2046
1,-0.5496,-1.4473,-0.1272,1.6855,0.8103,-1.2082,2049
1,-0.5222,-1.3962,-0.0054,1.6463,0.9483,-1.2051,2049
1,-0.4863,-1.373,0.0344,1.5845,1.0234,-1.2426,2044
1,-0.4424,-1.3101,0.0571,1.5368,0.9905,-1.2828,2054
1,-0.4097,-1.2346,0.092,1.5093,0.8917,-1.2918,2043
1,-0.3745,-1.2009,0.1277,1.4876,0.7646,-1.2503,2055
1,-0.3401,-1.1946,0.1287,1.4668,0.6584,-1.1876,2046
1,-0.3303,-1.2354,0.0962,1.4549,0.5123,-1.1033,2042
1,-0.3335,-1.2612,0.0469,1.4241,0.3682,-1.0176,2041
1,-0.3245,-1.2534,-0.0037,1.3677,0.287,-0.9444,2043
1,-0.3169,-1.1995,-0.0371,1.297,0.2806,-0.8658,2048
1,-0.3142,-1.1443,-0.0718,1.2559,0.3079,-0.8002,2042
1,-0.3372,-1.1157,-0.1284,1.2338,0.3521,-0.7572,2047
1,-0.3694,-1.074,-0.1919,1.234,0.4261,-0.7529,2045
1,-0.3848,-1.0293,-0.2202,1.2452,0.5301,-0.7439,2044
1,-0.3843,-0.9951,-0.2322,1.2628,0.6578,-0.7288,2047
1,-0.3787,-0.9482,-0.2251,1.2415,0.8035,-0.713,2044
1,-0.3567,-0.8933,-0.2175,1.2035,0.9521,-0.687,2041
1,-0.3286,-0.8379,-0.2031,1.1535,1.0636,-0.6377,2047
1,-0.3042,-0.7876,-0.186,1.117,1.1311,-0.5857,2048
1,-0.292,-0.7412,-0.1897,1.0865,1.1391,-0.5343,2046
2,-0.29,-0.7009,-0.2053,1.0885,1.1272,-0.5111,2043
2,-0.3008,-0.6824,-0.2402,1.0897,1.1176,-0.4952,2042
2,-0.3101,-0.6716,-0.269,1.1063,1.1005,-0.5048,2045
2,-0.323,-0.6914,-0.2788,1.1029,1.0238,-0.5328,2045
2,-0.3335,-0.6907,-0.3088,1.1204,0.9211,-0.5624,2045
2,-0.3315,-0.7014,-0.3257,1.1569,0.8351,-0.6023,2061
2,-0.3293,-0.7385,-0.333,1.1706,0.7477,-0.6223,2045
2,-0.3291,-0.7605,-0.3254,1.2086,0.6597,-0.6281,2043
2,-0.3408,-0.792,-0.2944,1.2114,0.5658,-0.6156,2047
2,-0.3428,-0.8259,-0.2742,1.2021,0.488,-0.6011,2043
2,-0.3303,-0.8589,-0.2283,1.1885,0.4163,-0.5922,2044
2,-0.3416,-0.8809,-0.1931,1.165,0.3738,-0.5891,2048
2,-0.3582,-0.8918,-0.1765,1.1396,0.348,-0.5825,2049
2,-0.3623,-0.916,-0.1589,1.1375,0.3301,-0.5722,2046
2,-0.3782,-0.946,-0.1431,1.1413,0.3397,-0.5718,2043
2,-0.397,-0.9958,-0.1311,1.118,0.3585,-0.5769,2045
2,-0.4121,-1.0403,-0.1147,1.0722,0.3799,-0.5598,2043
2,-0.4155,-1.0796,-0.0911,1.0171,0.4065,-0.5857,2047
2,-0.4336,-1.0942,-0.0801,0.9367,0.4128,-0.5885,2043
2,-0.4199,-1.104,-0.0591,0.8682,0.3868,-0.5916,2045
2,-0.4363,-1.0911,-0.0452,0.7942,0.3298,-0.6056,2044
2,-0.4275,-1.1145,-0.0366,0.7213,0.2416,-0.5763,2044
2,-0.4502,-1.127,-0.031,0.6504,0.1365,-0.5572,2045
2,-0.4565,-1.1553,-0.0408,0.5823,0.0527,-0.5237,2043
2,-0.4497,-1.1936,-0.0527,0.5003,0.0007,-0.4528,2047
2,-0.4675,-1.219,-0.0654,0.4404,-0.0024,-0.4068,2049
2,-0.481,-1.2461,-0.0669,0.3839,0.0393,-0.3535,2043
2,-0.499,-1.2585,-0.0703,0.3132,0.1316,-0.324,2049
2,-0.5208,-1.2578,-0.0637,0.2554,0.2539,-0.3231,2051
2,-0.5342,-1.2476,-0.0752,0.2108,0.3723,-0.3278,2042
2,-0.5801,-1.2852,-0.116,0.196,0.483,-0.3615,2043
2,-0.5979,-1.3735,-0.1453,0.182,0.5478,-0.3915,2048
2,-0.6179,-1.4773,-0.1868,0.1678,0.5545,-0.4268,2046
2,-0.6245,-1.5344,-0.2122,0.1482,0.4999,-0.4557,2044
2,-0.5801,-1.5564,-0.2463,0.1204,0.373,-0.4516,2046
2,-0.5149,-1.5391,-0.2327,0.1001,0.1732,-0.3852,2043
2,-0.4814,-1.5151,-0.1799,0.0356,-0.0437,-0.292,2044
2,-0.4492,-1.5024,-0.145,-0.07,-0.2641,-0.1603,2043
2,-0.4285,-1.4609,-0.0862,-0.1779,-0.4834,-0.0768,2044
2,-0.408,-1.4172,-0.0444,-0.2986,-0.7092,0.0473,2045
2,-0.3799,-1.3564,-0.0349,-0.4232,-0.891,0.1284,2044
2,-0.3347,-1.2781,-0.0251,-0.5637,-1.078,0.2346,2047
2,-0.3135,-1.2095,-0.0066,-0.703,-1.3086,0.3598,2044
2,-0.3127,-1.2026,-0.0022,-0.8267,-1.546,0.4802,2044
2,-0.3396,-1.2236,-0.0291,-0.9492,-1.75,0.59,2041
2,-0.3455,-1.2751,-0.0356,-1.0825,-1.8893,0.7027,2045
2,-0.3542,-1.3337,-0.0383,-1.2187,-1.9283,0.8396,2046
2,-0.3567,-1.3862,-0.0173,-1.3531,-1.9128,0.991,2046
2,-0.3672,-1.4453,0.0137,-1.5189,-1.784,1.1484,2044
2,-0.3701,-1.4221,0.0452,-1.6781,-1.6242,1.3014,2042
2,-0.3916,-1.4058,0.074,-1.8243,-1.4291,1.4352,2050
2,-0.3777,-1.3708,0.0632,-1.9318,-1.2204,1.5351,2052
2,-0.3696,-1.3293,0.0361,-2.0298,-1.031,1.6157,2047
2,-0.3616,-1.2747,-0.001,-2.1196,-0.8866,1.664,2044
2,-0.3389,-1.2009,-0.0515,-2.163,-0.7822,1.7,2045
2,-0.3386,-1.1377,-0.113,-2.1875,-0.7159,1.7104,2048
2,-0.3174,-1.051,-0.1423,-2.1867,-0.6998,1.6996,2044
2,-0.2913,-0.9727,-0.1816,-2.181,-0.7448,1.7193,2044
2,-0.2759,-0.9319,-0.2224,-2.175,-0.8324,1.7257,2046
2,-0.2808,-0.8896,-0.2554,-2.1345,-0.9562,1.7178,2041
2,-0.2771,-0.866,-0.2773,-2.0856,-1.1011,1.7098,2047
2,-0.2683,-0.8635,-0.29,-2.0555,-1.2459,1.7378,2045
2,-0.2737,-0.8315,-0.3098,-2.0121,-1.3921,1.7274,2043
2,-0.2805,-0.8022,-0.3333,-1.9354,-1.541,1.7138,2046
2,-0.2898,-0.7781,-0.3318,-1.8393,-1.6536,1.6861,2043
2,-0.2959,-0.7764,-0.3311,-1.7416,-1.7498,1.659,2043
2,-0.3064,-0.7585,-0.314,-1.6562,-1.8391,1.606,2041
2,-0.2925,-0.7571,-0.3091,-1.5792,-1.9383,1.5719,2047
2,-0.3152,-0.7522,-0.3064,-1.4924,-1.9905,1.5103,2042
2,-0.3171,-0.749,-0.3086,-1.3997,-1.9744,1.4529,2046
2,-0.334,-0.7681,-0.3232,-1.2853,-1.9588,1.4007,2043
2,-0.3533,-0.7783,-0.3201,-1.1754,-1.935,1.3216,2048
2,-0.3652,-0.8164,-0.3245,-1.0557,-1.9259,1.2519,2045
2,-0.386,-0.8625,-0.3301,-0.9485,-1.9066,1.1772,2044
2,-0.4136,-0.8914,-0.3513,-0.8111,-1.8134,1.0887,2049
2,-0.4333,-0.9448,-0.3684,-0.6496,-1.7049,1.0011,2045
2,-0.459,-0.9915,-0.3728,-0.4934,-1.5886,0.8813,2045
2,-0.4937,-1.0303,-0.3831,-0.337,-1.4965,0.742,2032
2,-0.5127,-1.0879,-0.3735,-0.1872,-1.3944,0.6231,2050
2,-0.5227,-1.1169,-0.365,-0.0446,-1.2757,0.4895,2049
2,-0.5427,-1.1462,-0.3601,0.1336,-1.14,0.3267,2043
2,-0.5481,-1.1877,-0.332,0.2842,-0.9879,0.1997,2047
2,-0.5481,-1.2212,-0.291,0.3884,-0.86,0.068,2045
2,-0.5398,-1.2222,-0.2488,0.4735,-0.7453,-0.0601,2044
2,-0.5225,-1.1895,-0.2122,0.5642,-0.6277,-0.1826,2045
2,-0.4968,-1.155,-0.175,0.6698,-0.5052,-0.2872,2045
2,-0.4888,-1.1306,-0.1504,0.7839,-0.4054,-0.3883,2045
2,-0.4773,-1.158,-0.1384,0.9066,-0.3288,-0.4521,2048
2,-0.4924,-1.2375,-0.1697,1.0709,-0.2448,-0.5516,2046
2,-0.532,-1.3413,-0.2561,1.35,-0.123,-0.6359,2047
2,-0.5789,-1.5254,-0.3103,1.6957,0.0732,-0.7457,2045
2,-0.5801,-1.6609,-0.342,1.9025,0.3488,-0.9447,2046
2,-0.5154,-1.5811,-0.2327,1.904,0.6815,-1.1227,2044
2,-0.4744,-1.416,-0.0247,1.8575,0.9425,-1.1258,2043
2,-0.437,-1.4031,0.1208,1.799,1.1324,-1.0918,2050
2,-0.4148,-1.4531,0.135,1.7787,1.3149,-1.1676,2049
2,-0.3972,-1.4204,0.1057,1.7258,1.396,-1.2945,2045
2,-0.386,-1.3518,0.1079,1.7026,1.3663,-1.368,2045
2,-0.3398,-1.2698,0.1951,1.6231,1.3688,-1.3778,2045
2,-0.2837,-1.1973,0.2939,1.4541,1.3876,-1.352,2044
2,-0.2505,-1.1968,0.3259,1.3302,1.2801,-1.275,2046
2,-0.2556,-1.2527,0.2837,1.2754,1.0278,-1.2018,2045
2,-0.2668,-1.2825,0.1812,1.2184,0.7532,-1.2013,2049
3,-0.2517,-1.239,0.1077,1.1597,0.5325,-1.2102,2044
3,-0.2512,-1.1492,0.0671,1.1118,0.398,-1.1975,2049
3,-0.2686,-1.0935,0.0427,1.0565,0.3342,-1.1818,2044
3,-0.2988,-1.0518,0.0007,1.0127,0.289,-1.2061,2047
3,-0.3293,-0.9954,-0.0525,0.985,0.2332,-1.2402,2045
3,-0.3469,-0.9465,-0.0964,0.9959,0.2159,-1.2733,2045
3,-0.3613,-0.9102,-0.1306,1.0138,0.2799,-1.2904,2048
3,-0.3599,-0.8662,-0.1553,1.0222,0.3799,-1.3311,2045
3,-0.3472,-0.8171,-0.1577,1.0074,0.4729,-1.3559,2043
3,-0.3374,-0.748,-0.1665,1.0025,0.5348,-1.3523,2044
3,-0.3457,-0.687,-0.1765,1.0292,0.5849,-1.341,2041
3,-0.3347,-0.6978,-0.1904,1.0802,0.5743,-1.3134,2045
3,-0.3379,-0.6792,-0.2156,1.1436,0.5548,-1.3049,2044
3,-0.3464,-0.6858,-0.2368,1.2202,0.5522,-1.2985,2045
3,-0.3447,-0.6943,-0.2515,1.2671,0.537,-1.2914,2047
3,-0.3623,-0.7156,-0.2588,1.301,0.5224,-1.2922,2048
3,-0.3774,-0.7239,-0.2666,1.3529,0.5035,-1.3001,2042
3,-0.3923,-0.7332,-0.2336,1.3707,0.4805,-1.3003,2047
3,-0.3997,-0.7449,-0.2224,1.3593,0.4722,-1.2754,2045
3,-0.3875,-0.7656,-0.1948,1.3466,0.4557,-1.2447,2045
3,-0.3826,-0.7876,-0.1738,1.3019,0.4587,-1.1892,2041
3,-0.4014,-0.8103,-0.1611,1.2866,0.4611,-1.1348,2048
3,-0.3999,-0.8352,-0.1396,1.248,0.4661,-1.1037,2042
3,-0.4119,-0.8416,-0.1145,1.1926,0.4714,-1.0315,2047
3,-0.4133,-0.842,-0.0813,1.146,0.5028,-0.9822,2042
3,-0.4302,-0.8801,-0.0544,1.0541,0.5417,-0.9377,2041
3,-0.4336,-0.8811,-0.051,0.9593,0.5797,-0.8652,2041
3,-0.429,-0.9263,-0.0486,0.8705,0.6446,-0.8267,2041
3,-0.4463,-0.9282,-0.0454,0.7921,0.6921,-0.7773,2046
3,-0.4658,-0.9697,-0.0532,0.7308,0.7384,-0.7379,2047
3,-0.4824,-1.0479,-0.0593,0.6755,0.7534,-0.6996,2044
3,-0.4939,-1.0984,-0.0618,0.5958,0.7393,-0.6654,2050
3,-0.5068,-1.1606,-0.0684,0.5248,0.72,-0.6118,2043
3,-0.53,-1.2148,-0.0723,0.452,0.7261,-0.5545,2048
3,-0.5388,-1.2854,-0.0405,0.3753,0.7608,-0.4807,2047
3,-0.5547,-1.3235,-0.0259,0.2694,0.7871,-0.432,2045
3,-0.543,-1.3325,0.0032,0.1661,0.7946,-0.3882,2041
3,-0.5356,-1.3218,0.02,0.0502,0.7823,-0.3452,2049
3,-0.5457,-1.3103,0.0178,-0.0473,0.7686,-0.3097,2050
3,-0.5737,-1.3193,0.0037,-0.1141,0.74,-0.2851,2042
3,-0.6028,-1.3831,-0.0356,-0.1911,0.6911,-0.2599,2048
3,-0.646,-1.5107,-0.1033,-0.2183,0.6211,-0.2498,2046
3,-0.6719,-1.6497,-0.1667,-0.2261,0.5325,-0.2583,2043
3,-0.6521,-1.7036,-0.1917,-0.2582,0.4683,-0.2818,2044
3,-0.5293,-1.6482,-0.1318,-0.3341,0.3614,-0.1977,2044
3,-0.4443,-1.5337,-0.009,-0.4159,0.202,0.0015,2041
3,-0.4128,-1.4888,0.0674,-0.5393,0.0955,0.2017,2044
3,-0.4153,-1.4514,0.0972,-0.6497,-0.0469,0.3438,2046
3,-0.4099,-1.4087,0.1062,-0.7959,-0.2388,0.4457,2041
3,-0.3799,-1.3691,0.0967,-0.9523,-0.3954,0.5297,2048
3,-0.343,-1.3379,0.0869,-1.0616,-0.5213,0.6112,2052
3,-0.3186,-1.3291,0.0564,-1.13,-0.649,0.7219,2052
3,-0.3201,-1.3591,0.0349,-1.1772,-0.7641,0.8411,2051
3,-0.3342,-1.4004,0.0166,-1.2118,-0.8313,0.9632,2049
3,-0.3625,-1.4756,0.0088,-1.2677,-0.8242,1.0617,2045
3,-0.3904,-1.5398,0.0139,-1.3185,-0.7468,1.1591,2047
3,-0.4207,-1.5747,0.031,-1.3878,-0.5646,1.2292,2044
3,-0.4106,-1.5791,0.0657,-1.4894,-0.3625,1.2953,2045
3,-0.3806,-1.5435,0.1128,-1.6379,-0.2458,1.3521,2046
3,-0.3176,-1.4646,0.1265,-1.7915,-0.2148,1.4055,2046
3,-0.2788,-1.3733,0.1331,-1.9413,-0.2586,1.4514,2047
3,-0.2415,-1.2585,0.0769,-2.0406,-0.3485,1.4873,2062
3,-0.2378,-1.1504,0.0051,-2.1011,-0.4514,1.5046,2043
3,-0.2273,-1.0669,-0.0654,-2.1007,-0.5809,1.5265,2046
3,-0.2363,-0.9697,-0.1484,-2.0695,-0.7106,1.5087,2047
3,-0.2393,-0.9089,-0.1904,-1.9988,-0.8172,1.5199,2045
3,-0.2512,-0.9187,-0.2219,-1.9458,-0.9055,1.5495,2045
3,-0.2419,-0.9111,-0.2319,-1.8984,-0.9804,1.5384,2043
3,-0.2117,-0.8877,-0.2312,-1.8947,-1.0573,1.5486,2043
3,-0.1985,-0.8503,-0.2395,-1.9339,-1.1299,1.5764,2044
3,-0.1951,-0.7812,-0.2629,-1.9333,-1.1724,1.5878,2045
3,-0.1997,-0.7095,-0.2642,-1.8981,-1.2003,1.5841,2046
3,-0.2043,-0.6694,-0.2705,-1.847,-1.2604,1.5897,2045
3,-0.2148,-0.6372,-0.2634,-1.7635,-1.2973,1.5269,2039
3,-0.219,-0.623,-0.2617,-1.7025,-1.3676,1.4957,2044
3,-0.2251,-0.6094,-0.2634,-1.6177,-1.4227,1.4249,2048
3,-0.2505,-0.5974,-0.283,-1.5226,-1.4247,1.3652,2046
3,-0.2595,-0.6035,-0.3179,-1.4035,-1.4039,1.3091,2045
3,-0.2979,-0.6223,-0.3279,-1.2757,-1.3773,1.2315,2045
3,-0.2979,-0.6553,-0.3479,-1.1242,-1.3328,1.1463,2046
3,-0.332,-0.7161,-0.3459,-0.9977,-1.2853,1.0812,2045
3,-0.3411,-0.7632,-0.3625,-0.8495,-1.232,0.9911,2045
3,-0.3301,-0.8438,-0.3394,-0.6936,-1.1539,0.9297,2046
3,-0.3445,-0.9189,-0.3384,-0.5449,-1.0579,0.8584,2043
3,-0.3757,-1.0139,-0.3542,-0.3786,-0.9903,0.7791,2059
3,-0.4199,-1.1143,-0.3667,-0.232,-0.9244,0.6633,2046
3,-0.468,-1.1702,-0.3931,-0.0309,-0.8564,0.5232,2063
3,-0.5,-1.2144,-0.3843,0.1659,-0.7432,0.3488,2045
3,-0.5308,-1.25,-0.3704,0.3512,-0.5907,0.1835,2039
3,-0.5386,-1.2988,-0.364,0.5228,-0.4188,0.0437,2046
3,-0.5518,-1.3279,-0.3516,0.6952,-0.2334,-0.1156,2044
3,-0.5557,-1.3218,-0.2998,0.8032,-0.0326,-0.2529,2041
3,-0.5332,-1.2751,-0.2454,0.8491,0.1348,-0.3685,2044
3,-0.5076,-1.207,-0.2051,0.9202,0.2623,-0.4681,2043
3,-0.4802,-1.1609,-0.1887,0.9891,0.3257,-0.5643,2045
3,-0.4788,-1.1292,-0.2053,1.103,0.3364,-0.675,2045
3,-0.4939,-1.1365,-0.2795,1.2952,0.3053,-0.8068,2044
3,-0.5251,-1.178,-0.3647,1.5399,0.3129,-0.9401,2043
3,-0.5786,-1.2888,-0.459,1.8146,0.3626,-1.0756,2043
3,-0.6587,-1.4114,-0.5176,2.1168,0.4599,-1.2306,2046
3,-0.7058,-1.5217,-0.5466,2.3904,0.6493,-1.4343,2043
3,-0.7161,-1.5291,-0.4888,2.5575,0.8903,-1.6356,2043
4,-0.6819,-1.438,-0.3159,2.5685,1.1168,-1.7446,2039
4,-0.6338,-1.3438,-0.1311,2.4551,1.3002,-1.7592,2046
4,-0.5476,-1.2764,-0.0229,2.2864,1.4348,-1.7638,2044
4,-0.4668,-1.2217,0.0215,2.1105,1.4342,-1.765,2042
4,-0.405,-1.1511,0.0471,1.9937,1.2746,-1.7467,2044
4,-0.3589,-1.1113,0.0618,1.9442,1.0528,-1.6878,2060
4,-0.3179,-1.114,0.0625,1.9318,0.8071,-1.5985,2044
4,-0.292,-1.1587,0.0671,1.8751,0.5561,-1.504,2044
4,-0.2588,-1.2168,0.0935,1.76,0.3504,-1.3773,2045
4,-0.2422,-1.2378,0.0867,1.5876,0.2308,-1.2523,2049
4,-0.2563,-1.2109,0.0486,1.4241,0.1796,-1.1527,2043
4,-0.2842,-1.1738,0.0134,1.2684,0.1876,-1.0814,2046
4,-0.3271,-1.1245,-0.0508,1.1587,0.2619,-1.0511,2045
4,-0.3591,-1.1167,-0.1072,1.0638,0.3675,-1.0231,2044
4,-0.3914,-1.0706,-0.1643,0.9842,0.4974,-1.0302,2045
4,-0.3965,-1.0239,-0.1802,0.8973,0.6662,-1.03,2046
4,-0.3682,-0.948,-0.1733,0.7946,0.8441,-1.0031,2041
4,-0.3337,-0.8743,-0.1555,0.6817,0.9524,-0.9463,2044
4,-0.2883,-0.7913,-0.1177,0.5665,0.9686,-0.8626,2045
4,-0.2532,-0.7361,-0.1311,0.4797,0.9155,-0.7866,2044
4,-0.2571,-0.7026,-0.1621,0.437,0.8063,-0.7131,2044
4,-0.2559,-0.696,-0.209,0.3996,0.6787,-0.6737,2048
4,-0.2568,-0.7002,-0.238,0.3341,0.5553,-0.675,2046
4,-0.2727,-0.6689,-0.2761,0.3333,0.4433,-0.6894,2046
4,-0.3027,-0.6711,-0.3025,0.3727,0.3518,-0.7047,2044
4,-0.3315,-0.6926,-0.3181,0.408,0.3278,-0.713,2044
4,-0.3442,-0.7195,-0.3032,0.422,0.3567,-0.7047,2048
4,-0.3386,-0.7405,-0.2888,0.4484,0.3647,-0.7062,2045
4,-0.355,-0.7898,-0.2666,0.4485,0.4212,-0.6849,2058
4,-0.3506,-0.8232,-0.2542,0.4565,0.4682,-0.6829,2045
4,-0.3423,-0.8711,-0.218,0.4667,0.5145,-0.6885,2044
4,-0.3403,-0.9065,-0.1824,0.4875,0.5333,-0.6934,2045
4,-0.3337,-0.9395,-0.1377,0.5107,0.5287,-0.7011,2044
4,-0.323,-0.9849,-0.0952,0.5129,0.4923,-0.7022,2046
4,-0.3254,-1.0054,-0.0725,0.5071,0.4622,-0.6998,2045
4,-0.3389,-1.0293,-0.0437,0.4786,0.4148,-0.6905,2046
4,-0.3528,-1.0293,-0.0398,0.4586,0.3477,-0.6923,2044
4,-0.3755,-1.0232,-0.0217,0.4398,0.2775,-0.7107,2045
4,-0.3882,-1.0208,-0.0271,0.4192,0.2165,-0.7305,2046
4,-0.4053,-1.0278,-0.0322,0.4093,0.1361,-0.7637,2044
4,-0.4185,-1.0291,-0.0386,0.4116,0.0555,-0.7588,2044
4,-0.4207,-1.0645,-0.0549,0.4152,-0.004,-0.7521,2046
4,-0.4268,-1.0974,-0.0837,0.4288,-0.0546,-0.7273,2044
4,-0.4319,-1.1448,-0.0901,0.4441,-0.067,-0.6951,2048
4,-0.4414,-1.1973,-0.1196,0.4782,-0.0477,-0.6433,2047
4,-0.4534,-1.2625,-0.1289,0.5111,0.0149,-0.593,2032
4,-0.4702,-1.3162,-0.1345,0.5189,0.1099,-0.5722,2039
4,-0.4714,-1.3508,-0.1328,0.5062,0.1952,-0.5414,2041
4,-0.4932,-1.3699,-0.1357,0.4996,0.3065,-0.5241,2043
4,-0.5066,-1.3794,-0.1255,0.4805,0.3931,-0.5291,2048
4,-0.52,-1.4031,-0.1301,0.4697,0.4212,-0.5022,2047
4,-0.5818,-1.5125,-0.137,0.4746,0.4336,-0.5019,2052
4,-0.604,-1.6453,-0.1777,0.4862,0.4035,-0.5103,2048
4,-0.6096,-1.7065,-0.2393,0.4598,0.3452,-0.554,2046
4,-0.5496,-1.6411,-0.2415,0.3995,0.2458,-0.5432,2045
4,-0.4253,-1.531,-0.1602,0.3354,0.0551,-0.3951,2045
4,-0.3464,-1.4609,-0.0542,0.2125,-0.1795,-0.1723,2047
4,-0.2964,-1.4446,0.0188,0.0566,-0.4299,0.0152,2045
4,-0.2751,-1.3914,0.0464,-0.0937,-0.7224,0.1671,2047
4,-0.2751,-1.3223,0.0374,-0.2322,-0.9983,0.3033,2046
4,-0.2761,-1.2825,0.0027,-0.3346,-1.2433,0.4244,2046
4,-0.2908,-1.3027,-0.043,-0.424,-1.4095,0.5426,2045
4,-0.3027,-1.3628,-0.051,-0.504,-1.4399,0.6613,2044
4,-0.3135,-1.4382,-0.0349,-0.5863,-1.336,0.7914,2046
4,-0.3357,-1.5322,-0.0449,-0.6769,-1.1411,0.9187,2044
4,-0.3655,-1.5889,-0.0083,-0.7831,-0.8496,1.0612,2046
4,-0.3701,-1.6003,0.009,-0.8902,-0.4786,1.1838,2046
4,-0.377,-1.5879,0.0435,-1.0617,-0.114,1.275,2045
4,-0.3433,-1.5325,0.0789,-1.3398,0.1545,1.3364,2051
4,-0.2837,-1.3992,0.074,-1.5046,0.2655,1.3552,2044
4,-0.2195,-1.3198,0.0815,-1.6162,0.2354,1.4258,2049
4,-0.1648,-1.2283,0.0222,-1.7231,0.0997,1.4588,2048
4,-0.1562,-1.1316,-0.0544,-1.8054,-0.1083,1.4948,2048
4,-0.1458,-1.0459,-0.1418,-1.8618,-0.3562,1.503,2040
4,-0.1675,-0.9656,-0.1997,-1.9088,-0.61,1.5202,2048
4,-0.1746,-0.8911,-0.2505,-1.9294,-0.8637,1.4949,2048
4,-0.1846,-0.8369,-0.2849,-1.9026,-1.078,1.5081,2041
4,-0.1946,-0.7925,-0.3079,-1.8511,-1.2667,1.4898,2046
4,-0.2004,-0.7666,-0.325,-1.8441,-1.4177,1.5086,2047
4,-0.1921,-0.7327,-0.3403,-1.8307,-1.515,1.4985,2047
4,-0.1855,-0.686,-0.3406,-1.8069,-1.6298,1.4976,2043
4,-0.2104,-0.6482,-0.3464,-1.7712,-1.7065,1.4832,2045
4,-0.2107,-0.6174,-0.3591,-1.6984,-1.7283,1.4408,2045
4,-0.2173,-0.5972,-0.3542,-1.6157,-1.7105,1.398,2046
4,-0.2126,-0.6108,-0.3516,-1.5482,-1.6902,1.3623,2041
4,-0.2168,-0.6201,-0.3499,-1.4934,-1.6402,1.3246,2050
4,-0.2158,-0.6423,-0.3503,-1.4213,-1.5581,1.2746,2046
4,-0.2231,-0.6807,-0.3521,-1.336,-1.4846,1.2461,2048
4,-0.2185,-0.7322,-0.3513,-1.2844,-1.411,1.2054,2043
4,-0.2151,-0.7812,-0.3376,-1.2291,-1.3384,1.181,2043
4,-0.2292,-0.8225,-0.3396,-1.1391,-1.2637,1.1497,2045
4,-0.2739,-0.9087,-0.365,-1.0267,-1.211,1.1134,2046
4,-0.3313,-1.0012,-0.3862,-0.8919,-1.1639,1.0262,2045
4,-0.3818,-1.1208,-0.4236,-0.7387,-1.113,0.9307,2048
4,-0.4424,-1.2163,-0.457,-0.5878,-1.0598,0.7886,2046
4,-0.4836,-1.3291,-0.4792,-0.4133,-0.9851,0.6498,2049
4,-0.5132,-1.4407,-0.478,-0.2402,-0.881,0.5405,2045
4,-0.5156,-1.531,-0.4431,-0.0831,-0.7383,0.4304,2041
4,-0.5007,-1.5757,-0.3777,0.0281,-0.6006,0.351,2043
4,-0.4651,-1.5679,-0.3008,0.1101,-0.49,0.2811,2044
4,-0.429,-1.5532,-0.2163,0.1874,-0.406,0.2432,2044
5,-0.3799,-1.4778,-0.1428,0.1762,-0.3209,0.2308,2040
5,-0.3784,-1.4062,-0.0864,0.1975,-0.2193,0.1946,2045
5,-0.4114,-1.3696,-0.0955,0.2683,-0.147,0.1334,2046
5,-0.447,-1.363,-0.1184,0.4183,-0.0226,0.0332,2045
5,-0.4851,-1.4187,-0.1794,0.6135,0.0999,-0.0854,2049
5,-0.5505,-1.5281,-0.2788,0.8917,0.2537,-0.2047,2046
5,-0.6133,-1.647,-0.384,1.2091,0.5036,-0.3875,2044
5,-0.6147,-1.7168,-0.3831,1.3905,0.8365,-0.5767,2046
5,-0.593,-1.6326,-0.3313,1.4375,1.1021,-0.7574,2042
5,-0.5798,-1.5164,-0.1904,1.4575,1.2107,-0.8477,2043
5,-0.531,-1.4512,-0.0854,1.4109,1.2137,-0.8943,2044
5,-0.4609,-1.3762,-0.0229,1.3677,1.1853,-0.9666,2043
5,-0.4111,-1.2852,0.0046,1.3244,1.1162,-1.0182,2044
5,-0.3887,-1.2302,0.0469,1.2949,1.0276,-1.0405,2042
5,-0.3638,-1.197,0.0872,1.2501,0.9256,-1.0507,2044
5,-0.3264,-1.2197,0.1099,1.1983,0.7265,-1.046,2043
5,-0.3352,-1.2678,0.1106,1.1299,0.4639,-1.0375,2043
5,-0.3357,-1.2803,0.0708,1.0334,0.2519,-1.0415,2063
5,-0.3257,-1.2192,0.0295,0.9352,0.1479,-1.0519,2046
5,-0.3035,-1.1379,-0.0076,0.8304,0.1083,-1.0308,2063
5,-0.293,-1.0608,-0.0339,0.7044,0.0672,-0.9781,2046
5,-0.3042,-0.9988,-0.0713,0.5819,0.0269,-0.9457,2048
5,-0.2942,-0.9341,-0.1265,0.5129,-0.02,-0.9301,2046
5,-0.3049,-0.8679,-0.1899,0.5292,-0.0495,-0.9347,2048
5,-0.3137,-0.7993,-0.2507,0.5624,-0.0565,-0.9532,2045
5,-0.3154,-0.7185,-0.2712,0.6064,-0.0262,-0.9569,2042
5,-0.2844,-0.6379,-0.2607,0.6231,-0.022,-0.9323,2044
5,-0.261,-0.5522,-0.2297,0.5964,-0.0467,-0.9013,2044
5,-0.2268,-0.5005,-0.2053,0.5381,-0.141,-0.8688,2043
5,-0.2053,-0.459,-0.217,0.4983,-0.2583,-0.8397,2046
5,-0.21,-0.4207,-0.2312,0.5002,-0.383,-0.8067,2050
5,-0.228,-0.4006,-0.2949,0.5461,-0.4982,-0.7835,2049
5,-0.27,-0.4146,-0.3572,0.6544,-0.5417,-0.7829,2043
5,-0.3,-0.4541,-0.3757,0.7569,-0.5353,-0.7821,2050
5,-0.3215,-0.4856,-0.3782,0.8389,-0.4975,-0.7827,2044
5,-0.3442,-0.542,-0.3838,0.9236,-0.4239,-0.7817,2044
5,-0.3704,-0.5991,-0.3743,0.9797,-0.31,-0.7923,2046
5,-0.3926,-0.6484,-0.3547,1.026,-0.2141,-0.7815,2044
5,-0.4016,-0.7112,-0.3489,1.0863,-0.0936,-0.7395,2045
5,-0.4204,-0.8015,-0.3311,1.1571,0.0783,-0.6968,2043
5,-0.4429,-0.8975,-0.2915,1.2334,0.2533,-0.6695,2055
5,-0.4578,-0.9856,-0.2261,1.2484,0.4057,-0.6316,2046
5,-0.4512,-1.0522,-0.1509,1.2057,0.5382,-0.5589,2045
5,-0.4324,-1.0969,-0.0806,1.1136,0.6811,-0.4892,2044
5,-0.4319,-1.1292,-0.0139,1.0128,0.8042,-0.4079,2043
5,-0.4236,-1.1743,0.0203,0.9013,0.8847,-0.3127,2042
5,-0.4294,-1.2024,0.0659,0.7995,0.9606,-0.2309,2043
5,-0.4441,-1.2573,0.0859,0.675,0.9801,-0.1836,2045
5,-0.4558,-1.2727,0.0898,0.5789,0.961,-0.1659,2045
5,-0.467,-1.2817,0.0625,0.4959,0.9387,-0.1513,2049
5,-0.4888,-1.3115,0.0518,0.4051,0.9103,-0.1326,2044
5,-0.4873,-1.3354,0.0288,0.2916,0.8605,-0.09,2048
5,-0.5032,-1.3513,-0.0225,0.1796,0.7753,-0.066,2045
5,-0.5068,-1.3589,-0.0708,0.0826,0.6799,-0.0455,2044
5,-0.5164,-1.366,-0.1038,0.0149,0.6071,-0.0388,2047
5,-0.532,-1.3694,-0.1501,-0.0349,0.543,-0.0573,2046
5,-0.5737,-1.3914,-0.1919,-0.0674,0.4962,-0.1029,2046
5,-0.6357,-1.4663,-0.2405,-0.0674,0.4733,-0.178,2041
5,-0.6736,-1.592,-0.3079,-0.0586,0.4344,-0.2421,2041
5,-0.6875,-1.6558,-0.3689,-0.0081,0.3954,-0.3538,2045
5,-0.6658,-1.6377,-0.4009,0.0555,0.3417,-0.4489,2046
5,-0.6064,-1.5588,-0.3857,0.0787,0.2934,-0.4659,2043
5,-0.4851,-1.4834,-0.2864,0.0542,0.1381,-0.3719,2043
5,-0.4172,-1.417,-0.199,-0.0224,-0.1197,-0.2286,2057
5,-0.3782,-1.3894,-0.1553,-0.1131,-0.3902,-0.0916,2048
5,-0.3499,-1.3767,-0.145,-0.2205,-0.6277,0.0226,2046
5,-0.3071,-1.3481,-0.1438,-0.328,-0.8436,0.1281,2044
5,-0.2756,-1.3193,-0.1748,-0.4056,-1.029,0.225,2045
5,-0.2925,-1.3301,-0.1936,-0.4645,-1.1556,0.3181,2047
5,-0.3359,-1.3901,-0.2253,-0.5245,-1.19,0.4043,2047
5,-0.3547,-1.4358,-0.2729,-0.5534,-1.1549,0.4747,2045
5,-0.3833,-1.4661,-0.2852,-0.5642,-1.0489,0.5498,2042
5,-0.4094,-1.4858,-0.2712,-0.587,-0.8642,0.6385,2047
5,-0.4019,-1.4775,-0.2263,-0.6407,-0.651,0.7501,2043
5,-0.3752,-1.4177,-0.1677,-0.7056,-0.4996,0.8483,2045
5,-0.3542,-1.3555,-0.0918,-0.8151,-0.4289,0.9248,2045
5,-0.321,-1.2957,-0.0413,-1.0046,-0.4147,0.9666,2043
5,-0.2773,-1.2356,-0.0217,-1.2513,-0.4502,1.0324,2047
5,-0.2334,-1.1069,-0.0471,-1.396,-0.5821,1.0637,2049
5,-0.2217,-1.0483,-0.0642,-1.4972,-0.7642,1.1051,2046
5,-0.2109,-0.9729,-0.0928,-1.6057,-0.938,1.126,2045
5,-0.1975,-0.9153,-0.1309,-1.6929,-1.1429,1.1499,2046
5,-0.1931,-0.8708,-0.1716,-1.7526,-1.3218,1.1528,2044
5,-0.2209,-0.8184,-0.2117,-1.7767,-1.4816,1.1268,2041
5,-0.2224,-0.7808,-0.259,-1.7602,-1.6006,1.1284,2043
5,-0.2314,-0.761,-0.2708,-1.7447,-1.6993,1.1405,2048
5,-0.2419,-0.7373,-0.2964,-1.7351,-1.7899,1.1421,2043
5,-0.2395,-0.719,-0.3025,-1.7018,-1.8732,1.146,2047
5,-0.2463,-0.6982,-0.321,-1.6531,-1.933,1.1459,2043
5,-0.2498,-0.6775,-0.3428,-1.5841,-1.9261,1.127,2045
5,-0.2502,-0.6812,-0.3521,-1.5253,-1.9295,1.1272,2044
5,-0.2678,-0.6638,-0.3499,-1.4543,-1.9212,1.1065,2045
5,-0.2776,-0.6509,-0.3472,-1.339,-1.8556,1.0609,2041
5,-0.2888,-0.6667,-0.3696,-1.2616,-1.8005,1.0336,2033
5,-0.293,-0.6943,-0.3838,-1.167,-1.7428,0.9875,2045
5,-0.3052,-0.7188,-0.4021,-1.0672,-1.6941,0.9572,2047
5,-0.3215,-0.7498,-0.4202,-0.9244,-1.6193,0.9009,2043
5,-0.3323,-0.7983,-0.4468,-0.7604,-1.5379,0.8455,2050
5,-0.3425,-0.8508,-0.4541,-0.6124,-1.4617,0.7726,2044
5,-0.3596,-0.9009,-0.4854,-0.435,-1.354,0.7243,2043
5,-0.3752,-0.9709,-0.4822,-0.2461,-1.221,0.6626,2045
5,-0.4111,-1.0605,-0.5049,-0.039,-1.0728,0.6063,2048
5,-0.4456,-1.1868,-0.5239,0.1744,-0.8906,0.5335,2045
5,-0.4604,-1.2952,-0.5298,0.3984,-0.6811,0.4536,2048
6,-0.4724,-1.3879,-0.4966,0.5817,-0.4052,0.3603,2046
6,-0.4775,-1.4353,-0.449,0.7581,-0.0265,0.2911,2045
6,-0.4685,-1.4761,-0.3684,0.9164,0.3755,0.1854,2047
6,-0.4419,-1.4775,-0.2537,0.964,0.7126,0.1273,2043
6,-0.406,-1.4465,-0.1506,0.9376,0.9154,0.09,2044
6,-0.3882,-1.3914,-0.0933,0.9151,0.9945,-0.0047,2053
6,-0.396,-1.3477,-0.0847,0.9774,1.0288,-0.1089,2047
6,-0.4199,-1.3643,-0.1313,1.0903,1.0789,-0.2245,2042
6,-0.437,-1.4275,-0.1987,1.246,1.0608,-0.3413,2043
6,-0.4778,-1.5747,-0.2773,1.4506,1.0504,-0.4614,2045
6,-0.5383,-1.7725,-0.3606,1.7225,1.1135,-0.6199,2045
6,-0.5396,-1.8579,-0.3669,1.9225,1.2347,-0.8857,2042
6,-0.4868,-1.7366,-0.196,1.8821,1.372,-1.1284,2041
6,-0.3987,-1.5386,0.0481,1.6582,1.3611,-1.1601,2038
6,-0.3149,-1.373,0.27,1.3045,1.2083,-1.0958,2046
6,-0.2205,-1.1948,0.3391,0.961,1.0264,-1.1002,2048
6,-0.1633,-1.0527,0.293,0.7645,0.7337,-1.1742,2044
6,-0.1768,-1.0198,0.1956,0.7847,0.3045,-1.1882,2046
6,-0.2207,-1.1042,0.0916,0.9452,-0.0984,-1.1629,2048
6,-0.3057,-1.2605,-0.0393,1.1279,-0.3461,-1.1973,2046
6,-0.3638,-1.3831,-0.1255,1.2203,-0.4496,-1.2675,2041
6,-0.3704,-1.4119,-0.1624,1.1957,-0.4095,-1.2762,2043
6,-0.3335,-1.3569,-0.146,1.1113,-0.2533,-1.2222,2043
6,-0.2698,-1.2988,-0.1384,1.0152,-0.0403,-1.1375,2044
6,-0.2612,-1.2271,-0.1597,0.9489,0.133,-1.0628,2044
6,-0.3005,-1.1602,-0.1836,0.9328,0.2312,-1.0419,2047
6,-0.3269,-1.1003,-0.2271,0.9569,0.2931,-1.0585,2057
6,-0.3359,-1.0273,-0.2339,0.9717,0.3858,-1.0986,2044
6,-0.3264,-0.9199,-0.2236,0.9879,0.534,-1.1226,2042
6,-0.2983,-0.8369,-0.1763,0.9865,0.6814,-1.1232,2041
6,-0.2654,-0.7668,-0.146,0.9637,0.7445,-1.0786,2045
6,-0.2419,-0.6946,-0.155,0.9551,0.7396,-1.0447,2044
6,-0.2522,-0.6484,-0.1504,0.9312,0.6875,-0.9827,2042
6,-0.2642,-0.6084,-0.1694,0.8974,0.6163,-0.9313,2045
6,-0.304,-0.5652,-0.196,0.8798,0.5746,-0.9207,2048
6,-0.3289,-0.5415,-0.2141,0.8953,0.5573,-0.9184,2050
6,-0.3728,-0.5271,-0.229,0.9062,0.5497,-0.9361,2040
6,-0.3584,-0.5354,-0.2461,0.9052,0.4667,-0.9528,2043
6,-0.3457,-0.5288,-0.2554,0.9564,0.4042,-0.96,2045
6,-0.345,-0.5662,-0.2705,0.9702,0.3342,-0.9525,2043
6,-0.3547,-0.5967,-0.283,1.028,0.2517,-0.9393,2045
6,-0.3533,-0.6582,-0.2795,1.0816,0.1465,-0.9066,2046
6,-0.3735,-0.7207,-0.2588,1.1258,0.0783,-0.872,2045
6,-0.3762,-0.7856,-0.2307,1.1487,0.0337,-0.8186,2046
6,-0.3884,-0.8369,-0.2107,1.1729,0.0427,-0.7508,2047
6,-0.4192,-0.9092,-0.1707,1.1753,0.0767,-0.6624,2045
6,-0.4316,-0.9724,-0.1301,1.1396,0.1553,-0.5923,2045
6,-0.4482,-1.0071,-0.0903,1.0967,0.2888,-0.5263,2045
6,-0.4507,-1.0593,-0.0457,1.0481,0.4313,-0.4707,2045
6,-0.4546,-1.0928,-0.0146,0.9774,0.5301,-0.4201,2059
6,-0.4426,-1.1187,0.0071,0.9092,0.5637,-0.3739,2050
6,-0.4475,-1.1631,0.0195,0.8393,0.5667,-0.3306,2045
6,-0.4473,-1.229,-0.0051,0.7755,0.5771,-0.2703,2043
6,-0.4688,-1.2903,-0.0195,0.6895,0.624,-0.1992,2042
6,-0.4807,-1.3503,-0.0376,0.6051,0.6695,-0.1342,2045
6,-0.4929,-1.3948,-0.0396,0.5054,0.7079,-0.0774,2044
6,-0.5081,-1.4309,-0.0535,0.4088,0.7602,-0.023,2045
6,-0.521,-1.4302,-0.0481,0.312,0.8187,0.0075,2043
6,-0.5369,-1.4631,-0.0581,0.1989,0.8846,0.0103,2047
6,-0.5718,-1.5393,-0.0637,0.1012,0.9315,0.0036,2044
6,-0.5945,-1.6626,-0.1118,0.0132,0.9204,-0.0338,2043
6,-0.5837,-1.7368,-0.1836,-0.0527,0.8453,-0.0676,2048
6,-0.5146,-1.759,-0.2124,-0.0917,0.7477,-0.0623,2047
6,-0.4539,-1.7334,-0.1582,-0.1535,0.6469,0.0053,2045
6,-0.4065,-1.6741,-0.0935,-0.2486,0.5153,0.1151,2045
6,-0.3601,-1.5964,-0.0283,-0.3502,0.3132,0.2192,2042
6,-0.3328,-1.533,-0.0066,-0.4956,0.0188,0.3149,2044
6,-0.2969,-1.448,0.0015,-0.6735,-0.2918,0.4065,2047
6,-0.2415,-1.3477,-0.0149,-0.8472,-0.5647,0.4894,2046
6,-0.2036,-1.2822,-0.0278,-0.9922,-0.8124,0.5755,2047
6,-0.2114,-1.2473,-0.0342,-1.0754,-1.0513,0.6658,2045
6,-0.2388,-1.2788,-0.0554,-1.1419,-1.2639,0.758,2049
6,-0.2983,-1.3252,-0.0986,-1.2378,-1.3932,0.8144,2057
6,-0.3115,-1.3472,-0.134,-1.3234,-1.4486,0.8941,2041
6,-0.3313,-1.384,-0.1233,-1.3849,-1.3876,0.9987,2045
6,-0.3484,-1.4153,-0.1011,-1.4798,-1.2521,1.0975,2048
6,-0.3501,-1.4067,-0.0955,-1.5632,-1.1282,1.1764,2049
6,-0.3496,-1.364,-0.0798,-1.639,-1.0385,1.2387,2045
6,-0.3113,-1.3096,-0.0752,-1.7182,-0.9375,1.3113,2047
6,-0.3,-1.2432,-0.0698,-1.7837,-0.8343,1.382,2047
6,-0.2805,-1.188,-0.1016,-1.8378,-0.7755,1.433,2042
6,-0.2766,-1.135,-0.1089,-1.9036,-0.7493,1.4512,2050
6,-0.2632,-1.053,-0.1392,-1.9457,-0.762,1.4536,2044
6,-0.2351,-0.9751,-0.1577,-1.9833,-0.7935,1.478,2047
6,-0.2327,-0.915,-0.1643,-2.0013,-0.8337,1.4661,2047
6,-0.2339,-0.8586,-0.1829,-2.003,-0.8895,1.4723,2047
6,-0.2163,-0.835,-0.1946,-2.0112,-0.9837,1.4767,2046
6,-0.1934,-0.8123,-0.2095,-2.0244,-1.1191,1.5121,2044
6,-0.2073,-0.7629,-0.2361,-2.0084,-1.2419,1.5075,2044
6,-0.2,-0.7449,-0.2603,-1.9841,-1.3715,1.5203,2044
6,-0.2148,-0.7197,-0.2703,-1.9389,-1.4775,1.5229,2044
6,-0.2314,-0.689,-0.2905,-1.8805,-1.5707,1.5185,2047
6,-0.2422,-0.6882,-0.2983,-1.7891,-1.6479,1.5014,2044
6,-0.2388,-0.697,-0.3062,-1.7347,-1.7143,1.5002,2049
6,-0.2678,-0.6926,-0.3271,-1.6427,-1.745,1.4647,2046
6,-0.2815,-0.6882,-0.3352,-1.5474,-1.7143,1.4177,2046
6,-0.2988,-0.7043,-0.3584,-1.4387,-1.6723,1.391,2044
6,-0.3193,-0.7168,-0.3677,-1.3346,-1.6398,1.3394,2045
6,-0.3289,-0.7529,-0.3789,-1.2057,-1.5914,1.2991,2044
6,-0.3613,-0.7971,-0.4255,-1.0456,-1.521,1.2154,2043
6,-0.3909,-0.8623,-0.4517,-0.8672,-1.4372,1.1254,2044
7,-0.4275,-0.9263,-0.4814,-0.6693,-1.3292,1.0182,2046
7,-0.4749,-0.9871,-0.5146,-0.456,-1.189,0.8646,2045
7,-0.4988,-1.061,-0.5071,-0.2238,-1.0158,0.7204,2045
7,-0.5278,-1.1399,-0.5005,-0.0192,-0.8243,0.5805,2045
7,-0.5581,-1.2292,-0.4785,0.175,-0.6193,0.434,2042
7,-0.5723,-1.3059,-0.4839,0.3637,-0.4039,0.2846,2041
7,-0.5903,-1.3831,-0.4426,0.5261,-0.182,0.1272,2045
7,-0.5605,-1.3982,-0.3918,0.6393,0.0336,-0.0158,2046
7,-0.5364,-1.3728,-0.3171,0.7407,0.2294,-0.1466,2043
7,-0.4761,-1.3359,-0.2603,0.8365,0.4152,-0.2297,2045
7,-0.4309,-1.3357,-0.2129,0.881,0.5347,-0.2738,2048
7,-0.4373,-1.3474,-0.2253,0.9854,0.6697,-0.35,2046
7,-0.488,-1.4556,-0.2888,1.2268,0.862,-0.4528,2045
7,-0.575,-1.6436,-0.4285,1.6757,1.0737,-0.6163,2045
7,-0.6003,-1.7908,-0.4995,2.0704,1.3203,-0.9473,2042
7,-0.5261,-1.7532,-0.3228,2.0754,1.5813,-1.2435,2051
7,-0.4324,-1.5959,-0.0679,1.851,1.6073,-1.2987,2040
7,-0.3364,-1.4934,0.1619,1.6313,1.502,-1.2628,2043
7,-0.2554,-1.4155,0.2043,1.4061,1.4331,-1.2944,2044
7,-0.219,-1.3523,0.1401,1.2571,1.2347,-1.3492,2047
7,-0.2161,-1.3042,0.0532,1.2406,0.8541,-1.403,2044
7,-0.2463,-1.2959,-0.0085,1.3334,0.5088,-1.4225,2047
7,-0.3074,-1.3442,-0.0234,1.4272,0.2759,-1.4261,2046
7,-0.3562,-1.4136,-0.0288,1.4456,0.1493,-1.4335,2046
7,-0.3591,-1.438,-0.0544,1.3937,0.1306,-1.458,2047
7,-0.3,-1.396,-0.083,1.3153,0.1067,-1.4452,2042
7,-0.2917,-1.342,-0.0701,1.2188,0.1095,-1.4011,2044
7,-0.2859,-1.2576,-0.1106,1.1303,0.1261,-1.3591,2046
7,-0.2903,-1.1707,-0.1565,1.0694,0.1156,-1.3571,2046
7,-0.301,-1.0935,-0.2097,1.0725,0.0924,-1.3849,2048
7,-0.321,-1.0125,-0.2515,1.075,0.0943,-1.425,2042
7,-0.3423,-0.918,-0.2698,1.1164,0.1348,-1.4581,2042
7,-0.3479,-0.8325,-0.2539,1.1587,0.2233,-1.4808,2042
7,-0.3167,-0.7632,-0.2412,1.1611,0.3049,-1.4564,2042
7,-0.3152,-0.6904,-0.2429,1.167,0.3602,-1.4259,2044
7,-0.2974,-0.6648,-0.2439,1.1397,0.3358,-1.3769,2043
7,-0.2842,-0.6489,-0.2659,1.1419,0.2804,-1.3286,2047
7,-0.2944,-0.6318,-0.282,1.1645,0.2213,-1.27,2045
7,-0.3208,-0.635,-0.304,1.2035,0.1719,-1.2372,2055
7,-0.3445,-0.6235,-0.3274,1.2665,0.1515,-1.1906,2049
7,-0.3918,-0.6238,-0.3359,1.3275,0.1779,-1.1734,2045
7,-0.408,-0.6511,-0.3472,1.3882,0.2151,-1.1492,2046
7,-0.4094,-0.6714,-0.3486,1.4334,0.2494,-1.1275,2046
7,-0.4404,-0.699,-0.3481,1.4727,0.2866,-1.1128,2043
7,-0.4517,-0.7388,-0.3333,1.5081,0.3453,-1.0749,2042
7,-0.4531,-0.7825,-0.3086,1.5265,0.4069,-1.021,2044
7,-0.4521,-0.8105,-0.2791,1.5303,0.4918,-0.9718,2042
7,-0.4646,-0.8687,-0.2432,1.478,0.5634,-0.8946,2044
7,-0.4646,-0.874,-0.2175,1.4292,0.6172,-0.8284,2045
7,-0.4634,-0.9067,-0.1741,1.3869,0.6574,-0.7397,2043
7,-0.4465,-0.9331,-0.1272,1.299,0.6618,-0.603,2044
7,-0.4402,-0.9509,-0.084,1.2195,0.644,-0.5269,2047
7,-0.4324,-0.9905,-0.0635,1.1423,0.6303,-0.4144,2044
7,-0.4644,-1.032,-0.0264,1.0183,0.5974,-0.3173,2048
7,-0.4795,-1.1118,-0.0256,0.8947,0.5568,-0.19,2046
7,-0.5156,-1.166,-0.0293,0.7698,0.5729,-0.1535,2045
7,-0.5276,-1.2283,-0.0344,0.6508,0.6344,-0.0743,2042
7,-0.5388,-1.3062,-0.0312,0.5307,0.7484,-0.0052,2042
7,-0.5427,-1.3579,-0.0371,0.4137,0.85,0.067,2047
7,-0.53,-1.3684,-0.0288,0.3023,0.9116,0.1414,2049
7,-0.5256,-1.3591,-0.0229,0.1932,0.9586,0.2073,2045
7,-0.5176,-1.3496,-0.0232,0.0796,0.9831,0.2822,2060
7,-0.5151,-1.3499,-0.0249,-0.0551,0.9658,0.3167,2043
7,-0.5452,-1.4519,-0.041,-0.1835,0.9114,0.3227,2045
7,-0.6057,-1.5815,-0.1108,-0.2747,0.8376,0.2882,2046
7,-0.6006,-1.6599,-0.1746,-0.3201,0.7472,0.2625,2046
7,-0.5254,-1.6836,-0.1843,-0.3488,0.628,0.2922,2043
7,-0.4626,-1.6516,-0.1179,-0.41,0.4904,0.3932,2047
7,-0.439,-1.6182,-0.0342,-0.5116,0.3742,0.508,2045
7,-0.4041,-1.5786,0.022,-0.6955,0.242,0.6418,2042
7,-0.3879,-1.5256,0.0256,-0.918,0.07,0.7235,2048
7,-0.3521,-1.4001,0.0247,-1.0517,-0.1318,0.785,2045
7,-0.3118,-1.3525,0.0125,-1.1512,-0.3366,0.8629,2047
7,-0.2976,-1.3315,-0.0269,-1.2138,-0.5256,0.9243,2045
7,-0.321,-1.3572,-0.106,-1.2456,-0.7087,0.9887,2050
7,-0.3333,-1.395,-0.1875,-1.2884,-0.9104,1.0235,2042
7,-0.3591,-1.4229,-0.2454,-1.289,-1.0861,1.063,2044
7,-0.3857,-1.4487,-0.2673,-1.2765,-1.1978,1.0938,2041
7,-0.3945,-1.4583,-0.2681,-1.2672,-1.2589,1.1274,2043
7,-0.4045,-1.4368,-0.2026,-1.3111,-1.2758,1.1581,2042
7,-0.3828,-1.3716,-0.1372,-1.3958,-1.2698,1.207,2052
7,-0.3433,-1.2737,-0.0884,-1.4994,-1.2736,1.2986,2044
7,-0.3003,-1.1956,-0.0598,-1.5933,-1.3426,1.3796,2041
7,-0.2695,-1.1274,-0.0444,-1.6859,-1.4186,1.4299,2050
7,-0.2634,-1.0676,-0.0623,-1.7323,-1.4842,1.4757,2053
7,-0.2539,-1.0117,-0.0872,-1.7622,-1.5463,1.4972,2045
7,-0.2607,-0.9685,-0.1125,-1.7689,-1.5909,1.5166,2047
7,-0.2666,-0.9331,-0.1567,-1.7615,-1.5998,1.5113,2040
7,-0.2825,-0.8833,-0.2117,-1.7382,-1.5841,1.4888,2042
7,-0.282,-0.8669,-0.2393,-1.7076,-1.5555,1.4824,2046
7,-0.2969,-0.8269,-0.2695,-1.6812,-1.5259,1.4557,2041
7,-0.2993,-0.7891,-0.2849,-1.6322,-1.4825,1.4328,2044
7,-0.3037,-0.7466,-0.3042,-1.5717,-1.4476,1.4067,2044
7,-0.2964,-0.7183,-0.3025,-1.5047,-1.434,1.3679,2045
7,-0.2974,-0.6931,-0.3064,-1.4573,-1.4371,1.3697,2044
7,-0.2908,-0.6716,-0.3103,-1.3973,-1.4553,1.3334,2041
7,-0.2888,-0.6484,-0.3018,-1.3332,-1.4645,1.3291,2043
7,-0.3015,-0.6392,-0.332,-1.2274,-1.4624,1.2866,2045
7,-0.3069,-0.6562,-0.3201,-1.1248,-1.4854,1.262,2045
7,-0.2937,-0.6875,-0.3459,-1.0219,-1.5275,1.2328,2046
7,-0.303,-0.7131,-0.3511,-0.924,-1.5427,1.1673,2046
7,-0.3105,-0.7244,-0.3801,-0.7905,-1.5215,1.1017,2046
8,-0.3091,-0.7646,-0.3789,-0.6518,-1.4776,1.0396,2048
8,-0.3215,-0.7822,-0.3784,-0.5265,-1.4006,0.9788,2042
8,-0.3406,-0.8132,-0.3855,-0.3926,-1.3103,0.9224,2048
8,-0.3767,-0.8684,-0.377,-0.2361,-1.1987,0.8384,2055
8,-0.4207,-0.9326,-0.3965,-0.0561,-1.0938,0.7191,2041
8,-0.4817,-1.0251,-0.4104,0.1145,-1.0158,0.5962,2048
8,-0.5073,-1.0959,-0.406,0.2599,-0.9495,0.4666,2047
8,-0.5413,-1.1562,-0.4048,0.4072,-0.8216,0.3468,2047
8,-0.5637,-1.2153,-0.4207,0.6235,-0.6112,0.2121,2045
8,-0.5771,-1.2791,-0.3979,0.8196,-0.341,0.086,2042
8,-0.583,-1.3137,-0.3069,0.9471,-0.0527,-0.0166,2039
8,-0.5554,-1.3303,-0.2339,1.0335,0.2183,-0.0917,2043
8,-0.5198,-1.2891,-0.1519,1.0685,0.4562,-0.1526,2046
8,-0.4856,-1.2529,-0.0642,1.0963,0.6235,-0.1922,2049
8,-0.4812,-1.2397,-0.0369,1.1364,0.6681,-0.271,2046
8,-0.5288,-1.2971,-0.0718,1.238,0.7251,-0.3497,2046
8,-0.5728,-1.4626,-0.1824,1.4475,0.7763,-0.4446,2045
8,-0.6174,-1.6326,-0.3062,1.7407,0.8875,-0.5746,2043
8,-0.6313,-1.7263,-0.3428,1.9695,1.1782,-0.8249,2046
8,-0.561,-1.5962,-0.2146,2.0136,1.5483,-1.0023,2040
8,-0.4944,-1.4578,0.0698,1.8808,1.7438,-0.9697,2041
8,-0.4373,-1.4141,0.2522,1.6792,1.8044,-0.916,2041
8,-0.3669,-1.3447,0.2754,1.4559,1.784,-0.972,2044
8,-0.3391,-1.2507,0.231,1.3155,1.5989,-1.0483,2046
8,-0.3181,-1.2295,0.187,1.3086,1.3157,-1.0838,2044
8,-0.2986,-1.2573,0.176,1.2857,1.0515,-1.0645,2045
8,-0.3066,-1.314,0.1548,1.2529,0.8126,-1.0714,2055
8,-0.313,-1.3372,0.1252,1.181,0.5821,-1.1013,2046
8,-0.2947,-1.3293,0.1011,1.1135,0.4097,-1.0893,2048
8,-0.2649,-1.3135,0.071,1.025,0.2609,-1.0393,2048
8,-0.2996,-1.3032,0.0027,0.9377,0.165,-1.008,2042
8,-0.3528,-1.2632,-0.0806,0.8786,0.1316,-1.0503,2046
8,-0.3855,-1.2095,-0.1597,0.9164,0.1498,-1.1327,2045
8,-0.417,-1.1602,-0.21,0.9558,0.2204,-1.2087,2046
8,-0.4141,-1.0669,-0.2253,1.0038,0.3191,-1.2862,2043
8,-0.4136,-0.9668,-0.2207,1.0112,0.4364,-1.3286,2044
8,-0.3818,-0.8716,-0.1848,1.0009,0.5433,-1.34,2046
8,-0.3601,-0.7871,-0.176,0.9841,0.6251,-1.344,2043
8,-0.3525,-0.7229,-0.1719,0.9701,0.6596,-1.3322,2043
8,-0.3323,-0.6501,-0.1792,0.9821,0.6426,-1.3137,2046
8,-0.3267,-0.6216,-0.196,0.9765,0.5959,-1.2959,2044
8,-0.302,-0.5972,-0.2146,0.9951,0.5376,-1.2902,2047
8,-0.3132,-0.5735,-0.2446,1.026,0.4623,-1.3147,2044
8,-0.3286,-0.554,-0.2673,1.0793,0.4031,-1.3181,2046
8,-0.334,-0.5742,-0.2778,1.1186,0.3164,-1.3215,2045
8,-0.3413,-0.6106,-0.2915,1.1274,0.2021,-1.3145,2049
8,-0.3406,-0.6431,-0.292,1.1453,0.0991,-1.295,2044
8,-0.342,-0.6663,-0.2998,1.167,0.0442,-1.291,2049
8,-0.3882,-0.6995,-0.2927,1.1802,-0.0266,-1.2818,2046
8,-0.4141,-0.7524,-0.2905,1.2312,-0.0503,-1.2776,2064
8,-0.4438,-0.824,-0.252,1.2475,-0.0838,-1.2629,2045
8,-0.4482,-0.8677,-0.2417,1.2346,-0.071,-1.2093,2046
8,-0.4685,-0.897,-0.198,1.2021,-0.0031,-1.1709,2045
8,-0.4744,-0.9229,-0.1702,1.1684,0.0968,-1.1111,2046
8,-0.5142,-0.928,-0.1472,1.1067,0.2104,-1.0748,2043
8,-0.5356,-0.9492,-0.1082,1.0399,0.2737,-1.018,2044
8,-0.533,-0.9683,-0.0818,0.9945,0.3007,-0.9551,2050
8,-0.5496,-1.0249,-0.0813,0.9336,0.2888,-0.9155,2044
8,-0.563,-1.0764,-0.0701,0.8657,0.2697,-0.8372,2044
8,-0.5562,-1.1423,-0.0569,0.7919,0.2448,-0.7501,2044
8,-0.5417,-1.2197,-0.0537,0.71,0.234,-0.6316,2041
8,-0.5505,-1.2852,-0.0269,0.5666,0.2478,-0.4919,2041
8,-0.5671,-1.3555,-0.0151,0.4239,0.2855,-0.3607,2048
8,-0.5779,-1.3801,-0.0076,0.2999,0.3452,-0.2586,2049
8,-0.5701,-1.3906,-0.0132,0.1995,0.3791,-0.1618,2046
8,-0.552,-1.3735,-0.0173,0.108,0.4067,-0.0675,2050
8,-0.5579,-1.3633,0.0098,-0.0059,0.4446,0.0222,2046
8,-0.6155,-1.4243,0.0237,-0.139,0.5145,0.079,2047
8,-0.6531,-1.5247,-0.0095,-0.2739,0.5831,0.1027,2044
8,-0.6541,-1.5894,-0.061,-0.3916,0.589,0.1202,2047
8,-0.5706,-1.6174,-0.1099,-0.4715,0.4841,0.1754,2045
8,-0.4956,-1.5801,-0.1116,-0.5374,0.3145,0.2706,2046
8,-0.4663,-1.5503,-0.0649,-0.6565,0.1513,0.3956,2062
8,-0.4402,-1.4758,-0.0664,-0.8016,-0.0308,0.5047,2042
8,-0.4421,-1.4192,-0.0798,-0.9303,-0.2679,0.6038,2049
8,-0.4163,-1.3276,-0.0867,-1.0733,-0.5271,0.6755,2047
8,-0.3706,-1.241,-0.0847,-1.2495,-0.7552,0.744,2044
8,-0.3335,-1.178,-0.1196,-1.3094,-0.9962,0.8341,2046
8,-0.3711,-1.2212,-0.1624,-1.3158,-1.2312,0.9188,2044
8,-0.4011,-1.2764,-0.2334,-1.3157,-1.4531,0.9721,2047
8,-0.4336,-1.3545,-0.2869,-1.2961,-1.6398,1.023,2046
8,-0.4558,-1.459,-0.3069,-1.2701,-1.7375,1.082,2045
8,-0.4534,-1.5505,-0.3215,-1.2391,-1.7486,1.1536,2047
8,-0.45,-1.5715,-0.2617,-1.2308,-1.7014,1.2437,2048
8,-0.459,-1.564,-0.2029,-1.2974,-1.5664,1.3342,2047
8,-0.4302,-1.4829,-0.1194,-1.399,-1.4308,1.4671,2046
8,-0.3953,-1.4097,-0.0576,-1.4882,-1.3688,1.5783,2045
8,-0.3635,-1.334,-0.0344,-1.6041,-1.3079,1.6779,2043
8,-0.3254,-1.2578,-0.0225,-1.696,-1.2587,1.7512,2045
8,-0.2852,-1.1702,-0.0227,-1.7659,-1.2718,1.8291,2047
8,-0.2961,-1.1201,-0.0168,-1.878,-1.2749,1.8632,2044
8,-0.2781,-1.0486,-0.0415,-1.9772,-1.2862,1.927,2051
8,-0.2878,-1.0122,-0.0681,-2.0502,-1.3121,1.9578,2045
8,-0.2939,-0.9597,-0.0977,-2.1023,-1.332,1.9692,2046
8,-0.2976,-0.9241,-0.1323,-2.13,-1.368,1.9932,2046
8,-0.3066,-0.8931,-0.145,-2.1314,-1.3954,1.9917,2052
8,-0.2937,-0.8877,-0.1863,-2.1462,-1.4699,2.031,2047
8,-0.3015,-0.8638,-0.2058,-2.114,-1.5344,2.0337,2045
8,-0.3176,-0.8584,-0.2371,-2.0658,-1.6161,2.0423,2044
8,-0.3237,-0.8245,-0.2656,-1.9867,-1.656,2.0152,2042
8,-0.3391,-0.8337,-0.2832,-1.9433,-1.7141,2.0258,2046
8,-0.332,-0.8057,-0.3042,-1.8602,-1.7446,2.0122,2042
8,-0.3416,-0.7888,-0.3093,-1.7658,-1.7315,1.9963,2045
9,-0.3435,-0.7783,-0.3147,-1.6649,-1.6867,1.9775,2043
9,-0.3645,-0.7625,-0.3145,-1.59,-1.6214,1.9255,2044
9,-0.3774,-0.7434,-0.3154,-1.4996,-1.5731,1.8964,2044
9,-0.3708,-0.7454,-0.3113,-1.3956,-1.5587,1.8303,2045
9,-0.376,-0.7666,-0.3345,-1.2814,-1.5502,1.7771,2042
9,-0.4126,-0.8025,-0.3464,-1.1496,-1.5336,1.7049,2044
9,-0.4502,-0.8506,-0.4001,-0.9815,-1.4912,1.5816,2044
9,-0.5034,-0.8835,-0.4211,-0.7841,-1.4109,1.451,2043
9,-0.5569,-0.9338,-0.4509,-0.585,-1.3101,1.299,2045
9,-0.5908,-1.0037,-0.4502,-0.3976,-1.2041,1.1408,2043
9,-0.6121,-1.0515,-0.4299,-0.1942,-1.0724,0.96,2048
9,-0.6213,-1.0874,-0.4084,-0.0314,-0.9231,0.7946,2043
9,-0.6069,-1.0938,-0.354,0.0819,-0.763,0.6456,2042
9,-0.6174,-1.0867,-0.2847,0.1872,-0.5827,0.4984,2044
9,-0.5815,-1.0701,-0.2124,0.2499,-0.4456,0.3974,2043
9,-0.5449,-1.0662,-0.1338,0.2737,-0.3614,0.2947,2050
9,-0.5098,-1.0728,-0.0938,0.2987,-0.3366,0.2004,2045
9,-0.5078,-1.0808,-0.0774,0.3468,-0.3345,0.0888,2043
9,-0.5488,-1.0811,-0.0962,0.4236,-0.3253,-0.0366,2045
9,-0.5784,-1.1145,-0.1675,0.5609,-0.2774,-0.179,2044
9,-0.6091,-1.1763,-0.2566,0.7518,-0.2057,-0.3207,2049
9,-0.665,-1.2485,-0.2954,1.0031,-0.0679,-0.4911,2044
9,-0.7161,-1.3821,-0.2827,1.2119,0.1778,-0.6636,2044
9,-0.7244,-1.4375,-0.2649,1.3584,0.536,-0.8514,2042
9,-0.6687,-1.3555,-0.1465,1.3966,0.8477,-1.0182,2041
9,-0.6125,-1.1614,0.0176,1.37,1.0262,-1.082,2045
9,-0.5554,-1.0767,0.127,1.2857,1.1095,-1.1026,2043
9,-0.5063,-1.0322,0.1428,1.2508,1.1264,-1.1591,2044
9,-0.469,-0.9941,0.0967,1.282,1.0813,-1.2572,2042
9,-0.4185,-0.97,0.0479,1.3512,0.9417,-1.3093,2044
9,-0.4131,-1.0454,-0.0129,1.4209,0.762,-1.3181,2046
9,-0.4055,-1.1787,-0.1057,1.4922,0.6336,-1.3431,2045
9,-0.405,-1.248,-0.1895,1.5764,0.5605,-1.4126,2042
9,-0.3953,-1.261,-0.2148,1.636,0.5099,-1.446,2043
9,-0.376,-1.261,-0.1799,1.6582,0.4994,-1.433,2042
9,-0.3711,-1.249,-0.1418,1.6483,0.5034,-1.4163,2042
9,-0.3938,-1.2087,-0.1248,1.6463,0.5364,-1.4255,2048
9,-0.4258,-1.1685,-0.127,1.6644,0.6007,-1.4499,2044
9,-0.4753,-1.1418,-0.1409,1.6867,0.6939,-1.515,2042
9,-0.4976,-1.1235,-0.1655,1.7053,0.8309,-1.607,2045
9,-0.5142,-1.0662,-0.1711,1.6962,1.0023,-1.6978,2047
9,-0.4976,-0.9866,-0.1333,1.6486,1.1857,-1.7428,2043
9,-0.4719,-0.905,-0.1187,1.6065,1.3418,-1.7446,2041
9,-0.4287,-0.8459,-0.1008,1.5384,1.4284,-1.7143,2043
9,-0.3831,-0.7849,-0.1101,1.4732,1.4423,-1.6765,2042
9,-0.355,-0.7197,-0.1411,1.4351,1.3877,-1.638,2047
9,-0.3289,-0.6846,-0.1731,1.4206,1.2965,-1.5989,2040
9,-0.3132,-0.675,-0.1997,1.4123,1.1533,-1.58,2047
9,-0.2908,-0.6843,-0.22,1.4127,0.9725,-1.5823,2044
9,-0.2732,-0.6978,-0.2317,1.4102,0.7922,-1.5767,2047
9,-0.2949,-0.6948,-0.262,1.4311,0.6168,-1.5868,2040
9,-0.3215,-0.7346,-0.2996,1.4322,0.4243,-1.5776,2045
9,-0.3401,-0.7346,-0.3225,1.4657,0.2748,-1.5913,2044
9,-0.3806,-0.7859,-0.3518,1.5308,0.1812,-1.6186,2047
9,-0.4175,-0.8511,-0.3452,1.5627,0.0744,-1.6201,2046
9,-0.4565,-0.8735,-0.3315,1.5977,0.0328,-1.6399,2044
9,-0.4832,-0.9072,-0.2905,1.6062,0.0445,-1.6472,2040
9,-0.4907,-0.9248,-0.248,1.555,0.1092,-1.6053,2046
9,-0.5134,-0.9182,-0.2009,1.5125,0.1895,-1.574,2047
9,-0.5212,-0.939,-0.1626,1.4396,0.2791,-1.4966,2046
9,-0.5164,-0.9556,-0.1375,1.3588,0.3745,-1.4498,2045
9,-0.5127,-0.9736,-0.1167,1.3006,0.4731,-1.3966,2042
9,-0.5134,-1.0159,-0.1152,1.2332,0.5613,-1.334,2044
9,-0.5242,-1.0469,-0.1074,1.1588,0.6502,-1.2688,2046
9,-0.5344,-1.0759,-0.0999,1.0772,0.7082,-1.2117,2047
9,-0.5205,-1.1396,-0.0828,1.0088,0.7887,-1.1409,2041
9,-0.5696,-1.1836,-0.0911,0.9202,0.8803,-1.0881,2048
9,-0.571,-1.2278,-0.0864,0.8622,0.9693,-1.0095,2041
9,-0.5852,-1.3064,-0.0901,0.7653,1.0576,-0.9323,2046
9,-0.6106,-1.3577,-0.0725,0.6494,1.1286,-0.8491,2046
9,-0.5967,-1.3911,-0.0623,0.5215,1.1897,-0.8028,2043
9,-0.5933,-1.3894,-0.0593,0.4089,1.232,-0.7529,2048
9,-0.616,-1.387,-0.0447,0.2871,1.2572,-0.666,2044
9,-0.6448,-1.467,-0.0708,0.1714,1.2449,-0.601,2043
9,-0.7039,-1.5867,-0.1331,0.1112,1.1802,-0.5655,2043
9,-0.73,-1.697,-0.1909,0.0755,1.0867,-0.5639,2047
9,-0.6843,-1.7014,-0.2068,0.0402,1.0111,-0.5382,2047
9,-0.5701,-1.6384,-0.1526,-0.0655,0.8855,-0.4546,2044
9,-0.4658,-1.585,-0.0168,-0.2161,0.6173,-0.2232,2046
9,-0.4302,-1.5449,0.0132,-0.4038,0.3614,-0.0386,2043
9,-0.3767,-1.4771,0.0713,-0.6169,0.0144,0.1237,2046
9,-0.3186,-1.4265,0.1284,-0.9059,-0.3622,0.3167,2041
9,-0.3022,-1.4001,0.1128,-1.129,-0.6729,0.4614,2050
9,-0.3271,-1.4116,0.0579,-1.2521,-0.9178,0.5928,2049
9,-0.3726,-1.4514,-0.033,-1.3435,-1.0985,0.7196,2051
9,-0.4231,-1.4912,-0.0884,-1.3954,-1.1765,0.8154,2046
9,-0.45,-1.5415,-0.1113,-1.423,-1.1393,0.9235,2043
9,-0.4702,-1.5955,-0.0901,-1.4599,-0.9718,1.024,2047
9,-0.4897,-1.6038,-0.0415,-1.5426,-0.7106,1.1148,2045
9,-0.4958,-1.5559,0.0405,-1.7046,-0.4452,1.2113,2048
9,-0.4585,-1.4272,0.1162,-1.9104,-0.2639,1.3146,2043
9,-0.3831,-1.3064,0.1506,-2.1065,-0.1988,1.4484,2051
9,-0.3149,-1.1904,0.1416,-2.2579,-0.2464,1.5392,2043
9,-0.2786,-1.0781,0.1279,-2.3429,-0.3718,1.6025,2049
9,-0.2441,-0.9829,0.0801,-2.4035,-0.5477,1.6684,2044
9,-0.2329,-0.9087,0.0188,-2.436,-0.7478,1.7028,2045
9,-0.2434,-0.8115,-0.0706,-2.4068,-0.924,1.7104,2043
9,-0.2395,-0.7756,-0.1301,-2.3784,-1.0958,1.7688,2044
9,-0.2358,-0.7246,-0.2014,-2.3599,-1.2545,1.7956,2044
9,-0.2571,-0.6731,-0.2637,-2.3197,-1.3765,1.8447,2042
9,-0.2742,-0.6282,-0.3083,-2.2422,-1.4677,1.8471,2046
10,-0.2837,-0.6074,-0.3286,-2.1414,-1.5402,1.8523,2048
10,-0.2913,-0.6013,-0.3523,-2.0485,-1.5787,1.8526,2046
10,-0.2966,-0.593,-0.3667,-1.9243,-1.6183,1.8468,2044
10,-0.3176,-0.5847,-0.3779,-1.7873,-1.6358,1.8046,2044
10,-0.3235,-0.5825,-0.405,-1.6295,-1.6225,1.7899,2043
10,-0.3386,-0.5862,-0.4158,-1.449,-1.5769,1.7385,2047
10,-0.3467,-0.6084,-0.4072,-1.2692,-1.5344,1.6902,2051
10,-0.3528,-0.6201,-0.4163,-1.076,-1.4665,1.6016,2042
10,-0.3677,-0.6433,-0.4187,-0.8862,-1.3858,1.5014,2045
10,-0.377,-0.6824,-0.4292,-0.6898,-1.2974,1.3993,2043
10,-0.3767,-0.7139,-0.4373,-0.512,-1.2167,1.2861,2045
10,-0.3828,-0.7454,-0.4548,-0.3406,-1.1429,1.1652,2045
10,-0.3972,-0.7866,-0.4504,-0.1607,-1.0492,1.0548,2043
10,-0.4292,-0.8398,-0.4751,0.0292,-0.9368,0.9135,2046
10,-0.4714,-0.8953,-0.5095,0.2515,-0.8183,0.7253,2044
10,-0.501,-0.9624,-0.5166,0.4581,-0.6931,0.5713,2044
10,-0.5171,-1.0032,-0.5229,0.689,-0.5489,0.4056,2044
10,-0.5354,-1.0513,-0.5046,0.9148,-0.3703,0.2468,2045
10,-0.5579,-1.1226,-0.4888,1.1463,-0.1535,0.0834,2044
10,-0.5779,-1.1992,-0.4575,1.3535,0.0431,-0.0743,2046
10,-0.5757,-1.2556,-0.4131,1.5077,0.2308,-0.261,2043
10,-0.5708,-1.2952,-0.3501,1.6386,0.3789,-0.4184,2044
10,-0.5425,-1.303,-0.2747,1.7106,0.4986,-0.5468,2046
10,-0.5093,-1.2966,-0.2102,1.7373,0.591,-0.65,2048
10,-0.489,-1.3015,-0.1555,1.7036,0.6401,-0.7229,2045
10,-0.4958,-1.3411,-0.1719,1.7249,0.6521,-0.7689,2044
10,-0.5515,-1.4609,-0.2534,1.8664,0.6528,-0.8578,2046
10,-0.627,-1.6443,-0.3616,2.1422,0.6921,-1.016,2049
10,-0.6465,-1.719,-0.3928,2.3499,0.8047,-1.2861,2043
10,-0.635,-1.6653,-0.2344,2.37,0.9337,-1.4744,2052
10,-0.5535,-1.5662,0.0222,2.164,0.9666,-1.449,2040
10,-0.4231,-1.4932,0.2297,1.8201,0.9545,-1.3556,2052
10,-0.321,-1.4128,0.3137,1.4201,0.8738,-1.3296,2043
10,-0.2712,-1.3281,0.3274,1.1579,0.6136,-1.3074,2046
10,-0.2751,-1.2727,0.3022,1.0086,0.2639,-1.2491,2044
10,-0.2805,-1.3027,0.2578,0.9484,-0.0466,-1.1833,2040
10,-0.291,-1.3672,0.1921,0.8811,-0.3064,-1.1529,2046
10,-0.2856,-1.3665,0.127,0.7865,-0.443,-1.1252,2047
10,-0.2744,-1.333,0.0747,0.7228,-0.5172,-1.0652,2044
10,-0.3022,-1.3372,0.0361,0.6558,-0.5585,-0.979,2047
10,-0.3357,-1.3098,-0.0278,0.5878,-0.54,-0.9034,2045
10,-0.3796,-1.2437,-0.114,0.5646,-0.441,-0.8692,2045
10,-0.4211,-1.175,-0.1833,0.5904,-0.2414,-0.8702,2044
10,-0.4558,-1.0854,-0.229,0.6149,0.0581,-0.8839,2048
10,-0.4626,-0.9749,-0.2239,0.6203,0.3932,-0.9039,2046
10,-0.457,-0.8735,-0.1875,0.6119,0.6834,-0.9271,2045
10,-0.4316,-0.7671,-0.1494,0.5787,0.9211,-0.9344,2041
10,-0.3835,-0.6826,-0.1323,0.5612,1.0519,-0.9319,2043
10,-0.3428,-0.6116,-0.1323,0.5727,1.0905,-0.934,2044
10,-0.3079,-0.5686,-0.1497,0.5758,1.0532,-0.9247,2049
10,-0.2966,-0.5212,-0.1848,0.6333,0.9505,-0.9144,2043
10,-0.2898,-0.4827,-0.207,0.6918,0.7978,-0.9034,2046
10,-0.2957,-0.479,-0.2351,0.7502,0.6135,-0.9027,2049
10,-0.3186,-0.4746,-0.2783,0.805,0.4173,-0.9246,2044
10,-0.3486,-0.4602,-0.3086,0.8822,0.214,-0.9584,2050
10,-0.3677,-0.4666,-0.3286,0.9782,0.0447,-0.9877,2043
10,-0.3901,-0.509,-0.335,1.0706,-0.0996,-1.0025,2047
10,-0.4106,-0.5559,-0.3225,1.1401,-0.2135,-1.0194,2047
10,-0.4324,-0.6208,-0.2949,1.2102,-0.3092,-1.0202,2047
10,-0.4348,-0.6833,-0.2617,1.2665,-0.3795,-1.0034,2044
10,-0.4695,-0.7476,-0.2112,1.2856,-0.4255,-0.9753,2041
10,-0.4851,-0.7983,-0.1621,1.3033,-0.4462,-0.8991,2051
10,-0.5168,-0.8391,-0.0911,1.2965,-0.4406,-0.8317,2045
10,-0.5222,-0.8906,-0.0471,1.2493,-0.4477,-0.7283,2047
10,-0.5378,-0.9438,0.0066,1.1753,-0.4611,-0.5975,2042
10,-0.5457,-0.9949,0.0234,1.0953,-0.445,-0.4717,2045
10,-0.5854,-1.0818,0.0408,1.0215,-0.3621,-0.3818,2045
10,-0.5884,-1.1775,0.0408,0.9609,-0.2754,-0.2557,2043
10,-0.6125,-1.2576,0.0322,0.8886,-0.1506,-0.1621,2045
10,-0.6167,-1.3347,0.0457,0.8,0.0088,-0.0643,2046
10,-0.6169,-1.4248,0.05,0.6967,0.2059,0.0224,2041
10,-0.616,-1.4822,0.0645,0.5964,0.4059,0.0886,2045
10,-0.6204,-1.5068,0.0793,0.4958,0.5671,0.1811,2045
10,-0.6055,-1.5059,0.0928,0.3721,0.7233,0.2666,2044
10,-0.5959,-1.4529,0.0977,0.1984,0.8901,0.3211,2045
10,-0.6074,-1.4314,0.1045,0.0228,0.9737,0.3823,2050
10,-0.6519,-1.4783,0.0596,-0.106,0.9594,0.4156,2047
10,-0.6909,-1.6113,-0.0039,-0.1848,0.8971,0.401,2044
10,-0.7061,-1.6826,-0.1062,-0.2738,0.8075,0.3278,2047
10,-0.6465,-1.6382,-0.1858,-0.3955,0.7622,0.2896,2041
10,-0.5957,-1.5073,-0.2087,-0.4895,0.708,0.3232,2044
10,-0.55,-1.4062,-0.1636,-0.5492,0.6205,0.4315,2045
10,-0.531,-1.3262,-0.144,-0.6469,0.4544,0.5363,2046
10,-0.4692,-1.2197,-0.1411,-0.8023,0.1918,0.6143,2048
10,-0.376,-1.0896,-0.1479,-0.9368,-0.1606,0.7071,2044
10,-0.3162,-1.0552,-0.1724,-1.0138,-0.5176,0.7855,2046
10,-0.3132,-1.0957,-0.2534,-1.0007,-0.8534,0.8333,2048
10,-0.373,-1.2175,-0.3486,-0.9556,-1.1226,0.7855,2043
10,-0.4277,-1.3503,-0.4534,-0.8899,-1.3358,0.7042,2048
10,-0.4553,-1.4795,-0.5107,-0.7835,-1.5083,0.6665,2045
10,-0.4512,-1.5808,-0.5156,-0.6775,-1.5621,0.6582,2045
10,-0.4573,-1.6021,-0.467,-0.6232,-1.5123,0.7042,2043
10,-0.4553,-1.551,-0.3623,-0.6067,-1.3949,0.7942,2043
10,-0.4236,-1.4543,-0.2075,-0.6642,-1.2648,0.9227,2046
10,-0.3855,-1.3535,-0.0911,-0.797,-1.1623,1.0724,2042
10,-0.3489,-1.28,-0.0232,-0.9638,-1.0889,1.1849,2044
10,-0.3162,-1.2305,0.009,-1.2035,-1.0091,1.2463,2049
10,-0.27,-1.1177,0.0054,-1.3571,-0.9946,1.2752,2044
10,-0.2314,-1.0554,0.0059,-1.4697,-1.0495,1.3347,2048
10,-0.2043,-1.0244,-0.0149,-1.6093,-1.0909,1.3765,2046
10,-0.1799,-0.9788,-0.0371,-1.7587,-1.1488,1.4174,2046
10,-0.1738,-0.9331,-0.0842,-1.88,-1.2315,1.4753,2047
11,-0.1863,-0.9033,-0.1284,-2.0028,-1.2754,1.5095,2044
11,-0.1899,-0.8757,-0.1619,-2.0915,-1.322,1.542,2046
11,-0.2009,-0.8677,-0.197,-2.1486,-1.3781,1.5592,2047
11,-0.2136,-0.8408,-0.2236,-2.1505,-1.4193,1.5683,2047
11,-0.229,-0.8147,-0.2495,-2.1217,-1.4291,1.5599,2044
11,-0.2405,-0.8159,-0.2646,-2.0971,-1.445,1.5554,2049
11,-0.2283,-0.811,-0.2822,-2.0751,-1.4869,1.5603,2041
11,-0.2454,-0.7783,-0.3047,-2.0454,-1.5125,1.5384,2046
11,-0.2498,-0.7834,-0.3127,-1.9575,-1.4986,1.5283,2044
11,-0.2673,-0.7786,-0.3223,-1.8736,-1.4902,1.495,2045
11,-0.2866,-0.7825,-0.3196,-1.8191,-1.491,1.4685,2045
11,-0.3015,-0.7939,-0.3252,-1.7297,-1.4607,1.4334,2047
11,-0.321,-0.8281,-0.3381,-1.6455,-1.4055,1.394,2047
11,-0.3198,-0.875,-0.3748,-1.5463,-1.3643,1.3398,2047
11,-0.3457,-0.9116,-0.3887,-1.4342,-1.3422,1.2664,2048
11,-0.4077,-0.9658,-0.4185,-1.2607,-1.2673,1.1517,2044
11,-0.4382,-1.0498,-0.4297,-1.0869,-1.1576,1.0219,2041
11,-0.4741,-1.1445,-0.415,-0.9212,-1.0595,0.8819,2044
11,-0.4814,-1.2183,-0.4043,-0.7909,-0.9776,0.7492,2044
11,-0.49,-1.26,-0.3767,-0.7034,-0.8881,0.6071,2045
11,-0.5002,-1.2639,-0.3579,-0.5834,-0.7622,0.4502,2044
11,-0.4937,-1.2778,-0.3252,-0.4823,-0.618,0.3223,2045
11,-0.5215,-1.2542,-0.3127,-0.3606,-0.4514,0.1549,2043
11,-0.5132,-1.2256,-0.2805,-0.2276,-0.2794,-0.0045,2047
11,-0.5198,-1.2048,-0.2441,-0.1282,-0.1288,-0.1439,2044
11,-0.5059,-1.218,-0.2314,-0.0313,-0.0306,-0.2614,2044
11,-0.5034,-1.2043,-0.229,0.0479,0.0222,-0.3995,2043
11,-0.53,-1.1775,-0.2593,0.2139,0.1198,-0.5536,2042
11,-0.5732,-1.2319,-0.3354,0.4908,0.2329,-0.7118,2047
11,-0.6255,-1.3525,-0.4329,0.9075,0.3948,-0.932,2042
11,-0.6807,-1.5027,-0.5234,1.3133,0.6416,-1.2276,2046
11,-0.6628,-1.5288,-0.4666,1.5301,0.914,-1.5273,2040
11,-0.6177,-1.3752,-0.2876,1.5281,1.0994,-1.7145,2047
11,-0.5676,-1.281,-0.0986,1.5117,1.1696,-1.7779,2042
11,-0.4949,-1.2688,-0.0137,1.4439,1.1828,-1.8375,2043
11,-0.4309,-1.2173,-0.0015,1.3944,1.1151,-1.9157,2043
11,-0.4109,-1.1807,-0.0144,1.4214,0.9616,-1.9563,2045
11,-0.3921,-1.1919,-0.0122,1.5089,0.7862,-1.9711,2047
11,-0.3972,-1.2336,0.002,1.5737,0.6269,-1.9498,2041
11,-0.3853,-1.3081,0.0254,1.6097,0.4329,-1.914,2047
11,-0.3623,-1.3857,0.0437,1.5872,0.2356,-1.862,2049
11,-0.312,-1.4075,0.0552,1.4765,0.1108,-1.7828,2048
11,-0.2793,-1.3528,0.0845,1.335,0.0736,-1.668,2047
11,-0.2576,-1.3159,0.0728,1.2081,0.08,-1.5314,2045
11,-0.2786,-1.2854,0.0623,1.101,0.1159,-1.4279,2047
11,-0.322,-1.2461,-0.0046,1.0601,0.1151,-1.3985,2047
11,-0.3616,-1.1858,-0.0474,1.0584,0.1442,-1.4154,2046
11,-0.3865,-1.1033,-0.1008,1.0709,0.2133,-1.4424,2043
11,-0.4036,-1.0078,-0.0969,1.0692,0.337,-1.4584,2043
11,-0.3958,-0.918,-0.0999,1.0564,0.4872,-1.4536,2045
11,-0.3743,-0.8455,-0.0806,1.0184,0.602,-1.4089,2035
11,-0.3494,-0.7852,-0.1123,0.958,0.6632,-1.3474,2048
11,-0.3535,-0.7388,-0.1565,0.9206,0.6849,-1.2998,2049
11,-0.3633,-0.6897,-0.1865,0.9262,0.6919,-1.2414,2043
11,-0.3806,-0.6467,-0.2087,0.9766,0.7036,-1.188,2042
11,-0.3872,-0.623,-0.2073,1.0207,0.7022,-1.1372,2046
11,-0.386,-0.6294,-0.2251,1.0825,0.7106,-1.1115,2050
11,-0.3823,-0.6313,-0.252,1.1396,0.6845,-1.0878,2044
11,-0.3823,-0.6287,-0.2595,1.1849,0.6239,-1.0692,2046
11,-0.3943,-0.6394,-0.2551,1.2363,0.5713,-1.0322,2043
11,-0.3894,-0.6648,-0.2417,1.2798,0.5573,-1.0054,2042
11,-0.3826,-0.6982,-0.2336,1.3103,0.5168,-0.9761,2044
11,-0.3708,-0.7451,-0.1992,1.3287,0.4538,-0.9445,2048
11,-0.4106,-0.7788,-0.188,1.3424,0.4061,-0.9025,2061
11,-0.418,-0.8208,-0.1521,1.3468,0.4008,-0.8708,2044
11,-0.4189,-0.8489,-0.1343,1.3403,0.4243,-0.8273,2053
11,-0.4182,-0.8716,-0.1099,1.3231,0.4646,-0.7877,2044
11,-0.4375,-0.9219,-0.0664,1.2796,0.4687,-0.7396,2043
11,-0.4182,-0.9575,-0.0366,1.2041,0.477,-0.6624,2043
11,-0.4277,-1.0034,-0.0125,1.1163,0.494,-0.6152,2049
11,-0.4326,-1.0642,-0.0188,1.0564,0.4952,-0.541,2048
11,-0.4272,-1.1096,-0.0139,0.9485,0.4858,-0.5012,2042
11,-0.4077,-1.1382,-0.0186,0.8524,0.4568,-0.4549,2043
11,-0.4106,-1.1733,-0.0312,0.7553,0.4151,-0.4136,2045
11,-0.4136,-1.2219,-0.0349,0.6699,0.3804,-0.3494,2044
11,-0.429,-1.27,-0.0339,0.5825,0.3601,-0.3008,2048
11,-0.4324,-1.311,-0.063,0.4966,0.3812,-0.2436,2043
11,-0.4302,-1.3225,-0.0999,0.4365,0.4055,-0.1935,2044
11,-0.447,-1.3203,-0.1177,0.3718,0.4517,-0.1746,2047
11,-0.4817,-1.3525,-0.1414,0.2819,0.5008,-0.1345,2042
11,-0.5061,-1.3992,-0.1946,0.2257,0.5269,-0.14,2042
11,-0.5356,-1.4895,-0.251,0.2132,0.5175,-0.1767,2045
11,-0.5444,-1.5667,-0.2966,0.2326,0.4813,-0.2039,2045
11,-0.4963,-1.6172,-0.2966,0.1904,0.4605,-0.194,2045
11,-0.3455,-1.5347,-0.2219,0.143,0.4,-0.0625,2043
11,-0.249,-1.4709,-0.1064,0.053,0.3504,0.1535,2043
11,-0.1736,-1.4167,0.0002,-0.091,0.2213,0.3215,2066
11,-0.158,-1.3821,0.0725,-0.3049,-0.0294,0.452,2048
11,-0.178,-1.3491,0.0544,-0.489,-0.3131,0.5444,2043
11,-0.1963,-1.3914,-0.0208,-0.6076,-0.5248,0.6144,2046
11,-0.2085,-1.4441,-0.0569,-0.6972,-0.6562,0.6453,2043
11,-0.2468,-1.532,-0.0698,-0.8023,-0.6687,0.6946,2045
11,-0.2932,-1.5825,-0.0676,-0.9228,-0.5645,0.7742,2047
11,-0.3291,-1.6011,-0.0515,-1.0509,-0.4504,0.8594,2047
11,-0.3643,-1.5679,-0.0542,-1.1648,-0.3705,0.9296,2044
11,-0.3733,-1.5068,-0.0574,-1.2853,-0.2931,0.9933,2043
11,-0.355,-1.439,-0.0356,-1.4556,-0.2191,1.0451,2046
11,-0.2998,-1.3542,-0.0181,-1.6303,-0.2129,1.1037,2042
11,-0.249,-1.2698,-0.0535,-1.746,-0.3028,1.1773,2045
11,-0.2131,-1.1819,-0.0854,-1.8016,-0.4602,1.2372,2045
11,-0.1858,-1.1211,-0.1265,-1.8398,-0.6573,1.2958,2047
11,-0.1733,-1.0955,-0.1445,-1.882,-0.8373,1.3647,2046
11,-0.1741,-1.082,-0.1711,-1.9548,-0.9748,1.3914,2045
12,-0.187,-1.0305,-0.1877,-1.9932,-1.1027,1.403,2045
12,-0.2061,-0.9739,-0.208,-2.0273,-1.1942,1.4022,2047
12,-0.1973,-0.9126,-0.2021,-2.0509,-1.2643,1.4067,2045
12,-0.2041,-0.8516,-0.2087,-2.0775,-1.3189,1.4029,2041
12,-0.2043,-0.7917,-0.2009,-2.0883,-1.3601,1.3969,2046
12,-0.2063,-0.751,-0.2209,-2.0815,-1.3984,1.4231,2047
12,-0.2168,-0.7043,-0.2229,-2.0608,-1.4185,1.3962,2050
12,-0.2263,-0.6736,-0.2256,-2.0457,-1.4339,1.3948,2047
12,-0.2073,-0.6462,-0.2434,-1.9968,-1.433,1.4039,2043
12,-0.2322,-0.6306,-0.2825,-1.9462,-1.4071,1.3933,2046
12,-0.2317,-0.6367,-0.2886,-1.884,-1.3587,1.3902,2043
12,-0.2305,-0.6501,-0.2954,-1.8166,-1.3086,1.3729,2043
12,-0.2302,-0.6792,-0.3003,-1.7708,-1.2934,1.3529,2047
12,-0.2456,-0.6824,-0.3281,-1.6736,-1.2789,1.3427,2043
12,-0.2603,-0.7217,-0.354,-1.5729,-1.2595,1.3155,2043
12,-0.2876,-0.7793,-0.3975,-1.4288,-1.2141,1.2766,2042
12,-0.3296,-0.8767,-0.4412,-1.2746,-1.17,1.215,2046
12,-0.3706,-0.969,-0.4783,-1.0959,-1.1224,1.1448,2046
12,-0.4033,-1.0398,-0.5168,-0.8983,-1.046,1.0184,2042
12,-0.428,-1.1255,-0.5286,-0.6445,-0.9347,0.8989,2046
12,-0.45,-1.2305,-0.5129,-0.4304,-0.8088,0.781,2037
12,-0.4673,-1.3018,-0.4993,-0.2477,-0.6602,0.6641,2044
12,-0.4846,-1.3826,-0.4387,-0.0956,-0.5096,0.5545,2046
12,-0.4917,-1.4214,-0.365,0.03,-0.3834,0.4349,2046
12,-0.4734,-1.4385,-0.2993,0.0855,-0.273,0.3204,2047
12,-0.4646,-1.4292,-0.2314,0.1342,-0.1305,0.2149,2044
12,-0.4402,-1.3958,-0.1636,0.2181,0.0272,0.1109,2045
12,-0.4292,-1.3315,-0.1082,0.2577,0.1739,0.0473,2044
12,-0.4473,-1.3108,-0.1138,0.3509,0.3117,-0.0245,2046
12,-0.5564,-1.3967,-0.1553,0.5148,0.4157,-0.147,2053
12,-0.644,-1.553,-0.2903,0.8449,0.4462,-0.3338,2048
12,-0.6616,-1.7004,-0.4172,1.2251,0.5179,-0.6224,2046
12,-0.6602,-1.762,-0.4363,1.4705,0.7341,-0.9289,2047
12,-0.5999,-1.6665,-0.2883,1.5194,0.9377,-1.1019,2042
12,-0.5098,-1.542,-0.0601,1.4881,1.0062,-1.1067,2043
12,-0.4211,-1.4626,0.0884,1.4017,0.9853,-1.1055,2039
12,-0.3682,-1.4255,0.1208,1.2718,0.8023,-1.109,2043
12,-0.3125,-1.4028,0.0759,1.1886,0.5115,-1.1043,2044
12,-0.2808,-1.3506,0.0303,1.1897,0.2939,-1.1175,2047
12,-0.2546,-1.3096,0.0459,1.2125,0.1947,-1.1065,2044
12,-0.2483,-1.3135,0.0635,1.2239,0.1739,-1.0721,2046
12,-0.2493,-1.2917,0.0552,1.1969,0.1836,-1.0512,2048
12,-0.24,-1.2566,0.032,1.124,0.1518,-1.033,2045
12,-0.2244,-1.2178,-0.0242,1.0636,0.1047,-0.983,2048
12,-0.229,-1.1841,-0.0955,1.0284,0.1308,-0.9333,2042
12,-0.2542,-1.1372,-0.177,1.0392,0.2172,-0.9107,2039
12,-0.292,-1.0967,-0.2273,1.0809,0.3203,-0.9134,2046
12,-0.3245,-1.0369,-0.2878,1.1198,0.44,-0.9194,2047
12,-0.3157,-0.9656,-0.2815,1.1207,0.5834,-0.9091,2041
12,-0.3164,-0.8823,-0.2725,1.1408,0.7584,-0.9019,2047
12,-0.2808,-0.8245,-0.2285,1.1091,0.879,-0.8622,2040
12,-0.2566,-0.7422,-0.2244,1.0857,0.9826,-0.8297,2045
12,-0.2546,-0.677,-0.2197,1.0658,1.0231,-0.7953,2045
12,-0.2432,-0.6279,-0.2375,1.0702,1.0291,-0.767,2045
12,-0.2273,-0.6084,-0.2483,1.0624,1.0194,-0.7481,2053
12,-0.2346,-0.6018,-0.2637,1.0551,0.9887,-0.7433,2045
12,-0.2454,-0.5964,-0.2917,1.0537,0.9343,-0.7397,2046
12,-0.2607,-0.627,-0.3054,1.0642,0.8732,-0.7437,2043
12,-0.2922,-0.6492,-0.3411,1.0722,0.8126,-0.766,2047
12,-0.3193,-0.6716,-0.3674,1.1078,0.7376,-0.81,2045
12,-0.3413,-0.7136,-0.3906,1.1501,0.6629,-0.8321,2043
12,-0.3672,-0.7654,-0.4119,1.2081,0.6014,-0.8648,2044
12,-0.3936,-0.8274,-0.417,1.2944,0.5172,-0.9111,2045
12,-0.4043,-0.8804,-0.3967,1.3358,0.4051,-0.9337,2044
12,-0.407,-0.9214,-0.3806,1.3705,0.2971,-0.9138,2044
12,-0.3984,-0.967,-0.3435,1.3725,0.204,-0.9104,2043
12,-0.4065,-0.9929,-0.2935,1.3844,0.137,-0.8746,2047
12,-0.4204,-1.0103,-0.2297,1.3242,0.0936,-0.8226,2046
12,-0.394,-1.0298,-0.1543,1.2122,0.0792,-0.7826,2044
12,-0.3997,-1.0332,-0.1216,1.0942,0.0676,-0.7138,2046
12,-0.4182,-1.0437,-0.0889,0.9533,0.0679,-0.6649,2045
12,-0.4382,-1.0508,-0.0986,0.848,0.0682,-0.6413,2041
12,-0.4424,-1.0945,-0.0967,0.758,0.0545,-0.6043,2045
12,-0.4673,-1.1189,-0.1394,0.6678,0.0752,-0.5934,2043
12,-0.4763,-1.1689,-0.1533,0.6153,0.1326,-0.5413,2046
12,-0.5037,-1.22,-0.1689,0.5497,0.2526,-0.499,2048
12,-0.5027,-1.2832,-0.1785,0.4717,0.3843,-0.4321,2045
12,-0.4973,-1.3154,-0.1917,0.3859,0.5155,-0.3582,2046
12,-0.5056,-1.313,-0.1816,0.292,0.6614,-0.3032,2042
12,-0.4988,-1.3381,-0.2024,0.2112,0.8063,-0.2441,2046
12,-0.5452,-1.4429,-0.2283,0.1828,0.9166,-0.1976,2048
12,-0.5977,-1.6138,-0.2898,0.1903,0.9939,-0.1695,2047
12,-0.5808,-1.6875,-0.3438,0.1768,1.0856,-0.2144,2045
12,-0.5266,-1.6804,-0.3076,0.1502,1.1889,-0.225,2042
12,-0.448,-1.6482,-0.209,0.0633,1.211,-0.1217,2044
12,-0.3826,-1.5884,-0.1165,-0.0326,1.1282,0.0209,2047
12,-0.312,-1.5112,-0.103,-0.1599,0.9403,0.1384,2047
12,-0.2615,-1.4431,-0.0686,-0.3112,0.6522,0.2461,2045
12,-0.2158,-1.3826,-0.0332,-0.5084,0.3382,0.3755,2043
12,-0.1821,-1.3777,-0.0161,-0.6763,0.002,0.4859,2046
12,-0.1882,-1.3755,-0.071,-0.7818,-0.3525,0.5641,2046
12,-0.2139,-1.4468,-0.1282,-0.8775,-0.6446,0.6345,2046
12,-0.2456,-1.4771,-0.1831,-0.938,-0.8084,0.7018,2047
12,-0.2727,-1.5271,-0.1624,-1.0194,-0.8577,0.7806,2046
12,-0.3279,-1.5696,-0.1333,-1.1306,-0.7805,0.8457,2047
12,-0.3696,-1.5693,-0.106,-1.2424,-0.6365,0.8901,2047
12,-0.4036,-1.5232,-0.0784,-1.3203,-0.4826,0.9104,2052
12,-0.4143,-1.4678,-0.0652,-1.4053,-0.3172,0.9295,2048
12,-0.4031,-1.4023,-0.051,-1.5045,-0.1776,0.9214,2045
12,-0.3799,-1.3152,-0.0552,-1.587,-0.0874,0.917,2048
