Timestamp,Ax,Ay,Az,Rx,Ry,Rz,HR_value
0,-0.701,0.2836,0.551,0.0446,-0.1798,-0.7119,0
0,-0.6653,0.2908,0.5673,-0.0011,-0.0915,-0.6846,0
0,-0.6551,0.2888,0.55,-0.0631,0.0108,-0.6421,0
0,-0.6826,0.2877,0.5153,-0.1406,0.1167,-0.5931,0
0,-0.7163,0.2938,0.4785,-0.1995,0.2104,-0.5473,0
0,-0.7847,0.301,0.4653,-0.2583,0.2899,-0.5145,0
0,-0.8908,0.2683,0.4408,-0.2583,0.2899,-0.5145,0
0,-0.8908,0.2683,0.4408,-0.326,0.338,-0.4906,0
0,-1.0693,0.1806,0.501,-0.4841,0.4458,-0.4524,0
0,-1.202,0.1071,0.5602,-0.4841,0.4458,-0.4524,0
0,-1.202,0.1071,0.5602,-0.5221,0.4797,-0.4927,0
0,-1.2531,0.0245,0.5265,-0.5702,0.508,-0.5418,0
0,-1.2449,-0.0775,0.5765,-0.6159,0.5015,-0.5843,0
0,-1.2377,-0.152,0.6632,-0.6682,0.4546,-0.5679,0
0,-1.1143,-0.1918,0.5122,-0.7457,0.314,-0.4807,0
0,-1.1735,-0.4387,0.5214,-0.8361,0.3281,-0.4349,0
0,-0.8867,-0.3398,0.5193,-0.954,0.2693,-0.5156,0
0,-0.9142,-1.0286,0.4663,-0.8798,0.3695,-0.6629,0
0,-0.95,-0.8051,0.5714,-0.6617,0.6051,-0.1972,0
0,-0.9367,-0.8051,0.6724,-0.6617,0.6051,-0.1972,0
0,-0.7357,-0.8448,0.3418,-0.1886,0.5221,0.3771,0
0,-0.7357,-0.8448,0.3418,-0.2365,0.3565,-0.1274,0
0,-0.702,-0.6541,0.4581,-0.0795,0.3674,-0.314,0
0,-0.6959,-0.5693,0.4194,0.2268,0.4034,-0.2638,0
0,-0.7438,-0.4296,0.4918,0.4208,0.4687,-0.1657,0
0,-0.7795,-0.2938,0.4847,0.5102,0.4536,-0.0719,0
0,-0.7714,-0.0602,0.5704,0.4666,0.388,0.061,0
0,-0.903,-0.0336,0.504,0.3019,0.4338,0.2027,0
0,-0.9224,0.004,0.4959,0.243,0.4851,0.2529,0
0,-1.0112,0.1061,0.5398,0.243,0.4851,0.2529,0
0,-1.0234,0.1214,0.4959,0.2485,0.5309,0.2562,0
0,-1.0234,0.1214,0.4959,0.1003,0.4895,0.2954,0
0,-1.0541,0.0449,0.4244,-0.11,0.4655,0.3183,0
0,-1.0143,0.052,0.4326,-0.1602,0.4807,0.2834,0
0,-0.9755,0.0714,0.4235,-0.1831,0.4731,0.2605,0
0,-0.9153,-0.1091,0.2745,-0.3161,0.4568,0.2594,0
0,-0.8612,-0.1367,0.254,-0.3597,0.4361,0.2495,0
0,-0.8367,-0.1561,0.2438,-0.3292,0.4317,0.2354,0
0,-0.8357,-0.2101,0.1908,-0.326,0.4187,0.2398,0
0,-0.8102,-0.2622,0.1316,-0.2954,0.3771,0.2388,0
0,-0.7765,-0.2571,0.1112,-0.2954,0.3771,0.2388,0
0,-0.7653,-0.2612,0.0847,-0.2224,0.3193,0.2376,0
0,-0.7653,-0.2612,0.0847,-0.1635,0.2714,0.2365,0
0,-0.7775,-0.2551,0.0571,-0.0872,0.2453,0.2201,0
0,-0.7755,-0.2194,0.0591,-0.0141,0.1852,0.2071,0
0,-0.7836,-0.2326,0.0367,0.0162,0.1221,0.2049,0
0,-0.799,-0.2347,0.0265,0.0795,0.0631,0.1919,0
0,-0.8387,-0.1898,0.0684,0.1678,0.025,0.1711,0
0,-0.8469,-0.1887,0.0734,0.2125,-0.0381,0.1635,0
0,-0.852,-0.1826,0.0908,0.2495,-0.1133,0.1558,0
0,-0.8673,-0.1571,0.1173,0.2495,-0.1133,0.1558,0
0,-0.9061,-0.102,0.1449,0.3073,-0.1547,0.1341,0
0,-0.9061,-0.102,0.1449,0.3609,-0.181,0.1221,0
0,-0.9244,-0.0826,0.1571,0.375,-0.2115,0.1188,0
0,-0.9235,-0.0775,0.152,0.3619,-0.2453,0.1253,0
0,-0.9469,-0.0765,0.1632,0.338,-0.2682,0.1253,0
0,-0.9592,-0.0847,0.15,0.3422,-0.2779,0.1167,0
0,-0.9633,-0.0704,0.1571,0.3609,-0.2922,0.1155,0
0,-0.9438,-0.0836,0.1398,0.3565,-0.3073,0.1264,0
0,-0.9255,-0.0898,0.1357,0.3554,-0.3096,0.1373,0
0,-0.852,-0.1061,0.1387,0.3554,-0.3096,0.1373,0
0,-0.852,-0.1061,0.1387,0.3542,-0.2998,0.1526,0
0,-0.8326,-0.1673,0.1316,0.3314,-0.2856,0.1701,0
0,-0.8245,-0.2173,0.1337,0.3368,-0.2485,0.1984,0
0,-0.8265,-0.2255,0.1571,0.4034,-0.1907,0.2278,0
0,-0.9112,-0.2724,0.1663,0.4481,-0.1167,0.2638,0
0,-0.9694,-0.2643,0.1632,0.5145,-0.0479,0.3031,0
0,-1.0173,-0.2408,0.1898,0.6039,-0.0043,0.3302,0
0,-1.0959,-0.2173,0.1632,0.6749,0.0337,0.3401,0
0,-1.2377,-0.204,0.1663,0.7501,0.0511,0.3542,0
0,-1.3448,-0.1214,0.2816,0.7501,0.0511,0.3542,0
0,-1.3448,-0.1214,0.2816,0.8275,0.0555,0.3346,0
0,-1.4265,-0.1163,0.3,0.8634,0.0381,0.3008,0
0,-1.5571,-0.1122,0.2622,0.9017,-0.0337,0.2856,0
0,-1.4081,-0.0939,0.3184,0.9507,-0.157,0.2518,0
0,-1.3265,-0.0112,0.3234,1.0335,-0.2659,0.255,0
0,-1.05,0.0316,0.3469,1.1207,-0.3237,0.2844,0
0,-1.0143,0.0867,0.3816,1.1491,-0.2409,0.2834,0
0,-1.0132,0.0418,0.5704,1.1152,-0.1667,0.2518,0
0,-1.0245,-0.0622,0.605,1.0532,-0.1232,0.2159,0
0,-1.0295,-0.1581,0.6214,1.0706,-0.1188,0.1558,0
0,-1.0816,-0.1703,0.6816,1.0706,-0.1188,0.1558,0
0,-1.0816,-0.1703,0.6816,1.1829,-0.0937,0.0925,0
0,-1.1224,-0.1622,0.6622,1.3137,-0.0839,0.0523,0
0,-1.1418,-0.1316,0.6377,1.4107,-0.0948,-0.0097,0
0,-1.1592,-0.0693,0.6275,1.5307,-0.1318,-0.0631,0
0,-1.1418,0.0418,0.6041,1.5841,-0.1613,-0.1035,0
0,-1.1265,0.1255,0.603,1.6135,-0.1744,-0.1188,0
0,-1.0796,0.203,0.6102,1.6495,-0.1995,-0.1232,0
0,-1.0796,0.2867,0.6551,1.5808,-0.218,-0.1047,0
0,-0.9183,0.2908,0.5969,1.487,-0.2617,-0.1112,0
0,-0.8653,0.3408,0.5836,1.487,-0.2617,-0.1112,0
0,-0.8306,0.401,0.5959,1.4751,-0.2518,-0.098,0
0,-0.8306,0.401,0.5959,1.4304,-0.2321,-0.086,0
0,-0.8306,0.4285,0.5428,1.3039,-0.2245,-0.1798,0
0,-0.7969,0.4959,0.5449,1.1633,-0.2169,-0.2617,0
0,-0.7428,0.4888,0.5398,1.0238,-0.2169,-0.3107,0
0,-0.7265,0.4214,0.5214,0.8449,-0.2365,-0.3542,0
0,-0.7194,0.4326,0.4704,0.7098,-0.2268,-0.3172,0
0,-0.6755,0.4142,0.4479,0.6333,-0.2344,-0.2802,0
0,-0.6602,0.3694,0.3969,0.6333,-0.2344,-0.2802,0
0,-0.652,0.3234,0.3908,0.5026,-0.231,-0.2485,0
0,-0.6112,0.3051,0.402,0.4404,-0.2104,-0.2594,0
0,-0.6112,0.3051,0.402,0.4393,-0.2005,-0.1962,0
0,-0.6265,0.2479,0.3673,0.3597,-0.1831,-0.1352,0
0,-0.6204,0.2194,0.352,0.3205,-0.1798,-0.1362,0
0,-0.6346,0.2255,0.3683,0.314,-0.1613,-0.1766,0
0,-0.6602,0.2224,0.3673,0.2844,-0.1623,-0.194,0
0,-0.6928,0.1816,0.3541,0.2485,-0.1766,-0.2093,0
0,-0.7234,0.1877,0.3683,0.2474,-0.1755,-0.2333,0
1,-0.7326,0.2092,0.3765,0.243,-0.193,-0.2495,0
1,-0.7602,0.1949,0.3745,0.243,-0.193,-0.2495,0
1,-0.8132,0.2183,0.3877,0.2136,-0.1951,-0.2594,0
1,-0.8132,0.2183,0.3877,0.2159,-0.2039,-0.2758,0
1,-0.85,0.249,0.4061,0.2201,-0.2136,-0.2834,0
1,-0.8796,0.2632,0.4061,0.1842,-0.2191,-0.2899,0
1,-0.9418,0.3143,0.4244,0.1547,-0.2344,-0.2954,0
1,-0.9785,0.3643,0.4387,0.1352,-0.2562,-0.3096,0
1,-0.952,0.4357,0.4561,-0.0053,-0.3063,-0.351,0
1,-0.8694,0.452,0.4622,-0.0818,-0.3151,-0.3783,0
1,-0.8081,0.4581,0.4704,-0.1461,-0.2966,-0.4,0
1,-0.7408,0.4479,0.4581,-0.2278,-0.2539,-0.4338,0
1,-0.6663,0.4326,0.4704,-0.3008,-0.1798,-0.4763,0
1,-0.551,0.3408,0.5163,-0.4,-0.074,-0.4982,0
1,-0.5357,0.2714,0.551,-0.4786,0.0555,-0.4589,0
1,-0.5418,0.2296,0.5877,-0.5244,0.2027,-0.4208,0
1,-0.5418,0.2296,0.5877,-0.5244,0.2027,-0.4208,0
1,-0.7153,0.2234,0.5673,-0.544,0.3521,-0.3729,0
1,-0.7153,0.2234,0.5673,-0.5757,0.496,-0.3172,0
1,-0.8245,0.2214,0.5163,-0.6181,0.6116,-0.2768,0
1,-0.9142,0.2285,0.4785,-0.6476,0.6803,-0.2474,0
1,-1.0173,0.2204,0.4673,-0.6825,0.726,-0.2245,0
1,-1.3132,0.1337,0.4551,-0.7152,0.7577,-0.2125,0
1,-1.4908,0.105,0.4255,-0.7228,0.7512,-0.2147,0
1,-1.5132,0.0684,0.4255,-0.738,0.6911,-0.2495,0
1,-1.4785,0.0112,0.4183,-0.822,0.6106,-0.3193,0
1,-1.2857,-0.1612,0.499,-0.822,0.6106,-0.3193,0
1,-1.2857,-0.1612,0.499,-0.8765,0.5484,-0.2888,0
1,-1.0745,-0.2673,0.3663,-0.8853,0.387,-0.1787,0
1,-0.8336,-0.4316,0.3459,-0.81,0.3859,-0.1286,0
1,-0.799,-0.4469,0.3622,-0.7119,0.5516,-0.0751,0
1,-0.6479,-0.4551,0.35,-0.5604,0.6552,-0.0708,0
1,-0.6755,-0.5071,0.351,-0.4,0.7729,0.0457,0
1,-0.7663,-0.4633,0.3582,-0.2638,0.7795,0.2649,0
1,-0.8979,-0.3224,0.3663,-0.206,0.6617,0.2823,0
1,-0.9337,-0.2826,0.3653,-0.1701,0.5908,0.1744,0
1,-1.0061,-0.1857,0.4214,-0.1701,0.5908,0.1744,0
1,-1.0061,-0.1857,0.4214,-0.0806,0.5877,0.1744,0
1,-1.0948,-0.1091,0.4387,-0.0894,0.5505,0.2049,0
1,-1.0979,-0.0265,0.3877,-0.1384,0.4884,0.2474,0
1,-1.0887,0.0306,0.3653,-0.1787,0.483,0.2747,0
1,-1.0684,0.0571,0.3286,-0.2376,0.4797,0.2943,0
1,-1.0673,0.05,0.2745,-0.3314,0.4775,0.3216,0
1,-1.0265,-0.0347,0.2112,-0.4382,0.4328,0.3422,0
1,-1.0051,-0.0775,0.1938,-0.496,0.3838,0.363,0
1,-0.9765,-0.1071,0.1867,-0.4884,0.3532,0.3597,0
1,-0.9561,-0.1204,0.1867,-0.4458,0.3271,0.3357,0
1,-0.9398,-0.0948,0.1928,-0.4458,0.3271,0.3357,0
1,-0.9398,-0.0948,0.1928,-0.4055,0.2976,0.3151,0
1,-0.9132,-0.0786,0.1785,-0.3935,0.2333,0.3031,0
1,-0.8898,-0.0796,0.1703,-0.387,0.1875,0.2867,0
1,-0.8775,-0.0622,0.151,-0.3565,0.1558,0.267,0
1,-0.8846,0.0132,0.1602,-0.3357,0.1308,0.2485,0
1,-0.901,0.0234,0.1551,-0.3706,0.0784,0.2376,0
1,-0.9081,0.0132,0.1367,-0.4208,0.0294,0.2354,0
1,-0.9163,0.0102,0.1326,-0.4481,0.0,0.2159,0
1,-0.9316,0.0102,0.1082,-0.4643,-0.0381,0.194,0
1,-0.9244,0.0143,0.1143,-0.4643,-0.0381,0.194,0
1,-0.9224,-0.0214,0.103,-0.4927,-0.0828,0.1875,0
1,-0.9224,-0.0214,0.103,-0.5364,-0.1253,0.1766,0
1,-0.9285,-0.0541,0.0857,-0.545,-0.1493,0.1667,0
1,-0.9581,-0.0887,0.0796,-0.5102,-0.1755,0.1602,0
1,-0.9734,-0.0857,0.0948,-0.4862,-0.1984,0.1623,0
1,-1.0143,-0.1367,0.0898,-0.5015,-0.2081,0.169,0
1,-1.0469,-0.1663,0.0755,-0.4328,-0.2409,0.1776,0
1,-1.1071,-0.1744,0.0684,-0.3717,-0.2627,0.1744,0
1,-1.1581,-0.1867,0.0438,-0.3117,-0.2856,0.1581,0
1,-1.1479,-0.151,0.0367,-0.3117,-0.2856,0.1581,0
1,-1.153,-0.103,0.0306,-0.2071,-0.3466,0.1461,0
1,-1.153,-0.103,0.0306,-0.1417,-0.3935,0.1341,0
1,-1.1163,-0.1102,0.0204,-0.1167,-0.4448,0.1232,0
1,-1.0887,-0.1091,0.0112,-0.0654,-0.483,0.1003,0
1,-1.0183,-0.102,0.0132,0.0,-0.5124,0.0784,0
1,-0.8887,-0.0632,0.0408,0.0545,-0.496,0.0545,0
1,-0.8204,-0.0652,0.0652,0.0719,-0.4557,0.0402,0
1,-0.7898,-0.0979,0.0826,0.0469,-0.4109,0.0435,0
1,-0.7592,-0.1469,0.0867,0.0392,-0.338,0.0566,0
1,-0.7683,-0.2377,0.1183,0.0392,-0.338,0.0566,0
1,-0.8326,-0.2928,0.1041,0.0599,-0.2344,0.0784,0
1,-0.8326,-0.2928,0.1041,0.0937,-0.1318,0.1068,0
1,-0.8989,-0.35,0.1377,0.193,-0.037,0.1373,0
1,-1.0734,-0.3826,0.1571,0.35,0.0261,0.193,0
1,-1.4653,-0.2836,0.2663,0.5713,0.0555,0.2464,0
1,-1.6082,-0.252,0.3653,0.6737,0.0021,0.1581,0
1,-1.5173,-0.1703,0.3989,0.7359,-0.1896,0.1155,0
1,-1.4255,-0.1602,0.4398,0.7806,-0.3368,0.1602,0
1,-1.0939,-0.0214,0.4183,0.8624,-0.3575,0.2005,0
1,-1.0663,0.0939,0.4969,0.8624,-0.3575,0.2005,0
1,-1.0449,0.1204,0.5816,0.9561,-0.2474,0.2268,0
1,-1.0398,0.1255,0.6041,0.883,-0.1701,0.231,0
1,-1.0398,0.1255,0.6041,0.7795,-0.1274,0.1995,0
1,-1.0143,0.0847,0.6122,0.7031,-0.1581,0.1711,0
1,-0.9785,0.0663,0.5969,0.689,-0.1417,0.098,0
1,-1.0347,0.0684,0.6132,0.6966,-0.0969,0.0011,0
1,-1.0286,0.0786,0.6041,0.6988,-0.1013,-0.0708,0
1,-1.0673,0.102,0.6183,0.6562,-0.1112,-0.1253,0
1,-1.0306,0.1082,0.6489,0.6083,-0.1242,-0.1471,0
1,-1.0377,0.1071,0.6439,0.5669,-0.1057,-0.1461,0
1,-0.9897,0.1143,0.605,0.5669,-0.1057,-0.1461,0
1,-0.9897,0.1143,0.605,0.5189,-0.0959,-0.1274,0
1,-0.9622,0.1346,0.5887,0.4731,-0.098,-0.0925,0
1,-0.9265,0.1592,0.5581,0.4307,-0.1123,-0.0511,0
1,-0.8816,0.1694,0.5286,0.3815,-0.0948,-0.0206,0
1,-0.852,0.2663,0.5122,0.3706,-0.0698,0.0097,0
1,-0.851,0.3102,0.5143,0.2888,-0.0523,0.0217,0
1,-0.8632,0.2836,0.4949,0.1482,-0.0402,0.0337,0
1,-0.8826,0.2602,0.4694,0.0631,-0.0425,0.0654,0
1,-0.8632,0.2724,0.4428,0.0076,-0.0555,0.074,0
1,-0.8398,0.2602,0.4173,0.0076,-0.0555,0.074,0
1,-0.8398,0.2602,0.4173,-0.0751,-0.0698,0.0654,0
2,-0.8234,0.2449,0.3796,-0.1362,-0.0818,0.0479,0
2,-0.8,0.2479,0.3694,-0.1787,-0.098,0.0196,0
2,-0.7581,0.2142,0.3275,-0.2562,-0.1188,-0.0131,0
2,-0.7316,0.1806,0.3081,-0.3096,-0.1449,-0.0381,0
2,-0.7224,0.1581,0.299,-0.3281,-0.1515,-0.0523,0
2,-0.7183,0.15,0.3051,-0.3521,-0.1635,-0.0621,0
2,-0.7204,0.1163,0.2969,-0.3815,-0.182,-0.0675,0
2,-0.7224,0.1112,0.2969,-0.3903,-0.206,-0.0719,0
2,-0.7367,0.1183,0.3091,-0.4208,-0.2485,-0.0774,0
2,-0.754,0.1541,0.3306,-0.4361,-0.2627,-0.0818,0
2,-0.7653,0.1642,0.3408,-0.4677,-0.2703,-0.0925,0
2,-0.7663,0.1796,0.3347,-0.4677,-0.2703,-0.0925,0
2,-0.7806,0.1908,0.3408,-0.4992,-0.2779,-0.0992,0
2,-0.7806,0.1908,0.3408,-0.532,-0.2682,-0.1123,0
2,-0.8132,0.2194,0.3418,-0.5745,-0.2518,-0.1209,0
2,-0.8336,0.2255,0.3398,-0.6291,-0.231,-0.1286,0
2,-0.8582,0.2183,0.3326,-0.6715,-0.2081,-0.1417,0
2,-0.8846,0.2194,0.3102,-0.7086,-0.1907,-0.1526,0
2,-0.9235,0.1785,0.2816,-0.7086,-0.1907,-0.1526,0
2,-0.9377,0.1683,0.2602,-0.7457,-0.1678,-0.194,0
2,-0.9642,0.1775,0.2336,-0.7512,-0.1657,-0.2224,0
2,-0.9551,0.1346,0.1938,-0.7512,-0.1657,-0.2224,0
2,-0.949,0.1387,0.1571,-0.7512,-0.1657,-0.2224,0
2,-0.949,0.1387,0.1571,-0.7697,-0.1755,-0.2562,0
2,-0.9265,0.1377,0.1663,-0.7489,-0.1896,-0.2844,0
2,-0.9081,0.1061,0.1602,-0.7403,-0.2104,-0.3205,0
2,-0.9112,0.0877,0.2397,-0.7205,-0.2344,-0.3542,0
2,-0.9561,0.0857,0.2847,-0.6737,-0.2627,-0.388,0
2,-0.9694,0.0836,0.352,-0.6333,-0.2725,-0.4109,0
2,-0.9734,0.1071,0.4337,-0.6039,-0.2812,-0.4273,0
2,-0.9469,0.1173,0.504,-0.6072,-0.2682,-0.4164,0
2,-0.9449,0.0887,0.4959,-0.6072,-0.2682,-0.4164,0
2,-0.9449,0.0887,0.4959,-0.6682,-0.2474,-0.4012,0
2,-0.9306,0.0643,0.4888,-0.7327,-0.1886,-0.3859,0
2,-0.9316,0.0459,0.4601,-0.7577,-0.1079,-0.3685,0
2,-0.9551,0.0306,0.3979,-0.7588,-0.0076,-0.3466,0
2,-0.9867,0.0347,0.3643,-0.7554,0.0925,-0.3248,0
2,-1.0081,0.0541,0.3418,-0.7468,0.1787,-0.3073,0
2,-1.0255,0.0551,0.3367,-0.7369,0.2442,-0.2987,0
2,-1.0234,0.0,0.3,-0.7489,0.2922,-0.2998,0
2,-0.9908,-0.0418,0.3152,-0.7533,0.338,-0.3096,0
2,-0.9714,-0.0969,0.2857,-0.7533,0.338,-0.3096,0
2,-0.9714,-0.0969,0.2857,-0.7447,0.3717,-0.3107,0
2,-0.95,-0.1775,0.3214,-0.7119,0.412,-0.2932,0
2,-0.9765,-0.2847,0.3582,-0.6682,0.4448,-0.267,0
2,-1.0061,-0.2969,0.4408,-0.5745,0.4895,-0.2398,0
2,-1.001,-0.3316,0.4918,-0.5135,0.496,-0.2104,0
2,-1.0541,-0.3796,0.4367,-0.5179,0.4655,-0.1864,0
2,-0.9918,-0.4836,0.5591,-0.4895,0.4229,-0.1623,0
2,-1.0081,-0.5652,0.5173,-0.4971,0.3663,-0.0959,0
2,-0.9755,-0.5898,0.5826,-0.4971,0.3434,0.0708,0
2,-1.1744,-0.6408,0.454,-0.5102,0.3706,0.2703,0
2,-1.0102,-0.7194,0.4806,-0.5102,0.3706,0.2703,0
2,-1.0102,-0.7194,0.4806,-0.4458,0.3346,0.3695,0
2,-1.1234,-0.5132,0.5398,-0.1962,0.2682,0.4055,0
2,-0.9785,-0.4194,0.4949,0.0381,0.2659,0.3422,0
2,-1.0714,-0.2438,0.4663,0.1297,0.3532,0.2354,0
2,-1.0255,-0.15,0.4724,0.194,0.3783,0.2768,0
2,-0.9785,-0.0826,0.4387,0.2115,0.2998,0.3466,0
2,-0.9796,-0.0581,0.4306,0.1297,0.2932,0.3695,0
2,-1.0,-0.0541,0.3439,0.0349,0.3292,0.3771,0
2,-0.9765,0.0031,0.3846,0.0457,0.3368,0.3783,0
2,-0.951,0.0286,0.3959,0.0457,0.3368,0.3783,0
2,-0.9092,-0.0214,0.3265,0.0457,0.3183,0.3771,0
2,-0.9092,-0.0214,0.3265,-0.0806,0.2791,0.4,0
2,-0.8643,-0.0469,0.2775,-0.169,0.2703,0.4077,0
2,-0.8173,0.0183,0.3041,-0.11,0.2823,0.3826,0
2,-0.7918,0.0,0.2806,-0.0969,0.2779,0.3729,0
2,-0.7612,-0.0398,0.2326,-0.2005,0.2539,0.3761,0
2,-0.7153,-0.0449,0.2245,-0.2245,0.2376,0.3619,0
2,-0.7112,-0.0571,0.1979,-0.2125,0.2485,0.3401,0
2,-0.7112,-0.0775,0.1683,-0.2289,0.2507,0.326,0
2,-0.7173,-0.0796,0.1663,-0.2289,0.2507,0.326,0
2,-0.7367,-0.103,0.1173,-0.23,0.2365,0.3041,0
2,-0.7367,-0.103,0.1173,-0.2224,0.2093,0.2844,0
2,-0.7653,-0.1122,0.0948,-0.2201,0.182,0.2649,0
2,-0.7918,-0.0918,0.0979,-0.1766,0.157,0.2321,0
2,-0.8204,-0.0867,0.1091,-0.1396,0.1177,0.2071,0
2,-0.8765,-0.1132,0.0745,-0.1471,0.0686,0.1842,0
2,-0.9092,-0.0836,0.1112,-0.1123,0.0174,0.1646,0
2,-0.9214,-0.0796,0.1071,-0.0763,-0.0196,0.1341,0
2,-0.9377,-0.0765,0.102,-0.0566,-0.0784,0.1155,0
2,-0.9816,-0.0591,0.1265,-0.0349,-0.1177,0.1013,0
2,-0.9857,-0.0765,0.1296,-0.0349,-0.1177,0.1013,0
2,-0.9969,-0.0959,0.1275,-0.0261,-0.157,0.0904,0
2,-0.9969,-0.0959,0.1275,-0.024,-0.1962,0.0839,0
2,-1.0163,-0.0969,0.1449,0.0076,-0.2245,0.073,0
2,-1.0295,-0.0989,0.1224,0.0446,-0.243,0.061,0
2,-1.0122,-0.1,0.1041,0.0806,-0.2693,0.0643,0
2,-1.0092,-0.101,0.0908,0.1308,-0.2888,0.0654,0
2,-0.9551,-0.0673,0.0663,0.1798,-0.3151,0.0686,0
2,-0.9479,-0.0377,0.0336,0.2365,-0.339,0.0839,0
2,-0.9194,-0.0326,0.0224,0.2758,-0.35,0.085,0
2,-0.8959,-0.0408,0.049,0.2758,-0.35,0.085,0
2,-0.9612,-0.1173,0.0979,0.3019,-0.3477,0.0675,0
2,-0.9612,-0.1173,0.0979,0.3063,-0.3205,0.0534,0
2,-1.0061,-0.1346,0.1367,0.3336,-0.2932,0.049,0
2,-1.052,-0.153,0.1703,0.3914,-0.2539,0.0523,0
2,-1.1194,-0.1816,0.201,0.4328,-0.2104,0.049,0
2,-1.1959,-0.1796,0.2183,0.4938,-0.194,0.0392,0
2,-1.1837,-0.1867,0.1744,0.5789,-0.206,0.0305,0
2,-1.1694,-0.1663,0.1755,0.6672,-0.231,0.0272,0
2,-1.105,-0.1377,0.1622,0.7903,-0.2453,0.0457,0
2,-1.0857,-0.0367,0.1153,0.7903,-0.2453,0.0457,0
2,-1.0857,-0.0367,0.1153,0.8918,-0.2213,0.0675,0
2,-1.1214,0.0071,0.204,0.9834,-0.1962,0.1155,0
2,-1.1724,0.051,0.1847,1.016,-0.1732,0.1471,0
2,-1.1806,0.0092,0.2643,0.967,-0.1635,0.1188,0
2,-1.15,-0.0877,0.2724,0.9332,-0.1776,0.0894,0
2,-1.0357,-0.0551,0.3193,1.0782,-0.206,0.1024,0
3,-1.0673,-0.0306,0.3714,1.1894,-0.1744,0.085,0
3,-1.0847,-0.0367,0.4235,1.2178,-0.1329,0.0818,0
3,-1.1622,-0.0959,0.5693,1.2396,-0.1274,0.0992,0
3,-1.1132,-0.1663,0.5295,1.2396,-0.1274,0.0992,0
3,-1.1132,-0.1663,0.5295,1.2461,-0.1329,0.0795,0
3,-1.1418,-0.1714,0.5877,1.2854,-0.1547,0.0294,0
3,-1.1337,-0.1551,0.605,1.4063,-0.1547,-0.012,0
3,-1.153,-0.0673,0.6337,1.5165,-0.1396,-0.086,0
3,-1.101,0.1408,0.6153,1.5536,-0.1864,-0.2027,0
3,-1.101,0.1408,0.6153,1.5514,-0.182,-0.2321,0
3,-1.0724,0.2,0.6816,1.5198,-0.1482,-0.255,0
3,-1.0591,0.1928,0.5918,1.4238,-0.1526,-0.2365,0
3,-1.0295,0.2112,0.6234,1.3246,-0.1591,-0.2027,0
3,-0.9438,0.2163,0.549,1.2439,-0.1623,-0.1907,0
3,-0.9132,0.249,0.5449,1.1927,-0.1558,-0.1744,0
3,-0.9306,0.3081,0.5122,1.1927,-0.1329,-0.1515,0
3,-0.9194,0.3357,0.502,1.124,-0.1286,-0.1417,0
3,-0.9163,0.3296,0.4755,0.9997,-0.1384,-0.1232,0
3,-0.8928,0.3479,0.4765,0.9997,-0.1384,-0.1232,0
3,-0.8928,0.3479,0.4765,0.8973,-0.1667,-0.1035,0
3,-0.8673,0.3459,0.4633,0.8067,-0.1852,-0.0937,0
3,-0.8296,0.3214,0.4418,0.6944,-0.206,-0.0925,0
3,-0.7877,0.2734,0.403,0.6148,-0.206,-0.1209,0
3,-0.7571,0.2653,0.3908,0.5647,-0.2234,-0.1984,0
3,-0.7459,0.2561,0.3714,0.5124,-0.2365,-0.2529,0
3,-0.7081,0.2296,0.35,0.4568,-0.2617,-0.2922,0
3,-0.6612,0.2306,0.3306,0.4175,-0.2823,-0.3357,0
3,-0.6541,0.2265,0.3204,0.3804,-0.2856,-0.3466,0
3,-0.6561,0.2173,0.3152,0.3804,-0.2856,-0.3466,0
3,-0.6673,0.2112,0.3163,0.3292,-0.2867,-0.3085,0
3,-0.6673,0.2112,0.3163,0.2911,-0.2954,-0.2703,0
3,-0.6938,0.2224,0.3296,0.2562,-0.3085,-0.2583,0
3,-0.704,0.2265,0.3336,0.2081,-0.3346,-0.2605,0
3,-0.7133,0.251,0.3489,0.169,-0.363,-0.2682,0
3,-0.7214,0.2867,0.3622,0.1264,-0.388,-0.2802,0
3,-0.7306,0.3275,0.3867,0.0534,-0.4143,-0.2976,0
3,-0.7367,0.3347,0.3887,-0.0326,-0.4328,-0.3151,0
3,-0.7418,0.3367,0.3979,-0.1079,-0.4295,-0.3216,0
3,-0.7704,0.3612,0.3969,-0.1079,-0.4295,-0.3216,0
3,-0.8051,0.3336,0.3846,-0.193,-0.4197,-0.3193,0
3,-0.8051,0.3336,0.3846,-0.2823,-0.4099,-0.3292,0
3,-0.8367,0.3316,0.3806,-0.3542,-0.399,-0.3314,0
3,-0.8561,0.3173,0.3837,-0.4229,-0.3914,-0.3107,0
3,-0.8989,0.2775,0.3653,-0.4982,-0.3685,-0.3161,0
3,-0.902,0.2724,0.3612,-0.5461,-0.3489,-0.3172,0
3,-0.8969,0.2653,0.3469,-0.5865,-0.3336,-0.3227,0
3,-0.8939,0.25,0.3377,-0.6356,-0.3128,-0.3302,0
3,-0.8367,0.2245,0.3306,-0.6672,-0.2966,-0.339,0
3,-0.8163,0.2051,0.3326,-0.6846,-0.2703,-0.351,0
3,-0.7949,0.1847,0.3387,-0.6846,-0.2703,-0.351,0
3,-0.7938,0.1663,0.3602,-0.7054,-0.2333,-0.3597,0
3,-0.7938,0.1663,0.3602,-0.714,-0.193,-0.3554,0
3,-0.8439,0.1408,0.3887,-0.7195,-0.1396,-0.3401,0
3,-0.8694,0.1337,0.3898,-0.7337,-0.0948,-0.3085,0
3,-0.8887,0.1214,0.3979,-0.7489,-0.0545,-0.2998,0
3,-0.9551,0.1418,0.4153,-0.738,-0.012,-0.2725,0
3,-0.9826,0.0684,0.4194,-0.7751,0.0206,-0.2834,0
3,-1.0479,0.0336,0.4081,-0.8078,0.0795,-0.3073,0
3,-1.0224,0.052,0.403,-0.8078,0.0795,-0.3073,0
3,-1.0245,0.0571,0.4203,-0.7566,0.0959,-0.2823,0
3,-0.952,0.0388,0.3908,-0.7348,0.1591,-0.3031,0
3,-0.952,0.0388,0.3908,-0.738,0.2104,-0.3183,0
3,-0.9173,0.0193,0.3877,-0.7424,0.2464,-0.3096,0
3,-0.8653,-0.0204,0.3837,-0.7598,0.3063,-0.3008,0
3,-0.7949,-0.1041,0.3928,-0.7609,0.3706,-0.3019,0
3,-0.8469,-0.2112,0.4765,-0.7054,0.4655,-0.2878,0
3,-0.8796,-0.2255,0.5469,-0.6148,0.5135,-0.2693,0
3,-0.9653,-0.2285,0.6091,-0.5919,0.5276,-0.242,0
3,-1.053,-0.2745,0.652,-0.677,0.4938,-0.2147,0
3,-1.053,-0.2745,0.652,-0.677,0.4938,-0.2147,0
3,-1.1928,-0.4673,0.6296,-0.7697,0.4557,-0.1722,0
3,-1.15,-0.5581,0.6408,-0.7304,0.3838,-0.0806,0
3,-1.0867,-0.6122,0.5959,-0.6781,0.3041,0.0534,0
3,-1.0581,-0.7918,0.6153,-0.6541,0.2911,0.2659,0
3,-1.0867,-0.7397,0.5449,-0.569,0.3248,0.4219,0
3,-0.9367,-0.6132,0.5357,-0.2529,0.2976,0.3302,0
3,-1.0418,-0.3643,0.5989,0.0435,0.4295,0.2224,0
3,-1.0367,-0.1255,0.6041,0.074,0.4372,0.2768,0
3,-1.0887,-0.0581,0.5143,-0.0402,0.3227,0.4055,0
3,-1.0652,0.002,0.55,-0.0402,0.3227,0.4055,0
3,-1.0652,0.002,0.55,-0.1177,0.3183,0.4349,0
3,-1.0571,0.0295,0.5081,-0.1406,0.3641,0.4153,0
3,-1.1275,0.1224,0.4765,-0.1471,0.4307,0.4153,0
3,-1.1173,0.1265,0.4296,-0.2201,0.4034,0.4143,0
3,-1.0734,0.0734,0.3826,-0.3804,0.3521,0.424,0
3,-1.0357,-0.004,0.3265,-0.4938,0.3073,0.4295,0
3,-0.9081,-0.049,0.2938,-0.4841,0.2888,0.4065,0
3,-0.8857,-0.0551,0.2806,-0.4797,0.2856,0.3815,0
3,-0.8102,-0.0918,0.2336,-0.5091,0.2245,0.3848,0
3,-0.7663,-0.1204,0.2163,-0.5233,0.1886,0.3739,0
3,-0.7092,-0.1245,0.1908,-0.5233,0.1886,0.3739,0
3,-0.7092,-0.1245,0.1908,-0.4786,0.182,0.3434,0
3,-0.701,-0.1214,0.1765,-0.4349,0.1732,0.3271,0
3,-0.701,-0.1296,0.1602,-0.4372,0.1515,0.3161,0
3,-0.6806,-0.1316,0.1337,-0.4197,0.1112,0.2987,0
3,-0.699,-0.1285,0.1122,-0.3826,0.0872,0.2802,0
3,-0.7265,-0.1316,0.101,-0.3401,0.0698,0.2464,0
3,-0.7449,-0.1255,0.0979,-0.3008,0.0206,0.2256,0
3,-0.7581,-0.1173,0.0928,-0.2693,-0.0402,0.2147,0
3,-0.7898,-0.1091,0.0979,-0.2474,-0.0818,0.1962,0
3,-0.7959,-0.0857,0.1143,-0.2474,-0.0818,0.1962,0
3,-0.8091,-0.0643,0.1275,-0.2115,-0.1232,0.1798,0
3,-0.8091,-0.0643,0.1275,-0.1919,-0.1623,0.1701,0
3,-0.8265,-0.0643,0.1285,-0.2005,-0.1995,0.1613,0
3,-0.8643,-0.0693,0.1398,-0.1896,-0.2289,0.1515,0
3,-0.8939,-0.0622,0.1459,-0.1635,-0.2398,0.1417,0
3,-0.9183,-0.0673,0.1428,-0.1461,-0.2638,0.1362,0
3,-0.954,-0.0663,0.102,-0.1264,-0.2943,0.1406,0
3,-0.9612,-0.0622,0.1132,-0.0969,-0.3237,0.1493,0
3,-0.9622,-0.0836,0.0612,-0.0698,-0.3412,0.1438,0
4,-0.9377,-0.0428,0.0571,0.0076,-0.3729,0.1396,0
4,-0.8704,0.0081,0.0877,0.0076,-0.3729,0.1396,0
4,-0.8704,0.0081,0.0877,0.049,-0.3826,0.1341,0
4,-0.8632,-0.0398,0.0989,0.0021,-0.3717,0.1232,0
4,-0.8989,-0.1041,0.1082,-0.0196,-0.3292,0.1047,0
4,-0.9071,-0.1163,0.1714,0.0381,-0.2911,0.0937,0
4,-1.0571,-0.2112,0.2306,0.0501,-0.2224,0.0795,0
4,-1.1194,-0.254,0.2408,0.0763,-0.1852,0.0784,0
4,-1.2377,-0.2745,0.2612,0.2388,-0.1623,0.0883,0
4,-1.25,-0.2051,0.2898,0.3674,-0.1842,0.1133,0
4,-1.2306,-0.1785,0.2296,0.4568,-0.1919,0.1373,0
4,-1.2479,-0.0836,0.2438,0.5734,-0.1995,0.1711,0
4,-1.2285,0.0,0.2877,0.6814,-0.1886,0.1995,0
4,-1.3051,0.0132,0.3571,0.6814,-0.1886,0.1995,0
4,-1.3275,-0.0265,0.3846,0.6367,-0.1798,0.2049,0
4,-1.2367,-0.0398,0.449,0.5996,-0.2147,0.1951,0
4,-1.2367,-0.0398,0.449,0.6617,-0.2627,0.1919,0
4,-1.1132,-0.0347,0.4806,0.7293,-0.2682,0.1701,0
4,-1.0193,-0.0581,0.5561,0.7413,-0.2354,0.1581,0
4,-0.9938,-0.0786,0.6143,0.7729,-0.1875,0.1373,0
4,-0.953,-0.1398,0.6357,0.7762,-0.157,0.086,0
4,-0.9326,-0.2183,0.6163,0.8012,-0.1274,0.0414,0
4,-0.9765,-0.2153,0.6163,0.9365,-0.0795,-0.0217,0
4,-1.0204,-0.1837,0.6459,1.0499,-0.0392,-0.1177,0
4,-1.0204,-0.1837,0.6459,1.0499,-0.0392,-0.1177,0
4,-1.0796,-0.2061,0.6418,1.0553,-0.0316,-0.194,0
4,-1.0979,-0.2173,0.602,1.0793,-0.0904,-0.2093,0
4,-1.1367,-0.1459,0.602,1.1753,-0.1068,-0.2169,0
4,-1.1469,-0.0765,0.6306,1.2537,-0.074,-0.2376,0
4,-1.152,-0.0081,0.6306,1.3017,-0.0751,-0.23,0
4,-1.0979,0.1387,0.6449,1.3105,-0.11,-0.2245,0
4,-1.0388,0.1887,0.6163,1.2777,-0.1406,-0.2354,0
4,-1.0316,0.2306,0.5979,1.2548,-0.1232,-0.2474,0
4,-0.9908,0.2745,0.5786,1.2113,-0.1079,-0.2649,0
4,-0.952,0.3306,0.5479,1.2113,-0.1079,-0.2649,0
4,-0.952,0.3306,0.5479,1.1306,-0.0969,-0.2791,0
4,-0.9102,0.3602,0.5255,1.0335,-0.1123,-0.2617,0
4,-0.8745,0.3673,0.5102,0.9114,-0.1253,-0.2474,0
4,-0.8479,0.3591,0.4877,0.7783,-0.1286,-0.2888,0
4,-0.751,0.3561,0.4592,0.677,-0.1461,-0.3958,0
4,-0.751,0.3184,0.4194,0.5625,-0.1635,-0.4643,0
4,-0.6959,0.2816,0.3857,0.4502,-0.2049,-0.4797,0
4,-0.6765,0.2602,0.3612,0.3946,-0.2071,-0.4393,0
4,-0.6387,0.202,0.3459,0.3346,-0.1984,-0.3783,0
4,-0.6234,0.1612,0.3316,0.3346,-0.1984,-0.3783,0
4,-0.6163,0.1357,0.3173,0.2802,-0.2016,-0.3325,0
4,-0.6163,0.1357,0.3173,0.2617,-0.2049,-0.3302,0
4,-0.6112,0.1326,0.3245,0.2594,-0.2201,-0.3412,0
4,-0.6183,0.1112,0.299,0.2409,-0.2365,-0.3434,0
4,-0.6275,0.1132,0.2969,0.2398,-0.2453,-0.3434,0
4,-0.6439,0.151,0.3102,0.2617,-0.2693,-0.3412,0
4,-0.652,0.1755,0.3275,0.2289,-0.2779,-0.3466,0
4,-0.6847,0.2204,0.3571,0.1864,-0.3117,-0.3401,0
4,-0.6867,0.2592,0.3898,0.1503,-0.3292,-0.3477,0
4,-0.7153,0.2734,0.4071,0.0719,-0.3205,-0.3619,0
4,-0.7347,0.2795,0.3898,0.0719,-0.3205,-0.3619,0
4,-0.7612,0.3,0.3949,0.0043,-0.3292,-0.3565,0
4,-0.7612,0.3,0.3949,-0.0337,-0.3019,-0.3685,0
4,-0.7877,0.3184,0.402,-0.0894,-0.2834,-0.3891,0
4,-0.8102,0.3163,0.3816,-0.1678,-0.2791,-0.4012,0
4,-0.8224,0.3204,0.3785,-0.2268,-0.2605,-0.4175,0
4,-0.8122,0.3184,0.3816,-0.2888,-0.2529,-0.4229,0
4,-0.7724,0.2795,0.3755,-0.3663,-0.2365,-0.4229,0
4,-0.754,0.2388,0.3857,-0.4109,-0.206,-0.4252,0
4,-0.7347,0.1785,0.4642,-0.4317,-0.169,-0.4284,0
4,-0.7592,0.1622,0.5143,-0.4317,-0.169,-0.4284,0
4,-0.7877,0.1285,0.5377,-0.4502,-0.1112,-0.4099,0
4,-0.7877,0.1285,0.5377,-0.4818,-0.0479,-0.375,0
4,-0.8163,0.1265,0.5551,-0.4862,0.0206,-0.3151,0
4,-0.8939,0.1898,0.5245,-0.4992,0.085,-0.2638,0
4,-0.953,0.1908,0.5173,-0.545,0.1657,-0.2529,0
4,-1.0102,0.1826,0.4857,-0.5952,0.2115,-0.2344,0
4,-0.999,0.1428,0.449,-0.6388,0.2659,-0.2518,0
4,-1.0428,0.0286,0.4081,-0.6421,0.3422,-0.2779,0
4,-1.0591,0.0,0.4092,-0.5952,0.3924,-0.2791,0
4,-1.1102,-0.0398,0.4449,-0.5952,0.3924,-0.2791,0
4,-1.201,-0.0979,0.4601,-0.581,0.4589,-0.3008,0
4,-1.201,-0.0979,0.4601,-0.5658,0.4927,-0.3216,0
4,-1.2275,-0.201,0.5031,-0.5189,0.4862,-0.3193,0
4,-1.2173,-0.2479,0.4714,-0.507,0.4643,-0.3052,0
4,-1.1581,-0.3347,0.4877,-0.5167,0.3848,-0.2703,0
4,-1.0479,-0.3959,0.451,-0.4992,0.314,-0.2201,0
4,-0.9163,-0.5377,0.5112,-0.4568,0.3117,-0.1537,0
4,-0.8602,-0.6755,0.5286,-0.4088,0.3838,-0.0392,0
4,-0.8347,-0.6887,0.5816,-0.2911,0.4361,0.0828,0
4,-0.8357,-0.6837,0.5979,-0.2911,0.4361,0.0828,0
4,-0.8867,-0.6949,0.6377,-0.2485,0.5233,0.0435,0
4,-0.8898,-0.6367,0.5551,-0.1341,0.5221,0.0599,0
4,-0.8898,-0.6367,0.5551,0.0511,0.4643,0.1722,0
4,-1.0132,-0.5632,0.4897,0.2093,0.5843,0.1875,0
4,-1.1898,-0.2255,0.603,0.4219,0.6345,0.2049,0
4,-1.1847,-0.0428,0.6806,0.5374,0.5353,0.3096,0
4,-1.2142,0.0714,0.6683,0.3565,0.4721,0.3685,0
4,-1.2306,0.0847,0.5877,0.1155,0.4536,0.3859,0
4,-1.1826,0.1275,0.4938,0.0631,0.4492,0.4055,0
4,-1.1592,0.1653,0.4806,0.0479,0.4677,0.3859,0
4,-1.1592,0.1653,0.4806,0.0479,0.4677,0.3859,0
4,-1.0652,0.1775,0.5245,-0.1123,0.4622,0.363,0
4,-1.0786,0.0948,0.4592,-0.3193,0.4208,0.3891,0
4,-0.9571,-0.0551,0.355,-0.3729,0.3848,0.399,0
4,-0.9122,-0.0714,0.3306,-0.3489,0.4012,0.3739,0
4,-0.8959,-0.0887,0.3071,-0.3346,0.3794,0.3575,0
4,-0.8714,-0.1061,0.2663,-0.35,0.3019,0.3685,0
4,-0.8041,-0.101,0.1898,-0.3489,0.2388,0.3554,0
4,-0.7673,-0.0765,0.1714,-0.3193,0.2027,0.3368,0
4,-0.7602,-0.0663,0.1489,-0.3216,0.1667,0.3227,0
4,-0.7561,-0.0765,0.1479,-0.3216,0.1667,0.3227,0
4,-0.7561,-0.0765,0.1479,-0.35,0.0959,0.3073,0
4,-0.7081,-0.0959,0.1337,-0.35,0.0349,0.2987,0
4,-0.7061,-0.1,0.1387,-0.3271,0.0011,0.2779,0
5,-0.703,-0.0928,0.1459,-0.3031,-0.0162,0.2398,0
5,-0.7204,-0.0765,0.1469,-0.2911,-0.0545,0.23,0
5,-0.7418,-0.0591,0.1204,-0.3085,-0.1079,0.2333,0
5,-0.7306,-0.0459,0.1571,-0.3302,-0.1482,0.23,0
5,-0.7561,-0.0449,0.1306,-0.339,-0.1755,0.2169,0
5,-0.7653,-0.0214,0.1367,-0.3237,-0.2005,0.2081,0
5,-0.8122,-0.0112,0.2061,-0.3237,-0.2005,0.2081,0
5,-0.7653,0.0336,0.1541,-0.2834,-0.2136,0.2354,0
5,-0.8173,0.049,0.1265,-0.3586,-0.242,0.2016,0
5,-0.903,0.0275,0.1306,-0.3586,-0.242,0.2016,0
5,-0.903,0.0652,0.1285,-0.3271,-0.2682,0.2234,0
5,-0.903,0.0652,0.1285,-0.2998,-0.2932,0.2093,0
5,-0.952,0.0745,0.0908,-0.3107,-0.3031,0.1787,0
5,-0.9387,0.0469,0.0969,-0.35,-0.3216,0.1602,0
5,-0.9203,0.052,0.1194,-0.3554,-0.3489,0.1547,0
5,-0.8928,0.0163,0.1316,-0.4034,-0.3565,0.1547,0
5,-0.8969,-0.0541,0.1612,-0.4557,-0.3456,0.1701,0
5,-0.9071,-0.2112,0.1979,-0.4481,-0.314,0.1896,0
5,-0.9235,-0.2704,0.2142,-0.3914,-0.2649,0.2039,0
5,-0.9673,-0.3081,0.2101,-0.2779,-0.218,0.2256,0
5,-0.9969,-0.2786,0.2326,-0.2779,-0.218,0.2256,0
5,-1.1387,-0.202,0.2469,-0.1461,-0.1701,0.255,0
5,-1.1387,-0.202,0.2469,-0.0708,-0.1242,0.2823,0
5,-1.1898,-0.1724,0.2234,0.0053,-0.1177,0.3237,0
5,-1.2551,-0.1132,0.2683,0.0511,-0.1232,0.3434,0
5,-1.2755,-0.1439,0.3479,0.0414,-0.1547,0.3183,0
5,-1.3245,-0.1847,0.4041,0.1384,-0.2104,0.3445,0
5,-1.2347,-0.2326,0.4377,0.2027,-0.2638,0.3434,0
5,-1.1887,-0.2438,0.4683,0.3368,-0.2823,0.3554,0
5,-1.0469,-0.201,0.5398,0.3368,-0.2823,0.3554,0
5,-1.0469,-0.201,0.5398,0.4611,-0.2659,0.3761,0
5,-0.9847,-0.1775,0.7142,0.4687,-0.2136,0.3848,0
5,-0.9847,-0.1775,0.7142,0.4927,-0.1678,0.3685,0
5,-0.9459,-0.1694,0.703,0.5102,-0.1373,0.3336,0
5,-0.9816,-0.199,0.6928,0.5221,-0.0948,0.2768,0
5,-1.0031,-0.204,0.6204,0.6705,-0.049,0.2016,0
5,-1.0102,-0.0887,0.6765,0.7893,0.0097,0.1242,0
5,-1.0357,-0.0265,0.6571,0.7632,0.0566,0.0883,0
5,-1.0836,-0.002,0.6765,0.701,0.0545,0.0959,0
5,-1.1102,0.0102,0.6673,0.6377,0.0664,0.085,0
5,-1.1102,0.0102,0.6673,0.6377,0.0664,0.085,0
5,-1.1143,0.002,0.6724,0.6062,0.0621,0.0774,0
5,-1.0867,0.0204,0.6642,0.6159,0.0654,0.0599,0
5,-1.1173,0.0673,0.6275,0.6333,0.0643,0.0446,0
5,-1.0898,0.151,0.5684,0.5984,0.0479,0.0414,0
5,-1.0581,0.1837,0.5255,0.5679,0.0206,0.0402,0
5,-1.0408,0.2224,0.499,0.5331,0.0087,0.0272,0
5,-0.9653,0.2867,0.4714,0.4698,-0.024,0.0174,0
5,-0.9163,0.299,0.4469,0.3804,-0.0631,0.0043,0
5,-0.855,0.2918,0.4306,0.2823,-0.0894,-0.0185,0
5,-0.8245,0.2826,0.402,0.2823,-0.0894,-0.0185,0
5,-0.8245,0.2826,0.402,0.2016,-0.1068,-0.0435,0
5,-0.7734,0.2388,0.351,0.1188,-0.1232,-0.098,0
5,-0.749,0.2081,0.3316,0.1188,-0.1232,-0.098,0
5,-0.7255,0.1816,0.3132,0.0185,-0.1711,-0.1623,0
5,-0.6949,0.1642,0.3193,-0.0185,-0.1842,-0.1732,0
5,-0.6592,0.0989,0.3275,-0.0392,-0.1951,-0.1732,0
5,-0.6489,0.0908,0.3347,-0.036,-0.194,-0.1787,0
5,-0.6459,0.0836,0.3316,-0.036,-0.194,-0.1787,0
5,-0.6387,0.0847,0.3418,-0.0392,-0.1951,-0.1864,0
5,-0.6561,0.1346,0.3582,-0.0294,-0.1972,-0.2016,0
5,-0.6898,0.1653,0.351,-0.0294,-0.1972,-0.2016,0
5,-0.6898,0.1653,0.351,-0.0196,-0.2005,-0.231,0
5,-0.7163,0.2061,0.3428,-0.0305,-0.1907,-0.2714,0
5,-0.7347,0.2347,0.353,-0.0469,-0.193,-0.2976,0
5,-0.7714,0.2388,0.3234,-0.0948,-0.1864,-0.3031,0
5,-0.7683,0.2459,0.3265,-0.1461,-0.1962,-0.3117,0
5,-0.7724,0.2428,0.3336,-0.1744,-0.1852,-0.3161,0
5,-0.7724,0.2142,0.3296,-0.2256,-0.1667,-0.3031,0
5,-0.754,0.1744,0.3306,-0.2703,-0.157,-0.2976,0
5,-0.7408,0.1785,0.3418,-0.2802,-0.1384,-0.3085,0
5,-0.7224,0.1735,0.3398,-0.2802,-0.1384,-0.3085,0
5,-0.7122,0.1673,0.3377,-0.2911,-0.1123,-0.3271,0
5,-0.7122,0.1673,0.3377,-0.3117,-0.0784,-0.3445,0
5,-0.6867,0.153,0.3306,-0.3237,-0.0381,-0.3597,0
5,-0.6612,0.1408,0.3418,-0.3477,0.0,-0.3695,0
5,-0.6571,0.1346,0.3541,-0.3554,0.0457,-0.3717,0
5,-0.7133,0.1326,0.4122,-0.3542,0.11,-0.3674,0
5,-0.7499,0.1194,0.4142,-0.3695,0.1896,-0.3456,0
5,-0.8122,0.1102,0.3979,-0.3891,0.2474,-0.2943,0
5,-0.8877,0.102,0.3887,-0.4,0.3031,-0.2442,0
5,-1.0469,0.053,0.3898,-0.4,0.3031,-0.2442,0
5,-1.0979,0.0316,0.4102,-0.4034,0.3456,-0.2016,0
5,-1.0979,0.0316,0.4102,-0.3891,0.363,-0.1722,0
5,-1.1377,0.0183,0.4122,-0.3597,0.3685,-0.1602,0
5,-1.1459,-0.004,0.3908,-0.326,0.3663,-0.1471,0
5,-1.0632,-0.0173,0.3949,-0.3019,0.3542,-0.1396,0
5,-0.9969,0.0102,0.4469,-0.2583,0.3804,-0.1253,0
5,-0.9775,0.0286,0.4897,-0.2147,0.4273,-0.11,0
5,-1.0153,0.0183,0.5183,-0.2234,0.5221,-0.0959,0
5,-1.1439,-0.0581,0.501,-0.2617,0.6138,-0.086,0
5,-1.2133,-0.0969,0.449,-0.2617,0.6138,-0.086,0
5,-1.2459,-0.1377,0.4296,-0.2888,0.6694,-0.0566,0
5,-1.2357,-0.1663,0.4275,-0.3085,0.665,-0.036,0
5,-1.2357,-0.1663,0.4275,-0.3302,0.6159,-0.0446,0
5,-1.2612,-0.2969,0.5469,-0.3674,0.5494,-0.0806,0
5,-1.2296,-0.3622,0.5316,-0.4655,0.4818,-0.0948,0
5,-1.251,-0.4479,0.5418,-0.5658,0.4088,-0.0349,0
5,-1.2153,-0.5286,0.5153,-0.6203,0.3314,0.073,0
5,-1.2204,-0.651,0.4653,-0.5877,0.2943,0.194,0
5,-1.2133,-0.5847,0.4571,-0.4328,0.3336,0.3848,0
5,-1.204,-0.4642,0.4081,-0.4328,0.3336,0.3848,0
5,-1.1663,-0.2734,0.3846,-0.2115,0.2812,0.4753,0
5,-1.0806,0.0143,0.3745,-0.0534,0.2224,0.3783,0
5,-1.0806,0.0143,0.3745,0.0294,0.1776,0.388,0
5,-1.0581,0.0143,0.3163,-0.0719,0.1678,0.4372,0
5,-1.0286,0.0255,0.299,-0.2027,0.1667,0.4229,0
5,-0.9928,0.0061,0.3214,-0.2442,0.1907,0.3826,0
5,-0.9918,-0.0745,0.2938,-0.3325,0.2049,0.3542,0
5,-0.9683,-0.1183,0.3,-0.3958,0.2147,0.3302,0
6,-0.9479,-0.103,0.302,-0.363,0.2125,0.3096,0
6,-0.8979,-0.1234,0.2101,-0.3609,0.1972,0.3031,0
6,-0.8979,-0.1234,0.2101,-0.3609,0.1972,0.3031,0
6,-0.853,-0.1,0.1867,-0.3619,0.181,0.2899,0
6,-0.8347,-0.0438,0.1826,-0.3008,0.1581,0.2791,0
6,-0.7806,-0.0204,0.1428,-0.2758,0.1144,0.267,0
6,-0.7142,-0.0102,0.0745,-0.2987,0.0751,0.2398,0
6,-0.6959,0.0336,0.0959,-0.2627,0.0511,0.194,0
6,-0.6541,0.0051,0.1183,-0.2878,0.0021,0.1373,0
6,-0.6969,-0.0438,0.1194,-0.3237,-0.025,0.1286,0
6,-0.6735,-0.0326,0.1612,-0.3281,-0.0425,0.1198,0
6,-0.7224,-0.0449,0.1683,-0.3107,-0.0577,0.1035,0
6,-0.7296,-0.05,0.1744,-0.3183,-0.0631,0.0795,0
6,-0.7847,-0.0704,0.1622,-0.3128,-0.0904,0.0708,0
6,-0.8418,-0.0918,0.1459,-0.3128,-0.0904,0.0708,0
6,-0.8602,-0.0918,0.1581,-0.3216,-0.1024,0.0523,0
6,-0.8602,-0.0918,0.1581,-0.2976,-0.11,0.0392,0
6,-0.9132,-0.0959,0.1612,-0.2649,-0.1253,0.0326,0
6,-0.953,-0.1112,0.1551,-0.2388,-0.1515,0.0414,0
6,-1.0,-0.1,0.152,-0.2016,-0.1657,0.0555,0
6,-1.002,-0.0939,0.1683,-0.1635,-0.1744,0.0784,0
6,-1.0092,-0.1082,0.153,-0.1428,-0.1919,0.1112,0
6,-0.9979,-0.1153,0.1459,-0.1242,-0.2016,0.1417,0
6,-0.9796,-0.1061,0.1275,-0.0818,-0.206,0.169,0
6,-0.9642,-0.0714,0.1071,-0.024,-0.2049,0.194,0
6,-0.9387,-0.0051,0.0928,-0.024,-0.2049,0.194,0
6,-0.8887,0.0031,0.0826,0.0326,-0.1984,0.2125,0
6,-0.8887,0.0031,0.0826,0.0316,-0.1896,0.2071,0
6,-0.9041,-0.0357,0.0786,-0.0326,-0.1613,0.2027,0
6,-0.9357,-0.0673,0.1041,-0.0469,-0.1274,0.193,0
6,-1.0887,-0.1887,0.204,-0.0294,-0.0621,0.1766,0
6,-1.1816,-0.2388,0.1959,-0.0337,-0.0185,0.1744,0
6,-1.2632,-0.2397,0.2561,0.0414,-0.0272,0.1995,0
6,-1.2653,-0.2428,0.2704,0.1167,-0.073,0.193,0
6,-1.353,-0.1439,0.2826,0.1167,-0.073,0.193,0
6,-1.353,-0.1439,0.2826,0.1907,-0.085,0.1755,0
6,-1.4469,0.0438,0.3459,0.3227,-0.1318,0.1842,0
6,-1.4469,0.0438,0.3459,0.4065,-0.1602,0.1995,0
6,-1.4897,0.0693,0.2959,0.4023,-0.1951,0.1766,0
6,-1.3091,0.1387,0.4428,0.4611,-0.2758,0.2039,0
6,-1.1041,0.2388,0.3694,0.4884,-0.3161,0.2659,0
6,-1.0357,0.2408,0.4092,0.3729,-0.3237,0.2856,0
6,-0.9755,0.1785,0.4081,0.2224,-0.2321,0.2943,0
6,-0.9,0.0734,0.4377,0.1711,-0.1995,0.3216,0
6,-0.9469,-0.0377,0.4612,0.1047,-0.1155,0.2725,0
6,-0.951,-0.1428,0.4734,0.1047,-0.1155,0.2725,0
6,-0.951,-0.1428,0.4734,0.0577,-0.0555,0.1831,0
6,-0.9683,-0.2245,0.4867,0.1123,-0.0326,0.1396,0
6,-1.0571,-0.3816,0.4244,0.181,-0.0152,0.0937,0
6,-1.0347,-0.4,0.45,0.2791,-0.0152,0.0316,0
6,-1.0326,-0.351,0.45,0.471,-0.0511,0.0011,0
6,-1.0295,-0.301,0.452,0.6247,-0.0686,-0.0162,0
6,-1.0173,-0.1439,0.4459,0.7217,-0.085,-0.0294,0
6,-0.9959,-0.0143,0.4938,0.8176,-0.0818,-0.0206,0
6,-1.0112,0.0632,0.5122,0.8166,-0.073,-0.0076,0
6,-1.0193,0.0867,0.5245,0.8166,-0.073,-0.0076,0
6,-1.0193,0.0867,0.5245,0.7501,-0.086,0.0032,0
6,-0.9918,0.1061,0.5132,0.6955,-0.1057,0.0032,0
6,-0.9836,0.1571,0.5102,0.6966,-0.1089,-0.0076,0
6,-0.9642,0.2275,0.5163,0.6814,-0.0915,-0.0152,0
6,-0.9428,0.3347,0.5265,0.6225,-0.086,-0.0043,0
6,-0.9408,0.3245,0.4897,0.5026,-0.0925,-0.0011,0
6,-0.9142,0.3163,0.45,0.3532,-0.1079,-0.0326,0
6,-0.8724,0.3296,0.449,0.2747,-0.1123,-0.0719,0
6,-0.8152,0.303,0.4132,0.1842,-0.1013,-0.0992,0
6,-0.7979,0.2459,0.3622,0.0523,-0.1003,-0.1047,0
6,-0.7693,0.2061,0.35,0.0523,-0.1003,-0.1047,0
6,-0.7693,0.2061,0.35,-0.0228,-0.0969,-0.0904,0
6,-0.7653,0.1602,0.3367,-0.0621,-0.0818,-0.074,0
6,-0.7357,0.0459,0.2816,-0.1047,-0.0839,-0.0795,0
6,-0.7265,0.0275,0.2816,-0.1035,-0.0795,-0.1013,0
6,-0.7316,0.0173,0.2928,-0.0719,-0.074,-0.1177,0
6,-0.7194,-0.0275,0.2632,-0.0631,-0.0959,-0.1297,0
6,-0.7204,-0.0388,0.251,-0.025,-0.1123,-0.1461,0
6,-0.6949,-0.0031,0.2643,0.0686,-0.1297,-0.1678,0
6,-0.7051,0.0255,0.2704,0.1384,-0.1362,-0.193,0
6,-0.701,0.0602,0.2816,0.1384,-0.1362,-0.193,0
6,-0.7101,0.1224,0.3234,0.1798,-0.1515,-0.2071,0
6,-0.7101,0.1224,0.3234,0.2039,-0.1581,-0.2136,0
6,-0.7214,0.1408,0.3387,0.1984,-0.1503,-0.2213,0
6,-0.7357,0.1959,0.3591,0.2016,-0.1384,-0.2268,0
6,-0.7734,0.2428,0.3806,0.1766,-0.1079,-0.2442,0
6,-0.8326,0.2592,0.353,0.0992,-0.1035,-0.255,0
6,-0.8653,0.2602,0.3326,0.0326,-0.0959,-0.2703,0
6,-0.8796,0.2683,0.3234,0.0011,-0.0828,-0.2888,0
6,-0.8846,0.2643,0.301,-0.0305,-0.0774,-0.3073,0
6,-0.8704,0.25,0.2673,-0.0305,-0.0774,-0.3073,0
6,-0.8398,0.2449,0.2795,-0.0654,-0.0631,-0.3368,0
6,-0.8398,0.2449,0.2795,-0.0795,-0.0589,-0.363,0
6,-0.8152,0.2112,0.2673,-0.1177,-0.0425,-0.388,0
6,-0.7765,0.1622,0.2653,-0.1558,-0.0294,-0.388,0
6,-0.7653,0.1255,0.3336,-0.1461,0.0065,-0.3859,0
6,-0.7795,0.0898,0.3622,-0.1558,0.0435,-0.3804,0
6,-0.8214,0.0755,0.3939,-0.1471,0.0751,-0.3586,0
6,-0.9622,0.0877,0.4326,-0.1253,0.1035,-0.3336,0
6,-1.0173,0.102,0.4173,-0.1167,0.1242,-0.2954,0
6,-1.0857,0.1357,0.3989,-0.1167,0.1242,-0.2954,0
6,-1.1224,0.1673,0.4061,-0.1133,0.1318,-0.2649,0
6,-1.1224,0.1673,0.4061,-0.1112,0.1373,-0.2495,0
6,-1.1449,0.1245,0.3734,-0.1526,0.1329,-0.2365,0
6,-1.1265,0.1183,0.3755,-0.1711,0.1471,-0.2213,0
6,-1.0979,0.1224,0.3816,-0.1581,0.1776,-0.2159,0
6,-1.0816,0.103,0.3643,-0.1602,0.23,-0.2039,0
6,-0.9979,0.0918,0.3326,-0.157,0.267,-0.1842,0
6,-0.9734,0.101,0.3347,-0.1274,0.3073,-0.1798,0
6,-0.9459,0.0867,0.3398,-0.1449,0.3641,-0.1722,0
6,-0.9296,0.0571,0.3377,-0.169,0.4143,-0.1537,0
6,-0.9408,0.0071,0.3846,-0.169,0.4143,-0.1537,0
6,-0.953,-0.05,0.3918,-0.1711,0.4687,-0.1438,0
6,-0.953,-0.05,0.3918,-0.194,0.508,-0.1341,0
7,-0.9449,-0.0898,0.4041,-0.206,0.5276,-0.1089,0
7,-0.952,-0.0908,0.4337,-0.1831,0.5418,-0.0915,0
7,-1.0286,-0.1255,0.4969,-0.1995,0.557,-0.0839,0
7,-1.0867,-0.1724,0.4806,-0.2976,0.5528,-0.0621,0
7,-1.1296,-0.2071,0.4724,-0.3771,0.5135,-0.0326,0
7,-1.1265,-0.2551,0.5112,-0.4273,0.4589,-0.0032,0
7,-1.2101,-0.4765,0.451,-0.5309,0.4273,0.0349,0
7,-1.2101,-0.4765,0.451,-0.5309,0.4273,0.0349,0
7,-1.1898,-0.3306,0.4132,-0.1406,0.3357,0.2649,0
7,-1.101,-0.1153,0.3745,-0.1406,0.3357,0.2649,0
7,-1.0428,0.0,0.3785,-0.1068,0.3183,0.2954,0
7,-1.0428,0.0,0.3785,-0.1123,0.3096,0.35,0
7,-0.9969,0.0398,0.3408,-0.194,0.3041,0.375,0
7,-0.9816,0.0214,0.2867,-0.2888,0.3422,0.351,0
7,-0.9857,0.0652,0.2724,-0.2976,0.3914,0.326,0
7,-0.9836,0.052,0.2704,-0.3434,0.4034,0.3085,0
7,-0.9847,-0.0132,0.2306,-0.4437,0.388,0.3041,0
7,-0.952,-0.0693,0.1816,-0.4536,0.3695,0.2954,0
7,-0.9326,-0.0479,0.1592,-0.3979,0.3565,0.2844,0
7,-0.9153,-0.0326,0.1255,-0.3979,0.3565,0.2844,0
7,-0.8632,-0.0428,0.1122,-0.3771,0.3357,0.2617,0
7,-0.8632,-0.0428,0.1122,-0.3815,0.2779,0.2365,0
7,-0.8112,-0.0286,0.0652,-0.3619,0.2256,0.2234,0
7,-0.7704,-0.0143,0.0622,-0.3412,0.1907,0.2005,0
7,-0.7469,-0.0153,0.0367,-0.3302,0.1461,0.1711,0
7,-0.7622,-0.0153,0.0418,-0.3161,0.1198,0.1547,0
7,-0.752,0.002,0.051,-0.3008,0.0708,0.1417,0
7,-0.7643,0.0031,0.0693,-0.2987,0.0282,0.1329,0
7,-0.7836,0.0081,0.0898,-0.3073,-0.0097,0.1232,0
7,-0.7918,0.002,0.1061,-0.3227,-0.0457,0.1133,0
7,-0.8398,-0.0255,0.1306,-0.3227,-0.0457,0.1133,0
7,-0.8745,-0.0275,0.1326,-0.338,-0.0698,0.1035,0
7,-0.8745,-0.0275,0.1326,-0.3292,-0.0948,0.0948,0
7,-0.9092,-0.0255,0.1357,-0.3281,-0.11,0.0904,0
7,-0.9367,-0.0245,0.1275,-0.3336,-0.1384,0.0915,0
7,-1.002,-0.0245,0.0979,-0.338,-0.1667,0.0948,0
7,-1.0265,-0.0112,0.0918,-0.3281,-0.2005,0.1079,0
7,-1.0571,-0.0081,0.0755,-0.3216,-0.2289,0.1167,0
7,-1.0939,0.001,0.0734,-0.3216,-0.2562,0.1188,0
7,-1.101,0.0234,0.052,-0.3216,-0.2562,0.1188,0
7,-1.0887,0.0286,0.049,-0.3128,-0.2932,0.1133,0
7,-1.0724,0.0275,0.0224,-0.3031,-0.3216,0.1144,0
7,-1.0724,0.0275,0.0224,-0.3085,-0.3554,0.1232,0
7,-1.051,0.0306,0.0255,-0.3063,-0.3804,0.1253,0
7,-0.9377,0.0602,0.0234,-0.3008,-0.3891,0.1232,0
7,-0.8908,0.0336,0.0286,-0.3302,-0.388,0.1188,0
7,-0.901,0.002,0.0408,-0.3445,-0.338,0.0959,0
7,-0.9387,-0.0602,0.1234,-0.3336,-0.2867,0.0795,0
7,-1.0102,-0.1275,0.1367,-0.351,-0.2321,0.0795,0
7,-1.0632,-0.1561,0.1602,-0.3325,-0.1886,0.0915,0
7,-1.0632,-0.1561,0.1602,-0.3325,-0.1886,0.0915,0
7,-1.152,-0.1632,0.1765,-0.255,-0.1602,0.1047,0
7,-1.2612,-0.203,0.1908,-0.2093,-0.1482,0.1155,0
7,-1.3286,-0.1785,0.1632,-0.1406,-0.1558,0.1373,0
7,-1.3224,-0.1183,0.2285,-0.0196,-0.194,0.1623,0
7,-1.3602,-0.0571,0.2388,0.0402,-0.2016,0.1787,0
7,-1.2959,-0.0622,0.3214,0.0686,-0.2256,0.1864,0
7,-1.2061,-0.051,0.2857,0.098,-0.2638,0.2234,0
7,-1.0979,-0.0326,0.3184,0.1646,-0.267,0.2725,0
7,-0.9969,-0.0163,0.3326,0.2039,-0.2115,0.3052,0
7,-0.9918,-0.0571,0.3591,0.2039,-0.2115,0.3052,0
7,-0.9918,-0.0571,0.3591,0.194,-0.1384,0.3227,0
7,-1.0306,-0.0877,0.4163,0.2027,-0.086,0.3172,0
7,-1.0877,-0.1775,0.452,0.1852,-0.0686,0.2747,0
7,-1.1214,-0.3061,0.449,0.2125,-0.0992,0.2125,0
7,-1.1306,-0.3245,0.5193,0.3848,-0.1133,0.1274,0
7,-1.2459,-0.3643,0.4877,0.5538,-0.0948,0.0545,0
7,-1.2061,-0.3816,0.4061,0.6148,-0.1722,0.0043,0
7,-1.0979,-0.2561,0.449,0.8819,-0.2049,-0.0316,0
7,-1.053,-0.0163,0.5,0.9158,-0.1984,-0.0469,0
7,-1.1265,0.0,0.4214,0.8569,-0.1875,-0.012,0
7,-1.0306,0.1265,0.5051,0.8569,-0.1875,-0.012,0
7,-1.0306,0.1265,0.5051,0.8939,-0.2005,-0.0011,0
7,-1.0877,0.1857,0.5418,0.81,-0.1852,-0.0053,0
7,-1.0051,0.0979,0.449,0.6911,-0.2224,0.0217,0
7,-0.9694,0.1837,0.4673,0.7359,-0.1907,0.0217,0
7,-0.9337,0.2969,0.5092,0.7348,-0.1623,0.0196,0
7,-0.954,0.2928,0.4847,0.5635,-0.1558,0.0414,0
7,-0.9214,0.3061,0.4142,0.483,-0.1722,0.0545,0
7,-0.9235,0.352,0.4255,0.4328,-0.1657,0.0349,0
7,-0.8806,0.3041,0.3775,0.2768,-0.193,0.0087,0
7,-0.8275,0.2397,0.3102,0.2768,-0.193,0.0087,0
7,-0.7979,0.2592,0.3275,0.2191,-0.1984,-0.0053,0
7,-0.7979,0.2592,0.3275,0.218,-0.1919,-0.0435,0
7,-0.7571,0.2133,0.302,0.1308,-0.2234,-0.0774,0
7,-0.7296,0.1408,0.2673,0.0621,-0.2453,-0.0904,0
7,-0.703,0.1173,0.2643,0.085,-0.2376,-0.1177,0
7,-0.6979,0.0959,0.2765,0.0872,-0.242,-0.1461,0
7,-0.6928,0.0408,0.2367,0.0555,-0.2573,-0.1635,0
7,-0.699,0.0367,0.2357,0.1079,-0.2834,-0.1787,0
7,-0.6898,0.0867,0.2592,0.1537,-0.2932,-0.2125,0
7,-0.6928,0.105,0.2592,0.1537,-0.2932,-0.2125,0
7,-0.6959,0.1326,0.2693,0.1755,-0.3073,-0.2376,0
7,-0.6959,0.1326,0.2693,0.1984,-0.3183,-0.2649,0
7,-0.7194,0.1622,0.2928,0.1995,-0.3281,-0.2888,0
7,-0.7428,0.2296,0.3173,0.1852,-0.3412,-0.3008,0
7,-0.7663,0.2622,0.3367,0.1515,-0.338,-0.3314,0
7,-0.7755,0.2928,0.3418,0.1024,-0.3422,-0.3674,0
7,-0.7918,0.3255,0.3398,0.037,-0.3456,-0.3859,0
7,-0.8255,0.3306,0.3377,-0.0349,-0.3292,-0.3968,0
7,-0.8296,0.3336,0.3286,-0.098,-0.3117,-0.4109,0
7,-0.8469,0.3582,0.3398,-0.098,-0.3117,-0.4109,0
7,-0.855,0.3469,0.3286,-0.1591,-0.2888,-0.4088,0
7,-0.852,0.2979,0.3163,-0.2409,-0.2693,-0.4273,0
7,-0.852,0.2979,0.3163,-0.3107,-0.2409,-0.4338,0
7,-0.8245,0.2734,0.3204,-0.3575,-0.2234,-0.4393,0
7,-0.8102,0.2388,0.3163,-0.4055,-0.193,-0.4557,0
7,-0.7888,0.203,0.3234,-0.4317,-0.1657,-0.4589,0
7,-0.7724,0.1755,0.3796,-0.4469,-0.1209,-0.4458,0
7,-0.7898,0.1439,0.4102,-0.4753,-0.0686,-0.4263,0
8,-0.8286,0.1408,0.4285,-0.4992,-0.0097,-0.3838,0
8,-0.8561,0.0867,0.3908,-0.4992,-0.0097,-0.3838,0
8,-0.9663,0.1326,0.4051,-0.507,0.0523,-0.351,0
8,-1.0,0.1173,0.4,-0.4589,0.1144,-0.3073,0
8,-1.0,0.1173,0.4,-0.4906,0.1722,-0.2998,0
8,-1.0571,0.0622,0.3846,-0.5135,0.2201,-0.2834,0
8,-1.0214,0.0398,0.3612,-0.4753,0.2333,-0.255,0
8,-1.0377,0.002,0.3734,-0.4763,0.3117,-0.267,0
8,-1.0306,-0.0061,0.403,-0.4132,0.4153,-0.2495,0
8,-1.1082,-0.0857,0.449,-0.4252,0.4601,-0.2594,0
8,-1.1683,-0.1489,0.4428,-0.412,0.4906,-0.2812,0
8,-1.2092,-0.1826,0.4633,-0.3674,0.4851,-0.2932,0
8,-1.1837,-0.2377,0.5183,-0.3903,0.4263,-0.3019,0
8,-1.1337,-0.35,0.4979,-0.4502,0.3729,-0.2899,0
8,-1.0459,-0.4244,0.5153,-0.4502,0.3729,-0.2899,0
8,-1.0408,-0.5031,0.4428,-0.5026,0.3248,-0.194,0
8,-1.0408,-0.5031,0.4428,-0.5255,0.3434,-0.0402,0
8,-1.0786,-0.5295,0.4673,-0.495,0.3586,0.11,0
8,-1.0255,-0.6612,0.4622,-0.4307,0.3565,0.2169,0
8,-1.0357,-0.652,0.4714,-0.3172,0.326,0.3031,0
8,-1.0102,-0.6224,0.4459,-0.1657,0.2737,0.3052,0
8,-0.9949,-0.502,0.4316,0.0425,0.2693,0.3041,0
8,-0.9897,-0.1296,0.5306,0.1635,0.2966,0.3739,0
8,-0.9836,-0.0571,0.4745,0.0894,0.3073,0.4372,0
8,-1.0122,-0.0102,0.4183,0.0337,0.339,0.4589,0
8,-1.0357,0.0755,0.401,0.0337,0.339,0.4589,0
8,-1.0765,0.1428,0.3714,0.0087,0.3935,0.4338,0
8,-1.0765,0.1428,0.3714,-0.0992,0.4317,0.4065,0
8,-1.0714,0.1183,0.352,-0.2245,0.4361,0.3924,0
8,-1.0561,0.0836,0.3143,-0.3107,0.4143,0.3815,0
8,-1.0357,0.0428,0.2755,-0.3641,0.3946,0.3685,0
8,-0.9561,-0.0408,0.1775,-0.3761,0.3729,0.3456,0
8,-0.9183,-0.0357,0.151,-0.3565,0.3477,0.3193,0
8,-0.8622,-0.0163,0.1459,-0.3532,0.2966,0.3008,0
8,-0.8224,-0.0377,0.0948,-0.3739,0.2442,0.2834,0
8,-0.7592,-0.0714,0.0541,-0.3739,0.2442,0.2834,0
8,-0.7194,-0.053,0.0734,-0.3325,0.2125,0.2442,0
8,-0.7194,-0.053,0.0734,-0.2791,0.1701,0.2016,0
8,-0.7183,-0.0734,0.0632,-0.2725,0.1417,0.1623,0
8,-0.7173,-0.0918,0.0581,-0.2365,0.0948,0.1449,0
8,-0.7275,-0.0765,0.0765,-0.2093,0.0469,0.1286,0
8,-0.7438,-0.0775,0.0806,-0.2005,0.0,0.1167,0
8,-0.754,-0.0765,0.0826,-0.1842,-0.0446,0.1068,0
8,-0.7959,-0.049,0.1082,-0.1701,-0.0872,0.0992,0
8,-0.8163,-0.0602,0.1082,-0.1831,-0.1264,0.085,0
8,-0.8469,-0.0684,0.1061,-0.1831,-0.1264,0.085,0
8,-0.8591,-0.0602,0.1082,-0.1831,-0.1558,0.085,0
8,-0.8591,-0.0602,0.1082,-0.1646,-0.1852,0.085,0
8,-0.9061,-0.0602,0.1224,-0.1657,-0.1995,0.0883,0
8,-0.9214,-0.0551,0.1153,-0.1581,-0.2256,0.1003,0
8,-0.9469,-0.0438,0.1122,-0.1396,-0.2464,0.1123,0
8,-0.9847,-0.0306,0.1082,-0.1341,-0.2638,0.1177,0
8,-1.0234,-0.0336,0.0745,-0.1352,-0.2888,0.1232,0
8,-1.0438,-0.0112,0.0724,-0.1079,-0.3183,0.1362,0
8,-1.0388,-0.004,0.0622,-0.1024,-0.3489,0.1461,0
8,-1.0265,0.0051,0.0428,-0.1024,-0.3489,0.1461,0
8,-1.0265,0.0051,0.0428,-0.0925,-0.3848,0.1526,0
8,-0.9714,0.0377,0.0031,-0.0915,-0.3914,0.1449,0
8,-0.9163,0.0479,0.0316,-0.1155,-0.3815,0.1318,0
8,-0.9102,0.0,0.0459,-0.1842,-0.3532,0.1198,0
8,-0.95,-0.0877,0.0612,-0.1864,-0.3172,0.1079,0
8,-0.9949,-0.2183,0.1489,-0.1297,-0.2627,0.1155,0
8,-1.0224,-0.2683,0.1581,-0.0566,-0.2115,0.1406,0
8,-1.0684,-0.2724,0.1683,0.0654,-0.1537,0.1732,0
8,-1.1306,-0.2663,0.2,0.1493,-0.1112,0.2039,0
8,-1.3081,-0.2581,0.1428,0.2659,-0.1112,0.2268,0
8,-1.3081,-0.2581,0.1428,0.2659,-0.1112,0.2268,0
8,-1.3643,-0.1439,0.252,0.4426,-0.1188,0.2245,0
8,-1.4806,-0.0377,0.3846,0.424,-0.1406,0.1831,0
8,-1.4724,-0.049,0.4173,0.4208,-0.2779,0.1896,0
8,-1.2888,-0.001,0.4897,0.4742,-0.4034,0.218,0
8,-1.1744,0.0347,0.4285,0.4938,-0.4,0.2485,0
8,-0.9592,0.0652,0.4734,0.4982,-0.3357,0.2703,0
8,-0.9051,0.0806,0.5295,0.4927,-0.2159,0.2682,0
8,-0.9153,0.0357,0.6153,0.4317,-0.1155,0.1864,0
8,-0.9755,-0.0684,0.6449,0.3434,-0.0719,0.0959,0
8,-1.0357,-0.2092,0.6275,0.3434,-0.0719,0.0959,0
8,-1.0357,-0.2092,0.6275,0.3532,-0.0925,0.0326,0
8,-1.1041,-0.2408,0.6122,0.5364,-0.0872,-0.0349,0
8,-1.1296,-0.1765,0.6602,0.6497,-0.0599,-0.1155,0
8,-1.1969,-0.1714,0.652,0.6617,-0.0479,-0.1417,0
8,-1.2377,-0.1418,0.6337,0.6999,-0.0959,-0.1057,0
8,-1.2214,0.004,0.6326,0.7205,-0.1177,-0.0795,0
8,-1.1938,0.049,0.6214,0.6978,-0.1144,-0.0818,0
8,-1.1469,0.102,0.6082,0.714,-0.1079,-0.0784,0
8,-1.1091,0.1877,0.6041,0.6846,-0.1123,-0.0883,0
8,-0.954,0.2142,0.5377,0.6846,-0.1123,-0.0883,0
8,-0.9,0.2265,0.5031,0.5799,-0.1297,-0.0959,0
8,-0.9,0.2265,0.5031,0.5528,-0.0839,-0.0925,0
8,-0.8694,0.2979,0.5255,0.5221,-0.0185,-0.098,0
8,-0.8582,0.3326,0.5357,0.5221,-0.0185,-0.098,0
8,-0.8143,0.2673,0.4367,0.351,0.0108,-0.1232,0
8,-0.7949,0.301,0.4387,0.2289,-0.0011,-0.1396,0
8,-0.7877,0.2867,0.4224,0.1744,0.0011,-0.1177,0
8,-0.7673,0.2142,0.3653,-0.0599,-0.0162,-0.0969,0
8,-0.7214,0.1806,0.3275,-0.0599,-0.0162,-0.0969,0
8,-0.7173,0.1673,0.3122,-0.0599,-0.0162,-0.0969,0
8,-0.6959,0.1173,0.2704,-0.0708,-0.0152,-0.1013,0
8,-0.6735,0.0755,0.2479,-0.1406,-0.0316,-0.1089,0
8,-0.6735,0.0755,0.2479,-0.1972,-0.0621,-0.1089,0
8,-0.6592,0.0796,0.2469,-0.1831,-0.0719,-0.1329,0
8,-0.651,0.0469,0.2255,-0.1646,-0.0915,-0.1558,0
8,-0.6581,0.0275,0.2234,-0.1776,-0.1188,-0.1711,0
8,-0.6316,0.0663,0.2653,-0.1438,-0.1503,-0.1842,0
8,-0.6337,0.0775,0.2857,-0.1047,-0.1711,-0.1951,0
8,-0.6398,0.0948,0.2908,-0.1035,-0.1776,-0.1907,0
8,-0.6459,0.1357,0.3184,-0.1068,-0.1842,-0.1875,0
8,-0.6847,0.2101,0.3367,-0.1068,-0.1842,-0.1875,0
8,-0.6969,0.2245,0.3306,-0.1167,-0.1755,-0.1842,0
8,-0.6969,0.2245,0.3306,-0.1613,-0.1657,-0.2016,0
9,-0.7316,0.251,0.3306,-0.2136,-0.1428,-0.2321,0
9,-0.7643,0.2745,0.3234,-0.2617,-0.1079,-0.2464,0
9,-0.8132,0.2592,0.2806,-0.3346,-0.0883,-0.2485,0
9,-0.8204,0.2449,0.2714,-0.4187,-0.0763,-0.2474,0
9,-0.8275,0.2296,0.2663,-0.4698,-0.0654,-0.2485,0
9,-0.8214,0.2092,0.2581,-0.5135,-0.0511,-0.2518,0
9,-0.7959,0.1724,0.2622,-0.5135,-0.0511,-0.2518,0
9,-0.7898,0.1571,0.2724,-0.544,-0.0217,-0.2573,0
9,-0.7938,0.1091,0.3204,-0.5799,0.0349,-0.2617,0
9,-0.8683,0.0928,0.3949,-0.5799,0.0349,-0.2617,0
9,-0.8683,0.0928,0.3949,-0.5635,0.0698,-0.2388,0
9,-0.9326,0.1194,0.4102,-0.545,0.1155,-0.2093,0
9,-1.004,0.1571,0.4173,-0.5255,0.1558,-0.1657,0
9,-1.0684,0.1775,0.4102,-0.5418,0.1919,-0.1329,0
9,-1.1703,0.1326,0.3683,-0.5974,0.2136,-0.1155,0
9,-1.1857,0.0959,0.3459,-0.6476,0.2289,-0.1133,0
9,-1.1867,0.0622,0.3214,-0.653,0.2518,-0.1253,0
9,-1.1602,0.0357,0.3152,-0.6367,0.2856,-0.1373,0
9,-1.1571,-0.0469,0.3193,-0.6192,0.3314,-0.1493,0
9,-1.1683,-0.0847,0.3479,-0.6192,0.3314,-0.1493,0
9,-1.1938,-0.1173,0.3663,-0.6116,0.3609,-0.157,0
9,-1.1938,-0.1173,0.3663,-0.5679,0.3946,-0.1503,0
9,-1.2643,-0.2101,0.3949,-0.5135,0.4317,-0.1503,0
9,-1.2847,-0.2745,0.3969,-0.4818,0.4611,-0.1547,0
9,-1.2622,-0.3152,0.3775,-0.4557,0.4263,-0.1264,0
9,-1.2673,-0.3632,0.3867,-0.4284,0.3489,-0.0839,0
9,-1.1316,-0.4592,0.402,-0.4208,0.2747,-0.0511,0
9,-1.1744,-0.4653,0.4194,-0.4546,0.218,-0.0217,0
9,-1.0245,-0.4816,0.5153,-0.3815,0.1972,0.0534,0
9,-0.9622,-0.4877,0.4469,-0.3521,0.1547,0.1318,0
9,-0.8816,-0.5224,0.5071,-0.3521,0.1547,0.1318,0
9,-0.9428,-0.55,0.4428,-0.3336,0.193,0.1995,0
9,-0.9428,-0.55,0.4428,-0.3685,0.1907,0.2888,0
9,-0.9285,-0.501,0.4633,-0.2594,0.182,0.4263,0
9,-0.9275,-0.351,0.4806,-0.0631,0.1744,0.4557,0
9,-0.9734,-0.001,0.4908,0.0959,0.2278,0.4307,0
9,-1.0071,0.0908,0.4203,0.0969,0.267,0.4775,0
9,-0.9949,0.1418,0.3673,-0.0206,0.2703,0.5167,0
9,-0.9969,0.1653,0.3448,-0.1581,0.2802,0.5004,0
9,-1.0143,0.1398,0.301,-0.1581,0.2802,0.5004,0
9,-1.0234,0.105,0.2867,-0.2594,0.3096,0.4633,0
9,-1.0051,0.0632,0.2755,-0.3346,0.3302,0.4263,0
9,-1.0051,0.0632,0.2755,-0.4187,0.3302,0.4065,0
9,-0.9847,0.0071,0.2428,-0.4906,0.2976,0.4055,0
9,-0.9194,-0.0796,0.1683,-0.5299,0.2714,0.4,0
9,-0.8877,-0.0745,0.1387,-0.495,0.2495,0.3804,0
9,-0.8459,-0.0643,0.1255,-0.4546,0.2115,0.3619,0
9,-0.8041,-0.0989,0.0877,-0.4568,0.1558,0.3466,0
9,-0.7214,-0.0969,0.0622,-0.4252,0.098,0.3302,0
9,-0.699,-0.0745,0.0755,-0.3619,0.061,0.2998,0
9,-0.7061,-0.0939,0.0663,-0.3619,0.061,0.2998,0
9,-0.7,-0.0959,0.0652,-0.3302,0.0326,0.2737,0
9,-0.7,-0.0959,0.0652,-0.3041,-0.0043,0.2638,0
9,-0.7224,-0.0438,0.1082,-0.2518,-0.0326,0.2518,0
9,-0.7459,-0.0408,0.105,-0.2354,-0.0511,0.2464,0
9,-0.7673,-0.0428,0.1091,-0.2321,-0.0795,0.2409,0
9,-0.8214,0.004,0.1357,-0.2081,-0.1013,0.2354,0
9,-0.8489,-0.0163,0.1255,-0.2507,-0.1253,0.2071,0
9,-0.8857,-0.0286,0.1163,-0.2791,-0.1461,0.1962,0
9,-0.9142,-0.0112,0.1285,-0.2573,-0.1558,0.1776,0
9,-0.9867,-0.0051,0.1275,-0.2573,-0.1558,0.1776,0
9,-1.0173,-0.0102,0.101,-0.2409,-0.1667,0.1646,0
9,-1.0173,-0.0102,0.101,-0.2539,-0.1852,0.1537,0
9,-1.0581,0.0092,0.0948,-0.2344,-0.2115,0.1515,0
9,-1.0622,0.0224,0.0969,-0.206,-0.2398,0.1428,0
9,-1.0989,0.0224,0.0643,-0.1984,-0.2758,0.1318,0
9,-1.0948,0.0275,0.0622,-0.1875,-0.3117,0.1112,0
9,-1.0806,0.0398,0.0408,-0.1635,-0.3554,0.1013,0
9,-1.0367,0.0398,0.0551,-0.1438,-0.4023,0.0904,0
9,-0.9408,0.0286,0.0316,-0.1428,-0.4273,0.0698,0
9,-0.8928,0.0275,0.0663,-0.1308,-0.4338,0.037,0
9,-0.9061,-0.0081,0.0948,-0.1308,-0.4338,0.037,0
9,-0.9061,-0.0081,0.0948,-0.1264,-0.4099,0.0162,0
9,-0.9203,-0.0745,0.1245,-0.1526,-0.3685,0.0,0
9,-1.002,-0.1694,0.1765,-0.1318,-0.3325,-0.012,0
9,-1.0541,-0.1867,0.1949,-0.0839,-0.2878,-0.0174,0
9,-1.1122,-0.1816,0.2071,0.0,-0.2464,-0.0217,0
9,-1.1938,-0.1785,0.2133,0.0686,-0.2125,-0.0294,0
9,-1.2459,-0.1377,0.1816,0.1449,-0.2191,-0.0131,0
9,-1.2918,-0.0755,0.2265,0.206,-0.2594,-0.0043,0
9,-1.3071,-0.0234,0.2949,0.3205,-0.2529,0.025,0
9,-1.2928,0.0408,0.3163,0.3205,-0.2529,0.025,0
9,-1.2928,0.0408,0.3163,0.3477,-0.2768,0.0523,0
9,-1.2622,0.0204,0.3908,0.3237,-0.2911,0.0948,0
9,-1.1837,-0.0122,0.3857,0.2922,-0.3183,0.1308,0
9,-1.1367,-0.0092,0.3806,0.314,-0.3172,0.1635,0
9,-0.9877,0.0081,0.4326,0.3761,-0.3019,0.1984,0
9,-0.9622,-0.0469,0.4612,0.3761,-0.2474,0.2016,0
9,-0.9438,-0.1091,0.5112,0.35,-0.206,0.1732,0
9,-0.9816,-0.1765,0.5326,0.3761,-0.157,0.1068,0
9,-1.0,-0.254,0.6194,0.4404,-0.1177,0.0185,0
9,-1.0479,-0.2938,0.5908,0.4404,-0.1177,0.0185,0
9,-1.0183,-0.2724,0.6255,0.483,-0.1112,-0.0469,0
9,-1.0183,-0.2724,0.6255,0.5745,-0.1274,-0.0948,0
9,-1.0398,-0.2408,0.6214,0.6846,-0.1274,-0.1362,0
9,-1.0836,-0.1908,0.5612,0.7468,-0.0925,-0.1657,0
9,-1.1041,-0.1061,0.5265,0.7937,-0.0751,-0.1396,0
9,-1.1112,-0.0132,0.504,0.8351,-0.0698,-0.0948,0
9,-1.0939,0.05,0.502,0.8144,-0.0818,-0.0664,0
9,-1.0612,0.0541,0.4694,0.7632,-0.0904,-0.061,0
9,-1.0357,0.0847,0.4724,0.7544,-0.0969,-0.0795,0
9,-0.9836,0.1163,0.4928,0.7544,-0.0969,-0.0795,0
9,-0.9694,0.1337,0.4755,0.7642,-0.1003,-0.1079,0
9,-0.9367,0.1755,0.4306,0.7522,-0.1003,-0.1133,0
9,-0.9367,0.1755,0.4306,0.7184,-0.0883,-0.1167,0
9,-0.9203,0.2408,0.4459,0.7249,-0.0664,-0.1253,0
9,-0.8724,0.2612,0.4459,0.6574,-0.0763,-0.1209,0
9,-0.8357,0.2316,0.3928,0.5255,-0.0904,-0.1396,0
10,-0.7734,0.2234,0.3459,0.4568,-0.0872,-0.1635,0
10,-0.7428,0.202,0.3152,0.4132,-0.0839,-0.1766,0
10,-0.7183,0.1561,0.2816,0.3434,-0.098,-0.1864,0
10,-0.703,0.1316,0.2673,0.3281,-0.1024,-0.194,0
10,-0.6683,0.1091,0.2663,0.3281,-0.1024,-0.194,0
10,-0.652,0.0632,0.2571,0.3281,-0.1167,-0.2039,0
10,-0.652,0.0632,0.2571,0.2966,-0.1264,-0.2136,0
10,-0.653,0.0316,0.249,0.2966,-0.1341,-0.2289,0
10,-0.6418,0.0428,0.2581,0.3422,-0.1461,-0.2474,0
10,-0.6489,0.052,0.2643,0.3521,-0.157,-0.2617,0
10,-0.7397,0.1489,0.2898,0.3946,-0.1798,-0.2899,0
10,-0.7397,0.1489,0.2898,0.3968,-0.1886,-0.3041,0
10,-0.7551,0.1816,0.3091,0.3826,-0.206,-0.314,0
10,-0.7745,0.2357,0.3306,0.3783,-0.2224,-0.3302,0
10,-0.7918,0.2561,0.3316,0.3292,-0.2321,-0.3575,0
10,-0.8265,0.2734,0.3234,0.2617,-0.2388,-0.3695,0
10,-0.8377,0.299,0.3398,0.2289,-0.2289,-0.3838,0
10,-0.85,0.2949,0.3347,0.1722,-0.2278,-0.399,0
10,-0.855,0.2867,0.3184,0.1123,-0.2147,-0.4197,0
10,-0.8561,0.3193,0.3377,0.0839,-0.1995,-0.4448,0
10,-0.8571,0.2959,0.3296,0.0839,-0.1995,-0.4448,0
10,-0.8489,0.2673,0.3255,0.0217,-0.181,-0.4721,0
10,-0.8489,0.2673,0.3255,-0.0534,-0.1722,-0.471,0
10,-0.8479,0.254,0.3489,-0.0872,-0.157,-0.4677,0
10,-0.8837,0.2224,0.4224,-0.1297,-0.1352,-0.4655,0
10,-0.9081,0.1898,0.454,-0.1776,-0.1047,-0.4492,0
10,-0.9438,0.1847,0.4857,-0.206,-0.0763,-0.4175,0
10,-0.9836,0.1796,0.499,-0.2333,-0.037,-0.3761,0
10,-1.049,0.1857,0.4796,-0.2703,-0.0141,-0.3193,0
10,-1.0693,0.1724,0.4765,-0.3117,0.0228,-0.2987,0
10,-1.1,0.1551,0.45,-0.3117,0.0228,-0.2987,0
10,-1.1173,0.1408,0.4214,-0.3542,0.0664,-0.2834,0
10,-1.1194,0.1082,0.4173,-0.3717,0.0937,-0.2627,0
10,-1.1194,0.1082,0.4173,-0.3838,0.1406,-0.2627,0
10,-1.0979,0.103,0.4112,-0.388,0.1701,-0.2573,0
10,-1.0898,0.1071,0.3939,-0.3859,0.193,-0.2453,0
10,-1.0847,0.1214,0.402,-0.3815,0.2333,-0.2529,0
10,-1.0652,0.1,0.4601,-0.4077,0.2638,-0.2583,0
10,-1.051,0.052,0.4847,-0.4589,0.3008,-0.2495,0
10,-1.0398,-0.0163,0.5,-0.5004,0.3281,-0.2442,0
10,-1.0367,-0.0918,0.5245,-0.5167,0.3663,-0.23,0
10,-1.0,-0.1694,0.5143,-0.5167,0.3663,-0.23,0
10,-0.9653,-0.1602,0.605,-0.4763,0.3542,-0.2071,0
10,-0.9653,-0.1602,0.605,-0.4414,0.3477,-0.1744,0
10,-0.9612,-0.2296,0.5755,-0.5713,0.3456,-0.1646,0
10,-0.903,-0.3826,0.5479,-0.689,0.3466,-0.1308,0
10,-0.9122,-0.4377,0.5724,-0.6869,0.3445,-0.0457,0
10,-0.8041,-0.4918,0.5765,-0.689,0.3542,0.1035,0
10,-0.8193,-0.5867,0.5438,-0.7043,0.4,0.2344,0
10,-0.9153,-0.603,0.5214,-0.6051,0.4295,0.3859,0
10,-0.9438,-0.4908,0.5112,-0.6051,0.4295,0.3859,0
10,-0.9755,-0.3163,0.4796,-0.4044,0.4099,0.4502,0
10,-0.9888,-0.1296,0.5357,-0.2093,0.4481,0.399,0
10,-0.9888,-0.1296,0.5357,-0.1308,0.5026,0.399,0
10,-1.0061,-0.002,0.3837,-0.2234,0.471,0.4927,0
10,-0.9765,0.0336,0.3602,-0.3227,0.4492,0.5211,0
10,-0.9694,0.052,0.3479,-0.3804,0.4807,0.4797,0
10,-0.9694,0.0347,0.3275,-0.4502,0.508,0.4687,0
10,-0.9877,0.0214,0.2969,-0.4927,0.5244,0.4611,0
10,-0.953,0.0336,0.3102,-0.5299,0.5102,0.4448,0
10,-0.9377,-0.0143,0.2755,-0.6116,0.495,0.4481,0
10,-0.9224,-0.0714,0.2173,-0.6116,0.495,0.4481,0
10,-0.9224,-0.0714,0.2173,-0.6541,0.4807,0.4469,0
10,-0.8653,-0.0306,0.1898,-0.5963,0.4687,0.4273,0
10,-0.8448,-0.0377,0.1592,-0.5931,0.4361,0.4219,0
10,-0.8184,-0.0745,0.1306,-0.6345,0.387,0.4229,0
10,-0.8184,-0.0939,0.0857,-0.6018,0.3521,0.4065,0
10,-0.7898,-0.0255,0.102,-0.5287,0.326,0.3848,0
10,-0.7877,-0.0398,0.0775,-0.5374,0.2856,0.3717,0
10,-0.7979,-0.0652,0.0551,-0.5538,0.2344,0.35,0
10,-0.8143,-0.0755,0.0551,-0.5287,0.193,0.3248,0
10,-0.8408,-0.0704,0.0438,-0.4895,0.1396,0.3193,0
10,-0.8408,-0.0704,0.0438,-0.4895,0.1396,0.3193,0
10,-0.8632,-0.0775,0.0418,-0.4687,0.0915,0.3073,0
10,-0.8806,-0.0652,0.0388,-0.4361,0.0501,0.2856,0
10,-0.8908,-0.0684,0.052,-0.412,0.0032,0.2649,0
10,-0.8979,-0.0704,0.0663,-0.3979,-0.0272,0.2573,0
10,-0.9132,-0.0806,0.0571,-0.3729,-0.0479,0.2376,0
10,-0.9326,-0.0663,0.0632,-0.3248,-0.061,0.231,0
10,-0.9785,-0.0704,0.0643,-0.3063,-0.0883,0.23,0
10,-1.002,-0.0806,0.0388,-0.3107,-0.1144,0.2201,0
10,-1.0224,-0.0684,0.0388,-0.2725,-0.1482,0.2191,0
10,-1.0255,-0.0684,0.051,-0.2725,-0.1482,0.2191,0
10,-1.0255,-0.0684,0.051,-0.2268,-0.1831,0.2125,0
10,-1.053,-0.0428,0.0102,-0.1886,-0.2136,0.2093,0
10,-1.0336,-0.0286,-0.0132,-0.1221,-0.2453,0.2049,0
10,-1.0092,-0.0286,0.0459,-0.0686,-0.2802,0.2104,0
10,-0.9765,0.0204,-0.0102,-0.0806,-0.3008,0.194,0
10,-0.9102,0.0306,0.0031,-0.0894,-0.3183,0.1722,0
10,-0.9622,0.0153,0.0255,-0.0589,-0.2802,0.1461,0
10,-0.9826,-0.0102,0.0581,-0.0523,-0.2474,0.1198,0
10,-1.0193,-0.0806,0.1214,-0.061,-0.2224,0.1047,0
10,-1.1265,-0.1459,0.203,-0.061,-0.2224,0.1047,0
10,-1.1622,-0.1785,0.1857,-0.0261,-0.2136,0.0969,0
10,-1.1622,-0.1785,0.1857,0.024,-0.206,0.0925,0
10,-1.2561,-0.1806,0.2173,0.0774,-0.181,0.0992,0
10,-1.3143,-0.1816,0.2581,0.1657,-0.2016,0.1242,0
10,-1.4173,-0.0388,0.249,0.2682,-0.2234,0.1547,0
10,-1.3612,-0.0092,0.3612,0.3532,-0.2518,0.1755,0
10,-1.2898,0.0061,0.2622,0.3205,-0.3019,0.2027,0
10,-1.2632,0.0275,0.2388,0.3838,-0.314,0.2693,0
10,-1.0316,0.0418,0.2867,0.3946,-0.2911,0.3117,0
10,-0.9642,-0.0224,0.2867,0.3946,-0.2911,0.3117,0
10,-0.9449,-0.0806,0.2888,0.3771,-0.2147,0.3554,0
10,-0.9449,-0.0806,0.2888,0.4109,-0.1232,0.375,0
10,-0.9408,-0.1082,0.4306,0.4677,-0.0414,0.3597,0
10,-1.2908,-0.3448,0.3408,0.4524,0.0457,0.326,0
10,-1.0959,-0.5071,0.3714,0.4807,-0.0217,0.2442,0
10,-1.2245,-0.4071,0.4173,0.8078,-0.0087,0.1558,0
10,-1.1724,-0.3561,0.4908,0.9059,-0.0566,0.086,0
11,-1.2285,-0.301,0.4061,0.9605,-0.1678,0.0719,0
11,-1.1102,-0.1316,0.4979,1.1447,-0.218,0.0589,0
11,-1.151,0.001,0.4959,1.2145,-0.2104,0.0316,0
11,-1.1183,0.0438,0.4765,1.2145,-0.2104,0.0316,0
11,-1.1245,0.1183,0.5112,1.1873,-0.2169,0.0185,0
11,-1.1245,0.1183,0.5112,1.2254,-0.2039,-0.0032,0
11,-1.0643,0.202,0.5408,1.2319,-0.2159,-0.0414,0
11,-1.0418,0.2051,0.5031,1.1688,-0.2147,-0.036,0
11,-0.9847,0.301,0.5388,1.1306,-0.1951,-0.0675,0
11,-0.951,0.3816,0.5173,1.0772,-0.1755,-0.0925,0
11,-0.8939,0.3571,0.4316,0.8285,-0.2093,-0.0915,0
11,-0.8398,0.4265,0.4183,0.7697,-0.194,-0.1264,0
11,-0.8091,0.4183,0.3928,0.6486,-0.1984,-0.1842,0
11,-0.7775,0.3877,0.3663,0.5124,-0.2104,-0.2115,0
11,-0.7571,0.3724,0.352,0.4088,-0.2159,-0.1984,0
11,-0.7101,0.2836,0.3112,0.2899,-0.2213,-0.2005,0
11,-0.6796,0.25,0.2816,0.2344,-0.2268,-0.242,0
11,-0.6642,0.2173,0.2643,0.2344,-0.2268,-0.242,0
11,-0.6571,0.1857,0.2592,0.23,-0.2115,-0.2867,0
11,-0.6571,0.1857,0.2592,0.2147,-0.1864,-0.2998,0
11,-0.6642,0.1275,0.2551,0.193,-0.1962,-0.2725,0
11,-0.6632,0.1071,0.2602,0.1919,-0.2104,-0.2834,0
11,-0.6673,0.1091,0.2724,0.2147,-0.2093,-0.3205,0
11,-0.6877,0.1245,0.2795,0.2333,-0.2125,-0.3489,0
11,-0.7224,0.1581,0.301,0.2529,-0.2136,-0.387,0
11,-0.7388,0.1949,0.3204,0.2617,-0.2213,-0.4109,0
11,-0.7561,0.2265,0.3367,0.2354,-0.2388,-0.4187,0
11,-0.7734,0.25,0.3357,0.2354,-0.2388,-0.4187,0
11,-0.7734,0.25,0.3357,0.1886,-0.2529,-0.4252,0
11,-0.7724,0.2734,0.35,0.1635,-0.2398,-0.4328,0
11,-0.7826,0.2949,0.3439,0.1274,-0.2256,-0.4437,0
11,-0.7928,0.3265,0.3377,0.0763,-0.2125,-0.4458,0
11,-0.7979,0.3796,0.3347,0.0108,-0.1995,-0.4393,0
11,-0.7959,0.3755,0.3102,-0.0872,-0.1852,-0.4469,0
11,-0.7551,0.2857,0.3051,-0.1678,-0.1581,-0.4481,0
11,-0.8061,0.3714,0.2816,-0.206,-0.1384,-0.4546,0
11,-0.7765,0.3582,0.3255,-0.2268,-0.0904,-0.483,0
11,-0.7428,0.2622,0.2908,-0.3445,-0.0654,-0.4992,0
11,-0.7428,0.2622,0.2908,-0.3445,-0.0654,-0.4992,0
11,-0.7499,0.2388,0.3306,-0.3761,-0.0425,-0.4763,0
11,-0.7602,0.2581,0.3694,-0.3729,-0.0021,-0.4633,0
11,-0.7918,0.1806,0.4275,-0.4469,0.0698,-0.4513,0
11,-0.7938,0.1449,0.4244,-0.4775,0.1329,-0.3891,0
11,-0.8582,0.1449,0.4235,-0.4666,0.2147,-0.3368,0
11,-0.9081,0.1234,0.4153,-0.4906,0.2922,-0.2987,0
11,-1.0418,0.0673,0.3398,-0.4818,0.3477,-0.2518,0
11,-1.0163,0.0295,0.3234,-0.4633,0.3979,-0.2354,0
11,-1.0826,0.0734,0.3275,-0.3729,0.424,-0.1602,0
11,-1.0204,0.0796,0.3102,-0.3729,0.424,-0.1602,0
11,-1.0204,0.0796,0.3102,-0.3914,0.4643,-0.1667,0
11,-1.1285,0.053,0.3643,-0.3783,0.5473,-0.1537,0
11,-1.1122,0.105,0.3969,-0.3096,0.5494,-0.1003,0
11,-1.2377,0.0714,0.4255,-0.3739,0.6432,-0.1438,0
11,-1.3061,0.0051,0.403,-0.3903,0.6291,-0.1744,0
11,-1.301,-0.0745,0.45,-0.4132,0.5822,-0.1798,0
11,-1.2908,-0.1143,0.3857,-0.545,0.4982,-0.2049,0
11,-1.2296,-0.2704,0.3877,-0.6072,0.4065,-0.1962,0
11,-1.1867,-0.3908,0.3939,-0.6715,0.3346,-0.1396,0
11,-1.1673,-0.4326,0.3949,-0.6715,0.3346,-0.1396,0
11,-1.0704,-0.5347,0.4102,-0.6944,0.2737,-0.0675,0
11,-1.0704,-0.5347,0.4102,-0.6562,0.2495,0.0,0
11,-1.1326,-0.6275,0.3959,-0.5364,0.2856,0.2365,0
11,-1.1122,-0.5438,0.4337,-0.3935,0.2638,0.5385,0
11,-1.1326,-0.5551,0.4296,-0.1875,0.2409,0.5528,0
11,-1.0541,-0.2449,0.4622,-0.0686,0.1711,0.4229,0
11,-1.0663,-0.0612,0.4408,-0.0479,0.1886,0.3783,0
11,-1.0265,0.0918,0.3479,-0.1526,0.1962,0.3946,0
11,-1.0438,0.1367,0.2969,-0.2485,0.2321,0.3761,0
11,-1.0122,0.1847,0.2877,-0.2485,0.2321,0.3761,0
11,-1.0051,0.1663,0.2928,-0.3183,0.2573,0.3271,0
11,-1.0051,0.1663,0.2928,-0.4458,0.2998,0.2802,0
11,-1.0214,0.0265,0.2561,-0.5473,0.3161,0.2659,0
11,-0.9918,0.0102,0.2531,-0.5549,0.2954,0.267,0
11,-0.9796,-0.0224,0.2285,-0.5931,0.2922,0.2507,0
11,-0.9622,-0.0765,0.1806,-0.5974,0.2703,0.2453,0
11,-0.8867,-0.0786,0.0969,-0.5461,0.2344,0.2344,0
11,-0.8622,-0.0979,0.0867,-0.5211,0.1972,0.2125,0
11,-0.8306,-0.1071,0.0428,-0.4927,0.1406,0.1995,0
11,-0.7714,-0.1061,0.0214,-0.4927,0.1406,0.1995,0
11,-0.7194,-0.0806,0.0143,-0.4263,0.0828,0.1886,0
11,-0.704,-0.0857,0.0081,-0.3924,0.0402,0.1657,0
11,-0.704,-0.0857,0.0081,-0.387,0.0,0.1341,0
11,-0.6938,-0.0928,0.0183,-0.3412,-0.0402,0.1232,0
11,-0.6969,-0.0714,0.0336,-0.3041,-0.0686,0.1242,0
11,-0.7397,-0.0724,0.0673,-0.2954,-0.1003,0.1177,0
11,-0.7622,-0.0652,0.0796,-0.2779,-0.1384,0.1264,0
11,-0.799,-0.0663,0.0898,-0.2812,-0.1667,0.1329,0
11,-0.8398,-0.0877,0.0939,-0.2943,-0.181,0.1232,0
11,-0.9316,-0.0806,0.0948,-0.2659,-0.1951,0.1188,0
11,-0.9734,-0.0745,0.0836,-0.2659,-0.1951,0.1188,0
11,-1.0326,-0.0551,0.0684,-0.2398,-0.2201,0.1167,0
11,-1.0326,-0.0551,0.0684,-0.2147,-0.2495,0.1188,0
11,-1.1153,-0.0265,0.0602,-0.2005,-0.2911,0.1188,0
11,-1.1489,-0.0143,0.0367,-0.1842,-0.3346,0.1133,0
11,-1.1735,0.001,0.0234,-0.1449,-0.3838,0.1035,0
11,-1.1683,0.0255,0.0336,-0.1133,-0.4273,0.0883,0
11,-1.1449,0.0418,0.0132,-0.1112,-0.4731,0.0698,0
11,-1.1082,0.0428,0.0071,-0.1024,-0.52,0.0545,0
11,-1.0663,0.0428,0.0031,-0.0904,-0.5604,0.0349,0
11,-0.9949,0.0163,0.0224,-0.0904,-0.5604,0.0349,0
11,-0.9949,0.0163,0.0224,-0.0872,-0.5658,0.012,0
11,-0.9663,-0.0734,0.053,-0.0872,-0.5505,-0.0021,0
11,-0.9653,-0.1224,0.0898,-0.049,-0.5233,-0.0097,0
11,-0.9755,-0.1673,0.1153,-0.0272,-0.483,-0.0021,0
11,-1.0,-0.2245,0.1346,0.0065,-0.4513,0.0326,0
11,-1.0663,-0.2938,0.15,0.0751,-0.4481,0.0774,0
11,-1.1285,-0.3051,0.1306,0.1558,-0.4524,0.1297,0
11,-1.1938,-0.3061,0.1143,0.2682,-0.4731,0.1852,0
11,-1.1928,-0.2836,0.0989,0.4273,-0.4971,0.2344,0
12,-1.2551,-0.1306,0.1082,0.581,-0.5047,0.2649,0
12,-1.2551,-0.1306,0.1082,0.581,-0.5047,0.2649,0
12,-1.2602,-0.0684,0.153,0.6749,-0.532,0.2922,0
12,-1.2357,-0.0459,0.1908,0.7369,-0.5745,0.3096,0
12,-1.1877,-0.052,0.2622,0.7926,-0.5734,0.3052,0
12,-1.1102,-0.0755,0.3969,0.8656,-0.5614,0.3052,0
12,-0.9857,-0.0336,0.4469,0.9158,-0.5647,0.3292,0
12,-0.9051,-0.051,0.454,0.9092,-0.4807,0.3422,0
12,-0.8989,-0.0612,0.4622,0.9692,-0.3804,0.3205,0
12,-0.953,0.0459,0.6551,0.967,-0.2932,0.2529,0
12,-1.0224,-0.0153,0.7592,0.8199,-0.243,0.1558,0
12,-1.0847,-0.2377,0.7245,0.9551,-0.2649,-0.0097,0
12,-1.1367,-0.1102,0.651,0.9551,-0.2649,-0.0097,0
12,-1.151,-0.0132,0.6255,1.1436,-0.2191,-0.0818,0
12,-1.1826,0.1071,0.602,1.2308,-0.1864,-0.1068,0
12,-1.1826,0.1071,0.602,1.2134,-0.1919,-0.0784,0
12,-1.1337,0.2469,0.5714,1.1022,-0.242,-0.073,0
12,-1.0816,0.2928,0.5786,0.9822,-0.2878,-0.036,0
12,-1.0367,0.3061,0.602,0.9822,-0.2878,-0.036,0
12,-0.9449,0.2571,0.5898,0.6869,-0.3193,-0.0664,0
12,-0.7745,0.2101,0.5826,0.6726,-0.2943,-0.1079,0
12,-0.7326,0.249,0.5745,0.6726,-0.2943,-0.1079,0
12,-0.7092,0.2592,0.5561,0.5952,-0.1886,-0.1198,0
12,-0.6867,0.2571,0.5336,0.5952,-0.1886,-0.1198,0
12,-0.6367,0.3112,0.4826,0.5952,-0.1886,-0.1198,0
12,-0.6367,0.3112,0.4826,0.5135,-0.1396,-0.0894,0
12,-0.6428,0.2938,0.4418,0.4197,-0.1144,-0.036,0
12,-0.6367,0.2418,0.3887,0.2768,-0.098,-0.0206,0
12,-0.6194,0.2326,0.3306,0.1428,-0.0969,-0.1329,0
12,-0.6367,0.2183,0.2704,0.1428,-0.0969,-0.1329,0
12,-0.6387,0.1877,0.2224,0.0839,-0.0904,-0.1776,0
12,-0.6143,0.1551,0.2122,0.0228,-0.1253,-0.1886,0
12,-0.6173,0.1306,0.2245,0.0053,-0.1547,-0.1591,0
12,-0.6153,0.0663,0.2285,0.0053,-0.1547,-0.1591,0
12,-0.6153,0.0663,0.2285,-0.0011,-0.1744,-0.1373,0
12,-0.6153,0.0622,0.2357,0.0174,-0.206,-0.1515,0
12,-0.6224,0.0684,0.2693,0.0675,-0.218,-0.1995,0
12,-0.6265,0.0775,0.2959,0.1123,-0.2278,-0.2453,0
12,-0.6204,0.103,0.3459,0.1362,-0.2507,-0.2539,0
12,-0.65,0.1245,0.3775,0.1286,-0.2747,-0.2562,0
12,-0.6642,0.1673,0.4081,0.1198,-0.2659,-0.255,0
12,-0.7,0.202,0.4132,0.0894,-0.2627,-0.2365,0
12,-0.7867,0.2836,0.4235,0.0174,-0.2376,-0.2256,0
12,-0.8193,0.3245,0.4163,-0.0392,-0.23,-0.2081,0
12,-0.8632,0.3234,0.3969,-0.0392,-0.23,-0.2081,0
12,-0.8632,0.3234,0.3969,-0.1286,-0.2191,-0.1984,0
12,-0.903,0.3286,0.3765,-0.2289,-0.1995,-0.1962,0
12,-0.951,0.2786,0.3571,-0.2976,-0.182,-0.1875,0
12,-0.9653,0.2397,0.3347,-0.3717,-0.1613,-0.1776,0
12,-0.9867,0.2612,0.301,-0.424,-0.1362,-0.1581,0
12,-0.9755,0.1806,0.3163,-0.4077,-0.1112,-0.194,0
12,-0.9938,0.1296,0.2857,-0.3946,-0.086,-0.23,0
12,-0.9969,0.103,0.2836,-0.3794,-0.0654,-0.2583,0
12,-0.9888,0.0796,0.2806,-0.3227,-0.074,-0.2812,0
12,-0.9826,0.0959,0.355,-0.3227,-0.074,-0.2812,0
12,-0.9826,0.0959,0.355,-0.2638,-0.0763,-0.3117,0
12,-0.9601,0.0979,0.3908,-0.2039,-0.0904,-0.3096,0
12,-0.9622,0.0745,0.4337,-0.1886,-0.098,-0.3063,0
12,-0.9601,0.0684,0.4581,-0.1951,-0.0784,-0.2802,0
12,-0.951,0.0786,0.5061,-0.1787,-0.0686,-0.2278,0
12,-0.9581,0.1,0.5122,-0.1755,-0.0185,-0.1951,0
12,-0.9592,0.1408,0.5112,-0.1581,0.0349,-0.169,0
12,-0.9785,0.1959,0.5092,-0.1384,0.098,-0.1406,0
12,-1.0153,0.2898,0.4622,-0.1537,0.1613,-0.1112,0
12,-1.0275,0.2949,0.4265,-0.1537,0.1613,-0.1112,0
12,-1.0275,0.3132,0.4203,-0.2081,0.2005,-0.1003,0
12,-1.0275,0.3132,0.4203,-0.2682,0.2321,-0.1035,0
12,-1.0306,0.2908,0.4255,-0.3292,0.2562,-0.1188,0
12,-1.0418,0.2142,0.4816,-0.4055,0.2844,-0.1428,0
12,-1.0255,0.1663,0.5193,-0.4622,0.2966,-0.1613,0
12,-1.0275,0.1082,0.5755,-0.5179,0.3357,-0.1864,0
12,-1.0031,0.0214,0.6316,-0.5963,0.3771,-0.1962,0
12,-1.0234,-0.0622,0.7367,-0.6541,0.4132,-0.194,0
12,-1.0153,-0.0449,0.7888,-0.6682,0.4448,-0.1886,0
12,-0.9469,-0.1041,0.7347,-0.6682,0.4448,-0.1886,0
12,-0.9459,-0.1653,0.704,-0.7664,0.4524,-0.182,0
12,-0.9408,-0.3816,0.5652,-0.9311,0.4938,-0.1406,0
12,-0.9408,-0.3816,0.5652,-1.0913,0.5145,-0.036,0
12,-0.9867,-0.4296,0.4949,-1.1698,0.5255,0.0969,0
12,-1.05,-0.499,0.4357,-1.1272,0.5528,0.2344,0
12,-1.1091,-0.4551,0.4203,-0.9278,0.5429,0.3729,0
12,-1.199,-0.3326,0.5071,-0.6869,0.5353,0.4372,0
12,-1.1806,-0.2388,0.4775,-0.5593,0.5189,0.3891,0
12,-1.1816,-0.1887,0.451,-0.5679,0.4187,0.3859,0
12,-1.1245,-0.002,0.4112,-0.5614,0.3771,0.4372,0
12,-1.1,0.0479,0.3785,-0.5614,0.3771,0.4372,0
12,-1.0898,0.0939,0.355,-0.5538,0.3521,0.4469,0
12,-1.0898,0.0939,0.355,-0.6116,0.3422,0.4481,0
12,-1.0428,0.1224,0.3469,-0.6705,0.3271,0.4382,0
12,-0.999,0.0847,0.3081,-0.7522,0.3161,0.4023,0
12,-0.9826,0.0326,0.2479,-0.8668,0.2932,0.3848,0
12,-0.9479,0.0071,0.2122,-0.9223,0.2583,0.3685,0
12,-0.9132,0.0051,0.203,-0.9168,0.2333,0.3302,0
12,-0.8306,-0.0806,0.1408,-0.9441,0.1831,0.3041,0
12,-0.8071,-0.101,0.1204,-0.954,0.1253,0.2878,0
12,-0.7724,-0.0969,0.1194,-0.954,0.1253,0.2878,0
12,-0.7438,-0.0836,0.1306,-0.9082,0.0872,0.2682,0
12,-0.7438,-0.0836,0.1306,-0.8504,0.0643,0.2453,0
12,-0.754,-0.1367,0.0877,-0.8395,0.036,0.23,0
12,-0.7479,-0.1377,0.1102,-0.8166,0.0065,0.2147,0
12,-0.7479,-0.1469,0.1102,-0.7718,-0.0316,0.2016,0
12,-0.7643,-0.1551,0.1132,-0.7457,-0.0675,0.206,0
12,-0.7836,-0.1663,0.1041,-0.7239,-0.1047,0.2104,0
12,-0.7816,-0.152,0.1143,-0.6901,-0.1503,0.2191,0
12,-0.7857,-0.1479,0.1061,-0.6585,-0.1875,0.23,0
12,-0.7826,-0.1387,0.0939,-0.6585,-0.1875,0.23,0
12,-0.7826,-0.1387,0.0939,-0.6225,-0.2169,0.2321,0
12,-0.7795,-0.0765,0.1061,-0.5604,-0.2344,0.231,0
12,-0.7888,-0.0561,0.1041,-0.5145,-0.2529,0.2344,0
12,-0.7847,-0.0449,0.1061,-0.5036,-0.2791,0.2365,0
12,-0.7918,-0.0214,0.102,-0.4742,-0.2954,0.2453,0
13,-0.8265,0.05,0.102,-0.4426,-0.2867,0.2495,0
13,-0.8255,0.0551,0.105,-0.4524,-0.2823,0.2507,0
13,-0.8275,0.0643,0.0867,-0.471,-0.2932,0.2562,0
13,-0.8336,0.0734,0.0734,-0.4862,-0.3019,0.2703,0
13,-0.8459,0.0693,0.0367,-0.4982,-0.314,0.2779,0
13,-0.8459,0.0693,0.0367,-0.4982,-0.314,0.2779,0
13,-0.8061,0.0765,0.0591,-0.4982,-0.3096,0.2714,0
13,-0.8122,0.0693,0.0479,-0.5091,-0.3107,0.2529,0
13,-0.852,-0.001,0.0928,-0.5385,-0.2844,0.2321,0
13,-0.8949,-0.0714,0.1306,-0.5614,-0.2365,0.2115,0
13,-1.1938,-0.2214,0.254,-0.5036,-0.1438,0.182,0
13,-1.2908,-0.2561,0.2969,-0.4338,-0.0818,0.1755,0
13,-1.2908,-0.2561,0.2969,-0.3771,-0.0621,0.1842,0
13,-1.4796,-0.2795,0.3336,-0.3216,-0.0545,0.1798,0
13,-1.6346,-0.2693,0.3755,-0.2136,-0.0664,0.1591,0
13,-1.6275,-0.1683,0.4867,-0.073,-0.1646,0.1493,0
13,-1.4806,-0.1204,0.4775,0.036,-0.3107,0.1995,0
13,-1.2142,-0.1153,0.4785,0.0818,-0.4492,0.2899,0
13,-1.1194,-0.0398,0.4888,0.1766,-0.4208,0.351,0
13,-0.9653,0.0939,0.6816,0.2812,-0.2758,0.3445,0
13,-0.9653,0.0939,0.6816,0.2812,-0.2758,0.3445,0
13,-0.9398,0.0204,0.7092,0.2474,-0.1732,0.3128,0
13,-0.9163,-0.1112,0.702,0.1329,-0.0839,0.2693,0
13,-0.9235,-0.202,0.6398,0.1079,-0.0261,0.1995,0
13,-0.9612,-0.2622,0.6673,0.2147,0.0631,0.1047,0
13,-1.0326,-0.2949,0.6367,0.3063,0.1711,0.0108,0
13,-1.0918,-0.3163,0.6449,0.3739,0.2268,-0.0534,0
13,-1.1377,-0.2938,0.6316,0.4611,0.2169,-0.0872,0
13,-1.201,-0.2469,0.6143,0.5331,0.2081,-0.1133,0
13,-1.2377,-0.2245,0.5928,0.5887,0.2398,-0.1286,0
13,-1.2133,-0.1642,0.5571,0.5887,0.2398,-0.1286,0
13,-1.2133,-0.1642,0.5571,0.665,0.1907,-0.1047,0
13,-1.151,0.0418,0.5275,0.7751,0.1318,-0.0719,0
13,-1.0551,0.1163,0.501,0.8056,0.1123,-0.061,0
13,-1.0581,0.1703,0.4673,0.7958,0.0839,-0.0501,0
13,-1.0541,0.2336,0.4438,0.7697,0.0818,-0.0381,0
13,-1.0031,0.2786,0.452,0.6835,0.049,-0.0577,0
13,-0.949,0.3,0.4571,0.5974,0.0402,-0.061,0
13,-0.9275,0.2938,0.4235,0.4992,0.0131,-0.0643,0
13,-0.8918,0.2765,0.403,0.3924,-0.0076,-0.0904,0
13,-0.8132,0.2622,0.3622,0.3128,-0.0349,-0.1428,0
13,-0.7622,0.2408,0.3418,0.3128,-0.0349,-0.1428,0
13,-0.7622,0.2408,0.3418,0.2388,-0.0621,-0.1842,0
13,-0.7428,0.2153,0.3163,0.1602,-0.0774,-0.2245,0
13,-0.7051,0.1887,0.3071,0.0992,-0.0883,-0.2529,0
13,-0.6724,0.1265,0.2816,0.0589,-0.0925,-0.2844,0
13,-0.6551,0.0826,0.2806,0.036,-0.098,-0.3031,0
13,-0.6489,0.0612,0.2653,0.0217,-0.1057,-0.3216,0
13,-0.6408,0.0377,0.2643,0.0228,-0.1089,-0.339,0
13,-0.6398,0.0306,0.2357,0.0425,-0.1167,-0.3532,0
13,-0.653,0.049,0.2469,0.085,-0.1274,-0.3804,0
13,-0.6847,0.0734,0.25,0.085,-0.1274,-0.3804,0
13,-0.6918,0.1082,0.249,0.1242,-0.1341,-0.4044,0
13,-0.6918,0.1082,0.249,0.1461,-0.1701,-0.4153,0
13,-0.7428,0.1653,0.2704,0.1503,-0.1972,-0.4307,0
13,-0.7397,0.201,0.2806,0.1438,-0.2333,-0.4437,0
13,-0.7561,0.2275,0.2826,0.1123,-0.2573,-0.4851,0
13,-0.7693,0.2561,0.2928,0.0763,-0.2573,-0.5341,0
13,-0.7786,0.3112,0.2979,0.0294,-0.2573,-0.5702,0
13,-0.7806,0.3071,0.2847,-0.0446,-0.2388,-0.5757,0
13,-0.7704,0.3,0.2908,-0.0992,-0.2191,-0.5473,0
13,-0.7724,0.2765,0.2806,-0.0992,-0.2191,-0.5473,0
13,-0.7724,0.2081,0.2622,-0.1613,-0.1951,-0.5364,0
13,-0.7724,0.2081,0.2622,-0.2125,-0.1701,-0.545,0
13,-0.7673,0.1663,0.2734,-0.218,-0.1406,-0.5669,0
13,-0.7643,0.1316,0.3102,-0.2398,-0.1047,-0.5833,0
13,-0.7786,0.0898,0.3296,-0.2398,-0.0784,-0.5635,0
13,-0.8296,0.0469,0.3928,-0.2234,-0.036,-0.5461,0
13,-0.8653,0.0071,0.4235,-0.2464,0.0294,-0.5265,0
13,-0.9357,0.0183,0.4203,-0.2093,0.073,-0.4295,0
13,-1.0204,0.001,0.4387,-0.2115,0.1232,-0.3968,0
13,-1.0673,0.0,0.4214,-0.2115,0.1232,-0.3968,0
13,-1.051,-0.002,0.3989,-0.2278,0.1776,-0.3739,0
13,-1.051,-0.002,0.3989,-0.1875,0.1842,-0.3183,0
13,-1.101,-0.0102,0.402,-0.1547,0.2802,-0.3336,0
13,-1.0663,0.0541,0.4092,-0.085,0.3237,-0.3248,0
13,-1.1122,0.0459,0.4285,-0.085,0.3717,-0.3073,0
13,-1.1449,0.0449,0.4561,-0.1079,0.4307,-0.3237,0
13,-1.2051,0.052,0.5092,-0.1089,0.4818,-0.3183,0
13,-1.4071,-0.0663,0.5193,-0.1678,0.5265,-0.3325,0
13,-1.3785,-0.1612,0.553,-0.2268,0.5287,-0.387,0
13,-1.3591,-0.25,0.6173,-0.2649,0.4655,-0.4338,0
13,-1.2734,-0.3571,0.5684,-0.2649,0.4655,-0.4338,0
13,-1.0336,-0.4459,0.5908,-0.3063,0.3336,-0.4338,0
13,-1.0336,-0.4459,0.5908,-0.3085,0.2539,-0.388,0
13,-0.8989,-0.5173,0.6071,-0.3292,0.2627,-0.2682,0
13,-0.8489,-0.5193,0.6357,-0.3706,0.3302,-0.0828,0
13,-0.8428,-0.5684,0.5388,-0.4284,0.388,0.1188,0
13,-0.9592,-0.6387,0.5928,-0.3891,0.3979,0.2768,0
13,-0.9714,-0.5887,0.4857,-0.231,0.3674,0.2562,0
13,-1.0183,-0.6194,0.4153,-0.0751,0.3107,0.2518,0
13,-1.1071,-0.4724,0.4816,0.1798,0.3685,0.2388,0
13,-1.1071,-0.4724,0.4816,0.1798,0.3685,0.2388,0
13,-1.1592,-0.1265,0.5173,0.3958,0.3532,0.2344,0
13,-1.1959,0.0786,0.5265,0.3401,0.2976,0.3128,0
13,-1.204,0.0724,0.4081,0.1079,0.2442,0.3227,0
13,-1.1581,0.0704,0.3632,-0.0664,0.2136,0.3117,0
13,-1.1306,0.1275,0.3316,-0.0839,0.2289,0.2714,0
13,-1.0265,0.1112,0.355,-0.1373,0.218,0.2256,0
13,-1.0265,0.0153,0.3193,-0.2725,0.2268,0.193,0
13,-0.8459,-0.1132,0.2704,-0.3205,0.1852,0.1787,0
13,-0.8377,-0.1377,0.2377,-0.3096,0.1678,0.169,0
13,-0.7479,-0.1694,0.1959,-0.3096,0.1678,0.169,0
13,-0.7479,-0.1694,0.1959,-0.2823,0.169,0.1646,0
13,-0.7101,-0.1602,0.1653,-0.2115,0.1657,0.157,0
13,-0.6204,-0.1265,0.1398,-0.1701,0.1318,0.1591,0
13,-0.5877,-0.1653,0.0714,-0.1842,0.0883,0.1602,0
13,-0.5643,-0.1296,0.0724,-0.1198,0.0631,0.1526,0
14,-0.5336,-0.0836,0.1,-0.0654,0.0566,0.1373,0
14,-0.5479,-0.1061,0.0622,-0.1013,0.0196,0.1253,0
14,-0.5102,-0.1428,0.0224,-0.1396,-0.0381,0.1068,0
14,-0.5234,-0.0969,0.0326,-0.0904,-0.0501,0.0894,0
14,-0.5581,-0.0632,0.0745,-0.0904,-0.0501,0.0894,0
14,-0.605,-0.0693,0.0745,-0.0261,-0.0675,0.0948,0
14,-0.605,-0.0693,0.0745,-0.0435,-0.1112,0.0948,0
14,-0.6622,-0.049,0.0989,-0.025,-0.1198,0.0894,0
14,-0.7194,-0.0428,0.1214,-0.0087,-0.1384,0.0915,0
14,-0.7969,-0.0612,0.1194,-0.0261,-0.1646,0.1013,0
14,-0.9357,-0.0561,0.15,-0.0196,-0.1995,0.098,0
14,-0.9918,-0.0571,0.1622,-0.0381,-0.2321,0.0818,0
14,-1.0908,-0.0663,0.1428,-0.0446,-0.3227,0.1035,0
14,-1.1561,-0.0418,0.1612,-0.025,-0.3466,0.1079,0
14,-1.1592,-0.004,0.1428,0.0065,-0.387,0.1232,0
14,-1.1275,0.0286,0.1449,0.0392,-0.4252,0.1515,0
14,-1.1091,0.0887,0.1367,0.0228,-0.4448,0.1766,0
14,-0.951,0.1214,0.1132,0.0228,-0.4448,0.1766,0
14,-0.9194,0.1153,0.1459,-0.0131,-0.4742,0.1842,0
14,-0.9194,0.1153,0.1459,-0.0621,-0.4481,0.1744,0
14,-0.8887,0.0857,0.1928,-0.1232,-0.4034,0.1646,0
14,-0.8918,0.0398,0.2122,-0.1711,-0.35,0.181,0
14,-0.9326,0.0153,0.2449,-0.1831,-0.2844,0.2039,0
14,-0.9857,0.0061,0.2469,-0.2159,-0.206,0.2213,0
14,-1.0428,-0.0428,0.2704,-0.2539,-0.1558,0.2464,0
14,-1.1653,-0.1408,0.2428,-0.2594,-0.1264,0.2627,0
14,-1.2163,-0.201,0.2326,-0.2191,-0.1035,0.2823,0
14,-1.2163,-0.201,0.2326,-0.2191,-0.1035,0.2823,0
14,-1.2112,-0.2224,0.1959,-0.1373,-0.1373,0.3401,0
14,-1.203,-0.1938,0.1959,0.0,-0.157,0.3946,0
14,-1.1949,-0.1346,0.2449,0.0818,-0.1482,0.4263,0
14,-1.2142,-0.1469,0.2745,0.1242,-0.1526,0.4524,0
14,-1.2622,-0.1428,0.351,0.1831,-0.1297,0.4372,0
14,-1.3367,-0.1296,0.4244,0.2409,-0.1329,0.3946,0
14,-1.2234,-0.2194,0.5816,0.2834,-0.1787,0.3434,0
14,-1.1469,-0.2255,0.6744,0.3554,-0.1962,0.2899,0
14,-1.0581,-0.2071,0.7061,0.399,-0.2049,0.2333,0
14,-1.1091,-0.1938,0.7979,0.399,-0.2049,0.2333,0
14,-1.1091,-0.1938,0.7979,0.4372,-0.1341,0.169,0
14,-1.0112,-0.2867,0.8785,0.4109,-0.1493,0.0915,0
14,-0.9061,-0.3132,0.8316,0.4175,-0.1667,0.073,0
14,-0.8714,-0.2357,0.754,0.5418,-0.0925,0.0555,0
14,-0.9173,-0.0836,0.7459,0.628,0.0501,0.0131,0
14,-1.0652,0.0143,0.651,0.544,0.1352,0.0032,0
14,-1.1173,0.0051,0.602,0.4307,0.1341,0.0097,0
14,-1.1194,0.0204,0.6061,0.3804,0.1221,-0.0087,0
14,-1.1428,0.0071,0.6204,0.3216,0.1362,-0.012,0
14,-1.1163,-0.0724,0.5714,0.2954,0.1591,-0.0196,0
14,-1.1214,-0.051,0.5581,0.2954,0.1591,-0.0196,0
14,-1.1214,-0.051,0.5581,0.3346,0.2136,-0.0479,0
14,-1.0786,-0.0377,0.5398,0.3456,0.2169,-0.0402,0
14,-1.0612,-0.0898,0.4704,0.3117,0.2224,-0.0446,0
14,-0.9714,-0.0948,0.4092,0.3935,0.2268,-0.0555,0
14,-0.902,-0.0336,0.3969,0.4698,0.2136,-0.0435,0
14,-0.8632,-0.0275,0.351,0.4481,0.2027,-0.0305,0
14,-0.8,0.0061,0.3163,0.4841,0.1842,-0.0185,0
14,-0.7204,0.1204,0.3102,0.4643,0.1852,-0.0087,0
14,-0.6928,0.103,0.2632,0.375,0.1635,-0.0076,0
14,-0.6612,0.1122,0.2408,0.375,0.1635,-0.0076,0
14,-0.6479,0.1877,0.2571,0.351,0.1384,-0.0108,0
14,-0.6479,0.1877,0.2571,0.3422,0.1188,-0.0206,0
14,-0.6255,0.1694,0.2255,0.2539,0.0664,-0.0643,0
14,-0.6132,0.1703,0.202,0.1919,0.0228,-0.1112,0
14,-0.5979,0.199,0.2183,0.1875,-0.0108,-0.1286,0
14,-0.6082,0.202,0.2173,0.1253,-0.0381,-0.1623,0
14,-0.5959,0.202,0.2173,0.0566,-0.085,-0.1798,0
14,-0.6224,0.2367,0.2183,0.0294,-0.1123,-0.1755,0
14,-0.6346,0.2724,0.2581,0.0294,-0.1123,-0.1755,0
14,-0.6724,0.2469,0.2653,-0.0381,-0.1384,-0.1755,0
14,-0.6826,0.2786,0.2683,-0.1352,-0.1798,-0.1667,0
14,-0.6826,0.2786,0.2683,-0.2027,-0.1919,-0.1417,0
14,-0.7224,0.3051,0.2959,-0.2812,-0.2016,-0.1602,0
14,-0.7245,0.3061,0.303,-0.3848,-0.2049,-0.1526,0
14,-0.7938,0.2388,0.3306,-0.4622,-0.1852,-0.1722,0
14,-0.8152,0.2101,0.3316,-0.5233,-0.1623,-0.2081,0
14,-0.8541,0.199,0.3326,-0.5538,-0.1341,-0.2333,0
14,-0.8683,0.1857,0.3234,-0.5723,-0.1013,-0.2703,0
14,-0.903,0.1673,0.3071,-0.5877,-0.0631,-0.3031,0
14,-0.9092,0.1551,0.2888,-0.5877,-0.0631,-0.3031,0
14,-0.9081,0.1418,0.2775,-0.6072,-0.0381,-0.3248,0
14,-0.9102,0.1275,0.2867,-0.6138,-0.0228,-0.3346,0
14,-0.9102,0.1275,0.2867,-0.6106,-0.0097,-0.339,0
14,-0.9275,0.1326,0.3745,-0.5984,0.0097,-0.3248,0
14,-0.9367,0.1061,0.3989,-0.5942,0.0501,-0.3008,0
14,-0.9836,0.15,0.45,-0.5757,0.0828,-0.2376,0
14,-0.9938,0.1898,0.4377,-0.6138,0.1297,-0.206,0
14,-1.0948,0.203,0.4337,-0.6857,0.1984,-0.1875,0
14,-1.0979,0.2,0.3877,-0.7392,0.1864,-0.1341,0
14,-1.0969,0.1612,0.352,-0.7392,0.1864,-0.1341,0
14,-1.0969,0.1612,0.352,-0.809,0.2398,-0.1482,0
14,-1.1102,0.0622,0.303,-0.8144,0.2823,-0.1623,0
14,-1.1102,0.0622,0.303,-0.785,0.3205,-0.1667,0
14,-1.101,0.0153,0.3152,-0.7882,0.388,-0.2005,0
14,-1.0734,-0.0081,0.3,-0.7512,0.4132,-0.181,0
14,-1.0316,-0.0367,0.2949,-0.7403,0.4492,-0.1515,0
14,-1.0224,-0.0887,0.2979,-0.7522,0.5026,-0.1461,0
14,-1.0418,-0.1367,0.3347,-0.7152,0.5604,-0.1406,0
14,-1.1153,-0.1571,0.3724,-0.6661,0.5931,-0.1167,0
14,-1.1918,-0.252,0.4203,-0.664,0.6051,-0.0992,0
14,-1.2449,-0.2857,0.4296,-0.664,0.6051,-0.0992,0
14,-1.2449,-0.2857,0.4296,-0.6835,0.5734,-0.0774,0
14,-1.2061,-0.3347,0.4203,-0.6901,0.4895,-0.0511,0
14,-1.2336,-0.3887,0.4745,-0.7991,0.4109,-0.0217,0
14,-1.2234,-0.6622,0.3745,-0.895,0.3401,0.0872,0
14,-1.0836,-0.8286,0.3469,-0.8012,0.2911,0.3783,0
14,-1.0857,-0.8704,0.4163,-0.6596,0.2737,0.7554,0
14,-1.0704,-0.8775,0.3347,-0.5734,0.23,0.6541,0
14,-1.0643,-0.9438,0.252,-0.3117,0.2278,0.5047,0
14,-1.0663,-0.8459,0.2438,0.1112,0.1744,0.4611,0
15,-0.9918,-0.6214,0.3163,0.4187,0.1242,0.4393,0
15,-0.9918,-0.6214,0.3163,0.4187,0.1242,0.4393,0
15,-1.0102,-0.454,0.3602,0.5276,0.1329,0.4655,0
15,-1.0183,-0.2449,0.3398,0.5679,0.1057,0.4916,0
15,-1.0388,-0.1132,0.3398,0.6138,0.1264,0.4753,0
15,-1.0357,-0.0183,0.3387,0.5865,0.1678,0.4099,0
15,-1.0132,0.0316,0.3367,0.5124,0.1951,0.3739,0
15,-1.0081,0.0969,0.2898,0.4187,0.193,0.3597,0
15,-0.9633,0.0877,0.2581,0.3183,0.1864,0.3237,0
15,-0.949,0.052,0.2204,0.2539,0.2049,0.2812,0
15,-0.9203,0.0193,0.204,0.2638,0.2049,0.242,0
15,-0.8632,0.0275,0.1908,0.2638,0.2049,0.242,0
15,-0.8632,0.0275,0.1908,0.2682,0.1842,0.2234,0
15,-0.7101,-0.0469,0.1143,0.193,0.1406,0.2027,0
15,-0.6775,-0.049,0.1061,0.1896,0.1297,0.1852,0
15,-0.6775,-0.049,0.1061,0.2125,0.11,0.1701,0
15,-0.6735,-0.0449,0.0898,0.2224,0.086,0.1558,0
15,-0.6622,-0.0806,0.0775,0.2605,0.0654,0.1329,0
15,-0.6938,-0.0948,0.049,0.2976,0.0534,0.1057,0
15,-0.701,-0.0643,0.0755,0.35,0.0196,0.0937,0
15,-0.7428,-0.0438,0.0684,0.3609,-0.012,0.0828,0
15,-0.7786,-0.0571,0.0714,0.338,-0.0534,0.0675,0
15,-0.8306,-0.0806,0.0551,0.3674,-0.0948,0.0469,0
15,-0.8602,-0.0765,0.0816,0.3674,-0.0948,0.0469,0
15,-0.8979,-0.0989,0.0786,0.3958,-0.1198,0.024,0
15,-0.8979,-0.0989,0.0786,0.4088,-0.1503,0.0152,0
15,-0.9203,-0.1112,0.0724,0.4524,-0.182,0.0152,0
15,-1.0081,-0.1132,0.1224,0.4862,-0.1972,0.0108,0
15,-1.0551,-0.0979,0.1326,0.5549,-0.2388,0.0414,0
15,-1.0581,-0.0591,0.1214,0.6106,-0.2659,0.0577,0
15,-1.1041,-0.0245,0.1337,0.6291,-0.2899,0.0774,0
15,-1.0887,0.0,0.0724,0.653,-0.3325,0.1089,0
15,-1.0898,0.0479,0.0612,0.7043,-0.3609,0.1341,0
15,-1.0388,0.0755,0.0316,0.7043,-0.3609,0.1341,0
15,-1.0388,0.0755,0.0316,0.7359,-0.3946,0.1242,0
15,-1.0183,0.1245,0.0275,0.7653,-0.4099,0.1057,0
15,-0.8857,0.2051,0.0316,0.7882,-0.4349,0.0839,0
15,-0.8234,0.1775,0.0693,0.7369,-0.3891,0.0698,0
15,-0.8582,0.1439,0.1061,0.6127,-0.3128,0.0828,0
15,-0.8949,0.0398,0.103,0.5952,-0.2943,0.0894,0
15,-0.9561,0.0224,0.1622,0.6345,-0.2245,0.0686,0
15,-1.0459,-0.0204,0.1908,0.6138,-0.1755,0.0511,0
15,-1.0908,-0.1091,0.1479,0.6367,-0.1984,0.0501,0
15,-1.1439,-0.1622,0.1306,0.6367,-0.1984,0.0501,0
15,-1.1439,-0.1622,0.1306,0.7588,-0.1972,0.0305,0
15,-1.0948,-0.0755,0.1796,0.9017,-0.2365,0.0599,0
15,-1.0704,-0.0663,0.1143,0.978,-0.2159,0.0992,0
15,-1.0459,0.0122,0.1571,1.0717,-0.193,0.1471,0
15,-1.0408,0.1683,0.204,1.1142,-0.1635,0.218,0
15,-1.0663,0.1887,0.2367,1.0226,-0.1373,0.2594,0
15,-1.1387,0.153,0.2388,0.9376,-0.0959,0.2344,0
15,-1.2408,0.1346,0.3306,0.9376,-0.0959,0.2344,0
15,-1.2581,0.0245,0.3908,0.9158,-0.0992,0.2005,0
15,-1.1918,0.0275,0.4214,0.9191,-0.1547,0.182,0
15,-1.1071,0.0755,0.501,0.9191,-0.1547,0.182,0
15,-1.1071,0.0755,0.501,0.9725,-0.1852,0.1449,0
15,-0.9979,0.1143,0.5551,0.9594,-0.1919,0.0698,0
15,-0.9347,0.0459,0.6581,0.9594,-0.1919,0.0698,0
15,-0.9816,0.0428,0.7296,0.8645,-0.1482,0.0152,0
15,-0.9235,-0.0214,0.8234,0.8384,-0.0784,-0.098,0
15,-0.8979,-0.0398,0.751,0.8132,-0.0196,-0.194,0
15,-1.004,0.1245,0.7377,0.87,0.0141,-0.2388,0
15,-1.1673,0.151,0.6898,0.9071,0.0959,-0.3151,0
15,-1.2418,0.1428,0.6449,0.8132,0.1842,-0.3597,0
15,-1.303,0.1428,0.5704,0.8132,0.1842,-0.3597,0
15,-1.3377,0.1071,0.5632,0.713,0.1547,-0.3401,0
15,-1.3377,0.1071,0.5632,0.6345,0.1188,-0.3151,0
15,-1.3041,0.05,0.5265,0.5374,0.0872,-0.2747,0
15,-1.2234,0.0286,0.5153,0.508,0.025,-0.2016,0
15,-1.1785,0.0479,0.5286,0.5265,0.0076,-0.1657,0
15,-1.0877,0.0571,0.4867,0.5494,-0.0021,-0.1198,0
15,-1.0652,0.0745,0.4551,0.5484,0.0043,-0.0818,0
15,-1.0102,0.1122,0.4663,0.5713,0.0228,-0.0675,0
15,-0.9704,0.1275,0.4235,0.5658,0.025,-0.0511,0
15,-0.85,0.1602,0.3143,0.5658,0.025,-0.0511,0
15,-0.8,0.203,0.3112,0.5276,0.0162,-0.0349,0
15,-0.8,0.203,0.3112,0.5408,0.024,-0.061,0
15,-0.7683,0.2133,0.2898,0.5385,0.0261,-0.0904,0
15,-0.7214,0.1969,0.2408,0.471,0.012,-0.0992,0
15,-0.6479,0.251,0.2234,0.4382,-0.012,-0.1177,0
15,-0.6041,0.2479,0.1928,0.4012,-0.0469,-0.1995,0
15,-0.5806,0.2316,0.1673,0.3128,-0.0763,-0.2714,0
15,-0.5367,0.2449,0.1806,0.2605,-0.098,-0.3107,0
15,-0.5122,0.2153,0.1622,0.243,-0.1232,-0.3151,0
15,-0.5286,0.2296,0.1744,0.243,-0.1232,-0.3151,0
15,-0.5173,0.2061,0.1744,0.1711,-0.1471,-0.2888,0
15,-0.5561,0.3643,0.1857,0.1112,-0.2093,-0.3041,0
15,-0.5561,0.3643,0.1857,0.0545,-0.255,-0.3346,0
15,-0.6163,0.2592,0.3071,-0.0032,-0.2758,-0.2464,0
15,-0.6,0.1703,0.2234,-0.1242,-0.2856,-0.0818,0
15,-0.6775,0.1847,0.2888,-0.218,-0.2976,-0.0818,0
15,-0.7204,0.2592,0.353,-0.1907,-0.2987,-0.0818,0
15,-0.802,0.2051,0.3122,-0.2638,-0.2856,-0.0818,0
15,-0.8632,0.2183,0.3326,-0.3477,-0.2518,-0.0959,0
15,-0.9194,0.2877,0.3704,-0.3477,-0.2518,-0.0959,0
15,-0.9194,0.2877,0.3704,-0.3248,-0.2071,-0.1373,0
15,-1.0336,0.2561,0.2724,-0.3695,-0.1678,-0.1744,0
15,-1.0336,0.2561,0.2724,-0.471,-0.1744,-0.1919,0
15,-1.0581,0.2949,0.2581,-0.4895,-0.1493,-0.2321,0
15,-1.0173,0.3163,0.2561,-0.4807,-0.1352,-0.2638,0
15,-0.9642,0.1857,0.2071,-0.5593,-0.1341,-0.2878,0
15,-0.95,0.1663,0.2612,-0.5931,-0.1274,-0.3073,0
15,-0.9663,0.1592,0.3184,-0.5473,-0.1024,-0.3096,0
15,-0.9969,0.1143,0.3541,-0.5593,-0.0708,-0.2856,0
15,-1.0663,0.1214,0.3979,-0.5669,-0.0599,-0.2321,0
15,-1.0663,0.1214,0.3979,-0.5669,-0.0599,-0.2321,0
15,-1.1326,0.1102,0.3796,-0.5385,-0.0479,-0.1984,0
15,-1.1887,0.1367,0.4041,-0.5396,-0.0469,-0.1776,0
15,-1.1949,0.1469,0.3489,-0.5167,-0.1123,-0.1198,0
15,-1.203,0.1735,0.3316,-0.5418,-0.1352,-0.1613,0
15,-1.1234,0.2653,0.3122,-0.5418,-0.1526,-0.1886,0
16,-1.0418,0.3326,0.2959,-0.5233,-0.2289,-0.1613,0
16,-0.9806,0.3255,0.2693,-0.6301,-0.2071,-0.2321,0
16,-0.8622,0.3326,0.2847,-0.6955,-0.1798,-0.2899,0
16,-0.8959,0.2173,0.3051,-0.7915,-0.1428,-0.3205,0
16,-0.9203,0.1275,0.2888,-0.7915,-0.1428,-0.3205,0
16,-0.9203,0.1275,0.2888,-0.9267,-0.0425,-0.3412,0
16,-0.9132,0.2847,0.3602,-0.8973,0.0021,-0.2844,0
16,-0.9163,0.2714,0.3255,-0.9071,0.073,-0.2136,0
16,-0.9081,0.2714,0.2724,-1.0423,0.1068,-0.1526,0
16,-0.8877,0.3051,0.2918,-1.0935,0.1318,-0.11,0
16,-0.9581,0.2397,0.353,-1.1709,0.1972,-0.1329,0
16,-0.9694,0.1622,0.3357,-1.3181,0.2104,-0.1286,0
16,-1.0673,0.0418,0.4438,-1.4467,0.3314,-0.1831,0
16,-1.1581,-0.1826,0.5183,-1.5078,0.3477,-0.2147,0
16,-1.1826,-0.1908,0.4897,-1.5547,0.3227,-0.169,0
16,-1.1796,-0.3663,0.3755,-1.6877,0.2453,-0.1341,0
16,-1.1387,-0.5204,0.4969,-1.6877,0.2453,-0.1341,0
16,-0.8806,-1.0847,0.501,-1.7586,0.1984,-0.1188,0
16,-0.9949,-0.9785,0.3959,-1.7716,0.1602,0.0479,0
16,-0.9949,-0.9785,0.3959,-1.8338,0.2388,0.4862,0
16,-1.0918,-1.1612,0.3622,-1.7934,0.3237,1.0913,0
16,-1.1224,-1.2,0.301,-1.5917,0.3739,1.0717,0
16,-1.2908,-0.9142,0.2285,-1.0357,0.3357,0.9202,0
16,-1.0336,-0.6949,0.1775,-0.4034,0.2943,0.557,0
16,-1.0418,-0.3653,0.4683,0.1766,0.2518,0.2495,0
16,-1.1234,-0.0979,0.5081,0.3336,0.2943,0.3151,0
16,-1.0193,-0.1887,0.2643,0.3336,0.2943,0.3151,0
16,-1.0255,-0.1091,0.2795,-0.0479,0.1755,0.4317,0
16,-0.9755,0.0316,0.3132,-0.2333,0.1167,0.4437,0
16,-0.9755,0.0316,0.3132,-0.0566,0.1842,0.4132,0
16,-0.9132,0.0989,0.3193,-0.0053,0.2169,0.3804,0
16,-0.8918,0.0908,0.3275,-0.1515,0.2682,0.351,0
16,-0.852,0.0398,0.2693,-0.2823,0.2256,0.3685,0
16,-0.8316,-0.0204,0.2255,-0.3914,0.2256,0.375,0
16,-0.855,-0.0449,0.1816,-0.3924,0.2966,0.3346,0
16,-0.8143,-0.0286,0.203,-0.3073,0.3183,0.3096,0
16,-0.8184,-0.0684,0.1551,-0.2998,0.2758,0.314,0
16,-0.7816,-0.1153,0.0979,-0.2998,0.2758,0.314,0
16,-0.7816,-0.1153,0.0979,-0.3554,0.2376,0.3085,0
16,-0.7693,-0.0918,0.0704,-0.2998,0.2136,0.2911,0
16,-0.7316,-0.0663,0.0643,-0.1984,0.194,0.2737,0
16,-0.7265,-0.049,0.0449,-0.1482,0.157,0.2605,0
16,-0.7388,-0.0398,0.0408,-0.1515,0.1155,0.2507,0
16,-0.7061,-0.0541,-0.001,-0.1471,0.036,0.2224,0
16,-0.7,-0.0051,0.0347,-0.0686,-0.024,0.1842,0
16,-0.7306,-0.0081,0.0408,-0.025,-0.036,0.1547,0
16,-0.7612,-0.051,0.0377,-0.085,-0.0392,0.1471,0
16,-0.8255,-0.0786,0.0367,-0.1242,-0.0806,0.181,0
16,-0.8255,-0.0786,0.0367,-0.1242,-0.0806,0.181,0
16,-0.8265,-0.0898,0.0428,-0.1232,-0.1264,0.1744,0
16,-0.8704,-0.0551,0.0969,-0.0698,-0.1417,0.1461,0
16,-0.8908,-0.0459,0.0898,-0.0381,-0.1657,0.1417,0
16,-0.9704,-0.1,0.1041,-0.0469,-0.193,0.1461,0
16,-1.0245,-0.1102,0.101,-0.0228,-0.1951,0.1461,0
16,-1.0602,-0.1102,0.101,0.0402,-0.2245,0.1461,0
16,-1.0939,-0.0939,0.0571,0.1133,-0.2507,0.1482,0
16,-1.0816,-0.051,0.1,0.1864,-0.2856,0.1526,0
16,-1.1204,-0.0418,0.0398,0.2115,-0.35,0.1581,0
16,-1.1082,-0.0204,-0.0388,0.2115,-0.35,0.1581,0
16,-1.1082,-0.0204,-0.0388,0.2453,-0.3838,0.1701,0
16,-1.0652,0.0071,0.0418,0.3958,-0.4252,0.1755,0
16,-0.9867,0.0877,-0.0316,0.4536,-0.4513,0.1253,0
16,-0.9357,0.0724,0.0071,0.4044,-0.4677,0.0446,0
16,-0.9551,0.0643,0.0388,0.387,-0.4077,0.0217,0
16,-1.0031,0.0336,0.0948,0.3237,-0.3565,0.0719,0
16,-1.051,-0.1316,0.1082,0.2714,-0.3302,0.085,0
16,-1.0867,-0.1581,0.1296,0.3456,-0.2899,0.0686,0
16,-1.0734,-0.1816,0.1316,0.4263,-0.2867,0.0643,0
16,-1.0948,-0.2133,0.1296,0.4263,-0.2867,0.0643,0
16,-1.0561,-0.1245,0.1785,0.5221,-0.2768,0.0795,0
16,-1.0561,-0.1245,0.1785,0.6291,-0.2834,0.0806,0
16,-1.0459,-0.0836,0.1387,0.7751,-0.2844,0.1406,0
16,-1.0816,-0.0092,0.2061,0.8493,-0.2495,0.2136,0
16,-1.1571,0.1183,0.2551,0.8962,-0.2169,0.2638,0
16,-1.202,0.1428,0.303,1.0183,-0.2136,0.3346,0
16,-1.2602,0.1632,0.2592,0.9321,-0.2213,0.3193,0
16,-1.2908,0.1398,0.35,0.858,-0.2115,0.3008,0
16,-1.2214,0.1357,0.4122,0.8361,-0.2605,0.3161,0
16,-1.1418,0.1408,0.5061,0.8361,-0.2605,0.3161,0
16,-1.0765,0.1377,0.5418,0.8514,-0.3325,0.3183,0
16,-1.0765,0.1377,0.5418,0.8199,-0.3248,0.255,0
16,-1.0347,0.1418,0.6887,0.7609,-0.2976,0.1886,0
16,-0.901,0.0408,0.8418,0.677,-0.2201,0.0969,0
16,-0.853,-0.0306,0.7438,0.5822,-0.1384,0.0131,0
16,-0.7979,-0.0632,0.7173,0.5854,-0.0774,-0.0011,0
16,-0.8439,-0.0632,0.6132,0.5843,0.0185,-0.0446,0
16,-0.9755,-0.0969,0.5979,0.6203,0.1384,-0.1482,0
16,-1.1112,-0.1398,0.5122,0.6192,0.1787,-0.2278,0
16,-1.1337,-0.1418,0.4888,0.64,0.1493,-0.2224,0
16,-1.1581,-0.1408,0.452,0.64,0.1493,-0.2224,0
16,-1.2357,-0.0367,0.4816,0.6803,0.1167,-0.2136,0
16,-1.2357,-0.0367,0.4816,0.7512,0.1035,-0.1732,0
16,-1.2531,-0.0193,0.4745,0.7795,0.061,-0.1188,0
16,-1.2306,-0.0163,0.4612,0.7588,-0.0032,-0.0883,0
16,-1.1908,0.0316,0.4551,0.8199,-0.0589,-0.0599,0
16,-1.1428,0.1489,0.4561,0.871,-0.061,-0.0698,0
16,-1.101,0.2122,0.4418,0.8744,-0.0643,-0.0751,0
16,-1.0418,0.2806,0.4653,0.8449,-0.1144,-0.0501,0
16,-0.9347,0.2928,0.4183,0.8449,-0.1144,-0.0501,0
16,-0.9041,0.3061,0.3959,0.7424,-0.1274,-0.0566,0
16,-0.8806,0.3316,0.3846,0.6672,-0.098,-0.0839,0
16,-0.8806,0.3316,0.3846,0.6268,-0.0698,-0.1035,0
16,-0.8122,0.3204,0.3541,0.5233,-0.0883,-0.181,0
16,-0.7224,0.2775,0.2969,0.4317,-0.1123,-0.2693,0
16,-0.6867,0.2959,0.302,0.4109,-0.1047,-0.3193,0
16,-0.6622,0.2938,0.2969,0.3717,-0.0959,-0.3609,0
16,-0.6265,0.2632,0.2734,0.2834,-0.0969,-0.4023,0
16,-0.5867,0.25,0.2551,0.2321,-0.1024,-0.3935,0
16,-0.5734,0.2336,0.2428,0.1951,-0.1123,-0.3674,0
17,-0.5734,0.2,0.2234,0.1373,-0.1133,-0.3368,0
17,-0.5734,0.2,0.2234,0.1373,-0.1133,-0.3368,0
17,-0.5602,0.1796,0.2122,0.1112,-0.1297,-0.3085,0
17,-0.5887,0.1857,0.2326,0.1013,-0.1329,-0.2888,0
17,-0.605,0.1632,0.2326,0.0469,-0.1558,-0.2791,0
17,-0.6102,0.15,0.2245,0.0108,-0.1766,-0.2605,0
17,-0.6285,0.1551,0.2336,0.0,-0.1875,-0.2495,0
17,-0.6367,0.1703,0.2336,-0.024,-0.2005,-0.2507,0
17,-0.6459,0.1837,0.2306,-0.0414,-0.1962,-0.2638,0
17,-0.6632,0.202,0.2316,-0.0555,-0.1787,-0.2844,0
17,-0.6887,0.2092,0.2469,-0.0643,-0.1547,-0.3161,0
17,-0.6887,0.2092,0.2469,-0.0643,-0.1547,-0.3161,0
17,-0.7836,0.2316,0.2622,-0.0937,-0.1274,-0.3422,0
17,-0.9816,0.2775,0.2898,-0.1766,-0.0872,-0.3542,0
17,-1.0173,0.2183,0.3326,-0.2125,-0.0872,-0.3859,0
17,-1.0173,0.2183,0.3326,-0.2344,-0.1274,-0.4307,0
17,-1.0428,0.2183,0.3193,-0.2562,-0.1613,-0.4317,0
17,-1.0408,0.2408,0.3745,-0.2507,-0.1787,-0.4328,0
17,-1.0469,0.252,0.4122,-0.2768,-0.1852,-0.4143,0
17,-1.0347,0.2592,0.4428,-0.3128,-0.1852,-0.3674,0
17,-1.0316,0.303,0.4633,-0.3248,-0.1493,-0.3193,0
17,-1.0652,0.3286,0.4612,-0.3815,-0.0969,-0.2954,0
17,-1.0857,0.3112,0.4367,-0.3815,-0.0969,-0.2954,0
17,-1.1418,0.2224,0.3887,-0.4807,-0.0631,-0.2682,0
17,-1.1163,0.1703,0.3582,-0.5549,-0.0261,-0.2201,0
17,-1.1163,0.1703,0.3582,-0.6028,-0.0141,-0.1907,0
17,-1.1143,0.1224,0.3245,-0.6039,-0.0053,-0.1657,0
17,-1.0775,0.151,0.3602,-0.5516,0.0206,-0.1623,0
17,-1.0928,0.2061,0.3887,-0.5156,0.0698,-0.169,0
17,-1.0959,0.2724,0.4102,-0.5102,0.0925,-0.1581,0
17,-1.0928,0.3173,0.4041,-0.5887,0.1133,-0.1591,0
17,-1.0806,0.2316,0.3745,-0.714,0.1461,-0.1766,0
17,-1.0693,0.1204,0.3245,-0.846,0.182,-0.1951,0
17,-1.0857,0.0326,0.3224,-0.846,0.182,-0.1951,0
17,-1.101,-0.004,0.3377,-0.8973,0.2289,-0.2201,0
17,-1.101,-0.004,0.3377,-0.87,0.2703,-0.2136,0
17,-1.101,-0.1346,0.3622,-0.8634,0.2768,-0.1919,0
17,-1.103,-0.1898,0.3704,-0.8285,0.2638,-0.1984,0
17,-1.0745,-0.1387,0.3959,-0.7501,0.2518,-0.1972,0
17,-1.0948,-0.2061,0.4745,-0.7403,0.2605,-0.2027,0
17,-1.0908,-0.3826,0.4796,-0.8733,0.2278,-0.2191,0
17,-1.1285,-0.4561,0.5,-0.9103,0.218,-0.1907,0
17,-1.0255,-0.5163,0.5408,-0.8809,0.1732,-0.0414,0
17,-0.9428,-0.7592,0.4969,-0.8809,0.1732,-0.0414,0
17,-0.9428,-0.7592,0.4969,-0.8384,0.1526,0.1438,0
17,-0.9469,-0.8316,0.3428,-0.8122,0.1657,0.3794,0
17,-0.9469,-0.8316,0.3428,-0.6999,0.1581,0.3368,0
17,-0.9612,-0.7949,0.3398,-0.363,0.1341,0.3172,0
17,-0.9459,-0.653,0.3877,-0.0326,0.1581,0.2518,0
17,-0.999,-0.3316,0.499,0.1417,0.1613,0.2518,0
17,-1.0092,-0.2285,0.4663,0.1482,0.1167,0.3227,0
17,-0.9938,-0.1428,0.4122,0.1079,0.1068,0.3456,0
17,-0.9704,-0.0684,0.3949,0.1188,0.1471,0.3193,0
17,-0.9724,0.0724,0.3448,0.11,0.1995,0.3031,0
17,-0.9724,0.0724,0.3448,0.11,0.1995,0.3031,0
17,-0.9469,0.1041,0.3398,0.0206,0.2071,0.2888,0
17,-0.9132,0.0836,0.3398,-0.1438,0.1919,0.2693,0
17,-0.9092,-0.0031,0.3102,-0.267,0.206,0.2605,0
17,-0.8745,-0.0663,0.2632,-0.2344,0.218,0.2398,0
17,-0.8694,-0.052,0.2795,-0.1852,0.2442,0.2191,0
17,-0.8663,-0.0796,0.2469,-0.2278,0.2278,0.2201,0
17,-0.7938,-0.1061,0.1571,-0.2191,0.1875,0.2278,0
17,-0.7714,-0.0836,0.1857,-0.1787,0.1744,0.2245,0
17,-0.7612,-0.0806,0.1224,-0.1482,0.1635,0.2081,0
17,-0.7408,-0.0336,0.1265,-0.1482,0.1635,0.2081,0
17,-0.7408,-0.0336,0.1265,-0.0992,0.1253,0.2115,0
17,-0.7081,0.0031,0.1234,-0.1133,0.1024,0.1995,0
17,-0.703,-0.004,0.1041,-0.1461,0.0795,0.1831,0
17,-0.6908,0.0,0.1041,-0.1471,0.0631,0.1646,0
17,-0.703,0.0112,0.102,-0.1362,0.036,0.1515,0
17,-0.7234,0.0112,0.0979,-0.157,0.0152,0.1286,0
17,-0.749,0.0051,0.1041,-0.169,-0.0011,0.1155,0
17,-0.7612,0.002,0.101,-0.1755,-0.0294,0.1024,0
17,-0.7969,0.0081,0.1122,-0.1766,-0.0577,0.0969,0
17,-0.85,-0.004,0.1285,-0.1766,-0.0577,0.0969,0
17,-0.8908,-0.0163,0.1479,-0.1972,-0.0806,0.0904,0
17,-0.8908,-0.0163,0.1479,-0.2125,-0.0915,0.0959,0
17,-0.9387,-0.0306,0.1469,-0.2125,-0.1013,0.098,0
17,-0.9673,-0.0326,0.1479,-0.206,-0.1242,0.1133,0
17,-1.0612,-0.0398,0.1367,-0.1984,-0.1428,0.1274,0
17,-1.0643,-0.0398,0.1112,-0.1896,-0.181,0.1329,0
17,-1.0979,-0.0265,0.0948,-0.1461,-0.2115,0.1461,0
17,-1.0918,0.004,0.0908,-0.0992,-0.2562,0.1657,0
17,-1.1102,0.002,0.0357,-0.1286,-0.2976,0.1722,0
17,-1.102,0.0245,0.0275,-0.1089,-0.3401,0.1886,0
17,-1.0786,0.0643,0.0479,-0.1089,-0.3401,0.1886,0
17,-0.9949,0.0734,0.0234,-0.0894,-0.3685,0.1886,0
17,-0.9949,0.0734,0.0234,-0.1068,-0.4099,0.1896,0
17,-0.9867,0.0632,0.0408,-0.1242,-0.4252,0.1766,0
17,-0.9949,0.0438,0.0765,-0.1384,-0.4132,0.1396,0
17,-1.0112,-0.0132,0.0989,-0.1623,-0.3924,0.1035,0
17,-1.0806,-0.1071,0.1887,-0.1526,-0.3706,0.0828,0
17,-1.1091,-0.1602,0.1887,-0.1428,-0.3565,0.0654,0
17,-1.152,-0.2112,0.2071,-0.1123,-0.3412,0.0589,0
17,-1.1735,-0.2275,0.2,-0.0053,-0.363,0.0664,0
17,-1.1938,-0.1132,0.2285,-0.0053,-0.363,0.0664,0
17,-1.1418,-0.1132,0.2326,0.1155,-0.3706,0.098,0
17,-1.1418,-0.1132,0.2326,0.1242,-0.3685,0.1089,0
17,-1.2163,-0.0469,0.2101,0.2104,-0.3532,0.1503,0
17,-1.2408,0.0255,0.3377,0.2878,-0.3346,0.1864,0
17,-1.3377,0.0806,0.3367,0.2039,-0.351,0.2016,0
17,-1.2367,0.0541,0.4612,0.1537,-0.4,0.2159,0
17,-1.1908,0.0693,0.452,0.1547,-0.4,0.2278,0
17,-1.1234,0.1173,0.5061,0.1919,-0.3848,0.2573,0
17,-1.0102,0.1214,0.5612,0.1919,-0.3848,0.2573,0
17,-0.9745,0.0632,0.6061,0.1286,-0.3041,0.2507,0
17,-1.0,0.0245,0.602,0.0621,-0.1962,0.2256,0
17,-1.0,0.0245,0.602,0.0294,-0.1253,0.1984,0
17,-1.0347,-0.0255,0.603,-0.0097,-0.0751,0.1547,0
17,-1.1275,-0.2183,0.552,-0.0349,-0.0501,0.0751,0
18,-1.1183,-0.2306,0.5673,0.0534,-0.0589,0.0032,0
18,-1.0816,-0.2531,0.5581,0.11,-0.0774,-0.0534,0
18,-1.0245,-0.2847,0.5459,0.1482,-0.0959,-0.0631,0
18,-0.8918,-0.2204,0.5551,0.2823,-0.1112,-0.0435,0
18,-0.8928,-0.1296,0.5602,0.3761,-0.0784,-0.0469,0
18,-0.8949,-0.0755,0.5581,0.3761,-0.0784,-0.0469,0
18,-0.9092,-0.0214,0.5652,0.3771,-0.0196,-0.073,0
18,-0.9092,-0.0214,0.5652,0.3804,0.0043,-0.0839,0
18,-0.9357,-0.0102,0.5295,0.3096,0.0043,-0.0937,0
18,-0.9673,-0.0193,0.4938,0.2966,0.0065,-0.11,0
18,-0.9633,0.0265,0.5081,0.3554,0.025,-0.1297,0
18,-0.9908,0.0714,0.4775,0.3325,0.0414,-0.1341,0
18,-0.9673,0.0602,0.4438,0.2725,0.0032,-0.1232,0
18,-0.9265,0.0581,0.4112,0.2376,-0.0228,-0.1264,0
18,-0.9041,0.0388,0.3663,0.2354,-0.0131,-0.1461,0
18,-0.8663,0.0193,0.355,0.2136,-0.0326,-0.169,0
18,-0.8265,-0.0112,0.3286,0.2169,-0.0654,-0.1744,0
18,-0.7836,-0.0255,0.2938,0.242,-0.0883,-0.182,0
18,-0.7377,-0.0204,0.2765,0.2899,-0.0795,-0.2081,0
18,-0.7183,-0.0132,0.2888,0.2899,-0.0795,-0.2081,0
18,-0.7183,-0.0132,0.2888,0.3096,-0.1024,-0.2224,0
18,-0.6969,-0.0081,0.2847,0.3314,-0.1352,-0.2224,0
18,-0.6765,-0.0031,0.2847,0.3532,-0.1396,-0.2365,0
18,-0.6796,0.0265,0.3061,0.3804,-0.1384,-0.2562,0
18,-0.6826,0.0398,0.3081,0.3903,-0.1493,-0.2638,0
18,-0.6837,0.049,0.3132,0.3979,-0.1591,-0.2649,0
18,-0.6928,0.0704,0.3152,0.4065,-0.1547,-0.2659,0
18,-0.701,0.1367,0.3275,0.412,-0.1362,-0.2627,0
18,-0.7112,0.1694,0.3387,0.3859,-0.1264,-0.2518,0
18,-0.7194,0.1938,0.3418,0.3859,-0.1264,-0.2518,0
18,-0.7275,0.2153,0.3408,0.3346,-0.1318,-0.2376,0
18,-0.7275,0.2153,0.3408,0.2844,-0.1209,-0.2278,0
18,-0.7602,0.2663,0.3367,0.2474,-0.1068,-0.23,0
18,-0.7775,0.2898,0.3541,0.1886,-0.0883,-0.2453,0
18,-0.799,0.2867,0.3469,0.1068,-0.0839,-0.2518,0
18,-0.8152,0.2714,0.3286,0.0414,-0.0818,-0.2485,0
18,-0.8102,0.2632,0.3071,-0.0011,-0.0719,-0.2573,0
18,-0.8051,0.2622,0.2979,-0.0414,-0.0577,-0.2714,0
18,-0.7857,0.2561,0.3041,-0.0818,-0.0469,-0.2856,0
18,-0.7898,0.2418,0.3071,-0.0818,-0.0469,-0.2856,0
18,-0.7857,0.1877,0.353,-0.1253,-0.0337,-0.2966,0
18,-0.7857,0.1877,0.353,-0.1591,-0.0185,-0.2966,0
18,-0.7898,0.1694,0.3796,-0.1852,0.0,-0.2878,0
18,-0.8357,0.1561,0.4102,-0.2093,0.0261,-0.267,0
18,-0.9438,0.1326,0.4244,-0.23,0.0511,-0.2278,0
18,-0.9969,0.1285,0.4092,-0.2507,0.0545,-0.1875,0
18,-1.0306,0.1357,0.3979,-0.242,0.0643,-0.1787,0
18,-1.0693,0.1714,0.4102,-0.2321,0.0784,-0.1831,0
18,-1.105,0.1887,0.4112,-0.2649,0.0969,-0.1907,0
18,-1.1143,0.1796,0.3724,-0.2649,0.0969,-0.1907,0
18,-1.1173,0.1459,0.3857,-0.3128,0.1318,-0.1951,0
18,-1.1041,0.1418,0.352,-0.3151,0.1732,-0.2104,0
18,-1.1041,0.1418,0.352,-0.3489,0.2234,-0.2201,0
18,-1.0622,0.0622,0.3398,-0.3717,0.2617,-0.2278,0
18,-1.049,0.0622,0.3775,-0.3565,0.314,-0.2333,0
18,-1.0286,0.0469,0.4203,-0.3695,0.3695,-0.2278,0
18,-1.0622,0.0275,0.4581,-0.3903,0.4349,-0.2201,0
18,-1.1551,-0.0428,0.5102,-0.4088,0.495,-0.2289,0
18,-1.2255,-0.0745,0.4857,-0.4208,0.5102,-0.2398,0
18,-1.2163,-0.0806,0.4867,-0.4469,0.4677,-0.2518,0
18,-1.2153,-0.1082,0.4938,-0.4469,0.4677,-0.2518,0
18,-1.1775,-0.3428,0.5122,-0.556,0.4187,-0.2758,0
18,-1.1775,-0.3428,0.5122,-0.6737,0.3685,-0.2802,0
18,-1.152,-0.4714,0.5275,-0.6465,0.3205,-0.2234,0
18,-1.153,-0.4897,0.5918,-0.677,0.2682,-0.1155,0
18,-1.0836,-0.5408,0.4622,-0.7163,0.2474,-0.0162,0
18,-0.9398,-0.6602,0.4367,-0.6617,0.2071,0.0599,0
18,-0.9908,-0.6346,0.4051,-0.483,0.2354,0.1547,0
18,-0.9398,-0.5571,0.4194,-0.2758,0.2289,0.2245,0
18,-0.949,-0.4224,0.4102,-0.1232,0.2245,0.2976,0
18,-0.9235,-0.0561,0.4775,-0.1232,0.2245,0.2976,0
18,-0.9235,-0.0561,0.4775,-0.0828,0.1798,0.3815,0
18,-0.951,0.0459,0.4571,-0.1711,0.2104,0.4065,0
18,-0.9724,0.1194,0.4367,-0.2802,0.2682,0.4023,0
18,-0.9979,0.1683,0.4367,-0.4044,0.2954,0.4,0
18,-1.0224,0.1214,0.403,-0.5908,0.2976,0.3958,0
18,-1.0449,0.0286,0.3694,-0.713,0.2966,0.3968,0
18,-1.0398,-0.0428,0.3265,-0.7327,0.2802,0.387,0
18,-1.0234,-0.0704,0.2551,-0.7163,0.2747,0.3554,0
18,-0.9959,-0.0836,0.2101,-0.7184,0.2278,0.3401,0
18,-0.9724,-0.1091,0.1632,-0.7184,0.2278,0.3401,0
18,-0.9724,-0.1091,0.1632,-0.726,0.1755,0.3271,0
18,-0.9275,-0.1234,0.1275,-0.6999,0.1167,0.2998,0
18,-0.8694,-0.1449,0.0989,-0.6999,0.1167,0.2998,0
18,-0.8448,-0.1571,0.0806,-0.6661,0.0806,0.2737,0
18,-0.8061,-0.1949,0.0745,-0.6421,0.024,0.2573,0
18,-0.7877,-0.1938,0.0571,-0.6159,-0.0381,0.2376,0
18,-0.7551,-0.1785,0.0857,-0.4982,-0.1188,0.1896,0
18,-0.7683,-0.1755,0.0806,-0.4982,-0.1188,0.1896,0
18,-0.7622,-0.1642,0.0826,-0.4611,-0.1602,0.182,0
18,-0.7755,-0.1367,0.0918,-0.4273,-0.2027,0.1776,0
18,-0.7949,-0.1224,0.0847,-0.4273,-0.2027,0.1776,0
18,-0.7949,-0.1224,0.0847,-0.4055,-0.231,0.1722,0
18,-0.7786,-0.1071,0.0816,-0.4034,-0.2737,0.1787,0
18,-0.7867,-0.0816,0.0908,-0.375,-0.3019,0.1732,0
18,-0.7775,-0.0775,0.1102,-0.3521,-0.326,0.1635,0
18,-0.7898,-0.1061,0.103,-0.363,-0.3466,0.1646,0
18,-0.802,-0.1082,0.102,-0.3532,-0.3586,0.1667,0
18,-0.8275,-0.1102,0.0918,-0.3281,-0.3609,0.1711,0
18,-0.8541,-0.1173,0.0745,-0.3128,-0.3674,0.1842,0
18,-0.8806,-0.1071,0.0438,-0.2856,-0.3804,0.1984,0
18,-0.8979,-0.0969,0.0275,-0.2856,-0.3804,0.1984,0
18,-0.8796,-0.0775,0.0367,-0.2398,-0.4055,0.2201,0
18,-0.8796,-0.0775,0.0367,-0.1995,-0.4219,0.2388,0
18,-0.8857,-0.0449,0.0163,-0.1526,-0.4458,0.2464,0
18,-0.8357,0.0163,0.0449,-0.1123,-0.4557,0.2333,0
18,-0.8448,-0.0295,0.0775,-0.1133,-0.4666,0.2104,0
18,-0.8347,-0.0765,0.1163,-0.1591,-0.4611,0.1842,0
18,-0.8837,-0.1153,0.201,-0.1667,-0.4481,0.1755,0
18,-0.952,-0.15,0.2112,-0.1526,-0.4219,0.1678,0
19,-1.0306,-0.1765,0.2142,-0.1417,-0.351,0.1503,0
19,-1.1285,-0.1887,0.2051,-0.1417,-0.351,0.1503,0
19,-1.1928,-0.1632,0.1398,-0.1144,-0.3052,0.1449,0
19,-1.1928,-0.1632,0.1398,-0.0828,-0.3271,0.1526,0
19,-1.1908,-0.1469,0.2061,-0.0011,-0.3346,0.1635,0
19,-1.1918,-0.1102,0.2693,0.1144,-0.339,0.1907,0
19,-1.2745,-0.0877,0.1938,0.1188,-0.3565,0.231,0
19,-1.3489,-0.0224,0.3816,0.1537,-0.35,0.2779,0
19,-1.4051,-0.0408,0.4061,0.1461,-0.3641,0.3063,0
19,-1.4326,-0.0449,0.501,0.1167,-0.3804,0.3248,0
19,-1.4326,-0.0469,0.4897,0.1177,-0.4,0.3151,0
19,-1.2673,0.0286,0.5377,0.1177,-0.4,0.3151,0
19,-1.1735,0.0224,0.5469,0.1667,-0.4349,0.3292,0
19,-1.0571,-0.1265,0.6163,0.1558,-0.3958,0.3466,0
19,-1.0102,-0.1938,0.7643,0.1919,-0.338,0.2867,0
19,-1.0102,-0.1938,0.7643,0.1919,-0.338,0.2867,0
19,-0.8632,-0.3275,0.7214,0.2365,-0.2649,0.2081,0
19,-0.8632,-0.3275,0.7214,0.2365,-0.2649,0.1951,0
19,-0.8459,-0.2949,0.6765,0.3008,-0.2507,0.218,0
19,-0.8051,-0.1479,0.7133,0.4252,-0.1864,0.1886,0
19,-0.8387,-0.1245,0.699,0.4546,-0.0795,0.1537,0
19,-0.9041,-0.0928,0.6898,0.4469,0.0021,0.1373,0
19,-0.8939,-0.0541,0.6837,0.4077,0.0326,0.1352,0
19,-0.9979,-0.0398,0.5887,0.3489,0.0708,0.1406,0
19,-1.049,0.0255,0.603,0.375,0.1198,0.1253,0
19,-1.0948,0.0898,0.6082,0.375,0.1198,0.1253,0
19,-1.0948,0.0898,0.6082,0.4295,0.1537,0.0904,0
19,-1.0704,0.0847,0.5796,0.3815,0.0992,0.0992,0
19,-0.999,0.1122,0.549,0.3248,0.036,0.1068,0
19,-0.9449,0.1755,0.551,0.3489,0.0435,0.1035,0
19,-0.9265,0.2061,0.5112,0.3248,0.049,0.1232,0
19,-0.8347,0.202,0.4459,0.2213,0.0425,0.1406,0
19,-0.8,0.199,0.4051,0.1297,0.0185,0.1384,0
19,-0.7673,0.1938,0.3755,0.0686,0.0294,0.1417,0
19,-0.7316,0.1703,0.3448,0.0152,0.0402,0.1221,0
19,-0.6796,0.1255,0.2959,0.0152,0.0402,0.1221,0
19,-0.6796,0.1255,0.2959,-0.0305,0.0381,0.0959,0
19,-0.6439,0.1061,0.2632,-0.0566,0.012,0.0784,0
19,-0.6296,0.0959,0.2551,-0.0643,-0.0065,0.0446,0
19,-0.6306,0.1132,0.2388,-0.0511,0.0,0.0076,0
19,-0.5928,0.0989,0.2336,-0.049,-0.0185,-0.0162,0
19,-0.5939,0.0867,0.2367,-0.085,-0.0511,-0.0316,0
19,-0.5745,0.0796,0.2306,-0.0948,-0.0784,-0.0511,0
19,-0.5755,0.0826,0.2469,-0.0784,-0.098,-0.073,0
19,-0.6143,0.0622,0.2581,-0.0698,-0.1035,-0.0915,0
19,-0.651,0.0755,0.2795,-0.0698,-0.1035,-0.0915,0
19,-0.6796,0.0826,0.3102,-0.0589,-0.1253,-0.1068,0
19,-0.6796,0.0826,0.3102,-0.0446,-0.1384,-0.1089,0
19,-0.7316,0.0918,0.3275,-0.0435,-0.1537,-0.1123,0
19,-0.8632,0.1806,0.3867,-0.0294,-0.1591,-0.1253,0
19,-0.9071,0.201,0.403,-0.0294,-0.1744,-0.1461,0
19,-0.9571,0.1898,0.3908,-0.086,-0.1995,-0.1613,0
19,-0.9938,0.1867,0.3714,-0.1274,-0.2169,-0.182,0
19,-1.0347,0.2296,0.3591,-0.1167,-0.2234,-0.2071,0
19,-1.0367,0.2255,0.3316,-0.1329,-0.2376,-0.2289,0
19,-1.0316,0.2275,0.3112,-0.1602,-0.2594,-0.2464,0
19,-1.0071,0.254,0.3184,-0.1602,-0.2594,-0.2464,0
19,-0.9438,0.2693,0.3326,-0.1635,-0.267,-0.2659,0
19,-0.9438,0.2693,0.3326,-0.182,-0.2812,-0.2878,0
19,-0.9051,0.2449,0.3245,-0.2344,-0.2693,-0.3172,0
19,-0.8816,0.2255,0.3418,-0.2627,-0.2562,-0.3532,0
19,-0.8673,0.204,0.3816,-0.2768,-0.2354,-0.388,0
19,-0.8704,0.1183,0.4408,-0.3073,-0.2071,-0.4044,0
19,-0.8775,0.1357,0.4642,-0.2987,-0.1581,-0.3924,0
19,-0.9061,0.1785,0.4928,-0.2693,-0.0894,-0.3695,0
19,-0.9877,0.1112,0.4469,-0.2693,-0.0894,-0.3695,0
19,-1.0081,0.1091,0.4347,-0.3422,-0.0272,-0.3422,0
19,-1.0336,0.1265,0.4367,-0.4229,0.0053,-0.3063,0
19,-1.0336,0.1265,0.4367,-0.4197,0.0381,-0.2922,0
19,-1.0602,0.1357,0.454,-0.4132,0.0872,-0.3031,0
19,-1.0816,0.1663,0.4806,-0.412,0.1167,-0.3085,0
19,-1.0918,0.153,0.4683,-0.4295,0.1264,-0.314,0
19,-1.0939,0.1214,0.452,-0.4775,0.1461,-0.3117,0
19,-1.0887,0.1285,0.4601,-0.4786,0.1678,-0.314,0
19,-1.0908,0.1306,0.5357,-0.4818,0.206,-0.3183,0
19,-1.0765,0.0643,0.5357,-0.5505,0.2245,-0.3128,0
19,-1.0326,-0.0051,0.5622,-0.5505,0.2245,-0.3128,0
19,-1.0051,-0.0602,0.5663,-0.5963,0.2398,-0.3008,0
19,-1.0051,-0.0602,0.5663,-0.5887,0.2823,-0.2998,0
19,-0.9235,-0.1122,0.6571,-0.5604,0.2976,-0.2693,0
19,-0.851,-0.1346,0.6489,-0.6039,0.2888,-0.2093,0
19,-0.9418,-0.3061,0.6918,-0.785,0.3281,-0.2224,0
19,-0.9,-0.4663,0.7459,-0.8787,0.3815,-0.194,0
19,-0.8939,-0.4653,0.6796,-0.8493,0.4,-0.1057,0
19,-1.0081,-0.5867,0.5367,-0.8853,0.4633,0.0065,0
19,-0.903,-0.7367,0.6,-0.9223,0.5135,0.11,0
19,-0.9387,-0.7142,0.4571,-0.7642,0.4502,0.2725,0
19,-0.8673,-0.5438,0.4459,-0.7642,0.4502,0.2725,0
19,-1.0143,-0.4285,0.4235,-0.4797,0.4404,0.3554,0
19,-1.0143,-0.4285,0.4235,-0.2659,0.5494,0.2703,0
19,-1.0602,-0.2531,0.4888,-0.0599,0.6955,0.2627,0
19,-1.053,-0.1459,0.4724,-0.0152,0.5702,0.3815,0
19,-0.9724,-0.1204,0.4061,-0.1558,0.4578,0.4698,0
19,-1.0367,-0.0898,0.3755,-0.2594,0.4895,0.483,0
19,-0.9653,-0.0377,0.35,-0.193,0.4611,0.496,0
19,-0.9449,0.0286,0.3857,-0.1384,0.4666,0.4841,0
19,-0.9244,0.0295,0.3591,-0.2354,0.4677,0.4601,0
19,-0.8806,-0.0081,0.3041,-0.2354,0.4677,0.4601,0
19,-0.8806,-0.0081,0.3041,-0.3542,0.3706,0.4786,0
19,-0.8622,-0.0051,0.2908,-0.3794,0.3521,0.4731,0
19,-0.8184,0.0122,0.2755,-0.3466,0.3586,0.4219,0
19,-0.8184,0.0031,0.2561,-0.3685,0.3466,0.4,0
19,-0.7704,-0.0132,0.2265,-0.4055,0.2791,0.3903,0
19,-0.7643,-0.0173,0.2112,-0.4317,0.2365,0.363,0
19,-0.749,-0.0092,0.1816,-0.4252,0.218,0.3412,0
19,-0.7602,-0.0234,0.1826,-0.4317,0.1919,0.3161,0
19,-0.7724,-0.0438,0.1735,-0.471,0.1667,0.3031,0
19,-0.7571,-0.0826,0.1489,-0.471,0.1667,0.3031,0
19,-0.7571,-0.0826,0.1489,-0.5004,0.1133,0.3031,0
19,-0.802,-0.1326,0.1377,-0.496,0.1013,0.2911,0
20,-0.803,-0.1346,0.1367,-0.4448,0.0828,0.2693,0
20,-0.8193,-0.1418,0.1275,-0.4143,0.0457,0.2638,0
20,-0.8193,-0.1551,0.1224,-0.4012,0.0021,0.2562,0
20,-0.8357,-0.1326,0.1296,-0.3456,-0.024,0.2495,0
20,-0.8541,-0.1153,0.1357,-0.2922,-0.037,0.2365,0
20,-0.8582,-0.1,0.1428,-0.2605,-0.0566,0.2278,0
20,-0.8837,-0.0857,0.1459,-0.2388,-0.0818,0.23,0
20,-0.9071,-0.0438,0.1765,-0.2388,-0.0818,0.23,0
20,-0.9326,-0.0295,0.1459,-0.2115,-0.098,0.2245,0
20,-0.9326,-0.0295,0.1459,-0.2027,-0.098,0.2169,0
20,-0.9714,0.0,0.1224,-0.1766,-0.1198,0.2224,0
20,-0.9479,0.0377,0.1428,-0.1461,-0.1493,0.2256,0
20,-0.9857,0.0632,0.1112,-0.1537,-0.1613,0.2201,0
20,-0.9296,0.0684,0.1041,-0.1732,-0.2049,0.2136,0
20,-0.9296,0.0684,0.1041,-0.1591,-0.2289,0.2147,0
20,-0.8541,0.052,0.1204,-0.1886,-0.23,0.1984,0
20,-0.8846,-0.0388,0.1153,-0.2453,-0.1875,0.1732,0
20,-0.903,-0.0908,0.1592,-0.2376,-0.1406,0.1591,0
20,-1.0183,-0.1632,0.2255,-0.1962,-0.0894,0.1602,0
20,-1.0652,-0.2275,0.199,-0.2005,-0.0414,0.1678,0
20,-1.1581,-0.2397,0.2316,-0.1318,-0.0326,0.1875,0
20,-1.2163,-0.2663,0.2306,-0.0469,-0.0206,0.1886,0
20,-1.3357,-0.2163,0.2234,0.0784,-0.0457,0.2136,0
20,-1.3265,-0.1265,0.2693,0.0784,-0.0457,0.2136,0
20,-1.3265,-0.1265,0.2693,0.2169,-0.0872,0.2321,0
20,-1.4112,-0.0602,0.3193,0.3183,-0.1035,0.2268,0
20,-1.3734,-0.0826,0.3724,0.3717,-0.169,0.2594,0
20,-1.2122,-0.053,0.4265,0.4273,-0.2333,0.3073,0
20,-1.1173,0.0418,0.4683,0.507,-0.2518,0.3281,0
20,-1.0408,0.1041,0.5591,0.5505,-0.2125,0.3434,0
20,-1.051,0.0745,0.5724,0.4916,-0.1449,0.3237,0
20,-1.0326,-0.0806,0.701,0.4164,-0.085,0.2627,0
20,-0.9826,-0.1949,0.6714,0.3685,-0.0708,0.2093,0
20,-1.0061,-0.303,0.5857,0.3685,-0.0708,0.2093,0
20,-1.0183,-0.2755,0.5969,0.3771,-0.037,0.1471,0
20,-1.0183,-0.2755,0.5969,0.5658,0.0457,0.0511,0
20,-1.0928,-0.1714,0.5734,0.7163,0.1079,-0.0402,0
20,-1.0989,-0.1479,0.5541,0.7512,0.1144,-0.1013,0
20,-1.0755,-0.103,0.5602,0.7708,0.0828,-0.1396,0
20,-1.0979,-0.0693,0.5714,0.7686,0.0925,-0.1482,0
20,-1.0989,-0.0163,0.5469,0.7522,0.0828,-0.1341,0
20,-1.0847,0.0745,0.6091,0.7773,0.0686,-0.1198,0
20,-1.1041,0.1265,0.5877,0.7359,0.0349,-0.1003,0
20,-1.001,0.1285,0.5979,0.7359,0.0349,-0.1003,0
20,-0.9622,0.2326,0.5693,0.6682,-0.0228,-0.0828,0
20,-0.9592,0.2928,0.553,0.652,-0.0108,-0.0763,0
20,-0.9592,0.2928,0.553,0.6138,-0.0305,-0.0599,0
20,-0.9561,0.3081,0.5255,0.5145,-0.0337,-0.0523,0
20,-0.8765,0.3265,0.5428,0.3946,-0.0534,-0.086,0
20,-0.7949,0.3653,0.5102,0.2867,-0.0446,-0.1602,0
20,-0.7979,0.3643,0.4765,0.1722,-0.0589,-0.1482,0
20,-0.7316,0.3071,0.4428,0.0141,-0.0686,-0.1362,0
20,-0.6816,0.2622,0.4235,-0.074,-0.0511,-0.1198,0
20,-0.65,0.2316,0.4235,-0.074,-0.0511,-0.1198,0
20,-0.6377,0.1714,0.3908,-0.1352,-0.0469,-0.1167,0
20,-0.6214,0.1112,0.3724,-0.2321,-0.0337,-0.1232,0
20,-0.6214,0.1112,0.3724,-0.2768,0.0011,-0.1068,0
20,-0.6163,0.0684,0.352,-0.2758,0.0381,-0.0969,0
20,-0.6489,0.0367,0.3245,-0.3031,0.0698,-0.0937,0
20,-0.6357,0.0081,0.3051,-0.3073,0.0708,-0.0872,0
20,-0.65,-0.004,0.2877,-0.2899,0.0698,-0.0872,0
20,-0.6551,0.0102,0.2745,-0.255,0.0545,-0.0763,0
20,-0.6877,0.0173,0.2734,-0.2234,0.0555,-0.0806,0
20,-0.704,0.0612,0.3071,-0.1831,0.073,-0.0915,0
20,-0.7397,0.1091,0.3214,-0.1831,0.073,-0.0915,0
20,-0.7888,0.1571,0.3234,-0.1635,0.0708,-0.0839,0
20,-0.7888,0.1571,0.3234,-0.206,0.0566,-0.0763,0
20,-0.799,0.1857,0.3326,-0.2224,0.0501,-0.074,0
20,-0.8163,0.2183,0.3347,-0.2289,0.0751,-0.0904,0
20,-0.8469,0.2408,0.3275,-0.255,0.0915,-0.1047,0
20,-0.8316,0.2581,0.3081,-0.3063,0.0806,-0.1396,0
20,-0.8061,0.2734,0.303,-0.3542,0.0719,-0.193,0
20,-0.7469,0.2663,0.2969,-0.4109,0.0719,-0.2268,0
20,-0.7347,0.2643,0.2704,-0.4557,0.1242,-0.2573,0
20,-0.6785,0.2285,0.3041,-0.4557,0.1242,-0.2573,0
20,-0.6785,0.2285,0.3041,-0.4895,0.1852,-0.2605,0
20,-0.6663,0.2163,0.3245,-0.5287,0.2333,-0.2354,0
20,-0.6418,0.1765,0.3612,-0.5635,0.2823,-0.181,0
20,-0.6571,0.1377,0.3745,-0.5919,0.3739,-0.1449,0
20,-0.8102,0.0887,0.3734,-0.5974,0.4611,-0.1242,0
20,-0.9214,0.0887,0.3846,-0.6018,0.5135,-0.0774,0
20,-1.0561,0.0806,0.3582,-0.6268,0.5179,-0.0217,0
20,-1.1418,0.0388,0.3367,-0.6465,0.5015,0.0032,0
20,-1.3143,-0.0051,0.2928,-0.6116,0.4666,0.0174,0
20,-1.3265,-0.0286,0.2908,-0.5494,0.4088,0.0,0
20,-1.3561,-0.0469,0.2888,-0.5494,0.4088,0.0,0
20,-1.3561,-0.0469,0.2888,-0.4938,0.3685,-0.0141,0
20,-1.3173,-0.0449,0.2867,-0.4263,0.3063,-0.012,0
20,-1.2806,0.002,0.3214,-0.3575,0.3085,-0.0294,0
20,-1.2275,0.0143,0.3459,-0.3325,0.3063,-0.0414,0
20,-1.1918,-0.001,0.3163,-0.3532,0.2966,-0.024,0
20,-1.0622,0.0102,0.3122,-0.3761,0.2802,-0.0097,0
20,-0.999,0.0245,0.352,-0.3783,0.3031,-0.024,0
20,-0.9806,0.0122,0.3673,-0.412,0.3532,-0.0435,0
20,-0.9622,-0.004,0.3867,-0.4546,0.3979,-0.037,0
20,-0.9398,-0.0214,0.4092,-0.4546,0.3979,-0.037,0
20,-0.9398,-0.0214,0.4092,-0.4763,0.4404,-0.0162,0
20,-0.9387,-0.0071,0.4041,-0.5112,0.4633,0.0326,0
20,-0.949,-0.0132,0.3683,-0.5799,0.4633,0.0969,0
20,-1.004,-0.0245,0.3622,-0.6432,0.4568,0.1449,0
20,-1.0979,-0.0102,0.3755,-0.7152,0.3859,0.1896,0
20,-1.1775,-0.0265,0.3846,-0.7981,0.2998,0.2388,0
20,-1.252,-0.052,0.3673,-0.8744,0.2224,0.2659,0
20,-1.2918,-0.0469,0.3541,-0.9114,0.1482,0.2823,0
20,-1.3102,-0.0673,0.3296,-0.991,0.0883,0.2867,0
20,-1.2836,-0.1285,0.2795,-0.991,0.0883,0.2867,0
20,-1.2234,-0.1561,0.249,-1.0923,0.0392,0.2888,0
20,-1.2234,-0.1561,0.249,-1.0946,0.0162,0.2737,0
20,-1.15,-0.1602,0.2255,-1.0902,0.025,0.2376,0
20,-1.0224,-0.2275,0.1479,-1.099,0.0316,0.2104,0
20,-0.9694,-0.2449,0.1581,-1.0652,0.0294,0.1951,0
