Timestamp,Ax,Ay,Az,Rx,Ry,Rz,EMG
0,-0.2817,-0.7429,0.6482,-0.3188,1.2105,0.6719,2052
0,-0.208,-0.7515,0.6714,-0.388,1.2798,0.7894,2053
0,-0.1936,-0.7363,0.6821,-0.4974,1.1792,0.8187,2046
0,-0.1392,-0.7212,0.7051,-0.7307,1.0001,0.8429,2050
0,-0.186,-0.5728,0.6497,-0.8167,0.8135,0.8333,2038
0,-0.363,-0.4431,0.6292,-0.7379,0.8509,0.81,2029
0,-0.5767,-0.405,0.7712,-0.7962,0.7285,0.7979,2035
0,-0.687,-0.3933,0.8108,-0.9508,0.4785,0.7941,2045
0,-0.7981,-0.3584,0.7485,-0.9019,0.6052,0.6962,2048
0,-0.6992,-0.5339,0.7717,-0.9837,0.5813,0.7035,2055
0,-0.5886,-0.5288,0.6941,-1.1119,0.4485,0.7332,2043
0,-0.4578,-0.5388,0.6741,-1.2094,0.2986,0.6841,2044
0,-0.4194,-0.5349,0.6892,-1.2667,0.2336,0.581,2041
0,-0.4465,-0.5198,0.646,-1.347,0.1807,0.6023,2046
0,-0.4487,-0.6443,0.6399,-1.3731,-0.0752,0.7139,2045
0,-0.49,-0.4939,0.5818,-1.3489,-0.2583,0.8131,2039
0,-0.5361,-0.3923,0.6331,-1.2344,-0.2017,0.8044,2026
0,-0.5867,-0.4407,0.7322,-1.138,-0.0577,0.6602,2021
0,-0.6562,-0.3987,0.8376,-1.3175,0.0313,0.4251,2063
0,-0.8486,-0.4592,0.688,-1.6307,0.0727,0.2912,2059
0,-1.0166,-0.4744,0.3005,-1.4934,0.1182,0.3016,2044
0,-1.1897,-0.7344,0.1306,-1.5705,0.4466,0.1503,2026
0,-0.7346,-0.8181,0.0256,-1.7313,0.8249,-0.0997,2050
0,-0.5349,-0.637,0.0493,-1.5625,0.8034,-0.0925,1998
0,-0.793,-0.9089,-0.0447,-1.4218,0.9869,-0.0936,2036
0,-0.3823,-0.8794,-0.1865,-1.2218,0.8982,-0.0088,2075
0,-0.3657,-0.9758,-0.0664,-1.0898,0.7697,-0.0447,2037
0,-0.4265,-0.9004,-0.1726,-0.9838,0.7231,0.0017,2049
0,-0.3955,-0.6787,-0.2102,-0.7719,0.2831,0.016,2043
0,-0.6003,-0.9951,-0.1316,-0.7967,0.5815,-0.171,2082
0,-0.7039,-0.7065,-0.178,-0.5143,0.5043,-0.1249,2044
0,-0.6748,-0.7397,-0.0576,-0.3623,0.6938,-0.2484,2054
0,-0.6553,-0.781,0.0037,-0.2446,0.5922,-0.2634,2099
0,-0.5754,-0.7893,0.0376,-0.1357,0.5143,-0.2968,1799
0,-0.5032,-0.804,0.063,0.0262,0.3462,-0.3492,2064
0,-0.5144,-0.8665,0.1121,0.0839,0.1629,-0.3653,2049
0,-0.5952,-0.8237,0.1475,0.1469,-0.0238,-0.3316,2056
0,-0.583,-0.8013,0.199,0.1795,-0.0951,-0.3618,2064
0,-0.5625,-0.7688,0.178,0.2578,-0.1635,-0.3405,2052
0,-0.5371,-0.7231,0.0928,0.697,-0.2041,-0.5012,2141
0,-0.4197,-0.833,0.3044,0.6889,-0.0614,-0.4866,1958
0,-0.3853,-0.7832,0.2529,0.7835,-0.1376,-0.3798,2028
0,-0.4341,-0.7708,0.3088,0.6219,-0.2682,-0.3147,2075
0,-0.5042,-0.8,0.2349,0.6465,-0.2574,-0.182,1996
0,-0.4602,-0.7649,0.3,0.7162,-0.2069,-0.135,2028
0,-0.3965,-0.738,0.4019,0.7755,-0.1071,-0.0603,1833
0,-0.4514,-0.7949,0.5063,0.7083,-0.1115,-0.0438,2147
0,-0.439,-0.7708,0.4436,0.7577,0.0771,0.0894,2324
0,-0.4624,-0.7219,0.4194,0.7413,-0.1301,0.2011,2130
0,-0.489,-0.8047,0.4541,0.7104,-0.3852,0.1983,1724
0,-0.3723,-0.7551,0.4897,0.5098,-0.5074,0.2634,1975
0,-0.4583,-0.7952,0.4597,0.4669,-0.5464,0.3301,2570
0,-0.3828,-0.9189,0.3953,0.395,-0.5504,0.3358,2356
0,-0.2822,-0.9929,0.377,0.3683,-0.487,0.35,1959
0,-0.2529,-1.0732,0.4646,0.3818,-0.4402,0.3963,2540
0,-0.4758,-1.1841,0.6213,0.5235,-0.5136,0.3619,2644
0,-0.6101,-0.8962,0.7488,0.5891,0.1988,0.3695,2139
0,-0.0281,-1.0635,0.7778,0.5442,0.495,0.4916,1157
0,0.0266,-1.24,1.093,0.4164,-0.3686,0.7156,2089
0,-0.4744,-1.0647,1.1443,0.4526,-0.4623,1.2761,1701
0,-0.4583,-1.3298,1.418,0.3088,-0.068,1.0447,1733
0,-0.1177,-1.365,1.3882,0.135,-0.1091,1.1117,2125
0,0.0234,-1.4143,1.3774,0.0125,-0.0787,1.1946,2024
0,0.0837,-1.2795,1.4285,-0.0626,-0.1422,1.3055,2093
0,-0.1155,-1.2144,1.5864,-0.2848,0.3199,1.3957,1911
0,0.0967,-1.1655,1.2039,-0.2321,0.9574,1.3101,2114
0,0.394,-1.2268,0.9854,-0.4196,1.4237,1.1461,2277
0,0.511,-1.031,0.9121,-0.6999,1.3627,1.438,2232
0,0.6067,-1.4829,0.4678,-1.0577,1.5566,1.7006,2471
0,0.0122,-1.4346,0.4307,-1.4414,1.9763,2.3999,2495
0,-1.0408,-1.7256,0.125,-1.1224,2.8173,2.5454,2379
0,-1.0508,-1.2236,0.5598,-0.644,2.9845,2.4268,1883
0,-0.9116,-0.8621,0.7935,-0.5243,3.0622,1.7829,1783
0,-0.5569,-0.8369,0.6426,-0.6686,3.5896,1.7607,1919
0,0.0437,-0.2185,0.4031,-0.2943,3.4097,1.6958,2017
0,-0.5164,-1.0403,0.3323,-1.4158,2.7607,1.0517,2002
0,-1.6614,-1.26,-0.4136,-1.7994,2.8288,1.0439,2245
0,-1.8804,-1.4641,-0.4314,0.2646,4.3634,0.5709,2046
0,-0.3123,-0.655,0.4963,1.2394,4.3634,0.1143,1948
0,0.5391,-0.5867,0.0251,0.9303,3.35,0.039,2018
0,0.7139,-0.0957,-0.3418,1.9467,2.7769,0.4568,1953
0,0.6289,-0.2197,-0.0232,2.2011,0.5681,-1.1292,1967
0,0.1199,-0.76,0.259,1.4627,0.0617,-0.8387,1974
0,0.332,-1.0127,0.175,0.6241,-0.7075,-1.1164,2062
0,0.4075,0.0981,-0.332,1.9887,-1.5063,0.1566,2026
0,-0.0366,-0.2356,0.2649,1.033,-1.2571,-0.1455,2033
0,-0.1614,-0.7607,0.2668,0.4715,-1.9779,-0.8902,2069
0,-0.334,-0.355,0.0142,0.7979,-1.8391,-0.9031,2081
0,-0.373,-0.2988,0.1199,1.1553,-1.8298,-0.9604,2036
0,-0.3645,-0.3904,0.2625,1.3215,-1.8197,-1.1287,2064
0,-0.3381,-0.4634,0.3235,1.3555,-1.8343,-1.207,2047
0,-0.3403,-0.5452,0.3364,1.3133,-2.0089,-1.503,2038
0,-0.426,-0.562,0.2886,1.0849,-2.2112,-2.0406,2027
0,-0.5757,-0.4663,0.1387,1.2013,-2.0366,-2.4614,2030
0,-0.3706,-0.5654,0.26,1.0292,-2.0357,-2.6184,2033
0,-0.4531,-0.5601,0.261,0.9935,-1.853,-2.7994,2029
0,-0.5002,-0.6174,0.1384,1.0786,-1.4002,-3.0329,2050
0,-0.4741,-0.6111,0.0972,1.1555,-1.291,-3.3045,2038
0,-0.4988,-0.6021,0.1282,1.2559,-1.2236,-3.4953,2051
0,-0.5093,-0.6716,0.1389,1.3041,-1.048,-3.7218,2040
0,-0.4587,-0.6953,0.1306,1.3041,-0.7791,-3.9082,2033
0,-0.4048,-0.676,0.0942,1.2382,-0.5172,-4.0812,2046
0,-0.3113,-0.6697,0.0488,1.2479,-0.3292,-4.2674,2049
0,-0.2007,-0.679,0.0195,1.292,-0.2963,-4.3559,2042
0,-0.1462,-0.718,0.0063,1.3282,-0.3337,-4.3635,2047
1,-0.1125,-0.7542,-0.032,1.2995,-0.4128,-4.3635,2052
1,-0.084,-0.7371,-0.0603,1.4254,-0.4233,-4.3635,2021
1,-0.0515,-0.7903,0.0002,1.5884,-0.506,-4.3635,2065
1,-0.002,-0.9253,0.1052,1.5881,-0.7146,-4.3635,1966
1,0.0627,-1.0647,0.1292,1.3822,-0.9313,-4.3635,2067
1,0.0454,-1.2029,0.0732,1.0144,-1.4246,-4.3635,2039
1,-0.0857,-1.2231,-0.0029,0.8396,-1.8632,-4.3635,2044
1,-0.2949,-1.2573,-0.0181,0.9873,-1.9331,-4.3144,2018
1,0.1201,-1.4546,0.457,0.5385,-2.0495,-4.0142,2097
1,0.2087,-1.3042,-0.1111,0.3979,-2.5946,-3.5716,2044
1,-0.0369,-1.4727,0.0322,0.5408,-2.8509,-3.1653,2022
1,-0.0417,-1.5225,0.5244,0.0415,-3.7482,-2.8313,2042
1,-0.385,-1.47,0.6396,-0.3217,-3.2512,-2.2558,1987
1,-0.7986,-1.1172,0.4917,-0.3149,-2.3641,-1.6942,1824
1,-0.8391,-1.0239,0.7073,-0.5778,-1.5301,-1.2758,1988
1,-0.4785,-0.979,0.6594,-0.8915,-1.0523,-0.5762,2032
1,-0.3984,-1.1235,0.5034,-1.2227,-0.7032,-0.0344,1953
1,-0.3564,-1.217,0.6409,-1.6797,-0.7373,0.4161,2123
1,-0.5049,-1.207,0.5632,-2.0631,-0.8917,0.8617,2105
1,-0.9163,-1.0588,0.5217,-2.1186,-0.4144,1.2889,2105
1,-1.063,-1.0837,0.4968,-2.2803,0.2725,1.5326,1997
1,-1.0688,-1.1624,0.3049,-2.2912,0.9833,1.4083,2046
1,-0.9321,-0.9707,0.1448,-2.3194,1.3785,1.3711,2102
1,-0.9514,-0.8228,0.1062,-2.3277,1.2009,1.4139,2053
1,-0.7849,-0.585,0.3521,-1.4573,0.775,1.3111,2063
1,-0.49,0.9478,1.9999,1.0507,-1.1118,1.784,1989
1,-1.2637,1.1887,1.9999,1.7992,1.6727,0.7541,2004
1,0.3923,-2.0,1.9999,-3.1408,4.3634,-1.0806,2067
1,-0.1091,-0.9976,1.7522,-3.4485,4.3634,0.5568,1913
1,-2.0,-0.9553,0.4338,-2.6233,4.3634,-0.232,2286
1,-1.1001,-0.9841,0.6042,-4.3635,3.0142,1.027,2066
1,0.3162,-1.6555,-0.9009,-0.8546,4.3634,0.6729,2177
1,1.9219,-0.95,-0.1006,-2.4341,1.0412,1.5599,2010
1,1.4839,-0.7483,-0.4961,-1.4897,0.4208,1.015,1983
1,1.1985,-1.0623,-0.5999,-2.4569,-1.0612,1.1234,2082
1,-0.7014,-2.0,-1.5249,-2.1554,1.3479,-1.6779,2018
1,0.4104,0.3274,-1.624,-0.5701,1.7928,1.0927,2075
1,0.6753,-0.782,0.1787,-0.5742,-1.0893,1.9398,2039
1,0.1523,-0.2175,0.5015,-1.0326,-3.4327,1.5478,1973
1,-2.0,-1.262,0.0598,-1.5663,-3.6876,0.9007,2018
1,-2.0,-1.3884,-0.3105,-1.3407,-0.2064,0.9609,2049
1,-0.8652,-0.9221,0.0706,-0.1023,1.6189,0.5251,2029
1,-0.2732,-0.7822,0.2068,-0.3117,1.8688,0.2747,2075
1,0.0508,-0.9668,0.2375,-0.6164,1.4057,0.4884,2032
1,-0.6726,-0.8132,0.0149,-0.822,1.2473,-0.0731,2048
1,-0.147,-0.991,0.0623,-0.7295,0.3137,0.1372,2014
1,-0.1711,-0.9685,0.1306,-0.6067,0.7905,0.0027,2041
1,0.1096,-1.1458,-0.1414,-0.4838,0.2798,0.4079,2041
1,-0.1938,-0.8674,0.1877,-0.5835,-0.1,0.4999,2034
1,-0.2915,-0.948,0.063,-0.5863,-0.0068,0.4646,2040
1,-0.3411,-0.9548,0.1416,-0.5153,0.0525,0.3682,2045
1,-0.4695,-0.8948,0.2515,-0.4382,0.1497,0.251,2052
1,-0.4136,-0.9272,0.2458,-0.3785,0.3143,0.1888,2061
1,-0.2454,-0.9231,0.3005,-0.3286,0.3706,0.1555,2034
1,-0.0796,-0.9517,0.3486,-0.3514,0.2494,0.206,2036
1,-0.0955,-0.9207,0.3528,-0.4679,0.0964,0.2864,2034
1,-0.1519,-0.8733,0.2822,-0.4362,0.1506,0.3521,2038
1,-0.3113,-0.8416,0.2334,-0.4088,0.3318,0.3278,2063
1,-0.1931,-0.8936,0.0925,-0.247,0.4192,0.2157,2141
1,-0.0122,-1.001,0.2261,-0.0517,0.2916,0.1804,2052
1,0.032,-0.9119,0.3223,-0.0281,0.1057,0.3085,1990
1,0.0645,-0.988,0.3213,-0.2567,0.1914,0.4944,2021
1,0.0088,-1.0486,0.2271,-0.3173,0.2282,0.5109,1981
1,-0.033,-0.9866,0.1821,-0.2495,0.2886,0.5062,2164
1,0.1084,-0.9409,0.1892,-0.2219,0.39,0.6315,1929
1,0.1565,-0.9771,0.2305,-0.1522,0.181,0.6723,2140
1,0.1274,-1.0161,0.2542,-0.3111,0.1148,0.8048,2452
1,0.0686,-0.9883,0.3225,-0.426,0.121,0.8608,2180
1,-0.0469,-0.9861,0.2971,-0.5424,0.2513,0.9063,2153
1,0.0242,-1.0217,0.2927,-0.6136,0.3573,0.9758,2122
1,0.0764,-1.0776,0.4001,-0.7094,0.404,1.0049,1758
1,-0.0129,-1.0452,0.4004,-0.8206,0.4963,1.1267,1900
1,0.1829,-1.0884,0.4124,-0.8858,0.495,1.2383,2213
1,0.01,-1.0071,0.4834,-1.0086,0.1879,1.3932,2143
1,-0.2202,-1.0339,0.5469,-1.054,0.3697,1.5538,2002
1,-0.29,-1.123,0.4714,-1.0777,0.6369,1.6988,2212
1,-0.2078,-1.1621,0.4131,-1.1011,0.9018,1.7571,2283
1,-0.0623,-1.4187,0.3696,-1.1786,0.8308,1.8614,2014
1,-0.0544,-1.3989,0.4226,-1.2034,0.3694,2.0919,2010
1,0.1328,-1.3367,0.6602,-1.2247,0.3128,2.338,1824
1,-0.052,-1.3435,0.6416,-1.3585,0.029,2.4097,2153
1,0.0027,-1.3784,0.7773,-1.368,0.3043,2.6663,2130
1,0.0828,-1.4324,0.8809,-1.4282,0.2499,2.8903,2078
1,0.1604,-1.5623,1.0234,-1.5696,0.1698,3.1431,2030
1,0.5034,-1.802,1.2698,-1.7804,0.1352,3.3155,2050
1,0.5889,-1.8584,1.6787,-2.2494,-0.0863,3.5194,2105
1,0.4392,-1.8257,1.9999,-2.8847,-0.1133,3.3705,1978
1,1.2415,-2.0,1.9999,-3.5691,-0.2362,3.7928,1975
1,1.623,-2.0,1.9999,-4.3635,-0.7026,4.3634,2119
1,0.9517,-1.8313,1.0537,-4.0692,-0.9897,4.2983,2094
1,-0.2905,-0.981,0.0676,-3.4448,-0.1839,4.3634,1942
1,-1.314,-2.0,-0.7031,-3.3629,1.2207,3.6617,2000
1,-1.3464,-2.0,-0.7302,-4.3635,0.9272,2.4373,2111
1,-1.1333,-1.4365,-0.6699,-4.0093,0.2511,4.3634,2154
1,-1.9827,-0.7549,-0.4294,-2.2108,0.2856,4.3634,2033
1,-1.3804,-0.1731,-0.2109,-0.3677,0.5332,3.8729,2071
1,1.9999,-0.5491,1.8235,-2.2292,1.1066,4.3634,2068
1,0.2336,-0.7087,-1.2117,-3.5254,-1.5603,4.3634,2138
1,-1.4033,0.8594,-2.0,-1.4426,-0.4924,1.3364,1931
1,-2.0,0.7244,-0.2532,0.9104,2.0463,-0.6127,2105
1,-0.9502,0.5776,0.2195,2.1172,-0.163,-2.4816,2076
1,-0.3455,0.4907,-1.1729,3.662,1.7033,-3.018,1932
1,0.3469,-1.0269,-0.0669,3.5776,1.2157,-3.6186,2018
1,0.5154,-0.3826,0.1741,2.7806,1.1629,-2.339,2023
2,0.1228,0.3899,-0.0332,1.9957,1.1927,-1.9226,2051
2,-0.1018,0.4297,-0.2493,2.0156,0.6972,-2.4277,2065
2,0.0496,0.1797,-0.3435,2.1182,-0.0858,-2.8417,2055
2,-0.0413,-0.0811,-0.3367,1.9383,-0.6861,-3.0552,2061
2,-0.1746,-0.0498,-0.386,2.3413,-0.8819,-2.9758,2047
2,-0.2021,-0.0261,-0.2529,3.0351,-0.94,-3.2879,2039
2,-0.1094,0.0969,0.0396,3.0194,-1.2853,-3.4816,2042
2,-0.1292,0.0005,0.0266,2.8638,-1.3644,-3.5893,2053
2,-0.2131,-0.04,-0.072,3.0558,-1.2214,-3.7608,2049
2,-0.208,-0.0674,-0.0759,3.2255,-1.252,-3.9574,2048
2,-0.2458,-0.1111,-0.054,3.3797,-1.4276,-4.2871,2046
2,-0.167,-0.1897,0.012,3.4019,-1.87,-4.3635,2051
2,-0.0923,-0.2698,0.0344,3.4717,-2.1571,-4.3635,2094
2,-0.1541,-0.1455,-0.0847,3.5701,-1.9049,-4.3635,2069
2,-0.1777,-0.1592,-0.0059,3.9339,-1.7772,-4.3635,2058
2,-0.1033,-0.2869,0.1477,4.1446,-1.4996,-4.3635,2053
2,-0.1567,-0.5144,0.3223,4.0556,-1.2816,-4.3635,2039
2,-0.2893,-0.7222,0.2151,3.9884,-1.5066,-4.3635,2050
2,-0.335,-0.8542,0.1484,3.9439,-1.5709,-4.3635,2071
2,-0.3083,-1.03,0.0337,4.0678,-1.4041,-4.3635,1980
2,-0.3713,-1.3613,0.3101,4.3634,-1.8245,-4.3635,1957
2,-0.0759,-1.4727,0.6589,3.6458,-3.0819,-4.3635,2051
2,-0.4092,-1.6431,0.1216,3.4392,-2.6687,-4.3635,1952
2,-1.3,-1.5435,-0.116,3.6419,-2.9408,-4.3635,1898
2,-1.4832,-1.3105,0.96,3.5415,-0.6408,-4.3635,2418
2,-1.2573,-1.7207,1.312,2.5958,1.8426,-4.3635,1930
2,-2.0,-1.929,0.2361,1.7222,2.3111,-4.3635,1905
2,-1.3313,-1.4526,0.3105,2.1529,3.3136,-2.7619,2150
2,-0.064,-1.5002,0.7158,1.16,2.2743,-1.5599,2190
2,-0.1785,-1.9397,0.1404,0.0939,1.9386,-0.2381,2121
2,-2.0,-1.1306,0.2415,-0.624,1.8871,0.7063,2086
2,-1.6816,-0.9758,0.3301,-1.0324,4.3634,0.8849,2160
2,-0.4465,-1.8096,0.2617,-0.9266,4.2582,0.828,2082
2,1.9999,0.8269,0.5232,-4.3635,-1.9242,1.2102,1755
2,-1.1409,-2.0,-0.2778,-0.6365,2.967,1.7106,2365
2,1.9192,-2.0,1.9999,-0.648,4.3634,1.482,1993
2,1.9999,-1.9795,1.9999,-1.4049,-1.742,1.0698,1910
2,-0.156,-2.0,1.1787,-4.2122,-4.3635,2.0293,1703
2,-2.0,-2.0,0.2932,-4.3635,-0.0249,1.3563,1870
2,-2.0,-2.0,-2.0,-2.2222,4.3634,4.3634,2849
2,-0.5505,-0.0022,-0.2695,0.4317,4.3634,-0.656,2239
2,1.9999,-1.1787,0.0771,-3.162,4.3634,-0.4868,1685
2,1.99,-1.0408,-1.6614,-4.0824,-1.9361,0.7419,1902
2,-0.6929,-0.2373,-1.0708,-1.9487,-2.2481,1.1951,2036
2,-0.7332,0.064,-0.3423,-2.2598,-2.3384,0.2643,2210
2,-0.0127,0.5601,0.0234,-2.4252,-2.3016,-0.8255,2221
2,-1.8826,-1.2268,-0.5569,-2.2196,-2.0678,0.7609,2193
2,-1.8877,-2.0,-0.8508,-0.9139,0.8127,1.6807,1812
2,-0.3562,-0.8489,-0.6965,-0.2358,1.7045,0.6634,2052
2,0.1467,-1.1436,-0.5703,0.1374,1.2769,-0.0502,2013
2,0.0215,-1.1753,-0.3235,0.3408,0.2402,-0.0854,2096
2,-0.0913,-1.0198,-0.1624,0.386,-0.3265,0.3294,1941
2,-0.1902,-0.7429,-0.1387,0.5003,0.1475,0.7235,1997
2,-0.5774,-0.9377,-0.093,0.5008,0.2983,0.8694,1996
2,-0.6055,-0.9065,-0.0383,0.538,-0.0615,0.628,2072
2,-0.4822,-0.8535,0.0071,0.6866,-0.1147,0.6336,2018
2,-0.5208,-0.8552,0.2473,0.7935,-0.2587,0.5605,2046
2,-0.7273,-0.873,0.3701,0.7541,-0.2554,0.4581,2048
2,-0.8701,-0.8513,0.4502,0.8183,-0.023,0.2282,2059
2,-0.7056,-0.7854,0.4805,0.8028,0.2369,0.0258,2057
2,-0.509,-0.7434,0.4409,0.7389,0.2456,-0.0402,2031
2,-0.4407,-0.7751,0.4175,0.5912,0.0152,-0.0972,2008
2,-0.3879,-0.7927,0.3462,0.5229,-0.121,-0.1081,2002
2,-0.229,-0.8027,0.3511,0.5885,-0.3181,-0.1072,2017
2,-0.2644,-0.8562,0.4175,0.5119,-0.3591,-0.0365,2136
2,-0.1775,-0.8005,0.2991,0.5833,-0.4358,-0.1238,2033
2,0.0837,-0.8618,0.3865,0.6899,-0.9427,-0.1184,1856
2,0.2012,-0.8708,0.574,0.5079,-0.5504,0.0011,2160
2,-0.1157,-0.8853,0.4045,0.6943,-0.4956,-0.1132,2048
2,-0.3218,-0.8655,0.5955,0.765,-0.1639,-0.1294,2003
2,-0.3203,-0.7722,0.6748,0.7436,-0.0196,-0.1497,1777
2,-0.2048,-0.698,0.6658,0.6035,0.2527,-0.089,2108
2,-0.1477,-0.842,0.5847,0.5396,0.5007,-0.1178,2042
2,-0.0535,-0.8816,0.5476,0.451,0.7757,-0.0798,1958
2,0.0662,-0.814,0.519,0.3472,0.8601,-0.0272,2090
2,0.1184,-0.875,0.4839,0.2695,0.7,0.0707,2240
2,0.0593,-0.8704,0.4724,0.1906,0.6028,0.1634,2273
2,-0.0559,-0.9412,0.4712,0.2341,0.7789,0.2298,2097
2,-0.0381,-0.9189,0.4602,0.2109,0.9569,0.288,2000
2,-0.0735,-0.9551,0.5239,0.2011,1.0557,0.3452,1889
2,-0.0439,-0.8635,0.5061,0.1523,1.1025,0.4225,2161
2,-0.0923,-0.9058,0.5129,0.0916,1.1246,0.4651,2404
2,-0.1125,-0.9153,0.4436,0.0507,1.1552,0.532,1874
2,-0.0869,-0.9983,0.4111,0.0345,0.9725,0.6022,2577
2,-0.0693,-0.9316,0.3628,0.0052,0.8652,0.6843,2343
2,-0.1641,-0.9907,0.4856,0.096,0.7678,0.764,1487
2,-0.2061,-0.9014,0.49,0.0912,0.8345,0.8602,2158
2,-0.1235,-0.9749,0.6047,0.1011,0.8701,0.9517,1603
2,-0.2263,-0.9355,0.6455,0.1009,0.9301,0.9758,2215
2,-0.2148,-0.9343,0.6692,0.1194,1.085,1.0622,2280
2,-0.1064,-1.0347,0.7698,0.132,1.1737,1.1938,1548
2,-0.0183,-1.1016,0.76,0.0655,1.1475,1.3468,2134
2,0.1067,-1.1184,0.7422,0.0059,0.9982,1.5197,2087
2,0.0591,-1.1384,0.7324,-0.0093,0.9075,1.6679,2038
2,0.0168,-1.239,0.8003,-0.1161,1.0304,1.7502,2002
2,0.1973,-1.4727,0.9102,-0.1614,1.0497,1.9161,2032
2,0.1106,-1.5354,1.0771,-0.0052,1.3372,2.1021,2025
2,0.3582,-1.2295,1.0303,-0.1072,2.0522,2.1059,2140
2,0.835,-1.4487,1.0889,-0.3139,2.486,2.2668,2062
2,1.1162,-1.511,0.9258,-0.6031,2.3931,2.5227,2128
2,1.1072,-1.8171,0.8115,-1.0935,2.2586,3.1425,2070
3,0.9043,-1.8784,0.6699,-1.3599,1.8132,3.3258,2028
3,0.7302,-1.9495,0.3955,-1.6832,1.9084,3.1835,2292
3,0.593,-1.5005,-0.2,-2.0937,1.841,3.4304,2437
3,-0.1455,-2.0,-0.2639,-2.0622,2.848,3.1368,2376
3,-0.9114,-1.8848,-0.241,-1.6945,1.5653,2.4314,1905
3,-1.426,-1.1899,0.2515,-1.7169,2.2704,3.0802,1729
3,-1.0996,-0.989,0.5371,-1.3754,2.38,2.6978,1881
3,0.7168,-0.207,0.3726,-2.4819,2.4734,3.9361,1970
3,-0.801,-1.1819,-0.8184,-2.8031,1.2252,4.3634,1942
3,-2.0,-0.9558,-1.3098,0.118,4.3634,2.2474,2740
3,-1.8083,-0.2126,-0.5308,2.8329,4.3634,0.3365,1743
3,-0.5854,-0.5054,-0.2998,2.2262,4.3634,-0.9987,1924
3,0.0361,-0.374,-0.8855,3.9981,4.3634,-1.456,1832
3,0.416,-0.7087,-0.3218,4.1289,4.3634,-2.7532,2039
3,0.6523,-1.002,-0.0715,3.4805,4.1325,-2.8749,2054
3,0.9646,-0.9763,-0.1309,3.0099,2.7201,-2.2526,2071
3,0.8215,-0.2271,-0.3999,3.0368,2.157,-1.3705,2074
3,0.3293,-0.0781,-0.3818,3.1721,2.0169,-1.1535,2063
3,0.0522,-0.5952,-0.3086,2.8462,1.8796,-1.1789,2056
3,0.0317,-0.8396,-0.5396,2.5802,1.8427,-1.358,2065
3,0.0664,-0.7737,-0.801,3.0775,1.6052,-1.6886,2061
3,0.0991,-0.6877,-0.5669,3.0214,1.3432,-1.99,2062
3,0.0491,-0.5063,-0.4917,3.0887,1.2384,-2.2812,2056
3,0.1279,-0.501,-0.5044,3.3925,0.559,-2.5362,2033
3,0.0532,-0.5701,-0.4666,3.4292,-0.0332,-2.76,2056
3,0.0249,-0.6448,-0.3435,3.3814,-0.3717,-2.9862,2047
3,-0.0479,-0.6238,-0.209,3.2444,-0.5916,-3.2116,2044
3,-0.2996,-0.6104,-0.2615,3.3533,-0.4858,-3.699,2055
3,-0.1592,-0.615,-0.1099,3.2299,-0.7992,-3.5804,2053
3,-0.0547,-0.6477,-0.0769,3.0859,-0.9451,-3.5643,2056
3,-0.2964,-0.6245,-0.0334,2.9646,-0.5976,-4.006,2079
3,-0.3889,-0.6323,-0.1055,2.9873,-0.134,-4.3635,2022
3,-0.3032,-0.5945,-0.1814,3.3063,0.0229,-4.3635,2044
3,-0.2542,-0.6968,0.0073,3.3108,-0.0409,-4.3635,2048
3,-0.3208,-0.8237,-0.0247,3.4549,0.0113,-4.3635,2024
3,-0.4419,-1.1042,0.0271,3.5571,0.0561,-4.3635,1992
3,-0.345,-1.2937,0.0562,3.4406,0.2405,-4.3635,1956
3,-0.0029,-1.3196,-0.0544,3.2672,0.0531,-4.3635,2024
3,0.1475,-1.603,-0.1182,3.1822,-0.9324,-4.3635,1984
3,-0.1182,-2.0,-0.0129,2.7782,-1.8488,-4.3635,1932
3,-0.2441,-2.0,0.1169,1.9052,-2.266,-4.3635,1921
3,0.0042,-1.6982,0.217,1.5255,-2.0807,-4.3635,1910
3,0.3352,-1.7776,-0.0364,0.7791,-1.8038,-4.3635,1996
3,0.2419,-2.0,-0.4226,0.5105,-1.9788,-3.868,1931
3,-0.1978,-2.0,-0.0562,0.226,-2.2422,-3.4276,2087
3,-0.4646,-1.7368,-0.094,-0.1586,-2.159,-2.6373,2216
3,-0.5864,-1.5173,-0.061,-0.4613,-1.9983,-1.7885,2206
3,-0.6528,-1.2876,0.0056,-0.8027,-1.7912,-0.8865,2147
3,-0.6548,-1.2883,0.0544,-1.2443,-1.5115,-0.1842,2086
3,-0.6987,-1.2603,0.1033,-1.5905,-1.1408,0.422,2167
3,-0.8604,-1.1145,0.0735,-1.7495,-0.7578,1.1109,2174
3,-1.0769,-1.0181,0.0732,-1.6815,-0.4947,1.5107,2103
3,-1.2798,-0.8901,0.1831,-1.6712,0.2549,1.717,2084
3,-1.2415,-0.824,0.2275,-1.6776,0.7213,1.8274,2013
3,-1.406,-0.7737,0.2825,-1.6807,1.0818,1.6788,2014
3,-1.427,-0.3726,0.4932,-1.1792,1.1561,1.2744,2132
3,-1.2146,0.8027,1.9999,-0.0953,0.7372,0.9963,2014
3,-0.9033,0.437,1.9999,-2.4894,4.3634,2.8516,2053
3,1.2419,-0.4844,1.9999,0.5281,4.3634,0.7692,2136
3,1.7495,-2.0,1.7566,-2.2806,3.0771,-1.6175,1892
3,-2.0,-2.0,0.5161,-0.1099,4.3634,-2.8956,1823
3,0.5376,-1.8726,0.2708,-4.0295,4.3634,2.8813,2144
3,0.4207,-0.7712,-0.0117,-1.8249,4.3634,1.6625,2201
3,-1.1675,-2.0,0.0518,-2.6184,2.4025,0.708,2132
3,1.343,-1.0518,-2.0,-2.8972,0.8983,0.5474,1968
3,0.918,0.5935,-0.865,-0.5529,1.7978,-0.0225,2177
3,0.2341,-1.1592,0.1462,-1.2845,0.2947,1.4496,2044
3,0.7534,-0.9846,-0.5151,-1.7018,-0.3125,2.1043,2007
3,-0.2051,0.2368,-0.5293,-1.205,-2.8012,0.8032,2051
3,-2.0,-1.9338,0.2922,-0.6813,-2.0706,1.6037,2023
3,-1.7778,-0.9614,0.0088,-1.2396,-0.4064,1.2481,2040
3,-1.3403,-0.6433,-0.0566,-0.7472,-0.281,0.133,2039
3,-1.3269,-0.8657,-0.0874,-0.4721,0.3083,-0.4858,2014
3,-0.3416,-0.9258,-0.1335,-0.2385,0.973,-0.5397,2047
3,0.4324,-1.2654,-0.1531,-0.2595,0.5132,0.0213,2059
3,0.4792,-1.2012,-0.1509,-0.175,-0.2465,0.3987,2044
3,0.0354,-0.9514,-0.0701,-0.2369,-0.5117,0.7239,2155
3,-0.7156,-0.856,-0.0288,-0.0635,-0.23,0.4329,2040
3,-0.676,-1.0015,0.0713,0.4324,-0.2304,0.0818,1964
3,-0.2878,-1.0076,0.2422,0.4964,-0.2647,-0.0806,2060
3,-0.0056,-0.9299,0.2793,0.3586,0.1317,0.1156,2038
3,0.0244,-1.0068,0.2314,0.1815,0.0344,0.2125,2025
3,0.0359,-1.0564,0.29,0.091,-0.2408,0.2546,2043
3,-0.0088,-0.9392,0.3198,-0.0403,-0.3835,0.3506,2052
3,-0.031,-0.9253,0.2727,-0.1598,-0.3922,0.333,1948
3,0.1555,-1.0447,0.2935,-0.2121,-0.4426,0.3321,2076
3,0.3037,-1.1062,0.1841,-0.1932,-0.4117,0.5745,1944
3,0.0723,-0.7939,0.113,-0.2302,-0.4558,0.526,1913
3,0.0078,-0.9402,0.114,-0.2979,-0.3852,0.5241,2151
3,0.0278,-0.9316,0.1497,-0.282,-0.4036,0.5702,2043
3,0.136,-0.8772,0.2073,-0.2924,-0.4871,0.6528,2032
3,-0.0427,-0.8403,0.2092,-0.336,-0.4979,0.7076,2055
3,-0.1548,-0.8298,0.1926,-0.31,-0.3155,0.7203,2006
3,-0.0957,-0.8738,0.1167,-0.3388,-0.1439,0.7447,2180
3,0.0112,-0.8889,0.0789,-0.414,-0.1208,0.7624,2042
3,0.1313,-0.9202,0.1035,-0.4227,-0.289,0.7839,2142
3,0.0088,-0.949,0.1147,-0.4782,-0.5074,0.8801,1963
3,-0.248,-0.95,0.1384,-0.4854,-0.5706,0.9178,2135
3,-0.2712,-0.9473,0.2004,-0.4769,-0.4742,0.9411,2063
3,-0.2361,-0.969,0.1851,-0.4489,-0.4181,0.952,2141
3,-0.2805,-0.9797,0.2065,-0.4492,-0.4309,0.9433,2015
3,-0.2939,-0.9814,0.2212,-0.4269,-0.3634,0.9544,2123
4,-0.2607,-1.021,0.1819,-0.3935,-0.3257,0.9503,2145
4,-0.2854,-1.0242,0.1487,-0.34,-0.2207,0.9344,2138
4,-0.2542,-1.0391,0.1445,-0.3165,-0.0803,0.9014,2009
4,-0.2341,-1.0662,0.1067,-0.3065,0.043,0.8465,1939
4,-0.1001,-1.1318,0.1328,-0.3239,0.1776,0.8056,1818
4,0.0188,-1.0964,0.1567,-0.3408,0.1815,0.8119,2139
4,0.0066,-1.1167,0.2688,-0.404,0.0683,0.8821,2043
4,-0.1169,-1.0889,0.3325,-0.454,-0.0402,1.0187,1688
4,-0.0872,-1.0669,0.3523,-0.4852,-0.0843,1.06,2190
4,0.0793,-1.0752,0.2871,-0.6235,-0.2208,1.1557,2150
4,0.0017,-1.0889,0.3464,-0.5165,-0.3097,1.2368,1990
4,-0.2917,-0.9827,0.4583,-0.4381,-0.2173,1.3801,2242
4,-0.1743,-0.9507,0.4714,-0.5445,-0.1872,1.5014,2068
4,-0.1816,-1.0078,0.4846,-0.5288,-0.0816,1.4776,1986
4,-0.2227,-0.9939,0.4712,-0.5364,0.0049,1.5696,2072
4,-0.166,-1.0393,0.5049,-0.5823,0.1272,1.7014,2096
4,-0.0559,-1.1187,0.4951,-0.6219,0.1598,1.7727,2072
4,-0.0518,-1.1367,0.5078,-0.6827,0.0911,1.8644,2050
4,0.0095,-1.1277,0.4736,-0.7441,0.0185,1.988,2073
4,0.0103,-1.2424,0.5464,-0.767,0.0666,2.1137,2031
4,0.0588,-1.1746,0.5586,-0.8962,-0.1137,2.1776,2061
4,0.1018,-1.1926,0.644,-1.0433,-0.0804,2.2935,2021
4,0.1516,-1.2336,0.762,-1.2447,-0.229,2.4248,2029
4,0.2864,-1.3247,0.8533,-1.5262,-0.4219,2.5722,2015
4,0.3572,-1.3286,1.0107,-1.9363,-0.5958,2.796,1997
4,0.3809,-1.5168,1.1638,-2.2483,-0.5881,2.9621,1927
4,0.4851,-1.6899,1.2261,-2.9606,-0.3317,2.9243,2024
4,0.3684,-1.707,1.1609,-3.5223,0.393,3.021,2080
4,-0.1501,-1.6855,0.6768,-3.6376,0.5043,2.9645,2071
4,-0.2642,-1.9282,0.188,-2.9111,0.518,3.0215,2034
4,0.2502,-1.8767,-0.0034,-2.7083,-0.045,3.693,2033
4,0.1621,-1.9861,-0.1604,-3.1648,-1.3652,3.7281,2049
4,-1.1313,-1.5222,-0.3628,-2.9949,-0.7341,3.6199,2082
4,-1.5134,-1.2803,-0.1653,-2.1106,0.2509,3.5161,2057
4,-0.9119,-0.917,0.1638,-2.1563,0.95,3.3978,2068
4,-0.3616,-0.2512,-0.2625,-1.7038,1.0571,2.6413,2072
4,0.4834,-0.356,0.2993,-2.0021,0.8586,2.2425,2072
4,0.4587,-2.0,0.2874,-4.3635,-3.1974,4.3634,2193
4,-2.0,1.3616,-2.0,-0.4127,1.8724,0.4279,2143
4,-2.0,0.0151,-0.1079,1.8467,1.9552,-1.9026,1970
4,-0.647,0.022,-0.2488,1.7018,-0.6488,-1.7326,1909
4,-0.2891,0.1484,-0.5999,3.1136,0.0583,-2.7068,1875
4,0.4141,-0.3982,0.073,3.8608,-0.4127,-4.3635,2001
4,0.6414,-0.4446,0.522,2.3997,0.804,-2.6244,2053
4,0.2761,0.0044,0.2354,1.2617,0.4709,-2.3186,2073
4,0.0364,-0.1387,-0.0669,1.0226,0.1057,-2.9403,2100
4,-0.1328,-0.478,-0.2393,1.3267,-0.5966,-3.5972,2077
4,-0.1702,-0.3318,-0.3733,1.4472,-0.5469,-3.1058,2069
4,-0.2439,-0.2925,-0.2864,1.9237,-0.4432,-3.1624,2052
4,-0.2322,-0.1345,0.0427,2.2077,-0.9913,-3.6051,2063
4,-0.2078,-0.1509,0.0737,2.3165,-0.9869,-3.7556,2070
4,-0.1926,-0.281,-0.0237,2.2843,-0.8733,-3.8792,2062
4,-0.1951,-0.2627,-0.0994,2.2605,-0.919,-4.0976,2071
4,-0.1667,-0.2837,-0.0964,2.4754,-1.1322,-4.2298,2034
4,-0.1604,-0.2705,-0.0637,2.389,-1.2275,-4.269,2048
4,-0.155,-0.2979,-0.0393,2.5065,-1.2671,-4.3635,2052
4,-0.2153,-0.4058,0.0222,2.6027,-1.3917,-4.3635,2055
4,-0.3176,-0.5139,-0.0476,2.663,-1.2051,-4.3635,2069
4,-0.3643,-0.5242,-0.1553,3.0483,-0.9716,-4.3635,2113
4,-0.3162,-0.5574,-0.0789,3.4914,-1.044,-4.3635,2022
4,-0.2551,-0.6462,0.1968,3.7604,-1.3025,-4.3635,2069
4,-0.2598,-0.8523,0.4102,3.6407,-1.37,-4.3635,1995
4,-0.1514,-1.116,0.3464,3.259,-1.4195,-4.3635,1994
4,-0.0527,-1.2388,0.1934,3.4013,-1.6428,-4.3635,2012
4,-0.4768,-1.7612,0.2922,2.9998,-2.4571,-4.3635,1922
4,-0.9663,-2.0,0.6484,1.9367,-2.3574,-4.3635,1856
4,-1.0105,-1.0356,0.3599,2.7362,-1.213,-4.3635,2052
4,-0.512,-1.821,0.7595,2.264,-0.954,-4.3635,2051
4,-0.4814,-1.9885,0.7852,1.9761,-0.4633,-4.3635,2120
4,-0.6504,-1.6416,0.7073,1.7575,0.6711,-3.9166,2128
4,-0.4827,-1.3472,0.7415,1.3535,1.3555,-3.4953,2120
4,-0.2822,-1.4541,0.9326,0.7216,1.3488,-2.9905,2123
4,-0.406,-1.2427,0.7852,0.1475,1.4165,-1.9727,2109
4,-0.7854,-1.0249,0.5972,-0.324,1.9628,-1.0549,2101
4,-0.801,-0.9724,0.4663,-0.7132,2.6412,-0.3115,2110
4,-1.0339,-1.0029,0.3491,-1.0103,3.2685,0.077,2152
4,-1.0894,-0.9636,0.1675,-1.1075,4.1995,0.3195,2087
4,-0.8767,-0.9299,0.1968,-1.0971,4.3634,0.5774,2075
4,-0.6462,-0.9492,0.2463,-1.3744,4.3634,0.8578,1976
4,0.052,-1.1401,-0.1821,-1.2053,3.7106,0.7528,1991
4,0.1001,-0.6348,1.9999,-2.3802,2.0073,1.1415,2020
4,0.9517,-0.9897,1.0916,-4.3212,2.8822,-0.3674,2006
4,1.2014,-0.4236,1.0701,1.152,1.9121,0.9404,2091
4,-0.1338,-2.0,1.9999,-3.8141,2.7313,3.4544,1875
4,1.6284,-0.9438,-0.1375,0.9708,2.3633,1.4671,2257
4,-0.6514,-1.4517,0.5337,-2.0607,0.5589,-0.0374,2110
4,-1.79,-2.0,0.9324,-2.8136,0.0261,2.4242,2077
4,-0.6946,-1.4246,-0.1599,-3.2805,0.0939,2.3577,2081
4,-0.7742,-1.0457,-0.4617,-1.688,2.0513,1.776,2013
4,-0.3643,-0.7554,0.4922,-2.1244,1.5111,0.7929,1995
4,-0.3137,-0.395,-0.0483,-1.9298,1.8937,1.1216,2001
4,-0.3914,-1.0486,-0.4331,-1.3892,2.5258,0.6829,2035
4,-0.9277,-2.0,-0.5273,-2.4743,3.8057,-0.2986,2001
4,0.0537,-1.1069,-1.2415,-1.5719,3.0774,0.5336,2101
4,0.9451,-0.4512,-0.1614,-0.799,0.9094,-0.0258,2109
4,0.9302,0.4314,-0.0103,-0.7815,-1.3601,-0.554,2106
4,-0.1646,-0.8069,-0.354,-0.2322,-1.8235,-0.1764,2096
4,-0.9316,-2.0,0.1572,-0.9182,-1.9664,1.3029,2039
4,-0.9185,-0.7407,0.1257,-0.7879,-0.5248,1.1006,2029
4,-0.9021,-0.2747,0.1431,-0.2252,0.4338,0.5919,2072
4,-0.9321,-0.876,0.2251,-0.5452,0.8983,0.962,2054
4,-0.5146,-1.0762,0.1321,-0.5722,1.093,0.6329,2028
4,-0.3108,-1.0193,0.031,-0.2354,0.7128,0.4478,1994
4,-0.3557,-1.0117,0.0598,0.0157,0.4259,0.0097,2048
4,-0.1755,-0.9292,0.1099,0.2092,0.1137,0.0754,1973
5,-0.0154,-0.8311,0.175,0.3161,0.1075,0.2852,2019
5,0.0964,-0.9404,0.2388,0.2485,0.2362,0.4388,2070
5,0.0027,-0.9624,0.3269,-0.0005,-0.1157,0.7296,2057
5,-0.197,-0.9771,0.2126,0.0063,-0.3409,0.7051,2036
5,-0.457,-0.9761,0.2979,0.0077,-0.2876,0.5456,2077
5,-0.4197,-0.8469,0.3191,0.0643,0.2031,0.5518,2030
5,-0.3125,-0.8403,0.1565,0.1272,0.5865,0.4417,2063
5,-0.1638,-0.8733,0.2151,0.2764,0.5291,0.3836,2165
5,-0.0002,-0.9004,0.3779,0.2029,0.2834,0.3864,2076
5,-0.0593,-0.9224,0.4148,0.0321,0.1151,0.4566,2081
5,-0.3386,-0.8662,0.3115,0.0325,0.0474,0.4872,1779
5,-0.3359,-0.9087,0.3965,0.0201,0.3273,0.567,2026
5,-0.229,-0.9192,0.3679,0.036,0.452,0.553,2059
5,-0.1536,-0.9219,0.3687,-0.0647,0.6292,0.5352,2057
5,-0.1042,-0.9192,0.3035,-0.1378,0.6256,0.5295,2010
5,-0.0908,-0.9292,0.2104,-0.1914,0.5979,0.6197,2223
5,-0.1223,-0.9253,0.1902,-0.1325,0.5265,0.6597,2015
5,-0.1177,-0.9602,0.1919,-0.0993,0.4617,0.7265,2090
5,-0.135,-0.9314,0.2512,-0.0996,0.5581,0.7781,2130
5,-0.1316,-0.9451,0.2947,-0.1764,0.5584,0.7757,1927
5,-0.1257,-0.9712,0.2468,-0.2314,0.6273,0.7753,1911
5,-0.0898,-1.0164,0.229,-0.2217,0.6389,0.8102,2110
5,-0.0583,-1.0288,0.3335,-0.2226,0.4669,0.9501,1573
5,-0.0378,-1.0256,0.3445,-0.2739,0.1129,1.0865,2154
5,-0.0608,-1.0422,0.3618,-0.2257,-0.0808,1.1588,2224
5,-0.2698,-0.9204,0.1477,-0.1437,-0.125,1.1503,2130
5,-0.1956,-0.9275,0.6194,-0.2004,-0.0181,1.0987,1958
5,-0.2554,-1.1487,0.4006,-0.0987,0.9345,1.2718,2315
5,-0.1008,-0.8574,0.6553,-0.2321,0.9672,1.1884,2070
5,0.0591,-1.0459,0.6443,-0.397,0.8909,1.3427,1710
5,-0.1318,-1.1638,0.8196,-0.3093,1.1124,1.5965,2110
5,0.0544,-1.1931,0.7373,-0.5164,0.8182,1.7093,1978
5,0.0034,-1.3818,0.6294,-0.4818,0.8987,1.8528,2071
5,0.082,-1.1885,0.6196,-0.5558,0.9806,2.1835,2029
5,0.1304,-1.2495,0.7366,-0.5642,0.8897,2.3382,2072
5,0.0474,-1.271,0.7791,-0.6636,0.9592,2.6147,1994
5,0.1028,-1.4468,0.8484,-0.7335,1.0445,2.7786,1899
5,-0.0298,-1.4937,1.0132,-0.7324,1.2027,2.9086,1905
5,0.3425,-1.6873,1.1736,-0.9682,1.1156,3.1645,1974
5,0.3389,-1.8774,1.4465,-1.4031,1.0528,2.9227,2132
5,0.854,-1.5906,1.2722,-1.617,1.5755,2.9028,2289
5,0.8145,-1.8965,1.5642,-2.8525,1.8282,2.8341,2378
5,1.0608,-2.0,0.7192,-3.4816,1.9815,3.0512,2196
5,0.3191,-1.2136,0.2847,-2.6723,2.071,3.6344,1989
5,0.0322,-2.0,0.0522,-3.5539,2.7349,2.8618,1756
5,0.6418,-1.8435,-0.6187,-3.3031,1.2533,2.9264,2022
5,-0.0679,-1.0154,-0.614,-2.9935,-0.2396,4.3634,1957
5,-2.0,-1.0249,-0.6062,-2.2442,0.0882,4.3634,2181
5,-2.0,-1.9541,-0.2671,-0.7514,0.9186,4.3296,2094
5,-0.9119,0.0986,0.5115,0.4112,2.0136,1.3327,1979
5,1.9999,0.2236,-0.2102,-2.4718,0.8119,4.3634,2106
5,-1.228,-0.8245,-1.7197,-1.2276,0.377,2.0469,2194
5,-1.906,-0.8125,-1.344,1.5695,2.2463,1.0385,2006
5,-1.4128,-0.0215,-0.2607,2.557,2.1152,0.2689,2035
5,-0.8015,0.3838,-0.9187,3.5295,2.8833,-1.1303,1974
5,-0.1633,-0.3953,-0.6858,4.3634,2.4756,-2.5365,1845
5,0.3672,-1.0271,0.2986,3.2427,2.277,-1.602,1982
5,0.1282,-0.4966,-0.3574,2.4594,1.7724,-1.4925,2069
5,-0.0862,-0.1379,-0.5432,2.6879,1.6835,-1.3544,2101
5,-0.1597,-0.2334,-0.5662,2.5633,1.6623,-1.8788,2087
5,-0.1316,-0.1948,-0.6545,2.3854,1.7389,-1.5913,2086
5,-0.1592,-0.2688,-0.7803,2.83,1.8017,-1.5691,2095
5,-0.0393,-0.3704,-0.7295,3.4712,1.19,-1.9074,2059
5,-0.1904,-0.1514,-0.5513,3.6391,0.9481,-2.1772,2035
5,-0.0081,-0.2302,-0.4443,3.4038,1.1274,-2.5007,2039
5,-0.0557,-0.1587,-0.5298,3.5308,0.9991,-2.7609,2061
5,-0.0991,-0.2686,-0.499,3.8171,0.7409,-2.997,2042
5,-0.0935,-0.4109,-0.4824,3.9603,0.4895,-3.2612,2048
5,-0.0676,-0.4607,-0.4124,4.0771,0.0936,-3.5517,2052
5,0.1902,-0.6194,-0.3711,3.6873,-0.1814,-3.3199,2101
5,0.1621,-0.5081,-0.4004,3.819,0.2868,-3.6792,2028
5,-0.1082,-0.4595,-0.2725,4.0958,0.4308,-3.9741,2117
5,-0.1455,-0.6118,-0.2266,3.9626,0.1557,-4.1305,2075
5,-0.0583,-0.8047,-0.0881,3.6788,-0.0979,-4.3635,2023
5,-0.0012,-0.8816,-0.2192,3.5864,0.0475,-4.3635,2010
5,0.0103,-0.9685,-0.2285,3.2991,-0.1405,-4.3635,2005
5,-0.0442,-0.9836,-0.2219,3.1602,-0.2199,-4.3635,2041
5,0.0369,-1.0391,-0.1987,3.1288,-0.083,-4.3635,2037
5,0.198,-1.0588,-0.0142,2.9817,-0.0405,-4.3635,2038
5,0.2319,-1.1768,-0.0293,2.8545,-0.4018,-4.3635,1991
5,0.1931,-1.3789,-0.0618,2.6372,-1.1737,-4.3635,2046
5,0.0747,-1.5166,-0.0371,2.374,-1.7245,-4.3635,2043
5,0.0591,-1.6365,0.0015,2.0401,-2.2089,-4.3635,2038
5,-0.0059,-1.6506,0.0774,1.6614,-2.5229,-4.3635,2029
5,-0.1946,-1.6072,0.1072,1.5886,-2.3529,-4.3635,2023
5,-0.0554,-1.6799,0.3257,1.8852,-2.0141,-4.3635,2003
5,0.4958,-1.4973,0.2876,1.0713,-2.5266,-3.8657,1987
5,0.4585,-1.5757,-0.2061,1.7159,-3.5162,-2.9909,1942
5,-0.5198,-1.854,0.3489,1.6757,-4.2682,-3.0039,1984
5,-0.5095,-1.5469,0.3987,1.322,-3.2243,-2.9237,2165
5,-0.7651,-1.4983,0.4985,0.4835,-2.2843,-3.1644,2213
5,-1.1072,-1.501,0.6389,0.2021,-1.4129,-2.4129,1898
5,-0.6904,-0.9897,0.5774,0.1136,-0.7255,-1.5605,2049
5,-0.5034,-1.0837,0.4834,-0.461,-1.0175,-0.6232,1911
5,-0.6216,-1.4092,0.1028,-0.9224,-1.188,0.037,2131
5,-1.0972,-1.0017,0.4382,-1.0194,-0.477,0.8987,2255
5,-1.8906,-0.6858,0.4312,-1.2207,0.4377,1.4051,2153
5,-1.9932,-0.8127,0.229,-1.1496,1.8996,1.6807,2052
