Timestamp,Ax,Ay,Az,Rx,Ry,Rz,EMG
0,-0.0095,0.6206,-0.8296,0.1254,-0.267,1.1172,2048
0,-0.0234,0.5815,-0.8813,0.0656,-0.1903,1.0533,2036
0,-0.0117,0.5557,-0.9097,0.0828,-0.081,1.0067,2047
0,0.0046,0.5349,-0.9207,0.0743,0.1093,0.8522,2043
0,0.0278,0.5938,-0.9622,0.089,0.218,0.6895,2044
0,0.0544,0.6604,-0.947,0.0883,0.3183,0.4922,2037
0,0.0969,0.7175,-0.9419,0.0533,0.3864,0.408,2042
0,0.1399,0.762,-0.9324,0.0055,0.5204,0.3623,2028
0,0.209,0.8083,-0.9236,-0.0854,0.6144,0.3834,2048
0,0.3035,0.8445,-0.9192,-0.1422,0.6331,0.4352,2033
0,0.4058,0.8198,-0.9468,-0.1947,0.596,0.5424,2043
0,0.4238,0.8125,-0.9465,-0.2671,0.5831,0.5869,2044
0,0.4189,0.7654,-0.9265,-0.3655,0.5271,0.5537,2045
0,0.3879,0.7329,-0.873,-0.4303,0.4609,0.455,2065
0,0.3384,0.7197,-0.863,-0.4979,0.4239,0.32,2047
0,0.2705,0.7432,-0.8379,-0.486,0.4213,0.147,2046
0,0.217,0.7544,-0.7974,-0.4247,0.4718,0.068,2043
0,0.1707,0.7002,-0.7349,-0.3974,0.7032,-0.0362,2051
0,0.1343,0.6648,-0.6514,-0.3713,0.9953,-0.1185,2051
0,0.1462,0.6384,-0.5984,-0.432,1.2069,-0.2321,2038
0,0.1575,0.6165,-0.5798,-0.4991,1.3769,-0.4055,2036
0,0.1272,0.6719,-0.6289,-0.4573,1.6326,-0.4397,2034
0,0.1555,0.6763,-0.6689,-0.3618,1.7638,-0.5911,2044
0,0.1853,0.6816,-0.7019,-0.3345,1.8698,-0.6474,2027
0,0.2363,0.6978,-0.708,-0.3615,1.9086,-0.6213,2034
0,0.2898,0.7009,-0.7607,-0.3745,1.8879,-0.51,2040
0,0.2874,0.6697,-0.7261,-0.3559,1.8385,-0.471,2044
0,0.2458,0.6382,-0.6963,-0.3882,1.7279,-0.4581,2047
0,0.1785,0.6299,-0.6877,-0.4525,1.5889,-0.4994,2049
0,0.1257,0.6379,-0.6917,-0.4615,1.4886,-0.5444,2047
0,0.1047,0.6301,-0.6777,-0.4035,1.411,-0.5826,2036
0,0.0972,0.6299,-0.6562,-0.401,1.327,-0.5846,2037
0,0.1228,0.6187,-0.6147,-0.3816,1.2167,-0.507,2031
0,0.1743,0.6094,-0.5754,-0.3533,1.0448,-0.4107,2049
0,0.229,0.5422,-0.5571,-0.3052,0.7974,-0.3345,2040
0,0.2312,0.5334,-0.5425,-0.2368,0.5842,-0.299,2055
0,0.1985,0.5322,-0.5769,-0.126,0.4922,-0.3176,2053
0,0.1467,0.5286,-0.5774,-0.0461,0.6058,-0.3994,2054
0,0.0835,0.5369,-0.5898,0.0384,0.7251,-0.4915,2056
0,0.0637,0.5603,-0.5806,0.0702,0.803,-0.5489,2047
0,0.1096,0.6072,-0.5425,0.1846,0.9107,-0.5284,2023
0,0.1765,0.6226,-0.5103,0.2153,0.9717,-0.4376,2036
0,0.2437,0.6365,-0.4719,0.2538,0.9801,-0.3101,1955
0,0.2644,0.6646,-0.4866,0.3438,0.8552,-0.1619,2098
0,0.2842,0.6692,-0.511,0.5011,0.7256,-0.0377,2103
0,0.3025,0.6387,-0.5771,0.6028,0.5444,0.0728,2066
0,0.3052,0.6345,-0.6172,0.7409,0.4344,0.1983,2049
0,0.2874,0.6494,-0.5967,0.783,0.4189,0.3012,2063
0,0.2183,0.6707,-0.5181,0.6991,0.465,0.3567,2056
0,0.1526,0.7156,-0.5049,0.6385,0.5304,0.3872,2048
0,0.1597,0.7651,-0.5835,0.6276,0.5253,0.4193,2049
0,0.1897,0.7759,-0.6558,0.5902,0.5098,0.4643,2038
0,0.219,0.7507,-0.7019,0.5755,0.4948,0.5161,2032
0,0.229,0.7351,-0.7778,0.5726,0.4396,0.5217,2036
0,0.2427,0.7446,-0.7664,0.6047,0.3404,0.5428,2041
0,0.2478,0.7517,-0.6826,0.5585,0.3192,0.5678,2038
0,0.2556,0.7688,-0.6697,0.4615,0.2762,0.5789,2048
0,0.2825,0.7905,-0.7175,0.3634,0.1405,0.556,2036
0,0.3169,0.7766,-0.7373,0.3381,0.0874,0.5512,2049
0,0.3281,0.7803,-0.6919,0.3293,0.1429,0.5401,2034
0,0.2786,0.772,-0.6753,0.206,0.1886,0.5111,2044
0,0.2505,0.8003,-0.6902,0.137,0.1059,0.4542,2046
0,0.2424,0.842,-0.6252,0.0935,0.0734,0.4552,2041
0,0.2554,0.8428,-0.5566,0.0421,0.0758,0.4787,2040
0,0.2627,0.8928,-0.5208,-0.0619,0.0911,0.5171,2054
0,0.262,0.9424,-0.5125,-0.0847,-0.0276,0.5203,2041
0,0.2651,0.9163,-0.4817,-0.0672,-0.1507,0.4763,2045
0,0.2361,0.9368,-0.4978,0.014,-0.1517,0.4301,2048
0,0.1592,0.9395,-0.5046,0.1159,-0.0393,0.3605,2056
0,0.1035,0.8899,-0.4021,0.0417,-0.0333,0.2558,2052
0,0.1252,0.9216,-0.4092,-0.0671,-0.1762,0.1529,2067
0,0.1118,0.9153,-0.4785,0.0356,-0.1677,0.0863,2070
0,0.1326,0.8342,-0.3962,-0.0252,-0.1899,0.0469,2027
0,0.1257,0.8066,-0.3188,-0.0898,-0.3538,-0.0216,2047
0,0.1599,0.8096,-0.3245,-0.0438,-0.5954,-0.1125,2072
0,0.1677,0.8779,-0.3745,-0.0581,-0.5781,-0.2388,2048
0,0.1882,0.9624,-0.3552,-0.0346,-0.4944,-0.2958,2058
0,0.1941,1.0706,-0.3191,-0.0101,-0.4625,-0.2659,2046
0,0.27,1.1511,-0.4014,0.0507,-0.5506,-0.1965,2039
0,0.3826,1.1729,-0.4072,0.1655,-0.6433,-0.0061,2052
0,0.4089,1.1201,-0.3972,0.1216,-0.7131,0.2197,2025
0,0.3315,1.1338,-0.4883,0.0493,-0.6936,0.3255,2060
0,0.2727,1.0913,-0.5164,-0.2266,-0.5829,0.2248,2052
0,0.3394,0.9961,-0.5986,-0.4855,-0.5201,0.0676,2049
0,0.425,0.8845,-0.6772,-0.6875,-0.5469,-0.0309,2028
0,0.5264,0.7744,-0.8352,-0.8139,-0.5544,-0.0443,2044
0,0.5066,0.6758,-0.8767,-0.7131,-0.4556,-0.0625,2038
0,0.3914,0.6787,-0.8396,-0.5497,-0.2484,-0.0912,2052
0,0.2124,0.7917,-0.7261,-0.2659,0.0144,-0.1317,2052
0,0.0747,0.938,-0.6067,-0.1274,0.241,-0.1806,2039
0,0.1902,1.0857,-0.6658,-0.0489,0.3791,-0.1615,2071
0,0.4614,1.1008,-0.687,-0.0063,0.5635,-0.1087,2063
0,0.7002,1.0498,-0.6965,-0.0222,0.5181,-0.0337,2024
0,0.825,1.0,-0.759,0.0787,0.3093,0.0961,2024
0,0.8398,0.9539,-0.7844,0.1835,0.1357,0.2364,2023
0,0.813,0.8259,-0.8127,0.2847,0.0252,0.2513,2006
0,0.7251,0.6628,-0.7917,0.2278,0.0317,0.2735,2058
0,0.6763,0.5242,-0.8118,0.1563,0.1172,0.3149,2012
0,0.6233,0.4172,-0.7661,0.0048,0.1798,0.3819,2062
0,0.5425,0.3181,-0.7051,-0.2278,0.2896,0.3856,2057
0,0.5615,0.2947,-0.7742,-0.4384,0.412,0.4231,2066
1,0.5745,0.3694,-0.7871,-0.5176,0.3438,0.4663,2065
1,0.5391,0.3816,-0.7622,-0.6107,0.2519,0.5104,2054
1,0.4902,0.4155,-0.8003,-0.6384,0.2043,0.4705,2050
1,0.3447,0.4829,-0.8889,-0.6553,0.2281,0.4031,2059
1,0.1892,0.4695,-0.8418,-0.8003,0.4245,0.263,2037
1,0.1174,0.4478,-0.8633,-0.9262,0.6879,0.0732,2037
1,0.1514,0.4775,-0.835,-1.0858,0.7108,-0.0634,2066
1,0.207,0.5566,-0.752,-1.2057,0.8048,-0.092,2033
1,0.2085,0.6914,-0.7488,-1.2275,0.757,-0.1224,2037
1,0.1643,0.7764,-0.6355,-1.1507,0.7068,-0.1956,2044
1,0.1055,0.741,-0.5576,-1.0764,0.6365,-0.2959,2057
1,0.0295,0.6816,-0.4678,-1.0597,0.5584,-0.3598,2052
1,0.0337,0.686,-0.543,-1.0495,0.5911,-0.3671,2030
1,0.1084,0.7026,-0.5884,-1.0286,0.5721,-0.3654,2069
1,0.0554,0.731,-0.5994,-0.9672,0.6444,-0.4089,2041
1,0.0103,0.708,-0.5237,-0.9529,0.6617,-0.4914,2045
1,0.0312,0.6946,-0.5327,-0.9678,0.6889,-0.5932,2053
1,0.061,0.6848,-0.5754,-1.0565,0.7858,-0.6403,2022
1,0.0596,0.7527,-0.5457,-1.0883,0.7545,-0.6914,2043
1,0.0449,0.8013,-0.4988,-1.0219,0.6299,-0.7439,2015
1,0.0457,0.7957,-0.4854,-0.9774,0.4938,-0.8198,2017
1,0.073,0.7271,-0.4675,-0.9468,0.3485,-0.8384,2050
1,0.0789,0.6428,-0.3896,-1.0368,0.2562,-0.855,2046
1,0.0559,0.646,-0.3906,-1.1196,0.1523,-0.8933,2044
1,0.0391,0.7017,-0.3696,-1.1312,0.2369,-0.8938,2029
1,0.0342,0.7209,-0.3386,-1.1336,0.3509,-0.9126,2045
1,0.0999,0.6992,-0.3281,-1.0866,0.3955,-0.9166,2057
1,0.1699,0.6726,-0.2622,-1.0527,0.3264,-0.9637,2042
1,0.1904,0.6655,-0.0056,-1.2957,0.2497,-1.0059,2026
1,0.2026,0.5654,0.2261,-1.7459,-0.0233,-0.9955,2041
1,0.4917,0.6414,-0.2651,-1.7719,-0.4073,-0.874,2060
1,1.1421,0.9888,-0.8894,-0.6268,-1.1577,-0.2555,2016
1,1.3606,1.3804,-1.0928,0.0623,-1.7884,0.6738,2019
1,1.2141,0.9963,-1.196,0.7612,-2.1297,1.4094,2057
1,0.9333,0.2595,-1.1133,1.0881,-2.2429,1.7612,2062
1,0.4602,-0.436,-0.8518,0.8224,-1.8118,1.5824,2065
1,0.0713,-0.6223,-0.7263,0.5843,-1.2718,1.0448,2098
1,-0.0315,-0.4194,-0.6389,0.3144,-0.7713,0.8192,2078
1,0.0347,-0.156,-0.5222,-0.0848,-0.0924,0.9036,2028
1,0.092,0.2312,-0.4441,-0.2748,0.7405,0.8621,2019
1,0.1572,0.5713,-0.479,-0.1724,1.2042,0.7581,2027
1,0.2085,0.7512,-0.5588,0.0519,1.3539,0.5058,2049
1,0.2812,0.6785,-0.5806,0.4019,1.3279,0.2738,2033
1,0.2776,0.5447,-0.5889,0.6235,1.3227,0.1224,2054
1,0.1736,0.4365,-0.5876,0.7684,1.5544,0.045,2051
1,0.1013,0.3147,-0.6077,0.7356,1.8097,-0.0346,2050
1,0.1184,0.3347,-0.6257,0.5296,1.8246,0.019,2045
1,0.2859,0.5088,-0.7761,0.3778,1.7187,-0.0278,2046
1,0.4807,0.6475,-0.9067,0.3255,1.5472,-0.0638,2012
1,0.5332,0.6931,-0.8958,0.1408,1.4771,-0.0397,2044
1,0.5405,0.7546,-0.8765,-0.0007,1.3258,-0.0702,2053
1,0.5481,0.8252,-0.853,-0.1883,1.201,-0.0541,2053
1,0.5278,1.0591,-0.9651,-0.4201,1.1046,-0.0381,2051
1,0.6616,1.3486,-0.9431,-0.7988,1.142,-0.1029,2034
1,0.7363,1.4893,-0.8528,-0.9718,1.4211,-0.3317,2016
1,0.5112,1.4351,-0.5845,-0.8276,1.8727,-0.5396,2057
1,0.3311,1.3657,-0.375,-0.7336,1.8892,-0.8184,2081
1,0.2693,1.3547,-0.2109,-0.6367,1.8994,-0.7474,2049
1,0.0679,1.3826,0.0356,-0.4887,2.2001,-0.7331,2053
1,-0.1912,1.1936,0.2219,-0.0634,2.1547,-0.8381,2060
1,-0.2185,1.0991,0.2734,0.1746,1.8945,-0.7466,2062
1,-0.1511,0.9851,0.3472,0.2982,1.5657,-0.7609,2060
1,-0.1069,0.8992,0.4055,0.3982,1.4443,-0.6822,2027
1,0.1021,0.9412,0.4963,0.4392,1.3844,-0.6532,2040
1,0.2913,1.0396,0.4561,0.4452,1.2093,-0.6054,2032
1,0.4634,1.0798,0.3369,0.7532,1.1079,-0.4123,2045
1,0.5801,0.8962,0.3542,0.9074,1.0452,-0.3589,2050
1,0.6187,0.6936,0.2898,0.7846,0.9578,-0.2464,2030
1,0.7188,0.6211,0.1589,0.6075,0.7123,-0.1121,2049
1,0.8745,0.5735,0.094,0.6911,0.5541,-0.0236,2039
1,0.7957,0.5303,0.0095,0.4837,0.4181,0.1735,2038
1,0.7686,0.5676,-0.1172,0.4328,0.387,0.3179,2054
1,0.7217,0.5701,-0.1895,0.3337,0.6295,0.3834,2064
1,0.7056,0.501,-0.3125,0.2219,0.9401,0.3874,2049
1,0.6001,0.5188,-0.3894,0.202,1.307,0.491,2051
1,0.4524,0.533,-0.436,0.1708,1.6215,0.5416,2033
1,0.3311,0.6001,-0.4849,0.1685,1.912,0.4746,2045
1,0.1948,0.7034,-0.5181,0.2449,2.0973,0.3852,2046
1,0.0935,0.7195,-0.5042,0.3048,2.1806,0.2569,2056
1,-0.033,0.6943,-0.4124,0.2966,2.3077,0.121,2045
1,-0.0349,0.7498,-0.4058,0.3663,2.229,0.0668,2049
1,-0.0081,0.7522,-0.3765,0.432,2.1571,0.0415,2047
1,-0.0095,0.761,-0.3354,0.5291,2.1694,-0.0376,2028
1,-0.0054,0.7715,-0.2954,0.6291,2.1126,-0.1583,2044
1,0.0295,0.7605,-0.2803,0.6926,2.0519,-0.2683,2036
1,0.0679,0.7437,-0.2571,0.7018,2.0434,-0.2643,2038
1,0.1191,0.7778,-0.2913,0.7048,1.9911,-0.2452,2046
1,0.1833,0.7561,-0.2871,0.8295,1.9683,-0.2376,2035
1,0.2334,0.675,-0.2512,0.8464,2.0093,-0.2308,2033
1,0.229,0.6321,-0.2341,0.8308,2.165,-0.237,2047
1,0.2485,0.6455,-0.2305,0.7991,2.2184,-0.2551,2045
1,0.3054,0.6558,-0.2407,0.7709,2.2598,-0.2687,2039
1,0.2937,0.6404,-0.2168,0.7188,2.4044,-0.2907,2049
1,0.262,0.6333,-0.2083,0.6391,2.4599,-0.3191,2042
1,0.229,0.6438,-0.2168,0.6055,2.4742,-0.3336,2039
1,0.2322,0.6606,-0.2358,0.5751,2.4609,-0.3559,2051
1,0.2192,0.6511,-0.2234,0.5141,2.4365,-0.3706,2037
1,0.1926,0.6433,-0.23,0.4611,2.3884,-0.3958,2049
1,0.1038,0.5684,-0.2205,0.338,2.481,-0.3699,2047
1,0.0925,0.6289,-0.2615,0.3003,2.3489,-0.3834,2044
1,0.0325,0.6548,-0.2502,0.2073,2.383,-0.4109,2049
1,0.0757,0.6948,-0.2549,0.1931,2.4015,-0.4136,2047
2,0.1184,0.7073,-0.2566,0.2357,2.3808,-0.3896,2043
2,0.0903,0.7146,-0.2393,0.328,2.4256,-0.3573,2047
2,0.1248,0.6917,-0.2476,0.4317,2.3553,-0.3452,2055
2,0.1284,0.698,-0.2524,0.539,2.3707,-0.3265,2034
2,0.0996,0.6433,-0.2124,0.6074,2.4144,-0.3398,2053
2,0.0923,0.657,-0.2087,0.6672,2.483,-0.3798,2051
2,0.0718,0.6465,-0.198,0.748,2.6332,-0.3934,2043
2,0.1311,0.6538,-0.2078,0.8275,2.734,-0.4061,2051
2,0.1523,0.699,-0.2427,0.9002,2.8232,-0.4004,2039
2,0.0911,0.8491,-0.3372,0.7819,2.8818,-0.3791,2043
2,0.1326,1.113,-0.4346,0.6476,2.7795,-0.3787,2047
2,0.0303,1.2236,-0.5591,0.5456,2.7366,-0.276,2029
2,-0.2488,1.2097,-0.5447,0.5086,2.9545,-0.2979,2060
2,-0.3926,1.1282,-0.4722,0.6144,2.9825,-0.2759,2077
2,-0.4534,0.8813,-0.2092,0.6859,3.0999,-0.2125,2082
2,-0.4177,0.7031,0.0088,0.5512,3.1757,-0.1322,2064
2,-0.3081,0.741,0.2029,0.4096,3.1008,-0.1498,2030
2,-0.3232,0.8333,0.291,0.234,3.0817,-0.12,2023
2,-0.2163,0.9209,0.2717,0.3305,3.0167,-0.1724,2040
2,-0.1733,1.0242,0.104,0.4353,2.9664,-0.1438,2049
2,-0.1047,1.0042,-0.0381,0.4548,2.8573,-0.1474,2042
2,-0.1313,1.04,-0.2175,0.3329,2.8051,-0.0888,2044
2,-0.1526,1.0747,-0.3362,0.0933,2.695,-0.0683,2043
2,-0.196,1.1304,-0.4387,-0.0895,2.6617,-0.0503,2052
2,-0.2368,1.135,-0.4568,-0.1417,2.6834,-0.0931,2050
2,-0.2539,1.0581,-0.3838,-0.2669,2.6665,-0.1589,2056
2,-0.2407,0.9944,-0.3167,-0.4183,2.5826,-0.202,2051
2,-0.2456,0.9546,-0.1965,-0.4922,2.5087,-0.165,2042
2,-0.2488,0.9651,-0.0752,-0.4942,2.404,-0.1451,2027
2,-0.2424,0.9346,0.0049,-0.3647,2.1896,-0.1125,2042
2,-0.2373,0.895,0.0334,-0.2758,2.0072,-0.0606,2050
2,-0.217,0.8748,0.0312,-0.1549,1.8603,0.0131,2035
2,-0.2173,0.8521,-0.0266,0.0635,1.7279,0.075,2045
2,-0.2144,0.7683,-0.1069,0.1409,1.6523,0.1553,2052
2,-0.2185,0.7004,-0.1172,0.2538,1.6362,0.1767,2052
2,-0.1721,0.6375,-0.1704,0.2189,1.6173,0.2115,2047
2,-0.1316,0.6279,-0.2046,0.1863,1.6005,0.2537,2040
2,-0.0806,0.6362,-0.2495,0.1344,1.4873,0.3079,2060
2,-0.0376,0.5938,-0.2666,0.094,1.3877,0.3313,2042
2,0.0312,0.5356,-0.2939,-0.0403,1.2196,0.377,2046
2,0.2449,0.4243,-0.3269,-0.2414,0.9427,0.5175,2047
2,0.5151,0.3784,-0.1799,-0.4396,0.781,0.8126,2022
2,0.7029,0.4534,0.0037,-0.7939,0.8122,1.1601,2010
2,0.675,0.5867,0.1099,-0.9292,0.8983,1.3599,2022
2,0.3208,0.7935,-0.0261,-0.7273,0.8204,1.238,2051
2,-0.1982,0.8552,-0.3989,-0.065,0.5231,0.8373,2085
2,-0.5884,0.7996,-0.6428,0.5002,0.3843,0.6112,2097
2,-0.7527,0.6685,-0.7354,0.6199,0.7012,0.5598,2071
2,-0.8328,0.53,-0.6729,0.4349,1.2548,0.4686,2068
2,-0.843,0.4355,-0.5205,0.1537,1.4459,0.3386,2062
2,-0.6255,0.3938,-0.426,-0.0834,1.2641,0.3068,2051
2,-0.3662,0.3877,-0.4182,-0.2386,0.9146,0.3119,2003
2,-0.209,0.4004,-0.4058,-0.324,0.4773,0.3542,2003
2,-0.1106,0.4172,-0.4097,-0.3477,0.0154,0.4144,2023
2,-0.073,0.4126,-0.4036,-0.3488,-0.4578,0.4793,2027
2,-0.0378,0.4172,-0.4216,-0.3486,-0.9023,0.5458,2045
2,0.0181,0.3843,-0.4153,-0.3191,-1.2479,0.5617,2053
2,0.0432,0.4238,-0.4124,-0.2934,-1.4065,0.5979,2030
2,0.127,0.5293,-0.4119,-0.247,-1.5484,0.6618,2044
2,0.178,0.6099,-0.3743,-0.2226,-1.5604,0.6693,2023
2,0.1553,0.6982,-0.3357,-0.3075,-1.5949,0.5885,2050
2,0.1035,0.8345,-0.365,-0.4032,-1.6303,0.4912,2040
2,0.0874,1.0146,-0.3972,-0.4995,-1.551,0.4247,2026
2,0.0186,1.2405,-0.3643,-0.5694,-1.4205,0.2858,2045
2,-0.0317,1.5066,-0.3293,-0.4413,-1.3485,0.1811,2037
2,-0.0916,1.7368,-0.3115,-0.216,-1.1915,-0.0395,2051
2,-0.2048,1.8386,-0.2017,0.0272,-0.6131,-0.3662,2063
2,-0.2966,1.615,-0.0198,0.3298,0.071,-0.6573,2082
2,-0.0471,1.3091,0.2664,0.8503,0.9115,-0.9942,2073
2,-0.0042,1.3662,0.3594,1.4549,1.9016,-0.8344,2020
2,0.623,1.0979,0.5518,1.1726,2.8938,-0.6612,2028
2,0.7009,1.1331,0.8396,0.7485,2.8524,-0.518,1984
2,0.1641,1.5208,0.978,0.8894,1.4261,-0.0337,2108
2,0.5552,1.0356,0.9302,0.7741,0.2108,0.2424,1988
2,0.5813,1.4614,1.0896,0.1577,0.4894,0.4707,1929
2,0.4529,1.2224,0.78,-0.1704,-0.3554,0.6556,2042
2,0.2065,1.1562,0.5408,-0.5269,-1.3774,0.7091,2115
2,0.176,1.0186,0.3232,-0.5643,-1.3037,0.744,2118
2,-0.0601,0.8218,0.0347,-0.4382,-0.7284,0.5079,2131
2,-0.0811,0.8523,-0.157,-0.2195,-0.1193,0.1598,2115
2,-0.0706,0.8728,-0.1599,-0.23,0.3988,0.0453,2076
2,0.0339,0.8276,-0.1311,-0.1755,0.8134,0.0266,2056
2,0.0649,0.8262,-0.1201,-0.1799,0.9991,0.0639,2039
2,0.1003,0.8318,-0.1021,-0.1751,0.8415,0.1196,2046
2,0.0933,0.7883,-0.1558,-0.084,0.7593,0.1352,2033
2,0.0901,0.7,-0.1753,0.0418,0.7738,0.1161,2038
2,0.0725,0.6624,-0.1543,0.1895,0.7078,0.0591,2032
2,0.0193,0.5474,-0.0901,0.1914,0.6899,-0.0008,2040
2,0.0525,0.479,-0.0342,0.1248,0.6548,-0.1486,2042
2,0.0642,0.5093,-0.0042,0.075,0.5578,-0.2401,2038
2,0.0505,0.4966,0.0122,0.018,0.4336,-0.3219,2051
2,0.0552,0.4644,-0.0051,-0.0509,0.2581,-0.3882,2048
2,0.0168,0.4373,-0.0405,-0.1101,0.1673,-0.4038,2047
2,0.0352,0.4878,-0.0867,-0.1071,0.0402,-0.4482,2042
2,0.0667,0.4546,-0.0994,-0.0736,-0.0111,-0.3709,2078
2,0.0415,0.4578,-0.1411,-0.0664,0.0704,-0.282,2028
2,0.085,0.5303,-0.2329,0.0751,0.0377,-0.2127,2043
2,0.0454,0.5195,-0.2825,0.1689,0.2558,-0.1272,2053
2,0.0835,0.5315,-0.2664,0.3373,0.4145,-0.0783,2061
2,0.0979,0.5266,-0.2922,0.4606,0.5229,-0.0563,2041
2,0.1111,0.5322,-0.3088,0.6319,0.6288,-0.0454,2039
2,0.1206,0.5327,-0.2615,0.7729,0.7677,-0.0672,2047
2,0.1306,0.5437,-0.2114,0.8778,0.8684,-0.0907,2039
3,0.1499,0.553,-0.1775,0.9456,0.9062,-0.1067,2044
3,0.1694,0.5522,-0.1206,0.9808,0.93,-0.143,2040
3,0.1853,0.5764,-0.0845,1.0303,0.7379,-0.2284,2047
3,0.1882,0.5337,-0.0161,0.9861,0.5589,-0.2968,2045
3,0.1807,0.5413,0.009,0.9118,0.2807,-0.3318,2046
3,0.1782,0.5229,0.0334,0.8102,-0.0016,-0.3474,2043
3,0.1694,0.4958,0.0862,0.6616,-0.2506,-0.2697,2032
3,0.1421,0.5081,0.0847,0.5614,-0.4184,-0.1365,2034
3,0.1169,0.5449,0.042,0.4839,-0.6169,-0.0882,2040
3,0.1167,0.5171,0.0168,0.4468,-0.5862,0.0317,2039
3,-0.0596,0.5493,0.0552,0.4164,-0.2562,0.1513,2047
3,0.0583,0.5532,0.0391,0.4454,-0.0629,0.1807,2055
3,-0.1182,0.6487,0.0703,0.5096,0.1475,0.1382,2035
3,0.0725,0.5227,0.0591,0.4761,0.3075,0.1678,2073
3,0.0864,0.5417,-0.0803,0.2954,-0.2179,0.1329,2046
3,0.2466,0.511,-0.0393,0.2748,-0.5143,0.1975,2033
3,0.0144,0.5759,0.022,0.4328,-0.4711,0.4133,2057
3,0.103,0.5005,-0.0774,0.4983,-0.5044,0.5255,2054
3,-0.1597,0.6367,-0.0823,0.6091,-0.2292,0.5746,2072
3,-0.0769,0.7488,-0.1348,0.9981,0.0043,0.5173,2095
3,-0.283,0.8599,-0.092,1.0879,0.638,0.4139,2074
3,-0.3147,0.8945,-0.1221,1.1011,1.2339,0.5151,2048
3,-0.2478,0.7231,-0.0039,0.7066,1.3532,0.4774,2039
3,0.23,0.6045,0.323,-0.1654,1.0934,0.4296,2016
3,0.3779,0.7144,0.6826,-1.4822,0.7951,1.5824,2014
3,0.9983,1.6646,0.4399,-1.0521,0.4418,1.5295,1992
3,0.9258,1.9999,0.2144,0.2309,-0.552,1.3569,1981
3,-0.116,1.9999,-0.2581,1.1725,-1.2828,1.3584,1977
3,-1.1282,1.9999,-0.5769,2.0726,-1.4326,1.054,2131
3,-1.4998,1.9314,-0.5952,1.8287,-1.1689,0.3561,2199
3,-1.3484,1.3372,-0.4741,1.1965,-0.6601,0.0403,2125
3,-0.8567,0.9697,-0.3208,0.5525,-0.3282,-0.1912,2035
3,-0.1833,1.1245,-0.2708,0.503,-0.838,-0.287,2017
3,0.2966,1.3738,-0.2617,0.6163,-1.3371,-0.2377,1986
3,0.5671,1.5295,-0.3159,0.8412,-1.856,-0.2381,1997
3,0.4663,1.5596,-0.4827,1.1644,-2.1338,-0.2542,2034
3,0.1941,1.3459,-0.5996,1.2645,-1.8895,-0.4586,2064
3,0.0867,1.0312,-0.6333,1.082,-1.489,-0.7443,2070
3,1.4062,0.2031,-0.5452,1.4816,-0.9654,-1.3885,2175
3,0.0225,1.1418,-0.3757,1.4447,-0.7649,-1.2563,1861
3,0.0952,1.0254,-0.2476,1.0737,-1.201,-1.0593,2053
3,0.0161,0.8816,-0.2695,0.652,-1.4789,-0.7372,2021
3,0.0364,0.7886,-0.1829,0.2273,-1.334,-0.5043,2032
3,-0.0198,0.7437,-0.1628,-0.2665,-1.2125,-0.3967,2056
3,-0.1191,0.751,-0.2461,-0.9115,-1.5471,-0.2919,2051
3,0.1541,0.8767,-0.2576,-0.544,-1.135,-0.2774,2049
3,0.1113,0.6748,-0.1526,-0.7512,-0.9428,0.1493,2038
3,0.0977,0.5889,-0.1982,-1.0357,-0.7305,0.5719,2063
3,0.1042,0.6392,-0.2947,-1.0769,-0.5888,0.6801,2060
3,0.2039,0.6289,-0.2856,-1.0533,-0.4916,0.7015,2048
3,0.2871,0.6626,-0.2524,-0.8178,-0.2735,0.6867,2033
3,0.4529,0.6841,-0.2629,-0.4794,-0.2755,0.6517,2031
3,0.3479,0.6594,-0.2888,-0.2143,-0.22,0.6833,2029
3,0.2605,0.7771,-0.3457,0.0142,-0.4449,0.5216,2055
3,0.1946,0.7544,-0.4329,0.3081,-0.6034,0.5588,2055
3,0.0762,0.6433,-0.4783,0.5337,-0.5074,0.666,2043
3,0.042,0.593,-0.4919,0.6196,-0.2812,0.6974,2062
3,0.0061,0.584,-0.5046,0.6669,-0.1638,0.7183,2042
3,-0.0564,0.5962,-0.5459,0.6609,-0.0551,0.7106,2040
3,-0.104,0.5969,-0.5676,0.7098,0.1543,0.6573,2054
3,-0.0134,0.5461,-0.5776,0.644,0.2629,0.6341,2034
3,0.0322,0.5371,-0.5657,0.5833,0.3228,0.6087,2039
3,0.0681,0.5085,-0.55,0.5478,0.2967,0.5307,2037
3,0.1028,0.5125,-0.5632,0.5014,0.353,0.5388,2044
3,0.1208,0.542,-0.5393,0.3847,0.4548,0.5296,2042
3,0.1035,0.5769,-0.4932,0.3164,0.4442,0.501,2043
3,0.084,0.5735,-0.4585,0.2437,0.391,0.4763,2041
3,0.0771,0.5671,-0.3948,0.1956,0.3053,0.4408,2044
3,0.061,0.5659,-0.2988,0.1165,0.2666,0.4184,2048
3,0.0322,0.5654,-0.2476,0.1033,0.3185,0.3799,2052
3,-0.0283,0.5723,-0.1765,0.1181,0.4153,0.3405,2053
3,-0.0381,0.6455,-0.1675,0.1494,0.3992,0.3015,2049
3,-0.0427,0.7273,-0.1707,0.1607,0.3421,0.2671,2042
3,0.0007,0.7832,-0.1863,0.1623,0.236,0.2317,2034
3,0.0396,0.7673,-0.2278,0.1501,0.1697,0.186,2054
3,0.0474,0.6934,-0.2527,0.1365,0.0842,0.14,2046
3,0.0813,0.6018,-0.2856,0.0762,-0.0051,0.1053,2052
3,0.1191,0.53,-0.2974,0.047,0.008,0.1159,2046
3,0.1375,0.4653,-0.2979,0.0306,0.069,0.175,2047
3,0.1687,0.4802,-0.3098,0.0293,0.1502,0.2414,2036
3,0.1948,0.5249,-0.3521,0.0285,0.2298,0.2666,2042
3,0.2195,0.5557,-0.3516,-0.0021,0.2919,0.2498,2035
3,0.2046,0.5469,-0.3872,-0.0687,0.3553,0.2253,2041
3,0.2202,0.5469,-0.418,-0.1546,0.4288,0.2081,2029
3,0.2363,0.5979,-0.4287,-0.3436,0.4675,0.2234,2051
3,0.2983,0.6599,-0.4524,-0.56,0.3699,0.1902,2044
3,0.4341,0.7373,-0.4329,-0.6723,0.1458,0.1543,2042
3,0.4424,0.8274,-0.3716,-0.664,0.1033,0.1317,2016
3,0.4038,0.9551,-0.3057,-0.6365,0.2148,0.0613,2035
3,0.3113,1.0664,-0.2571,-0.3517,0.3049,-0.0382,2058
3,0.144,1.0713,-0.2742,-0.1197,0.7801,-0.1629,2044
3,0.1431,1.2493,-0.1733,0.0575,1.5395,-0.4622,2041
3,0.1641,1.5259,-0.1426,0.0884,2.0273,-0.7155,2016
3,0.4045,1.4985,-0.1235,0.192,2.4475,-0.9598,2049
3,0.4226,1.6355,-0.0222,0.2578,2.2728,-1.2922,2019
3,0.4783,1.5969,0.0718,0.3373,1.6398,-1.1214,1999
3,0.4568,1.5754,0.2009,0.1302,0.8501,-0.8046,2042
3,0.4067,1.5298,0.1775,-0.0338,0.1858,-0.3428,2053
4,0.2825,1.3513,0.1968,-0.1704,-0.1748,-0.0434,2070
4,0.2339,1.3157,0.1328,-0.3654,-0.4361,0.0217,2054
4,0.2769,1.3203,0.0732,-0.4797,-0.7319,0.0401,2061
4,0.3037,1.3303,0.0093,-0.5791,-0.9195,0.1033,2054
4,0.3301,1.3064,-0.0203,-0.5683,-1.1608,0.2274,2033
4,0.2778,1.2576,-0.0933,-0.4803,-1.3304,0.3525,2024
4,0.1802,1.1528,-0.1194,-0.4075,-1.3398,0.4353,2019
4,0.1418,1.0142,-0.1499,-0.3819,-1.2303,0.4113,2070
4,0.1099,0.8721,-0.1479,-0.3171,-0.9108,0.3978,2072
4,0.1101,0.761,-0.1311,-0.3421,-0.475,0.3398,2037
4,0.1145,0.6648,-0.1494,-0.259,-0.1835,0.3353,2056
4,0.1665,0.6443,-0.1738,-0.1806,0.0264,0.3171,2043
4,0.1543,0.5901,-0.1763,-0.1228,0.1143,0.3907,2071
4,0.1191,0.5107,-0.1875,-0.0614,0.206,0.4352,2074
4,0.0933,0.4529,-0.1853,-0.0065,0.3882,0.4163,2081
4,0.0874,0.3682,-0.1599,-0.0282,0.5774,0.404,2096
4,0.1133,0.3604,-0.1663,-0.0384,0.7291,0.3679,2098
4,0.1133,0.3467,-0.1638,-0.0205,0.8423,0.3793,2053
4,0.1213,0.3752,-0.1765,0.0165,0.8693,0.377,2037
4,0.1116,0.3457,-0.157,0.027,0.8565,0.4032,2040
4,0.1104,0.3533,-0.1716,0.006,0.8042,0.3255,2047
4,0.1155,0.3923,-0.1729,0.0033,0.7022,0.2472,2044
4,0.1353,0.4131,-0.1702,-0.0064,0.5873,0.1425,2039
4,0.1443,0.4673,-0.1606,0.002,0.5105,0.0491,2037
4,0.1511,0.5042,-0.1628,0.0206,0.4886,-0.0301,2038
4,0.1521,0.5454,-0.2097,0.11,0.4627,-0.0921,1996
4,0.1426,0.5542,-0.1494,0.1732,0.3738,-0.1605,2033
4,0.1021,0.5981,-0.1562,0.2232,0.3037,-0.2073,2035
4,0.0818,0.6311,-0.1201,0.2722,0.3108,-0.2562,2034
4,0.1643,0.6379,-0.158,0.2816,0.2737,-0.3183,2041
4,0.209,0.6396,-0.1372,0.3077,0.2912,-0.3112,2032
4,0.1907,0.7146,-0.1467,0.365,0.1823,-0.302,2035
4,0.2075,0.657,-0.0737,0.4775,0.2659,-0.2606,2038
4,0.2002,0.6467,-0.0798,0.4771,0.2149,-0.2547,2038
4,0.1987,0.6208,-0.0208,0.4762,0.1338,-0.3233,2036
4,0.2134,0.623,0.05,0.4502,-0.0851,-0.3424,2008
4,0.1675,0.6399,0.0579,0.4155,-0.3256,-0.3257,2030
4,0.1909,0.592,0.0354,0.3911,-0.5663,-0.3127,2048
4,0.1074,0.5713,-0.01,0.4128,-0.6577,-0.2956,2067
4,0.0383,0.5698,-0.03,0.4283,-0.5746,-0.2974,2080
4,0.0366,0.5627,-0.1279,0.457,-0.563,-0.2698,2070
4,0.1973,0.4976,-0.1792,0.3954,-0.5578,-0.2334,2066
4,0.1091,0.5437,-0.1577,0.3856,-0.4477,-0.1679,2059
4,0.1145,0.5496,-0.1621,0.4124,-0.3733,-0.132,2051
4,0.126,0.5435,-0.1804,0.497,-0.2722,-0.0541,2053
4,0.0979,0.5798,-0.2092,0.5914,-0.1651,-0.0415,2062
4,0.0938,0.554,-0.2192,0.6826,-0.0281,0.0172,2050
4,0.1011,0.5203,-0.2268,0.7809,0.0842,0.0704,2043
4,0.127,0.5198,-0.2144,0.8778,0.1545,0.0454,2043
4,0.137,0.4639,-0.1943,0.8925,0.3008,0.0987,2038
4,0.1619,0.5229,-0.2275,0.9801,0.2618,0.1344,2040
4,0.2068,0.4419,-0.1772,1.0274,0.3195,0.2093,2037
4,0.1824,0.4839,-0.1543,1.0218,0.2959,0.2312,2050
4,0.179,0.5322,-0.136,0.9757,0.1878,0.2702,2038
4,0.187,0.6062,-0.157,0.8918,0.0506,0.2529,2055
4,0.1963,0.7158,-0.1924,0.8096,0.0112,0.1934,2035
4,0.2769,0.7681,-0.207,0.6227,-0.0771,0.1559,2044
4,0.2703,0.8779,-0.2449,0.4701,-0.2382,0.181,2028
4,0.1902,0.9663,-0.2666,0.3866,-0.4148,0.2163,2046
4,0.0913,1.0579,-0.2058,0.3777,-0.3698,0.1173,2046
4,0.0981,1.0745,-0.2053,0.3988,-0.3739,0.119,2045
4,0.1362,1.2703,-0.1917,0.1683,-0.5693,-0.0664,2031
4,0.3601,1.4409,-0.2507,-0.0695,-0.9373,0.0262,2017
4,0.3308,1.7637,-0.3945,-0.2622,-1.3021,-0.0089,2043
4,0.1748,1.7922,-0.4158,-0.2856,-1.342,-0.0043,2052
4,0.0156,1.6707,-0.3308,-0.3567,-1.4848,-0.0422,2065
4,-0.0659,1.6282,-0.3701,-0.3745,-1.676,-0.0882,2056
4,0.0374,1.4814,-0.2344,-0.3931,-1.67,-0.1095,2050
4,0.1055,1.6057,-0.1038,-0.1976,-1.4099,-0.1976,2043
4,0.2148,1.6201,-0.1255,-0.2149,-1.4541,-0.3296,2054
4,0.323,1.5913,-0.1768,-0.0316,-1.6524,-0.3188,2062
4,0.2629,1.5659,-0.2629,0.2072,-1.7532,-0.2883,2059
4,0.3035,1.428,-0.3337,0.3875,-1.7072,-0.2996,2053
4,0.2444,1.3606,-0.3755,0.481,-1.6399,-0.3729,2047
4,0.3193,1.1667,-0.3889,0.4117,-1.4866,-0.2563,2051
4,0.2998,1.1099,-0.3909,0.444,-1.1981,-0.1907,2039
4,0.2202,0.9895,-0.3479,0.3836,-0.9709,-0.1009,2038
4,0.3103,0.8181,-0.3772,0.3678,-0.6746,-0.1119,2054
4,0.2876,0.7466,-0.3384,0.4051,-0.3273,-0.0366,2041
4,0.342,0.6624,-0.3855,0.2776,-0.2651,0.0843,2041
4,0.1646,0.7595,-0.3389,0.2426,-0.1031,0.1349,2031
4,0.3669,0.5752,-0.417,0.1775,-0.1451,0.3105,2053
4,0.2625,0.6138,-0.364,0.0586,0.0136,0.343,2038
4,0.1687,0.6978,-0.3416,0.2012,0.181,0.2121,2058
4,0.2559,0.5298,-0.3525,0.2191,0.1346,0.0792,2050
4,0.3125,0.5164,-0.3591,0.2814,0.1425,-0.1099,2061
4,0.446,0.3457,-0.3716,0.2481,0.1341,0.1463,2032
4,0.3555,0.3191,-0.3948,0.1155,0.1061,0.3361,2025
4,0.2803,0.4204,-0.4065,0.0531,-0.0716,0.4518,2041
4,0.2249,0.4507,-0.4211,0.024,-0.2017,0.4876,2052
4,0.2048,0.4209,-0.4751,-0.0471,-0.2438,0.5153,2043
4,0.1821,0.4324,-0.4609,-0.049,-0.2494,0.5348,2037
4,0.125,0.4895,-0.4512,-0.1687,-0.2919,0.5291,2049
4,0.0908,0.5303,-0.4395,-0.1956,-0.3271,0.5272,2041
4,0.0547,0.5959,-0.4194,-0.2677,-0.3802,0.5104,2037
4,0.0442,0.6479,-0.4246,-0.2791,-0.394,0.477,2051
4,0.0461,0.677,-0.3984,-0.2745,-0.3828,0.4332,2035
4,0.0103,0.7202,-0.3489,-0.2199,-0.3153,0.4113,2046
4,-0.0256,0.7771,-0.3574,-0.1541,-0.3401,0.4201,2037
4,-0.0149,0.7959,-0.3357,-0.026,-0.4469,0.367,2050
4,-0.0125,0.8108,-0.3066,0.0188,-0.5087,0.3389,2045
4,-0.021,0.8018,-0.2734,0.0518,-0.5153,0.3007,2030
4,-0.0142,0.7898,-0.2383,0.0842,-0.4978,0.2456,2048
4,-0.0376,0.7751,-0.2034,0.1385,-0.422,0.2195,2042
4,-0.0403,0.7612,-0.1665,0.1583,-0.3539,0.1796,2049
5,-0.0042,0.7183,-0.1501,0.1426,-0.257,0.1348,2047
5,0.0266,0.7039,-0.1553,0.1654,-0.1447,0.0704,2062
5,0.0122,0.6702,-0.1516,0.2099,-0.0473,0.016,2044
5,0.0334,0.6133,-0.1672,0.1786,0.0144,-0.0281,2051
5,0.0774,0.5813,-0.1665,0.1493,0.1109,-0.0639,2047
5,0.1162,0.5413,-0.2043,0.0919,0.2187,-0.1181,2047
5,0.2178,0.4807,-0.2026,-0.0072,0.2816,-0.0356,2037
5,0.3152,0.4446,-0.2375,-0.1019,0.2465,0.0212,2035
5,0.3977,0.4221,-0.249,-0.1683,0.1398,0.0426,2048
5,0.406,0.4119,-0.2759,-0.348,-0.0587,0.0373,2046
5,0.3359,0.4797,-0.3328,-0.4369,-0.2324,0.0445,2044
5,0.4058,0.4697,-0.397,-0.5356,-0.3733,0.0593,2046
5,0.459,0.5186,-0.4597,-0.6268,-0.4161,0.0948,2029
5,0.405,0.6553,-0.5134,-0.7389,-0.4605,0.1141,2043
5,0.4329,0.7961,-0.5503,-0.8589,-0.5006,0.084,2054
5,0.3384,0.9893,-0.4883,-0.8284,-0.3425,0.0867,2036
5,0.0808,1.0464,-0.3865,-0.8099,-0.1125,0.1502,2050
5,-0.123,1.0732,-0.2566,-0.7146,0.3188,-0.0929,2045
5,-0.1377,1.0439,-0.1626,-0.7593,0.5421,-0.1898,2035
5,-0.053,0.969,-0.0142,-0.5359,0.8309,-0.2495,2048
5,0.1174,0.9795,0.084,-0.4986,0.8568,-0.2823,2036
5,0.2673,1.1299,0.0701,-0.39,0.8554,-0.2523,2043
5,0.4954,1.2805,0.012,-0.4761,0.8304,-0.1944,2035
5,0.595,1.5115,-0.0461,-0.4586,0.6921,-0.0884,2028
5,0.5962,1.6819,-0.1162,-0.3603,0.4434,0.0261,2047
5,0.582,1.6509,-0.1343,-0.2815,0.267,0.0137,2050
5,0.5693,1.5652,-0.1406,-0.1515,0.1113,-0.0298,2053
5,0.5437,1.3899,-0.032,-0.0302,0.1148,0.0421,2051
5,0.4609,1.2993,0.0298,0.0257,0.1631,0.0762,2045
5,0.4016,1.248,0.0398,0.0555,0.1051,0.1366,2055
5,0.3433,1.196,0.0554,0.0867,0.0838,0.2192,2045
5,0.3291,1.176,0.0159,0.0952,0.0284,0.3199,2050
5,0.3164,1.147,-0.04,0.0874,-0.0125,0.4318,2047
5,0.28,1.0222,-0.0989,0.1302,0.0762,0.4586,2050
5,0.1936,0.9812,-0.0845,0.2549,0.3486,0.3271,2051
5,0.2561,0.8137,-0.136,0.2072,0.3015,0.3524,2063
5,0.3801,0.6892,-0.1648,0.2281,0.2788,0.3583,2053
5,0.3081,0.6533,-0.1277,0.195,0.2643,0.4255,2046
5,0.2664,0.6309,-0.1353,0.2534,0.2526,0.4726,2047
5,0.1697,0.5962,-0.1799,0.3244,0.4043,0.4566,2058
5,0.1594,0.5437,-0.2173,0.4678,0.6731,0.4056,2058
5,0.1399,0.4844,-0.2148,0.4481,0.8585,0.3185,2042
5,0.1514,0.4167,-0.1887,0.4446,0.9758,0.2764,2049
5,0.165,0.4004,-0.2129,0.4625,1.0182,0.2099,2043
5,0.1741,0.3772,-0.2202,0.497,1.0332,0.1424,2046
5,0.1875,0.3396,-0.21,0.489,1.065,0.078,2054
5,0.1831,0.3564,-0.2205,0.4426,1.064,0.006,2039
5,0.1895,0.3975,-0.2656,0.4896,1.0557,-0.1131,2044
5,0.1877,0.3923,-0.2795,0.5179,1.0828,-0.2105,2041
5,0.1726,0.3979,-0.2583,0.559,1.0544,-0.2366,2041
5,0.1428,0.395,-0.2168,0.4926,1.0029,-0.2844,2037
5,0.1357,0.4077,-0.2146,0.4171,0.9577,-0.3261,2047
5,0.1548,0.4131,-0.2114,0.3778,0.8786,-0.3462,2039
5,0.1472,0.4321,-0.2312,0.389,0.8383,-0.3896,2042
5,0.0859,0.4619,-0.199,0.4203,0.775,-0.3773,2039
5,0.0562,0.4858,-0.1665,0.3959,0.6978,-0.3725,2047
5,0.1328,0.4907,-0.1787,0.3641,0.5336,-0.3987,2039
5,0.1873,0.5146,-0.1538,0.3344,0.3599,-0.4581,2039
5,0.1934,0.5212,-0.1467,0.3056,0.1281,-0.4825,2046
5,0.2024,0.5149,-0.1238,0.3004,-0.0582,-0.4719,2044
5,0.2168,0.4939,-0.1182,0.3064,-0.2562,-0.4642,2046
5,0.2053,0.4778,-0.085,0.2594,-0.4199,-0.5003,2045
5,0.1733,0.5037,-0.0547,0.2522,-0.4867,-0.5105,2039
5,0.1648,0.5183,-0.0273,0.2204,-0.5247,-0.5311,2043
5,0.1707,0.5449,-0.0132,0.259,-0.4509,-0.5249,2032
5,0.1787,0.5237,-0.0527,0.2702,-0.4091,-0.4504,2046
5,0.2478,0.5706,-0.0969,0.2211,-0.5172,-0.4365,2039
5,0.1924,0.5833,-0.0635,0.2714,-0.4609,-0.3583,2045
5,0.177,0.5583,-0.1018,0.3185,-0.3172,-0.2912,2065
5,0.1082,0.6108,-0.0984,0.331,-0.2059,-0.2392,2043
5,0.2634,0.5474,-0.1689,0.2159,-0.4633,-0.2024,2048
5,0.2405,0.5935,-0.1204,0.1827,-0.594,-0.0599,2039
5,0.2065,0.5793,-0.0791,0.1487,-0.7072,0.1252,2044
5,0.1689,0.5674,-0.1663,0.2717,-0.7709,0.2774,2052
5,0.0828,0.6082,-0.2395,0.499,-0.6357,0.2598,2038
5,0.0466,0.6572,-0.2634,0.6248,-0.539,0.1686,2056
5,0.0037,0.7424,-0.2976,0.6705,-0.4954,0.0142,2049
5,0.0234,0.8616,-0.3567,0.6881,-0.3988,-0.1541,2017
5,0.0068,0.9712,-0.3384,0.6705,-0.3008,-0.2701,2049
5,0.0149,0.9995,-0.2759,0.6315,-0.2195,-0.2298,2043
5,-0.0239,1.0127,-0.2788,0.4461,-0.4613,-0.1209,2031
5,-0.0229,1.0706,-0.2715,0.4031,-0.4231,-0.1751,2042
5,0.0483,1.2974,-0.2288,0.4766,-0.6422,-0.1826,2023
5,0.1055,1.6533,-0.2153,0.403,-0.9586,-0.2084,2034
5,-0.0615,1.7634,-0.2217,0.5272,-1.1332,-0.2663,2053
5,-0.1475,1.6775,-0.2002,0.4572,-1.1086,-0.318,2046
5,-0.1064,1.5193,-0.24,0.291,-1.1549,-0.5374,2059
5,0.0566,1.4797,-0.23,0.3249,-1.0579,-0.4325,2044
5,0.1345,1.4868,-0.229,0.2887,-1.1904,-0.4927,2030
5,0.135,1.6077,-0.1274,0.337,-1.0768,-0.3915,2028
5,0.262,1.6333,-0.1714,0.2838,-1.2018,-0.4421,2052
5,0.2812,1.5532,-0.2034,0.2722,-1.2764,-0.4392,2052
5,0.2551,1.4297,-0.2463,0.1923,-1.3707,-0.4552,2064
5,0.29,1.3274,-0.272,0.14,-1.4243,-0.4782,2051
5,0.2698,1.2949,-0.3274,0.1366,-1.411,-0.4172,2045
5,0.2354,1.2332,-0.3628,0.114,-1.3565,-0.271,2040
5,0.177,1.1736,-0.4055,0.1378,-1.1845,-0.1119,2041
5,0.1653,1.0366,-0.4399,0.1405,-1.0401,0.0293,2048
5,0.1453,0.9731,-0.4148,0.0872,-0.826,0.0714,2044
5,0.1025,0.8813,-0.3879,-0.037,-0.6753,0.1184,2053
5,0.2246,0.875,-0.4202,0.0734,-0.4742,0.1959,2040
5,0.2278,0.8091,-0.353,0.0637,-0.4117,0.2852,2042
5,0.261,0.7773,-0.3445,0.0762,-0.3959,0.284,2046
5,0.3008,0.7327,-0.3154,0.0696,-0.4368,0.239,2028
5,0.3601,0.6833,-0.3088,0.0864,-0.5303,0.1689,2049
6,0.3704,0.6177,-0.2981,0.112,-0.541,0.1836,2042
6,0.2681,0.572,-0.2898,0.1067,-0.5408,0.2912,2050
6,0.2417,0.5613,-0.3403,0.1065,-0.5377,0.3753,2048
6,0.198,0.5452,-0.3877,0.1465,-0.49,0.4136,2051
6,0.1506,0.553,-0.418,0.1631,-0.3882,0.4317,2049
6,0.1179,0.5339,-0.4695,0.1792,-0.2461,0.4398,2047
6,0.1135,0.5205,-0.4988,0.1779,-0.147,0.4579,2045
6,0.0989,0.5059,-0.5005,0.1293,-0.041,0.4823,2053
6,0.0918,0.521,-0.5457,0.0679,0.0518,0.4924,2048
6,0.1306,0.54,-0.5383,0.027,0.0655,0.4821,2043
6,0.146,0.5811,-0.5698,-0.0296,0.0023,0.4798,2031
6,0.1611,0.6272,-0.5449,-0.0854,-0.0826,0.4713,2050
6,0.1458,0.666,-0.5317,-0.1262,-0.1622,0.4305,2045
6,0.1335,0.7095,-0.5405,-0.1513,-0.2164,0.391,2043
6,0.1001,0.752,-0.5256,-0.1185,-0.2452,0.348,2042
6,0.0696,0.7581,-0.4668,-0.0992,-0.2348,0.3334,2048
6,0.0354,0.7891,-0.4387,-0.051,-0.1938,0.2886,2049
6,-0.0029,0.7673,-0.3738,0.0108,-0.1186,0.2693,2050
6,-0.0381,0.812,-0.3059,0.0346,0.0091,0.2507,2039
6,-0.054,0.7952,-0.2632,0.0794,0.1249,0.2009,2047
6,-0.071,0.7935,-0.2339,0.1408,0.2745,0.1629,2044
6,-0.0793,0.7705,-0.1934,0.1911,0.4269,0.141,2043
6,-0.0535,0.7205,-0.1506,0.1811,0.5396,0.118,2050
6,0.0051,0.6904,-0.157,0.1557,0.5612,0.0784,2047
6,0.0371,0.6519,-0.1636,0.1764,0.5797,0.0451,2047
6,0.0413,0.5957,-0.1643,0.1969,0.6164,-0.0134,2042
6,0.0525,0.5242,-0.1785,0.1902,0.659,-0.0477,2052
6,0.0728,0.4795,-0.1995,0.1579,0.7277,-0.0261,2045
6,0.1057,0.4583,-0.2065,0.1549,0.7191,0.0293,2045
6,0.1475,0.4421,-0.2512,0.1218,0.716,0.0518,2042
6,0.1687,0.4331,-0.2598,0.0507,0.7333,0.0474,2053
6,0.1953,0.4399,-0.2842,-0.0538,0.7035,0.0269,2043
6,0.2458,0.4573,-0.3279,-0.1458,0.616,0.0324,2042
6,0.2715,0.4829,-0.3633,-0.2476,0.4996,0.0244,2046
6,0.2947,0.478,-0.3982,-0.3887,0.4088,0.0431,2037
6,0.302,0.4778,-0.4246,-0.5087,0.2575,0.0635,2045
6,0.3052,0.4744,-0.4441,-0.5562,0.1049,0.0425,2047
6,0.271,0.4387,-0.4167,-0.6264,-0.0614,0.0461,2047
6,0.2295,0.4148,-0.3938,-0.6974,-0.1862,0.0525,2039
6,0.1233,0.4109,-0.3503,-0.748,-0.1732,0.1004,2053
6,0.1311,0.4136,-0.3542,-0.7994,-0.2067,0.1342,2051
6,0.1208,0.4727,-0.3152,-0.7677,-0.1687,0.1767,2039
6,0.1414,0.5986,-0.2817,-0.8891,-0.2254,0.1946,2047
6,0.1868,0.8127,-0.3188,-0.9171,-0.2594,0.1646,2046
6,0.2302,1.021,-0.3718,-0.815,-0.3489,0.0561,2038
6,0.3003,1.1255,-0.3398,-0.6922,-0.3618,-0.07,2050
6,0.1438,1.1084,-0.155,-0.6501,-0.1284,-0.0587,2040
6,0.0183,1.3135,-0.1055,-0.601,0.0272,-0.1356,2049
6,-0.0557,1.5974,-0.0459,-0.4778,0.2517,-0.5596,2035
6,0.0981,1.7637,-0.0281,-0.3931,0.4574,-0.6982,2043
6,0.2048,1.7288,0.1125,-0.2543,1.1513,-0.9833,2036
6,0.2634,1.6274,0.1462,-0.1494,1.3412,-0.9821,2036
6,0.3459,1.5566,0.2373,0.096,1.1814,-0.7955,2032
6,0.4866,1.4263,0.2,0.1301,0.9761,-0.2432,2030
6,0.479,1.4287,0.1611,0.1298,1.1718,0.2697,2016
6,0.3728,1.4817,0.1169,0.2278,1.256,0.832,2022
6,0.302,1.4426,0.0498,0.3757,1.3828,1.0295,2033
6,0.2532,1.3628,0.0374,0.5004,1.664,0.9917,2048
6,0.2156,1.3225,0.0691,0.5737,1.766,0.8564,2069
6,0.2742,1.2009,0.1279,0.5592,1.7725,0.7757,2066
6,0.3848,1.1431,0.22,0.502,1.5472,0.658,2046
6,0.4077,1.0679,0.2043,0.4324,1.0444,0.6215,2061
6,0.3821,0.9758,0.1567,0.3543,0.6209,0.6324,2072
6,0.3438,0.8699,0.0813,0.2574,0.3304,0.6401,2080
6,0.3184,0.7561,0.0315,0.2064,0.2964,0.6442,2087
6,0.2915,0.6619,0.0002,0.1032,0.1915,0.553,2075
6,0.2725,0.5427,-0.0217,0.1027,0.261,0.5191,2053
6,0.2527,0.5271,-0.0571,0.1312,0.1067,0.4646,2037
6,0.2046,0.499,-0.082,0.1433,0.0236,0.3852,2035
6,0.1765,0.4827,-0.1372,0.233,-0.0731,0.3193,2039
6,0.167,0.4719,-0.1626,0.3265,-0.0451,0.2892,2041
6,0.1714,0.4563,-0.2065,0.3473,-0.0119,0.2189,2040
6,0.1323,0.3848,-0.2002,0.3216,0.0726,0.1338,2038
6,0.1304,0.4397,-0.1614,0.4085,-0.0332,-0.1679,2047
6,0.1094,0.2969,-0.1589,0.288,0.1155,-0.0318,2044
6,0.0981,0.3923,-0.1843,0.2342,0.2609,-0.0939,2036
6,0.0789,0.4512,-0.1912,0.2442,0.2183,-0.0887,2036
6,0.053,0.4331,-0.1533,0.2586,0.2085,-0.1354,2046
6,0.0146,0.4268,-0.1355,0.1871,0.3378,-0.116,2045
6,0.0264,0.4976,-0.1489,0.1712,0.3754,-0.1501,2045
6,0.0093,0.553,-0.1577,0.1623,0.3193,-0.1904,2032
6,-0.0615,0.6436,-0.1157,0.2888,0.2978,-0.2353,2040
6,-0.1055,0.7065,-0.1091,0.3855,0.3049,-0.2935,2047
6,-0.0615,0.7302,-0.135,0.4006,0.2908,-0.3539,2044
6,-0.1575,0.7385,-0.0005,0.4775,0.1987,-0.4171,2044
6,-0.1282,0.7346,0.0093,0.3665,0.1743,-0.5039,2056
6,-0.0264,0.6743,0.0342,-0.0836,-0.0065,-0.666,2054
6,0.0984,0.6338,-0.0537,-0.014,-0.1529,-0.7146,2049
6,0.1938,0.6311,-0.1096,0.1487,-0.3434,-0.7273,2045
6,0.4109,0.6096,-0.1265,0.534,-0.65,-0.6582,2034
6,0.4915,0.6006,-0.1299,0.7789,-0.7991,-0.5227,2023
6,0.55,0.4131,-0.1182,0.9006,-0.6749,-0.4501,2025
6,0.2778,0.7908,0.176,0.4546,-0.59,-0.5273,2005
6,0.2178,0.6738,0.0046,0.2489,-1.1244,-0.4382,2074
6,0.3284,0.604,-0.0986,0.2798,-1.0986,-0.3783,2052
6,0.3225,0.5608,-0.0642,0.2971,-0.8949,-0.2318,2046
6,0.2949,0.5654,-0.0808,0.2364,-0.8123,-0.1213,2042
6,0.2229,0.5681,-0.0732,0.2017,-0.7071,-0.0622,2055
6,0.2253,0.5657,-0.1094,0.228,-0.5217,-0.0116,2057
6,0.2273,0.5444,-0.147,0.2633,-0.3878,0.0599,2053
7,0.1912,0.5967,-0.147,0.3494,-0.2293,0.0947,2054
7,0.2102,0.5798,-0.1702,0.433,-0.189,0.1708,2044
7,0.302,0.5242,-0.1931,0.4287,-0.2204,0.2145,2046
7,0.2432,0.5615,-0.1724,0.4818,-0.1554,0.2292,2028
7,0.2419,0.582,-0.1677,0.5714,-0.1752,0.2935,2043
7,0.2424,0.5505,-0.1924,0.634,-0.2055,0.352,2046
7,0.2319,0.5574,-0.1873,0.6658,-0.2923,0.38,2044
7,0.2131,0.5762,-0.2178,0.7168,-0.385,0.4188,2044
7,0.1326,0.5439,-0.2014,0.7765,-0.3884,0.4152,2048
7,0.0806,0.5461,-0.1895,0.7987,-0.4117,0.377,2053
7,0.0811,0.521,-0.1479,0.7835,-0.4177,0.351,2052
7,0.0801,0.5701,-0.1309,0.7943,-0.4368,0.314,2048
7,0.1062,0.6587,-0.1453,0.8214,-0.501,0.2577,2025
7,0.1218,0.7983,-0.144,0.8184,-0.5224,0.1951,2051
7,0.1062,0.8267,-0.1292,0.7007,-0.4663,0.1822,2026
7,0.1531,0.8521,-0.1138,0.4578,-0.3959,0.1633,2045
7,0.2356,0.9287,-0.1284,0.2001,-0.4501,0.2121,2024
7,0.228,1.0049,-0.1077,0.0831,-0.444,0.2807,2037
7,0.0881,1.1038,-0.0886,0.1639,-0.4777,0.3235,2054
7,-0.061,1.1365,-0.1052,0.0964,-0.6139,0.2526,2053
7,0.0361,1.3149,-0.3467,-0.131,-1.0128,0.2551,2050
7,0.1902,1.4829,-0.4502,-0.1828,-1.2475,0.2336,2014
7,0.2349,1.6016,-0.3625,-0.145,-1.3214,0.1357,2049
7,0.1404,1.6741,-0.3889,-0.2276,-1.6017,-0.0867,2054
7,0.1101,1.7573,-0.4541,-0.1369,-1.7608,-0.2543,2056
7,0.2024,1.5942,-0.429,-0.1827,-2.006,-0.3605,2055
7,0.3455,1.3745,-0.3064,-0.2372,-2.0639,-0.1466,2044
7,0.2061,1.344,-0.1987,-0.1772,-1.9723,0.0016,2027
7,0.0527,1.2903,-0.2476,-0.2144,-2.1917,-0.0156,2059
7,-0.0435,1.2729,-0.2073,-0.2095,-2.2067,-0.1571,2055
7,0.0681,1.2417,-0.1968,-0.1579,-1.9002,-0.1446,2053
7,0.3069,1.1487,-0.1831,-0.1159,-1.8761,-0.232,2035
7,0.4026,1.1199,-0.199,-0.0977,-2.1442,-0.2606,2038
7,0.6589,1.0493,-0.2473,-0.1171,-2.3814,-0.2436,2043
7,0.593,0.9192,-0.2236,-0.1409,-2.3381,-0.0013,2033
7,0.3965,0.988,-0.2896,-0.1023,-2.4033,0.0896,2018
7,0.3064,0.9104,-0.3601,-0.0399,-2.243,0.1409,2056
7,0.1934,0.8457,-0.4102,-0.0716,-2.0097,0.1414,2070
7,0.1731,0.7363,-0.4075,-0.0706,-1.7299,0.1262,2066
7,0.3354,0.5977,-0.499,-0.2123,-1.652,0.1812,2068
7,0.1443,0.7642,-0.426,-0.0736,-1.252,0.1944,2037
7,0.325,0.5693,-0.4788,-0.1649,-1.4901,0.3112,2056
7,0.2588,0.5999,-0.4275,-0.1184,-1.2896,0.3065,2038
7,0.1382,0.5991,-0.3906,-0.1691,-1.1676,0.283,2042
7,0.1592,0.5999,-0.3975,-0.2007,-1.1299,0.2241,2045
7,0.2773,0.5315,-0.418,-0.2627,-1.1886,0.135,2047
7,0.2783,0.5037,-0.3779,-0.3083,-1.2153,0.1135,2035
7,0.3232,0.4341,-0.3884,-0.3091,-1.3547,0.2772,2041
7,0.2744,0.4033,-0.384,-0.331,-1.4113,0.3586,2038
7,0.1152,0.4451,-0.3879,-0.39,-1.4462,0.3751,2046
7,0.0386,0.4836,-0.4238,-0.4014,-1.4685,0.3675,2048
7,0.0166,0.4675,-0.4336,-0.3498,-1.4291,0.3559,2043
7,-0.0022,0.4382,-0.4346,-0.3413,-1.3406,0.3593,2044
7,0.0027,0.4348,-0.4116,-0.348,-1.3845,0.3524,2045
7,0.0413,0.4705,-0.3953,-0.3243,-1.4701,0.3338,2041
7,0.0444,0.4863,-0.3574,-0.2831,-1.4181,0.2908,2039
7,0.0283,0.4934,-0.321,-0.2919,-1.3354,0.186,2054
7,-0.0068,0.5317,-0.2791,-0.2465,-1.2497,0.1178,2043
7,0.0261,0.533,-0.2825,-0.3024,-1.2336,0.0553,2038
7,0.1045,0.4917,-0.2761,-0.2495,-1.1605,0.0037,2040
7,0.1387,0.3965,-0.2471,-0.263,-1.0871,-0.0442,2046
7,0.1086,0.322,-0.2207,-0.3271,-1.0689,-0.0642,2038
7,0.0737,0.3345,-0.2451,-0.3099,-1.0588,-0.0916,2053
7,0.1074,0.3613,-0.2898,-0.2686,-1.0372,-0.1055,2045
7,0.1541,0.397,-0.3406,-0.2792,-0.9774,-0.1236,2042
7,0.1687,0.4521,-0.3862,-0.3386,-0.8766,-0.1404,2037
7,0.1965,0.5205,-0.4736,-0.4376,-0.8235,-0.1884,2042
7,0.1941,0.6304,-0.5281,-0.4963,-0.7565,-0.2237,2045
7,0.1553,0.73,-0.5708,-0.4974,-0.7287,-0.2509,2047
7,0.0542,0.7341,-0.5708,-0.5645,-0.6697,-0.3281,2053
7,-0.0234,0.6782,-0.5164,-0.5996,-0.6339,-0.3878,2052
7,0.0376,0.6155,-0.4968,-0.6589,-0.7518,-0.4669,2058
7,0.1482,0.6609,-0.4893,-0.6493,-0.8256,-0.5087,2028
7,0.3096,0.822,-0.4451,-0.7024,-1.0512,-0.5414,2031
7,0.4561,1.0662,-0.4409,-0.5982,-1.258,-0.7219,2041
7,0.3484,1.3677,-0.3472,-0.379,-1.3664,-0.974,2037
7,0.2488,1.4932,-0.3359,-0.3068,-1.6653,-1.2139,2061
7,0.3262,1.4062,-0.2678,-0.1665,-1.6627,-1.276,2054
7,0.3892,1.4241,-0.2546,-0.016,-1.2892,-1.5735,2017
7,0.271,1.4443,-0.1238,0.1461,-0.6588,-1.5601,2009
7,0.0723,1.4548,0.0068,0.1542,-0.1449,-1.6174,1963
7,-0.0527,1.5134,0.0984,-0.07,0.1943,-1.7518,1994
7,-0.1597,1.6184,0.4053,-0.247,0.3092,-1.8191,1953
7,0.0371,1.5789,0.665,-0.508,-0.5181,-1.5422,2037
7,0.3406,1.6001,0.7495,-0.4536,-1.7045,-0.8861,2202
7,0.3665,1.7368,0.636,-0.4544,-2.4586,-0.2871,2302
7,0.2117,1.6509,0.4326,-0.3067,-2.8452,0.3065,1797
7,0.0359,1.5298,0.176,-0.1934,-2.8713,0.7798,2006
7,-0.0337,1.3374,-0.0657,-0.1156,-2.2953,1.0377,1924
7,0.0071,1.2058,-0.1453,-0.0224,-1.5322,1.08,2059
7,0.0681,1.1016,-0.0984,0.049,-1.1725,1.1074,2086
7,0.0979,1.0088,-0.1113,0.1538,-1.0413,1.0758,2132
7,0.114,0.8867,-0.0959,0.1995,-0.9786,1.1702,2143
7,0.1277,0.8137,-0.105,0.1061,-0.9562,1.2054,2146
7,0.1133,0.7686,-0.1042,0.0435,-0.9174,1.2374,2123
7,0.1226,0.7407,-0.1301,0.0031,-0.9207,1.2444,2062
7,0.1162,0.6963,-0.1719,-0.0232,-1.0298,1.2553,2015
7,0.0681,0.6426,-0.2212,0.0044,-1.0507,1.1433,2050
7,0.0808,0.5972,-0.2493,0.1089,-0.8834,0.9957,2101
7,0.0847,0.5632,-0.2891,0.1732,-0.8267,0.8238,2075
7,0.0925,0.4839,-0.2876,0.2292,-0.722,0.634,2073
7,0.0984,0.4592,-0.2988,0.2928,-0.6107,0.5263,2049
7,0.178,0.4961,-0.2732,0.4506,-0.5842,0.3914,2041
8,0.23,0.4631,-0.2642,0.467,-0.7774,0.2203,2017
8,0.2708,0.4448,-0.2649,0.4626,-0.9682,0.0553,2035
8,0.157,0.3933,-0.2722,0.3626,-0.8496,0.0021,2040
8,0.1616,0.4197,-0.2371,0.2547,-0.7516,-0.0426,2049
8,0.1177,0.488,-0.2214,0.1465,-0.8312,-0.1663,2036
8,0.0815,0.4951,-0.1619,0.0389,-0.7786,-0.2517,2057
8,0.1077,0.4888,-0.1152,-0.1081,-0.7469,-0.3457,2047
8,0.1091,0.5127,-0.115,-0.2729,-0.8895,-0.4642,2052
8,0.1064,0.5718,-0.051,-0.2727,-0.8815,-0.543,2018
8,0.0989,0.5725,-0.0635,-0.3272,-0.9979,-0.6614,2049
8,0.1287,0.5754,-0.1284,-0.3193,-1.0893,-0.7518,1993
8,0.1453,0.614,-0.1785,-0.2518,-1.2114,-0.8757,2057
8,0.2095,0.561,-0.2256,-0.2438,-1.4528,-0.9389,2045
8,0.1716,0.5798,-0.2168,-0.3297,-1.6253,-1.0729,2049
8,0.2236,0.6223,-0.2607,-0.3944,-1.8191,-1.0748,2041
8,0.2432,0.6509,-0.2957,-0.418,-1.9548,-1.0356,2054
8,0.262,0.6602,-0.3262,-0.3702,-2.1786,-0.9572,2029
8,0.2517,0.6584,-0.3137,-0.3135,-2.3597,-0.9955,2051
8,0.2742,0.687,-0.3174,-0.2747,-2.469,-1.0849,2042
8,0.1965,0.7583,-0.2805,-0.1896,-2.4096,-1.1439,2036
8,0.1328,0.8733,-0.2954,-0.145,-2.3944,-1.1552,2028
8,0.1445,0.9712,-0.262,-0.1497,-2.2185,-1.2327,2040
8,0.1228,1.188,-0.2087,-0.0527,-2.088,-1.2768,2025
8,0.095,1.343,-0.1592,-0.0522,-2.2361,-1.2122,2020
8,0.1006,1.3574,-0.1648,0.0257,-2.3208,-1.0322,2040
8,0.0071,1.3645,-0.1912,0.2434,-2.298,-1.1089,2050
8,0.125,1.3364,-0.1982,0.4466,-2.0272,-1.0006,2039
8,0.1663,1.1465,-0.0864,0.6887,-1.815,-0.7926,2044
8,0.3054,1.1025,-0.1548,0.7992,-2.0001,-0.5942,2032
8,0.2026,1.0693,-0.1631,0.8545,-1.898,-0.249,2028
8,0.1184,1.0637,-0.1553,0.7874,-1.6486,0.1145,2065
8,0.1421,1.0374,-0.1777,0.7801,-1.1989,0.2862,2069
8,0.0171,1.0613,-0.1675,0.8457,-0.7201,0.3386,2084
8,0.0417,0.9863,-0.145,0.7899,-0.1657,0.3478,2079
8,-0.0244,0.9956,-0.1213,0.7083,0.1455,0.4573,2066
8,-0.0303,0.9683,-0.1038,0.652,0.3747,0.6236,2056
8,-0.0737,0.9165,-0.1099,0.5553,0.4607,0.8375,2053
8,-0.0134,0.7712,-0.1301,0.318,0.351,1.0905,2045
8,-0.0349,0.8264,-0.1765,0.3159,0.2143,1.1937,2035
8,-0.0396,0.8025,-0.1904,0.2914,-0.2116,1.2649,2031
8,-0.0293,0.7664,-0.207,0.2495,-0.6765,1.1745,2037
8,-0.0872,0.7996,-0.1882,0.3239,-0.8829,1.0963,2032
8,-0.0349,0.8313,-0.219,0.3297,-1.0416,0.9839,2042
8,-0.0789,0.8645,-0.2041,0.4084,-1.2268,0.8363,2042
8,-0.0632,0.8511,-0.1584,0.4156,-1.321,0.6255,2117
8,-0.0515,0.8528,-0.2173,0.4308,-1.2983,0.5361,2017
8,-0.0427,0.8955,-0.2285,0.4926,-1.1758,0.4903,2041
8,0.0303,0.8149,-0.198,0.4799,-1.2001,0.5275,2049
8,0.0276,0.8262,-0.2402,0.5075,-1.1758,0.5132,2046
8,0.0105,0.7708,-0.2749,0.5019,-1.1136,0.4707,2049
8,-0.0469,0.7444,-0.2854,0.4677,-1.0437,0.4145,2050
8,-0.0439,0.7805,-0.199,0.4204,-1.1051,0.412,2041
8,0.0415,0.7246,-0.2375,0.3364,-1.1216,0.3603,2048
8,0.0034,0.7322,-0.2715,0.2892,-1.1383,0.2895,2055
8,0.0396,0.699,-0.2642,0.2392,-1.2367,0.2285,2053
8,0.0974,0.7498,-0.2749,0.1522,-1.2946,0.189,2046
8,0.1228,0.7278,-0.2993,0.0886,-1.4074,0.1984,2043
8,0.1328,0.7163,-0.2971,0.0526,-1.458,0.202,2042
8,0.1228,0.7144,-0.3174,-0.018,-1.4901,0.1823,2044
8,0.2002,0.7268,-0.3423,-0.0679,-1.6238,0.2137,2042
8,0.1936,0.6782,-0.3015,-0.1931,-1.6491,0.2276,2043
8,0.1782,0.7222,-0.3225,-0.1979,-1.6929,0.2682,2041
8,0.1694,0.7317,-0.3325,-0.2449,-1.7278,0.276,2045
8,0.1904,0.7571,-0.3716,-0.2762,-1.7362,0.3002,2045
8,0.2041,0.7444,-0.3638,-0.2511,-1.7567,0.336,2050
8,0.1907,0.7981,-0.3872,-0.2603,-1.7401,0.3401,2046
8,0.2046,0.7954,-0.4148,-0.2611,-1.6607,0.3595,2047
8,0.23,0.7944,-0.426,-0.2324,-1.6085,0.3854,2050
8,0.2078,0.8174,-0.4329,-0.1972,-1.5842,0.3938,2046
8,0.1987,0.8225,-0.4338,-0.1723,-1.5042,0.3691,2046
8,0.2202,0.7842,-0.4368,-0.1521,-1.4251,0.3723,2043
8,0.1877,0.7747,-0.4453,-0.1213,-1.2925,0.3637,2047
8,0.2273,0.7581,-0.4629,-0.1198,-1.2657,0.3501,2046
8,0.239,0.761,-0.4673,-0.1302,-1.1946,0.3217,2043
8,0.2844,0.7695,-0.4736,-0.1322,-1.1536,0.306,2035
8,0.2827,0.7515,-0.4851,-0.1716,-1.1122,0.2706,2048
8,0.3018,0.7432,-0.5044,-0.1997,-1.0987,0.2425,2047
8,0.303,0.7273,-0.5051,-0.2197,-1.0493,0.2,2045
8,0.291,0.7363,-0.5254,-0.249,-1.005,0.1739,2065
8,0.2905,0.7021,-0.4851,-0.2935,-0.9861,0.1499,2048
8,0.2571,0.7109,-0.4941,-0.3237,-0.9324,0.1463,2037
8,0.2673,0.7017,-0.4795,-0.3368,-0.9074,0.134,2047
8,0.2446,0.6838,-0.4443,-0.3665,-0.8686,0.1362,2044
8,0.2432,0.7112,-0.468,-0.3755,-0.8433,0.1365,2038
8,0.2471,0.7148,-0.4553,-0.3715,-0.803,0.1408,2041
8,0.2659,0.6992,-0.4438,-0.3882,-0.7825,0.1521,2043
8,0.2769,0.6921,-0.4275,-0.4051,-0.7999,0.1533,2045
8,0.2781,0.7112,-0.4175,-0.4241,-0.8336,0.1567,2041
8,0.2761,0.7478,-0.4148,-0.4629,-0.8775,0.1434,2049
8,0.2666,0.7932,-0.4016,-0.5259,-0.9139,0.0752,2041
8,0.2671,0.8792,-0.3857,-0.5042,-1.0066,0.0296,2053
8,0.2336,0.9644,-0.3313,-0.5132,-1.067,-0.0539,2042
8,0.1914,1.0688,-0.2974,-0.5331,-1.0507,-0.1954,2044
8,0.1687,1.1907,-0.2668,-0.5819,-1.0403,-0.2814,2023
8,0.1606,1.3157,-0.229,-0.5196,-0.9191,-0.2914,1998
8,0.0938,1.302,-0.1055,-0.4422,-0.5798,-0.3565,2046
8,0.0791,1.1865,-0.0637,-0.3309,-0.4333,-0.3059,2039
8,0.083,1.0876,0.0396,-0.2396,-0.3804,-0.1565,2046
8,0.0437,1.0173,0.064,-0.1864,-0.3036,0.0706,2049
8,-0.0278,1.0159,0.0334,-0.1842,-0.1443,0.1932,2064
8,-0.0203,0.929,0.0464,-0.2329,-0.0419,0.3265,2058
8,-0.0959,0.8855,0.0522,-0.2545,0.0864,0.4747,2058
9,-0.1045,0.8569,0.0715,-0.2968,0.2742,0.6324,2039
9,-0.0979,0.8403,0.1116,-0.2187,0.4705,0.7273,2049
9,0.0293,0.7061,0.1526,-0.24,0.4275,0.804,2049
9,0.0627,0.6682,0.1973,-0.1462,0.3524,0.7925,2033
9,0.1904,0.6887,0.1919,-0.1855,0.1136,0.6883,2045
9,0.3115,0.6855,0.1519,-0.2201,-0.4156,0.6192,2044
9,0.3792,0.7947,0.0854,-0.2502,-0.9419,0.5183,2056
9,0.4333,0.7991,0.063,-0.3071,-1.4416,0.5746,2042
9,0.384,0.7698,0.0522,-0.4007,-1.8615,0.6433,2055
9,0.291,0.7729,-0.0129,-0.4196,-2.2035,0.6544,2059
9,0.1304,0.7307,-0.0552,-0.4564,-2.3342,0.6221,2052
9,0.0901,0.7166,-0.1633,-0.5871,-2.2736,0.5869,2051
9,-0.0137,0.7756,-0.1951,-0.5361,-2.0177,0.5144,2047
9,-0.0195,0.8108,-0.2136,-0.5215,-1.8234,0.396,2048
9,-0.0696,0.7817,-0.2322,-0.5217,-1.4972,0.2839,2048
9,0.0112,0.7566,-0.2207,-0.5284,-1.2869,0.1388,2042
9,0.1719,0.7031,-0.2734,-0.4478,-1.3089,0.0025,2038
9,0.1934,0.6541,-0.2158,-0.4561,-1.3528,-0.0641,2032
9,0.2444,0.6365,-0.2024,-0.4368,-1.4852,-0.1173,2052
9,0.248,0.5974,-0.1956,-0.4113,-1.5735,-0.1447,2032
9,0.249,0.5725,-0.1721,-0.405,-1.6237,-0.1871,2050
9,0.2871,0.5669,-0.1638,-0.4099,-1.6661,-0.2081,2044
9,0.2749,0.5547,-0.1135,-0.4389,-1.6391,-0.2417,2028
9,0.2815,0.5427,-0.095,-0.471,-1.6306,-0.2775,2045
9,0.292,0.5496,-0.0647,-0.4962,-1.6669,-0.3422,2045
9,0.323,0.563,-0.0576,-0.5726,-1.6668,-0.3836,2039
9,0.2886,0.5889,-0.0693,-0.5456,-1.655,-0.4077,2034
9,0.3088,0.6257,-0.0815,-0.5786,-1.79,-0.4457,2045
9,0.2834,0.6606,-0.1062,-0.5536,-1.8174,-0.456,2038
9,0.2725,0.6538,-0.1379,-0.5307,-1.8317,-0.4601,2054
9,0.2307,0.6443,-0.1384,-0.5193,-1.7436,-0.4589,2048
9,0.2346,0.6428,-0.1431,-0.5136,-1.6737,-0.4733,2051
9,0.2568,0.6406,-0.1516,-0.4962,-1.6092,-0.4729,2045
9,0.2866,0.636,-0.167,-0.4665,-1.5499,-0.451,2054
9,0.3154,0.6497,-0.1882,-0.4105,-1.5118,-0.4307,2046
9,0.3103,0.6716,-0.1958,-0.343,-1.4784,-0.4087,2041
9,0.3154,0.6865,-0.2261,-0.2578,-1.4407,-0.3948,2052
9,0.3135,0.686,-0.24,-0.1846,-1.3786,-0.3942,2050
9,0.3186,0.6714,-0.2559,-0.0956,-1.3404,-0.4099,2040
9,0.3137,0.6599,-0.2771,-0.0109,-1.3528,-0.4187,2056
9,0.3201,0.6558,-0.2966,0.0806,-1.3607,-0.4265,2046
9,0.3435,0.6638,-0.2966,0.1663,-1.3687,-0.4364,2040
9,0.3296,0.6614,-0.2754,0.2248,-1.3761,-0.4428,2033
9,0.3164,0.6418,-0.2634,0.2189,-1.3738,-0.4456,2038
9,0.302,0.625,-0.2573,0.2306,-1.3829,-0.4249,2044
9,0.3281,0.6274,-0.2361,0.2535,-1.4133,-0.3683,2049
9,0.3606,0.6108,-0.2014,0.2282,-1.4375,-0.2786,2043
9,0.3835,0.6404,-0.1802,0.1968,-1.4541,-0.1876,2051
9,0.3911,0.7017,-0.2178,0.2368,-1.5206,-0.1465,2042
9,0.3613,0.7649,-0.2646,0.3329,-1.5442,-0.157,2051
9,0.3345,0.8477,-0.3376,0.4067,-1.6468,-0.24,2053
9,0.2861,0.9248,-0.3789,0.4634,-1.6259,-0.4084,2039
9,0.1672,0.9563,-0.3728,0.5309,-1.3358,-0.5936,2039
9,0.0986,0.9556,-0.3228,0.4193,-1.058,-0.7947,2045
9,0.0935,0.9434,-0.27,0.3783,-0.8408,-0.9521,2016
9,0.1646,0.9478,-0.1809,0.4073,-0.653,-1.0216,2034
9,0.2256,0.9404,-0.1121,0.494,-0.5345,-1.0468,2031
9,0.2312,0.9443,-0.0608,0.5743,-0.5987,-0.9565,2034
9,0.2229,0.9707,-0.0867,0.6169,-0.6612,-0.7773,2050
9,0.2043,1.0906,-0.0662,0.5717,-0.6445,-0.6976,2053
9,0.1843,1.1138,-0.0994,0.4576,-0.6541,-0.6343,2055
9,0.1599,1.1179,-0.0442,0.3815,-0.6353,-0.5352,2060
9,0.0854,1.1104,-0.0056,0.2826,-0.5685,-0.5761,2042
9,0.0623,0.9871,0.0557,0.2277,-0.5882,-0.4374,2054
9,-0.0071,0.9656,0.0601,0.19,-0.5877,-0.365,2050
9,-0.0247,0.8645,0.0688,0.1369,-0.4801,-0.2305,2056
9,-0.0725,0.8552,0.0396,0.0362,-0.2987,-0.0435,2059
9,-0.0642,0.864,-0.0474,0.0177,-0.2236,0.074,2059
9,-0.1035,0.8413,-0.0767,0.0056,-0.1288,0.2008,2052
9,-0.0596,0.8513,-0.114,-0.0664,-0.1802,0.1818,2043
9,-0.0459,0.853,-0.1521,-0.1348,-0.2048,0.1784,2042
9,-0.0405,0.8843,-0.1794,-0.1903,-0.3029,0.0808,2041
9,-0.022,0.8828,-0.2178,-0.1924,-0.4449,-0.0334,2037
9,-0.01,0.8904,-0.2502,-0.1911,-0.5947,-0.1467,2038
9,0.0046,0.875,-0.2717,-0.1535,-0.7203,-0.1976,2040
9,0.0088,0.8818,-0.293,-0.1176,-0.8405,-0.2076,2040
9,-0.0146,0.8936,-0.3096,-0.0249,-0.9235,-0.1838,2028
9,-0.0366,0.9058,-0.3193,0.0196,-0.9657,-0.1792,2047
9,-0.0789,0.8984,-0.3108,0.0856,-0.9331,-0.173,2051
9,-0.0945,0.9197,-0.3276,0.1088,-0.8865,-0.1767,2037
9,-0.1057,0.9092,-0.3206,0.1827,-0.8676,-0.1942,2049
9,-0.1067,0.8638,-0.2874,0.1996,-0.744,-0.1951,2043
9,-0.1145,0.8521,-0.2708,0.2003,-0.6446,-0.2112,2046
9,-0.0969,0.8528,-0.2458,0.2402,-0.5311,-0.2075,2040
9,-0.0759,0.823,-0.1992,0.2523,-0.4083,-0.1738,2049
9,-0.0164,0.7986,-0.1804,0.2735,-0.342,-0.1442,2049
9,0.0032,0.78,-0.1729,0.2958,-0.316,-0.0983,2042
9,0.0225,0.7598,-0.1787,0.299,-0.3185,-0.0535,2061
9,0.0422,0.7634,-0.1975,0.2992,-0.3285,-0.0277,2045
9,0.0671,0.7529,-0.2109,0.2963,-0.3296,-0.0196,2048
9,0.0801,0.7456,-0.2256,0.316,-0.3281,0.0069,2039
9,0.0813,0.7078,-0.261,0.2714,-0.3551,0.015,2041
9,0.1213,0.6917,-0.2957,0.2983,-0.3838,0.0252,2039
9,0.1194,0.6675,-0.2803,0.2751,-0.365,0.0501,2038
9,0.1096,0.6169,-0.2771,0.2068,-0.3626,0.0828,2047
9,0.1252,0.6504,-0.312,0.1538,-0.3743,0.1073,2043
9,0.124,0.646,-0.28,0.1194,-0.4068,0.1336,2049
9,0.1489,0.6692,-0.3188,0.1104,-0.3983,0.1939,2047
9,0.1104,0.6682,-0.3057,0.1053,-0.3631,0.2071,2049
9,0.0789,0.6589,-0.3037,0.091,-0.3322,0.2444,2042
9,0.1179,0.667,-0.313,0.0748,-0.351,0.3314,2044
10,0.0806,0.6726,-0.3152,0.026,-0.2457,0.2357,2052
10,0.042,0.6648,-0.3301,0.0154,-0.1808,0.2385,2037
10,0.0659,0.6665,-0.3164,-0.0124,-0.1045,0.2501,2052
10,0.105,0.6628,-0.3118,-0.0218,-0.0965,0.2241,2049
10,0.0769,0.6633,-0.3032,0.0101,-0.0559,0.2398,2034
10,0.0979,0.6484,-0.3105,0.0059,-0.1067,0.2627,2046
10,0.1257,0.6548,-0.2832,0.0228,-0.1653,0.3139,2041
10,0.1428,0.6638,-0.2966,0.0209,-0.2462,0.3452,2044
10,0.189,0.6819,-0.2959,0.0258,-0.3874,0.3999,2037
10,0.1936,0.6848,-0.3042,0.0292,-0.5452,0.4556,2048
10,0.1816,0.6748,-0.3008,0.0353,-0.6877,0.4994,2050
10,0.145,0.6528,-0.3074,0.045,-0.7974,0.5345,2051
10,0.1357,0.6189,-0.3223,0.0704,-0.8801,0.5793,2045
10,0.147,0.5879,-0.3279,0.106,-0.9373,0.6292,2044
10,0.1694,0.5891,-0.3123,0.122,-0.985,0.6577,2046
10,0.1733,0.5991,-0.3218,0.1381,-1.0302,0.6935,2042
10,0.2166,0.6384,-0.3274,0.1515,-1.1172,0.7062,2049
10,0.2439,0.6904,-0.3535,0.1398,-1.2287,0.7131,2047
10,0.2595,0.6902,-0.3638,0.1175,-1.2627,0.7197,2057
10,0.2556,0.6433,-0.4111,0.0903,-1.2619,0.728,2043
10,0.1912,0.5889,-0.4138,0.053,-1.226,0.7526,2050
10,0.1016,0.5083,-0.3909,0.0177,-1.0276,0.758,2049
10,0.0164,0.438,-0.3279,-0.0186,-0.7486,0.7256,2049
10,-0.0176,0.3926,-0.2876,-0.0658,-0.4695,0.7164,2044
10,-0.0022,0.3901,-0.2537,-0.0696,-0.2278,0.7339,2046
10,0.1243,0.4421,-0.2285,-0.0846,-0.1242,0.759,2027
10,0.2119,0.5059,-0.1921,-0.1045,-0.0222,0.7815,2032
10,0.3625,0.5667,-0.158,-0.1677,-0.1357,0.7706,2046
10,0.3682,0.6326,-0.0791,-0.2498,-0.1932,0.761,2045
10,0.4597,0.7646,-0.0381,-0.3504,-0.2694,0.6821,2057
10,0.6079,0.895,0.0203,-0.4907,-0.4561,0.642,2037
10,0.8174,1.2021,0.0505,-0.6221,-0.9019,0.5462,2028
10,1.0154,1.5613,0.0264,-0.8616,-1.4978,0.4912,2046
10,0.894,1.782,-0.0696,-1.0011,-1.5789,0.2614,1982
10,0.3914,1.782,-0.156,-0.8333,-1.1613,0.1069,2062
10,-0.2358,1.6882,-0.1519,-0.6446,-0.6395,0.0459,2068
10,-0.4666,1.5776,-0.1575,-0.6755,-0.2024,-0.1638,2067
10,-0.2241,1.3015,-0.0596,-0.7355,-0.026,-0.133,2053
10,-0.384,1.3645,-0.0115,-0.5376,0.335,-0.2011,2034
10,-0.386,1.2588,-0.1055,-0.1812,0.0254,-0.2915,2064
10,-0.1963,1.1841,-0.0449,-0.0236,-0.4283,-0.4681,2040
10,-0.0247,1.2197,0.0549,-0.0244,-0.5108,-0.6188,2036
10,0.1816,1.1804,-0.0588,-0.0127,-0.713,-0.6215,2046
10,0.3904,1.1052,-0.0239,0.1806,-1.048,-0.6112,2047
10,0.5698,0.9954,0.0615,0.2694,-1.3203,-0.6131,2039
10,0.6426,0.7888,0.115,0.3488,-1.4403,-0.4904,2042
10,0.6079,0.6252,0.0728,0.3091,-1.5363,-0.2967,2054
10,0.4861,0.5496,0.0122,0.3878,-1.6956,-0.191,2056
10,0.3582,0.4817,-0.0078,0.3485,-1.7867,-0.1024,2064
10,0.1702,0.3633,0.0249,0.2543,-1.5901,-0.033,2058
10,-0.0154,0.3225,-0.0005,0.1836,-1.1252,-0.0161,2054
10,-0.0774,0.208,-0.0669,0.0945,-0.7488,-0.1111,2060
10,-0.0144,0.144,-0.1074,0.053,-0.3433,-0.1107,2034
10,0.0413,0.2073,-0.1785,0.0551,0.0085,0.051,2030
10,0.0557,0.2161,-0.2756,0.0936,0.3057,0.1282,2044
10,0.1316,0.2102,-0.292,0.3163,0.4372,0.0981,2039
10,0.207,0.1462,-0.3298,0.2936,0.4924,0.1108,2036
10,0.3098,0.0959,-0.3733,0.2823,0.5658,0.1152,2045
10,0.3909,0.0796,-0.3772,0.2619,0.5992,0.1478,2036
10,0.4099,0.116,-0.4294,0.2113,0.5332,0.1238,2047
10,0.4526,0.1602,-0.4873,0.1647,0.3438,0.0882,2043
10,0.4868,0.1975,-0.5393,0.1424,0.198,0.0788,2043
10,0.4707,0.2297,-0.584,0.1089,0.0273,0.074,2044
10,0.3845,0.2688,-0.6023,0.0594,-0.1382,0.0915,2039
10,0.2817,0.3281,-0.6052,0.0254,-0.2007,0.1585,2053
10,0.1853,0.3848,-0.6084,-0.0205,-0.3505,0.2397,2062
10,0.1079,0.4209,-0.5527,-0.0748,-0.4745,0.2787,2049
10,0.0483,0.5066,-0.4915,-0.1643,-0.5787,0.3035,2032
10,0.0386,0.7725,-0.3813,-0.1096,-0.8833,0.3286,2032
10,-0.01,0.9849,-0.4182,0.1699,-0.9321,0.2602,2055
10,0.0784,0.9341,-0.2324,0.2349,-0.8036,0.38,2035
10,-0.0479,1.2085,-0.0342,0.2056,-0.7879,0.3573,2010
10,-0.1846,1.3701,0.0627,0.3276,-0.9119,0.2701,2179
10,-0.2976,1.4692,0.2166,0.3735,-0.9179,0.0868,2026
10,-0.2554,1.5439,0.1794,0.4944,-0.8522,-0.0373,2056
10,-0.053,1.814,0.0505,0.6424,-0.8672,-0.1155,2047
10,0.0591,1.9941,-0.0601,0.8309,-0.8503,-0.2354,2025
10,0.0835,1.9126,-0.2266,0.9021,-1.0335,-0.3301,2057
10,0.0259,1.8669,-0.3464,0.795,-1.126,-0.3326,2055
10,0.0879,1.8875,-0.4092,0.714,-1.079,-0.3623,2018
10,0.1689,1.8325,-0.3601,0.7203,-1.0071,-0.3611,2057
10,0.3159,1.6824,-0.1814,0.7255,-0.9433,-0.4621,2030
10,0.6331,1.4829,-0.031,0.5741,-0.9858,-0.5385,2046
10,0.4463,1.4741,0.1062,0.5847,-1.1232,-0.1938,2032
10,0.4343,1.3562,0.031,0.1248,-0.7566,-0.297,2055
10,0.323,1.3833,-0.0007,0.1129,-0.6283,-0.0651,2041
10,0.2361,1.3379,-0.1047,0.0461,-0.5593,-0.0843,2066
10,0.3804,1.2,-0.1904,0.1471,-0.5725,-0.018,2057
10,0.2747,1.0784,-0.217,0.0579,-0.2342,0.0103,2035
10,0.2229,0.9626,-0.2988,0.038,-0.1392,0.1021,2044
10,0.2083,0.8401,-0.2969,0.0055,-0.0221,0.1153,2052
10,0.155,0.7122,-0.2776,-0.1186,0.0405,0.1575,2047
10,0.1421,0.6565,-0.2778,-0.2023,0.2338,0.1434,2053
10,0.1406,0.5989,-0.2808,-0.1743,0.341,0.1214,2049
10,0.1819,0.5503,-0.2979,-0.1161,0.3617,0.0699,2044
10,0.1768,0.4966,-0.2905,-0.0105,0.5067,0.0398,2043
10,0.125,0.4746,-0.3113,0.0675,0.6271,-0.0134,2038
10,0.1072,0.4314,-0.3711,0.0957,0.6142,-0.0258,2047
10,0.1299,0.4019,-0.3984,0.1248,0.6624,-0.0036,2042
10,0.1416,0.3867,-0.4216,0.1674,0.7879,-0.0121,2056
10,0.1355,0.301,-0.4546,0.2276,0.8869,0.1139,2045
10,0.0737,0.3123,-0.4678,0.2493,0.8704,0.1194,2052
11,0.064,0.2932,-0.4988,0.2915,0.7821,0.1816,2049
11,0.0808,0.2771,-0.4849,0.2982,0.7709,0.2221,2035
11,0.1091,0.2522,-0.4424,0.242,0.7995,0.248,2045
11,0.1152,0.2422,-0.479,0.2188,0.7725,0.239,2038
11,0.1064,0.2864,-0.5056,0.241,0.6437,0.2561,2045
11,0.095,0.343,-0.5076,0.2156,0.5108,0.2495,2044
11,0.1094,0.3743,-0.5186,0.1326,0.3751,0.2438,2039
11,0.1658,0.417,-0.563,0.0768,0.2049,0.2798,2037
11,0.1907,0.4783,-0.5764,0.0395,0.0035,0.2906,2046
11,0.1772,0.5005,-0.5413,0.0024,-0.2088,0.2506,2057
11,0.1589,0.4749,-0.4937,-0.1405,-0.3972,0.1855,2044
11,0.1812,0.4673,-0.4514,-0.2888,-0.7217,0.0972,2040
11,0.1621,0.5562,-0.4429,-0.1682,-1.0524,0.1511,2026
11,0.2439,0.5991,-0.3574,-0.1073,-1.3334,0.134,2041
11,0.2988,0.6479,-0.2959,0.0775,-1.3536,0.1073,2045
11,0.4795,0.6626,-0.2468,-0.2177,-1.2165,-0.149,2039
11,0.4844,0.7993,-0.2112,0.0811,-1.2344,0.0419,2032
11,0.2642,0.623,-0.1572,-0.0824,-1.2295,0.0846,2068
11,0.187,0.6179,-0.2444,-0.1414,-1.1432,0.195,2060
11,0.1636,0.5852,-0.312,-0.1501,-0.8408,0.1931,2041
11,0.2068,0.5237,-0.3965,-0.1474,-0.5466,0.2053,2044
11,0.2065,0.5752,-0.4219,-0.1278,-0.3392,0.1694,2032
11,0.3103,0.6372,-0.4268,-0.1771,-0.2354,0.1842,2022
11,0.425,0.7773,-0.438,-0.3045,-0.1856,0.2305,2034
11,0.4924,0.9177,-0.4666,-0.4328,-0.0712,0.2219,2043
11,0.4988,0.9941,-0.4133,-0.5357,0.1477,0.2183,2046
11,0.375,1.0122,-0.3147,-0.6972,0.2968,0.1657,2114
11,0.2573,1.0957,-0.2419,-0.8159,0.4991,-0.0166,2032
11,0.1409,1.3354,-0.1721,-0.828,0.7221,-0.377,2046
11,0.1794,1.8215,-0.0967,-0.7837,0.9809,-0.7734,2017
11,0.3181,1.9999,-0.1052,-0.6205,1.3463,-0.7163,2032
11,0.4409,1.7598,-0.1506,-0.6956,1.3861,-0.6956,2039
11,0.5093,1.6445,0.0613,-0.5899,1.2469,-0.8925,2048
11,0.4602,1.4346,0.2363,-0.5244,0.4402,-0.6854,2053
11,0.6011,1.3018,0.166,-0.5289,-0.0949,-0.424,2059
11,0.5144,1.3022,0.1785,-0.5381,-0.2456,-0.1892,2036
11,0.4021,1.4517,0.1555,-0.594,-0.4,0.0969,2048
11,0.2883,1.4617,0.0881,-0.643,-0.5601,0.3738,2047
11,0.356,1.4233,0.0347,-0.607,-0.5422,0.5753,2056
11,0.3164,1.2952,0.0684,-0.4275,-0.3878,0.7593,2054
11,0.3477,1.0632,0.0762,-0.3502,-0.3667,0.7412,2061
11,0.3481,0.9448,0.1477,-0.243,-0.1117,0.6116,2052
11,0.4565,0.8516,0.0703,-0.1614,-0.3939,0.6295,2036
11,0.3489,0.8054,0.0757,0.0473,-0.3512,0.534,2035
11,0.293,0.7148,-0.0051,0.1469,-0.3815,0.4537,2050
11,0.1143,0.7148,-0.0854,0.2549,-0.0194,0.2834,2058
11,0.1729,0.6382,-0.2695,0.2518,0.0368,0.2131,2070
11,0.1287,0.489,-0.2617,0.3766,0.3982,0.1609,2053
11,0.1033,0.4231,-0.2866,0.204,0.6293,0.0694,2058
11,0.1594,0.4036,-0.3137,0.23,0.8745,0.0184,2055
11,0.1057,0.3867,-0.2676,0.2333,1.0617,0.0129,2039
11,0.1089,0.3335,-0.2446,0.1985,1.1625,-0.0116,2039
11,0.0811,0.3486,-0.2053,0.1595,1.2459,-0.0695,2043
11,0.0933,0.3369,-0.1543,0.0925,1.1043,-0.0937,2033
11,0.1174,0.3572,-0.1467,0.039,0.975,-0.1282,2034
11,0.0903,0.3904,-0.1631,0.0499,0.9827,-0.1597,2043
11,0.0735,0.3801,-0.1738,0.09,0.9355,-0.2215,2043
11,0.0803,0.3752,-0.1616,0.1268,0.836,-0.2553,2041
11,0.0808,0.4102,-0.1831,0.1312,0.789,-0.3091,2025
11,0.1021,0.4302,-0.1853,0.1566,0.7201,-0.3541,2038
11,0.1357,0.49,-0.2102,0.2165,0.7344,-0.3932,2037
11,0.1689,0.4998,-0.2505,0.3181,0.6474,-0.343,2043
11,0.1558,0.5127,-0.2651,0.4245,0.5968,-0.3366,2050
11,0.1533,0.5,-0.2629,0.5031,0.5755,-0.359,2043
11,0.1519,0.491,-0.262,0.5681,0.5466,-0.3872,2057
11,0.0879,0.4031,-0.2034,0.6231,0.6019,-0.3526,2051
11,0.0654,0.344,-0.1829,0.5741,0.5771,-0.3408,2040
11,0.0935,0.3362,-0.1438,0.6195,0.5307,-0.3579,2038
11,0.113,0.3599,-0.1018,0.5675,0.4805,-0.4336,2036
11,0.1431,0.4023,-0.0999,0.6167,0.4149,-0.412,2049
11,0.2,0.4189,-0.0964,0.6778,0.3786,-0.3807,2023
11,0.1885,0.4421,-0.1023,0.785,0.3619,-0.3731,2051
11,0.1948,0.3943,-0.1689,0.7822,0.2804,-0.338,2051
11,0.1292,0.4717,-0.1841,0.8961,0.3344,-0.4537,2042
11,0.1533,0.3823,-0.1689,0.8475,0.3404,-0.3585,2049
11,0.1633,0.3423,-0.1785,0.7284,0.4328,-0.3775,2054
11,0.0884,0.4119,-0.1477,0.7966,0.5671,-0.4353,2044
11,0.125,0.4048,-0.1121,0.8156,0.6377,-0.373,2027
11,0.2324,0.3511,-0.2214,0.72,0.553,-0.2962,2051
11,0.3452,0.3926,-0.2371,0.77,0.5295,-0.2213,2030
11,0.353,0.469,-0.2695,0.8195,0.3689,-0.089,2054
11,0.3303,0.4692,-0.2434,0.8554,0.2946,0.049,2057
11,0.217,0.6367,-0.2563,0.8741,0.2417,0.0384,2042
11,0.0469,0.7847,-0.1963,0.9091,0.3449,0.0481,2054
11,0.0349,0.9373,-0.2539,0.8464,0.3263,0.1776,2035
11,0.0,1.02,-0.2476,0.7356,0.2354,0.3243,2050
11,-0.061,1.0427,-0.1182,0.703,0.3637,0.4722,2036
11,0.031,1.1814,0.0303,0.4819,0.5267,0.5363,2033
11,0.147,1.3286,0.0667,0.3195,0.1514,0.6143,2047
11,-0.4814,1.7573,1.8589,-1.8006,-0.2826,0.4884,2024
11,0.1794,1.7957,-1.04,1.5926,0.3474,0.587,2090
11,0.053,1.7136,0.2903,0.1096,-0.0052,0.4978,1987
11,-0.0923,1.7041,0.165,-0.196,-0.4433,0.3831,2061
11,0.0847,1.6924,-0.0581,-0.1286,-0.6626,0.3649,2042
11,0.157,1.7563,-0.1675,-0.0241,-0.8985,0.3072,2040
11,0.1155,1.9282,-0.2322,0.1165,-0.9578,0.312,2045
11,-0.1008,1.9446,-0.3608,0.2211,-1.0581,0.0868,2058
11,0.2368,1.6711,-0.4666,0.1486,-1.1955,-0.0433,2065
11,0.136,1.5381,-0.3982,0.0519,-1.0644,-0.178,2037
11,0.1365,1.4626,-0.4255,-0.0266,-1.0203,-0.2221,2047
11,0.1345,1.2622,-0.3921,-0.1378,-1.0632,-0.2808,2057
11,0.1108,1.1919,-0.3794,-0.1406,-1.0461,-0.2804,2052
11,0.0679,1.1624,-0.3945,-0.047,-0.9614,-0.275,2039
11,0.0916,1.0527,-0.4321,0.0052,-0.8337,-0.304,2049
11,0.1404,1.0037,-0.4746,0.0843,-0.6875,-0.2814,2046
12,0.2144,0.9333,-0.4294,0.0863,-0.5376,-0.2618,2042
12,0.2871,0.9197,-0.4409,0.0896,-0.4864,-0.2068,2023
12,0.3391,0.9045,-0.4426,0.1498,-0.5268,-0.1176,2052
12,0.3435,0.8601,-0.425,0.2666,-0.5416,-0.0655,2041
12,0.3291,0.8167,-0.4165,0.3707,-0.5588,0.0184,2040
12,0.2847,0.7639,-0.374,0.3729,-0.4823,0.0917,2049
12,0.229,0.7166,-0.3743,0.355,-0.3757,0.1135,2048
12,0.228,0.6663,-0.3367,0.3607,-0.2503,0.1695,2061
12,0.2178,0.6345,-0.3367,0.4256,-0.136,0.2476,2037
12,0.2278,0.5859,-0.3069,0.4349,-0.0602,0.2774,2049
12,0.2332,0.5376,-0.3074,0.4754,0.0598,0.3139,2043
12,0.2168,0.4822,-0.3132,0.5094,0.124,0.3635,2048
12,0.2065,0.4358,-0.3269,0.4852,0.1196,0.4229,2044
12,0.2156,0.4053,-0.3352,0.4623,0.2021,0.49,2049
12,0.2214,0.3682,-0.3254,0.4113,0.2741,0.5446,2049
12,0.2122,0.356,-0.3396,0.4121,0.3237,0.5898,2050
12,0.22,0.3679,-0.3711,0.4249,0.2862,0.6492,2039
12,0.2131,0.3579,-0.3718,0.4279,0.2859,0.6939,2049
12,0.1548,0.3552,-0.3779,0.4279,0.271,0.6805,2040
12,0.0891,0.3289,-0.3503,0.344,0.2583,0.6682,2059
12,0.0459,0.3247,-0.344,0.2071,0.2163,0.6926,2053
12,0.2195,0.324,-0.3677,0.0842,0.2597,0.6814,2028
12,0.0854,0.4294,-0.3933,0.0494,0.3211,0.6994,2030
12,0.0574,0.5042,-0.3567,0.0053,0.1361,0.6847,2069
12,-0.1086,0.4976,-0.3115,-0.0835,0.3517,0.6634,2041
12,-0.0698,0.5408,-0.3008,-0.085,0.3458,0.6798,2048
12,0.0876,0.5532,-0.2908,-0.0558,0.2655,0.604,2048
12,0.1331,0.5024,-0.261,-0.0961,0.2915,0.5621,2044
12,0.2856,0.5,-0.2507,-0.0618,0.0017,0.5825,2054
12,0.3474,0.5371,-0.2104,-0.0637,-0.3615,0.573,2045
12,0.3589,0.5928,-0.2561,-0.0589,-0.6454,0.5641,2041
12,0.3582,0.6548,-0.386,-0.1257,-0.8409,0.5349,2043
12,0.3679,0.6877,-0.4241,-0.2068,-1.0943,0.4794,2043
12,0.321,0.656,-0.4302,-0.3512,-1.1938,0.3966,2031
12,0.2346,0.6699,-0.4812,-0.3701,-1.1216,0.3184,2040
12,0.041,0.6233,-0.5195,-0.367,-0.9672,0.1911,2036
12,-0.0774,0.5347,-0.4805,-0.4526,-0.7913,0.0431,2061
12,-0.1409,0.5054,-0.395,-0.4862,-0.5746,-0.0306,2064
12,-0.0234,0.5596,-0.4062,-0.5453,-0.5143,-0.0486,2033
12,0.2156,0.6384,-0.4175,-0.5032,-0.503,0.0072,2043
12,0.3938,0.7659,-0.385,-0.4976,-0.4741,0.1208,2024
12,0.4478,0.9094,-0.3445,-0.5874,-0.748,0.0784,2020
12,0.3789,1.052,-0.355,-0.7566,-0.6387,-0.0507,2042
12,0.3164,1.1753,-0.2634,-0.7309,-0.5679,-0.3004,2048
12,0.1721,1.3396,-0.2659,-0.6144,-0.298,-0.448,2052
12,0.0452,1.6445,-0.2837,-0.4548,0.2655,-0.7255,2047
12,0.4153,1.5815,-0.3025,-0.4093,0.6714,-0.8114,2053
12,0.4722,1.4741,-0.0581,-0.1991,1.307,-0.8628,2038
12,0.4128,1.2761,-0.0281,-0.0541,1.3447,-0.8231,2037
12,0.45,1.2024,0.0291,0.0912,1.3548,-0.655,2016
12,0.4004,1.2205,0.0317,-0.033,1.0529,-0.4986,2039
12,0.5037,1.324,0.0691,-0.1168,0.6737,-0.2738,2032
12,0.5476,1.405,0.0547,-0.1567,0.3567,-0.1285,2041
12,0.5391,1.4873,0.1233,-0.2591,0.1716,-0.0088,2040
12,0.6646,1.4236,0.0962,-0.3269,0.1196,0.1113,2045
12,0.6653,1.2656,0.1035,-0.2907,0.398,0.242,2040
12,0.542,1.2209,0.0586,-0.2481,0.5785,0.287,2055
12,0.4407,1.1631,0.0383,-0.287,0.7363,0.3436,2071
12,0.5093,1.0911,-0.0151,-0.1471,0.6642,0.3868,2060
12,0.437,1.0178,-0.0356,-0.0703,0.5719,0.4473,2056
12,0.2561,1.002,-0.0706,0.1135,0.5629,0.4778,2062
12,0.0823,0.9194,-0.0813,0.2432,0.589,0.4088,2058
12,0.0105,0.8879,-0.1274,0.2368,0.734,0.2309,2055
12,0.0996,0.7563,-0.1443,0.4007,0.844,0.1967,2039
12,0.1858,0.5649,-0.0879,0.3741,0.872,0.1393,2040
12,0.1665,0.5369,-0.1033,0.3405,0.9068,0.0743,2034
12,0.1628,0.5327,-0.1213,0.4207,0.9513,-0.0049,2048
12,0.1333,0.4548,-0.0903,0.4705,1.1081,-0.0791,2049
12,0.072,0.406,-0.136,0.4918,1.2199,-0.1196,2046
12,0.0576,0.3794,-0.1528,0.5092,1.1448,-0.1396,2043
12,0.0376,0.3721,-0.1812,0.5329,1.0286,-0.1601,2045
12,-0.0007,0.3171,-0.1733,0.5605,1.0792,-0.2277,2046
12,0.0068,0.2788,-0.189,0.4795,1.0963,-0.316,2047
12,0.0569,0.2654,-0.2139,0.3709,1.0488,-0.3795,2039
12,0.052,0.3213,-0.2329,0.3836,1.0288,-0.4216,2045
12,0.1245,0.3159,-0.2041,0.3199,0.8969,-0.4309,2045
12,0.1326,0.3459,-0.1729,0.2856,0.7882,-0.4599,2044
12,0.1194,0.377,-0.1917,0.2442,0.7604,-0.4823,2041
12,0.1257,0.4331,-0.208,0.314,0.658,-0.4878,2049
12,0.0862,0.4395,-0.2349,0.3916,0.5865,-0.5088,2050
12,0.0811,0.4497,-0.2346,0.455,0.5516,-0.5296,2047
12,0.0652,0.4709,-0.2263,0.4986,0.534,-0.5923,2040
12,0.0808,0.4875,-0.2205,0.5245,0.5002,-0.6179,2047
12,0.1196,0.5115,-0.2056,0.5689,0.4532,-0.6151,2041
12,0.1292,0.4919,-0.1565,0.5562,0.4093,-0.598,2042
12,0.1528,0.4771,-0.094,0.5293,0.3052,-0.5313,2042
12,0.1533,0.4131,-0.0854,0.4703,0.237,-0.4753,2045
12,0.2295,0.4397,-0.1033,0.498,0.0397,-0.4171,2034
12,0.2581,0.4373,-0.0918,0.5276,-0.068,-0.3369,2049
12,0.2439,0.4592,-0.1038,0.565,-0.1711,-0.2474,2048
12,0.2217,0.5127,-0.104,0.6445,-0.2268,-0.1534,2059
12,0.1995,0.5474,-0.1582,0.6268,-0.2487,-0.0786,2051
12,0.2371,0.5662,-0.1565,0.5815,-0.2199,-0.0165,2030
12,0.2141,0.6492,-0.1462,0.6986,-0.1137,0.0071,2046
12,0.2151,0.6052,-0.1101,0.6809,-0.1666,0.0579,2055
12,0.1995,0.5786,-0.0525,0.6734,-0.174,0.0807,2049
12,0.1606,0.5669,-0.0093,0.7357,-0.1453,0.1221,2044
12,0.1238,0.5164,0.0134,0.7451,-0.175,0.1178,2047
12,0.115,0.5557,-0.0349,0.8292,-0.2369,0.0751,2037
12,0.0981,0.6746,-0.0701,0.9785,-0.2426,0.0601,2039
12,-0.0378,0.7888,-0.1345,1.0424,0.069,0.0249,2056
13,-0.0784,0.9661,-0.2283,0.9708,0.3818,0.1036,2030
13,0.0046,1.1458,-0.1963,0.7954,0.5241,0.2329,2033
13,0.1968,1.2595,-0.179,0.5201,0.1871,0.3263,2042
13,0.0764,1.2217,-0.0598,0.3899,0.1858,0.4213,2039
13,0.1511,1.1685,0.0127,-0.0619,0.1024,0.4999,2032
13,0.0754,1.3552,-0.0923,-0.0932,-0.2539,0.3785,2044
13,0.0959,1.5945,-0.136,0.0198,-0.8206,0.2464,2033
13,0.1699,1.9404,-0.259,-0.1047,-1.352,0.3524,2042
13,0.1899,1.9419,-0.3345,-0.2123,-1.5741,0.4494,2045
13,-0.0757,1.835,-0.4729,-0.1766,-1.488,0.4418,2027
13,-0.2036,1.5867,-0.4946,-0.1631,-1.5167,0.228,2070
13,-0.0334,1.4077,-0.481,-0.1562,-1.5946,0.1329,2056
13,0.3037,1.4238,-0.3491,-0.0641,-1.7116,0.0847,2047
13,0.5315,1.3813,-0.2417,-0.0583,-1.9527,0.0786,2035
13,0.5195,1.406,-0.3206,0.0048,-2.186,0.0839,2038
13,0.3523,1.3508,-0.4116,0.0931,-2.1712,0.072,2055
13,0.1433,1.3269,-0.5645,0.2091,-1.9941,0.0025,2063
13,0.1243,1.1689,-0.6323,0.1416,-1.8551,-0.0975,2058
13,0.2229,1.0044,-0.6689,0.0154,-1.6145,-0.1555,2045
13,0.3293,0.9148,-0.6409,-0.151,-1.4379,-0.1422,2040
13,0.2671,0.7773,-0.5818,-0.2433,-1.2163,-0.1013,2036
13,0.2461,0.7092,-0.573,-0.3145,-0.9278,-0.0298,2040
13,0.2664,0.6602,-0.5286,-0.188,-0.6554,0.1852,2047
13,0.2268,0.6104,-0.405,-0.1904,-0.4268,0.2041,2045
13,0.2131,0.5886,-0.3069,-0.0645,-0.2482,0.1964,2047
13,0.2058,0.5347,-0.2927,-0.0017,-0.1567,0.177,2052
13,0.1968,0.5471,-0.2661,0.0485,-0.0996,0.0835,2050
13,0.2075,0.4995,-0.2556,0.1136,-0.0174,0.1075,2049
13,0.2063,0.4546,-0.2173,0.114,0.069,0.1157,2051
13,0.2278,0.4153,-0.2405,0.1083,0.0551,0.1205,2048
13,0.2078,0.3523,-0.21,0.1008,-0.0292,0.1278,2040
13,0.2026,0.2932,-0.1963,0.0068,-0.102,0.1637,2043
13,0.1663,0.2659,-0.2029,-0.072,-0.1092,0.2262,2051
13,0.1477,0.2563,-0.229,-0.1321,-0.1241,0.285,2045
13,0.1375,0.2603,-0.2612,-0.173,-0.1128,0.3269,2047
13,0.1218,0.2593,-0.2954,-0.2108,-0.1288,0.3583,2044
13,0.1035,0.2651,-0.3408,-0.191,-0.1289,0.3943,2052
13,0.123,0.2571,-0.3506,-0.2396,-0.1683,0.4004,2036
13,0.1433,0.2798,-0.4026,-0.3255,-0.1642,0.4193,2055
13,0.1748,0.3369,-0.4578,-0.3942,-0.2452,0.4038,2046
13,0.1924,0.3679,-0.46,-0.4651,-0.3995,0.4016,2049
13,0.2041,0.3633,-0.4673,-0.5573,-0.5877,0.3895,2037
13,0.2178,0.3857,-0.4656,-0.6436,-0.807,0.3943,2043
13,0.2317,0.4297,-0.4731,-0.6353,-1.0993,0.3958,2040
13,0.2317,0.4429,-0.4602,-0.6433,-1.3624,0.3669,2036
13,0.2395,0.5078,-0.4412,-0.6572,-1.5166,0.3818,2045
13,0.2773,0.5518,-0.4148,-0.5942,-1.7326,0.4173,2046
13,0.2793,0.4966,-0.4175,-0.6293,-1.8666,0.3617,2046
13,0.2205,0.5679,-0.3582,-0.5858,-1.8318,0.2775,2037
13,0.1118,0.6772,-0.314,-0.5446,-1.5145,0.1418,2039
13,0.0205,0.8083,-0.3257,-0.4269,-1.2789,0.0816,2049
13,0.0037,0.8555,-0.353,-0.3669,-1.0738,0.0165,2041
13,-0.0022,1.0217,-0.3347,-0.3048,-0.4299,-0.0397,2048
13,-0.0518,1.073,-0.2441,-0.3449,0.2697,-0.3057,2034
13,0.012,1.0344,-0.1863,-0.3655,0.6027,-0.5051,2053
13,0.2502,1.0159,0.0127,-0.3143,0.8982,-0.7814,2058
13,0.3015,1.3743,0.1196,-0.0799,0.9923,-0.8807,2010
13,0.4736,1.5256,0.1279,-0.0141,1.0192,-0.8399,2035
13,0.5935,1.6274,0.1274,-0.1356,0.9841,-0.6514,2028
13,0.7407,1.6062,0.1621,-0.3185,0.5907,-0.548,2055
13,0.6135,1.6575,0.1638,-0.4928,-0.1108,-0.4267,2076
13,0.636,1.4866,0.1106,-0.7183,-0.5307,-0.2887,2047
13,0.6448,1.3994,0.1106,-0.7787,-0.7034,-0.1177,2068
13,0.6433,1.3586,0.0508,-0.7237,-0.7712,0.0667,2038
13,0.5383,1.3533,0.0337,-0.7489,-0.86,0.1274,2048
13,0.4348,1.3474,0.0547,-0.82,-0.9255,0.1301,2062
13,0.3677,1.3628,0.0305,-0.783,-1.0496,0.0882,2069
13,0.3242,1.3411,-0.0378,-0.6385,-1.1444,0.0297,2061
13,0.2781,1.2295,-0.0215,-0.5304,-1.0576,0.038,2053
13,0.2551,1.1565,-0.0796,-0.4241,-0.8859,0.1112,2040
13,0.1931,1.019,-0.092,-0.204,-0.6703,0.2189,2044
13,0.1758,0.9211,-0.1313,0.0836,-0.487,0.2752,2041
13,0.1145,0.8193,-0.1191,0.2935,-0.1691,0.2226,2034
13,0.1304,0.707,-0.187,0.3962,-0.0353,0.1663,2040
13,0.1458,0.5518,-0.1614,0.4039,0.1257,0.1442,2033
13,0.0994,0.5017,-0.1389,0.428,0.3986,0.0506,2042
13,0.1277,0.439,-0.1687,0.4055,0.5204,0.0265,2053
13,0.1541,0.3972,-0.1509,0.3908,0.5722,-0.0582,2044
13,0.1709,0.3616,-0.1379,0.3477,0.5164,-0.0811,2044
13,0.2036,0.3352,-0.135,0.283,0.4456,-0.1043,2045
13,0.1875,0.3179,-0.1182,0.2493,0.3931,-0.1661,2045
13,0.1956,0.27,-0.1128,0.2522,0.2618,-0.142,2040
13,0.1826,0.2634,-0.0996,0.2171,0.1302,-0.177,2053
13,0.1465,0.2617,-0.0923,0.2051,0.0851,-0.218,2045
13,0.1389,0.2515,-0.1414,0.2663,0.072,-0.2326,2053
13,0.0979,0.2268,-0.1572,0.3189,0.1109,-0.2796,2046
13,0.0266,0.1943,-0.1736,0.3793,0.1923,-0.2899,2040
13,0.0273,0.1785,-0.2175,0.3793,0.2338,-0.3309,2052
13,0.03,0.1963,-0.2478,0.3944,0.3243,-0.3538,2032
13,0.0042,0.2495,-0.2898,0.416,0.45,-0.3633,2049
13,-0.0215,0.2974,-0.3052,0.4366,0.5923,-0.4006,2041
13,-0.0149,0.3118,-0.3745,0.4127,0.7168,-0.4105,2048
13,0.0308,0.3784,-0.4041,0.4124,0.7618,-0.502,2030
13,0.0586,0.4268,-0.3611,0.4966,0.7996,-0.5094,2047
13,0.1213,0.3701,-0.3281,0.4468,0.4867,-0.4517,2028
13,0.2419,0.313,-0.3132,0.3935,0.1489,-0.377,2040
13,0.2261,0.3318,-0.2178,0.4638,-0.027,-0.3678,2045
13,0.2229,0.3723,-0.1833,0.504,-0.3225,-0.3558,2048
13,0.1477,0.3843,-0.1533,0.4677,-0.3851,-0.2397,2051
13,0.1501,0.4709,-0.2085,0.4248,-0.4353,-0.2562,2050
13,0.1638,0.5833,-0.1987,0.4883,-0.4765,-0.2131,2035
13,0.1077,0.6553,-0.1174,0.5948,-0.5601,-0.181,2037
14,0.1255,0.7734,-0.1025,0.6024,-0.6677,-0.2606,2040
14,0.0466,0.9446,-0.0933,0.6403,-0.6963,-0.3814,2053
14,-0.0134,1.1064,-0.0996,0.6722,-0.7289,-0.545,2041
14,-0.103,1.1924,-0.1221,0.7381,-0.5682,-0.6596,2039
14,-0.3464,1.2725,-0.0388,0.7139,-0.2573,-0.7528,2054
14,-0.3413,1.2922,0.0056,0.7359,-0.1328,-0.7343,2057
14,-0.3528,1.2996,0.1152,0.6417,0.0626,-0.6757,2031
14,-0.4966,1.5974,0.2285,0.1851,0.1033,-0.6996,2047
14,-0.1443,1.4038,0.085,0.8566,0.4478,-0.6578,1978
14,0.0112,1.7681,0.0427,0.7455,0.0341,-0.6157,2030
14,0.0364,1.8379,0.0601,0.4472,-0.494,-0.4875,2058
14,0.303,1.6931,-0.0305,0.2968,-0.9748,-0.4187,2052
14,0.2134,1.636,-0.0769,0.1455,-1.4222,-0.2128,2033
14,0.0696,1.6504,-0.0942,-0.0643,-1.8877,-0.0843,2052
14,0.1965,1.5505,-0.0862,-0.243,-1.9495,0.0153,2053
14,0.2009,1.5232,-0.1121,-0.1715,-2.0114,0.2333,2039
14,0.0874,1.5708,-0.2686,0.0234,-2.0513,0.3799,2055
14,0.0288,1.4785,-0.3591,0.1832,-1.8423,0.4144,2063
14,0.0383,1.386,-0.4434,0.216,-1.527,0.3346,2052
14,0.0645,1.3127,-0.4839,0.2191,-1.2784,0.288,2047
14,0.1077,1.2495,-0.5068,0.2055,-1.1082,0.277,2045
14,0.1274,1.1772,-0.509,0.1818,-0.9412,0.3524,2046
14,0.1223,1.1042,-0.4871,0.1634,-0.7444,0.435,2046
14,0.115,1.0024,-0.4868,0.19,-0.6161,0.5054,2049
14,0.1245,0.9023,-0.4817,0.2741,-0.4842,0.61,2045
14,0.0908,0.8181,-0.457,0.2553,-0.2754,0.6405,2050
14,0.1423,0.8127,-0.5024,0.5113,-0.0708,0.7196,2049
14,0.1042,0.7041,-0.4277,0.5641,0.1493,0.7067,2042
14,0.1724,0.6704,-0.3779,0.541,0.3384,0.6791,2043
14,0.229,0.6311,-0.3542,0.5987,0.4268,0.6099,2040
14,0.2402,0.5793,-0.3193,0.6252,0.4239,0.5699,2046
14,0.238,0.5117,-0.3025,0.6056,0.4361,0.5347,2047
14,0.2197,0.4949,-0.3037,0.5891,0.448,0.5393,2052
14,0.2004,0.4612,-0.3289,0.6067,0.4794,0.5321,2046
14,0.2068,0.377,-0.332,0.5842,0.5295,0.5639,2049
14,0.2036,0.3601,-0.363,0.5554,0.603,0.6096,2040
14,0.1621,0.3508,-0.3772,0.6047,0.5998,0.6253,2041
14,0.1526,0.301,-0.3943,0.6135,0.6524,0.6324,2051
14,0.1501,0.2554,-0.3899,0.5873,0.6707,0.6701,2040
14,0.0654,0.2288,-0.3511,0.4747,0.6399,0.7064,2051
14,-0.0391,0.2217,-0.3335,0.3306,0.6863,0.714,2054
14,-0.0674,0.2668,-0.3091,0.1459,0.9199,0.6806,2045
14,0.0037,0.3193,-0.3069,0.0225,1.1513,0.6562,2040
14,0.1143,0.3762,-0.3218,-0.0166,1.1646,0.6938,2037
14,0.3704,0.3367,-0.3364,-0.026,0.8395,0.7682,2022
14,0.4248,0.3591,-0.3608,-0.0073,0.4568,0.8989,2028
14,0.2944,0.4011,-0.3821,0.0759,0.0804,0.9927,2048
14,0.2561,0.3425,-0.4629,0.1258,-0.2257,0.9419,2062
14,0.0232,0.385,-0.333,0.065,-0.4662,0.876,2056
14,-0.0928,0.4712,-0.3684,0.0479,-0.3482,0.7295,2073
14,0.0237,0.5986,-0.3877,-0.0076,-0.1031,0.8082,2038
14,0.3169,0.4736,-0.3674,-0.188,-0.495,0.7962,2037
14,0.281,0.4836,-0.3633,-0.3095,-0.7321,0.7432,2022
14,0.2185,0.5132,-0.3743,-0.2984,-0.9071,0.7297,2049
14,0.1694,0.49,-0.4355,-0.2257,-1.027,0.6988,2055
14,0.1455,0.4629,-0.46,-0.18,-1.0859,0.655,2041
14,0.1487,0.5378,-0.4563,-0.1451,-1.1511,0.5702,2051
14,0.1953,0.6987,-0.4729,-0.1583,-1.167,0.441,2054
14,0.2495,0.8835,-0.5061,-0.1723,-1.1757,0.3155,2033
14,0.2532,1.0337,-0.4924,-0.2372,-1.1322,0.1526,2058
14,0.1646,1.1272,-0.4912,-0.2165,-1.026,-0.1031,2052
14,0.1531,1.1802,-0.4333,-0.1915,-0.867,-0.3642,2049
14,0.2239,1.2822,-0.3489,-0.3272,-0.7853,-0.5653,2044
14,0.3687,1.5081,-0.3071,-0.4566,-0.7171,-0.7865,2040
14,0.3633,1.6804,-0.3494,-0.5502,-0.5433,-1.0275,2032
14,0.3608,1.781,-0.1655,-0.3577,-0.1049,-1.2531,2059
14,0.5967,1.6333,0.0662,-0.5203,0.2758,-1.4235,2046
14,0.6477,1.3616,0.0811,-0.4538,0.2788,-1.2584,2035
14,0.6577,1.2439,0.1733,-0.6056,0.4264,-1.1702,2030
14,0.8694,1.2944,0.1475,-0.4618,0.2979,-0.8202,2029
14,0.9543,1.5303,0.1697,-0.388,-0.0979,-0.493,2017
14,0.6511,1.5662,0.05,-0.2023,-0.2995,-0.3184,2057
14,0.6296,1.4504,-0.0933,-0.1794,-0.3706,-0.1658,2104
14,0.6697,1.3386,-0.0964,-0.2984,-0.2404,0.1069,2057
14,0.6956,1.2463,-0.0178,-0.3875,-0.2565,0.1788,2049
14,0.6926,1.0989,0.0024,-0.4044,-0.2491,0.2452,2052
14,0.6938,0.9807,-0.054,-0.2944,-0.298,0.2733,2053
14,0.6294,0.874,-0.1526,-0.1374,-0.4085,0.3233,2051
14,0.1479,0.7861,-0.1133,-0.1312,-0.0643,0.1723,2057
14,-0.2305,0.8562,-0.177,-0.1903,0.3998,-0.0095,2084
14,-0.0178,0.7095,-0.3086,-0.187,0.6241,-0.1015,2066
14,0.1726,0.5503,-0.2241,-0.085,0.7694,-0.0605,2017
14,0.1069,0.4846,-0.156,-0.187,1.0633,-0.1015,2027
14,0.1313,0.4656,-0.2415,-0.1449,1.0172,-0.1374,2037
14,0.0881,0.4048,-0.2471,-0.142,1.1207,-0.1674,2041
14,0.0684,0.3586,-0.2502,-0.229,1.0879,-0.2304,2042
14,0.1118,0.3284,-0.2693,-0.1915,0.873,-0.2157,2046
14,0.0867,0.29,-0.2336,-0.1716,0.7104,-0.208,2044
14,0.0845,0.2847,-0.2039,-0.1562,0.4844,-0.1995,2046
14,0.0708,0.2786,-0.1794,-0.1863,0.2436,-0.2191,2046
14,0.0701,0.2949,-0.157,-0.1677,0.0904,-0.2464,2039
14,0.0486,0.3237,-0.1306,-0.1408,-0.0366,-0.3124,2053
14,0.0242,0.3318,-0.1187,-0.1128,-0.1437,-0.3778,2054
14,0.0229,0.3416,-0.1167,-0.0896,-0.2163,-0.4221,2046
14,0.0107,0.3601,-0.1157,-0.0691,-0.2737,-0.4717,2045
14,0.0083,0.3882,-0.1208,-0.057,-0.3003,-0.5048,2057
14,0.0542,0.376,-0.1377,-0.0627,-0.3409,-0.5289,2045
14,0.0503,0.4106,-0.1353,0.0178,-0.3777,-0.5944,2043
14,0.0291,0.4485,-0.1536,0.0145,-0.4129,-0.6484,2053
14,0.1025,0.415,-0.2029,-0.0096,-0.465,-0.6807,2045
14,0.0986,0.48,-0.2073,0.0483,-0.3823,-0.7356,2041
14,0.0745,0.5183,-0.1621,0.0699,-0.5042,-0.7451,2043
14,0.2451,0.4771,-0.2361,-0.181,-0.77,-0.7562,2048
15,0.3293,0.5576,-0.1711,-0.0224,-0.9195,-0.7241,2022
15,0.1404,0.5781,0.0144,0.2442,-0.6638,-0.6873,2037
15,0.1755,0.4861,-0.0464,0.1582,-1.0127,-0.6279,2058
15,0.283,0.4495,-0.1301,0.1924,-1.2007,-0.5709,2038
15,0.1133,0.5249,-0.0161,0.3998,-0.9027,-0.4595,2022
15,0.1594,0.5342,-0.0657,0.3982,-1.1567,-0.3043,2037
15,0.1069,0.5632,-0.1052,0.5862,-0.9702,-0.242,2042
15,0.2815,0.5562,-0.2363,0.505,-1.0966,-0.2007,2034
15,0.1401,0.645,-0.1042,0.5612,-0.7164,-0.1261,2033
15,0.3923,0.5728,-0.2749,0.3298,-1.2629,-0.0678,2062
15,0.2085,0.6919,-0.1008,0.4707,-1.065,-0.1436,2015
15,0.1768,0.7805,-0.1116,0.4184,-1.1644,-0.1695,2059
15,0.2236,0.793,-0.1748,0.3587,-1.5699,-0.3149,2056
15,0.0396,0.9292,-0.0901,0.4011,-1.5382,-0.475,2052
15,-0.033,0.9641,-0.0969,0.3982,-1.5886,-0.5271,2073
15,-0.0735,0.9941,-0.0488,0.3839,-1.4335,-0.644,2038
15,-0.1155,1.0481,-0.0938,0.3433,-1.5673,-0.7341,2050
15,-0.1619,1.1709,-0.0312,0.3168,-1.3351,-0.8862,2047
15,-0.1199,1.3884,-0.0298,0.2884,-1.0732,-1.0593,2046
15,-0.1265,1.5042,-0.1392,0.443,-1.4206,-0.8196,2034
15,-0.2417,1.719,-0.167,0.495,-1.6452,-0.5323,2034
15,0.1833,1.8267,-0.229,0.244,-1.3272,-0.8096,2060
15,0.1218,1.4888,-0.1169,0.2795,-1.9855,-0.1458,2029
15,0.2529,1.5737,-0.1077,0.2242,-2.3336,-0.4887,2068
15,-0.0676,1.3381,0.0405,0.0696,-2.5578,-0.2518,2013
15,0.0134,1.2412,-0.01,0.1228,-2.8767,-0.1105,2054
15,0.0933,1.2764,-0.2034,0.1927,-2.9369,0.1028,2053
15,0.1711,1.3579,-0.3047,0.1935,-2.734,0.4388,2056
15,0.1504,1.3655,-0.4019,0.1768,-2.4478,0.6645,2056
15,0.1667,1.3074,-0.4512,0.1081,-2.0751,0.5857,2050
15,0.0994,1.2278,-0.4541,0.1163,-1.613,0.5241,2044
15,0.1667,1.0503,-0.5364,0.082,-1.4253,0.5,2054
15,0.0552,1.0896,-0.4775,0.0356,-0.9982,0.4023,2032
15,0.1069,0.9727,-0.5063,-0.0099,-0.8654,0.4293,2046
15,0.1284,0.8499,-0.446,-0.0402,-0.5444,0.4822,2056
15,0.063,0.8354,-0.3848,0.0036,-0.1511,0.5359,2045
15,0.0269,0.7837,-0.3452,0.0772,0.0694,0.6504,2056
15,0.0247,0.718,-0.3203,0.1597,0.2932,0.7661,2050
15,0.019,0.658,-0.3093,0.2228,0.504,0.8971,2052
15,0.0063,0.6431,-0.3049,0.2698,0.705,0.9509,2048
15,0.0176,0.6257,-0.3083,0.3167,0.7702,0.9943,2044
15,0.062,0.6003,-0.2942,0.3394,0.7833,1.0503,2057
15,0.0903,0.5911,-0.323,0.35,0.8363,1.0059,2050
15,0.1184,0.5977,-0.3389,0.4357,0.859,0.8898,2044
15,0.1548,0.563,-0.3489,0.5522,0.8544,0.7839,2049
15,0.1738,0.5203,-0.3423,0.6476,0.7938,0.6335,2046
15,0.1846,0.4849,-0.3845,0.6881,0.7074,0.4498,2034
15,0.229,0.4163,-0.3743,0.7158,0.7281,0.4717,2037
15,0.2454,0.3606,-0.3999,0.7606,0.6297,0.5038,2037
15,0.2219,0.3362,-0.4346,0.6914,0.4008,0.4976,2042
15,0.1973,0.3491,-0.4302,0.6843,0.3035,0.5392,2044
15,0.144,0.3701,-0.4214,0.622,0.2499,0.5253,2046
15,0.2102,0.3833,-0.4619,0.5469,0.1751,0.4743,2046
15,0.2046,0.4031,-0.4893,0.4758,0.0439,0.4136,2048
15,0.1736,0.5115,-0.4854,0.4805,-0.021,0.385,2036
15,0.1948,0.5344,-0.4485,0.4835,-0.068,0.3203,2041
15,0.0962,0.5938,-0.4771,0.4374,-0.1993,0.3332,2039
15,0.1035,0.5796,-0.3906,0.4248,0.0546,0.185,2043
15,0.2107,0.4868,-0.2029,0.1641,0.0309,0.1756,2036
15,0.2678,0.5122,-0.1885,-0.0137,-0.1836,0.1286,2052
15,0.3494,0.5198,-0.1145,-0.1724,-0.4115,0.1302,2042
15,0.3142,0.6279,-0.1204,-0.286,-0.8308,0.1374,2045
15,0.2937,0.6768,-0.3457,-0.3318,-1.2697,0.2167,2050
15,0.2627,0.6602,-0.4724,-0.2341,-1.3603,0.2637,2057
15,0.2253,0.646,-0.5061,-0.1148,-1.2796,0.2565,2057
15,0.2229,0.5852,-0.5361,-0.1638,-1.1529,0.2764,2047
15,0.2656,0.5376,-0.5208,-0.2127,-0.9242,0.2721,2051
15,0.3,0.5063,-0.4602,-0.2944,-0.7376,0.2625,2043
15,0.2827,0.5215,-0.4023,-0.3685,-0.6288,0.2546,2047
15,0.3052,0.6147,-0.4448,-0.4646,-0.6498,0.2413,2046
15,0.3896,0.8555,-0.5278,-0.5801,-0.7458,0.1947,2039
15,0.4048,1.1157,-0.5642,-0.6003,-0.5517,0.1236,2046
15,0.2798,1.2236,-0.5208,-0.6187,-0.2051,-0.0442,2048
15,0.2009,1.4175,-0.3689,-0.5988,-0.0395,-0.3553,2048
15,0.1179,1.7083,-0.2744,-0.6829,0.1422,-0.7973,2037
15,0.1245,1.7585,-0.1897,-0.558,0.4501,-1.0744,2019
15,0.2957,1.5381,0.0513,-0.3524,0.9688,-0.9927,2036
15,0.2815,1.3916,0.3379,-0.5027,1.2215,-1.0095,2041
15,0.2747,1.4392,0.3621,-0.3324,1.0042,-0.7992,2055
15,0.4126,1.3547,0.385,-0.3179,0.5888,-0.4428,2075
15,0.5657,1.4314,0.3276,-0.4646,0.1326,-0.1511,2073
15,0.627,1.5278,0.2556,-0.4565,-0.3049,0.1561,2057
15,0.5598,1.5618,0.2649,-0.3614,-0.7745,0.4163,2062
15,0.5281,1.4958,0.1863,-0.3446,-1.1874,0.6126,2067
15,0.3738,1.4558,0.1692,-0.2714,-1.4857,0.7458,2063
15,0.2727,1.3921,0.1086,-0.1294,-1.6953,0.7256,2064
15,0.2151,1.1775,0.0854,-0.0305,-1.9309,0.7182,2054
15,0.1763,1.0237,0.0024,0.0479,-1.7899,0.6091,2049
15,0.1943,0.9377,-0.0769,0.0784,-1.8145,0.5572,2039
15,0.1819,0.8992,-0.1589,0.1844,-1.8892,0.4894,2034
15,0.1587,0.8276,-0.2012,0.2938,-1.8711,0.4665,2041
15,0.1162,0.7109,-0.2095,0.3077,-1.8129,0.4639,2040
15,0.0854,0.5959,-0.2493,0.2256,-1.7016,0.4075,2042
15,0.062,0.5088,-0.2419,0.206,-1.551,0.3413,2048
15,0.051,0.4651,-0.2139,0.1242,-1.3683,0.2177,2037
15,0.0654,0.4346,-0.1968,0.065,-1.2086,0.1192,2038
15,0.0854,0.4087,-0.1824,0.0791,-1.0808,0.0549,2039
15,0.1194,0.395,-0.177,0.0858,-0.9983,-0.026,2042
15,0.1638,0.3611,-0.1567,0.0932,-0.9724,-0.0876,2025
15,0.1667,0.3489,-0.1487,0.0123,-0.9087,-0.1192,2051
15,0.1968,0.3311,-0.167,-0.0378,-0.899,-0.1776,2064
15,0.251,0.3091,-0.1765,-0.0739,-0.9397,-0.1987,2038
16,0.2776,0.312,-0.1887,-0.1365,-1.0083,-0.2119,2041
16,0.2788,0.3296,-0.21,-0.2121,-1.0725,-0.2187,2044
16,0.2366,0.3696,-0.2361,-0.2778,-1.1234,-0.242,2049
16,0.2207,0.4265,-0.26,-0.2916,-1.2049,-0.2947,2044
16,0.1746,0.4788,-0.2805,-0.2814,-1.2121,-0.3107,2046
16,0.1558,0.5239,-0.2952,-0.2922,-1.1901,-0.3781,2050
16,0.1606,0.5791,-0.3223,-0.2782,-1.2231,-0.4304,2048
16,0.1284,0.635,-0.3103,-0.2507,-1.1963,-0.4685,2039
16,0.1021,0.6643,-0.3083,-0.2068,-1.1745,-0.5096,2046
16,0.1021,0.6702,-0.2876,-0.1244,-1.1717,-0.5331,2044
16,0.1226,0.6702,-0.2773,-0.0091,-1.223,-0.5548,2031
16,0.1946,0.644,-0.2427,0.0799,-1.2948,-0.5508,2047
16,0.2798,0.6462,-0.2058,0.0376,-1.4001,-0.5646,2042
16,0.3025,0.7124,-0.2144,0.03,-1.4922,-0.5429,2052
16,0.2947,0.7983,-0.1958,0.0494,-1.5657,-0.5044,2055
16,0.2852,0.8977,-0.1904,0.0963,-1.6277,-0.4896,2041
16,0.2891,1.0281,-0.2156,0.1149,-1.7379,-0.5026,2052
16,0.2954,1.241,-0.3,0.2226,-2.0947,-0.5247,2031
16,0.1519,1.2883,-0.3064,0.2557,-2.1758,-0.4927,2048
16,0.0715,1.2214,-0.2852,0.2176,-2.0756,-0.4564,2051
16,0.0881,1.0508,-0.2236,0.0149,-1.9844,-0.5669,2054
16,0.1204,1.0713,-0.1709,-0.0651,-1.9494,-0.6317,2033
16,0.1458,1.0942,-0.0964,0.0846,-1.9193,-0.6686,2030
16,0.2026,0.988,-0.0613,0.292,-1.8535,-0.605,2028
16,0.1606,0.9385,-0.0491,0.4669,-1.8017,-0.5221,2066
16,0.0864,0.95,-0.0935,0.5723,-1.698,-0.4112,2051
16,0.1199,0.9797,-0.1702,0.6096,-1.4648,-0.2609,2057
16,0.1565,1.0,-0.1665,0.6132,-1.2168,-0.1348,2041
16,0.1304,1.0188,-0.2048,0.4643,-1.0194,-0.0301,2045
16,0.1001,1.0574,-0.248,0.3504,-0.8813,0.0527,2046
16,0.1055,1.0493,-0.2703,0.2137,-0.8304,0.0895,2044
16,0.1301,1.033,-0.2754,0.1017,-0.7662,0.0527,2032
16,0.0659,1.0127,-0.262,0.0714,-0.6934,0.0602,2054
16,0.0437,0.9839,-0.2058,0.0222,-0.6925,0.0688,2043
16,0.061,0.9756,-0.1733,-0.0313,-0.6356,0.091,2046
16,0.1091,0.9634,-0.1599,-0.0049,-0.6421,0.1674,2045
16,0.0876,0.9443,-0.1331,0.012,-0.702,0.2453,2047
16,0.082,0.9172,-0.1382,0.02,-0.7909,0.3124,2044
16,0.063,0.9246,-0.1455,0.0284,-0.8573,0.3826,2053
16,0.0364,0.9238,-0.178,0.0534,-0.9122,0.4578,2052
16,0.0142,0.9268,-0.2,0.0792,-0.9512,0.5372,2051
16,-0.022,0.9158,-0.2195,0.1001,-1.0014,0.5894,2048
16,-0.0503,0.8721,-0.2239,0.1449,-1.0018,0.6225,2049
16,-0.0828,0.8479,-0.2378,0.1926,-1.024,0.5729,2048
16,-0.0811,0.8037,-0.251,0.2776,-1.0527,0.5193,2046
16,-0.0752,0.7563,-0.2595,0.2864,-1.0519,0.4574,2043
16,-0.0771,0.7122,-0.2786,0.2735,-1.0451,0.3964,2047
16,-0.0769,0.7,-0.3042,0.2276,-1.072,0.3357,2053
16,-0.0354,0.6716,-0.3176,0.1326,-1.0828,0.267,2045
16,0.0042,0.6616,-0.354,0.0748,-1.1134,0.2215,2054
16,0.071,0.667,-0.3882,0.0248,-1.2007,0.1715,2044
16,0.1228,0.6562,-0.4121,-0.0213,-1.2677,0.131,2041
16,0.1401,0.6123,-0.446,-0.1027,-1.4287,0.1123,2046
16,0.0984,0.6755,-0.5151,-0.0874,-1.3647,0.055,2037
16,0.1047,0.6582,-0.4724,-0.1221,-1.3854,0.0065,2047
16,0.0935,0.6865,-0.4563,-0.1787,-1.3528,-0.0543,2042
16,0.1138,0.7051,-0.4758,-0.2203,-1.3248,-0.0971,2045
16,0.1477,0.7302,-0.46,-0.2434,-1.28,-0.1498,2052
16,0.1714,0.7314,-0.3992,-0.2856,-1.2061,-0.1969,2045
16,0.2061,0.7527,-0.3625,-0.2995,-1.1942,-0.2665,2038
16,0.2261,0.7573,-0.3455,-0.2946,-1.2431,-0.2876,2042
16,0.2368,0.738,-0.3037,-0.3324,-1.3018,-0.2843,2052
16,0.2493,0.7625,-0.3025,-0.3835,-1.3964,-0.2707,2038
16,0.2515,0.7859,-0.3291,-0.4212,-1.4885,-0.2457,2043
16,0.2434,0.7905,-0.3459,-0.4689,-1.5424,-0.1858,2045
16,0.2324,0.7927,-0.3889,-0.5363,-1.5608,-0.1477,2046
16,0.2307,0.7966,-0.4243,-0.5743,-1.5577,-0.1201,2050
16,0.248,0.7983,-0.4409,-0.5926,-1.4976,-0.1175,2053
16,0.2427,0.803,-0.4438,-0.6142,-1.4241,-0.1063,2045
16,0.2368,0.7957,-0.4619,-0.6336,-1.3364,-0.1061,2049
16,0.2507,0.7952,-0.4302,-0.6401,-1.2292,-0.0803,2060
16,0.2529,0.7866,-0.4192,-0.6303,-1.1098,-0.0358,2049
16,0.2456,0.7676,-0.3921,-0.6424,-1.0244,-0.0029,2047
16,0.2305,0.7715,-0.4163,-0.6557,-0.9809,0.0381,2055
16,0.2297,0.7715,-0.4348,-0.6534,-0.9028,0.1025,2049
16,0.2358,0.79,-0.4341,-0.6268,-0.8352,0.1487,2043
16,0.2415,0.7859,-0.4253,-0.6201,-0.7994,0.1871,2054
16,0.2422,0.801,-0.4355,-0.5863,-0.7857,0.2212,2050
16,0.2576,0.8018,-0.4287,-0.571,-0.8106,0.2499,2038
16,0.2439,0.7961,-0.4038,-0.5807,-0.8858,0.2425,2045
16,0.2344,0.7769,-0.3684,-0.5786,-0.928,0.2938,2045
16,0.2256,0.8037,-0.3757,-0.552,-0.9867,0.2956,2042
16,0.2053,0.8838,-0.3713,-0.5139,-1.0248,0.2983,2048
16,0.2363,0.9819,-0.3562,-0.4309,-0.9877,0.3188,2039
16,0.1926,1.0962,-0.3174,-0.3682,-0.8789,0.2545,2051
16,0.178,1.1255,-0.2527,-0.3221,-0.7528,0.1621,2042
16,0.1433,1.2078,-0.1582,-0.2027,-0.6369,0.0637,2022
16,0.0923,1.2969,-0.083,-0.2377,-0.6373,0.0342,2041
16,0.0647,1.3687,-0.0371,-0.2288,-0.5193,0.0127,2040
16,-0.0085,1.2571,-0.0112,-0.2276,-0.3115,0.0602,2050
16,-0.0444,1.1284,0.0491,-0.1759,-0.1127,0.131,2050
16,-0.0906,0.9768,0.074,-0.2013,-0.1341,0.2317,2049
16,-0.1206,0.9336,0.0645,-0.1537,-0.0509,0.3151,2052
16,-0.103,0.8674,0.0459,-0.1919,0.0659,0.4397,2064
16,-0.0825,0.9138,0.054,-0.1734,0.1147,0.5432,2043
16,0.0061,0.77,0.114,-0.2007,0.1345,0.7245,2059
16,0.0596,0.8281,0.1335,-0.1143,-0.0439,0.7859,2048
16,0.1926,0.7319,0.1831,-0.0529,-0.2643,0.8135,2044
16,0.2048,0.7485,0.1692,-0.0013,-0.514,0.77,2044
16,0.179,0.7725,0.1562,0.0157,-0.9411,0.6273,2059
16,0.2104,0.6655,0.0947,-0.0218,-1.4291,0.6082,2057
17,0.228,0.6848,0.0466,-0.12,-1.7677,0.6064,2036
17,0.2002,0.6699,0.0139,-0.2041,-1.9539,0.6375,2047
17,0.197,0.6328,-0.0708,-0.3016,-2.1675,0.6433,2045
17,0.1509,0.6553,-0.1382,-0.373,-2.2301,0.6,2051
17,0.0,0.6636,-0.1846,-0.3814,-2.2362,0.536,2041
17,-0.0347,0.7041,-0.2495,-0.44,-2.1654,0.4016,2039
17,-0.1101,0.707,-0.2122,-0.4868,-1.8152,0.2555,2050
17,-0.1128,0.6902,-0.2043,-0.4974,-1.3256,0.1361,2044
17,-0.0022,0.6926,-0.1997,-0.4698,-1.262,-0.0004,2036
17,0.1116,0.6628,-0.1743,-0.41,-1.2613,-0.0751,2036
17,0.2307,0.6094,-0.1138,-0.4205,-1.3322,-0.0585,2036
17,0.2622,0.606,-0.114,-0.3862,-1.3569,-0.0438,2037
17,0.2112,0.575,-0.1104,-0.388,-1.3744,-0.0345,2045
17,0.2205,0.5762,-0.1169,-0.3622,-1.4308,-0.0409,2048
17,0.2046,0.5806,-0.1177,-0.3518,-1.4362,-0.0684,2046
17,0.2168,0.5679,-0.1104,-0.3462,-1.4438,-0.1045,2050
17,0.2163,0.5698,-0.0952,-0.3374,-1.4522,-0.1414,2045
17,0.2034,0.5969,-0.0613,-0.383,-1.501,-0.1896,2047
17,0.2271,0.615,-0.0676,-0.4208,-1.576,-0.2254,2038
17,0.1958,0.6453,-0.0337,-0.4054,-1.5538,-0.2549,2041
17,0.2007,0.658,-0.0198,-0.432,-1.6052,-0.2729,2048
17,0.2158,0.6882,0.0027,-0.4952,-1.6363,-0.3089,2041
17,0.2354,0.7041,0.0022,-0.4943,-1.6165,-0.3368,2044
17,0.2446,0.7136,0.009,-0.4844,-1.6147,-0.3484,2045
17,0.2703,0.7209,-0.0322,-0.4626,-1.6756,-0.3278,2043
17,0.2952,0.7119,-0.074,-0.382,-1.7211,-0.3012,2047
17,0.2712,0.7026,-0.1104,-0.2895,-1.6751,-0.2816,2058
17,0.2732,0.678,-0.1343,-0.2312,-1.6347,-0.2661,2045
17,0.2583,0.6646,-0.1675,-0.1538,-1.5684,-0.2786,2051
17,0.2468,0.6672,-0.2175,-0.0928,-1.5086,-0.3268,2054
17,0.304,0.678,-0.2305,0.0032,-1.4873,-0.3425,2046
17,0.3408,0.6904,-0.2273,0.0972,-1.4882,-0.3127,2039
17,0.3147,0.6973,-0.2493,0.1635,-1.4672,-0.3093,2050
17,0.2993,0.6719,-0.2671,0.2473,-1.4717,-0.3129,2047
17,0.2988,0.6655,-0.2715,0.3128,-1.4474,-0.3294,2039
17,0.3088,0.6365,-0.2495,0.3274,-1.4211,-0.3516,2045
17,0.3181,0.6265,-0.2327,0.3201,-1.3838,-0.3663,2041
17,0.3298,0.636,-0.2358,0.3251,-1.3555,-0.3629,2033
17,0.3518,0.6426,-0.2288,0.3368,-1.328,-0.348,2046
17,0.363,0.6455,-0.2197,0.3488,-1.3026,-0.3163,2042
17,0.374,0.6514,-0.2168,0.3601,-1.2809,-0.2774,2051
17,0.3774,0.6492,-0.2361,0.3682,-1.271,-0.2373,2041
17,0.3845,0.6501,-0.2405,0.3765,-1.26,-0.2029,2042
17,0.3999,0.6458,-0.2544,0.3864,-1.2687,-0.1718,2050
17,0.3813,0.6301,-0.2634,0.3975,-1.2471,-0.1441,2047
17,0.3784,0.626,-0.2729,0.4187,-1.2382,-0.1087,2044
17,0.3584,0.6184,-0.2793,0.4151,-1.2613,-0.0804,2038
17,0.3652,0.6287,-0.2664,0.3839,-1.2816,-0.0735,2054
17,0.3447,0.6279,-0.3003,0.3462,-1.2813,-0.1099,2046
17,0.345,0.6853,-0.3064,0.299,-1.2985,-0.1844,2052
17,0.3376,0.7661,-0.3093,0.2133,-1.3067,-0.2903,2043
17,0.3096,0.8757,-0.3303,0.1723,-1.3451,-0.3662,2051
17,0.2583,0.9404,-0.2974,0.1064,-1.3183,-0.4733,2017
17,0.2061,0.9622,-0.2959,0.0691,-1.2154,-0.5694,2037
17,0.1091,1.0203,-0.2065,0.0406,-1.1043,-0.6976,2044
17,0.0491,1.0242,-0.1355,0.123,-1.0491,-0.7299,2028
17,0.0854,1.1814,-0.1587,0.2876,-0.9216,-0.7447,2039
17,0.0503,1.0833,-0.0959,0.3654,-0.6476,-0.71,2038
17,0.083,1.0637,-0.0354,0.3954,-0.7094,-0.7203,2052
17,0.1067,1.0393,0.043,0.3248,-0.8986,-0.8064,2052
17,0.2068,1.2561,0.0398,0.2629,-1.0906,-0.7014,2031
17,0.2061,1.1875,0.0806,0.1931,-1.3202,-0.5777,2054
17,0.1445,1.0767,0.0957,0.1404,-1.5324,-0.4895,2046
17,0.0537,1.0784,0.0776,0.1598,-1.6792,-0.4595,2053
17,-0.0818,0.9143,0.1028,0.1212,-1.6558,-0.3846,2059
17,-0.1448,0.813,0.0339,-0.0229,-1.4953,-0.3301,2056
17,-0.1062,0.9072,-0.0774,0.0121,-1.3314,-0.1988,2052
17,-0.135,0.8342,-0.0708,0.0365,-1.1543,-0.1268,2053
17,-0.1096,0.8179,-0.1526,-0.023,-0.9925,-0.0481,2035
17,-0.1028,0.8638,-0.2539,0.0009,-0.8819,-0.067,2046
17,-0.1111,0.9043,-0.2749,-0.0435,-0.7512,-0.0668,2037
17,-0.1113,0.9622,-0.3445,-0.0755,-0.716,-0.1052,2044
17,-0.1013,0.9485,-0.3728,-0.0457,-0.6805,-0.1378,2039
17,-0.0889,0.9783,-0.3818,-0.0659,-0.6871,-0.1934,2044
17,-0.0486,0.9888,-0.3716,-0.0316,-0.7751,-0.2441,2030
17,-0.0393,0.98,-0.3201,0.0137,-0.8099,-0.2605,2038
17,-0.0334,0.9529,-0.2334,0.0928,-0.7929,-0.2196,2035
17,-0.0134,0.9011,-0.1787,0.1233,-0.7389,-0.1716,2042
17,-0.0115,0.8887,-0.1106,0.1727,-0.6675,-0.1256,2045
17,0.0144,0.8765,-0.0967,0.1726,-0.6363,-0.0676,2046
17,0.0354,0.8408,-0.0901,0.1597,-0.6705,-0.0162,2057
17,0.012,0.8337,-0.0959,0.1527,-0.7241,0.0218,2055
17,0.0166,0.8176,-0.1091,0.1595,-0.7947,0.074,2067
17,0.0571,0.801,-0.1599,0.1553,-0.9461,0.1466,2050
17,0.1389,0.7695,-0.1963,0.1748,-1.1376,0.2458,2041
17,0.1255,0.7791,-0.2314,0.163,-1.3098,0.3406,2046
17,0.0483,0.8147,-0.2625,0.2213,-1.3757,0.4048,2051
17,0.012,0.8018,-0.3088,0.242,-1.3914,0.3942,2056
17,0.0061,0.7944,-0.3125,0.2783,-1.3746,0.3591,2041
17,-0.0012,0.7588,-0.3259,0.2804,-1.2949,0.344,2043
17,-0.0442,0.7046,-0.3013,0.2563,-1.1585,0.2923,2042
17,0.0671,0.7632,-0.4075,0.2426,-0.9674,0.3393,2046
17,0.0356,0.7188,-0.3755,0.3368,-0.8247,0.3448,2039
17,0.0122,0.7173,-0.3623,0.2446,-0.797,0.2533,2039
17,0.043,0.6885,-0.3467,0.2613,-0.7135,0.2285,2040
17,0.0859,0.6892,-0.3489,0.2594,-0.6909,0.2172,2045
17,0.1216,0.687,-0.332,0.2746,-0.6445,0.235,2040
17,0.1096,0.678,-0.3013,0.2735,-0.6205,0.2507,2049
17,0.0969,0.6902,-0.3132,0.2482,-0.6087,0.2594,2045
17,0.0735,0.7097,-0.3096,0.2398,-0.5681,0.2452,2035
17,0.0613,0.7439,-0.3032,0.2437,-0.5669,0.2498,2051
17,0.1172,0.7483,-0.3264,0.218,-0.5554,0.2444,2048
18,0.1106,0.7615,-0.3188,0.2075,-0.5376,0.2328,2048
18,0.1091,0.7522,-0.3259,0.1681,-0.5706,0.2234,2043
18,0.1172,0.7908,-0.3381,0.1671,-0.5777,0.2332,2046
18,0.093,0.7825,-0.3247,0.1261,-0.5441,0.2096,2051
18,0.0796,0.77,-0.3445,0.1257,-0.4561,0.2345,2054
18,0.092,0.7112,-0.3074,0.0923,-0.4034,0.2491,2040
18,0.105,0.6914,-0.2937,0.0878,-0.395,0.2622,2041
18,0.1223,0.6641,-0.2805,0.1056,-0.3746,0.2823,2043
18,0.1453,0.6484,-0.2573,0.0976,-0.4002,0.3088,2050
18,0.1724,0.6477,-0.2703,0.1089,-0.4416,0.337,2031
18,0.1672,0.6387,-0.2861,0.1194,-0.4434,0.3561,2046
18,0.1682,0.6367,-0.301,0.1438,-0.4342,0.361,2040
18,0.1653,0.6282,-0.3184,0.1566,-0.4038,0.3524,2053
18,0.1631,0.6086,-0.3516,0.1463,-0.401,0.3671,2039
18,0.1724,0.5857,-0.3525,0.1551,-0.4121,0.3899,2049
18,0.1594,0.5693,-0.3845,0.1051,-0.3836,0.4107,2055
18,0.1565,0.5571,-0.3999,0.0839,-0.3461,0.4377,2043
18,0.1382,0.5168,-0.4004,0.0668,-0.3317,0.4586,2038
18,0.1453,0.5029,-0.4004,0.0659,-0.3245,0.4943,2048
18,0.1545,0.502,-0.3843,0.0449,-0.3365,0.5406,2047
18,0.1738,0.5151,-0.3674,-0.0353,-0.3619,0.5509,2037
18,0.1985,0.5576,-0.3696,-0.0902,-0.4482,0.5307,2040
18,0.2158,0.6187,-0.3784,-0.1217,-0.5324,0.5113,2053
18,0.2349,0.6516,-0.4131,-0.1306,-0.6095,0.4822,2045
18,0.2095,0.6802,-0.4412,-0.1294,-0.6873,0.4317,2052
18,0.1902,0.677,-0.4653,-0.1061,-0.7553,0.4161,2054
18,0.1736,0.6482,-0.4531,-0.1192,-0.7562,0.4113,2044
18,0.1548,0.6162,-0.447,-0.1304,-0.7542,0.3899,2059
18,0.1323,0.5754,-0.4121,-0.0973,-0.7456,0.402,2036
18,0.095,0.5779,-0.3171,-0.1069,-0.6458,0.4187,2036
18,0.0842,0.6003,-0.2932,-0.0976,-0.5457,0.4385,2042
18,0.1357,0.6096,-0.2583,-0.1119,-0.3731,0.4502,2048
18,0.1265,0.6741,-0.24,-0.0882,-0.3071,0.4061,2042
18,0.1104,0.6807,-0.2698,-0.1712,-0.1916,0.3713,2053
18,0.1455,0.7505,-0.3022,-0.1716,-0.0208,0.3858,2019
18,0.1763,0.7661,-0.2688,-0.2115,0.1091,0.4227,2052
18,0.1897,0.8044,-0.1641,-0.2783,0.2381,0.4698,2053
18,0.1301,0.9148,-0.0603,-0.2719,0.4361,0.4673,2038
18,0.1936,1.0896,-0.0459,-0.233,0.4841,0.4426,2036
18,0.3787,1.3228,-0.1033,-0.1752,0.5086,0.3512,2036
18,0.5864,1.5598,-0.0522,-0.1912,0.5526,0.1751,2028
18,0.5044,1.7017,-0.0449,-0.1157,0.8003,-0.0747,2035
18,0.5515,1.7366,0.1301,-0.0025,0.9459,-0.2324,2041
18,0.395,1.5232,0.1235,-0.1888,0.8714,-0.2772,2058
18,0.4331,1.3916,0.0386,-0.4457,0.3002,-0.1258,2057
18,0.4539,1.3586,0.0469,-0.445,0.0378,-0.0268,2052
18,0.3557,1.3992,0.0002,-0.3506,0.0111,0.1043,2038
18,0.1931,1.406,-0.1858,-0.2469,-0.0746,0.1306,2035
18,0.0186,1.407,-0.2869,-0.006,-0.294,-0.0654,2042
18,-0.0469,1.2378,-0.2871,0.0948,-0.349,-0.2069,2065
18,0.0312,1.0327,-0.2632,0.1194,-0.3255,-0.3096,2102
18,0.1848,0.9602,-0.1707,0.1477,-0.3971,-0.3354,2059
18,0.3601,0.9426,-0.1519,0.1296,-0.6763,-0.3153,2038
18,0.4861,0.855,-0.1265,0.1525,-1.0457,-0.182,2029
18,0.4277,0.8042,-0.0503,0.2097,-1.2227,-0.053,2037
18,0.262,0.7144,-0.0273,0.2464,-1.3114,-0.0911,2046
18,0.1584,0.624,-0.0449,0.2389,-1.1603,-0.1402,2047
18,0.1399,0.4753,-0.0693,0.2506,-0.8488,-0.1915,2056
18,0.1282,0.375,-0.0684,0.175,-0.6357,-0.2714,2032
18,0.1501,0.3254,-0.1079,0.1393,-0.4868,-0.2669,2046
18,0.1633,0.2444,-0.1333,0.0364,-0.3992,-0.2916,2036
18,0.176,0.2507,-0.1436,-0.0732,-0.3117,-0.2892,2035
18,0.1819,0.239,-0.1504,-0.2172,-0.3013,-0.2706,2028
18,0.1633,0.3062,-0.1887,-0.3019,-0.2141,-0.2966,2049
18,0.1653,0.3508,-0.2534,-0.2438,-0.2101,-0.3322,2040
18,0.2109,0.3489,-0.3047,-0.1459,-0.2132,-0.3231,2037
18,0.2109,0.3206,-0.325,-0.0465,-0.1908,-0.3021,2040
18,0.2063,0.2837,-0.3667,-0.0033,-0.2097,-0.289,2053
18,0.2556,0.2124,-0.3528,0.0096,-0.2531,-0.3031,2041
18,0.3047,0.1582,-0.3462,-0.0342,-0.3221,-0.2397,2033
18,0.3389,0.1829,-0.3721,-0.0768,-0.4565,-0.1529,2064
18,0.3015,0.2668,-0.3967,-0.092,-0.6098,-0.091,2045
18,0.2634,0.3586,-0.428,-0.1425,-0.7409,-0.0629,2053
18,0.2585,0.446,-0.439,-0.1965,-0.777,-0.0394,2050
18,0.2249,0.4829,-0.4363,-0.133,-0.7903,-0.0494,2023
18,0.189,0.4666,-0.3894,-0.142,-0.8048,-0.0601,2055
18,0.144,0.4741,-0.3499,-0.1613,-0.8076,-0.0668,2044
18,0.137,0.5007,-0.2893,-0.1124,-0.7391,-0.0344,2040
18,0.1511,0.5103,-0.2434,0.0011,-0.6907,-0.0107,2045
18,0.1501,0.5017,-0.1931,0.1253,-0.6303,0.0173,2045
18,0.1294,0.4868,-0.1465,0.2717,-0.5984,0.0563,2034
18,0.1033,0.4963,-0.106,0.3942,-0.5655,0.0993,2045
18,0.0986,0.521,-0.1455,0.5136,-0.5586,0.1101,2036
18,0.1011,0.5283,-0.1404,0.6982,-0.3892,0.096,2055
18,0.0959,0.5554,-0.1453,0.7633,-0.3043,0.0201,2054
18,0.0728,0.6865,-0.1921,0.8067,-0.2473,-0.0973,2053
18,0.0198,0.9092,-0.2744,0.9198,-0.1892,-0.2468,2039
18,-0.0522,1.1316,-0.3494,0.9741,-0.0296,-0.4031,2037
18,-0.1108,1.2153,-0.355,1.0367,0.0883,-0.4658,2046
18,-0.2422,1.3452,-0.1091,0.6569,0.0063,-0.4534,2038
18,-0.7769,1.7129,-0.3411,-1.0475,-0.4207,-0.7269,2186
18,1.7397,1.0962,-2.0,4.3634,2.5374,0.0557,2378
18,-0.3716,1.5664,1.0952,1.4267,2.816,-1.1282,1604
18,-0.6597,1.9999,0.0784,0.9572,0.4996,-0.6693,2061
18,0.2605,1.5017,-0.2576,0.9288,0.6625,-0.8271,2074
18,0.5906,1.5066,-0.0786,0.818,0.6729,-0.4914,1997
18,0.3767,1.5601,0.1348,0.5675,-0.3386,-0.2047,1995
18,0.4829,1.4915,-0.1646,0.3278,-0.9007,0.0732,2065
18,0.3538,1.6519,-0.1721,0.0704,-0.7578,0.3077,2038
19,0.3113,1.7756,-0.2866,-0.0097,-0.7336,0.6056,2095
19,0.22,1.6577,-0.4363,-0.0145,-0.6666,0.5942,2057
19,0.1514,1.5557,-0.5408,0.0834,-0.8811,0.2667,2031
19,0.0051,1.3674,-0.5461,0.0202,-0.651,0.0957,2069
19,0.0273,1.2585,-0.5,-0.1443,-0.4782,-0.1712,2064
19,0.134,1.0542,-0.5129,-0.1561,-0.4444,-0.1736,2073
19,0.1748,1.074,-0.4492,-0.2181,-0.4007,-0.2746,2036
19,0.2688,1.05,-0.4194,-0.2381,-0.7431,-0.2039,2038
19,0.2495,0.9902,-0.498,-0.1867,-0.8548,0.0248,2045
19,0.313,0.8389,-0.5151,-0.2156,-1.0409,0.0985,2062
19,0.2588,0.8445,-0.4192,-0.2286,-1.0459,0.1268,2038
19,0.1582,0.8223,-0.4546,-0.1292,-0.8447,0.1216,2044
19,0.1243,0.7214,-0.4067,-0.1055,-0.7706,0.0892,2046
19,0.1575,0.7275,-0.4153,-0.0278,-0.6857,0.0138,2040
19,0.1277,0.6267,-0.4045,-0.0052,-0.5569,0.0218,2049
19,0.115,0.6113,-0.3835,0.039,-0.4481,0.002,2042
19,0.1333,0.5823,-0.3831,0.0208,-0.414,0.017,2036
19,0.1394,0.5642,-0.3696,-0.0123,-0.3735,0.0099,2047
19,0.158,0.5671,-0.3821,-0.0204,-0.3832,0.0358,2038
19,0.1663,0.5593,-0.3542,-0.0133,-0.3994,0.0886,2051
19,0.1375,0.5537,-0.3621,-0.014,-0.3609,0.0915,2052
19,0.092,0.5583,-0.3596,-0.0284,-0.2501,0.0739,2054
19,0.0786,0.5564,-0.3623,-0.0666,-0.0643,0.0585,2050
19,0.0974,0.571,-0.3831,-0.0581,0.0373,0.0848,2032
19,0.1372,0.5608,-0.4099,-0.0855,0.1083,0.1151,2037
19,0.1699,0.5603,-0.4158,-0.1013,0.1108,0.1304,2028
19,0.1987,0.5535,-0.4436,-0.1159,0.0555,0.161,2040
19,0.2061,0.5635,-0.4485,-0.1458,0.0025,0.1931,2036
19,0.2126,0.5815,-0.4478,-0.1657,-0.092,0.2341,2047
19,0.2073,0.6089,-0.4531,-0.1653,-0.1659,0.2834,2041
19,0.1785,0.6475,-0.4463,-0.1328,-0.2332,0.3031,2050
19,0.1372,0.6772,-0.4177,-0.088,-0.238,0.3064,2048
19,0.0979,0.6992,-0.3877,-0.0499,-0.1772,0.3019,2046
19,0.0613,0.688,-0.3655,-0.0209,-0.0332,0.2884,2038
19,0.0601,0.6799,-0.3442,-0.0005,0.0935,0.2895,2043
19,0.0549,0.687,-0.3005,0.0447,0.2025,0.2904,2041
19,0.063,0.6833,-0.2739,0.0248,0.2679,0.2864,2044
19,0.0659,0.6897,-0.2791,0.0435,0.3207,0.3075,2036
19,0.0618,0.6763,-0.2461,0.0578,0.3298,0.3085,2057
19,0.0884,0.6545,-0.2327,0.0558,0.3095,0.2971,2038
19,0.0974,0.6304,-0.2297,0.0049,0.2855,0.3051,2040
19,0.0879,0.6003,-0.2444,-0.0115,0.2041,0.2876,2051
19,0.0818,0.575,-0.27,0.0435,0.2007,0.2674,2045
19,0.0762,0.5669,-0.2629,0.0587,0.2083,0.2103,2042
19,0.1011,0.5164,-0.2842,0.1145,0.2348,0.2312,2038
19,0.1448,0.4988,-0.3318,0.0664,0.2422,0.2108,2045
19,0.1895,0.5439,-0.3525,0.0322,0.2398,0.1943,2045
19,0.1887,0.573,-0.3672,0.0109,0.2477,0.1349,2053
19,0.2131,0.5308,-0.3926,-0.086,0.2426,0.1198,2050
19,0.2659,0.5347,-0.4072,-0.1525,0.1409,0.1028,2034
19,0.2996,0.5095,-0.3945,-0.2725,0.0072,0.1037,2040
19,0.3582,0.4788,-0.3926,-0.4308,-0.0928,0.0554,2036
19,0.4109,0.4185,-0.4192,-0.4984,-0.1597,0.091,2035
19,0.2532,0.522,-0.3589,-0.4701,-0.1333,0.0663,2046
19,0.2178,0.5271,-0.3936,-0.592,-0.2518,0.047,2049
19,0.208,0.644,-0.4119,-0.6122,-0.2165,-0.0087,2035
19,0.1765,0.7571,-0.3975,-0.6656,-0.0694,-0.0095,2027
19,0.2493,0.866,-0.3936,-0.7296,0.1157,-0.0775,2032
19,0.1545,0.9536,-0.3208,-0.6806,0.3603,-0.1064,2034
19,0.0754,1.0117,-0.1729,-0.7255,0.5454,-0.1529,2045
19,0.1348,0.9973,-0.0791,-0.7666,0.352,-0.1309,2040
19,-0.0337,0.9565,0.0054,-0.66,0.1771,-0.1541,2055
19,-0.0945,1.0857,0.0061,-0.5854,0.0794,-0.2229,2050
19,0.0034,1.2266,-0.0034,-0.4915,0.1257,-0.3024,2051
19,0.1904,1.4045,-0.0657,-0.4346,0.3006,-0.3249,2040
19,0.2893,1.6084,-0.1333,-0.2947,0.3543,-0.277,2029
19,0.3586,1.6079,-0.1125,-0.2388,0.3535,-0.2735,2051
19,0.3838,1.5806,-0.0386,-0.2446,0.1607,-0.2706,2056
19,0.3679,1.5132,-0.0027,-0.2139,-0.0667,-0.1651,2047
19,0.3088,1.4539,0.0325,-0.1385,-0.1828,-0.0051,2061
19,0.2981,1.3655,0.0056,-0.1069,-0.2393,0.1293,2054
19,0.2351,1.364,0.0115,-0.0703,-0.1593,0.2868,2063
19,0.1982,1.3469,-0.0098,-0.0294,-0.1531,0.4368,2067
19,0.2075,1.2668,-0.0532,0.0254,-0.0517,0.5564,2050
19,0.1772,1.1921,-0.0242,0.0862,0.1289,0.5935,2049
19,0.1895,1.075,-0.0366,0.1069,0.1461,0.6119,2047
19,0.1287,0.9504,-0.0217,0.1685,0.2328,0.5926,2050
19,0.1274,0.845,-0.0396,0.1875,0.1965,0.5706,2047
19,0.0784,0.7625,-0.0693,0.2326,0.2314,0.555,2051
19,0.094,0.6802,-0.083,0.2577,0.231,0.5331,2054
19,0.0781,0.6108,-0.1228,0.3294,0.3565,0.5105,2049
19,0.0881,0.5291,-0.1125,0.4894,0.5667,0.5135,2051
19,0.0908,0.446,-0.1372,0.4781,0.7513,0.4706,2053
19,0.103,0.426,-0.1404,0.5988,0.879,0.4625,2044
19,0.1006,0.3918,-0.155,0.653,0.9653,0.4366,2058
19,0.1104,0.3687,-0.1509,0.6766,0.9979,0.3996,2049
19,0.1245,0.3389,-0.1494,0.6727,0.9889,0.2752,2059
19,0.1433,0.323,-0.1853,0.6838,0.9293,0.1686,2040
19,0.1604,0.344,-0.1865,0.647,0.8308,0.0228,2043
19,0.186,0.3682,-0.2295,0.6012,0.7419,-0.0641,2040
19,0.2097,0.3542,-0.22,0.5586,0.6834,-0.1581,2032
19,0.1882,0.3633,-0.2422,0.4398,0.6229,-0.2308,2038
19,0.21,0.4053,-0.2734,0.3679,0.4841,-0.308,2033
19,0.2207,0.4038,-0.2842,0.3092,0.349,-0.3227,2042
19,0.2063,0.4014,-0.3088,0.3083,0.2193,-0.3518,2044
19,0.1863,0.4111,-0.3181,0.2906,0.1115,-0.2831,2038
19,0.1528,0.4541,-0.3018,0.2687,0.0839,-0.1997,2042
19,0.1379,0.5222,-0.3311,0.2784,-0.0357,-0.1898,2044
19,0.1001,0.5984,-0.3154,0.3907,-0.0305,-0.1662,2033
19,0.0554,0.6335,-0.2888,0.4426,0.0314,-0.1499,2046
19,0.0337,0.6606,-0.2405,0.5153,0.1306,-0.1384,2045
19,0.0364,0.6326,-0.1917,0.6472,0.2804,-0.0659,2037
19,0.1221,0.5652,-0.1299,0.6865,0.3456,-0.067,2040
19,0.1655,0.5393,-0.0767,0.713,0.3353,-0.0756,2042
20,0.187,0.5466,-0.022,0.7329,0.2191,-0.1031,2040
20,0.2236,0.5806,0.0002,0.7095,0.1023,-0.084,2048
20,0.2568,0.5984,-0.0054,0.6915,-0.0752,-0.0457,2047
20,0.2747,0.6436,-0.0635,0.6946,-0.2322,0.0037,2048
20,0.2473,0.6624,-0.0823,0.699,-0.3269,0.0634,2047
20,0.2007,0.6809,-0.1401,0.7023,-0.3862,0.0774,2052
20,0.1624,0.6543,-0.1689,0.7297,-0.3477,0.0719,2051
20,0.1165,0.594,-0.1584,0.7628,-0.2733,0.0597,2045
20,0.0969,0.5181,-0.1575,0.8018,-0.2563,0.0208,2049
20,0.0847,0.481,-0.1428,0.8642,-0.31,-0.0196,2043
20,0.0842,0.4805,-0.1633,0.9299,-0.3557,-0.0036,2045
20,0.054,0.4927,-0.1829,0.9628,-0.3388,0.0031,2050
20,0.0496,0.5886,-0.2439,0.9641,-0.2336,-0.0301,2054
20,0.0327,0.719,-0.2957,0.9709,-0.1711,-0.1605,2049
20,0.0649,0.8896,-0.2852,0.9251,-0.0952,-0.3141,2028
20,0.083,0.9377,-0.2905,0.8035,-0.0929,-0.4281,2042
20,0.0579,1.0356,-0.2788,0.7028,-0.1008,-0.3072,2023
20,0.0244,1.1055,-0.0364,0.2603,-0.1531,-0.1731,2043
20,0.1492,1.0684,-0.9917,0.286,-0.0059,-0.1421,2159
20,0.7671,0.75,-1.1243,2.0675,1.0131,0.1977,2152
20,0.1501,1.1348,0.3582,0.4172,0.1172,0.0569,1936
20,0.137,1.4465,-0.0493,0.6111,-0.6573,0.1549,2070
20,0.4141,1.6223,-0.2065,0.5926,-0.9532,0.0771,2044
20,0.6975,1.6992,-0.4399,0.363,-1.4077,0.2147,2030
20,0.6309,1.6665,-0.4229,0.0417,-1.5601,0.3077,2047
20,0.3513,1.5923,-0.4668,-0.2317,-1.5487,0.3986,2074
20,0.0728,1.5779,-0.5269,-0.1336,-1.4351,0.453,2065
20,0.1018,1.4534,-0.4966,-0.1772,-1.3466,0.5014,2067
20,0.0999,1.4607,-0.4719,-0.1155,-1.1477,0.4338,2051
20,0.0083,1.6096,-0.4514,0.0471,-0.8621,0.35,2053
20,0.093,1.5283,-0.4409,0.187,-0.7154,0.2076,2068
20,0.1658,1.3757,-0.4788,0.2642,-0.6372,0.0538,2059
20,0.1326,1.3557,-0.4565,0.3125,-0.6139,-0.0855,2041
20,0.209,1.2432,-0.5107,0.3049,-0.6661,-0.1123,2048
20,0.2397,1.0808,-0.4768,0.2659,-0.6199,-0.1362,2037
20,0.2622,1.0107,-0.4673,0.1924,-0.5512,-0.1449,2039
20,0.3071,0.9556,-0.479,0.1796,-0.4902,-0.102,2040
20,0.2717,0.8667,-0.4451,0.1686,-0.3935,-0.0953,2049
20,0.2891,0.7825,-0.4473,0.1125,-0.3191,-0.0603,2041
20,0.2544,0.7161,-0.4314,0.059,-0.2024,-0.0695,2042
20,0.2246,0.7114,-0.4402,0.0774,-0.0827,-0.0646,2050
20,0.2126,0.6575,-0.4326,0.0875,0.0957,-0.1186,2046
20,0.2324,0.6023,-0.4126,0.0792,0.1926,-0.1594,2044
20,0.2361,0.5728,-0.4014,0.088,0.1755,-0.135,2039
20,0.2126,0.5601,-0.4019,0.1032,0.1601,-0.1261,2046
20,0.2222,0.5181,-0.4019,0.1003,0.1594,-0.1089,2045
20,0.2358,0.4893,-0.3889,0.0547,0.1438,-0.0848,2043
20,0.248,0.4697,-0.3726,-0.0133,0.1071,-0.0248,2055
20,0.2312,0.4866,-0.3684,-0.094,0.1072,-0.0137,2045
20,0.2415,0.4905,-0.3589,-0.1645,0.1057,-0.0016,2061
20,0.2349,0.4978,-0.3748,-0.2269,0.1103,0.0103,2030
20,0.22,0.5012,-0.3904,-0.2938,0.12,0.0214,2049
20,0.2041,0.4851,-0.4106,-0.3441,0.1229,0.03,2041
20,0.1841,0.4983,-0.4229,-0.4272,0.1274,0.0435,2045
20,0.178,0.5603,-0.4331,-0.4579,0.0907,0.0651,2041
20,0.1794,0.5928,-0.4119,-0.4918,0.0658,0.0724,2042
20,0.1826,0.6243,-0.4307,-0.5185,0.0672,0.0802,2038
20,0.1592,0.6448,-0.4153,-0.5022,-0.0185,0.094,2048
20,0.178,0.6885,-0.3879,-0.4899,-0.1294,0.1168,2047
20,0.1677,0.6853,-0.3379,-0.4904,-0.2302,0.1044,2032
20,0.1475,0.6904,-0.3225,-0.4681,-0.2959,0.1539,2047
20,0.094,0.7893,-0.2756,-0.4928,-0.4088,0.1434,2049
20,0.0295,0.8101,-0.2532,-0.3894,-0.3773,0.0888,2049
20,-0.0044,0.771,-0.2278,-0.3221,-0.292,0.061,2046
20,-0.031,0.7141,-0.1958,-0.285,-0.2027,0.0676,2041
20,0.0017,0.6685,-0.2207,-0.2476,-0.1442,0.0664,2056
20,0.0095,0.6702,-0.2241,-0.2316,-0.1,0.076,2039
20,0.0027,0.6453,-0.2368,-0.2117,0.0373,0.0774,2054
20,0.0212,0.6689,-0.2551,-0.1956,0.1791,0.0775,2043
20,0.0862,0.6533,-0.2786,-0.1334,0.2413,0.0278,2037
20,0.1821,0.6357,-0.271,-0.1218,0.1723,-0.0458,2046
20,0.2754,0.6033,-0.271,-0.1402,0.022,-0.0976,2039
20,0.304,0.626,-0.3042,-0.1699,-0.0898,-0.1352,2051
20,0.3018,0.5964,-0.3359,-0.239,-0.2545,-0.1338,2047
20,0.2876,0.5491,-0.356,-0.3095,-0.3185,-0.1302,2042
20,0.3542,0.5056,-0.3567,-0.4152,-0.332,-0.1441,2034
20,0.2622,0.4504,-0.3721,-0.5032,-0.3496,-0.1089,2052
20,0.2322,0.4719,-0.3967,-0.4864,-0.2824,-0.0948,2041
20,0.1201,0.4976,-0.4055,-0.4903,-0.2723,-0.1104,2049
20,0.167,0.5327,-0.4299,-0.4899,-0.2302,-0.1787,2049
20,0.1926,0.5754,-0.4812,-0.5189,-0.2679,-0.2048,2035
20,0.1938,0.6633,-0.4268,-0.5703,-0.1754,-0.2836,2037
20,0.3035,0.7703,-0.4556,-0.6593,-0.401,-0.3574,2044
20,0.1177,0.9099,-0.3513,-0.5062,-0.2346,-0.3879,2034
20,0.1772,0.9114,-0.3696,-0.4915,-0.4115,-0.4457,2051
20,0.0129,0.8867,-0.262,-0.4979,-0.3557,-0.4912,2034
20,-0.094,0.8535,-0.1631,-0.4303,-0.2697,-0.4165,2043
20,-0.176,0.8101,-0.0608,-0.3695,0.0182,-0.4075,2055
20,-0.137,0.8723,-0.0156,-0.2938,0.4176,-0.4585,2029
20,-0.0437,1.0737,-0.0142,-0.1763,0.7645,-0.3863,2046
20,0.0911,1.2732,-0.0078,-0.1041,1.0254,-0.3243,2044
20,0.2173,1.4702,-0.0374,-0.017,1.1917,-0.2405,2045
20,0.2451,1.6028,0.0105,0.0678,1.0832,-0.1815,2039
20,0.2673,1.6379,0.064,0.0421,0.6769,-0.2996,2046
20,0.3279,1.6382,0.1348,0.1139,0.3489,-0.3546,2027
20,0.2805,1.4622,0.1875,0.1453,-0.223,-0.3421,2040
20,0.2639,1.3979,0.1899,0.1726,-0.6486,-0.2152,2049
20,0.2124,1.3237,0.1436,0.0987,-0.9176,-0.0244,2059
20,0.2173,1.2944,0.0552,0.0651,-0.9513,0.1787,2070
20,0.2422,1.2837,-0.0254,0.0236,-0.9485,0.4552,2064
20,0.2244,1.199,-0.1516,0.0688,-0.8096,0.6998,2056
21,0.2402,1.1279,-0.2356,0.1268,-0.5759,0.8399,2051
21,0.2297,1.0483,-0.2146,0.2008,-0.2914,0.8261,2045
21,0.1936,0.957,-0.1978,0.232,-0.1414,0.7854,2043
21,0.1736,0.8582,-0.156,0.2598,-0.0342,0.6846,2051
21,0.1531,0.783,-0.1045,0.2614,0.0477,0.5947,2048
21,0.1511,0.7053,-0.0918,0.2754,0.0971,0.5348,2052
21,0.1306,0.5962,-0.0857,0.2867,0.1538,0.5426,2050
21,0.1135,0.5625,-0.0679,0.2786,0.174,0.5196,2046
21,0.1169,0.4858,-0.0957,0.2978,0.1469,0.5051,2056
21,0.1375,0.4204,-0.1189,0.2659,0.1863,0.4737,2047
21,0.1226,0.375,-0.1519,0.2956,0.2506,0.4896,2043
21,0.0884,0.3071,-0.1404,0.2547,0.2862,0.4087,2057
21,0.1194,0.3059,-0.2119,0.2634,0.3192,0.3408,2047
21,0.1345,0.2815,-0.2036,0.2105,0.3714,0.2216,2067
21,0.1609,0.3132,-0.2417,0.2256,0.4128,0.0775,2048
21,0.1833,0.2903,-0.2698,0.2466,0.4171,-0.0068,2057
21,0.196,0.272,-0.2637,0.2458,0.3757,-0.1143,2043
21,0.2173,0.2627,-0.2913,0.2687,0.3012,-0.1854,2036
21,0.1946,0.2627,-0.322,0.3013,0.2039,-0.2824,2047
21,0.2051,0.2373,-0.3333,0.2852,0.135,-0.3714,2044
21,0.2109,0.2158,-0.3433,0.2787,0.0455,-0.4276,2040
21,0.1768,0.1995,-0.3279,0.2622,0.0423,-0.4413,2044
21,0.1472,0.209,-0.3157,0.2232,0.0107,-0.4,2031
21,0.1062,0.2585,-0.2991,0.1928,0.0875,-0.361,2039
21,0.074,0.3296,-0.3035,0.2013,0.1535,-0.3609,2047
21,0.0786,0.3711,-0.3127,0.2737,0.1381,-0.3301,2034
21,0.1245,0.3906,-0.2783,0.2988,0.1507,-0.2983,2040
21,0.1292,0.4614,-0.2437,0.3364,0.1437,-0.2651,2029
21,0.1597,0.4631,-0.2214,0.3482,0.1297,-0.2001,2050
21,0.1658,0.519,-0.1819,0.3746,0.0874,-0.1519,2045
21,0.196,0.6096,-0.1816,0.3954,-0.0209,-0.1369,2047
21,0.2085,0.6208,-0.1406,0.4956,-0.0866,-0.0779,2049
21,0.1665,0.6538,-0.0725,0.6087,-0.1814,-0.0115,2045
21,0.1211,0.6741,-0.0786,0.6546,-0.2694,0.0185,2049
21,0.1011,0.7078,-0.093,0.7697,-0.4093,0.0012,2028
21,0.032,0.7815,-0.1235,0.9162,-0.3831,-0.0329,2040
21,-0.0483,0.8762,-0.2268,1.0845,-0.2872,-0.0999,2063
21,-0.0823,1.0022,-0.3374,1.2797,-0.0722,-0.2505,2045
21,-0.1262,1.1243,-0.4043,1.3544,0.2245,-0.4683,2034
21,-0.1921,1.2483,-0.4722,1.4187,0.6324,-0.528,2035
21,-0.0815,1.2837,-0.4385,1.3657,0.8548,-0.5972,2036
21,0.0952,1.3477,-0.2617,1.3778,1.3485,-0.4316,2018
21,0.0701,1.3865,-0.1707,1.119,1.5294,-0.3159,2042
21,0.27,1.4795,-0.0803,0.8867,1.1573,-0.2601,2064
21,0.4075,1.6526,-0.0427,0.5988,0.5742,-0.0248,2054
21,0.5337,1.7468,-0.0647,0.3658,-0.071,0.1851,2045
21,0.4292,1.7778,-0.1245,0.2087,-0.4671,0.3646,2042
21,0.4429,1.512,-0.3076,-0.0277,-0.8407,0.5175,2056
21,0.3586,1.4673,-0.2397,-0.1036,-0.9263,0.6356,2057
21,0.3025,1.4607,-0.2734,-0.1167,-0.9032,0.7486,2058
21,0.1724,1.5928,-0.2749,-0.0703,-0.8264,0.6843,2056
21,0.1685,1.5105,-0.3054,0.0653,-0.665,0.5928,2062
21,0.1477,1.4573,-0.3518,0.092,-0.4424,0.4488,2050
21,0.2476,1.3904,-0.3604,0.1032,-0.4426,0.2858,2049
21,0.2393,1.261,-0.3618,0.0538,-0.4565,0.1972,2044
21,0.2495,1.1753,-0.3723,-0.0272,-0.505,0.1514,2046
21,0.2119,1.0774,-0.384,-0.067,-0.5059,0.1569,2046
21,0.1663,0.9983,-0.4221,-0.0643,-0.5287,0.0917,2044
21,0.0791,0.8962,-0.4263,0.0302,-0.5609,0.0603,2049
21,0.0242,0.7744,-0.4084,0.0916,-0.4386,0.0177,2054
21,0.0415,0.7,-0.397,0.0803,-0.3039,-0.0392,2045
21,0.061,0.6416,-0.3748,0.1214,-0.1852,-0.0698,2048
21,0.0891,0.5637,-0.3333,0.0686,-0.1289,-0.1108,2047
21,0.2019,0.4622,-0.2512,-0.0627,-0.1646,-0.1044,2039
21,0.3555,0.4331,-0.1936,-0.2436,-0.1732,-0.0495,2031
21,0.3459,0.5178,-0.2129,-0.175,-0.3791,0.0517,2028
21,0.2488,0.6064,-0.314,-0.0194,-0.664,0.0993,2051
21,0.1172,0.6143,-0.3716,0.1357,-0.7182,0.1037,2053
21,-0.0068,0.5818,-0.4468,0.2149,-0.5775,0.087,2056
21,-0.0542,0.53,-0.4829,0.1582,-0.3424,0.0546,2045
21,-0.0442,0.5117,-0.5139,0.0906,-0.1442,0.0261,2041
21,0.0039,0.5068,-0.498,0.021,0.0081,-0.0132,2037
21,0.0471,0.4863,-0.481,-0.0662,0.0882,-0.0364,2039
21,0.0928,0.4683,-0.4717,-0.1344,0.0377,-0.0372,2039
21,0.1208,0.4758,-0.491,-0.1627,-0.0607,-0.0044,2034
21,0.1479,0.4988,-0.4844,-0.1589,-0.1942,0.0164,2048
21,0.1689,0.5188,-0.4558,-0.1617,-0.3112,0.0461,2041
21,0.1775,0.5505,-0.4412,-0.1621,-0.4209,0.0662,2044
21,0.2014,0.6206,-0.4333,-0.1059,-0.5601,0.0882,2040
21,0.1621,0.6633,-0.3916,-0.0413,-0.6454,0.083,2046
21,0.125,0.6897,-0.3411,0.0064,-0.6074,0.051,2039
21,0.0771,0.6692,-0.3262,0.0039,-0.5276,0.0515,2051
21,0.0264,0.6965,-0.2659,0.027,-0.4032,0.0218,2053
21,-0.0288,0.687,-0.2012,0.0989,-0.1602,0.0154,2043
21,0.051,0.5984,-0.1213,0.1324,0.0141,0.0566,2049
21,0.1775,0.48,-0.1316,-0.0105,-0.0317,0.0336,2040
21,0.261,0.5759,-0.1165,0.0318,-0.1398,0.0997,2033
21,0.2761,0.592,-0.1172,-0.0622,-0.2369,0.1178,2055
21,0.302,0.6006,-0.1729,-0.1679,-0.332,0.2171,2036
21,0.3054,0.7021,-0.2654,-0.1698,-0.4137,0.2506,2052
21,0.2705,0.6787,-0.3115,-0.2063,-0.5063,0.2802,2047
21,0.2212,0.6606,-0.3325,-0.2598,-0.5296,0.2603,2060
21,0.1736,0.6052,-0.3633,-0.3384,-0.5385,0.2285,2040
21,0.2185,0.5969,-0.4036,-0.3492,-0.4879,0.1847,2035
21,0.2126,0.6191,-0.4146,-0.3846,-0.4722,0.1012,2048
21,0.1797,0.6104,-0.3928,-0.4255,-0.4027,0.0501,2044
21,0.1602,0.616,-0.4131,-0.5275,-0.3199,0.0342,2056
21,0.2571,0.6191,-0.4011,-0.6047,-0.2658,0.0407,2039
21,0.2104,0.6489,-0.3503,-0.6403,-0.2525,0.0471,2040
21,0.3057,0.6841,-0.387,-0.7926,-0.43,0.0198,2049
22,0.2834,0.7498,-0.3499,-0.7704,-0.4366,0.0246,2035
22,0.2361,0.834,-0.3455,-0.7556,-0.4615,-0.0461,2050
22,0.2942,0.8257,-0.4158,-0.8115,-0.4124,-0.0649,2045
22,0.1809,0.9717,-0.3367,-0.6867,-0.3177,-0.1798,2051
22,0.0464,0.981,-0.3235,-0.5718,-0.2015,-0.1963,2049
22,0.0447,0.9102,-0.2751,-0.5924,-0.1702,-0.2184,2074
22,-0.0283,0.8918,-0.196,-0.4643,0.051,-0.2063,2022
22,-0.0439,0.8862,-0.1787,-0.4036,0.2116,-0.2487,2046
22,-0.0083,1.0247,-0.1763,-0.3025,0.3504,-0.348,2038
22,0.1079,1.2031,-0.2019,-0.2374,0.5389,-0.3777,2038
22,0.1692,1.4873,-0.2129,-0.1483,0.8166,-0.4619,2036
22,0.2061,1.5315,-0.145,-0.0754,1.0194,-0.4927,2044
22,0.2458,1.5752,-0.0435,-0.0732,1.0973,-0.5802,2045
22,0.2439,1.5149,0.0481,0.0077,0.9275,-0.5244,2046
22,0.2996,1.3743,0.1599,0.1129,0.6296,-0.4026,2043
22,0.3223,1.2568,0.2532,0.1649,0.4179,-0.1811,2051
22,0.2842,1.2556,0.1926,0.1398,0.2105,-0.0242,2054
22,0.229,1.2654,0.1189,0.0486,0.0501,0.0876,2057
22,0.2439,1.2402,0.0208,-0.008,-0.0698,0.2531,2060
22,0.2378,1.2124,-0.0583,-0.0144,-0.0928,0.4051,2065
22,0.23,1.1365,-0.0818,0.01,0.035,0.5984,2063
22,0.2117,1.0918,-0.0879,0.0523,0.0931,0.7138,2054
22,0.2227,0.9795,-0.0508,0.0747,0.1349,0.7645,2046
22,0.2021,0.8997,-0.0486,0.085,0.1457,0.7959,2034
22,0.1621,0.7971,-0.061,0.1095,0.2136,0.8136,2041
22,0.1365,0.7244,-0.0745,0.1296,0.3112,0.7743,2049
22,0.1094,0.6592,-0.0989,0.1863,0.4677,0.7321,2059
22,0.0928,0.6045,-0.0989,0.2225,0.5582,0.6308,2042
22,0.0967,0.5249,-0.103,0.3024,0.675,0.595,2054
22,0.115,0.5015,-0.1152,0.3292,0.7909,0.516,2043
22,0.1079,0.4629,-0.1313,0.4201,0.8316,0.4489,2048
22,0.1333,0.4292,-0.137,0.4786,0.8251,0.3629,2048
22,0.1091,0.3755,-0.1558,0.4477,0.8598,0.2461,2044
22,0.1406,0.3831,-0.1885,0.4332,0.7797,0.1051,2044
22,0.1726,0.3916,-0.2141,0.4477,0.6947,-0.1055,2038
22,0.1316,0.3123,-0.1865,0.5963,0.6727,-0.0944,2040
22,0.1147,0.2588,-0.2036,0.5426,0.6014,-0.2111,2047
22,0.1687,0.2468,-0.25,0.5252,0.4745,-0.338,2036
22,0.1338,0.2251,-0.2817,0.5566,0.4923,-0.3469,2040
22,0.1506,0.2261,-0.2898,0.499,0.5292,-0.4153,2043
22,0.1594,0.1934,-0.3154,0.4346,0.5594,-0.3791,2043
22,0.1243,0.2378,-0.301,0.3484,0.5669,-0.3203,2052
22,0.1379,0.3274,-0.3335,0.3334,0.4701,-0.2986,2047
22,0.1182,0.396,-0.3508,0.3497,0.3996,-0.3069,2045
22,0.0872,0.396,-0.3318,0.3027,0.3602,-0.3165,2042
22,0.0679,0.3887,-0.3276,0.3243,0.2304,-0.2978,2043
22,0.0767,0.3879,-0.2734,0.3144,0.1229,-0.2689,2043
