Timestamp,Ax,Ay,Az,Rx,Ry,Rz,EMG
0,0.2314,-1.0669,-0.1653,0.6986,-1.1969,0.4002,2036
0,0.2349,-1.1218,-0.124,0.5683,-1.2564,0.3497,2036
0,0.2515,-1.1738,-0.1147,0.4928,-1.3575,0.2854,2053
0,0.2766,-1.2073,-0.1008,0.4332,-1.4644,0.2698,2036
0,0.2856,-1.2256,-0.0833,0.3,-1.5857,0.2689,2035
0,0.2808,-1.2383,-0.094,0.1943,-1.666,0.2594,2032
0,0.2776,-1.2676,-0.1145,0.1446,-1.6675,0.242,2035
0,0.2632,-1.2952,-0.1648,0.1115,-1.6659,0.2437,2030
0,0.219,-1.2854,-0.2039,0.0839,-1.6677,0.2462,2034
0,0.186,-1.2805,-0.2332,0.078,-1.6157,0.2184,2037
0,0.1594,-1.3154,-0.2761,0.114,-1.5126,0.2092,2036
0,0.1243,-1.3376,-0.3049,0.0904,-1.3575,0.1682,2036
0,0.0906,-1.3167,-0.2917,0.0527,-1.1905,0.1185,2035
0,0.0808,-1.2671,-0.2561,-0.0035,-1.0698,0.0545,2039
0,0.1104,-1.2273,-0.1641,-0.0975,-1.0239,-0.0218,2041
0,0.166,-1.2043,-0.1069,-0.2216,-0.9637,-0.0831,2039
0,0.188,-1.1978,-0.1108,-0.285,-0.8416,-0.1321,2036
0,0.1887,-1.2251,-0.1763,-0.2446,-0.6813,-0.1635,2035
0,0.1528,-1.2983,-0.2424,-0.1495,-0.5248,-0.1958,2036
0,0.1272,-1.3582,-0.2898,-0.0647,-0.4209,-0.235,2034
0,0.1169,-1.4014,-0.3074,-0.0446,-0.3721,-0.2767,2035
0,0.1326,-1.3892,-0.2622,-0.0807,-0.4024,-0.3053,2040
0,0.1575,-1.342,-0.2024,-0.1614,-0.487,-0.2923,2037
0,0.1919,-1.2837,-0.1514,-0.2621,-0.6111,-0.2887,2036
0,0.1978,-1.2246,-0.0994,-0.3437,-0.7194,-0.2803,2039
0,0.1748,-1.167,-0.0576,-0.428,-0.793,-0.2895,2034
0,0.1431,-1.0991,-0.0234,-0.5034,-0.8577,-0.3023,2038
0,0.1082,-1.0635,0.0078,-0.5838,-0.9007,-0.3007,2049
0,0.0762,-0.9968,0.0068,-0.6806,-0.9199,-0.3289,2040
0,0.0527,-0.9338,-0.0007,-0.7369,-0.8871,-0.3318,2037
0,0.0515,-0.8911,-0.0249,-0.7906,-0.8325,-0.3345,2038
0,0.0425,-0.8638,-0.0425,-0.8542,-0.7999,-0.3461,2037
0,0.03,-0.8301,-0.0684,-0.9088,-0.7684,-0.3646,2038
0,0.0112,-0.7864,-0.1179,-0.9425,-0.726,-0.4016,2037
0,0.001,-0.7769,-0.1519,-0.9202,-0.7102,-0.4067,2035
0,-0.0198,-0.7617,-0.2061,-0.9176,-0.7107,-0.4465,2035
0,-0.0171,-0.7515,-0.2651,-0.8879,-0.7319,-0.4758,2039
0,-0.0088,-0.7437,-0.3164,-0.8034,-0.7672,-0.4723,2033
0,-0.0203,-0.7456,-0.3457,-0.6846,-0.8154,-0.4645,2035
0,-0.0112,-0.7424,-0.3826,-0.6241,-0.8669,-0.4847,2036
0,0.01,-0.7412,-0.4331,-0.508,-0.9574,-0.4963,2037
0,0.0134,-0.7463,-0.4607,-0.3472,-1.0116,-0.4864,2036
0,0.0176,-0.7498,-0.4949,-0.1575,-1.0712,-0.4583,2046
0,0.0344,-0.759,-0.5034,0.0177,-1.1611,-0.437,2041
0,0.0454,-0.7664,-0.4993,0.184,-1.2659,-0.4084,2032
0,0.0662,-0.7781,-0.4817,0.3261,-1.3608,-0.3653,2035
0,0.063,-0.7556,-0.4514,0.4767,-1.4518,-0.3332,2037
0,0.0525,-0.7595,-0.405,0.6011,-1.5227,-0.294,2035
0,0.052,-0.7456,-0.3645,0.6811,-1.5577,-0.2456,2039
0,0.0383,-0.7583,-0.3394,0.7943,-1.5538,-0.2011,2032
0,0.0125,-0.7749,-0.3311,0.8989,-1.5328,-0.1868,2033
0,-0.0103,-0.8296,-0.3406,1.0921,-1.4332,-0.1718,2032
0,-0.0203,-0.9136,-0.3777,1.2163,-1.3185,-0.1491,2043
0,-0.0244,-0.9785,-0.4419,1.4398,-1.2625,-0.1003,2034
0,-0.0129,-1.0193,-0.4456,1.6639,-1.2977,-0.0573,2032
0,0.0144,-1.0781,-0.4265,1.8725,-1.3813,0.0197,2036
0,0.0251,-1.1018,-0.4023,2.0278,-1.511,0.0672,2035
0,0.0667,-1.0852,-0.3386,2.1308,-1.6281,0.1266,2036
0,0.1167,-1.0815,-0.2527,2.1471,-1.6952,0.2233,2037
0,0.1284,-1.0977,-0.179,2.1369,-1.7612,0.3766,2037
0,0.1372,-1.0786,-0.1172,2.1172,-1.8048,0.4653,2033
0,0.1384,-1.0913,-0.0574,2.1023,-1.7781,0.5959,2038
0,0.1274,-1.1067,-0.0056,2.0197,-1.7124,0.7146,2036
0,0.1318,-1.0913,0.03,1.9598,-1.5637,0.8509,2037
0,0.1218,-1.0557,0.0479,1.8492,-1.3844,0.9748,2037
0,0.1006,-0.9993,0.0859,1.7588,-1.1808,1.0941,2034
0,0.0898,-0.9277,0.0759,1.6559,-0.9262,1.2062,2036
0,0.0918,-0.886,0.0491,1.6053,-0.6136,1.2932,2036
0,0.1062,-0.8611,-0.001,1.6189,-0.3159,1.3754,2035
0,0.1006,-0.877,-0.0632,1.6847,-0.0767,1.4599,2038
0,0.0984,-0.8813,-0.135,1.7599,0.0989,1.5308,2033
0,0.1082,-0.8821,-0.1792,1.8124,0.1493,1.5269,2036
0,0.1135,-0.9153,-0.2048,1.8021,0.0762,1.5559,2040
0,0.0959,-0.9653,-0.218,1.7472,-0.0447,1.6487,2034
0,0.0496,-1.0063,-0.1746,1.6796,-0.1695,1.7389,2038
0,0.0344,-1.0129,-0.1091,1.6105,-0.2647,1.7624,2033
0,0.0442,-1.0146,-0.0583,1.6322,-0.3931,1.7606,2037
0,0.0774,-1.0852,-0.0405,1.5801,-0.5119,1.6972,2035
0,0.1052,-1.1353,-0.041,1.4767,-0.6171,1.6368,2034
0,0.1145,-1.1721,-0.0459,1.366,-0.76,1.5771,2041
0,0.1184,-1.2031,-0.0393,1.2113,-0.9023,1.5226,2037
0,0.1389,-1.1855,-0.0339,1.0549,-1.0412,1.4093,2037
0,0.1858,-1.1404,-0.0044,0.9369,-1.1251,1.2701,2039
0,0.2288,-1.1001,0.0571,0.9017,-1.0957,1.2073,2035
0,0.2693,-1.0779,0.1472,0.8666,-1.0053,1.118,2034
0,0.2981,-1.0603,0.2,0.8419,-0.8938,1.0364,2036
0,0.2876,-1.0491,0.2317,0.809,-0.7716,0.9698,2036
0,0.2795,-1.0271,0.2522,0.8022,-0.6066,0.9044,2035
0,0.2898,-1.0266,0.259,0.7472,-0.4168,0.8268,2032
0,0.2891,-1.0398,0.2424,0.6564,-0.2614,0.8007,2032
0,0.2527,-1.0493,0.2129,0.5269,-0.1413,0.8363,2032
0,0.1931,-1.0332,0.1875,0.3971,-0.0663,0.8665,2034
0,0.1077,-1.0127,0.1689,0.2678,-0.0613,0.9148,2033
0,0.0288,-0.9983,0.1663,0.1529,-0.0858,0.9299,2034
0,-0.0515,-0.9875,0.1863,0.0345,-0.079,0.9164,2040
0,-0.1211,-0.978,0.1931,-0.0457,-0.0402,0.8697,2038
0,-0.1697,-0.9763,0.1943,-0.0356,0.0115,0.7693,2032
0,-0.1765,-0.9807,0.1838,0.0236,0.0775,0.6453,2036
0,-0.1604,-0.9958,0.1433,0.0902,0.1466,0.4931,2034
0,-0.1187,-1.0342,0.115,0.1099,0.1747,0.3539,2037
0,-0.0728,-1.074,0.0823,0.0957,0.1256,0.2209,2036
0,-0.031,-1.0935,0.0386,0.0822,-0.0164,0.0983,2032
0,0.012,-1.1042,0.0308,0.0981,-0.2157,0.034,2036
0,0.0134,-1.0811,0.0645,0.1205,-0.3887,0.0276,2038
1,-0.0012,-1.0752,0.116,0.1453,-0.5261,0.0221,2037
1,-0.0466,-1.0596,0.1797,0.1699,-0.5939,0.0213,2038
1,-0.1223,-1.0583,0.2285,0.1471,-0.461,0.0956,2035
1,-0.1321,-1.0288,0.2537,0.3109,-0.4537,0.1446,2037
1,-0.1289,-1.0115,0.2532,0.3257,-0.5325,0.0308,2039
1,-0.1511,-1.0298,0.2249,0.2599,-0.401,0.12,2034
1,-0.1328,-1.0752,0.2346,0.2406,-0.1638,0.1262,2032
1,-0.1096,-1.0439,0.2642,0.2044,0.0668,0.1405,2034
1,-0.1208,-1.0337,0.2659,0.1674,0.0782,0.1736,2036
1,-0.0972,-1.0378,0.2305,0.1674,0.1095,0.1451,2035
1,-0.0637,-1.0408,0.2205,0.1068,0.2184,0.0864,2036
1,-0.043,-1.033,0.2024,-0.0084,0.2629,0.0401,2037
1,-0.0325,-1.0159,0.1636,-0.1398,0.2055,0.0009,2035
1,-0.0369,-0.9773,0.145,-0.2718,0.1005,-0.0328,2035
1,-0.0569,-0.9443,0.1438,-0.3429,0.0109,-0.0736,2034
1,-0.0745,-0.9307,0.1548,-0.3733,-0.0202,-0.12,2033
1,-0.1157,-0.9424,0.1587,-0.3974,0.0091,-0.1557,2037
1,-0.1414,-0.9595,0.1538,-0.399,0.0878,-0.1852,2037
1,-0.1562,-0.9919,0.1511,-0.4099,0.1559,-0.2254,2036
1,-0.1487,-1.0051,0.1514,-0.4251,0.1815,-0.2818,2036
1,-0.1272,-1.0193,0.1511,-0.447,0.1599,-0.3397,2036
1,-0.0923,-1.0298,0.1768,-0.4866,0.1073,-0.387,2034
1,-0.071,-1.0486,0.1836,-0.5417,0.0368,-0.4225,2036
1,-0.0691,-1.0449,0.2014,-0.6026,-0.0377,-0.4309,2036
1,-0.0698,-1.0464,0.2046,-0.6606,-0.129,-0.4384,2036
1,-0.0796,-1.0327,0.218,-0.7144,-0.1992,-0.4303,2045
1,-0.0811,-1.0203,0.2056,-0.762,-0.2273,-0.4196,2035
1,-0.0896,-0.9968,0.2051,-0.7998,-0.2148,-0.3899,2032
1,-0.1047,-0.989,0.1877,-0.8166,-0.169,-0.3551,2036
1,-0.1113,-0.9685,0.1765,-0.8249,-0.1112,-0.3344,2037
1,-0.1089,-0.9475,0.1423,-0.8208,-0.0579,-0.3073,2034
1,-0.0938,-0.9438,0.1316,-0.8099,-0.0216,-0.2788,2037
1,-0.0923,-0.9226,0.1123,-0.7903,-0.0059,-0.2404,2035
1,-0.0818,-0.9045,0.116,-0.7743,0.0003,-0.2177,2035
1,-0.0808,-0.884,0.1074,-0.7529,0.0204,-0.1919,2040
1,-0.0823,-0.8677,0.1099,-0.726,0.0623,-0.1685,2035
1,-0.094,-0.855,0.1118,-0.6938,0.1153,-0.1394,2034
1,-0.0847,-0.8528,0.1104,-0.6498,0.1679,-0.0935,2036
1,-0.0876,-0.845,0.1028,-0.5865,0.2037,-0.045,2033
1,-0.0862,-0.8445,0.1091,-0.5098,0.223,0.0,2035
1,-0.0745,-0.8306,0.0852,-0.4201,0.2747,0.0581,2035
1,-0.0569,-0.8376,0.0874,-0.3341,0.336,0.1306,2037
1,-0.0376,-0.8354,0.0889,-0.2647,0.3934,0.1798,2038
1,-0.0278,-0.8452,0.0559,-0.1904,0.4498,0.2282,2030
1,-0.0322,-0.8584,0.0378,-0.114,0.5039,0.243,2037
1,-0.0181,-0.8748,0.0098,-0.0522,0.5433,0.2715,2034
1,-0.0107,-0.8887,-0.0212,-0.0228,0.5525,0.2851,2035
1,-0.0188,-0.9062,-0.0569,-0.0017,0.5317,0.2883,2032
1,-0.0332,-0.9443,-0.0647,0.0406,0.4778,0.2906,2034
1,-0.0349,-0.9927,-0.0806,0.0886,0.4207,0.2828,2031
1,-0.0535,-1.0574,-0.0967,0.1651,0.3892,0.29,2043
1,-0.0771,-1.1289,-0.1016,0.2167,0.3425,0.2895,2038
1,-0.116,-1.1997,-0.0913,0.234,0.2764,0.2735,2032
1,-0.1477,-1.2202,-0.0823,0.2171,0.2129,0.2626,2036
1,-0.1931,-1.2207,-0.0586,0.1767,0.1605,0.2401,2035
1,-0.2261,-1.2068,-0.0093,0.1143,0.1204,0.2153,2037
1,-0.2371,-1.1628,0.0586,0.0017,0.0899,0.1988,2039
1,-0.2351,-1.136,0.1057,-0.1124,0.0923,0.1903,2038
1,-0.2288,-1.1436,0.1194,-0.2349,0.1294,0.189,2032
1,-0.2188,-1.2083,0.0676,-0.3163,0.2012,0.1914,2035
1,-0.251,-1.2913,-0.0227,-0.3631,0.2923,0.1831,2032
1,-0.2908,-1.3669,-0.1033,-0.3975,0.4115,0.1378,2037
1,-0.3315,-1.4121,-0.1196,-0.4368,0.5293,0.0694,2033
1,-0.3904,-1.4453,-0.0708,-0.5048,0.5827,-0.0244,2038
1,-0.387,-1.4155,0.0466,-0.6383,0.5501,-0.1669,2043
1,-0.3281,-1.344,0.1665,-0.7962,0.5249,-0.308,2039
1,-0.2429,-1.2671,0.25,-0.9343,0.4734,-0.4369,2037
1,-0.136,-1.1897,0.3323,-1.1039,0.3738,-0.4907,2037
1,-0.083,-1.1086,0.3159,-1.2825,0.1657,-0.5501,2037
1,-0.0767,-1.0444,0.2881,-1.4126,-0.061,-0.632,2036
1,-0.092,-0.9917,0.219,-1.5101,-0.242,-0.7052,2036
1,-0.0938,-0.947,0.1177,-1.5396,-0.3352,-0.7678,2034
1,-0.0881,-0.9055,0.0022,-1.4539,-0.3876,-0.8473,2037
1,-0.1057,-0.8657,-0.0911,-1.277,-0.405,-0.906,2033
1,-0.0786,-0.8623,-0.1313,-1.0551,-0.388,-0.9728,2031
1,-0.0457,-0.8757,-0.1667,-0.9092,-0.4313,-0.9672,2036
1,-0.022,-0.9001,-0.1831,-0.8227,-0.5663,-0.9833,2039
1,-0.0071,-0.9248,-0.1892,-0.7835,-0.7164,-0.9846,2041
1,-0.0178,-0.9355,-0.2063,-0.7284,-0.872,-1.011,2035
1,-0.0547,-0.918,-0.1785,-0.7299,-0.9706,-1.0545,2038
1,-0.0742,-0.8943,-0.1489,-0.7797,-1.0397,-1.0994,2035
1,-0.0908,-0.884,-0.1467,-0.8281,-1.0981,-1.1175,2037
1,-0.116,-0.8545,-0.1282,-0.8875,-1.1674,-1.1126,2032
1,-0.1301,-0.844,-0.1316,-0.9537,-1.1709,-1.1351,2035
1,-0.1218,-0.8071,-0.1619,-0.9401,-1.1857,-1.1268,2036
1,-0.1226,-0.7896,-0.2163,-0.8608,-1.2295,-1.08,2034
1,-0.1177,-0.7893,-0.2585,-0.7746,-1.2575,-1.0337,2034
1,-0.1145,-0.7866,-0.2766,-0.6722,-1.2657,-0.9878,2035
1,-0.1082,-0.7644,-0.3003,-0.5873,-1.2187,-0.9503,2034
1,-0.1011,-0.7578,-0.3096,-0.4895,-1.1579,-0.8626,2035
1,-0.0994,-0.739,-0.3269,-0.3858,-1.1107,-0.781,2038
1,-0.0793,-0.728,-0.3633,-0.2795,-1.0385,-0.6894,2035
1,-0.0483,-0.73,-0.4053,-0.2059,-0.9749,-0.6253,2032
1,-0.0159,-0.7173,-0.448,-0.089,-0.8941,-0.5244,2038
1,0.0027,-0.7151,-0.4731,0.0471,-0.8192,-0.392,2036
1,0.0305,-0.7253,-0.4849,0.1663,-0.7552,-0.2497,2044
1,0.052,-0.7234,-0.4895,0.2617,-0.6933,-0.1364,2032
1,0.0891,-0.7393,-0.4663,0.31,-0.6605,-0.0081,2033
1,0.1016,-0.7542,-0.4468,0.3282,-0.6582,0.1412,2043
1,0.1157,-0.7781,-0.4258,0.2928,-0.6364,0.2671,2035
1,0.1194,-0.7922,-0.4048,0.1734,-0.6284,0.3705,2040
2,0.1016,-0.7983,-0.4023,0.0791,-0.6986,0.3827,2040
2,0.0669,-0.7859,-0.4309,0.0393,-0.832,0.3847,2049
2,0.0386,-0.7708,-0.4766,0.0385,-0.9451,0.3796,2040
2,0.0134,-0.7607,-0.5095,0.0503,-0.9477,0.3566,2034
2,-0.0251,-0.7561,-0.5105,0.0751,-0.8138,0.3401,2036
2,-0.0654,-0.7507,-0.5071,0.0929,-0.5972,0.3049,2036
2,-0.0867,-0.7676,-0.5044,0.0882,-0.3673,0.2912,2037
2,-0.0674,-0.7952,-0.5239,0.0622,-0.1309,0.2284,2035
2,-0.0273,-0.7827,-0.5159,0.0839,0.0613,0.2252,2046
2,0.0322,-0.814,-0.4866,-0.0249,0.2522,0.1938,2039
2,0.0894,-0.8538,-0.5132,-0.1221,0.3386,0.1771,2042
2,0.1326,-0.8979,-0.5659,-0.2268,0.2695,0.1804,2030
2,0.1929,-0.9463,-0.6013,-0.2715,0.0666,0.178,2036
2,0.1907,-0.9812,-0.6162,-0.2956,-0.1522,0.1609,2032
2,0.1641,-1.0305,-0.6348,-0.3378,-0.3635,0.1011,2040
2,0.1057,-1.0681,-0.6431,-0.3493,-0.5223,0.0543,2025
2,0.0425,-1.1194,-0.6628,-0.2076,-0.5857,-0.0176,2021
2,-0.0024,-1.1724,-0.6697,-0.1029,-0.4364,-0.0746,2032
2,-0.0237,-1.2292,-0.6782,0.0188,-0.2398,-0.1421,2043
2,-0.0305,-1.3245,-0.6509,0.0529,-0.1129,-0.1566,2046
2,0.0317,-1.3992,-0.603,-0.0866,-0.1875,-0.2156,2032
2,0.1506,-1.4482,-0.553,-0.2546,-0.399,-0.1742,2044
2,0.2041,-1.3909,-0.499,-0.4026,-0.6592,-0.1832,2041
2,0.2769,-1.3716,-0.4526,-0.4382,-0.9232,-0.1591,2029
2,0.2761,-1.3091,-0.4058,-0.5378,-1.1376,-0.1156,2040
2,0.2522,-1.2417,-0.3735,-0.6501,-1.3727,-0.119,2024
2,0.241,-1.1882,-0.3552,-0.7329,-1.5281,-0.1445,2035
2,0.249,-1.1245,-0.3757,-0.8526,-1.5175,-0.1663,2043
2,0.1995,-1.0508,-0.3872,-0.9809,-1.3328,-0.1959,2037
2,0.2246,-1.0264,-0.448,-1.173,-1.2379,-0.3088,2035
2,0.2632,-0.9155,-0.4893,-1.1866,-1.0156,-0.3105,2068
2,0.156,-0.8928,-0.5029,-1.1593,-0.6078,-0.1639,2025
2,0.0977,-0.8518,-0.5325,-1.2179,-0.1533,-0.0533,2034
2,0.2056,-0.793,-0.5728,-1.2777,-0.0385,-0.1088,2035
2,0.2917,-0.7876,-0.5784,-1.0882,0.0696,-0.1103,2034
2,0.2998,-0.8081,-0.5364,-0.954,0.1167,-0.1222,2038
2,0.2822,-0.8481,-0.5576,-0.8576,0.0015,-0.1707,2037
2,0.2415,-0.8889,-0.5569,-0.8947,-0.1192,-0.1527,2035
2,0.2329,-0.8672,-0.5505,-0.9134,-0.3954,-0.2254,2042
2,0.2441,-0.895,-0.5181,-0.9195,-0.6493,-0.2959,2044
2,0.2773,-0.8914,-0.468,-0.8471,-0.9977,-0.3814,2015
2,0.2581,-0.9304,-0.427,-0.8767,-1.3962,-0.4239,2031
2,0.1858,-0.938,-0.3757,-1.0516,-1.6825,-0.4662,2042
2,0.1885,-0.9539,-0.3308,-1.1892,-1.8417,-0.5601,2036
2,0.2075,-0.9536,-0.3623,-1.2207,-2.1176,-0.6827,2018
2,0.2749,-0.98,-0.415,-1.2342,-2.538,-0.7243,2020
2,0.2415,-1.1116,-0.2244,-1.2655,-2.9666,-0.7802,2026
2,-0.5022,-2.0,0.5767,-2.5052,-3.5893,-0.9937,2031
2,0.0281,-2.0,1.1582,-1.8823,-4.3635,-1.3516,2046
2,-0.0439,-1.7651,1.2441,0.5825,-4.3635,-0.7472,2050
2,-0.8179,-1.3384,-0.304,-0.2017,-4.3635,-0.6149,2042
2,-0.1777,-0.9287,-0.7476,-1.58,-4.2941,-0.9544,2067
2,0.4409,-1.0874,-0.7478,-1.963,-4.3635,-1.1471,2055
2,0.5549,-0.6157,-0.874,-1.9254,-4.3635,-0.9098,2004
2,-0.0022,-0.6113,-0.9846,-1.7456,-4.3635,-0.508,2030
2,-0.5798,-0.6348,-1.1372,-1.7538,-3.4585,-0.6534,2035
2,-0.6604,-0.5332,-1.2949,-1.972,-1.9141,-0.7839,2044
2,-0.4331,-0.3911,-1.4175,-2.0252,-1.0331,-0.8056,2040
2,0.0745,-0.3901,-1.4604,-2.3276,-0.3489,-0.9202,2045
2,0.2498,-0.5447,-1.3997,-2.4986,-0.0109,-0.8522,2042
2,0.123,-0.5054,-1.0667,-2.5304,0.1104,-0.5026,2013
2,-0.6033,-0.2249,-0.75,-1.6876,0.8774,0.0497,2020
2,-0.9717,0.0879,-0.543,-0.6477,1.9815,0.2109,2055
2,0.0791,-0.3999,-0.8269,-0.404,2.9174,-0.1035,2024
2,0.8958,-0.6516,-0.4578,0.2195,2.3242,-0.1,2058
2,0.2446,-0.8979,-0.5691,0.127,1.0716,-0.2101,2014
2,-0.3044,-0.8442,-0.8555,-0.0089,0.6807,-0.19,2085
2,-0.2346,-0.6973,-0.8364,0.0664,1.1946,-0.122,2053
2,-0.0576,-0.8662,-0.7483,0.0899,1.6462,0.1161,2036
2,-0.0012,-0.9153,-0.6929,0.0687,1.715,0.2336,2040
2,0.0979,-1.0156,-0.7405,-0.0715,1.6101,0.1439,2041
2,-0.0295,-0.887,-0.7251,-0.1007,1.2877,0.1233,2042
2,-0.2031,-0.6941,-0.8059,0.0373,1.1929,0.1641,2044
2,-0.1602,-0.6316,-0.8601,0.1932,1.0632,0.1495,2038
2,-0.0618,-0.6396,-0.8167,0.2991,1.0014,0.138,2042
2,0.0625,-0.5903,-0.8276,0.3808,0.8303,0.1844,2041
2,0.1055,-0.5359,-0.7605,0.5665,0.6161,0.1674,2039
2,0.1108,-0.592,-0.7974,0.7115,0.328,0.1799,2036
2,0.1245,-0.6602,-0.7673,0.8242,0.2314,0.1988,2044
2,0.1199,-0.637,-0.8298,0.8761,0.1643,0.2244,2010
2,0.0669,-0.6987,-0.9409,1.021,0.2065,0.1894,2064
2,0.1357,-0.6392,-1.0369,1.0732,0.2721,0.2221,2019
2,0.1838,-0.5344,-1.0427,1.2732,0.3617,0.2057,2055
2,0.2131,-0.7314,-1.0137,1.4214,0.4891,0.2409,1992
2,0.1667,-0.7444,-0.8577,1.4885,0.7501,0.2183,2021
2,0.2209,-0.7668,-0.7905,1.5278,0.6143,0.161,2038
2,0.1992,-0.8333,-0.6938,1.5708,0.7279,0.073,2069
2,0.1614,-0.8044,-0.7959,1.5222,0.4757,-0.0748,2042
2,0.1113,-0.8118,-0.8103,1.541,0.5759,-0.1623,2031
2,0.01,-0.7886,-0.9072,1.4739,0.6172,-0.3442,2038
2,0.0,-0.8594,-0.7917,1.4934,0.7022,-0.4264,2041
2,0.0547,-0.9307,-0.7056,1.334,0.7344,-0.5333,2032
2,0.2542,-0.9856,-0.5825,1.3283,0.5325,-0.599,2058
2,0.167,-1.0105,-0.4409,1.2527,0.32,-0.7024,2037
2,0.2654,-0.988,-0.4404,1.04,0.2052,-0.6617,2041
2,0.2664,-0.9463,-0.3469,0.9017,0.2598,-0.7613,2064
2,0.2366,-0.9243,-0.3943,0.8349,-0.0953,-0.6834,2028
2,0.2881,-0.8894,-0.406,0.6837,0.0194,-0.681,2028
2,0.2432,-0.9072,-0.4607,0.6498,-0.1838,-0.6617,2042
2,0.0513,-0.9336,-0.3606,0.5762,-0.0229,-0.5682,2031
2,0.1492,-0.8989,-0.4143,0.5553,-0.017,-0.571,2040
2,0.2732,-0.8938,-0.5471,0.5613,-0.2854,-0.4231,2059
2,-0.0024,-0.9258,-0.4399,0.4637,-0.1168,-0.3717,2046
3,0.3396,-0.7563,-0.7234,0.4891,-0.554,-0.5063,2051
3,0.2397,-0.9065,-0.6238,0.539,-0.528,-0.4203,2026
3,-0.1545,-0.8108,-0.5874,0.4365,-0.5268,-0.3021,2053
3,0.1213,-0.8435,-0.53,0.4215,-0.2269,-0.2695,2032
3,0.2229,-0.8706,-0.48,0.3779,-0.2842,-0.2187,2046
3,0.2312,-0.8672,-0.4143,0.3506,-0.3482,-0.1635,2027
3,0.135,-0.8667,-0.3582,0.236,-0.2072,-0.0715,2047
3,0.2424,-0.8098,-0.425,0.1724,-0.3057,-0.0266,2030
3,0.1877,-0.8618,-0.4331,0.1276,-0.2507,-0.0029,2033
3,0.1055,-0.7747,-0.4453,0.0302,-0.1828,0.0394,2048
3,0.1904,-0.7756,-0.4802,0.0144,-0.2876,0.0337,2037
3,0.1934,-0.77,-0.4797,-0.0196,-0.2878,0.0486,2032
3,0.1863,-0.7302,-0.5076,-0.0218,-0.3944,0.0578,2029
3,0.1624,-0.7336,-0.4783,-0.0265,-0.3228,0.0973,2046
3,0.168,-0.7126,-0.4673,-0.0692,-0.2581,0.1226,2029
3,0.1443,-0.7549,-0.3801,-0.1173,0.0372,0.2747,2031
3,0.1445,-0.7129,-0.4058,-0.1858,0.2658,0.4207,2035
3,0.4624,-0.5681,-0.5789,-0.0505,-0.4437,0.1103,2022
3,0.4106,-0.6741,-0.5784,0.1087,-0.6488,0.0826,2015
3,-0.095,-0.6182,-0.6047,-0.0016,-0.5625,0.0836,2040
3,0.0059,-0.4927,-0.6182,0.0005,-0.1948,0.1479,2021
3,0.2495,-0.595,-0.627,0.1212,-0.2121,0.1032,2031
3,0.2878,-0.6326,-0.5559,0.1212,-0.157,0.1534,2029
3,0.2927,-0.6111,-0.5508,0.108,-0.1991,0.167,2039
3,0.2869,-0.6011,-0.5408,0.1649,-0.2553,0.165,2036
3,0.2258,-0.6416,-0.5793,0.1751,-0.2759,0.1852,1995
3,0.2314,-0.6157,-0.5813,0.1679,-0.2786,0.1635,2027
3,0.1843,-0.6147,-0.5854,0.1714,-0.239,0.1767,2058
3,0.1873,-0.6223,-0.6145,0.1673,-0.2982,0.172,2044
3,0.283,-0.6394,-0.6465,0.2097,-0.3864,0.1665,2066
3,0.2581,-0.7051,-0.644,0.2284,-0.4615,0.1144,2056
3,0.2341,-0.7017,-0.6409,0.236,-0.4705,0.1272,1997
3,0.1912,-0.73,-0.5745,0.2268,-0.3954,0.1237,2048
3,0.1929,-0.7693,-0.5803,0.2015,-0.4461,0.1498,2043
3,0.2114,-0.8027,-0.5354,0.1413,-0.426,0.1047,1969
3,0.2449,-0.8296,-0.5396,0.1035,-0.5741,0.1621,2032
3,0.1826,-0.8728,-0.5854,0.0714,-0.6497,0.1715,2072
3,0.2302,-0.8894,-0.6252,0.0718,-0.7379,0.21,2068
3,0.0715,-0.9944,-0.6018,0.034,-0.6424,0.1039,2072
3,0.1355,-0.9951,-0.6001,0.0927,-1.0083,0.235,2139
3,0.0591,-0.9993,-0.5444,0.118,-0.9369,0.2173,2043
3,-0.0852,-1.1477,-0.5908,0.0822,-0.8387,0.1977,2018
3,-0.0786,-1.2388,-0.4802,0.0059,-0.2862,0.3864,2028
3,0.0405,-1.2109,-0.4626,-0.0948,0.1309,0.5699,2070
3,0.0137,-1.2131,-0.3826,-0.1907,0.3304,0.6261,2023
3,-0.0618,-1.2764,-0.3726,-0.3665,0.4799,0.4506,2172
3,0.1948,-1.2637,-0.3552,-0.4872,0.4568,0.2526,2048
3,-0.0977,-1.1724,-0.3005,-0.538,0.4032,0.2559,2065
3,-0.1748,-1.0405,-0.3682,-0.6241,0.3891,0.0374,2064
3,0.0012,-1.0271,-0.4541,-0.5351,0.3153,-0.0422,1986
3,-0.1323,-1.1487,-0.5425,-0.455,0.1017,0.0734,2027
3,-0.1418,-1.1953,-0.5474,-0.4709,-0.0458,-0.037,2088
3,0.0554,-1.2473,-0.5505,-0.449,-0.1719,0.0561,2066
3,0.0227,-1.1938,-0.5381,-0.4232,-0.3103,-0.0166,2239
3,0.0142,-1.0598,-0.512,-0.3425,-0.3839,0.0898,2031
3,0.01,-1.1072,-0.4824,-0.3534,-0.292,0.0674,1920
3,-0.0249,-1.1787,-0.4568,-0.4272,-0.1804,0.1935,2232
3,0.1201,-1.1057,-0.4653,-0.4902,-0.0549,0.1143,1906
3,0.0593,-1.1221,-0.426,-0.4689,0.0229,0.3354,1987
3,0.1885,-1.115,-0.5027,-0.6723,0.1127,0.2958,2070
3,0.2749,-1.0393,-0.5181,-0.7625,0.1418,0.2737,1945
3,0.1016,-1.0374,-0.6194,-0.8079,0.135,0.3623,2019
3,0.0659,-0.9497,-0.615,-0.8846,0.2533,0.2914,1906
3,0.053,-0.8745,-0.6978,-0.9339,0.2276,0.2747,2037
3,0.0596,-0.8145,-0.6895,-0.9708,0.2393,0.2148,2146
3,0.0374,-0.8176,-0.7131,-0.9552,0.1751,0.1502,1961
3,0.0354,-0.8608,-0.7371,-1.0039,0.1583,0.1771,1972
3,0.1421,-0.8828,-0.7388,-1.1232,0.1743,0.1863,2108
3,0.2593,-0.8252,-0.7209,-1.222,0.2747,0.1794,2008
3,0.186,-0.8042,-0.6592,-1.3243,0.4173,0.1582,2084
3,0.1846,-0.8584,-0.5647,-1.4576,0.6771,0.1151,1964
3,0.2156,-0.8696,-0.562,-1.5663,0.8548,0.1163,2074
3,0.2048,-0.8669,-0.6277,-1.6239,0.9633,0.1466,2009
3,0.1018,-0.821,-0.7197,-1.6821,1.0022,0.1457,1943
3,0.0234,-0.7932,-0.7466,-1.7008,1.0508,0.119,2087
3,-0.0063,-0.8264,-0.7942,-1.7097,1.0449,-0.0113,2062
3,-0.0139,-0.8457,-0.8284,-1.7062,0.9927,-0.114,1911
3,-0.0281,-0.8445,-0.8215,-1.6769,0.8955,-0.2831,2278
3,-0.0559,-0.8369,-0.821,-1.6439,0.9071,-0.426,1999
3,0.0266,-0.8008,-0.7769,-1.6488,0.863,-0.6107,1840
3,0.0784,-0.8191,-0.7207,-1.6452,0.7815,-0.7512,1848
3,0.1436,-0.8584,-0.7498,-1.6294,0.666,-0.9182,2052
3,0.1023,-0.8455,-0.8025,-1.6532,0.5574,-1.0447,2087
3,0.1643,-0.8569,-0.7881,-1.6636,0.5444,-1.1467,1936
3,0.179,-0.7566,-0.7751,-1.6747,0.5822,-1.2667,2058
3,0.1584,-0.6799,-0.7161,-1.725,0.5767,-1.3671,2258
3,0.2095,-0.6382,-0.7307,-1.7462,0.6094,-1.4603,1899
3,0.2202,-0.6794,-0.7297,-1.7383,0.6677,-1.5677,1921
3,0.2039,-0.6467,-0.75,-1.719,0.7247,-1.6711,2185
3,0.2273,-0.5757,-0.8474,-1.6582,0.5955,-1.7797,2007
3,0.251,-0.4536,-0.9194,-1.5438,0.3301,-1.7651,2016
3,0.3435,-0.363,-0.9504,-1.5384,-0.0402,-1.709,2050
3,0.5503,-0.4463,-1.085,-1.4515,-0.2157,-1.6948,2041
3,0.6309,-0.4387,-1.072,-1.3872,-0.121,-1.6977,2036
3,0.6252,-0.5781,-0.9543,-1.3695,0.0643,-1.6639,2008
3,0.6274,-0.7253,-1.0085,-1.2585,0.1681,-1.604,2005
3,0.689,-0.8005,-1.0515,-1.0943,0.0587,-1.4897,2081
3,0.7168,-0.8201,-1.1199,-0.9714,-0.2165,-1.3175,2156
3,0.6997,-0.8772,-1.0835,-0.693,0.1787,-1.2655,2005
3,0.5415,-0.8889,-0.855,-0.6577,0.2899,-1.3455,2057
3,0.573,-0.8389,-0.6899,-0.6292,0.4703,-1.3236,2043
3,0.6487,-0.7937,-0.5808,-0.6533,0.3872,-1.1676,2044
3,0.6301,-0.6667,-0.5134,-0.6002,0.1914,-1.0368,2060
3,0.5525,-0.5459,-0.5825,-0.5809,0.1843,-0.9443,2030
4,0.4172,-0.4836,-0.584,-0.4858,0.3388,-0.8717,2044
4,0.3477,-0.4409,-0.6116,-0.3629,0.6086,-0.8163,2033
4,0.3267,-0.4006,-0.5957,-0.2233,0.8158,-0.7249,2051
4,0.3206,-0.3386,-0.5999,-0.0238,1.0433,-0.6128,2034
4,0.3167,-0.2996,-0.562,0.0463,1.0439,-0.5556,2030
4,0.3579,-0.2163,-0.6123,0.1701,0.9158,-0.4165,2039
4,0.3875,-0.1614,-0.5713,0.236,0.7481,-0.3165,2017
4,0.4983,-0.0994,-0.5769,0.4671,0.5385,-0.2076,2032
4,0.4753,-0.1794,-0.5676,0.4643,0.4215,-0.1542,2036
4,0.5039,-0.2034,-0.5259,0.5762,0.3345,-0.0127,2025
4,0.3916,-0.2297,-0.4668,0.5932,0.2365,0.122,2038
4,0.3484,-0.3184,-0.4111,0.5888,0.1125,0.1294,2020
4,0.2749,-0.2244,-0.3503,0.6413,0.0177,0.276,2035
4,0.1716,-0.1648,-0.3184,0.7075,0.0067,0.3326,2028
4,0.0469,-0.2898,-0.26,0.8047,0.0835,0.2583,2040
4,0.0166,-0.324,-0.207,0.7517,0.1807,0.3095,2052
4,-0.0254,-0.2642,-0.1609,0.7207,0.1895,0.3551,2043
4,0.0544,-0.3054,-0.0964,0.724,0.2164,0.3085,2045
4,-0.0188,-0.3079,-0.0652,0.7717,0.198,0.2922,2049
4,-0.0786,-0.2717,-0.0454,0.7747,-0.0514,0.3912,2042
4,-0.1399,-0.3108,-0.0901,0.7194,-0.1738,0.2934,2041
4,-0.2437,-0.3647,-0.1716,0.6434,-0.3252,0.3695,2020
4,-0.3752,-0.3757,-0.1729,0.7407,-0.6931,0.3938,2022
4,-0.4543,-0.3418,-0.2109,0.8902,-1.1126,0.4372,2027
4,-0.5464,-0.5474,-0.3091,1.2629,-1.4106,0.2187,2062
4,-0.5071,-0.5693,-0.3711,1.2873,-1.6347,0.2705,2029
4,-0.384,-0.5461,-0.3206,1.3111,-1.7141,0.341,2037
4,-0.2451,-0.6226,-0.3037,1.4326,-1.5298,0.5858,2056
4,-0.1743,-0.8357,-0.1477,1.5918,-1.2994,0.7793,2039
4,0.0791,-1.0171,0.0364,1.5849,-1.1339,1.0528,2035
4,0.0608,-1.1309,0.1067,1.5242,-0.9102,1.5195,2042
4,-0.1594,-1.2205,0.1018,1.3194,-0.7628,1.9048,2004
4,-0.3911,-1.3174,-0.0261,1.2204,-0.8893,2.2185,2011
4,-0.5518,-1.3882,-0.189,1.3015,-1.2635,2.4385,2043
4,-0.6592,-1.5073,-0.2986,1.4138,-1.7817,2.5675,2040
4,-0.6785,-1.6274,-0.427,1.5807,-2.1515,2.5312,2027
4,-0.4326,-1.7146,-0.6392,1.7303,-2.5574,2.5679,2044
4,-0.2061,-1.8115,-0.6978,2.0855,-2.8299,2.7498,2035
4,-0.0317,-1.9614,-0.803,2.4357,-3.0347,2.8074,2099
4,0.168,-2.0,-1.0261,2.7192,-3.2303,2.9273,1990
4,0.2324,-2.0,-1.291,3.1238,-3.1919,3.0401,2087
4,0.251,-2.0,-1.3921,3.588,-2.8869,3.0224,2058
4,0.0413,-1.9849,-1.5947,4.2126,-2.4384,3.0853,2020
4,-0.4172,-1.9844,-1.5569,4.3634,-1.5328,3.2332,2172
4,-0.4912,-2.0,-1.2568,4.3634,-0.6337,3.484,1968
4,-0.3213,-2.0,-1.0076,4.3634,-0.6534,3.8858,2135
4,-0.5447,-1.9683,-0.8362,4.3634,-0.5979,4.0893,1993
4,-0.7422,-2.0,-0.531,4.3634,-0.5651,3.9318,2041
4,-0.9307,-2.0,-0.3672,4.3634,-0.3697,4.2326,2044
4,-0.835,-1.9165,-0.5872,4.3634,-0.2743,4.3634,2059
4,-1.0364,-2.0,-1.0876,4.3634,-0.1902,4.3634,1990
4,-1.4756,-1.52,-0.7207,4.3634,0.3602,4.3634,2020
4,-1.6077,-1.6797,-0.8354,4.3634,-0.0563,4.3634,2032
4,1.9999,-2.0,-2.0,2.3068,3.6467,-0.0033,2039
4,1.9999,-2.0,0.7488,-4.3635,-4.3635,-0.382,2421
4,1.9999,-1.0332,-2.0,-4.3635,-3.5734,-3.7171,2135
4,0.1821,1.3528,-2.0,-4.3635,-4.3635,-1.4632,1889
4,0.6104,1.0227,-2.0,-4.3635,-1.2664,-0.4623,2035
4,-1.5198,-0.5107,-2.0,-2.9556,0.5317,-0.2577,1631
4,-0.0215,-1.2075,-1.48,-3.5029,2.0919,-1.2146,2120
4,0.0308,-0.2327,-0.6797,-3.7593,4.1535,-0.8143,2076
4,-0.6375,0.4961,-0.7131,-3.4014,3.9645,-0.9561,2102
4,-0.5105,0.1704,-0.9172,-2.8092,3.7496,-1.3017,2009
4,-1.0569,-0.7622,-1.2336,-2.3298,3.3409,-1.3794,1990
4,-0.7065,-0.9128,-1.0928,-2.5627,2.6232,-1.4717,2275
4,-0.322,-0.49,-0.8608,-2.6301,1.9326,-1.7422,1788
4,-0.1577,-0.2812,-0.6409,-2.4776,1.0966,-2.0594,2259
4,0.0784,-0.4758,-0.6609,-2.3438,0.3452,-2.434,1921
4,-0.1663,-0.7859,-0.8945,-2.3009,0.2023,-2.577,2017
4,-0.2153,-0.9258,-0.9241,-2.3767,0.2661,-2.632,2027
4,0.0999,-0.8914,-0.8862,-2.4822,0.4385,-2.5147,1998
4,0.1802,-0.7961,-0.719,-2.5133,0.3674,-2.3364,2001
4,0.2266,-0.7219,-0.687,-2.5527,0.5581,-2.2539,2017
4,0.231,-0.7424,-0.8276,-2.5276,0.9088,-2.1189,1962
4,0.1399,-0.7778,-1.0332,-2.4614,1.2741,-2.0418,2058
4,0.0281,-0.6577,-1.0305,-2.3244,1.2537,-1.9574,2015
4,0.0742,-0.7065,-1.0383,-2.1387,1.1646,-1.8419,2076
4,0.1912,-0.8416,-0.9683,-2.0857,1.1428,-2.002,2044
4,0.2803,-0.8962,-1.0667,-1.9293,1.1087,-1.8125,2064
4,0.2202,-1.0193,-0.9578,-1.8265,1.0302,-1.7044,2028
4,0.3445,-1.0872,-0.8716,-1.7041,1.1175,-1.6151,2033
4,0.427,-1.0818,-0.8516,-1.7416,1.1643,-1.5,2028
4,0.272,-0.978,-0.7927,-1.7646,1.5211,-1.4789,2025
4,0.1343,-0.8232,-0.7327,-1.7973,1.8703,-1.5641,2067
4,0.0701,-0.7598,-0.7197,-1.7546,2.2569,-1.5067,2032
4,-0.0562,-0.8459,-0.7317,-1.6922,2.5776,-1.399,2043
4,-0.1328,-1.0244,-0.6465,-1.574,2.8348,-1.3728,2038
4,-0.083,-0.9507,-0.5164,-1.3555,2.9187,-1.4275,2057
4,-0.0835,-0.7458,-0.4451,-1.2713,2.7287,-1.4708,2041
4,-0.0906,-0.6533,-0.4277,-1.2464,2.5655,-1.4388,2039
4,-0.0789,-0.6768,-0.416,-1.3406,2.4053,-1.3645,2035
4,-0.0015,-0.6506,-0.3223,-1.4083,2.1092,-1.4105,2022
4,0.1516,-0.5107,-0.1528,-1.4249,1.7414,-1.2328,2036
4,0.0737,-0.46,-0.1753,-1.3334,1.2495,-1.297,2031
4,0.134,-0.4983,-0.1997,-1.213,0.8469,-1.2712,2020
4,-0.0798,-0.5715,-0.3389,-1.0833,0.7524,-1.2798,2041
4,-0.2212,-0.7095,-0.5811,-1.2786,0.647,-1.1143,2024
4,-0.3259,-0.6284,-0.6069,-1.2271,0.4807,-0.8879,2032
4,-0.3728,-0.4302,-0.5437,-0.8586,0.3717,-0.846,2028
4,-0.2703,-0.4294,-0.52,-0.4663,0.2246,-0.7379,2030
4,-0.2307,-0.4631,-0.4976,-0.202,0.2168,-0.8247,2054
4,-0.0444,-0.5208,-0.449,-0.0506,0.1678,-0.5758,2036
4,-0.0095,-0.5388,-0.3716,0.0968,0.1557,-0.49,2048
5,0.0256,-0.5244,-0.1865,0.2962,0.1172,-0.2622,2052
5,0.0139,-0.4414,-0.0215,0.2775,0.1109,0.0385,2033
5,-0.0391,-0.3513,0.0977,0.3831,0.1614,0.236,2056
5,-0.0796,-0.4082,0.0891,0.4466,0.3121,0.3996,2021
5,-0.125,-0.4336,0.0007,0.4398,0.318,0.5184,2030
5,-0.1531,-0.4487,-0.1389,0.4428,0.2495,0.6817,2031
5,-0.2329,-0.4287,-0.1985,0.6015,0.0651,0.8605,2038
5,-0.3025,-0.405,-0.2312,0.7629,-0.1402,0.9749,2042
5,-0.3179,-0.3718,-0.261,0.9011,-0.4052,1.0485,2036
5,-0.3066,-0.3743,-0.2148,1.1196,-0.6092,1.1745,2025
5,-0.2974,-0.4883,-0.1465,1.2758,-0.7813,1.3282,2048
5,-0.3728,-0.6084,-0.0806,1.2975,-0.8709,1.4748,2022
5,-0.4202,-0.6572,-0.0334,1.2998,-1.1005,1.5519,2037
5,-0.3923,-0.6785,0.0134,1.4043,-1.4609,1.5868,2032
5,-0.3074,-0.7798,-0.0818,1.5399,-1.8245,1.6333,2037
5,-0.2305,-0.9045,-0.2297,1.6732,-2.1433,1.7125,2017
5,-0.1348,-1.0261,-0.3438,1.8446,-2.3049,1.8783,2047
5,-0.1377,-1.1489,-0.4346,2.0157,-2.1507,2.0951,2045
5,-0.2407,-1.2551,-0.4729,2.1019,-2.1214,2.4011,2037
5,-0.2698,-1.313,-0.5161,2.218,-2.1823,2.6481,2063
5,-0.2666,-1.3916,-0.616,2.5895,-2.1312,2.9035,2065
5,-0.3,-1.4609,-0.7651,2.9992,-2.1678,3.132,2002
5,-0.2917,-1.5249,-1.1069,3.4339,-2.2072,3.2492,2017
5,-0.1267,-1.6172,-1.3572,3.9403,-2.3514,3.438,2035
5,0.042,-1.5623,-1.3948,4.3634,-2.022,3.6862,2026
5,-0.0374,-1.6763,-1.5176,4.3634,-1.6446,3.8494,2037
5,-0.2188,-2.0,-1.6011,4.3634,-0.9766,3.5588,2026
5,-0.1697,-1.6265,-1.4346,4.3634,-0.2453,3.6846,2056
5,-0.1375,-1.353,-1.2864,4.3634,0.1795,3.9852,2007
5,0.0315,-1.6924,-0.9539,4.3634,0.7289,4.3237,2019
5,-0.1238,-1.5349,-0.8733,4.3634,0.9272,4.3634,2082
5,-0.3379,-1.2935,-0.9448,4.3634,1.1754,4.3634,2061
5,-0.6438,-1.2034,-1.0415,4.3634,1.7045,4.3634,2022
5,-1.2849,-1.3538,-1.231,4.3634,2.0089,4.3634,2018
5,-1.6226,-1.5371,-1.2939,4.3634,2.279,4.3634,2133
5,-2.0,-1.8733,-0.7634,4.3634,2.2635,4.3634,2039
5,-2.0,-2.0,0.6023,4.3634,1.0666,4.3634,2175
5,-1.1848,-2.0,1.9999,4.3634,2.4916,2.3811,2121
5,1.9999,-2.0,1.2373,-4.3635,-4.3635,-4.0281,2006
5,1.9999,-2.0,-0.8264,-4.3635,-4.3635,-1.0773,2215
5,1.9999,0.6211,-2.0,-4.3635,-4.3635,-1.6198,2013
5,-1.4688,0.5728,-2.0,-4.3635,-4.3635,-2.0248,2196
5,-2.0,0.3567,-2.0,-4.2144,-1.2336,-1.8318,2126
5,-2.0,-0.4265,-1.2673,-4.3635,1.4894,-1.3459,2370
5,0.4243,-0.5801,-0.6804,-4.3635,4.2917,-1.9896,2216
5,1.1042,-0.1292,-1.2002,-3.9795,4.2414,-1.8373,1966
5,-0.6404,0.4417,-1.333,-3.48,2.4775,-1.9584,1986
5,-0.9236,0.343,-1.1318,-3.3074,2.5089,-1.9679,2092
5,-0.8596,-0.4194,-1.2822,-2.9846,2.0584,-2.0712,2078
5,-0.5098,-0.3569,-1.3167,-2.8834,1.6684,-2.3361,2187
5,-0.0825,-0.3589,-1.4285,-2.9155,1.0633,-2.4892,1879
5,0.0322,-0.4294,-1.2424,-2.7694,0.5586,-2.7462,1929
5,0.0891,-0.8506,-1.0952,-2.6685,-0.1867,-2.9664,2066
5,0.1609,-1.1252,-0.9768,-2.6566,-0.59,-3.0397,2256
5,0.0273,-1.3574,-0.9736,-2.7066,-0.2955,-3.0164,2076
5,0.0938,-1.4536,-0.7654,-2.8592,0.0048,-2.887,2068
5,0.2598,-1.26,-0.707,-2.9833,0.3195,-2.6318,2056
5,0.3396,-1.0342,-0.8291,-2.9729,0.691,-2.4984,2009
5,0.4807,-0.9802,-0.8994,-2.9221,0.948,-2.4044,2042
5,0.4822,-0.9705,-0.9744,-2.7461,1.072,-2.2842,2038
5,0.4314,-0.9321,-1.0015,-2.544,1.154,-2.141,2036
5,0.4312,-0.908,-1.0288,-2.3927,1.2637,-2.0594,2044
5,0.4409,-0.9629,-0.9348,-2.437,1.474,-1.8809,2022
5,0.3455,-0.9673,-0.9485,-2.3792,1.8314,-1.819,2113
5,0.175,-0.9329,-0.9363,-2.3136,2.0655,-1.7089,2049
5,0.113,-0.9592,-0.9531,-2.213,2.1702,-1.6247,2048
5,0.1301,-0.8994,-0.8777,-2.1579,2.2236,-1.542,2036
5,0.1316,-0.8379,-0.7756,-2.1622,2.1523,-1.753,2030
5,0.0293,-0.729,-0.7124,-2.0889,2.1232,-1.7856,2034
5,-0.0078,-0.6125,-0.6013,-2.039,2.0611,-1.7937,2042
5,-0.0427,-0.6147,-0.5381,-2.0282,1.9889,-1.9021,2031
5,0.0386,-0.6057,-0.4861,-2.006,1.8382,-1.9857,2037
5,-0.0181,-0.4226,-0.3816,-1.9544,1.657,-1.9409,2042
5,0.009,-0.2244,-0.2507,-1.7707,1.3785,-1.8146,2062
5,0.061,-0.1704,-0.2734,-1.5451,1.1857,-1.7603,2013
5,0.1299,-0.2021,-0.3894,-1.3954,0.971,-1.7406,1995
5,0.2532,-0.2227,-0.5627,-1.2679,0.8717,-1.5086,2013
5,0.2461,-0.3403,-0.6938,-1.2165,0.9562,-1.3761,2026
5,0.187,-0.3716,-0.7773,-1.2515,1.0934,-0.9202,2035
5,-0.0344,-0.2285,-0.719,-1.0065,1.282,-0.5512,2026
5,-0.2051,-0.178,-0.5725,-0.6875,1.4259,-0.5127,2028
5,-0.1804,-0.3096,-0.489,-0.3542,1.6012,-0.4315,2027
5,-0.1069,-0.5554,-0.4438,-0.2055,1.6752,-0.3711,2031
5,-0.0818,-0.6729,-0.2878,-0.1918,1.5464,-0.2382,2031
5,-0.0977,-0.6929,-0.1182,-0.1023,1.3778,-0.228,2059
5,-0.156,-0.7371,-0.1201,-0.0257,1.1103,-0.1514,2031
5,-0.2778,-0.6951,-0.1755,0.1029,0.8518,-0.1999,2045
5,-0.3447,-0.5999,-0.1665,0.294,0.5418,-0.1736,2025
5,-0.3721,-0.6069,-0.1558,0.4396,0.4059,-0.1429,2030
5,-0.2239,-0.499,-0.0869,0.5285,0.2396,0.0317,2027
5,-0.25,-0.3872,0.0837,0.5421,0.283,0.123,2035
5,-0.2002,-0.3303,0.1626,0.5582,0.3876,0.3545,2037
5,-0.2432,-0.408,0.189,0.6212,0.5008,0.6995,2022
5,-0.2654,-0.4202,0.0422,0.5927,0.5888,0.9307,2033
5,-0.2412,-0.3774,-0.0598,0.7126,0.5568,1.1159,2049
5,-0.22,-0.395,-0.0574,0.7957,0.4024,1.3119,2027
5,-0.2285,-0.4365,-0.0566,0.8601,0.2501,1.4739,2041
5,-0.3188,-0.4119,-0.0242,0.9485,0.114,1.6327,2039
5,-0.3633,-0.4482,-0.0244,0.9231,-0.102,1.7249,2030
5,-0.2861,-0.4783,0.012,0.8846,-0.3855,1.808,2029
5,-0.2217,-0.5288,0.1755,0.936,-0.6678,1.9168,2037
6,-0.2034,-0.5723,0.2107,1.0158,-0.8612,2.0084,2044
6,-0.1738,-0.5764,0.1272,1.1082,-1.1174,2.0961,2052
6,-0.2634,-0.759,-0.1848,1.0238,-1.3051,2.132,2027
6,-0.2896,-0.8396,-0.501,1.0155,-1.5359,2.2547,2051
6,-0.1821,-0.8442,-0.5688,1.1789,-1.7056,2.3932,2017
6,-0.1602,-0.9685,-0.6118,1.3251,-1.8407,2.5884,2037
6,-0.2102,-1.0625,-0.6326,1.4579,-2.0884,2.7135,2064
6,-0.2815,-1.248,-0.6531,1.658,-2.3755,2.8528,2100
6,-0.2917,-1.4568,-0.5857,1.7688,-2.5425,2.9931,2026
6,-0.3511,-1.6125,-0.8384,2.0285,-2.6992,3.1673,2024
6,-0.4758,-1.6675,-1.1821,2.4645,-2.8139,3.287,2018
6,-0.5266,-1.7742,-1.4746,3.0308,-2.777,3.3971,2052
6,-0.3657,-2.0,-1.5696,3.6648,-2.7739,3.5647,2034
6,-0.4021,-2.0,-1.4971,4.2909,-2.6112,3.6589,2032
6,-0.4099,-2.0,-1.489,4.3634,-2.2961,3.68,2092
6,-0.3335,-1.9595,-1.481,4.3634,-1.7735,3.9033,2051
6,-0.0244,-2.0,-1.3867,4.3634,-1.2432,4.317,1999
6,0.1875,-1.9448,-1.2866,4.3634,-0.8063,4.3634,2063
6,0.052,-1.812,-1.2124,4.3634,-0.6317,4.3634,2040
6,-0.4204,-1.7458,-1.1721,4.3634,-0.3184,4.3634,2032
6,-0.9543,-1.6384,-1.0559,4.3634,0.0702,4.3634,2033
6,-1.1746,-1.6746,-0.9673,4.3634,0.3429,4.3634,2009
6,-1.1416,-1.7988,-0.8276,4.3634,0.7865,4.3634,2049
6,-1.0796,-1.9192,-0.5515,4.3634,1.0311,4.3634,2033
6,-1.0269,-2.0,-0.0181,4.3634,0.9602,4.3634,2062
6,-1.5132,-1.9082,0.6255,4.3634,0.5974,4.3634,2045
6,-1.4519,-1.2927,1.3496,4.3634,0.6239,4.3634,2087
6,1.9999,-2.0,-2.0,-1.4751,-3.7061,-1.6335,1729
6,1.9999,-2.0,1.8704,-3.8808,-4.3635,-0.8753,1991
6,1.9999,-2.0,-2.0,-4.3635,-4.3635,-0.8914,2219
6,-0.8428,0.6956,-1.8362,-4.3635,-4.3635,-0.3931,1971
6,-0.6812,0.6533,-2.0,-4.3635,-4.3635,-0.4147,1834
6,-2.0,-0.6946,-0.4534,-4.3635,-1.843,-2.0735,1848
6,-2.0,-0.489,-0.5112,-4.3635,1.6736,-2.3854,2118
6,-0.7581,0.1685,-0.7688,-4.3635,3.3118,-2.6173,2216
6,-0.6445,0.5662,-1.8628,-3.7608,3.2103,-2.2963,2052
6,-1.448,0.4915,-2.0,-3.7291,2.4651,-2.8152,2289
6,-0.5696,-0.0493,-1.0029,-3.4322,1.6301,-3.152,2105
6,0.124,0.1367,-1.2483,-3.0773,0.8994,-2.8815,2215
6,-0.0779,-0.4478,-1.342,-2.5963,-0.0465,-3.083,2083
6,0.2317,-0.9712,-1.4436,-2.437,-0.9508,-3.0798,2090
6,-0.0776,-1.0244,-1.0081,-2.5231,-0.9975,-3.0829,2070
6,0.0374,-1.0889,-0.7976,-2.6458,-0.8915,-2.9822,2169
6,0.103,-1.2556,-0.7832,-2.6469,-0.4175,-2.7468,2071
6,-0.1189,-1.5054,-0.6211,-2.887,-0.0609,-2.7759,2039
6,-0.0571,-1.4321,-0.5234,-3.0935,0.3191,-2.5221,1998
6,-0.1125,-1.2546,-0.5759,-3.1768,0.8012,-2.4028,2042
6,-0.0361,-1.1765,-0.6404,-3.1469,1.0215,-2.331,2025
6,0.0464,-1.1021,-0.7485,-3.0845,1.1568,-2.1666,2015
6,0.0723,-1.115,-0.7761,-2.9692,1.3492,-2.0707,1991
6,0.1431,-1.0554,-0.8696,-2.9094,1.3435,-2.0836,2033
6,0.1733,-0.876,-0.9077,-2.741,1.3378,-2.115,2047
6,0.1243,-0.8894,-0.9055,-2.681,1.4684,-2.173,2016
6,0.0869,-0.9329,-0.8972,-2.5631,1.7338,-2.0268,2050
6,0.0071,-0.9485,-0.8704,-2.4216,1.744,-2.022,2037
6,0.1199,-0.9868,-0.8633,-2.332,1.864,-1.8911,2032
6,0.1584,-0.8979,-0.844,-2.2534,2.029,-1.8121,2038
6,0.1233,-0.7747,-0.8201,-2.1487,2.0687,-1.9502,2041
6,0.2332,-0.8135,-0.7549,-2.0242,2.214,-1.7161,2032
6,0.2214,-0.7749,-0.6917,-1.8875,2.3856,-1.6022,2031
6,0.1399,-0.7522,-0.6401,-1.7648,2.4478,-1.6122,2041
6,0.0381,-0.6826,-0.624,-1.7159,2.486,-1.6321,2031
6,0.0281,-0.5767,-0.561,-1.6329,2.5301,-1.5496,2038
6,0.0327,-0.4929,-0.4783,-1.4588,2.4978,-1.5022,2032
6,0.0989,-0.458,-0.4619,-1.3131,2.3948,-1.4213,2022
6,0.1196,-0.4004,-0.4385,-1.2908,2.3791,-1.391,2033
6,0.1956,-0.3513,-0.4429,-1.1708,2.272,-1.3635,2049
6,0.2383,-0.3564,-0.4343,-1.0491,2.0608,-1.2099,2044
6,0.1431,-0.3645,-0.4656,-0.9923,1.9562,-1.2014,2047
6,0.0894,-0.3865,-0.543,-1.0668,1.864,-1.0673,2021
6,0.0137,-0.4119,-0.53,-1.1212,1.7602,-0.9484,2022
6,-0.1052,-0.3848,-0.5073,-0.9781,1.7596,-0.7837,2038
6,-0.2019,-0.3628,-0.4153,-0.6822,1.6383,-0.6272,2009
6,-0.1226,-0.3831,-0.4216,-0.4914,1.4201,-0.5617,2044
6,-0.1294,-0.3726,-0.438,-0.3808,1.1833,-0.5195,2021
6,-0.1108,-0.3538,-0.3987,-0.2245,1.0296,-0.4761,2037
6,-0.2253,-0.3872,-0.3394,-0.0473,0.9214,-0.3498,2000
6,-0.2258,-0.4441,-0.3254,0.1856,0.8308,-0.2856,2054
6,-0.1968,-0.5625,-0.2866,0.4526,0.7818,-0.3248,2051
6,-0.1462,-0.6213,-0.3049,0.5117,0.7351,-0.24,2038
6,-0.0271,-0.6028,-0.2512,0.3683,0.613,-0.1846,2033
6,0.1382,-0.4482,-0.0679,0.3665,0.5127,-0.0173,2031
6,0.137,-0.3311,0.1055,0.3719,0.6112,0.2565,2035
6,0.0225,-0.3857,0.1311,0.3629,0.7307,0.5297,2021
6,-0.0186,-0.4868,0.0776,0.2814,0.8548,0.6557,2047
6,0.0647,-0.5259,-0.0757,0.3468,0.8312,0.9776,2021
6,-0.095,-0.467,-0.1479,0.3787,0.7569,1.1599,2025
6,-0.1221,-0.3965,-0.2036,0.3979,0.4594,1.3043,2047
6,-0.168,-0.3682,-0.1829,0.5569,0.2686,1.4713,2049
6,-0.2532,-0.3645,-0.1638,0.6389,0.0935,1.562,2032
6,-0.3125,-0.3408,-0.1138,0.7992,-0.0502,1.6835,2028
6,-0.2861,-0.3835,-0.0073,0.9657,-0.2099,1.8133,2041
6,-0.2971,-0.4731,-0.0083,1.0907,-0.3305,1.9294,2032
6,-0.3081,-0.5798,0.0146,1.1188,-0.4304,2.0776,2031
6,-0.2773,-0.623,0.0596,1.1363,-0.6991,2.1471,2062
6,-0.2642,-0.6777,0.0115,1.1607,-0.9495,2.1923,2058
6,-0.397,-0.8174,-0.0825,1.2097,-1.0674,2.3108,2021
6,-0.4971,-0.9375,-0.1262,1.2284,-1.3475,2.4534,2028
6,-0.5112,-1.0913,-0.1284,1.3423,-1.7235,2.5549,2042
6,-0.4819,-1.2671,-0.1416,1.3924,-2.1835,2.5741,2041
6,-0.4119,-1.4854,-0.085,1.4533,-2.7528,2.5932,2049
6,-0.3545,-1.6465,-0.1387,1.5474,-3.3682,2.5874,2040
6,-0.3181,-1.7385,-0.3562,1.7492,-3.9431,2.7279,2025
6,-0.3228,-1.8193,-0.7239,2.1161,-4.3635,2.8364,2010
7,-0.2925,-1.9143,-1.0691,2.4654,-4.3635,3.0597,2020
7,-0.345,-1.8804,-1.2742,2.9225,-4.3635,3.244,2013
7,-0.4021,-1.801,-1.3477,3.6426,-4.3635,3.4681,1996
7,-0.3906,-1.8892,-1.5488,4.3634,-4.3635,3.7444,2038
7,-0.2524,-2.0,-1.8987,4.3634,-3.9218,3.8703,2049
7,-0.0347,-2.0,-2.0,4.3634,-3.1938,4.0808,2068
7,0.1138,-1.9639,-2.0,4.3634,-2.2756,4.2299,2039
7,0.2024,-2.0,-2.0,4.3634,-1.4161,4.3478,2055
7,0.2236,-2.0,-1.9058,4.3634,-0.4829,4.3634,2112
7,0.0718,-1.9229,-1.7317,4.3634,0.3426,4.3634,2074
7,-0.2107,-1.7256,-1.3879,4.3634,0.6367,4.3634,2014
7,-0.7222,-1.832,-0.9021,4.3634,0.9653,4.3634,2055
7,-1.3508,-1.9585,0.0051,4.3634,0.5208,4.3634,2034
7,-1.6445,-1.9043,0.9492,4.3634,-0.1017,4.3634,2055
7,-1.7935,-2.0,1.8298,4.3634,-0.8147,4.3634,2059
7,-1.8564,-1.9158,1.9999,4.3634,-0.9614,4.3634,1926
7,1.9999,-2.0,-1.5322,-4.3635,-4.3635,-2.3091,1854
7,1.9999,-2.0,0.5615,-4.3635,-4.3635,0.306,1940
7,1.9999,-2.0,-2.0,-4.3635,-4.3635,-0.8271,2353
7,-1.9731,0.8728,-2.0,-4.3635,-4.3635,-0.1432,1937
7,-0.6895,1.6467,-2.0,-4.3635,-4.3635,-1.0481,1882
7,-2.0,-0.0222,-1.5337,-4.3635,-0.1902,-1.8552,1855
7,-1.5286,-0.2627,-1.3792,-4.3635,1.2655,-2.6755,2248
7,0.6599,0.1394,-1.6477,-4.3635,2.1065,-2.2491,2013
7,-0.2346,0.5247,-1.2478,-4.3635,2.533,-1.9133,2068
7,-1.2751,0.8267,-0.9885,-4.3635,2.0824,-2.8255,2046
7,-1.0908,0.5505,-0.7683,-4.0066,2.4486,-3.0229,1986
7,-0.3965,0.2893,-1.4539,-3.8849,1.8398,-2.6797,2093
7,-0.0725,-0.1038,-1.5935,-3.7348,1.231,-2.6488,2145
7,0.0188,-0.4802,-1.1851,-3.3845,0.4075,-2.9517,2091
7,0.45,-0.7161,-1.062,-3.2606,-0.2634,-2.8445,2009
7,0.4858,-0.9233,-0.8916,-3.219,-0.3239,-2.7245,2086
7,0.1895,-0.8867,-0.8997,-3.1258,-0.0087,-2.6249,1743
7,0.2295,-0.9631,-0.9915,-3.1301,0.5529,-2.4112,2114
7,0.2925,-1.144,-0.9336,-3.0837,0.856,-2.161,1893
7,0.3718,-1.3208,-0.9233,-3.063,1.1749,-2.0076,2081
7,0.2886,-1.2451,-0.7874,-3.0946,1.2826,-1.8021,2032
7,0.0842,-1.0781,-0.7832,-3.067,1.4994,-1.6663,1916
7,0.0757,-1.0225,-0.835,-3.0681,1.8069,-1.6438,1984
7,-0.0503,-0.9497,-0.9031,-3.0504,2.031,-1.6313,2056
7,-0.1516,-0.8831,-0.9546,-3.0245,2.1089,-1.5708,2026
7,-0.114,-0.853,-1.0095,-2.9384,2.0361,-1.4873,2023
7,0.0376,-0.8743,-0.9932,-2.8468,1.7809,-1.375,2027
7,0.1667,-0.8516,-0.9463,-2.7444,1.5312,-1.341,2027
7,0.1523,-0.656,-0.9197,-2.6549,1.3781,-1.519,2037
7,0.1768,-0.7754,-0.9292,-2.412,1.3969,-1.3279,2037
7,0.0881,-0.8564,-0.9868,-2.1245,1.503,-1.4143,2030
7,0.1753,-0.8069,-1.0093,-1.898,1.7447,-1.1635,2033
7,0.2014,-0.8469,-0.9866,-1.6882,1.9836,-1.0879,2032
7,0.1763,-0.645,-0.9365,-1.5024,2.3174,-0.9819,2049
7,0.1335,-0.635,-0.8784,-1.2665,2.7466,-1.0057,2041
7,0.197,-0.8042,-0.7771,-1.1086,2.9871,-0.9335,2043
7,0.2507,-0.8772,-0.6836,-1.073,3.0255,-0.9344,2043
7,0.2378,-0.7573,-0.571,-1.0195,2.9895,-0.9626,2039
7,0.2595,-0.6855,-0.3931,-1.0053,2.9482,-0.8814,2038
7,0.2612,-0.6646,-0.2717,-1.0535,3.0325,-0.9923,2039
7,0.2612,-0.5859,-0.1311,-1.1833,3.0822,-0.8513,2043
7,0.1685,-0.5142,-0.1279,-1.1904,3.0409,-0.8283,2038
7,0.1272,-0.5476,-0.2083,-1.0575,2.9265,-0.8048,2027
7,0.1414,-0.5757,-0.3455,-0.938,2.7366,-0.7027,2032
7,0.0869,-0.5503,-0.5081,-0.9869,2.4702,-0.761,2016
7,0.0164,-0.3508,-0.6406,-1.0477,2.1321,-0.781,2032
7,-0.1416,-0.1592,-0.7029,-0.8909,1.6583,-0.6356,2042
7,-0.3508,-0.1416,-0.6313,-0.5617,1.4227,-0.4311,2033
7,-0.512,-0.312,-0.6213,-0.3269,1.3134,-0.344,2044
7,-0.4893,-0.3857,-0.5229,-0.2697,1.1481,-0.1408,2040
7,-0.3894,-0.3113,-0.3899,-0.1273,0.8295,-0.1571,2035
7,-0.2981,-0.2749,-0.2473,0.1701,0.4963,-0.2436,2040
7,-0.2222,-0.2637,-0.147,0.2978,0.1907,-0.2438,2018
7,-0.1733,-0.3276,-0.1157,0.388,-0.0268,-0.1495,2019
7,-0.0037,-0.3584,-0.0957,0.4513,-0.1446,0.0996,2027
7,-0.0486,-0.3931,-0.043,0.4698,-0.179,0.3175,2017
7,-0.02,-0.4333,-0.0364,0.3137,-0.0828,0.5084,2036
7,-0.0078,-0.3801,-0.0496,0.2441,-0.0423,0.7325,2037
7,-0.0249,-0.345,0.0276,0.3456,-0.0238,0.9234,2044
7,-0.0251,-0.2878,0.0398,0.338,0.0241,1.0455,2035
7,-0.0894,-0.2947,0.0266,0.3804,-0.0212,1.1971,2032
7,-0.1233,-0.3479,-0.0222,0.4221,-0.1246,1.3794,2050
7,-0.177,-0.3689,-0.0901,0.4813,-0.3586,1.4525,2050
7,-0.2893,-0.3359,-0.2004,0.5329,-0.493,1.5632,2017
7,-0.3672,-0.3198,-0.217,0.6791,-0.6361,1.6821,2048
7,-0.4272,-0.3726,-0.2173,0.7943,-0.8011,1.6933,2026
7,-0.397,-0.4478,-0.2065,0.9274,-0.9926,1.7114,2067
7,-0.3745,-0.5276,-0.1135,1.123,-1.2226,1.7454,2044
7,-0.3347,-0.689,-0.0349,1.1995,-1.5209,1.7944,2045
7,-0.2686,-0.7944,-0.011,1.3139,-1.8951,1.8624,2045
7,-0.3279,-0.9421,-0.0483,1.4255,-2.0108,1.9409,2034
7,-0.4941,-1.1531,-0.1882,1.5178,-2.1001,2.0688,2032
7,-0.5515,-1.3945,-0.4136,1.6189,-2.2462,2.0686,2073
7,-0.4158,-1.7024,-0.6265,1.6921,-2.7225,2.0937,2041
7,-0.2227,-1.8062,-0.7024,1.8708,-3.1072,2.1983,2032
7,-0.0078,-1.6274,-0.6021,2.2023,-3.4415,2.477,2061
7,0.0383,-1.5959,-0.5774,2.3498,-3.9483,2.7418,2059
7,0.0378,-1.6604,-0.6702,2.6988,-4.0442,2.913,2050
7,-0.0059,-1.7593,-1.0911,3.0883,-3.8,3.2728,2053
7,-0.1169,-1.8335,-1.4851,3.5215,-3.2697,3.6482,1988
7,-0.1082,-1.7798,-1.731,3.9271,-2.879,4.027,2022
7,-0.0657,-1.6785,-1.9021,4.3634,-2.4947,4.2626,2037
7,-0.1233,-1.5588,-1.937,4.3634,-2.0599,4.3634,2049
7,-0.0754,-1.4827,-1.9697,4.3634,-1.6072,4.3634,2001
7,0.1252,-1.5862,-1.9429,4.3634,-0.9997,4.3634,2017
7,0.2827,-1.6648,-1.8765,4.3634,-0.3084,4.3634,2035
7,0.1716,-1.6724,-1.6953,4.3634,0.4333,4.3634,2016
8,-0.2485,-1.5994,-1.5315,4.3634,0.8939,4.3634,2024
8,-1.022,-1.5691,-1.073,4.3634,1.2045,4.3634,2024
8,-1.7834,-1.7422,-0.1204,4.3634,1.4657,4.3634,2065
8,-2.0,-1.981,0.7388,4.3634,1.633,4.3634,2101
8,-2.0,-2.0,1.4802,4.3634,1.3978,4.3634,2074
8,-1.8479,-1.7986,1.9999,4.3634,0.4337,4.3634,2040
8,1.9999,-2.0,-0.4536,-0.2633,-3.226,-0.5177,2029
8,1.9999,-2.0,0.2942,-4.3635,-4.3635,-1.7025,1936
8,1.9999,-2.0,-2.0,-4.3635,-4.3635,-0.1037,2315
8,-1.0627,0.5095,-2.0,-4.3635,-4.3635,-0.4201,2147
8,-1.2,1.562,-2.0,-4.3635,-4.3635,-0.86,1906
8,-2.0,0.2075,-1.3726,-4.3635,0.3381,-1.3786,1983
8,-2.0,0.0461,-1.3206,-4.3635,1.1689,-2.2824,2238
8,1.2229,-0.3335,-1.4409,-4.3635,3.1204,-1.7486,1956
8,0.4617,0.5977,-1.4446,-4.3635,3.5826,-2.4286,2013
8,-0.9346,0.8098,-1.2886,-4.15,2.1863,-2.699,1955
8,-0.9954,0.688,-0.9629,-4.2144,2.3795,-2.602,1814
8,-1.0117,0.7095,-1.4263,-3.6897,2.2931,-2.131,1960
8,-0.3845,0.4221,-1.6541,-3.4563,1.6724,-2.1381,2011
8,-0.0371,-0.0894,-1.4573,-3.0006,0.9729,-2.665,2223
8,0.3459,-0.7043,-1.2476,-2.9501,-0.1571,-2.9634,2155
8,0.6848,-1.1267,-1.054,-2.8183,-0.5048,-2.6522,1987
8,0.5581,-1.0527,-1.1125,-2.9335,-0.4365,-2.5092,2010
8,0.5112,-1.0781,-1.0747,-3.0023,0.0465,-2.4175,2172
8,0.4407,-1.1809,-0.9934,-3.0042,0.3991,-2.2152,2006
8,0.4104,-1.3215,-0.8848,-3.0028,0.9286,-1.8985,2249
8,0.4055,-1.3611,-0.8345,-3.0032,1.5363,-1.6668,2099
8,0.1404,-1.2585,-0.7622,-2.9857,1.9872,-1.5241,2106
8,-0.0205,-1.1218,-0.7825,-2.9424,2.2843,-1.556,2019
8,-0.0691,-1.0671,-0.7881,-2.8512,2.3197,-1.5491,2038
8,-0.0671,-1.0583,-0.8206,-2.742,2.1624,-1.5036,2026
8,-0.0176,-1.0095,-0.8538,-2.6127,1.9049,-1.5424,2029
8,0.0581,-0.928,-0.9126,-2.4932,1.6595,-1.5231,2022
8,0.0852,-0.769,-0.9114,-2.3398,1.5857,-1.6648,2027
8,0.1399,-0.6782,-0.9207,-2.2322,1.543,-1.5756,2035
8,0.1533,-0.5811,-0.9185,-2.073,1.6286,-1.5554,2043
8,0.0566,-0.5417,-0.9126,-1.898,1.7808,-1.4272,2032
8,0.0276,-0.5444,-0.936,-1.7217,1.9185,-1.3053,2033
8,0.0388,-0.5073,-0.9058,-1.4744,2.0827,-1.2338,2036
8,-0.0134,-0.5361,-0.8525,-1.2673,2.2305,-1.1724,2041
8,-0.009,-0.5886,-0.7822,-1.0821,2.3499,-1.0994,2035
8,-0.0283,-0.6306,-0.731,-0.9669,2.4535,-1.0966,2037
8,0.0488,-0.6597,-0.6619,-0.8463,2.3613,-1.0993,2049
8,0.1382,-0.5957,-0.6079,-0.7701,2.0672,-1.1033,2035
8,0.2087,-0.4792,-0.5747,-0.7642,1.894,-1.0962,2032
8,0.2263,-0.4089,-0.5115,-0.7879,1.6289,-1.1117,2038
8,0.1406,-0.3828,-0.4255,-0.8194,1.4234,-1.1066,2032
8,0.0364,-0.3103,-0.4272,-0.7265,1.1872,-0.9827,2018
8,-0.0747,-0.2947,-0.4106,-0.5092,0.9387,-0.7982,2041
8,-0.1172,-0.3787,-0.374,-0.4578,0.8686,-0.8155,2041
8,-0.061,-0.4072,-0.3982,-0.4948,0.9554,-0.7268,2039
8,-0.0183,-0.4116,-0.3579,-0.4437,0.9621,-0.6545,2023
8,0.0151,-0.3059,-0.3706,-0.3453,0.963,-0.492,2049
8,-0.0317,-0.3916,-0.3093,-0.2365,0.9922,-0.4235,2039
8,-0.0759,-0.4478,-0.3818,-0.2549,1.0071,-0.3457,2027
8,-0.0674,-0.436,-0.3762,-0.1888,0.8714,-0.0403,2049
8,-0.1331,-0.4619,-0.3384,0.0594,0.7672,0.0392,2043
8,-0.0381,-0.4924,-0.271,0.2257,0.6185,0.002,2033
8,-0.033,-0.4534,-0.2144,0.2731,0.5355,0.0537,2038
8,-0.0762,-0.3079,-0.1602,0.3743,0.5068,0.2498,2033
8,-0.1194,-0.3281,-0.0747,0.6363,0.4771,0.3812,2041
8,-0.0649,-0.4177,-0.0649,0.6889,0.483,0.4354,2022
8,-0.0583,-0.4819,-0.1565,0.6046,0.3983,0.5492,2030
8,-0.0352,-0.4072,-0.1792,0.6106,0.271,0.6967,2049
8,-0.0129,-0.3572,-0.1387,0.6774,0.0836,0.7967,2039
8,-0.0623,-0.3057,-0.167,0.7417,-0.0036,0.8645,2059
8,-0.1201,-0.249,-0.197,0.797,-0.0908,0.954,2039
8,-0.158,-0.2812,-0.1316,0.9336,-0.1804,1.085,2033
8,-0.1846,-0.2952,-0.0671,1.0814,-0.2152,1.2007,2052
8,-0.2256,-0.3281,-0.0952,1.1664,-0.1847,1.3295,2020
8,-0.2307,-0.3489,-0.1633,1.2157,-0.2175,1.4447,2025
8,-0.217,-0.3608,-0.1675,1.3596,-0.3012,1.5511,2051
8,-0.1628,-0.4055,-0.189,1.4276,-0.4809,1.593,2034
8,-0.1792,-0.4775,-0.1978,1.5115,-0.677,1.6736,2046
8,-0.2083,-0.5713,-0.2058,1.6169,-0.9074,1.7594,2037
8,-0.2378,-0.6545,-0.24,1.7756,-1.1364,1.8185,2032
8,-0.2529,-0.769,-0.2683,1.9112,-1.3742,1.8775,2036
8,-0.1904,-0.8933,-0.228,2.0515,-1.7219,1.9732,2008
8,-0.1113,-0.9875,-0.1545,2.0921,-1.97,1.9831,2042
8,-0.1162,-1.0994,-0.1924,2.2027,-2.0606,2.0558,2030
8,-0.1453,-1.2102,-0.3398,2.4039,-2.1775,2.2064,2009
8,-0.1362,-1.3472,-0.5708,2.6007,-2.2141,2.4328,2041
8,-0.1655,-1.4209,-0.6431,2.805,-2.1682,2.628,2010
8,-0.147,-1.4363,-0.7061,3.0532,-2.1345,2.8388,2019
8,-0.1489,-1.4976,-0.9099,3.3866,-1.9562,2.8924,2012
8,-0.2258,-1.5967,-1.196,3.847,-1.8868,3.1352,2033
8,-0.1963,-1.7568,-1.4634,4.3117,-1.76,3.3119,2062
8,-0.106,-1.8843,-1.6523,4.3634,-1.4588,3.5254,2037
8,-0.1733,-1.8555,-1.5991,4.3634,-1.1914,3.793,2058
8,-0.2375,-1.8149,-1.5188,4.3634,-0.777,3.9402,2075
8,-0.1726,-1.9348,-1.3108,4.3634,-0.1294,4.0438,2065
8,-0.094,-2.0,-1.1726,4.3634,0.5614,4.169,2018
8,-0.1328,-2.0,-0.9543,4.3634,0.9078,4.3634,2014
8,-0.4163,-2.0,-0.812,4.3634,1.1271,4.3634,2023
8,-0.9451,-2.0,-0.585,4.3634,1.3125,4.3634,2050
8,-1.4058,-1.9851,-0.3296,4.3634,1.3198,4.3634,2033
8,-1.6926,-2.0,-0.074,4.3634,1.4242,4.3634,2033
8,-1.7837,-2.0,0.165,4.3634,1.5359,4.3634,2043
8,-1.6843,-2.0,0.49,4.3634,1.2362,4.3634,2051
8,-1.6609,-2.0,1.0825,4.1289,0.5295,4.3634,2045
8,-1.8286,-1.5906,1.4753,4.3634,2.2383,4.0343,2170
8,1.9999,-2.0,-1.7004,-4.3635,-4.3635,-4.2869,1821
9,1.9999,-2.0,0.3733,-4.3635,-4.3635,-0.236,2128
9,1.9999,-2.0,-2.0,-4.3635,-4.3635,-2.2569,2077
9,-2.0,-0.062,-2.0,-4.3635,-4.3635,-0.7677,1982
9,-1.457,1.0659,-2.0,-4.3635,-4.3635,0.1144,1917
9,-2.0,1.425,-1.355,-4.3635,0.7971,-0.6265,1896
9,-2.0,0.6184,-1.6318,-4.3635,2.4649,-2.1379,2091
9,-0.3794,-0.0852,-1.5798,-4.0696,4.3634,-2.1884,2013
9,0.3513,-0.0083,-0.6619,-4.1518,3.7063,-1.8094,2184
9,-0.7273,0.5342,-0.854,-3.3204,1.9881,-1.8189,2057
9,-1.1697,0.4131,-1.1321,-2.8626,2.0417,-2.2141,2222
9,-0.2576,0.1196,-1.5344,-2.8597,1.0625,-2.2356,2038
9,0.2468,-0.2458,-1.6025,-2.6448,0.1995,-2.4416,2065
9,0.1274,-0.7246,-1.1724,-2.4689,-0.4888,-2.6338,2061
9,0.5051,-0.9836,-0.9192,-2.4975,-1.0396,-2.5918,2236
9,0.3503,-1.1589,-0.7727,-2.5529,-0.9785,-2.5406,1941
9,0.0723,-1.3042,-0.6685,-2.7252,-0.4947,-2.5653,2115
9,0.1636,-1.5339,-0.562,-2.9399,-0.0013,-2.5217,1971
9,0.1143,-1.3516,-0.4702,-3.0518,0.2701,-2.3666,2084
9,0.0364,-1.1877,-0.55,-3.0906,0.6299,-2.2944,2050
9,0.0764,-1.0818,-0.5884,-3.1074,0.8367,-2.2466,2031
9,0.1169,-0.8882,-0.6646,-3.0477,0.9733,-2.198,2032
9,0.0925,-0.856,-0.7249,-2.9299,1.0744,-2.1205,2040
9,0.1602,-0.853,-0.783,-2.7862,1.0813,-2.0205,2018
9,0.146,-0.8506,-0.7942,-2.6418,0.9746,-1.9682,2044
9,0.1167,-0.8782,-0.8315,-2.4827,0.9468,-1.896,2028
9,0.0898,-0.8701,-0.8247,-2.3517,1.0786,-1.7771,2022
9,0.1152,-0.7876,-0.8296,-2.1935,1.2593,-1.6844,2045
9,0.1426,-0.6863,-0.8191,-2.0398,1.4637,-1.555,2028
9,0.1501,-0.666,-0.8464,-1.8542,1.6712,-1.4284,2039
9,0.1062,-0.6875,-0.8413,-1.6819,1.8739,-1.3326,2035
9,0.1191,-0.7219,-0.7866,-1.4836,2.0461,-1.1431,2040
9,0.0374,-0.6868,-0.7124,-1.3364,2.2856,-1.2074,2035
9,0.0662,-0.6646,-0.6777,-1.1388,2.4028,-1.1774,2048
9,0.0334,-0.6995,-0.6455,-1.0299,2.5713,-1.0255,2030
9,0.0522,-0.6809,-0.5959,-1.0103,2.5366,-1.1319,2042
9,0.1218,-0.6345,-0.5654,-1.0427,2.3348,-1.1339,2038
9,0.1985,-0.6743,-0.5171,-1.073,2.1949,-1.1347,2034
9,0.1965,-0.677,-0.53,-1.0949,1.994,-1.2411,2036
9,0.1443,-0.6072,-0.5684,-1.0475,1.7009,-1.2066,2048
9,0.1748,-0.5459,-0.5625,-0.9585,1.4788,-1.1085,2037
9,0.1755,-0.4624,-0.5505,-0.8738,1.3435,-0.9734,2051
9,0.1118,-0.4333,-0.5095,-0.7657,1.378,-0.9118,2029
9,0.123,-0.4114,-0.4807,-0.7319,1.4885,-0.8103,2036
9,0.1252,-0.5916,-0.3945,-0.6762,1.5789,-0.671,2032
9,0.0798,-0.5339,-0.3479,-0.7526,1.7061,-0.5188,2044
9,0.0322,-0.459,-0.3594,-0.6882,1.7037,-0.3658,2027
9,-0.1235,-0.478,-0.3472,-0.5715,1.5251,-0.1868,2036
9,-0.2148,-0.6147,-0.2751,-0.3908,1.4182,-0.1277,2026
9,-0.2024,-0.5889,-0.2454,-0.2579,1.2505,-0.1908,2053
9,-0.1641,-0.4368,-0.2266,-0.1325,0.9853,-0.1557,2039
9,-0.1177,-0.3201,-0.2256,-0.0703,0.7811,-0.0246,2032
9,-0.1123,-0.2708,-0.2258,-0.0439,0.5465,0.1028,2029
9,-0.0447,-0.2578,-0.1711,0.0795,0.3734,0.2377,2018
9,-0.0662,-0.384,-0.095,0.1479,0.2402,0.3204,2025
9,-0.0178,-0.3843,-0.0735,0.2139,0.123,0.4225,2020
9,-0.0889,-0.3828,-0.05,0.2617,0.03,0.558,2033
9,-0.0481,-0.3345,-0.0935,0.1844,-0.0976,0.7086,2039
9,-0.0745,-0.2864,-0.0886,0.2333,-0.1333,0.8581,2041
9,-0.1274,-0.2148,-0.0879,0.2555,-0.2449,1.0062,2038
9,-0.1819,-0.2466,-0.1284,0.3231,-0.3408,1.1673,2023
9,-0.2419,-0.2297,-0.1782,0.4362,-0.4229,1.2406,2026
9,-0.2319,-0.3279,-0.2378,0.6275,-0.5866,1.3703,2048
9,-0.2207,-0.4136,-0.1895,0.7267,-0.7517,1.4086,2046
9,-0.2178,-0.4319,-0.0613,0.865,-0.9552,1.4872,2032
9,-0.2078,-0.4719,0.0398,1.0092,-1.1615,1.5902,2023
9,-0.2412,-0.5481,0.0439,1.0858,-1.2188,1.6436,2062
9,-0.3062,-0.6421,-0.0876,1.0704,-1.335,1.6812,2007
9,-0.2529,-0.6677,-0.1592,1.213,-1.6594,1.7679,2032
9,-0.1245,-0.7722,-0.2439,1.4081,-1.7811,1.865,2029
9,-0.0728,-0.9365,-0.2566,1.6675,-1.9088,2.0029,2065
9,-0.0327,-1.1274,-0.2566,1.8261,-2.0073,2.1216,2014
9,-0.0305,-1.3123,-0.2332,1.906,-1.7843,2.2517,2026
9,-0.1411,-1.481,-0.1255,2.0446,-1.7808,2.4912,2034
9,-0.2112,-1.5679,-0.0166,2.2344,-1.7688,2.7671,2047
9,-0.2405,-1.6689,-0.1118,2.4326,-1.6711,2.9403,2038
9,-0.2795,-1.667,-0.4246,2.5396,-1.8646,3.1869,2087
9,-0.2961,-1.5859,-0.8596,2.7089,-1.9294,3.3601,1973
9,-0.3826,-1.6233,-1.1313,3.0869,-2.223,3.5173,2053
9,-0.4707,-1.6892,-1.3806,3.654,-2.3115,3.6255,2060
9,-0.385,-1.77,-1.6558,4.2612,-2.4483,3.684,2018
9,-0.2725,-1.7944,-1.8145,4.3634,-2.4067,3.7581,2041
9,-0.0969,-1.7854,-1.7402,4.3634,-2.0638,3.8016,2062
9,-0.0544,-1.8311,-1.6143,4.3634,-1.3766,3.8807,2023
9,-0.0796,-1.8582,-1.5127,4.3634,-0.6706,4.0943,2023
9,-0.147,-1.7446,-1.4111,4.3634,0.0346,4.3634,2029
9,-0.2568,-1.502,-1.3806,4.3634,0.5718,4.3634,2059
9,-0.6299,-1.4475,-1.3435,4.3634,0.9989,4.3634,2026
9,-1.0247,-1.3611,-1.2576,4.3634,1.1623,4.3634,2054
9,-1.6108,-1.4629,-1.0918,4.3634,1.6325,4.3634,2040
9,-2.0,-1.6394,-0.9031,4.3634,2.6099,4.3634,2021
9,-2.0,-2.0,-0.2207,4.3634,4.1393,4.3634,2061
9,-2.0,-2.0,0.938,4.3634,4.3634,4.3634,2024
9,1.9019,-2.0,-0.1455,2.0815,4.3634,2.4313,2019
9,1.9999,-2.0,1.9999,-3.1761,-0.8661,-2.0318,2087
9,1.9999,-2.0,0.8845,-4.3635,-4.3635,-1.3015,2258
9,1.5676,-1.3716,-1.1511,-4.3635,-4.3635,-2.754,1817
9,-0.7395,-0.0161,-2.0,-4.3635,-4.3635,-0.445,1990
9,-2.0,0.8137,-1.2749,-4.3635,-4.3635,-2.2242,1924
9,-2.0,0.8916,-1.2554,-4.3635,1.2035,-2.2727,1997
9,-2.0,-0.4502,-1.8071,-4.3635,4.2671,-2.0784,2055
9,0.2644,-0.054,-1.5364,-3.3409,3.9715,-2.1585,2074
9,-0.9023,0.8779,-1.0417,-3.7201,3.426,-2.3699,2216
9,-0.6423,0.0156,-0.8281,-3.2826,1.7687,-2.812,2171
10,0.1912,-0.4985,-0.6838,-2.6681,0.9632,-3.3232,2036
10,1.2646,-1.2986,-0.8596,-2.497,-0.7934,-3.4772,2114
10,0.2964,-0.8877,-1.0396,-2.4529,-1.3692,-2.5776,2080
10,-0.7107,-0.7712,-0.9087,-2.3738,-0.887,-2.9871,2027
10,0.3022,-1.481,-0.6096,-2.5851,-0.5777,-3.0977,1696
10,0.3877,-1.5789,-0.426,-2.8505,-0.4799,-2.8024,2133
10,-0.1482,-1.4614,-0.447,-2.9236,-0.2991,-2.7899,1959
10,-0.1775,-1.5059,-0.4734,-2.9103,0.0061,-2.6168,2057
10,-0.2634,-1.3743,-0.4585,-3.0248,0.2281,-2.4764,2012
10,-0.2791,-1.1179,-0.5647,-3.0644,0.5336,-2.4373,2037
10,-0.2185,-1.0388,-0.6379,-3.0618,0.807,-2.2973,2028
10,-0.103,-0.9136,-0.7195,-3.0472,0.9713,-2.1779,2045
10,-0.0276,-0.8877,-0.7888,-3.0142,1.1026,-2.0334,2033
10,0.0005,-0.8684,-0.7876,-2.9549,1.2286,-1.9298,2030
10,0.0718,-0.8569,-0.7942,-2.8703,1.3292,-1.7744,2032
10,0.0496,-0.7942,-0.7976,-2.7489,1.5143,-1.7622,2037
10,0.0964,-0.7275,-0.7744,-2.6229,1.6615,-1.6676,2041
10,0.1365,-0.6533,-0.7664,-2.4421,1.8972,-1.6271,2030
10,0.1316,-0.5835,-0.8059,-2.285,2.0177,-1.5363,2041
10,0.1414,-0.5862,-0.8174,-2.0762,2.2122,-1.4499,2035
10,0.1746,-0.6423,-0.8184,-1.9678,2.3193,-1.3754,2038
10,0.1067,-0.6177,-0.7903,-1.8414,2.4828,-1.2798,2030
10,0.021,-0.6685,-0.7578,-1.6691,2.5235,-1.279,2030
10,0.0481,-0.7532,-0.6587,-1.5492,2.5607,-1.2974,2041
10,0.1323,-0.8069,-0.5845,-1.54,2.4551,-1.3372,2038
10,0.2004,-0.7664,-0.5088,-1.4644,2.2903,-1.3898,2026
10,0.2537,-0.6902,-0.4993,-1.3472,2.0525,-1.4691,2032
10,0.2375,-0.6594,-0.5098,-1.2793,1.7863,-1.5484,2027
10,0.251,-0.6726,-0.5325,-1.189,1.4263,-1.4932,2036
10,0.1445,-0.5493,-0.4971,-1.1022,1.2846,-1.4822,2038
10,0.0181,-0.3792,-0.5073,-1.0003,1.2809,-1.3093,2037
10,-0.0967,-0.3284,-0.5347,-0.8026,1.3263,-1.3279,2038
10,-0.0583,-0.3574,-0.5278,-0.6123,1.341,-1.2343,2040
10,0.019,-0.4175,-0.4424,-0.5397,1.4398,-1.0411,2042
10,-0.0122,-0.5205,-0.3682,-0.435,1.5858,-0.9171,2038
10,-0.0229,-0.5889,-0.2478,-0.5683,1.6209,-0.8716,2033
10,0.0056,-0.4397,-0.2153,-0.6787,1.4761,-0.758,2050
10,0.0425,-0.2722,-0.1089,-0.6138,1.3842,-0.6309,2027
10,-0.0063,-0.2517,-0.1089,-0.4088,1.2625,-0.3931,2035
10,-0.0161,-0.3567,-0.1365,-0.2245,1.1672,-0.2258,2027
10,0.022,-0.4983,-0.2227,-0.1089,0.9765,-0.0627,2035
10,0.0806,-0.4919,-0.2976,-0.0795,0.7433,-0.0188,2028
10,0.01,-0.5671,-0.3225,-0.0863,0.4841,0.022,2040
10,-0.0027,-0.5381,-0.312,-0.1697,0.2145,0.2023,2024
10,-0.0051,-0.4424,-0.2205,-0.1286,0.1091,0.3425,2050
10,-0.0349,-0.3311,-0.1116,-0.1144,0.0975,0.4345,2047
10,-0.0261,-0.2932,-0.1389,0.0417,0.0513,0.5858,2041
10,0.01,-0.3574,-0.105,0.1722,-0.0154,0.624,2038
10,0.0378,-0.4045,-0.0981,0.1814,-0.1193,0.7015,2023
10,0.051,-0.4592,-0.1008,0.2011,-0.2705,0.8393,2036
10,0.0332,-0.3984,-0.0864,0.2039,-0.4119,0.9296,2022
10,-0.0386,-0.2778,-0.1206,0.353,-0.5805,1.0714,2024
10,-0.063,-0.3176,-0.1702,0.4854,-0.6618,1.1445,2037
10,-0.0647,-0.3232,-0.2761,0.5766,-0.6359,1.2192,2024
10,-0.0767,-0.3403,-0.3,0.7588,-0.5626,1.3627,2027
10,-0.1116,-0.4148,-0.2375,0.9162,-0.4493,1.5094,2025
10,-0.2019,-0.5093,-0.2227,0.9781,-0.3181,1.6319,2032
10,-0.2529,-0.5874,-0.22,1.0529,-0.3731,1.739,2038
10,-0.2112,-0.6316,-0.127,1.186,-0.6046,1.8187,2034
10,-0.176,-0.6599,-0.0439,1.2758,-0.8301,1.8435,2021
10,-0.2266,-0.7029,-0.05,1.4134,-1.063,1.8856,2048
10,-0.3552,-0.7837,-0.1233,1.456,-1.3552,2.0268,2028
10,-0.4312,-0.8696,-0.2581,1.5671,-1.7048,2.1714,2023
10,-0.3865,-0.9565,-0.2605,1.754,-2.0339,2.2948,2015
10,-0.3091,-1.1152,-0.1716,2.0064,-2.1828,2.4328,2051
10,-0.2495,-1.2869,-0.1321,2.1193,-2.1842,2.5165,2008
10,-0.2297,-1.4253,-0.2715,2.1644,-2.3406,2.636,2058
10,-0.2266,-1.5747,-0.4631,2.257,-2.4377,2.869,2011
10,-0.2095,-1.7329,-0.7217,2.3696,-2.3277,3.1168,2041
10,-0.3062,-1.9155,-1.0449,2.6964,-2.4562,3.3254,2035
10,-0.2451,-1.9883,-1.3223,3.2869,-2.642,3.5535,2026
10,-0.1013,-2.0,-1.6172,3.8892,-2.6061,3.6252,2041
10,-0.0081,-2.0,-1.8552,4.3634,-2.4293,3.8225,2032
10,0.0315,-2.0,-2.0,4.3634,-2.1213,4.0315,2063
10,0.0872,-1.9824,-1.9653,4.3634,-1.3571,4.2085,2102
10,0.0796,-1.7866,-1.8545,4.3634,-0.3008,4.3634,2023
10,0.0908,-1.6943,-1.7344,4.3634,0.5521,4.3634,1997
10,0.0862,-1.4277,-1.7495,4.3634,0.9144,4.3634,2032
10,-0.0176,-1.2671,-1.6746,4.3634,1.3532,4.3634,2019
10,-0.7998,-1.0774,-1.5342,4.3634,1.9516,4.3634,2006
10,-1.4465,-1.2686,-1.3694,4.3634,2.5225,4.3634,2022
10,-1.7627,-1.5532,-1.1365,4.3634,3.382,4.3634,2038
10,-2.0,-2.0,-0.136,4.3634,4.3634,4.3634,2050
10,-2.0,-2.0,0.9902,4.0303,4.3634,4.3634,2052
10,-1.2166,-2.0,1.3601,4.3634,4.3634,3.5339,2070
10,1.9999,-2.0,-0.4871,-4.3635,0.0003,-3.1588,1995
10,1.9999,-2.0,1.866,-3.4882,-4.3635,-2.1125,2090
10,1.9999,-1.5312,-0.6226,-4.3635,-4.3635,-3.2966,2079
10,0.8706,0.6545,-2.0,-4.3635,-4.3635,1.3267,1862
10,-2.0,0.3628,-1.5359,-4.3635,-4.3635,-0.0145,2052
10,-2.0,0.229,-1.9661,-4.3635,-1.0061,-2.3577,2212
10,-2.0,-0.3848,-2.0,-2.5872,4.3634,-3.1461,2033
10,-2.0,-0.4822,-0.022,-3.6502,4.3634,-2.9248,2117
10,0.7395,0.1443,-1.146,-3.0879,4.1993,-1.854,1949
10,0.1111,-0.7983,-1.073,-2.4009,2.9971,-2.5256,2239
10,0.064,-1.6189,-0.6013,-2.133,0.8273,-2.6353,2148
10,1.0085,-1.252,-0.7715,-2.1069,0.2615,-2.9791,2126
10,0.3428,-1.5413,-0.6643,-1.8768,-0.0535,-2.9132,1849
10,-0.0933,-1.5173,-0.7134,-2.1403,-0.337,-3.1168,2120
10,-0.3459,-1.5815,-0.4731,-2.0611,-0.1298,-3.1264,2038
10,-0.1057,-1.7278,-0.1768,-2.1924,-0.3189,-3.3164,1998
10,0.1174,-1.729,-0.0151,-2.3985,-0.5084,-3.2444,2060
10,0.1018,-1.5923,-0.1357,-2.6104,-0.607,-3.063,2039
11,-0.2371,-1.3418,-0.3962,-2.5762,-0.2144,-2.8317,2049
11,-0.3203,-1.2078,-0.6675,-2.5248,0.2369,-2.7899,2027
11,-0.5693,-1.0107,-0.9041,-2.3671,0.7247,-2.5699,2021
11,-0.5615,-1.0066,-0.9133,-2.265,1.0895,-2.294,2038
11,-0.3755,-0.8665,-0.8579,-2.298,1.3307,-2.135,2034
11,-0.1211,-0.7493,-0.7554,-2.1997,1.4697,-1.9628,2042
11,0.0049,-0.6846,-0.7605,-2.0595,1.4339,-2.0876,2048
11,0.0676,-0.6946,-0.7188,-1.9259,1.5005,-2.0465,2037
11,0.061,-0.7668,-0.75,-1.788,1.5925,-2.0112,2042
11,0.1296,-0.8621,-0.613,-1.7169,1.7985,-1.9342,2045
11,0.1736,-0.8203,-0.5728,-1.733,1.9286,-1.9651,2043
11,0.2588,-0.8015,-0.5823,-1.712,1.904,-1.9467,2043
11,0.1812,-0.812,-0.573,-1.674,1.8249,-1.9402,2033
11,0.1558,-0.7856,-0.5857,-1.657,1.6811,-1.8737,2044
11,0.072,-0.7942,-0.54,-1.6415,1.5787,-1.898,2038
11,0.0662,-0.7202,-0.4221,-1.6595,1.553,-1.8992,2046
11,0.1252,-0.5847,-0.3577,-1.6049,1.4438,-1.7548,2032
11,0.1033,-0.5039,-0.3354,-1.5014,1.4607,-1.8066,2042
11,0.1196,-0.4402,-0.3254,-1.3715,1.5135,-1.8727,2033
11,0.2373,-0.4658,-0.3782,-1.2294,1.4605,-1.7767,2027
11,0.1987,-0.4839,-0.4185,-1.1849,1.324,-1.7114,2033
11,0.1514,-0.4143,-0.5007,-0.958,1.0918,-1.6486,2041
11,0.1487,-0.4172,-0.5149,-0.7922,0.8653,-1.5299,2032
11,0.1023,-0.3892,-0.5203,-0.7436,0.8725,-1.3547,2034
11,0.0205,-0.4202,-0.4858,-0.6493,1.1798,-1.2756,2037
11,-0.0142,-0.4377,-0.377,-0.5035,1.3557,-1.1439,2027
11,-0.0007,-0.5103,-0.2393,-0.4104,1.3161,-1.0174,2031
11,0.0049,-0.5322,-0.1941,-0.4267,1.1708,-1.0058,2038
11,0.0784,-0.4436,-0.1699,-0.4996,0.8584,-0.8556,2018
11,0.0647,-0.3169,-0.1746,-0.4711,0.5967,-0.7661,2028
11,0.1353,-0.262,-0.1858,-0.3574,0.4972,-0.6264,2010
11,0.1729,-0.334,-0.1885,-0.3276,0.4639,-0.5396,2028
11,0.1292,-0.4426,-0.2063,-0.3671,0.3408,-0.4449,2025
11,0.126,-0.4375,-0.2021,-0.3802,0.1252,-0.2554,2035
11,0.092,-0.3433,-0.2197,-0.2842,-0.069,-0.0807,2037
11,0.0237,-0.2551,-0.2305,-0.2482,-0.0876,0.1003,2039
11,0.0039,-0.2104,-0.2695,-0.0988,-0.1342,0.2534,2034
11,0.0474,-0.2219,-0.2549,0.0672,-0.1489,0.3554,2043
11,0.0901,-0.2812,-0.2017,0.2474,-0.0724,0.4698,2030
11,0.0623,-0.3535,-0.198,0.3706,0.0093,0.6132,2030
11,0.0378,-0.3906,-0.1958,0.4044,-0.0467,0.7443,2047
11,0.0481,-0.3735,-0.1631,0.4944,-0.2157,0.8613,2017
11,0.0635,-0.3333,-0.1851,0.5605,-0.3709,0.9495,2023
11,0.0283,-0.3003,-0.2083,0.6857,-0.4622,1.0437,2024
11,0.0173,-0.323,-0.1594,0.8255,-0.5007,1.1596,2034
11,0.009,-0.354,-0.1243,0.9399,-0.5059,1.2432,2033
11,0.0073,-0.374,-0.1006,0.9508,-0.483,1.3379,2020
11,-0.0288,-0.3413,-0.0544,0.9688,-0.5592,1.4284,2039
11,-0.1096,-0.3655,-0.0291,1.074,-0.6291,1.5123,2043
11,-0.1948,-0.4209,-0.0593,1.2135,-0.8098,1.6262,2026
11,-0.2576,-0.5037,-0.1687,1.3422,-0.981,1.6969,2024
11,-0.2803,-0.5945,-0.238,1.4548,-1.0162,1.7583,2003
11,-0.2739,-0.6785,-0.1902,1.5242,-1.1375,1.8239,2037
11,-0.2922,-0.7544,-0.0745,1.5234,-1.2107,1.9073,2007
11,-0.3445,-0.8298,0.0962,1.5355,-1.4042,1.9582,2039
11,-0.3223,-0.8699,0.2107,1.5767,-1.7411,1.9919,2041
11,-0.3047,-0.9607,0.1985,1.5924,-2.0759,2.0714,2043
11,-0.2866,-1.0984,-0.0498,1.6456,-2.3104,2.2016,2028
11,-0.2488,-1.2344,-0.3247,1.7699,-2.4569,2.3298,2024
11,-0.2319,-1.5044,-0.5571,1.9104,-2.5071,2.506,2039
11,-0.2695,-1.7859,-0.603,2.0058,-2.4867,2.753,2014
11,-0.3787,-1.8582,-0.5894,2.1232,-2.5414,3.0794,1988
11,-0.5256,-1.751,-0.7126,2.4313,-2.624,3.2335,2016
11,-0.542,-1.8547,-1.085,2.8799,-2.6453,3.2369,2012
11,-0.4333,-2.0,-1.551,3.3907,-2.6589,3.4065,2060
11,-0.2556,-2.0,-1.9033,4.0962,-2.4776,3.6432,2028
11,-0.1477,-2.0,-2.0,4.3634,-2.0596,3.9696,2036
11,-0.1318,-1.9749,-2.0,4.3634,-1.3286,4.2821,2126
11,-0.0254,-1.8938,-1.9236,4.3634,-0.5773,4.3634,2085
11,0.075,-1.6531,-1.8184,4.3634,-0.1109,4.3634,2091
11,-0.0132,-1.4517,-1.6797,4.3634,0.3231,4.3634,2051
11,-0.218,-1.4465,-1.5779,4.3634,0.5806,4.3634,2035
11,-0.4094,-1.4709,-1.4307,4.3634,0.9894,4.3634,2030
11,-0.906,-1.4756,-1.3325,4.3634,1.3199,4.3634,2029
11,-1.3425,-1.8162,-0.9636,4.3634,1.6877,4.3634,2081
11,-1.5615,-2.0,-0.0894,4.3634,1.59,4.3634,2011
11,-1.3108,-2.0,1.9999,4.3634,1.345,4.3634,1946
11,1.9999,-2.0,1.9999,-2.5486,-1.9736,-3.1058,2109
11,1.9999,-2.0,-0.6074,-4.3635,-4.3635,-2.8505,1884
11,1.9999,-1.2622,-2.0,-4.3635,-4.3635,-1.5153,2067
11,-0.1006,1.876,-2.0,-4.3635,-4.3635,0.2967,2090
11,-1.2551,1.9329,-2.0,-4.3635,-4.3635,0.6616,1882
11,-2.0,0.2856,-1.8733,-4.3635,-0.8273,-1.9863,1786
11,-2.0,0.2739,-1.2249,-4.3635,2.2529,-2.4831,1941
11,-1.4106,-0.3811,-0.8953,-4.3635,2.0904,-1.3738,2285
11,-0.6592,-0.4697,-0.8447,-3.7928,3.794,-1.8813,2003
11,-0.8535,-0.6016,-1.0815,-3.5765,2.2048,-2.0447,2043
11,0.5679,0.0334,-1.2571,-3.4637,0.8556,-1.9371,2288
11,0.8723,-0.0559,-1.5078,-3.0088,-0.4938,-2.1788,2032
11,0.2053,-0.7654,-1.0996,-2.6805,-0.9513,-2.275,1979
11,0.2334,-1.1147,-1.176,-2.6774,-1.242,-2.0907,2017
11,0.1323,-1.2039,-0.9617,-2.775,-0.844,-2.0078,1795
11,-0.0793,-1.2722,-0.7195,-2.9079,-0.2212,-1.9512,2043
11,-0.0032,-1.439,-0.6255,-3.0299,0.4454,-1.9153,1918
11,-0.1077,-1.4583,-0.6384,-3.1198,0.9388,-1.7895,1952
11,-0.1555,-1.3601,-0.6724,-3.0783,1.05,-1.7354,2077
11,-0.1445,-1.1699,-0.7307,-3.0106,1.3211,-1.6095,2029
11,-0.0852,-1.0168,-0.752,-2.9308,1.3541,-1.6852,2043
11,-0.05,-0.9121,-0.7385,-2.8371,1.5275,-1.5534,2042
11,0.0649,-0.8748,-0.7451,-2.7141,1.6912,-1.5146,2038
11,0.0537,-0.8037,-0.8008,-2.5251,1.6966,-1.5066,2031
11,0.02,-0.7952,-0.8132,-2.4337,1.8393,-1.4045,2090
12,0.0132,-0.7891,-0.7898,-2.3716,2.0529,-1.3513,2021
12,-0.0361,-0.7129,-0.8052,-2.2923,2.2134,-1.2374,2055
12,-0.0632,-0.6724,-0.7705,-2.1507,2.3079,-1.2198,1934
12,-0.0771,-0.709,-0.8416,-2.0295,2.4185,-1.2432,2038
12,-0.0801,-0.6887,-0.7888,-1.8663,2.3647,-1.3636,2040
12,-0.0759,-0.6384,-0.7554,-1.6476,2.3063,-1.2844,2042
12,-0.0737,-0.6086,-0.7356,-1.5966,2.3256,-1.2829,2032
12,-0.0164,-0.6628,-0.6707,-1.4862,2.3085,-1.4488,2041
12,0.1328,-0.6719,-0.637,-1.4262,2.2471,-1.5225,2041
12,0.2148,-0.469,-0.5923,-1.3832,2.1787,-1.2575,2033
12,0.1919,-0.4204,-0.5403,-1.3227,2.0925,-1.2933,2046
12,0.1179,-0.3748,-0.5464,-1.1717,2.0366,-1.3165,2037
12,0.0745,-0.356,-0.5923,-1.0015,1.9606,-1.2033,2028
12,0.051,-0.3906,-0.5649,-0.8959,2.0303,-1.1563,2037
12,0.0618,-0.4204,-0.4785,-0.8923,2.0556,-1.1312,2037
12,0.1238,-0.3928,-0.344,-0.9425,2.1719,-1.0784,2047
12,0.1313,-0.3965,-0.2961,-0.9284,2.2148,-1.0555,2033
12,0.1919,-0.4392,-0.3047,-0.8178,1.9913,-1.0147,2052
12,0.2222,-0.4587,-0.3367,-0.6533,1.6908,-0.7978,2042
12,0.0376,-0.3955,-0.4275,-0.6232,1.5178,-0.7565,2035
12,-0.1067,-0.4128,-0.489,-0.6332,1.4117,-0.809,2045
12,-0.0867,-0.2622,-0.4827,-0.6088,1.4332,-0.7585,2038
12,-0.1121,-0.2771,-0.4419,-0.316,1.4916,-0.5906,2030
12,-0.1135,-0.5107,-0.3186,-0.1602,1.5245,-0.6047,2033
12,-0.0542,-0.5586,-0.2654,-0.0513,1.1784,-0.5139,2018
12,-0.0232,-0.501,-0.2275,-0.0172,0.9188,-0.3002,2037
12,0.0093,-0.4031,-0.1934,0.0646,0.7596,-0.3192,2045
12,0.0767,-0.3484,-0.1003,0.047,0.6612,-0.2746,2020
12,0.1006,-0.3557,-0.0894,0.0494,0.4782,-0.1908,2044
12,0.022,-0.4629,-0.0469,0.1883,0.3139,0.0131,2033
12,-0.0234,-0.4688,0.0151,0.0702,0.0422,0.1848,2025
12,-0.1226,-0.3811,0.0393,0.0466,0.0001,0.3687,2030
12,-0.1775,-0.2751,0.0217,0.0457,0.0575,0.477,2050
12,-0.1919,-0.2976,-0.0388,0.1206,0.0735,0.6255,2056
12,-0.2017,-0.3528,-0.071,0.2117,0.0124,0.7578,2038
12,-0.1909,-0.3796,-0.0859,0.286,-0.0342,0.811,2037
12,-0.2075,-0.3232,-0.1394,0.2931,-0.2675,0.9171,2043
12,-0.2307,-0.3232,-0.094,0.3994,-0.5482,1.0589,2017
12,-0.2629,-0.3645,-0.0903,0.4867,-0.7762,1.1786,2060
12,-0.3169,-0.4104,-0.1479,0.5689,-0.9389,1.2499,2047
12,-0.3242,-0.4905,-0.2068,0.7624,-1.0595,1.3287,2015
12,-0.2847,-0.5894,-0.217,0.9673,-1.2497,1.4067,2056
12,-0.2698,-0.697,-0.1899,1.1176,-1.3676,1.4822,2036
12,-0.3381,-0.7959,-0.0183,1.2326,-1.6624,1.603,2091
12,-0.4338,-0.8962,0.1841,1.2697,-2.1116,1.6701,2045
12,-0.53,-1.1016,0.249,1.2087,-2.4012,1.7054,2060
12,-0.6443,-1.3337,0.0935,1.1094,-2.7129,1.7504,1989
12,-0.6545,-1.5188,-0.1008,1.2762,-3.2299,1.7769,2109
12,-0.415,-1.5962,-0.3245,1.5575,-3.5023,1.8446,2011
12,-0.2493,-1.7375,-0.4963,1.7532,-3.864,1.9347,2042
12,-0.1646,-1.9783,-0.7007,1.8088,-4.0626,2.0433,2041
12,-0.2827,-1.979,-0.9983,2.2393,-3.8586,2.4071,2050
12,-0.4434,-1.7905,-1.3765,2.7892,-3.6375,2.6799,2041
12,-0.4258,-1.7495,-1.6931,3.3611,-3.3006,2.9034,2064
12,-0.2532,-1.7146,-1.9604,4.0085,-2.8275,3.2834,2068
12,-0.1189,-1.7344,-2.0,4.3634,-2.3357,3.4804,2027
12,0.0422,-1.697,-2.0,4.3634,-2.0896,3.7351,2033
12,0.2666,-1.5247,-2.0,4.3634,-1.8503,3.9334,2038
12,0.2991,-1.3452,-1.9844,4.3634,-1.5591,4.0074,2015
12,0.3303,-1.1707,-1.7842,4.3634,-1.3489,4.1313,2004
12,0.3818,-1.0027,-1.7065,4.3634,-0.9748,4.2197,2073
12,0.2046,-0.9717,-1.8059,4.3634,-0.5349,4.341,2074
12,-0.0884,-0.8999,-1.9971,4.3634,-0.2448,4.3634,2081
12,-0.4631,-0.8452,-1.9185,4.3634,0.4401,4.3634,2014
12,-1.2332,-0.7786,-1.8127,4.3634,1.2451,4.3634,2035
12,-2.0,-1.1167,-1.3665,4.3634,2.2085,4.3634,2022
12,-2.0,-1.6592,-0.4382,4.3634,3.2074,4.3634,2070
12,-2.0,-2.0,1.9999,4.3634,4.3634,2.0544,2080
12,1.9999,-2.0,1.9999,-4.3635,-3.4395,-4.3635,1948
12,1.9999,-1.3159,-1.4089,-4.3635,-4.3635,-2.4445,2087
12,1.9999,1.9999,-2.0,-4.3635,-2.637,0.1557,2112
12,-1.7039,0.9683,-2.0,-4.3635,-4.3635,-1.6424,1951
12,-0.5034,1.9999,-1.6104,-4.3635,-4.3635,0.6749,1944
12,-2.0,1.1418,-1.7046,-4.3635,0.6608,0.0417,1913
12,-2.0,0.2991,-2.0,-3.9247,1.2003,-1.1935,1919
12,-1.5916,-1.0046,-1.6182,-3.3472,4.3634,-2.7703,2051
12,-0.1465,-0.7612,-0.6594,-4.3635,4.3634,-2.6947,2019
12,-0.8762,0.3049,-0.9285,-4.3635,3.7394,-1.9371,2176
12,-0.5066,0.8667,-1.6919,-3.5456,3.0457,-2.166,2326
12,-0.0769,0.1841,-1.6118,-3.0255,1.6595,-2.5304,1676
12,0.9275,-0.741,-1.4165,-2.7295,0.3369,-2.7271,1960
12,0.4434,-0.8843,-1.3604,-2.0981,-0.2055,-2.7433,1977
12,-0.0068,-0.8931,-1.1536,-2.082,-0.4446,-2.7485,1996
12,0.4885,-1.0344,-1.1777,-2.0988,-0.0776,-2.5092,2016
12,0.0967,-0.9397,-1.0398,-2.1294,0.4257,-2.5171,2218
12,0.2803,-1.3003,-0.9749,-2.165,0.7186,-2.5119,1993
12,0.3538,-1.4236,-0.8394,-2.283,1.1138,-2.1495,1976
12,0.0601,-1.1282,-0.8508,-2.3766,1.4612,-2.1358,2038
12,-0.0325,-1.0579,-0.8821,-2.4638,1.9213,-2.0306,1979
12,0.1196,-0.9475,-0.8679,-2.5686,2.1301,-1.9759,2036
12,0.2839,-0.7927,-0.8455,-2.601,2.1021,-1.9675,2030
12,0.2219,-0.7437,-0.8306,-2.6063,2.1859,-1.8254,2040
12,0.1338,-0.6343,-0.8916,-2.5641,2.1092,-1.799,2031
12,0.0161,-0.6047,-0.9919,-2.4906,2.2582,-1.6454,2030
12,0.0298,-0.5134,-1.0105,-2.3529,2.1928,-1.6323,2033
12,0.1519,-0.4834,-0.9526,-2.1716,2.112,-1.5768,2020
12,0.1687,-0.4614,-0.9258,-1.956,2.0603,-1.6263,2032
12,0.2585,-0.4111,-0.9353,-1.7773,1.8672,-1.6113,2027
12,0.207,-0.3511,-0.967,-1.5512,1.7761,-1.7499,2034
12,0.3015,-0.3135,-0.9883,-1.3367,1.5832,-1.765,2054
12,0.3726,-0.3281,-0.9895,-1.0544,1.5765,-1.5804,2035
12,0.3308,-0.314,-1.0095,-0.883,1.6998,-1.5555,2049
12,0.3237,-0.4163,-0.9827,-0.7235,1.9935,-1.6099,2054
13,0.3079,-0.655,-0.8982,-0.7301,2.4039,-1.6309,2021
13,0.2852,-0.6621,-0.8376,-0.7759,2.8067,-1.5099,2068
13,0.2146,-0.6921,-0.6943,-0.7793,3.0509,-1.5499,2035
13,0.2305,-0.6487,-0.5691,-0.828,2.9421,-1.6074,2024
13,0.2258,-0.6987,-0.4065,-0.913,2.2613,-1.5036,2021
13,0.281,-0.6479,-0.3691,-0.9013,1.8029,-1.3067,2017
13,0.2314,-0.5935,-0.3831,-0.8883,1.7214,-1.2997,2030
13,0.2837,-0.5598,-0.4385,-1.2043,1.2958,-1.3769,2042
13,0.4277,-0.4575,-0.1741,-0.7745,1.0985,-1.2825,2046
13,0.283,-0.2844,-0.0884,-0.4781,1.1501,-1.2508,2018
13,0.0762,-0.2708,-0.3289,-0.5458,0.9124,-1.2142,2019
13,-0.1736,-0.3904,-0.4282,-0.4558,1.0483,-1.1408,2019
13,-0.3462,-0.5562,-0.5132,-0.5277,1.3809,-0.8079,2015
13,-0.4287,-0.4526,-0.5842,-0.3999,1.2294,-0.5573,2011
13,-0.2878,-0.4148,-0.4351,-0.1268,0.8653,-0.6826,2065
13,-0.1333,-0.2993,-0.397,0.0882,0.7437,-0.712,2081
13,-0.1658,-0.3704,-0.2703,0.4248,1.0404,-0.618,2062
13,-0.1787,-0.3906,-0.165,0.4396,1.2776,-0.6188,2041
13,-0.1067,-0.2986,-0.1023,0.4955,1.3769,-0.3719,2086
13,0.011,-0.427,-0.063,0.5719,0.9833,-0.0816,2029
13,0.1013,-0.592,0.0886,0.6658,0.8961,0.0411,2065
13,0.106,-0.5625,-0.0278,0.5197,0.6799,0.208,2024
13,-0.1206,-0.2996,-0.1519,0.463,0.4841,0.3125,2058
13,-0.2893,-0.147,-0.2173,0.5404,0.2662,0.4048,2046
13,-0.1719,-0.2458,-0.1213,0.6365,0.119,0.4686,2023
13,-0.0918,-0.4329,-0.1069,0.6348,0.0392,0.5877,2041
13,-0.22,-0.4258,-0.0198,0.656,-0.1418,0.7716,2058
13,-0.3135,-0.3057,-0.0186,0.7205,-0.3822,0.974,2056
13,-0.2478,-0.3132,-0.0698,0.7794,-0.6412,1.1144,2030
13,-0.2236,-0.303,-0.1372,0.9356,-0.8387,1.2572,2024
13,-0.2405,-0.3721,-0.1426,1.0084,-1.0092,1.3625,2033
13,-0.2297,-0.4446,-0.1433,1.0845,-1.1235,1.5025,2026
13,-0.3569,-0.5352,-0.1191,1.1994,-1.0276,1.6918,2037
13,-0.3403,-0.7048,-0.1077,1.0066,-1.3166,1.7403,2026
13,-0.1909,-0.781,0.0532,0.9983,-1.4711,1.8267,2032
13,-0.2952,-0.8887,0.3037,1.0381,-1.3805,1.9504,2033
13,-0.4744,-1.0498,0.2537,0.8865,-1.8126,1.9479,2033
13,-0.4585,-1.1621,0.0913,0.9315,-2.2863,1.9659,2038
13,-0.3416,-1.3096,-0.1875,1.1367,-2.8095,1.9765,2030
13,-0.2349,-1.5974,-0.4502,1.2621,-3.3475,1.9574,2002
13,-0.165,-1.8765,-0.5579,1.5434,-3.6892,2.1031,2025
13,-0.2561,-1.8533,-0.6826,1.7715,-3.9186,2.2935,2005
13,-0.387,-1.7239,-0.7568,1.9696,-4.1315,2.4766,1989
13,-0.355,-1.5483,-0.7427,2.3361,-4.268,2.7263,2024
13,-0.3782,-1.4663,-0.9973,2.8002,-4.225,2.6874,2047
13,-0.3271,-1.5964,-1.2537,3.2758,-4.1753,3.0111,2037
13,-0.3259,-1.666,-1.448,3.7736,-3.8665,3.2343,2040
13,-0.1816,-1.5627,-1.6987,4.3439,-3.4812,3.4026,2022
13,-0.0916,-1.5781,-2.0,4.3634,-3.0826,3.6384,2021
13,0.1714,-1.5828,-2.0,4.3634,-2.9119,3.7744,2060
13,0.4045,-1.415,-2.0,4.3634,-2.6571,3.8231,2068
13,0.5688,-1.3208,-2.0,4.3634,-2.2356,4.0098,1987
13,0.5083,-1.2068,-2.0,4.3634,-1.592,4.0369,1996
13,0.6077,-1.0127,-2.0,4.3634,-0.8385,4.2519,2045
13,0.386,-0.9358,-2.0,4.3634,-0.1129,4.3634,2052
13,-0.0364,-0.9658,-1.8337,4.3634,0.4738,4.3634,2017
13,-0.9297,-0.8691,-1.5503,4.3634,1.0786,4.3634,2073
13,-1.9961,-1.5215,-0.7805,4.3634,1.7602,4.3634,2073
13,-2.0,-2.0,0.4961,4.3634,2.1676,4.3634,2116
13,-2.0,-2.0,1.8611,4.3634,1.6692,4.3634,2045
13,1.7695,-2.0,1.4341,2.2116,4.3634,-1.0508,2042
13,1.9999,-2.0,-1.269,-4.3635,-4.3635,-0.0385,2004
13,1.9999,1.9999,-2.0,-4.3635,-4.3635,1.3524,2140
13,0.1658,1.9999,-2.0,-4.3635,-4.3635,-0.1161,1966
13,-2.0,1.9999,-2.0,-4.3635,-3.5802,0.64,1967
13,-2.0,0.4136,-2.0,-4.3635,1.0029,-0.5135,1823
13,-1.2844,-0.947,-1.8376,-4.3635,0.9898,-0.6548,2165
13,0.7766,-0.9988,-0.583,-4.3635,2.6051,-1.0636,1834
13,-0.894,-0.4153,-1.2661,-3.8688,3.1383,-1.5193,2146
13,-0.8547,-0.5879,-0.9812,-4.2603,1.5588,-1.7377,1905
13,0.0918,0.0161,-0.73,-4.3635,1.9303,-1.7092,2150
13,-0.0032,0.8147,-1.1133,-3.8707,0.9251,-1.9394,1613
13,-0.0513,0.6401,-1.3555,-3.5589,0.6247,-2.4036,1999
13,0.0447,-0.3445,-1.2424,-3.3427,0.6432,-2.3113,2032
13,0.4458,-0.9377,-1.0757,-3.3636,0.4099,-1.9582,2024
13,0.6233,-0.7771,-0.7771,-3.2493,0.6207,-1.6523,2109
13,0.3567,-0.8276,-0.9229,-3.2005,1.1873,-1.4968,1889
13,0.24,-1.0081,-0.9749,-3.2363,1.8315,-1.3125,2109
13,0.3308,-1.0916,-1.093,-3.2068,2.1663,-1.1844,2196
13,0.0193,-1.05,-1.1453,-3.1094,2.4521,-1.1071,1998
13,-0.1912,-1.0264,-1.0942,-3.0128,2.5101,-1.2605,2120
13,-0.2686,-1.0437,-1.1196,-2.9115,2.8653,-1.2367,2146
13,-0.1372,-0.9617,-1.0564,-2.8749,2.747,-1.3299,1998
13,-0.0793,-0.8911,-1.0068,-2.7578,2.5683,-1.4119,2006
13,-0.0388,-0.7937,-0.9585,-2.6389,2.1446,-1.5147,2008
13,-0.0007,-0.7581,-0.8862,-2.5388,1.9206,-1.3806,1909
13,0.0562,-0.7219,-0.8789,-2.4663,2.0196,-1.4046,2088
13,-0.0378,-0.6074,-0.9375,-2.3242,1.865,-1.3697,2102
13,-0.0769,-0.5398,-1.0166,-2.2917,1.8631,-1.3388,2052
13,-0.1074,-0.5273,-1.0828,-2.2017,1.9623,-1.3601,2014
13,-0.0881,-0.4839,-0.9919,-2.0567,2.0066,-1.2097,2039
13,-0.0107,-0.4407,-0.8718,-1.9608,2.0092,-1.4283,2054
13,0.2271,-0.3647,-0.8054,-1.8277,1.9987,-1.5767,2010
13,0.3328,-0.5369,-0.7793,-1.6637,2.1471,-1.3388,2004
13,0.3816,-0.5432,-0.8831,-1.5743,2.3465,-1.468,2040
13,0.2979,-0.3745,-1.0786,-1.3864,2.2606,-1.3575,2029
13,0.1472,-0.2898,-1.2014,-1.2469,2.0759,-1.1547,2036
13,0.0254,-0.3008,-1.2266,-1.2287,2.0216,-1.0235,2031
13,0.0388,-0.0383,-1.1047,-0.9158,2.0065,-1.0415,2049
13,-0.0381,-0.0264,-0.9014,-0.7685,2.1551,-1.1834,2047
13,0.1265,-0.2227,-0.7349,-0.6183,2.1141,-1.0575,2048
13,0.2173,-0.373,-0.5774,-0.4912,2.0747,-1.1572,2061
13,0.3845,-0.5786,-0.4128,-0.3382,1.8783,-1.2608,2037
14,0.4724,-0.48,-0.3755,-0.2141,1.8026,-1.2581,2041
14,0.4028,-0.375,-0.3987,-0.2017,1.8904,-1.1358,2023
14,0.1504,-0.4626,-0.6772,-0.4051,1.8182,-0.77,2041
14,0.021,-0.5608,-0.9548,-0.569,1.6458,-0.5701,2031
14,-0.0417,-0.4526,-0.9155,-0.5741,1.656,-0.6149,2045
14,-0.0549,-0.1597,-0.7688,-0.4026,1.6668,-0.7043,2042
14,-0.1191,-0.1797,-0.6184,0.0208,1.4989,-0.7375,2039
14,-0.0771,-0.2627,-0.5117,0.2181,1.2977,-0.828,2035
14,-0.0359,-0.4004,-0.332,0.3755,1.1521,-0.8072,2032
14,-0.0115,-0.4761,-0.2622,0.4006,0.9732,-0.7259,2028
14,0.1143,-0.4512,-0.1499,0.3883,0.7669,-0.5927,2032
14,0.1423,-0.4529,-0.0867,0.4577,0.6541,-0.7308,2026
14,0.1484,-0.4282,-0.0325,0.5486,0.6524,-0.6257,2034
14,0.0066,-0.457,-0.0989,0.4084,0.7494,-0.5446,2042
14,0.0242,-0.481,-0.0989,0.2867,0.7281,-0.435,2031
14,0.0054,-0.3269,-0.074,0.3466,0.7225,-0.1746,2038
14,0.0513,-0.3506,-0.0293,0.4393,0.6108,-0.0133,2025
14,0.0317,-0.4519,-0.0183,0.4265,0.5075,0.0591,2032
14,0.0679,-0.3862,-0.085,0.5175,0.3168,0.2434,2039
14,0.0139,-0.3655,-0.1553,0.6751,0.2441,0.3426,2035
14,-0.0552,-0.4255,-0.2515,0.6713,0.153,0.4239,2034
14,-0.0505,-0.4253,-0.3154,0.755,-0.0241,0.6237,2053
14,-0.0325,-0.4263,-0.2332,0.8208,-0.1537,0.7612,2032
14,-0.0449,-0.3535,-0.1143,0.9192,-0.241,0.9035,2026
14,-0.0867,-0.3774,-0.0623,0.9712,-0.332,0.9867,2038
14,-0.0947,-0.4199,-0.1074,1.0219,-0.4385,1.0758,2040
14,-0.1189,-0.4592,-0.1526,1.1055,-0.5283,1.1752,2032
14,-0.1353,-0.4956,-0.1582,1.1556,-0.6343,1.2898,2036
14,-0.2029,-0.5049,-0.1394,1.1681,-0.8609,1.3878,2031
14,-0.3037,-0.5955,-0.0813,1.1027,-1.0714,1.449,2033
14,-0.4397,-0.6992,-0.1428,0.97,-1.2692,1.5538,2032
14,-0.5225,-0.6294,-0.2979,1.1565,-1.7044,1.6107,2016
14,-0.4421,-0.7031,-0.3752,1.5712,-2.5187,1.4498,2077
14,-0.1494,-1.0776,-0.4844,1.6107,-3.1537,1.3624,1999
14,0.0461,-1.238,-0.457,1.6884,-3.3264,1.3993,2050
14,0.1311,-1.0598,-0.2468,1.9082,-3.4204,1.5585,2045
14,0.1853,-0.9617,-0.1675,2.1728,-3.3995,1.7197,2033
14,0.2068,-1.0569,-0.1982,2.4226,-3.1925,1.8173,2043
14,0.116,-1.3101,-0.1902,2.5353,-2.8665,1.963,2002
14,-0.0708,-1.5625,-0.3542,2.7164,-2.3959,2.2093,2017
14,-0.25,-1.781,-0.6255,2.8983,-2.1961,2.5887,2025
14,-0.2617,-1.908,-0.9529,3.1283,-2.2782,2.781,1982
14,-0.3323,-1.8674,-1.1123,3.3186,-2.3549,3.0641,2064
14,-0.5325,-1.6963,-1.2759,3.689,-2.7265,3.2834,1999
14,-0.4932,-1.6462,-1.3613,4.0194,-2.7353,3.2235,2051
14,-0.3906,-1.6272,-1.5676,4.3634,-2.8335,3.2041,2047
14,-0.0422,-1.6323,-1.9023,4.3634,-2.9115,3.3311,2011
14,0.186,-1.5066,-2.0,4.3634,-2.6544,3.6866,2051
14,0.231,-1.3015,-2.0,4.3634,-2.1232,3.8748,2021
14,0.4426,-1.2659,-2.0,4.3634,-1.301,4.0341,1977
14,0.4941,-1.2683,-2.0,4.3634,-0.7032,4.3634,2072
14,0.3118,-1.1492,-2.0,4.3634,-0.2806,4.3634,2066
14,-0.0286,-0.9478,-2.0,4.3634,0.1955,4.3634,2085
14,-0.4409,-1.0305,-1.7246,4.3634,0.6675,4.3634,2066
14,-1.2334,-1.2422,-1.386,4.3634,1.229,4.3634,2059
14,-1.7683,-1.4614,-0.8647,4.3634,2.0256,4.2965,2047
14,-2.0,-1.6172,-0.1787,4.3634,2.578,3.9396,2059
14,-2.0,-1.9509,0.9463,4.3634,2.7525,3.8442,2079
14,-0.5405,-2.0,1.3245,3.957,4.3634,1.1516,1924
14,1.9999,-2.0,1.5293,-4.3635,-4.3635,-2.4019,1985
14,1.9999,1.9999,-2.0,-4.3635,-4.3635,1.1738,2220
14,-1.8306,1.9999,-2.0,-4.3635,-3.1673,0.4084,2028
14,-0.7952,1.9999,-2.0,-4.3635,-4.3635,-0.5964,2004
14,-2.0,0.0552,-2.0,-4.3635,1.2997,-1.1845,1971
14,-2.0,-0.1997,-1.8354,-4.3635,0.4841,-0.2486,2044
14,-0.0808,-0.6453,-0.9573,-4.3635,1.4174,-0.9869,2044
14,0.3242,-0.6692,-0.6428,-3.8789,2.9239,-2.1977,2143
14,0.022,-0.9585,-1.3276,-3.7229,1.6322,-2.3392,1895
14,0.1597,-0.5959,-0.9106,-4.3587,1.6902,-2.2216,1913
14,-0.1819,0.3928,-1.0544,-3.993,1.7163,-2.3409,2071
14,-0.3733,0.8462,-1.3135,-3.5366,1.5308,-2.4594,1724
14,-0.3333,0.1653,-1.4419,-3.2007,1.5466,-2.5814,1927
14,0.0244,-0.8152,-1.2751,-2.9612,1.2223,-2.5032,2107
14,0.2031,-1.1389,-1.0586,-2.6777,0.8179,-2.38,2008
14,0.2456,-1.0557,-0.9404,-2.5003,0.6617,-2.3172,2155
14,0.187,-1.134,-0.9624,-2.4796,0.7328,-2.2398,2169
14,0.032,-1.2727,-1.0505,-2.4551,1.0846,-2.1225,2084
14,-0.1194,-1.2112,-1.1099,-2.4397,1.375,-2.0018,1953
14,-0.1421,-1.1389,-1.0876,-2.4185,1.8527,-1.8261,2173
14,-0.2053,-1.1096,-1.0237,-2.3301,2.1973,-1.6831,1871
14,-0.1492,-1.1958,-0.9746,-2.3325,2.317,-1.5749,2184
14,-0.1704,-1.1675,-0.9644,-2.2871,2.4286,-1.4816,1963
14,-0.3323,-1.0813,-0.905,-2.273,2.4293,-1.3998,1842
14,-0.3633,-1.0789,-0.9214,-2.2778,2.5276,-1.319,2087
14,-0.3994,-0.998,-0.9255,-2.2389,2.4848,-1.2764,2080
14,-0.4106,-0.8445,-0.959,-2.1687,2.3108,-1.3122,1992
14,-0.333,-0.761,-0.9338,-2.1158,2.0654,-1.3394,2055
14,-0.259,-0.6802,-0.8704,-2.0469,1.8202,-1.3854,2006
14,-0.1892,-0.6729,-0.8777,-1.9797,1.5984,-1.3207,2038
14,-0.1047,-0.6165,-0.9062,-1.8659,1.4278,-1.3623,2032
14,-0.031,-0.553,-0.9673,-1.7492,1.3215,-1.3539,2027
14,0.1069,-0.4861,-0.946,-1.6812,1.2934,-1.4218,2031
14,0.1755,-0.4219,-0.9285,-1.6093,1.2346,-1.3102,2037
14,0.1226,-0.3398,-0.916,-1.537,1.2109,-1.4375,2037
14,0.2546,-0.3203,-0.8857,-1.4458,1.1935,-1.2809,2037
14,0.2354,-0.3132,-0.8547,-1.3756,1.2852,-1.2043,2035
14,0.1865,-0.2642,-0.7837,-1.3862,1.4235,-1.3511,2032
14,0.2351,-0.3301,-0.7485,-1.3635,1.5355,-1.2908,2039
14,0.1765,-0.3184,-0.675,-1.3362,1.7153,-1.2664,2043
14,0.2175,-0.2852,-0.5967,-1.2661,1.8551,-1.3636,2039
14,0.199,-0.3088,-0.5818,-1.2579,1.9503,-1.3683,2044
14,0.3022,-0.3354,-0.6074,-1.1986,1.8114,-1.3224,2043
15,0.2639,-0.2598,-0.6714,-1.1479,1.7001,-1.3813,2034
15,0.2314,-0.1851,-0.7747,-0.9881,1.4111,-1.2242,2043
15,0.1726,-0.0984,-0.9033,-0.9043,1.0926,-1.3109,2038
15,0.2092,-0.0254,-0.8889,-0.7343,0.8554,-1.186,2036
15,0.1519,0.0208,-0.7451,-0.5281,0.9339,-1.118,2039
15,0.1746,-0.0115,-0.6177,-0.2834,1.0315,-1.0476,2036
15,0.1748,-0.1338,-0.4817,-0.1993,1.1082,-0.9227,2040
15,0.2627,-0.1877,-0.3616,-0.1912,1.2559,-0.8417,2040
15,0.3213,-0.2654,-0.3284,-0.2001,1.3661,-0.7091,2039
15,0.3208,-0.3308,-0.3406,-0.2819,1.4709,-0.4972,2035
15,0.2268,-0.3301,-0.3455,-0.2863,1.4133,-0.3115,2047
15,0.1716,-0.2847,-0.3352,-0.2262,1.2473,-0.1967,2036
15,0.1572,-0.2869,-0.3506,-0.1033,0.9752,-0.1214,2042
15,-0.0083,-0.4185,-0.3289,0.0024,0.7762,-0.2991,2043
15,-0.0303,-0.3501,-0.3066,-0.0111,0.509,-0.3276,2038
15,-0.0593,-0.3103,-0.2295,0.066,0.3787,-0.396,2045
15,-0.0393,-0.2478,-0.1526,0.1844,0.3734,-0.2175,2046
15,0.0432,-0.2241,-0.1484,0.4133,0.443,-0.1208,2031
15,0.0725,-0.3467,-0.1956,0.7008,0.4466,0.0441,2037
15,0.1255,-0.4099,-0.218,0.6753,0.3368,0.2116,2034
15,0.1201,-0.3823,-0.2856,0.6678,0.3402,0.2902,2019
15,0.0557,-0.3127,-0.2505,0.7474,0.283,0.4456,2040
15,-0.0005,-0.293,-0.1907,0.9344,0.2173,0.5243,2026
15,0.042,-0.3196,-0.1418,1.0451,0.0791,0.6885,2039
15,-0.0078,-0.3611,-0.1091,1.1441,0.0237,0.7576,2032
15,-0.0657,-0.3342,-0.1252,1.1298,-0.0631,0.8428,2047
15,-0.1377,-0.2798,-0.1611,1.2133,-0.1618,0.9769,2039
15,-0.1404,-0.3403,-0.1934,1.2837,-0.2326,1.0923,2042
15,-0.1201,-0.3435,-0.1384,1.4593,-0.414,1.2276,2061
15,-0.2222,-0.3447,-0.0366,1.5507,-0.5418,1.33,2076
15,-0.3157,-0.3755,-0.0444,1.554,-0.6513,1.449,2029
15,-0.3359,-0.4539,-0.0332,1.5536,-0.9192,1.4842,2028
15,-0.3445,-0.542,0.012,1.5483,-1.0006,1.6183,2017
15,-0.374,-0.6545,0.009,1.633,-1.0802,1.7463,2032
15,-0.4189,-0.8582,-0.0359,1.674,-1.2697,1.859,2035
15,-0.4641,-1.0503,-0.0728,1.6996,-1.4428,1.9835,2106
15,-0.4539,-1.2261,-0.1089,1.748,-1.6962,1.9965,2032
15,-0.4126,-1.3076,-0.1802,1.752,-1.9302,2.0526,2020
15,-0.3381,-1.428,-0.3965,1.7833,-2.1911,2.0277,2005
15,-0.2368,-1.5303,-0.6421,1.8703,-2.6669,2.1422,2025
15,-0.1318,-1.6216,-0.7715,2.1008,-3.0138,2.281,2068
15,-0.0845,-1.7107,-0.9189,2.536,-3.0656,2.4766,2042
15,-0.1389,-1.7803,-1.1011,2.9211,-3.2278,2.8277,2071
15,-0.1033,-1.7559,-1.229,3.3191,-3.3983,3.275,2021
15,-0.0686,-1.5735,-1.3967,3.7455,-3.3834,3.4457,2042
15,0.0254,-1.4199,-1.5647,4.3241,-3.2496,3.7041,2046
15,0.0591,-1.4663,-1.8777,4.3634,-3.0087,3.7944,2056
15,0.1375,-1.6265,-2.0,4.3634,-2.9171,3.9914,2052
15,0.2576,-1.4407,-2.0,4.3634,-2.6203,4.2077,2026
15,0.3086,-1.3452,-2.0,4.3634,-2.0406,4.1278,2078
15,0.6787,-1.4246,-2.0,4.3634,-1.5075,4.0611,2002
15,0.8506,-1.387,-2.0,4.3634,-0.9598,4.361,2033
15,0.4622,-1.0823,-2.0,4.3634,-0.2665,4.3634,2031
15,-0.4568,-1.0728,-2.0,4.3634,0.5152,4.3634,2240
15,-1.532,-1.6316,-1.2473,4.3634,1.2149,4.3634,2049
15,-2.0,-2.0,0.3708,4.3634,1.8433,4.0855,1806
15,-2.0,-2.0,1.9999,4.3634,0.6778,4.1293,2132
15,-1.3528,-2.0,1.9999,4.3634,2.1728,4.176,1945
15,1.9999,-2.0,0.5703,-4.3635,-4.3635,-2.5207,2013
15,1.9999,0.3359,-2.0,-4.3635,-4.3635,1.8799,2113
15,1.9999,1.9999,-2.0,-4.3635,-2.0802,-0.6062,2000
15,-2.0,1.9999,-1.8301,-4.3635,-3.1103,0.6906,1972
15,-2.0,-1.2859,-2.0,-4.3635,0.4099,0.4947,1936
15,-1.8567,-2.0,-2.0,-4.3635,1.7373,-0.6786,2405
15,1.9999,-2.0,-0.5471,-4.3635,3.9973,-1.8113,1731
15,0.8887,-0.6899,-1.731,-4.3635,3.2633,-0.3437,2034
15,-0.2188,-0.085,-0.6304,-4.3635,2.0161,-1.0832,2133
15,-0.1372,0.3967,-0.2781,-4.2033,2.4309,-1.3435,2048
15,-0.1709,0.8223,-0.7969,-3.8166,1.9779,-1.6056,2206
15,-0.5654,0.6355,-0.9055,-3.5643,1.8829,-1.8168,1942
15,-0.6167,0.0815,-1.2258,-3.2383,1.8245,-1.8262,2040
15,-0.4263,-0.3899,-1.1086,-3.1981,1.6596,-1.7737,1760
15,-0.2439,-0.5647,-0.7939,-3.085,1.6202,-1.7781,2189
15,-0.1797,-0.571,-0.8237,-2.9825,1.331,-1.8833,2067
15,-0.1414,-0.5676,-0.8394,-2.9112,1.1938,-2.0648,2242
15,-0.0989,-0.6487,-0.9692,-2.8805,1.1049,-2.1198,2057
15,-0.0027,-0.718,-0.8909,-2.8353,1.1621,-2.1035,1972
15,0.1392,-0.7925,-0.9253,-2.7815,1.2551,-2.0214,2123
15,0.2178,-0.8447,-0.9639,-2.7416,1.4278,-1.9584,2084
15,0.228,-0.7393,-0.8921,-2.714,1.7073,-1.8455,1776
15,0.2458,-0.6567,-0.8811,-2.6698,2.0015,-1.735,2072
15,0.2065,-0.6367,-0.8567,-2.6125,2.155,-1.5799,2075
15,0.1479,-0.5979,-0.9402,-2.5721,2.3661,-1.4898,2108
15,0.0234,-0.5327,-0.9443,-2.475,2.5237,-1.5032,2088
15,0.0168,-0.5474,-0.8599,-2.4236,2.4866,-1.4241,2041
15,0.0657,-0.5505,-0.8196,-2.3666,2.4764,-1.4253,2079
15,0.0508,-0.51,-0.7478,-2.3246,2.2997,-1.4519,2049
15,0.1128,-0.4495,-0.7576,-2.263,2.1357,-1.4266,2019
15,0.1052,-0.3889,-0.8157,-2.1361,2.0174,-1.4869,2038
15,0.1023,-0.3027,-0.8342,-2.0319,1.9014,-1.4942,2030
15,0.0925,-0.2339,-0.8635,-1.8591,1.8759,-1.5191,2032
15,0.0547,-0.1753,-0.8433,-1.7377,1.8283,-1.5691,2031
15,0.127,-0.1965,-0.8391,-1.5139,1.7476,-1.5034,2005
15,0.1628,-0.1724,-0.8406,-1.3247,1.8359,-1.6082,2035
15,0.2432,-0.2288,-0.8186,-1.0752,1.9306,-1.433,2049
15,0.2156,-0.1924,-0.802,-0.9126,2.0022,-1.5199,2035
15,0.3369,-0.2922,-0.7407,-0.734,2.1117,-1.3181,2037
15,0.3191,-0.4041,-0.7754,-0.644,2.1977,-1.4348,2042
15,0.3032,-0.375,-0.7952,-0.4635,2.0869,-1.4435,2040
15,0.2849,-0.408,-0.7988,-0.3912,1.8636,-1.3209,2041
15,0.2646,-0.3477,-0.8315,-0.3148,1.6097,-1.1291,2024
15,0.2217,-0.188,-0.7534,-0.1224,1.364,-1.0183,2037
15,0.1707,-0.1692,-0.625,-0.1133,1.4046,-1.1359,2042
15,0.1599,-0.2024,-0.4797,-0.0888,1.5149,-1.1451,2033
15,0.1794,-0.2463,-0.3511,-0.1915,1.6307,-1.0914,2031
16,0.144,-0.2708,-0.2739,-0.3159,1.8085,-0.8357,2041
16,0.0908,-0.3149,-0.2827,-0.3992,1.8528,-0.6618,2027
16,0.0996,-0.3906,-0.3306,-0.2671,1.5741,-0.5071,2027
16,0.0356,-0.4556,-0.4084,-0.1634,1.3456,-0.5028,2059
16,-0.021,-0.4634,-0.3855,-0.1206,1.1511,-0.6039,2046
16,-0.0593,-0.3643,-0.4275,-0.1416,0.9837,-0.7197,2040
16,-0.0591,-0.1262,-0.3696,-0.116,0.8501,-0.5542,2045
16,0.0024,-0.0557,-0.2578,0.0791,0.8056,-0.5779,2040
16,0.1194,-0.0623,-0.22,0.2872,0.8742,-0.4823,2067
16,0.0994,-0.0708,-0.1987,0.4625,0.9127,-0.1542,2006
16,0.0276,-0.2671,-0.1611,0.4894,0.9517,0.1248,2041
16,-0.1187,-0.3533,-0.2336,0.3766,0.8637,0.2047,2036
16,-0.0808,-0.3484,-0.3616,0.432,0.5396,0.2021,2048
16,-0.1169,-0.2678,-0.313,0.6243,0.2394,0.2394,2054
16,-0.207,-0.2725,-0.1941,0.6184,0.2183,0.096,2047
16,-0.1194,-0.261,-0.1545,0.8526,0.0944,0.3414,2037
16,-0.1016,-0.3008,-0.0527,1.042,-0.027,0.227,2039
16,-0.0908,-0.3901,0.0657,1.1222,-0.1489,0.4671,2032
16,-0.1545,-0.5093,0.1187,1.0481,-0.233,0.5727,2025
16,-0.2363,-0.5762,0.1021,1.0334,-0.278,0.8284,2043
16,-0.2778,-0.698,0.0532,0.8604,-0.405,0.9792,2048
16,-0.2383,-0.7021,0.0354,0.8893,-0.71,1.0665,2026
16,-0.2253,-0.5613,-0.0371,1.128,-1.0657,1.1961,2024
16,-0.293,-0.6973,-0.0952,1.2813,-1.2507,1.3141,2000
16,-0.3523,-0.8545,-0.115,1.3169,-1.1999,1.6708,2041
16,-0.3081,-0.9839,-0.0554,1.4154,-1.256,1.7732,2069
16,-0.3821,-1.0029,-0.0525,1.4588,-1.2453,1.9772,2072
16,-0.4751,-1.0693,-0.1238,1.4608,-1.3356,2.1055,2067
16,-0.5107,-1.2695,-0.282,1.5763,-1.6542,2.1993,2059
16,-0.5437,-1.531,-0.5027,1.6155,-2.1947,2.27,2046
16,-0.4849,-1.7085,-0.6497,1.8413,-2.892,2.2995,2043
16,-0.332,-1.7742,-0.6697,2.1114,-3.4955,2.3563,2065
16,-0.3032,-1.7878,-0.7227,2.3876,-4.0785,2.461,2032
16,-0.3328,-1.7422,-0.8711,2.673,-4.3337,2.5595,2066
16,-0.2627,-1.6689,-1.2485,3.1256,-4.2642,2.6903,2040
16,-0.1562,-1.6257,-1.6924,3.6832,-4.2082,2.9682,2025
16,0.0442,-1.6274,-2.0,4.1564,-4.0486,3.289,2004
16,0.1528,-1.7312,-2.0,4.3634,-3.7739,3.5695,2017
16,0.1755,-1.8086,-2.0,4.3634,-3.4938,3.7564,2056
16,0.199,-1.5894,-2.0,4.3634,-3.1031,3.5383,2080
16,0.3611,-1.1416,-2.0,4.3634,-2.4156,3.664,2067
16,0.7131,-1.4119,-1.9614,4.3634,-1.8897,3.9207,2042
16,1.0964,-1.7981,-1.8218,4.3634,-1.4601,4.094,2014
16,0.8442,-1.3789,-1.8679,4.3634,-1.2428,4.2125,2032
16,0.4705,-1.1001,-1.9639,4.3634,-0.6192,4.3634,2066
16,-0.4583,-1.26,-2.0,4.3634,0.0798,4.3634,2024
16,-1.3953,-1.7058,-1.627,4.3634,0.8311,4.3634,2006
16,-2.0,-1.7124,-1.2817,4.3634,1.5275,4.3634,2166
16,-2.0,-1.8401,-0.304,4.3634,1.37,4.3634,1991
16,-2.0,-2.0,1.0913,4.3634,0.2009,4.3634,1991
16,-2.0,-2.0,1.9999,4.3634,-0.1308,4.3634,2034
16,1.9999,-2.0,-1.7312,-2.904,-0.7517,-0.9489,1748
16,1.9999,-2.0,-2.0,-4.3635,-4.3635,-1.8502,2254
16,1.9999,1.9999,-2.0,-4.3635,-4.3635,-0.0072,2232
16,-1.9119,1.9999,-2.0,-4.3635,-4.3635,-0.9162,1983
16,-2.0,0.9373,-2.0,-4.3635,-0.5927,0.0461,2214
16,-2.0,-1.7432,-1.1431,-4.3635,3.6077,-1.0937,2125
16,1.6228,-2.0,-0.7793,-4.3635,4.3634,0.968,2181
16,1.0188,-1.0618,-1.3953,-4.3635,3.8273,-1.5603,1992
16,-0.1316,0.3718,-1.239,-4.3635,2.3305,-1.3039,1931
16,-0.8958,0.5205,-0.3655,-4.3635,2.325,-1.0621,2098
16,-0.7041,1.105,-0.6213,-4.1626,2.2372,-1.6068,2006
16,-0.3257,0.6665,-1.3088,-3.7318,1.922,-1.9588,1815
16,-0.2063,-0.1487,-1.4221,-3.599,1.427,-2.2607,2166
16,-0.2534,-0.6118,-1.4509,-3.3652,0.9728,-2.4634,2111
16,0.0042,-0.6584,-1.1294,-3.3085,0.5986,-2.5148,2182
16,0.2405,-0.835,-0.988,-3.1477,0.3076,-2.5614,2085
16,0.2896,-0.9006,-0.9653,-3.0582,0.0787,-2.7364,2030
16,0.2664,-0.9548,-1.0396,-3.0431,0.3253,-2.6243,1921
16,0.3457,-1.0027,-1.0156,-3.0574,0.6504,-2.4221,2066
16,0.3313,-1.012,-0.9395,-3.0253,1.2192,-2.2774,2178
16,0.21,-0.9883,-0.7898,-3.002,1.556,-2.0242,2011
16,0.1755,-0.9565,-0.7605,-2.9211,1.922,-1.9427,2080
16,0.1638,-0.9463,-0.783,-2.8819,2.2249,-1.772,2065
16,0.062,-0.8555,-0.7466,-2.8092,2.3097,-1.6259,2070
16,-0.0808,-0.7678,-0.8218,-2.6935,2.3459,-1.5127,2033
16,-0.1758,-0.7324,-0.8801,-2.5296,2.4073,-1.4161,2061
16,-0.1462,-0.6626,-0.8899,-2.3724,2.4651,-1.3118,2030
16,-0.1636,-0.5791,-0.918,-2.2434,2.4756,-1.1959,2033
16,-0.1721,-0.5437,-0.9219,-2.0015,2.5425,-1.1268,2033
16,-0.144,-0.5444,-0.96,-1.7796,2.5508,-1.1637,2045
16,-0.0344,-0.5583,-0.9409,-1.5496,2.4655,-1.1861,2029
16,0.0417,-0.4817,-0.9136,-1.2222,2.4085,-1.1505,2042
16,0.0771,-0.4924,-0.937,-1.0139,2.2931,-1.2469,2038
16,0.1614,-0.5122,-0.8916,-0.7498,2.2867,-1.1632,2041
16,0.1531,-0.4595,-0.9172,-0.6042,2.4566,-0.9528,2042
16,0.0789,-0.6011,-0.8755,-0.4755,2.6473,-1.0103,2032
16,0.0369,-0.7595,-0.8582,-0.4393,2.8052,-0.9845,2032
16,-0.0371,-0.7722,-0.7925,-0.4212,2.8931,-0.9379,2041
16,-0.0234,-0.7629,-0.6611,-0.3848,2.8982,-1.065,2052
16,0.0359,-0.7473,-0.5352,-0.4552,2.7121,-1.0762,2026
16,0.04,-0.7729,-0.3979,-0.4275,2.4671,-1.2926,2027
16,0.1411,-0.6875,-0.2324,-0.5488,2.2553,-1.2256,2041
16,0.0913,-0.625,-0.2539,-0.508,2.1763,-1.2452,2032
16,0.1501,-0.4951,-0.3562,-0.483,2.1848,-1.2788,2029
16,0.1191,-0.4045,-0.3447,-0.5187,2.3896,-1.271,2028
16,0.1255,-0.2749,-0.4036,-0.5333,2.5598,-1.2061,2049
16,0.1211,-0.2207,-0.3059,-0.514,2.6702,-0.9086,2029
16,0.0171,-0.4265,-0.2451,-0.4171,2.5722,-0.7999,2033
16,-0.0288,-0.5264,-0.29,-0.3666,2.1585,-0.6644,2042
16,-0.0579,-0.4705,-0.2913,-0.384,1.6323,-0.6687,2028
17,-0.0977,-0.302,-0.3247,-0.1597,1.2017,-0.6251,2023
17,-0.1104,-0.2454,-0.3643,-0.0479,0.9822,-0.6409,2033
17,-0.0327,-0.2256,-0.4055,0.1313,0.6674,-0.5865,2026
17,0.0283,-0.26,-0.3494,0.2165,0.3666,-0.5444,2026
17,0.0818,-0.3269,-0.2483,0.3247,0.2192,-0.3966,2038
17,0.0181,-0.3357,-0.1975,0.3225,0.1479,-0.2171,2039
17,0.0569,-0.3528,-0.1416,0.3263,0.149,-0.0385,2035
17,0.0627,-0.406,-0.1074,0.3413,0.1963,0.2009,2029
17,0.1211,-0.4536,-0.0947,0.2766,0.1839,0.3189,2043
17,0.1191,-0.4092,-0.1497,0.326,0.0917,0.5243,2035
17,0.0593,-0.4336,-0.1672,0.4304,0.0758,0.693,2022
17,-0.0427,-0.3352,-0.1733,0.5781,-0.0045,0.9103,2048
17,-0.094,-0.3708,-0.1245,0.6742,-0.1313,1.0601,2029
17,-0.1377,-0.429,-0.0901,0.7421,-0.243,1.2176,2018
17,-0.1716,-0.4614,-0.0901,0.7705,-0.4362,1.3081,2023
17,-0.1145,-0.4888,-0.1135,0.8467,-0.7399,1.4174,2021
17,-0.1196,-0.5391,-0.0603,0.901,-1.0284,1.5161,2046
17,-0.0732,-0.5312,-0.0605,0.93,-1.2575,1.5737,2031
17,-0.1155,-0.5183,-0.0713,1.1038,-1.4233,1.6169,2036
17,-0.1653,-0.6167,-0.146,1.2292,-1.5203,1.6936,2034
17,-0.1226,-0.6663,-0.3013,1.4145,-1.6801,1.7563,2032
17,-0.0774,-0.7134,-0.406,1.6326,-1.7287,1.8222,2026
17,-0.0312,-0.7742,-0.4453,1.7527,-1.8002,1.9295,2032
17,-0.0566,-0.8306,-0.3738,1.8678,-1.8329,2.0847,2037
17,-0.1487,-0.8979,-0.2971,2.0827,-1.9271,2.2526,2031
17,-0.1357,-1.0276,-0.2231,2.2238,-1.9386,2.4277,2048
17,-0.1624,-1.1782,-0.1731,2.361,-2.0077,2.5418,2023
17,-0.1821,-1.3298,-0.1692,2.4594,-2.1447,2.6077,2050
17,-0.1016,-1.5164,-0.2678,2.3285,-2.1634,2.7592,2018
17,-0.0405,-1.5544,-0.4639,2.223,-2.3493,2.9914,2023
17,-0.0525,-1.5984,-0.687,2.3529,-2.7538,3.2256,2047
17,-0.114,-1.5334,-0.9387,2.5472,-3.1107,3.2877,2011
17,-0.2222,-1.5254,-1.0681,2.9861,-3.1733,3.4113,2052
17,-0.377,-1.6975,-1.2922,3.4636,-3.0401,3.3959,2056
17,-0.439,-1.8384,-1.4797,3.9479,-3.1067,3.4661,1992
17,-0.4927,-1.8457,-1.6748,4.3634,-2.9311,3.6227,2023
17,-0.323,-2.0,-1.822,4.3634,-2.4533,3.7063,2022
17,-0.1418,-2.0,-1.9797,4.3634,-1.7607,4.104,2024
17,0.1543,-2.0,-1.7986,4.3634,-1.1039,4.3634,2049
17,0.3074,-1.9463,-1.6472,4.3634,-0.4092,4.3634,2052
17,0.1792,-1.8154,-1.5459,4.3634,-0.0398,4.3634,2066
17,-0.4597,-1.8032,-1.4736,4.3634,0.3726,4.3634,1958
17,-0.9824,-1.7107,-1.5256,4.3634,0.8102,4.3634,2021
17,-1.2456,-1.9534,-1.405,4.3634,1.2959,4.3634,2008
17,-1.4221,-2.0,-0.8503,4.3634,1.8134,4.3634,2001
17,-1.5376,-2.0,-0.1106,4.3634,1.8016,4.3634,1743
17,-1.4685,-2.0,0.5615,4.3634,1.5093,4.3634,2082
17,1.9999,-2.0,-1.5073,0.2337,1.9744,-0.6624,1947
17,1.9999,-2.0,-2.0,-4.3635,-4.3635,-0.93,2025
17,1.9999,1.9999,-2.0,-4.3635,-4.3635,-0.9949,2244
17,0.7542,1.9999,-2.0,-4.3635,-4.3635,1.0425,2024
17,-2.0,1.915,-2.0,-4.3635,-4.3635,-0.8873,2120
17,-2.0,0.179,-1.3826,-4.066,0.7297,-1.5584,2232
17,-1.0601,-1.2734,-1.3167,-4.3635,2.3585,-0.3983,1888
17,1.8955,-1.5327,-0.6184,-4.3635,3.6904,-2.0359,1900
17,-0.8447,0.071,-0.7456,-4.0072,2.9797,-1.7483,2115
17,-1.2581,0.6223,-0.7507,-4.2704,1.8016,-2.1961,1751
17,-0.2144,0.3782,-1.2815,-3.5536,1.5044,-2.4221,2293
17,0.1482,-0.1326,-1.3157,-3.181,0.6815,-2.4256,2015
17,0.3586,-0.6499,-1.2141,-3.1706,-0.3244,-2.6537,2069
17,0.1475,-0.9651,-0.9543,-2.9665,-0.579,-2.5152,1874
17,-0.0706,-1.0242,-0.824,-2.9058,-0.5143,-2.2345,1972
17,-0.1277,-0.9094,-1.0195,-2.838,0.1405,-1.9596,2031
17,0.0984,-1.0239,-1.0681,-2.9095,0.7147,-1.9266,2042
17,0.3315,-1.1592,-1.0564,-2.9124,1.1226,-1.7391,2058
17,0.2078,-1.1477,-0.9875,-2.9538,1.4651,-1.5781,2045
17,0.0247,-1.2017,-0.7683,-3.0945,2.0077,-1.482,2025
17,-0.0269,-1.1621,-0.7861,-3.1448,2.4392,-1.3508,2091
17,-0.2031,-0.9756,-0.8701,-3.1287,2.7449,-1.3548,1989
17,-0.2808,-0.8472,-0.8225,-3.0991,2.7324,-1.3689,1983
17,-0.3474,-0.7361,-0.8333,-2.9963,2.4794,-1.4545,2024
17,-0.3086,-0.6814,-0.7837,-2.8509,2.1955,-1.5114,2042
17,-0.283,-0.6077,-0.7971,-2.773,1.9375,-1.5974,2006
17,-0.2937,-0.5859,-0.8726,-2.6509,1.8732,-1.6789,1987
17,-0.2607,-0.531,-0.8774,-2.5723,1.7406,-1.7825,2056
17,-0.1079,-0.376,-0.8965,-2.4195,1.4202,-1.821,2032
17,0.0447,-0.3972,-0.8892,-2.2835,1.1833,-1.7668,2032
17,0.1641,-0.4287,-0.8354,-2.0803,1.0857,-1.8552,2037
17,0.2812,-0.4465,-0.7932,-1.9535,1.0392,-1.7966,2032
17,0.4543,-0.4504,-0.7573,-1.7759,1.1156,-1.6796,2033
17,0.4856,-0.4368,-0.7654,-1.6366,1.3134,-1.4872,2041
17,0.4346,-0.4238,-0.8357,-1.5045,1.5696,-1.3703,2022
17,0.4036,-0.4124,-0.8567,-1.3826,1.8982,-1.2408,2029
17,0.3318,-0.4871,-0.8762,-1.3238,2.1394,-1.0592,2032
17,0.2551,-0.6333,-0.9021,-1.2222,2.3136,-1.1366,2042
17,0.3088,-0.668,-0.8523,-1.1599,2.408,-1.0618,2031
17,0.2883,-0.6125,-0.7161,-1.1997,2.4446,-1.0108,2060
17,0.1953,-0.5381,-0.6101,-1.1958,2.3706,-1.026,2043
17,0.0762,-0.429,-0.5198,-1.1587,2.288,-1.0836,2041
17,0.0742,-0.3118,-0.5566,-0.9946,2.0212,-1.0556,2033
17,0.0654,-0.3796,-0.5435,-0.7332,1.6653,-1.077,2038
17,0.1318,-0.4353,-0.5242,-0.6453,1.5123,-1.1989,2044
17,0.1128,-0.4866,-0.5103,-0.5674,1.4235,-1.2559,2035
17,0.1782,-0.3264,-0.4492,-0.4702,1.3438,-1.1274,2038
17,0.176,-0.2273,-0.4448,-0.4213,1.3616,-0.914,2026
17,0.0754,-0.2659,-0.4922,-0.4018,1.3936,-0.8184,2021
17,-0.0449,-0.4902,-0.4417,-0.3983,1.6647,-0.7692,2038
17,-0.0225,-0.5786,-0.405,-0.5039,1.8721,-0.4797,2032
17,-0.0923,-0.5947,-0.3516,-0.3521,1.9258,-0.2975,2063
17,-0.1177,-0.5442,-0.3228,-0.1701,1.6219,-0.2276,2038
17,0.0266,-0.55,-0.3264,-0.0852,1.1529,-0.2294,2039
17,-0.0137,-0.4287,-0.3313,-0.1136,0.8483,-0.3075,2047
18,-0.0073,-0.2295,-0.3225,0.083,0.7383,-0.3072,2037
18,-0.1162,-0.3201,-0.3284,0.2713,0.5533,-0.1579,2034
18,-0.0002,-0.5422,-0.2891,0.246,0.2719,-0.0518,2023
18,0.0537,-0.509,-0.168,0.3025,0.2123,0.104,2045
18,0.054,-0.5107,-0.1023,0.3915,0.2179,0.236,2026
18,0.0286,-0.4497,-0.0986,0.3205,0.0734,0.3011,2029
18,0.0637,-0.3298,-0.134,0.3794,-0.041,0.5083,2065
18,-0.043,-0.2822,-0.1191,0.5269,-0.0312,0.6705,2029
18,-0.0066,-0.2769,-0.1628,0.7562,-0.163,0.8268,2047
18,-0.0598,-0.3833,-0.1428,0.7524,-0.1639,0.9235,2034
18,-0.1462,-0.3179,-0.1538,0.8427,-0.2549,1.0336,2038
18,-0.176,-0.3257,-0.0955,0.9143,-0.326,1.1552,2036
18,-0.2144,-0.3428,-0.0159,0.9439,-0.3649,1.3346,2034
18,-0.1914,-0.4292,0.052,0.9913,-0.5116,1.4107,2044
18,-0.1975,-0.5098,0.1255,1.062,-0.6422,1.529,2027
18,-0.2417,-0.6145,0.1206,1.0874,-0.7416,1.5908,2054
18,-0.2312,-0.7209,0.0374,1.1272,-0.8271,1.6103,2038
18,-0.2439,-0.7581,-0.1316,1.1035,-0.9274,1.6535,2038
18,-0.3115,-0.7957,-0.3416,1.1232,-1.1106,1.7496,2029
18,-0.3562,-0.8464,-0.449,1.1437,-1.3415,1.8639,1990
18,-0.3818,-0.9451,-0.4932,1.154,-1.4804,1.9925,2040
18,-0.4136,-1.0195,-0.5847,1.2045,-1.666,2.1466,2033
18,-0.5139,-1.052,-0.6255,1.464,-1.9694,2.2629,2064
18,-0.4863,-1.0784,-0.6353,1.7954,-2.3396,2.3451,2041
18,-0.4155,-1.2805,-0.6948,2.116,-2.5974,2.4675,2034
18,-0.3391,-1.6016,-0.7346,2.3561,-2.818,2.6781,2110
18,-0.292,-1.8252,-0.8145,2.5047,-2.9711,2.9525,2031
18,-0.3137,-1.8918,-1.0813,2.6088,-3.0597,3.0835,2022
18,-0.2847,-1.6636,-1.3452,2.9267,-3.1319,3.209,2002
18,-0.2234,-1.415,-1.6353,3.4078,-3.2569,3.2441,2014
18,-0.0012,-1.4346,-2.0,4.1491,-3.1628,3.2693,2021
18,0.2727,-1.5798,-2.0,4.3634,-2.8275,3.3994,2024
18,0.5608,-1.5793,-2.0,4.3634,-2.4814,3.8398,2006
18,0.5254,-1.5349,-2.0,4.3634,-1.6715,4.3194,2055
18,0.5393,-1.3501,-1.7952,4.3634,-0.8255,4.3634,2021
18,0.5583,-1.2747,-1.6013,4.3634,-0.2068,4.3634,2051
18,0.3206,-1.3228,-1.4163,4.3634,0.6024,4.3634,2166
18,0.0833,-1.3977,-1.491,4.3634,1.0347,4.3634,2003
18,-0.4248,-1.4802,-1.5784,4.3634,1.3495,4.3634,2083
18,-1.2876,-0.989,-1.449,4.3634,1.5185,4.3634,2013
18,-2.0,-1.3892,-0.9873,4.3634,1.6731,4.3634,1888
18,-2.0,-2.0,-0.3672,4.3634,2.0373,4.3634,2263
18,-2.0,-2.0,0.3884,4.3634,2.1856,4.3634,2027
18,-1.9717,-2.0,1.9999,4.3634,4.3634,3.8439,2099
18,1.9999,-2.0,1.1992,-4.3635,-4.3635,-3.9279,2186
18,1.9999,1.9999,-2.0,-4.3635,-4.3635,0.6795,2026
18,1.9999,1.9999,-2.0,-4.3635,-4.3635,-1.9519,2106
18,-1.178,1.9999,-2.0,-4.3635,-4.3635,0.5976,1851
18,-2.0,1.9999,-1.3306,-3.0355,-1.1613,0.3686,1801
18,-2.0,-0.8594,-0.9316,-4.3635,2.8889,-0.8974,2353
18,0.0132,-2.0,-1.3965,-4.3635,4.3634,-1.7735,2038
18,1.9999,-2.0,-0.6287,-4.3635,4.3634,-2.0129,2092
18,-0.5684,0.8254,-1.0081,-3.3158,1.8317,-0.6851,2152
18,-0.7998,1.084,-0.5291,-4.0013,1.4822,-1.7665,1970
18,-0.1323,0.782,-1.3491,-3.3172,1.6127,-2.1354,2051
18,0.2947,0.2075,-1.2947,-2.8714,1.1909,-2.433,2122
18,0.1509,-0.478,-1.3132,-2.737,0.874,-2.5205,2034
18,0.0034,-0.8467,-1.2168,-2.5637,0.8435,-2.4515,2038
18,-0.0649,-0.9211,-0.8875,-2.5747,0.8971,-2.1455,2050
18,0.0872,-0.5828,-1.0249,-2.5571,1.1393,-2.1535,2048
18,0.2463,-0.501,-1.1611,-2.4525,1.4035,-2.4011,2028
18,0.2646,-0.8245,-1.1296,-2.3999,1.519,-2.3222,1874
18,0.272,-1.0164,-1.0911,-2.4157,1.6844,-2.2056,2274
18,0.1423,-1.0447,-1.0798,-2.3798,1.851,-2.0712,2049
18,0.0505,-1.0903,-1.0229,-2.3619,2.055,-1.9932,2064
18,0.1362,-1.0916,-0.8955,-2.381,2.2033,-1.8827,2056
18,0.1392,-0.9204,-0.8462,-2.4003,2.1951,-1.8004,1902
18,-0.0066,-0.793,-0.812,-2.381,2.2823,-1.761,1959
18,-0.1841,-0.7573,-0.8005,-2.3718,2.3372,-1.745,2110
18,-0.2832,-0.7126,-0.7776,-2.3598,2.4348,-1.7391,2009
18,-0.3738,-0.6184,-0.7712,-2.3041,2.4254,-1.7202,2052
18,-0.3428,-0.5159,-0.7651,-2.2415,2.2546,-1.7394,2043
18,-0.2488,-0.4202,-0.7437,-2.1739,2.0112,-1.7263,2029
18,-0.1995,-0.3274,-0.7827,-2.0481,1.6527,-1.7532,2029
18,-0.1138,-0.3264,-0.7917,-1.9433,1.3374,-1.7831,2023
18,-0.0471,-0.2805,-0.8323,-1.8113,1.1403,-1.7354,2029
18,0.0146,-0.2488,-0.8677,-1.6752,1.0431,-1.7643,2026
18,0.127,-0.2336,-0.9001,-1.5593,0.9381,-1.7191,2033
18,0.2256,-0.2693,-0.9148,-1.4336,0.7926,-1.743,2039
18,0.3098,-0.3552,-0.9438,-1.3639,0.6373,-1.7412,2036
18,0.3804,-0.4285,-0.9277,-1.2527,0.6229,-1.7008,2029
18,0.416,-0.4231,-0.8157,-1.2168,0.6469,-1.6355,2040
18,0.4136,-0.3359,-0.7749,-1.1436,0.7332,-1.6966,2042
18,0.3503,-0.4312,-0.7773,-0.9769,0.8918,-1.674,2030
18,0.4441,-0.5081,-0.7402,-0.9616,1.0248,-1.5797,2030
18,0.3682,-0.5239,-0.7517,-1.005,1.2123,-1.5024,2030
18,0.3958,-0.4836,-0.7769,-0.993,1.2974,-1.4147,2029
18,0.3477,-0.4087,-0.6719,-0.9862,1.3712,-1.3228,2044
18,0.2998,-0.2368,-0.5942,-0.8068,1.4468,-1.3093,2040
18,0.3035,0.0151,-0.5518,-0.5,1.128,-0.8681,2042
18,0.0535,-0.4836,-0.5303,-0.82,1.1533,-0.8019,2018
18,0.0249,-0.5247,-0.5513,-0.2543,1.1721,-1.0642,2042
18,0.0234,-0.1174,-0.5269,-0.2848,0.9573,-1.095,2049
18,0.0996,-0.2627,-0.5974,-0.176,0.9071,-0.9532,2037
18,0.1409,-0.2852,-0.5696,-0.0443,0.8456,-0.8998,2056
18,0.2224,-0.3198,-0.4475,-0.0967,0.9584,-0.6208,2029
18,0.1316,-0.2292,-0.3284,0.0041,1.1323,-0.5382,2036
18,0.2014,-0.1519,-0.2312,0.0886,1.342,-0.4926,2020
18,0.1543,-0.2192,-0.199,0.1912,1.5097,-0.4147,2042
18,0.156,-0.3738,-0.2222,0.0549,1.5492,-0.3484,2030
18,0.1677,-0.4663,-0.2954,0.0533,1.4286,-0.0931,2032
18,0.1646,-0.4219,-0.3777,-0.02,1.0834,0.1149,2038
18,0.043,-0.3091,-0.4155,0.0618,0.7974,0.0748,2042
18,0.0586,-0.283,-0.3845,0.1772,0.6054,0.0655,2019
18,0.0254,-0.1948,-0.3523,0.2095,0.5128,0.0738,2065
19,-0.0293,-0.1929,-0.3113,0.3193,0.5927,0.2296,2026
19,-0.0537,-0.2532,-0.238,0.4715,0.6568,0.3043,2029
19,0.0044,-0.2988,-0.1531,0.5007,0.5839,0.4504,2043
19,0.0583,-0.3916,-0.1165,0.5667,0.4633,0.5011,2049
19,0.0166,-0.4597,-0.0703,0.5992,0.2894,0.597,2021
19,-0.0195,-0.4248,-0.0625,0.577,0.0377,0.7034,2040
19,-0.0659,-0.2869,-0.1157,0.6223,-0.1426,0.7758,2037
19,-0.1355,-0.1836,-0.1008,0.7738,-0.2711,0.8993,2045
19,-0.2139,-0.2947,-0.0752,0.903,-0.4048,0.952,2056
19,-0.2002,-0.4285,-0.0728,1.0236,-0.5834,1.0765,2038
19,-0.1951,-0.5608,-0.0007,1.0053,-0.7782,1.0698,2047
19,-0.2219,-0.5779,0.0781,0.9898,-0.9368,1.123,2032
19,-0.3394,-0.616,0.1313,0.9072,-1.0877,1.2103,2010
19,-0.4551,-0.7646,0.1685,0.8299,-1.3496,1.2591,2020
19,-0.5681,-0.8789,0.2764,0.8701,-1.5201,1.3348,1958
19,-0.8064,-1.0676,0.323,0.7485,-1.9928,1.2604,2040
19,-0.876,-1.3328,0.0139,0.5272,-2.8975,1.116,2022
19,-0.6653,-1.6096,-0.4988,0.5398,-3.6162,0.9847,1984
19,-0.3862,-1.4729,-0.824,1.1126,-4.1514,0.8558,2051
19,-0.1045,-1.2825,-1.062,1.4719,-4.1415,0.9066,2022
19,0.0339,-1.4666,-1.0779,1.6592,-3.9687,1.1613,2034
19,-0.0601,-1.8076,-0.8396,2.0209,-3.9659,1.6001,2085
19,-0.3027,-2.0,-0.7712,2.3784,-3.9187,2.0519,2073
19,-0.3608,-2.0,-0.9949,2.7811,-3.7704,2.5686,2050
19,-0.3606,-1.6982,-1.5142,3.2467,-3.5278,3.1352,2022
19,-0.2632,-1.3767,-1.9453,3.7898,-3.2961,3.3226,2028
19,-0.0093,-1.2832,-2.0,4.3634,-3.1938,3.6735,1918
19,0.1995,-1.1182,-2.0,4.3634,-3.1696,3.9213,2013
19,0.3521,-0.9587,-2.0,4.3634,-3.0505,3.9998,2038
19,0.3745,-0.7363,-2.0,4.3634,-2.8789,4.0731,2002
19,0.6221,-0.615,-2.0,4.3634,-2.3048,4.0773,2092
19,0.9321,-0.5288,-2.0,4.3634,-1.661,4.0126,2047
19,1.0996,-0.3362,-2.0,4.3634,-1.1595,4.1403,2017
19,0.8989,-0.3003,-2.0,4.3634,-0.4733,4.2076,2014
19,0.5579,-0.3564,-2.0,4.3634,-0.0411,4.3634,2008
19,0.0637,-0.3184,-2.0,4.3634,0.6462,4.3634,2115
19,-0.9717,-0.5276,-2.0,4.3634,1.4416,4.3634,1890
19,-2.0,-0.823,-1.1243,4.3634,1.7825,4.3634,1903
19,-2.0,-1.9663,0.8831,4.3634,2.6659,2.8365,2103
19,-2.0,-2.0,1.9999,4.3634,4.3634,0.4924,2227
19,1.9999,-2.0,1.9999,-4.3635,-4.3635,-1.3655,2192
19,1.9999,1.9999,-2.0,-4.3635,-4.3635,-0.6907,1791
19,1.9999,1.9999,-2.0,-4.3635,-4.3635,0.9208,2042
19,-2.0,1.9999,-2.0,-4.3635,-4.3635,-1.4532,2192
19,-2.0,1.0525,-2.0,-4.3635,2.1642,-0.3477,1911
19,-2.0,-1.1897,-2.0,-4.3635,1.431,-1.3033,2362
19,1.7534,-2.0,-0.2778,-4.3635,4.3634,-2.349,1698
19,0.3982,-0.7559,-1.4934,-4.0504,2.4187,-2.3732,2209
19,-0.8613,0.0247,-0.8743,-4.2636,0.9621,-2.2929,1993
19,-0.4971,0.3845,-1.0906,-4.2037,1.7721,-2.0865,2266
19,-0.2727,0.7881,-1.1162,-3.6739,1.0357,-2.2538,2262
19,-0.0461,0.8647,-1.1746,-3.3224,0.9857,-2.6293,2011
19,-0.0391,-0.2158,-1.1399,-2.9893,0.5303,-2.7931,2057
19,0.2932,-0.9421,-0.9678,-2.9586,0.4633,-2.4081,2006
19,0.2078,-0.9646,-0.6409,-3.0003,0.7415,-2.0278,1979
19,0.1741,-0.4934,-0.8115,-3.0942,1.2304,-1.9544,2072
19,0.395,-0.3545,-0.9285,-3.0589,1.4838,-1.9558,2404
19,0.3779,-0.6528,-1.1921,-3.0191,1.7241,-1.7668,1930
19,0.0938,-0.9036,-1.1665,-3.008,1.9258,-1.652,2086
19,-0.0623,-0.9272,-1.0847,-3.0108,2.182,-1.6129,2010
19,-0.0461,-0.8904,-0.9463,-2.9581,2.3004,-1.6347,2068
19,0.0647,-0.8235,-0.8955,-2.9259,2.2933,-1.6611,2032
19,0.0369,-0.7361,-0.7944,-2.8974,2.1445,-1.6572,2041
19,0.0015,-0.613,-0.7197,-2.8743,1.9319,-1.6098,2039
19,-0.0693,-0.5352,-0.7429,-2.8263,1.7719,-1.6005,2008
19,-0.0171,-0.502,-0.7515,-2.7373,1.5221,-1.5703,2012
19,0.0071,-0.426,-0.739,-2.6015,1.3978,-1.6022,2025
19,0.0842,-0.3682,-0.8054,-2.4346,1.2323,-1.5506,2030
19,0.2129,-0.3318,-0.8835,-2.2273,1.1987,-1.401,2024
19,0.3379,-0.3447,-0.9392,-1.9816,1.1856,-1.3101,2030
19,0.4106,-0.3413,-0.9817,-1.7511,1.2334,-1.1989,2046
19,0.3906,-0.2632,-1.0029,-1.4585,1.4635,-1.2351,2048
19,0.4575,-0.188,-1.0337,-1.1765,1.7486,-1.2093,2035
19,0.4636,-0.2559,-1.0247,-0.8315,2.0001,-1.0529,2024
19,0.3438,-0.3823,-1.0881,-0.5251,2.1401,-1.001,2033
19,0.1702,-0.4392,-1.1372,-0.3251,2.3381,-0.7773,2034
19,0.0813,-0.2295,-1.0542,-0.055,2.3634,-0.6545,2044
19,0.0374,-0.5813,-0.8477,-0.3622,2.3328,-0.4665,2037
19,-0.0427,-0.9912,-0.7944,-0.3689,2.4609,-0.5762,2052
19,0.0632,-0.7974,-0.729,-0.2417,2.5635,-0.9527,2033
19,0.125,-0.3062,-0.5784,-0.3027,2.4987,-1.2258,2044
19,0.1897,-0.5034,-0.4822,-0.2338,2.3593,-1.0945,2026
19,0.1677,-0.5142,-0.4287,-0.1634,2.1803,-0.9785,2036
19,0.1418,-0.5728,-0.4277,-0.2607,2.0108,-0.9419,2041
19,0.1777,-0.4858,-0.4338,-0.3137,1.8624,-0.9471,2037
19,0.1616,-0.3157,-0.4065,-0.2358,1.6213,-0.9106,2031
19,-0.0444,-0.2922,-0.3306,-0.2016,1.6364,-0.8662,2029
19,-0.1865,-0.3909,-0.3108,-0.1373,1.8056,-0.8131,2044
19,-0.2219,-0.3899,-0.3206,-0.072,1.8709,-0.6642,2044
19,-0.1934,-0.4829,-0.365,0.0125,1.6988,-0.7235,2047
19,-0.0491,-0.572,-0.3445,0.0641,1.4222,-0.5386,2033
19,0.0706,-0.5188,-0.248,0.1792,1.0039,-0.4729,2043
19,0.0959,-0.4331,-0.1782,0.2788,0.5337,-0.5164,2033
19,0.0745,-0.3875,-0.1938,0.2052,0.2649,-0.4647,2026
19,0.1238,-0.3174,-0.3037,0.2297,0.0337,-0.4308,2038
19,0.0605,-0.387,-0.2766,0.4185,0.0912,-0.1758,2032
19,0.0278,-0.364,-0.2126,0.3365,0.1965,0.0242,2032
19,0.0066,-0.29,-0.1106,0.3337,0.2756,0.2681,2026
19,-0.0266,-0.2537,-0.0098,0.4224,0.3566,0.4747,2053
19,-0.1572,-0.2283,-0.0281,0.5144,0.4785,0.7453,2047
19,-0.2461,-0.2986,-0.0698,0.6203,0.4028,0.8919,2036
19,-0.2903,-0.3506,-0.1143,0.694,0.1352,1.0228,2016
20,-0.3738,-0.3938,-0.1318,0.7075,-0.0594,1.107,2033
20,-0.4346,-0.4214,-0.1304,0.6478,-0.4032,1.1296,2049
20,-0.4207,-0.4075,-0.094,0.6546,-0.8818,1.1385,2030
20,-0.4141,-0.3765,-0.0642,0.7237,-1.2921,1.1915,2036
20,-0.3796,-0.4224,0.0559,0.8078,-1.5508,1.3271,2049
20,-0.3826,-0.511,0.1353,0.8676,-1.5362,1.4709,2023
20,-0.5906,-0.6113,0.2166,1.1146,-1.3874,1.6215,2018
20,-0.8462,-0.8406,0.0293,1.124,-1.5532,1.6772,2000
20,-0.886,-1.1448,-0.4387,1.1829,-2.3316,1.6994,2013
20,-0.6021,-1.3259,-0.8049,1.4263,-2.7686,1.7805,2010
20,-0.2441,-1.2961,-0.6072,1.611,-2.8793,1.7534,2065
20,0.1946,-1.2507,-0.417,1.9109,-2.9205,1.9495,2090
20,0.2134,-1.3691,-0.2861,2.0626,-2.9071,2.1642,2038
20,-0.1069,-1.6018,-0.3164,2.2676,-2.7156,2.4662,2038
20,-0.1812,-1.8726,-0.4287,2.3004,-2.386,2.8705,2034
20,-0.1636,-1.9058,-0.6213,2.3113,-2.2915,3.431,2062
20,-0.446,-1.7266,-0.8689,2.6123,-2.3521,3.7488,1952
20,-0.6411,-1.6379,-1.1541,2.968,-2.7249,3.8151,2035
20,-0.5522,-1.5491,-1.5916,3.6422,-3.0521,3.8876,2059
20,-0.3049,-1.5012,-1.9924,4.3634,-3.312,3.9104,2139
20,0.0798,-1.5452,-2.0,4.3634,-3.3034,3.9832,2033
20,0.3789,-1.5203,-2.0,4.3634,-3.1075,4.139,2119
20,0.4148,-1.4932,-2.0,4.3634,-2.7348,4.3405,1954
20,0.4438,-1.3105,-2.0,4.3634,-2.0485,4.3634,2061
20,0.4077,-0.9539,-2.0,4.3634,-1.6402,4.3634,1907
20,0.3674,-0.7974,-2.0,4.3634,-1.3058,4.3634,1966
20,0.0872,-0.6543,-2.0,4.3634,-1.1054,4.3634,2120
20,-0.3672,-0.8276,-2.0,4.3634,-0.666,4.3634,1718
20,-1.0488,-1.2817,-1.5959,4.3634,-0.1723,4.3634,1968
20,-1.8162,-1.6086,-1.0815,4.3634,0.6665,4.3634,2187
20,-2.0,-1.7925,-0.1328,4.3634,1.2902,4.3634,2052
20,-2.0,-2.0,1.9999,4.3634,1.9363,4.3426,2129
20,1.9999,-2.0,1.8586,1.0031,4.1425,-2.3274,2210
20,1.9999,-2.0,-2.0,-4.3635,-4.3635,-1.1552,2100
20,1.9999,1.9999,-2.0,-4.3635,-4.3635,4.0108,1921
20,-1.3096,1.5562,-2.0,-4.3635,-4.3635,-0.6958,2144
20,-2.0,1.9999,-1.2043,-4.3635,0.4665,-0.5129,2046
20,-2.0,1.2495,-0.8647,-4.3635,2.0925,-0.7822,2206
20,1.2185,-1.0007,-1.7944,-4.3635,-0.8821,0.2069,2157
20,1.2439,-0.833,-0.9883,-4.3635,3.1664,-0.5108,1809
20,-1.6167,-0.668,-1.3438,-4.3635,0.3517,-0.8447,2238
20,-0.4189,-0.0166,-0.5176,-4.3635,2.0852,-1.3725,1999
20,0.5532,0.5938,-1.0388,-4.1439,1.7917,-1.1473,1995
20,0.5591,0.3613,-1.106,-4.0749,0.1425,-1.8587,1914
20,0.7205,0.2256,-1.2112,-3.7354,0.1959,-2.2097,2074
20,0.1096,-0.5242,-1.5386,-3.5182,-0.1691,-2.0975,2091
20,-0.0417,-1.3091,-1.312,-3.4425,0.2791,-1.9715,1897
20,0.2136,-1.3135,-1.178,-3.3913,0.6518,-1.9058,2089
20,0.2947,-0.8154,-1.0847,-3.3488,0.9629,-1.9088,2025
20,0.2493,-0.6975,-1.0261,-3.1758,1.0673,-1.8398,1958
20,0.0842,-0.9644,-1.0229,-3.0851,1.3929,-1.9314,1694
20,-0.0374,-1.1008,-0.8752,-3.0186,1.6821,-1.7869,2013
20,-0.0364,-1.073,-0.9392,-2.9604,1.9867,-1.653,2008
20,-0.0183,-1.0759,-1.0874,-2.9538,1.998,-1.6973,2055
20,-0.1926,-1.0164,-1.1196,-2.906,2.1306,-1.7852,2070
20,-0.2632,-0.9917,-1.0798,-2.8942,2.1816,-1.7504,2136
20,-0.1777,-0.8857,-0.9768,-2.8729,2.3413,-1.8182,2110
20,-0.0938,-0.7983,-0.9041,-2.8141,2.2254,-1.8736,1951
20,-0.1414,-0.6406,-0.8411,-2.6271,2.079,-1.9389,2061
20,-0.1301,-0.5991,-0.8079,-2.6068,2.0724,-1.7185,2039
20,0.0457,-0.5293,-0.7869,-2.5151,2.0457,-1.5896,2021
20,0.2163,-0.5071,-0.77,-2.4433,2.063,-1.4906,2004
20,0.4321,-0.4141,-0.8901,-2.3824,2.143,-1.2236,2013
20,0.4758,-0.3298,-0.9692,-2.2822,2.2563,-1.2195,2045
20,0.5469,-0.3342,-1.1145,-2.1367,2.539,-1.0267,2021
20,0.5625,-0.3003,-1.2175,-1.9775,2.6992,-0.9435,2045
20,0.5522,-0.3179,-1.3115,-1.8084,2.9056,-0.7973,2041
20,0.4944,-0.4084,-1.3848,-1.5858,3.087,-0.738,2029
20,0.4119,-0.5112,-1.4558,-1.319,3.1724,-0.5807,2051
20,0.2361,-0.5657,-1.4717,-0.9544,3.2837,-0.3701,2040
20,0.0491,-0.553,-1.4839,-0.7232,3.3533,-0.3658,2027
20,-0.0386,-0.5535,-1.4231,-0.4059,3.2714,-0.2591,2045
20,-0.1631,-0.4358,-1.3499,-0.1088,3.2784,-0.3193,2054
20,-0.4387,-0.1848,-1.113,0.401,3.2798,-0.7409,2036
20,-0.3416,-0.2109,-0.8381,0.6809,2.7568,-0.4408,2044
20,-0.6936,-0.261,-0.7847,1.0469,2.5678,-0.4926,2050
20,-0.6624,-0.8621,-0.6201,0.7474,2.6781,-0.7618,2015
20,-0.7207,-0.8054,-0.4807,0.5504,2.75,-0.7536,2043
20,-0.6045,-0.4336,-0.3074,0.4749,2.7815,-0.6297,2048
20,-0.4758,-0.3059,-0.1914,0.3786,2.6557,-0.6384,2026
20,-0.3237,-0.3477,-0.199,0.402,2.5183,-0.6255,2031
20,-0.3625,-0.3989,-0.1343,0.5829,2.2485,-0.7429,2037
20,-0.22,-0.291,-0.022,0.597,2.1406,-0.8485,2038
20,0.0576,-0.2749,0.1538,0.6118,1.8044,-0.6143,2029
20,0.2705,-0.604,0.3718,0.9541,1.1951,-0.5638,2074
20,0.512,-0.9065,0.3337,1.0565,0.6168,-0.5048,2040
20,0.4045,-0.957,0.1609,0.813,0.5216,-0.4609,2012
20,0.1311,-0.6274,-0.0339,0.3276,0.6839,-0.198,2032
20,-0.2627,-0.2507,-0.2729,0.3699,0.9523,0.0096,2048
20,-0.3665,-0.1282,-0.2283,0.6839,1.1037,0.2733,2007
20,-0.1099,-0.405,-0.1633,0.697,1.2429,0.4257,2036
20,0.0295,-0.5686,-0.0627,0.7709,1.2263,0.7381,2024
20,0.0134,-0.5593,0.1099,0.7416,0.973,0.8319,2043
20,-0.0544,-0.4326,0.0674,0.9262,0.6104,0.8252,2025
20,-0.0425,-0.4995,0.0554,1.0487,0.0854,0.8423,2041
20,0.0054,-0.4707,0.1404,1.1142,-0.5348,0.9674,2057
20,-0.187,-0.3865,0.2332,1.2062,-0.6725,1.1053,2011
20,-0.4182,-0.4514,0.0071,1.1567,-0.4473,1.2523,2026
20,-0.7253,-0.4495,-0.2815,0.9535,-0.3059,1.4941,2049
20,-0.8062,-0.4839,-0.2715,0.8528,-0.4364,1.4383,2070
20,-0.4329,-0.6123,-0.176,0.6805,-0.9476,1.3721,2041
21,-0.3828,-0.7781,0.0698,0.7332,-1.3844,1.5126,2032
21,-0.5791,-0.9243,0.2563,1.123,-1.9595,1.6098,2030
21,-0.554,-1.0725,0.2666,1.2087,-3.1309,1.7258,2025
21,-0.4512,-1.2219,0.2432,1.237,-3.6565,1.7961,2024
21,-0.8528,-1.5247,-0.0049,1.0118,-3.5161,2.0145,2038
21,-1.2173,-1.564,-0.3179,0.6224,-4.1768,2.2108,2037
21,-1.1375,-1.4187,-0.6082,0.7842,-4.3635,2.1822,2044
21,-0.8269,-1.5254,-0.9109,1.1588,-4.3635,2.1023,2036
21,-0.4473,-1.6914,-1.1306,1.7139,-4.3635,2.2872,2042
21,-0.0972,-1.6924,-1.1047,2.2696,-4.3635,2.5723,2050
21,0.0115,-1.7603,-0.9968,2.6525,-4.3635,2.8442,2053
21,0.0039,-1.7317,-1.0312,3.0299,-4.0082,3.2444,2032
21,0.104,-1.7898,-1.1951,3.3183,-3.1658,3.6503,2007
21,0.063,-1.7939,-1.3589,3.8053,-2.4722,3.7729,2018
21,0.2683,-1.7351,-1.5845,4.3301,-2.3645,4.1799,2057
21,0.3806,-1.5649,-1.804,4.3634,-2.0897,4.3088,2029
21,0.3198,-1.4578,-1.9424,4.3634,-1.7206,4.3634,2035
21,0.4143,-1.3943,-2.0,4.3634,-1.7824,4.3098,2069
21,0.6387,-1.2642,-2.0,4.3634,-1.5384,4.2893,2167
21,0.5217,-1.2024,-2.0,4.3634,-1.0749,4.3634,2013
21,0.4009,-0.9363,-2.0,4.3634,-0.2136,4.3634,2040
21,0.2656,-0.6748,-2.0,4.3634,0.6285,4.3634,2042
21,-0.3921,-0.7954,-2.0,4.3634,1.6594,4.3634,2086
21,-1.334,-1.2092,-1.271,4.3634,2.3647,4.3634,2025
21,-2.0,-1.9004,0.0352,4.3634,2.856,4.3634,1992
21,-2.0,-2.0,1.9999,4.3634,2.3876,3.8259,2167
21,0.0469,-2.0,1.9999,3.0012,4.1346,0.0435,2193
21,1.9999,-2.0,1.5986,-4.3635,-4.3635,-3.4394,2107
21,1.9999,1.9999,-2.0,-4.3635,-4.3635,3.9611,1950
21,-0.5256,1.9999,-2.0,-4.3635,-4.3635,0.5159,1912
21,-2.0,1.9999,-2.0,-4.3635,-2.4705,-0.3663,2083
21,-2.0,0.7917,-1.6921,-4.3635,2.4278,-0.812,2034
21,-0.52,-1.4421,-1.6665,-4.3635,0.5854,-0.717,2223
21,1.6245,-1.4299,-0.6606,-4.3635,3.8044,-1.4596,1824
21,-0.5027,-0.8594,-1.4121,-4.3635,1.6241,-0.8847,1924
21,-0.7832,-0.5764,-0.4988,-4.3635,1.6462,-1.6978,2270
21,-0.2424,0.5679,-0.52,-4.1101,2.8357,-1.5118,2136
21,-0.3867,1.168,-1.2737,-3.8402,1.9418,-1.8114,1921
21,-0.2544,0.6763,-1.3152,-3.8187,1.4792,-2.1666,1961
21,-0.0447,-0.1047,-1.1987,-3.4665,1.2231,-2.3238,2067
21,0.0288,-1.0957,-1.3059,-3.2005,0.8349,-2.3394,2022
21,0.1848,-1.3591,-0.9778,-2.9601,0.6344,-2.3218,2105
21,0.2769,-0.9177,-0.9517,-2.8778,0.8697,-2.4332,2105
21,0.2715,-0.835,-0.9497,-2.7687,1.1947,-2.5397,1944
21,0.1548,-1.0339,-0.9802,-2.8679,1.5827,-2.5085,2003
21,0.1025,-1.1316,-0.7832,-2.8276,1.9165,-2.1459,2281
21,0.0471,-1.0325,-0.8484,-2.7853,2.2354,-2.0341,2190
21,0.0974,-1.1543,-0.9241,-2.7457,2.3844,-1.947,2040
21,0.0652,-1.1372,-0.9458,-2.7319,2.3715,-1.9423,2003
21,-0.1187,-0.9971,-0.9668,-2.667,2.3803,-1.89,2142
21,-0.2788,-0.8535,-1.032,-2.5824,2.3404,-1.9552,1966
21,-0.2751,-0.8418,-0.9946,-2.5436,2.2919,-1.9547,2028
21,-0.2224,-0.675,-0.9343,-2.469,2.2168,-2.0241,2038
21,-0.1067,-0.7207,-0.8538,-2.4309,2.0157,-1.8563,1982
21,-0.0037,-0.6558,-0.8118,-2.3609,1.9266,-1.9326,2033
21,-0.0164,-0.613,-0.8955,-2.2369,1.9202,-1.859,2048
21,0.0432,-0.5342,-0.9485,-2.0907,1.9088,-1.927,2029
21,0.0112,-0.4629,-0.9402,-2.0021,1.9146,-1.935,2026
21,0.062,-0.4041,-0.9707,-1.9407,1.8144,-2.1345,2039
21,0.2725,-0.354,-0.9631,-1.9551,1.6362,-2.3132,2040
21,0.4382,-0.4207,-0.9832,-1.76,1.5165,-2.178,2032
21,0.3083,-0.5608,-0.9272,-1.7387,1.5367,-1.7737,2060
21,0.3467,-0.4973,-0.9106,-1.6395,1.4324,-1.7984,2044
21,0.3899,-0.4099,-0.8735,-1.5624,1.6155,-1.7302,2027
21,0.4912,-0.3179,-0.8113,-1.5591,1.6325,-1.7076,2039
21,0.5745,-0.4194,-0.8076,-1.5291,1.5332,-1.6221,2046
21,0.3997,-0.4402,-0.7627,-1.6275,1.8185,-1.2812,2049
21,0.3162,-0.2625,-0.6689,-1.5993,1.9121,-1.2857,2043
21,0.2266,-0.189,-0.6392,-1.3705,1.7908,-0.9734,2037
21,0.2048,-0.1152,-0.6941,-0.9854,1.814,-0.7371,2026
21,0.1479,-0.0911,-0.7493,-0.8407,1.8198,-0.5663,2028
21,0.0559,-0.4539,-0.7327,-0.9999,1.9479,-0.455,2025
21,0.1873,-0.4744,-0.6875,-0.8734,1.8896,-0.1416,2035
21,0.0432,-0.3142,-0.6848,-0.9266,1.8604,-0.1646,2031
21,-0.0571,-0.2856,-0.6753,-0.8726,1.8921,-0.1595,2048
21,-0.1145,-0.1973,-0.6272,-0.768,1.6032,-0.0924,2048
21,-0.1519,-0.1699,-0.5244,-0.5811,1.2471,-0.0053,2043
21,-0.1812,-0.1592,-0.4475,-0.2898,1.0581,-0.1638,2039
21,-0.2043,-0.0588,-0.4082,0.3532,1.0613,-0.5394,2030
21,-0.0896,-0.2258,-0.1943,0.2725,0.98,-0.3936,2041
21,-0.0857,-0.3208,-0.2444,0.3812,1.0674,-0.5544,2034
21,0.0986,-0.6177,-0.1641,-0.0101,0.9879,-0.0397,2036
21,0.0708,-0.4951,-0.2864,-0.2667,0.9036,0.1822,2037
21,-0.0146,-0.3076,-0.3984,0.0433,0.6405,0.2288,2047
21,-0.1064,-0.2495,-0.3667,0.3021,0.4112,0.3432,2029
21,-0.1819,-0.2766,-0.2563,0.6332,0.2472,0.206,2039
21,-0.1682,-0.4368,-0.1289,0.6801,0.0759,0.4046,2031
21,-0.1096,-0.4736,-0.0486,0.7421,0.0676,0.3743,2037
21,-0.0303,-0.4805,0.0215,0.7869,0.0992,0.4677,2034
