Timestamp,Ax,Ay,Az,Rx,Ry,Rz,EMG
0,1.0886,-0.9172,1.0095,-0.2852,-0.3919,-0.0706,2017
0,0.9963,-0.6064,1.0759,-0.0603,-1.4539,-0.8127,2192
0,0.7307,-0.49,1.0476,0.4215,-2.3642,-1.3406,2184
0,0.6631,-0.7346,0.9133,0.6452,-2.5755,-1.9116,1809
0,0.5593,-0.7512,0.3569,1.0022,-4.3635,-1.1069,2204
0,-1.0657,-1.2236,-0.053,0.8188,-4.3635,-0.3534,2029
0,-2.0,-0.9043,0.9458,2.0124,-4.3635,-1.3917,1687
0,-1.2527,-1.3704,-0.2136,0.63,-3.5653,-1.4932,2038
0,0.1648,-2.0,0.1912,1.5996,-4.3635,-1.4512,1876
0,-2.0,-0.5298,-0.0959,2.202,-3.785,1.5452,1883
0,-0.3728,-0.8396,0.1179,2.1234,-3.652,-1.6861,1924
0,-0.1616,-1.1914,0.4338,2.0895,-1.3696,-1.649,1891
0,-0.1345,-1.3223,0.4365,2.0397,-0.5971,-2.6374,2224
0,0.2617,-1.5449,0.2961,1.9897,-0.6122,-2.5601,2210
0,0.6152,-1.5046,0.1296,1.2681,-0.6474,-2.7039,2166
0,1.9999,-2.0,-0.4978,1.1411,-1.5526,-4.3635,2189
0,1.4028,-0.448,0.678,0.5631,1.079,-3.3351,2370
0,-0.5081,-0.0718,0.6235,1.1215,1.1005,-3.2371,2224
0,-0.7532,0.1255,0.5049,0.3424,3.1993,-1.8767,1920
0,0.3892,-0.2686,0.6475,-0.1545,1.6318,-0.7725,2211
0,1.8323,-1.2375,0.7222,0.7889,0.4352,-0.6504,1893
0,1.5085,-1.5579,0.4084,0.6585,-0.5327,-1.1923,2158
0,0.6882,-1.1169,0.2012,0.7127,-0.7233,-1.2447,1932
0,0.6882,-0.9202,0.4275,0.9903,-1.0397,-1.2232,1931
0,0.1836,-1.022,0.301,0.7026,-0.5592,-0.5767,1883
0,0.3503,-1.209,0.6897,0.33,-0.0704,-0.2669,1977
0,0.3909,-1.1416,0.2649,0.2541,-0.4675,0.092,1988
0,0.0483,-1.0051,0.3157,0.4237,-0.3261,-0.3064,1970
0,0.3218,-1.0583,0.3459,0.2994,0.1498,-0.3646,2021
0,0.217,-1.0662,0.3511,0.3389,0.0385,-0.3418,1979
0,0.2646,-1.0061,0.3003,0.2836,0.198,-0.2638,2020
0,0.2468,-1.0513,0.2708,0.2334,0.3875,-0.22,1927
0,0.2129,-1.0693,0.2371,0.1681,0.428,-0.2607,1989
0,0.1965,-1.1194,0.2036,0.1486,0.5388,-0.2832,2023
0,0.1914,-1.1194,0.1904,0.1213,0.5641,-0.2526,2068
0,0.1697,-1.041,0.1775,0.1033,0.5332,-0.1135,2011
0,0.1465,-0.9541,0.115,0.1165,0.5341,-0.0296,2060
0,0.1155,-0.894,0.0962,0.1694,0.4494,-0.0104,2030
0,0.1018,-0.873,0.0393,0.2437,0.4185,0.0401,2065
0,0.0559,-0.9644,0.0112,0.2891,0.4703,-0.0374,2042
0,-0.0176,-0.9788,0.0413,0.3153,0.5853,-0.077,2026
0,0.0715,-1.0081,0.0879,0.3081,0.5916,-0.1863,1953
0,0.0623,-0.9924,0.1616,0.3128,0.5316,-0.2946,2041
0,0.0505,-0.9851,0.1526,0.3245,0.4121,-0.4408,2103
0,-0.0955,-1.0007,0.1233,0.4369,0.3394,-0.4994,2032
0,-0.1287,-0.9778,0.0955,0.5135,0.447,-0.4906,2014
0,-0.0925,-0.8713,0.054,0.5805,0.5376,-0.4795,1966
0,-0.1489,-0.8701,0.0142,0.5924,0.5127,-0.6391,1920
0,-0.1331,-0.8337,0.0417,0.6914,0.4018,-0.7356,2148
0,-0.0894,-0.854,0.062,0.7347,0.3517,-0.7762,1925
0,-0.1438,-0.9082,0.0947,0.8256,0.3088,-0.8532,1984
0,-0.0251,-1.0684,0.1506,0.8901,0.4004,-0.9752,1840
0,0.0271,-1.0461,0.1362,0.9511,0.4665,-1.0306,2053
0,0.0188,-1.0889,0.115,1.0083,0.4318,-1.1039,1418
0,-0.1167,-1.0833,0.1108,0.9903,0.4326,-1.3475,2242
0,0.1101,-0.9287,0.0547,1.1599,0.2077,-1.4443,2336
0,-0.0256,-1.0837,0.0583,1.3121,0.0017,-1.7302,2460
0,0.0349,-1.1748,0.0251,1.4418,-0.0131,-1.9614,2223
0,0.0715,-1.2688,0.0371,1.5141,-0.1712,-2.1012,2154
0,0.0818,-1.3394,0.1196,1.6107,-0.2643,-1.9493,2035
0,0.0642,-1.3774,0.1501,1.7468,-0.2308,-1.7897,3797
0,-0.0261,-1.4309,0.1848,1.7797,-0.1811,-1.7147,1764
0,-0.0835,-1.2363,0.2163,1.8568,0.0482,-1.7757,1442
0,0.0173,-1.2195,0.2544,1.9615,0.1634,-1.9106,1955
0,0.0325,-1.3247,0.2412,2.1339,0.0788,-2.1205,1952
0,-0.0732,-1.5002,0.1677,2.2332,0.0232,-2.147,1844
0,-0.1907,-1.6631,0.0181,2.2799,0.0372,-2.3036,1822
0,-0.3088,-1.6946,-0.0549,2.318,-0.0019,-2.3927,1967
0,-0.3496,-1.78,-0.0764,2.4015,-0.1824,-2.3206,1461
0,-0.5974,-1.9958,-0.1353,2.1826,-0.1188,-2.5156,2362
0,-0.8074,-1.9065,0.0837,2.055,0.2464,-2.8119,2078
0,-0.4429,-1.7419,0.1616,2.1354,0.4778,-2.8136,1887
0,-0.0454,-2.0,0.2317,2.159,0.4052,-2.8107,1930
0,-0.1101,-2.0,-0.0549,2.0274,0.1292,-3.0341,1965
0,-0.0913,-1.9543,0.0029,1.8996,0.8269,-3.3445,2112
0,0.8445,-2.0,0.0828,1.2457,1.2448,-2.1542,2304
0,-0.6562,-0.8552,-0.7024,1.9062,1.5158,-3.8848,2220
0,0.6365,-0.5535,0.9277,2.029,2.5868,-4.2363,2079
0,-1.1865,-1.1284,0.1399,2.9961,4.3634,-3.0736,1441
0,1.9999,-0.467,1.3066,3.1043,4.3634,-4.3635,2299
0,1.9999,-0.7783,1.8728,1.7819,2.6501,0.088,1495
0,0.8625,-0.7629,0.7825,0.6952,3.7174,-1.4046,2309
0,0.7571,-0.9775,0.9651,0.9768,-0.547,-1.6832,2706
0,0.5818,-0.5959,0.7271,-1.1644,-0.9822,-0.6498,1997
0,0.3818,-0.2622,0.2219,-2.3475,-0.6898,0.3561,2112
0,0.2227,-0.21,0.105,-2.6987,-1.16,1.7673,2031
0,0.2747,-0.3076,0.0972,-2.5753,-1.0891,1.863,1966
0,0.2839,-0.5186,0.1602,-2.2317,-0.7981,1.2179,1939
0,0.167,-0.6323,0.2678,-2.1342,-0.6787,0.8199,1983
0,0.0444,-0.6924,0.3823,-2.2699,-0.8307,0.999,1993
0,0.219,-0.5073,0.4111,-2.4627,-0.4743,1.3549,2025
0,0.2109,-0.4326,0.4028,-2.5513,0.1071,1.4109,2024
0,0.0608,-0.3494,0.4409,-2.7695,0.0694,1.3857,1967
0,-0.0159,-0.405,0.4734,-2.9833,-0.2759,1.5888,2008
0,0.0793,-0.5266,0.4099,-3.3467,-0.5208,1.7669,2016
0,0.1875,-0.5098,0.3892,-3.6177,-0.5501,1.8759,2034
0,0.209,-0.5496,0.4243,-3.8101,-0.4637,2.1007,2040
0,0.3074,-0.5986,0.4915,-4.0873,-0.5536,2.4317,1918
0,0.3994,-0.6423,0.5151,-4.3497,-0.8371,2.7465,2037
0,0.7449,-0.748,0.8599,-4.3635,-1.4617,3.1853,1868
0,0.3762,-0.48,0.2927,-4.3635,-2.1547,3.197,2077
0,0.1555,-0.5405,0.3223,-4.3635,-2.2672,3.0641,2027
0,-0.0093,-0.5337,0.3472,-4.3635,-2.0552,3.221,1972
1,0.0129,-0.5322,0.2607,-4.3635,-1.8084,3.4894,1945
1,0.0312,-0.5552,0.239,-4.3635,-1.3713,3.9456,2153
1,0.1157,-0.6482,0.2629,-4.3635,-0.8305,4.1326,2030
1,0.2065,-0.8601,0.2686,-4.3635,-0.2593,4.2378,1936
1,0.3215,-1.0667,0.3298,-4.3635,0.2595,4.3407,1956
1,0.4832,-1.1814,0.4441,-4.1703,0.6143,4.3634,1999
1,0.6035,-1.2456,0.5867,-4.0464,0.751,4.3634,1924
1,0.72,-1.167,0.7844,-4.1357,0.6486,4.3634,1995
1,0.8252,-1.1465,0.7954,-4.2182,0.6861,4.3634,2114
1,0.9092,-1.2754,0.7686,-4.0362,0.7102,4.3634,2106
1,0.8916,-1.3821,0.7788,-3.524,0.3312,4.0297,2204
1,1.1038,-1.2898,0.6472,-2.9311,0.2051,3.5752,2149
1,1.1626,-1.0149,0.6475,-2.1262,0.2634,3.1392,2072
1,1.0339,-0.9915,0.925,-1.4351,-0.2141,2.5647,2008
1,0.7852,-0.8359,1.0791,-1.0613,-0.1027,1.7363,2167
1,0.3877,-0.6206,0.8147,-0.653,0.1954,0.6092,2040
1,-0.0293,-1.4631,0.1763,-0.5565,1.0589,-1.2058,2656
1,1.1099,0.0798,0.3831,3.3147,-1.5538,-0.5259,2069
1,1.9999,-0.7668,1.9999,2.2878,-2.1001,-1.3613,1540
1,-0.1921,-2.0,1.6736,-0.1201,-4.3635,-3.7723,1534
1,-2.0,-2.0,-2.0,0.2565,-4.3635,1.8813,2021
1,-2.0,-1.8665,-1.9402,-2.2313,2.2788,-0.6778,1922
1,1.9999,0.3357,0.439,4.3634,3.6529,-0.297,1431
1,0.9294,-1.1792,1.9999,3.4083,1.4177,-3.7193,2060
1,0.627,-1.2073,0.8169,2.2656,-2.4089,-3.8716,2376
1,0.4138,-2.0,0.0859,1.2773,-2.3843,-3.9592,2068
1,1.9999,-1.3164,-0.2456,0.3967,-2.3028,-2.8927,2432
1,1.386,-0.3323,0.3855,-0.6606,-0.961,-3.5226,2213
1,-0.2412,-0.0908,0.3313,1.525,0.1039,-4.0114,1891
1,-0.3169,0.0447,-0.0259,1.012,4.3634,-2.0377,2131
1,0.4631,-0.6086,0.7134,1.1617,1.0419,-1.2544,2440
1,1.4939,-1.3047,0.5811,1.8421,1.0762,-1.1368,1483
1,1.8564,-1.748,0.5574,0.9815,0.4493,-1.4422,1932
1,1.28,-1.1008,0.375,0.9274,-0.5283,-1.2314,2029
1,0.4233,-0.8799,0.3496,1.0352,-0.7171,-1.1646,1912
1,0.5222,-1.2598,0.3569,0.1727,0.3076,0.5817,2309
1,0.344,-0.9929,0.3655,0.3297,-0.1108,0.1863,1940
1,0.2434,-1.0645,0.2449,0.389,-0.1389,-0.4252,1794
1,0.356,-1.1294,0.3206,0.4738,-0.1123,-0.3208,2127
1,0.2493,-1.0911,0.3562,0.4984,-0.092,-0.4618,2130
1,0.2629,-1.0051,0.3459,0.4292,-0.0202,-0.2671,2005
1,0.2761,-1.0339,0.2798,0.339,0.0513,-0.0578,2015
1,0.2114,-1.0554,0.2124,0.2976,0.1087,-0.0659,2007
1,0.2219,-1.054,0.1494,0.3207,0.0617,-0.1812,2023
1,0.2117,-1.071,0.0964,0.3135,0.0278,-0.3144,1957
1,0.1914,-1.0955,0.05,0.3183,0.0442,-0.4203,2016
1,0.1526,-1.0896,0.0056,0.3075,0.045,-0.3634,2023
1,0.0657,-1.0217,0.0208,0.2899,0.1212,-0.1971,1989
1,0.0781,-0.9534,-0.0356,0.2834,0.1788,-0.0684,1972
1,-0.0107,-0.9851,0.0015,0.3225,0.2746,-0.125,2036
1,-0.0261,-0.8989,0.0073,0.3683,0.3309,-0.0134,1987
1,0.0352,-0.9065,0.0464,0.3593,0.3558,0.0802,2027
1,-0.0098,-0.97,0.073,0.3501,0.4579,-0.1942,1991
1,0.0066,-0.9304,0.0735,0.4071,0.4496,-0.2376,2061
1,0.0664,-0.927,0.0867,0.4763,0.4165,-0.2871,1995
1,-0.0349,-0.999,0.1184,0.4698,0.3848,-0.4669,2006
1,-0.1555,-1.0266,0.1421,0.3794,0.4223,-0.6918,2060
1,-0.1357,-1.0083,0.114,0.3963,0.4749,-0.7066,2029
1,-0.0603,-0.939,0.1096,0.4972,0.5157,-0.6144,2055
1,-0.0806,-0.9583,0.156,0.5087,0.4691,-0.777,2162
1,0.0354,-0.8674,0.1445,0.6083,0.4264,-0.867,2034
1,0.0525,-0.8721,0.1423,0.6783,0.2748,-0.7759,2156
1,0.0479,-0.9673,0.1057,0.73,0.2405,-0.8371,2063
1,0.0986,-1.0032,0.0415,0.8403,0.1835,-0.8533,1991
1,0.0176,-0.9526,-0.0107,0.8835,0.0682,-0.8799,2051
1,-0.0771,-0.8845,-0.0728,0.9188,0.0566,-1.0389,1660
1,-0.0339,-1.0562,-0.0898,1.1067,-0.0302,-1.321,2161
1,0.0208,-1.1746,-0.0977,1.2769,-0.0549,-1.3224,1154
1,0.0999,-1.238,-0.0554,1.2934,-0.0441,-1.7058,2193
1,0.0793,-1.1616,-0.0195,1.4087,-0.185,-1.8921,2348
1,0.0386,-1.1619,0.019,1.5127,-0.242,-1.9445,2298
1,-0.0576,-1.3042,0.0581,1.7299,-0.2783,-1.7381,1739
1,-0.1228,-1.4849,0.0957,1.8124,-0.0782,-1.8402,1557
1,0.0093,-1.3687,0.1472,1.9208,0.1681,-1.9607,1595
1,0.1145,-1.4177,0.0591,1.9993,0.1099,-1.9695,2353
1,0.0542,-1.4761,0.094,2.0956,0.3334,-2.0933,2098
1,-0.0818,-1.4146,0.1206,2.1438,0.2982,-2.2174,1845
1,-0.1011,-1.4226,0.0823,2.2372,0.2783,-2.3069,2179
1,-0.2361,-1.5269,-0.0251,2.2719,0.128,-2.4766,1983
1,-0.4941,-1.6292,0.0283,2.3021,0.1754,-2.6244,2054
1,-0.6218,-1.7361,0.01,2.3242,0.5026,-2.8118,1903
1,-0.7373,-1.9285,-0.1016,2.2417,0.7927,-3.157,2037
1,0.0747,-1.2842,-0.4417,2.3349,1.1109,-1.9025,1728
1,-0.7144,-2.0,0.686,2.32,0.9989,-3.5997,2103
1,-0.1545,-1.7825,0.1116,2.3988,0.9515,-2.6899,2736
1,-0.0537,-2.0,0.4116,2.1916,1.1171,-3.0028,1770
1,0.76,-2.0,0.293,1.1686,1.1143,-2.337,1486
1,0.2712,-2.0,-0.3433,1.8395,0.4699,-3.2606,2588
1,0.1265,-1.7061,-0.6589,1.4537,1.2917,-2.4065,2175
1,-0.7109,0.5737,-0.613,3.0216,1.6733,-4.3635,2531
1,0.2495,-0.844,0.2952,1.0953,3.1833,-3.3367,1495
1,-2.0,-0.8308,0.0564,4.3634,4.3634,-4.2342,624
1,1.9999,-0.5974,1.9999,2.9554,4.3634,-1.8732,1648
1,1.9999,-0.7493,1.5288,1.0854,4.3634,-0.3955,1369
1,1.4307,-0.9199,0.96,1.3022,1.199,-1.8767,2541
1,0.5112,-1.0847,1.0654,-0.2187,-1.2488,-1.5985,2184
1,0.6882,-0.3008,0.2673,-1.9747,-1.1244,-0.6988,2352
1,0.3909,-0.0959,0.1658,-2.7141,-0.5034,0.7713,2168
1,0.3633,0.052,0.1426,-3.2911,-0.541,1.8787,2188
1,0.6057,0.3035,0.1057,-3.1517,-1.3826,2.3683,2058
1,0.5662,-0.0686,0.1494,-2.7682,-1.5668,2.4999,2136
1,0.0801,-0.4856,0.1978,-2.6147,-1.8578,1.8816,1859
2,-0.0935,-0.6147,0.1785,-2.596,-1.6074,1.6657,1981
2,-0.1375,-0.6155,0.2876,-2.6998,-1.3711,1.7121,1961
2,0.0793,-0.4429,0.2761,-2.7639,-0.4173,2.0792,1960
2,0.0862,-0.4053,0.3,-2.797,0.2454,2.0217,1974
2,0.1265,-0.3401,0.3296,-2.8674,0.2292,1.9861,1988
2,0.3115,-0.4114,0.3721,-2.9208,-0.1401,2.2395,1977
2,0.425,-0.5779,0.4412,-3.1629,-0.6883,2.3509,1959
2,0.397,-0.6428,0.5256,-3.7695,-0.9986,2.4382,2037
2,0.2964,-0.552,0.4126,-4.1915,-0.9433,2.8859,2045
2,0.1936,-0.5061,0.3987,-4.3635,-0.9981,3.2653,2029
2,0.2317,-0.6235,0.3945,-4.3635,-1.1617,3.4239,2032
2,0.3428,-0.7148,0.3789,-4.3635,-1.2117,3.525,2005
2,0.3696,-0.7419,0.4038,-4.3635,-1.2852,3.5914,2005
2,0.2878,-0.7129,0.4153,-4.3635,-1.4644,3.7094,1989
2,0.2104,-0.696,0.4397,-4.3635,-1.6004,3.8193,1973
2,0.2183,-0.6841,0.4065,-4.3635,-1.5992,4.0974,1591
2,0.2163,-0.6909,0.3799,-4.3635,-1.5816,4.3634,2016
2,0.2434,-0.9631,0.2734,-4.3635,-1.1003,4.3634,2107
2,0.3333,-1.1914,0.3257,-4.3635,-0.6898,4.3634,2073
2,0.4529,-1.3989,0.394,-4.3635,-0.481,4.3634,2028
2,0.4363,-1.4675,0.498,-4.3003,-0.2484,4.3634,2031
2,0.3528,-1.439,0.583,-4.2226,0.1804,4.3634,2066
2,0.3394,-1.3447,0.5771,-3.9984,0.6942,4.3634,2061
2,0.4739,-1.7046,0.3762,-3.703,0.9926,4.2868,2109
2,0.969,-1.4871,0.4829,-1.6709,1.9811,3.7379,1905
2,1.9211,-1.0869,0.7932,-1.0902,-0.1005,2.7319,2256
2,1.0417,-0.7744,1.0032,-2.393,2.1298,3.2266,2142
2,0.6416,-1.0991,0.7229,-1.2991,1.4039,1.4601,2187
2,0.9285,-1.0454,1.1199,-1.052,0.6011,0.7566,2099
2,1.0591,-0.5947,0.8831,-0.1408,0.0332,0.5638,2828
2,1.3376,-1.0325,1.0747,1.0178,-1.2009,-0.9749,1708
2,-0.0972,-1.1326,1.7322,2.1726,-0.9772,-3.4328,769
2,-1.1375,-0.9316,1.6792,0.0079,-1.6226,-1.9879,2293
2,-1.5632,-1.3496,-0.4734,-0.4789,-4.3635,-0.19,1808
2,-1.9031,-2.0,-1.321,0.4453,-3.7764,-0.3393,1961
2,-2.0,-1.8572,-0.3879,2.8552,1.1247,-1.0997,1948
2,-0.4006,-0.7285,0.4668,4.3634,1.85,-3.0775,2204
2,0.3511,-1.105,1.0195,3.599,0.9713,-4.3635,2121
2,0.6975,-1.302,1.2131,1.7644,-0.306,-3.0995,2077
2,1.6875,-2.0,-0.0686,1.1244,-1.5131,-3.3583,2131
2,1.9999,-1.7029,0.6235,1.0397,-3.3198,-2.8268,2112
2,-0.1885,-0.1921,0.3154,0.59,-0.5922,-3.9247,2866
2,-0.5867,0.1294,0.3005,0.7127,0.809,-2.5056,1881
2,0.6816,0.002,0.2263,0.8345,1.5579,-1.2802,1690
2,1.7034,-1.1831,0.9182,1.0078,0.5537,-1.3776,1954
2,1.2266,-1.8398,0.6235,1.2583,-0.5466,-2.3443,1190
2,0.4929,-1.1956,0.3132,1.0215,-0.2252,-1.8291,2303
2,0.73,-0.9763,0.3462,0.8091,-0.1795,-0.8664,3221
2,0.5947,-1.0876,0.3447,0.7008,-0.2772,-0.5018,1706
2,0.3167,-1.0281,0.4028,0.5606,0.0037,-0.5935,1896
2,0.2791,-1.0195,0.3435,0.5088,0.2748,-0.6525,2072
2,0.689,-1.2773,0.5625,0.2738,0.6126,-0.4902,1244
2,0.3142,-1.2249,0.1494,0.1782,0.363,-0.2364,2191
2,0.2532,-1.0276,0.1765,0.2408,0.235,-0.49,2092
2,0.3555,-0.9561,0.2439,0.2208,0.1884,-0.4842,2030
2,0.356,-1.085,0.2415,0.1999,0.0603,-0.4649,1920
2,0.3245,-1.0984,0.2026,0.1404,0.2069,-0.276,1999
2,0.2014,-1.0518,0.1301,0.1161,0.3361,-0.1294,2068
2,0.0979,-1.0308,0.0876,0.1262,0.5919,-0.0943,2039
2,0.1204,-1.0601,0.0369,0.1569,0.808,-0.1129,1979
2,0.1775,-1.0415,-0.0171,0.2183,0.8843,-0.1871,1990
2,0.2078,-0.9993,-0.0508,0.2631,0.8787,-0.1398,2002
2,0.1252,-0.9531,-0.0657,0.2852,0.8866,-0.0278,2006
2,0.03,-0.9062,-0.0706,0.3112,0.9381,0.0003,2042
2,0.0564,-0.9377,-0.0413,0.328,0.98,-0.0405,1950
2,0.1262,-0.9421,0.0066,0.3679,0.9666,-0.0249,1957
2,0.0222,-0.9417,-0.0569,0.5123,1.0124,-0.1812,2424
2,0.0818,-0.8481,0.0093,0.5311,0.95,-0.2228,2151
2,0.1641,-0.7651,0.0928,0.7678,0.4602,-0.1212,1388
2,0.2952,-0.9233,0.0276,0.5063,0.4867,-0.2069,2324
2,0.0535,-0.9434,0.0815,0.5157,0.4065,-0.3918,2311
2,-0.1873,-1.0596,0.1216,0.5855,0.4289,-0.5606,1987
2,0.0862,-1.0342,0.1526,0.5374,0.6544,-0.4441,1918
2,0.2039,-0.8577,0.1191,0.6203,0.4755,-0.4374,1971
2,0.158,-0.927,0.2173,0.653,0.1518,-0.4995,2025
2,0.1106,-0.9238,0.2378,0.6516,0.085,-0.5288,2052
2,0.1311,-0.9236,0.2634,0.6938,0.0186,-0.5147,2084
2,0.1741,-0.9011,0.2458,0.7566,-0.1165,-0.4484,2076
2,0.0386,-0.8516,0.2122,0.7818,-0.1261,-0.5566,2031
2,-0.1243,-0.8694,0.1121,0.7513,0.0081,-0.6763,2017
2,-0.0469,-0.9385,0.0286,0.8247,0.1007,-0.6798,2037
2,0.0293,-1.1194,0.0134,0.8934,-0.0172,-0.7893,2059
2,-0.0796,-1.0891,0.02,1.0126,-0.147,-0.8817,1951
2,-0.0808,-1.0779,-0.0039,1.1186,-0.2132,-1.0022,1860
2,-0.1382,-1.2107,-0.0723,1.3073,-0.1683,-1.2714,2079
2,-0.2151,-1.2969,-0.1099,1.4705,-0.0146,-1.3688,2162
2,-0.2834,-1.3743,-0.1033,1.6737,0.1401,-1.5562,2395
2,-0.3284,-1.283,-0.1143,1.7897,0.1984,-1.6901,2022
2,-0.3196,-1.2456,-0.1045,1.9057,0.5203,-1.9212,2028
2,-0.1538,-1.324,-0.1504,2.0009,0.5687,-2.0529,1983
2,-0.0618,-1.313,-0.2446,2.12,0.5344,-2.2053,1854
2,0.0408,-1.509,-0.1997,2.2354,0.0144,-2.5786,1934
2,-0.1667,-1.5608,-0.0078,2.3828,-0.318,-2.7841,1981
2,-0.4756,-1.6965,0.0547,2.475,-0.2372,-2.9022,1992
2,-0.7578,-1.8394,0.2014,2.545,0.2654,-3.2286,2061
2,-0.7002,-1.7776,0.8884,2.2165,1.136,-3.4304,1972
2,-1.249,-1.9363,0.2798,2.842,0.6653,-3.2314,1986
2,-0.9341,-1.7898,0.2485,2.7911,1.7255,-2.6675,2002
2,-0.6113,-1.8025,0.3953,2.8192,2.0361,-2.5515,2066
2,-0.4165,-2.0,0.1953,2.5053,1.2877,-2.337,1939
2,-0.0774,-2.0,0.425,2.322,1.1441,-3.1733,2720
2,1.0762,-1.7986,0.0972,2.587,0.9072,-3.8226,2073
2,1.9999,-2.0,0.1907,3.1309,0.1603,-3.0268,1930
3,1.9685,-1.9031,-0.1106,2.7721,-2.4995,-2.0487,1265
3,0.6794,-1.0596,-0.4761,2.3164,-3.0123,-2.0872,2392
3,1.9999,0.3213,0.0796,4.0745,-2.8032,-3.0257,2850
3,-2.0,-0.5291,0.5205,3.8161,2.4107,-1.9101,1592
3,1.9999,-0.6047,1.593,3.142,2.4856,0.9393,2022
3,1.9999,-0.7393,0.7798,1.7634,0.1987,1.1698,2052
3,1.9999,-0.2505,0.7351,2.0568,-0.3117,1.9627,2144
3,1.3687,-0.8132,0.8071,1.6395,-4.3635,0.5711,1988
3,0.6511,-0.5171,0.3926,0.5344,-4.3635,1.1603,2217
3,1.1226,0.1646,0.1238,-0.7171,-4.3635,2.8843,2585
3,0.24,0.3755,-0.3506,-0.5095,-4.3025,3.8869,2169
3,0.4194,0.9612,0.0664,0.1708,-4.3635,4.3634,1799
3,0.2029,0.5122,-0.1707,0.335,-4.3635,4.3634,1856
3,-0.0994,-0.3008,-0.1917,0.3189,-4.174,4.2062,1901
3,-0.2278,-0.707,-0.1943,0.3136,-3.1084,3.2352,1406
3,0.105,-0.3599,-0.3062,0.3573,-2.2138,4.0636,2201
3,0.4285,-0.1965,-0.1204,0.2891,-1.492,4.3634,2462
3,0.8665,-0.1682,-0.2205,0.2778,-1.174,4.3634,1961
3,0.5498,-0.2451,-0.1174,-0.0788,-1.0688,4.3634,1932
3,-0.1821,-0.2871,-0.092,-0.13,-1.2876,4.3634,1837
3,0.1926,-0.438,-0.2632,-0.4401,-0.4172,4.3634,2256
3,0.4158,-0.5969,-0.1758,-0.7196,0.5143,4.3634,2125
3,0.8779,-0.6196,-0.0825,-0.9741,0.7542,4.3634,2006
3,0.6086,-0.772,-0.114,-1.3183,0.7665,4.3634,1981
3,0.3765,-1.0786,-0.1379,-1.67,0.9718,4.3634,2104
3,0.3904,-1.1809,-0.0886,-2.0582,1.3013,4.256,2050
3,0.4114,-1.1162,-0.0728,-2.44,1.3335,4.1539,2004
3,0.4451,-1.0964,-0.0603,-2.8763,1.391,4.0833,1995
3,0.4807,-1.127,-0.0513,-3.283,1.5874,4.1094,2032
3,0.5601,-1.2129,0.0237,-3.7103,1.7744,4.1488,2001
3,0.6223,-1.2253,0.0662,-4.0944,2.0021,4.0998,2023
3,0.6289,-1.1899,0.1216,-4.3635,2.1702,3.9436,1987
3,0.6331,-1.249,0.2036,-4.3635,2.3276,3.8544,2025
3,0.5779,-1.2939,0.2561,-4.3635,2.4238,3.8022,1975
3,0.4607,-1.3406,0.3008,-4.3635,2.4972,3.6444,1979
3,0.4539,-1.4321,0.3081,-4.3635,2.5858,3.4713,1891
3,0.5688,-1.5618,0.2205,-4.3635,2.4843,3.1501,1979
3,0.7119,-1.4209,0.3123,-4.3635,2.1732,2.9777,1932
3,0.8352,-1.4041,0.6143,-4.3635,1.6494,2.894,2001
3,0.6555,-1.2493,0.4001,-4.2385,0.6767,2.423,2154
3,0.5479,-1.0901,0.4248,-3.2662,0.4837,2.3437,2013
3,0.5315,-1.1375,0.7456,-2.4012,-0.365,2.177,2006
3,0.8325,-0.9814,0.8345,-1.9398,-1.6576,2.1678,2056
3,1.1367,-0.9285,0.7219,-1.538,-2.4192,2.1164,2049
3,0.7441,-1.0098,0.5,-0.9839,-2.7426,1.3173,1964
3,0.0659,-0.928,0.4255,-0.4437,-2.1794,0.0791,2002
3,-0.343,-0.9033,0.6555,-0.1599,-1.4631,-0.4751,2044
3,0.2949,-0.854,0.9197,-0.1594,-1.4753,-0.4647,2146
3,1.2136,-1.1072,1.1921,0.0979,-2.8572,-0.5996,1931
3,0.5522,-0.9358,0.9019,0.8513,-3.6288,-1.0728,1834
3,0.9731,-0.7021,1.0249,1.4161,-3.3673,-1.5868,1862
3,1.9999,-1.9526,1.4202,4.1289,-4.3635,-1.9747,1125
3,-2.0,-0.0286,1.9999,-1.8861,-4.3635,-1.6703,2420
3,-2.0,-1.5186,-1.522,-0.821,-4.3161,0.6959,1981
3,-1.375,-1.0469,0.0566,1.5459,-3.3002,-0.6906,1680
3,-0.0908,-1.3257,0.5686,1.1701,-2.8244,-0.5978,2364
3,-1.1809,-1.2925,-0.2834,1.175,-1.803,-1.4007,2267
3,-0.8999,-1.5574,0.3975,1.5956,-1.2591,-2.4338,2047
3,0.0171,-1.6216,0.1792,1.327,-0.759,-3.4431,2079
3,0.5054,-1.1936,0.355,1.5849,-0.4081,-2.8525,1995
3,0.873,-1.9087,0.0283,1.4022,-0.8545,-3.7731,1910
3,1.9968,-1.5723,0.7373,1.5459,-2.7619,-2.8602,1971
3,0.0291,-0.24,0.4014,1.0481,-1.197,-2.6047,2004
3,-0.9338,0.1135,0.2954,0.5729,0.8399,-2.8287,1982
3,-0.1155,-0.1187,0.2363,1.1147,0.742,-1.8484,1906
3,0.3999,-0.739,0.54,1.0025,0.4103,-1.763,1989
3,0.7942,-1.292,0.6824,0.4903,0.5686,-1.6325,2058
3,0.7959,-1.4197,0.5928,0.1121,0.0443,-1.2648,2500
3,0.6829,-1.3052,0.4082,0.177,-0.0266,-0.6887,1931
3,0.8206,-0.9707,0.4255,0.1983,-0.3914,-0.4003,2010
3,0.688,-1.0469,0.5986,0.1197,-0.6486,-0.2345,2023
3,0.3479,-1.2231,0.4202,0.0116,-0.8194,-0.0442,2114
3,-0.1399,-1.1606,0.3015,0.0225,-0.4357,-0.2265,2197
3,-0.2798,-1.0176,0.2795,-0.1065,0.238,-0.4365,2061
3,0.658,-0.8564,0.137,0.2374,-0.0578,-0.4369,1957
3,0.5522,-0.98,0.2144,0.0917,0.1609,-0.3501,2025
3,0.1995,-1.0215,0.2361,0.1244,0.0193,-0.2028,2018
3,0.1838,-0.9915,0.2351,0.1795,0.1617,-0.0862,1967
3,0.2148,-0.9968,0.2166,0.2262,0.2791,-0.0262,1985
3,0.1848,-0.9885,0.2451,0.2242,0.3899,0.0362,1959
3,0.0837,-0.998,0.229,0.2378,0.4287,0.0832,1943
3,0.0752,-1.0056,0.2434,0.2152,0.4654,0.0201,1941
3,0.0505,-1.0361,0.2102,0.1779,0.5421,-0.0341,1929
3,0.0186,-1.0454,0.2024,0.1641,0.5036,-0.0971,1995
3,-0.0254,-1.1106,0.1577,0.1173,0.5928,-0.2003,2101
3,-0.032,-1.0464,0.1416,0.1316,0.7023,-0.1686,1906
3,-0.0149,-1.0139,0.1108,0.1409,0.8331,-0.1904,1912
3,0.0129,-0.9377,0.1101,0.1641,0.8962,-0.1731,1943
3,-0.0166,-1.0393,0.0793,0.1899,1.0337,-0.2437,1993
3,-0.1462,-0.8792,0.239,0.3085,0.5908,-0.3468,1945
3,0.1777,-0.8569,0.125,0.2041,0.7287,-0.3068,1988
3,-0.0652,-1.0679,0.2678,0.2888,0.5136,-0.5153,2015
3,-0.1084,-0.9697,0.271,0.2934,0.4386,-0.5561,1964
3,-0.0232,-0.9583,0.2651,0.3077,0.3709,-0.4482,2001
3,0.0923,-0.9602,0.2349,0.4007,0.1906,-0.4569,2007
3,0.0388,-0.9346,0.2124,0.4691,0.0069,-0.4488,1994
3,-0.1011,-0.8586,0.1777,0.4967,-0.0537,-0.5867,2089
3,-0.1191,-0.8333,0.1948,0.4757,-0.0639,-0.5817,2065
3,-0.1306,-0.8411,0.1628,0.4868,0.0392,-0.6889,2052
3,-0.0662,-1.02,0.2131,0.5297,0.0795,-0.7845,2067
3,0.0049,-1.0256,0.1716,0.5881,0.1366,-0.8557,2034
4,0.0415,-0.9023,0.1143,0.6484,0.0854,-0.8895,2021
4,0.0247,-0.9629,0.0374,0.732,-0.034,-1.0156,2166
4,-0.1243,-1.0439,-0.0276,0.7901,-0.1321,-1.1649,2197
4,-0.229,-1.1045,-0.0723,0.913,-0.1214,-1.3996,2001
4,-0.2207,-1.3428,-0.064,0.9898,0.0354,-1.7752,2062
4,0.1292,-0.9172,-0.126,1.2111,-0.0851,-1.7715,2273
4,0.0029,-1.1694,-0.0439,1.3231,-0.2764,-1.9671,1886
4,-0.0828,-1.1958,0.0105,1.5125,-0.2354,-1.9728,2013
4,-0.1055,-1.3379,0.075,1.7777,-0.389,-1.6639,3030
4,-0.0854,-1.3347,0.1372,1.856,-0.3064,-1.719,1468
4,-0.0039,-1.4211,0.1401,1.9884,-0.2384,-1.8369,1802
4,0.0115,-1.3376,0.2126,2.0719,-0.2312,-1.9947,1943
4,0.1213,-1.4507,0.1362,2.157,-0.1965,-1.9218,1560
4,-0.1428,-1.6594,0.1479,2.2092,-0.0222,-2.1202,1794
4,-0.0525,-1.5259,-0.0486,2.5261,-0.2807,-1.7697,1977
4,-0.2883,-1.5615,0.0789,2.4746,-0.4433,-2.2477,2517
4,-0.4822,-1.6821,-0.0161,2.5117,-0.5502,-2.2609,2155
4,-0.6042,-1.9731,0.0271,2.5068,-0.4591,-2.4406,2051
4,-0.6111,-2.0,-0.064,2.4108,-0.2858,-2.4341,2035
4,-0.7937,-1.8992,0.1584,2.4883,0.1686,-2.628,2056
4,-0.4678,-1.6001,0.1892,2.6899,0.6664,-2.6669,2062
4,0.2251,-1.9146,0.0771,2.7163,0.1017,-2.341,2222
4,0.3752,-2.0,0.0867,2.3645,-0.5083,-2.8999,2208
4,0.323,-2.0,-0.083,2.5258,0.0506,-3.3043,2129
4,0.7302,-1.7109,0.043,2.1289,-0.3271,-2.1451,1892
4,0.7302,-1.6926,-0.1577,1.1316,-0.8339,-1.6225,1917
4,0.3325,-0.6824,0.0103,2.5318,-1.3635,-4.0783,2341
4,-2.0,-1.0291,0.2427,3.7117,3.8503,-1.9142,934
4,1.9999,-0.2329,0.8474,2.8841,4.3634,-4.3635,2462
4,1.9999,-0.2529,1.9999,1.91,0.4429,0.567,1313
4,1.6487,-0.5146,0.2805,-0.0176,2.3457,0.3586,2457
4,0.8879,-0.9829,0.8074,0.5996,-2.8047,-0.5043,2706
4,0.1223,-0.8335,0.6599,-1.154,-3.493,-0.1995,1861
4,0.3206,-0.2334,-0.0349,-2.6429,-2.4914,1.1203,2339
4,0.0354,-0.1626,0.0413,-2.4139,-2.6275,2.4891,1917
4,-0.075,-0.0471,-0.0984,-2.7829,-1.8855,3.4489,2070
4,0.1125,-0.1851,-0.0154,-2.4242,-1.7488,3.0945,2138
4,0.1863,-0.574,0.0054,-2.192,-1.5697,2.4511,1826
4,0.1172,-0.7151,0.1509,-2.2118,-1.4821,2.3212,1954
4,0.1494,-0.5325,0.271,-2.4562,-1.4783,2.5332,2043
4,0.2078,-0.375,0.1421,-2.4751,-0.594,2.9256,1996
4,0.1455,-0.2976,0.1467,-2.4915,-0.0057,2.8641,1967
4,0.1035,-0.3894,0.269,-2.5059,-0.1268,2.9713,974
4,0.3684,-0.5847,0.2861,-2.7578,-0.7482,3.1135,2262
4,0.5996,-0.6677,0.1885,-2.9837,-0.553,3.3344,2173
4,0.4412,-0.5764,0.2756,-3.2102,-0.4647,3.6459,2020
4,0.2937,-0.5261,0.2776,-3.3488,-0.4478,3.8564,2066
4,0.323,-0.6475,0.2366,-3.5252,-0.5777,3.9209,2021
4,0.4768,-0.7876,0.2856,-3.7641,-0.8127,4.0944,2016
4,0.5012,-0.7585,0.1816,-3.8001,-0.8899,4.3326,2019
4,0.3618,-0.7722,0.1714,-3.7829,-0.7212,4.3634,2024
4,0.313,-0.8318,0.1924,-3.8195,-0.3978,4.3634,2039
4,0.3196,-0.875,0.2112,-3.8663,-0.0228,4.3634,2053
4,0.3406,-0.9592,0.2483,-3.8892,0.4304,4.3634,2037
4,0.3608,-1.1194,0.3186,-3.9996,0.8345,4.3634,1998
4,0.5183,-1.29,0.427,-4.1694,1.0179,4.3634,1982
4,0.7629,-1.3208,0.3853,-4.3635,0.2738,4.3634,2075
4,0.7808,-1.1116,0.4565,-4.302,0.3505,4.3634,2018
4,0.7959,-1.3186,0.5139,-4.1431,0.12,4.3634,2045
4,0.7686,-1.4351,0.6228,-3.8123,0.2543,4.3634,1999
4,0.6487,-1.4932,0.6309,-3.2248,0.4742,4.3634,2176
4,0.7246,-1.2747,0.6621,-2.5534,0.8412,3.9069,2098
4,0.9663,-1.1831,0.7346,-1.9334,0.956,3.1999,2038
4,1.1072,-1.002,0.6135,-1.5426,0.6127,2.402,2077
4,1.0596,-0.9026,0.4133,-0.976,0.9999,1.3057,2006
4,0.9209,-0.863,0.6609,-0.8383,0.4625,0.5633,2102
4,0.2749,-1.1221,0.6191,-0.7043,1.1817,-0.9955,2242
4,0.7224,-0.135,0.5737,1.1508,0.8441,-0.869,2012
4,1.2886,-0.8591,1.9999,1.8606,0.0723,-1.7508,1209
4,-0.3511,-2.0,1.7231,3.7833,-2.2337,-4.3635,2076
4,-0.9646,-0.4141,1.2783,-2.0711,-4.3635,0.7895,2294
4,-2.0,-2.0,-1.9915,-0.4328,-4.3635,0.2722,1419
4,-2.0,-1.9678,-0.5962,0.9368,1.0527,-1.737,2247
4,-2.0,-1.6201,0.6218,4.3463,4.0484,-1.3868,2109
4,1.2134,-0.6621,0.8303,4.3634,0.6863,-3.9729,2108
4,1.5735,-1.4551,1.6484,1.4166,0.2041,-3.2051,1945
4,1.5232,-2.0,-0.1072,-0.448,-3.0558,-4.3635,2240
4,1.9999,-1.6509,0.0518,0.1755,-4.3635,-2.9288,2366
4,0.4897,-0.1062,-0.0183,0.2013,-2.2433,-4.1674,1977
4,-0.9333,-0.1016,0.1062,2.1085,1.2832,-4.1038,1712
4,-0.6216,0.0261,0.6301,1.0078,3.6946,-1.5153,2317
4,0.1245,0.1687,0.9829,1.4246,2.2481,-0.7532,2152
4,1.8113,-1.5789,1.1968,0.9578,1.0606,-0.9263,1713
4,1.9314,-2.0,0.509,1.2386,-0.9215,-1.3868,1874
4,0.2078,-1.5833,0.5149,0.3876,-0.8361,-1.8486,2162
4,0.7776,-0.4597,0.3845,1.2862,-0.9922,-1.0328,1922
4,0.3811,-0.7688,0.3804,0.8568,-1.3583,-0.3069,2164
4,0.1545,-1.0886,0.3733,0.5918,-0.8926,-0.3579,2112
4,0.4304,-1.5447,0.7202,0.3698,-0.6022,-0.6019,1893
4,0.2485,-1.0479,0.1843,0.6403,-0.5304,-0.1844,2017
4,0.2383,-0.9919,0.3313,0.6815,-0.2294,-0.1876,1993
4,0.0913,-1.1519,0.3201,0.4537,0.1103,-0.2168,2061
4,0.2478,-1.0815,0.2336,0.4492,0.1786,-0.134,1960
4,0.1836,-1.1121,0.2144,0.3854,0.4064,-0.167,2074
4,0.0642,-1.0679,0.1277,0.3895,0.6983,-0.1867,2098
4,0.1409,-1.0745,0.0913,0.4296,0.7865,-0.1321,2048
4,0.1782,-1.0278,0.0913,0.4396,0.7457,-0.0558,2055
4,0.0693,-0.9497,0.0481,0.4469,0.6034,-0.0116,2062
4,-0.0364,-0.9634,0.0122,0.4782,0.622,-0.0285,2069
4,-0.1069,-0.9089,0.009,0.5113,0.6899,-0.0742,2068
4,-0.0708,-0.9446,0.0312,0.5359,0.7102,-0.1627,2144
4,-0.0071,-0.9768,0.1013,0.5474,0.7566,-0.1863,2281
4,-0.3047,-1.0391,0.2029,0.6312,1.146,-0.3599,1875
4,0.2327,-0.73,0.303,0.5786,0.397,-0.3075,1975
5,0.3159,-0.9231,0.1377,0.536,0.5711,-0.2731,2068
5,-0.1653,-1.0386,0.1577,0.605,0.3244,-0.6072,2121
5,-0.2468,-0.9106,0.0894,0.7187,0.4422,-0.6621,2033
5,-0.1008,-0.9314,0.0972,0.8136,0.4255,-0.5464,1903
5,0.0625,-0.9253,0.0889,0.7616,0.5865,-0.5706,2055
5,-0.0564,-0.8777,0.0667,0.8151,0.5393,-0.7573,2103
5,-0.031,-0.8811,0.1594,0.8913,0.4225,-0.8196,2058
5,-0.0637,-0.9448,0.2156,0.97,0.4207,-0.9062,1916
5,0.0266,-0.8516,0.2468,1.0355,0.4108,-0.9156,1619
5,0.0425,-0.9373,0.2507,1.089,0.2848,-0.9855,2204
5,0.0962,-1.0159,0.2566,1.1393,0.2135,-1.077,2271
5,0.0664,-1.0852,0.2031,1.1869,0.0997,-1.256,2445
5,-0.0242,-1.1279,0.1909,1.2058,-0.0589,-1.5233,2030
5,0.071,-1.0061,0.134,1.3665,-0.2767,-1.5314,1879
5,0.0388,-1.2354,0.0735,1.4713,-0.4947,-1.6744,1952
5,-0.0269,-1.3816,0.0632,1.5576,-0.6268,-1.8844,2040
5,-0.1873,-1.5203,0.0476,1.7363,-0.6952,-1.7831,2777
5,-0.3364,-1.5391,0.0818,1.7909,-0.4874,-1.5301,1546
5,-0.137,-1.325,0.104,1.8994,-0.3504,-1.727,1829
5,-0.1514,-1.3311,0.0581,2.0395,-0.4946,-1.9049,1821
5,-0.3137,-1.3672,0.1169,2.117,-0.3361,-2.0715,1891
5,-0.3477,-1.3909,0.1467,2.3053,-0.0738,-2.3103,1943
5,-0.2224,-1.5505,0.0505,2.5249,-0.055,-2.4368,2041
5,-0.3259,-1.8796,-0.1763,2.5834,-0.2974,-2.5557,2124
5,-0.5645,-2.0,-0.2195,2.536,-0.3521,-2.698,2037
5,-0.5715,-2.0,-0.27,2.4163,-0.3875,-2.7089,1882
5,-0.7866,-2.0,-0.1453,2.4559,-0.2494,-2.7687,2189
5,-0.7097,-1.9824,0.1621,2.4989,0.1288,-2.9104,2074
5,-0.0354,-2.0,0.2246,2.3382,-0.0154,-2.8189,1997
5,-0.3162,-2.0,0.2231,2.1714,0.6445,-3.533,2046
5,0.5229,-2.0,0.2107,1.3069,1.1609,-2.8252,1800
5,0.6948,-1.5789,-0.7842,2.4481,0.3067,-3.4953,2308
5,0.7878,-1.2603,-0.4585,1.974,0.4115,-3.1955,2140
5,0.7585,-1.1965,0.5374,2.477,-0.1125,-3.6832,2091
5,-1.2312,-0.8691,-0.3098,3.3876,4.3634,-2.6096,69
5,1.3145,0.0608,1.4299,3.1323,4.3634,-3.9924,2392
5,1.9999,-0.564,1.9999,0.9829,3.664,0.7605,2059
5,1.9999,-0.1689,0.5645,0.9242,4.0856,-0.8292,2746
5,0.8025,-1.147,1.2786,0.8245,-0.5434,-2.2188,1515
5,0.6565,-0.8745,0.3271,-1.315,-1.2631,-1.2938,2408
5,0.9451,-0.1829,0.1382,-1.7957,-0.2004,0.098,2498
5,0.3528,-0.083,0.1104,-2.6325,-0.1867,1.142,2078
5,0.4146,0.1255,0.0598,-2.8881,-0.5108,1.9351,2073
5,0.7883,0.1145,0.1033,-2.8586,-1.4183,2.5525,1987
5,0.5488,-0.1306,0.1265,-2.7089,-1.8896,2.8585,2007
5,0.1982,-0.4939,0.2268,-2.7155,-2.3455,2.2409,2040
5,0.0432,-0.5251,0.1938,-2.7646,-2.1168,2.2643,2030
5,0.0486,-0.5811,0.3064,-2.8669,-2.0823,2.3742,1973
5,0.3691,-0.3823,0.2815,-3.006,-1.4571,2.7879,1971
5,0.2888,-0.3308,0.2659,-3.0208,-0.8661,2.7131,1924
5,0.1958,-0.2161,0.3313,-3.0636,-0.9535,2.6601,2018
5,0.373,-0.3452,0.3892,-3.2866,-1.5676,3.2428,2021
5,0.5583,-0.5938,0.3337,-3.4987,-1.9102,3.3423,2034
5,0.6265,-0.5227,0.3745,-3.8499,-1.9204,3.5657,1896
5,0.4456,-0.3025,0.4648,-3.6462,-2.4715,4.0832,2132
5,0.387,-0.4409,0.3445,-4.0607,-2.412,4.1398,2205
5,0.2812,-0.5161,0.2297,-4.0732,-1.8833,4.16,2169
5,0.3281,-0.5981,0.3042,-3.8799,-2.2964,4.3311,2015
5,0.3511,-0.7583,0.2222,-3.9507,-2.2722,4.3634,2047
5,0.3396,-0.5972,0.0674,-3.9747,-1.8847,4.3634,1962
5,0.427,-0.717,0.2649,-3.8974,-1.6867,4.3634,2036
5,0.3687,-0.8875,0.1262,-3.9719,-1.0489,4.3634,2244
5,0.3416,-1.1396,0.2061,-3.9157,-0.3767,4.3634,1979
5,0.3489,-1.3804,0.2861,-4.004,0.1338,4.3634,2044
5,0.5486,-1.5525,0.4082,-4.1815,0.6355,4.3634,1978
5,0.7529,-1.6213,0.5161,-4.3244,0.7909,4.3634,1986
5,0.6929,-1.3999,0.4255,-4.3521,0.4373,4.3634,2049
5,0.5552,-1.425,0.4761,-4.0736,0.4087,4.3634,2222
5,0.5215,-1.6626,0.4126,-3.6792,0.5842,3.8617,2160
5,0.4915,-1.2947,0.2112,-3.0147,1.9157,3.4292,2211
5,0.8269,-1.2351,0.7976,-1.4783,2.1587,3.0879,1942
5,1.3977,-1.3413,0.8428,-1.7329,1.6214,1.7538,2071
5,0.605,-1.2002,0.5491,-1.6471,1.4443,0.6184,2080
5,0.2222,-0.5662,0.2935,-0.1534,2.3597,0.4839,1976
5,0.7295,-0.908,1.2222,0.5553,1.3355,-0.7035,1992
5,1.9055,-1.9346,1.9999,2.8589,-1.4651,-4.2889,2030
5,1.0818,-0.2661,1.9999,-0.5007,-3.9345,-0.652,1901
5,-1.7881,-0.219,1.4607,0.3627,-4.3635,-1.5442,1713
5,-2.0,-1.6184,-0.2114,-0.8063,-4.3635,-0.7488,2038
5,-2.0,-2.0,-0.7256,0.8259,-4.3635,-0.4131,2051
5,-2.0,-1.751,-0.6292,3.1026,-2.106,-0.7381,1807
5,-0.5732,-1.4309,0.2239,4.1169,0.1222,-3.6633,2069
5,1.0132,-1.521,1.2161,2.9734,0.6936,-4.3635,2017
5,1.1665,-1.4683,0.6992,1.8682,-0.0602,-4.1362,2028
5,1.9999,-1.6523,1.0298,1.6201,-4.3635,-2.7136,2026
5,0.2861,-0.0291,0.385,-0.1645,-4.1908,-2.6438,2020
5,-0.3193,0.3369,-0.0879,1.4394,-2.4011,-3.3717,1931
5,0.4604,-0.197,-0.3994,2.1148,1.4679,-1.8528,2069
5,0.4929,-0.5129,0.4348,1.3737,1.7081,-1.8098,2159
5,0.7158,-1.5171,1.0188,1.0231,1.2011,-2.5061,1960
5,1.187,-1.5122,1.0288,1.2813,0.2807,-2.318,1963
5,0.9519,-1.1082,0.5496,0.8556,-0.5157,-0.9055,2034
5,0.7478,-1.219,0.2332,0.9549,-0.7436,-0.5227,2027
5,0.7534,-1.3069,0.4424,0.6227,-0.7441,-0.6381,1848
5,0.647,-0.9885,0.4246,0.3525,-1.0038,0.0526,2284
5,0.2395,-0.9397,0.4531,0.3537,-1.0092,-0.2012,2042
5,-0.0396,-1.1748,0.2478,0.2942,-0.6999,-0.1983,2030
5,0.1421,-1.0596,0.197,0.3928,-0.5438,-0.2116,2009
5,0.157,-0.9978,0.2009,0.42,-0.3388,-0.2476,2080
5,0.1772,-1.0303,0.2292,0.3192,-0.1463,-0.2099,1956
5,0.2886,-0.9883,0.2373,0.3095,0.0906,-0.0784,2057
5,0.2593,-1.0564,0.228,0.3044,0.2044,-0.0727,1995
5,0.0996,-1.1008,0.1758,0.2719,0.3123,-0.2542,1990
6,0.1511,-1.0684,0.1592,0.2779,0.4867,-0.3417,1931
6,0.1272,-1.033,0.1465,0.2806,0.554,-0.3822,2030
6,0.1487,-1.0044,0.1062,0.3063,0.5389,-0.3096,1947
6,0.1345,-0.9734,0.0601,0.2839,0.4884,-0.2234,1993
6,0.0789,-0.9856,0.0527,0.283,0.4782,-0.1887,2075
6,0.0374,-0.9458,0.0205,0.292,0.4422,-0.1569,2002
6,0.04,-0.9436,-0.0081,0.3356,0.4669,-0.1413,1682
6,-0.3657,-1.176,-0.1824,0.2734,1.2756,-0.4396,2142
6,-0.0708,-0.8535,0.2769,0.7625,0.3546,0.1715,2076
6,0.8083,-0.7002,0.0215,0.3778,0.7564,-0.0997,1910
6,0.1047,-1.0735,0.1943,0.334,0.2795,-0.5819,2040
6,-0.0918,-1.1191,0.1787,0.3408,0.2336,-1.0112,2134
6,-0.156,-1.1333,0.1392,0.5156,0.0688,-0.897,1807
6,-0.1504,-0.9595,0.1501,0.6276,0.2121,-0.3904,1993
6,-0.1531,-0.9299,0.1328,0.6393,0.467,-0.3619,2065
6,-0.0105,-0.8899,0.1492,0.6878,0.439,-0.5494,2164
6,0.0833,-0.8391,0.2026,0.6413,0.2619,-0.645,2071
6,0.0415,-0.8188,0.2849,0.6689,0.13,-0.7201,1953
6,-0.0503,-0.8855,0.2893,0.7693,0.1425,-0.7172,1986
6,0.0261,-0.9819,0.2437,0.8098,0.2068,-0.7292,2142
6,0.1235,-1.051,0.2,0.7714,0.1068,-0.8202,2139
6,0.1245,-0.9707,0.1123,0.8453,-0.1016,-0.9078,2037
6,-0.0461,-0.9343,0.0432,0.8973,-0.2416,-1.0175,2066
6,-0.0762,-1.0334,0.0039,1.0057,-0.2855,-1.1615,1792
6,-0.1096,-1.1843,-0.0767,1.1441,-0.2962,-1.336,2039
6,-0.0027,-1.2305,-0.0574,1.2649,-0.2852,-1.6065,1829
6,0.0173,-1.1924,-0.0803,1.3768,-0.3045,-1.7496,1955
6,-0.0127,-1.2727,-0.0417,1.5704,-0.2698,-1.5853,1608
6,-0.2024,-1.6001,-0.0002,1.6723,-0.0921,-1.5898,1741
6,-0.1211,-1.4531,0.0769,1.7791,0.0899,-1.6872,1850
6,0.0762,-1.0093,0.1606,1.8439,0.2032,-1.8463,1657
6,0.0122,-1.2742,0.1841,1.9678,-0.0558,-1.7978,2036
6,-0.0496,-1.3047,0.1975,2.0728,-0.1445,-2.1249,2853
6,-0.1216,-1.3823,0.1592,2.2084,-0.0385,-2.2426,1588
6,-0.1482,-1.6121,0.0203,2.3322,0.0088,-2.3463,2127
6,-0.3433,-1.7515,-0.0437,2.3503,0.0887,-2.5643,1941
6,-0.3877,-1.7129,0.0149,2.4585,-0.023,-2.3635,1747
6,-0.2642,-1.7537,0.0691,2.4024,-0.2786,-2.4575,2459
6,-0.5413,-1.8196,0.1345,2.3236,-0.3273,-2.2929,2280
6,-0.824,-1.6367,0.2109,2.2921,0.1645,-2.7344,2151
6,-0.4727,-1.5396,0.2163,2.3238,0.603,-2.8332,2070
6,-0.1377,-1.8335,0.3923,2.2996,0.816,-2.8803,2126
6,0.2417,-2.0,0.3484,2.0265,0.3501,-2.9929,2161
6,0.1592,-2.0,0.0554,1.7941,0.722,-3.4548,2042
6,0.6399,-1.8311,-0.0652,1.5363,1.0649,-2.907,2200
6,0.5413,-1.6929,-0.5647,1.3205,1.0906,-2.3013,1922
6,-0.6167,0.074,-0.541,2.751,1.9297,-4.3635,2030
6,0.0449,-0.8196,0.0906,1.1395,2.9465,-3.2629,1506
6,-1.7742,-0.4807,0.5156,4.3634,4.3634,-4.2789,1207
6,1.9999,-0.5264,1.9109,2.0142,3.4845,-1.9679,1977
6,1.6323,-0.5186,1.2234,0.0505,4.3634,-0.2075,2308
6,0.9224,-0.9617,0.7603,0.6618,0.4859,-1.8156,2483
6,0.7227,-0.9585,0.7498,-0.5279,-1.203,-1.3021,1908
6,0.8928,-0.219,0.1641,-2.1055,-0.6028,0.132,2409
6,0.5535,-0.2747,0.0798,-1.9156,-1.2105,0.9389,2138
6,0.3293,-0.0945,-0.0071,-2.7722,-1.1114,2.0202,2101
6,0.3638,-0.0283,0.0403,-2.1763,-1.0405,1.9425,1961
6,0.2346,-0.2576,0.1433,-2.0809,-1.162,1.739,1969
6,0.2307,-0.5146,0.2217,-2.1487,-1.2416,1.4838,1995
6,0.1433,-0.5933,0.2651,-2.2258,-1.2166,1.5906,2316
6,0.1995,-0.5176,0.4053,-2.3762,-1.1645,1.8394,1863
6,0.356,-0.4297,0.3264,-2.4655,-0.6521,2.2088,1861
6,0.252,-0.364,0.3286,-2.5438,-0.4994,2.006,1987
6,0.1978,-0.363,0.3733,-2.7414,-0.7107,2.1302,1997
6,0.3181,-0.4839,0.3804,-2.8718,-0.9099,2.3944,2021
6,0.4277,-0.5054,0.3843,-3.1898,-1.0524,2.6978,1967
6,0.3892,-0.5786,0.4341,-3.5545,-1.1535,2.8778,2009
6,0.3066,-0.5269,0.3511,-3.9335,-1.1186,3.1392,2038
6,0.2942,-0.4868,0.3047,-4.2066,-1.2691,3.3515,2050
6,0.3027,-0.5894,0.2886,-4.3387,-1.3182,3.471,2018
6,0.3564,-0.6965,0.2883,-4.3522,-1.1874,3.5171,2002
6,0.4116,-0.6211,0.3247,-4.1955,-1.4736,3.7419,1687
6,0.2507,-0.7388,0.2256,-4.3635,-1.1352,3.8359,2221
6,0.2527,-0.8701,0.28,-4.3635,-0.8778,3.7145,2059
6,0.2283,-0.9001,0.2568,-4.3635,-0.4283,3.8965,2057
6,0.2432,-0.9133,0.2786,-4.3635,0.1176,4.1148,1904
6,0.2515,-1.0505,0.2842,-4.3635,0.7493,4.3041,1981
6,0.3777,-1.2534,0.3496,-4.3635,1.332,4.3634,1965
6,0.4199,-1.4502,0.4434,-4.3635,1.7403,4.3634,1997
6,0.4666,-1.5669,0.5605,-4.3635,2.0129,4.3302,2029
6,0.5364,-1.4575,0.7007,-4.3635,2.2987,4.0008,1986
6,0.4998,-1.2302,0.7156,-4.3635,2.5187,3.6339,2072
6,0.2769,-1.7473,0.832,-4.2122,2.9279,2.814,2061
6,0.8079,-1.2869,0.8225,-3.6491,2.7035,2.5709,2110
6,1.0603,-1.1184,1.3838,-2.4398,1.7162,2.428,1866
6,0.5874,-0.6572,1.2937,-2.1241,-0.1934,1.6832,2104
6,0.4353,-0.8787,0.8213,-1.8711,0.2167,1.476,1872
6,0.9658,-1.054,0.8345,-0.4341,0.4385,0.9507,1971
6,1.4651,-0.8564,1.3259,0.6468,-0.2064,0.2687,2016
6,1.4075,-0.9827,1.3054,2.1884,-1.8503,-1.6386,2018
6,-0.4209,-0.9666,1.9999,1.446,-3.2927,-2.612,2036
6,-0.9976,-0.8132,1.6958,0.4209,-3.793,-1.4793,1978
6,-1.9124,-1.5498,-0.4949,-1.8065,-4.3635,-0.9527,2048
6,-2.0,-2.0,-1.4109,-0.581,-4.22,-0.0674,2049
6,-1.9724,-2.0,-0.5242,2.1526,-0.3862,-0.952,1195
6,-1.1587,-0.5962,-0.0864,4.3634,1.4749,-1.1761,2142
6,0.5698,-0.605,0.6194,4.3634,-0.7967,-2.7488,1993
6,0.908,-1.509,1.575,2.1726,-0.6794,-2.8379,2330
6,1.6289,-2.0,-0.0591,1.5186,-1.2595,-2.6441,2072
6,1.9999,-1.5378,1.126,0.8035,-1.4395,-2.5706,2551
7,-0.8206,0.1199,0.5554,0.3104,-0.9333,-3.4215,1933
7,0.0017,0.259,-0.3904,0.198,0.5233,-1.5178,2036
7,0.6768,-0.7373,0.0212,1.5918,-0.3884,-0.6392,2919
7,0.3345,-1.4021,0.4683,1.8072,0.9019,-1.4185,1697
7,0.6301,-1.1514,0.9507,1.6006,0.5221,-2.0672,2033
7,1.0981,-1.0693,0.5022,0.8624,0.0739,-1.5763,2012
7,0.7571,-1.2983,0.3728,0.8855,-0.151,-1.1999,1989
7,0.3711,-1.2358,0.3718,0.7344,-0.0605,-0.8112,2058
7,0.532,-0.9524,0.3464,0.6301,-0.0898,-0.5944,2044
7,0.6016,-0.9968,0.3142,0.5331,-0.2199,-0.4932,1986
7,0.3628,-1.0818,0.2329,0.3426,-0.028,-0.2854,2200
7,0.2764,-1.0195,0.1421,0.2936,0.0256,-0.2487,2025
7,0.3301,-1.021,0.0779,0.3016,0.0975,-0.2454,2109
7,0.3032,-1.0232,0.1482,0.3255,0.0876,-0.3344,2025
7,0.2336,-1.0071,0.1614,0.2948,0.1935,-0.276,2035
7,0.2668,-1.0249,0.1973,0.2779,0.3009,-0.1116,2001
7,0.2346,-1.0471,0.1992,0.2699,0.336,-0.1176,1920
7,0.1992,-1.0391,0.2034,0.267,0.2569,-0.2364,2036
7,0.1824,-1.0405,0.1628,0.2807,0.2001,-0.3698,2028
7,0.1565,-1.0195,0.1287,0.2992,0.1523,-0.4056,2032
7,0.1323,-1.061,0.1028,0.2812,0.1626,-0.3153,2041
7,0.1086,-0.9849,0.0325,0.291,0.1989,-0.2386,2049
7,0.0339,-0.9265,-0.0671,0.4251,0.1739,-0.2148,1480
7,-0.0242,-1.0569,-0.0703,0.422,0.1891,-0.2658,2146
7,0.0969,-1.0381,-0.1255,0.5273,0.0033,-0.28,2081
7,-0.0581,-0.8655,-0.0576,0.5366,0.2456,-0.2622,1964
7,-0.0735,-0.8777,0.0,0.5232,0.4239,-0.2453,785
7,0.8469,-0.9829,0.0298,0.3695,0.2626,0.5438,2238
7,-0.3081,-1.0168,-0.009,0.5432,0.1828,-0.347,2258
7,-0.2546,-0.9868,0.0703,0.6087,0.7457,-0.7369,2172
7,-0.1162,-1.0552,0.1211,0.7805,0.6473,-0.7508,2059
7,0.1311,-0.9624,0.1462,0.7773,0.6521,-0.7245,2030
7,0.1086,-0.9509,0.1555,0.7738,0.5289,-0.8456,2129
7,0.0442,-0.9739,0.1614,0.7328,0.4448,-0.9625,1832
7,0.1792,-0.9548,0.1958,0.7478,0.3274,-0.9626,1951
7,0.3369,-0.999,0.2664,0.7393,0.0121,-0.8118,2064
7,0.354,-0.9814,0.3052,0.7548,-0.1826,-0.6387,2024
7,0.2625,-0.9082,0.3162,0.7664,-0.2012,-0.61,1909
7,0.2024,-0.8813,0.2988,0.7735,0.1007,-0.6421,2046
7,0.1865,-0.915,0.1753,0.813,0.3059,-0.6652,2222
7,0.1589,-0.9517,0.1113,0.887,0.255,-0.628,2238
7,0.0642,-0.9587,0.0916,0.9544,0.2707,-0.7155,2156
7,-0.0063,-0.9839,0.0518,1.0804,0.1807,-0.8649,954
7,0.03,-1.1497,-0.0305,1.1906,0.1577,-1.0415,2504
7,-0.022,-1.2751,-0.0349,1.2806,0.1322,-1.3636,2450
7,-0.0291,-1.2625,-0.0654,1.3853,0.2392,-1.3509,1357
7,-0.0649,-1.4246,-0.0444,1.5135,0.3193,-1.2904,1764
7,-0.0764,-1.3386,0.0049,1.6076,0.5156,-1.4366,1893
7,-0.0422,-1.3254,0.0039,1.7049,0.6453,-1.5819,1905
7,-0.0237,-1.3025,0.1248,1.7351,0.6955,-1.5962,1821
7,-0.0134,-1.25,0.2263,1.8341,0.6357,-1.621,1775
7,0.0034,-1.2437,0.3059,1.9526,0.6645,-1.7434,2938
7,0.0798,-1.3728,0.2224,2.0659,0.3481,-1.9018,1786
7,-0.126,-1.6245,0.0671,2.1554,0.1353,-1.9608,1980
7,-0.3406,-1.6384,0.0073,2.1912,0.1896,-2.1545,2187
7,-0.3989,-1.6248,-0.0549,2.2141,0.3702,-2.3214,2022
7,-0.3447,-1.5352,-0.1572,2.0951,0.9203,-2.6067,2044
7,-0.1118,-1.6672,0.0239,2.3618,-0.3775,-2.2348,822
7,-0.4507,-1.988,0.0146,2.0074,-0.2188,-2.5068,2573
7,-0.6477,-1.988,0.2625,1.9755,0.4819,-2.9545,2291
7,-0.1511,-1.8826,0.2405,2.0044,0.6207,-2.8663,2063
7,0.0825,-2.0,0.2056,1.85,0.6514,-2.8978,2270
7,0.2935,-2.0,-0.1165,1.6415,0.718,-3.1785,2113
7,0.0461,-1.9382,-0.4319,1.607,1.2065,-3.26,2522
7,-0.2739,-1.165,-0.5884,1.4829,2.4373,-3.3733,1789
7,0.1418,0.0007,-0.0735,2.2622,3.7403,-3.5411,1300
7,-0.6462,-0.9683,0.1938,1.4428,4.3634,-3.1262,1693
7,-0.751,-0.5723,0.592,3.1272,4.3634,-4.3635,1733
7,1.9999,-0.2788,1.8499,1.8881,4.3634,-0.6753,1567
7,1.9521,-0.2874,0.5544,0.0401,4.3634,-0.5248,2365
7,0.9731,-0.8376,0.7808,1.0682,1.0496,-2.1005,2538
7,0.2866,-1.0737,0.9475,-0.8718,-1.2292,-1.4904,2262
7,0.9287,-0.2563,0.1516,-2.9027,-0.5303,-0.0121,2494
7,0.4221,-0.3196,0.1719,-2.8686,-0.8835,1.0551,1879
7,0.1042,0.0403,0.0496,-3.4603,-0.7867,1.9602,2052
7,0.3274,-0.0063,0.1414,-3.1256,-1.0993,2.0499,2266
7,0.2371,-0.46,0.1685,-2.8602,-1.3256,1.4506,1874
7,0.1335,-0.7471,0.2573,-2.8192,-1.329,1.0971,1935
7,0.0649,-0.8145,0.3906,-3.0388,-1.5934,1.1055,1972
7,0.2197,-0.5784,0.3713,-3.2095,-0.8692,1.5556,1879
7,0.1497,-0.4741,0.3225,-3.3042,-0.3356,1.5018,1926
7,0.167,-0.3987,0.3801,-3.4509,-0.4673,1.5882,2029
7,0.2903,-0.458,0.418,-3.5845,-0.907,1.8397,2027
7,0.4614,-0.6128,0.4333,-3.7896,-1.3427,2.0198,2060
7,0.5005,-0.6218,0.5254,-4.1931,-1.6973,2.2318,2029
7,0.4219,-0.5156,0.4622,-4.3635,-1.9651,2.622,2073
7,0.3877,-0.4915,0.4382,-4.3635,-2.703,2.9221,1776
7,0.3391,-0.7061,0.5144,-4.3635,-2.657,3.1857,2257
7,0.2673,-0.6509,0.3542,-4.3635,-1.9784,3.1134,2105
7,0.197,-0.5623,0.3479,-4.3441,-2.2001,3.5207,2029
7,0.27,-0.677,0.3093,-4.3635,-2.6161,3.7897,2049
7,0.4338,-0.7124,0.3228,-4.3635,-2.6658,4.005,2058
7,0.2039,-0.6558,0.1487,-4.3635,-2.4774,4.3547,2048
7,0.2119,-0.9243,0.0918,-4.1779,-1.5639,4.3634,2032
7,0.262,-1.1675,0.2158,-4.0528,-0.9709,4.3634,1919
7,0.4458,-1.303,0.3167,-4.0443,-0.6777,4.3634,2032
7,0.5356,-1.302,0.3955,-4.0966,-0.5995,4.3634,2023
7,0.5334,-1.3623,0.4465,-4.0548,-0.4193,4.3634,2055
7,0.4106,-1.4121,0.4216,-3.7961,0.1494,4.3634,2006
7,0.2388,-1.3677,0.4397,-3.334,1.0065,4.3535,2172
7,0.4263,-1.4924,0.4724,-2.8289,1.75,3.8498,1985
7,0.6104,-1.3433,0.5085,-2.2546,2.1457,3.3172,2007
7,0.8828,-1.4094,0.7014,-1.8623,1.8519,2.5116,2033
7,1.0347,-1.1782,0.9546,-1.6554,1.16,1.7685,2043
7,1.002,-1.02,1.0134,-1.5609,0.0828,1.0573,2066
8,0.8162,-0.7356,0.9084,-1.321,-0.6783,0.1803,2045
8,0.675,-0.6875,0.886,-0.6707,-1.224,-0.6165,1947
8,0.2532,-0.3958,0.2566,0.3444,-0.1691,-1.5966,2259
8,0.2329,-0.9563,1.1416,1.776,-1.0375,-1.4468,1777
8,1.0029,-0.6704,1.7639,2.0451,-1.7088,-1.4173,1843
8,1.9999,-1.7864,1.9999,3.9645,-4.3635,-1.484,1928
8,-2.0,-1.5908,1.9999,-1.2732,-4.3635,-0.9088,1959
8,-2.0,-2.0,-1.8108,-2.1847,-1.1632,-0.3417,2024
8,-0.241,-0.6702,-0.5205,1.8887,-2.2035,-0.1547,1714
8,-1.0063,-1.5127,0.3574,2.073,1.2105,-0.9425,2083
8,0.4985,-1.7651,0.3186,3.221,0.4417,-3.2977,2406
8,0.3093,-2.0,0.949,2.646,0.244,-3.2654,2063
8,1.4265,-2.0,-0.011,1.0464,-0.0587,-4.2113,2051
8,1.9999,-1.3848,0.366,1.338,-2.7105,-2.9415,2145
8,-0.2495,0.5273,0.0681,-0.161,-0.6292,-2.9112,2027
8,0.2847,-0.1785,-0.2017,2.1063,-0.7285,-2.9881,1906
8,-0.2424,-0.2058,0.5688,1.2981,3.1849,-0.543,2067
8,0.3701,-0.3972,1.1506,0.8654,1.5047,-1.5174,2068
8,1.0078,-1.1763,0.7075,1.5054,1.0666,-2.2007,1902
8,1.4231,-1.646,0.7922,1.1461,-0.6882,-1.8743,2002
8,0.9756,-1.2302,0.0669,0.9503,-1.097,-1.3619,1861
8,0.6052,-1.1404,0.26,1.0673,-1.0597,-0.889,649
8,0.5366,-1.1011,0.2288,0.9393,-1.2861,-0.3064,2170
8,0.29,-0.8403,0.2517,0.8998,-1.1061,-0.6617,2242
8,0.1987,-1.0112,0.2275,0.7734,-0.9018,-0.7829,2005
8,0.45,-1.1924,0.6223,0.2803,-0.5153,-0.4164,1957
8,0.1887,-1.002,0.1096,0.5984,-0.247,-0.1587,1988
8,0.01,-1.114,0.2498,0.5927,0.2147,-0.3639,2025
8,0.1963,-1.1272,0.2893,0.5129,0.506,-0.2161,1988
8,0.2078,-1.0723,0.3037,0.4682,0.5919,-0.2739,2038
8,0.167,-0.9998,0.3315,0.3783,0.6035,-0.3169,2104
8,0.1326,-0.9331,0.2407,0.3549,0.5596,-0.2679,2073
8,0.1768,-1.0081,0.1973,0.3553,0.4289,-0.2562,2027
8,0.2603,-1.0024,0.1006,0.3452,0.275,-0.1149,1985
8,0.1836,-1.0271,0.0388,0.3793,0.1856,-0.1071,1976
8,0.063,-0.9675,-0.0144,0.403,0.2382,-0.1618,1961
8,-0.0413,-0.9207,-0.0852,0.4974,0.4144,-0.1312,2114
8,-0.2776,-1.1353,-0.136,0.6015,0.8522,-0.367,2026
8,0.4666,-0.8254,0.0908,0.5372,0.4276,-0.1587,1983
8,0.1768,-1.021,-0.04,0.562,0.7351,-0.1455,1949
8,-0.0959,-1.0908,0.1392,0.4947,0.6546,-0.628,2204
8,0.0151,-0.9915,0.1985,0.5261,0.6578,-0.6221,1909
8,-0.031,-0.927,0.1863,0.6165,0.5243,-0.5161,1770
8,-0.0688,-0.9668,0.1902,0.6715,0.5592,-0.4167,1917
8,-0.0017,-0.9636,0.1235,0.6873,0.6052,-0.5606,2159
8,0.0039,-0.9946,0.0828,0.7648,0.4658,-0.5577,1961
8,-0.0342,-0.9885,0.114,0.7425,0.3789,-0.7276,1999
8,0.095,-0.9177,0.1565,0.8018,0.2982,-0.6754,1900
8,0.2031,-0.9709,0.2061,0.8823,0.2366,-0.541,1956
8,0.1287,-0.9297,0.1926,0.9554,0.2071,-0.5319,2089
8,0.0122,-0.845,0.1494,0.9897,0.1704,-0.5713,1404
8,0.0178,-0.8167,0.0989,1.0637,0.1563,-0.7553,2282
8,-0.0698,-1.0115,0.0312,1.1094,0.1398,-1.0171,2231
8,-0.0364,-1.0886,0.0146,1.2472,0.1465,-1.3127,2162
8,0.0591,-1.2261,-0.0208,1.3432,0.1541,-1.483,2069
8,0.0337,-1.2581,-0.0464,1.4174,0.1566,-1.6918,2019
8,-0.0286,-1.21,-0.0049,1.5332,0.1863,-1.833,1787
8,-0.0935,-1.3857,0.0352,1.6749,0.2852,-1.8567,1980
8,-0.1145,-1.5442,0.092,1.846,0.2908,-1.6518,3741
8,-0.0811,-1.3416,0.2271,1.8841,0.3394,-1.6329,1610
8,-0.1357,-1.3794,0.2495,1.9811,0.2715,-1.6657,1998
8,-0.0474,-1.2817,0.2131,2.1595,0.2892,-1.8397,1709
8,-0.0688,-1.47,0.0471,2.247,0.006,-1.9361,1865
8,-0.2913,-1.7344,-0.1382,2.2831,-0.1241,-2.1736,2678
8,-0.4932,-1.7715,-0.1477,2.3345,0.1205,-2.4393,1817
8,-0.5286,-1.7688,-0.2576,2.2755,0.3382,-2.6352,1909
8,-0.4209,-1.8423,-0.1211,2.439,-0.2911,-2.3673,800
8,-0.8247,-2.0,-0.0051,2.1724,0.0229,-2.9468,2575
8,-0.6206,-1.9851,0.0205,2.2166,0.4235,-3.1376,2060
8,0.011,-2.0,0.1982,2.1188,0.4369,-3.0279,2234
8,0.2781,-2.0,0.0188,2.0252,0.2646,-3.1182,2051
8,0.1052,-2.0,-0.448,2.0783,0.276,-3.7231,2243
8,-0.2209,-2.0,-0.4722,1.8164,0.9519,-3.4837,2401
8,-0.4028,-1.0505,-0.6538,1.8421,2.9545,-3.7821,1625
8,0.7986,-0.6375,0.6599,1.519,4.097,-3.2475,1245
8,-0.7461,-0.8806,0.1501,1.8186,4.3634,-2.8389,1494
8,0.2563,-0.4045,0.4604,3.0696,4.3634,-4.3635,1996
8,1.9999,-0.3755,1.9999,1.394,3.4312,0.165,1293
8,1.8982,-0.6199,0.4526,0.3667,4.3634,-1.2982,2595
8,1.0425,-1.1101,1.094,0.8139,0.1418,-2.2021,2352
8,0.4382,-0.5979,0.5532,-1.5004,-0.6859,-1.2202,2418
8,0.6641,-0.0085,0.1692,-2.7986,-0.2039,0.4742,2224
8,0.2942,-0.0322,0.2476,-3.2068,-0.9736,1.918,1953
8,0.3684,0.0583,0.1633,-3.5853,-1.3754,2.6746,2212
8,0.093,-0.1794,0.0994,-3.2124,-1.8526,2.1168,1949
8,-0.1704,-0.8247,0.0876,-2.8414,-1.2407,1.3354,1991
8,-0.2715,-1.0356,0.3079,-2.9279,-1.0986,1.1011,1898
8,0.0422,-0.6956,0.3962,-3.1329,-0.5454,1.346,1952
8,0.1965,-0.4326,0.3564,-3.1871,-0.0643,1.6269,1937
8,0.2329,-0.2908,0.3765,-3.2467,-0.1526,1.7849,1965
8,0.2864,-0.3186,0.49,-3.2476,-0.601,2.004,1995
8,0.3684,-0.5078,0.5776,-3.4507,-1.1947,2.0317,1974
8,0.4224,-0.6189,0.7085,-4.0708,-1.8781,2.251,2029
8,0.3047,-0.5334,0.5906,-4.3635,-2.1059,2.797,1962
8,0.2053,-0.5007,0.5103,-4.3635,-2.2097,3.1558,2013
8,0.2156,-0.5518,0.4839,-4.3635,-2.1912,3.3812,1979
8,0.2964,-0.5981,0.4529,-4.3635,-2.2465,3.5299,2007
8,0.2756,-0.5889,0.3433,-4.3635,-2.7225,3.6103,2005
8,0.2029,-0.5771,0.3408,-4.3635,-2.6119,3.6105,1996
8,0.2625,-0.4709,0.3337,-4.3635,-2.7691,4.0775,1980
8,0.2827,-0.6628,0.3066,-4.3635,-2.3824,4.3634,2186
8,0.342,-0.8674,0.3374,-4.3635,-1.7258,4.3634,2163
8,0.53,-1.168,0.3777,-4.3635,-1.3777,4.3634,2005
9,0.6543,-1.3069,0.4919,-4.3635,-1.4543,4.3634,2006
9,0.6794,-1.3757,0.5664,-4.3635,-1.9041,4.3634,2004
9,0.5137,-1.2041,0.5906,-4.3635,-2.0997,4.3634,2127
9,0.2361,-1.1338,0.4614,-3.9282,-1.7741,4.3634,2085
9,0.2952,-1.5632,0.5107,-3.2788,-0.9645,4.2916,2130
9,0.2874,-1.5122,0.4358,-2.5767,0.2234,3.6149,2110
9,0.2935,-1.3223,0.3975,-1.8402,1.3178,3.3089,1853
9,0.6323,-1.1804,0.5181,-1.3685,1.3804,2.9184,2026
9,1.2522,-1.1167,0.769,-1.3371,0.7774,2.0792,2049
9,1.0784,-0.7947,0.7573,-1.4761,0.2906,1.0863,2076
9,0.6128,-0.7251,1.0332,-0.9955,-0.4513,0.1553,2166
9,0.6538,-0.6624,1.2854,-0.8879,-1.3556,-0.2426,2078
9,0.4209,-0.5391,0.2498,0.09,-0.8925,-1.661,2335
9,0.696,-0.543,0.7288,3.2676,-1.9809,-1.7227,1403
9,1.9999,-0.8438,1.9999,2.6822,-1.5125,-2.1494,1913
9,-2.0,-2.0,1.822,3.181,-4.3635,-2.5618,517
9,-2.0,-2.0,-0.6331,-2.9518,-4.3635,0.8921,2651
9,-1.9756,-1.1343,-2.0,-0.7028,1.912,0.4505,1994
9,-0.3042,-1.114,0.5354,3.4776,3.0271,-1.7926,1790
9,0.4387,-2.0,0.6953,2.746,3.658,-3.24,2226
9,0.6233,-1.7048,1.0757,3.764,-0.3992,-3.9733,2115
9,0.4204,-1.8149,0.9526,1.2448,-0.5565,-3.1831,2058
9,1.4304,-1.8665,-0.6294,0.8942,-2.1919,-3.1999,2062
9,1.9999,-0.7878,0.2156,1.1396,-2.8891,-2.9062,2080
9,0.6233,-0.4919,0.0408,0.5994,-1.079,-3.6091,2057
9,-0.4795,0.49,0.4363,1.6795,1.1315,-2.7568,2285
9,0.1506,0.0688,0.8291,-0.0132,3.847,-0.7191,1966
9,0.7678,-0.7605,0.5413,1.1312,1.6796,-1.7274,2065
9,1.4646,-1.7542,0.5383,1.6498,1.1404,-1.9419,1956
9,1.4316,-1.7715,0.7539,1.0114,-0.4027,-1.5153,2104
9,0.8518,-1.2891,0.0728,0.9115,-1.0306,-1.0066,2064
9,0.5198,-0.9995,0.3818,0.8264,-0.7955,-0.8023,1957
9,0.2571,-0.7402,0.3438,0.6626,-0.512,-0.497,2032
9,0.1775,-0.896,0.2668,0.6088,-0.2559,-0.7112,2135
9,0.3076,-1.2173,0.2668,0.589,-0.0684,-0.6063,1973
9,0.5312,-1.1819,0.0005,0.4528,-0.3886,0.2906,2011
9,0.1545,-0.9929,0.2278,0.6155,-0.2092,-0.1481,1875
9,0.2397,-1.0764,0.2495,0.4777,0.1084,-0.1068,2033
9,0.2039,-1.0325,0.2483,0.4674,0.2693,-0.0067,1982
9,0.0742,-1.0874,0.2034,0.4524,0.4978,-0.1035,1973
9,0.0164,-1.0574,0.1572,0.3798,0.8047,-0.2313,2037
9,0.1296,-1.053,0.1155,0.3397,0.8546,-0.2129,1968
9,0.2529,-1.0588,0.0801,0.359,0.7301,-0.0842,1956
9,0.2495,-1.0117,0.0498,0.3603,0.5263,-0.01,1996
9,0.1047,-0.9255,0.0588,0.3879,0.343,0.0134,2060
9,-0.0005,-0.9221,0.0378,0.4406,0.3099,-0.0157,1992
9,-0.0386,-0.9653,-0.0027,0.4753,0.3824,-0.0786,2050
9,-0.0374,-0.9485,-0.0176,0.5348,0.4733,-0.1428,2027
9,-0.0339,-0.9277,-0.0261,0.5978,0.5627,-0.2008,2002
9,-0.0215,-0.981,0.0417,0.6156,0.6064,-0.3553,2008
9,0.0142,-1.0352,0.1208,0.601,0.5762,-0.5119,2071
9,0.0076,-1.0312,0.1838,0.5881,0.5104,-0.5846,2046
9,-0.0354,-0.97,0.1504,0.6533,0.4276,-0.5683,1984
9,-0.1018,-0.9724,0.1558,0.6604,0.4165,-0.5829,2063
9,-0.0791,-1.002,0.1941,0.671,0.4211,-0.64,2006
9,-0.0344,-0.8872,0.1875,0.7099,0.3601,-0.6308,1911
9,-0.0242,-0.7739,0.2214,0.7325,0.2549,-0.6742,2078
9,-0.0198,-0.8276,0.2214,0.7428,0.1723,-0.7223,1910
9,0.0591,-0.8867,0.2134,0.8219,0.0783,-0.7554,2021
9,0.063,-0.9741,0.1738,0.9176,-0.0471,-0.7737,1769
9,0.0552,-1.0808,0.0784,0.9802,-0.0912,-0.8162,2120
9,-0.0413,-0.9854,0.0779,1.0569,-0.1984,-0.9863,2231
9,-0.0999,-1.0002,0.0356,1.0959,-0.2063,-1.2318,2292
9,-0.0366,-1.1089,0.0229,1.2235,-0.276,-1.6065,2003
9,0.1072,-1.2014,-0.0173,1.3573,-0.3208,-1.689,2212
9,0.0496,-1.2869,-0.0344,1.4687,-0.4084,-1.9349,2032
9,-0.0254,-1.2007,0.0366,1.5423,-0.386,-2.029,2070
9,-0.0222,-1.2588,0.0874,1.7199,-0.4847,-1.9034,2096
9,-0.179,-1.6807,0.123,1.8797,-0.5047,-1.5523,1626
9,-0.0569,-1.4944,0.0388,2.0069,-0.4225,-1.7411,1612
9,-0.0798,-1.2078,0.1045,2.0353,-0.1449,-1.9345,1742
9,-0.104,-1.324,0.0972,2.1991,0.0686,-2.0029,1799
9,0.0933,-1.561,-0.0396,2.3992,-0.102,-2.2282,1953
9,-0.2456,-1.7024,-0.0464,2.4064,-0.193,-2.5104,2282
9,-0.385,-1.8469,-0.1226,2.4201,-0.2824,-2.4858,1834
9,-0.4663,-1.7588,-0.144,2.5342,-0.2733,-2.3513,2228
9,-0.5688,-1.9207,-0.1072,2.4012,-0.2954,-2.4478,2315
9,-0.8147,-2.0,0.0452,2.3503,0.0087,-2.6633,2147
9,-0.894,-1.8472,0.2346,2.4222,0.7277,-3.0219,2187
9,-0.2271,-1.6985,0.198,2.4856,0.8827,-2.8127,2069
9,0.343,-2.0,0.3022,2.4015,0.5285,-2.8126,2133
9,0.2449,-2.0,-0.0781,2.0876,0.257,-3.3547,1969
9,0.3433,-1.7217,-0.3831,2.4029,0.35,-3.2776,1914
9,0.625,-1.8015,-0.2878,1.7319,0.9636,-2.4124,1973
9,-0.573,-0.7078,-0.6274,1.9443,1.372,-3.1803,1724
9,-0.0415,-0.9731,0.2593,1.0923,1.7897,-3.503,799
9,-2.0,-0.9995,0.6118,4.1575,4.3634,-4.3116,1210
9,1.9999,-0.3752,1.2671,2.6609,3.3934,-2.7313,2192
9,1.8037,-0.573,1.4067,0.5466,3.8255,-0.1609,2250
9,1.1533,-0.8591,0.6514,0.9148,0.3045,-1.3034,2431
9,0.3826,-1.1382,1.0886,-0.5718,-2.1335,-1.1893,2245
9,0.9678,-0.1877,0.0803,-2.1611,-1.8421,0.0928,2355
9,0.2803,-0.1416,0.1128,-2.7413,-1.1457,1.054,2044
9,-0.1829,-0.0369,0.0063,-2.8707,-0.8682,1.9395,2020
9,-0.073,-0.0042,0.0969,-3.0285,-1.0373,2.446,2015
9,0.1648,-0.3083,0.1211,-2.9116,-0.9544,2.3784,2022
9,0.3064,-0.5938,0.2534,-2.7534,-1.0617,2.0616,1974
9,0.2932,-0.5581,0.365,-2.8582,-1.6271,2.2714,2075
9,0.2192,-0.54,0.3672,-3.0253,-1.9687,2.4153,2125
9,-0.0046,-0.4495,0.2832,-3.1187,-1.6775,2.3671,1872
9,0.0312,-0.4517,0.259,-3.0353,-0.8095,2.3746,1910
9,0.0269,-0.3623,0.3799,-3.1549,-0.7636,2.8145,1728
10,0.2163,-0.5352,0.4238,-3.3567,-1.0905,3.0813,2116
10,0.4238,-0.6699,0.4724,-3.6214,-1.4363,3.323,2080
10,0.3931,-0.5833,0.4292,-3.884,-1.4603,3.6351,2002
10,0.2532,-0.5256,0.3909,-4.0498,-1.4364,3.9343,1714
10,0.1863,-0.5457,0.364,-4.0658,-1.6542,4.2443,2068
10,0.2422,-0.6431,0.2876,-4.0556,-1.8045,4.3634,2108
10,0.2427,-0.7083,0.3174,-4.078,-1.7535,4.3634,2106
10,0.2979,-0.8245,0.2793,-4.0246,-1.4083,4.3634,2044
10,0.2615,-0.8689,0.3508,-3.8815,-1.0508,4.3634,2011
10,0.2366,-0.8491,0.3855,-3.8406,-0.642,4.3634,1992
10,0.2651,-0.9067,0.3884,-3.7845,-0.3753,4.3634,2033
10,0.2493,-1.0361,0.3984,-3.6833,-0.1312,4.3634,1940
10,0.2957,-1.2134,0.3972,-3.4906,0.1342,4.3634,2032
10,0.4724,-1.4177,0.4426,-3.2456,0.1728,4.3634,1964
10,0.6455,-1.4741,0.5542,-3.0674,-0.0633,4.3634,2110
10,0.7356,-1.3955,0.6653,-2.9524,-0.2863,4.3634,1992
10,0.5422,-1.8965,0.7224,-2.9268,0.0164,4.3634,2102
10,0.1338,-1.0903,0.6487,-2.0618,0.017,4.3634,2099
10,0.3018,-0.8174,0.7017,-1.0782,-0.1842,4.3634,1803
10,1.6382,-1.6521,0.9568,-2.0041,0.6416,2.4214,2230
10,0.4275,-1.1265,0.6172,-1.8861,-1.264,1.0528,2079
10,0.1167,-0.865,0.3882,-1.3336,0.8612,1.3922,2115
10,0.8,-0.9641,0.6296,-0.3353,0.077,0.7698,2302
10,1.1951,-0.8569,0.6255,0.3476,0.3666,-0.1976,1744
10,1.668,-0.5642,0.8708,1.2025,0.4662,-1.55,1955
10,-0.8857,-2.0,1.9999,3.5504,-3.6557,-4.3635,1901
10,0.4871,-0.1653,1.7446,-0.0626,-4.3635,-0.5869,1982
10,-2.0,-1.3169,-0.4561,-1.2279,-4.3635,-0.6428,1988
10,-2.0,-2.0,-0.7551,0.4779,-2.9822,-2.7436,2147
10,-2.0,-2.0,-0.342,3.0046,1.3901,-0.8325,2140
10,-0.9028,-0.5205,0.5623,4.1188,2.5523,-3.0617,2083
10,1.3159,-0.8882,1.1565,2.6267,0.6179,-4.2953,2004
10,1.2046,-1.3699,0.832,0.6372,-1.1467,-3.3401,2009
10,1.9999,-2.0,-0.5398,-0.4271,-3.5685,-3.9333,2103
10,1.9999,-1.2385,-0.1182,-0.0836,-3.626,-3.2581,1914
10,-0.238,-0.2229,-0.0938,1.0187,-1.3932,-4.2418,1890
10,-0.7595,0.4675,-0.0708,1.8327,2.4713,-3.6066,1905
10,-0.3792,0.5593,-0.0437,0.8552,3.4689,-0.956,2077
10,0.8645,-0.8394,1.0708,0.7801,2.3,-0.6613,2294
10,1.9243,-1.9419,1.1577,0.5923,1.3731,-1.4142,2016
10,1.1489,-1.8831,0.2393,0.6738,-0.5027,-1.7129,1956
10,1.0876,-0.6462,-0.0312,0.8389,-0.1369,-1.3913,2006
10,0.3694,-0.6736,0.4111,0.8291,-0.6403,-0.9622,2091
10,0.1504,-0.8938,0.4429,0.524,-0.302,-0.398,1999
10,0.7009,-1.3242,0.4429,0.3554,-0.363,-0.2322,2022
10,0.4209,-1.1133,0.1462,0.4709,-0.5565,-0.3417,1944
10,0.2256,-1.0347,0.23,0.4719,-0.4999,-0.4057,1962
10,0.063,-1.0149,0.2725,0.4152,-0.1643,-0.1739,2004
10,0.1445,-0.9954,0.2036,0.4241,-0.039,-0.1697,2012
10,0.3293,-0.9668,0.187,0.4605,0.035,-0.0458,2018
10,0.1565,-1.0732,0.1428,0.4444,0.2987,-0.0535,2045
10,-0.0078,-1.1775,0.1311,0.3682,0.6561,-0.0751,2052
10,0.0906,-1.0833,0.1453,0.3562,0.8062,-0.0953,2019
10,0.1689,-0.9612,0.1279,0.333,0.8078,-0.0246,1993
10,0.0977,-0.9814,0.1265,0.3472,0.7187,-0.015,2031
10,0.0544,-0.9758,0.1116,0.4056,0.6054,-0.0389,2162
10,0.043,-0.9529,0.1035,0.4557,0.4974,-0.0345,1971
10,-0.0378,-0.97,0.1248,0.4659,0.4779,-0.108,2142
10,-0.0671,-0.9402,0.1445,0.4599,0.4634,-0.2133,1923
10,-0.1003,-0.98,0.1675,0.4553,0.5811,-0.3237,1872
10,-0.0535,-1.041,0.2002,0.4486,0.661,-0.5055,1978
10,-0.0278,-1.0178,0.2471,0.4667,0.6387,-0.6011,1917
10,-0.0254,-0.9412,0.1794,0.5295,0.5685,-0.5365,2019
10,-0.1616,-0.9951,0.1235,0.5586,0.6646,-0.7319,1938
10,-0.1772,-0.9683,0.0679,0.5931,0.7556,-0.8381,1981
10,-0.0476,-0.8955,0.04,0.666,0.6368,-0.7138,2013
10,-0.0557,-0.9189,0.1479,0.7236,0.4721,-0.7983,1961
10,-0.0098,-0.8372,0.2188,0.7514,0.3504,-0.9103,1829
10,0.0374,-0.8552,0.28,0.7849,0.2294,-0.9718,2073
10,0.0708,-0.8589,0.2864,0.8223,0.1413,-0.9484,2075
10,0.0652,-0.8835,0.2517,0.8646,0.0443,-1.0614,2052
10,0.0686,-0.9944,0.2327,0.8355,-0.006,-1.1658,2108
10,0.114,-1.1096,0.2063,0.8572,-0.1139,-1.3093,2317
10,0.1631,-1.0334,0.1545,0.9765,-0.2766,-1.3115,2077
10,0.0146,-1.0066,0.1377,1.0385,-0.4623,-1.4372,2143
10,-0.0029,-1.054,0.116,1.1306,-0.5259,-1.5631,1973
10,0.0161,-1.1726,0.0488,1.2796,-0.6032,-1.7052,2004
10,0.0012,-1.3193,-0.0015,1.4141,-0.6135,-1.8146,2023
10,-0.1619,-1.6624,0.0081,1.606,-0.7106,-1.7326,3721
10,-0.3027,-1.5896,0.0459,1.6791,-0.3785,-1.7812,1745
10,-0.1753,-1.1421,0.0862,1.6637,-0.1213,-1.9218,1542
10,-0.0835,-1.1853,0.1406,1.7989,-0.1839,-1.8527,1753
10,-0.0688,-1.3523,0.2466,1.9463,-0.3124,-2.1343,1816
10,-0.074,-1.4885,0.1973,2.1383,-0.4626,-2.2594,1900
10,-0.1506,-1.6011,0.1187,2.2951,-0.4649,-2.4485,2072
10,-0.241,-1.8047,-0.05,2.3828,-0.4417,-2.6292,1935
10,-0.3057,-1.9338,-0.1597,2.4667,-0.6838,-2.2679,2024
10,-0.6414,-2.0,-0.1987,2.3273,-0.5197,-2.588,2747
10,-0.6685,-1.9148,-0.2612,2.2426,-0.2854,-2.6167,2088
10,-0.7898,-2.0,0.0093,2.3182,0.0959,-2.9618,2034
10,-0.3706,-1.8496,0.292,2.4087,0.5321,-2.9092,1997
10,0.2295,-2.0,0.1667,2.3574,0.3653,-2.7287,2367
10,-0.0417,-2.0,0.0356,2.1627,0.1031,-3.6786,2039
10,0.2544,-1.8191,-0.2529,2.1618,0.5043,-3.3164,1882
10,0.8015,-1.8794,-0.4094,1.7961,0.2791,-2.3057,2497
10,0.1895,-1.0698,-0.6895,1.8093,0.3433,-2.8231,1939
10,0.0383,-0.968,0.4246,1.4354,0.3115,-3.4441,1720
10,-2.0,-1.0942,0.4683,4.3634,4.3634,-2.2241,1202
10,1.9999,-0.604,1.3452,2.7018,4.0562,-4.0425,2173
10,1.0378,-1.3989,1.8948,0.4187,3.3661,-0.6341,2197
10,1.4016,-0.7273,0.5391,1.0007,1.5063,-1.1038,2490
10,0.5286,-1.2859,1.072,0.4268,-1.761,-1.2845,2218
10,0.7317,-0.51,0.4417,-1.7363,-1.9841,-0.4116,2481
11,0.3188,-0.0903,0.0137,-2.5416,-0.6024,1.2645,2147
11,-0.0996,0.001,0.0559,-2.6292,-0.8694,2.3794,2050
11,0.1416,-0.0542,-0.0103,-2.7112,-1.0742,2.9791,2064
11,0.2937,-0.3538,0.1179,-2.5191,-0.9597,2.8233,2018
11,0.0764,-0.741,0.1882,-2.4039,-1.1256,2.1033,1972
11,0.0374,-0.7134,0.2898,-2.4623,-1.0254,2.2194,2027
11,0.0601,-0.5845,0.3821,-2.6662,-1.1393,2.3903,1889
11,0.2739,-0.3616,0.2734,-2.7703,-0.2858,2.7903,1946
11,0.2053,-0.375,0.2927,-2.8136,0.1762,2.7,1921
11,0.1223,-0.3772,0.3711,-2.9299,-0.0149,2.6296,1973
11,0.2783,-0.501,0.417,-3.0677,-0.5164,3.0645,1949
11,0.4441,-0.7549,0.4524,-3.3801,-0.8684,3.2079,2033
11,0.4504,-0.5623,0.4729,-3.9934,-0.7452,3.5396,2055
11,0.2869,-0.4238,0.353,-4.1788,-0.6164,3.8495,2024
11,0.1982,-0.4927,0.395,-4.2664,-0.6653,4.0582,1769
11,0.3564,-0.6924,0.438,-4.184,-1.2955,4.1345,2161
11,0.4133,-0.7515,0.3208,-4.3635,-1.3276,4.3489,2218
11,0.3127,-0.7302,0.3049,-4.3635,-1.3346,4.3634,2055
11,0.2996,-0.741,0.3506,-4.3635,-1.0262,4.3634,2116
11,0.3357,-0.7681,0.3511,-4.3635,-0.7324,4.3634,2017
11,0.3779,-0.915,0.3853,-4.3635,-0.5509,4.3634,2021
11,0.4146,-1.1331,0.396,-4.3635,-0.3352,4.3634,2034
11,0.488,-1.3379,0.4551,-4.3635,-0.3698,4.3634,2075
11,0.5303,-1.314,0.4949,-4.3635,-0.4056,4.3634,2042
11,0.5662,-1.229,0.5513,-4.2832,-0.4263,4.3634,2051
11,0.6882,-1.2671,0.605,-4.0422,-0.1645,4.3634,2048
11,0.7441,-1.4329,0.6338,-3.4271,0.1573,4.3634,2101
11,0.5974,-1.1707,0.4761,-2.7773,1.0275,4.3634,2110
11,0.9321,-1.2202,0.739,-1.5824,1.2576,4.1193,1867
11,1.4446,-1.2095,0.9202,-1.9317,0.5589,2.5372,2063
11,0.7161,-1.2278,0.6387,-1.908,0.4578,1.3547,2075
11,1.6367,-0.3708,0.3977,-0.5244,-0.2209,2.0542,1980
11,1.2273,-0.7686,0.9727,-0.6012,0.2128,0.3573,2009
11,0.5974,-0.3345,0.45,0.2774,-0.1408,-0.9408,2047
11,1.541,-0.5176,1.9999,2.3736,1.923,-1.0625,1720
11,1.9999,-1.2378,1.9999,1.8391,-4.2389,-2.8601,1776
11,-2.0,-2.0,1.3848,2.4551,-4.3635,-4.3168,1032
11,-2.0,-2.0,-1.7175,-2.3613,-4.3635,1.9989,2787
11,-2.0,-1.4578,-1.7373,0.2381,3.3772,-0.3855,1911
11,-0.6121,-0.323,0.7874,4.1781,4.3634,-1.7483,1944
11,0.7517,-0.1765,1.1548,4.0503,2.8485,-3.8044,2192
11,1.0835,-1.7378,1.6978,2.3479,-1.1363,-4.2917,1984
11,1.2996,-2.0,0.1743,0.2486,-1.9054,-2.8538,2152
11,1.9999,-2.0,-0.115,0.6946,-4.3635,-3.5303,2256
11,0.7554,0.0435,0.3101,-0.724,-1.8961,-4.1679,2062
11,-0.2803,0.1121,0.136,1.124,-0.5187,-4.0602,2065
11,-1.0479,0.2034,0.072,0.767,3.2441,-1.4631,2005
11,-0.2366,-0.2893,0.6042,0.8261,2.1684,-1.0778,1999
11,1.3479,-0.9236,0.9546,1.929,1.5271,-1.3857,1763
11,1.9999,-1.5662,0.9648,0.6554,-0.1056,-1.6427,2222
11,0.9402,-1.4727,0.292,0.6782,-0.8427,-1.7113,2086
11,0.3013,-1.0579,0.4514,0.6942,-0.7333,-1.4307,1981
11,0.1548,-0.886,0.4075,0.3934,-0.1096,-0.1547,1977
11,0.2729,-1.1343,0.3228,0.4063,-0.0268,-0.235,2979
11,0.4597,-1.2361,0.248,0.3402,0.1049,-0.6316,1701
11,0.375,-1.1743,0.2522,0.4623,-0.124,-0.6018,1568
11,0.3816,-1.0459,0.2888,0.2625,0.2737,-0.2611,2119
11,0.2693,-1.0828,0.1736,0.279,-0.0104,-0.1023,2070
11,0.3318,-1.0569,0.2249,0.2484,-0.0372,-0.1369,1979
11,0.1797,-0.9639,0.1538,0.2633,0.0493,-0.0099,2032
11,0.0535,-1.0342,0.0889,0.2575,0.2645,-0.1353,2047
11,0.0635,-1.1052,0.0813,0.1836,0.6087,-0.2775,2032
11,0.1304,-1.0657,0.051,0.173,0.7068,-0.1868,1990
11,0.1787,-0.9863,0.0337,0.2469,0.5833,-0.0547,2027
11,0.0671,-0.9348,0.0203,0.3125,0.5036,-0.0224,2013
11,-0.0562,-0.9121,-0.0146,0.3408,0.4842,-0.092,2023
11,-0.1414,-0.9326,-0.033,0.4273,0.5569,-0.1728,2001
11,-0.3186,-1.126,-0.0083,0.0929,1.2944,-0.1485,2050
11,0.0115,-0.8618,0.0884,0.7329,0.4538,0.0506,1993
11,0.2959,-0.8958,0.0051,0.7408,-0.3374,-0.6951,1880
11,0.3752,-0.9441,0.04,0.3183,0.6399,-0.4767,2148
11,-0.6338,-0.9971,0.0891,0.5137,0.4863,-1.2026,2074
11,-0.439,-0.9326,0.0994,0.5384,1.0608,-0.8235,2026
11,0.1565,-1.031,0.0222,0.5408,1.1443,-0.7095,1919
11,0.1956,-0.9697,0.0381,0.6299,0.653,-0.7335,2446
11,-0.1873,-0.8479,0.0923,0.6356,0.5225,-1.0315,1709
11,0.0571,-0.8196,0.1072,0.6303,0.4414,-0.8293,1908
11,0.082,-0.9797,0.2344,0.747,0.2505,-1.0041,2152
11,0.0894,-0.9866,0.2786,0.8038,0.3605,-1.0975,2041
11,0.0635,-1.0979,0.2197,0.7983,0.3529,-1.1975,2199
11,0.2344,-1.0669,0.21,0.7665,0.2332,-1.1548,2198
11,0.2529,-0.9902,0.1611,0.8163,0.1071,-1.0146,1980
11,0.1736,-0.9668,0.1565,0.8371,0.0547,-0.9825,1915
11,0.1968,-1.0566,0.155,0.8817,-0.1007,-1.0601,1878
11,0.0466,-1.0535,0.1553,0.9504,-0.4124,-1.2338,2259
11,-0.1147,-1.0881,0.1106,1.0649,-0.4882,-1.2974,1851
11,-0.0444,-1.1223,0.0708,1.1475,-0.3357,-1.3808,1961
11,-0.0845,-1.3662,0.0198,1.3022,-0.3653,-1.5789,2247
11,-0.1956,-1.3506,0.0476,1.4101,-0.1189,-1.7965,2034
11,-0.1665,-1.3264,0.0476,1.5231,0.0362,-1.7926,1823
11,-0.041,-1.293,-0.0247,1.6024,-0.0961,-1.8274,1934
11,-0.1658,-1.2104,0.0413,1.715,-0.0858,-2.0766,2203
11,-0.1196,-1.291,-0.0513,1.8499,-0.1495,-2.2099,1880
11,-0.1555,-1.4292,-0.0437,2.0197,-0.1344,-2.6137,1951
11,-0.0818,-1.5134,-0.0642,2.1675,-0.1013,-2.6738,2181
11,-0.1523,-1.5696,-0.1345,2.2573,-0.2093,-2.7556,2125
11,-0.3416,-1.7363,-0.2429,2.2977,-0.2209,-2.9628,1998
11,-0.5835,-1.8481,-0.1936,2.251,-0.037,-2.9681,1992
11,-0.6951,-1.7715,-0.1047,2.2491,0.4195,-3.1134,2027
11,-0.7566,-1.8354,-0.0212,2.3718,0.9813,-3.594,1910
11,-0.1758,-1.8127,1.2888,1.972,1.1998,-3.4499,1857
12,-0.5913,-1.8745,0.3982,2.7312,1.6428,-3.169,1913
12,0.2524,-2.0,0.2825,2.132,1.3398,-2.73,2001
12,-0.072,-2.0,0.5613,1.6922,1.7167,-3.2501,2332
12,0.1528,-2.0,-0.1392,1.6832,1.2616,-3.0923,2002
12,1.0381,-1.7024,-0.2822,1.8359,0.4361,-2.841,1993
12,0.9451,-0.7617,-0.4658,2.2549,-0.1272,-3.0558,1918
12,0.4443,-0.6829,0.2651,1.2856,-0.6195,-2.8223,1366
12,-1.4807,-0.5662,-1.2139,4.3025,4.3634,-4.2776,70
12,0.551,0.0327,1.9999,4.3634,3.0051,-2.7468,1495
12,1.9999,-1.1287,1.7522,0.812,4.3634,1.3938,2761
12,1.9999,-0.4744,1.2117,1.755,4.0652,-0.3364,2430
12,0.3733,-0.968,1.7148,1.1624,-0.6642,-0.9408,2187
12,0.6626,-0.7478,0.6208,-1.0837,-0.4048,-0.6586,2318
12,0.9312,-0.342,0.1726,-1.55,-0.5653,0.3366,1951
12,0.686,-0.1863,0.1648,-1.801,-0.4036,0.9589,2149
12,0.7939,-0.0815,0.1694,-2.1084,-0.0788,1.0379,2125
12,0.5803,0.0215,0.1941,-2.3081,-0.0256,1.6383,2146
12,0.2983,0.0366,0.2283,-2.3744,-0.4151,2.4364,2011
12,0.4675,0.0305,0.3008,-2.539,-1.0471,3.0827,1932
12,0.5984,0.0266,0.342,-2.8365,-1.935,3.6906,2077
12,0.2285,-0.134,0.2065,-2.8433,-2.4772,3.5166,1936
12,-0.053,-0.4158,0.0972,-2.7533,-1.8551,3.2343,1963
12,0.0955,-0.4956,0.2351,-2.7948,-1.0941,3.4635,1941
12,0.2561,-0.4443,0.334,-3.0111,-1.0978,3.69,1965
12,0.3328,-0.4014,0.3235,-3.2544,-1.2814,3.8812,2017
12,0.3308,-0.4087,0.3188,-3.4294,-1.2765,3.8755,2018
12,0.3953,-0.4036,0.3501,-3.6367,-1.254,4.0552,2014
12,0.4248,-0.4253,0.3696,-3.8243,-1.356,4.286,2012
12,0.4048,-0.4031,0.4048,-3.9399,-1.6965,4.3634,1725
12,0.2864,-0.5198,0.3118,-4.1219,-2.0459,4.3634,2195
12,0.251,-0.5947,0.2571,-4.2852,-1.9008,4.3634,2045
12,0.3298,-0.7324,0.2537,-4.3129,-1.8305,4.3634,2073
12,0.3489,-0.8003,0.2898,-4.3635,-1.7689,4.3634,1992
12,0.3401,-0.751,0.2546,-4.3635,-1.6637,4.3634,2030
12,0.3042,-0.8281,0.2986,-4.3635,-1.3817,4.3634,2040
12,0.3579,-1.0679,0.3081,-4.3635,-1.0654,4.3634,2019
12,0.4438,-1.2646,0.3164,-4.3635,-0.5429,4.3634,2028
12,0.5657,-1.447,0.3794,-4.3635,-0.0067,4.3634,1959
12,0.5549,-1.603,0.7004,-4.3635,0.4002,4.3634,2005
12,0.0186,-1.6973,0.3726,-4.3635,-0.1025,4.3634,2149
12,-0.8008,-2.0,0.2747,-2.4772,0.9947,3.6006,2047
12,1.2698,-1.5576,1.3899,-1.532,-1.1109,4.3634,1983
12,1.26,-2.0,0.4551,-3.4877,1.0349,2.7046,2326
12,0.9329,-0.7214,-0.0894,-1.3673,0.9207,2.3666,2031
12,0.7891,-1.1453,0.3967,-1.2461,1.5452,2.3205,1978
12,0.9106,-1.188,0.4834,-0.7443,1.2449,1.1617,2038
12,0.2717,-0.7739,0.8445,-0.514,0.7415,-0.1277,2013
12,0.2612,-0.9219,0.603,-0.1104,1.9014,-1.0344,2032
12,0.5781,-0.7949,0.8594,1.0244,2.5145,-2.3872,1960
12,0.9331,-0.7241,1.4746,1.1918,0.8384,-2.5289,1912
12,-0.821,-0.6223,1.2083,0.5782,-1.552,-1.028,1638
12,-2.0,-2.0,-0.4094,-0.1346,-4.3635,-0.4409,2150
12,-2.0,-2.0,-0.8413,1.7313,-1.6735,-0.6357,2111
12,-1.6494,-1.3882,-0.1663,4.3634,0.4536,-2.1025,1975
12,0.6653,-1.2917,1.4465,3.2088,-0.0202,-3.917,1952
12,0.4197,-1.5474,1.1221,1.4637,-0.5556,-4.0847,1959
12,1.5417,-2.0,0.5952,2.016,-2.2348,-3.963,2011
12,1.4849,-0.9836,1.0525,1.1097,-3.1529,-2.3483,2069
12,-0.481,-0.1956,-0.1599,0.6691,-3.3335,-4.0189,2028
12,-0.604,0.4265,-0.8225,0.7578,-0.2702,-2.5725,2071
12,-0.0754,-0.0037,-0.155,1.4829,0.2346,-2.0743,2168
12,1.241,-0.5911,0.7942,1.3303,1.2846,-1.8664,1799
12,1.9999,-1.5056,0.9094,0.8854,0.8022,-2.5325,1963
12,1.0093,-1.3342,0.5427,1.107,-0.1928,-2.4852,2179
12,0.179,-0.9648,0.9021,0.912,-0.5745,-1.6536,2097
12,0.2197,-1.0508,0.3267,0.3617,0.1305,0.0912,1978
12,0.4951,-1.4819,0.1509,0.5426,0.1365,-0.5935,2338
12,1.8687,-1.5283,0.6211,-0.0316,0.0108,0.6373,2004
12,0.3069,-0.7551,-0.0596,0.5036,-0.6059,-0.3179,2012
12,-0.0437,-1.1033,0.3298,0.1641,-0.1706,-0.5256,2100
12,0.1062,-1.0405,0.1807,0.3793,-0.3119,-0.3649,2016
12,0.363,-1.03,0.1465,0.3907,-0.2665,-0.3077,2053
12,0.1616,-1.0422,0.1255,0.3557,-0.1898,-0.2974,2019
12,0.1943,-1.0657,0.1653,0.3426,-0.0621,-0.4132,2145
12,0.209,-1.0439,0.1836,0.296,0.1356,-0.4429,2012
12,0.1858,-1.0583,0.209,0.2723,0.2477,-0.4333,2032
12,0.1458,-1.0508,0.158,0.2509,0.302,-0.4406,2035
12,0.1238,-1.0359,0.1321,0.2481,0.3208,-0.4683,1966
12,0.1318,-1.0173,0.0835,0.2844,0.3236,-0.4313,2009
12,0.1094,-0.9666,0.052,0.2952,0.2719,-0.3742,1862
12,0.1184,-0.9226,0.0088,0.3273,0.2559,-0.2719,2102
12,0.0681,-0.968,-0.0073,0.3571,0.2748,-0.2503,2138
12,-0.0088,-0.9656,-0.0486,0.4389,0.4576,-0.2935,1898
12,-0.6301,-1.2268,-0.1655,0.4405,1.591,-0.797,1992
12,-0.0662,-1.0315,0.0425,0.8004,1.4472,-0.3777,1971
12,0.7283,-0.6711,0.2383,0.5679,1.0994,-0.1328,1850
12,0.5303,-0.7969,0.2737,0.3678,0.7786,-0.652,2039
12,-0.054,-0.9705,0.1975,0.4032,0.1004,-0.9812,2107
12,-0.175,-1.0461,0.2065,0.4858,0.2035,-1.1633,2073
12,-0.0322,-1.1274,0.1643,0.5397,0.2059,-0.7444,2032
12,0.0762,-1.0225,0.1074,0.5661,0.2385,-0.7038,1966
12,0.104,-0.9392,0.1338,0.6621,0.133,-0.6766,1942
12,0.1292,-0.9705,0.1541,0.6675,0.1128,-0.7443,1907
12,0.1482,-0.8689,0.2131,0.667,-0.03,-0.7885,1977
12,0.1956,-0.8147,0.2317,0.711,-0.2647,-0.6822,2035
12,0.1982,-0.8743,0.2583,0.7682,-0.3143,-0.7588,2015
12,0.0916,-0.9211,0.2202,0.8124,-0.2554,-0.8533,2116
12,0.0203,-0.9504,0.1716,0.8593,-0.2157,-0.8979,2069
12,0.0371,-0.9578,0.1133,0.9568,-0.195,-0.9311,1905
12,0.0229,-1.0706,0.0591,1.0019,-0.2904,-1.114,2023
12,0.0,-1.0903,0.0088,1.0953,-0.3542,-1.1681,2071
12,-0.0183,-1.1028,0.0278,1.2151,-0.4755,-1.2672,1922
13,-0.0471,-1.2207,-0.0469,1.3661,-0.4342,-1.5352,1868
13,-0.1152,-1.4019,-0.0244,1.434,-0.3248,-1.6386,1815
13,-0.1428,-1.3711,0.0088,1.4869,-0.2306,-1.766,1890
13,-0.1299,-1.2971,0.0183,1.6158,-0.1457,-1.8471,1969
13,-0.1096,-1.1982,0.0356,1.7476,-0.035,-1.9465,1893
13,-0.1487,-1.3845,0.062,1.8567,-0.2136,-2.2804,2081
13,-0.3162,-1.4797,-0.0095,2.021,-0.1685,-2.5159,2045
13,-0.2686,-1.5403,-0.0298,2.1574,-0.0427,-2.6719,2091
13,-0.3391,-1.6802,-0.0444,2.289,0.0321,-2.8858,2010
13,-0.4172,-1.9258,-0.1716,2.3314,-0.0201,-3.0345,2172
13,-0.7148,-2.0,-0.0613,2.2937,0.1946,-3.2906,1984
13,-0.8511,-2.0,-0.0322,2.3571,0.7285,-3.424,2214
13,-0.125,-1.7412,0.2354,1.592,0.6094,-2.6946,1961
13,-1.1921,-2.0,0.5403,2.7063,1.3729,-4.0375,2084
13,0.1897,-1.7334,0.2646,2.3087,1.7275,-2.49,2169
13,0.1802,-2.0,0.5701,2.0782,1.474,-3.0264,2366
13,0.2183,-2.0,0.3667,1.5037,1.4632,-3.2192,1803
13,0.7053,-2.0,-0.1687,1.729,0.6931,-3.1092,1477
13,1.6055,-1.6621,-0.6047,1.9174,-0.7758,-2.7188,1814
13,0.1206,0.1411,-0.8835,3.0123,-0.8182,-4.3635,2526
13,-0.593,-0.3164,-0.3003,1.9224,2.9273,-3.0317,1264
13,-2.0,0.1343,0.9067,4.3634,4.3634,-4.3635,1733
13,1.9999,-0.9111,1.9999,2.1156,4.3634,0.6347,2268
13,1.9999,-0.0137,0.8032,1.3649,4.3634,0.3381,2387
13,1.5227,-1.0759,1.6104,1.5566,-0.507,-1.1728,2336
13,0.2209,-1.0149,0.7981,-0.6268,-2.1529,-1.1545,2141
13,1.0322,-0.3748,-0.0391,-1.6998,-1.5699,-0.0027,2205
13,0.6758,0.0464,0.137,-2.1233,-0.4782,1.1612,2271
13,0.3003,0.2207,0.0693,-2.281,-0.2868,1.8956,1871
13,0.561,0.1221,0.1853,-2.3095,-0.5534,2.4651,2047
13,0.7168,0.1055,0.3557,-2.4863,-1.5508,3.4765,1956
13,0.2534,-0.0571,0.2666,-2.5788,-2.4151,3.5507,2083
13,-0.1084,-0.3284,0.1067,-2.5378,-2.1482,3.109,1954
13,-0.1624,-0.5229,0.1714,-2.5278,-1.5908,2.94,1981
13,-0.0366,-0.468,0.2937,-2.742,-0.9014,3.1291,2012
13,-0.0222,-0.4812,0.187,-2.7284,0.1535,2.8369,1956
13,0.0227,-0.2073,0.3135,-2.8315,0.544,2.9277,1956
13,0.2498,-0.3098,0.4058,-3.1126,0.1242,3.3449,1976
13,0.3911,-0.5088,0.406,-3.436,-0.3165,3.4557,1925
13,0.6018,-0.5635,0.5769,-3.8857,-0.9893,3.5676,2082
13,0.4424,-0.4304,0.2634,-4.2249,-1.0316,3.9745,2133
13,0.1785,-0.4875,0.2866,-4.2789,-1.0286,4.0643,2029
13,0.0808,-0.6091,0.3071,-4.359,-0.9493,4.1683,2047
13,0.0605,-0.7544,0.3105,-4.3635,-0.6729,4.213,2047
13,0.1387,-0.7893,0.3047,-4.3635,-0.3067,4.2318,2008
13,0.1902,-0.7686,0.314,-4.3635,-0.004,4.2578,2008
13,0.2065,-0.8274,0.3511,-4.3635,0.1848,4.198,2010
13,0.2725,-0.8875,0.3325,-4.3635,0.5572,4.2073,2002
13,0.3262,-1.0354,0.3713,-4.3635,0.962,4.331,1981
13,0.3857,-1.2129,0.4058,-4.3635,1.1902,4.3634,1927
13,0.5032,-1.3701,0.4316,-4.3635,1.2326,4.3634,1994
13,0.5903,-1.4297,0.5291,-4.3635,1.1421,4.3634,1955
13,0.6543,-1.4829,0.6785,-4.3635,0.9776,4.3634,1991
13,0.6802,-1.4622,0.6335,-4.3635,0.4406,4.1924,2042
13,0.7734,-1.3252,0.6365,-4.1295,-0.1067,3.9929,2080
13,0.8643,-1.2786,0.5647,-3.6339,-0.6485,3.6018,2172
13,0.8049,-1.2856,0.5327,-2.7618,-1.0401,3.1341,2044
13,0.7405,-1.2432,0.6555,-1.6989,-0.9817,2.8256,2034
13,0.4873,-1.1135,0.5493,-1.183,-0.6002,1.8262,1959
13,0.5562,-0.949,0.3184,-0.8947,0.7323,1.3448,2004
13,0.6089,-0.7607,0.2659,-0.4189,1.2742,0.4902,2009
13,0.7603,-0.8303,0.8008,0.0554,0.8164,-0.223,1992
13,1.031,-1.8005,1.7617,-1.9618,-0.1759,-0.035,2274
13,0.469,0.0159,-0.6157,1.238,-2.5823,-1.733,1886
13,1.47,-0.1226,1.3416,4.1772,-0.0008,-2.0518,1566
13,1.9999,-1.0847,1.9999,1.7631,-4.3635,-2.5693,1006
13,-2.0,-2.0,0.8313,1.0693,-4.3635,-3.6298,2270
13,-2.0,-2.0,-0.0879,-1.8998,-4.3635,0.0189,2234
13,-0.4001,-1.2039,-1.5078,0.3301,1.745,1.4917,1823
13,-0.1873,-0.5981,0.7134,3.6146,0.7616,-0.9151,1461
13,-0.1143,-1.24,0.4771,2.2691,0.854,-2.4345,2264
13,0.1201,-1.4451,0.6279,2.9216,-0.8275,-2.891,2131
13,-0.0652,-1.9966,0.5254,0.8985,-0.8537,-2.7671,2072
13,0.1396,-1.4688,-0.1938,0.8124,-1.7347,-2.7762,2146
13,1.9999,-2.0,-0.8596,1.0943,-2.6353,-4.3635,2060
13,1.8225,0.1084,0.1072,0.5018,-0.7982,-2.4615,2061
13,0.7175,-0.4983,0.0254,1.1336,-0.8492,-3.6113,1878
13,0.1504,-0.1592,0.7434,1.4376,1.6849,-2.5903,2142
13,-0.9238,-0.1409,0.2749,0.0963,3.0818,-1.3633,1973
13,0.1938,-0.7295,0.5872,1.3286,1.328,-1.0726,1961
13,1.3396,-1.425,1.0796,0.698,0.9046,-0.6902,1856
13,1.53,-1.7004,0.4158,0.662,-0.4016,-0.9531,2127
13,0.5237,-1.3433,0.3813,0.6917,-0.6301,-1.3166,2073
13,0.176,-0.8696,0.3782,0.6675,-0.6849,-0.87,1981
13,0.2451,-0.8833,0.292,0.5454,-0.5054,-0.5193,2123
13,0.3201,-1.0933,0.3118,0.3862,-0.4958,-0.5843,1981
13,0.3325,-1.1821,0.2358,0.3617,-0.5662,-0.4466,2052
13,0.3713,-1.1089,0.1731,0.4837,-0.5683,-0.2999,1988
13,0.2163,-0.9895,0.2009,0.3986,-0.2,-0.0831,2008
13,0.1667,-1.0022,0.1667,0.3425,-0.0075,-0.0806,2000
13,0.1494,-1.0891,0.1438,0.2565,0.2332,-0.0847,2013
13,0.1267,-1.0854,0.126,0.2333,0.4047,-0.1302,1985
13,0.0798,-1.0491,0.1191,0.2205,0.6132,-0.151,2104
13,0.0872,-1.0166,0.1255,0.2189,0.6933,-0.123,2024
13,0.146,-0.9763,0.0986,0.2602,0.5747,-0.0976,2065
13,0.1069,-0.9546,0.0825,0.2928,0.4394,-0.0959,2026
13,0.0459,-0.9631,0.0515,0.3553,0.2854,-0.0736,2021
13,0.0024,-0.95,0.0237,0.4365,0.2197,-0.1188,2051
13,-0.1025,-0.9678,-0.0352,0.4533,0.3795,-0.1742,2127
13,-0.2688,-1.0364,-0.0171,0.396,0.7087,-0.344,1970
13,0.2297,-0.8018,0.0098,0.7517,0.2404,-0.3694,1959
14,0.3718,-1.0967,0.0811,0.4999,0.1623,-0.8867,2025
14,-0.2373,-1.0403,0.1621,0.3894,0.2983,-0.7336,1985
14,-0.2427,-0.9805,0.1729,0.4855,0.4992,-0.747,2006
14,0.0303,-0.9966,0.1677,0.6245,0.545,-0.669,1958
14,0.0864,-1.0015,0.1479,0.6171,0.6207,-0.673,2055
14,0.2961,-0.7708,0.1257,0.6862,0.3721,-0.2507,2068
14,0.0378,-0.8962,0.1892,0.6377,0.0208,-0.5255,2070
14,0.03,-0.8655,0.2148,0.6281,-0.0011,-0.6546,1997
14,-0.0256,-0.917,0.2312,0.6649,0.122,-0.7329,2077
14,0.0959,-1.0327,0.2271,0.7084,0.1605,-0.6842,2026
14,0.1169,-1.0061,0.1462,0.7541,0.1498,-0.7011,2161
14,0.0425,-0.938,0.0576,0.8617,0.0898,-0.7267,2055
14,-0.0151,-0.9592,-0.0366,0.9206,-0.0611,-0.8407,1995
14,-0.1072,-0.9688,-0.0239,0.9819,-0.192,-0.9942,1830
14,-0.1379,-1.0886,-0.0291,1.0736,-0.1617,-1.1806,1993
14,-0.1003,-1.302,-0.0564,1.1556,-0.1025,-1.4928,1952
14,-0.0615,-1.1721,0.0227,1.3608,-0.1719,-1.7491,2325
14,-0.0598,-1.0913,-0.0474,1.4378,-0.1499,-1.9221,2248
14,-0.1165,-1.1592,0.0205,1.6025,-0.2733,-2.0104,2487
14,-0.178,-1.4709,-0.0173,1.8775,-0.2655,-1.7044,1364
14,-0.1018,-1.4446,-0.0242,1.9648,-0.1942,-1.9145,1600
14,-0.0928,-1.4763,-0.051,1.9989,-0.2313,-2.0458,1707
14,-0.0796,-1.1748,0.0623,2.0881,0.18,-2.3073,1941
14,-0.0295,-1.5435,-0.0195,2.2399,0.0087,-2.2421,1863
14,-0.1956,-1.6187,-0.0154,2.3345,-0.1147,-2.6826,1960
14,-0.3801,-1.615,0.0044,2.4456,-0.1023,-2.7729,1964
14,-0.489,-1.6946,-0.0757,2.4611,-0.1076,-2.8859,2357
14,-0.8291,-1.7922,0.3987,2.2423,0.078,-3.0657,1703
14,-0.4646,-1.8726,-0.0403,2.318,-0.0862,-2.6864,2065
14,-0.7595,-2.0,0.1636,2.4228,0.3782,-3.4109,2463
14,-0.7788,-1.8428,0.293,2.5962,0.8774,-3.1945,2742
14,-0.1978,-1.6711,0.3164,2.5613,1.1083,-2.8789,1789
14,0.2192,-2.0,0.3845,2.392,0.6542,-3.1969,2519
14,0.2798,-2.0,0.1963,2.0236,0.689,-3.5081,1569
14,0.6077,-2.0,-0.1111,1.6922,0.728,-2.7602,2113
14,0.9224,-1.9824,-0.7012,2.0234,0.1878,-2.5858,2016
14,-0.3184,0.0369,-0.5154,2.3252,0.8769,-3.8406,2063
14,0.4551,-0.6206,0.5813,1.4608,1.343,-3.3901,1185
14,-2.0,-1.2312,-0.0728,4.3634,4.3634,-3.7653,1190
14,1.9999,-0.4285,1.9999,2.7405,2.7508,-2.8902,2345
14,1.9999,-0.5769,1.5903,0.5385,4.165,0.592,2345
14,1.2629,-0.8208,0.5657,0.3918,0.4782,-1.1057,2376
14,0.8042,-0.9717,0.9551,-0.4036,-2.4978,-0.9938,2181
14,0.6787,-0.168,0.1865,-2.7774,-1.2748,0.5568,2346
14,0.634,-0.0571,0.054,-2.4141,-2.1039,1.4215,1993
14,0.302,0.0132,-0.0452,-2.8514,-1.7065,2.7868,2058
14,0.2556,0.1318,0.0659,-2.3423,-1.6103,2.9317,2140
14,0.0955,-0.2729,0.1487,-2.1137,-1.4648,2.3386,2002
14,0.0413,-0.5212,0.1594,-2.2133,-1.2042,2.0185,1853
14,0.0862,-0.5691,0.2603,-2.3692,-1.1717,2.1951,2199
14,0.3,-0.3423,0.3411,-2.5762,-0.9222,2.6026,1875
14,0.3816,-0.2427,0.2344,-2.5725,-0.2466,3.087,1935
14,0.2617,-0.2268,0.2932,-2.6834,-0.2314,2.9091,1919
14,0.1953,-0.2571,0.3254,-2.8765,-0.5815,2.9568,2003
14,0.2957,-0.4272,0.2888,-3.0373,-0.7644,3.1405,2062
14,0.3904,-0.4854,0.2834,-3.2891,-0.7355,3.4258,1987
14,0.4309,-0.4766,0.3481,-3.5894,-0.6869,3.7091,2023
14,0.4431,-0.4001,0.3389,-3.8299,-0.8289,4.0864,1995
14,0.4419,-0.3916,0.4209,-3.7131,-1.5202,4.3634,2064
14,0.4634,-0.5342,0.3596,-4.0868,-1.6243,4.3634,2262
14,0.3586,-0.6335,0.241,-4.2154,-1.7006,4.3634,2183
14,0.3118,-0.7119,0.2598,-4.2041,-1.6655,4.3634,2012
14,0.3115,-0.7642,0.2654,-4.2303,-1.5898,4.3634,2052
14,0.3579,-0.7522,0.2634,-4.221,-1.3155,4.3634,2045
14,0.3569,-0.8269,0.2939,-4.2193,-0.9709,4.3634,2050
14,0.4143,-1.0276,0.2876,-4.2616,-0.6589,4.3634,2037
14,0.481,-1.292,0.3325,-4.2309,-0.2418,4.3634,2034
14,0.6321,-1.5632,0.428,-4.286,-0.0186,4.3634,1991
14,0.7188,-1.7437,0.5833,-4.3635,0.0956,4.3634,2038
14,0.6104,-1.4058,0.2839,-4.3635,-0.8074,4.3634,2127
14,-0.022,-1.6409,0.437,-4.3635,0.4887,4.3634,2166
14,-0.4062,-1.8191,0.1213,-2.9239,1.3347,4.2,2034
14,1.1257,-1.1804,0.7983,-0.9857,0.3646,4.3634,1914
14,1.1045,-1.23,0.3335,-2.4172,2.6041,2.6147,2128
14,0.4089,-1.1338,0.4968,-1.6977,3.1714,1.6616,2077
14,0.98,-1.0815,0.8901,-1.3696,0.9813,1.2938,1993
14,1.1021,-1.0391,0.3103,-1.9465,0.8483,0.5556,2024
14,0.1968,-0.5034,0.4609,0.295,0.8686,-0.5568,1873
14,0.6182,-0.6379,1.1453,0.6629,0.3858,-0.8448,1894
14,0.6028,-1.9348,0.7495,3.3323,-0.1059,-4.3635,1762
14,1.0908,-0.6348,1.9999,1.2978,-4.3635,-0.402,2034
14,-1.1245,-0.1094,0.6021,-1.4784,-4.3635,-0.4169,1705
14,-2.0,-1.603,-1.2908,-0.6759,-4.3635,-1.268,2281
14,-2.0,-2.0,-1.0073,1.7096,-1.0463,-1.0122,2031
14,-2.0,-1.4292,-0.292,3.0919,1.6928,-1.1444,1998
14,0.9336,-0.9441,0.6333,3.666,2.5916,-3.356,2039
14,0.9146,-1.699,1.6772,2.0784,1.4454,-3.9926,1984
14,1.0347,-2.0,0.2549,0.9923,-0.585,-3.9291,2106
14,1.9999,-2.0,0.4294,1.2267,-4.0931,-2.7717,2075
14,0.2805,-0.1025,0.1079,0.0888,-2.9943,-3.5818,2049
14,-1.3625,-0.1558,-0.0713,1.3593,0.5366,-3.4882,2000
14,-0.0435,-0.0576,-0.1208,2.1233,2.5084,-0.6136,2182
14,0.2654,0.0149,1.2693,1.2741,1.6126,-1.325,1998
14,1.9999,-1.5208,1.0366,0.8661,0.96,-2.0258,2061
14,1.7795,-2.0,0.6604,1.2051,-0.9774,-3.1114,2048
14,0.0403,-0.9675,0.5737,1.1279,-1.546,-2.5574,2109
14,0.5981,-0.7175,0.2102,0.7486,-0.5942,-0.2131,1940
14,0.6382,-0.9944,0.2295,0.6718,-0.8158,0.1463,1881
14,0.606,-1.0464,0.2456,0.6205,-0.977,-0.6373,1908
14,0.3215,-1.1641,0.2529,0.6371,-1.0597,-1.1798,2080
14,0.4397,-1.2734,0.5483,0.1356,-0.834,-0.8781,1934
14,0.0388,-0.9475,0.1221,0.4573,-0.4047,-0.5319,2037
14,0.0991,-1.1162,0.1143,0.4261,0.1451,-0.3402,1936
14,0.2075,-1.0864,0.1462,0.3892,0.4085,-0.2304,1985
14,0.2991,-1.0444,0.2156,0.3272,0.4506,-0.3683,2032
14,0.2993,-1.0295,0.2554,0.2578,0.4876,-0.3638,2032
15,0.2097,-0.9985,0.2261,0.2449,0.3999,-0.3489,2004
15,0.1282,-0.9929,0.1758,0.2725,0.2928,-0.4192,2031
15,0.1052,-0.9805,0.075,0.3129,0.2535,-0.4349,2045
15,0.0803,-1.0298,0.0366,0.3723,0.276,-0.3923,2057
15,0.1233,-0.9824,-0.0667,0.4115,0.3454,-0.2764,2019
15,0.0813,-0.9695,-0.0464,0.4336,0.3461,-0.291,1990
15,0.0786,-0.9436,-0.0288,0.4305,0.4172,-0.2595,1976
15,-0.5449,-1.155,-0.1372,0.4751,1.275,-0.8111,1980
15,0.2144,-1.0916,0.1311,0.4714,0.9957,-0.6496,2004
15,0.3154,-0.7126,0.282,0.8296,0.3416,0.3378,1848
15,0.9858,-0.8628,-0.1184,0.3848,0.4307,-0.2177,2036
15,-0.1094,-1.1201,0.2227,0.4425,-0.2096,-1.0239,2160
15,-0.1433,-0.9927,0.1758,0.4609,0.3886,-0.9198,2134
15,-0.2417,-1.0615,0.0806,0.6537,0.5645,-0.9459,2148
15,0.0071,-1.0508,0.136,0.6147,0.8319,-0.7048,1810
15,0.2251,-0.9133,0.0732,0.6533,0.7763,-0.8252,1939
15,0.2292,-0.9375,0.1265,0.6826,0.442,-0.8427,2031
15,0.2122,-0.8235,0.1882,0.6751,0.1352,-0.8428,1943
15,0.2363,-0.7976,0.2397,0.722,-0.1276,-0.7937,1990
15,0.2371,-0.9114,0.2415,0.785,-0.2804,-0.7405,1862
15,0.137,-0.959,0.2329,0.8355,-0.1728,-0.8196,2024
15,0.1501,-1.0171,0.1885,0.8849,-0.092,-0.8396,2155
15,0.1257,-1.0088,0.1404,0.8822,-0.118,-0.8926,2000
15,0.1533,-0.9675,0.0781,0.989,-0.3362,-0.8771,1953
15,-0.0032,-1.0288,0.0391,1.1235,-0.4352,-1.0696,2136
15,-0.095,-1.1753,0.001,1.2515,-0.4127,-1.2375,2070
15,-0.0996,-1.3042,-0.0256,1.3519,-0.2766,-1.4066,2026
15,-0.1279,-1.3606,-0.0085,1.4167,-0.078,-1.5186,2193
15,-0.1025,-1.3438,-0.0005,1.5245,-0.0017,-1.654,1806
15,-0.0994,-1.209,0.0857,1.6486,0.285,-1.7685,1975
15,0.0471,-1.2617,0.0688,1.7317,0.0185,-1.8191,1960
15,-0.1113,-1.4192,0.0845,1.8773,-0.1868,-2.1157,2091
15,-0.1865,-1.4304,0.0662,2.019,-0.0977,-2.2718,2015
15,-0.0701,-1.4021,-0.0195,2.2063,-0.1321,-2.3224,1975
15,-0.1318,-1.6602,-0.1538,2.3675,-0.3183,-2.6412,2055
15,-0.4487,-1.9761,-0.2563,2.3673,-0.2623,-2.8263,2124
15,-0.6599,-2.0,-0.1902,2.2802,-0.0281,-2.9508,1950
15,-0.6685,-2.0,-0.1592,2.1999,0.3175,-3.1963,1973
15,-0.8081,-2.0,0.0518,2.188,0.822,-3.472,1883
15,-0.811,-2.0,0.4219,2.1628,1.6799,-3.556,1873
15,-0.502,-1.771,0.0391,2.5638,1.7655,-2.5755,2224
15,0.1125,-2.0,0.6814,1.7992,1.7824,-3.422,2658
15,0.0371,-2.0,0.5044,1.0646,2.6883,-3.5615,1727
15,0.2151,-2.0,-0.2915,1.0531,2.0791,-3.5268,2034
15,0.5129,-1.3298,-0.342,1.3411,2.151,-3.1937,1670
15,0.0957,-0.0891,-0.5386,2.5662,2.3324,-4.0307,2277
15,0.2117,-0.6064,0.2124,0.4774,2.7642,-3.0855,1373
15,-2.0,-0.6367,-1.3311,4.3634,4.3634,-4.3635,354
15,1.5681,-0.7222,1.9999,3.1384,3.4364,-2.8883,1675
15,1.9999,-0.7349,1.7437,0.1617,4.3634,-0.3862,2754
15,1.5212,-1.093,1.2534,0.4787,2.1435,-2.563,2507
15,0.9019,-0.9678,0.8823,-1.2881,-0.0031,-1.7302,2203
15,1.0769,-0.3384,0.0659,-1.9466,-0.2598,-1.2212,2391
15,0.6306,-0.3687,0.3574,-3.0229,-0.1194,-0.0843,2152
15,0.3406,-0.0417,0.1504,-3.3569,-0.4809,1.2223,2099
15,0.6853,0.2002,0.1995,-3.1179,-1.2857,2.2487,1956
15,0.5967,0.0083,0.2808,-3.0312,-1.9033,2.6982,2034
15,-0.0803,-0.5847,0.304,-2.8951,-2.214,1.8659,2080
15,-0.397,-0.8203,0.2471,-2.8426,-1.7767,1.6153,1962
15,-0.3887,-0.855,0.3806,-2.9915,-1.4223,1.8892,1965
15,0.135,-0.5698,0.4573,-3.152,-0.4428,2.1201,1976
15,0.3376,-0.3696,0.3999,-3.1937,0.1466,2.1646,1923
15,0.2415,-0.24,0.3999,-3.2103,-0.0808,2.1591,1988
15,0.2815,-0.4475,0.4893,-3.1909,-0.6387,2.4452,2002
15,0.5664,-0.6321,0.5564,-3.4764,-1.2223,2.7926,2034
15,0.6772,-0.5139,0.6528,-4.1893,-1.7362,3.1127,2024
15,0.4199,-0.3596,0.6118,-4.3635,-1.7853,3.5549,2027
15,0.2458,-0.3599,0.5024,-4.3635,-1.9825,3.9074,1926
15,0.2725,-0.4766,0.5757,-4.3635,-2.0989,4.112,2023
15,0.4746,-0.6826,0.4087,-4.3635,-2.9982,4.0973,2026
15,0.3037,-0.6001,0.2471,-4.3635,-3.0578,4.2699,2024
15,0.1379,-0.5593,0.2551,-4.3635,-2.6291,4.3634,2004
15,0.2488,-0.6421,0.2739,-4.3635,-2.0916,4.3634,1991
15,0.0544,-0.614,0.4475,-4.3522,-2.3321,4.3634,2146
15,0.5178,-1.1851,0.3457,-4.2285,-1.474,4.3634,2187
15,0.447,-1.1216,0.4761,-4.1334,-1.5508,4.3634,2140
15,0.3643,-1.2598,0.4163,-3.9381,-1.3512,4.3634,2025
15,0.3726,-1.3228,0.5002,-3.8013,-0.9745,4.3634,2025
15,0.4163,-1.428,0.6113,-3.6351,-0.5036,4.3634,2061
15,0.5137,-1.3413,0.667,-3.4665,0.0402,4.3634,2132
15,0.4624,-1.3665,0.7622,-2.8871,0.143,4.0996,2089
15,0.7612,-1.3337,0.7222,-2.6164,0.0039,3.5725,2052
15,0.8931,-1.2024,0.7424,-2.0884,-0.3774,2.9719,2021
15,1.1108,-1.1133,0.9517,-1.852,-0.9654,2.4229,2073
15,1.1787,-0.9136,0.6858,-1.8205,-1.2372,1.8482,2028
15,1.2124,-0.7876,0.5581,-1.4475,-1.0134,1.288,2073
15,0.4607,-1.0684,0.4558,-0.8376,-0.2353,0.1205,2099
15,-0.0593,-0.8328,0.1731,0.4318,0.0415,-0.3671,1926
15,1.1851,-0.5076,1.3716,3.9105,1.827,-1.5628,1590
15,1.9999,-0.8662,1.9999,2.6077,-1.6978,-3.0938,1963
15,-2.0,-1.5405,1.5232,2.7357,-4.3635,-4.3073,767
15,-2.0,-2.0,-0.6348,-3.4429,-4.3635,0.6729,2963
15,-2.0,-1.4211,-1.7759,-0.4517,2.9155,0.3908,1986
15,0.105,-0.6875,0.6191,4.3634,2.6211,-0.8612,1249
15,0.3601,-0.884,1.3118,3.3766,1.6945,-1.099,2004
15,-0.0146,-1.2908,1.0586,3.2388,-2.0555,-3.994,2225
15,0.5283,-2.0,1.1406,1.1475,-1.8317,-2.6605,2127
15,0.2273,-1.8655,-0.1965,0.2462,-2.1683,-2.7995,2167
15,1.9999,-1.988,-0.5889,0.7923,-4.3635,-3.6185,2017
15,1.0989,-0.4531,0.301,-0.3545,-1.9829,-3.6942,2017
15,-0.031,0.106,0.2078,0.7632,-0.223,-3.495,1956
16,0.062,0.5974,0.1592,0.4597,2.5747,-1.9698,2272
16,0.1675,-0.4517,0.5427,0.9819,1.6415,-0.9103,1852
16,1.0117,-1.4299,0.2922,1.8189,1.246,-1.2941,1926
16,0.7644,-1.667,0.5068,1.4731,0.3627,-1.6416,2121
16,0.6758,-1.3179,0.4885,1.0112,0.1429,-1.3025,2076
16,0.6208,-0.9402,0.5051,0.5408,0.4287,-0.6968,2004
16,0.4824,-0.9111,0.5215,0.5424,-0.0473,-0.5043,2049
16,0.4673,-1.0168,0.3569,0.451,-0.4365,-0.4719,2208
16,0.4604,-1.2051,0.2834,0.5268,-0.7633,-0.5624,2028
16,0.406,-1.3967,0.6626,0.0638,-0.3161,-0.2096,2020
16,0.1704,-0.9419,0.2551,0.3771,-0.2859,-0.0993,1976
16,0.2412,-1.0349,0.3726,0.3204,-0.0469,-0.0439,1964
16,0.2849,-1.0588,0.3093,0.2591,-0.0178,0.1381,2057
16,0.179,-1.043,0.2039,0.2047,0.0499,0.1886,2046
16,0.041,-1.0618,0.1272,0.196,0.3571,0.0157,1986
16,0.031,-1.0579,0.1086,0.1704,0.5959,-0.0815,1992
16,0.0813,-1.0425,0.0771,0.1782,0.6524,-0.0068,1974
16,0.0945,-1.0054,0.1157,0.1529,0.6031,0.0666,2011
16,0.0278,-0.9805,0.0715,0.1546,0.4835,0.0063,1918
16,-0.0381,-0.9458,0.0532,0.2087,0.3128,-0.0445,1969
16,-0.073,-0.9097,0.0332,0.2928,0.2088,-0.0941,2014
16,-0.0857,-0.8911,0.0134,0.3876,0.2011,-0.2256,1988
16,-0.0679,-0.9192,0.0117,0.4105,0.2362,-0.3506,2030
16,-0.084,-0.9856,-0.0149,0.4333,0.3651,-0.4128,1994
16,-0.0605,-0.9802,0.0508,0.5564,0.2944,-0.5401,1971
16,-0.0952,-1.0259,0.0793,0.4348,0.6003,-0.8132,2067
16,-0.0977,-1.0669,0.144,0.4466,0.7106,-0.9449,2055
16,-0.0835,-0.999,0.1311,0.4992,0.7379,-0.9028,2177
16,-0.0342,-0.9512,0.1179,0.5749,0.7478,-0.7268,2067
16,0.0063,-0.9341,0.105,0.6062,0.6785,-0.6452,2019
16,0.0107,-0.8713,0.1504,0.6363,0.5296,-0.6585,2039
16,-0.0317,-0.8208,0.1323,0.7229,0.4124,-0.7215,2022
16,-0.0972,-0.8936,0.1755,0.8096,0.4221,-0.8098,1980
16,-0.0686,-1.0364,0.2341,0.8195,0.4513,-0.919,1959
16,0.0247,-1.0591,0.2441,0.8166,0.4613,-0.9838,2020
16,0.2012,-1.0493,0.179,0.9222,0.3454,-0.9262,1611
16,0.1001,-1.0491,0.084,0.9411,0.2008,-1.0509,2010
16,-0.0483,-1.0029,0.0649,0.9561,0.0557,-1.3391,2251
16,-0.0623,-0.9446,0.0369,1.1283,-0.1457,-1.431,2000
16,-0.0483,-1.0845,0.0303,1.2429,-0.2679,-1.7254,2146
16,-0.0759,-1.2227,-0.0105,1.36,-0.2129,-2.0122,2189
16,-0.1577,-1.2195,-0.0208,1.5055,-0.2569,-2.0939,1990
16,-0.134,-1.2761,0.0188,1.694,-0.151,-2.0535,2117
16,-0.1423,-1.5149,0.0728,1.8686,-0.1478,-1.8676,1542
16,-0.0137,-1.4727,0.1155,1.9694,-0.1348,-2.0129,1943
16,0.0476,-1.3386,0.0466,2.0085,-0.2019,-2.0129,1716
16,-0.0254,-1.3096,0.1506,2.1201,-0.185,-2.1293,1819
16,-0.0786,-1.3743,0.1174,2.2521,0.002,-2.3931,1819
16,-0.0603,-1.5879,0.0437,2.382,-0.1133,-2.5374,2554
16,-0.4607,-1.7698,-0.0894,2.3546,-0.1009,-2.7354,1812
16,-0.4158,-1.8494,-0.0203,2.5697,-0.3297,-2.5767,2140
16,-0.2544,-1.9414,-0.0957,2.4503,-0.5369,-2.8683,2276
16,-0.4697,-2.0,0.1411,2.5239,-0.7809,-2.5141,1989
16,-0.925,-1.9021,0.0359,2.4634,-0.2056,-2.8353,1996
16,-0.677,-1.96,0.2202,2.5248,0.673,-2.977,2379
16,-0.0459,-1.8875,0.1392,2.4639,0.5105,-3.1605,2304
16,0.271,-2.0,0.1724,2.3261,0.5774,-2.8402,2014
16,0.4646,-2.0,-0.0872,2.0485,0.1698,-3.1698,1934
16,0.5317,-1.8428,-0.4602,1.9255,0.8457,-3.163,2000
16,-0.1387,-0.949,-0.6233,1.4035,1.2629,-2.4067,1978
16,0.1997,-0.7993,0.4143,1.2248,1.1259,-3.4061,1477
16,-2.0,-0.8047,0.0269,4.0936,4.3634,-2.9304,1557
16,1.9999,0.2732,0.999,3.6351,4.3634,-4.0994,1995
16,1.9999,-0.8716,1.9999,0.9311,2.8133,0.3109,2073
16,1.397,-0.7729,0.6333,0.7111,2.3312,-0.8048,2347
16,0.2651,-1.3203,1.1885,0.3846,-2.1968,-1.3561,2396
16,0.7092,-0.4155,0.2952,-1.7867,-2.055,-0.563,2205
16,0.5249,-0.0176,0.1204,-2.8843,-0.562,1.1471,2278
16,0.1963,0.0569,0.1482,-3.1597,-0.9172,2.3751,1925
16,0.1741,0.1292,0.0798,-3.3104,-1.3994,2.9309,2050
16,0.3328,-0.0784,-0.0203,-2.9183,-1.4336,2.7452,2047
16,0.1887,-0.4907,0.106,-2.545,-1.3226,2.1519,1915
16,0.1304,-0.6162,0.2188,-2.6117,-1.4214,2.0486,2016
16,0.1492,-0.394,0.3215,-2.811,-1.4516,2.3266,1972
16,0.1782,-0.3679,0.2163,-2.7655,-0.6891,2.4076,2000
16,0.1638,-0.313,0.2236,-2.6895,-0.0816,2.2463,1915
16,0.2356,-0.2915,0.3682,-2.7902,-0.255,2.6749,1991
16,0.4417,-0.4866,0.4707,-3.06,-0.8885,2.8947,1815
16,0.7056,-0.6709,0.5239,-3.5629,-1.3978,2.9866,2081
16,0.6694,-0.5378,0.4285,-4.0705,-1.636,3.386,1583
16,0.3313,-0.3274,0.3828,-4.0815,-2.229,3.7696,2134
16,0.3074,-0.405,0.3953,-4.153,-2.439,3.9048,2159
16,0.4255,-0.6223,0.3474,-4.1964,-2.2824,4.0185,2101
16,0.5874,-0.6245,0.335,-4.0399,-2.0339,4.2535,1992
16,0.3835,-0.7117,0.3447,-4.0407,-2.5285,4.3157,2030
16,0.3252,-0.6865,0.2202,-4.2259,-2.6968,4.3634,2047
16,0.3228,-0.7146,0.167,-4.0201,-2.5329,4.3634,2059
16,0.2024,-0.8123,0.2327,-4.0631,-1.9612,4.3634,2062
16,0.3967,-1.0696,0.1255,-3.908,-1.0503,4.3634,2010
16,0.3586,-1.1821,0.2764,-3.8695,-0.6213,4.3634,1931
16,0.4819,-1.3938,0.2441,-3.8886,-0.5285,4.3634,2032
16,0.4741,-1.2532,0.2566,-3.9061,-0.3236,4.3634,1957
16,0.3916,-1.4402,0.24,-3.7495,0.245,4.3634,2049
16,0.7019,-1.8599,0.2434,-4.1013,0.8404,4.363,2083
16,0.093,-1.8523,0.1052,-1.5508,2.7785,3.8012,1983
16,1.0312,-2.0,1.2554,-1.5319,1.3021,2.3132,1914
16,1.4346,-0.3425,0.3726,-1.7895,2.8008,3.7577,2063
16,0.4734,-1.0974,0.5186,-1.5681,2.0269,1.9784,2040
16,0.7642,-1.4441,1.095,-1.533,1.4145,0.9128,2018
16,0.8794,-0.9238,0.9546,-1.3113,1.3794,0.7216,2114
16,1.0703,-0.6538,0.7322,-0.2641,0.3099,-0.3818,1989
16,0.583,-1.0852,0.7883,1.2744,0.1726,-2.563,1973
16,0.271,-0.5735,1.7788,1.2204,0.0565,-2.4999,1965
17,-0.2676,-0.6519,1.5742,0.4862,-1.6179,-1.6353,2066
17,-0.9346,-1.5596,0.323,0.6545,-4.3635,-0.4698,1888
17,-2.0,-2.0,-0.5417,1.268,-4.3635,-0.2713,2067
17,-2.0,-2.0,-0.4468,2.0441,0.0181,-1.5566,2237
17,-1.0674,-0.8479,0.1917,3.886,1.2095,-3.2006,2053
17,0.9268,-1.1389,1.3403,2.9921,0.6546,-3.9564,1936
17,1.1213,-2.0,0.3792,1.1319,-0.4195,-4.0551,2061
17,1.9999,-2.0,0.7153,1.4628,-4.3635,-2.6682,2041
17,0.5759,-0.4119,0.2214,0.0784,-3.0327,-3.215,2077
17,-0.9971,0.5842,-0.9268,0.9301,0.4382,-3.3099,2223
17,-0.3901,0.2107,0.2534,1.7329,0.606,-2.1558,1823
17,1.4966,-0.7185,0.9556,1.0308,1.6909,-1.333,1867
17,1.5923,-1.3967,0.9033,1.0314,0.9503,-2.1188,2125
17,0.8284,-1.5884,0.8525,1.0291,-0.4486,-2.4842,2143
17,0.2783,-0.8484,0.5928,0.601,-0.3215,-1.0805,2037
17,0.4639,-1.0889,0.344,0.6164,-0.131,-0.1072,2453
17,0.6931,-1.4062,0.2588,0.5372,-0.0567,-0.6592,1715
17,0.5911,-1.1079,0.4043,0.4289,-0.0995,-0.8214,1589
17,0.3638,-0.9219,0.1653,0.2384,-0.917,-0.2658,1841
17,0.0273,-0.9822,0.377,0.2766,-0.3402,-0.5923,2208
17,0.2146,-1.1089,0.0796,0.2478,-0.2485,-0.2515,2078
17,0.2656,-0.9895,0.1311,0.3264,-0.2436,-0.229,2140
17,0.2461,-1.061,0.1284,0.2522,0.0286,-0.3666,1908
17,0.2432,-1.0613,0.137,0.2281,0.1493,-0.3493,2168
17,0.1919,-1.1094,0.1304,0.1962,0.3308,-0.3962,1989
17,0.1765,-1.0935,0.1453,0.1811,0.4067,-0.4224,2022
17,0.1953,-1.0205,0.1362,0.2061,0.4378,-0.3643,1967
17,0.1372,-1.0063,0.0972,0.2603,0.4767,-0.33,2070
17,0.0933,-1.0486,0.0186,0.3288,0.4902,-0.2602,2108
17,0.0601,-1.0217,-0.042,0.3864,0.5618,-0.294,1980
17,0.0571,-0.9438,-0.0442,0.4088,0.5542,-0.2262,1946
17,-0.0461,-0.939,-0.1208,0.4572,0.7934,-0.1641,2063
17,-0.2639,-1.1602,0.1086,0.5011,0.8082,-0.6541,1914
17,0.2649,-0.8479,0.2371,0.6244,0.871,0.2916,2038
17,0.5828,-0.7747,0.1387,0.3574,0.8557,-0.1117,1998
17,0.1294,-1.1143,0.2947,0.2506,0.7947,-0.671,2033
17,0.1467,-1.0398,0.1294,0.35,0.3072,-0.9095,2070
17,-0.0874,-0.8574,0.0994,0.5389,0.4107,-0.3872,1909
17,-0.2141,-0.936,0.0518,0.5718,0.7038,-0.453,1851
17,0.0063,-0.9768,0.0454,0.5726,0.9192,-0.4959,1913
17,0.1174,-0.9375,0.0627,0.5514,0.8724,-0.622,2063
17,0.1462,-0.8208,0.1265,0.6401,0.4253,-0.4689,1935
17,0.0542,-0.9229,0.1729,0.6396,0.2246,-0.7755,2146
17,0.0139,-0.9221,0.1899,0.7264,0.223,-0.8481,1909
17,0.0229,-0.9937,0.199,0.76,0.2734,-0.856,1999
17,0.0322,-0.9419,0.1494,0.8159,0.2486,-0.9174,1879
17,0.0491,-0.9338,0.0684,0.9521,0.1597,-0.8791,1955
17,0.0312,-1.0378,0.0039,0.9855,-0.0027,-0.9264,2223
17,-0.0417,-1.0293,0.0088,1.0816,-0.1262,-1.1572,1881
17,0.0195,-0.97,-0.0176,1.1934,-0.1329,-1.1628,2159
17,0.0129,-1.1924,-0.0413,1.3442,-0.3091,-1.4969,3410
17,-0.1023,-1.334,-0.0354,1.4516,-0.1594,-1.6331,1733
17,-0.1384,-1.447,-0.0295,1.5428,-0.0206,-1.6297,1824
17,-0.0276,-1.2656,0.0022,1.6314,0.1044,-1.6632,1963
17,0.0576,-1.2666,0.0237,1.6882,-0.0902,-1.6877,1847
17,-0.052,-1.1831,0.1182,1.7302,0.0024,-1.8623,1854
17,-0.082,-1.2844,0.0549,1.8739,-0.0273,-1.9675,1980
17,-0.0334,-1.4739,0.0686,2.0101,-0.0936,-2.2201,2211
17,-0.0654,-1.4893,0.0305,2.145,-0.2559,-2.3666,1999
17,-0.1167,-1.6016,-0.0283,2.3001,-0.3326,-2.4995,1969
17,-0.3655,-1.7842,-0.1221,2.333,-0.3934,-2.6884,2054
17,-0.541,-1.8005,-0.0781,2.32,-0.2907,-2.7014,1795
17,-0.5701,-1.8567,-0.1899,2.2695,-0.2096,-2.8706,1917
17,-0.6694,-2.0,-0.0703,2.2767,0.0527,-3.1533,2040
17,-0.1968,-1.8977,0.9319,1.7753,0.2442,-3.0574,1802
17,-0.771,-1.9517,0.1646,2.5135,0.5247,-3.2601,1747
17,-0.1304,-2.0,0.3987,2.2201,1.1156,-2.989,2518
17,-0.0876,-2.0,0.4099,1.9821,1.2323,-3.4786,2265
17,0.6787,-2.0,0.0386,1.1268,1.3946,-2.6085,1064
17,0.4851,-1.7417,-0.4243,1.909,1.0228,-3.12,1993
17,0.1887,-0.5002,-0.6125,2.4108,0.9939,-3.1199,2123
17,0.4905,-0.8137,0.4778,1.2324,0.7918,-2.8679,1418
17,-2.0,-1.0229,-0.8918,4.3634,4.3634,-3.9524,509
17,1.9999,-0.1309,1.9999,4.0781,2.4579,-3.636,2031
17,1.9999,-1.0076,1.822,0.4918,4.3634,0.5561,2308
17,1.1521,-0.9023,0.9993,0.7432,1.6775,-1.6412,2533
17,0.7146,-0.8975,1.0286,-0.4959,-0.8412,-1.3312,2329
17,0.7698,-0.1492,0.1062,-1.758,-0.5099,-0.3273,2071
17,0.4675,0.0132,0.125,-2.3471,-0.1265,0.8178,2331
17,0.2981,-0.0076,0.1445,-2.7452,-0.4141,2.2585,2167
17,0.446,0.0535,0.1484,-2.8918,-1.5785,2.7557,2181
17,0.5042,-0.062,0.0513,-2.6545,-1.5587,2.7799,1919
17,0.0117,-0.4744,0.1064,-2.3586,-1.326,2.1101,1961
17,-0.0874,-0.6868,0.2144,-2.3503,-1.2216,1.9349,2024
17,0.0806,-0.4688,0.3127,-2.5517,-0.7369,2.2736,1946
17,0.2051,-0.365,0.2969,-2.6582,-0.1812,2.2117,1946
17,0.1775,-0.2239,0.2959,-2.6597,0.0811,2.2574,1890
17,0.2292,-0.1919,0.3811,-2.7625,-0.1666,2.8094,1964
17,0.4185,-0.4165,0.4568,-3.0194,-0.7019,2.8457,2011
17,0.5723,-0.6082,0.4629,-3.4812,-1.0828,2.9135,2040
17,0.4763,-0.5811,0.4155,-3.8944,-1.1866,3.2708,2053
17,0.3596,-0.4211,0.3875,-4.1988,-1.3613,3.6862,2027
17,0.3533,-0.4426,0.3799,-4.337,-1.4781,3.9568,2010
17,0.3901,-0.5498,0.3345,-4.3635,-1.6936,4.0994,2003
17,0.4092,-0.5771,0.2981,-4.2281,-2.3264,4.302,2021
17,0.3196,-0.6941,0.2351,-4.3158,-2.1527,4.3634,2211
17,0.2883,-0.7866,0.2234,-4.3366,-1.9783,4.3634,2136
17,0.3418,-0.7627,0.2119,-4.3486,-1.5993,4.3634,2048
17,0.3804,-0.7864,0.2551,-4.3142,-1.119,4.3634,2061
17,0.4426,-0.9226,0.2705,-4.3264,-0.7134,4.3634,2042
17,0.5227,-1.1377,0.311,-4.2928,-0.3141,4.3634,2024
17,0.6272,-1.3994,0.3826,-4.2554,-0.0707,4.3634,2011
17,0.6855,-1.6306,0.5564,-4.3188,0.0272,4.3634,2022
17,0.48,-1.4307,0.2253,-4.2631,-0.8989,4.3634,2071
18,0.1904,-1.2109,0.2932,-3.7535,0.1701,4.3634,2037
18,0.6433,-1.9749,0.5054,-3.5371,1.0014,4.3634,2130
18,0.6702,-1.7888,0.4207,-3.0196,1.9327,3.9375,2169
18,0.6968,-1.4155,0.3643,-2.2217,2.8066,3.454,2050
18,0.5664,-1.0959,0.5076,-1.8089,2.1019,2.5923,2031
18,0.9258,-1.0833,0.4832,-1.8097,1.6647,1.8606,1887
18,1.0776,-1.0085,0.491,-1.4423,1.572,1.0186,1981
18,0.79,-0.6799,0.6626,-0.9902,0.3312,0.0193,1926
18,0.5505,-0.6194,0.7554,-0.3755,-0.4871,-0.7847,1976
18,1.1211,-0.5652,0.9116,-0.0473,-1.4926,-1.2954,1961
18,0.5869,-1.4592,1.0867,-0.1489,-1.2368,-2.3439,1939
18,-0.168,-0.2061,-0.4795,2.0311,-3.6897,-3.0483,1699
18,-1.677,-1.449,0.6946,2.1055,-2.8275,-1.6969,1913
18,0.0884,-1.4138,0.4519,0.8082,-1.6451,-0.6674,2249
18,-1.7039,-2.0,0.4321,1.9508,-4.1776,-3.5372,1514
18,-2.0,-2.0,0.2488,-2.592,-1.7669,-1.8771,1951
18,0.5601,-1.4961,-0.5605,1.0714,0.7522,0.4572,1934
18,-0.5298,-0.6431,0.5647,3.3058,0.4107,-1.7752,1953
18,0.2224,-1.4609,1.2751,3.9638,-0.2402,-2.4806,1853
18,0.0061,-1.8135,0.9207,2.0334,-1.0761,-2.1699,2219
18,-0.1384,-1.3401,0.1121,1.4328,-1.6306,-2.0357,2116
18,1.4517,-2.0,-0.4995,0.6956,-1.3817,-4.3635,2109
18,1.9999,-1.0796,0.4285,1.0477,-1.4917,-3.0036,2030
18,0.946,-0.3262,0.7466,0.6179,-0.8087,-3.2784,2166
18,0.177,-0.0171,0.9587,1.007,0.9282,-1.9692,1852
18,0.1934,-0.6211,0.1416,-0.0301,0.687,-1.1214,1943
18,0.543,-0.8831,-0.2761,1.034,0.8369,-1.3085,1996
18,0.8748,-1.3135,0.2888,1.1926,0.1716,-1.195,2035
18,0.9272,-1.3191,0.5686,1.1686,-0.1738,-0.9228,1943
18,0.8767,-1.1956,0.4458,0.6156,-0.5119,-0.8791,2073
18,0.3687,-0.9629,0.3176,0.5209,-0.4116,-0.8172,2063
18,0.1389,-0.9756,0.3857,0.5468,-0.5449,-0.5624,3003
18,0.3677,-1.1619,0.2256,0.3336,-0.3906,-0.3601,1739
18,0.4717,-1.2324,0.2183,0.2898,-0.3409,-0.4297,1897
18,0.3276,-1.1709,0.2356,0.2831,-0.3409,-0.371,1217
18,0.1128,-1.0322,0.2397,0.2449,-0.2667,0.0679,2240
18,0.2734,-0.9468,0.197,0.2169,-0.1365,-0.0225,2182
18,0.2258,-0.9868,0.1572,0.1802,-0.0894,0.0357,2100
18,0.1697,-1.0645,0.0918,0.171,-0.0529,0.055,2006
18,0.0627,-1.0298,0.0264,0.1701,0.0726,-0.0092,2049
18,-0.0029,-1.0049,-0.0156,0.2031,0.1823,-0.0399,2090
18,0.0435,-0.9558,-0.0237,0.2123,0.2246,0.0792,1992
18,0.0532,-0.9685,-0.0415,0.21,0.2301,-0.0107,1985
18,-0.0398,-1.0017,-0.0696,0.2212,0.2779,-0.1401,2043
18,-0.0574,-0.9749,-0.0688,0.2694,0.3096,-0.212,2032
18,-0.0583,-0.9441,-0.0427,0.3107,0.3305,-0.1369,2065
18,-0.2261,-0.9856,-0.0576,0.2705,0.5781,-0.0639,2047
18,0.3442,-0.9536,0.0596,0.5605,-0.1389,-0.8036,1885
18,0.1069,-0.981,-0.0554,0.4152,0.1344,-0.4745,2128
18,-0.4824,-1.2222,0.1233,0.3107,0.4639,-1.0736,2082
18,-0.1926,-1.0447,0.1318,0.3558,0.7233,-0.9554,1995
18,0.0364,-0.9099,0.1409,0.3136,0.8708,-0.6621,2033
18,0.1091,-0.865,0.1467,0.3964,0.6305,-0.7352,2125
18,0.0571,-0.8267,0.0713,0.4263,0.4342,-0.7022,1988
18,-0.0227,-0.8657,0.127,0.4852,0.432,-0.7082,1883
18,-0.0225,-0.981,0.1409,0.5522,0.4654,-0.7817,1879
18,-0.0015,-1.0137,0.1702,0.5269,0.4508,-0.8608,1998
18,0.073,-1.0244,0.1057,0.5915,0.4703,-0.857,1944
18,0.4648,-0.9883,0.3,0.3405,0.718,-0.6155,1815
18,0.0103,-0.9392,-0.0103,0.6308,0.0902,-1.0296,2204
18,-0.1643,-1.127,-0.0132,0.8308,0.0625,-0.9935,2045
18,-0.2742,-1.0518,-0.0681,0.95,0.174,-1.1561,2123
18,-0.2793,-1.0183,-0.092,1.036,0.38,-1.3392,2073
18,-0.1792,-1.1714,-0.103,1.1109,0.4642,-1.5801,1983
18,0.0449,-1.259,-0.0676,1.1977,0.3622,-1.6711,2077
18,0.1526,-1.1968,-0.1201,1.3158,0.2274,-1.6965,2087
18,0.1614,-1.0947,-0.0554,1.5083,-0.1337,-1.6105,1186
18,0.1011,-1.0156,-0.009,1.4996,-0.0768,-2.0114,2417
18,-0.031,-1.2024,0.0342,1.712,-0.129,-1.8643,2349
18,-0.0618,-1.322,0.1465,1.8342,0.1212,-2.0856,1624
18,0.1501,-1.3242,0.144,1.9045,0.1079,-1.9893,1723
18,0.1853,-1.3057,0.0566,1.9042,0.1332,-2.1097,1772
18,0.1426,-1.365,0.1123,1.9672,-0.0838,-2.1622,1918
18,0.1521,-1.4292,0.0007,2.0307,-0.2529,-2.16,1996
18,-0.1465,-1.4407,0.0603,2.127,-0.2346,-2.4637,2041
18,-0.2856,-1.4189,-0.0088,2.198,-0.0931,-2.4948,2080
18,-0.3147,-1.5774,-0.1042,2.2089,0.0131,-2.6159,2032
18,-0.4746,-1.8196,-0.0405,2.1479,0.1384,-2.7247,1982
18,-0.4661,-1.9155,-0.1663,2.0963,0.288,-2.8092,1962
18,-0.2131,-1.7556,0.5095,1.54,0.2577,-2.7006,1932
18,-0.7703,-2.0,0.2688,2.2746,0.9545,-3.1665,1896
18,-0.123,-1.8821,0.1565,1.9217,1.4949,-2.6068,2200
18,-0.1443,-2.0,0.4119,1.869,1.7483,-3.0554,2243
18,0.1375,-2.0,0.3054,1.3571,2.023,-3.0849,1615
18,0.248,-1.6968,-0.0981,1.788,1.5957,-3.1487,1678
18,0.5537,-1.4458,-0.3638,1.5283,1.454,-2.3574,1724
18,-0.0181,-0.3257,-0.4741,2.6697,1.5703,-3.5696,2077
18,0.3699,-0.8689,0.3772,1.0836,1.3848,-2.8432,1705
18,-2.0,-1.72,-0.7441,4.3634,4.3634,-4.2395,1234
18,1.9999,-0.5181,1.7747,3.0071,2.3373,-3.432,2149
18,1.9473,-1.0444,1.1675,0.5161,4.3634,0.0213,2289
18,1.0491,-0.8586,0.7954,1.1034,1.7848,-1.6013,2423
18,0.771,-0.8708,0.9917,-0.4923,-0.6801,-0.8865,2269
18,0.6238,-0.3547,0.2358,-1.8378,-1.1082,0.0863,2319
18,0.4512,-0.3025,0.0518,-2.7868,-0.9766,1.3798,2048
18,0.457,-0.0278,0.0908,-2.6695,-1.8126,2.4461,2002
18,0.6138,0.0903,-0.0034,-2.544,-2.1758,3.3619,1997
18,0.3098,-0.2942,0.1411,-2.2931,-2.5962,3.0094,1996
18,0.0508,-0.6426,0.1331,-2.1012,-2.1804,2.5416,2131
18,-0.1003,-0.6951,0.238,-2.1023,-1.9859,2.6911,2561
18,0.001,-0.5002,0.2449,-2.1439,-1.2945,2.9906,1833
19,0.0222,-0.3811,0.1587,-2.0571,-0.2923,2.8636,1859
19,0.0625,-0.2449,0.2322,-1.9261,0.3312,3.0196,1880
19,0.3289,-0.3601,0.4075,-1.7831,-0.3673,3.6179,1297
19,0.627,-0.5979,0.6316,-2.1735,-1.3418,3.6688,2282
19,0.7004,-0.6394,0.5574,-3.0505,-1.4403,3.9436,2128
19,0.4207,-0.4624,0.427,-3.1977,-1.7418,4.2572,2099
19,0.2327,-0.5049,0.3496,-3.2272,-1.9832,4.3541,2020
19,0.3455,-0.7444,0.1924,-3.6133,-1.9909,4.3634,2085
19,0.4536,-0.7314,0.2244,-3.3668,-2.3836,4.3634,2355
19,0.4097,-0.7776,0.2173,-3.4282,-2.4549,4.3634,1891
19,0.3337,-0.7039,0.2031,-3.5596,-2.2206,4.3634,2005
19,0.2944,-0.731,0.1907,-3.5933,-1.9381,4.3634,2012
19,0.323,-0.8416,0.1863,-3.5272,-1.5281,4.3634,2063
19,0.3374,-1.0298,0.2129,-3.5444,-1.0609,4.3634,2054
19,0.3423,-1.2126,0.2639,-3.6378,-0.5233,4.3634,2067
19,0.4612,-1.3406,0.3647,-3.7223,-0.1372,4.3634,1396
19,0.5493,-1.5237,0.4741,-3.9709,-0.1269,4.3634,2260
19,0.7297,-1.645,0.5574,-4.3474,0.0107,4.3634,2129
19,0.6958,-1.3792,0.176,-4.3635,-1.0508,4.3634,2186
19,0.1746,-1.1306,0.0901,-3.8515,0.4538,4.3634,2067
19,0.323,-1.6306,0.2556,-2.9212,0.6094,4.1255,2083
19,0.969,-1.5684,0.4619,-2.683,1.5041,3.5223,2135
19,1.0183,-1.0769,0.3567,-1.8893,2.4533,2.6253,1973
19,1.0327,-0.8591,0.333,-1.3097,2.586,1.9136,1923
19,0.9294,-0.7708,0.2185,-0.9618,2.8801,1.0837,1918
19,1.0903,-0.6909,0.405,-0.6363,2.6394,0.1325,1997
19,0.9575,-0.7227,0.7898,-0.3157,1.8706,-0.6757,2023
19,0.3403,-0.6353,0.2944,0.2187,2.5217,-2.1792,2057
19,0.7327,-0.3762,1.1279,1.92,2.2208,-2.1378,1878
19,0.0618,-0.7041,1.9999,3.2259,4.3634,-2.9253,1296
19,1.9999,-0.978,1.1658,1.0135,-4.3635,-2.1491,2353
19,-2.0,-2.0,0.1475,-3.4359,-4.3635,1.9042,2120
19,-2.0,-2.0,-1.8743,-0.0842,-2.1824,-0.8172,1961
19,-2.0,-1.4961,0.5112,4.0753,1.6856,0.1593,1948
19,0.5242,-0.7639,-0.0105,4.3507,2.7059,-3.7223,2019
19,1.7383,-1.6318,1.3704,2.73,0.139,-3.9855,1957
19,1.6526,-2.0,0.2573,-0.2768,-1.4648,-4.1781,2221
19,1.9999,-1.1777,0.2539,0.593,-4.2797,-3.059,2258
19,1.0005,-0.719,0.0801,0.1675,-2.7221,-4.3066,1813
19,-0.6555,0.1418,0.2664,1.5328,1.7155,-3.4962,1801
19,0.3987,0.2129,0.03,1.3366,3.5537,-0.9286,2130
19,-0.1599,-0.002,0.4385,1.7612,2.4401,-1.1519,2104
19,1.1558,-1.4077,1.3088,1.4219,1.4553,-0.9155,1969
19,1.9999,-2.0,1.0466,0.6622,-1.0678,-1.3392,2217
19,0.9238,-1.5354,0.0825,0.8031,-1.5062,-1.2667,2127
19,-0.0691,-0.8362,0.4893,0.9271,-1.2533,-0.9299,1858
19,0.5459,-0.5745,0.3938,0.7911,-1.0132,-0.4117,1927
19,0.3999,-0.8965,0.3384,0.4739,-0.877,-0.2706,2164
19,0.2671,-1.3115,0.2751,0.4164,-0.8636,-0.3314,2061
19,0.2097,-1.3013,0.2522,0.4454,-0.679,-0.1756,2144
19,0.1477,-0.9844,0.2126,0.4349,-0.1284,0.0433,1919
19,0.2065,-0.9893,0.2251,0.3621,0.1233,0.1079,1953
19,0.29,-0.9954,0.178,0.348,0.2099,0.2068,1939
19,0.0964,-1.0911,0.1594,0.3171,0.2878,0.073,1997
19,0.0493,-1.1277,0.1018,0.2907,0.4719,-0.1613,1891
19,0.0842,-1.0923,0.0994,0.2514,0.5624,-0.2233,2021
19,0.1301,-0.9839,0.0867,0.2654,0.4698,-0.0193,2012
19,0.1448,-0.9885,0.0737,0.2946,0.2697,0.1378,2057
19,0.0264,-0.9832,0.0542,0.3345,0.1113,0.0234,2022
19,-0.0974,-0.9536,0.0349,0.3907,0.0923,-0.2188,1992
19,-0.1511,-0.9089,-0.01,0.4492,0.2237,-0.3532,2076
19,-0.1392,-0.9177,0.0022,0.5165,0.3518,-0.3938,1986
19,-0.3381,-1.0674,0.0178,0.151,1.495,-0.2477,2050
19,-0.0203,-0.866,0.0876,0.8704,0.0617,-0.1926,1931
19,0.8679,-0.9797,0.0276,0.6149,0.3474,-1.0046,2088
19,-0.4102,-1.1377,0.0891,0.6263,0.0953,-1.1203,2032
19,-0.6016,-0.988,0.1042,0.5859,0.4579,-1.1457,2127
19,-0.0083,-0.9443,-0.0442,0.6261,0.7573,-0.3799,1999
19,0.1121,-0.9897,0.1289,0.6505,0.5426,-0.5348,1941
19,0.1477,-0.855,0.1931,0.5915,0.4518,-0.6612,2070
19,0.0981,-0.7441,0.2185,0.6988,0.2304,-0.658,2044
19,-0.0576,-1.0071,0.2341,0.8018,0.1627,-0.8296,2007
19,-0.1531,-1.0105,0.1931,0.8451,0.387,-1.0083,2012
19,0.0508,-1.0325,0.1565,0.8401,0.4899,-0.9749,2035
19,0.1909,-1.0244,0.1636,0.9147,0.296,-0.9114,1861
19,0.0979,-1.0237,0.1318,0.9874,0.0535,-0.9052,2012
19,-0.0332,-0.9792,0.1323,1.0242,-0.0858,-1.0128,1395
19,-0.0906,-1.0764,0.0935,1.0587,-0.1712,-1.303,2026
19,-0.0081,-1.0808,0.0354,1.2392,-0.445,-1.389,2219
19,-0.0364,-1.1907,-0.03,1.3407,-0.5477,-1.6515,2132
19,-0.0469,-1.2256,-0.051,1.4601,-0.5508,-1.9426,2205
19,-0.1335,-1.3342,-0.1018,1.6315,-0.4429,-2.1036,2160
19,-0.2634,-1.5024,0.0127,1.7515,-0.2029,-1.7897,2478
19,-0.1047,-1.4692,-0.0212,1.806,-0.0904,-1.8833,1514
19,-0.0503,-1.3118,0.1089,1.8065,-0.22,-1.8764,1541
19,0.0781,-1.1833,0.1887,1.9243,-0.245,-1.9543,1923
19,0.011,-1.2839,0.127,2.1318,-0.2123,-2.3284,1990
19,-0.0601,-1.575,0.0408,2.257,-0.3009,-2.3696,2055
19,-0.1895,-1.7034,0.0017,2.285,-0.4844,-2.5641,2138
19,-0.5232,-1.761,-0.1406,2.2636,-0.4039,-2.7105,2099
19,-0.6841,-1.7549,0.1033,2.0438,-0.1706,-2.6406,1793
19,-0.5513,-1.8049,0.0103,2.1485,0.1004,-2.6018,2186
19,-0.5908,-1.9331,0.0127,2.122,0.2617,-3.004,2251
19,-0.6355,-1.9958,0.3291,2.2891,0.766,-3.0962,2381
19,-0.1099,-1.8953,0.2734,2.2189,1.0007,-2.6723,2101
19,0.0669,-2.0,0.3655,1.9482,1.044,-3.3235,2261
19,0.2888,-2.0,-0.0332,1.8117,0.7855,-3.4479,1673
19,0.5645,-1.8958,-0.2356,1.7393,0.5988,-2.8863,1467
19,0.6511,-1.6599,-0.488,1.5829,0.7461,-2.4159,1871
19,0.4363,-0.2061,-0.2256,2.8687,1.1841,-3.9769,1948
19,-0.6575,-0.8572,-0.1094,1.7946,2.7778,-3.3437,933
19,-1.2566,-0.3394,0.8608,3.5141,4.3634,-4.3635,1900
19,1.9999,-0.8333,1.4573,1.6315,4.3606,-0.9164,2118
20,1.4744,-0.3069,0.5664,0.2113,4.3634,-0.3895,2090
20,1.2302,-1.0063,0.8196,1.0608,0.2774,-1.6245,2305
20,0.4539,-1.052,0.7871,-0.7432,-0.9351,-0.9738,2251
20,0.762,-0.2844,0.0857,-2.2144,-0.4787,0.1589,2173
20,0.0732,-0.1458,0.123,-2.758,-0.2059,1.6894,1978
20,0.095,-0.0256,0.1362,-2.6922,-1.0203,2.5334,2151
20,0.2668,-0.0825,0.0984,-2.7329,-1.1677,2.9409,1969
20,0.0322,-0.5825,0.156,-2.5702,-1.1188,2.1774,2014
20,-0.1394,-0.7322,0.2432,-2.5164,-0.8783,1.9116,2028
20,-0.0608,-0.6653,0.3386,-2.688,-0.95,2.2209,2018
20,0.2236,-0.4338,0.3574,-2.8004,-0.4256,2.5012,1945
20,0.2715,-0.3748,0.3286,-2.8163,0.3445,2.6337,1982
20,0.1318,-0.3645,0.3645,-2.7872,0.4024,2.2832,1934
20,0.1699,-0.4888,0.5115,-2.9319,-0.1483,2.7566,2034
20,0.3621,-0.7019,0.6011,-3.4713,-0.7267,3.0268,2065
20,0.5081,-0.5557,0.5044,-4.1865,-0.8809,3.2909,2057
20,0.3357,-0.436,0.3616,-4.3635,-0.879,3.5788,1997
20,0.231,-0.4963,0.3596,-4.3635,-0.8899,3.7687,2000
20,0.2981,-0.6653,0.4238,-4.3588,-1.0168,3.8522,2016
20,0.3723,-0.7139,0.4302,-4.3635,-1.1557,3.9291,1918
20,0.3655,-0.5618,0.4062,-4.3635,-1.5672,4.2881,1938
20,0.2913,-0.5686,0.4268,-4.3635,-1.5206,4.3634,2179
20,0.3342,-0.7021,0.3445,-4.3635,-1.1179,4.3634,2064
20,0.4062,-0.9358,0.3877,-4.3558,-1.0022,4.3634,2054
20,0.5059,-1.1196,0.4778,-4.2663,-0.9969,4.3634,1972
20,0.54,-1.2207,0.5176,-4.2596,-1.162,4.3634,2055
20,0.4895,-1.1558,0.5999,-4.2036,-1.2258,4.3634,2030
20,0.5527,-1.0698,0.5723,-4.0025,-1.1961,4.3634,2044
20,0.6882,-1.1487,0.6501,-3.6085,-1.1577,4.3634,1933
20,0.7732,-1.9946,0.7542,-3.8243,-1.0979,4.1735,2096
20,0.175,-1.8069,0.45,-2.2281,-0.7492,4.3634,2137
20,0.6404,-1.3628,1.2727,-0.1679,-2.7604,4.3634,2109
20,1.5789,-1.4885,1.104,-2.5325,-1.527,2.3081,2229
20,0.6494,-0.3625,0.2876,-0.7283,-1.3616,1.9591,1874
20,0.9526,-1.4788,0.4768,-0.6565,-0.4316,0.7071,1988
20,1.1685,-1.0132,0.7449,0.0362,-2.0726,-0.6058,2117
20,0.6013,-1.1382,0.9866,0.7592,-1.6012,-1.184,1952
20,0.4348,-0.9927,1.5386,0.5754,-1.5351,-2.587,1852
20,-0.2468,-0.5151,1.5032,1.0054,-0.1293,-2.1012,2022
20,-1.1016,-1.5886,0.9822,-0.2662,-4.3635,-0.7793,1894
20,-2.0,-1.4768,-0.5098,-0.0366,-4.3635,-1.0053,2292
20,-2.0,-2.0,-0.4436,2.2756,1.2275,-1.3857,2147
20,-1.468,-0.7446,0.7546,4.3634,2.322,-2.4529,2007
20,0.7271,-0.6946,1.3945,3.0806,1.5201,-4.0044,1932
20,1.9999,-2.0,0.0469,0.7791,-0.8469,-4.3635,2101
20,1.9999,-2.0,1.4087,-0.3268,-4.3635,-3.3991,2074
20,-0.3665,-0.5439,-0.1455,-0.6452,-3.5821,-3.2563,2065
20,-1.0869,0.501,-1.1785,1.5053,-0.5478,-4.3635,1586
20,-0.0505,0.5593,-0.5295,1.9552,0.8592,-2.0616,1899
20,0.8809,-0.0352,0.8792,0.3747,2.2213,-0.9095,2713
20,1.385,-1.3574,0.7595,1.0826,1.6226,-1.9828,2127
20,1.1091,-1.7065,0.564,0.8404,0.3236,-2.4982,1993
20,0.9624,-1.0696,0.0732,0.5689,0.0933,-1.1788,2139
20,0.5884,-0.6904,0.032,0.8797,0.3653,-0.7835,1907
20,1.0891,-1.1619,0.5808,0.7915,-0.869,-0.573,1887
20,0.3906,-1.1169,0.3667,0.5854,-0.6304,-0.1181,2026
20,0.4165,-1.1292,0.4426,0.4223,-0.643,-0.0658,2164
20,0.1021,-1.0935,0.2402,0.5111,-0.6914,-0.194,2077
20,0.1021,-1.0481,0.2891,0.4697,-0.4247,-0.2434,2022
20,0.158,-1.0042,0.3201,0.4747,-0.2159,-0.2774,2081
20,0.1987,-0.9844,0.3369,0.4404,-0.1177,-0.2037,1992
20,0.0491,-1.1072,0.3176,0.3554,0.2629,-0.2934,1767
20,0.1226,-1.1106,0.2842,0.3204,0.4826,-0.3804,2123
20,0.1467,-1.0979,0.2349,0.2958,0.6344,-0.3979,2128
20,0.1545,-1.0754,0.1824,0.2734,0.6678,-0.3631,2019
20,0.2075,-0.9924,0.1536,0.2601,0.6227,-0.31,1873
20,0.1956,-0.9509,0.1177,0.286,0.4577,-0.2272,2097
20,0.0979,-0.9546,0.0742,0.3151,0.428,-0.171,2072
20,0.019,-0.9951,0.0994,0.345,0.4655,-0.2238,2035
20,0.0383,-0.9771,0.0784,0.3723,0.5315,-0.295,2098
20,0.0076,-0.948,0.0784,0.3916,0.6375,-0.3259,2003
20,-0.0151,-0.9915,0.1111,0.4185,0.8048,-0.3884,1986
20,-0.02,-1.0642,0.1611,0.4504,0.9556,-0.5446,2011
20,0.1257,-1.0801,0.2261,0.4557,0.8779,-0.5661,2020
20,0.1584,-1.0303,0.2903,0.498,0.6268,-0.4978,1952
20,0.0503,-0.9839,0.2239,0.534,0.4844,-0.5837,2023
20,0.041,-0.9258,0.1685,0.5351,0.329,-0.5902,1978
20,-0.0654,-0.874,0.1228,0.5593,0.2794,-0.4815,1757
20,-0.0256,-0.8447,0.175,0.5645,0.2533,-0.6096,2115
20,0.072,-0.811,0.175,0.5898,0.2133,-0.7116,2041
20,0.0764,-0.9202,0.2471,0.6494,-0.0049,-0.7742,2133
20,0.0193,-0.8582,0.2627,0.7111,0.0129,-0.8127,1936
20,0.0256,-0.8689,0.1987,0.7899,0.0507,-0.8055,2157
20,0.0312,-1.0188,0.1545,0.838,-0.0996,-0.8524,2161
20,-0.166,-0.9612,0.0789,0.9376,-0.0933,-1.1109,2023
20,-0.1282,-1.0325,0.0427,1.0479,-0.0449,-1.2563,2234
20,-0.1233,-1.217,-0.0039,1.1661,-0.0531,-1.4771,2019
20,-0.1099,-1.3005,-0.0774,1.3162,0.0292,-1.7363,2110
20,-0.1653,-1.439,-0.1023,1.4909,0.0149,-1.8672,2003
20,-0.1995,-1.4934,-0.0549,1.59,0.0325,-1.8377,2282
20,-0.2141,-1.3384,-0.0249,1.7618,0.0672,-1.8448,1734
20,-0.1621,-1.3672,0.0413,1.8628,-0.0449,-1.8463,1683
20,-0.2146,-1.3684,0.1272,1.9647,-0.1629,-2.0845,1832
20,-0.283,-1.3606,0.1685,2.0688,-0.2085,-2.3131,1872
20,-0.2214,-1.4712,0.1106,2.2318,-0.2052,-2.4502,2033
20,-0.2012,-1.7532,0.0142,2.3321,-0.388,-2.6591,2031
20,-0.6697,-1.9473,0.241,2.1668,-0.4117,-2.9654,1735
20,-0.1726,-2.0,-0.2175,2.3314,-0.6537,-2.4389,2339
20,-0.6609,-2.0,-0.1763,2.1831,-0.3484,-2.8465,2291
20,-1.1064,-2.0,0.054,2.074,0.4502,-3.4182,2078
20,-0.6575,-1.8201,0.2036,2.1921,1.0302,-3.3395,2218
20,-0.166,-1.9875,0.3213,2.2011,1.2461,-3.4564,2305
21,0.167,-2.0,0.2483,2.0592,0.9933,-3.3701,2551
21,0.4431,-2.0,-0.0337,1.7768,1.0742,-3.5657,1854
21,0.2561,-1.9758,-0.7734,1.8515,1.3179,-3.4868,1851
21,0.0496,-0.9656,-0.6125,1.5785,1.4788,-3.528,2027
21,0.9812,-0.7246,0.5503,1.8443,1.4528,-3.7227,1642
21,-2.0,-0.7258,0.0674,3.9535,4.3634,-2.3799,1347
21,1.9999,-0.1624,1.2805,2.9994,4.3634,-4.328,2113
21,1.9999,-1.1008,1.9999,0.8279,3.2271,-0.2872,1615
21,1.9238,-0.4312,0.6248,0.7529,2.8128,-1.1375,2583
21,0.5576,-1.2119,1.2092,0.4452,-1.8164,-1.9916,2352
21,0.7168,-0.47,0.3396,-1.6811,-1.9915,-1.2536,2403
21,0.4768,-0.0354,0.0684,-2.4911,-0.2137,0.6361,2069
21,0.011,0.2812,0.1611,-2.9554,-0.6717,2.2272,1983
21,0.4363,0.2771,0.1104,-3.055,-1.682,2.9136,2134
21,0.408,-0.0967,0.1077,-2.9922,-2.0401,2.9233,2008
21,0.0339,-0.6189,0.0605,-2.6481,-1.9379,1.9133,1958
21,-0.1338,-0.8171,0.2034,-2.5827,-1.5949,1.6864,2000
21,-0.0308,-0.6162,0.4387,-2.8191,-1.7085,1.7908,2005
21,0.2073,-0.281,0.2878,-2.9658,-0.7307,2.379,1931
21,0.156,-0.2292,0.3093,-2.9753,-0.1914,2.5055,1985
21,0.1504,-0.1306,0.3735,-3.0794,-0.3377,2.5987,1927
21,0.3433,-0.3726,0.4333,-3.0861,-0.8191,2.7328,2021
21,0.479,-0.6638,0.4417,-3.2613,-1.1664,2.8169,2012
21,0.4138,-0.6069,0.5359,-3.8118,-1.1665,3.1601,2061
21,0.3198,-0.4116,0.4702,-4.323,-1.0889,3.7522,2037
21,0.2458,-0.3872,0.448,-4.3635,-1.0212,4.1144,2001
21,0.2175,-0.5645,0.4785,-4.3635,-1.0127,4.2152,2041
21,0.2754,-0.6924,0.4761,-4.3635,-1.2342,4.1803,2036
21,0.3364,-0.7878,0.3335,-4.3635,-1.5799,4.184,2060
21,0.3042,-0.7856,0.2971,-4.3635,-1.5853,4.2732,2040
21,0.282,-0.6992,0.3457,-4.3635,-1.3532,4.3634,2025
21,0.3574,-0.7632,0.3584,-4.3635,-1.0978,4.3634,1920
21,0.2522,-0.9622,0.4968,-4.3635,-1.2204,4.3634,1983
21,0.6521,-1.281,0.3721,-4.3635,-0.9396,4.3634,2223
21,0.5703,-1.3735,0.4849,-4.3635,-0.9171,4.3634,2099
21,0.436,-1.4993,0.4292,-4.3635,-1.0206,4.3634,2072
21,0.3835,-1.4302,0.4609,-4.2244,-0.7233,4.3634,2087
21,0.301,-1.4636,0.4949,-3.7792,-0.2011,4.3634,2029
21,0.2581,-1.6521,0.5105,-2.8079,0.2345,4.3634,2100
21,0.666,-1.8337,0.5889,-2.4582,0.7253,4.048,2104
21,0.5994,-1.4597,0.4436,-1.9168,1.2853,3.427,2117
21,0.7415,-1.1538,0.5991,-1.6199,1.0802,2.7785,2002
21,0.9331,-1.0183,0.4817,-1.8989,0.9485,1.9295,2039
21,0.813,-0.866,0.4155,-1.5751,0.834,0.9047,2064
21,0.6052,-0.6406,0.5652,-0.9339,0.0097,-0.2019,1998
21,0.6858,-0.6035,0.5623,-0.2228,-0.3225,-0.9729,1944
21,1.4746,-0.5437,1.0059,-0.8657,-0.6565,-1.007,2032
21,0.3013,-0.3953,-0.3271,0.9192,-1.2418,-2.5155,2440
21,-0.4304,-0.5686,0.3711,3.6282,-2.5919,-2.379,1724
21,-0.728,-1.373,1.6433,2.1663,-0.9231,-1.3298,1914
21,-0.9292,-2.0,0.6113,3.1203,-4.3635,-2.4555,2501
21,-2.0,-1.0989,1.29,-1.7383,-2.1402,-0.4946,2197
21,0.1411,-1.1345,-1.1289,0.2819,0.3545,1.0251,1907
21,-0.4509,-0.5513,0.613,2.7265,-1.395,-0.4116,1778
21,-0.0657,-2.0,0.5674,1.6811,0.0711,-2.0931,2148
21,-0.3577,-1.8462,0.6082,2.1682,-1.3356,-2.2346,2225
21,-0.1843,-1.863,0.0188,0.8815,-1.0974,-2.3863,2060
21,0.0955,-1.9587,-0.365,0.8,-1.0789,-3.2331,2189
21,1.9999,-1.918,-0.3333,1.2146,-2.9521,-4.0929,2095
21,1.0396,0.1946,0.1819,0.5586,-1.4276,-2.7145,1958
21,0.0703,-0.6306,0.0386,1.8704,-1.0445,-3.4997,1807
21,-0.0696,-0.5833,0.5618,1.6259,1.4715,-1.9049,2059
21,-0.6108,-0.1379,0.2881,0.5622,1.8092,-1.339,2123
21,0.6184,-0.6123,0.6782,1.4093,1.5548,-1.0037,2077
21,1.0955,-1.2002,0.5422,1.5263,1.0335,-1.1615,1976
21,0.9214,-1.4451,0.8394,0.6889,-0.6161,-1.2712,2110
21,0.8567,-1.4185,0.4443,0.5911,-0.9812,-0.9457,2071
21,0.2639,-1.1111,0.3181,0.5441,-0.7271,-0.783,1918
21,0.3098,-0.9089,0.387,0.4056,-0.6897,-0.577,1969
21,0.2722,-0.9919,0.2742,0.2354,-0.6979,-0.4128,2071
21,0.2512,-1.1541,0.2246,0.2482,-0.5133,-0.2567,1973
21,0.1716,-1.1199,0.2205,0.2276,-0.2653,-0.1663,2026
21,0.196,-0.9509,0.186,0.2277,-0.0011,0.0091,1989
21,0.231,-0.9741,0.1465,0.2352,0.1549,0.1084,1983
21,0.1951,-0.9905,0.1152,0.2619,0.2578,0.1943,1980
21,0.1101,-1.0085,0.0901,0.3157,0.3344,0.2752,1994
21,0.0886,-1.009,0.0691,0.3449,0.363,0.3064,1989
21,0.1143,-0.9888,0.0505,0.3566,0.333,0.342,1987
21,0.0713,-0.9937,0.0447,0.3217,0.2184,0.3333,1985
21,-0.0334,-1.0203,0.0532,0.3116,0.0984,0.1662,1995
21,-0.1011,-1.0159,0.0574,0.2864,-0.0024,0.0561,1993
21,-0.1274,-0.9597,0.0425,0.3017,-0.0272,-0.0096,2018
21,-0.1343,-0.9336,0.0142,0.333,-0.0076,-0.0269,2049
21,-0.2046,-0.9666,-0.0129,0.35,0.1607,-0.1044,2035
21,-0.1665,-1.0496,-0.0105,0.4197,0.1848,-0.4095,2067
21,-0.0598,-0.9177,-0.033,0.4635,0.3084,-0.4653,1992
21,-0.1785,-0.9834,0.0408,0.5486,0.2051,-0.5381,1998
21,-0.1597,-1.0388,0.0884,0.5698,0.142,-0.7401,2031
21,-0.115,-0.9431,0.0613,0.6414,-0.0831,-0.9578,2070
21,-0.1191,-0.9929,0.0945,0.6197,-0.1115,-1.2228,1843
21,-0.2356,-0.9893,0.052,0.5927,-0.0068,-1.3282,2105
21,-0.2539,-0.9209,0.0242,0.5932,0.1376,-1.3857,2097
21,-0.1218,-0.9177,0.0264,0.6469,0.4123,-1.1957,2028
21,0.0225,-0.9739,0.0889,0.7408,0.3627,-1.0654,1938
21,0.3203,-0.9111,-0.0708,0.9236,-0.0565,-0.5324,2225
21,-0.0967,-0.981,0.0547,0.9531,-0.2113,-0.8365,1895
21,-0.2385,-1.0552,0.0481,0.9926,0.1764,-1.0034,1985
21,-0.3857,-0.9028,0.0085,1.1045,0.5609,-1.1805,2058
21,-0.3577,-1.1331,-0.02,1.2045,0.8923,-1.3994,1996
21,-0.1628,-1.1997,-0.063,1.3635,1.0079,-1.654,1941
21,0.1091,-1.1587,-0.0215,1.3806,0.8585,-1.8928,1860
21,0.2268,-0.9976,0.0767,1.552,0.3219,-2.2648,2184
21,0.2463,-0.9463,0.0425,1.5913,-0.1139,-2.3338,2289
