Timestamp,Ax,Ay,Az,Rx,Ry,Rz,EMG
0,-0.0259,-0.9631,-0.1558,0.5928,1.7658,-1.6174,2058
0,-0.0454,-1.022,-0.1367,0.5791,1.8706,-1.7443,2035
0,0.0918,-1.1194,-0.1082,0.5006,1.5685,-1.7685,2052
0,0.2009,-1.1772,-0.0405,0.4721,0.9915,-1.867,2044
0,0.1602,-1.2163,-0.0156,0.45,0.5862,-1.8287,2032
0,-0.0291,-1.2637,-0.0706,0.4426,0.4839,-1.7853,2064
0,-0.1497,-1.3518,-0.1274,0.4163,0.4852,-1.7014,2032
0,-0.2004,-1.3625,-0.1172,0.4767,0.6857,-1.7966,2035
0,-0.2527,-1.3682,-0.1389,0.4888,0.9323,-1.8309,2003
0,-0.3054,-1.4087,-0.0422,0.4649,1.1905,-1.7965,2027
0,-0.4297,-1.2642,-0.0913,0.5319,1.5624,-1.807,2065
0,-0.2354,-1.2566,-0.1443,0.556,1.5974,-1.8482,2035
0,-0.0146,-1.4739,-0.0732,0.4429,1.6339,-1.7321,2037
0,0.0034,-1.4111,-0.0801,0.4265,1.3969,-1.6558,2044
0,0.0488,-1.3782,-0.0796,0.4707,1.2332,-1.592,1998
0,0.0073,-1.3564,-0.0361,0.4846,1.2134,-1.5376,2045
0,-0.0112,-1.3044,0.0664,0.4948,1.1528,-1.5,2026
0,0.1248,-1.3289,0.0193,0.5245,1.119,-1.4588,2043
0,-0.0569,-1.2158,-0.0261,0.573,1.0485,-1.3889,2052
0,-0.0835,-1.2542,-0.0872,0.5155,0.9662,-1.2822,2055
0,-0.0061,-1.3345,-0.1868,0.5493,0.9002,-1.1784,2034
0,-0.0667,-1.4473,-0.2119,0.6416,0.8977,-1.0741,1963
0,-0.0361,-1.4548,-0.1768,0.734,1.0037,-1.017,2156
0,0.0693,-1.5061,-0.0342,0.7545,0.5806,-0.9926,2027
0,0.1228,-1.4412,-0.0295,0.7545,0.4574,-0.8602,1992
0,0.0232,-1.4111,-0.04,0.5661,0.129,-0.7116,2138
0,0.0762,-1.4097,-0.0415,0.3168,-0.2635,-0.5452,2068
0,0.0151,-1.4077,-0.1726,0.017,-0.8993,-0.3406,2145
0,-0.2261,-1.3062,-0.2947,-0.0631,-1.241,-0.1563,2097
0,-0.4724,-1.2429,-0.3997,-0.1522,-1.4276,0.0493,2059
0,-0.5603,-1.1641,-0.4934,-0.1424,-1.2975,0.186,2062
0,-0.6841,-1.1382,-0.3552,-0.1236,-1.0216,0.3634,2238
0,-0.8325,-1.115,-0.4019,-0.1053,-0.5498,0.4946,1990
0,-0.7539,-1.1221,-0.2424,-0.0859,-0.1947,0.666,2007
0,-0.6948,-1.1431,-0.2539,-0.0824,0.2115,0.7835,2072
0,-0.5142,-1.1558,-0.1733,-0.0065,0.5714,0.8541,2059
0,-0.2378,-1.1746,-0.1382,0.0377,0.8432,0.9092,2154
0,-0.0378,-1.178,-0.1138,0.0411,0.9926,0.9516,2022
0,0.0632,-1.2014,-0.0352,0.0655,0.911,0.9958,2024
0,0.1479,-1.2458,0.0422,0.1087,0.7693,1.0393,2084
0,0.1597,-1.2625,0.0635,0.1685,0.8122,0.9883,2038
0,0.1807,-1.2424,0.1321,0.2346,0.8364,0.8953,2003
0,0.3059,-1.2087,0.1338,0.2196,0.8064,0.8056,2049
0,0.4324,-1.2253,0.1182,0.2286,0.7337,0.7248,2090
0,0.5605,-1.2791,0.125,0.2714,0.585,0.6546,2026
0,0.4961,-1.2781,0.1482,0.3489,0.4356,0.5873,2068
0,0.3887,-1.2466,0.1848,0.4992,0.3653,0.4912,2015
0,0.2371,-1.2317,0.2107,0.6474,0.6325,0.3285,1960
0,0.1726,-1.251,0.2798,0.6843,0.856,0.1956,2097
0,0.2534,-1.2673,0.3677,0.6598,0.9078,0.0715,2044
0,0.2292,-1.2937,0.3247,0.5036,0.8146,-0.0208,2130
0,0.2817,-1.3674,0.2605,0.333,0.6399,0.0103,2073
0,0.3738,-1.3298,0.2903,0.0309,0.3501,0.0639,2098
0,0.3525,-1.3411,0.2839,-0.2473,-0.0712,0.0799,1974
0,0.1851,-1.3137,0.1619,-0.5084,-0.4215,0.1021,2015
0,-0.1084,-1.2673,0.0396,-0.6241,-0.4446,0.012,2053
0,-0.2742,-1.2058,-0.1021,-0.6739,-0.2903,0.0209,1998
0,-0.2527,-1.1968,-0.3184,-0.6674,0.0039,0.0224,2096
0,-0.1572,-1.1394,-0.4365,-0.6213,-0.0276,0.0876,1992
0,-0.1956,-1.1294,-0.4849,-0.6008,-0.1939,0.102,2152
0,-0.323,-1.0859,-0.4775,-0.551,-0.1742,0.1931,1963
0,-0.3535,-1.1655,-0.4092,-0.6111,-0.2365,0.2858,2047
0,-0.4475,-1.1553,-0.3752,-0.658,-0.2288,0.3976,2054
0,-0.4177,-1.1465,-0.3542,-0.6556,-0.2354,0.4791,1966
0,-0.3379,-1.1279,-0.3728,-0.696,-0.2713,0.5115,2112
0,-0.2622,-1.1111,-0.3625,-0.7012,-0.4536,0.5448,2030
0,-0.3025,-1.0842,-0.3821,-0.6823,-0.5926,0.5215,2111
0,-0.2598,-1.1177,-0.3359,-0.7119,-0.8083,0.5778,2183
0,-0.2322,-1.1423,-0.2881,-0.6975,-0.8867,0.5414,2067
0,-0.2766,-1.1831,-0.2554,-0.7641,-0.8814,0.5568,2138
0,-0.3071,-1.2,-0.3921,-0.746,-0.6324,0.6176,2100
0,-0.3394,-1.23,-0.4905,-0.74,-0.436,0.7062,2002
0,-0.2268,-1.2156,-0.4187,-0.7522,-0.3409,0.7586,2032
0,-0.1238,-1.137,-0.3586,-0.8107,-0.3128,0.7136,2062
0,-0.0645,-1.1086,-0.3462,-0.8644,-0.5273,0.6572,2065
0,-0.0859,-1.1738,-0.3809,-0.8456,-0.7456,0.6237,2042
0,-0.1421,-1.2593,-0.3918,-0.9276,-0.8558,0.5822,2081
0,-0.1948,-1.2693,-0.4185,-0.8805,-0.7311,0.5268,2190
0,-0.114,-1.3062,-0.4426,-0.8991,-0.6255,0.4851,2013
0,-0.0225,-1.2246,-0.3982,-0.9963,-0.5144,0.4572,2111
0,0.0803,-1.1667,-0.3621,-1.0583,-0.5759,0.4124,2143
0,0.0723,-1.1719,-0.3801,-1.1272,-0.5646,0.4414,2127
0,0.1992,-1.1833,-0.3457,-1.1754,-0.7209,0.4184,2065
0,0.1565,-1.1948,-0.3274,-1.197,-0.8742,0.3906,1987
0,0.186,-1.2646,-0.2849,-1.1572,-0.8312,0.3888,1949
0,0.1492,-1.2461,-0.2703,-1.177,-0.8018,0.3879,1976
0,0.2209,-1.2053,-0.2905,-1.1552,-0.6913,0.3706,2202
0,0.2812,-1.1514,-0.3245,-1.0622,-0.675,0.3733,2077
0,0.3499,-1.1853,-0.311,-1.0849,-0.6807,0.3362,1841
0,0.3254,-1.1895,-0.3989,-1.178,-0.7329,0.367,2073
0,0.3511,-1.1528,-0.3696,-1.1343,-0.9536,0.3017,2072
0,0.3342,-1.1775,-0.4082,-1.1713,-0.9665,0.1924,2057
0,0.3506,-1.1499,-0.4705,-1.1471,-1.0112,0.1993,1885
0,0.3411,-1.0564,-0.4629,-1.0657,-0.9554,0.1927,2071
0,0.3235,-1.1318,-0.4307,-0.9891,-0.7464,0.1848,1965
0,0.1836,-1.1646,-0.3533,-0.895,-0.5139,0.2191,1860
0,0.1038,-1.1482,-0.363,-0.8476,-0.2394,0.293,2152
0,0.0471,-1.1926,-0.3569,-0.7946,-0.0318,0.31,1894
0,0.0798,-1.1187,-0.3213,-0.7712,-0.0988,0.3876,1925
0,0.0105,-1.1057,-0.3892,-0.7963,-0.098,0.3227,2155
0,-0.0229,-1.1123,-0.4033,-0.6573,-0.1152,0.3446,2104
1,-0.0493,-1.1802,-0.3889,-0.5877,-0.0152,0.4743,2009
1,-0.1736,-1.1921,-0.311,-0.5279,0.035,0.4516,2476
1,-0.2595,-1.2388,-0.2927,-0.5213,0.1097,0.51,2100
1,-0.2136,-1.2175,-0.2378,-0.63,0.098,0.5422,2093
1,-0.22,-1.2073,-0.3674,-0.7496,0.1792,0.5271,1979
1,-0.1763,-1.136,-0.2996,-0.6762,0.031,0.3939,1921
1,-0.2185,-1.1521,-0.3252,-0.74,0.0453,0.3438,2069
1,-0.304,-1.0354,-0.3806,-0.6625,-0.0509,0.365,2151
1,-0.3792,-0.9573,-0.4119,-0.8038,0.0626,0.3812,1992
1,-0.3108,-1.0737,-0.4739,-0.7838,0.0388,0.3681,2078
1,-0.2539,-1.0964,-0.4038,-0.8451,0.0475,0.2836,2160
1,-0.3118,-0.9595,-0.374,-0.749,0.0077,0.4603,1975
1,-0.3496,-1.0076,-0.3931,-0.9216,-0.041,0.3599,2073
1,-0.322,-1.0298,-0.5349,-1.0051,-0.0232,0.4374,2110
1,-0.2393,-0.9387,-0.5361,-1.0019,-0.0985,0.3553,2061
1,-0.2754,-0.9202,-0.5278,-0.9295,-0.075,0.3494,2006
1,-0.3057,-0.9878,-0.4797,-0.779,-0.0344,0.5457,2025
1,-0.291,-1.043,-0.4558,-0.5787,0.1141,0.5422,2011
1,-0.2275,-1.0266,-0.374,-0.4311,0.3441,0.5577,2181
1,-0.1807,-1.01,-0.2102,-0.2237,0.3856,0.5478,2038
1,-0.2153,-1.0186,-0.241,-0.0846,0.4918,0.5671,2296
1,-0.2512,-1.0161,-0.325,0.0144,0.6159,0.562,1923
1,-0.2351,-1.0435,-0.1943,0.0634,0.5537,0.5991,2077
1,-0.2502,-1.0681,-0.2629,0.1409,0.6368,0.7638,2035
1,-0.4023,-1.083,-0.3684,0.0831,0.7505,0.7942,2104
1,-0.5247,-1.0522,-0.4573,-0.0637,0.6682,0.8263,2007
1,-0.5312,-1.0037,-0.6086,-0.2298,0.4168,0.9019,2068
1,-0.531,-0.9761,-0.696,-0.4382,0.1386,0.8487,1982
1,-0.5735,-1.0093,-0.741,-0.647,-0.1594,0.7722,2105
1,-0.5359,-1.1084,-0.8032,-0.7407,-0.2826,0.6789,2057
1,-0.5002,-1.1484,-0.7737,-0.8347,-0.3361,0.6689,2024
1,-0.5186,-1.082,-0.6489,-0.8134,-0.3721,0.7432,2078
1,-0.4878,-1.092,-0.5872,-0.7907,-0.3306,0.8918,2079
1,-0.5051,-1.1121,-0.541,-0.7865,-0.3485,1.0276,2021
1,-0.5698,-1.0508,-0.5366,-0.8031,-0.2928,1.1585,2051
1,-0.5393,-0.9893,-0.5779,-0.8837,-0.3433,1.1643,1984
1,-0.5393,-0.947,-0.5442,-0.9316,-0.4769,1.1572,2055
1,-0.5286,-0.9036,-0.5537,-0.8849,-0.6664,1.0733,2057
1,-0.4973,-0.9229,-0.5842,-0.8355,-0.8115,0.9383,2048
1,-0.5991,-0.8953,-0.5991,-0.7821,-0.8577,0.8044,2004
1,-0.6292,-0.9001,-0.7129,-0.7221,-0.8853,0.5638,1972
1,-0.6194,-0.9304,-0.7747,-0.7035,-0.8911,0.4023,2104
1,-0.6143,-0.8757,-0.7583,-0.7328,-0.8516,0.381,2022
1,-0.5557,-0.7891,-0.7776,-0.795,-0.8316,0.3828,2080
1,-0.5896,-0.7783,-0.8501,-0.7657,-0.85,0.2803,2090
1,-0.6003,-0.8193,-0.8379,-0.8654,-0.9001,0.2193,2037
1,-0.5637,-0.8098,-0.8069,-1.0095,-0.9915,0.1598,2034
1,-0.5239,-0.7556,-0.8269,-1.076,-1.036,0.0091,2147
1,-0.4946,-0.7664,-0.7793,-1.1527,-1.1981,-0.0863,2057
1,-0.4749,-0.7822,-0.7942,-1.2025,-1.3434,-0.2598,2054
1,-0.4231,-0.8035,-0.7571,-1.2937,-1.3707,-0.3698,2019
1,-0.4651,-0.8359,-0.7124,-1.3639,-1.4584,-0.4362,1963
1,-0.5281,-0.8108,-0.7507,-1.4274,-1.5359,-0.4533,2039
1,-0.5435,-0.7722,-0.7969,-1.5323,-1.4249,-0.4181,2022
1,-0.5977,-0.7673,-0.7461,-1.5819,-1.3545,-0.4284,2127
1,-0.5918,-0.7986,-0.7261,-1.719,-1.3025,-0.4641,1936
1,-0.6992,-0.9231,-0.6921,-1.8562,-1.0621,-0.3255,2102
1,-0.6509,-0.8428,-0.7375,-1.9485,-0.8211,-0.4626,2064
1,-0.4214,-0.7952,-0.7402,-1.865,-0.8303,-0.6404,1975
1,-0.3521,-0.7844,-0.752,-1.7495,-0.9521,-0.7244,2078
1,-0.3828,-0.9175,-0.7466,-1.6982,-1.1034,-0.8055,2174
1,-0.4497,-1.0024,-0.7092,-1.7309,-1.0368,-0.8098,1867
1,-0.5461,-0.9963,-0.7847,-1.7116,-0.9476,-0.8277,2102
1,-0.5215,-0.9551,-0.7241,-1.7498,-0.7132,-0.7276,2237
1,-0.5149,-0.9033,-0.7424,-1.7467,-0.6239,-0.605,1966
1,-0.4287,-0.9116,-0.6897,-1.75,-0.7364,-0.5424,2174
1,-0.4077,-0.8655,-0.6338,-1.7275,-0.7843,-0.4841,2012
1,-0.4119,-0.9119,-0.6877,-1.7647,-0.7841,-0.4703,1951
1,-0.4685,-0.916,-0.7493,-1.8094,-0.6926,-0.4468,2133
1,-0.4146,-0.8369,-0.9033,-1.8427,-0.7184,-0.3651,2199
1,-0.4773,-0.783,-0.8655,-1.8381,-0.7709,-0.3828,1974
1,-0.5854,-0.8721,-0.9763,-1.9061,-0.4822,-0.6205,2225
1,-0.5706,-0.9231,-0.9531,-1.7479,-0.5723,-0.7439,1901
1,-0.481,-0.8882,-0.9697,-1.7113,-0.503,-0.954,2013
1,-0.4966,-0.9233,-0.8796,-1.6293,-0.5914,-1.2768,1968
1,-0.3379,-0.8877,-0.9641,-1.5049,-0.7179,-1.2897,2068
1,-0.4148,-0.9626,-1.0503,-1.5869,-0.5476,-1.5061,2052
1,-0.4395,-0.802,-1.1365,-1.3964,-0.5674,-1.3796,2628
1,-0.2837,-0.8081,-1.2393,-1.3539,-0.5693,-1.5364,1821
1,-0.3806,-0.7622,-1.3403,-1.3015,-0.7039,-1.4993,2139
1,-0.3711,-0.6826,-1.4072,-1.1758,-0.7056,-1.4263,1807
1,-0.3464,-0.6387,-1.3098,-1.0975,-0.7561,-1.3106,1901
1,-0.332,-0.6116,-1.228,-1.0575,-0.6323,-1.1471,2034
1,-0.3748,-0.6831,-1.1711,-1.0417,-0.5653,-0.9439,1818
1,-0.1365,-0.5576,-1.2266,-0.9846,-0.4807,-0.7953,2221
1,-0.156,-0.5254,-1.2046,-0.9445,-0.3312,-0.8926,994
1,-0.0881,-0.4507,-1.2131,-0.7672,-0.3682,-0.8,2416
1,-0.0103,-0.4719,-1.1404,-0.6654,-0.1771,-0.8955,1884
1,-0.0698,-0.4331,-1.1208,-0.5517,-0.0393,-1.0053,2354
1,-0.1875,-0.2515,-1.1423,-0.4413,0.0105,-0.9637,2265
1,-0.1255,-0.4778,-1.1448,-0.4059,0.1017,-1.0818,2076
1,-0.0476,-0.4998,-1.261,-0.4417,-0.0764,-1.2275,2349
1,-0.24,-0.2141,-1.28,-0.3834,-0.069,-1.1862,1364
1,-0.2456,-0.2966,-1.2634,-0.1794,-0.1167,-1.1896,2144
1,-0.3245,-0.2822,-1.2334,-0.1128,-0.0547,-1.2655,2197
1,-0.3818,-0.313,-1.1614,-0.0645,-0.0509,-1.2702,2122
1,-0.4851,-0.3127,-1.1423,-0.0876,0.0465,-1.2697,1959
1,-0.553,-0.2268,-1.0842,-0.1778,0.0455,-1.1885,2070
1,-0.5361,-0.2451,-1.1062,-0.3228,-0.0044,-1.0797,1920
1,-0.4888,-0.1479,-1.1375,-0.444,-0.2752,-0.9336,1973
1,-0.387,-0.0684,-1.2556,-0.4863,-0.5232,-0.8985,1930
1,-0.3862,-0.2539,-1.3953,-0.4057,-0.6817,-0.6814,2025
1,-0.5112,-0.3547,-1.2424,-0.3119,-0.7782,-0.3939,2051
1,-0.5376,-0.324,-1.2297,-0.2551,-0.6027,-0.0868,2030
2,-0.4443,-0.3042,-1.1206,-0.1698,-0.4982,0.1031,2135
2,-0.3748,-0.2385,-0.9617,0.0129,-0.5472,0.2185,2061
2,-0.2004,-0.1592,-0.8289,0.1962,-1.1086,0.2834,2115
2,-0.1201,-0.1528,-0.9402,0.0961,-1.2423,0.3112,2070
2,-0.0366,-0.0874,-0.8796,0.338,-1.9253,0.6637,2083
2,-0.1458,0.0027,-0.7834,0.6301,-2.3228,0.7147,2011
2,-0.3711,0.0269,-0.5591,0.7148,-1.9399,0.4414,2070
2,-0.8164,0.0234,-0.4131,0.8564,-1.6691,-0.2559,2106
2,-1.1116,-0.082,-0.6304,0.8022,-1.3926,-0.4666,2066
2,-1.3,-0.0955,-0.7678,0.4935,-0.2017,-0.3481,2035
2,-0.9419,0.0166,-0.978,0.4862,-0.0033,-0.3826,2041
2,-0.373,-0.1562,-1.0173,0.8192,-0.2798,-0.2602,2031
2,0.1831,-0.3293,-1.0569,0.7842,-0.8837,0.1743,2013
2,-0.012,-0.7292,-1.1741,1.4707,-1.4772,0.7052,2093
2,-0.8845,-0.9475,-0.6531,0.6532,-2.2933,-0.3761,2113
2,-0.575,-0.356,-1.5085,1.2228,-0.4485,0.3866,2033
2,-1.0723,-0.3435,-1.124,1.3822,-0.0862,-0.3484,2119
2,-0.4702,-0.9343,-1.0889,0.1352,0.7111,-1.3937,2081
2,0.0591,-1.2305,-1.4707,0.2245,0.2171,-1.3717,2116
2,0.2705,-1.0146,-1.4741,0.0036,-0.9412,-1.5051,2024
2,0.3223,-0.9453,-1.2512,0.0352,-2.1515,-1.7226,2003
2,0.3855,-1.0247,-1.0093,0.3205,-2.9216,-1.6812,2026
2,0.1592,-1.0657,-0.7234,0.9365,-2.9047,-1.5837,2017
2,-0.3562,-1.1396,-0.6536,1.6745,-2.1959,-1.3315,2056
2,-0.6646,-1.3342,-0.4971,2.0319,-1.2107,-1.0681,2058
2,-0.5977,-1.5688,-0.4648,1.5258,-0.0876,-0.7798,2035
2,-0.0662,-1.7207,-0.6135,0.7452,0.7553,-0.5277,2044
2,0.0923,-1.7449,-0.7378,0.2253,1.0732,-0.2731,2075
2,0.2305,-1.4441,-0.9014,0.3261,0.7108,0.0337,2022
2,0.2131,-1.3206,-0.7073,0.375,0.3978,0.0425,2023
2,0.0586,-1.2139,-0.7476,0.4474,0.5405,-0.0939,2073
2,-0.2688,-1.1404,-0.6548,0.4599,0.4574,-0.4065,1984
2,-0.3682,-1.1367,-0.5793,0.3442,0.3304,-0.5524,2004
2,-0.3318,-1.0132,-0.6882,0.3147,0.2798,-0.806,2148
2,-0.3298,-0.9978,-0.6941,0.4057,0.1133,-1.0613,1902
2,-0.2017,-1.2493,-0.7805,0.3583,0.2273,-1.2667,1989
2,-0.1096,-1.5259,-0.9834,0.1603,0.4936,-1.4849,2281
2,0.0576,-1.6008,-0.8057,0.2257,0.1366,-1.5121,2080
2,0.0798,-1.8342,-0.7917,0.1928,0.2437,-1.7201,2094
2,0.1118,-2.0,-0.7161,0.1181,0.0286,-1.8532,2026
2,0.0706,-2.0,-0.647,0.1665,0.0354,-2.0592,2101
2,-0.1187,-1.9355,-0.7207,0.2348,0.1073,-2.4257,2133
2,-0.2402,-1.657,-0.7314,0.4693,0.2868,-2.5377,2166
2,-0.3088,-1.4353,-0.8411,0.7296,0.1912,-2.6793,2209
2,-0.2317,-1.5505,-0.9819,0.9251,0.3302,-3.0734,1983
2,-0.3992,-1.5676,-0.9897,1.0259,0.1128,-3.4029,2234
2,-0.5054,-1.7346,-1.0457,1.0334,-0.2747,-3.4821,1824
2,-0.6741,-1.8813,-1.0486,0.8155,-0.2677,-3.6986,2250
2,-0.9043,-1.8796,-1.1946,0.6686,-0.3368,-3.8749,1633
2,-1.1526,-2.0,-1.3284,0.7973,-0.3389,-3.6086,2113
2,-1.3406,-1.9268,-1.231,0.3172,-0.2152,-3.1044,2128
2,-0.5105,-1.8401,-0.9182,0.0898,0.4248,-3.2363,2101
2,-0.9304,-1.386,-1.1909,-0.7034,0.182,-3.589,1999
2,-1.1436,-0.7178,-1.2173,-0.957,-0.1539,-3.3275,2040
2,-1.125,-0.5139,-1.1963,-0.8003,-0.0306,-3.1835,2086
2,-1.354,-0.2139,-1.1089,-0.7857,-0.0606,-2.5072,2045
2,-1.2336,-0.0332,-0.9045,-0.693,0.1249,-2.0901,1990
2,-1.1492,0.0889,-0.719,-0.4538,0.028,-1.8275,2157
2,-1.072,0.3091,-0.7202,-0.4609,0.0835,-1.5897,2085
2,-1.1802,0.1299,-1.0059,-0.5331,0.1517,-0.8847,2062
2,-1.4058,0.4424,-1.0188,-0.6866,0.4456,-0.2787,2029
2,-0.8069,1.0352,-0.8796,0.222,1.1738,0.555,2344
2,0.0227,0.6104,-0.6487,0.9011,1.9612,1.2569,2352
2,0.7739,-0.0273,-0.4026,1.1184,1.8536,1.5524,2403
2,1.9999,-2.0,-2.0,-0.4028,1.8594,-0.4991,2368
2,1.9999,-2.0,1.9999,1.2335,-4.3635,-3.3681,2266
2,1.9999,-2.0,0.0872,-4.3635,-2.9256,-1.5667,1877
2,-2.0,1.9999,-0.3535,-2.9164,-4.3635,0.6931,2222
2,-2.0,1.9999,-2.0,1.0299,-2.6974,4.3634,2089
2,-1.127,1.1665,-1.1067,0.245,2.3522,4.3634,1961
2,-1.5222,-0.9517,-1.2542,1.0978,1.5085,4.1303,2189
2,-0.864,-1.6567,-0.3821,0.9618,-0.4747,4.3634,1778
2,-0.5269,-1.2576,-0.6506,-0.0991,-1.3588,4.2089,1993
2,-0.5505,-0.2368,-0.4929,0.1105,-2.602,3.6099,2205
2,-0.5461,-0.5012,-0.7874,0.229,-2.7313,3.7083,1902
2,-0.6155,-0.9011,-1.0723,0.3013,-2.8882,3.6713,2619
2,-0.502,-0.9866,-1.2925,-0.0615,-2.9573,3.4493,2000
2,-0.1216,-1.0054,-1.3638,-0.2919,-2.9577,3.2571,2016
2,0.1802,-1.1067,-1.106,-0.5292,-2.914,3.0111,2428
2,0.1431,-1.2363,-0.9761,-0.673,-2.5531,2.7139,1316
2,0.1956,-1.333,-0.9104,-0.711,-2.5839,2.6496,1984
2,0.3423,-1.1025,-0.9729,-0.8467,-2.436,2.655,1805
2,0.3213,-0.8135,-1.0615,-0.6015,-2.2774,2.6384,2204
2,0.3005,-0.709,-1.0132,-0.4707,-2.0992,2.6856,2004
2,0.3635,-0.7002,-0.9844,-0.2099,-1.9037,2.7572,2181
2,0.2983,-0.7292,-0.865,0.0309,-1.8608,2.5726,1891
2,0.2151,-0.6311,-0.7278,0.1938,-1.6744,2.3127,2238
2,0.1536,-0.5728,-0.6433,0.3421,-1.3992,2.1708,2066
2,-0.0886,-0.5327,-0.6528,0.4092,-1.1393,1.9365,1952
2,-0.2654,-0.4875,-0.677,0.3771,-0.9605,1.7086,2039
2,-0.3188,-0.3616,-0.6492,0.3703,-0.8062,1.5138,2052
2,-0.3721,-0.2192,-0.6196,0.406,-0.6372,1.368,2125
2,-0.4121,-0.1321,-0.5129,0.5217,-0.5558,1.309,2059
2,-0.4658,-0.0505,-0.4521,0.5994,-0.5149,1.2734,2045
2,-0.5015,0.0276,-0.4324,0.7209,-0.4924,1.2319,2062
2,-0.5564,0.1292,-0.4636,0.8388,-0.4303,1.1837,2018
2,-0.6179,0.2334,-0.446,1.0565,-0.5184,1.2196,2160
2,-0.6223,0.2471,-0.4563,1.2295,-0.652,1.1834,2027
2,-0.7168,0.1572,-0.532,1.3396,-0.814,1.0528,1991
2,-0.9214,0.0312,-0.5459,1.2904,-1.034,0.7991,2033
2,-0.9016,-0.0657,-0.6011,1.1609,-0.8925,0.6556,2033
3,-0.9629,-0.179,-0.7678,1.1501,-0.5253,0.6602,1980
3,-1.1233,-0.1711,-0.925,0.9765,0.0146,0.6508,2088
3,-1.2378,-0.0381,-0.9084,1.16,0.3398,1.1559,2023
3,-1.1792,0.0852,-0.9878,1.3928,0.5871,1.3061,2047
3,-1.2065,-0.2002,-0.9719,1.5106,0.6596,1.3346,2045
3,-1.2732,-0.6987,-0.9072,1.4274,0.5514,1.2463,2023
3,-1.1938,-0.8303,-0.7683,0.9163,0.7622,0.985,2048
3,-0.9128,-0.7854,-0.72,0.5608,0.8376,1.1167,2090
3,-0.6919,-0.7644,-0.7554,0.2824,0.6733,1.0461,2035
3,-0.6729,-0.8545,-0.8289,0.2633,0.5438,0.9899,2005
3,-0.7097,-0.8584,-0.6924,0.1938,0.185,0.7678,2130
3,-0.6584,-0.7561,-0.593,0.3067,-0.1518,0.5304,2076
3,-0.7104,-0.7473,-0.5225,0.2727,-0.0104,0.0832,2042
3,-0.6228,-0.7795,-0.4233,0.3113,0.0017,-0.1513,2079
3,-0.4551,-0.8196,-0.4272,0.171,0.2956,-0.3542,2037
3,-0.3303,-0.9453,-0.4771,0.0607,0.2752,-0.5516,2117
3,-0.1318,-1.1216,-0.5256,-0.0884,0.1107,-0.6702,2005
3,-0.0054,-1.3022,-0.3621,-0.0902,-0.3882,-0.1926,1891
3,-0.0164,-1.4553,-0.1768,-0.1265,-0.2577,-0.065,2109
3,-0.2546,-1.4236,-0.1377,-0.1272,0.5255,-0.1031,2030
3,-0.4722,-1.4883,-0.2974,-0.0747,1.0095,-0.1659,1984
3,-0.4102,-1.4016,-0.5105,0.0133,0.9608,-0.3394,2045
3,-0.3115,-1.373,-0.5879,-0.0719,0.8823,-0.3763,2136
3,-0.2202,-1.2363,-0.6033,0.0582,0.6578,-0.3839,2178
3,-0.2632,-1.1289,-0.5591,0.1687,0.4248,-0.5195,2185
3,-0.2876,-1.1753,-0.5613,0.2778,0.4342,-0.6974,2128
3,-0.3284,-1.2029,-0.5537,0.3188,0.6608,-0.8977,2179
3,-0.406,-1.1394,-0.5676,0.4069,0.7239,-1.2616,2182
3,-0.5142,-1.1318,-0.498,0.5791,0.4939,-1.6181,2285
3,-0.5293,-1.3926,-0.4365,0.7188,0.239,-1.9346,2140
3,-0.4309,-1.7781,-0.374,0.6401,0.11,-2.0587,1956
3,-0.3784,-2.0,-0.532,0.3848,0.3878,-1.9775,2024
3,-0.2952,-1.9436,-0.6936,0.2221,0.6754,-1.7929,1916
3,-0.1985,-1.5608,-0.9446,0.1907,0.8271,-1.914,1819
3,-0.1731,-1.2078,-1.0381,0.4846,0.768,-2.1846,2042
3,-0.2004,-1.1934,-1.0046,0.6754,0.5016,-2.4682,1975
3,-0.4507,-1.5039,-1.0481,0.6321,0.4991,-2.6354,2355
3,-0.7656,-1.7939,-1.0432,0.4414,0.489,-2.8204,1866
3,-0.8953,-2.0,-1.1414,0.0795,0.398,-2.9208,1977
3,-0.9443,-2.0,-1.085,-0.1863,0.2852,-3.0259,2239
3,-0.9116,-2.0,-1.0813,-0.3856,0.2694,-3.0966,2153
3,-0.9451,-1.7458,-1.2532,-0.4245,0.4328,-3.1484,2156
3,-1.0278,-1.7148,-1.4507,-0.4123,0.8967,-3.2154,1997
3,-1.1211,-1.6445,-1.5852,-0.2994,1.1784,-3.2222,2249
3,-1.0359,-1.439,-1.6279,-0.2056,1.4426,-3.2198,2091
3,-1.0125,-1.2058,-1.5701,0.081,1.7012,-3.1596,2171
3,-1.0632,-0.9114,-1.4956,0.3713,2.0734,-3.2033,2215
3,-1.0901,-0.6289,-1.5017,0.8327,2.4344,-3.2043,2315
3,-1.1067,-0.4636,-1.2825,1.2833,2.52,-3.4318,2135
3,-1.071,-0.6597,-1.3296,1.4717,2.7725,-3.7339,2059
3,-1.2898,-1.0723,-1.3818,1.2563,3.1357,-3.3722,2073
3,-1.1477,-0.9927,-1.4001,1.0274,2.5771,-3.4254,1966
3,-1.3179,-0.3315,-1.2656,0.814,2.1292,-3.413,1912
3,-1.5386,-0.1216,-1.2341,0.7853,1.8547,-2.8068,2010
3,-1.5327,0.1145,-0.8521,0.6066,1.489,-2.4558,2074
3,-1.3367,0.344,-0.6548,0.4966,1.4206,-2.3474,2129
3,-1.4453,0.3301,-0.4211,0.5512,1.225,-2.261,2127
3,-1.5735,0.5068,-0.1448,0.29,0.795,-1.7594,1993
3,-1.5798,1.1174,0.0085,-0.3518,0.8979,-1.6318,2136
3,-1.4578,1.7971,-0.1624,-0.3159,0.762,-1.356,1700
3,-0.9866,1.7737,-0.4341,0.8721,0.2041,-1.3862,2099
3,1.4236,-0.8579,0.5002,0.3207,-1.7853,-2.495,2452
3,1.9999,-2.0,-2.0,3.0078,3.1023,-4.3635,1657
3,1.9999,-2.0,1.9999,-1.0732,-4.3635,-3.8294,1861
3,1.9999,-0.9602,0.4216,-3.7612,-4.3635,-0.8279,2065
3,-2.0,1.9999,-1.8015,-3.0712,0.889,-0.361,1940
3,-2.0,1.9999,-1.7358,-0.1237,-3.6676,4.3634,2150
3,0.1958,1.7156,-1.855,1.6482,0.3834,4.3634,1409
3,-1.0581,0.7522,-1.1228,1.2247,0.3019,4.3634,2284
3,-1.2346,-0.0256,-1.5151,1.3359,-1.0363,4.3634,2340
3,-0.4185,-0.6304,-1.3325,1.0595,-1.9128,4.3634,2467
3,-0.4116,0.2744,-1.0564,1.0581,-3.0819,4.3634,2055
3,-0.5803,0.1267,-0.9375,1.1804,-3.2096,4.3634,2207
3,-0.7085,-0.5688,-0.4214,1.1348,-3.2578,4.3634,2106
3,-0.6667,-1.2351,-0.6033,0.813,-2.8842,4.3634,1956
3,-0.8369,-1.9209,-0.6311,0.1364,-2.9741,4.102,1926
3,-0.7019,-1.5872,-0.6687,-0.3528,-3.492,3.4584,1839
3,-0.4529,-1.3445,-0.9531,-0.5477,-3.8245,2.9425,1725
3,-0.3811,-1.7129,-0.6624,-0.6469,-3.5529,2.5486,1827
3,-0.3716,-1.8364,-0.6553,-0.8007,-3.1321,2.2152,1913
3,-0.2129,-1.8318,-0.6985,-0.7612,-2.7862,2.1459,1808
3,-0.1631,-1.8235,-0.5393,-0.6645,-2.4987,2.2449,1975
3,-0.1619,-1.667,-0.6536,-0.6119,-2.3557,2.5105,1815
3,-0.0334,-1.4707,-0.989,-0.4195,-2.0382,2.7974,2155
3,0.1902,-1.4595,-0.7986,-0.025,-1.6237,3.079,2169
3,0.1858,-1.4268,-0.6008,0.2121,-1.0837,3.1011,2230
3,0.1565,-1.3235,-0.4082,0.4923,-1.0602,3.0946,2067
3,0.1311,-1.1292,-0.2678,0.6593,-0.8694,2.8175,1698
3,-0.0029,-0.9207,-0.2502,0.6806,-0.8405,2.4193,1897
3,-0.2151,-0.5901,-0.3259,0.5964,-0.9215,2.2197,2211
3,-0.3147,-0.4309,-0.2844,0.492,-0.9724,1.7703,2217
3,-0.4253,-0.2395,-0.2688,0.4244,-1.0328,1.458,2066
3,-0.4214,-0.082,-0.2627,0.442,-1.0144,1.2884,2017
3,-0.4431,-0.0232,-0.2917,0.5108,-0.9701,1.2382,2049
3,-0.4509,0.0029,-0.3164,0.5608,-0.8561,1.1991,1957
3,-0.4841,0.1287,-0.3447,0.5059,-0.7269,1.2063,2064
3,-0.4495,0.2717,-0.3818,0.4737,-0.5873,1.2623,1990
3,-0.4978,0.3389,-0.3301,0.4923,-0.4851,1.2105,2032
3,-0.5471,0.4214,-0.3232,0.5718,-0.3646,1.2324,2185
3,-0.5684,0.5142,-0.259,0.4542,-0.3968,1.2057,2051
3,-0.6294,0.5947,-0.0596,0.4031,-0.923,0.9873,2096
3,-0.6201,0.5613,-0.3098,0.3396,-1.04,0.7115,2053
3,-0.7668,0.3406,-0.3586,0.4026,-0.8139,0.6038,2069
4,-1.0833,0.2419,-0.4233,0.1884,-0.6738,0.6271,2031
4,-1.2695,0.21,-0.6934,0.2248,-0.3566,0.8377,2108
4,-1.3816,0.1313,-0.7754,0.4012,-0.0542,0.9071,2026
4,-1.4426,-0.0227,-0.769,0.3812,0.0434,0.912,2019
4,-1.418,-0.2217,-0.749,0.2858,0.2152,0.8096,2016
4,-1.5288,-0.4817,-0.8164,0.1085,0.2626,0.6581,2026
4,-1.312,-0.6614,-0.7842,-0.2237,0.6988,0.553,2042
4,-0.9832,-0.8037,-0.7725,-0.4924,0.7472,0.6502,2005
4,-0.8391,-0.8442,-0.9111,-0.5404,0.6516,0.653,2071
4,-0.8,-0.8452,-1.0566,-0.4975,0.7839,0.579,2053
4,-0.9639,-0.7979,-1.2253,-0.3469,1.0822,0.4209,2021
4,-1.1074,-0.9045,-1.2244,-0.2474,1.046,0.3369,2125
4,-1.2454,-1.1335,-1.0066,-0.3832,1.0427,0.2791,2214
4,-0.8901,-1.2236,-0.7991,-0.7901,1.0279,0.3641,2059
4,-0.5012,-1.2878,-0.7053,-1.0212,0.9921,0.2903,2091
4,-0.3645,-1.2605,-0.7085,-1.1492,0.9788,0.3987,1995
4,-0.3372,-1.2239,-0.6887,-1.1326,0.9276,0.3394,2065
4,-0.2808,-1.0881,-0.6213,-0.9648,0.7797,0.1405,2011
4,-0.249,-0.9324,-0.6013,-0.6978,0.8056,0.0309,2165
4,-0.376,-0.7805,-0.5422,-0.542,0.6678,-0.1447,2078
4,-0.3828,-0.7935,-0.7092,-0.7139,0.7645,-0.4157,2002
4,-0.3333,-0.834,-0.8125,-0.7244,0.6416,-0.4931,2004
4,-0.231,-0.8508,-0.8582,-0.7271,0.3244,-0.5397,2024
4,-0.0151,-1.0427,-0.9041,-0.6331,0.2895,-0.5233,2050
4,-0.095,-1.0652,-0.7119,-0.3765,0.028,-0.3781,1925
4,-0.3967,-1.0308,-0.6228,-0.2172,0.397,-0.4765,2145
4,-0.563,-0.9253,-0.6367,-0.1121,0.6861,-0.5107,1994
4,-0.5095,-0.9751,-0.5432,-0.0746,0.6138,-0.5938,2107
4,-0.4565,-0.9985,-0.5999,-0.0067,0.593,-0.5869,1993
4,-0.4651,-0.9861,-0.5945,0.1053,0.5397,-0.5928,2146
4,-0.4998,-0.9978,-0.5769,0.1681,0.6357,-0.7156,2005
4,-0.5044,-1.0239,-0.5959,0.1704,0.7825,-0.8817,1969
4,-0.4624,-0.9324,-0.6658,0.2686,0.9437,-0.9397,1952
4,-0.4832,-0.8147,-0.6584,0.3774,0.9809,-1.0363,1984
4,-0.4348,-0.8391,-0.7224,0.4283,1.0994,-1.0809,2018
4,-0.3787,-0.8989,-0.864,0.4599,1.0118,-1.1083,1978
4,-0.4014,-0.9595,-0.9248,0.3946,0.9126,-1.2134,1827
4,-0.396,-1.001,-1.0149,0.3261,0.866,-1.3149,2077
4,-0.3757,-1.115,-1.0605,0.2779,0.8448,-1.3974,2075
4,-0.3831,-1.2097,-1.0547,0.2987,0.8355,-1.4143,2170
4,-0.4316,-1.1477,-1.0129,0.3313,0.8103,-1.4886,1982
4,-0.501,-1.1262,-1.0474,0.4488,1.0063,-1.5896,1908
4,-0.5605,-1.167,-1.0649,0.4781,1.1714,-1.6621,2050
4,-0.5935,-1.2388,-1.0542,0.4814,1.1921,-1.6904,1915
4,-0.6555,-1.321,-1.0356,0.5846,1.1363,-1.6691,2073
4,-0.7869,-1.3572,-1.0022,0.6122,0.9962,-1.7964,2095
4,-0.8875,-1.4021,-1.0474,0.6405,1.0519,-1.9735,2032
4,-0.946,-1.4526,-1.0603,0.6621,1.2135,-2.3116,2093
4,-0.9399,-1.4746,-1.1536,0.6727,1.2487,-2.6429,2448
4,-0.8518,-1.4866,-1.2249,0.8098,1.201,-2.847,2014
4,-0.916,-1.4583,-1.2375,0.9808,1.0504,-3.2146,2047
4,-0.8779,-1.6206,-1.2346,1.0436,0.9023,-3.3587,1988
4,-1.009,-1.616,-1.366,2.2555,0.6066,-3.3011,1992
4,-0.6416,-1.3362,-1.4001,0.2101,2.3707,-4.1695,2070
4,-0.6277,-1.4282,-1.4011,1.5358,1.9431,-4.3635,2117
4,-0.7366,-1.4033,-1.5625,1.3729,1.8936,-4.3635,2043
4,-0.7361,-1.1807,-1.5803,1.653,2.151,-4.3635,2171
4,-1.0723,-1.1091,-1.5256,1.8455,2.3858,-4.3635,2121
4,-1.1609,-1.6343,-1.8652,1.4344,2.6071,-4.3635,2030
4,-1.415,-1.3167,-1.4468,1.1765,2.5442,-4.3635,2064
4,-1.2034,-0.7009,-1.4055,0.9754,2.116,-4.3635,2090
4,-1.6909,-0.2603,-1.1396,1.0303,1.6896,-4.004,2060
4,-2.0,-0.1396,-1.0017,0.7821,1.5033,-3.3977,2147
4,-2.0,0.4075,-0.6675,0.6869,0.9762,-2.8244,2006
4,-2.0,0.9495,-0.3354,0.5372,0.259,-2.4527,1948
4,-2.0,1.4277,-0.1243,0.1433,-0.5677,-2.133,1958
4,-1.9624,1.9999,-0.3926,0.0326,-0.6741,-1.6949,2134
4,-1.3103,1.9999,-1.0837,0.5604,-0.2844,-1.0091,1933
4,-0.4517,1.6821,-0.9578,1.5708,-0.0124,-0.4059,1867
4,0.981,-0.2227,-0.1443,2.3381,-0.3297,-0.6031,2018
4,1.9999,-2.0,-2.0,4.3634,2.286,-4.0238,2107
4,1.9999,-2.0,1.9999,-3.313,-3.4499,-4.1943,2082
4,1.9999,-2.0,1.9999,-4.3635,-4.3635,-3.2552,1807
4,-1.991,1.9999,-0.9307,-4.3635,0.6962,-4.3635,2092
4,-2.0,1.9999,-1.4231,-0.5394,-0.7317,1.3127,2212
4,-0.5659,1.8376,-2.0,2.1537,1.1468,4.3634,2351
4,-0.4629,-0.8267,-0.553,3.1991,2.483,4.3634,2141
4,-0.8171,-1.0774,-1.2258,1.2206,0.8871,4.3634,1703
4,-0.7559,-0.27,-1.3489,1.6379,-0.6118,4.3634,2013
4,-0.2092,0.0869,-0.8125,1.5597,-1.0913,4.3634,2298
4,-0.8298,0.4458,-1.1111,0.8652,-2.8432,4.3634,1980
4,-0.5811,0.7896,-0.4648,1.454,-3.4386,4.3634,1618
4,-1.4338,-0.1169,-0.7048,0.8444,-3.4583,4.3634,2460
4,-0.9163,-1.1362,-0.698,0.45,-3.5989,4.3634,1997
4,-0.8198,-1.45,-0.575,0.1791,-3.3981,4.2479,2331
4,-0.8906,-1.3906,-0.1956,-0.0819,-3.7624,3.5605,1414
4,-0.9658,-1.551,-0.3313,-0.5713,-3.7812,2.9411,2152
4,-0.5952,-1.6626,-0.5049,-0.9356,-3.7607,2.5866,2240
4,-0.1572,-1.5808,-0.8982,-1.1335,-3.6142,2.3784,1869
4,0.0317,-1.6689,-1.1384,-0.9831,-2.9951,2.6582,2033
4,0.1428,-1.7522,-1.1331,-0.8086,-2.4458,3.0991,2708
4,0.1033,-1.6489,-1.0483,-0.5136,-1.7892,3.4625,1571
4,0.0649,-1.6145,-0.9106,-0.3249,-1.2552,3.6556,1817
4,-0.0569,-1.4951,-0.6255,-0.087,-0.9569,3.6312,2201
4,-0.1956,-1.3918,-0.4585,0.1109,-0.9863,3.4467,2423
4,-0.3257,-1.4893,-0.4761,0.2659,-0.9914,3.0319,1695
4,-0.3455,-1.322,-0.3225,0.4743,-1.0136,2.614,2256
4,-0.3184,-1.0234,-0.2585,0.6096,-0.9292,2.245,2019
4,-0.4883,-0.7751,-0.2378,0.7217,-0.883,1.931,2078
4,-0.4961,-0.6152,-0.1689,0.7095,-0.9055,1.7756,2012
4,-0.502,-0.5112,-0.1372,0.5912,-1.0348,1.5414,2081
4,-0.5825,-0.3831,-0.1677,0.5051,-1.1868,1.4395,1942
4,-0.6125,-0.1924,-0.2712,0.3867,-1.3512,1.4716,2023
4,-0.5972,-0.0657,-0.3826,0.2871,-1.3853,1.3952,2011
5,-0.5774,0.0186,-0.4668,0.302,-1.2624,1.4205,2050
5,-0.554,0.072,-0.425,0.3225,-1.0055,1.4183,2036
5,-0.4866,0.1472,-0.3618,0.3448,-0.8881,1.4681,1978
5,-0.4783,0.1541,-0.2051,0.4699,-0.5967,1.4025,2052
5,-0.5137,0.2214,0.0095,0.4876,-0.6095,1.4302,2047
5,-0.5913,0.2258,0.0522,0.4318,-0.5612,1.2934,2035
5,-0.5864,0.2566,0.0806,0.3161,-0.7249,1.2286,2080
5,-0.6077,0.2498,-0.0435,0.267,-0.8814,1.124,2040
5,-0.8484,0.1882,-0.3179,0.2854,-1.169,0.753,2014
5,-1.126,0.155,-0.4324,0.1297,-1.362,0.4432,2009
5,-1.2297,0.105,-0.6851,0.0561,-0.9802,0.5674,2001
5,-1.0906,0.1321,-0.9387,0.1422,-0.2077,0.9013,2069
5,-1.0339,0.1328,-0.9336,0.0664,0.2669,1.083,2013
5,-1.0652,0.0007,-0.9673,0.1088,0.4293,1.0045,2039
5,-0.9365,-0.0967,-0.9214,-0.0435,0.5881,0.8116,2012
5,-0.8257,-0.1274,-0.877,-0.1237,0.2565,0.6754,2062
5,-1.0107,-0.3315,-1.03,0.1591,0.0421,0.412,1990
5,-1.2322,-0.5657,-0.906,0.2468,-0.0047,0.2529,2055
5,-1.2371,-0.7678,-0.7129,0.3103,-0.2324,0.2934,2073
5,-1.167,-0.9783,-0.7864,0.2374,0.0349,0.2888,2092
5,-1.2161,-1.2629,-0.8118,-0.078,0.4586,0.2284,2088
5,-1.155,-1.4058,-0.6836,-0.3674,0.5903,0.1678,1998
5,-1.1497,-1.425,-0.7478,-0.7901,0.7875,0.1137,2180
5,-1.012,-1.1501,-0.6196,-0.9573,0.6221,0.1171,2182
5,-0.5642,-0.9697,-0.6162,-0.9501,0.4514,0.2234,2047
5,-0.2903,-0.9331,-0.677,-0.9076,0.3522,0.2522,2037
5,-0.2554,-0.7996,-0.7478,-0.7144,0.2445,0.0977,2054
5,-0.3367,-0.6365,-0.7986,-0.526,0.4207,-0.0947,1934
5,-0.385,-0.5432,-0.8066,-0.3979,0.6698,-0.2629,2018
5,-0.4089,-0.511,-0.7327,-0.2737,0.6854,-0.3409,1931
5,-0.4502,-0.7478,-0.6169,-0.2766,0.7708,-0.3282,2110
5,-0.448,-0.8787,-0.5728,-0.4204,0.8738,-0.273,2027
5,-0.4333,-0.9626,-0.6169,-0.4868,0.8102,-0.2301,2059
5,-0.4614,-0.9944,-0.6262,-0.4358,0.7486,-0.3049,2075
5,-0.491,-0.9292,-0.6201,-0.4332,0.7811,-0.4244,1985
5,-0.5,-0.8279,-0.5796,-0.3524,0.759,-0.5365,2057
5,-0.4424,-0.8596,-0.5579,-0.1712,0.8171,-0.5713,1950
5,-0.3674,-1.0247,-0.5686,-0.0707,0.7854,-0.5456,2000
5,-0.3767,-1.0952,-0.5757,-0.0948,0.861,-0.5906,1982
5,-0.4165,-1.0566,-0.6401,-0.1862,1.0029,-0.5532,1980
5,-0.3665,-0.9082,-0.6177,-0.2084,1.0423,-0.5303,2072
5,-0.3196,-0.707,-0.7224,-0.1198,1.1577,-0.7064,2074
5,-0.292,-0.6636,-0.7139,0.108,1.0525,-0.8548,2079
5,-0.3191,-0.9084,-0.7651,0.2683,1.1094,-0.9072,1831
5,-0.3877,-1.0486,-0.7083,0.2577,1.0453,-0.9762,2094
5,-0.4587,-1.1382,-0.6118,0.2434,1.001,-1.0075,2041
5,-0.4753,-1.3018,-0.6667,0.1409,1.1196,-0.9837,1965
5,-0.4814,-1.2949,-0.6819,0.0268,1.1516,-1.0583,1975
5,-0.4971,-1.0505,-0.658,0.0834,0.9036,-1.2913,2042
5,-0.5718,-0.8484,-0.7573,0.2438,0.8682,-1.5945,2112
5,-0.5916,-0.9509,-0.8628,0.3637,0.9163,-1.8199,2209
5,-0.6191,-1.2014,-0.9604,0.4762,1.0026,-1.8992,2006
5,-0.571,-1.3899,-0.9578,0.5313,1.184,-1.8809,2098
5,-0.5471,-1.5874,-1.0847,0.6058,1.2243,-1.9696,1913
5,-0.6541,-1.7705,-1.2249,0.6601,1.3648,-2.1292,2026
5,-0.7815,-1.8684,-1.2444,0.6857,1.4834,-2.3791,2136
5,-0.8831,-1.8091,-1.312,0.6574,1.1941,-2.5328,2101
5,-1.0076,-1.7205,-1.2737,0.6992,0.9702,-2.9168,1952
5,-1.1521,-1.5667,-1.3101,0.7739,1.0318,-3.3585,2048
5,-1.2317,-1.4163,-1.21,0.818,1.0326,-3.8066,2189
5,-1.7832,-1.5281,-0.8674,0.6806,-0.0474,-4.3635,2016
5,-2.0,-0.8821,-1.4702,3.0192,0.9259,-2.0297,2218
5,-0.1499,-1.4622,-1.6826,-0.4947,3.9243,-4.3635,1957
5,-0.3682,-1.8489,-1.616,-0.0286,3.856,-4.3635,1980
5,-1.4722,-1.343,-1.9214,0.5056,1.7064,-4.3635,2119
5,-1.3215,-0.7144,-1.7424,0.7361,1.7873,-4.3635,2084
5,-1.645,-0.3296,-1.6631,1.1256,2.603,-4.3635,2221
5,-1.9727,-0.4209,-1.428,0.9702,2.893,-4.3635,2116
5,-1.5779,-0.4827,-1.2798,0.3832,2.858,-4.1819,2015
5,-1.7903,0.043,-1.0964,0.4819,2.3483,-3.7522,1988
5,-2.0,0.6543,-0.509,0.6869,1.3621,-3.3266,2061
5,-2.0,1.5479,-0.4197,0.7299,1.054,-2.8351,2070
5,-2.0,1.8569,0.2664,1.1776,-0.337,-1.5628,1959
5,-2.0,1.7493,-0.0283,0.5098,-0.9533,-0.3039,2193
5,-1.9434,1.9521,-0.708,0.6209,-0.2935,-0.3529,1983
5,-1.3657,1.7412,-1.188,0.4679,0.6873,-0.6293,1985
5,-0.5129,1.6409,-0.9565,2.3573,1.0331,0.2904,1871
5,1.9607,-1.9128,-2.0,2.0624,-0.1143,-0.0887,2352
5,1.1555,-2.0,-2.0,4.3634,0.3931,3.2869,2287
5,1.9999,-2.0,1.9999,-4.3635,-4.3635,-4.3635,2123
5,1.9999,-0.614,-0.0081,-4.3635,-3.0733,0.7505,2150
5,-2.0,1.9999,-0.0684,-4.3635,-0.7116,-4.3635,1885
5,-2.0,1.9999,-2.0,0.5837,-3.4729,4.3634,2322
5,0.3101,1.9999,-1.9412,1.1857,0.972,4.3634,2238
5,0.3518,0.2964,-1.0068,2.6927,-0.0244,4.3634,2227
5,-1.4233,-1.0962,-1.5046,2.0662,-0.7154,4.3634,2352
5,-1.3352,-1.6248,-0.8977,2.2117,-1.9615,4.3634,2155
5,-0.7439,-1.1982,-0.7319,1.2629,-2.212,4.3634,1873
5,-0.8728,-0.3115,-0.6113,1.1838,-2.5919,4.3634,2299
5,-0.9729,-0.177,-0.6123,0.9021,-2.6831,4.3634,2059
5,-0.8472,-0.6389,-0.8096,0.7498,-2.7955,4.1081,1871
5,-0.7705,-0.9248,-0.6816,0.2867,-3.1592,3.9821,2075
5,-0.7642,-0.7778,-0.79,-0.2606,-3.3713,3.897,2081
5,-0.7671,-0.9192,-0.7375,-0.5581,-3.3397,3.7655,2180
5,-0.6416,-1.2886,-0.8201,-0.7027,-3.0403,3.594,1582
5,-0.5107,-1.6736,-0.79,-0.9455,-2.9376,3.134,2313
5,-0.218,-1.5776,-0.5862,-1.1628,-2.7117,2.8268,2091
5,-0.0835,-1.3242,-0.6768,-1.2981,-2.4189,2.7679,1559
5,-0.1804,-1.3052,-0.6265,-1.2698,-2.471,2.5727,2336
5,-0.1169,-1.2595,-0.6538,-1.2115,-2.453,2.4129,1624
5,-0.031,-1.1326,-0.7317,-1.0009,-2.228,2.3405,1925
6,-0.0298,-1.1682,-0.8079,-0.7731,-2.0805,2.2602,2244
6,0.0996,-1.2266,-0.7512,-0.5007,-1.7018,2.1461,2063
6,0.0161,-1.0278,-0.6018,-0.3064,-1.3173,2.0318,2156
6,-0.1223,-0.8098,-0.5603,-0.1344,-0.9578,2.1154,2094
6,-0.3149,-0.7598,-0.387,0.0222,-0.7324,2.008,2213
6,-0.4871,-0.677,-0.333,-0.0618,-0.4337,2.0134,1989
6,-0.593,-0.5513,-0.2444,-0.1527,-0.3012,2.0084,1885
6,-0.6289,-0.4041,-0.3337,-0.1579,-0.2998,1.8375,2015
6,-0.7017,-0.3154,-0.209,-0.3964,-0.2962,1.699,2055
6,-0.6514,-0.1497,-0.2856,-0.3633,-0.398,1.5267,2021
6,-0.6616,-0.1436,-0.196,-0.3962,-0.3971,1.3864,2097
6,-0.5925,-0.0601,-0.2222,-0.2176,-0.4285,1.3141,2032
6,-0.5801,0.0369,-0.2183,0.0001,-0.3361,1.2363,2040
6,-0.6025,0.0691,-0.1392,0.2408,-0.4072,1.1907,2133
6,-0.6321,0.1162,-0.0234,0.4799,-0.4385,1.0866,2035
6,-0.6262,0.2258,0.0305,0.8075,-0.5813,1.0312,2032
6,-0.6995,0.4019,-0.0164,0.86,-0.6276,1.022,2135
6,-0.6777,0.564,-0.0789,0.8785,-0.9697,1.101,2047
6,-0.8105,0.5703,-0.3774,0.9558,-1.3628,0.7677,2075
6,-0.8376,0.613,-0.4792,0.7974,-1.5994,0.3446,2067
6,-0.8601,0.5913,-0.7751,1.0768,-1.4937,0.4689,2070
6,-0.9795,0.4946,-0.9121,1.2415,-1.1074,0.5078,1895
6,-1.2375,0.3662,-0.8962,1.0501,-0.4541,0.5556,2057
6,-1.4229,0.2439,-0.948,1.1499,-0.12,0.8496,2057
6,-1.4131,-0.0442,-1.0898,1.0491,0.5148,0.885,2042
6,-1.4644,-0.2874,-1.1133,0.7741,0.8937,1.0537,2036
6,-1.4934,-0.5491,-0.9939,0.5534,0.6891,1.0427,2054
6,-1.3132,-0.4912,-1.0269,0.3711,0.4948,0.8677,1910
6,-0.9185,-0.4812,-0.8818,0.5445,0.2811,0.8456,2159
6,-0.7476,-0.5164,-0.6892,0.7641,0.0723,0.7383,2000
6,-0.8472,-0.5918,-0.7185,0.9122,-0.2127,0.5027,2003
6,-1.1003,-0.7644,-0.6069,0.8568,-0.2943,0.5352,2026
6,-1.4124,-0.9629,-0.8481,0.4458,-0.1282,0.2356,1944
6,-1.4475,-1.0803,-0.5674,-0.1826,-0.0535,0.0573,2000
6,-0.8252,-1.1099,-0.6199,-0.6096,0.2565,0.1727,2081
6,-0.3132,-1.0386,-0.6875,-0.9096,0.5452,0.1808,2169
6,-0.1638,-0.8518,-0.6128,-0.8686,0.4301,0.1193,1954
6,-0.3215,-0.5671,-0.6494,-0.5512,0.2995,-0.1434,2140
6,-0.5542,-0.3899,-0.6306,-0.081,0.2943,-0.4398,1865
6,-0.7417,-0.4412,-0.5115,0.2207,0.3183,-0.666,1974
6,-0.6528,-0.8245,-0.6394,0.0071,0.6267,-0.6817,1878
6,-0.4346,-0.9297,-0.6921,-0.073,0.8216,-0.4593,2031
6,-0.2659,-1.032,-0.6641,-0.1722,0.6035,-0.3678,2036
6,-0.1772,-1.1252,-0.6895,-0.1194,0.6562,-0.2217,2131
6,-0.1353,-0.9512,-0.7346,-0.0012,0.8004,-0.2296,1936
6,-0.2629,-0.8257,-0.625,0.0997,0.8641,-0.2758,2067
6,-0.3806,-0.7573,-0.5217,0.1229,0.9343,-0.3561,1839
6,-0.4778,-0.8279,-0.5557,0.0951,0.9107,-0.4476,2000
6,-0.5828,-0.8364,-0.5669,0.0684,0.8222,-0.5469,1982
6,-0.6611,-0.9038,-0.5864,0.0178,0.6361,-0.6505,2018
6,-0.5869,-0.8196,-0.6274,0.0128,0.5026,-0.7823,1967
6,-0.5698,-0.6514,-0.5615,-0.12,0.4579,-1.1187,2236
6,-0.4446,-0.499,-0.5632,0.0017,0.4256,-1.352,1917
6,-0.3596,-0.614,-0.6208,0.1362,0.5454,-1.5026,2174
6,-0.3374,-0.9158,-0.594,0.204,0.6357,-1.4769,2074
6,-0.3877,-1.0842,-0.5745,0.1559,0.8586,-1.5082,2040
6,-0.51,-1.2109,-0.6926,-0.0152,1.1298,-1.4989,2063
6,-0.6641,-1.2947,-0.8586,-0.1433,1.2805,-1.536,1993
6,-0.6287,-1.1023,-0.8489,-0.0995,1.2165,-1.5312,2075
6,-0.573,-0.8831,-0.8936,0.0317,1.1784,-1.6125,2148
6,-0.5149,-0.9502,-0.8811,0.182,1.1049,-1.7082,1976
6,-0.5083,-1.1724,-0.7893,0.2815,1.0226,-1.7199,2144
6,-0.5134,-1.3147,-0.7451,0.3165,1.0737,-1.7068,1926
6,-0.6177,-1.4517,-0.7117,0.3333,1.2633,-1.762,2120
6,-0.698,-1.5264,-0.8679,0.3309,1.4396,-1.8037,2247
6,-0.7849,-1.6392,-0.9402,0.2852,1.5001,-1.8294,2106
6,-0.8884,-1.6648,-1.031,0.2647,1.4676,-1.9237,1970
6,-0.9167,-1.5901,-1.144,0.3041,1.4358,-1.9812,2120
6,-0.9695,-1.4819,-1.1799,0.4786,1.4006,-2.1526,2034
6,-1.0706,-1.3621,-1.26,0.5438,1.5711,-2.4537,2064
6,-1.2007,-1.1982,-1.2744,0.634,1.9875,-2.9657,1954
6,-1.2703,-1.1667,-1.4561,0.7004,2.0261,-3.2926,2032
6,-1.2107,-1.1477,-1.4539,0.9013,2.0438,-3.6636,2059
6,-1.0549,-1.1565,-1.5137,1.1176,2.1543,-4.0795,2158
6,-1.0403,-1.1785,-1.4341,1.3802,1.97,-4.3635,2144
6,-1.875,-0.5859,-1.3411,2.5771,0.2812,-4.0712,2064
6,-1.7297,-1.4539,-1.6038,2.4609,2.5072,-3.8089,2243
6,0.2646,-1.344,-1.4158,1.2007,4.3634,-4.3635,1830
6,-1.6958,-1.627,-1.875,1.375,2.3827,-4.3635,2092
6,-1.9949,-1.1257,-1.4441,1.329,1.7827,-4.3635,1941
6,-1.999,-0.4644,-1.4375,1.3274,1.9864,-4.3635,2035
6,-2.0,-0.3018,-1.2397,0.7568,1.6801,-4.3635,1968
6,-2.0,0.146,-0.9607,0.6063,1.4957,-3.4958,2080
6,-2.0,0.7344,-0.9922,0.2721,0.6324,-2.8835,2098
6,-2.0,1.4331,-0.4749,0.2633,-0.4895,-2.2515,2139
6,-2.0,1.9999,-0.4834,-0.2297,-0.8035,-1.5555,2071
6,-2.0,1.9999,-0.7185,-0.1603,-0.649,-0.9986,2090
6,-1.5754,1.9999,-1.0991,0.7857,-0.263,0.1052,2046
6,-0.4316,1.9999,-0.4082,1.7393,-0.2619,-0.0912,2162
6,1.5684,-1.1638,0.2249,0.8016,-1.7695,-2.4522,2225
6,1.4814,-2.0,-2.0,4.3634,-0.1057,-1.3572,2109
6,-1.4458,-2.0,1.9999,-4.3635,-0.6679,-0.343,2098
6,1.9999,-2.0,1.9999,-4.3635,-4.3635,-4.3635,1971
6,-0.1514,1.9999,-0.7837,-4.3635,1.5106,-4.3635,2077
6,-2.0,1.9999,-2.0,-2.8779,-2.6601,-1.2611,2311
6,-0.2327,1.9999,-1.9653,2.6971,0.7094,4.3634,2350
6,0.0769,-0.5049,-1.0676,2.8295,2.7754,4.3634,2011
6,-1.2732,-1.8096,-0.7656,1.5613,0.3196,4.3634,2485
6,-2.0,-1.6167,-0.8242,1.0861,-0.6276,4.3634,1801
6,-0.7625,-0.7688,-0.8032,1.152,-1.608,4.3634,2143
6,-0.9802,-0.3076,-0.6584,0.287,-2.6018,4.3634,2487
6,-1.3433,0.1831,-0.7563,0.4984,-3.0883,4.3634,1904
7,-1.387,0.24,-0.7656,0.505,-3.3821,4.3634,2108
7,-1.3364,-0.2615,-0.9622,0.4858,-3.6741,4.3634,1778
7,-1.2271,-0.929,-0.8938,0.2047,-3.7555,4.3634,2158
7,-1.0881,-1.4546,-0.6816,-0.4177,-4.0391,4.0748,1748
7,-0.9302,-1.5686,-0.6177,-0.9652,-4.1833,3.1686,2032
7,-0.6536,-1.5188,-0.4573,-1.2829,-4.1117,2.5778,2108
7,-0.498,-1.6206,-0.7083,-1.3761,-3.91,2.1224,1718
7,-0.2332,-1.9495,-0.8521,-1.3258,-3.8992,1.733,1820
7,0.5071,-1.7822,-0.8511,-1.1776,-3.7051,1.6656,2024
7,0.6421,-1.4946,-0.8965,-1.0537,-3.1878,1.7825,2325
7,0.4487,-1.4175,-0.8735,-0.7167,-2.8847,2.0656,2133
7,0.4004,-1.4453,-0.75,-0.4285,-2.3618,2.1968,2187
7,0.2937,-1.3723,-0.6575,-0.2826,-1.8002,2.2882,1921
7,0.082,-1.2034,-0.7856,-0.1057,-1.4822,2.328,1993
7,0.2043,-0.9346,-0.6267,0.1159,-1.1864,2.2819,2136
7,-0.011,-0.7827,-0.5269,0.2509,-0.9034,2.0494,1439
7,-0.1946,-0.6504,-0.4766,0.2866,-0.8618,1.8939,2258
7,-0.1936,-0.4023,-0.3569,0.2164,-0.5493,1.7551,1905
7,-0.3623,-0.2642,-0.3115,0.1535,-0.4607,1.5067,2182
7,-0.4739,-0.176,-0.251,0.0194,-0.3476,1.4078,2198
7,-0.5706,-0.1462,-0.304,-0.0947,-0.1534,1.227,2032
7,-0.615,-0.0547,-0.2678,-0.2039,0.0021,1.0327,1744
7,-0.3943,0.1123,-0.4141,-0.0024,-0.1128,0.9552,2028
7,-0.5938,0.1956,-0.25,0.0079,0.2064,0.6084,2371
7,-0.5969,0.2725,-0.2327,0.2982,0.2052,0.562,2098
7,-0.5815,0.3149,-0.2317,0.4754,0.4016,0.5389,2121
7,-0.5688,0.3625,-0.2144,0.7618,0.402,0.5721,2042
7,-0.5388,0.4487,-0.1565,0.8795,0.0871,0.6683,1876
7,-0.5388,0.5408,-0.3894,0.948,-0.3714,0.8075,1889
7,-0.8203,0.603,-0.6592,1.2134,-1.0517,0.8811,1892
7,-0.9707,0.5635,-0.7095,1.447,-1.2969,0.8748,2010
7,-1.1409,0.3081,-0.6956,1.4639,-1.0993,0.7977,2066
7,-1.3655,0.0696,-0.8777,1.2322,-0.4987,0.8967,2027
7,-1.373,0.0293,-1.0752,0.9764,0.0288,0.8833,2131
7,-1.2935,-0.0054,-1.0347,0.6933,0.136,0.8807,2069
7,-1.1638,-0.1526,-1.1089,0.3655,0.0378,0.8247,2053
7,-1.0859,-0.3496,-1.0371,-0.1545,-0.0702,0.7011,2091
7,-0.9106,-0.3157,-1.0156,-0.2457,-0.1268,0.7179,2230
7,-0.6877,-0.3044,-0.7051,0.0539,-0.6051,0.759,2018
7,-0.7104,-0.1682,-0.4722,0.614,-0.7763,0.59,2030
7,-0.9917,-0.2827,-0.4731,1.2901,-0.5111,0.5035,2159
7,-1.2307,-0.8567,-0.5024,1.5197,0.1981,1.0334,2078
7,-1.436,-1.3279,-0.2664,0.8472,0.1193,0.9483,2129
7,-1.3608,-0.9766,-0.1035,0.4358,0.5791,0.8479,2142
7,-1.272,-0.939,-0.4014,0.4952,0.7734,1.1338,1983
7,-1.105,-1.0618,-0.676,-0.2844,0.9741,1.2965,2218
7,-0.8123,-0.7412,-0.9629,-1.0729,1.3271,0.3051,2105
7,-0.3369,-0.4268,-1.0952,-1.0773,0.8131,0.0867,2039
7,-0.2017,-0.2288,-1.0684,-0.5731,0.1876,-0.0349,2026
7,-0.3289,-0.2192,-0.7422,0.0691,-0.5156,-0.0213,2128
7,-0.5935,-0.3538,-0.5256,0.3984,-0.4509,0.1117,2139
7,-0.803,-0.4973,-0.5432,0.3715,0.2558,0.0509,1999
7,-0.7639,-0.7073,-0.5366,0.2416,0.622,0.0555,2044
7,-0.6177,-0.865,-0.5815,-0.006,0.8175,-0.0052,2072
7,-0.3875,-0.8247,-0.6423,-0.0522,0.644,-0.0134,2053
7,-0.2708,-0.844,-0.7134,0.0176,0.4203,-0.0108,2010
7,-0.3191,-0.9978,-0.7322,0.0222,0.4059,-0.0695,2140
7,-0.3501,-1.0515,-0.7009,-0.0491,0.3253,-0.0923,2054
7,-0.3381,-0.873,-0.708,-0.1433,0.4334,-0.1728,2124
7,-0.3181,-0.7537,-0.7539,-0.0999,0.5669,-0.2019,2153
7,-0.3533,-0.6619,-0.7007,-0.0289,0.569,-0.2689,2137
7,-0.3613,-0.6704,-0.6135,-0.019,0.5999,-0.395,2067
7,-0.384,-0.728,-0.5659,-0.0112,0.6357,-0.5526,2080
7,-0.4236,-0.8599,-0.5149,-0.0961,0.6921,-0.7127,2121
7,-0.4331,-0.9019,-0.5413,-0.1254,0.8291,-0.8397,2055
7,-0.4497,-0.9448,-0.6384,-0.182,0.8642,-1.1288,1903
7,-0.4382,-0.8037,-0.6338,-0.2301,0.9428,-1.3547,2046
7,-0.3774,-0.698,-0.7371,0.0443,1.0074,-1.451,2029
7,-0.3389,-0.8047,-0.7563,0.2682,1.1306,-1.5225,2050
7,-0.364,-1.0007,-0.6724,0.4474,1.2234,-1.5146,2013
7,-0.4622,-1.1321,-0.6243,0.4924,1.23,-1.5077,2128
7,-0.4954,-1.2251,-0.583,0.5513,1.2517,-1.5073,1969
7,-0.5723,-1.3096,-0.6438,0.563,1.3802,-1.6049,2008
7,-0.6333,-1.4214,-0.7793,0.664,1.417,-1.7916,2044
7,-0.7393,-1.5632,-0.8518,0.7451,1.3604,-2.0245,1967
7,-0.8276,-1.6206,-0.9192,0.8333,1.5009,-2.2254,2109
7,-0.8884,-1.7195,-0.9753,0.9179,1.7563,-2.3228,1969
7,-0.8872,-1.7756,-1.0684,1.0274,1.711,-2.3459,1914
7,-0.9431,-1.7588,-1.0945,1.1101,1.7562,-2.6537,2023
7,-1.1555,-1.7725,-1.1008,1.177,1.3901,-3.0198,2023
7,-1.3379,-1.8201,-1.3232,1.278,1.289,-3.4577,2226
7,-1.4993,-1.8945,-1.4175,1.3876,1.0998,-4.1443,2010
7,-1.6086,-1.9878,-1.4719,1.4183,0.9694,-4.3635,1974
7,-1.6609,-1.9685,-1.5867,1.2468,1.0489,-4.3635,1863
7,-1.595,-1.7981,-1.8147,1.2118,1.1348,-4.3635,2122
7,-1.7476,-1.7236,-1.9443,1.2174,1.5693,-4.3635,2041
7,-2.0,-1.4614,-1.8364,1.5527,1.5121,-4.3635,1864
7,-2.0,-0.8613,-1.8711,1.6849,2.3915,-4.3635,2058
7,-2.0,-0.7881,-1.7512,1.0692,3.0732,-4.3635,2136
7,-2.0,-0.4319,-1.4788,0.8058,2.6284,-4.3635,2167
7,-2.0,0.0698,-1.125,0.9392,2.2053,-4.1928,2022
7,-2.0,0.613,-1.0981,0.3432,1.9524,-4.1289,1944
7,-2.0,0.8577,-0.9077,0.5405,1.0122,-3.4033,2125
7,-1.9409,1.446,-0.5049,0.2935,-0.35,-3.0846,2030
7,-2.0,1.8413,-0.3081,0.2621,-0.9609,-2.553,2163
7,-2.0,1.8848,-0.4158,0.124,-0.965,-1.99,2032
7,-1.7864,1.9999,-0.282,0.1812,-0.747,-1.6602,2127
7,-1.3008,1.9999,-0.4646,0.6192,0.4051,-1.4315,1996
7,-0.3613,1.5298,-0.7471,1.7972,0.9444,-1.5343,2073
8,1.3335,-0.6587,-0.1455,2.737,0.2246,-1.7374,1835
8,1.9999,-2.0,-2.0,4.3634,1.0989,-3.7123,1901
8,1.8767,-2.0,1.9999,-4.3635,-4.3635,-3.4343,2136
8,1.9999,-2.0,1.9999,-4.3635,-4.3635,-0.4263,2290
8,-0.4373,1.9999,-0.929,-4.3635,-1.9823,-4.3635,2068
8,-2.0,1.9999,-1.8445,-3.6316,1.6103,-4.3635,1826
8,-1.5798,1.9999,-2.0,2.3491,-1.17,4.3634,2278
8,-0.604,0.0896,-1.9534,3.6059,2.0279,4.3634,2570
8,-1.3379,-1.9841,-0.8059,2.6545,0.3493,4.3634,1955
8,-1.1807,-1.4055,-1.1636,2.3437,-0.5877,4.3634,2021
8,-0.4856,-0.801,-1.0186,2.3775,-1.6859,4.3634,2499
8,-0.9648,-0.0315,-0.6416,1.605,-1.9475,4.3634,2074
8,-1.1392,0.5496,-0.7378,1.698,-2.1073,4.3634,1993
8,-0.8318,0.1377,-0.3877,1.4936,-2.0136,4.3634,1727
8,-0.5569,-0.8875,-0.4189,1.1428,-2.4446,4.3634,2305
8,-0.8049,-1.3984,0.0156,0.3926,-2.6686,4.3634,1789
8,-0.9299,-1.3064,-0.2544,-0.4833,-3.012,3.424,2505
8,-0.6936,-0.9907,-0.0479,-0.9818,-3.3154,2.5886,2245
8,-0.3347,-1.147,-0.3303,-1.5334,-3.2147,1.7556,1959
8,-0.1218,-1.5344,-0.5625,-1.7622,-2.7354,1.2524,2395
8,0.0583,-1.345,-0.6838,-1.9136,-2.3085,1.2119,2631
8,0.3301,-0.9177,-0.8474,-1.8385,-1.8614,1.4828,1332
8,0.4807,-0.7178,-0.8066,-1.6355,-1.3916,1.7143,2255
8,0.5125,-0.6409,-0.7183,-1.3776,-1.0067,1.8963,2361
8,0.363,-0.7415,-0.6956,-1.0296,-0.647,2.1405,1736
8,0.2188,-0.8782,-0.6731,-0.6409,-0.2979,2.0843,2896
8,0.1221,-0.875,-0.4575,-0.2036,0.0575,1.9769,1999
8,0.0608,-0.6365,-0.3975,0.2554,0.3715,1.8944,2282
8,-0.1609,-0.4927,-0.2324,0.4083,0.6529,1.7725,2363
8,-0.2927,-0.2681,-0.3582,0.6164,0.5524,1.5808,2197
8,-0.4553,-0.0796,-0.3171,0.696,0.3956,1.372,2504
8,-0.8435,-0.0662,-0.4009,0.4805,0.583,1.1511,2187
8,-1.0247,-0.1296,-0.2483,0.2597,0.7313,1.019,2353
8,-1.1196,-0.0391,-0.0767,0.1147,0.7518,1.0401,2020
8,-1.1116,0.0364,-0.0161,-0.1238,0.7199,1.1204,2180
8,-1.0652,0.0496,-0.0195,-0.1775,0.4919,1.1832,2128
8,-0.9062,0.2112,-0.135,-0.0989,0.1069,1.2983,2005
8,-0.8953,0.3862,-0.3025,-0.0296,-0.1121,1.2391,2021
8,-0.7598,0.5322,-0.5728,0.0431,-0.5099,1.5057,2135
8,-0.6824,0.6819,-0.7866,-0.0678,-0.6829,1.4504,2047
8,-0.6829,0.7515,-0.8481,-0.1746,-0.8356,1.2202,2173
8,-0.7671,0.7539,-0.906,-0.1965,-1.0005,1.0937,1711
8,-0.7646,0.6584,-1.0164,-0.0959,-1.2467,1.0194,1915
8,-1.127,0.5139,-1.0588,-0.1241,-1.9515,0.747,2000
8,-1.2043,0.2981,-1.1138,0.2309,-2.0836,0.5461,1949
8,-1.3838,-0.1609,-1.0405,0.488,-1.8749,0.876,1976
8,-1.5962,-0.7046,-1.0544,0.5999,-0.9424,1.396,2090
8,-1.4602,-0.9573,-0.821,0.6727,-0.0514,1.7094,2074
8,-1.4451,-0.8962,-0.5161,0.963,0.2814,1.5483,2082
8,-1.6479,-0.9929,-0.4932,1.012,0.4545,1.5384,1864
8,-1.7734,-1.4954,-0.4895,0.2966,0.3332,1.6177,2360
8,-1.6318,-1.6226,-0.7371,-0.3172,0.1537,1.547,1987
8,-1.3086,-1.2852,-0.6604,-0.6492,-0.1346,1.5111,2059
8,-1.1802,-1.0857,-0.615,-0.6227,-0.5044,1.5909,2048
8,-0.8826,-0.9795,-0.8062,-1.0477,-0.3113,1.2607,1937
8,-0.5417,-0.8308,-0.9214,-1.3786,-0.512,0.881,1808
8,-0.3264,-0.5928,-1.0464,-1.3964,-0.4778,0.4361,2090
8,-0.2441,-0.5068,-1.082,-1.0805,-0.5662,0.1844,2084
8,-0.2114,-0.6145,-0.9658,-0.7919,-0.6739,0.2666,2012
8,-0.2209,-0.8345,-0.9392,-0.3389,-0.4878,0.5079,1936
8,-0.3662,-1.0686,-0.8623,-0.2145,-0.1048,0.7927,2044
8,-0.4705,-1.0647,-0.8391,-0.1585,0.1109,1.1312,2036
8,-0.4114,-1.0151,-0.9661,-0.1747,0.6574,1.0648,2044
8,-0.384,-1.0344,-0.8774,-0.0928,0.9191,0.7861,2124
8,-0.3027,-1.0959,-0.8347,-0.0134,0.6715,0.787,1986
8,-0.3003,-1.0615,-0.8032,-0.0148,0.6253,0.6612,2118
8,-0.4058,-1.0259,-0.7227,-0.037,0.6695,0.5277,2068
8,-0.4443,-0.9871,-0.6851,-0.1292,0.717,0.398,1857
8,-0.4592,-0.874,-0.6165,-0.2185,0.7878,0.155,2082
8,-0.4285,-0.7078,-0.5903,-0.2332,0.7267,-0.1131,2104
8,-0.4319,-0.5662,-0.5928,-0.0734,0.6781,-0.3097,2040
8,-0.4946,-0.5632,-0.5452,0.128,0.5815,-0.4597,2064
8,-0.5093,-0.6021,-0.4661,0.2621,0.5189,-0.6324,1904
8,-0.468,-0.623,-0.4773,0.3811,0.5922,-0.7995,2021
8,-0.4836,-0.689,-0.4712,0.4235,0.5059,-0.9949,2091
8,-0.5522,-0.7258,-0.5156,0.473,0.5292,-1.1461,2061
8,-0.5254,-0.7271,-0.5254,0.5098,0.6805,-1.2411,2154
8,-0.4775,-0.7998,-0.6128,0.7561,0.8949,-1.4388,2075
8,-0.4592,-0.9695,-0.8206,0.9359,1.0407,-1.6066,2090
8,-0.4758,-1.0544,-0.9631,1.1009,1.1202,-1.5314,1937
8,-0.5352,-1.0283,-1.0789,1.1344,1.2983,-1.5957,2201
8,-0.5342,-0.9897,-1.209,1.1087,1.4038,-1.6647,1980
8,-0.6255,-0.9556,-1.1943,1.0664,1.4825,-1.6801,2106
8,-0.6548,-0.9241,-1.1584,1.1111,1.4901,-1.6339,2203
8,-0.6765,-0.9419,-1.2017,1.0107,1.5647,-1.6102,1967
8,-0.7886,-0.9075,-1.2029,1.0026,1.7936,-1.8548,2103
8,-0.8381,-0.9109,-1.1748,1.0054,1.9202,-2.002,2047
8,-0.9343,-0.9429,-1.2163,0.9995,2.2261,-2.1285,1874
8,-1.0745,-0.9944,-1.2134,1.0821,2.2751,-2.2252,2069
8,-1.1045,-1.0872,-1.1343,1.3047,2.2901,-2.1812,1913
8,-1.1055,-1.1938,-0.9463,1.3635,2.1121,-2.0931,2021
8,-1.1919,-1.1843,-0.9287,1.4751,1.9455,-2.2326,1654
8,-1.7136,-1.3142,-1.0627,1.16,1.7237,-3.002,1928
8,-1.4614,-0.6116,-0.4734,2.4896,0.5034,-2.6406,1941
8,-1.6084,-1.3301,-1.8242,2.1735,2.3341,-3.0091,2114
8,-0.7224,-1.6025,-1.032,2.8711,3.6507,-3.9752,2089
8,-1.0759,-1.2258,-1.2451,2.7892,1.4609,-3.9865,2152
8,-1.1467,-1.4048,-1.6882,2.9241,1.4932,-4.3635,1993
8,-1.3079,-1.4336,-1.6213,3.0677,1.3599,-4.3635,2031
8,-1.2654,-1.334,-1.7664,3.2822,1.3852,-4.3635,2076
8,-1.1465,-0.9561,-1.7993,3.3375,1.4629,-4.3635,2073
8,-1.2712,-0.5378,-1.6995,3.3519,1.3792,-4.2277,2105
8,-1.3525,-0.2024,-1.696,3.1361,1.3496,-3.9938,2165
8,-1.4028,0.0466,-1.5139,2.8432,1.3271,-3.7186,2018
8,-1.6179,0.4062,-1.3013,2.4669,1.2716,-3.4794,2067
8,-1.5696,0.7493,-0.7273,1.9829,0.6407,-3.5274,2164
9,-1.604,1.251,-0.6758,0.8819,0.4966,-3.2689,1965
9,-1.4138,1.6309,-0.4636,0.1776,-0.1256,-2.8508,2013
9,-0.9534,1.9287,-0.6392,-0.5112,-0.4669,-2.7392,2070
9,-0.5635,1.9999,-1.0168,-0.2827,-0.3393,-2.7042,2113
9,-0.0037,1.4143,-0.9905,0.3642,0.0334,-2.1124,1876
9,0.5117,-0.0911,-0.6772,0.4429,0.5698,-2.2706,2155
9,1.1692,-1.2295,-0.4199,0.5532,-0.9308,-2.1418,1666
9,1.9999,-2.0,-1.7683,2.9858,0.8301,-4.3635,2200
9,-2.0,-2.0,-1.23,-4.3114,-3.8803,-0.7846,2506
9,1.9999,-2.0,1.9999,-1.6329,-4.3635,1.2809,1963
9,1.9999,1.0439,-0.7842,-1.6629,-0.9239,-2.4201,2037
9,-1.6958,1.9999,-2.0,-3.6615,3.1714,-4.3635,1856
9,-0.8845,1.9999,-1.8999,2.9433,-1.8441,4.3634,2022
9,-0.729,0.1963,-2.0,2.7257,2.0268,4.3634,1582
9,-1.3555,-1.7915,-1.5527,2.2999,0.6084,4.3634,2119
9,-0.9336,-1.615,-1.7913,1.0352,-0.5671,4.3634,1942
9,-0.2561,0.3523,-1.3259,0.5879,-1.3997,4.3634,2226
9,-0.4202,0.686,-0.698,0.8811,-2.0987,4.3634,1996
9,-0.2468,-0.0989,-0.645,1.2959,-2.3728,4.3634,2399
9,-0.5227,-0.8613,-0.3923,1.1612,-2.2142,4.3634,1995
9,-0.4846,-1.0999,-0.2961,0.8349,-2.1341,4.3634,1656
9,-0.2908,-1.0654,-0.2832,0.2457,-2.2643,3.8604,2075
9,-0.2671,-0.8586,-0.3735,-0.2747,-2.3756,2.9047,2050
9,-0.2334,-0.8259,-0.5532,-0.9417,-2.1807,2.0911,2029
9,-0.0852,-0.9587,-0.5686,-1.2359,-1.8988,1.5992,2054
9,0.0093,-1.1353,-0.5754,-1.3742,-1.5299,1.3396,1716
9,0.0994,-1.0576,-0.5542,-1.5335,-1.1379,1.3789,2001
9,0.0742,-0.9226,-0.5867,-1.6551,-0.7339,1.5972,2217
9,0.0129,-0.9548,-0.6267,-1.6444,-0.6753,1.7654,1815
9,-0.0237,-0.938,-0.5918,-1.5745,-0.4038,1.8791,1996
9,-0.1082,-0.9541,-0.5176,-1.4374,-0.1939,1.9369,2032
9,-0.0552,-0.834,-0.572,-0.8733,-0.0682,1.9112,2147
9,-0.0999,-0.7683,-0.5513,-0.2272,0.1298,1.9477,2024
9,-0.2808,-0.7031,-0.3948,0.1661,0.4209,1.9072,2020
9,-0.3853,-0.5979,-0.2673,0.2469,0.4052,1.8377,1993
9,-0.5625,-0.4453,-0.2839,0.11,0.1461,1.902,2026
9,-0.7812,-0.3621,-0.3572,-0.0999,-0.1855,1.9738,1972
9,-0.9568,-0.3228,-0.3728,-0.2737,-0.5433,2.014,2031
9,-1.0496,-0.2947,-0.4568,-0.5312,-0.6885,1.9355,2012
9,-1.0793,-0.2764,-0.6064,-0.8034,-0.7839,1.8146,1974
9,-1.0964,-0.4331,-0.7039,-0.8058,-0.5064,1.4568,2061
9,-1.0518,-0.4351,-0.6096,-0.7556,-0.3342,1.0629,2061
9,-0.8914,-0.2917,-0.4246,-0.7447,-0.2559,0.8271,2170
9,-0.824,-0.24,-0.2627,-0.7023,-0.6614,0.8253,2115
9,-0.751,-0.2302,-0.2656,-0.8546,-1.2437,0.891,2064
9,-0.8496,-0.2063,-0.3228,-0.7325,-1.6953,0.9541,2001
9,-0.9834,-0.1804,-0.3992,-0.7223,-1.9567,1.1075,2005
9,-1.0283,-0.1672,-0.5156,-0.7498,-2.1292,1.2042,2063
9,-1.0374,-0.1267,-0.6277,-0.5594,-2.1329,1.0761,2042
9,-1.0483,-0.1287,-0.7903,-0.4894,-2.026,0.9088,2099
9,-1.0293,-0.1777,-0.8721,-0.4695,-1.7504,0.7895,2054
9,-0.9395,-0.2219,-0.9246,-0.2872,-1.5708,0.7124,1915
9,-0.8354,-0.2786,-0.9424,-0.142,-1.3692,0.8436,2152
9,-0.8054,-0.375,-0.948,-0.1092,-1.0332,0.9825,2072
9,-0.7917,-0.4966,-0.9363,-0.2879,-0.9489,1.0239,2032
9,-0.7107,-0.5525,-0.9792,-0.3344,-1.2579,1.1637,2120
9,-0.801,-0.6348,-0.9875,-0.4219,-1.4146,1.024,2037
9,-0.8528,-0.6909,-1.0818,-0.4044,-1.6322,0.9926,2095
9,-1.0696,-0.9167,-1.073,-0.2995,-1.499,0.9512,1963
9,-1.1091,-1.0342,-1.0078,-0.2278,-1.1286,0.9118,2039
9,-0.9727,-1.1055,-0.947,-0.0463,-0.8184,1.1148,2092
9,-0.8025,-1.2249,-0.9036,-0.0688,-0.4826,1.2002,2065
9,-0.7639,-1.249,-0.9067,-0.1224,0.0772,1.2549,2041
9,-0.7522,-0.9771,-0.7031,-0.2481,0.2164,1.2437,2059
9,-0.6221,-0.8047,-0.6272,-0.0896,0.3747,1.0959,2075
9,-0.5776,-1.1799,-0.8279,0.0936,0.4631,1.06,2100
9,-0.645,-1.4578,-0.9331,-0.041,0.5666,0.9685,1951
9,-0.6675,-1.2844,-0.8728,-0.6264,0.594,0.6644,2046
9,-0.4636,-0.9866,-0.8052,-0.8003,0.4552,0.5024,1955
9,-0.2803,-0.8562,-0.7407,-0.6228,0.3013,0.2565,2063
9,-0.2349,-0.887,-0.6274,-0.4099,0.2886,0.2505,2064
9,-0.26,-0.9109,-0.5715,-0.1027,0.3093,0.2721,2061
9,-0.3726,-0.8359,-0.5857,0.0574,0.3781,0.2586,2046
9,-0.4475,-0.7864,-0.7039,0.1613,0.4322,0.2305,2061
9,-0.4016,-0.7537,-0.793,0.2155,0.518,0.1023,2057
9,-0.3464,-0.7065,-0.824,0.2972,0.4765,-0.002,1986
9,-0.3677,-0.6782,-0.8386,0.339,0.4417,-0.143,2047
9,-0.3796,-0.7014,-0.8303,0.405,0.2882,-0.208,2062
9,-0.3723,-0.7705,-0.8452,0.4489,0.3474,-0.3674,2113
9,-0.4424,-0.801,-0.8018,0.4742,0.4079,-0.4864,2062
9,-0.3972,-0.814,-0.7866,0.4032,0.4277,-0.5056,2046
9,-0.3855,-0.8384,-0.8198,0.4594,0.6715,-0.6211,2067
9,-0.3569,-0.8757,-0.7749,0.4986,0.7429,-0.702,2039
9,-0.396,-0.8662,-0.7844,0.5368,0.7673,-0.813,2004
9,-0.4407,-0.8308,-0.7603,0.5984,0.8341,-0.885,2106
9,-0.4824,-0.8396,-0.7463,0.5598,0.9028,-0.9416,2063
9,-0.5068,-0.8389,-0.7798,0.6187,0.8618,-1.0316,2027
9,-0.5913,-0.8965,-0.8162,0.5931,0.9331,-1.1523,2009
9,-0.6404,-0.9028,-0.8708,0.5464,1.0179,-1.177,1971
9,-0.6765,-0.877,-0.8777,0.4898,1.1608,-1.2948,2112
9,-0.6577,-0.8721,-0.9985,0.5104,1.4062,-1.3846,2134
9,-0.6189,-0.9167,-1.0911,0.5786,1.6859,-1.4794,2122
9,-0.5825,-1.0071,-1.0923,0.6428,1.8579,-1.5787,2111
9,-0.5574,-1.0361,-1.0403,0.6079,1.8109,-1.6575,2028
9,-0.6055,-1.0178,-0.9937,0.6,1.7554,-1.6986,2071
9,-0.7358,-0.9458,-0.9934,0.6128,1.8092,-1.7917,2079
9,-0.835,-0.8999,-1.1489,0.5719,1.8788,-1.9072,2078
9,-0.9031,-0.98,-1.2534,0.563,2.1011,-2.2019,1984
9,-0.8977,-1.0569,-1.304,0.622,1.9333,-2.4161,2062
9,-0.7732,-1.144,-1.24,0.8625,2.129,-2.5233,1968
9,-2.0,1.9634,0.457,-0.4064,0.3024,-2.7596,2077
10,1.9999,-2.0,-0.8457,4.3256,4.3634,-1.533,2124
10,0.1191,-2.0,-1.0789,2.3408,4.3634,-2.1072,1997
10,-0.6733,-1.8916,-0.9705,1.3493,3.7696,-2.8862,2011
10,-0.8918,-1.3113,-1.0684,1.2367,2.6205,-4.2118,1965
10,-0.9231,-1.2656,-1.2239,1.5095,1.9122,-4.0428,2050
10,-1.1711,-1.0056,-1.2625,1.7033,1.2944,-3.6573,1937
10,-1.8271,-0.7007,-1.1045,1.8337,0.6729,-4.1335,2159
10,-1.7993,-0.812,-0.9958,2.102,0.3223,-3.6054,2076
10,-1.6455,-0.6223,-1.1028,2.4494,0.5165,-3.855,2121
10,-0.5879,-1.416,-1.8376,2.6181,1.3248,-3.444,2202
10,-0.3738,-0.8691,-1.3481,1.1322,2.6967,-4.1567,1989
10,-1.512,-0.05,-0.9009,1.4101,0.9412,-3.411,2134
10,-0.9148,0.573,-1.1978,0.7345,0.1958,-4.0354,2026
10,-1.1672,0.6545,-0.7788,1.2878,-0.7645,-2.844,2017
10,-1.3137,1.0068,-0.623,0.9709,-1.0733,-2.2529,2122
10,-0.8928,1.2708,-0.5093,1.0182,-0.5757,-2.2674,2030
10,-0.312,1.1829,-0.6184,0.9424,-0.1442,-2.3495,1998
10,0.1631,0.9414,-0.3728,1.2319,-0.0739,-2.1403,2015
10,0.3757,0.99,-0.2642,1.386,0.0475,-2.0009,1886
10,0.645,0.8469,-0.614,2.0527,0.8299,-2.0542,1985
10,0.49,0.1909,-0.408,2.4629,0.643,-1.5044,2152
10,1.6089,-2.0,-0.3372,-0.0192,-0.824,-2.4531,2159
10,0.3057,-2.0,-2.0,3.6673,1.1042,0.4653,1809
10,1.9999,-2.0,1.9999,-4.3635,-4.2082,-4.3635,1978
10,1.9999,-1.5208,1.9999,-3.3672,-4.3635,-4.3635,2150
10,-2.0,1.9999,-1.5129,-4.3635,0.4276,-4.3635,2275
10,-2.0,1.9999,-0.6304,-0.373,-1.6656,2.9203,1726
10,-2.0,1.9999,-1.604,3.432,0.5722,4.3634,2062
10,-0.0232,0.6082,-2.0,2.9449,4.3634,4.3634,2381
10,-0.0388,-1.1892,-1.0393,2.422,3.3228,3.3218,2004
10,0.0083,-1.1636,-0.9612,1.7704,0.9095,4.3634,1969
10,0.1257,0.1907,-1.0562,1.3446,-0.3915,4.3634,2034
10,0.239,0.5342,-0.7625,1.7257,-0.5634,4.3634,2022
10,-0.0364,0.0603,-0.8545,2.0614,-0.365,3.3861,1991
10,-0.1313,-0.543,-0.7776,2.1754,-0.9957,2.7862,2063
10,0.1846,-0.9802,-0.7974,2.0558,-0.9863,2.3212,2064
10,-0.0403,-1.1169,-0.8359,1.7036,-0.0354,2.1682,2072
10,-0.2393,-1.0469,-0.6228,0.9092,0.8468,2.3625,2068
10,-0.2637,-1.0676,-0.6372,0.4065,1.0204,2.5619,2037
10,-0.0105,-1.2117,-0.9927,0.0664,1.0785,2.5406,2049
10,-0.0889,-1.2085,-0.7329,-0.1715,0.5472,2.8084,2057
10,-0.2087,-0.8694,-0.8608,-0.4488,0.6661,2.9878,2067
10,-0.2712,-0.8992,-1.0488,-0.4904,0.9733,2.8634,2032
10,-0.0884,-1.0444,-0.9065,-0.2152,0.6317,3.2501,2035
10,0.123,-1.2957,-0.9216,-0.1446,0.7112,3.2448,2058
10,0.2039,-1.5623,-0.7234,0.2585,0.8548,3.3588,2026
10,0.0532,-1.7307,-0.5903,0.3185,1.0187,3.49,1990
10,-0.4351,-1.812,-0.5505,0.1771,1.0115,3.287,1993
10,-0.8535,-1.7349,-0.6367,0.0063,0.7035,3.1331,2058
10,-1.0225,-1.3567,-0.6599,-0.1951,0.4589,2.796,2071
10,-0.9641,-1.5652,-0.791,-0.0225,0.4167,2.6689,2064
10,-0.6831,-2.0,-0.8015,0.0337,0.545,2.3756,2089
10,-0.6057,-2.0,-0.6567,-0.218,0.5437,2.2229,1949
10,-0.5571,-1.7812,-0.583,-0.3329,0.384,2.2675,2098
10,-0.446,-1.6211,-0.6072,-0.2241,0.4177,2.3232,2011
10,-0.4739,-1.5522,-0.5222,-0.076,0.4052,2.3557,2015
10,-0.47,-1.469,-0.4971,0.066,0.4442,2.3281,2110
10,-0.4363,-1.4158,-0.499,0.2011,0.4742,2.3467,2008
10,-0.4158,-1.3005,-0.5044,0.39,0.4741,2.3173,2042
10,-0.4331,-1.1667,-0.5354,0.5512,0.4666,2.2864,2032
10,-0.4075,-1.0576,-0.5369,0.7148,0.436,2.3071,2049
10,-0.3281,-0.9863,-0.5298,0.8654,0.3884,2.2734,2043
10,-0.2432,-0.9333,-0.5579,0.9942,0.3818,2.2834,2061
10,-0.2415,-0.8914,-0.5515,1.0509,0.3128,2.2324,2055
10,-0.2092,-0.7886,-0.5349,1.0937,0.1962,2.2437,2020
10,-0.1624,-0.6631,-0.5459,1.1724,0.0904,2.1963,2041
10,-0.1191,-0.6001,-0.5681,1.2761,0.0706,2.155,2044
10,-0.1208,-0.5681,-0.5701,1.3861,-0.0053,2.1248,2064
10,-0.1453,-0.5669,-0.637,1.5013,-0.0437,2.1162,2059
10,-0.1177,-0.5566,-0.7219,1.6572,0.0591,2.0796,2049
10,-0.1179,-0.5635,-0.7539,1.7831,0.2645,2.0181,2048
10,-0.145,-0.4888,-0.7222,1.8833,0.3526,1.9743,2036
10,-0.1748,-0.3994,-0.717,1.9534,0.3449,1.9409,2053
10,-0.2129,-0.3857,-0.7036,1.988,0.4401,1.8053,2059
10,-0.2852,-0.4026,-0.7224,2.0431,0.5521,1.7346,2071
10,-0.2781,-0.4333,-0.7258,2.0378,0.5809,1.5756,2037
10,-0.3389,-0.4326,-0.7571,2.011,0.6341,1.4776,2057
10,-0.3904,-0.4646,-0.8054,1.9556,0.6823,1.3704,2051
10,-0.4509,-0.5154,-0.7639,1.9323,0.765,1.1251,2041
10,-0.564,-0.575,-0.7747,1.7953,0.8554,0.959,2075
10,-0.531,-0.4912,-0.782,1.8108,0.8669,0.9365,2042
10,-0.5168,-0.4316,-0.9219,1.9056,0.9867,0.9796,2068
10,-0.636,-0.498,-1.1211,2.0558,1.142,0.9124,2023
10,-0.7007,-0.4971,-1.2346,2.3599,1.0913,0.6758,2065
10,-0.7485,-0.4546,-1.2019,2.6785,0.8336,0.4725,2027
10,-0.7837,-0.4241,-1.0706,2.8267,0.7544,0.2635,2064
10,-0.7864,-0.5525,-0.9453,2.7673,0.7801,0.2345,2065
10,-0.7178,-0.6121,-0.9067,2.5799,0.9152,0.3425,2072
10,-0.8083,-0.7842,-0.8423,2.3099,1.0188,0.4208,2053
10,-0.8713,-0.7043,-0.8069,2.2157,1.0761,0.614,2020
10,-1.0066,-0.9504,-0.8708,1.856,0.9554,0.6786,2038
10,-1.1084,-0.9917,-0.8777,1.6748,0.9862,0.6938,2059
10,-1.0706,-0.9343,-0.8928,1.5583,0.9551,0.6434,2055
10,-1.0283,-0.8306,-0.8425,1.4263,0.9002,0.5148,2048
10,-1.0037,-0.769,-0.8198,1.3299,0.9317,0.3631,2041
10,-0.9429,-0.7888,-0.8359,1.1874,0.8931,0.2296,2010
10,-0.8821,-0.7844,-0.8623,1.0527,0.9062,0.1103,2044
10,-0.8438,-0.7842,-0.8296,0.9451,0.8323,-0.0232,1987
10,-0.8103,-0.7048,-0.8457,0.8203,0.6088,-0.1165,1986
10,-0.7986,-0.6038,-0.8081,0.7747,0.5481,-0.2084,2071
10,-0.812,-0.5554,-0.7227,0.6901,0.4707,-0.2967,2035
10,-0.8176,-0.5278,-0.7202,0.6782,0.5288,-0.3125,2059
10,-0.8247,-0.5103,-0.7227,0.7642,0.5986,-0.2951,2028
10,-0.8188,-0.5388,-0.7483,0.7823,0.677,-0.2226,2107
10,-0.8818,-0.5515,-0.7786,0.8845,0.7751,-0.0898,2055
