Timestamp,Ax,Ay,Az,Rx,Ry,Rz,EMG
0,-0.1233,-1.0066,0.1169,0.1416,-0.019,0.5015,2118
0,-0.0361,-0.9995,0.105,0.1952,-0.0123,0.5718,2048
0,-0.0327,-0.9976,0.0906,0.1523,0.0842,0.6388,1981
0,-0.002,-1.012,0.0806,0.1635,0.1246,0.7155,2013
0,0.0166,-1.0232,0.0891,0.1417,0.1374,0.8012,2097
0,-0.0654,-0.9907,0.0635,0.1732,0.1372,0.8939,2000
0,-0.0825,-1.022,0.0569,0.1666,0.136,0.9741,2030
0,-0.021,-1.0088,0.0581,0.186,0.1253,1.0685,2032
0,-0.022,-0.9954,0.0845,0.2104,0.0775,1.1729,2039
0,0.0015,-1.0093,0.0771,0.2237,-0.0305,1.2933,2038
0,-0.0112,-1.05,0.1006,0.2581,-0.0957,1.3998,2082
0,0.0073,-1.0745,0.1331,0.2603,-0.2139,1.4687,2089
0,-0.0537,-1.0645,0.1631,0.2891,-0.2711,1.5679,2056
0,-0.062,-1.1323,0.1526,0.2687,-0.3488,1.5881,2065
0,-0.0532,-1.1357,0.2002,0.3191,-0.3863,1.6209,2060
0,-0.0979,-1.2754,0.1687,0.4119,-0.3553,1.6291,2081
0,-0.0369,-1.5847,0.1736,0.5343,-0.3069,1.6137,2080
0,0.0613,-1.6479,0.061,0.5461,-0.0497,1.7309,2066
0,0.3728,-1.7356,0.2947,0.6325,-0.0004,1.8297,2104
0,0.4829,-1.8433,0.3176,0.5103,-0.1178,2.0409,2127
0,0.4587,-1.8345,0.4697,0.4433,-0.3578,2.2423,2042
0,0.4756,-1.8296,0.499,0.3093,-0.5842,2.3312,2038
0,0.6226,-1.739,0.533,0.2338,-0.6564,2.4637,2018
0,0.7178,-1.6882,0.5925,0.1425,-1.0051,2.6092,2044
0,0.6411,-1.8594,0.5288,0.0443,-1.7767,2.4803,2098
0,0.2314,-2.0,0.4053,0.1389,-2.5346,2.6433,2059
0,-0.5386,-1.6445,0.4407,0.2213,-2.2431,2.8012,2015
0,-1.573,-1.1667,0.1096,0.4187,-1.5519,3.0249,2155
0,-1.0381,-1.876,0.187,-0.0447,-0.8927,2.4931,1894
0,-0.0684,-1.0203,-0.3645,-0.9957,-1.6719,2.4715,2044
0,0.4502,0.2327,-0.269,-0.1685,-1.0532,2.0314,2083
0,-0.4092,-0.1218,-0.282,1.0275,-2.079,-0.1554,1956
0,0.7393,-1.5789,0.509,0.1172,-4.3635,0.8522,1912
0,-1.9746,0.7356,-0.1082,-1.5412,1.8956,3.7024,2076
0,-0.3867,-0.3984,0.5,0.3181,0.5645,2.0794,2132
0,-1.7993,-1.3345,0.356,-0.2884,-1.0636,0.4763,2065
0,-1.271,-0.9077,0.4626,-0.043,-0.5634,-0.2081,2059
0,0.1167,-0.6831,0.05,-0.3742,-0.1535,0.2079,2076
0,0.1467,-0.3469,-0.3875,-0.6902,0.141,0.6344,2073
0,0.1587,-0.1382,-0.0493,0.1184,-0.4657,0.6064,2069
0,-0.147,-0.4175,0.3828,0.3372,-1.0808,0.1052,2053
0,-0.7517,-0.6965,0.4077,0.3428,-1.3197,0.3781,2039
0,-2.0,-1.1399,0.8481,0.0533,-0.6612,-0.3828,2046
0,-0.7632,-0.5945,0.7021,0.0216,-0.194,-0.3617,2055
0,-0.6138,-0.4822,0.6016,-0.6351,1.3095,-0.7227,2065
0,-0.991,-0.5032,0.4639,-0.759,1.3701,-0.8075,2053
0,-1.0552,-0.5503,0.3945,-0.7054,1.358,-0.9171,2057
0,-0.7312,-0.5671,0.2812,-0.6978,1.3873,-0.8741,2062
0,-0.6672,-0.7119,0.2927,-0.7582,1.1263,-1.066,2058
0,-0.1543,-0.6821,0.1821,-0.7228,0.685,-1.0661,2049
0,-0.2913,-0.7175,0.0811,-0.7428,0.5805,-1.0553,2053
0,-0.4561,-0.6917,0.0693,-0.6971,0.081,-0.9692,2049
0,-0.4792,-0.644,0.115,-0.643,-0.2456,-0.9497,2049
0,-0.5093,-0.5642,0.1562,-0.6565,-0.4855,-1.025,2061
0,-0.5447,-0.5251,0.1829,-0.7119,-0.6759,-1.0953,2041
0,-0.5642,-0.4827,0.2202,-0.7361,-0.8464,-1.1476,2051
0,-0.5276,-0.4324,0.2661,-0.7419,-1.0178,-1.1999,2059
0,-0.4971,-0.4243,0.2734,-0.7775,-1.0264,-1.2412,2044
0,-0.4766,-0.4038,0.272,-0.7957,-0.9501,-1.2728,2049
0,-0.4277,-0.4263,0.3186,-0.7509,-0.8999,-1.3296,2057
0,-0.3704,-0.4246,0.3306,-0.7604,-0.8269,-1.356,2052
0,-0.3745,-0.446,0.3379,-0.7891,-0.7933,-1.394,2045
0,-0.3628,-0.4089,0.3267,-0.8131,-0.7453,-1.4272,2048
0,-0.4031,-0.4014,0.3381,-0.8186,-0.6389,-1.4571,2054
0,-0.428,-0.397,0.376,-0.8074,-0.4699,-1.5162,2053
0,-0.4395,-0.4246,0.3987,-0.8102,-0.218,-1.5945,2051
0,-0.4634,-0.4419,0.4153,-0.8098,0.0667,-1.6889,2047
0,-0.4514,-0.4548,0.4302,-0.8154,0.3867,-1.7934,2051
0,-0.4353,-0.4604,0.4253,-0.8095,0.712,-1.8612,2051
0,-0.4104,-0.4653,0.3945,-0.8027,0.9861,-1.9575,2054
0,-0.3723,-0.498,0.3523,-0.7988,1.226,-2.0345,2046
0,-0.3474,-0.521,0.2708,-0.7829,1.4086,-2.0888,2046
0,-0.2981,-0.5388,0.1982,-0.7259,1.4264,-2.1209,2047
0,-0.2297,-0.5808,0.157,-0.6537,1.322,-2.1419,2059
0,-0.1614,-0.6167,0.0671,-0.5978,1.0903,-2.1337,2049
0,-0.0881,-0.6521,-0.0015,-0.4975,0.6803,-2.0829,2046
0,-0.0715,-0.7251,-0.0649,-0.4132,0.2024,-1.9989,2053
0,-0.1191,-0.7698,-0.0645,-0.3209,-0.2429,-1.8845,2044
0,-0.1704,-0.772,-0.0415,-0.2265,-0.6438,-1.7965,2048
0,-0.2144,-0.8313,0.0205,-0.1189,-0.991,-1.6793,2056
0,-0.3022,-0.8813,0.1001,-0.0451,-1.1793,-1.5551,2053
0,-0.4043,-0.8916,0.1968,0.0049,-1.2101,-1.4412,2054
0,-0.49,-0.9417,0.2939,0.0214,-1.0977,-1.3134,2048
0,-0.5598,-0.9568,0.3589,0.0,-0.8255,-1.1977,2046
0,-0.5764,-0.9722,0.3701,-0.0582,-0.4321,-1.0809,2048
0,-0.5632,-0.9487,0.3445,-0.0894,-0.0523,-0.9588,2044
0,-0.5718,-0.9092,0.2849,-0.1057,0.2579,-0.804,2056
0,-0.6357,-0.8489,0.2341,-0.1258,0.599,-0.6561,2053
0,-0.676,-0.8489,0.1794,-0.1693,0.9292,-0.5329,2046
0,-0.6433,-0.8538,0.0859,-0.2523,1.1858,-0.4143,2046
0,-0.585,-0.8484,-0.0022,-0.344,1.2822,-0.2898,2054
0,-0.511,-0.8247,-0.062,-0.4101,1.1874,-0.1607,2046
0,-0.4241,-0.7388,-0.1287,-0.5128,0.9094,-0.0206,2052
0,-0.3845,-0.6375,-0.1504,-0.6131,0.5545,0.0927,2061
0,-0.3062,-0.498,-0.2002,-0.754,0.153,0.1619,2056
0,-0.6562,-2.0,-0.5369,-3.5408,0.8744,-0.9295,2026
0,-1.1907,1.7627,-1.554,0.8963,2.4551,1.042,2123
0,1.9999,-2.0,1.9999,0.0848,-0.8712,0.6316,2102
0,-0.7148,-2.0,1.7903,0.6281,-3.4991,1.497,1895
0,-0.197,-1.8193,1.7766,2.6466,-1.8595,0.862,2024
0,0.8904,-1.4919,-0.1326,-0.3353,2.7958,0.3543,2121
0,0.6685,-1.3179,-0.7527,-0.1984,0.8489,0.5373,2060
0,-0.2734,-0.4734,-0.4832,-0.0055,0.0939,0.5915,2036
1,-0.9951,-0.2742,0.2175,0.56,0.1286,0.7397,2072
1,-1.0935,-0.5798,0.4736,0.7164,0.0827,0.6375,2057
1,-0.8289,-0.7649,0.5408,0.1282,0.7014,0.402,2040
1,-0.2754,-1.1526,0.0161,0.1234,0.5946,0.1326,2028
1,-0.198,-1.282,-0.0269,0.2673,0.3237,0.0292,2043
1,-0.3491,-1.2241,0.064,0.3069,0.1264,-0.072,1965
1,-0.3079,-1.0767,0.0115,0.333,0.1069,-0.1767,2048
1,-0.2217,-0.9578,0.2563,0.3172,0.0811,-0.2284,2032
1,-0.3223,-0.9675,0.3684,0.2097,0.1634,-0.2819,2049
1,-0.3164,-0.9866,0.3882,0.0417,0.2741,-0.3649,2080
1,-0.1804,-1.0481,0.3193,-0.0662,0.295,-0.4101,2038
1,-0.0757,-1.0813,0.22,-0.077,0.1601,-0.4116,2045
1,-0.1084,-1.0771,0.2112,-0.0851,0.0434,-0.4077,2046
1,-0.1543,-1.0627,0.2134,-0.1384,0.0252,-0.4255,2068
1,-0.136,-1.0132,0.2141,-0.1911,0.0519,-0.4341,2067
1,-0.1389,-0.9937,0.1323,-0.2293,0.0641,-0.446,2052
1,-0.1262,-0.9961,0.0664,-0.23,0.0656,-0.4603,2056
1,-0.0632,-0.9805,-0.0203,-0.2089,0.0184,-0.4446,2061
1,-0.082,-0.9446,-0.0798,-0.1619,-0.0224,-0.4315,2050
1,-0.0776,-0.9363,-0.05,-0.1065,-0.0593,-0.4318,2040
1,-0.0623,-0.9263,-0.0364,-0.0502,-0.119,-0.4316,2085
1,0.0222,-1.0315,0.0935,0.0625,-0.1843,-0.3681,2020
1,-0.1023,-1.0999,0.1443,0.0653,0.0028,-0.3872,2101
1,0.1648,-1.1162,0.1377,-0.017,-0.0277,-0.3357,2056
1,0.1057,-1.0178,0.1458,0.0031,-0.0192,-0.2685,2045
1,0.0615,-1.0024,0.1714,-0.0362,-0.1125,-0.2204,2054
1,-0.1077,-0.9946,0.2336,-0.0559,-0.0933,-0.2136,2051
1,-0.1416,-1.0056,0.1799,-0.1133,-0.0832,-0.2213,2063
1,-0.0476,-0.9563,0.1013,-0.14,0.0422,-0.2522,2035
1,-0.0142,-1.0093,0.1467,-0.1831,0.0782,-0.228,2053
1,0.0212,-1.032,0.0791,-0.1878,0.0141,-0.1718,2033
1,0.2046,-1.0208,0.0674,-0.132,-0.1254,-0.1,2059
1,0.146,-1.0396,0.0142,-0.092,-0.2266,0.0003,2056
1,-0.1333,-1.0652,0.054,-0.0811,-0.0036,-0.0153,2053
1,0.0132,-0.9463,0.0405,-0.0856,-0.0008,-0.0265,2057
1,0.1116,-0.9067,-0.0237,-0.094,-0.0836,0.0348,2064
1,0.0557,-1.0042,0.0615,-0.1244,-0.0027,0.098,1969
1,0.0105,-1.071,0.0432,-0.0285,0.0294,0.1047,2057
1,0.0327,-1.0603,0.104,0.0144,0.1923,0.1132,1997
1,0.3394,-1.125,0.0955,0.0024,0.0165,0.2039,2059
1,0.2744,-1.0366,0.0371,0.0071,-0.086,0.3823,2058
1,0.0105,-1.0037,0.0066,-0.0523,-0.1141,0.3943,2037
1,0.1843,-0.8696,0.0095,0.0878,-0.4137,0.5982,2016
1,-0.1458,-1.0657,0.1301,0.0361,-0.4461,0.6446,2045
1,-0.5083,-0.9705,0.0347,0.0828,0.1318,0.55,2032
1,-0.3044,-0.9033,0.0029,0.051,0.2,0.3598,2118
1,-0.2058,-0.9187,0.1797,0.0711,0.0282,0.3557,2064
1,-0.3718,-1.0894,0.1187,0.0072,0.4052,0.2449,2047
1,-0.3005,-1.0642,0.1846,-0.0405,0.1643,0.1491,2147
1,-0.0168,-0.9338,0.0725,-0.041,0.1047,0.1661,2051
1,-0.1406,-0.9797,0.1677,0.037,0.1396,0.3848,2045
1,0.0063,-1.0022,0.105,-0.0495,0.0822,0.4516,2054
1,-0.001,-0.9548,0.0906,-0.0028,0.1851,0.5829,2063
1,-0.0706,-1.011,0.1243,-0.0085,-0.0663,0.5584,2057
1,-0.0703,-0.9897,0.0952,0.0039,-0.1124,0.4866,2037
1,-0.1213,-0.9607,0.0828,0.0229,-0.0459,0.4464,2022
1,-0.114,-1.0081,0.0481,0.0224,-0.0023,0.4394,2109
1,-0.0728,-1.0054,0.0107,0.0443,-0.008,0.4765,2065
1,-0.1328,-1.0146,0.0332,0.0587,-0.0164,0.5008,2077
1,-0.0103,-1.0325,0.0369,0.0618,-0.0772,0.5308,1999
1,-0.0515,-1.0076,0.0356,0.0965,-0.0497,0.5437,2052
1,-0.1445,-0.9646,0.0735,0.1039,-0.0091,0.5271,2104
1,-0.1306,-0.9822,0.095,0.1177,-0.0087,0.5147,2039
1,-0.1536,-0.9827,0.0952,0.1686,-0.0366,0.5345,2121
1,-0.188,-0.9941,0.0928,0.1956,-0.0044,0.5378,2053
1,-0.1841,-1.0044,0.0703,0.1894,-0.0004,0.5388,2067
1,-0.1426,-1.0208,0.0645,0.1763,-0.0084,0.5321,2045
1,-0.115,-1.0273,0.0627,0.173,0.019,0.5292,1936
1,-0.0916,-1.0361,0.0662,0.1894,0.0108,0.5357,2065
1,-0.1265,-1.0361,0.0449,0.1792,-0.0192,0.5353,2065
1,-0.1819,-1.032,0.0898,0.1567,-0.0392,0.5147,2064
1,-0.2776,-1.0076,0.116,0.1252,-0.0489,0.4505,2119
1,-0.3613,-0.999,0.1299,0.1337,-0.1068,0.3802,2066
1,-0.3367,-1.0103,0.1558,0.1101,-0.0979,0.2892,1988
1,-0.376,-1.0793,0.1189,0.1486,-0.0782,0.1711,2080
1,-0.2998,-1.2695,0.085,0.1675,0.0036,0.0691,2071
1,-0.1858,-1.3794,0.0442,0.1412,0.0574,-0.0233,2068
1,-0.0718,-1.3716,0.0315,0.1325,-0.0273,-0.0878,2060
1,-0.0457,-1.4263,0.0098,0.1314,0.0699,0.036,2097
1,0.0798,-1.4705,0.083,0.2084,0.0084,0.0956,2075
1,0.1094,-1.4324,0.1758,0.3225,0.0615,0.6501,2045
1,-0.1692,-1.8252,0.3423,0.1573,0.2442,0.7533,2058
1,0.4033,-1.4346,0.3364,0.1167,-0.0759,-0.7223,2071
1,0.4451,-1.2168,0.3921,0.2157,-0.6,0.0053,2040
1,0.54,-1.5247,0.4026,-0.0348,-0.7918,-0.6055,2031
1,0.592,-0.9973,0.4194,0.5846,-1.7508,0.3589,2129
1,0.343,-0.8088,0.2234,0.7284,-1.4651,0.6476,2185
1,1.2261,-0.9985,0.4697,1.0909,-3.3923,1.0252,1977
1,0.2856,-1.4983,-0.0312,0.3614,0.3135,-0.5176,2014
1,-1.1055,-1.0635,-0.0115,1.2299,-0.8954,0.9863,2008
1,1.9999,-1.7883,0.9187,-2.1976,-2.8363,4.3634,1992
1,-1.5735,0.1057,-0.4578,1.138,-0.5018,0.7759,2174
1,0.6594,-1.511,-0.189,2.0137,-1.2661,0.5974,2036
1,-0.1975,-1.5498,0.6738,0.651,-1.7607,1.7455,2073
1,-1.1086,-1.4895,-0.2656,0.7283,0.0353,1.3556,2023
1,-0.9041,-1.6006,0.5518,0.1827,0.0621,1.5649,1993
1,-0.9919,-1.3865,0.5667,-0.0933,-0.3264,1.4519,2039
1,-0.5312,-1.4268,0.2546,-0.2472,-0.071,1.4723,2031
1,0.2192,-1.1323,-0.166,-0.2378,-0.1325,1.337,2054
1,0.2212,-0.9504,-0.4614,0.5605,-0.0177,1.1951,2060
1,0.4585,-0.9792,-0.2966,0.8416,-0.4358,1.3886,2065
1,0.3103,-1.0103,0.0154,0.9934,-0.7861,1.8286,2064
1,-0.1018,-1.1382,0.2529,1.0758,-1.1994,2.0048,2055
2,-0.4434,-1.3003,0.3386,1.0222,-1.1977,1.9795,2045
2,-0.6536,-1.2793,0.4075,0.7168,-0.8,1.8997,2049
2,-0.6902,-1.2927,0.4194,0.5185,-0.6486,1.9327,2056
2,-0.8257,-1.2458,0.3398,0.4337,-0.2995,1.9829,2052
2,-0.863,-1.1951,0.3242,0.3779,0.2007,1.9783,2052
2,-0.8203,-1.1125,0.3457,0.4715,0.5647,1.9351,2051
2,-0.7612,-1.0103,0.3687,0.4805,0.8938,1.87,2052
2,-0.6631,-0.9092,0.4626,0.4819,1.0568,1.8307,2042
2,-0.6843,-0.771,0.4778,0.5896,1.2198,1.7217,2044
2,-0.5803,-0.6941,0.4417,0.7003,1.3989,1.5151,2057
2,-0.481,-0.6912,0.4575,0.7051,1.5693,1.5041,2067
2,-0.5203,-0.7793,0.415,0.6224,1.9106,1.4587,2059
2,-0.5232,-0.6782,0.2529,0.7269,2.0925,1.4359,2061
2,-0.3955,-0.6873,0.2593,0.6979,2.0342,1.3898,2048
2,-0.364,-0.6899,0.248,0.5855,1.9346,1.305,2053
2,-0.4395,-0.6604,0.2241,0.5686,1.7556,1.2515,2039
2,-0.5383,-0.6118,0.2073,0.5284,1.4552,1.034,2038
2,-0.6594,-0.665,0.1951,0.339,1.4755,0.8674,2050
2,-0.7451,-0.6611,0.1687,0.2798,1.5829,0.6637,2055
2,-0.5449,-0.5544,0.1709,0.2189,1.3651,0.2671,2060
2,-0.2542,-0.52,0.1113,0.1024,0.9001,0.0274,2067
2,-0.2129,-0.5139,0.0369,-0.0542,0.5779,-0.2023,2060
2,-0.1541,-0.5862,0.0735,-0.3057,-0.0214,-0.7666,2061
2,0.1301,-0.2332,-0.1111,-0.0274,-0.195,-0.5924,2062
2,-0.2869,-0.1343,-0.0923,-0.075,-0.3667,-0.7664,2057
2,-0.3762,-0.1743,-0.0791,0.0995,-0.6827,-0.832,2047
2,-0.2949,-0.2727,0.0181,0.0627,-0.8355,-0.8938,2072
2,-0.2698,-0.198,0.0696,-0.1578,-0.8505,-1.0288,2124
2,-0.2529,-0.083,0.0361,-0.2502,-0.87,-1.1748,2013
2,-0.2244,-0.1353,0.051,-0.2605,-0.9106,-1.3034,2019
2,-0.3013,-0.1809,0.1201,-0.2786,-0.7971,-1.4587,2049
2,-0.335,-0.2256,0.1882,-0.3109,-0.6666,-1.6157,2057
2,-0.3501,-0.2437,0.2546,-0.3493,-0.4342,-1.7867,2045
2,-0.2905,-0.282,0.2781,-0.4552,-0.2741,-1.9515,2046
2,-0.2837,-0.2588,0.27,-0.518,-0.2015,-2.0981,2047
2,-0.2686,-0.2766,0.2568,-0.5546,-0.1732,-2.2469,2045
2,-0.2322,-0.2542,0.2295,-0.5227,-0.2575,-2.3828,2040
2,-0.519,-0.4971,0.2056,-0.5099,0.0189,-2.3172,2046
2,-0.2854,-0.4006,0.217,-0.5432,0.151,-2.4221,2046
2,-0.322,-0.4612,0.1846,-0.5417,0.1293,-2.4322,2053
2,-0.2732,-0.4551,0.1929,-0.5504,0.029,-2.4539,2061
2,-0.2378,-0.4912,0.1958,-0.5687,-0.1209,-2.4424,2053
2,-0.2144,-0.4563,0.1516,-0.5759,-0.3858,-2.3969,2047
2,-0.2549,-0.5012,0.1833,-0.5809,-0.6364,-2.3316,2046
2,-0.3308,-0.5139,0.2368,-0.6074,-0.7819,-2.2567,2055
2,-0.3855,-0.4717,0.2761,-0.5903,-0.8417,-2.1814,2036
2,-0.4583,-0.4521,0.364,-0.5522,-0.8293,-2.1305,2051
2,-0.4565,-0.4341,0.4312,-0.5633,-0.7365,-2.0909,2049
2,-0.3262,-0.8501,0.4973,-0.8677,-0.6903,-2.0048,2050
2,-1.9683,-1.5623,-0.1877,0.1443,-1.396,-0.4112,2057
2,-2.0,0.0679,0.875,-0.1458,-2.7335,-0.4681,2256
2,-2.0,-2.0,0.3184,-0.2478,-0.8855,1.8262,2004
2,-2.0,-2.0,1.9999,0.8042,0.1039,1.5302,1877
2,0.2351,-0.7102,1.002,-0.5561,1.8912,0.491,2083
2,1.9999,-0.4551,0.4028,-0.5691,1.0658,0.2061,2029
2,-0.2009,-1.178,-0.4392,0.6433,-0.3453,0.7689,2125
2,-1.8174,-1.1853,1.0999,0.8324,0.4582,0.5147,1765
2,-0.5786,-1.1106,0.1611,0.1934,1.761,0.3028,2023
2,0.3511,-0.7444,-0.3567,0.2246,1.066,0.5378,2110
2,-0.4666,-0.9038,-0.0447,0.0862,0.4448,0.553,2134
2,-0.5261,-1.136,0.0449,-0.2157,0.2907,0.3069,2071
2,-0.0525,-1.1299,0.0449,-0.2409,0.0483,0.2173,1934
2,-0.3003,-1.1892,0.2949,-0.0747,-0.1349,0.2738,1997
2,-0.6631,-1.3076,0.5327,0.0137,0.0471,0.1685,2069
2,-0.5322,-1.0591,0.4895,0.1167,0.2242,0.0184,2034
2,-0.5552,-0.9021,0.3584,0.0751,0.2388,-0.0591,2048
2,-0.6858,-0.8484,0.1948,-0.0694,0.3493,-0.2035,2010
2,-0.5798,-0.8833,0.1707,-0.1716,0.3223,-0.3526,2043
2,-0.377,-0.9531,0.2104,-0.135,0.222,-0.4288,2071
2,-0.3123,-1.0298,0.262,-0.1035,0.1322,-0.4517,2051
2,-0.3281,-1.0071,0.2644,-0.1324,0.1148,-0.4839,2141
2,-0.3318,-0.9905,0.269,-0.1473,0.0831,-0.505,2016
2,-0.3145,-0.9973,0.2866,-0.1754,0.1172,-0.5316,2064
2,-0.313,-1.0088,0.3025,-0.1996,0.0406,-0.5514,2051
2,-0.3657,-0.9607,0.2957,-0.2329,0.0254,-0.5854,2047
2,-0.3906,-0.9839,0.2808,-0.2734,0.0447,-0.6299,2033
2,-0.3594,-0.9746,0.2668,-0.2903,0.0397,-0.6809,2038
2,-0.3569,-0.9526,0.2249,-0.3049,0.0154,-0.7365,2047
2,-0.3547,-0.96,0.1997,-0.3155,-0.02,-0.799,2050
2,-0.3137,-0.9512,0.1892,-0.3267,-0.0567,-0.8613,2050
2,-0.304,-0.9463,0.1963,-0.3204,-0.0672,-0.9264,2057
2,-0.2659,-0.9556,0.1741,-0.3008,-0.002,-0.9516,2030
2,-0.2866,-0.9541,0.1829,-0.2992,-0.0019,-0.962,2026
2,-0.2422,-0.9668,0.1138,-0.3097,0.1438,-0.9686,2071
2,-0.2021,-0.9607,0.1406,-0.3073,0.1617,-0.9321,2058
2,-0.2295,-0.9167,0.113,-0.2767,0.1939,-0.917,2012
2,-0.1479,-0.9075,0.1055,-0.2436,0.2703,-0.8807,2082
2,-0.2043,-0.9617,0.1243,-0.2381,0.2904,-0.8332,2051
2,-0.1367,-0.9495,0.1685,-0.2442,0.3313,-0.7903,2086
2,-0.116,-1.0208,0.2036,-0.2341,0.3209,-0.7582,2003
2,-0.0439,-1.0225,0.1819,-0.2831,0.2565,-0.7224,2058
2,-0.0107,-0.9324,0.1418,-0.243,0.1406,-0.601,2067
2,-0.136,-0.9907,0.1948,-0.2007,0.1527,-0.5687,2099
2,-0.0554,-0.9978,0.1785,-0.2104,0.1701,-0.5361,2048
2,-0.0742,-0.959,0.1516,-0.2282,0.1631,-0.4863,2024
2,-0.0364,-0.97,0.1316,-0.2409,0.2036,-0.447,2003
2,-0.0583,-0.958,0.1125,-0.2301,0.1413,-0.4077,2048
2,-0.0325,-0.9722,0.0684,-0.165,0.1332,-0.3633,2054
2,-0.085,-0.9885,0.0312,-0.1701,0.1606,-0.3426,1990
2,0.0085,-0.979,-0.0305,-0.1293,0.153,-0.3124,2056
3,0.0251,-0.959,-0.001,-0.0675,0.0875,-0.2654,2057
3,-0.0251,-0.9961,0.0669,-0.0633,0.0671,-0.212,2051
3,0.0127,-0.9946,0.1169,-0.0582,0.0641,-0.1615,2014
3,-0.0078,-0.9937,0.137,-0.0538,0.0377,-0.1173,2054
3,-0.0632,-0.9812,0.1208,-0.0169,0.0784,-0.0822,2042
3,-0.0898,-0.9697,0.124,-0.016,0.0085,-0.0824,2018
3,-0.0784,-0.9917,0.0908,0.0133,0.0201,-0.0752,2067
3,-0.1304,-1.0344,0.1074,0.039,0.0546,-0.0943,2102
3,-0.0139,-0.947,0.0671,0.0169,0.0965,-0.0851,2010
3,0.0095,-1.0471,0.0896,0.1097,0.0571,-0.029,2053
3,0.0586,-1.0132,0.1047,0.1049,-0.092,0.0245,2053
3,-0.021,-1.0293,0.1064,0.098,-0.1053,0.0948,2046
3,-0.2388,-1.0415,0.1172,0.0903,0.2132,0.0979,2062
3,-0.094,-1.0005,0.146,0.0124,0.1559,0.0453,2065
3,-0.0386,-0.9919,0.1562,0.0023,0.1029,0.0334,2083
3,-0.113,-0.927,0.0732,0.0694,0.1598,0.0971,2036
3,-0.0171,-1.0696,0.1096,0.087,-0.0711,0.0724,2049
3,-0.1123,-1.0032,0.1108,0.0878,0.0537,0.0939,2123
3,-0.02,-1.0403,0.0332,0.1928,-0.0023,0.1111,2031
3,0.0203,-0.9812,0.0923,0.2378,0.0322,0.1804,2108
3,0.0486,-1.0342,0.1135,0.2093,0.0613,0.2326,2054
3,0.0632,-1.002,0.0706,0.2752,0.0249,0.3268,2037
3,0.0708,-1.0029,0.0928,0.239,0.0594,0.4083,1891
3,-0.0132,-1.0078,0.1006,0.2398,0.1518,0.5056,1963
3,0.0054,-0.9873,0.1096,0.2721,0.0808,0.587,2094
3,-0.0681,-1.0093,0.0779,0.2607,0.1414,0.661,2029
3,-0.1758,-1.0283,0.1045,0.2547,0.1619,0.6638,2121
3,-0.2341,-1.0183,0.1345,0.2111,0.1525,0.6813,1968
3,-0.2332,-1.0581,0.1406,0.1924,0.1246,0.6593,2034
3,-0.1902,-1.1135,0.1621,0.1573,0.0301,0.6621,2016
3,-0.1653,-1.134,0.1704,0.1262,-0.1254,0.6594,2026
3,-0.186,-1.2185,0.2756,0.1245,-0.1506,0.6136,2113
3,-0.0535,-1.1995,0.2368,0.0736,-0.1703,0.5578,2045
3,-0.0195,-1.2046,0.1497,0.1443,-0.257,0.5374,2003
3,-0.1709,-1.5718,0.0955,0.1388,-0.2709,0.4542,1995
3,-0.1074,-1.5059,0.2681,0.2306,-0.1892,0.4919,2040
3,0.1665,-1.3257,0.2971,0.2179,-0.3811,0.5489,2064
3,-0.0176,-1.2764,0.3164,0.3069,-0.3374,0.8578,2044
3,-0.1111,-1.5525,0.3521,0.3263,-0.082,1.0971,2097
3,-0.2227,-1.7725,0.353,0.1772,0.343,0.9214,2071
3,0.0571,-1.4648,0.3276,0.1485,0.1559,0.4239,2076
3,0.6338,-1.1794,0.3379,0.2157,-0.7341,-0.2541,2068
3,0.1497,-1.0703,0.4717,0.4209,-1.1702,0.2916,2113
3,-0.6455,-1.1648,0.4045,0.5998,-0.4221,0.0457,2203
3,0.5713,-1.2617,0.0337,0.8208,-0.6407,0.0602,2100
3,1.9999,-1.0437,0.2268,0.4711,-4.3635,1.022,1913
3,-0.2097,-1.543,-0.1636,0.3027,-2.2563,-1.1419,2012
3,-0.0752,-1.6543,0.2632,0.2438,-2.2549,0.328,2085
3,-2.0,0.2812,-0.71,0.7466,-1.3334,1.1543,1985
3,0.627,-0.7683,-0.6001,1.5183,0.3232,0.3599,1988
3,-0.2571,-1.8005,0.4521,0.9842,-1.0694,1.5752,2150
3,-1.3369,-1.7029,-0.3027,0.2844,-0.0819,1.5109,2019
3,-0.3613,-1.4768,0.623,0.508,0.0364,1.5355,1987
3,-0.5208,-1.4155,0.7241,0.2318,-1.4699,1.5518,2030
3,-0.0039,-1.2986,0.186,0.2788,-1.343,2.0947,2046
3,0.2261,-1.031,-0.1887,0.5289,-0.8084,1.8261,2065
3,0.0461,-1.1672,-0.1016,0.7871,-1.2886,2.096,2067
3,-0.0535,-1.24,0.1177,0.9357,-1.0938,2.5715,2064
3,-0.1843,-1.4373,0.3015,0.5934,-0.5878,2.3063,2057
3,0.063,-1.3098,0.2817,0.3699,-0.6516,2.2525,2042
3,-0.1504,-1.2617,0.2417,0.3518,-0.8166,2.263,2042
3,-0.6558,-1.1128,0.2632,0.5956,-0.4441,2.3252,2034
3,-0.9192,-1.1094,0.3813,0.7135,0.081,2.4169,2061
3,-0.9724,-1.1912,0.563,0.6498,0.4199,2.4746,2034
3,-0.9016,-1.0808,0.6538,0.624,0.5911,2.286,2043
3,-0.644,-0.7944,0.5042,0.706,0.6513,2.1732,2061
3,-0.4883,-0.8423,0.3884,0.6951,0.8787,2.0636,2066
3,-0.4321,-0.8533,0.3723,0.6442,0.9304,1.9522,2064
3,-0.4724,-0.7498,0.3677,0.5472,0.9515,1.8463,2058
3,-0.5002,-0.7019,0.407,0.528,0.9605,1.7635,2042
3,-0.5491,-0.8035,0.426,0.457,1.1207,1.7162,2053
3,-0.5854,-0.78,0.4189,0.4236,1.3035,1.6356,2052
3,-0.532,-0.6562,0.4065,0.2727,1.642,1.5127,2037
3,-0.5757,-0.5818,0.3967,0.1699,1.7729,1.3452,2053
3,-0.4326,-0.3953,0.2673,0.3461,1.746,1.3419,2046
3,-0.3003,-0.3975,0.207,0.3401,1.6318,1.2912,2062
3,-0.4312,-0.5605,0.1914,0.1675,1.5491,0.8705,2043
3,-0.6021,-0.5916,0.2397,0.1687,1.4106,0.712,2052
3,-0.5205,-0.436,0.2705,0.2215,1.3161,0.5145,2045
3,-0.4695,-0.4507,0.3105,0.0896,1.1415,0.3822,2067
3,-0.542,-0.5957,0.1433,-0.0128,1.0749,0.171,2050
3,-0.4177,-0.4983,0.0278,-0.0699,1.0463,-0.1458,2050
3,-0.4729,-0.6489,0.186,-0.2501,0.5701,-0.6811,2067
3,0.2983,-0.4607,0.0212,-0.2067,-0.0967,-0.6269,2061
3,-0.1086,-0.0696,0.0037,-0.2052,0.081,-0.9006,2076
3,-0.1736,-0.1743,0.2087,0.041,-0.5703,-0.8894,2096
3,-0.1421,-0.29,0.2263,0.0345,-0.7411,-0.8819,2065
3,-0.1785,-0.2104,0.1929,-0.0134,-0.6159,-0.9349,2029
3,-0.168,-0.3403,0.209,-0.0282,-0.5578,-1.0448,2048
3,-0.2446,-0.3726,0.2297,-0.0967,-0.4079,-1.1978,2044
3,-0.386,-0.3203,0.2358,-0.0695,-0.2998,-1.3952,2032
3,-0.4211,-0.25,0.3083,-0.0778,-0.1216,-1.652,2050
3,-0.4045,-0.2722,0.3247,-0.2071,0.1495,-1.831,2051
3,-0.3171,-0.1855,0.2546,-0.2651,0.3446,-2.0001,2068
3,-0.386,-0.374,0.1455,-0.3907,0.5801,-2.1181,2056
3,-0.375,-0.3855,0.1641,-0.3887,0.732,-2.2469,2044
3,-0.2834,-0.3772,0.2197,-0.4265,0.7558,-2.3482,2042
3,-0.2573,-0.4358,0.1348,-0.5047,0.6185,-2.4252,2044
3,-0.3018,-0.4888,0.0662,-0.507,0.5107,-2.4987,2045
3,-0.2747,-0.5161,0.0505,-0.5473,0.4281,-2.5742,2043
3,-0.2214,-0.5322,0.0479,-0.5581,0.1942,-2.6019,2055
3,-0.2356,-0.511,0.0481,-0.5634,-0.0522,-2.6075,2053
3,-0.2722,-0.4951,0.0811,-0.5729,-0.2771,-2.6092,2049
4,-0.3525,-0.5383,0.1182,-0.5826,-0.3983,-2.595,2048
4,-0.3748,-0.5125,0.1355,-0.6071,-0.4444,-2.5743,2050
4,-0.4028,-0.4885,0.2009,-0.6126,-0.4456,-2.5504,2059
4,-0.488,-0.5056,0.2578,-0.6498,-0.3749,-2.5053,2054
4,-0.5208,-0.5288,0.281,-0.7441,-0.1642,-2.4541,2050
4,-0.5237,-0.5261,0.2939,-0.8008,0.0443,-2.3968,2053
4,-0.5305,-0.5457,0.3413,-0.8257,0.2625,-2.3326,2049
4,-0.5618,-0.5154,0.3137,-0.8672,0.5309,-2.2842,2048
4,-0.5269,-0.4688,0.3352,-0.8483,0.7245,-2.2629,2049
4,0.2363,-2.0,-1.7026,-3.6344,2.8517,-1.7717,2083
4,-2.0,0.3335,-1.7385,0.1079,-0.3091,1.3635,2052
4,0.5312,-2.0,1.8008,0.4995,-3.8965,0.0453,2135
4,-2.0,-1.9878,0.4094,0.6839,-2.2927,2.1114,1991
4,-1.738,-1.5234,1.3931,0.1155,1.1529,0.834,2012
4,1.9999,-0.7988,1.2268,0.1607,-0.6481,0.6766,2248
4,1.5688,-2.0,-0.0852,0.3071,-0.7963,0.5156,1925
4,-2.0,-1.3604,0.1807,0.8208,-0.304,0.6565,2099
4,-0.7632,-1.1125,0.0703,0.2645,1.3805,0.1499,2059
4,0.5071,-0.3865,-0.4668,0.288,-0.0081,0.5574,2034
4,-0.7341,-0.3167,0.074,0.3384,-0.4952,0.6411,2000
4,-0.7588,-1.0986,0.582,-0.0535,-0.1954,0.3059,2047
4,-0.262,-1.2009,0.491,-0.0212,-0.0007,0.1442,2066
4,-0.2485,-1.2644,0.3809,0.102,0.2671,0.1911,2024
4,-0.364,-1.1138,0.125,0.0478,0.2356,0.1413,2119
4,-0.3755,-0.9399,0.0737,0.0856,0.0543,0.0695,2072
4,-0.5146,-0.9763,0.2786,0.0891,0.0659,-0.0047,2048
4,-0.5588,-0.9883,0.4114,-0.0137,0.1121,-0.1432,2061
4,-0.49,-0.9907,0.4155,-0.13,0.1376,-0.3109,2043
4,-0.4475,-0.9998,0.3345,-0.2069,0.2428,-0.4087,2043
4,-0.3445,-1.0132,0.2126,-0.2527,0.2466,-0.455,2054
4,-0.2593,-0.9802,0.1699,-0.2489,0.126,-0.4631,2056
4,-0.2666,-0.9819,0.1975,-0.235,0.0406,-0.4899,2083
4,-0.3247,-0.9824,0.2327,-0.2236,-0.0089,-0.5245,2050
4,-0.3684,-0.9783,0.2424,-0.2815,0.0597,-0.5887,2064
4,-0.3909,-0.9897,0.21,-0.3286,0.1242,-0.6632,2062
4,-0.3787,-0.9695,0.1265,-0.3372,0.1879,-0.7361,2056
4,-0.3291,-0.9443,0.0671,-0.304,0.1786,-0.7946,2046
4,-0.312,-0.9578,0.0352,-0.255,0.1494,-0.8441,2033
4,-0.2737,-0.9473,0.0474,-0.2076,0.1364,-0.8867,2060
4,-0.2622,-0.9192,0.0828,-0.1698,0.114,-0.9102,2043
4,-0.2429,-0.9617,0.1296,-0.139,0.1418,-0.9255,2047
4,-0.1882,-0.9619,0.1455,-0.1072,0.1611,-0.8789,2043
4,-0.1726,-0.9758,0.1685,-0.0872,0.1412,-0.8304,2062
4,-0.1326,-0.9883,0.1941,-0.1053,0.157,-0.7885,2051
4,-0.1223,-0.9812,0.1875,-0.1264,0.1376,-0.7433,2053
4,-0.1272,-0.9426,0.2041,-0.1416,0.1217,-0.7095,2053
4,-0.123,-0.981,0.2178,-0.1565,0.1252,-0.6775,2073
4,-0.0212,-0.967,0.1702,-0.1573,0.1241,-0.6353,2036
4,-0.082,-1.0227,0.1746,-0.177,0.0956,-0.5978,2076
4,-0.1619,-0.9885,0.115,-0.2188,0.1739,-0.6268,1992
4,-0.0134,-0.9658,0.1455,-0.2384,0.1698,-0.5707,2055
4,-0.0269,-0.947,0.0786,-0.2137,0.0973,-0.5207,2049
4,-0.0525,-0.9272,0.0417,-0.1871,0.0963,-0.477,2052
4,-0.0947,-0.9517,0.0505,-0.1514,0.0531,-0.4502,2055
4,-0.0784,-0.978,0.0596,-0.1402,0.1493,-0.4454,2041
4,-0.0637,-0.9883,0.0779,-0.1165,0.1196,-0.4205,2063
4,-0.0552,-0.9968,0.0454,-0.1065,0.1004,-0.3926,2056
4,-0.0491,-0.9919,0.1025,-0.0771,0.0629,-0.367,2036
4,-0.0154,-1.0176,0.0911,-0.0915,0.0855,-0.3505,2034
4,0.0637,-0.9861,0.0894,-0.0703,0.0294,-0.2931,2060
4,0.062,-0.9736,0.0742,-0.0426,-0.0083,-0.228,2057
4,0.0217,-0.9966,0.0881,-0.0216,-0.0059,-0.1682,2022
4,0.0217,-0.9988,0.1003,-0.038,-0.0075,-0.1309,2056
4,0.0266,-0.9995,0.093,-0.0758,0.0256,-0.0992,2054
4,0.0244,-1.0098,0.0901,-0.0744,0.0055,-0.0622,2064
4,-0.002,-1.0024,0.0828,-0.0417,-0.0047,-0.0273,2045
4,0.0068,-1.0283,0.0708,-0.0051,-0.0558,-0.0008,2051
4,-0.0615,-1.0203,0.0642,0.0292,-0.0181,0.0188,2053
4,-0.0408,-1.0005,0.061,0.0304,-0.0342,0.0217,2046
4,-0.0525,-1.002,0.072,0.0426,-0.0214,0.0349,2046
4,0.0208,-0.9905,0.0698,0.0575,-0.0924,0.0664,2052
4,-0.0293,-0.9839,0.0928,0.066,-0.0605,0.0856,2077
4,0.0371,-0.9597,0.0996,0.1105,-0.1384,0.1479,2046
4,-0.1428,-0.9878,0.1511,0.1658,-0.0995,0.092,2042
4,-0.114,-1.0071,0.1653,0.1527,-0.039,0.0336,2058
4,-0.1011,-1.1428,0.2263,-0.0407,-0.1547,0.0113,2057
4,-0.0969,-0.9937,0.0933,-0.0894,0.0961,-0.002,2049
4,-0.231,-0.9478,0.011,-0.0465,0.6185,-0.0731,2061
4,0.2051,-0.9492,-0.0205,0.0878,0.3087,0.1965,2056
4,0.2322,-0.9854,-0.0154,0.0666,0.0949,0.3237,2060
4,0.0295,-1.0259,0.0325,0.1128,0.0321,0.3469,2026
4,0.0535,-0.9858,0.0457,0.1482,0.0944,0.3577,2057
4,0.0435,-0.9675,0.082,0.1739,0.0204,0.4156,2035
4,-0.0059,-1.009,0.0676,0.179,0.0554,0.434,2044
4,-0.0332,-1.0127,0.0762,0.1791,0.1036,0.4669,2075
4,-0.0569,-0.9861,0.0776,0.1938,0.0925,0.4896,2101
4,-0.0215,-1.0044,0.0452,0.1976,0.1667,0.5315,2027
4,-0.0193,-1.0015,0.0581,0.2345,0.1111,0.609,2000
4,-0.0532,-1.0146,0.0986,0.2448,0.1137,0.6247,2054
4,-0.0103,-0.9946,0.1023,0.2591,0.1494,0.6966,2011
4,-0.0693,-1.0125,0.1633,0.1987,0.2035,0.7416,2016
4,-0.158,-1.0305,0.1619,0.1915,0.2148,0.7933,2047
4,-0.2034,-1.033,0.1353,0.1883,0.2453,0.8484,2025
4,-0.27,-1.0757,0.1763,0.0831,0.2321,0.8178,2075
4,-0.3545,-1.1001,0.1868,0.0381,0.1736,0.8373,2017
4,-0.3594,-1.1125,0.2144,0.0426,0.1125,0.8255,2130
4,-0.3804,-1.1506,0.2751,0.0438,0.0932,0.7201,2002
4,-0.3271,-1.2397,0.1672,0.1043,-0.0888,0.6056,2125
4,-0.4099,-1.4675,0.1509,0.1533,-0.0627,0.4786,2043
4,-0.2783,-1.4814,0.1841,0.1541,-0.1855,0.2658,2026
4,-0.1812,-1.3284,0.228,0.1374,-0.3293,-0.1426,2135
4,0.082,-1.417,0.1846,0.1412,-0.4219,-0.2019,2071
4,-0.1272,-1.6816,0.3022,0.1621,-0.14,-0.2763,2024
4,0.408,-1.6797,0.2251,0.0498,-0.4806,-0.5877,2065
5,0.6543,-1.3525,0.3203,0.1202,-1.2018,-0.4548,2070
5,0.3782,-1.2971,0.3389,0.1768,-1.6779,-0.246,2071
5,0.5679,-1.407,0.3208,0.1799,-1.8058,-0.4469,2031
5,0.2368,-1.0559,0.3901,0.548,-2.0495,0.1883,2082
5,0.5435,-0.8906,0.1372,0.7576,-1.9735,0.4357,2028
5,1.0505,-1.5681,0.0923,0.5817,-3.0312,0.3871,2104
5,-0.0955,-1.1699,-0.0786,0.7311,-1.3925,-0.0972,2171
5,-0.1101,-1.2805,0.6973,0.5292,-1.6897,1.2624,2004
5,0.2786,-1.3125,-0.8484,1.1745,-2.6048,2.1355,2016
5,-0.644,-0.6646,-0.4675,0.4265,-1.3768,0.6444,1973
5,0.0557,-1.834,0.5273,1.4307,-1.5657,1.0585,2118
5,-0.9297,-1.6907,-0.0264,0.0723,-1.2998,2.1993,2031
5,-0.689,-1.4822,0.0295,0.2293,-0.3282,1.9291,2050
5,-0.6511,-1.4832,0.6499,0.0667,-1.2074,2.1674,2017
5,-0.5874,-1.3838,0.4331,0.182,-1.4636,2.082,2040
5,-0.1555,-1.3259,0.5452,0.0121,-1.4713,2.1082,2043
5,0.0654,-1.0596,0.3145,0.1578,-1.6388,2.3059,2057
5,-0.074,-0.9827,-0.0469,0.7407,-1.362,2.4244,2066
5,-0.1006,-1.1294,0.1174,0.8048,-0.7147,2.2555,2060
5,-0.1123,-1.1753,0.2356,0.6385,-0.4972,2.1692,2066
5,-0.2563,-1.1946,0.2571,0.5068,-0.0688,2.2165,2050
5,-0.2764,-1.1816,0.2717,0.6687,0.1569,2.1192,2041
5,-0.4631,-1.1555,0.2498,0.7044,0.3554,2.1559,2040
5,-0.7285,-1.1497,0.2795,0.7902,0.7895,2.1714,2025
5,-0.8772,-1.1477,0.3818,0.8218,1.2489,2.1952,2035
5,-0.8625,-1.1497,0.4836,0.7407,1.3519,2.096,2036
5,-0.7244,-1.0886,0.4932,0.709,1.2778,1.9596,2050
5,-0.582,-0.8831,0.4839,0.7243,1.3299,1.8399,2059
5,-0.5059,-0.8789,0.4707,0.6632,1.3736,1.7098,2051
5,-0.4656,-0.7859,0.3406,0.7134,1.2652,1.6962,2062
5,-0.4795,-0.8862,0.3101,0.6074,1.2094,1.5962,2057
5,-0.405,-0.7925,0.4026,0.7327,1.2548,1.5744,2066
5,-0.481,-0.6553,0.2734,0.7472,1.4669,1.5649,2052
5,-0.5518,-0.46,0.115,0.8087,1.7751,1.5081,2049
5,-0.5308,-0.4766,0.1992,0.6597,1.7704,1.3432,2040
5,-0.5173,-0.4055,0.1399,0.77,1.7514,1.2649,2061
5,-0.5635,-0.5015,0.259,0.9557,1.5411,1.1372,2057
5,-0.6187,-0.678,0.3088,0.8459,1.3343,0.9308,2049
5,-0.6006,-0.707,0.2405,0.6267,1.2961,0.7347,2058
5,-0.4541,-0.5725,0.1631,0.6223,1.2814,0.7485,2046
5,-0.3594,-0.4756,0.1238,0.3551,1.1492,0.32,2049
5,-0.4438,-0.51,0.0149,0.2958,0.8067,0.071,2059
5,-0.2837,-0.4751,0.0732,0.2682,0.477,-0.3278,2052
5,-0.1304,-0.45,0.1772,0.0577,-0.1135,-0.7014,2057
5,-0.1021,-0.1943,-0.0361,0.3004,0.0846,-0.4731,2032
5,-0.2898,-0.3264,-0.03,0.2111,-0.1479,-0.736,2077
5,-0.2209,-0.2542,0.0503,0.2493,-0.1934,-0.7922,2082
5,-0.1675,-0.1838,0.0178,0.1374,-0.2856,-0.8774,2099
5,-0.3193,-0.1653,0.0012,0.0732,-0.1924,-1.0302,2033
5,-0.2954,-0.1931,-0.0132,0.0029,-0.0655,-1.2026,2000
5,-0.3076,-0.1758,0.0164,-0.0529,0.0983,-1.3984,2038
5,-0.324,-0.2456,0.0876,-0.1023,0.2956,-1.6131,2061
5,-0.2654,-0.2571,0.1021,-0.1914,0.4085,-1.8479,2054
5,-0.2083,-0.2617,0.0979,-0.3312,0.4404,-2.0686,2049
5,-0.1504,-0.3518,0.0654,-0.457,0.3814,-2.286,2046
5,-0.1926,-0.3257,0.0574,-0.4806,0.2643,-2.4365,2045
5,-0.3418,-0.4653,0.0486,-0.5606,0.4842,-2.4505,2050
5,-0.2051,-0.3438,0.0935,-0.6215,0.5863,-2.6056,2048
5,-0.2295,-0.3953,0.0688,-0.6703,0.6042,-2.6761,2047
5,-0.2053,-0.3821,0.0283,-0.7187,0.5842,-2.761,2062
5,-0.2046,-0.3555,0.0239,-0.7379,0.4856,-2.8268,2049
5,-0.2231,-0.3672,0.0264,-0.7305,0.3529,-2.8779,2047
5,-0.2058,-0.3872,0.0093,-0.7385,0.1819,-2.9189,2046
5,-0.1919,-0.4155,0.0161,-0.7227,-0.0393,-2.9392,2042
5,-0.2417,-0.4395,0.0383,-0.7114,-0.2731,-2.9494,2049
5,-0.293,-0.4316,0.0979,-0.7231,-0.4028,-2.9403,2051
5,-0.3289,-0.407,0.1736,-0.7509,-0.4549,-2.9305,2048
5,-1.0791,-2.0,0.3123,-2.9957,0.8795,-2.6702,2068
5,-1.709,0.2417,-0.5828,-1.026,-1.061,-0.3709,2074
5,-0.449,-1.325,0.5925,-0.0963,-3.1973,-1.1906,2163
5,-2.0,-2.0,0.0737,0.2039,-3.2306,1.1781,1945
5,-2.0,-2.0,1.9999,0.5517,-1.7535,2.3736,1948
5,-1.376,-0.4497,1.7961,-0.0779,1.2627,0.4276,2250
5,1.9999,-0.0906,1.0173,0.1621,-0.9796,0.4599,2108
5,0.9319,-0.1406,-0.1426,0.3512,-0.3651,0.178,2116
5,-1.7695,-0.7507,0.5659,1.5207,-0.2678,0.6256,2003
5,-1.448,-1.041,1.0315,0.695,1.2698,0.2898,1933
5,-0.1655,-1.3931,-0.3223,0.3438,1.1015,0.5429,2022
5,-0.0637,-0.9189,-0.4209,0.2228,0.8429,0.3972,1991
5,0.1541,-1.7544,0.019,-0.0542,0.1767,0.2671,2081
5,-0.2058,-1.4011,0.3123,-0.0124,-0.1164,0.0836,1891
5,-0.2119,-1.1885,0.4526,0.1724,-0.0341,0.1111,2024
5,-0.688,-0.9031,0.519,0.3089,0.136,0.163,2060
5,-0.6912,-0.7371,0.2998,0.2794,0.195,0.0095,2078
5,-0.5649,-0.781,0.312,0.2558,0.224,-0.0453,2069
5,-0.6138,-0.9094,0.3132,0.0902,0.3325,-0.1701,2060
5,-0.584,-0.9575,0.3916,-0.0294,0.3599,-0.3267,2065
5,-0.4216,-0.9727,0.3455,-0.0676,0.4827,-0.405,2070
5,-0.2834,-1.0078,0.3101,-0.0571,0.4678,-0.3983,2055
5,-0.2393,-1.0337,0.2793,-0.0459,0.3316,-0.3935,2071
5,-0.2197,-1.0349,0.2512,-0.0563,0.2024,-0.377,2056
5,-0.2578,-1.0164,0.2683,-0.0932,0.0727,-0.3689,2012
5,-0.3713,-0.9956,0.3118,-0.1459,0.0204,-0.3998,2070
5,-0.4192,-0.9709,0.3289,-0.1914,0.0317,-0.45,2063
5,-0.4363,-0.9558,0.2944,-0.2264,0.0831,-0.5141,2054
5,-0.405,-0.9553,0.271,-0.2567,0.1225,-0.5839,1994
5,-0.3411,-0.9978,0.2437,-0.2685,0.1265,-0.6434,2049
5,-0.2832,-1.0029,0.2041,-0.2691,0.0996,-0.6863,2058
5,-0.2527,-1.031,0.1716,-0.2694,0.0656,-0.6967,2000
5,-0.2219,-0.999,0.1946,-0.2739,-0.0019,-0.7038,2048
5,-0.2561,-0.9529,0.2212,-0.2902,-0.0217,-0.6846,2014
6,-0.2517,-0.9829,0.2056,-0.3115,-0.0146,-0.6986,2068
6,-0.2019,-1.002,0.2327,-0.3156,0.014,-0.6781,2158
6,-0.1614,-1.0178,0.1948,-0.3264,0.0429,-0.6453,2021
6,-0.1941,-1.0137,0.1831,-0.33,0.0683,-0.64,2072
6,-0.2344,-0.9941,0.1951,-0.3926,0.1151,-0.6283,2073
6,-0.1841,-0.9626,0.1562,-0.4099,0.1368,-0.6112,1945
6,-0.1318,-0.9243,0.1704,-0.4334,0.0622,-0.5662,1972
6,-0.0872,-1.0376,0.1753,-0.3649,0.0174,-0.5288,2104
6,-0.1028,-1.0525,0.1824,-0.3558,-0.0312,-0.4952,2065
6,-0.1741,-1.0583,0.1987,-0.3478,-0.0101,-0.4719,2073
6,-0.2422,-1.01,0.2622,-0.3601,0.0919,-0.4337,2063
6,-0.2029,-0.8784,0.1958,-0.3639,0.0245,-0.4369,2069
6,-0.3445,-0.9695,0.1746,-0.3225,0.1039,-0.4317,2013
6,-0.3726,-0.9719,0.1663,-0.3417,0.188,-0.4806,2061
6,-0.1802,-0.9026,0.05,-0.3284,0.1554,-0.5397,2110
6,-0.0264,-0.9297,0.0288,-0.2772,0.126,-0.4818,2111
6,-0.113,-0.9939,0.0161,-0.239,0.0393,-0.4386,2064
6,-0.1204,-0.9688,-0.0088,-0.2013,0.0017,-0.4011,2099
6,-0.0986,-0.9514,0.0273,-0.1754,-0.0264,-0.3605,1947
6,-0.0671,-0.9304,0.0767,-0.1756,-0.0868,-0.2984,2132
6,-0.1018,-0.9507,0.0774,-0.1582,-0.065,-0.2514,2064
6,-0.0908,-0.9736,0.0759,-0.1514,-0.0158,-0.2047,2068
6,-0.0315,-0.9944,0.0635,-0.1206,-0.0016,-0.1573,2032
6,0.022,-0.9534,0.0576,-0.0943,-0.01,-0.1025,2083
6,-0.033,-0.9534,0.0405,-0.0941,-0.0402,-0.0213,1982
6,0.0049,-0.9658,0.0676,-0.0871,-0.0791,0.0609,2050
6,-0.0984,-0.9736,0.0764,-0.0451,-0.1167,0.1246,2050
6,-0.1135,-1.0156,0.1143,-0.0281,-0.0964,0.1312,2118
6,-0.1846,-1.0183,0.0991,0.0414,0.006,0.1362,2023
6,-0.0833,-1.0146,0.1382,-0.0021,-0.0579,0.1206,2032
6,-0.0266,-1.0027,0.1318,-0.0609,-0.1163,0.0868,1986
6,-0.3743,-0.9712,0.0703,-0.0919,0.291,-0.008,2144
6,0.1196,-1.0315,0.092,-0.0021,0.3093,0.1735,2073
6,0.0696,-1.0029,0.1187,0.0369,0.1116,0.3342,2075
6,-0.158,-1.0049,0.071,0.0491,0.0206,0.3405,2062
6,-0.116,-0.9656,0.071,0.0731,-0.0001,0.3484,1970
6,-0.126,-0.9873,0.083,0.0848,0.0178,0.3747,2076
6,-0.1724,-1.0371,0.0771,0.0523,0.0324,0.3581,2003
6,-0.176,-1.0269,0.0759,0.0617,-0.0076,0.3773,2055
6,-0.2017,-1.0156,0.0601,0.084,-0.0458,0.3438,1988
6,-0.2415,-1.0281,0.0554,0.0951,-0.1024,0.2983,2054
6,-0.228,-1.0337,0.1064,0.1358,-0.1281,0.2655,2164
6,-0.2158,-1.0398,0.1196,0.1531,-0.0695,0.2342,2005
6,-0.1738,-1.0671,0.1272,0.1812,-0.0676,0.2226,2147
6,-0.1421,-1.1257,0.1475,0.1357,-0.0438,0.2128,2140
6,-0.1206,-1.114,0.1589,0.1519,-0.0055,0.2253,1887
6,-0.1226,-1.1331,0.1577,0.1723,-0.027,0.2638,2072
6,-0.1558,-1.1111,0.1807,0.1406,0.004,0.2936,2184
6,-0.2349,-1.0889,0.1858,0.138,0.0334,0.3244,2109
6,-0.3127,-1.0823,0.1924,0.1643,-0.0181,0.3675,1975
6,-0.2817,-1.1018,0.1492,0.2257,-0.0188,0.4618,2003
6,-0.2466,-1.188,0.1267,0.3577,0.055,0.591,2071
6,-0.2529,-1.3242,0.1501,0.4747,0.2171,0.7504,2058
6,-0.4341,-1.71,0.2229,0.3464,0.804,0.2959,2024
6,0.2964,-1.5168,0.1772,0.2116,0.6797,-0.2559,2119
6,0.4822,-1.2424,0.2166,0.4582,-0.223,0.067,2104
6,0.3831,-1.4666,0.2808,0.4296,-0.5763,-0.0614,2105
6,0.4397,-1.3584,0.3508,0.3766,-0.7741,0.0694,2065
6,0.5896,-1.0247,0.3198,0.5412,-1.0492,-0.0073,2056
6,1.1084,-0.9973,0.2554,0.9416,-2.1097,0.3967,2086
6,0.5403,-1.5356,0.272,0.5377,-1.5331,-0.406,2173
6,-0.2458,-1.2327,0.0063,0.6502,-1.1471,0.2301,1957
6,1.2422,-1.6846,1.1721,-0.0778,-3.471,1.5898,2113
6,-1.4736,-1.4585,-0.5264,1.1884,-2.7185,1.9117,2026
6,-1.1216,-0.6221,-0.6426,1.0065,-1.5139,1.1853,2007
6,0.5552,-1.6655,0.5383,1.8856,-0.516,0.8604,2075
6,-0.5862,-1.6521,0.3042,0.7481,-0.9062,1.7892,2098
6,-0.5981,-1.3655,-0.229,0.6413,0.2818,1.4155,1996
6,-0.8118,-1.7874,0.4666,0.394,-0.059,1.8054,2004
6,-0.7947,-1.53,0.6833,0.1923,-0.4217,2.0045,2019
6,-0.553,-1.4827,0.3601,-0.0253,-0.5895,1.9893,2024
6,-0.0244,-1.428,0.0806,-0.0808,-1.0302,2.2734,2063
6,0.2458,-1.0359,-0.3398,0.4574,-0.634,2.0817,2057
6,0.1243,-1.1145,-0.2,0.9774,-0.1051,2.1438,2054
6,0.187,-1.157,0.2566,0.872,-0.3952,2.2779,2059
6,-0.1899,-1.1455,0.3059,0.8645,-0.5448,2.4176,2058
6,-0.5103,-1.1531,0.2507,0.7589,-0.4605,2.374,2058
6,-0.6863,-1.0627,0.248,0.7686,-0.1758,2.2848,2051
6,-0.7449,-1.0955,0.3899,0.7821,-0.189,2.2819,2040
6,-0.8274,-1.1228,0.397,0.675,-0.0866,2.2607,2047
6,-0.8159,-1.0559,0.3643,0.6839,0.2151,2.171,2020
6,-0.7754,-0.8582,0.2854,0.7482,0.5164,2.0711,2074
6,-0.7354,-0.7686,0.313,0.6887,0.7494,1.9591,2065
6,-0.7483,-0.7458,0.3228,0.744,0.9867,1.7442,2068
6,-0.6113,-0.6316,0.354,0.8034,1.0491,1.6,2049
6,-0.5437,-0.6365,0.3975,0.9773,1.1416,1.664,2047
6,-0.6255,-0.7473,0.4971,1.0002,1.3865,1.623,2050
6,-0.6951,-0.801,0.4221,0.8043,1.7614,1.3447,2045
6,-0.7136,-0.7063,0.4158,0.7569,1.9668,1.1864,2051
6,-0.6064,-0.5701,0.3066,0.6921,2.1481,1.0239,2043
6,-0.4353,-0.4373,0.2449,0.5682,2.1654,0.7436,2051
6,-0.3906,-0.5715,0.1895,0.6685,1.9868,0.7668,2056
6,-0.4729,-0.6868,0.2817,0.5722,1.737,0.5766,2048
6,-0.5012,-0.738,0.2385,0.3815,1.6869,0.4292,2047
6,-0.2578,-0.6089,0.0627,0.222,1.4809,0.3619,2042
6,-0.3394,-0.7224,0.1191,-0.0614,1.0204,-0.0832,2054
6,-0.2542,-0.7065,0.1721,-0.1282,0.4838,-0.5883,2085
6,0.241,-0.4226,0.002,-0.0023,-0.0324,-0.3583,2060
6,-0.2341,-0.2102,-0.0557,-0.0258,0.1439,-0.4984,2064
6,-0.2656,-0.1511,-0.071,-0.0394,0.0959,-0.6983,2067
6,-0.2627,-0.146,0.0559,0.0822,0.027,-0.8159,2061
6,-0.2588,-0.1855,0.1304,0.0659,-0.1149,-0.899,2121
6,-0.3225,-0.1775,0.1394,-0.1314,-0.1362,-1.0328,1999
7,-0.2117,-0.2214,0.1201,-0.1762,-0.1618,-1.1985,2037
7,-0.2424,-0.1768,0.0742,-0.2478,-0.1569,-1.3881,2053
7,-0.2952,-0.1841,0.0168,-0.2839,-0.1314,-1.6126,2059
7,-0.283,-0.2368,-0.0022,-0.3787,-0.1107,-1.847,2057
7,-0.2703,-0.2112,0.031,-0.4841,-0.104,-2.0817,2053
7,-0.2271,-0.2124,0.0012,-0.6102,-0.116,-2.2969,2047
7,-0.5659,-0.2095,0.1133,-0.3717,-0.0288,-2.2634,2043
7,-0.3105,-0.4136,0.1543,-0.6352,0.2651,-2.4471,2036
7,-0.2378,-0.3464,0.1553,-0.7152,0.2565,-2.5397,2052
7,-0.3755,-0.3494,0.0198,-0.8272,0.2461,-2.5864,2048
7,-0.3892,-0.3103,0.011,-0.8468,0.3815,-2.7239,2056
7,-0.3481,-0.3066,0.0718,-0.8907,0.4826,-2.8192,2051
7,-0.3657,-0.3096,0.0652,-0.9143,0.581,-2.8902,2056
7,-0.3772,-0.2961,0.1089,-0.9385,0.6755,-2.9616,2051
7,-0.3582,-0.3271,0.1128,-0.9945,0.7196,-3.0204,2058
7,-0.3401,-0.364,0.092,-1.0453,0.7136,-3.0766,2048
7,-0.3335,-0.408,0.0793,-1.0869,0.6729,-3.1155,2047
7,-0.3455,-0.4216,0.0447,-1.1475,0.6496,-3.1404,2048
7,-0.342,-0.3838,0.0422,-1.1686,0.5384,-3.1469,2047
7,-0.3567,-0.4182,0.0732,-1.2788,0.4564,-3.1616,2043
7,-2.0,-0.2917,-1.5312,-2.4693,3.5861,-0.8893,2085
7,-2.0,-1.29,-0.0439,-0.1633,-3.3537,-1.0629,2180
7,0.0757,-1.7266,0.3196,-0.4466,-4.3635,0.2163,1984
7,-2.0,-2.0,1.1165,0.8084,-4.3635,2.225,1893
7,-2.0,-0.4119,1.7139,0.0305,-0.7393,0.963,2336
7,1.9999,-0.1875,1.146,0.0125,-1.6115,1.0123,2162
7,0.8142,-2.0,1.3284,0.2368,-1.213,0.3464,2292
7,-2.0,-1.6921,1.2947,0.8649,0.6148,0.2717,2044
7,-0.5911,-1.8159,0.032,0.5638,1.6002,-0.2393,2024
7,0.0127,-0.0339,-0.5684,0.4603,1.275,0.193,2055
7,-0.3718,-0.3904,-0.3074,0.3284,-0.1848,0.1755,2080
7,-0.7227,-1.0557,0.3823,-0.0812,0.0609,-0.0888,2016
7,-0.3711,-1.0908,0.364,0.0158,0.2633,-0.2092,2104
7,-0.2715,-1.1409,0.6233,0.2884,0.3634,-0.0912,2058
7,-0.4661,-1.0369,0.2236,0.2835,0.0684,-0.2484,2096
7,-0.303,-1.0173,0.1577,0.2979,0.0133,-0.3216,1961
7,-0.3799,-1.0828,0.2834,0.2384,0.0735,-0.3156,2055
7,-0.3948,-0.9834,0.3635,0.0907,0.157,-0.3918,2019
7,-0.4082,-0.9541,0.3928,-0.0562,0.165,-0.5283,2004
7,-0.4268,-0.9778,0.3462,-0.0822,0.3104,-0.6596,2055
7,-0.3289,-1.0093,0.2637,-0.121,0.352,-0.7494,2058
7,-0.2146,-1.0232,0.1653,-0.1454,0.2394,-0.7337,2053
7,-0.177,-1.0095,0.1392,-0.136,0.0617,-0.6644,1991
7,-0.304,-1.0234,0.1665,-0.1386,-0.0407,-0.6685,1986
7,-0.3806,-0.9993,0.2048,-0.1673,0.0222,-0.699,2079
7,-0.3579,-0.9763,0.2148,-0.206,0.0778,-0.7452,2048
7,-0.3018,-0.9753,0.1909,-0.2143,0.1194,-0.8048,2057
7,-0.2783,-0.9668,0.1587,-0.2223,0.133,-0.8293,2067
7,-0.2283,-0.9587,0.1318,-0.2128,0.1673,-0.859,2087
7,-0.1804,-0.9771,0.1138,-0.202,0.1322,-0.8508,2041
7,-0.2004,-0.9658,0.1228,-0.1892,0.1365,-0.8263,2055
7,-0.1516,-0.9373,0.1204,-0.1802,0.1446,-0.809,2027
7,-0.1309,-0.9585,0.1675,-0.1993,0.1622,-0.7596,2070
7,-0.1577,-0.981,0.1787,-0.2422,0.3144,-0.7269,2055
7,-0.0928,-0.9673,0.1614,-0.2546,0.2962,-0.6875,2075
7,-0.0957,-0.9795,0.1636,-0.2523,0.2908,-0.6219,2070
7,-0.1401,-0.9829,0.1213,-0.2445,0.2559,-0.6067,2040
7,-0.1252,-0.9299,0.1062,-0.2348,0.3035,-0.6156,2049
7,-0.1082,-0.9771,0.1042,-0.2309,0.2918,-0.6028,2080
7,-0.0637,-0.9553,0.0598,-0.1964,0.2539,-0.5621,2060
7,-0.0908,-0.9333,0.0691,-0.1465,0.2033,-0.5179,2025
7,-0.1101,-0.9824,0.1079,-0.1563,0.2232,-0.5239,2064
7,-0.0381,-0.9534,0.1155,-0.1412,0.2147,-0.4701,2067
7,-0.0654,-1.0173,0.1116,-0.1292,0.1932,-0.4753,2023
7,-0.0435,-1.0005,0.0857,-0.1368,0.2342,-0.4332,2056
7,-0.0017,-0.981,0.0742,-0.122,0.2192,-0.3888,2051
7,0.0469,-0.9905,0.1018,-0.0775,0.1233,-0.334,2041
7,-0.0347,-0.9749,0.1033,-0.0365,0.0543,-0.291,2035
7,-0.0227,-0.9875,0.0813,0.0069,0.0278,-0.2591,2020
7,-0.0017,-0.9668,0.0986,0.0437,-0.0166,-0.2089,2064
7,0.0435,-0.9834,0.0864,0.0754,-0.0162,-0.165,2045
7,0.1304,-1.0208,0.0618,0.0555,-0.0579,-0.1072,2010
7,0.1091,-1.0151,-0.0029,0.0245,-0.0816,-0.0687,2006
7,0.1309,-0.9727,-0.0273,0.0071,-0.0289,-0.0201,2102
7,0.125,-0.9976,0.022,0.0232,-0.0041,0.0502,2057
7,0.0806,-0.9705,0.0063,0.0443,0.0403,0.1152,2021
7,0.0305,-0.968,0.0281,0.1241,-0.0047,0.0888,2045
7,-0.0771,-1.0193,0.0835,0.1429,0.0059,0.0455,2040
7,-0.1033,-1.1357,0.1572,0.1828,0.0477,0.1342,2058
7,-0.1357,-1.0408,0.1477,0.1087,0.1155,0.2268,2086
7,-0.0884,-0.957,0.1023,0.0093,0.0599,0.1238,2026
7,-0.1445,-0.9795,0.0835,-0.0132,0.5043,0.3075,2043
7,0.0483,-1.0911,0.1174,0.121,0.0736,0.3274,2063
7,0.0886,-1.0295,0.0461,0.1226,0.0117,0.3271,2079
7,-0.0137,-0.9775,0.1147,0.1229,0.0766,0.3408,2062
7,-0.0042,-0.9978,0.1082,0.1028,-0.0192,0.3061,2069
7,-0.0144,-1.0046,0.0298,0.1458,0.0759,0.3477,1930
7,-0.0088,-1.0088,0.0701,0.2148,-0.0222,0.3836,2066
7,-0.0012,-0.9841,0.0884,0.2127,0.0099,0.4176,1998
7,-0.0295,-1.0095,0.0413,0.2561,0.036,0.463,2035
7,-0.0061,-1.0112,0.0554,0.2856,0.0336,0.5171,2099
7,-0.0227,-1.0088,0.0693,0.2923,0.0987,0.5773,2058
7,0.0662,-1.001,0.0535,0.2583,0.1851,0.6453,2039
7,-0.0522,-1.0427,0.0676,0.2366,0.2069,0.709,2071
7,-0.1416,-1.0593,0.1277,0.2445,0.1704,0.7919,2026
7,-0.1577,-1.0637,0.1616,0.2595,0.1529,0.8228,2136
7,-0.1899,-1.0813,0.168,0.1989,0.1534,0.8616,1960
7,-0.2131,-1.0906,0.2263,0.138,0.0704,0.9489,2022
7,-0.2021,-1.1008,0.2607,0.1143,-0.0224,1.013,2054
7,-0.2183,-1.2188,0.2654,0.104,-0.0577,0.9332,2016
7,-0.1819,-1.3286,0.2173,0.1646,-0.0771,0.8204,1994
7,-0.1382,-1.3547,0.2268,0.2124,-0.0277,0.8202,2022
8,-0.0293,-1.4993,0.2,0.2153,-0.34,0.5468,1923
8,0.0381,-1.3999,0.1875,0.241,-0.2334,0.6213,2134
8,0.0061,-1.5913,0.1687,0.2104,-0.3898,0.717,2014
8,-0.1086,-1.7607,0.2136,0.0843,-0.3176,0.5747,2024
8,0.2803,-1.5247,0.2068,0.0033,-0.7042,0.0937,2081
8,0.3838,-1.2827,0.2451,0.0513,-1.4202,-0.1559,2064
8,0.0293,-1.2981,0.3193,0.0935,-1.6478,-0.0617,2050
8,-0.1384,-1.0586,0.3843,0.2581,-1.613,0.1659,2065
8,-0.4031,-1.1006,0.3972,0.5102,-0.8978,-0.1196,2013
8,1.0286,-0.9187,0.1697,0.7293,-2.0995,0.3406,2069
8,0.8638,-1.4988,0.1924,0.1245,-3.9478,-0.4637,2058
8,-0.3369,-1.2937,0.0999,0.8622,-1.9877,-1.6451,2134
8,1.2322,-1.688,1.1362,-0.6271,-4.3635,3.9,2076
8,-1.4368,-0.0068,-1.1062,0.7787,-0.0743,0.4026,1907
8,0.8093,-1.4702,0.2039,1.7587,-0.6542,0.5301,2136
8,-0.8384,-1.7935,0.3489,0.4847,-2.072,1.6785,2102
8,-0.272,-1.2771,-0.3105,0.3902,-0.6034,1.3549,2028
8,-0.4324,-1.6274,0.5034,0.3907,-1.7663,1.8378,1985
8,-0.6936,-1.3196,0.5625,0.2719,-2.6201,2.0983,2008
8,-0.5559,-1.2725,0.5869,0.0928,-2.4421,2.0936,2042
8,-0.2139,-1.3022,0.5559,0.2232,-2.3257,2.2003,2061
8,-0.1821,-1.228,0.2773,0.6212,-1.7074,2.2497,2053
8,-0.1187,-1.2488,0.1682,0.4739,-0.8825,2.2864,2046
8,-0.3113,-1.1875,0.0994,0.7656,-0.2254,2.3537,2049
8,-0.2927,-1.2244,0.2471,0.9862,0.4923,2.3759,2056
8,-0.084,-1.3264,0.3464,1.0431,0.7618,2.2834,2062
8,-0.1013,-1.3057,0.3286,0.9714,0.7794,2.3305,2048
8,-0.3696,-1.1782,0.3066,1.0352,0.8898,2.3401,2040
8,-0.6243,-1.187,0.366,1.1868,1.2469,2.3951,2037
8,-0.7998,-1.2085,0.4619,0.9845,1.5828,2.4169,2035
8,-0.8811,-1.1172,0.3777,0.9436,1.7366,2.3028,2019
8,-0.7705,-1.0515,0.3997,0.8331,1.7583,2.1885,2036
8,-0.7993,-0.9395,0.3577,0.7931,2.0096,1.9515,2053
8,-0.5803,-0.75,0.4446,0.8151,1.7938,1.6881,2021
8,-0.3782,-0.6035,0.3828,0.9094,1.4877,1.6491,2077
8,-0.3979,-0.8413,0.3591,0.8142,1.4121,1.5422,2073
8,-0.408,-0.9197,0.3398,0.5968,1.4873,1.4266,2055
8,-0.4688,-0.8047,0.2839,0.5641,1.8301,1.3213,2058
8,-0.3684,-0.5439,0.1257,0.8228,2.0411,1.368,2024
8,-0.2183,-0.3679,-0.0364,0.9289,1.9667,1.5181,2034
8,-0.1677,-0.6274,0.1956,0.7158,1.6008,1.3738,2064
8,-0.0249,-0.5081,0.1577,0.9183,0.9515,1.3748,2077
8,-0.4705,-0.6526,0.3386,0.8308,0.2741,1.1949,2063
8,-0.7473,-0.7979,0.2854,0.5465,0.0554,0.6048,2049
8,-0.302,-0.3276,0.2031,0.2727,0.1874,0.233,2060
8,-0.1758,-0.218,0.1675,0.1454,-0.0324,0.0795,2058
8,-0.3616,-0.3271,0.1282,0.0826,-0.4775,-0.1389,2076
8,-0.2283,-0.3164,0.1538,0.0434,-0.6871,-0.3309,2050
8,-0.0571,-0.3071,0.0981,0.1148,-0.7457,-0.3061,2067
8,-0.2827,-0.094,0.1101,0.0438,-0.6621,-0.4661,2108
8,-0.2527,-0.0894,0.2134,0.069,-0.6996,-0.5946,2053
8,-0.2139,-0.1455,0.1721,0.0651,-0.5481,-0.7285,2022
8,-0.4033,-0.0945,0.1836,0.0798,-0.3357,-0.8785,2029
8,-0.2717,-0.2185,0.1865,-0.0559,-0.2412,-1.0761,2045
8,-0.3728,-0.2109,0.1965,-0.1048,-0.0169,-1.2987,2062
8,-0.3247,-0.2239,0.1807,-0.2065,0.0927,-1.5446,2055
8,-0.3289,-0.2349,0.1672,-0.2726,0.2049,-1.8199,2066
8,-0.2451,-0.2432,0.1555,-0.3084,0.1646,-2.0584,2051
8,-0.4199,-0.3408,0.1631,-0.3051,0.2609,-2.1314,2051
8,-0.2639,-0.4126,0.0833,-0.4829,0.3742,-2.323,2070
8,-0.2915,-0.4666,0.1052,-0.5256,0.4061,-2.4543,2049
8,-0.3276,-0.5352,0.1721,-0.5849,0.4621,-2.5488,2049
8,-0.2993,-0.5828,0.2278,-0.6235,0.5745,-2.661,2045
8,-0.3198,-0.6208,0.2729,-0.6818,0.7175,-2.755,2054
8,-0.3267,-0.605,0.2871,-0.7444,0.8704,-2.8634,2053
8,-0.2925,-0.5857,0.2888,-0.8211,1.0288,-2.9821,2043
8,-0.2483,-0.5232,0.2307,-0.871,1.125,-3.0853,2049
8,-0.187,-0.4663,0.1663,-0.8911,1.1334,-3.1688,2048
8,-0.124,-0.3762,0.0947,-0.8854,1.0041,-3.2421,2050
8,-0.0581,-0.2778,0.0415,-0.8608,0.748,-3.2901,2048
8,0.0078,-0.2366,0.0276,-0.877,0.3986,-3.3086,2050
8,0.0281,-0.2375,-0.0403,-1.0491,0.0579,-3.3292,2041
8,-2.0,0.3225,-1.3013,-0.4601,1.3318,-1.2378,2063
8,-2.0,0.157,0.5369,0.0498,-4.3635,-1.5704,2044
8,-2.0,-2.0,-0.3137,-0.3011,-2.533,1.1666,2036
8,-2.0,-2.0,1.9999,0.4229,-1.9915,3.0602,2079
8,-1.863,-0.3748,1.7219,-0.5044,0.4814,0.7582,1895
8,1.9999,0.4341,1.0596,-0.6574,0.3155,0.3621,2060
8,0.6162,-1.136,-0.1614,-0.4032,-0.5718,0.2862,1937
8,-2.0,-1.3447,1.8079,1.1986,-0.0245,0.5201,2216
8,-1.7268,-1.7568,0.678,-0.0394,1.7712,0.0109,2039
8,0.8474,-0.762,0.0447,0.1372,1.6246,0.3165,2024
8,0.0632,-0.9773,-0.27,-0.0348,0.2811,0.4412,2157
8,-0.6375,-1.0901,0.0576,-0.3408,0.1931,0.1412,2039
8,-0.4275,-0.9614,0.1843,-0.3159,0.2563,0.0048,2044
8,-0.2319,-0.8743,0.3042,-0.1497,-0.0173,0.1422,2147
8,-0.7612,-0.9702,0.4709,-0.1091,0.2039,0.086,2079
8,-0.5034,-1.0461,0.3599,-0.0325,0.3131,-0.0443,2074
8,-0.4011,-1.0332,0.2263,-0.0133,0.2341,-0.0609,2068
8,-0.5789,-0.9768,0.2175,-0.1105,0.2461,-0.1699,2080
8,-0.4968,-0.9077,0.2278,-0.2065,0.265,-0.3228,2009
8,-0.3958,-0.9141,0.2527,-0.2476,0.2269,-0.389,2053
8,-0.3604,-0.9866,0.2651,-0.2157,0.2089,-0.4048,2056
8,-0.3147,-1.0063,0.2607,-0.206,0.185,-0.4042,2029
8,-0.2585,-0.9871,0.2136,-0.2164,0.1095,-0.3882,2032
8,-0.3,-1.002,0.2202,-0.2378,0.0268,-0.3952,2032
8,-0.3892,-0.9927,0.2783,-0.278,0.0076,-0.4394,2032
8,-0.3899,-0.9932,0.2979,-0.3163,0.0344,-0.4898,2054
8,-0.3557,-1.0061,0.25,-0.3464,0.0839,-0.516,2071
8,-0.3364,-0.9846,0.1846,-0.3441,0.0723,-0.5454,2059
8,-0.3132,-0.957,0.1472,-0.3282,0.0284,-0.5729,2074
9,-0.3333,-0.9211,0.1123,-0.3156,-0.0246,-0.6015,2061
9,-0.3521,-0.9143,0.113,-0.296,-0.0447,-0.6391,2104
9,-0.3188,-0.9353,0.1396,-0.3044,-0.0296,-0.6617,2012
9,-0.3079,-0.9639,0.1565,-0.3131,0.0005,-0.6967,2108
9,-0.2249,-0.9851,0.1265,-0.2967,-0.0029,-0.6994,2103
9,-0.2405,-0.9661,0.1365,-0.314,0.0076,-0.6873,2106
9,-0.2302,-0.9827,0.1472,-0.3233,0.02,-0.6947,2109
9,-0.1643,-0.9912,0.1345,-0.2948,0.0196,-0.6753,2099
9,-0.1533,-0.9597,0.1313,-0.2816,0.002,-0.6309,2054
9,-0.2209,-0.9729,0.1357,-0.2876,0.0144,-0.6165,2025
9,-0.2847,-0.9509,0.126,-0.2956,0.051,-0.6777,2060
9,-0.1824,-0.9524,0.1284,-0.2848,0.0087,-0.6646,2055
9,-0.2314,-0.9629,0.1267,-0.295,-0.0376,-0.6694,2067
9,-0.3032,-0.9753,0.1216,-0.2828,0.0128,-0.6874,2043
9,-0.157,-0.938,0.1277,-0.2758,0.0174,-0.6877,2038
9,-0.1829,-0.9351,0.1167,-0.2689,0.0362,-0.6883,1991
9,-0.1516,-0.9736,0.1045,-0.2641,0.0722,-0.697,2050
9,-0.1572,-0.9524,0.0818,-0.2437,0.1201,-0.6805,2014
9,-0.1167,-0.95,0.0898,-0.2169,0.1285,-0.6332,2060
9,-0.0776,-0.9529,0.0864,-0.177,0.0979,-0.5757,2077
9,-0.0278,-0.9526,0.0422,-0.1555,0.0477,-0.5066,2032
9,0.0042,-1.0173,-0.009,-0.0571,0.0005,-0.4111,2003
9,0.064,-1.0403,0.0044,0.0458,-0.0747,-0.3059,2047
9,0.0696,-1.011,0.0266,0.0574,-0.1325,-0.2292,2077
9,-0.012,-0.9749,0.0305,0.0415,-0.0762,-0.1786,2030
9,-0.0249,-0.9585,0.0278,0.0614,-0.0184,-0.1322,2075
9,-0.0283,-0.9749,0.0266,0.0723,-0.0411,-0.079,2052
9,0.0022,-0.9705,0.0364,0.0682,-0.0784,-0.0322,2123
9,-0.0686,-0.9526,0.0818,0.0336,-0.0193,-0.0083,2049
9,-0.1394,-0.968,0.114,0.0087,0.0146,-0.0071,2045
9,-0.1565,-0.9597,0.1514,-0.02,-0.0174,0.0037,1954
9,-0.1924,-0.9517,0.1594,-0.0356,-0.0218,-0.0321,2067
9,-0.1736,-1.0054,0.1577,-0.0593,-0.0096,-0.0442,2047
9,-0.1907,-1.043,0.1589,-0.0274,-0.0025,-0.0244,2102
9,-0.1597,-1.0134,0.1926,-0.0282,0.0316,-0.0274,2042
9,-0.0154,-1.032,0.1807,0.0065,-0.0762,0.0238,2075
9,-0.0793,-1.0474,0.1753,0.0222,-0.1135,0.0541,2019
9,-0.0681,-1.0251,0.126,0.0056,-0.0756,0.0724,2072
9,-0.1467,-0.9751,0.0852,0.0305,0.0224,0.0839,2079
9,-0.0303,-0.9626,0.0422,0.0182,0.0577,0.0786,2069
9,-0.0505,-1.0188,0.0466,0.017,-0.0242,0.0953,2043
9,-0.2031,-0.9214,-0.012,0.0708,0.2156,0.1526,2017
9,-0.0337,-1.0786,0.0632,0.0341,0.0956,0.0981,2031
9,-0.1421,-1.0032,0.0176,0.0724,0.0149,0.1234,1992
9,-0.1406,-1.0078,0.0525,0.1117,-0.0041,0.1041,2033
9,-0.1147,-1.0234,0.0869,0.1121,-0.0569,0.1151,2065
9,-0.1213,-1.0342,0.1301,0.1445,-0.0241,0.1338,2023
9,-0.0554,-1.0271,0.1179,0.187,-0.0688,0.1671,2069
9,-0.0588,-1.0166,0.1206,0.2256,-0.0047,0.2413,1955
9,0.0225,-1.0444,0.1086,0.2232,-0.051,0.2946,2039
9,-0.0452,-1.0178,0.0933,0.2278,-0.0578,0.3587,1941
9,-0.063,-1.0203,0.0815,0.2297,-0.0025,0.3823,1835
9,-0.1392,-1.0591,0.0671,0.2401,0.0157,0.3714,2056
9,-0.2087,-1.0203,0.0774,0.2416,-0.0284,0.3598,2010
9,-0.2751,-1.0308,0.0994,0.2095,-0.1139,0.3282,1964
9,-0.3481,-1.0151,0.1404,0.1599,-0.1743,0.2874,2102
9,-0.4026,-0.9612,0.1648,0.1007,-0.2457,0.1728,2054
9,-0.4019,-1.0615,0.1628,0.1036,-0.2988,0.0027,2012
9,-0.3672,-1.292,0.1458,0.1421,-0.2776,-0.1605,2123
9,-0.22,-1.3716,0.1914,0.2115,-0.1976,-0.1915,2063
9,-0.022,-1.324,0.1814,0.289,-0.2727,-0.1979,2035
9,-0.0002,-1.2729,0.2363,0.4329,-0.0914,-0.0364,2004
9,0.1438,-1.4141,0.1819,0.4263,0.3272,0.247,2077
9,0.3987,-1.5359,0.1895,0.4492,0.4068,0.1385,2076
9,0.7266,-1.51,0.198,0.5083,-0.2265,0.2751,2044
9,0.5232,-1.3796,0.2112,0.4478,-0.5212,0.1783,2043
9,0.4434,-1.2708,0.3374,0.5476,-0.7469,0.4489,2063
9,0.2646,-1.1819,0.4724,0.3607,-0.8898,0.7131,2065
9,0.6404,-1.1399,0.3845,0.3366,-0.9291,0.1771,2037
9,0.6743,-1.0784,0.2354,0.6165,-1.7692,0.4038,2013
9,0.2739,-1.3994,0.1333,0.5059,-1.6556,-0.0405,2043
9,0.2737,-1.3486,0.3271,0.8705,-1.5783,0.5476,2132
9,0.3989,-1.2014,-0.2266,0.6324,-2.2369,2.5389,2080
9,-0.6804,-0.8328,-0.4636,0.7682,-1.6844,0.9088,2018
9,0.0144,-1.406,0.2993,1.2214,-0.789,1.2372,2033
9,-0.2195,-1.2854,0.2573,0.7429,-1.1476,1.5339,2076
9,-0.4119,-1.4507,-0.1465,0.5982,-0.4595,1.5115,2077
9,-0.7747,-1.6697,0.1196,0.3322,-0.4103,1.489,2047
9,-0.7727,-1.4253,0.5225,0.1975,-0.7216,1.6239,1995
9,-0.6487,-1.3545,0.446,0.0242,-0.9613,1.5597,2032
9,-0.2598,-1.1875,0.2651,-0.059,-1.0592,1.5795,2039
9,0.2041,-1.0935,0.0215,0.0325,-1.2196,1.6922,2041
9,0.1672,-0.8723,-0.0525,0.5027,-1.0318,1.5383,2047
9,0.1521,-1.0569,0.23,0.5398,-1.1535,1.6155,2077
9,-0.03,-0.9106,0.323,0.4461,-1.2623,1.7165,2065
9,-0.2563,-0.9485,0.3154,0.5273,-1.1383,1.8258,2071
9,-0.4397,-0.9917,0.2754,0.5461,-0.7281,1.69,2066
9,-0.4966,-0.9441,0.3362,0.5076,-0.3734,1.5852,2045
9,-0.5557,-0.9387,0.4233,0.5528,-0.1619,1.5293,2018
9,-0.6135,-0.9429,0.4722,0.4856,0.0586,1.5022,2055
9,-0.655,-0.8398,0.468,0.4524,0.3484,1.4531,2057
9,-0.6042,-0.8311,0.4468,0.4284,0.5799,1.3635,2049
9,-0.5349,-0.7498,0.3743,0.4725,0.7473,1.2922,2034
9,-0.519,-0.7351,0.3833,0.4775,0.8889,1.2266,2063
9,-0.4751,-0.6985,0.426,0.5079,0.9324,1.193,2058
9,-0.489,-0.7061,0.4014,0.5581,0.9492,1.1705,2051
9,-0.4937,-0.751,0.3511,0.5854,0.9155,1.1539,2051
9,-0.4685,-0.7468,0.3472,0.5775,1.0059,1.1194,2043
9,-0.4619,-0.7434,0.2844,0.614,1.097,1.1121,2058
9,-0.4827,-0.7439,0.2839,0.6426,1.1688,1.1263,2050
9,-0.5256,-0.771,0.3201,0.6577,1.1501,1.1002,2054
9,-0.5544,-0.7336,0.2773,0.6552,1.1708,1.0804,2054
9,-0.5522,-0.7976,0.3416,0.6697,1.0553,1.0539,2053
9,-0.5266,-0.7788,0.3079,0.6028,0.8705,1.0397,2056
10,-0.5342,-0.7527,0.2751,0.6245,0.8003,1.0095,2053
10,-0.554,-0.7954,0.2842,0.5919,0.7175,0.9547,2046
10,-0.573,-0.7407,0.2234,0.5068,0.6532,0.8858,2053
10,-0.6521,-0.6516,0.189,0.5694,0.7016,0.8722,2047
10,-0.7239,-0.6375,0.2327,0.6614,0.7197,0.8333,2054
10,-0.6829,-0.6121,0.2605,0.6925,0.5874,0.8059,2045
10,-0.6765,-0.6311,0.2432,0.6837,0.5195,0.7661,2045
10,-0.7466,-0.5574,0.2422,0.677,0.5867,0.681,2049
10,-0.7507,-0.5217,0.2566,0.7248,0.6248,0.5564,2039
10,-0.6213,-0.5466,0.2678,0.6462,0.5622,0.4192,2052
10,-0.5613,-0.6326,0.2458,0.6497,0.5596,0.3432,2057
10,-0.6262,-0.688,0.2136,0.6293,0.5685,0.2983,2053
10,-0.6665,-0.6238,0.1558,0.5565,0.5735,0.087,2055
10,-0.731,-0.6475,0.1624,0.6276,0.665,0.1358,2042
10,-0.7405,-0.5916,0.2622,0.7545,0.7835,0.1539,2047
10,-0.6133,-0.582,0.3813,0.6656,0.7484,-0.0142,2055
10,-0.4739,-0.6567,0.3069,0.4678,0.6196,-0.094,2052
10,-0.7026,-0.8169,0.3533,0.2838,0.3924,-0.3831,2056
10,-0.6309,-0.9258,0.3518,0.0747,0.3261,-0.9971,2057
10,0.429,-0.6958,0.0986,-0.1044,-0.3637,-0.8162,1993
10,-0.249,-0.3428,0.0083,-0.0411,0.108,-0.8702,2135
10,-0.3757,-0.4421,0.0457,0.1629,-0.2541,-0.8395,2078
10,-0.3503,-0.5491,0.1492,0.1806,-0.3091,-0.871,2077
10,-0.3313,-0.5156,0.2078,0.0233,-0.2217,-0.8934,2069
10,-0.311,-0.4451,0.1912,-0.1426,-0.2257,-0.9429,2074
10,-0.1892,-0.4431,0.1511,-0.3217,-0.2434,-1.0252,2031
10,-0.2063,-0.4451,0.1477,-0.439,-0.243,-1.1228,2030
10,-0.2622,-0.4834,0.135,-0.5596,-0.1312,-1.2418,2036
10,-0.3086,-0.4727,0.1821,-0.659,0.026,-1.4138,2061
10,-0.1868,-0.4492,0.2632,-0.7194,-0.0017,-1.6004,2058
10,-0.1218,-0.3318,0.2524,-0.7897,-0.1507,-1.7089,2058
10,-0.1887,-0.3511,0.0967,-0.9118,-0.2249,-1.829,2048
10,-0.23,-0.4175,-0.0088,-1.036,-0.257,-1.9715,2043
10,-0.2185,-0.4314,0.0039,-1.1026,-0.2936,-2.1414,2043
10,-0.1704,-0.4265,0.0276,-1.1576,-0.3441,-2.2814,2051
10,-0.209,-0.4395,0.0405,-1.1762,-0.442,-2.3386,2039
10,-0.2183,-0.512,0.0295,-1.2865,-0.4321,-2.3417,2053
10,-0.1208,-0.4949,-0.0081,-1.4017,-0.6032,-2.371,2050
10,-0.1807,-0.5686,-0.0435,-1.4906,-0.8218,-2.3409,2045
10,-0.2515,-0.5447,0.0112,-1.5431,-1.0076,-2.3305,2058
10,-0.2898,-0.5681,0.0818,-1.5992,-1.1463,-2.306,2056
10,-0.3237,-0.5691,0.1179,-1.6693,-1.1696,-2.2888,2044
10,-0.3008,-0.6357,0.1543,-1.7542,-1.2536,-2.2684,2049
10,-0.2859,-0.6672,0.1755,-1.8314,-1.2792,-2.237,2042
10,-0.3164,-0.6311,0.2058,-1.8973,-1.2676,-2.1738,2043
10,-0.332,-0.6328,0.2935,-1.9674,-1.1393,-2.1158,2043
10,-0.3613,-0.7646,0.3279,-2.2678,-0.8429,-2.067,2049
10,-2.0,-0.2832,-1.8203,-1.6538,0.5497,-0.0947,2080
10,-1.8411,-2.0,1.9999,-1.1059,-4.3635,-0.8317,2384
10,-2.0,-2.0,0.9016,-0.6304,-3.4837,1.9257,1789
10,-1.7329,-1.562,1.9999,-0.0169,-1.7712,2.0471,1959
10,-0.3933,-0.9272,1.8384,-0.3614,-1.9868,0.7849,2180
10,1.2444,-0.1201,0.4087,0.0824,-0.7526,0.3627,2083
10,0.5376,-1.2026,0.3154,0.7755,-0.4714,0.1011,2070
10,-0.9155,-1.7776,1.6958,1.217,-0.6516,0.403,1989
10,-1.5281,-1.113,0.7585,0.3124,0.7207,0.3902,1889
10,-0.1128,-0.9382,0.0833,0.1069,1.8547,0.2109,2063
10,0.2029,-0.7664,-0.3252,-0.0137,0.2766,0.3735,2098
10,-0.3909,-0.9849,-0.0325,0.0879,0.014,-0.1977,2178
10,-0.0681,-1.5488,0.1975,-0.1015,0.5662,-0.2051,2102
10,-0.1208,-1.3262,0.4526,0.1027,0.4311,0.0169,2037
10,-0.4448,-0.9001,0.3945,0.1915,0.1087,0.0856,2152
10,-0.658,-0.8496,0.3672,0.2039,0.0244,0.0015,2058
10,-0.6941,-1.0049,0.3557,0.02,0.3591,-0.1735,2052
10,-0.5007,-0.95,0.27,-0.0949,0.4235,-0.336,2063
10,-0.4756,-0.9656,0.2446,-0.0945,0.3733,-0.5534,2050
10,-0.3889,-1.001,0.2183,-0.0847,0.5067,-0.6542,2024
10,-0.2473,-1.0295,0.2356,-0.1125,0.4781,-0.6139,2071
10,-0.1584,-0.988,0.1953,-0.1324,0.3458,-0.5312,1950
10,-0.23,-0.9758,0.2307,-0.1294,0.126,-0.4891,2047
10,-0.2913,-1.0176,0.3062,-0.1639,0.1091,-0.4955,2044
10,-0.3083,-1.0164,0.3823,-0.2466,0.1177,-0.5002,2032
10,-0.345,-0.9866,0.3601,-0.3041,0.1522,-0.5304,2051
10,-0.3169,-1.0042,0.2673,-0.3553,0.2352,-0.5586,2051
10,-0.3193,-1.0137,0.2273,-0.4152,0.2505,-0.587,2067
10,-0.2307,-0.9946,0.1523,-0.4269,0.2274,-0.6016,2054
10,-0.231,-0.9739,0.1064,-0.4297,0.0981,-0.6157,2043
10,-0.3071,-0.9834,0.1018,-0.3924,0.0487,-0.6225,2055
10,-0.2847,-0.9919,0.1167,-0.3706,0.0615,-0.6545,2078
10,-0.2661,-0.9634,0.1111,-0.3278,-0.0116,-0.6821,2075
10,-0.2642,-0.9666,0.0981,-0.3012,0.0497,-0.706,2077
10,-0.2153,-0.9485,0.0579,-0.2831,0.0495,-0.7088,1969
10,-0.1714,-0.939,0.0688,-0.2702,0.1171,-0.7055,2050
10,-0.1228,-0.9749,0.0593,-0.2109,0.1722,-0.6801,2046
10,-0.1084,-0.9727,0.0664,-0.2008,0.1329,-0.6301,2106
10,-0.0913,-0.9587,0.0671,-0.1875,0.057,-0.6056,2021
10,-0.1252,-0.96,0.1455,-0.1864,0.0598,-0.5701,2053
10,-0.1492,-0.9519,0.1128,-0.1582,0.0662,-0.5438,2059
10,-0.1013,-0.9719,0.1636,-0.1602,0.0561,-0.5132,2059
10,-0.1467,-0.9827,0.1506,-0.1658,0.079,-0.4978,2031
10,-0.135,-0.9729,0.0979,-0.1787,0.1159,-0.4864,2041
10,-0.033,-0.9351,0.0566,-0.1297,0.1372,-0.4299,2027
10,-0.0332,-0.9729,0.0317,-0.1164,0.0716,-0.3782,1983
10,-0.103,-0.9431,0.0029,-0.1161,0.1115,-0.3819,2049
10,-0.0232,-0.9836,0.0044,-0.0569,0.1029,-0.3501,2033
10,-0.0142,-0.9319,0.04,-0.0486,0.0987,-0.3203,2053
10,-0.0703,-0.9319,0.0728,0.0473,0.2273,-0.2228,1978
10,-0.0012,-1.0034,0.0881,0.049,0.145,-0.1946,2060
10,-0.0898,-1.0754,0.1265,0.0317,0.1661,-0.1727,2021
10,0.0469,-0.9309,0.084,0.0145,0.0875,-0.1819,2043
10,0.0098,-0.875,0.0767,0.0563,0.1067,-0.1248,2051
11,-0.0632,-1.0396,0.0691,0.0602,0.2397,-0.0859,2048
11,0.0051,-1.0549,0.0854,0.061,0.23,-0.0072,2062
11,0.0894,-1.0007,0.0806,0.1028,0.1248,0.0284,2027
11,-0.0208,-1.0544,0.0713,0.072,0.0917,0.0969,2043
11,-0.0208,-0.998,0.0923,0.0666,0.0687,0.0886,2073
11,0.0171,-1.0007,0.0527,0.1204,0.0438,0.1137,2055
11,-0.0347,-0.9705,0.0349,0.0594,0.0863,0.1934,2051
11,-0.0649,-1.0066,0.0444,0.0077,0.1778,0.1934,2020
11,0.0203,-0.9541,0.0981,0.1115,0.1537,0.2874,2020
11,0.0205,-1.0071,0.0891,0.0626,0.163,0.249,2067
11,-0.0046,-0.9641,0.0925,0.1232,0.0437,0.3352,2057
11,-0.0779,-0.9778,0.1497,0.1294,0.0112,0.2926,2066
11,-0.0542,-0.9839,0.1108,0.1687,-0.0839,0.3445,2030
11,-0.1794,-0.9839,0.1216,0.1743,-0.0831,0.3112,2044
11,-0.1675,-1.0222,0.1204,0.1852,-0.0711,0.2922,1986
11,-0.1418,-0.9973,0.0798,0.1976,-0.0493,0.2818,2118
11,-0.1489,-1.009,0.092,0.2131,-0.0101,0.2799,2030
11,-0.1187,-1.0098,0.0776,0.2258,-0.0462,0.2758,2078
11,-0.1267,-1.0056,0.0964,0.2215,-0.0394,0.2903,2066
11,-0.1208,-0.9883,0.1057,0.2714,-0.0696,0.3216,2024
11,-0.0889,-0.9905,0.1072,0.2824,-0.1001,0.3416,2006
11,-0.0923,-0.9895,0.1497,0.284,-0.0653,0.3774,2065
11,-0.0928,-0.9929,0.1267,0.2848,-0.0502,0.4219,2033
11,-0.1187,-0.9956,0.0933,0.3357,-0.0439,0.4785,2014
11,-0.1028,-0.9807,0.1299,0.3426,-0.0437,0.5263,2050
11,-0.0972,-0.9824,0.1189,0.3606,-0.0417,0.5906,2051
11,-0.0583,-0.989,0.116,0.3595,-0.0871,0.6561,2074
11,-0.073,-1.0085,0.1035,0.3729,-0.1304,0.7584,2059
11,-0.1404,-1.0166,0.1484,0.3743,-0.1264,0.8702,2021
11,-0.104,-1.0103,0.1433,0.4043,-0.1912,0.9646,2073
11,-0.1084,-1.0315,0.1345,0.4137,-0.2252,1.0516,2026
11,-0.0549,-1.0574,0.104,0.4398,-0.2721,1.0887,2065
11,-0.0723,-1.0974,0.063,0.5149,-0.2871,1.1876,2052
11,-0.0176,-1.1875,-0.0168,0.5821,-0.3061,1.3222,2018
11,0.1228,-1.2136,-0.0354,0.5727,-0.3512,1.4581,2046
11,0.1355,-1.3203,0.001,0.5719,-0.5305,1.4422,2060
11,0.1348,-1.4414,0.1421,0.5341,-0.7698,1.4451,2030
11,0.0605,-1.4131,0.2175,0.4665,-0.8741,1.4659,2055
11,-0.0508,-1.2314,0.3955,0.4651,-0.8051,1.5241,2059
11,0.2327,-1.2534,0.3596,0.4686,-1.1396,1.4584,2060
11,0.0095,-1.2319,0.3789,0.445,-1.0158,1.623,2070
11,-0.0034,-1.2249,0.4358,0.4743,-0.9106,1.6729,2072
11,0.0439,-1.2407,0.4163,0.4425,-0.8902,1.7687,2071
11,-0.0066,-1.2241,0.3445,0.3593,-0.8086,1.8899,2109
11,0.0212,-1.2227,0.3457,0.3285,-0.81,1.962,2186
11,0.0957,-1.2043,0.2981,0.2549,-0.9652,2.0153,1976
11,0.1206,-1.2505,0.3257,0.2144,-1.2583,1.9955,2007
11,0.1338,-1.3052,0.3376,0.0651,-1.5408,1.8959,2051
11,0.064,-1.2637,0.2925,-0.2529,-1.7438,1.8885,2080
11,-0.0972,-1.2163,0.2131,-0.4689,-1.825,1.9347,1995
11,-0.4431,-0.9805,0.335,-0.4089,-1.8843,2.0656,2023
11,-0.5789,-1.0759,0.2876,-0.3903,-1.8084,2.0607,2058
11,-0.2852,-1.1311,0.2122,-0.479,-1.8124,2.1343,2060
11,-0.0867,-1.2781,0.0459,-0.9688,-2.0883,2.1971,2027
11,-0.2761,-0.9265,-0.1299,-0.9814,-2.1736,2.012,2032
11,-0.2676,-0.7166,0.0122,-0.8199,-2.4839,1.7138,2037
11,-0.1995,-0.5295,0.1951,-0.465,-2.7229,1.5857,2062
11,-0.0515,-0.5591,0.2534,-0.4454,-2.9606,1.5852,2045
11,0.0537,-0.5625,0.2048,-0.5496,-3.6745,1.5797,2058
11,-0.2085,-0.3718,0.1531,-0.5145,-4.3635,-0.7072,2069
11,-1.3269,-0.2646,0.2903,-0.0406,-3.203,1.2507,2066
11,-0.1689,-0.8828,0.9729,-0.8383,-3.0899,2.5956,2031
11,-0.3777,-0.3916,0.1541,-0.7617,-3.5083,0.7493,2074
11,-0.7065,-0.8274,0.6697,-1.4627,-2.5787,0.0734,2045
11,-0.3345,-0.6938,0.7031,-1.335,-3.3167,-0.2373,2061
11,0.0024,-0.4629,0.3914,-1.6119,-2.5783,-0.3875,2052
11,-0.1516,-0.5354,0.2771,-1.6283,-2.0226,-0.5765,2057
11,-0.1687,-0.5293,0.386,-1.4892,-1.4844,-0.6408,2054
11,-0.0496,-0.6082,0.606,-1.4964,-1.3166,-0.6221,2047
11,-0.1428,-0.7686,0.7705,-1.6435,-1.38,-0.765,2057
11,-0.2812,-0.7996,0.782,-1.9678,-1.1661,-1.1383,2047
11,-0.2632,-0.7351,0.707,-2.1398,-0.7625,-1.3557,2047
11,-0.3337,-0.7344,0.637,-2.2656,-0.279,-1.5753,2050
11,-0.3894,-0.7332,0.5562,-2.2738,0.0995,-1.7777,2045
11,-0.2795,-0.7561,0.4863,-2.2092,0.2481,-1.8743,2058
11,-0.1606,-0.7737,0.3955,-2.2142,0.2497,-1.8405,2050
11,-0.0652,-0.7832,0.2888,-2.1985,0.151,-1.9687,2051
11,0.085,-0.8889,0.2119,-2.1762,-0.1598,-2.2301,2052
11,0.0061,-0.8918,0.1426,-2.1822,-0.4653,-2.3091,2052
11,-0.0713,-0.9368,0.1357,-2.1297,-0.6933,-2.3675,2058
11,0.041,-0.9868,0.1204,-2.1602,-1.0326,-2.524,2056
11,0.1206,-1.0352,0.0527,-2.1566,-1.4237,-2.6442,2054
11,0.0205,-1.083,0.0227,-2.1292,-1.817,-2.6912,2048
11,0.0425,-1.0947,0.0261,-2.1144,-2.3068,-2.6633,2054
11,-0.0107,-1.0898,0.0308,-2.0551,-2.7004,-2.6341,2051
11,0.0432,-1.1211,0.0535,-2.0794,-3.2215,-2.5607,2057
11,0.1064,-1.1038,0.0217,-2.125,-3.713,-2.4899,2059
11,0.1099,-1.1404,0.0583,-2.1274,-4.1948,-2.3856,2046
11,0.1189,-1.1245,0.1072,-2.1025,-4.3635,-2.2463,2050
11,-0.0022,-1.0889,0.1716,-1.9482,-4.3635,-2.0895,2045
11,-0.0027,-1.1875,0.3813,-1.8969,-4.3635,-1.805,2040
11,0.3262,-2.0,0.0027,-3.011,-4.3635,-1.2095,2071
11,-1.0132,1.2227,1.0938,-0.2449,-4.3635,-1.843,2016
11,-1.2678,-0.1992,1.4844,-0.6771,-3.5525,-0.7545,2105
11,-0.8062,-2.0,1.3149,-1.103,-3.3234,0.1956,2113
11,-1.1956,-0.5891,1.2715,-0.4818,-3.1266,-0.5296,2034
11,-0.8757,-0.6667,1.3552,-0.0654,-1.4061,0.0446,2020
11,-0.7156,-0.5371,1.9417,0.734,-1.0942,-0.0439,2024
11,-0.561,-0.7112,1.9999,1.0491,-0.0762,0.3388,2040
11,-0.1445,-2.0,1.521,0.4778,3.9996,1.0915,2062
11,1.9999,-2.0,0.1216,-1.3712,4.3634,0.6403,2030
11,1.5549,-1.7505,-0.7769,-0.6835,2.7059,-0.0795,2071
11,-0.0581,-1.1997,-1.0186,-0.2047,1.9271,0.8982,2113
12,0.0557,-1.0684,0.1348,0.4619,1.4687,1.3644,2056
12,-0.6514,-0.7344,-0.0525,0.5449,1.5431,1.6432,2057
12,-0.1641,-0.3533,-0.0938,0.9701,0.4429,1.0969,2045
12,0.1553,-0.8628,-0.2324,0.7146,-0.5834,0.5445,2042
12,0.0793,-1.2039,-0.0088,0.2041,-1.1421,0.4866,2080
12,-0.5681,-0.9778,0.2036,0.0931,-0.0318,0.5327,2046
12,-0.4832,-1.0476,0.405,0.2226,0.4587,0.7791,2109
12,-0.3403,-1.168,0.2874,0.1244,0.7743,0.5731,2039
12,-0.1975,-1.0544,0.188,0.0906,0.6767,0.4084,2058
12,-0.1001,-1.0088,0.0957,0.098,0.335,0.4554,2081
12,-0.1812,-0.9785,0.1536,0.1272,-0.0443,0.4678,2050
12,-0.3833,-0.9182,0.1934,0.0892,-0.0402,0.3466,2067
12,-0.4231,-0.9519,0.1384,0.0728,0.1695,0.2667,2039
12,-0.2954,-1.0059,0.0471,0.0707,0.3334,0.1935,2054
12,-0.1414,-1.0962,0.0383,0.1301,0.1973,0.2157,2055
12,0.062,-1.0322,0.054,0.0407,0.1942,0.3087,2115
12,-0.0293,-1.0027,0.0708,0.0535,0.1274,0.3778,2073
12,-0.092,-1.0337,0.0789,0.0783,0.1048,0.4057,2100
12,-0.1467,-0.9971,0.0591,0.0519,0.2108,0.2292,2109
12,-0.0679,-1.0093,0.031,0.0483,0.2008,0.2133,2061
12,-0.1252,-1.02,0.0352,0.0457,0.1695,0.2151,2063
12,-0.0825,-1.0122,0.0181,0.057,0.1451,0.2366,2001
12,-0.0603,-1.0105,0.0256,0.1061,0.0473,0.2599,2055
12,-0.0879,-0.9988,0.0376,0.0987,0.1372,0.2637,2007
12,-0.0234,-1.0134,0.0425,0.0867,0.1455,0.3212,2084
12,-0.1172,-0.9995,0.0352,0.0774,0.1828,0.344,2068
12,-0.0938,-1.0142,0.0208,0.0718,0.2161,0.3615,2061
12,-0.1372,-0.9854,0.0374,0.0692,0.2116,0.3663,2032
12,-0.1938,-1.0061,0.0701,0.0582,0.2501,0.3485,2045
12,-0.0933,-1.0066,0.0588,0.0459,0.1224,0.335,2067
12,-0.1904,-0.9966,0.0876,0.0523,0.0388,0.3546,1999
12,-0.0742,-0.979,0.0852,0.035,-0.01,0.3537,2056
12,-0.1033,-1.0044,0.0701,0.0196,-0.1527,0.3954,2062
12,-0.051,-0.9971,0.0603,0.0029,-0.3196,0.4311,2066
12,0.0361,-1.042,0.051,-0.0459,-0.454,0.4472,2071
12,-0.2878,-1.1792,0.0173,-0.2045,-0.3599,-0.1245,2109
12,-0.374,-0.8108,0.0154,-0.2172,-0.1667,-0.4938,2039
12,-0.1301,-0.8896,-0.0205,-0.016,-0.0064,0.1402,2064
12,-0.0776,-1.0027,0.0325,0.0867,-0.1728,0.2141,2030
12,-0.2778,-1.0408,0.0222,0.1276,-0.0088,0.5051,2081
12,-0.0537,-0.9163,0.0327,0.0566,0.0431,0.288,2038
12,-0.1897,-1.1189,0.0715,0.1483,-0.344,0.3904,2062
12,-1.0737,-1.0427,0.0237,0.053,0.5352,0.2912,2067
12,0.238,-0.8169,0.0762,0.0896,0.6236,0.0294,2049
12,-0.0476,-1.0371,0.0457,0.0498,0.0483,0.3541,2044
12,-0.1733,-1.0254,0.0637,-0.0004,-0.0794,-0.032,2027
12,-0.2339,-0.9783,0.0203,0.0744,-0.1506,0.0811,2001
12,-0.1423,-1.0193,0.0288,0.0649,-0.1985,0.0313,2069
12,-0.147,-0.989,0.0142,0.0578,-0.2622,0.1039,2012
12,-0.166,-1.0005,0.0156,0.0649,-0.3135,0.1024,2056
12,-0.1631,-1.0078,0.0122,0.087,-0.2633,0.12,2129
12,-0.1023,-1.0195,0.0244,0.0991,-0.3089,0.13,2066
12,-0.0427,-1.019,0.0381,0.1175,-0.3368,0.18,2060
12,-0.0383,-1.0305,0.0271,0.1491,-0.4181,0.2354,1932
12,-0.0623,-1.0308,0.0647,0.1527,-0.4912,0.283,2114
12,-0.0654,-1.0249,0.0291,0.1859,-0.4373,0.335,2068
12,-0.0698,-1.019,0.009,0.2124,-0.4807,0.3875,2074
12,-0.0471,-1.009,0.0242,0.2246,-0.4846,0.436,2070
12,-0.0369,-1.0117,0.0239,0.2381,-0.5319,0.4793,2006
12,-0.0156,-1.0049,-0.0051,0.2646,-0.5767,0.5687,2043
12,0.0154,-0.9985,-0.0273,0.2988,-0.6486,0.6252,2075
12,0.0037,-1.0105,0.0007,0.3314,-0.7219,0.6762,2077
12,0.0195,-1.0095,0.0063,0.3555,-0.7959,0.7525,2037
12,0.0259,-1.0115,0.0212,0.3685,-0.8395,0.822,2103
12,0.0073,-0.9851,0.0383,0.3769,-0.8726,0.9088,2096
12,-0.0134,-0.9907,0.0188,0.3783,-0.7959,0.9817,2076
12,-0.093,-1.0444,0.0388,0.3566,-0.7285,1.087,2022
12,-0.0942,-1.0515,0.0166,0.3369,-0.6434,1.1709,2047
12,-0.0989,-1.0427,0.0508,0.3563,-0.606,1.2352,2048
12,-0.1509,-1.0974,0.0974,0.3615,-0.5036,1.2548,2055
12,-0.1455,-1.1353,0.1006,0.4176,-0.4943,1.315,2032
12,-0.1448,-1.2808,0.1326,0.4279,-0.3907,1.3067,2052
12,-0.0745,-1.2605,0.2148,0.5408,-0.299,1.3854,2025
12,0.1033,-1.2864,0.2312,0.4972,-0.4326,1.4504,2068
12,0.01,-1.2417,0.323,0.4629,-0.6188,1.4723,2078
12,0.019,-1.2275,0.3672,0.4437,-0.853,1.3989,2052
12,-0.0015,-1.2166,0.4084,0.4119,-1.0668,1.2897,2072
12,0.0029,-1.1321,0.3638,0.3723,-1.2531,1.2379,2069
12,0.0105,-1.1357,0.3489,0.3312,-1.3496,1.3082,2071
12,-0.0979,-1.092,0.3252,0.3485,-1.3668,1.4732,2062
12,-0.0049,-1.2068,0.3328,0.3863,-1.327,1.6856,2084
12,0.0535,-1.2646,0.2808,0.3135,-1.2596,1.8187,2048
12,0.0125,-1.1963,0.2258,0.2337,-1.2773,2.1012,2043
12,-0.0791,-1.3354,0.2109,0.1061,-1.186,2.272,2109
12,-0.2524,-1.2639,0.2751,0.0676,-1.093,2.2595,1995
12,-0.2791,-1.292,0.2007,-0.0663,-0.9524,2.1867,1916
12,-0.4143,-1.387,0.1499,-0.066,-0.9288,2.2635,1997
12,-0.4119,-1.3127,0.1411,-0.1587,-1.4087,2.4589,2021
12,-0.1958,-1.1494,0.1511,-0.1899,-1.7941,2.5009,2047
12,-0.1499,-1.0037,0.0442,-0.1843,-1.8616,2.5733,2062
12,-0.228,-0.9626,0.1045,-0.1673,-2.4256,2.6113,2004
12,-0.3857,-0.8098,0.0703,-0.2453,-2.6215,2.5647,1985
12,-0.0906,-0.5566,0.0059,-0.1445,-3.0107,2.5895,2053
12,-0.24,-0.554,-0.012,-0.1525,-3.7897,1.203,2057
12,0.3015,-0.416,0.1729,-0.4627,-4.3567,-1.4564,2080
12,-0.4497,-0.4614,0.5547,-0.7158,-4.3635,2.1189,2061
12,-1.7812,-0.0872,-0.4009,-0.0198,-3.9996,2.3482,2064
12,-1.0708,-0.6375,-0.3398,0.0037,-1.3206,0.5386,2048
12,-0.5383,-1.2449,0.4683,-0.9677,-1.6105,0.3918,2053
12,-0.1709,-0.8682,1.0908,-1.1019,-2.7187,-0.1862,2060
12,0.1003,-0.6475,0.4541,-1.3328,-2.9485,-0.2719,2066
12,-0.103,-0.3882,0.0349,-1.7315,-2.0283,-0.6265,2075
13,-0.042,-0.7815,0.0659,-1.7468,-1.8639,-0.8582,2056
13,0.0334,-0.6853,0.2183,-1.6829,-1.7966,-0.8287,2059
13,-0.2192,-0.666,0.3494,-1.7452,-1.4035,-0.7379,2054
13,-0.1013,-0.8313,0.5259,-1.8148,-1.6845,-0.9247,2047
13,-0.1013,-0.791,0.5193,-2.0615,-1.5644,-1.1115,2051
13,-0.2656,-0.7256,0.4905,-2.2784,-1.2966,-1.2479,2047
13,-0.439,-0.7341,0.4746,-2.3414,-0.9208,-1.5028,2056
13,-0.4761,-0.793,0.5,-2.4028,-0.5392,-1.7283,2060
13,-0.5815,-0.8005,0.4277,-2.5056,-0.0125,-2.1047,2049
13,-0.5044,-0.7554,0.335,-2.4814,0.2986,-2.3485,2053
13,-0.2961,-0.7773,0.282,-2.4787,0.2946,-2.3139,2058
13,-0.1521,-0.7786,0.2097,-2.5321,0.3207,-2.2836,2056
13,-0.0791,-0.7915,0.1682,-2.5526,0.2258,-2.4053,2051
13,-0.0286,-0.8105,0.1458,-2.5625,-0.0698,-2.7346,2061
13,-0.0032,-0.8562,0.1003,-2.5353,-0.4153,-2.9955,2050
13,-0.0928,-0.863,0.0271,-2.4776,-0.666,-3.1451,2045
13,-0.1455,-0.8872,-0.0188,-2.3384,-0.9415,-3.2175,2055
13,-0.146,-0.9143,-0.0378,-2.1969,-1.2621,-3.2645,2055
13,-0.1545,-0.9407,0.0029,-2.1064,-1.6739,-3.2943,2054
13,-0.1423,-0.9971,0.0569,-2.0446,-2.0301,-3.2692,2052
13,-0.1292,-1.0117,0.1548,-2.0042,-2.3939,-3.2638,2054
13,-0.0686,-1.0286,0.2405,-1.9081,-2.8047,-3.1641,2043
13,-0.1204,-1.0452,0.4124,-1.8088,-3.1797,-2.9669,2048
13,-0.1873,-1.1702,0.677,-1.7094,-3.6195,-2.5252,2035
13,0.3328,-2.0,1.5811,-3.193,-4.1793,-2.0381,2032
13,-1.2122,1.04,0.7107,-2.1055,-4.3635,-1.8333,2166
13,-2.0,-0.304,1.3613,1.2015,-1.1742,-2.646,2147
13,1.7556,-2.0,1.9999,-1.8258,-0.7036,2.2467,1949
13,-1.3359,0.1558,0.5989,0.1095,1.1904,-2.0001,2011
13,-0.511,-0.9082,1.2153,0.1863,-0.1213,1.0993,2004
13,-2.0,-2.0,1.9999,0.224,0.4386,1.1757,2058
13,0.0652,-2.0,1.458,0.141,4.3634,1.3452,2048
13,1.9999,-1.9309,0.9575,-0.0096,2.263,0.97,2031
13,0.3694,-1.5688,0.3181,0.3786,3.0625,1.4916,2048
13,0.1082,-0.5417,0.137,0.4761,1.894,1.4049,1917
13,-0.4299,-0.5596,-0.4836,0.3858,1.978,1.3972,2083
13,-0.4099,-0.6575,-0.2581,0.1159,0.8959,1.0436,2065
13,-0.2092,-0.8977,-0.3052,-0.2585,0.0839,0.4063,2062
13,-0.7144,-1.155,-0.4094,-0.2618,-0.297,0.5878,2055
13,-0.6848,-0.8875,-0.0901,-0.008,-0.3207,0.5858,2057
13,-0.6003,-0.7988,0.1006,0.0804,0.1354,0.4104,2033
13,-0.4453,-1.1387,0.2183,0.1234,0.75,0.3052,2066
13,0.0784,-1.175,0.271,0.1529,0.9817,0.3718,2146
13,0.2976,-1.1729,0.395,-0.0329,0.7779,0.3111,1989
13,0.0786,-1.0356,0.3105,-0.0698,0.4815,0.4177,2012
13,-0.3057,-1.1672,0.1506,0.0915,0.4512,0.8917,2085
13,-0.0779,-1.0078,0.0674,0.1533,0.3328,0.8919,2073
13,-0.2952,-0.9875,-0.0422,0.1474,0.1266,0.8251,2061
13,-0.3052,-0.9023,-0.0867,0.1208,0.0752,0.3883,2070
13,-0.2361,-0.9985,-0.0669,0.1037,0.1582,0.3433,2132
13,-0.0872,-0.9731,-0.0356,0.1372,0.0993,0.3027,2067
13,-0.1328,-1.0537,-0.053,0.1724,-0.0099,0.3472,2103
13,-0.1448,-1.0181,0.0557,0.1521,0.1147,0.348,1988
13,-0.1787,-1.0337,0.0862,0.1213,0.1023,0.3373,2066
13,-0.1809,-1.0432,0.1521,0.1261,0.0597,0.3497,2048
13,-0.1272,-1.0078,0.1433,0.0812,0.0317,0.3372,2044
13,-0.1963,-1.0415,0.1028,0.0842,-0.0527,0.3145,2015
13,-0.1191,-0.9849,0.0229,0.076,0.0075,0.2779,2103
13,0.0078,-0.9854,0.0208,0.0823,-0.1441,0.3164,2053
13,-0.1196,-0.9814,0.002,0.053,-0.1621,0.3216,2086
13,-0.0862,-0.9995,-0.0205,0.0505,-0.1791,0.3493,1992
13,-0.1006,-0.9937,-0.0146,0.0622,-0.2406,0.3401,2025
13,-0.0413,-1.0244,0.0393,0.0483,-0.2862,0.3642,2027
13,-0.1382,-1.0352,0.0374,0.0266,-0.2376,0.347,2045
13,-0.0469,-1.0286,0.0635,0.0392,-0.3887,0.3739,2059
13,-0.1165,-1.0278,0.063,0.0683,-0.4548,0.4277,2038
13,-0.3979,-0.9919,0.0393,0.0941,-0.3175,0.4666,2052
13,-0.2156,-0.8115,0.0134,0.0346,0.2304,0.1985,2121
13,0.2747,-1.0935,-0.0691,0.1486,0.3314,0.1292,2053
13,0.4888,-0.9458,-0.0449,0.0103,-0.4823,0.1517,2115
13,-0.1125,-0.9897,-0.0435,0.0314,-0.6111,0.382,2106
13,-0.0007,-1.0815,0.0278,0.0445,-0.5557,0.4782,2066
13,-0.1245,-1.0134,0.0369,0.0518,-0.5417,0.5617,2068
13,-0.1233,-1.0137,0.0593,0.0197,-0.4827,0.6114,1964
13,-0.2104,-0.9849,0.0181,0.0162,-0.4113,0.6036,2082
13,-0.1973,-0.9734,0.0178,0.0129,-0.4051,0.5948,2055
13,-0.1926,-0.9875,-0.0022,0.0,-0.4132,0.5669,2077
13,-0.2036,-0.8994,-0.0413,0.0051,-0.383,0.6271,2065
13,-0.249,-0.8684,-0.0627,-0.0238,-0.2879,0.6252,2082
13,-0.2227,-0.8806,-0.0708,-0.0176,-0.1505,0.6327,2058
13,-0.1743,-0.929,-0.0425,-0.0065,-0.1739,0.6602,1967
13,-0.1685,-1.0247,0.1086,0.037,-0.3209,0.6919,2076
13,-0.1731,-1.0347,0.1013,0.059,-0.4424,0.7174,2043
13,-0.1616,-1.1018,0.1023,0.0537,-0.4996,0.7074,2049
13,-0.2583,-1.0771,0.1252,0.0762,-0.4385,0.7191,2025
13,-0.1792,-1.0674,0.0881,0.0866,-0.4485,0.7036,2074
13,-0.2041,-1.0068,0.0562,0.0924,-0.3586,0.7199,2043
13,-0.2612,-1.0269,0.0581,0.0734,-0.1669,0.7127,2080
13,-0.2,-1.0366,0.0457,0.0443,-0.0613,0.7164,2094
13,-0.1814,-1.0139,0.0481,0.0262,-0.1228,0.7132,2060
13,-0.2949,-1.009,0.0437,0.0132,-0.1712,0.7249,2081
13,-0.3745,-0.9807,0.0474,0.0194,-0.1477,0.7067,2048
13,-0.4109,-0.9143,0.0549,0.0482,-0.1944,0.6525,2053
13,-0.4492,-0.885,0.0742,0.0586,-0.2246,0.594,2036
13,-0.5032,-0.8699,0.0847,0.0784,-0.1727,0.5436,2035
13,-0.5474,-0.9229,0.1133,0.0949,-0.1392,0.4685,2130
13,-0.3997,-1.0405,0.1147,0.0706,-0.0799,0.4123,2115
13,-0.3384,-1.1658,0.0791,0.0597,-0.0202,0.3546,2070
13,-0.2686,-1.2393,0.0874,0.0581,-0.0421,0.3561,2007
13,-0.1982,-1.3081,0.0955,0.02,-0.1003,0.3097,2021
13,-0.1169,-1.385,0.0916,0.0048,-0.3071,0.1965,2103
13,-0.0361,-1.4744,0.1187,-0.065,-0.5337,0.0257,1969
13,0.113,-1.5222,0.1216,-0.1666,-0.9039,-0.228,2098
14,-0.0488,-1.4336,0.168,-0.0739,-1.0139,-0.2212,2015
14,-0.0676,-1.4268,0.1782,0.1653,-1.0712,0.0206,2052
14,0.2546,-1.3999,0.2219,0.3362,-1.2167,0.4437,2056
14,-0.0249,-1.4321,0.2397,0.5801,-1.3929,0.4104,2053
14,0.3357,-1.342,0.2734,0.7761,-1.4203,0.9537,2040
14,0.8428,-1.5947,0.2563,0.7349,-2.5076,0.9684,2001
14,0.707,-1.6123,0.1946,0.7786,-3.4125,0.9429,2112
14,0.5317,-1.7405,0.304,0.62,-3.8884,0.5208,2013
14,-1.1211,-1.4695,0.2124,0.269,-2.2088,-0.7886,2004
14,-2.0,-0.9814,0.0574,1.4777,-1.848,1.1101,2118
14,0.4175,-0.2502,-1.3875,-0.165,0.3041,4.3634,2031
14,1.2637,-0.5271,-0.6863,1.3661,-2.0671,0.2835,2194
14,1.3318,-1.7278,1.2209,1.8611,-1.8048,1.3568,2067
14,-0.9524,-0.9148,-0.2922,0.9319,-2.4245,1.3113,2130
14,-0.873,-2.0,0.0359,0.9051,-1.3972,1.1264,1927
14,-0.9221,-2.0,0.7078,-0.418,-2.8149,2.1509,1973
14,-1.343,-1.8113,-0.2085,-0.4944,-1.5198,2.5657,2064
14,-0.5076,-1.8933,0.2639,-0.9321,-1.8528,3.0998,2064
14,-0.6453,-1.4504,0.3726,-1.1227,-2.5132,3.1521,2037
14,-0.8455,-1.1604,0.3823,-0.9694,-2.2459,2.9253,2055
14,-1.4207,-1.5835,0.5166,-0.8315,-0.6006,2.0832,2042
14,-0.2371,-1.0149,0.7183,-0.3516,-0.84,1.9927,2055
14,0.5239,-0.9729,0.7788,-0.2085,-0.1932,2.1197,2058
14,-0.2773,-0.9065,0.313,-0.4071,-0.2629,2.2246,2075
14,-0.501,-0.7566,0.2317,0.1004,-0.7477,2.1289,2065
14,-0.5659,-0.8372,0.2671,0.3502,-0.5184,1.9098,2056
14,-0.6035,-0.8464,0.2607,0.553,-0.3978,2.1469,2049
14,-0.9465,-0.8738,0.2759,0.7192,0.13,2.3506,2051
14,-1.113,-0.5864,0.2476,0.9223,0.8461,2.0466,2074
14,-1.0005,-0.417,0.4844,0.889,1.2295,1.8698,2047
14,-0.8604,-0.2424,0.7673,0.752,0.9255,1.5382,2065
14,-0.5464,-0.2517,0.7969,0.4972,0.5011,0.7903,2039
14,-0.5776,-0.4683,0.5303,0.0392,0.4914,0.3414,2023
14,-1.1184,-0.8364,0.3018,0.0854,0.7481,0.455,2036
14,-0.8491,-0.6235,0.2161,-0.0141,1.3033,-0.18,2059
14,-0.2534,-0.4209,0.2822,-0.239,1.762,-0.2848,2038
14,-0.3723,-0.9663,0.5015,-1.1124,0.3573,-1.4158,2046
14,0.5503,-0.4363,-0.0776,-0.7664,-0.3811,-0.6705,2041
14,0.0723,-0.1389,-0.1917,-0.965,-0.0916,-1.0865,2115
14,0.0388,-0.0166,0.0642,-0.4737,-0.4811,-0.9034,2098
14,-0.2502,0.3318,-0.0417,-0.3586,0.1494,-0.7914,2120
14,-0.2112,0.2341,0.1057,-0.1776,0.5313,-0.6769,2040
14,0.0212,-0.2747,0.198,-0.4745,0.345,-1.0802,2012
14,0.1255,-0.1602,0.1326,-0.7994,-0.1844,-1.5515,2081
14,0.0767,0.1978,0.0161,-0.858,-0.4239,-1.9209,2050
14,0.0217,0.1228,-0.0591,-0.8525,-0.4821,-2.2041,2046
14,0.072,0.0415,-0.0791,-0.9251,-0.475,-2.4477,2039
14,0.0969,0.0259,-0.033,-0.9585,-0.5141,-2.6481,2044
14,0.1343,0.0608,0.0374,-0.9606,-0.6638,-2.8368,2057
14,0.1001,0.053,0.0847,-0.9873,-0.7845,-2.981,2059
14,0.0212,0.0913,0.0959,-1.0379,-0.822,-3.1078,2042
14,-0.0342,0.0864,0.0518,-1.1286,-0.8533,-3.2344,2041
14,-0.0725,0.1301,0.0642,-1.1627,-0.8726,-3.3559,2048
14,-0.0798,0.1399,0.0486,-1.1966,-0.8492,-3.4608,2047
14,-0.1108,0.1387,0.0601,-1.1861,-0.8004,-3.5418,2042
14,-0.1262,0.1526,0.1069,-1.1524,-0.752,-3.6375,2052
14,-0.1438,0.1345,0.135,-1.1132,-0.7147,-3.7462,2048
14,-0.24,0.1487,0.1643,-1.095,-0.5341,-3.8443,2043
14,-0.3201,0.1746,0.2334,-1.0857,-0.2671,-3.9446,2044
14,-0.3364,0.2556,0.2688,-1.0356,0.0373,-4.0491,2045
14,-1.8342,-1.7722,-2.0,-3.7962,4.0169,-2.7572,2105
14,-2.0,-0.4946,-0.6333,4.3634,-4.3635,1.8988,2561
14,-2.0,-2.0,1.9207,-1.6326,4.3634,-2.198,1501
14,-2.0,-2.0,1.9999,1.375,4.3634,4.3634,1846
14,1.9999,1.2793,-0.6738,1.7369,-4.3635,-0.3611,3003
14,1.9999,0.8538,-1.4612,-1.9915,3.1999,0.4225,2106
14,-1.7681,-0.4285,-2.0,1.0817,-2.1473,1.1658,1932
14,-2.0,-1.3032,1.0535,0.3083,2.2037,-0.2494,1825
14,0.4956,-0.4456,0.1309,0.7945,-0.9682,0.4565,2013
14,0.4697,-0.2827,0.7009,0.5898,0.3954,0.8581,2192
14,-0.8679,-1.3367,1.1006,0.3504,-0.2911,0.441,2004
14,-0.823,-1.4702,0.4688,0.0597,0.1884,0.1774,2041
14,-0.6626,-1.0535,0.2822,0.1911,0.7276,0.1879,2129
14,-0.4355,-0.7048,0.0161,0.0539,0.29,0.0413,1857
14,-0.261,-0.821,0.1516,0.123,-0.0293,-0.0431,2035
14,-0.3599,-1.0442,0.2214,0.2127,-0.0413,-0.0407,2053
14,-0.5249,-1.0793,0.3533,0.1787,0.2105,-0.0812,2107
14,-0.3716,-1.0122,0.3555,-0.0033,0.1802,-0.2457,2069
14,-0.2876,-1.0017,0.2969,-0.1153,0.1079,-0.3289,2107
14,-0.3538,-1.0225,0.2495,-0.1828,0.1184,-0.3746,2111
14,-0.3638,-0.9792,0.2341,-0.1697,0.1029,-0.4145,2054
14,-0.3044,-0.9941,0.1846,-0.1478,0.0531,-0.4589,2043
14,-0.3418,-1.0071,0.2034,-0.1285,-0.0071,-0.5107,2053
14,-0.4021,-0.9814,0.2131,-0.1731,0.0525,-0.5789,2059
14,-0.3982,-0.9619,0.1624,-0.246,0.1298,-0.6914,2056
14,-0.3433,-0.9749,0.1187,-0.2581,0.1486,-0.7867,2042
14,-0.2803,-0.9602,0.0569,-0.2345,0.1309,-0.8419,2055
14,-0.2722,-0.9443,0.0427,-0.2052,0.0992,-0.9018,2048
14,-0.2747,-0.9224,0.0383,-0.1655,0.0708,-0.9774,2038
14,-0.261,-0.9407,0.0649,-0.1144,0.1036,-1.076,2049
14,-0.2156,-0.9668,0.1113,-0.0762,0.0933,-1.1416,2050
14,-0.1455,-0.9797,0.1699,-0.0337,0.0593,-1.152,2066
14,-0.1482,-1.0051,0.1741,-0.0289,0.031,-1.0817,2051
14,-0.1445,-0.9751,0.2065,-0.0421,0.022,-1.0433,2050
14,-0.0959,-0.9749,0.2068,-0.0398,0.0133,-1.0207,2047
14,-0.115,-0.9636,0.209,-0.0441,-0.0023,-0.9672,2052
14,-0.1399,-0.9595,0.2024,-0.0186,0.0466,-0.9155,2048
14,-0.0981,-0.9753,0.2031,-0.0318,0.0475,-0.8443,2042
14,-0.1096,-0.9373,0.1968,-0.0119,0.0286,-0.7837,2044
14,-0.0039,-0.9565,0.1394,0.0104,0.0324,-0.7369,2013
14,0.0427,-1.011,0.1331,-0.0028,0.0265,-0.6645,2056
14,0.0322,-0.9612,0.1113,0.0312,-0.0077,-0.5727,2055
15,0.0203,-0.979,0.1208,0.0206,0.0188,-0.5269,2055
15,0.0461,-0.9949,0.1284,0.045,-0.0294,-0.434,2014
15,0.0525,-0.9873,0.1074,0.0538,-0.0449,-0.401,2051
15,0.0417,-0.9392,0.0991,0.071,-0.091,-0.3421,2046
15,-0.0125,-0.9856,0.1238,0.0899,-0.1052,-0.3296,2052
15,-0.0464,-1.0037,0.1101,0.1085,-0.059,-0.3257,2058
15,-0.0129,-1.011,0.1045,0.1258,-0.041,-0.2774,2049
15,0.0559,-1.0161,0.1233,0.1236,-0.0419,-0.2434,2049
15,0.0723,-1.0049,0.1006,0.1393,-0.0462,-0.2063,2050
15,0.0588,-0.9746,0.103,0.1402,-0.0702,-0.178,2051
15,0.0205,-0.9834,0.1235,0.1559,-0.0233,-0.1449,2056
15,0.1404,-0.918,0.1223,0.2249,-0.0142,-0.0637,2052
15,0.0422,-1.0381,0.1479,0.2352,0.0369,-0.0065,2061
15,0.0073,-1.0559,0.1316,0.1521,0.1088,0.0063,2066
15,0.1189,-1.03,0.1274,0.1567,0.0322,0.0503,2049
15,0.1321,-1.0039,0.0649,0.1513,-0.0529,0.1049,2066
15,0.0947,-1.0159,0.1418,0.1531,0.0855,0.1434,2056
15,0.1213,-1.0173,0.1006,0.175,0.0166,0.2057,2050
15,0.0569,-1.0063,0.0935,0.2083,0.0386,0.242,2057
15,0.0999,-1.0186,0.1418,0.2149,0.0856,0.2745,2060
15,0.0828,-0.9717,0.1206,0.2563,0.0734,0.3188,2080
15,0.0476,-0.9639,0.0845,0.2412,0.1767,0.3414,2098
15,0.0134,-0.9995,0.0955,0.2117,0.1984,0.3681,2068
15,-0.0142,-0.9729,0.1157,0.2598,0.2212,0.391,2055
15,0.0652,-1.0142,0.0547,0.3052,0.2464,0.4164,1994
15,0.0161,-1.041,0.2134,0.3145,0.1993,0.4537,2075
15,-0.093,-1.0002,0.2524,0.2862,0.2725,0.4749,2113
15,-0.0012,-1.0208,0.2451,0.2663,0.4208,0.4883,1999
15,-0.0034,-1.0356,0.188,0.1935,0.5472,0.522,2103
15,-0.0459,-1.0376,0.1455,0.151,0.5094,0.5663,2052
15,-0.1191,-1.0637,0.1379,0.1792,0.457,0.5976,2036
15,-0.1721,-0.9568,0.229,0.13,0.3482,0.6743,2094
15,-0.1978,-1.0332,0.2278,0.1348,0.3176,0.6786,2038
15,-0.1643,-1.2849,0.0923,0.284,0.1788,0.6833,1968
15,-0.1206,-1.3433,0.0999,0.4408,-0.0314,0.9094,2016
15,-0.2224,-1.4438,0.3027,0.4193,-0.0305,1.3187,2030
15,-0.3062,-1.8542,0.4309,0.1796,-0.0622,0.915,2020
15,-0.033,-1.6694,0.4067,0.2593,-0.2679,0.2356,2035
15,0.3789,-1.6045,0.4187,0.5473,-0.6922,-0.0944,2188
15,0.1301,-1.5107,0.6472,0.6408,-0.3129,0.404,2032
15,0.2092,-1.6279,0.604,0.4456,0.1272,-0.1928,1912
15,0.6895,-1.0615,0.6689,0.596,0.0969,0.2567,1878
15,0.0791,-1.6421,0.3594,-0.1115,0.8576,0.7082,1640
15,0.5955,-1.9309,0.4656,0.1722,-0.573,0.6006,2327
15,0.2102,-1.0042,0.4663,0.445,-1.1748,0.7986,2235
15,1.1836,-0.6804,0.1714,0.8218,-1.9447,0.6516,2114
15,1.9999,-1.98,0.1155,-0.1264,-4.3635,2.1029,2100
15,-1.8191,-1.4021,-0.304,0.214,-4.3635,0.2153,2155
15,-2.0,-0.9624,-0.9346,1.0758,0.2353,1.2881,1955
15,0.1255,-1.6414,-0.4014,1.9837,1.4446,0.2739,2215
15,-0.1445,-1.4346,0.8645,0.3855,0.3505,1.6715,2046
15,-1.0662,-1.8633,-0.0654,0.7284,0.0154,1.503,2012
15,-0.0957,-1.4741,0.9363,0.2232,-0.6715,2.0362,2025
15,-0.5032,-1.2671,0.4199,0.2482,-1.2141,2.0487,2064
15,-0.1567,-1.4092,0.2976,0.2898,-0.9439,2.4009,2049
15,0.1052,-1.3047,0.178,0.1085,-0.8487,2.5157,2055
15,-0.0925,-1.1755,0.0303,0.3217,-0.9716,2.5203,2055
15,-0.2063,-1.1782,0.1453,0.5454,-0.5297,2.5679,2058
15,-0.4202,-1.1597,0.1899,0.5741,-0.1011,2.5964,2051
15,-0.6545,-1.1455,0.1763,0.5647,0.1193,2.6026,2040
15,-0.7654,-1.0708,0.2424,0.6257,0.3659,2.5782,2046
15,-0.707,-1.0562,0.3154,0.6047,0.591,2.5348,2045
15,-0.6592,-1.0144,0.363,0.5241,0.6672,2.4859,2028
15,-0.5945,-0.9255,0.3894,0.4785,0.6642,2.3804,2052
15,-0.5042,-0.8362,0.3784,0.4346,0.6276,2.2695,2046
15,-0.4124,-0.8037,0.3665,0.3502,0.5474,2.176,2062
15,-0.3555,-0.759,0.345,0.3165,0.4428,2.0447,2054
15,-0.3555,-0.5618,0.3115,0.3289,0.4781,1.8832,2062
15,-0.4092,-0.5393,0.3,0.3123,0.5285,1.7382,2057
15,-0.365,-0.5149,0.3088,0.3557,0.4926,1.6523,2056
15,-0.3645,-0.4858,0.3208,0.3605,0.4739,1.5776,2053
15,-0.3564,-0.4333,0.3606,0.3804,0.4361,1.4587,2046
15,-0.3245,-0.5193,0.4014,0.3778,0.4252,1.3603,2053
15,-0.3323,-0.5315,0.4248,0.3113,0.5481,1.2034,2048
15,-0.3411,-0.5105,0.4026,0.1834,0.7026,1.009,2046
15,-0.3611,-0.4124,0.3386,0.1041,0.8654,0.8299,2060
15,-0.3577,-0.3501,0.2908,0.1056,0.9172,0.6935,2055
15,-0.332,-0.2803,0.3274,0.075,0.9235,0.5402,2048
15,-0.3401,-0.3467,0.3127,0.0585,0.9095,0.3277,2050
15,-0.4258,-0.4929,0.3064,0.0987,0.8734,0.2693,2042
15,-0.4626,-0.4961,0.2891,0.1332,0.8598,0.2095,2043
15,-0.4592,-0.4878,0.2153,0.0052,0.8974,0.0574,2009
15,-0.4692,-0.4849,0.1116,-0.0244,0.8624,-0.0983,2078
15,-0.4277,-0.4329,0.0574,-0.0378,0.7168,-0.2581,2084
15,-0.3503,-0.4009,0.0811,-0.036,0.6149,-0.3412,2062
15,-0.3154,-0.3921,0.1018,-0.0531,0.418,-0.4048,2061
15,-0.4619,-0.5049,0.1077,-0.1533,0.2063,-0.6508,2061
15,-0.5364,-0.5098,0.0867,-0.1711,0.0875,-0.8885,2053
15,-0.3586,-0.4529,0.1899,-0.2899,-0.2473,-1.175,2058
15,-0.3345,-0.3582,0.0693,-0.2729,-0.1654,-1.1244,2043
15,-0.5027,-0.3672,0.0688,-0.3075,-0.2527,-1.2299,2056
15,-0.5039,-0.3794,0.1345,-0.2739,-0.3004,-1.3197,2046
15,-0.5085,-0.3162,0.2007,-0.3148,-0.2346,-1.4081,2064
15,-0.4509,-0.2949,0.2466,-0.3657,-0.1027,-1.4984,2076
15,-0.4097,-0.3413,0.2495,-0.3718,-0.0421,-1.5283,2050
15,-0.3906,-0.3899,0.2742,-0.3417,0.023,-1.5587,2056
15,-0.3828,-0.4614,0.28,-0.3388,0.1222,-1.6222,2055
15,-0.4192,-0.501,0.3027,-0.3639,0.3184,-1.7064,2050
15,-0.3987,-0.4875,0.3584,-0.3591,0.3851,-1.8117,2042
15,-0.3796,-0.4907,0.3857,-0.3528,0.4972,-1.9339,2047
15,-0.3481,-0.5413,0.3635,-0.3815,0.5746,-2.0647,2050
15,-0.3381,-0.5022,0.3289,-0.3201,0.6271,-2.1726,2047
15,-0.5271,-0.6951,0.3125,-0.3362,0.8427,-2.1555,2045
16,-0.2561,-0.6501,0.3398,-0.3602,0.8568,-2.2334,2061
16,-0.2378,-0.7329,0.2517,-0.3529,0.7156,-2.2265,2048
16,-0.2288,-0.7432,0.1855,-0.3484,0.5136,-2.1969,2059
16,-0.1934,-0.7832,0.1836,-0.3477,0.2891,-2.1345,2054
16,-0.1992,-0.7798,0.1743,-0.3646,0.0968,-2.0521,2044
16,-0.2222,-0.7112,0.1797,-0.3715,-0.1262,-1.9671,2050
16,-0.2393,-0.656,0.2024,-0.3789,-0.3267,-1.9009,2042
16,-0.262,-0.6287,0.2129,-0.3984,-0.5385,-1.8437,2045
16,-0.3594,-0.5918,0.2412,-0.4167,-0.6414,-1.7808,2058
16,-0.4749,-0.5117,0.2976,-0.4042,-0.5649,-1.7476,2047
16,-0.7109,-2.0,0.2239,-2.3124,0.5127,-1.5696,2071
16,-1.4749,-0.417,0.1384,-0.7809,-0.9303,-0.6315,2062
16,-0.4119,-1.0137,0.9526,-0.3824,-1.0785,-0.6522,2039
16,-2.0,-1.6909,0.0105,-0.7794,-0.3611,0.3376,2032
16,-2.0,-1.5435,0.9175,0.2802,-1.8695,1.1694,2097
16,-2.0,-0.7488,1.4553,0.5269,0.2892,1.0802,2006
16,-0.0391,-1.0037,1.0254,0.0884,1.2286,0.5172,2114
16,1.9999,-0.613,0.2253,-0.1746,0.7144,0.4295,2040
16,-0.2329,-1.02,-0.157,0.7831,-0.131,0.7325,2101
16,-1.3533,-1.3179,0.7488,0.7573,0.4402,0.6678,1997
16,-0.7024,-1.156,0.1414,0.1808,1.327,0.4987,2015
16,0.1392,-0.6426,-0.2097,0.0384,1.0977,0.5847,1956
16,-0.3003,-0.5364,-0.1882,0.002,0.5043,0.6019,2073
16,-0.5598,-0.7012,-0.033,-0.1693,0.2606,0.4617,2057
16,-0.4075,-0.8513,0.0852,-0.1304,-0.059,0.4219,2058
16,-0.457,-0.9082,0.2263,-0.0695,-0.0654,0.4322,2041
16,-0.6587,-1.3679,0.4795,0.0129,-0.1155,0.3543,2178
16,-0.4221,-1.3936,0.5562,0.0077,0.1907,0.1433,2057
16,-0.3796,-1.2402,0.4448,0.0477,0.2764,0.0798,2102
16,-0.6187,-1.0459,0.3015,-0.0414,0.4111,-0.0245,2076
16,-0.5913,-0.7903,0.2285,-0.1204,0.4243,-0.1681,2063
16,-0.5193,-0.7651,0.1973,-0.1459,0.3422,-0.2433,2039
16,-0.5139,-0.8208,0.2207,-0.1811,0.2774,-0.3083,1961
16,-0.488,-0.9719,0.2605,-0.2149,0.2337,-0.3758,2073
16,-0.425,-1.0217,0.3052,-0.212,0.1956,-0.4316,1841
16,-0.4126,-1.0566,0.3196,-0.2204,0.1475,-0.4749,1947
16,-0.4004,-1.0759,0.3252,-0.2362,0.1573,-0.5308,2207
16,-0.375,-1.072,0.3208,-0.2647,0.136,-0.5674,2075
16,-0.3689,-1.0588,0.314,-0.3004,0.0923,-0.6106,2015
16,-0.3708,-1.0146,0.292,-0.3649,0.0734,-0.6552,2150
16,-0.396,-1.0032,0.2551,-0.3856,0.0109,-0.7014,2078
16,-0.397,-1.0095,0.2427,-0.3939,-0.0378,-0.7514,2096
16,-0.3782,-0.9785,0.207,-0.4199,-0.0676,-0.8003,2080
16,-0.3621,-0.9817,0.177,-0.4255,-0.0928,-0.848,1952
16,-0.3108,-1.0186,0.1855,-0.4297,-0.1028,-0.8841,1981
16,-0.3096,-1.001,0.166,-0.4034,-0.0659,-0.8879,2062
16,-0.2839,-0.9844,0.1555,-0.393,-0.0823,-0.9042,2056
16,-0.2559,-0.8879,0.1499,-0.3694,-0.1188,-0.891,2073
16,-0.3137,-0.8748,0.0874,-0.4051,-0.0386,-0.9096,2035
16,-0.2012,-0.894,0.051,-0.4144,-0.0131,-0.9171,1969
16,-0.2393,-0.939,0.084,-0.3886,-0.0132,-0.903,2024
16,-0.3279,-0.9316,0.0845,-0.3579,0.0425,-0.9095,2078
16,-0.2617,-0.9558,0.1018,-0.385,0.0983,-0.919,2034
16,-0.1831,-0.925,0.0603,-0.385,0.0914,-0.94,2032
16,-0.0366,-0.9404,0.0525,-0.3312,0.0128,-0.8758,2061
16,-0.1738,-0.9248,0.0632,-0.3245,0.0008,-0.8564,2139
16,-0.1414,-0.9277,0.0664,-0.3051,0.0782,-0.8291,2001
16,-0.0227,-0.9548,0.0769,-0.2673,0.0647,-0.749,2041
16,0.0154,-0.9705,0.0449,-0.2055,0.037,-0.656,2077
16,-0.0193,-0.9651,0.0676,-0.1657,0.0479,-0.5693,2065
16,-0.0005,-0.9668,0.05,-0.1278,0.0517,-0.483,2101
16,0.0156,-0.9336,0.0786,-0.1105,0.0077,-0.3879,2065
16,-0.0403,-0.9399,0.0559,-0.1008,-0.0013,-0.3103,2032
16,-0.0603,-0.9487,0.0505,-0.0941,0.0072,-0.2626,2005
16,-0.0908,-0.9167,0.0439,-0.1053,-0.0137,-0.2478,2083
16,-0.074,-0.9358,0.0505,-0.1354,0.0104,-0.2293,2082
16,-0.0259,-0.9668,0.0261,-0.1249,0.019,-0.2092,1985
16,-0.042,-0.9778,0.0222,-0.0723,0.0679,-0.1871,1886
16,0.0339,-1.0371,0.0498,-0.0057,0.0329,-0.1019,2036
16,0.0588,-1.0417,0.0767,0.0206,-0.0374,-0.0077,2003
16,0.0815,-1.0574,0.1272,0.0533,-0.0686,0.0967,2011
16,0.0242,-1.064,0.1265,0.0246,-0.0342,0.1402,2038
16,0.0518,-1.0437,0.1294,0.0277,-0.0747,0.2221,2085
16,0.0261,-1.0178,0.0938,0.037,-0.0706,0.2489,2058
16,0.0574,-1.0232,0.0972,0.0194,0.0603,0.3125,2060
16,-0.0637,-1.0125,0.0679,0.0377,0.0449,0.3485,2126
16,-0.0916,-0.8909,0.0032,0.0799,0.1878,0.3882,2063
16,-0.1511,-1.0503,0.0764,0.081,-0.0457,0.4366,2120
16,-0.1902,-0.9961,0.0693,0.0458,0.0517,0.3978,1987
16,-0.1499,-1.0459,0.0728,0.0555,0.0164,0.4215,2031
16,-0.1843,-1.0129,0.0859,0.0667,-0.0134,0.4215,2110
16,-0.1873,-1.0125,0.1194,0.0654,-0.0192,0.416,2173
16,-0.2,-1.021,0.1262,0.0696,-0.0747,0.4568,2024
16,-0.1621,-1.0403,0.1191,0.0852,-0.066,0.4617,1993
16,-0.1462,-1.0535,0.1233,0.0595,-0.018,0.4579,2024
16,-0.177,-1.0442,0.1042,0.0586,-0.0095,0.4641,1967
16,-0.1968,-1.0137,0.103,0.0838,0.0549,0.4497,2192
16,-0.176,-1.0786,0.0801,0.0491,0.0614,0.3923,1905
16,-0.2422,-1.0876,0.0793,0.0515,0.0863,0.3418,2071
16,-0.1331,-1.1772,-0.01,0.043,-0.0911,0.2217,1978
16,-0.1912,-1.1162,0.0742,0.0989,-0.126,0.2461,1962
16,-0.2495,-1.2759,0.1763,0.079,-0.2177,0.1972,1933
16,-0.2695,-1.1396,0.2664,0.0475,-0.1163,0.3305,2064
16,-0.2754,-1.1294,0.3108,0.032,-0.047,0.3462,2133
16,-0.1968,-1.207,0.2942,0.1507,0.1372,0.4779,1980
16,-0.1191,-1.3232,0.2302,0.2745,0.286,0.5886,2040
16,-0.1558,-1.6392,0.1475,0.2791,0.5818,0.2545,2058
16,0.3989,-1.5151,0.1353,0.3015,0.4754,-0.2159,2084
16,0.6658,-1.3213,0.0803,0.3753,-0.129,0.1818,2063
16,0.6108,-1.5613,0.0808,0.2168,-0.485,-0.0965,2086
16,0.8064,-1.4009,0.0146,0.39,-1.2687,0.275,2125
16,0.1575,-1.2542,0.2085,0.7376,-1.4266,0.9376,1998
17,1.1072,-1.3088,0.1755,1.0302,-2.2029,1.0852,2085
17,0.8499,-1.6416,0.2183,0.7726,-2.7362,0.7395,1993
17,-0.0371,-1.0952,0.3625,0.9937,-2.9038,0.6103,1972
17,-1.0095,-1.158,0.2422,1.4066,-2.0291,1.071,2048
17,-0.2729,-1.563,0.1235,1.4162,-1.5049,1.1034,2052
17,-2.0,-0.5085,-0.6545,0.4743,-0.2478,0.7801,2052
17,0.6206,-0.5181,-0.093,1.2608,-1.9164,1.4347,2081
17,0.2705,-2.0,0.7976,0.6561,-1.8215,1.6625,2122
17,-1.0728,-1.5103,-0.5049,-0.0453,-1.2861,2.0619,1993
17,-1.1997,-1.751,0.1946,0.4713,0.455,2.0005,2042
17,-1.1997,-1.614,0.7446,-0.3137,-0.5168,2.1897,2039
17,-0.9431,-1.2188,0.302,-0.1159,-0.5842,2.2581,2042
17,-0.5027,-1.0486,0.1404,0.135,0.2193,2.0339,2057
17,-0.2351,-1.1536,-0.1184,0.2515,0.192,1.6953,2042
17,0.1082,-1.062,-0.165,0.3996,0.0352,1.8126,2050
17,-0.1956,-0.9182,-0.0288,0.6345,0.348,1.9776,2055
17,-0.4329,-0.9207,0.1975,0.8504,0.447,2.0338,2054
17,-0.637,-1.0232,0.2673,0.8762,0.4095,2.0437,2045
17,-0.6782,-1.106,0.3201,0.7726,0.3047,1.9849,2060
17,-0.6462,-1.166,0.304,0.6347,0.2452,1.9696,2048
17,-0.6204,-1.1353,0.2783,0.611,0.3164,1.9511,2048
17,-0.5972,-1.0576,0.2725,0.5999,0.4368,1.917,2054
17,-0.5554,-1.0007,0.3386,0.5284,0.583,1.876,2065
17,-0.5801,-0.8591,0.3157,0.5612,0.5534,1.8032,2050
17,-0.4514,-0.7456,0.323,0.5448,0.3999,1.7104,2057
17,-0.562,-0.7915,0.4656,0.5879,0.4854,1.5665,2053
17,-0.616,-0.8044,0.509,0.5484,0.6027,1.481,2055
17,-0.5681,-0.6445,0.4058,0.6576,0.8353,1.4042,2049
17,-0.5325,-0.613,0.2832,0.7401,1.0817,1.3315,2055
17,-0.5193,-0.4429,0.3403,0.7593,1.2945,1.3307,2066
17,-0.408,-0.3149,0.2849,0.679,1.2957,1.2216,2040
17,-0.4722,-0.4395,0.2468,0.6987,1.1773,0.9412,2040
17,-0.5715,-0.6418,0.2871,0.7328,1.1388,0.7363,2061
17,-0.7146,-0.7939,0.3398,0.6028,1.1138,0.6273,2056
17,-0.6685,-0.6882,0.2566,0.4293,1.2653,0.4738,2037
17,-0.293,-0.5015,0.2026,0.2248,1.2525,0.2,2036
17,-0.2278,-0.6145,0.2056,-0.026,0.711,-0.0305,2023
17,-0.416,-0.7952,0.2124,-0.2858,0.1406,-0.7564,2046
17,0.1934,-0.4338,-0.0205,-0.131,-0.4582,-0.5642,2040
17,-0.2012,-0.1667,-0.0576,-0.1868,-0.2453,-0.7681,2099
17,-0.5068,-0.1082,-0.1238,-0.0348,-0.2248,-0.7263,2086
17,-0.4495,-0.0383,0.061,0.0898,-0.0193,-0.7492,2079
17,-0.2937,-0.1436,0.1873,0.0181,-0.024,-0.7761,2111
17,-0.3274,-0.1917,0.0947,-0.2056,0.0666,-1.028,2009
17,-0.2183,-0.1694,0.1257,-0.333,-0.1229,-1.2581,2040
17,-0.2158,-0.1287,0.0303,-0.4562,-0.1665,-1.4878,2059
17,-0.1848,-0.1196,-0.009,-0.5376,-0.3302,-1.7535,2051
17,-0.1794,-0.1089,0.0066,-0.5818,-0.3239,-2.007,2037
17,-0.5051,-0.3179,0.158,-0.4574,-0.0113,-2.084,2039
17,-0.1948,-0.397,0.1292,-0.6473,0.2004,-2.3101,2045
17,-0.3513,-0.3247,0.0906,-0.5803,0.3223,-2.4574,2037
17,-0.3342,-0.2317,0.2275,-0.5627,0.494,-2.6072,2035
17,-0.1519,-0.2209,0.2412,-0.7154,0.5316,-2.769,2047
17,-0.2058,-0.3137,0.0601,-0.7637,0.471,-2.8775,2026
17,-0.259,-0.375,0.0286,-0.7428,0.5452,-3.0147,2046
17,-0.1799,-0.3469,0.0571,-0.7482,0.6095,-3.1095,2049
17,-0.0908,-0.3433,0.0762,-0.73,0.5067,-3.1764,2048
17,-0.0081,-0.3262,0.1064,-0.7035,0.2534,-3.2171,2050
17,-0.0051,-0.2751,0.1191,-0.6882,-0.0594,-3.2677,2048
17,-0.0427,-0.2224,0.137,-0.7104,-0.2944,-3.3238,2046
17,-0.0803,-0.189,0.1455,-0.7823,-0.4139,-3.383,2044
17,-0.0786,-0.1355,0.217,-0.8644,-0.5075,-3.4569,2046
17,-0.9268,-2.0,0.2056,-2.4747,0.4316,-3.3872,2062
17,-2.0,0.6489,-2.0,-2.748,2.133,0.8457,2159
17,-2.0,-1.9587,1.9999,3.6123,-4.3635,-0.95,2165
17,-1.7961,-2.0,0.2524,-0.7283,-3.0632,3.5728,1868
17,-2.0,-0.4636,1.8564,0.5558,1.1805,1.3816,2148
17,1.9999,-1.9885,1.9999,-0.424,-0.2815,-0.0828,1601
17,1.9999,-2.0,0.1091,-0.5645,-0.4356,0.0856,2057
17,-2.0,-1.8044,-1.0789,0.844,0.4394,0.4081,1978
17,-1.2393,-0.6636,0.2283,0.4609,1.5277,-0.2955,1782
17,0.3887,0.2034,-0.8059,0.7482,-0.2855,0.3364,2076
17,-0.6111,-0.3621,0.4854,0.4219,-0.1771,0.3836,2041
17,-0.8889,-1.2026,0.7363,-0.0372,-0.0799,-0.0136,2084
17,-0.3904,-1.3518,0.4832,0.0486,0.3045,-0.2485,2045
17,-0.2666,-1.1992,0.4524,0.2293,0.4181,-0.1768,2056
17,-0.52,-0.8945,0.0776,0.1816,0.0044,-0.2316,2080
17,-0.3923,-0.8625,0.1514,0.2282,-0.0103,-0.3461,2030
17,-0.3401,-1.0544,0.3674,0.2393,-0.012,-0.375,2076
17,-0.4265,-1.0144,0.491,0.0224,0.1867,-0.471,2010
17,-0.3467,-0.9614,0.4922,-0.1541,0.2549,-0.6123,2049
17,-0.2759,-0.9805,0.4106,-0.214,0.3804,-0.7022,2031
17,-0.1663,-1.0483,0.3225,-0.2934,0.3988,-0.6545,1967
17,-0.0796,-1.061,0.2524,-0.3373,0.2535,-0.555,2073
17,-0.136,-1.0266,0.2285,-0.3135,0.03,-0.491,2069
17,-0.3237,-1.0012,0.2578,-0.3346,-0.023,-0.5149,2073
17,-0.4644,-0.988,0.2803,-0.3888,0.0782,-0.6035,2054
17,-0.4309,-0.981,0.1907,-0.4211,0.2297,-0.6851,2083
17,-0.2759,-0.9661,0.0657,-0.4169,0.2714,-0.7252,2011
17,-0.1721,-0.9778,-0.002,-0.3631,0.1936,-0.7377,2068
17,-0.1638,-0.96,0.0093,-0.3213,0.0631,-0.7276,2046
17,-0.2058,-0.949,0.0444,-0.2509,0.0115,-0.7492,2028
17,-0.2151,-0.9473,0.0981,-0.2099,0.0253,-0.7773,2050
17,-0.1943,-0.9617,0.1021,-0.1866,0.0479,-0.7834,2088
17,-0.1641,-0.9697,0.0945,-0.1711,0.0714,-0.779,1947
17,-0.1304,-1.0071,0.1274,-0.1332,0.0734,-0.7807,2060
17,-0.1074,-0.96,0.1458,-0.1048,0.0682,-0.7505,2052
17,-0.1191,-0.9585,0.1433,-0.1213,0.0915,-0.7087,2023
17,-0.0808,-0.9922,0.1995,-0.139,0.0782,-0.6847,2054
17,-0.0649,-0.9729,0.1526,-0.1193,0.079,-0.6369,2072
17,-0.1052,-0.9883,0.1843,-0.1149,0.07,-0.5968,2055
18,-0.1489,-0.9731,0.1858,-0.1268,0.0475,-0.5782,2050
18,-0.1611,-0.947,0.1973,-0.1376,0.0862,-0.5779,2058
18,-0.134,-0.9587,0.1934,-0.1523,0.1141,-0.5589,2081
18,-0.1011,-1.0054,0.1665,-0.1621,0.1493,-0.553,2053
18,-0.0359,-1.0056,0.1265,-0.1372,0.1451,-0.4864,2008
18,0.0149,-0.948,0.073,-0.133,0.1111,-0.4537,2099
18,-0.0156,-0.9619,0.0789,-0.1312,0.1113,-0.4187,2074
18,-0.0479,-0.9685,0.0894,-0.1133,0.0795,-0.3803,2057
18,-0.0659,-0.9949,0.1003,-0.1193,0.0513,-0.3631,2046
18,-0.0894,-0.9824,0.0635,-0.1206,0.0547,-0.3497,2038
18,-0.0205,-1.0073,0.071,-0.1141,0.0531,-0.3168,2035
18,0.0251,-0.9746,0.072,-0.0904,0.0324,-0.277,2073
18,0.0437,-0.9612,0.0444,-0.0718,0.0261,-0.2131,2058
18,0.0879,-0.9778,0.0374,-0.0202,0.0369,-0.1665,2056
18,0.127,-0.9924,0.0747,0.0217,-0.0546,-0.1068,2027
18,0.1047,-0.9858,0.0762,0.0302,-0.0515,-0.0369,2047
18,0.0583,-0.998,0.1016,0.09,0.0069,0.0615,2017
18,-0.0144,-1.0713,0.1165,0.0449,0.0253,0.0653,2113
18,0.1379,-0.9646,0.072,0.0473,0.0222,0.1145,2051
18,0.0923,-1.0325,0.1362,0.1294,-0.0563,0.1565,2015
18,-0.0037,-1.0322,0.0911,0.0687,-0.0216,0.1602,2035
18,-0.0586,-1.0242,0.1147,0.0818,-0.1112,0.1674,2036
18,-0.2786,-0.9268,0.0667,0.0096,0.037,0.0927,2070
18,0.0032,-0.9456,0.1233,-0.0136,0.1545,0.0618,2061
18,-0.0156,-1.0964,0.1721,-0.0041,0.0936,0.1269,2070
18,-0.0317,-1.0215,0.0872,0.0198,0.2077,0.1499,2030
18,-0.0396,-1.0049,0.1094,0.155,0.1366,0.1967,2014
18,0.0645,-1.0684,0.1694,0.1549,0.032,0.1843,2097
18,0.0205,-0.9875,0.104,0.1859,0.1052,0.2629,2049
18,0.0974,-0.9871,0.0781,0.239,0.0481,0.2936,2079
18,0.1299,-1.0081,0.0605,0.2072,0.0878,0.3904,2068
18,0.0522,-0.9868,0.0967,0.2021,0.1352,0.4457,2076
18,0.0146,-1.0083,0.0718,0.226,0.0274,0.5128,2170
18,-0.0256,-0.9883,0.0447,0.2473,0.0621,0.5755,1981
18,-0.0571,-1.0349,0.0967,0.2666,0.1236,0.6185,2114
18,-0.0571,-1.0264,0.145,0.239,0.2414,0.6653,1970
18,-0.1011,-1.0527,0.1162,0.2402,0.2594,0.7146,1941
18,-0.1033,-1.0366,0.1167,0.2541,0.2665,0.7741,2021
18,-0.1787,-1.0432,0.1096,0.2047,0.2782,0.7988,2060
18,-0.2212,-1.0793,0.1672,0.125,0.2175,0.8752,1904
18,-0.2224,-1.0928,0.1733,0.1579,0.138,0.9519,1802
18,-0.238,-1.25,0.1836,0.1874,0.076,1.0051,2054
18,-0.228,-1.3672,0.1768,0.2605,0.0111,1.0268,1940
18,-0.1379,-1.5288,0.2659,0.1991,0.0469,0.8801,2086
18,-0.0674,-1.4932,0.2676,0.2119,-0.377,0.5014,2011
18,0.1194,-1.5352,0.3276,0.2886,-0.3123,0.5501,2151
18,0.1121,-1.6704,0.4138,0.3579,-0.0985,0.6131,2077
18,0.1311,-1.842,0.3967,0.1673,-0.0318,0.5854,2055
18,0.5432,-1.4668,0.3406,0.1565,-0.2485,0.369,2025
18,0.6045,-1.3557,0.3457,0.2659,-0.701,0.3239,2056
18,0.5051,-1.4041,0.4246,0.1614,-1.0437,0.3505,2075
18,-0.1663,-1.3696,0.4297,0.467,-0.8256,0.4438,2030
18,0.9124,-1.4526,0.2368,0.8765,-1.4608,0.8248,2080
18,1.9999,-1.3279,0.1963,0.8207,-4.3635,1.7547,2042
18,-0.1704,-1.9875,-0.333,0.4715,-1.3898,-0.6818,2068
18,-0.6709,-0.7314,1.0457,0.428,-3.5323,1.1696,2117
18,-0.9277,0.0254,-1.0103,0.6329,-1.4408,2.8879,1991
18,0.835,-0.5083,-0.4712,1.5305,-0.7351,1.0083,2051
18,-0.3167,-2.0,0.3315,1.5508,-0.4097,1.3236,2184
18,-1.1594,-1.6829,-0.5894,0.3424,-0.9496,1.7097,2036
18,-0.8628,-1.6013,0.0601,0.6695,0.4172,1.645,1952
18,-0.9319,-1.5984,0.8069,0.1346,-0.9756,2.0208,2006
18,-0.6926,-1.1687,0.1697,0.2799,-0.6488,2.0366,2030
18,-0.2014,-1.3196,0.2427,0.3818,-0.4564,2.467,2053
18,0.0076,-1.3264,0.1499,0.7637,-0.5831,2.1913,2040
18,0.2898,-1.3354,0.2524,0.616,-0.9399,2.2738,2053
18,-0.1863,-1.1902,0.2307,0.507,-0.7317,2.3712,2073
18,-0.3865,-1.2502,0.241,0.5711,-0.49,2.4498,2059
18,-0.5188,-1.1958,0.1897,0.6175,-0.0569,2.3422,2056
18,-0.6846,-1.0405,0.2312,0.7062,0.2843,2.3129,2037
18,-0.834,-0.9805,0.3013,0.9082,0.675,2.3007,2051
18,-0.905,-0.9507,0.4197,0.9998,0.9939,2.228,2061
18,-0.9021,-0.9387,0.4854,0.9531,1.2057,2.1113,2054
18,-0.9258,-0.9211,0.3804,0.991,1.4218,1.8988,2042
18,-0.8723,-0.8093,0.3362,1.0298,1.8116,1.655,2050
18,-0.7053,-0.5996,0.4351,0.9594,2.1413,1.5081,2058
18,-0.4236,-0.3357,0.4495,1.0894,2.0438,1.5384,2060
18,-0.3271,-0.4927,0.4246,1.0216,1.8555,1.3462,2042
18,-0.3521,-0.8503,0.3552,0.7594,1.8177,1.0057,2047
18,-0.3313,-0.5444,0.2412,0.648,1.7925,0.9401,2047
18,-0.2859,-0.4116,0.1135,0.5754,1.6587,0.7662,2042
18,-0.4451,-0.5188,0.1519,0.7299,1.4796,0.7658,2047
18,-0.5269,-0.6406,0.2788,0.6759,1.3485,0.6335,2031
18,-0.4058,-0.5295,0.2686,0.4516,1.3797,0.444,2060
18,-0.1792,-0.4307,0.176,0.3783,1.2284,0.39,1991
18,-0.2939,-0.709,0.2485,0.1234,0.8086,0.0055,2084
18,-0.3005,-0.5981,0.2224,0.0205,0.4422,-0.5445,2105
18,0.1418,-0.4023,0.1677,-0.0879,-0.039,-0.7957,2068
18,-0.053,-0.1404,0.0703,0.2511,0.3175,-0.6783,2080
18,-0.3167,-0.1946,0.0925,0.2019,0.328,-0.7537,2071
18,-0.146,-0.2441,0.1375,0.2005,0.1934,-0.8267,2101
18,-0.1807,-0.2324,0.0725,0.0736,0.2392,-0.9851,2019
18,-0.1833,-0.197,0.0903,-0.0755,0.0117,-1.1378,2016
18,-0.2239,-0.2053,0.0442,-0.202,-0.0009,-1.3382,2032
18,-0.1528,-0.1824,-0.0151,-0.3356,0.1216,-1.5623,2054
18,-0.1582,-0.2429,-0.02,-0.44,0.2316,-1.7604,2046
18,-0.1152,-0.2573,0.0073,-0.5082,0.1172,-1.9727,2051
18,-0.1299,-0.2344,0.0339,-0.5639,0.0103,-2.1542,2040
18,-0.3613,-0.4282,0.0364,-0.6735,0.298,-2.2373,2048
18,-0.2336,-0.2397,0.0825,-0.7771,0.4524,-2.4091,2044
18,-0.3005,-0.2612,-0.0142,-0.8843,0.5315,-2.5127,2039
18,-0.3052,-0.2595,-0.0396,-0.9529,0.601,-2.6557,2044
18,-0.2861,-0.2334,-0.0459,-1.0344,0.6839,-2.7661,2048
19,-0.2986,-0.2056,-0.073,-1.072,0.7296,-2.8646,2038
19,-0.3027,-0.1682,-0.0764,-1.1015,0.7646,-2.9584,2055
19,-0.2832,-0.1816,-0.0732,-1.1352,0.7247,-3.0397,2050
19,-0.2595,-0.217,-0.0884,-1.1387,0.6161,-3.1023,2050
19,-0.2571,-0.1992,-0.095,-1.1326,0.4639,-3.1431,2050
19,-0.3108,-0.207,-0.095,-1.1196,0.3133,-3.1893,2057
19,-0.3088,-0.2246,-0.0808,-1.1222,0.1386,-3.2397,2049
19,-0.303,-0.1921,-0.0588,-1.1017,-0.0751,-3.2874,2043
19,-0.2119,-1.5151,-2.0,-2.677,3.1062,-1.731,2134
19,-2.0,-0.1157,-0.4775,-0.251,-1.8246,0.651,2167
19,1.1799,-2.0,1.0457,-0.5834,-4.3635,0.1176,2012
19,-2.0,-2.0,0.8044,1.4488,-4.3635,3.1034,1875
19,-2.0,-1.3821,1.9999,1.2154,1.0575,0.9408,2160
19,1.9999,-1.9426,1.2109,0.3618,-3.1565,0.867,2187
19,1.6406,-1.6899,0.8403,0.803,0.0248,-0.1731,2143
19,-2.0,-0.939,-0.3047,1.3499,0.3406,0.5932,2077
19,-1.3757,-0.9792,0.373,0.5289,1.8538,-0.4541,1951
19,0.5364,-0.356,-0.6438,0.63,0.5466,0.3915,2075
19,-0.3738,-0.5469,0.1284,0.4606,-0.2573,0.3304,2086
19,-0.3879,-1.3347,0.623,0.2101,-0.1879,0.0173,2057
19,-0.4275,-1.3386,0.7437,0.2324,0.236,-0.1575,2023
19,-0.3579,-1.1538,0.6467,0.4111,0.5464,-0.0546,2056
19,-0.4224,-0.8208,0.1313,0.2645,0.1483,-0.0826,1981
19,-0.3738,-0.9539,0.1648,0.3152,-0.017,-0.1453,2058
19,-0.5442,-1.1074,0.2993,0.2498,0.1278,-0.2591,2080
19,-0.5334,-0.9585,0.377,0.0747,0.3922,-0.4124,2053
19,-0.3887,-0.9209,0.3716,-0.0385,0.4709,-0.5854,2012
19,-0.3054,-1.0544,0.3438,-0.1031,0.5622,-0.7517,2069
19,-0.1821,-1.0745,0.2783,-0.1886,0.5044,-0.651,2040
19,-0.106,-0.9766,0.2031,-0.1811,0.2709,-0.5059,2071
19,-0.2314,-1.0042,0.1895,-0.1908,0.089,-0.445,2090
19,-0.4141,-1.0242,0.271,-0.2133,0.0936,-0.4843,2005
19,-0.4412,-1.02,0.2588,-0.2827,0.2405,-0.5643,2071
19,-0.4014,-0.9658,0.2419,-0.2927,0.2964,-0.6438,2059
19,-0.3354,-0.9866,0.2095,-0.2741,0.3251,-0.7232,2039
19,-0.261,-0.9727,0.1897,-0.2633,0.2895,-0.7296,2071
19,-0.2417,-0.9399,0.1453,-0.228,0.246,-0.7364,2046
19,-0.2349,-0.9663,0.1787,-0.2145,0.2663,-0.7478,2114
19,-0.2327,-0.9797,0.1638,-0.2501,0.3554,-0.7265,2047
19,-0.2083,-1.0071,0.1562,-0.2503,0.3595,-0.7391,2074
19,-0.1548,-1.0154,0.1729,-0.2465,0.3535,-0.6934,2072
19,-0.1255,-0.9673,0.1826,-0.2587,0.3742,-0.6613,2060
19,-0.1311,-0.9456,0.1804,-0.2687,0.3458,-0.6201,2054
19,-0.1785,-0.9419,0.1904,-0.3159,0.4348,-0.5976,2076
19,-0.1636,-0.9688,0.1501,-0.3381,0.34,-0.5685,2059
19,-0.1775,-0.927,0.1604,-0.3357,0.3974,-0.5622,2045
19,-0.1526,-0.9951,0.1819,-0.335,0.3816,-0.5577,2064
19,-0.1199,-1.0576,0.1604,-0.357,0.2649,-0.5414,2025
19,-0.1431,-0.9792,0.1667,-0.408,0.2677,-0.5695,1996
19,-0.0815,-1.0249,0.1641,-0.3763,0.2735,-0.5248,2070
19,-0.1145,-1.0242,0.1077,-0.3607,0.1372,-0.5404,2052
19,-0.2422,-1.0408,0.0754,-0.3225,0.2089,-0.4607,2010
19,-0.0627,-0.968,-0.0061,-0.3252,0.1097,-0.5574,2055
19,0.1387,-0.8982,-0.0369,-0.2377,-0.0112,-0.4565,2069
19,-0.0415,-0.9297,-0.01,-0.1708,-0.0599,-0.3665,2011
19,-0.0474,-0.9788,-0.0012,-0.1113,-0.0907,-0.3405,2021
19,0.0239,-0.9734,-0.0115,-0.0654,-0.0895,-0.2741,2020
19,0.0793,-0.9248,0.0332,-0.0766,-0.0523,-0.2185,2063
19,0.0349,-0.9941,0.0205,0.0301,-0.1206,-0.1344,2029
19,0.0439,-1.0037,0.1177,0.0463,-0.0506,0.0095,2100
19,0.1511,-0.8806,0.1475,-0.0145,0.0222,0.0854,2081
19,-0.1045,-0.9553,0.1707,0.0411,0.0834,0.1874,2035
19,-0.1326,-1.1106,0.1343,0.0557,0.2145,0.1095,2042
19,0.0386,-1.0825,0.0786,0.0346,0.1288,0.0732,2083
19,-0.0037,-1.0381,0.0442,0.0764,-0.0001,0.1075,1958
19,-0.0918,-1.0132,0.0073,0.0952,0.0864,0.2177,1997
19,-0.1267,-0.9893,0.0112,-0.0336,-0.0309,0.4016,2015
19,-0.1516,-0.9678,0.0012,-0.1224,0.3978,0.5766,2051
19,0.0806,-1.0103,0.0447,-0.1309,0.5842,0.6974,2048
19,0.0354,-1.0166,0.1125,0.0084,-0.1461,0.3223,2084
19,-0.1633,-0.9185,0.0815,0.0792,0.1514,0.3638,2102
19,-0.1064,-1.0786,0.175,0.0013,0.1265,0.3203,2003
19,-0.0735,-0.9883,0.1001,0.075,0.0348,0.3524,2044
19,-0.1514,-1.0432,0.0884,0.0727,0.087,0.3131,1962
19,-0.1169,-1.0059,0.0752,0.0848,0.1185,0.3424,1997
19,-0.115,-1.0156,0.0901,0.0949,0.0787,0.3432,2051
19,-0.1367,-1.0205,0.0635,0.1205,0.028,0.3582,2096
19,-0.1306,-1.0269,0.0811,0.1466,0.0453,0.3678,2016
19,-0.1472,-1.0574,0.0759,0.167,0.0222,0.3918,2001
19,-0.126,-1.0652,0.0991,0.2148,0.0091,0.4424,1989
19,-0.1157,-1.0791,0.1538,0.1922,0.1041,0.4955,2112
19,-0.0652,-1.1211,0.1064,0.1649,-0.0064,0.5538,2027
19,-0.1172,-1.1038,0.1833,0.108,-0.0527,0.6296,1997
19,-0.2256,-1.1443,0.1504,0.1004,-0.0714,0.5241,2027
19,-0.1943,-1.2366,0.1665,0.051,-0.119,0.3911,2133
19,-0.1033,-1.3015,0.1343,0.0755,-0.2344,0.2049,1947
19,-0.02,-1.3303,0.0796,0.1521,-0.3812,0.271,2066
19,-0.0149,-1.5896,0.1011,0.1318,-0.3259,0.2701,2085
19,-0.0173,-1.6091,0.177,0.0899,-0.4798,-0.2655,2015
19,0.2642,-1.4082,0.2024,0.1238,-0.6176,-0.2123,2055
19,0.2219,-1.5801,0.2537,0.1265,-0.9174,-0.1182,2062
19,0.4277,-1.5508,0.3289,0.1159,-1.29,-0.0917,2038
19,0.4336,-1.1887,0.3994,0.2653,-1.7342,0.3236,2054
19,-0.074,-1.1743,0.4751,0.3693,-1.4956,0.2278,2012
19,0.9143,-1.1941,0.2874,0.449,-1.7837,-0.1971,2037
19,0.6416,-0.9673,0.2288,0.8427,-2.7331,0.475,2043
19,-0.3564,-1.5317,-0.0359,0.7517,-1.2059,-0.5417,2119
19,-0.6919,-1.2251,0.0391,1.1961,-1.6889,0.9981,2114
19,1.9999,-1.3999,-0.1934,-0.2567,-2.7916,3.6507,2027
19,-1.0479,-0.2725,-0.7732,0.583,-1.2227,0.681,2032
19,0.2551,-1.7317,0.072,1.7909,-0.7652,0.583,2082
19,-0.73,-1.6499,0.2991,0.4506,-1.1111,1.8321,2050
20,-1.0447,-1.6736,-0.4229,0.5345,0.8312,1.7203,2027
20,-0.572,-1.7124,0.6924,0.4303,-0.4887,1.9523,1994
20,-0.3193,-1.3967,0.5039,0.5544,-1.3846,2.112,2033
20,0.1714,-1.3545,0.1521,0.8465,-1.4133,2.3944,2055
20,0.3042,-1.459,0.072,0.8767,-1.0588,2.528,2068
20,0.0859,-1.481,0.2539,0.7689,-0.6078,2.5546,2066
20,-0.1855,-1.5215,0.4834,0.4322,-0.6967,2.752,2049
20,-0.5349,-1.3398,0.219,0.38,-0.3481,2.8239,2046
20,-0.5906,-1.3149,0.1484,0.5321,0.0561,2.7481,2044
20,-0.6411,-1.3174,0.1189,0.5512,0.5024,2.7569,2047
20,-0.6692,-1.2686,0.2251,0.5145,0.9002,2.7834,2030
20,-0.6638,-1.1904,0.2712,0.4436,1.0154,2.7188,2024
20,-0.6677,-1.0261,0.283,0.4028,1.0927,2.5851,2048
20,-0.6665,-0.8774,0.2681,0.4147,1.0127,2.3095,2044
20,-0.5112,-0.6238,0.269,0.4112,0.8135,2.0768,2074
20,-0.4028,-0.575,0.2195,0.4908,0.585,2.0054,2075
20,-0.4375,-0.7134,0.3154,0.443,0.442,1.902,2066
20,-0.5503,-0.9443,0.437,0.1755,0.5345,1.7303,2043
20,-0.5576,-0.6985,0.26,0.2561,0.6843,1.5303,2041
20,-0.4912,-0.5588,0.2107,0.1573,0.8566,1.2761,2057
20,-0.3367,-0.2292,0.1445,0.2742,0.9421,1.1935,2042
20,-0.1052,-0.1255,0.1638,0.3811,0.94,1.3202,2058
20,-0.1504,-0.2964,0.1533,0.5662,0.7739,1.2234,2049
20,-0.3718,-0.6323,0.2493,0.5735,0.5996,0.967,2032
20,-0.5708,-0.7986,0.2981,0.3875,0.5669,0.7024,2034
20,-0.3926,-0.5139,0.2644,0.308,0.558,0.5253,2077
20,-0.3943,-0.3828,0.229,0.2494,0.6006,0.2982,2100
20,-0.3179,-0.3596,0.2686,0.1803,0.6115,0.1306,2048
20,-0.313,-0.4861,0.293,0.0112,0.5493,-0.0108,2062
20,-0.3757,-0.5461,0.3193,-0.0798,0.3087,-0.4723,2073
20,0.0771,-0.3066,0.126,-0.0703,0.0663,-0.5552,2052
20,-0.2505,-0.1763,0.0962,-0.0244,0.0542,-0.6826,2045
20,-0.2212,-0.2471,0.0637,-0.0324,-0.0976,-0.8601,2061
20,-0.2393,-0.228,0.0603,-0.0083,-0.1834,-0.9738,2060
20,-0.2705,-0.2234,0.0132,-0.1012,-0.2385,-1.0801,2084
20,-0.3623,-0.2441,0.0574,-0.0666,-0.3404,-1.1669,2043
20,-0.3252,-0.2725,0.0215,-0.2055,-0.2687,-1.3049,2022
20,-0.3584,-0.3315,0.0474,-0.2385,-0.1899,-1.4545,2040
20,-0.3235,-0.3557,0.1055,-0.2549,-0.1562,-1.5922,2035
20,-0.2764,-0.4004,0.1135,-0.3248,-0.2234,-1.7558,2053
20,-0.3149,-0.4207,0.1191,-0.3678,-0.2939,-1.911,2044
20,-0.5427,-0.5366,0.1638,-0.3208,-0.2205,-1.8809,2041
20,-0.3455,-0.458,0.2141,-0.4079,-0.1393,-2.0265,2051
20,-0.3845,-0.5408,0.1536,-0.4489,-0.2249,-2.0833,2061
20,-0.4421,-0.5322,0.1499,-0.4614,-0.1388,-2.1679,2044
20,-0.3809,-0.5105,0.217,-0.4569,-0.081,-2.245,2046
20,-0.3616,-0.5322,0.2161,-0.4618,-0.0658,-2.2814,2057
20,-0.3562,-0.5591,0.2173,-0.4579,-0.0659,-2.3001,2050
20,-0.3533,-0.5571,0.2456,-0.4637,-0.0314,-2.317,2049
20,-0.3352,-0.5256,0.241,-0.4743,-0.0289,-2.3262,2044
20,-0.3396,-0.4985,0.22,-0.4296,-0.0746,-2.31,2044
20,-0.3242,-0.4746,0.2319,-0.3918,-0.1308,-2.2875,2048
20,-0.301,-0.4558,0.2222,-0.3791,-0.1927,-2.2443,2049
20,-0.2976,-0.4431,0.2439,-0.387,-0.2565,-2.1963,2051
20,-0.2676,-0.3896,0.2612,-0.3986,-0.3089,-2.1482,2050
20,-0.2668,-0.3623,0.3064,-0.438,-0.2958,-2.1073,2047
20,-0.3218,-0.3184,0.3765,-0.5014,-0.1708,-2.098,2045
20,-0.3501,-0.2708,0.4229,-0.5863,0.0883,-2.129,2041
20,0.2151,-2.0,-1.7944,-3.7059,2.3091,-1.4021,2105
20,-2.0,-0.2244,-1.2595,0.2095,-1.2235,0.6967,2077
20,-1.0857,-1.9678,1.9999,1.6227,-1.8951,1.0745,2099
20,-2.0,-2.0,1.3423,0.2045,-0.5943,1.9285,2016
20,-0.6763,-1.1265,1.1758,-0.1593,1.969,0.3505,1980
20,1.9999,-0.5261,0.7773,-0.6169,1.4424,-0.073,2160
20,1.4214,-1.8054,-0.561,0.1732,-0.855,0.6895,2051
20,-1.6001,-1.5198,0.3489,0.7256,-0.9138,0.65,2026
20,-1.1475,-0.9998,0.1711,0.2513,0.9582,0.3223,2010
20,0.4548,-0.5908,-0.3457,0.4914,0.1286,0.6478,2062
20,-0.5366,-0.3469,0.2744,0.4518,-0.3926,0.6862,2086
20,-0.7349,-1.0293,0.7727,0.0421,-0.2183,0.3908,2159
20,-0.5728,-1.1855,0.5991,-0.1514,0.3707,0.1859,2097
20,-0.2634,-1.2222,0.3408,-0.0344,0.6167,0.214,2115
20,-0.4092,-1.1609,0.1838,-0.0623,0.4008,0.1112,2006
20,-0.4624,-1.0061,0.0854,0.0407,0.1735,0.0012,2005
20,-0.5457,-0.8613,0.2388,0.0602,0.1617,-0.0735,2049
20,-0.6653,-0.8699,0.354,-0.0252,0.1851,-0.2053,2060
20,-0.5378,-0.9238,0.4094,-0.143,0.2994,-0.3659,1999
20,-0.3662,-0.9705,0.3486,-0.2135,0.339,-0.4315,2078
20,-0.321,-0.9944,0.2783,-0.2362,0.2666,-0.4352,2041
20,-0.2908,-1.0303,0.2478,-0.2381,0.2063,-0.4449,2031
20,-0.2612,-1.0107,0.2732,-0.233,0.1167,-0.4493,2000
20,-0.3298,-0.9958,0.3203,-0.2727,0.0914,-0.4729,2068
20,-0.4114,-1.0051,0.3313,-0.3569,0.1285,-0.5437,2046
20,-0.4192,-1.0054,0.2849,-0.4417,0.1655,-0.6185,2076
20,-0.3916,-0.9941,0.2283,-0.4864,0.2085,-0.6846,2007
20,-0.3308,-0.9778,0.1555,-0.4738,0.1707,-0.7231,2052
20,-0.3191,-0.9771,0.1414,-0.4689,0.1167,-0.7528,2169
20,-0.2971,-0.9885,0.1387,-0.4538,0.1164,-0.7951,1933
20,-0.2976,-0.9897,0.1257,-0.4143,0.0943,-0.8359,2110
20,-0.3057,-0.9402,0.1445,-0.4035,0.0882,-0.863,2048
20,-0.304,-0.925,0.1316,-0.3745,0.0477,-0.909,2018
20,-0.2927,-0.9541,0.1868,-0.3595,0.0727,-0.9521,2118
20,-0.2292,-0.9963,0.1653,-0.3706,0.1482,-0.9453,2081
20,-0.1741,-0.9797,0.1667,-0.3478,0.1194,-0.9166,2038
20,-0.1895,-0.9397,0.1792,-0.3472,0.092,-0.9019,2075
20,-0.136,-0.9224,0.1648,-0.3239,0.1128,-0.8408,1915
20,-0.1514,-0.9299,0.1697,-0.3197,0.1241,-0.7886,2100
20,-0.1138,-0.98,0.1355,-0.3079,0.141,-0.7373,2071
20,-0.0918,-0.9885,0.134,-0.3501,0.2723,-0.6674,2059
20,-0.0671,-0.9692,0.0969,-0.3566,0.2397,-0.6412,2059
20,-0.0469,-0.9263,0.1064,-0.3255,0.1637,-0.5428,2065
21,-0.1062,-0.895,0.0894,-0.2807,0.1256,-0.4852,2063
21,-0.0938,-0.9114,0.0701,-0.2623,0.1846,-0.4472,2038
21,-0.042,-0.9385,0.033,-0.2586,0.1908,-0.4273,2040
21,-0.0105,-0.9539,-0.0125,-0.2223,0.1718,-0.3922,2047
21,0.0559,-0.999,-0.0093,-0.1489,0.0748,-0.3183,2001
21,0.0562,-0.9841,0.042,-0.0186,-0.0923,-0.2092,2024
21,0.0657,-0.9937,0.1123,-0.0037,-0.0855,-0.1346,2037
21,0.0442,-0.9868,0.0898,0.0177,-0.0969,-0.0638,2105
21,-0.0168,-0.9851,0.0542,0.0322,-0.0577,-0.0168,2084
21,0.0137,-0.9766,0.0376,0.0293,-0.0433,0.0198,2043
21,0.0112,-1.0051,0.012,0.0268,-0.0264,0.0675,2070
21,0.0415,-0.9949,0.0188,0.0779,-0.0446,0.1356,2106
21,0.0503,-0.9822,0.0376,0.0759,0.0044,0.1736,2066
21,-0.0632,-0.9661,0.0596,0.0823,0.0297,0.2061,2073
21,-0.1123,-0.9541,0.0598,0.0354,0.0497,0.1755,2013
21,-0.0598,-0.9492,0.0837,-0.0109,0.0306,0.1618,2078
21,-0.2212,-0.9829,0.1389,0.047,-0.0505,0.1621,2084
21,-0.1965,-1.0513,0.145,0.0754,-0.0141,0.1316,2058
21,0.0127,-1.0183,0.1477,0.1237,-0.112,0.2088,2054
21,-0.1035,-1.0559,0.1838,0.1703,-0.1742,0.2654,2049
21,-0.1648,-1.0144,0.1509,0.1495,-0.015,0.226,2030
21,0.0903,-1.0239,0.1416,0.1152,-0.0449,0.3007,2097
21,-0.1172,-1.0132,0.1313,0.1298,0.1176,0.3469,2125
21,-0.1963,-0.9456,0.0852,0.1429,0.1759,0.375,2057
21,-0.0066,-1.0723,0.092,0.1216,-0.1438,0.3906,2001
21,-0.2349,-0.9546,0.0498,0.1322,0.032,0.4157,2065
21,-0.1165,-1.0332,0.1016,0.191,-0.0161,0.4544,1992
21,-0.168,-1.0227,0.114,0.2027,-0.0684,0.4926,2053
21,-0.125,-1.0066,0.1096,0.2171,-0.0246,0.5062,2078
21,-0.1106,-1.0464,0.1287,0.2252,-0.0866,0.5309,2108
21,-0.177,-1.0569,0.1367,0.2278,-0.0726,0.5739,2074
21,-0.1982,-1.0579,0.1577,0.2041,-0.0675,0.5699,2053
21,-0.1755,-1.0703,0.1538,0.1637,-0.059,0.5586,2051
21,-0.2134,-1.0945,0.1389,0.1317,-0.021,0.5616,2103
21,-0.1841,-1.145,0.1423,0.1645,0.0157,0.4638,2048
21,-0.176,-1.2014,0.2148,0.1678,-0.0692,0.3651,2059
21,-0.2451,-1.2595,0.1614,0.1063,-0.2089,0.2687,2043
21,-0.1768,-1.1125,0.3032,0.2354,-0.1129,0.3123,2071
21,-0.136,-1.2327,0.2095,0.283,-0.234,0.3729,2009
21,-0.1482,-1.342,0.1755,0.3786,-0.0973,0.5059,1956
21,-0.1519,-1.4878,0.1899,0.3498,0.1169,0.5408,2002
21,-0.2073,-1.6184,0.1948,0.2991,0.5292,0.2689,2105
21,0.2798,-1.437,0.1689,0.2641,0.6155,0.1579,2045
21,0.3755,-1.4861,0.2385,0.3625,0.1726,0.1714,2075
21,0.5579,-1.6528,0.3301,0.2955,-0.3984,0.2216,2071
21,0.1465,-1.3215,0.4937,0.516,-0.8296,0.8168,2079
21,0.7114,-1.4417,0.3464,0.5256,-0.5336,0.017,2109
21,1.3865,-1.0793,0.3408,0.8391,-2.6914,0.808,2066
21,0.7805,-1.6067,0.187,0.5092,-3.4649,-0.2826,2041
21,-0.219,-1.3276,0.4932,1.1183,-2.6376,-0.3856,1965
21,-1.0676,-0.7117,-0.7087,0.0202,-4.3635,2.8375,2248
21,0.0325,-0.5039,-0.751,1.0995,-1.8273,1.1026,2011
21,0.2422,-1.7351,0.3586,1.7934,-1.246,1.0334,2115
21,-0.9146,-1.5479,0.4138,0.754,-2.3469,1.7703,2103
21,-0.7737,-1.3391,-0.0576,1.0575,-0.463,1.4043,2012
21,-1.0149,-2.0,0.9058,0.4396,-1.7891,1.9844,1958
21,-0.8962,-1.446,0.3796,-0.0341,-1.6135,2.4557,2008
21,-0.5627,-1.3396,0.0876,-0.3217,-1.4103,2.7044,2056
21,-0.6196,-1.1729,0.0627,-0.2429,-1.0693,2.8272,2079
21,-0.9597,-1.0867,0.1138,0.3334,-0.1915,2.4409,2056
21,-0.2529,-1.5352,0.4426,0.4207,-0.0686,2.2625,2040
21,0.2646,-1.0364,0.2551,0.4352,0.0234,2.2856,2038
21,-0.1323,-1.0188,-0.009,0.7685,0.3224,2.3798,2040
21,-0.1819,-0.9929,0.0901,1.0194,0.2647,2.5364,2065
21,-0.5193,-1.0566,0.291,1.1519,0.2539,2.5462,2062
21,-0.6318,-1.0869,0.4316,1.0552,0.2041,2.5016,2043
21,-0.6318,-1.03,0.4968,0.9435,0.2219,2.3783,2046
21,-0.7222,-0.9233,0.4722,0.9413,0.3757,2.1996,2042
21,-0.7456,-0.8435,0.4001,0.8361,0.7051,1.9283,2075
21,-0.6738,-0.7,0.377,0.7621,0.97,1.6844,2048
21,-0.4973,-0.6731,0.4304,0.811,1.0037,1.6599,2046
21,-0.5476,-0.6985,0.5159,0.7825,1.185,1.6651,2053
21,-0.511,-0.6987,0.4846,0.6673,1.2195,1.3777,2059
21,-0.4204,-0.5881,0.4434,0.5557,1.4074,1.0974,2049
21,-0.4397,-0.5305,0.3679,0.5689,1.4354,0.9079,2054
21,-0.3923,-0.541,0.4414,0.3573,1.437,0.6665,2037
21,-0.3721,-0.5884,0.2388,0.2569,1.6134,0.4904,2054
21,-0.3721,-0.5969,0.2043,0.3966,1.58,0.4544,2051
21,-0.3184,-0.5767,0.24,0.4157,1.5287,0.4265,2051
21,-0.3647,-0.6616,0.2927,0.1577,1.3792,0.298,2040
21,-0.3196,-0.627,0.3726,0.1862,1.1078,0.2631,2029
21,-0.5762,-0.9321,0.3809,-0.2224,0.8447,-0.4437,2120
21,-0.1101,-0.7969,0.4346,-0.5432,0.2735,-1.0128,2103
21,0.1582,-0.1648,0.1338,-0.2746,0.5791,-0.5727,2068
21,-0.1279,-0.2341,-0.0049,-0.5164,0.6115,-0.8238,2080
21,-0.3125,-0.2217,0.0659,-0.249,0.3867,-0.9198,2087
21,-0.1958,-0.1658,0.1638,-0.3175,0.2741,-1.123,2098
21,-0.2869,-0.1482,0.1506,-0.271,0.2754,-1.2896,2025
21,-0.2004,-0.1855,0.1411,-0.4044,0.1958,-1.3889,2032
21,-0.2334,-0.1084,0.0513,-0.4163,0.1671,-1.5487,2047
21,-0.1289,-0.188,-0.0027,-0.5205,0.0625,-1.7876,2040
21,0.0063,-0.2576,-0.0352,-0.5895,-0.2376,-2.0977,2048
21,-0.76,-0.5032,0.0298,-0.4821,0.0409,-1.8789,2046
21,-0.2903,-0.3416,0.1672,-0.4923,0.2426,-2.2081,2072
21,-0.2007,-0.3013,0.2446,-0.5048,0.1799,-2.3486,2057
21,-0.1287,-0.2429,0.1609,-0.6699,-0.0314,-2.4145,2039
21,-0.2495,-0.2957,-0.043,-0.7408,-0.2184,-2.5067,2028
21,-0.3601,-0.2808,-0.0056,-0.7375,-0.1473,-2.651,2053
21,-0.2749,-0.2488,0.0823,-0.7586,-0.1136,-2.7605,2054
21,-0.2603,-0.2161,0.0894,-0.7443,-0.1708,-2.8478,2051
21,-0.2524,-0.2454,0.094,-0.7315,-0.2337,-2.9144,2041
21,-0.2678,-0.3027,0.0986,-0.7553,-0.316,-2.9576,2051
21,-0.3167,-0.2695,0.103,-0.7698,-0.3457,-2.9961,2054
21,-0.3547,-0.2415,0.1455,-0.7857,-0.3087,-3.0202,2039
22,-0.4006,-0.2207,0.1841,-0.7981,-0.2394,-3.0368,2043
22,-0.4431,-0.2034,0.2346,-0.858,-0.0763,-3.0722,2048
22,-0.4456,-0.1848,0.2981,-0.9068,0.1216,-3.1284,2045
22,-0.4209,-0.1995,0.3481,-0.9798,0.3557,-3.1558,2047
22,-0.6953,-2.0,-0.5728,-3.5094,2.4373,-2.636,2083
22,-2.0,-0.179,-2.0,-0.869,1.3599,1.0734,2149
22,-1.26,-2.0,1.9999,1.0084,-4.3635,-1.2571,2243
22,-2.0,-2.0,-0.0837,-0.1297,-2.3396,3.6029,1802
22,-2.0,-2.0,1.9999,1.6848,1.0869,-1.4225,2014
22,1.9999,-1.1167,0.8474,-0.0541,1.3466,0.1944,2187
22,1.7539,-1.1492,-1.1377,-0.3832,0.1977,0.3015,2043
22,-2.0,-0.5085,-1.2954,0.764,-0.231,0.7502,1946
