,Unnamed: 0,timestamp,node,accx,accy,accz,gyrox,gyroy,gyroz,q0,q1,q2,q3,timestamp.1,node.1,accx.1,accy.1,accz.1,gyrox.1,gyroy.1,gyroz.1,q0.1,q1.1,q2.1,q3.1,timestamp.2,node.2,accx.2,accy.2,accz.2,gyrox.2,gyroy.2,gyroz.2,q0.2,q1.2,q2.2,q3.2,timestamp.3,node.3,accx.3,accy.3,accz.3,gyrox.3,gyroy.3,gyroz.3,q0.3,q1.3,q2.3,q3.3,timestamp.4,node.4,accx.4,accy.4,accz.4,gyrox.4,gyroy.4,gyroz.4,q0.4,q1.4,q2.4,q3.4,timestamp.5,node.5,accx.5,accy.5,accz.5,gyrox.5,gyroy.5,gyroz.5,q0.5,q1.5,q2.5,q3.5,timestamp.6,node.6,accx.6,accy.6,accz.6,gyrox.6,gyroy.6,gyroz.6,q0.6,q1.6,q2.6,q3.6,timestamp.7,node.7,accx.7,accy.7,accz.7,gyrox.7,gyroy.7,gyroz.7,q0.7,q1.7,q2.7,q3.7,timestamp.8,node.8,accx.8,accy.8,accz.8,gyrox.8,gyroy.8,gyroz.8,q0.8,q1.8,q2.8,q3.8
0,0,0.079,0.0,-2.48e-18,1.86e-16,1.0,0.055987237,-0.0046978,0.032528096,0.9999947305448016,0.0027993470988881,-0.0002394416338161,0.0016264089748677,0.079,1.0,5.51e-17,-1.56e-17,1.0,-0.007711566,0.002642005,0.004546663,0.9999998910876958,-0.0003855782580057,0.0001321878903326,0.0002273331590383,0.079,2.0,-2.84e-17,5.9e-17,1.0,-0.000674369,-0.006816486,0.053036111,0.9999964253642236,-3.371832946881935e-05,-0.000340733667224,0.0026517960737759,0.079,3.0,-2.49e-17,-5.01e-17,1.0,-0.00169905,-0.012487466,0.036772281,0.9999981113225528,-8.495233955213169e-05,-0.0006242159261951,0.0018386105907202,0.08,4.0,-6.36e-17,2.78e-17,1.0,-0.002016245,-0.009921003,0.060866065,0.9999952412242512,-0.0001008117702571,-0.0004957409886205,0.0030432887985315,0.075,5.0,2.57e-17,5.65e-17,1.0,0.00575052,0.00030611,-0.000363999,0.999999958381574,0.0002875259880336,1.531073232161381e-05,-1.819995074715838e-05,0.074,6.0,-2.26e-17,-2.36e-17,1.0,0.002150952,0.000974154,0.02059264,0.999999462965317,0.0001075475422432,4.859693945126194e-05,0.0010296314589611,0.0,7.0,2.24e-17,-2.15e-17,1.0,-0.004067006,-0.007613146,0.020214418,0.9999993961746892,-0.0002033501772119,-0.0003804515398753,0.0010107203314957,0.0,8.0,-5.93e-18,6.91e-17,1.0,0.000644707,0.00189312,-0.000622046,0.9999999945167906,3.2235349823250275e-05,9.465700207450243e-05,-3.1102299861778537e-05
1,1,0.133,0.0,9.83e-05,0.002223212,0.979959717,0.04254803,-0.006437218,0.012762272,0.9999859584423236,0.0047605923417141,-0.000541762309788,0.002264105197069,0.133,1.0,6.51e-17,-5.2e-17,0.980405018,-0.009494129,-0.001596096,0.009131422,0.9999994277432932,-0.0008216480608566,3.94315526318318e-05,0.0006839975894483,0.134,2.0,-6.03e-17,7.09e-17,0.980147948,-0.000878975,0.009656171,-0.027869413,0.9999991900551524,-7.51006709442139e-05,0.000175927131647,0.0012582919266759,0.134,3.0,-1.99e-17,-4.01e-17,0.980323416,-0.002063691,0.00646665,0.003368086,0.9999979413978072,-0.0001803410432402,-0.0002386218224688,0.0020069222409577,0.134,4.0,-5.34e-17,3.31e-17,0.97975303,6.67e-05,0.00141816,-0.002802494,0.9999957115818388,-8.754193153008416e-05,-0.0003752612921369,0.0029031591938535,0.136,5.0,4.11e-17,9.04e-17,0.980071936,0.00034786,-0.00272319,0.006720271,0.99999990387531,0.0002761690390508,-0.0001224729417132,0.000317774150897,0.136,6.0,-1.04e-17,-9.17e-18,0.980225484,-0.003572892,0.004008217,0.01934288,0.999997973245115,-8.201083702145708e-05,0.0002440430503694,0.0019968031636479,0.075,7.0,0.000799902,0.000560223,0.980305588,0.005338083,-0.002419626,0.023276022,0.9999975021911328,0.0001121829798169,-0.0005040175782389,0.0021746247389609,0.075,8.0,-7.15e-20,1.05e-16,0.979781098,-0.00748117,0.000619622,-0.002342114,0.9999999227458256,-0.0003450567798106,0.0001161436188033,-0.0001481715935143
2,2,0.189,0.0,0.000196588,0.004446424,0.97974139,0.02755901,0.001724613,-0.000408475,0.9999800558401856,0.0058892112904096,-0.00040763605543,0.0022447594709571,0.189,1.0,0.000940678,-0.00030635,0.98025916,-0.000345881,-0.00547982,-0.00508037,0.9999995682388796,-0.0007721930373988,-0.0002867021908716,0.0004301648761784,0.189,2.0,-6.03e-17,7.09e-17,0.980147948,0.001864888,-0.009137246,0.009589849,0.9999984451486076,2.631288450154181e-05,-0.0002984224865131,0.0017378009147181,0.189,3.0,-1.99e-17,-4.01e-17,0.980323416,0.000482634,0.002182806,-0.012252086,0.9999990128195528,-0.0001382480647019,-0.0001056556384038,0.0013943042273898,0.189,4.0,-5.34e-17,3.31e-17,0.97975303,0.004032814,0.008731065,-0.023463851,0.9999984911439465,0.0001220256236757,9.95463898826159e-05,0.0017300029173478,0.219,5.0,-0.000297107,-0.000907506,0.980368853,-0.015386375,0.011660981,-0.01267301,0.9999996705368268,-0.0005671628931739,0.0004873575351328,-0.0003158086809498,0.219,6.0,-1.04e-17,-9.17e-18,0.980225484,-0.002199288,-0.001562452,0.016199696,0.9999960340556427,-0.0001834200393196,0.000141445411782,0.0028068172847366,0.136,7.0,0.00050659,0.000612345,0.979350993,-0.000382317,-0.003765005,0.009053626,0.9999963193728872,0.0001133490334587,-0.0006677537411653,0.0026272604774635,0.137,8.0,-7.15e-20,1.05e-16,0.979781098,-0.009311412,-0.004917892,-0.009926551,0.9999994811078756,-0.0007762154739011,-0.0001416815105705,-0.0006443600442545
3,3,0.272,0.0,0.000294882,0.006669636,0.979523062,0.022741788,0.000868176,-0.000905982,0.9999745543500436,0.0067777535172702,-0.0003348933118381,0.0022001263965646,0.272,1.0,0.000940678,-0.00030635,0.98025916,-0.003298916,0.00584151,-0.003629853,0.9999995857201428,-0.0008755983921118,-1.417423430562571e-05,0.0002483668445201,0.272,2.0,-6.03e-17,7.09e-17,0.980147948,-0.001993679,0.007533669,-0.026130046,0.999999898277956,-7.6267082970431e-05,0.0001078306216134,0.0004312771340414,0.273,3.0,-1.99e-17,-4.01e-17,0.980323416,-0.000135169,-0.001821845,-0.012005328,0.9999996588148528,-0.0001309912402389,-0.0001862703205884,0.0007940496462488,0.273,4.0,-0.000613212,0.000710603,0.980098015,0.001331852,-0.003094082,0.005705103,0.9999979461853165,0.0002129089816652,-3.371172141838898e-05,0.0020152316080198,0.276,5.0,-0.000901834,0.002643975,0.980514761,0.006258379,0.004027129,-0.030217802,0.9999980941516722,-6.336110143971956e-05,0.0006857278576143,-0.0018268704659584,0.276,6.0,0.002569696,-0.004728416,0.983231935,-0.026324751,0.023966859,0.031458377,0.9999882104611534,-0.0017245204827836,0.0011933001321328,0.0043796121516711,0.22,7.0,0.00050659,0.000612345,0.979350993,-0.003292242,-0.010282047,0.001547178,0.9999956912941692,-2.9967638687185085e-05,-0.0011412899521114,0.0027044319703697,0.22,8.0,-7.15e-20,1.05e-16,0.979781098,-0.005250445,-0.004612157,-0.008900674,0.999998880593005,-0.0009612014106697,-0.000358379557143,-0.0010892514299935
4,4,0.368,0.0,0.001442129,0.00796721,0.97951184,0.018943537,-0.002559845,-0.007945147,0.999970467237643,0.0074543878730611,-0.0004970638184542,0.0018026873072928,0.368,1.0,-0.000336129,-0.000900026,0.980127582,-0.003810019,-0.001108704,-0.015063624,0.999999346535567,-0.0010244326592272,-5.1875080728875205e-05,-0.000504752554953,0.369,2.0,-0.000659316,-0.000741662,0.980024497,0.001338995,-0.003349535,-0.012476152,0.9999999800078496,-3.953908854065885e-05,-3.680360312522428e-05,-0.0001925265070522,0.369,3.0,-1.99e-17,-4.01e-17,0.980323416,0.002171729,-0.005269564,-0.006631309,0.9999998000911086,-9.034699103484694e-06,-0.0004310381895654,0.0004625388589673,0.369,4.0,-0.000613212,0.000710603,0.980098015,0.00136434,-0.003275819,-0.012581652,0.9999989822366372,0.0002963747724037,-0.0001624511977315,0.0013861086871093,0.332,5.0,-0.000297107,-0.000907506,0.980368853,-0.000294412,0.006540301,-0.009695483,0.9999968609207992,-0.000117736613188,0.0009593762500045,-0.0023116842017681,0.332,6.0,-4.92e-08,-0.000995193,0.980323421,-0.008948256,0.002534747,0.015059973,0.9999840056744638,-0.0020498888486473,0.0012000701598825,0.0051328532585277,0.332,7.0,0.00050659,0.000612345,0.979350993,-0.000205562,-0.002202794,0.003233908,0.9999952163512532,-5.803023957335263e-06,-0.0011631060228211,0.002866081875066,0.332,8.0,-7.15e-20,1.05e-16,0.979781098,-0.007589138,-0.002202556,-0.007517102,0.9999980586430716,-0.0012445227619773,-0.0004327236504741,-0.001465135974909
5,5,0.394,0.0,0.001540423,0.010190422,0.979293512,0.017160576,-0.000975286,-0.007001773,0.9999660768425824,0.0080876263638578,-0.0005694488792651,0.0014529940903272,0.394,1.0,-0.000336129,-0.000900026,0.980127582,-0.002272966,-0.006322871,-0.015737968,0.9999985212454208,-0.0010816610345721,-0.0003464540871395,-0.0012913117143425,0.394,2.0,-0.001400364,-0.000128404,0.980297925,0.000318409,-0.000149843,-0.026248461,0.9999988667556964,-2.6153330898897755e-05,3.077378559870558e-05,-0.0015049439525367,0.395,3.0,-1.99e-17,-4.01e-17,0.980323416,-9.77e-05,-0.005736184,-0.021243976,0.99999959247737,-1.2425713887881629e-05,-0.0006747586728005,-0.0005996594277371,0.395,4.0,-0.001402845,0.00017091,0.979806105,0.002328396,-0.005246484,-0.003773355,0.9999991495828868,0.0003921736573726,-0.0003366948603369,0.0011973595518069,0.406,5.0,0.000450917,-0.001321987,0.979850524,-0.003682295,0.002845276,-0.005568972,0.9999960986117304,-0.0003575267433993,0.0009831746990404,-0.002590039277083,0.406,6.0,-0.001387069,-0.002162093,0.978675841,-0.006243451,-0.001415334,0.007000009,0.9999818143397096,-0.0022671058864988,0.0010787854560929,0.0054833787669368,0.406,7.0,0.00050659,0.000612345,0.979350993,-0.007329679,-0.001762153,-0.011556665,0.9999966503650748,-0.0003394440293548,-0.001161922874651,0.0022877874933579,0.406,8.0,-7.15e-20,1.05e-16,0.979781098,-0.007400725,0.002416561,-0.000315833,0.9999977570899758,-0.0014899222419596,-0.0002681049506365,-0.0014812381530762
6,6,0.499,0.0,0.001540423,0.010190422,0.979293512,-0.004095416,0.00866342,-0.007955119,0.9999705918619012,0.0075940839826714,-0.0001545110651314,0.0010589741044613,0.499,1.0,0.000604548,-0.001206376,0.979981724,-0.002698097,-0.000498279,-0.037892891,0.9999941727835856,-0.0011693637166072,-0.0003695285324693,-0.0031859748954071,0.5,2.0,-0.001400364,-0.000128404,0.980297925,-0.00215631,-0.001992687,-0.028822255,0.9999956508903438,-0.0001379890121932,-5.392288802208228e-07,-0.0029460412657105,0.5,3.0,-0.00091524,-0.000372304,0.980477447,0.006786101,-0.001676814,-0.005655316,0.9999993553173944,0.0003093043680026,-0.0006445550170299,-0.0008821816332528,0.5,4.0,-0.001402845,0.00017091,0.979806105,0.007344668,0.010209999,-0.045919074,0.9999990916213062,0.0007289859713688,0.0002811866624094,-0.0010983032718902,0.445,5.0,0.000450917,-0.001321987,0.979850524,-0.012909152,0.002664173,-0.008301459,0.9999944542921286,-0.0010348089421116,0.0009964727264001,-0.0030045960704819,0.445,6.0,-0.001387118,-0.003157285,0.978773777,-0.01102069,0.001058093,5.38e-05,0.9999805633852966,-0.0027533793227872,0.0010907705740514,0.0054865265409287,0.445,7.0,0.00050659,0.000612345,0.979350993,-0.003095252,-0.004857717,-0.009552916,0.999997405859342,-0.0004278292695545,-0.0013149661134304,0.0018100002274193,0.446,8.0,-7.15e-20,1.05e-16,0.979781098,-0.005391527,-0.00128695,-0.020082184,0.9999955679201694,-0.0016103311849268,-0.0003068592953705,-0.002485319067141
7,7,0.531,0.0,0.001836724,0.010706071,0.980097447,0.007957214,-0.001247459,0.000472578,0.9999691148170198,0.0077788371544593,-0.0002943083617213,0.0010828144710222,0.531,1.0,-0.000336129,-0.000900026,0.980127582,0.008326366,0.007463832,0.000928025,0.9999948374139144,-0.0006807979859077,5.6612622387502606e-05,-0.0031398176113385,0.531,2.0,-0.001400364,-0.000128404,0.980297925,0.007130912,-0.013481952,0.025946636,0.9999984332600764,0.0002240296935067,-0.0006044783558701,-0.0016486036536028,0.531,3.0,-0.00091524,-0.000372304,0.980477447,0.000186841,-0.008779115,0.01501663,0.9999994825203642,0.0002679000728369,-0.0009725744338298,-0.0001314820349851,0.532,4.0,-0.000613212,0.000710603,0.980098015,0.002764002,-0.011251071,0.046806923,0.9999988449840516,0.000830611393781,-0.0002803380713248,0.0012415819911867,0.51,5.0,0.00015381,-0.002229494,0.980147441,-0.017942393,6.8e-05,-0.003050718,0.9999927317164732,-0.001942337984712,0.000895119931724,-0.0031563582950361,0.51,6.0,-0.001387118,-0.003157285,0.978773777,-0.007504337,-0.003013352,-0.009239036,0.9999824256936398,-0.00301460190868,0.0008975508527067,0.0050254235307269,0.51,7.0,0.00050659,0.000612345,0.979350993,0.001561029,-0.001846745,-0.003871505,0.9999978085667822,-0.0002752639063873,-0.0013015255986859,0.0016165155523618,0.51,8.0,-7.15e-20,1.05e-16,0.979781098,-0.003934472,0.000936051,-0.008280766,0.9999944158178996,-0.0016457776713927,-0.0002295636621182,-0.0028994912310814
8,8,0.59,0.0,0.001737721,0.011559852,0.979586316,0.002363786,-0.001305716,-0.002638886,0.9999697433945716,0.0077093523689372,-0.0004170660561457,0.0009509139556951,0.59,1.0,0.000604548,-0.001206376,0.979981724,-0.007194908,-0.008042,-0.007972326,0.9999931320579124,-0.0010353935091376,-0.000381080447611,-0.0035381598297371,0.59,2.0,-0.001400364,-0.000128404,0.980297925,0.001101801,0.009066326,-0.025008039,0.9999957663722931,0.0002517881709824,-1.905599972995357e-05,-0.0028988751397334,0.59,3.0,-0.00091524,-0.000372304,0.980477447,0.004469627,0.007887316,-0.01783138,0.9999992831883742,0.0004465304554515,-0.0004339068507611,-0.0010227209468185,0.59,4.0,-0.000613212,0.000710603,0.980098015,0.004196636,0.014827703,-0.038766052,0.9999991279419246,0.0009932157076026,0.0005225946978409,-0.0006960838529376,0.584,5.0,0.000450917,-0.001321987,0.979850524,0.013696454,-0.003805342,-0.008506253,0.9999927700898358,-0.0011317981121465,0.000589902986946,-0.0035820127800027,0.584,6.0,-0.001387118,-0.003157285,0.978773777,-0.002064341,-0.004259744,0.011958275,0.9999795330799474,-0.0029763910084181,0.0006661219387116,0.00562412654002,0.585,7.0,0.00050659,0.000612345,0.979350993,-0.004599479,-0.005990444,0.002183173,0.999997291440624,-0.000446064271264,-0.0014970306738949,0.0017254092972508,0.585,8.0,-7.15e-20,1.05e-16,0.979781098,0.001614666,-0.006959181,-0.001288982,0.999994473268616,-0.0014014614648462,-0.0005548888737717,-0.0029633488359311
9,9,0.702,0.0,0.001737721,0.011559852,0.979586316,0.013796007,0.005342284,0.006251417,0.9999654110941096,0.0082179005226402,-0.0001982956537503,0.0012662563808041,0.702,1.0,0.000604548,-0.001206376,0.979981724,0.008816015,-0.000139128,-0.002680644,0.9999930323321312,-0.0005526895541523,-0.0003821892688483,-0.0036720229859071,0.702,2.0,-0.001400364,-0.000128404,0.980297925,0.016869605,-0.006300488,0.043893391,0.999999151987413,0.001062790931575,-0.0002655077787033,-0.0007042765865143,0.702,3.0,-0.001171683,-0.000128885,0.979542041,0.002645027,0.005462078,-0.006207406,0.9999989705789872,0.0005280249778273,-5.756963289261815e-05,-0.0013329352294579,0.702,4.0,-0.002016057,0.000881513,0.98015109,0.008292491,0.00048255,0.013745973,0.9999989057486756,0.0013539337523215,0.0005960560575894,-9.056600831968951e-06,0.644,5.0,0.000748024,-0.000414481,0.979553607,0.022720092,0.005624519,-0.021207399,0.9999889181799712,9.646324731171236e-05,0.0007700626624117,-0.0046434056024113,0.644,6.0,-0.001387118,-0.003157285,0.978773777,-0.007338985,-0.002285401,0.028453896,0.9999698721697042,-0.0032057814242642,0.0005576908759071,0.0070474604824915,0.646,7.0,0.00050659,0.000612345,0.979350993,-0.009702313,-0.015111453,0.01056645,0.9999948295346494,-0.0008547510035613,-0.0021290913864827,0.0022532808429847,0.646,8.0,-7.15e-20,1.05e-16,0.979781098,0.009618423,-0.014524947,-0.016019111,0.9999918603887245,-0.0007821054151281,-0.0012276928553356,-0.0037630091244465
10,10,0.725,0.0,0.001935018,0.012929283,0.97987912,0.008863636,0.003942909,0.00896687,0.9999624074634564,0.008498757725033,-8.246835400371534e-05,0.0017169670905306,0.725,1.0,0.000604548,-0.001206376,0.979981724,-0.00225321,0.010160994,0.001221404,0.9999932459953966,-0.0006699017774821,0.0001339119679814,-0.0036112688606138,0.725,2.0,-0.001400364,-0.000128404,0.980297925,-0.004185825,0.011422711,-0.029304107,0.9999972908497636,0.0007415125651463,0.0004048408316509,-0.0021689988818909,0.726,3.0,-0.001171683,-0.000128885,0.979542041,0.002083584,0.005192454,0.018132439,0.999999709263489,0.0005731961786679,0.0002669678475791,-0.0004262009460927,0.726,4.0,-0.001226424,0.001421206,0.980443,0.001845106,-0.00570494,0.027678636,0.999998049046234,0.0013840947961936,0.0003118307045025,0.0013743896582792,0.705,5.0,0.000450917,-0.001321987,0.979850524,0.012038963,0.005248624,-0.001302134,0.9999882864518354,0.0006223618820439,0.000930034149024,-0.0047089979073482,0.705,6.0,-0.001387118,-0.003157285,0.978773777,-0.00378689,-0.003561012,0.019057638,0.9999626811058404,-0.0032345372491364,0.0003953462892722,0.0080011165292757,0.706,7.0,0.00050659,0.000612345,0.979350993,-0.00295108,-0.006373185,0.012991525,0.9999928397416415,-0.0008861733984381,-0.002260390010232,0.002902722714401,0.706,8.0,-7.15e-20,1.05e-16,0.979781098,0.006229044,-0.004263961,0.018747777,0.999995061913884,-0.0003943968130348,-0.0013189220887665,-0.0028250740742545
11,11,0.805,0.0,0.001935018,0.012929283,0.97987912,0.007646929,-0.001787445,-0.000369302,0.9999607540149644,0.0086912346301737,-0.0002603662922764,0.0016985522721602,0.805,1.0,0.000604548,-0.001206376,0.979981724,0.008640096,-0.002584071,-0.005859569,0.9999923504106454,-0.0002330777319868,-4.093245608780996e-05,-0.003904243780573,0.805,2.0,-0.001400364,-0.000128404,0.980297925,0.011307868,-0.011197553,0.023845434,0.9999987632034388,0.0012256272855351,-0.0001267687008525,-0.0009774247009641,0.806,3.0,-1.99e-17,-4.01e-17,0.980323416,0.001738262,-0.005528758,-0.003034803,0.9999996506527544,0.0006026312956991,-3.61123429055932e-05,-0.000578122642468,0.806,4.0,-0.000613212,0.000710603,0.980098015,0.000801606,0.002643684,-0.007056114,0.9999985057449444,0.0013216824438653,0.0004446859788877,0.0010217229448358,0.766,5.0,0.000450917,-0.001321987,0.979850524,0.020203975,-0.008211794,0.016867369,0.9999913171192012,0.0015015997500937,0.0003977288945624,-0.0038668716195625,0.766,6.0,-0.001387118,-0.003157285,0.978773777,0.000889903,-0.003924048,0.004678365,0.999961477804636,-0.0030267773567472,0.0002302473823626,0.008235806684462,0.766,7.0,0.000799902,0.000560223,0.980305588,-0.010567087,-0.00175306,0.006442184,0.9999916210376064,-0.0012976880045589,-0.0021638354279844,0.0032236123624765,0.766,8.0,-7.15e-20,1.05e-16,0.979781098,0.004992907,-0.004649052,0.023933988,0.9999976608145956,-0.0001075470855521,-0.0014200574008145,-0.0016279545263224
12,12,0.889,0.0,0.001935018,0.012929283,0.97987912,0.006612399,-0.002513326,-0.003430195,0.99995989692549,0.008812840477824,-0.0004555236637208,0.001526722524822,0.89,1.0,0.000604548,-0.001206376,0.979981724,0.002651701,-0.00222957,0.000245669,0.9999924005982184,-0.0001392925134724,-0.0001794370854833,-0.0038919334193288,0.89,2.0,-0.001400364,-0.000128404,0.980297925,-0.002508064,-4.65e-06,-0.030404566,0.9999964079821596,0.0009713740888354,-4.12935063775804e-05,-0.0024977489873208,0.89,3.0,-1.99e-17,-4.01e-17,0.980323416,0.003670341,-0.007425889,-0.002938663,0.9999993921617868,0.0007256757426912,-0.0004037948015963,-0.000725272729059,0.89,4.0,-0.000613212,0.000710603,0.980098015,0.007691739,-0.004869552,-0.004628782,0.9999983735055724,0.0016104660016936,0.0001888260420041,0.0007897659102737,0.795,5.0,0.000748024,-0.000414481,0.979553607,0.013025332,0.005922658,-0.008835704,0.9999885651119572,0.0019823649225293,0.0006143434324951,-0.0043084169702688,0.795,6.0,-0.001387118,-0.003157285,0.978773777,-0.008664949,-0.010195639,-0.003810709,0.9999620985389928,-0.0033150412144974,-0.0002372110541135,0.0080470937707859,0.795,7.0,0.001847041,-0.001093178,0.979893562,-0.043645335,-0.012428964,0.002493249,0.9999850501105316,-0.0034038936611409,-0.0026699234632582,0.0033443343256648,0.795,8.0,-0.00059213,0.001281813,0.979701488,0.019989604,-0.004086649,0.004754769,0.99999751027364,0.0009674826236618,-0.0014541269455114,-0.0013888623835612
13,13,0.92,0.0,0.001737012,0.014636846,0.978856857,0.014883895,-0.002230084,0.003977381,0.9999539232232286,0.0094235177763842,-0.0006097826940067,0.0017253719185815,0.92,1.0,0.000604548,-0.001206376,0.979981724,-0.001590922,0.004378771,-0.012277591,0.9999898129947944,-0.0002656166249476,2.6984489940376885e-05,-0.0045058435705062,0.92,2.0,-0.001400364,-0.000128404,0.980297925,-0.002522298,0.007865401,-0.016817092,0.99999406024313,0.0007427687167971,0.0004284843822377,-0.0033382891167838,0.921,3.0,-1.99e-17,-4.01e-17,0.980323416,-0.002900873,0.004640519,-0.00602029,0.9999993356703032,0.0005083544220938,-0.0001311312946286,-0.0010261770398844,0.921,4.0,-0.001226424,0.001421206,0.980443,-0.003258027,0.009474552,-0.034413386,0.9999983939806376,0.0013582450269231,0.0007084798002282,-0.0009301951222373,0.887,5.0,0.000297107,0.000907506,0.979775019,0.029089857,0.001375104,-0.032524138,0.9999768099876762,0.0032841289111835,0.0006053750822757,-0.0059352763352329,0.887,6.0,-0.001387168,-0.004152478,0.978871714,-0.026589727,0.002167764,0.022014579,0.9999479149642556,-0.004526752451283,-4.167838517516966e-05,0.0091473566561634,0.887,7.0,0.001847041,-0.001093178,0.979893562,-0.001784478,-0.008956359,5.93e-05,0.9999849145750862,-0.0032067054265158,-0.0029454662173356,0.0033484162417131,0.887,8.0,-0.00059213,0.001281813,0.979701488,0.004766241,-0.008673337,0.00028644,0.9999968995442848,0.0011738831565862,-0.0017125991098613,-0.0013747379536541
14,14,0.995,0.0,0.002033312,0.015152495,0.979660792,-0.006664171,0.001164833,0.028846298,0.999955008384847,0.0089204448940354,-0.0006064338775066,0.0031684549713065,0.995,1.0,-0.001276807,-0.000593675,0.98027344,-0.021629914,0.01831335,0.052981438,0.9999968558208898,-0.0013463360872704,0.0010136513403644,-0.0018569433040572,0.996,2.0,-0.003460044,-0.000998471,0.980324452,-0.031326089,0.004915793,0.031737049,0.9999976874745948,-0.000946646309768,0.0008147972418826,-0.0017507174763544,0.996,3.0,-0.000604479,-0.001267925,0.980159185,-0.037188141,0.007898092,0.010011502,0.9999987388006892,-0.0014661948489474,0.0003104302341233,-0.0005256450945138,0.996,4.0,-0.002805689,0.00034182,0.979859179,-0.03614852,0.023728022,-0.005875404,0.9999971559175284,-0.0005665324698878,0.0019686928787729,-0.0012212477898046,0.983,5.0,0.001023345,0.009479101,0.979756653,0.130848846,-0.01781796,-0.129262775,0.9998732788749272,0.0099713820575566,-0.0003754416801565,-0.0124039016163853,0.983,6.0,0.00057043,-0.01115888,0.979151242,-0.11015568,-0.068091344,-0.036159177,0.9999154709273887,-0.0101195749055972,-0.0035448033257665,0.0073538815036564,0.983,7.0,0.001570708,-0.002480102,0.979902741,-0.056951697,-0.019531444,-0.045182511,0.999975342112292,-0.005849887766663,-0.0037307722370791,0.0010841213202723,0.983,8.0,0.000307825,0.000903898,0.979484093,0.008201409,-0.037473542,-0.061472651,0.999983080009286,0.0015153602060268,-0.0034266596154977,-0.004449874432788
15,15,1.113,0.0,-0.000162888,0.014780558,0.979464909,-0.076937007,0.046073305,0.074788731,0.9999623751711392,0.0049263974634992,0.0017378853056759,0.0069252151438978,1.113,1.0,-0.00159151,0.001822732,0.980024563,-0.057271447,0.008043671,0.12947877,0.999980412897394,-0.0039747369974989,0.001426512938262,0.0046195614721118,1.113,2.0,-0.007706488,-0.002466845,0.979423568,-0.054636973,0.012915017,0.161900439,0.9999713800411828,-0.0037012329239743,0.0018073849218877,0.0063461274111998,1.114,3.0,-0.002417914,-0.0050717,0.97966649,-0.092648397,0.058027106,0.006728161,0.9999752315621336,-0.0062090055474141,0.0033087274081392,-0.0001919252660792,1.114,4.0,-0.009976122,-0.005869661,0.979908171,-0.099192898,0.129780476,-0.08342746,0.9999305577152412,-0.0057682854889449,0.008751651185504,-0.0053865788152082,1.005,5.0,0.002211012,0.011362216,0.979964801,-0.020031511,-0.0225026,0.270922177,0.999961548381484,0.0085309635674646,-0.0016860746060586,0.0011320651654698,1.005,6.0,0.006852009,-0.016063271,0.980371369,-0.020617645,-0.125815062,0.503608055,0.9993630620647564,-0.0109940882131583,-0.009562047456981,0.0325755652805198,1.005,7.0,0.002559655,-0.011334597,0.979115404,-0.212254979,-0.066194196,-0.115379928,0.9998301329735044,-0.0164289265110737,-0.0069041833829422,-0.0047040220761609,1.005,8.0,0.004548658,0.002882591,0.97980049,0.031967904,-0.071057722,-0.094976387,0.9999293195681008,0.0031086061318041,-0.0068616930623385,-0.0091983479120245
16,16,1.116,0.0,-0.004653582,0.011813474,0.979291471,-0.140137417,0.108447246,0.157071755,0.9998623690644918,-0.0019949383659101,0.0071944837775655,0.0148156185437115,1.117,1.0,-0.006652456,-0.000861975,0.980447858,-0.140186402,0.06124528,0.155482868,0.999855461199247,-0.0106339749137735,0.0047349273034238,0.0123917614165995,1.117,2.0,-0.010794251,-0.007801832,0.979363373,-0.141771896,0.101218878,0.174513881,0.9998012572638446,-0.01083612728132,0.0072844713200299,0.0150652181121323,1.117,3.0,-0.010016506,-0.013272846,0.979615486,-0.160098186,0.138921599,0.127808532,0.9998239974067218,-0.0142459181490211,0.0105263282153642,0.0061825916925786,1.117,4.0,-0.018923487,-0.014862238,0.979628509,-0.140871013,0.093792088,0.144280343,0.9998216993838712,-0.0128981441766517,0.0136653657435335,0.0018614771128986,1.079,5.0,0.001187668,0.001883114,0.980280084,-0.088264714,-0.038060887,0.052224432,0.999981335225753,0.0033584595865851,-0.0034946817357473,0.0037198318364304,1.079,6.0,0.016071141,-0.008090239,0.979709277,0.15690603,-0.14631685,0.083296442,0.9991811975231384,-0.0022426574642143,-0.0164831635416882,0.0368810293156661,1.079,7.0,0.006782169,-0.020826292,0.979394848,-0.004662983,-0.040014436,-0.025800421,0.999816099794826,-0.01608430107154,-0.0085749770379683,-0.0059608404525463,1.079,8.0,0.010613843,0.006491537,0.980235281,0.091597367,-0.115966032,-0.07112345,0.9998108562893746,0.0076738168591217,-0.0125317381441594,-0.0127404756507084
17,17,1.175,0.0,0.090374899,0.031915024,0.988592843,-0.391667351,-0.515816387,-0.503694216,0.9994550842375473,-0.0194935656175112,-0.0246084777092554,-0.0101959950993799,1.177,1.0,0.051795116,0.063267841,0.982738748,0.720885689,-0.671768154,0.747243122,0.997770541095791,0.0302349946290943,-0.0325231492639441,0.049820048004252,1.177,2.0,0.034820172,0.031520065,0.98553693,0.741475718,-1.542824972,2.000642265,0.9901872263085364,0.0305254480147165,-0.0741092440826208,0.1144782678957482,1.177,3.0,0.070853023,0.006926681,0.976599135,0.307827818,-0.064952077,0.514064188,0.9994886368748652,0.0032298193186445,0.0026266692211757,0.0317038425746011,1.177,4.0,0.048937936,-0.004419708,0.968593075,0.422969452,0.231730581,-0.829396778,0.9989229319562044,0.0087176974902336,0.021743071764473,-0.0400526727289713,1.157,5.0,0.008500544,-0.001653352,0.980156624,0.0652694,-0.183372775,0.055629711,0.9998782864771444,0.0062272323828533,-0.0127516760380017,0.0064829442849235,1.157,6.0,0.026473243,-4.14e-05,0.979818435,0.145165034,-0.145242021,-0.117857407,0.999231901599776,0.0056470469744835,-0.0231389422515078,0.0311176322564092,1.157,7.0,0.003883126,-0.011601075,0.9786942,0.274193501,0.017490475,0.097163028,0.9999732424294028,-0.0013948936298958,-0.0071117785295984,-0.0009956420713857,1.158,8.0,0.018218154,0.014619972,0.979185046,0.13875887,-0.121977525,0.02939043,0.9996623099424096,0.0144800586575988,-0.0184240747572725,-0.0112315382391228
18,18,1.235,0.0,-0.012585307,0.001876674,0.97988116,-0.270525927,0.153055698,0.25923029,0.9994218468759342,-0.0312001506092763,-0.0133144699932761,0.0022907374038586,1.236,1.0,-0.014649429,-0.005324052,0.979380952,-0.215127819,0.077594776,0.311508701,0.9974347786663909,0.0154767211444077,-0.0254480849844167,0.0650901557838982,1.236,2.0,-0.023521097,-0.01674549,0.979559261,-0.205842336,0.108713968,0.367047347,0.9892146316915712,0.0143475451917134,-0.0617217257583256,0.132056764172439,1.236,3.0,-0.020948253,-0.026917996,0.979061588,-0.206920971,0.1809622,0.121171881,0.9991700340691602,-0.0091082686311173,0.0121562635673586,0.0377956044647704,1.236,4.0,-0.030613838,-0.028425901,0.978091387,-0.193879563,0.198345803,0.030991679,0.9987685660653804,-0.0027926639695674,0.031485140652494,-0.038239225747258,1.216,5.0,0.029505802,0.006480705,0.978885289,0.172943863,-0.371023601,0.24759881,0.9992157041620926,0.014546457858874,-0.0316377907006922,0.0188527801449168,1.215,6.0,0.036875641,0.013978662,0.979339974,0.21362283,-0.164362908,-0.479639157,0.9993685433190804,0.0173363706334388,-0.0301397430198473,0.0073185222727346,1.216,7.0,0.001570708,-0.002480102,0.979902741,-0.008101963,0.01773157,0.17257959,0.9999536328677632,-0.0018475427064451,-0.0055775033382427,0.0076295581144981,1.216,8.0,0.027695698,0.029150826,0.979359575,0.220150392,-0.124962837,0.336192918,0.99936066074467,0.0251207734107785,-0.0247973757543437,0.0056838943444192
19,19,1.264,0.0,-0.025994212,-0.017874363,0.978833391,-0.322078411,0.213922501,0.564837486,0.9985143940151876,-0.0454637137830143,0.0012736010366477,0.0300072260287169,1.264,1.0,-0.028397605,-0.024530189,0.979046396,-0.36169285,0.231458844,0.508933731,0.9958502370322756,-0.006824916050477,-0.0110132937429941,0.0900801492260906,1.264,2.0,-0.037030831,-0.034218827,0.978477792,-0.369332145,0.244359599,0.425274851,0.9873376054240384,-0.0102133784852879,-0.0440892638539721,0.1520403782824046,1.265,3.0,-0.037590608,-0.040146586,0.978043556,-0.203459088,0.232667712,0.188534142,0.998375522176784,-0.0207971252095125,0.0242045897626376,0.0472009971894257,1.265,4.0,-0.051729803,-0.043656922,0.97772803,-0.197565034,0.259777657,0.002121288,0.9981964196205958,-0.0139964401037075,0.0444015008470817,-0.0379013752200801,1.279,5.0,-0.023064959,0.030212718,0.992080238,2.709023117,0.133755104,3.176589306,0.972721503223546,0.1409904637616907,-0.0400852928438566,0.1797991534807962,1.278,6.0,-0.158685111,-0.153825525,0.969056625,-2.612994727,1.764690091,5.201212676,0.9534738477903824,-0.1251866563582251,0.0974851879752729,0.2563446133139456,1.28,7.0,0.0719695,-0.026607028,0.978953246,0.411219676,0.459162417,-0.422156562,0.9996474215366604,0.0175077640234414,0.0147847203313907,-0.013413532671464,1.28,8.0,0.113523944,-0.041315062,0.964969626,-0.189289936,-0.818362721,0.642225865,0.9968666994938598,0.0105114059726028,-0.0693084747746887,0.0366419037319898
20,20,1.325,0.0,-0.035207306,-0.041327951,0.978614043,-0.47833351,0.100887918,0.666488365,0.9957141936918202,-0.0669764669803121,0.0094121226286051,0.0630778035374377,1.325,1.0,-0.03771081,-0.043161678,0.978683281,-0.309205508,0.031444405,0.968386813,0.9901403155503008,-0.0244737801502915,-0.0068474093123794,0.1377545011707959,1.325,2.0,-0.048767921,-0.055900277,0.977009646,-0.310869052,-0.042399911,1.191134552,0.9765346049800092,-0.029838703873784,-0.0403232387247336,0.2094369915903539,1.325,3.0,-0.050882766,-0.050990339,0.976727664,-0.198588354,0.202050918,0.433547199,0.9965417130713548,-0.0312807628516602,0.0345264566437526,0.0688044459018088,1.325,4.0,-0.059470955,-0.048254972,0.976337884,-0.054682802,0.072905371,0.128524598,0.998252446018324,-0.0172489453982934,0.0469450635353416,-0.0314752110516039,1.342,5.0,0.051895349,-0.00545068,0.978293495,-0.323149663,-0.320984088,0.278569541,0.9732119641359532,0.1138998392844819,-0.0588485250400625,0.190845881732404,1.342,6.0,0.047073793,0.02292686,0.97837693,0.086631084,-0.161776288,-0.920329034,0.9681626227039674,-0.1092779611421062,0.0739919878452093,0.2127078958156331,1.343,7.0,0.002777796,-0.017148768,0.978730915,-0.211364606,-0.059340729,0.357530908,0.9999266296105932,0.0045329913494686,0.010266974702846,0.0045581372814445,1.343,8.0,0.032007091,0.040398346,0.977655113,0.15982889,-0.061263131,0.111424446,0.9966692716383104,0.0192708611491595,-0.0668191421937148,0.0425934163812407
21,21,1.401,0.0,-0.038326106,-0.062473816,0.977156145,-0.316234551,-0.023023556,0.577673297,0.9925670131035096,-0.0789213951617433,0.0103550318537531,0.092059280899914,1.401,1.0,-0.033743961,-0.056442778,0.977313439,-0.206824178,-0.153631523,0.835157313,0.9831928663194676,-0.0344914203724785,-0.0123976830543081,0.1788530877398648,1.402,2.0,-0.050742356,-0.06618504,0.976439324,-0.187580982,0.01660228,0.902075085,0.9660719430962984,-0.041736077819989,-0.0337872027205511,0.2526292253534159,1.402,3.0,-0.056066629,-0.062645084,0.976184986,-0.246493927,-0.075257122,0.59132917,0.9937498904435424,-0.042492594477816,0.0303644310118228,0.0986586842975305,1.402,4.0,-0.052260101,-0.053674958,0.97712992,-0.167595752,-0.200215945,0.424124296,0.9989762490913924,-0.0258628974225618,0.0358002358622102,-0.0097932323781766,1.409,5.0,0.074704275,-0.002604572,0.976136511,0.063926076,-0.112311757,0.106301983,0.9727097331305412,0.1071315641505553,-0.0621982103597245,0.1961886481522673,1.409,6.0,0.056088334,0.018861713,0.977915812,-0.046592967,-0.228273344,-0.314782121,0.9737730670396428,-0.0980053265713111,0.0509740241822178,0.1989035412719665,1.409,7.0,0.017932331,-0.033141545,0.979486636,-0.267337476,-0.35471765,0.24670654,0.999755083273523,-0.0107635816370587,-0.009344556291027,0.0169292069163721,1.409,8.0,0.044492326,0.054699353,0.97688045,0.128811815,-0.227791013,0.046110679,0.9959211403724344,0.0269737522639464,-0.0734333968899148,0.0449559236283898
22,22,1.46,0.0,-0.032759111,-0.081278155,0.975970646,-0.271057891,-0.187657917,0.639483054,0.9883406404853128,-0.0874949430419932,0.0028724924122729,0.1245759290332678,1.46,1.0,-0.029956393,-0.061294618,0.977651054,-0.039548684,-0.105282371,0.833598559,0.9748321427478978,-0.0358751704920965,-0.014214003710824,0.2195751072098425,1.46,2.0,-0.052511487,-0.070036703,0.976626031,-0.020282584,-0.059268208,0.711805041,0.9565209190823424,-0.0431204831630505,-0.0303225449365515,0.2868604165064029,1.461,3.0,-0.048565999,-0.073249298,0.975645368,-0.118196067,-0.244469597,0.661390279,0.9900240083519604,-0.0458282974578145,0.0182443648319153,0.1319824730436421,1.461,4.0,-0.046150263,-0.06749955,0.975884708,-0.182587488,-0.138554326,0.447535417,0.9988917701097793,-0.0350788574587552,0.0285560762885611,0.0130098375601799,1.443,5.0,0.03207852,-0.009954711,0.978377163,-0.269494156,1.127954706,-0.785802638,0.9840021610914164,0.0741382615205203,-0.0017233587741053,0.1619885649688663,1.443,6.0,0.054904576,0.002862791,0.978711547,-0.228979368,0.370707134,-0.130592175,0.974375938206064,-0.1028446257622823,0.0583702454483824,0.1913306782593018,1.444,7.0,0.043967949,-0.051318269,0.977827313,-0.30654298,-0.430484294,0.700183844,0.9977753482665584,-0.0275103385435373,-0.0314587761181694,0.0519411308108975,1.444,8.0,0.057449328,0.054381082,0.975873082,0.056068019,-0.214632573,0.590766338,0.993613983956841,0.0282706978972204,-0.0802633724246233,0.0740932491718708
23,23,1.566,0.0,-0.040530784,-0.09368754,0.974355633,-0.113932225,-0.389543703,0.668946161,0.9833367091213586,-0.0868039971454212,-0.012929083376047,0.1592068509110386,1.566,1.0,-0.021354872,-0.058038917,0.978294666,0.081712135,-0.284260551,0.870346951,0.9643546626096668,-0.0289529654882662,-0.0239383359376383,0.2619327519898339,1.566,2.0,-0.048105092,-0.063218392,0.976933127,0.123000409,-0.22799765,0.960255935,0.9418187602719053,-0.0349896152283442,-0.0332066018157626,0.3326416558729729,1.567,3.0,-0.030518931,-0.074126672,0.976883735,-0.002846103,-0.375057455,0.76147183,0.9845201334043622,-0.0421388183136185,0.0005773111196652,0.1701296377015474,1.567,4.0,-0.034554455,-0.072181971,0.977154416,-0.069671613,-0.307686075,0.89543994,0.9975149718105396,-0.0372350064443907,0.0136625683226872,0.0582303145769674,1.559,5.0,-0.022699232,-0.046029577,0.978333288,-0.585076224,0.431707539,0.763424351,0.9791019347256849,0.0320274504987448,0.0143763681251543,0.2003171582029395,1.559,6.0,0.011746568,-0.022134562,0.979943916,-0.307302462,0.733934982,0.352562656,0.9680979996355064,-0.1145401336480144,0.0864337801228403,0.2054167046257495,1.559,7.0,0.062212961,-0.067954113,0.974455636,-0.10175667,-0.231379328,0.574998062,0.9952718175080528,-0.0334163967096562,-0.0424730340608785,0.0807056075054497,1.56,8.0,0.077703737,0.060583823,0.97533929,0.046371274,-0.257883475,0.339198405,0.9914190234947692,0.030706037170265,-0.0891080320015199,0.0905826570972219
24,24,1.598,0.0,-0.02115958,-0.093078974,0.975532971,0.0973949,-0.500176978,0.615995012,0.9781113660432678,-0.0746100989280988,-0.0327224545880614,0.1914699185789884,1.599,1.0,-0.002295329,-0.048513777,0.978369125,0.135565912,-0.397072703,0.766565726,0.9533203790898648,-0.017724924854958,-0.0385563857540893,0.2989640228663386,1.599,2.0,-0.033354946,-0.050966588,0.978458407,0.170535856,-0.305448303,0.880447132,0.9262835217429316,-0.0229977656523519,-0.0394895819803478,0.3740461375786801,1.599,3.0,-0.007821116,-0.068328594,0.976446124,0.108067351,-0.48481793,0.808482254,0.9768779073491384,-0.0319733756981851,-0.0211480804161776,0.210333107413793,1.599,4.0,-0.020526009,-0.073891069,0.97662367,-0.01482884,-0.333811254,0.682983391,0.9950131309760242,-0.0366134765697017,-0.0022847724945432,0.0927529101075391,1.575,5.0,-0.011691329,-0.037160118,0.97940974,0.387434259,-0.34337807,2.321343511,0.9498824536084672,0.0502986518835646,-0.0052161629538696,0.3084901320779847,1.575,6.0,-0.04695372,-0.061647039,0.976621212,-0.823097993,0.780684742,2.030273314,0.9354210896083972,-0.1440925562043364,0.1220873214376838,0.2988635245501048,1.575,7.0,0.07026292,-0.066669023,0.975195039,0.092462898,-0.144097775,0.120227942,0.9946057594753652,-0.0282531405578963,-0.0486997326658413,0.0871176176517877,1.575,8.0,0.098072286,0.04719475,0.972536623,0.005549369,-0.507921827,0.083024267,0.9889320063062824,0.0326920586795186,-0.1102049391821262,0.0938061169763967
25,25,1.703,0.0,-0.008046267,-0.07692058,0.976506263,0.157472782,-0.541309927,0.648675351,0.9711023303986308,-0.0592957806229102,-0.0526571077763272,0.2251033169353587,1.703,1.0,0.025322882,-0.042365802,0.979030076,0.102837471,-0.477960595,0.620082366,0.9427165293643528,-0.0068314012790618,-0.0573602262953455,0.3285554468566002,1.704,2.0,-0.015640607,-0.041167814,0.978889975,0.112233079,-0.313317621,0.576037319,0.9147918005020058,-0.0131011765680864,-0.047479085738772,0.4009115330396974,1.704,3.0,0.01268114,-0.061727303,0.977888505,0.112267204,-0.42048816,0.840490824,0.9668269937508612,-0.0227353902201234,-0.0385090334050974,0.2514870186161023,1.704,4.0,0.002272346,-0.074125034,0.977048267,0.008332474,-0.457986906,0.876218308,0.989726712381902,-0.0342321168992862,-0.0236446040312483,0.1367849760409036,1.649,5.0,-0.016034656,-0.02804241,0.979355662,-0.179468834,0.252008786,1.898557136,0.9181409814464524,0.031090426141565,0.0014322890809662,0.3950297104508337,1.649,6.0,-0.10055412,-0.080264738,0.97120103,0.073502196,0.377302179,2.643586224,0.8909360831790011,-0.1210297657744603,0.147326081981246,0.4121646722540575,1.65,7.0,0.088146821,-0.065914477,0.973931424,0.099502363,-0.436918828,1.132714971,0.9869595865674688,-0.024280518029336,-0.0682765448496547,0.1437342838371946,1.65,8.0,0.138079593,0.038200621,0.969794173,0.062739966,-0.667718395,0.728425559,0.9811994250228934,0.0341992386183802,-0.1396730757510766,0.1287226954460655
26,26,1.759,0.0,0.003821506,-0.064282972,0.977709106,0.230588523,-0.510505091,0.705090884,0.9619900421432652,-0.0415319855688175,-0.0688262534081517,0.2609850567249155,1.759,1.0,0.044000012,-0.033430683,0.977877492,0.145531124,-0.567540104,0.717414059,0.9287858534445342,0.006992780208028,-0.0785280895758083,0.3621343377999998,1.761,2.0,0.007965735,-0.033837021,0.978881813,0.114456058,-0.527653035,0.791500415,0.8972479817176063,0.0006024513926033,-0.0652344797477328,0.436680843417758,1.761,3.0,0.035709945,-0.051358714,0.977480477,0.221991856,-0.542658093,0.835712514,0.9545144585947508,-0.0067186982174628,-0.0598888232192364,0.292010849595092,1.761,4.0,0.023471225,-0.069622652,0.976468529,0.170283706,-0.347614697,0.75005905,0.9836545143271884,-0.0242757262652613,-0.0379630155374187,0.1743367288018864,1.734,5.0,-0.028934678,-0.056352655,0.977589465,-0.418348447,-0.098820527,0.969320155,0.8989358978009185,0.0080695762864076,-0.0116269723474288,0.4378515126129477,1.734,6.0,-0.106954837,-0.017731507,0.973572933,0.840723683,-0.191243399,2.300264919,0.8490634609873741,-0.0554665551798399,0.1528833325465975,0.5026344467921693,1.734,7.0,0.124610259,-0.073207758,0.969662265,-0.108653446,-0.559132699,0.776428819,0.9782855108560812,-0.0285568348449041,-0.0952437870882501,0.1818532030341666,1.735,8.0,0.181991784,0.030709311,0.962204723,-0.099580951,-0.7016217,0.416463402,0.9739166118347272,0.0302887562497548,-0.1701666443171659,0.1470113519393756
27,27,1.834,0.0,0.025226021,-0.048521912,0.97836919,0.301994876,-0.427469746,0.793764927,0.950247330603284,-0.0222448700674606,-0.0793292246055198,0.3004031467220373,1.834,1.0,0.042494211,-0.018342221,0.977611275,0.145482801,-0.473334964,0.698729483,0.9140789856568342,0.0186629880267154,-0.0927456401489465,0.3943469881866093,1.834,2.0,0.03004463,-0.026362873,0.97806969,0.065859525,-0.586546649,0.672518267,0.8804340770092135,0.0134872261387534,-0.0855695116662556,0.4661885771286282,1.834,3.0,0.059636946,-0.037558655,0.977719173,0.281405894,-0.377276365,0.808911142,0.9409661027068524,0.0093347336617245,-0.0713789740843982,0.3307577638738065,1.835,4.0,0.02917611,-0.058327356,0.977836221,0.195081586,-0.091276066,0.478107042,0.9792838549530888,-0.0150715244685972,-0.0385608250296277,0.1982146395992099,1.85,5.0,-0.005753533,-0.086670673,0.975479416,-0.38419247,-0.75539171,1.348002448,0.8676324499751729,0.0023517912681512,-0.0534961331460546,0.4943142366615893,1.85,6.0,-0.081213765,0.018669319,0.975891788,-0.044296726,-0.599789529,1.623435036,0.8130474813951206,-0.0254919136696272,0.1185921345704088,0.5694206362194341,1.85,7.0,0.149894439,-0.071786334,0.965113661,0.276620958,-0.408572399,0.537187609,0.9713761608948708,-0.0133127177447027,-0.1108633146754903,0.2096674773315008,1.851,8.0,0.239733729,0.022246312,0.949156911,-0.013867916,-0.838743121,0.136173757,0.966068571616833,0.0345301815106802,-0.2059924399072004,0.1519417526558446
28,28,1.873,0.0,0.045581584,-0.031835214,0.978822169,0.208162455,-0.298064223,1.000436874,0.9336268759054018,-0.0106687451213406,-0.0843665495456481,0.3480076432816054,1.873,1.0,0.053985476,-0.012999144,0.978795479,0.081887771,-0.080642422,0.936810828,0.895075680935871,0.0181623590379782,-0.0892000245233907,0.4365237791190632,1.873,2.0,0.068735072,-0.028319507,0.977599353,-0.014902621,-0.509241807,0.727072408,0.8612883383150313,0.0205884606071288,-0.1038819742928201,0.4969577939718688,1.873,3.0,0.072436446,-0.020761931,0.977512099,0.373624066,-0.118358556,1.403672848,0.915537630451344,0.022659050063381,-0.0688707183802115,0.3956440809964897,1.874,4.0,0.041740043,-0.048685491,0.977409582,0.183381578,-0.400029422,1.386713645,0.9626614990271064,-0.0054227993266573,-0.054286171885552,0.2651536216617821,1.929,5.0,0.053454693,-0.095657819,0.973577515,0.319217885,-1.201954507,1.495223521,0.8256450003291724,0.0381616478958999,-0.0975301854730141,0.5543842394791806,1.929,6.0,-0.041403426,-0.01219577,0.978804383,-0.65634394,-0.732147604,0.668438205,0.7980440284739871,-0.0259865177102381,0.0612629820848896,0.5989134132246262,1.93,7.0,0.172475995,-0.047454093,0.963694008,0.602674555,-0.332027994,0.185214224,0.967637503119848,0.0191150827677582,-0.1187906681152215,0.2218131045170851,1.93,8.0,0.291386048,0.007788285,0.935121122,-0.24882418,-0.718722609,0.650470825,0.9546061374614332,0.0206675065368453,-0.2370090749153175,0.1792391556058506
29,29,1.98,0.0,0.063606116,-0.024662672,0.977529547,0.136690793,-0.306604911,1.26020972,0.9095132707004676,-0.0034624741042166,-0.0907565028482627,0.4056314569699555,1.98,1.0,0.047937569,-0.015067494,0.978415024,0.012942465,0.177020297,1.281599533,0.8673568383315396,0.0076675891320609,-0.0754504864227835,0.491874523811696,1.981,2.0,0.087315597,-0.039046545,0.975212979,-0.084427153,-0.251176512,1.279877914,0.8280422594192778,0.0150747228901864,-0.1119343968757569,0.5491716126509655,1.981,3.0,0.057999205,-0.009217841,0.978059877,0.216265617,0.220935586,1.63549005,0.8820204542134417,0.0206442688392654,-0.0525645644643532,0.4678148128008336,1.981,4.0,0.065132435,-0.037547178,0.975756104,0.257459584,-0.35144072,1.481543472,0.9398951529944448,0.0069031618041605,-0.0661089175869748,0.3349314239514307,1.955,5.0,0.08828381,-0.128022784,0.966762709,-2.739773002,0.478662616,-1.752308746,0.8745740189468861,-0.0934924789053627,-0.1565622193461824,0.4492969098988107,1.955,6.0,0.028345486,-0.074724402,0.976511033,-0.183946241,-0.534968835,-1.795398736,0.8523256510516501,-0.0231841778340467,0.0208597108077081,0.5220807896509492,1.955,7.0,0.20720881,0.014802454,0.957468744,0.883666465,-0.716615312,-1.45446,0.9755139458636626,0.0798806726127057,-0.136054910707603,0.1532340720623038,1.955,8.0,0.327021332,-0.045933648,0.923034749,-1.002885639,-0.491173306,1.524015527,0.9352393182832116,-0.0411476299726144,-0.2587350865306855,0.2380975537101322
30,30,2.003,0.0,0.074092809,-0.021611077,0.976682762,0.191975724,-0.105048908,1.460516824,0.8783975638566379,0.0012739595798001,-0.0864083135778395,0.4700528695608042,2.003,1.0,0.045115536,-0.014148443,0.978852599,0.03707304,-0.342446725,1.15219393,0.8373883759563316,0.0129595825954569,-0.0845341075170795,0.539876598583843,2.003,2.0,0.093371065,-0.044224364,0.973979491,0.193798876,-0.046134204,1.697883498,0.7806716778075138,0.0135229533838927,-0.103759533427425,0.6161191608965765,2.004,3.0,0.030509206,-0.005701757,0.979027925,0.09832329,0.517421806,2.039969834,0.8335080630038392,0.0056685233851136,-0.0256037149141257,0.5518846134227849,2.004,4.0,0.087870157,-0.020333942,0.974919159,0.550435914,-0.441159148,2.259964502,0.8959966024975027,0.0312644515013997,-0.0779599158858176,0.4360445778820385,2.009,5.0,0.124686153,-0.132868395,0.961434529,0.22383164,-0.533083948,-0.163889347,0.8765241325510749,-0.0642745695595649,-0.1685978344941999,0.4462611286762319,2.009,6.0,0.095159503,-0.096390055,0.970811324,-0.088825128,-1.264335467,-2.066004271,0.903754386960358,0.0040254888188929,-0.0474026611864209,0.4253995665278964,2.009,7.0,0.221388938,0.084755095,0.950645839,0.799559614,0.117746782,-1.034576858,0.9798438710605196,0.1231204474973416,-0.1145176078170498,0.1078566699516091,2.01,8.0,0.326982852,-0.204951832,0.900314368,-1.729341522,-0.476933876,3.032782197,0.8839364845272432,-0.1524316675018213,-0.2687122760982739,0.3510193594922048
31,31,2.104,0.0,0.073993806,-0.020757296,0.97617163,0.077003887,0.017043994,1.086775271,0.8526606347591795,0.0001089518280875,-0.0791239828131604,0.5164389851718738,2.105,1.0,0.063456536,-0.006113349,0.977422577,0.302988611,-0.086089067,1.476743577,0.7965722923080869,0.021170196181791,-0.0759170255572005,0.5993838596018511,2.105,2.0,0.098681972,-0.040729149,0.973219402,0.273142546,-0.12254536,1.529605556,0.7328068787442795,0.0193468083025261,-0.0963513883459115,0.6733024501941066,2.105,3.0,0.017534181,-0.000390535,0.979690972,0.079759789,0.062368366,0.964607244,0.8066578138129917,0.0058146613608961,-0.0193974352185269,0.5906717367833387,2.105,4.0,0.092608989,-0.010828635,0.975358045,0.157495634,0.274685605,1.778787043,0.8563663444835615,0.0234962166621005,-0.061537731002877,0.5121500947002227,2.069,5.0,0.1395772029999999,-0.152397404,0.9570613805,0.1320029335,-0.748449204,0.4344268664999999,0.8617267899335381,-0.0429269651272878,-0.1901059570960545,0.4684484392677528,2.069,6.0,0.134726216,-0.0994873825,0.964884116,-0.095618697,-1.0731136535,-1.0700751735,0.9218837325116324,0.0227910676119525,-0.1013055135820419,0.3732936429748126,2.069,7.0,0.2135304915,0.1248704295,0.9468702945,1.053969488,0.5134103455,0.5709137574999998,0.9719640325357034,0.1634524277195235,-0.0871403576613471,0.1448301812336797,2.07,8.0,0.309623984,-0.2936165874999999,0.8767881945,-1.8126700515,-0.542903166,3.179035255,0.8060529244008121,-0.2518319161633434,-0.2754576966781432,0.4593282338450029
32,32,2.134,0.0,0.070391304,-0.01910044,0.97768054,0.017771655,0.019449072,0.95509469,0.8280074413232599,-0.002497213623725,-0.0734605403249581,0.5558785749177522,2.134,1.0,0.045222671,0.00243372,0.978995397,0.019690398,0.42361755,0.972312715,0.7691580021641666,0.0048319716774273,-0.0535866906768252,0.6367896719787803,2.134,2.0,0.086571036,-0.03037351,0.975686377,0.257333425,0.50379984,0.732404296,0.7107190615333475,0.0078382714559998,-0.0648499512813981,0.7004366216100786,2.134,3.0,0.010925376,-0.003405446,0.978580114,-0.147628799,0.091273282,0.901432926,0.7799793676010777,-0.0039183853822963,-0.0186647164105343,0.625514556772209,2.134,4.0,0.047580927,-0.024508432,0.978573141,-0.156195629,0.454230454,1.929475784,0.8071693236405694,-0.0025500537633515,-0.0436094276024186,0.5887014506722564,2.129,5.0,0.154468253,-0.171926413,0.952688232,0.040174227,-0.96381446,1.03274308,0.8287979189693108,-0.0282659939288621,-0.2199521120232679,0.5137276627901766,2.129,6.0,0.174292929,-0.10258471,0.958956908,-0.102412266,-0.88189184,-0.074146076,0.918220645256882,0.0311546805653837,-0.1436749210013286,0.3677740469067468,2.129,7.0,0.205672045,0.164985764,0.94309475,1.308379362,0.909073909,2.176404373,0.9425803420873472,0.2017590731109931,-0.0566701988416569,0.2600462722115803,2.129,8.0,0.292265116,-0.382281343,0.853262021,-1.895998581,-0.608872456,3.325288313,0.7027235038268902,-0.337502931964168,-0.2802746856633801,0.5601049443284198
33,33,2.21,0.0,0.068814345,-0.03620987,0.976797027,-0.296371311,0.019668573,0.841479437,0.8046530914264072,-0.0174424540844037,-0.0768167284777558,0.588496689437939,2.21,1.0,0.028673889,-0.012536934,0.979126975,-0.270859536,0.079210141,0.770747267,0.7449850545570702,-0.0099449459448142,-0.0551265429894959,0.6647250791077324,2.21,2.0,0.019128754,-0.022311929,0.979629659,0.098050059,1.179374526,0.325114307,0.70333825193072,-0.0319997045151857,-0.0144741386226946,0.7099871981895949,2.21,3.0,0.015568465,-0.022347469,0.979861324,-0.320822059,0.092215539,1.212804476,0.7418581068677473,-0.019845451339031,-0.0235484313446447,0.6698493701698602,2.21,4.0,0.034071151,-0.04175602,0.978491488,-0.208465255,-0.049422599,1.163497813,0.7725145484893151,-0.0121464406003645,-0.0492848890315056,0.6329650354215813,2.206,5.0,0.189892128,-0.143550238,0.950250656,0.088074365,-0.345237889,1.038567422,0.7999153189000283,-0.0258060249387079,-0.2206033745210702,0.5574976975879319,2.206,6.0,0.207944172,-0.118501147,0.950397653,0.118451555,-0.57251292,1.588823147,0.8829060032166942,0.0308449380187745,-0.1668844986944892,0.4378071988650137,2.206,7.0,0.151722284,0.180834973,0.951108859,0.636733755,1.860428283,3.175202116,0.8899289677339276,0.1861427882147576,0.0059894991192127,0.4163429123738782,2.206,8.0,0.231555225,-0.524760963,0.794424389,-1.978041346,-0.508968274,5.666868493,0.5146807646188498,-0.441578838523264,-0.2241145904091365,0.6999174881838188
34,34,2.27,0.0,0.071889549,-0.058978787,0.975341169,-0.120550963,-0.015149453,0.885850468,0.7784769308160655,-0.0236872929418467,-0.0769931380490311,0.6224826399456043,2.27,1.0,0.036875,-0.020130557,0.979407471,0.057570702,-0.242751666,0.694479226,0.7214016150084778,-0.0003159106614086,-0.0585724822304202,0.6900354153150263,2.27,2.0,-0.048338498,-0.005173277,0.977775857,0.307009563,0.863416993,0.383457376,0.6908673055341343,-0.0511064262536183,0.0302113263695098,0.7205399191568663,2.271,3.0,-0.024304822,-0.04635343,0.977062247,-0.320650591,0.58378133,0.970865033,0.7096375359446924,-0.0525431485243292,-0.0093837384403927,0.7025423336528399,2.271,4.0,0.044961277,-0.051439624,0.977213615,-0.008428353,-0.213735939,1.389547135,0.7278470546334875,-0.0085370377668367,-0.0552683078441229,0.6834553373817281,2.221,5.0,0.187824413,-0.151775454,0.949985369,0.358418075,-0.125459861,1.547599322,0.7569283417290168,-0.0244033963666946,-0.2040362517462052,0.6203492304391858,2.22,6.0,0.225361452,-0.122938271,0.946160873,0.465398717,-0.422522491,1.910221927,0.8349890820201182,0.0400700666327218,-0.174509696704137,0.5203210436100772,2.221,7.0,0.076815004,0.183551571,0.958560001,0.881356755,1.950620818,3.27061113,0.8072270893569189,0.1731248515307017,0.0741074133718919,0.5593927987328378,2.221,8.0,0.028808965,-0.617425011,0.760185108,0.907031996,-0.086388014,3.850435561,0.4107711447720466,-0.4432915701395149,-0.1115351877064382,0.7888723295750684
35,35,2.375,0.0,0.074049922,-0.068602853,0.974498465,-0.086716029,-0.118813144,0.819164114,0.7525620215686369,-0.0244971219714978,-0.0806189957003406,0.653108622083577,2.375,1.0,0.046056213,-0.014454794,0.978706741,0.126014899,-0.165180334,0.90595939,0.6898526591646735,0.0080925545407482,-0.0567049986434547,0.7216802355152035,2.375,2.0,-0.09100786,0.02105125,0.975206857,0.300673378,0.494630112,1.368954086,0.6417366192992208,-0.0548582592599249,0.0617099212648652,0.7624674212442535,2.375,3.0,-0.042521213,-0.060570048,0.977287683,-0.247678057,-0.120771486,0.934321706,0.6762124815914771,-0.0556312920953602,-0.019235497859059,0.7343513019678054,2.375,4.0,0.055238191,-0.060412626,0.976280726,-0.195889883,-0.233272866,1.144131888,0.688104460795038,-0.009984650039304,-0.0680862614801662,0.7223412066296766,2.295,5.0,0.186813102,-0.163127227,0.947956947,0.308704489,-0.486792883,2.160443089,0.6862717157278615,-0.0191843697059144,-0.2017374789103371,0.6985449747538274,2.295,6.0,0.232376776,-0.132438689,0.941521124,0.376355832,-0.326692968,2.27091559,0.770986576559626,0.0398632177142713,-0.1781383145524139,0.6101289728629169,2.295,7.0,0.032299133,0.21403527,0.956093965,0.785651938,0.724318271,2.865196558,0.7175361584155889,0.1847847190628806,0.0927442827694951,0.6651277824453157,2.295,8.0,-0.090765454,-0.536648687,0.814748316,2.086710765,-0.804107216,4.005322893,0.3075551595129842,-0.3824304453472612,0.0276689609832321,0.8708565937779577
36,36,2.42,0.0,0.075260345,-0.078155062,0.973959787,-0.100394203,-0.03101719,0.722953221,0.7289159373584982,-0.0281832784532822,-0.0814856658015646,0.6791519309766278,2.42,1.0,0.058374163,-0.012114488,0.977817312,0.010294264,-0.209150084,0.445845315,0.673354517214582,0.0155901956357725,-0.0605901754714422,0.736667815628656,2.421,2.0,-0.127461801,0.047447895,0.970810582,0.264100428,0.698372897,0.685206855,0.6143274604617832,-0.0692565117126598,0.0955487985285802,0.7801767325470012,2.421,3.0,-0.015986913,-0.0753907,0.975777977,-0.227252813,-0.596336071,0.479561688,0.6576006464158501,-0.0393494538353744,-0.046564220372203,0.7508959872695037,2.421,4.0,0.069651378,-0.081425878,0.972716563,-0.269029059,-0.373528825,0.540613774,0.667312376556015,-0.006637579701606,-0.0887674945244171,0.7394392919954454,2.385,5.0,0.212020671,-0.162007145,0.942924663,1.057527454,-1.337305027,4.487243203,0.5215432859040718,0.012290886839038,-0.1971945406938183,0.8300336427818137,2.384,6.0,0.239554039,-0.163241649,0.934837968,0.016746914,-0.563854142,2.48939675,0.6898195131324723,0.0326240546277379,-0.1984881099297224,0.6954762257459645,2.385,7.0,0.077685128,0.238824857,0.947692307,0.975432754,-0.312900142,2.527374726,0.6276746636102246,0.2317323962219269,0.08222308288347,0.7386230282384738,2.385,8.0,-0.07463766,-0.263910629,0.940981615,5.831938392,-1.650170982,0.710269902,0.4121887247702357,-0.1734192680534756,0.2491168372025212,0.8590500649335265
37,37,2.465,0.0,0.068080563,-0.086456156,0.973223186,-0.032000791,0.106742055,0.796742131,0.7024857966030875,-0.0343119024707361,-0.0748871289685772,0.7069146460744803,2.465,1.0,0.063996804,-0.017269023,0.976913604,-0.102957577,0.011565501,0.36590701,0.6601822035889587,0.0108820456450105,-0.0610319555166235,0.748542677175339,2.466,2.0,-0.175054866,0.064419903,0.961020223,0.223743185,0.873986118,0.357492756,0.5972401564993999,-0.093084037926887,0.1307098622841631,0.7858463521894424,2.466,3.0,0.008406145,-0.090060339,0.974894595,-0.234132375,-0.305996329,0.673618331,0.6313054202056091,-0.0356397118511293,-0.0629030531989421,0.7721570327701736,2.466,4.0,0.108047887,-0.098729982,0.969358574,-0.160789935,-0.874846432,0.520571631,0.6444298895337484,0.0195496308738289,-0.1219982703733181,0.7546153665504942,2.492,5.0,0.242478183,-0.219346496,0.922761857,-0.572421248,-0.885347909,3.756204264,0.3623952595842485,0.0043081515183182,-0.236883820385744,0.9014084375580332,2.492,6.0,0.249626349,-0.211522327,0.924136349,-0.149629326,-0.434339749,1.878935728,0.6211357125890574,0.0226328864851445,-0.2167047482207135,0.7528062374173261,2.493,7.0,0.089375753,0.266716234,0.93829016,-0.499788817,0.045416429,-0.711137622,0.6620080090845474,0.1999141555744096,0.0718526562396281,0.7187606848598456,2.493,8.0,0.151074704,0.314667532,0.915580023,6.119337255,-2.058086082,2.609128391,0.390455533951679,0.0941793236252872,0.4644413676190397,0.7892838190740696
38,38,2.54,0.0,0.052843413,-0.086071476,0.974860644,0.06709342,0.164232649,1.042262146,0.6666608290998096,-0.0396657109482048,-0.0625225960862338,0.7416743863027532,2.54,1.0,0.054794163,-0.026261219,0.977585775,-0.150810743,0.227623276,0.643336391,0.6371080094121476,-0.0043399340153713,-0.0561003879369117,0.768717955942855,2.54,2.0,-0.226682046,0.070237081,0.950686069,-0.147705919,0.838156718,0.356701956,0.5775956592722523,-0.1257550705947915,0.1483291215482033,0.792822419152164,2.54,3.0,0.005930728,-0.103005135,0.974342737,-0.189727204,0.074961856,0.830550358,0.5993375899899314,-0.0464333771832272,-0.0640777550033371,0.796575442768702,2.541,4.0,0.160475949,-0.09894174,0.961532112,0.21910425,-0.884712379,0.17245492,0.6327927414349082,0.0597776898440464,-0.1392727851220282,0.7593438387901463,2.591,5.0,0.197303618,-0.44374998,0.85180176,-4.0998572,1.217864594,-1.324197726,0.4414833650769855,-0.1253872964117175,-0.4091618523882678,0.7886425317018241,2.591,6.0,0.220823506,-0.285188096,0.910729229,-0.757020071,0.020569478,2.402403732,0.5334688057893536,-0.0271836042227803,-0.2395184723679147,0.8107422440613791,2.591,7.0,0.110985307,0.244409463,0.94195556,0.962149318,-0.031112838,0.743544878,0.6272971125425046,0.2270407713469812,0.095142403192718,0.7388496084161638,2.592,8.0,0.241444819,0.52048825,0.793895699,1.413305827,-0.356928178,-1.938549018,0.4656540776162517,0.1072998634181578,0.4997390047754774,0.7224361192630236
39,39,2.652,0.0,0.035212765,-0.087428163,0.976009415,0.058912282,0.186202495,1.097617851,0.6269895128312816,-0.0459653946916746,-0.0502410985399104,0.7760458525808471,2.653,1.0,0.037955534,-0.042441904,0.978389525,-0.160606029,0.22255945,0.927042624,0.6023461121828041,-0.0198783290138733,-0.0520092855631786,0.7962908057921331,2.653,2.0,-0.267954936,0.057308423,0.940970189,-0.429836347,0.544826924,0.700612402,0.5439785515281439,-0.1507112527316123,0.1473313659988302,0.8121988194834621,2.653,3.0,-0.00825644,-0.108755061,0.97352872,-0.008130578,0.141375435,0.738713836,0.570553268859663,-0.0537790247429161,-0.0561961697172392,0.8175688193665199,2.653,4.0,0.195467256,-0.073684403,0.957210614,0.359633577,-0.091759824,-0.123367809,0.6363666840141938,0.074876522787509,-0.1234950663954145,0.7577466056591894,2.595,5.0,0.160143663,-0.545014556,0.798121006,-1.309292708,-0.468999009,1.631529607,0.3642848683282786,-0.1603628888104712,-0.4473178967970898,0.8009288219339078,2.594,6.0,0.172850032,-0.342338507,0.901763945,-0.319285024,-0.021898309,1.992468385,0.4537881988584684,-0.0574055237578055,-0.2439834860974502,0.8551332848922526,2.595,7.0,0.13307952,0.273105097,0.931495812,-0.034246756,-0.021328669,-1.287487418,0.6770194676437857,0.2120091899545088,0.1038747270768536,0.6970701434438769,2.595,8.0,0.294678974,0.578778299,0.733543443,0.352018829,-0.589109566,0.364272098,0.461440440543941,0.1626227113160751,0.4722076322316614,0.7332438377899879
40,40,2.705,0.0,0.008832437,-0.0771996,0.976683782,0.173721235,0.374495393,0.888289568,0.5941860673599291,-0.0552128718672579,-0.0282342657555423,0.8019334650535274,2.705,1.0,0.017662038,-0.045927854,0.978240607,0.057651339,0.289176341,0.788727235,0.5720205532682344,-0.0306037672206788,-0.0374864368229824,0.8188105172290608,2.705,2.0,-0.289601275,0.045160132,0.93515168,-0.415862049,0.335888472,0.768581291,0.5081813020276938,-0.1653515990715554,0.1411671864969445,0.8333561294011428,2.705,3.0,-0.018523019,-0.104733891,0.974182585,0.141801887,0.1019483,0.550768994,0.548882103587938,-0.0541240851129426,-0.0443423896462251,0.8329662491674135,2.706,4.0,0.155603128,-0.06383078,0.964610439,0.121028471,0.576347159,0.830031668,0.6087041958407259,0.0481143426808619,-0.0988682657492735,0.7857412284092105,2.674,5.0,0.105024417,-0.622230542,0.74945315,-1.096689967,0.307302331,1.366066348,0.3124523468672012,-0.2150899381505176,-0.4619556680211241,0.8016899713896525,2.674,6.0,0.119124528,-0.403257192,0.885136138,-0.656304144,0.401979398,1.534236999,0.392707010377478,-0.1053084541748676,-0.2539389368664767,0.8776140095866786,2.674,7.0,0.103248029,0.259630074,0.938878623,-0.387056188,-0.057335452,0.12493943,0.6785090050997148,0.1935810933313371,0.0828266715915806,0.7037695878455532,2.674,8.0,0.275648001,0.561141591,0.754418514,-1.862220747,-0.056308503,-2.619143297,0.5755081873894302,0.0588268052883994,0.3904102054908307,0.7161770763406915
41,41,2.779,0.0,-0.012761606,-0.060411309,0.977606063,0.382535401,0.401500642,0.505049628,0.575827541360201,-0.0579149653897896,0.0008943222705053,0.8155168297359914,2.779,1.0,-0.006598307,-0.036132702,0.979461531,0.280302761,0.479134641,0.331144445,0.5599740667379678,-0.0413115726443491,-0.0094883342743218,0.8274251446863887,2.78,2.0,-0.301227278,0.035805234,0.931938899,-0.129163919,0.303325801,-0.205035438,0.5143592252108983,-0.1785915950137098,0.1373380397838988,0.8274526526993673,2.78,3.0,-0.033564738,-0.094457726,0.974566132,0.148909908,0.339898168,0.446360098,0.531596817829735,-0.0640319637620909,-0.0263306855531133,0.844163151226333,2.78,4.0,0.105887249,-0.075939777,0.970750761,-0.073164192,0.811639954,1.555882956,0.5526955943785126,0.0035714599673919,-0.0764756125190497,0.8298592081299817,2.735,5.0,0.044209853,-0.684615948,0.699999637,-1.740697828,1.13049014,0.133987818,0.3196243173523517,-0.2826537031755475,-0.5027861297136523,0.7517667774022466,2.735,6.0,0.014127091,-0.431975873,0.879154862,0.024271691,0.710116788,2.894338932,0.2776600063377382,-0.1729168754962243,-0.215612625543692,0.920062971081494,2.736,7.0,0.152553671,0.202992611,0.946825421,-1.113105667,-0.504847294,1.690281648,0.6325283486341219,0.1771400024480514,0.0066388756763662,0.7539795972283659,2.736,8.0,0.229058915,0.455792783,0.83668689,-2.296982851,0.026579306,-1.271396956,0.6271155096239479,-0.0224962185691402,0.2860236502062564,0.7241619496092533
42,42,2.809,0.0,-0.037431563,-0.017777109,0.979254743,0.749055547,0.264529136,-0.025224864,0.5792843208359074,-0.0433157411104636,0.0393145433680463,0.8130238550531558,2.809,1.0,-0.033329988,-0.0073163,0.979641048,0.536670931,0.242036866,0.439929313,0.5431777288050896,-0.034507322559398,0.0216613772897607,0.8386286331588236,2.809,2.0,-0.320259376,0.055341456,0.924315561,0.006454181,0.207196882,1.619002785,0.4471846518153895,-0.1709855405426251,0.1541380850460817,0.8643097146535043,2.81,3.0,-0.067275049,-0.081512946,0.974347837,0.163034263,0.483654171,0.686260672,0.5040242346406586,-0.0800404149759916,-0.0035657549784079,0.8599653413113829,2.81,4.0,0.053096789,-0.094669037,0.973467773,-0.294695204,0.681464454,1.341712346,0.5004072007941058,-0.0380981147350888,-0.0671945928022752,0.8623375520903492,2.804,5.0,-0.019470786,-0.779197745,0.593055447,-0.632920394,1.44677541,0.122427463,0.3480743571902423,-0.342552591076084,-0.4906270159187065,0.7216558012407064,2.804,6.0,-0.075534438,-0.47355606,0.854805362,-1.886465981,1.098147963,-0.113795999,0.2810516885415347,-0.2435824542817842,-0.2906521878857184,0.8815888168592315,2.804,7.0,0.232311232,0.091211289,0.947642334,-0.338075555,-1.436395037,3.925493203,0.4909379068713772,0.221202536866408,-0.0897544454970069,0.8378505527802325,2.805,8.0,0.325286985,0.344741233,0.85770383,-1.235744604,0.619630718,6.42619542,0.3932346306583637,0.0499343692105125,0.2291401715140719,0.8890263583387334
43,43,2.871,0.0,-0.050735823,0.004767834,0.978404898,0.163623993,0.380906674,-0.569046883,0.6022360081536989,-0.052651505895631,0.0536445302499925,0.7947715859190475,2.871,1.0,-0.014624727,0.057098148,0.978696541,1.222125623,-0.62185835,1.059460703,0.5024279304311559,0.0276851316594967,0.0567639859598078,0.8623094329216263,2.871,2.0,-0.297849661,0.096677515,0.928912826,0.414719404,-0.784307488,2.284959604,0.3603054696971879,-0.1068319588640574,0.1676608862603786,0.9114037131205588,2.871,3.0,-0.070841231,-0.0727221,0.974405981,0.270629532,0.008798355,-1.33713899,0.563393563074098,-0.069604839988249,0.0024779525390052,0.8232476657046147,2.871,4.0,-0.021980903,-0.091063414,0.974625207,0.22916239,1.619480615,-0.841585454,0.5436823497484191,-0.0984423855969107,-0.0142293161545607,0.8333763410679478,2.883,5.0,0.016292512,-0.489085761,0.848695865,7.30023506,0.582698505,-0.961672969,0.5533332749902776,-0.1242953352821118,-0.2044265573024346,0.7978613532971224,2.883,6.0,-0.138528172,-0.623209604,0.743129016,-3.423526971,1.827033427,1.143825436,0.2205718554873723,-0.3765682886586375,-0.4060753895777569,0.8028992206515309,2.884,7.0,0.310616651,0.045199416,0.928402558,0.059323871,0.149690933,0.179544739,0.4844032595026212,0.2085910132663596,-0.0827360646394187,0.8455755524941172,2.884,8.0,0.300700821,0.149997155,0.919665629,-2.237101294,2.437856723,-2.615624604,0.49212342737869,-0.1337152517245713,0.1534361532870173,0.846399498195603
44,44,2.953,0.0,-0.06486368,0.005685066,0.976804168,0.257952916,0.009421545,0.351969143,0.5891440781915702,-0.0416840501032,0.0618416455589961,0.8045789619256487,2.953,1.0,0.023094801,0.11027276,0.973155973,0.571174782,-0.435626203,0.021646316,0.5020405834367699,0.0619678906993319,0.0690133537897958,0.8598560287067991,2.954,2.0,-0.237652068,0.159020833,0.937605391,0.569664426,-0.567538208,0.46335005,0.3477495714640717,-0.064899097379407,0.1808711272921138,0.9176840295101428,2.954,3.0,-0.098279929,-0.024130981,0.974261131,1.147926863,0.779709662,0.753392197,0.5369138307043811,-0.0688636343435151,0.0749059807628873,0.8374786160310601,2.954,4.0,-0.10923267,-0.040104335,0.972551215,1.167743647,0.891640143,-0.510199268,0.5720951206300688,-0.0978430386150998,0.0601712287205386,0.812104264229718,2.955,5.0,0.099734726,0.006237258,0.974320318,0.689441344,0.720622048,-2.834689086,0.6851521654593732,-0.0819976096770826,-0.1482409339040046,0.7084260919029204,2.955,6.0,-0.260896435,-0.558009091,0.762335822,3.614956706,0.105867449,-2.319084499,0.3981101497854105,-0.2522143659536036,-0.2825436716112766,0.8355030196695155,2.955,7.0,0.192910014,0.074614141,0.957795102,-0.288877542,1.91818716,-3.242512547,0.6382882487076874,0.1224436365418539,-0.0061745361347414,0.759972066944306,2.956,8.0,0.15028122,0.091837777,0.963863257,-1.344814653,1.95809619,-2.012071229,0.5566139558126485,-0.2492405457389536,0.1110333505676711,0.7846857011670725
45,45,3.05,0.0,-0.053355384,0.028656809,0.977730531,0.338648314,-0.239494506,0.131921856,0.585500872912768,-0.0188992874235939,0.0652142806176262,0.8078233980003258,3.05,1.0,0.028485018,0.127743233,0.971225139,0.289520018,0.062195621,-0.222263801,0.5106247737988985,0.0642567702265474,0.0817791912513632,0.8534902294350823,3.051,2.0,-0.246209818,0.175659011,0.931954203,0.524515101,0.077621447,-0.678977148,0.381076487761747,-0.0669303005902771,0.1992647494695036,0.9003302754861252,3.051,3.0,-0.144423205,0.033288667,0.968712962,0.369778653,0.589330915,1.108431188,0.4901863326310038,-0.0787843391439135,0.1073351740653322,0.8613881515413295,3.051,4.0,-0.097081236,0.035715021,0.9742149,0.944687697,-0.568015395,1.129079083,0.5334739765952168,-0.0396323450479616,0.084307199710215,0.8406706189695864,3.024,5.0,0.055855944,0.023962232,0.977852711,0.9750279,-0.414353249,-1.752691443,0.7509393471946885,-0.0058206668795564,-0.1163758237966427,0.650009910930245,3.024,6.0,-0.163929267,-0.480225131,0.838045953,1.076270151,-0.973175794,-0.388102027,0.4164454985317158,-0.1775532739510038,-0.2531646475847819,0.8549594393158213,3.025,7.0,0.078613632,0.065773184,0.974622894,-1.068216857,1.010210162,-3.68230911,0.7857946609953136,0.0356825127558629,0.0009321138538686,0.617456589727935,3.025,8.0,0.049067043,0.096414938,0.973900193,-1.564193757,0.870936089,-3.04707073,0.655317835557029,-0.3234213727248752,0.0188003344934672,0.6823515937466123
46,46,3.091,0.0,-0.035097018,0.044117789,0.978498758,0.176215592,-0.288002783,-0.511106957,0.6074594736502774,-0.00186738870955,0.0598280487546562,0.7920922328328601,3.092,1.0,0.03066736,0.152485608,0.967612346,0.460306994,-0.276669684,-1.138514421,0.5593177254003304,0.0831333001031275,0.096190277887164,0.8191458764511691,3.092,2.0,-0.236896791,0.215505678,0.926340765,0.846288066,-0.374459907,-0.556615626,0.4137582159236401,-0.0385017626872958,0.223868738991366,0.8815920489251665,3.092,3.0,-0.158403775,0.045039699,0.96598223,-0.152448989,-0.078638679,0.504026336,0.4688677227202266,-0.0742493694804014,0.0962190726832772,0.87486683545262,3.094,4.0,-0.022907991,0.06410309,0.978015858,0.013733715,-1.599543272,2.389799851,0.4424693979535701,0.0430881860451307,0.0403907693434694,0.8948367593308783,3.093,5.0,0.168834252,0.222437657,0.939742243,1.935856072,-1.045650528,-0.726300717,0.7702775327470435,0.1219330136943858,-0.0769735602640203,0.621192348421013,3.093,6.0,-0.105913491,-0.331880738,0.915995365,2.751816033,-1.250880006,0.153644985,0.4224325207372821,-0.0635248799238538,-0.1507090686287662,0.8915167590613513,3.093,7.0,0.033823714,-0.049296556,0.977911962,-2.410281884,0.029633832,-1.400245402,0.8303258508494707,-0.0701947029255244,-0.0798450950992217,0.5470433674590122,3.093,8.0,-0.011677741,0.009409554,0.97948001,-1.080591795,0.674578748,-3.528933761,0.760155803908466,-0.3580121087138052,-0.0589178486877989,0.5389983032483218
47,47,3.14,0.0,-0.025003502,0.038276537,0.978525284,-0.105527552,-0.109787466,-0.93123966,0.6449471855685182,-0.0034457646880967,0.0482188719831562,0.7626966598311767,3.14,1.0,0.023597348,0.175488663,0.962829629,0.11169457,0.020322346,-1.557573235,0.623321942291256,0.0758874073596573,0.104548146348601,0.7712201649059477,3.14,2.0,-0.218796816,0.247247719,0.922489306,0.676177791,-0.584628986,-0.893515894,0.4624353641852922,-0.0083014818106294,0.2340758140313131,0.8551567883354152,3.14,3.0,-0.13428549,0.025105768,0.970218588,-0.231619517,-0.483467358,-0.661625109,0.5000297475781538,-0.0602462184843681,0.0667142731870046,0.8613302795376414,3.14,4.0,0.073451494,0.05427121,0.97533559,-0.192444521,-0.615901402,0.471245101,0.4231887620034604,0.0679022211040284,0.0139826560388036,0.9033853249932824,3.21,5.0,0.130620771,0.244925353,0.939924883,-0.68384782,-0.127559474,-1.636115746,0.8251082835765416,0.106197724269768,-0.084278106846097,0.5484665572664695,3.21,6.0,0.044987155,-0.091983136,0.974724709,4.034050238,-1.444125142,-4.626890177,0.6461887636001589,0.1758057738380294,0.0335269989996116,0.7418951085026708,3.211,7.0,0.021475639,-0.189707179,0.96146866,-1.700745765,1.152870966,-2.499807474,0.8900190792477999,-0.1671307730769341,-0.0930900305224791,0.413844885775974,3.211,8.0,-0.005809702,-0.042517071,0.979042157,-0.898072022,-0.330979467,-4.842802283,0.8666456407003017,-0.3347590638183993,-0.1745384377328399,0.3261871186916676
48,48,3.215,0.0,-0.028444534,0.031306821,0.979288411,0.02191434,0.027154943,-1.043033156,0.6848501649581654,-0.0060533199740829,0.0469370468027428,0.7271454617279145,3.216,1.0,-0.005784795,0.16570694,0.965280657,-0.292357614,0.293207664,-1.170713302,0.6686887174831274,0.0460380061688783,0.1021468392214252,0.7350523276174539,3.216,2.0,-0.230184648,0.249947616,0.918485828,0.228975362,-0.010552039,-2.016253482,0.5516890143682288,-0.0291887611742825,0.2349494907848041,0.7997411984051366,3.217,3.0,-0.107421486,0.006288749,0.973992852,-0.137963653,-0.434919704,-1.906130509,0.5845718271836159,-0.0507617797918206,0.0394557643123716,0.8087906176743781,3.217,4.0,0.051938124,0.023102473,0.978107718,-0.818619375,0.354386367,-2.965693484,0.5634173715843702,0.0227739374574012,-0.0108406433553919,0.825787317425793,3.246,5.0,0.180347159,0.206646484,0.940045282,-2.411019158,-0.139194518,0.537833062,0.8212353727313573,0.011869003841802,-0.1498615031324221,0.5504299403207304,3.245,6.0,0.042592301,0.131694728,0.970665439,1.403926827,0.411046566,-6.203139339,0.8504254962207417,0.1946279703335779,0.1641951598004135,0.4603654831105973,3.246,7.0,-0.008957585,-0.284024845,0.937385539,-0.804116729,0.067490363,0.136489331,0.8811430776105798,-0.2013459743365458,-0.1018441643598846,0.4155411430692025,3.246,8.0,0.039505347,-0.159724773,0.965592214,-1.64351824,-0.145041968,-1.127599572,0.8639235203850255,-0.3688349280727174,-0.2165073108379698,0.2659352009660405
49,49,3.304,0.0,-0.028346239,0.033530033,0.979070083,0.133361818,-0.096598481,-1.128261155,0.7262036808134786,0.0003244131697681,0.0457506757297724,0.6859555265462332,3.304,1.0,-0.02787822,0.138068635,0.969971575,-0.51854966,0.003062307,-1.115459779,0.7112652285930305,0.0207354804057192,0.0802753529020417,0.6980169640942121,3.304,2.0,-0.273812151,0.216371946,0.915781135,-0.046775084,0.213919555,-2.254047188,0.6418988038049609,-0.0686831116534511,0.2263415455732418,0.7293956817769599,3.305,3.0,-0.077794717,-0.014470523,0.976504268,-0.19937553,-0.492706125,-1.618669915,0.6511729948502044,-0.0391902935305925,0.0098298915427356,0.7578530364807279,3.305,4.0,0.04935786,-0.021727335,0.978901795,-0.847657087,-0.255592581,-2.30169088,0.6604440875364851,0.0056801491734418,-0.0549631726461092,0.7488393638131885,3.302,5.0,0.116555492,0.177669583,0.956044108,-0.698583805,1.286917224,-4.554235954,0.9425727298811812,-0.0109708088375902,-0.092934334730859,0.3206236105871181,3.302,6.0,-0.004886096,0.177244427,0.963807833,2.31681143,-0.654029908,-1.599697787,0.8670692232856307,0.2840706524527018,0.1987327619866063,0.3577710381782238,3.302,7.0,-0.007353038,-0.300965123,0.931777295,0.039272526,-0.445294372,1.267412552,0.8530824767898719,-0.1909394945067566,-0.1039796806585633,0.4743212236888678,3.302,8.0,0.026387436,-0.292501134,0.935106833,-2.828091295,0.384176777,-0.60897027,0.8301836310410432,-0.4630576673553662,-0.2367157595697246,0.2008441799660739
50,50,3.38,0.0,-0.015726523,0.047803348,0.978946636,0.353947412,-0.31026906,-1.246189616,0.7694517941927123,0.0228860378862269,0.0449375484581671,0.6367109096144467,3.38,1.0,-0.018365159,0.106613638,0.973982163,-0.386285742,-0.442573985,-0.836572048,0.7426796922107962,0.0195763463008432,0.0475433195638952,0.6676700339299584,3.38,2.0,-0.282432995,0.182888638,0.919970298,-0.172087602,-0.490156445,-1.2258172,0.6926829034340086,-0.0687043362292955,0.1928664749160864,0.6915725792185276,3.38,3.0,-0.036067705,-0.029981059,0.979202357,-0.004399387,-0.514309007,-1.459626557,0.706948511712505,-0.0190376805048477,-0.0109445256763714,0.7069240311845317,3.381,4.0,0.059717688,-0.041428976,0.977025812,-0.451525639,0.845133612,-4.152716784,0.816375968894154,-0.0323697452917534,-0.0418654831880266,0.5750910869760644,3.364,5.0,0.079842812,0.296091882,0.978142486,1.29942001,2.413248367,-7.61693931,0.9901444887563108,0.0680696577775077,0.0888232349849941,-0.084207161229657,3.364,6.0,-0.073572367,0.294081599,0.946164954,3.041347149,-2.552941728,-6.004078692,0.9000424948064674,0.3734881369974216,0.2240667961910294,-0.0149729726318055,3.364,7.0,-0.012241718,-0.759131689,0.845408906,-11.41962611,0.602728613,-2.524522094,0.7081683006440641,-0.5838940971443387,-0.3881049051220548,0.083306205669787,3.364,8.0,0.232090341,-0.112302723,1.238810386,-0.294576579,-2.375355504,-1.407054657,0.8249059420531293,-0.3980185110564119,-0.3538136855097175,0.1895450541900449
51,51,3.422,0.0,-0.001862684,0.071751436,0.97713472,0.223179752,-0.308897959,-0.940960447,0.7996045862995405,0.0399614264691491,0.0394152998939216,0.5978980047613168,3.423,1.0,0.011978237,0.074431787,0.976740206,-0.538510741,-0.519104762,-1.044915655,0.7790776303592772,0.0146795091803682,0.0073400963187208,0.6267125983016685,3.423,2.0,-0.252238751,0.144059189,0.935286353,-0.461211822,-0.778488815,-1.438678725,0.7488980406809076,-0.070121682481371,0.1376084809583353,0.6444366379083509,3.423,3.0,-0.016838111,0.003413224,0.979413512,0.920227609,0.041074744,-0.423514332,0.7228095804189787,0.0144550253430991,0.0251995317278534,0.6904363448556045,3.423,4.0,0.054990484,-0.021959561,0.977797435,0.878296141,-0.462884426,0.124181195,0.8130721521628224,0.0203101459310096,-0.0342906099065241,0.5807971482555816,3.426,5.0,0.009231889,0.076325836,0.976734426,-1.25750103,0.830713071,-3.752180329,0.9594007111301104,-0.0091840335926058,0.1214280427884286,-0.2544035365999854,3.426,6.0,0.023710029,0.216567217,0.954977212,-0.304443536,-0.875055946,-1.585506894,0.9248495138281484,0.3167552469636175,0.1873081143376964,-0.0960997429554905,3.426,7.0,-0.016486724,-0.338879761,0.919942768,0.109129965,0.464790744,-1.212484707,0.7569552010809513,-0.5316362595987618,-0.3780714894171116,0.0379955250820583,3.426,8.0,-0.006701874,-0.520234385,0.830619208,-4.873813224,1.011732882,-0.459104731,0.7480769669384528,-0.564885890483102,-0.3426172636448896,0.062435510102554
52,52,3.47,0.0,0.019407002,0.078370276,0.976245086,0.128741977,-0.50934655,-1.500956414,0.8442729133134911,0.057337388046131,0.0236028297606507,0.5323143603214995,3.471,1.0,0.000164559,0.040417202,0.978848519,-0.76277357,0.219343839,-1.297246889,0.819549937047798,-0.0237684790147302,-0.0085366381507699,0.5724509462821766,3.471,2.0,-0.231029733,0.090781715,0.947683461,-0.466388157,-0.185601353,-0.93518397,0.7786589769894331,-0.0859300959046095,0.1095201921810318,0.6118100552264762,3.471,3.0,-0.03251074,0.044157271,0.978277153,0.304217457,0.196461853,-1.201793479,0.7636650680161782,0.0167905755161701,0.0444748071097504,0.6438600251593758,3.471,4.0,0.110995667,0.041340319,0.9730493,0.663647132,-0.588538092,-0.251493017,0.8183850045548938,0.0679672409592651,-0.038205418304203,0.5693564652204035,3.455,5.0,-0.006654063,-0.02335366,0.979497489,-1.633288717,-0.634842292,-0.249991873,0.9573015633822692,-0.097036405977114,0.0987639140310889,-0.2537781352799482,3.455,6.0,0.076693361,0.132392471,0.967562071,-1.582702309,-0.121684233,1.858206877,0.962038702498226,0.2314296239706241,0.1444797841452606,0.0068888328245536,3.455,7.0,-0.025749678,-0.004975715,0.978732955,6.930314334,-0.007824582,-0.829541596,0.927830137492709,-0.1323552731920977,-0.3266509441104901,0.1221166586925443,3.455,8.0,-0.16945529,-0.798151159,0.543391785,-5.342104102,2.62161028,-0.371220952,0.6397188103865008,-0.719434827121387,-0.2510390281407054,-0.1007610019435612
53,53,3.547,0.0,0.031106244,0.062638681,0.977048001,-0.365291865,-0.204184729,-2.133336556,0.8996813303877376,0.0412980491953128,0.0070420400776797,0.434532374577495,3.547,1.0,-0.002868317,0.001229057,0.979892985,-0.195956344,-0.300866348,-1.955288904,0.8732958365100247,-0.0203709084969058,-0.0282652410703141,0.4859428815905257,3.547,2.0,-0.24809724,0.086263138,0.944476803,0.420206703,0.551231104,-2.869675064,0.8613218052916295,-0.0954619671646321,0.1336236334504192,0.4807873595860595,3.547,3.0,-0.086142242,0.037777256,0.975284263,-0.06899373,0.948580442,-1.33178046,0.8039860689931099,-0.0225888938331822,0.0790879208545811,0.5889322911127384,3.547,4.0,0.154073482,0.069790167,0.964930927,0.218928178,-0.862075726,-1.322413046,0.8524554517537383,0.1048943101651357,-0.0623866986254858,0.508354980604029,3.57,5.0,0.115535569,-0.056006015,0.971654187,-1.239645298,-1.533913279,1.870420041,0.975329196590242,-0.1613621605752709,0.0389149825490757,-0.1455363719017293,3.569,6.0,0.097976933,-0.045787645,0.974479867,-0.563265641,-0.83139006,-1.086676737,0.9792765796930244,0.1720507308934447,0.0943842041830563,-0.0500754277514873,3.57,7.0,-0.131322706,0.253000072,0.937262135,1.373078479,0.219725862,-2.814174394,0.9628233842308628,0.0013143530584368,-0.2700653757620302,0.0058391839137898,3.57,8.0,-0.045272105,-0.808915747,0.551797745,5.204730922,-0.217549778,-4.041839598,0.8205711172336969,-0.4258265925917702,-0.3521576133118935,-0.1460129103538319
54,54,3.65,0.0,0.023732001,0.040660184,0.978936434,-0.476601884,0.226925548,-1.675417038,0.9345870237811704,0.0116110152921334,0.0073831562558538,0.3554683787729109,3.65,1.0,0.022757973,-0.00164956,0.979810366,-0.160993662,-0.328528708,-2.509320936,0.9289904403044812,-0.0135781338983602,-0.0471974184410744,0.3668307508855037,3.65,2.0,-0.275667577,0.10177945,0.933700878,1.025047763,-0.192139764,-1.007664209,0.8899166295613375,-0.0446127100003865,0.1486428375691176,0.4289095538409136,3.65,3.0,-0.134501475,0.03628145,0.969978871,0.365414392,0.701583592,-1.713490321,0.8506702612580025,-0.0347458267657483,0.1152532345526924,0.5117318888429255,3.65,4.0,0.17025709,0.098882764,0.959860262,0.203000189,0.164166589,-1.864885886,0.897297016652099,0.113688939680171,-0.0376950870028913,0.424867001916465,3.63,5.0,0.172353411,-0.217335678,0.939568787,-2.994331232,-0.860112799,-0.779746434,0.9376374241039706,-0.3043687714034095,-0.0029521266345577,-0.1678898354945391,3.63,6.0,0.134359909,-0.085744653,0.966687783,-0.592613773,-0.179686127,-0.266857857,0.9881571915099256,0.1201631670803136,0.0731908620001089,-0.061231330739466,3.63,7.0,-0.215558167,0.380420724,0.876868719,2.717986108,0.885756029,-1.236913458,0.9692277645257644,0.1678057719118026,-0.178524371374393,-0.0238288105211231,3.63,8.0,-0.001465566,-0.786674315,0.584082507,2.033359881,1.605865404,-1.599589314,0.8885386007102684,-0.2986788472133957,-0.2910149536991053,-0.1913123048803256
55,55,3.685,0.0,0.004229512,0.015524431,0.979856675,-0.509383053,0.249332932,-1.098272408,0.9529014808404628,-0.0178599894912268,0.0085641039065481,0.3026325242132845,3.685,1.0,0.021242039,-0.031781123,0.978472144,-0.723431646,0.329438178,-1.760572111,0.9580276364537424,-0.0497700015127549,-0.045644064678431,0.2786083525307655,3.685,2.0,-0.318885548,0.092247502,0.92206692,0.371882937,0.793081145,-3.419880957,0.9467902740108396,-0.0667620284374957,0.1830971088979945,0.2561375749681913,3.686,3.0,-0.17589621,0.064929375,0.962055975,0.777885785,0.482460175,-0.982012406,0.8734017346293312,-0.017037475531257,0.1530622719608792,0.4620076571618383,3.686,4.0,0.123362671,0.140475261,0.961854642,0.394792211,0.476704988,-2.547180233,0.9442402388126444,0.1240906004011051,0.0104162592153826,0.3048005837315466,3.704,5.0,0.226705103,-0.325398574,0.896056675,-0.794879715,-1.18446563,2.67462547,0.9408232986637756,-0.337742853866579,-0.0148052366730672,-0.0237084440764262,3.704,6.0,0.122528085,-0.129296338,0.963186548,-0.759109394,-0.033015958,1.02208414,0.9960480809528376,0.0672948323519477,0.0574596158839696,-0.0076169883392198,3.704,7.0,-0.220391537,0.379937479,0.876232322,-0.987822525,-0.741309228,-1.99258478,0.9649903391625636,0.1401189631125012,-0.1722847493118925,-0.1395646325317996,3.705,8.0,-0.100888068,-0.639127752,0.734794743,4.142402756,1.046916069,1.118236817,0.9631993184122252,-0.1048736607531488,-0.2369315017690265,-0.0714986136923814
56,56,3.74,0.0,-0.004983582,-0.007929157,0.979637327,-0.288941432,0.138630282,-0.4763237,0.959510704063273,-0.0326875538718363,0.0093192278032489,0.279613813326576,3.74,1.0,-0.002176899,-0.073835207,0.977468477,-0.475229424,0.220512562,-0.768685425,0.9673178595597536,-0.0726778552867314,-0.0407004270642967,0.2394943906742725,3.74,2.0,-0.347695604,0.054466456,0.914093634,-0.075839841,0.0967586,-1.359601424,0.961395981913286,-0.0793618220283059,0.1809025022580833,0.1915561323531558,3.74,3.0,-0.199094784,0.102327787,0.953559799,0.526679343,0.077889654,0.103139676,0.8711755041623408,0.0064430571294306,0.1647721646799189,0.4624520101686355,3.741,4.0,0.097046433,0.183374614,0.957153457,0.655053947,0.035254961,-1.583028598,0.9613803957469308,0.1518763539978775,0.0311459128470681,0.2274010551486268,3.735,5.0,0.199844798,-0.444085916,0.849949855,-2.262699457,0.599897566,0.520485585,0.9029677423246812,-0.4291105035086842,0.018204605910412,-0.0134916427183052,3.735,6.0,0.108613067,-0.218094534,0.949177526,-0.963935928,0.156507602,0.365579817,0.9984134991189516,0.0026311506865576,0.0545577385091994,0.0136753424775247,3.736,7.0,-0.125839948,0.327464195,0.914501781,-1.855492213,-2.018173625,0.815177511,0.9619298154536712,0.0330254513923924,-0.2376969725543317,-0.1307688760374576,3.736,8.0,-0.134520966,-0.305273147,0.921382339,5.351665032,-0.163374679,-0.713008009,0.9611440874902591,0.1579638839716931,-0.2238970400756635,-0.0334599744239473
57,57,3.854,0.0,0.005665998,-0.01965812,0.979503678,-0.190578793,0.125005569,-0.176670557,0.9616435817984236,-0.0412907318229158,0.0108061414266827,0.2709611122631682,3.854,1.0,0.006471912,-0.091964493,0.975340785,-0.206592724,-0.167532401,-0.471945723,0.971871570910825,-0.0769344302588729,-0.0504976341625406,0.2167872967681776,3.854,2.0,-0.337074661,0.030638567,0.919518326,-0.363878879,-0.112995704,-0.134656578,0.9625430723280672,-0.0911244944428458,0.1707373633374748,0.1898839466262177,3.855,3.0,-0.175806349,0.120978254,0.955235777,0.050579608,-0.598715939,-0.013497804,0.8768680859921513,0.0229699046878297,0.1340750402130675,0.4610841862815914,3.855,4.0,0.093832448,0.229998783,0.948161395,0.423883264,-0.367746475,0.14193638,0.9571252266455188,0.173996428061773,0.0121182260679575,0.2312783866630748,3.812,5.0,0.169168498,-0.528376132,0.807486645,-0.99259214,0.577958255,-0.890848788,0.885281202154512,-0.4596412189452231,0.0148047814049033,-0.0691950966901883,3.812,6.0,0.091966564,-0.277876195,0.933911651,-0.883255632,0.253026444,-0.179071966,0.9968252598239224,-0.056391575403861,0.0558505709242073,0.0063328767460141,3.812,7.0,0.085766708,0.122708149,0.968200796,-2.786074132,-2.787688183,1.151791968,0.9320274881359998,-0.1264758503356699,-0.3222391003680908,-0.1071941361956482,3.812,8.0,0.057054422,0.358296498,0.910510523,6.002673463,-1.557063033,1.255207904,0.8637976949268095,0.3972217077299319,-0.2988783572853648,0.0820986278426678
58,58,3.875,0.0,0.000978717,-0.027071628,0.979766895,-0.146238625,0.039725017,-0.061026282,0.9622686456225172,-0.046086316528381,0.0090922325894981,0.2680157390661798,3.876,1.0,0.0090041,-0.094093575,0.975575382,0.082693648,0.034742585,0.47470167,0.9672210659367476,-0.0714111945276361,-0.0426857775585531,0.2399203519890289,3.876,2.0,-0.333066388,0.020052146,0.921209907,-0.373010239,0.021231663,0.716594534,0.9534985513241636,-0.0964265300771184,0.171627392115731,0.2282246156652715,3.876,3.0,-0.148152785,0.106897108,0.962164103,-0.329882482,-0.347127062,0.182026211,0.875682506154383,0.0167693003491564,0.1069732792899793,0.4705907526704348,3.877,4.0,0.136791368,0.22094969,0.944605397,-0.344352964,-0.406297357,0.815714579,0.9503630795360736,0.1580417845833231,-0.0228298127674546,0.2670423393947717,3.89,5.0,0.151366224,-0.613207464,0.749308263,-2.623382033,1.818696933,-1.081719657,0.8192914591993619,-0.5476479377340014,0.0623881823349782,-0.15795871575704,3.889,6.0,0.075320356,-0.3316867,0.918058155,-1.107829242,0.529701153,-0.386606018,0.989768905671316,-0.1237644158260394,0.0698642162043619,-0.0126045244096952,3.89,7.0,0.16536188,0.10247206,0.960447773,0.478222776,0.104995053,1.169350623,0.9494494007722252,-0.1060403124864556,-0.2914619880148204,-0.04848914356313,3.89,8.0,0.100926991,0.435383458,0.870726126,-1.539447875,0.121622633,-0.322180137,0.9085359006439386,0.3155000341198394,-0.2706346490847425,0.042179763231505
59,59,3.949,0.0,-0.002724206,-0.018407004,0.979305755,0.392271876,0.035194389,-0.433095651,0.9687182153105596,-0.0240537966678173,0.0144882795144335,0.2465695113920203,3.95,1.0,0.003688297,-0.056394725,0.978663901,0.91644046,-0.112707385,0.941908645,0.957286655242078,-0.023720172124057,-0.0325505720638132,0.2863216257780027,3.95,2.0,-0.32869286,0.021248762,0.923064729,-0.085875327,-0.336146795,1.091199975,0.9425812804556416,-0.0806944646282502,0.1585969806952889,0.282623301989241,3.95,3.0,-0.12281297,0.069347684,0.970033955,-0.772589649,-0.643057748,-0.572385955,0.8927446861879356,-0.0072446407611985,0.0562742400669557,0.4469761183422805,3.95,4.0,0.144017255,0.178378229,0.952380826,-0.939829905,0.355132167,0.506953919,0.9505323543928558,0.1028965979909273,-0.0233094706009834,0.2921595487992298,3.945,5.0,0.108051856,-0.631253392,0.741744532,2.031700376,1.50133441,-0.865301893,0.8675447824163993,-0.4267032308712317,0.0884148132134994,-0.2397357379919747,3.945,6.0,0.027386029,-0.405666585,0.891238816,-1.739265635,1.256601198,-0.128859711,0.9685421213635595,-0.2156496735099286,0.1222059491296811,-0.0220699673074191,3.945,7.0,0.168796608,0.097459734,0.96016629,0.030108315,-0.095712152,1.180712377,0.9566438872554516,-0.1076292083564427,-0.2705771106518442,0.0060376880214124,3.945,8.0,0.114522192,0.344280419,0.910580947,-1.765992078,0.650639273,0.289083082,0.9501385006048744,0.2121801575785741,-0.2252847686140386,0.0382515807355922
60,60,4.059,0.0,-0.012487013,0.004099886,0.979662833,0.280886758,0.243193964,-0.414084099,0.9736925804656894,-0.0112071369978362,0.0287661055029176,0.225764634078444,4.06,1.0,0.018948978,-0.000114153,0.979444191,0.662291918,-0.29965035,-0.192041312,0.9598453567131496,0.0153282715698309,-0.0349589572528282,0.2779205040918766,4.06,2.0,-0.285299635,0.082051228,0.933557023,0.613458647,-0.359359815,0.941107222,0.9335929011569336,-0.0318206607049054,0.1511741558239354,0.3233235454967724,4.06,3.0,-0.085163297,0.008820718,0.976032995,-0.981106888,-0.679724662,-1.59520209,0.9269101262483542,-0.0428912919820382,-0.0022617652922157,0.3728174343403678,4.06,4.0,0.119945103,0.062867192,0.970703811,-2.021374439,0.272314256,0.424612042,0.9507366058881894,-0.0035162641507478,-0.04203669859981,0.3071163591889179,4.02,5.0,0.066219894,-0.281732333,0.936290456,7.042312713,2.18328445,-2.613797552,0.9181236085430834,-0.0334065467624605,0.093491846417909,-0.3836565087713288,4.02,6.0,0.046501842,-0.597897631,0.77579701,-3.469844392,0.567868377,-4.054230879,0.8926496388601742,-0.397081740059551,0.0540331056089155,-0.2063568207070834,4.02,7.0,0.170772114,0.061753875,0.962847519,-0.126256744,0.678933933,0.517958956,0.9699012573889564,-0.1074678951616,-0.2172179929151618,0.0236335773586083,4.02,8.0,0.008750767,0.143062659,0.969706399,-4.435840834,1.600909124,-0.533281586,0.99131562256866,-0.0248224311199372,-0.1267456258035956,-0.0247533776333869
61,61,4.114,0.0,-0.014387621,0.007320592,0.979541426,0.290722436,-0.128956989,-0.058302817,0.9746269030647488,0.0056520833435405,0.0236974022610025,0.2225059255444111,4.115,1.0,0.031753047,0.026341206,0.979032116,0.319686089,-0.107455163,-0.246953568,0.962752892315586,0.0328505136634584,-0.032959378098562,0.2663482522664196,4.115,2.0,-0.28228376,0.123080696,0.930167738,0.603904275,0.297566617,-0.295187853,0.9362251365266064,-0.0062539382212134,0.175400144742868,0.3044308972766118,4.115,3.0,-0.059845611,-0.034153258,0.977152014,-0.163565109,-0.199477479,0.117570924,0.9243280982652552,-0.0452239083192582,-0.0118604470697708,0.3787237709320254,4.115,4.0,0.067262208,-0.032265489,0.977358549,-0.708241844,1.323328977,-2.204899378,0.9796134564427056,-0.0539034566376312,0.0068168623881218,0.1934048182080049,4.081,5.0,0.006959619,-0.043525276,0.978617961,-0.455728729,1.108114344,-0.617798179,0.900065231663938,-0.0344714318215697,0.1423211613014098,-0.4104131895830475,4.08,6.0,0.040213141,-0.674835528,0.708729788,0.137491279,1.82769863,0.273798753,0.891072231002487,-0.3668754008235806,0.1394621537711863,-0.2279101293762286,4.081,7.0,0.079454746,0.074973547,0.973819239,-0.553275326,0.970639612,-2.37325109,0.9765925644027796,-0.0950558497954531,-0.1629647538729436,-0.1033142660429724,4.081,8.0,-0.004919426,0.09417484,0.975101481,-1.213561516,0.823112562,1.342466609,0.993661490295775,-0.0852423094412118,-0.0655673671311299,0.0327339541118978
62,62,4.145,0.0,0.001181656,0.017447563,0.979746491,0.014579313,-0.325674431,0.086934372,0.9739280095471636,0.0104030163302662,0.0057236813883619,0.2265463505380234,4.145,1.0,0.042586623,0.047086406,0.977905031,0.421717316,-0.15339486,0.238328082,0.958458525834112,0.0543121317315295,-0.0335009155649966,0.278002041825209,4.145,2.0,-0.278105691,0.152183773,0.927419174,0.484436025,-0.430252731,0.394889872,0.9336513466479224,0.0299201508542021,0.160555133806137,0.318782051696573,4.145,3.0,-0.047215436,-0.032450526,0.978408742,0.0518239,-0.304092899,0.967769164,0.9052196077517474,-0.0356441962703572,-0.0201621974316226,0.4229662383793076,4.146,4.0,0.033083851,-0.043997423,0.978454744,0.157726202,-0.105179704,1.669719222,0.9610976233725106,-0.0411249345023556,0.0039912432746303,0.2731010217612005,4.221,5.0,-0.011391396,0.027914249,0.979896439,1.78053522,-0.344132227,-0.684429424,0.8900602937750615,0.0378214737994761,0.0774723899047257,-0.4476161730401807,4.221,6.0,-0.016025064,-0.532010117,0.822436279,3.006035656,0.230419508,-1.533127724,0.91864940942407,-0.222223117166025,0.0918023243616611,-0.3134844206712973,4.221,7.0,0.018082709,0.032437013,0.978830862,-0.409706714,0.935703128,-1.428491547,0.974023080378505,-0.0875355708619552,-0.1062171271409072,-0.1798179207581169,4.222,8.0,-0.021150904,0.029215033,0.979433061,-1.042760459,-0.055935022,-1.078800486,0.9896837938251344,-0.1232197553060016,-0.0689798681342539,-0.0241797008748792
63,63,4.223,0.0,0.024450953,0.019991915,0.979489395,-0.010302655,-0.321470995,-0.415469247,0.9784047444393168,0.0136524076811965,-0.0114008381427969,0.2059315146178062,4.223,1.0,0.053706616,0.075984507,0.975213286,0.308771337,-0.14478812,-0.187480585,0.9599719407470104,0.0705131318561418,-0.0336962676364428,0.2689727360935119,4.223,2.0,-0.245390551,0.181750611,0.931483866,0.372183972,-0.408872795,0.019093513,0.9357578459129484,0.0557432741167125,0.1462201017681545,0.3160215547110958,4.223,3.0,-0.034294728,-0.037109548,0.978999363,-0.301414711,-0.146262028,0.411771785,0.8957162448190173,-0.0453741816546924,-0.0293703740428552,0.441328645722287,4.224,4.0,0.025145032,-0.050297183,0.977319764,-0.511754622,0.67332702,-0.219285001,0.9623351785890426,-0.0729633467314698,0.0262600056757992,0.2605719980843023,4.277,5.0,0.049203103,0.148284072,0.967231042,1.134784385,-0.8825127,-2.164340942,0.8401077031414625,0.0588755345572184,0.0084904716664735,-0.539148059853561,4.277,6.0,-0.033596076,-0.402533925,0.892408955,3.379085914,1.029875852,-0.592834046,0.9304765165556976,-0.0459326230667837,0.0841116918143511,-0.3535942159831051,4.277,7.0,-0.018060986,-0.051936782,0.977996611,-1.3411572,0.489790917,-2.382488056,0.9427902074142066,-0.1270555354831414,-0.0739455961238868,-0.2992249396705637,4.277,8.0,-0.032746787,-0.052729501,0.97728156,-1.473371767,0.471247311,-1.991538721,0.9741702160473296,-0.1773390712703195,-0.052990751367562,-0.1293646947075629
64,64,4.28,0.0,0.03595148,0.009044877,0.978540587,-0.188844823,-0.081645114,-0.455946586,0.9828856533719766,0.0049302464038894,-0.0178043052977969,0.183288002277297,4.28,1.0,0.05652522,0.082008327,0.973883224,-0.069846695,-0.058426925,-0.27629058,0.9639630316197132,0.0661543121126214,-0.034812462736864,0.25531739677827,4.281,2.0,-0.233035985,0.195030785,0.931524676,0.138295953,-0.128266153,-0.54200533,0.9445305984354788,0.0604387800689767,0.1439446003799513,0.2889447256904789,4.281,3.0,-0.017811023,-0.059084712,0.97838324,-0.278747135,-0.198014377,0.01798645,0.89443351847227,-0.0520684715765055,-0.0419134470435815,0.4421773606347651,4.281,4.0,-0.02119127,-0.090523721,0.974917118,-0.734928574,0.803847973,0.038468559,0.9573321173561552,-0.1159426791891832,0.0525921772753494,0.2594351077056702,4.365,5.0,0.058543925,0.179679528,0.961393715,0.487631372,-1.256266803,-0.629567601,0.8215551723626513,0.0449619143971426,-0.0629846598760437,-0.56485259815125,4.365,6.0,-0.021586569,-0.144772264,0.969224954,4.333560113,0.14880634,-2.081991014,0.88483744300729,0.1388372712001793,0.0240434868971461,-0.4440819995404403,4.365,7.0,-0.037690446,-0.149033141,0.96825077,-1.824685801,0.469814061,-0.809995391,0.9189476975551852,-0.1946510071573478,-0.0216033413929535,-0.3423147823441368,4.366,8.0,-0.048806234,-0.156016889,0.966154585,-1.348820989,0.329649788,-2.238146496,0.9438276095989968,-0.222083006634172,-0.0448027014414726,-0.2405437579038704
65,65,4.345,0.0,0.037753795,0.003600959,0.978880322,-0.32285196,-0.060053243,-0.492265276,0.9870061087249996,-0.0099754136704604,-0.0240444004077945,0.1585600809493572,4.345,1.0,0.057787459,0.065399828,0.975771219,-0.23062651,-0.021635594,-0.522945962,0.9712051280235412,0.0534741020347807,-0.0358986933958239,0.2293739381987925,4.346,2.0,-0.235288483,0.183189085,0.933692716,-0.089866198,-0.120393289,-0.846745815,0.9572609192686996,0.0511933472039827,0.1389318846389836,0.2484526213859635,4.346,3.0,-0.004856227,-0.069862066,0.977372349,-0.165980566,-0.239312506,0.021664497,0.8931501034456011,-0.0523410663415726,-0.0533873918187599,0.4435009491355451,4.346,4.0,-0.062402964,-0.134281958,0.968607364,-0.614123722,0.548146629,-0.282525312,0.9561384685780142,-0.1489804398607508,0.0647477726707024,0.2437453248338724,4.409,5.0,0.10991789,0.133101471,0.964740408,-2.258608336,-0.275386337,-1.290688974,0.7871383769151713,-0.0497874104390365,-0.0153045420144711,-0.6145731529629747,4.409,6.0,0.009058768,0.061121738,0.978472826,0.517896455,-1.484537591,-2.890098936,0.8151391876756445,0.112323748147687,-0.0353708792946231,-0.5671687413948961,4.409,7.0,-0.056939669,-0.270126237,0.939269232,-1.197172803,0.146762025,-0.55531533,0.8989169975714832,-0.2380816620083115,0.0082824617473876,-0.3676911129192998,4.409,8.0,-0.035876188,-0.248791259,0.946362409,-1.574709513,0.273209844,-1.479911713,0.9084340455872216,-0.2765627511677131,-0.0249154083977558,-0.3124737619528276
66,66,4.415,0.0,0.045256517,-0.00535109,0.978125357,-0.096746909,-0.201761667,-0.839010601,0.9924807399886444,-0.0110618762333337,-0.0351872458549114,0.1167110679196161,4.415,1.0,0.066178139,0.028548332,0.977021723,-0.428396582,-0.172269978,-0.494845842,0.9773126579193436,0.0322087636581178,-0.0477619377311455,0.2038169804466974,4.415,2.0,-0.234884208,0.153655945,0.938853162,-0.332100275,-0.194653673,-0.917962841,0.9699831860021896,0.0305912151917032,0.1264542231462607,0.2054412954461975,4.416,3.0,0.015325712,-0.087941048,0.975687191,-0.307649187,-0.25689078,-0.615591569,0.9051077457572092,-0.0573173718101569,-0.0709206902637853,0.4152889875154264,4.416,4.0,-0.06355603,-0.160029818,0.964518579,-0.286247239,-0.16646267,-0.147205397,0.9575024089661752,-0.1550183718882326,0.046854207639689,0.2386694878436498,4.448,5.0,0.144527077,0.128177317,0.960745804,-0.909555222,0.326283946,-0.687616375,0.763627888815371,-0.0686796071945513,0.0144717518605692,-0.6418302948420771,4.447,6.0,0.051606498,0.120663233,0.970889877,1.583146751,-0.699295926,-0.044486043,0.8037931221967429,0.1485718559728232,-0.1100641795771733,-0.5654457504447321,4.448,7.0,-0.051216995,-0.317502892,0.925495939,-0.392072884,0.324297311,-0.603400135,0.8853328689111672,-0.2405109768079189,0.0299724528422315,-0.3967894067777555,4.448,8.0,-0.038598581,-0.414430544,0.88724206,-3.018516139,0.852040794,-1.989817763,0.832742030634874,-0.377349440715335,0.0304129773771819,-0.4040088622951053
67,67,4.489,0.0,0.065083364,-0.003622467,0.977172469,0.167558075,-0.360974822,-0.797613569,0.9956580492643324,0.0021099336971874,-0.0518667454112231,0.0772686083437822,4.489,1.0,0.077387423,-0.002279344,0.976942164,-0.533337566,-0.122683797,-0.661933025,0.9837918878032582,0.0062348937048404,-0.0580779638790091,0.1695334707503487,4.489,2.0,-0.226933396,0.121239712,0.945331776,-0.384562765,-0.340005762,-1.001598147,0.9816689123877516,0.0094628755046477,0.106212326783702,0.1579732321560346,4.49,3.0,0.034926587,-0.093296526,0.975334246,0.071341623,-0.2382131,-1.08668337,0.9264054270737124,-0.0429495857798823,-0.0792173099740011,0.3655857431167033,4.49,4.0,-0.051938975,-0.164260824,0.964896225,0.162825439,-0.052427018,-1.262493615,0.9733231273867312,-0.1424044201347027,0.0329963679944334,0.1768454424614548,4.521,5.0,0.141042229,0.095443985,0.954881948,1.331027787,0.890505119,-2.997220381,0.6706956935860883,0.0072039022105339,-0.0069299069851061,-0.7416652659975352,4.521,6.0,0.091267288,0.382377718,0.924515853,3.326195359,0.703984688,-2.591027041,0.7091500801687045,0.2988585448949959,-0.1439127581562065,-0.6221566137073838,4.521,7.0,-0.06104529,-0.865292749,0.87555921,-5.284288653,-2.277144589,-2.505108499,0.7583461960012668,-0.492394529929367,-0.0018082571659002,-0.4271479885380095,4.521,8.0,-0.115126146,-0.454773588,0.907365943,-0.707426328,-0.428256123,-12.82566441,0.5352761983900236,-0.3871445842392758,-0.2108675532282876,-0.7205090820571506
68,68,4.55,0.0,0.091989572,0.013415018,0.974986131,0.040577217,-0.447141449,-0.786509593,0.9965689086826756,0.0087282384737241,-0.0730430310192565,0.0379334116536705,4.55,1.0,0.074036416,-0.032108212,0.976845265,-0.551407988,0.271022799,-0.887432006,0.9908814361722764,-0.0224157546057375,-0.0484039272502424,0.1237278191086222,4.55,2.0,-0.207796543,0.071630707,0.954856868,-0.536208947,-0.333957052,-1.103170949,0.9905897587461796,-0.0193386300403252,0.084701297071991,0.1057527187814646,4.55,3.0,0.059259126,-0.070112025,0.974696702,0.403665486,-0.478962007,-1.208907622,0.9462986091585476,-0.0081246942272265,-0.0910454400739223,0.3101026595984916,4.551,4.0,-0.021388876,-0.137189165,0.969234053,0.573822318,-0.804272649,-0.020411961,0.978612414330155,-0.0999479346952548,-0.0048843948214935,0.1797339577160807,4.594,5.0,0.120051152,0.060854743,0.969611479,-0.442354619,-0.118707952,-0.955941764,0.6355277049645233,-0.0141751784546757,-0.0004845132017147,-0.7719477740011051,4.594,6.0,0.125276854,0.170511262,0.956717628,-1.472188678,-0.970197226,-1.840040754,0.6730769469058744,0.2073451021899982,-0.1073170581995322,-0.7017538608095321,4.594,7.0,-0.059268946,-0.247984133,0.946431752,3.366242623,0.098215591,-0.643911741,0.8395971065584896,-0.3115719974615225,-0.0707761274887222,-0.4393066455611037,4.594,8.0,-0.048602626,-0.610818355,0.764031886,-3.169425717,1.435784132,-2.360021209,0.4279499730468528,-0.3702550448950232,-0.077177427977147,-0.8208615394266043
69,69,4.64,0.0,0.116960762,0.01752322,0.973098719,-0.301120709,-0.343394014,-1.358004123,0.9955285425107904,-0.0004393826284547,-0.0891829501934884,-0.031130842970167,4.64,1.0,0.07193736,-0.057716966,0.975958897,-0.126564813,-0.061647512,-1.179766929,0.996184654195652,-0.0256768672295606,-0.0528524911121727,0.0645247814223499,4.641,2.0,-0.210094393,0.058705846,0.955674092,0.279240629,-0.060129145,-0.963278104,0.9947057045292382,-0.005426589853014,0.0853960760776806,0.0569089069486832,4.641,3.0,0.066300069,-0.035195945,0.977576363,0.442173849,0.307889967,-0.969362943,0.9621110737145432,0.0129859916208691,-0.0632529645453366,0.2649013181048708,4.641,4.0,0.053387963,-0.080988391,0.974792596,0.956592959,-0.918918919,-1.497368691,0.9922897876850796,-0.0369644823290593,-0.0476093779922681,0.1082956667149416,4.619,5.0,0.140129963,0.016451991,0.968499316,-0.971261929,-0.568759521,0.787254539,0.6653420688881004,-0.0720084766720426,0.0155900781158933,-0.7428941109737071,4.619,6.0,0.160715343,-0.001286979,0.967228475,-1.817584551,-0.933515372,-0.366130181,0.6793694040184881,0.0897988578217057,-0.0688793217816998,-0.7250165632924358,4.619,7.0,-0.068224531,0.116630372,0.970139562,5.62216702,1.017758549,-0.570338194,0.9016240520381678,0.008834181275774,-0.1343243088347917,-0.4110389349970602,4.62,8.0,-0.053586492,-0.726762256,0.655159608,-3.082476713,1.988403845,1.670823564,0.4656465107482538,-0.3599754110637236,0.1632437183509678,-0.7917970187342394
70,70,4.749,0.0,0.122498991,0.025718654,0.972020343,0.011734447,0.027602757,-1.347630737,0.9915713240586028,0.0073331347796516,-0.0845368403521286,-0.0979084116011043,4.75,1.0,0.091351031,-0.037032498,0.975446863,0.236415672,-0.331316978,-1.719800794,0.9974112125516664,-0.0072153553788151,-0.0685251779673204,-0.0205696793246418,4.75,2.0,-0.202697964,0.084812376,0.95373969,0.83781851,-0.111622286,-1.021624202,0.9956246207281034,0.036519488409955,0.085973567304485,0.0025470161438026,4.758,3.0,0.045041224,-0.006965785,0.977922168,0.397789054,0.21085184,-3.032459484,0.9921743258616604,0.0382907283527831,-0.0369688933322562,0.1129479001529506,4.758,4.0,0.100495758,-0.02187213,0.974441487,0.986283436,-0.837882589,-1.690435802,0.9959757912354202,0.0240066703913083,-0.08218794637097,0.0264772453443431,4.65,5.0,0.187680898,-0.097733237,0.95672467,-1.964679066,-0.742746331,1.182409393,0.7021947397039018,-0.1709330216255486,0.0681043266659772,-0.6877981174294556,4.649,6.0,0.21210661,-0.087135053,0.952598167,-0.970204025,-0.303553033,-1.682557818,0.624029774607957,0.0358171848022313,-0.0369853999272387,-0.779702539349339,4.65,7.0,-0.10904163,0.223393828,0.947655592,1.678079714,-0.213154636,-2.604617926,0.8420907743428465,0.1038770555133887,-0.1508898309021038,-0.5072720611613339,4.65,8.0,-0.139863337,-0.780186077,0.574865142,1.190832838,0.683953556,-1.85904006,0.4183640088223712,-0.3105606117559436,0.1231962717939539,-0.8445983312580715
71,71,4.791,0.0,0.104903462,0.037434962,0.973478242,0.011721385,0.310358462,-0.926539701,0.9873938919929348,0.0139702050908902,-0.0656112334752166,-0.1433642265930506,4.791,1.0,0.107138417,-0.030184755,0.973753686,-0.342038874,-0.035732375,-1.974096671,0.990215120862448,-0.0183430743410332,-0.0700097670347722,-0.119315458172125,4.791,2.0,-0.255127542,0.102757963,0.939629575,0.677274743,0.727214686,-2.093403553,0.9839242806100712,0.0621523380472532,0.1322502566535121,-0.1026643390681211,4.792,3.0,0.029317462,0.042955761,0.979188076,0.883895729,0.619207417,-0.899736064,0.994394691999666,0.0788307673945022,0.004899755963878,0.0702915288379573,4.792,4.0,0.170554775,0.065238657,0.963020242,0.940373995,-1.318453143,-2.467864237,0.9828482730513918,0.0829022280032243,-0.1351229684766463,-0.0942246047593588,4.769,5.0,0.197090775,-0.257846016,0.924703551,-1.612584664,-0.601482849,0.2582944,0.6988788612806082,-0.2466247657191363,0.1009708238602649,-0.6637389960805988,4.769,6.0,0.23433457,-0.135464321,0.941408905,-0.356622844,-0.30590853,0.722817454,0.6533649728377402,-0.0064823413195014,-0.0317181827489611,-0.756350545979085,4.769,7.0,-0.164070719,0.354442271,0.898389935,2.073347954,0.781701043,0.141526738,0.8370757089727022,0.2187265004534711,-0.1590729567194401,-0.4755615311268991,4.77,8.0,-0.092769008,-0.723897236,0.653571498,2.178044428,0.0452866,-0.179247775,0.4544830118307608,-0.2499197880909716,0.0536962355110667,-0.8532889345173441
72,72,4.864,0.0,0.08717452,0.033855063,0.97484534,-0.119886081,0.183677304,-0.536262376,0.983943305135114,0.0108180171347908,-0.0535029465557534,-0.1699293308846706,4.864,1.0,0.107657257,-0.044656861,0.973216153,-0.280765127,0.018697801,-1.080591113,0.9821814369758228,-0.0292887982464532,-0.0670982666547332,-0.1730884564877633,4.865,2.0,-0.310366819,0.116925499,0.922720903,0.607164959,0.635964217,-1.160859797,0.9687714691362804,0.0884327246459363,0.1668045517221598,-0.1607412060549441,4.865,3.0,-0.026416552,0.101953136,0.972403581,0.858029492,0.908357564,-0.474642374,0.9904901869506728,0.1150945070690784,0.056839324520571,0.0495149995960084,4.865,4.0,0.324095477,0.147440569,0.912989266,1.012449809,-3.340427363,-0.135288206,0.942160767365828,0.1127672897628148,-0.2984013117734508,-0.1028264748402229,4.833,5.0,0.215708473,-0.337887616,0.894032333,-1.968060272,0.037249471,0.800288342,0.7006308282994584,-0.3059074327245557,0.1736701935132124,-0.6207863955704648,4.833,6.0,0.245589999,-0.180683582,0.931184727,-0.284536858,-0.270871807,0.911365268,0.6877747648110601,-0.043227868992453,-0.0268105603257061,-0.7241397780031725,4.833,7.0,-0.154161604,0.359673775,0.897726002,-0.70859339,-0.964779906,0.693986944,0.8537438255635326,0.1582731524404267,-0.1761283753887891,-0.4637347139384968,4.834,8.0,-0.136557324,-0.530635109,0.812525371,4.3834304,-0.287786948,2.183478409,0.6195606088492133,-0.1114337567087471,-0.1083630402192443,-0.769405368672854
73,73,4.928,0.0,0.088026885,0.028483001,0.975489101,-0.170041928,0.047500333,-0.226794074,0.9821726336676792,0.0030648995746878,-0.0490146390879254,-0.1814527189654994,4.929,1.0,0.108844927,-0.050386046,0.972341004,-0.111543339,0.032836565,-0.258249372,0.9799008834102798,-0.034168676453175,-0.0632895145556413,-0.1860677231238737,4.929,2.0,-0.341197356,0.126295421,0.90958003,0.19029015,0.434070187,-0.266332655,0.961854391628706,0.0993345667986424,0.1871668406435145,-0.173024122326984,4.929,3.0,-0.070053508,0.15767395,0.964657158,0.802947433,0.522858954,0.52569386,0.982441750719428,0.1510212991998362,0.078793992027767,0.0761070328660057,4.929,4.0,0.506517361,0.213761018,0.810769628,0.67601727,-2.876492753,-1.274570775,0.8828774669136928,0.1434123137496014,-0.4157501156023612,-0.1646576085629518,4.912,5.0,0.199760151,-0.460080097,0.841395381,-1.642715366,0.162624625,0.649653264,0.6949059295981631,-0.346785490136846,0.2327406996132864,-0.5853864873597427,4.912,6.0,0.244281383,-0.234007528,0.920283154,-0.74308242,-0.082850816,0.604795526,0.7079429947676938,-0.086677742354836,0.0022905696552174,-0.7009268424238524,4.912,7.0,-0.030844945,0.263298716,0.942568499,-2.789226597,-2.164874845,2.239162982,0.9018165503082418,-0.0417690690640947,-0.1914170732077642,-0.3851516046237311,4.912,8.0,-0.030262037,-0.171036215,0.963233524,5.399331751,-1.801888764,-0.816855856,0.6145138202569648,-0.0048757104339738,-0.3556762863447112,-0.704161466918625
74,74,4.957,0.0,0.084290262,0.017920643,0.976177751,-0.036834411,0.097185329,0.084104603,0.9831829014886292,0.0017411859400042,-0.0434066654425788,-0.1773815432537414,4.957,1.0,0.109474331,-0.05521886,0.972838758,-0.060311771,-0.004397673,-0.238532095,0.9775782556213448,-0.036793931593015,-0.062023598412315,-0.1978384036890853,4.958,2.0,-0.381274313,0.137880386,0.892012274,0.229582702,0.715659609,0.137981107,0.9546751780413362,0.1183536446262258,0.218030113492808,-0.164470632168011,4.958,3.0,-0.073337259,0.197346561,0.956638375,0.43751502,0.06234524,-0.02572906,0.979926248434878,0.1668605677465225,0.0804112173214146,0.0737301477588533,4.958,4.0,0.571255649,0.300236604,0.736124286,0.42840555,-1.490482285,-1.986417788,0.8340870798768097,0.1863277551662761,-0.4543157200789363,-0.2513522176676192,4.934,5.0,0.169131228,-0.55360791,0.790953165,-1.768546469,0.546370229,-0.055649656,0.6587528289211446,-0.3841832245797522,0.2913629346397232,-0.5775427262618943,4.934,6.0,0.245460405,-0.293058615,0.902239346,-0.838010781,-0.119340521,0.3337518,0.7153253966750924,-0.1320037341932398,0.0309457035506652,-0.6855121840364446,4.934,7.0,0.174206842,0.056741549,0.962566036,-1.684952793,-3.101901797,3.119396908,0.9164429502978386,-0.2033822420466287,-0.2572845993647211,-0.229287194145715,4.935,8.0,0.107686897,0.405883324,0.885593733,3.45945835,1.167425562,1.383615526,0.6822859585405633,0.138340247629731,-0.428084900096993,-0.5762735157658013
75,75,5.03,0.0,0.068756102,0.020866668,0.976281814,0.114265603,0.294118631,-0.175186228,0.9821261397978226,0.0105912738103913,-0.0291848730044558,-0.1856456668834873,5.03,1.0,0.1124035,-0.039555748,0.972543981,0.543354917,-0.021693089,0.461394759,0.982529829344038,-0.0111630154330941,-0.067187972518082,-0.1731943933403312,5.03,2.0,-0.40407846,0.160417028,0.878408205,0.21822634,0.328324647,0.908275055,0.9569339525042128,0.1412623537233025,0.2229819674660449,-0.1208362534597492,5.031,3.0,-0.056665287,0.187364643,0.960160682,-0.497772146,-0.427345688,-0.301266579,0.9876167645298464,0.1352007170282784,0.0550599216152137,0.0574656207341735,5.031,4.0,0.63922399,0.309203695,0.676141823,0.075749265,-1.167421477,0.66438988,0.8209515419220792,0.1492624863745113,-0.5012394771970026,-0.2291686332732628,5.04,5.0,0.140762975,-0.639770374,0.728237361,-1.22764189,0.74789383,-0.132871958,0.6241922872179683,-0.3965097966565323,0.3370517196929481,-0.5827178631078879,5.04,6.0,0.237666456,-0.336598074,0.888653697,-0.578587603,0.237072558,0.248839342,0.7186681438611385,-0.1524013692507319,0.0613300633909087,-0.6756689610853491,5.041,7.0,0.218535971,0.096141814,0.95109662,0.652745852,0.558887437,-0.843063027,0.9254840506388536,-0.1348345406585757,-0.2312459927814271,-0.268000390822519,5.041,8.0,0.056268383,0.376936563,0.902452601,-2.526295934,1.729670592,3.669968455,0.8489830734727875,-0.0016738445752462,-0.2547580392760122,-0.4629506243923638
76,76,5.09,0.0,0.050110911,0.036585607,0.976803148,0.292848806,0.296153997,-0.159596325,0.9806887861463776,0.0282314964913363,-0.0170940654524663,-0.1927700190872815,5.09,1.0,0.105110346,0.006318684,0.973132514,0.6642176,0.122468671,0.13038205,0.9839551525931052,0.0226439809370227,-0.0656496527734443,-0.1643460705448398,5.09,2.0,-0.40370882,0.194958606,0.871426606,0.222848395,0.080388403,0.977723688,0.9601762820349876,0.1618654329218592,0.2148101914244335,-0.0756152808808182,5.09,3.0,-0.01377872,0.129273341,0.970703121,-1.080339146,-0.906846496,-0.970693941,0.997242674964858,0.0737476263075789,0.0057231673111191,0.0059649139860375,5.09,4.0,0.681755799,0.228628458,0.665526903,-0.968021551,-0.21158308,1.81034485,0.8511181401569357,0.0493419957539501,-0.4926387875397295,-0.1745574517521411,5.072,5.0,0.128414762,-0.617443661,0.750441853,2.78095508,0.166487539,-0.473963864,0.666903595701011,-0.2953807024679837,0.2403914148640561,-0.6404699854874076,5.072,6.0,0.200009177,-0.44383488,0.850637954,-2.588218161,0.339518724,1.590021094,0.7472581480230842,-0.2414942642589987,0.1821436874602225,-0.5917004796867311,5.072,7.0,0.177125288,0.118128616,0.956640613,0.364770774,0.16342209,1.695385983,0.9534084050768816,-0.1181382580751149,-0.2050949269786521,-0.1870610489528905,5.072,8.0,0.056311912,0.251690222,0.945561209,-1.996931787,0.529822671,0.857325545,0.8749673523096505,-0.0779964009231983,-0.1655457317679286,-0.448267001382757
77,77,5.166,0.0,0.033465332,0.048230059,0.97795702,0.089793731,0.202210206,0.491106268,0.9851573775013136,0.0334353154718165,-0.0092586577706171,-0.168110970761341,5.166,1.0,0.099909544,0.025638975,0.974427897,0.152324325,0.035375065,0.019011601,0.984176047647081,0.0285595362124516,-0.0638751248664995,-0.1627938222181338,5.166,2.0,-0.407389293,0.230943667,0.86120264,0.147422365,0.233612473,0.936466059,0.9596881786505468,0.1774038942018445,0.2158581952505241,-0.0305237223091111,5.166,3.0,0.018785052,0.075896991,0.976750105,-0.685140391,-0.510264907,-0.220166166,0.9991061799853096,0.0360352119281483,-0.0210804561852858,-0.0066271399167155,5.166,4.0,0.701133243,0.171948885,0.663089554,-0.416817145,-0.092948637,0.686511982,0.8609123152592522,0.0107727630272144,-0.4843325020132574,-0.1553575247784652,5.151,5.0,0.163950308,-0.199813906,0.944299052,7.896549788,0.223384482,0.186220264,0.7830518544792027,0.0440021630044791,-0.0230944878358928,-0.6199679406866188,5.15,6.0,0.142562195,-0.615691026,0.748196218,-3.175163071,0.698457219,1.872508875,0.7484496690394211,-0.3272101374884187,0.3270074377400633,-0.4752081170416493,5.151,7.0,0.172626441,0.126233389,0.956370348,1.202670655,1.252633224,0.878141711,0.9792381745725603,-0.0398260935589686,-0.1414143025754689,-0.1396727416453383,5.151,8.0,0.029856473,0.106261356,0.973855285,-1.193259873,-0.701487427,0.840603515,0.8844729136204603,-0.1416927579950687,-0.1514256571837771,-0.4179726040662785
78,78,5.269,0.0,0.028418574,0.051150686,0.977943757,-0.019401192,0.05642728,1.135038035,0.9932443516124272,0.0313504248182023,-0.0090101345194074,-0.1113625894529667,5.269,1.0,0.111555235,0.026179229,0.972983596,0.161021425,-0.300095391,1.182952975,0.9909255733426146,0.0278027708663491,-0.0810382519461727,-0.103567928188568,5.27,2.0,-0.414109536,0.223798806,0.859014194,-0.427314932,0.056767207,0.836959201,0.963882249553542,0.1606847820137918,0.2119510432109877,0.0137173286961197,5.27,3.0,0.029088905,0.074282787,0.975643328,0.267849758,0.033945245,0.696856488,0.9981881985278278,0.0488385637689218,-0.0205667481047184,0.0284977873028075,5.27,4.0,0.701962261,0.154589963,0.665535068,0.934831649,0.646312568,-0.039437283,0.8788855917640266,0.0581059531796641,-0.4540118150085537,-0.134376659533261,5.25,5.0,0.119631774,0.046077251,0.971176671,-0.371737934,1.628580066,-0.632960593,0.7659232033027675,0.0746569725757723,0.0493143550467595,-0.6366758024886527,5.25,6.0,0.046339166,-0.59152298,0.779309467,3.209537012,0.186413568,-1.60060871,0.7558404044062079,-0.2192644719588898,0.22274067337736,-0.5753390016564577,5.25,7.0,0.053780273,0.129814341,0.970036555,-1.597128988,1.108376259,-1.597047441,0.96675087235376,-0.0879694996109265,-0.0727574377308997,-0.228824109735582,5.251,8.0,0.047359594,0.073082291,0.975193339,-0.428481771,0.173300201,0.358342888,0.8931509833470633,-0.1439285056062785,-0.1211544013700998,-0.4085186865355978
79,79,5.299,0.0,0.037857022,0.052050925,0.977619326,0.197345852,-0.220348781,0.622199064,0.9957149536523812,0.0389412420380912,-0.0236036834793209,-0.0804871223723096,5.299,1.0,0.133991648,0.040831818,0.97035509,0.514947354,-0.231238591,1.293863595,0.9935710363524214,0.0454765702816845,-0.0968496348512504,-0.0369949389264234,5.299,2.0,-0.379633162,0.242518542,0.87023699,-0.428708301,-0.158862773,1.512132106,0.965719154739851,0.1520638379722013,0.1906640619201409,0.0889399732506372,5.299,3.0,0.024806423,0.074584811,0.976895976,-0.205778529,0.23160846,1.440135347,0.9942593541965404,0.0356342811642617,-0.0109617099797008,0.1002914528407372,5.3,4.0,0.719851639,0.136239548,0.651070199,0.771988543,-0.613975697,1.628597094,0.8728750207723643,0.04702146585263,-0.4836267524820021,-0.0445347520979568,5.333,5.0,0.084323243,0.102851327,0.971285846,0.890275975,0.449399537,-1.604020607,0.711307628436956,0.1104768071867305,0.0350048076345,-0.69326113135217,5.331,6.0,0.119730747,-0.478430162,0.846217542,1.877326501,-0.164967261,-1.386687154,0.7360132302006335,-0.1715750287549892,0.1396851002475576,-0.6397926283149749,5.334,7.0,-0.003728041,0.005064448,0.979847668,-2.165954438,0.528598352,-3.760931456,0.9001784534384611,-0.1559880118236307,-0.0459016948633365,-0.40402911595716,5.334,8.0,0.035176185,-0.011098062,0.979096251,-1.491231373,0.096920292,-1.389863954,0.8549642664005692,-0.1844541294535219,-0.0892845429071749,-0.4764882450843218
80,80,5.405,0.0,0.048997364,0.054515015,0.975664579,-0.075584244,-0.088387255,0.125146935,0.9962645648296872,0.0333548713655688,-0.0282706237016364,-0.0744657052368479,5.405,1.0,0.14755469,0.061277977,0.966891216,0.323044442,-0.070573462,0.466651549,0.9932287520014756,0.0574258861687155,-0.1002366625783046,-0.012309560125869,5.406,2.0,-0.361008853,0.260575238,0.872899853,-0.047222251,0.100718701,1.077858769,0.9594292891567032,0.1562741496161505,0.1875806747468052,0.1410224086148906,5.406,3.0,0.001513517,0.038842168,0.979325786,-0.653055644,0.458778984,0.202892572,0.9938225854388324,-0.0008407746589687,0.009797143749623,0.1105440081777239,5.406,4.0,0.733926781,0.115538136,0.637566796,0.125160903,0.079480551,0.362308034,0.8788484960479375,0.0435512779986814,-0.4744067146034582,-0.0258239485383756,5.36,5.0,0.111014745,0.19201758,0.95393814,1.392392042,-0.982904365,-0.325339507,0.6960133637492509,0.1166725623547606,-0.0595381632069627,-0.7059802531218339,5.359,6.0,0.096819553,-0.295393968,0.929487158,3.609783743,0.192228652,-0.138804197,0.7595979813249016,-0.0263224740109866,0.0239527105121126,-0.6494184335143237,5.361,7.0,-0.003422923,-0.121221176,0.972858525,-1.211524359,0.258411039,-1.230439056,0.8667362258413679,-0.1905661621888504,-0.0150536470613431,-0.4606801931416485,5.362,8.0,0.037104073,-0.096325234,0.974237002,-1.388836783,0.204445028,-1.970184835,0.797033350119792,-0.2132873718129123,-0.0603182834932719,-0.5617900323950105
81,81,5.435,0.0,0.045296568,0.053948659,0.977391817,-0.135802395,-0.130922109,-0.171214189,0.9956178364637864,0.0255860696905545,-0.0337453444359359,-0.0833770261034732,5.435,1.0,0.144056969,0.067339848,0.965881429,-0.059197907,0.199267283,-0.000985704,0.9947062757803318,0.0522289660816067,-0.0876793820055206,-0.0119952489094117,5.436,2.0,-0.357982439,0.277425376,0.86891066,0.03394888,0.086340691,0.368796865,0.9559987412035847,0.1570270392426472,0.1908794668411797,0.1580314680760663,5.436,3.0,-0.023832225,-0.003519997,0.97952674,-0.604108057,0.246076958,0.198307609,0.9920034526456724,-0.032294895864655,0.0191887337719634,0.1204905894100655,5.436,4.0,0.732261495,0.106385945,0.641863797,0.144827366,0.104497504,0.203067161,0.8844071666466208,0.0454906012770019,-0.4642904948478545,-0.0137442778452577,5.476,5.0,0.14291995,0.198519171,0.948480378,-0.029997744,-0.760369186,0.562716247,0.7152297973392436,0.0776192874125934,-0.0944157182048762,-0.6881186346666416,5.476,6.0,0.137016583,0.010044921,0.970049254,3.934956735,-0.565666112,-0.77938,0.7383781972111242,0.0981319765784321,-0.1284306664735675,-0.6547314846295507,5.477,7.0,-0.005350274,-0.19663004,0.959905205,-1.078480222,-0.097630473,0.202633683,0.8627770169650092,-0.2293788527650669,0.0142642433071155,-0.4503306477067906,5.477,8.0,0.035499937,-0.168661342,0.964546062,-0.793002328,0.056438072,-0.440928588,0.7796438006125713,-0.2286239697706181,-0.0318816690515997,-0.582125573902395
