,timestamp,node,accx,accy,accz,gyrox,gyroy,gyroz,q0,q1,q2,q3,timestamp,node,accx,accy,accz,gyrox,gyroy,gyroz,q0,q1,q2,q3,timestamp,node,accx,accy,accz,gyrox,gyroy,gyroz,q0,q1,q2,q3,timestamp,node,accx,accy,accz,gyrox,gyroy,gyroz,q0,q1,q2,q3,timestamp,node,accx,accy,accz,gyrox,gyroy,gyroz,q0,q1,q2,q3,timestamp,node,accx,accy,accz,gyrox,gyroy,gyroz,q0,q1,q2,q3,timestamp,node,accx,accy,accz,gyrox,gyroy,gyroz,q0,q1,q2,q3,timestamp,node,accx,accy,accz,gyrox,gyroy,gyroz,q0,q1,q2,q3,timestamp,node,accx,accy,accz,gyrox,gyroy,gyroz,q0,q1,q2,q3
0,0.0810000000001309,0.0,1.042099204316956e-16,7.92531954476668e-17,1.0,0.0038896822183389,0.0107455763011789,0.0008683280531616,0.9999998358157877,0.00019448407898572842,0.0005372702830471569,4.3416397171976886e-05,0.0810000000001309,1.0,-8.327616871380845e-17,1.0477134582186457e-17,1.0,0.0125014934270304,0.0043111841445859,0.0296994514225318,0.9999986790375842,0.0006250738456513727,0.0002146307049679671,0.0014849711897388937,0.0810000000001309,2.0,-7.06019437171342e-17,-4.880622481450283e-17,1.0,0.0189999670624741,0.0048240568433487,0.0513085691433572,0.9999962295508377,0.0009499947712032079,0.00023876478910417898,0.0025654210996327084,0.0810000000001309,3.0,-2.323190835245134e-18,-6.969631191046485e-17,0.9999999999999998,0.0030493327049186,0.0138626938387119,0.0190952429290771,0.9999992924753521,0.00015246652737202412,0.0006929886322567802,0.0009547614931305603,0.0820000000001073,4.0,7.626935001643657e-18,-3.007980775660511e-17,1.0,-0.0113433023834856,0.0087979035514783,-0.0046832171470095,0.9999997150508434,-0.0005671649575610592,0.0004397622443934332,-0.0002341608659505065,0.02800000000002,5.0,-4.383741144689385e-17,1.0200114215887019e-16,1.0,0.0009343680146138,0.000457437683659,-0.0001197075188421,0.9999999986292152,4.671840066665423e-05,2.2872163778791165e-05,-5.985375946964073e-06,0.02800000000002,6.0,-6.751706741420511e-17,3.5837938389128123e-17,1.0000000000000002,6.540320596863257e-05,0.0051478339526493,0.0096150210838723,0.9999998513090599,3.2701598121902114e-06,0.0002573900872278778,0.00048075098271543,0.02800000000002,7.0,3.13504157399274e-17,1.7660349110462477e-17,1.0,0.0012891430384888,-0.0073401244627158,-0.0066017566977851,0.9999998761046955,6.445714393850242e-05,-0.00036698490114635805,-0.00033008779536434607,0.0289999999999963,8.0,1.495933270895467e-17,6.297514041532233e-17,1.0,0.0015466993405802,0.0004324985727154,0.0008429319475166,0.9999999958877355,7.733496671099132e-05,2.1621669141136785e-05,4.214659745457808e-05
1,0.1150000000000091,0.0,1.326682614678902e-16,1.2186171119768793e-17,0.9796683112155868,0.0006002027952998,0.0182921668097549,-0.0052382949829941,0.9999989776899054,0.0002048652965249733,0.001398205466486223,-0.00021833650113380437,0.1159999999999854,1.0,-0.0007546192090009,-0.0006560289283778,0.980218853203658,-0.0060404930445138,0.0112689648712038,-0.0231553053159932,0.9999996049087212,0.00022593565693843732,0.0007948711794012756,0.0003275901225330997,0.1159999999999854,2.0,-7.113890713396049e-17,-5.572431117553296e-17,0.9802724111184604,0.0004244512754388,0.0086875449009024,-0.0350765324726249,0.9999990759880473,0.0008746830049283702,0.0006508532089932397,0.0008119992567728368,0.1159999999999854,3.0,-0.0012395926857924,-0.0002873925545312,0.9797710859254284,-0.0029605020316361,0.0152633806151303,0.0059091607330168,0.9999981666824076,-2.6055547935282752e-05,0.001449968766197374,0.0012504173339527823,0.1159999999999854,4.0,-0.0012775577858379,-6.047978989636837e-06,0.9788270367176856,0.0051052927214841,0.0126998424664301,0.0394809764255547,0.999997853648921,-0.00025446012729550126,0.0010964779507605287,0.0017394492515359463,0.1240000000000236,5.0,0.0006175888981387,-0.0012716444920458,0.9797336380385429,-0.0162999567020613,-0.0254312995260559,-0.0152358100878664,0.999998531002437,-0.0008378726571927899,-0.0012831293322429806,-0.0007678160556338319,0.1230000000000473,6.0,-7.312628517488984e-17,3.9974132616820526e-17,0.979142992621609,-0.0002181528200052,0.0026973254093269,0.0107356832435339,0.9999994151098069,-7.891165293216483e-06,0.00036651623638522145,0.001017538019854187,0.1240000000000236,7.0,3.0634221330943325e-17,1.4799607428020046e-17,0.979688726075788,0.0046727439710239,-0.0288429867365512,-0.0093907169779973,0.9999980672010075,0.0002913443936809429,-0.0017723729437109136,-0.0007996291901694526,0.1240000000000236,8.0,5.308416705041047e-19,3.9248721796138086e-17,0.9801964088895654,0.0002983309319321,0.003948550757228,-0.0051752887736737,0.999999949446251,8.450409640861766e-05,0.00021690952442215215,-0.0002166028876641514
2,0.1739999999999781,0.0,-0.0021288072505705,0.0006579542817181,0.9798561298863486,-0.0004397909924768,0.0189364669533494,-0.008131890436308,0.9999971086579351,0.0001956250272004932,0.0023139102647874612,-0.0006246806426906007,0.1739999999999781,1.0,-0.0013510324127927,3.816202612944731e-05,0.9806218298891164,0.0073143283700646,0.0130577653568705,-0.0038727499202028,0.999998795205636,0.0005706134753604711,0.0014373887339916263,0.00013379523774630257,0.1739999999999781,2.0,-0.0011381779023353,0.0008619057249307,0.9785514609204689,0.0079152776959327,0.0113009297830682,0.0092482085906002,0.9999977045825452,0.0012268122310033134,0.0012087589171081968,0.0012746227954844066,0.1739999999999781,3.0,-0.0021694997924237,-0.0004569064198905,0.980097487246638,0.0074906185369426,0.0179630166216806,-0.002483082996539,0.9999966352515778,0.00032632910687314243,0.002314276296672445,0.0011256642748025138,0.1750000000001819,4.0,-0.0022092144546243,-0.0001862780085817,0.9791425252086629,-0.0036876990676199,0.0168432697883825,-0.03556721750467,0.9999980251081648,-0.00042652155661799276,0.001940707409508579,-3.890864052420222e-05,0.1990000000000691,5.0,0.0012351777962775,-0.0025432889840917,0.9796948535217253,-0.0099246952701432,-0.020707402491809,-0.0146023578006603,0.9999953866892917,-0.0013800230749711664,-0.0022537464926119487,-0.0014975857883726877,0.1980000000000927,6.0,-7.312628517488984e-17,3.9974132616820526e-17,0.979142992621609,0.0003352821710126,-0.0013971917538733,0.0011069368556542,0.9999993906117174,9.753419806565473e-06,0.0002600215890485853,0.0010728792280467916,0.1990000000000691,7.0,0.0009324444149322,0.0003569253170537,0.97963258579517,0.0016750399173494,-0.0252088411030625,-0.0174219605674096,0.9999943239501924,0.0003646765042156983,-0.002902924857791911,-0.0016709595193143,0.1990000000000691,8.0,5.308416705041047e-19,3.9248721796138086e-17,0.9801964088895654,0.0002983309319321,0.003948550757228,-0.0051752887736737,0.9999998057893382,9.095686290714906e-05,0.0003926663706090646,-0.0004753538220893993
3,0.226,0.0,-0.0007023025604582,0.0036090135744003,0.9803624236944892,0.0402934429772449,-0.018499505666986,-0.0239700587280864,0.9999948042149834,0.0023714580879553547,0.0011948279582232628,-0.0018275983487386208,0.226,1.0,0.000431777092405,0.0010540358795835,0.9815104189854058,-0.0099877504713873,0.0033700444320319,0.0326849409817061,0.999997396184506,7.018917681777188e-05,0.0014399804655639277,0.0017689414762694043,0.226,2.0,-0.0073869217596766,0.0047280743905716,0.9805529453831004,0.0691125451511334,-0.0331838828970703,0.1574415685670598,0.9999466267827338,0.004811755980407912,-0.00022778887227234887,0.009139950899586826,0.226,3.0,0.0043398499539953,0.0007296906376242,0.9778126779981684,0.0063219667448977,0.0438557378995589,0.0081693573005577,0.9999903976046446,0.000645830427367342,0.004053840136909529,0.0015342691120378926,0.227,4.0,-0.004183740510572,0.000421341345134,0.9799981218282058,0.0457172378824815,0.0248904436465126,0.0070487933285305,0.9999929687648029,0.0019242149404645962,0.003203829559640423,0.0003086972164336901,0.2740000000001146,5.0,0.0025173811945109,-0.0027242942813386,0.9802633528866568,-0.0105245265942354,-0.0139435395434187,-0.0209201358709788,0.9999908729198524,-0.00190607628740117,-0.0028549412170751206,-0.0025436707382968707,0.2740000000001146,6.0,-7.312628517488984e-17,3.9974132616820526e-17,0.979142992621609,-0.0011338013727718,-0.0017355758024635,0.0021154793241392,0.9999992933981091,-4.7791344050525446e-05,0.00014718493556936703,0.001178666986390371,0.2740000000001146,7.0,0.0018738099968151,0.0008464382807243,0.9805675766505504,-0.0008774603156546,-0.0215479542974366,-0.0178887172543566,0.9999894898025526,0.00032813298512761145,-0.003785270613410875,-0.0025659967961467597,0.2740000000001146,8.0,5.308416705041047e-19,3.9248721796138086e-17,0.9801964088895654,0.0008581545402523,0.0045207677518335,-0.0119167857033164,0.9999992506036821,0.00012464234239615296,0.0005794917736039852,-0.001071188893272744
4,0.27800000000002,0.0,-0.0030482128782885,0.0008246402163717,0.9794998868640884,0.0052226123968234,0.013190956516115,-0.010246235396284,0.9999925033596669,0.002438414208168813,0.0018911822431831522,-0.0023389720688397333,0.2789999999999963,1.0,-0.0013510324127927,3.816202612944731e-05,0.9806218298891164,-0.0039396179121886,0.0089944350094901,-0.0161277331849328,0.9999978819251085,-0.0001339430109449106,0.0018141359863823032,0.0009628682097578438,0.2789999999999963,2.0,-0.0011381779023353,0.0008619057249307,0.9785514609204689,0.0062848817580683,-0.0004304486513225,-0.0188747635080399,0.9999554072218045,0.004688731843657656,-0.00016067841094475428,0.008195946804460891,0.2789999999999963,3.0,-0.0030994068990549,-0.0006264202852497,0.980423888567848,0.006705822029463,0.014964772663628,0.0038836001985588,0.9999877431380757,0.0008839858818584834,0.004555045624068935,0.0017273395557797567,0.2789999999999963,4.0,-0.0022092144546243,-0.0001862780085817,0.9791425252086629,0.0032293183295542,0.0108018013146787,-0.0014425114266977,0.99999194495625,0.0018833151773949496,0.003536530813612545,0.00023684670834080078,0.5020000000001801,5.0,0.0034096369236675,-0.0022874734702735,0.9801490406265628,-0.0026078904555304,-0.0099797549885138,-0.020321063868202,0.9999864818688045,-0.0019613607005326346,-0.0032437245114931013,-0.0035591284252175087,0.5020000000001801,6.0,-7.312628517488984e-17,3.9974132616820526e-17,0.979142992621609,-0.0017186189838708,0.0034640076050007,0.0019208295582174,0.9999991325268245,-0.00012913309390656677,0.00030557778988689376,0.0012747126958295512,0.5020000000001801,7.0,0.0040909809623743,0.0005030257391719,0.9795846113735512,-0.0015231075127424,-0.0337396917627345,-0.0284025007035426,0.9999779660494331,0.0002453515277341814,-0.005302017527900059,-0.003986957285977172,0.5030000000001564,8.0,5.308416705041047e-19,3.9248721796138086e-17,0.9801964088895654,-0.000130456020653,0.0012549113674989,-0.0112458588807049,0.9999984895987549,0.00010539667933740193,0.0005843542935591236,-0.0016334692554849932
5,0.3530000000000655,0.0,-0.0042576145011411,0.0013159085634361,0.9800439485571106,0.0016149981798741,0.0099901066257909,-0.0176209665740904,0.9999891448731992,0.002342467296840047,0.0024204938756498483,-0.0032193465375406805,0.3540000000000418,1.0,-0.0023792227089897,-0.0003216828989468,0.9797199782690018,0.0041880184427992,0.0097106082910146,-0.018325674564932,0.9999974878398316,7.018805555566029e-05,0.0022399241017264817,4.6126791534174154e-05,0.3540000000000418,2.0,-0.0016980823888197,0.0016677182077385,0.9787442644696214,0.0090969940289858,0.0054853872669741,-0.0128023494735981,0.9999601068453079,0.004757031978671145,0.00022386331496160848,0.007556801564865219,0.3540000000000418,3.0,-0.0043389995848474,-0.0009138128397809,0.9798067860699357,0.0059688284204618,0.011874352235835,-0.0067724005846241,0.9999864110465261,0.0010444441236399284,0.004915460928742117,0.0013874806732779672,0.3540000000000418,4.0,-0.0020980017362494,-0.0011543574214819,0.978917905571074,0.0031820842704796,0.0047764620443593,-0.0050241095941093,0.9999921622498547,0.0017941585040758532,0.0035293360163050074,-1.4879741046178018e-05,0.5890000000001692,5.0,0.0034096369236675,-0.0022874734702735,0.9801490406265628,0.0019223880568584,-0.003621391385686,-0.0171550493854926,0.9999832913445323,-0.0017842764317729815,-0.0032758082162656008,-0.0044161600855821565,0.5890000000001692,6.0,-7.312628517488984e-17,3.9974132616820526e-17,0.979142992621609,-0.003947512960738,0.0023869672019643,0.0051992164582486,0.9999986954296268,-0.0003136678716526241,0.0003941981594152143,0.0015347179942657543,0.5890000000001692,7.0,0.0053846286799519,-6.472447281727304e-05,0.979648917513168,-0.0014855725018266,-0.0274106503082734,-0.0248471330694196,0.9999657265766567,0.0001432643790519578,-0.0064166314110670536,-0.005229912874126239,0.5900000000001455,8.0,5.308416705041047e-19,3.9248721796138086e-17,0.9801964088895654,-0.0007624870883167,0.0041792273144565,-0.0072500338206666,0.9999977364359344,5.68622491696323e-05,0.0007349626634778221,-0.0019959257438984237
6,0.3900000000001,0.0,-0.0039919161486315,0.0022469628350779,0.9797938639139764,0.0052723650758465,0.0096593542570178,-0.014966633446463,0.9999849312578497,0.002486897985931825,0.0028657567097789207,-0.003967371185230526,0.3900000000001,1.0,-0.0023792227089897,-0.0003216828989468,0.9797199782690018,0.0016817570423512,0.0075900688624026,-0.015783370042603,0.999996547911613,0.00012904905120507412,0.002516961624784921,-0.0007432465128764956,0.3900000000001,2.0,-0.0024745532061365,0.001076211969734,0.9789615510091424,0.0081622207198586,-0.0014272331429573,-0.0092569328117838,0.9999635577038355,0.004743878051770515,0.00026219491588764187,0.007092964059102524,0.3900000000001,3.0,-0.0043389995848474,-0.0009138128397809,0.9798067860699357,0.0053545637788861,0.0144504298526317,-0.0002332118386482,0.9999839737364331,0.001159727199022101,0.005368168407027588,0.0013747985562515212,0.3900000000001,4.0,-0.0020980017362494,-0.0011543574214819,0.978917905571074,0.0005086231596315,0.0069938630000648,-0.0011411788976617,0.9999921469760766,0.0015810210999877014,0.0036333459897087486,-7.180095593902101e-05,0.6220000000000709,5.0,0.0036372781527295,-0.0029412918540076,0.97942744448472,0.0036495625254058,0.0013646591661645,-0.0136299123462569,0.9999810719016584,-0.0015718107176537774,-0.003066890389124323,-0.0050970023365959245,0.6210000000000946,6.0,-7.312628517488984e-17,3.9974132616820526e-17,0.979142992621609,-0.0004082180632361,0.0014673018761796,0.000985013375901,0.9999986080526122,-0.0003028051495613641,0.00042812693626273853,0.0015839536628383956,0.6220000000000709,7.0,0.0053846286799519,-6.472447281727304e-05,0.979648917513168,0.0031346144762542,-0.0081893046036041,-0.0186553027596746,0.9999601114278273,0.00028476593365843624,-0.006459777531659057,-0.006161634186781487,0.6220000000000709,8.0,5.308416705041047e-19,3.9248721796138086e-17,0.9801964088895654,-0.0021385530586907,0.0044589442421822,-0.0037844688661848,0.9999972199484419,-5.5445413569261975e-05,0.0008846159694147511,-0.002185057386045748
7,0.4909999999999854,0.0,-0.0049113217763495,0.0024136487697315,0.9794376208917164,0.0031202778019534,0.009878615328626,-0.0122494115616,0.9999808176662967,0.0025186326054358658,0.0033242529935964982,-0.004579315590566612,0.4909999999999854,1.0,-0.0031338419179906,-0.0009777118273246,0.9797332407928272,-0.0026943423583987,0.0075954597554518,-0.0144734012535027,0.9999949878149976,-6.98888896483822e-05,0.0028050554520611345,-0.0014666711753421704,0.4909999999999854,2.0,-0.0019146487196521,0.0002703994869262,0.97876874745999,0.0045511473526414,-0.0026933836371275,-0.0207883947178617,0.9999714886705522,0.004510847203030502,0.00020551689579586337,0.006052426481675961,0.4909999999999854,3.0,-0.0052689066914787,-0.0010833267051402,0.9801331873911454,0.0043370704157763,0.0149415097198816,-0.0066200117801333,0.9999816349110777,0.0012021702627848477,0.005847819532052821,0.0010428969019047744,0.4909999999999854,4.0,-0.0020980017362494,-0.0011543574214819,0.978917905571074,0.0012556178494956,0.0054714532398919,-0.013635341488333,0.9999920340935948,0.001424291030195447,0.0036517143592093284,-0.0007537417693155397,0.6639999999999873,5.0,0.0034096369236675,-0.0022874734702735,0.9801490406265628,0.0080220868981413,0.0067002629801256,-0.0064426515386344,0.9999813015482858,-0.001128411261432433,-0.002600938620166358,-0.005418335548433634,0.6639999999999873,6.0,-7.312628517488984e-17,3.9974132616820526e-17,0.979142992621609,-0.0033463851508051,0.0007905337789991,0.003002098312871,0.9999983095251488,-0.0004398419648682527,0.0004246418769768397,0.0017341179795745496,0.6639999999999873,7.0,0.0044521842650197,-0.0004216497898709,0.9797050577937856,0.0058578082615802,-0.0058985320214836,-0.0179296920780199,0.9999548847178314,0.0005302230372140211,-0.006337133385544042,-0.007056070643989999,0.6639999999999873,8.0,5.308416705041047e-19,3.9248721796138086e-17,0.9801964088895654,0.0004400045271746,0.0044719556552458,0.0036197641658356,0.9999974715112758,-2.7252023923643275e-05,0.0010197084747542527,-0.0020041015466009376
8,0.5670000000000073,0.0,-0.0052013177714841,0.0027382311821423,0.9803379256069984,-0.0007842313885476,0.006028974273991,-0.0132823549453159,0.9999771182951002,0.0023676009675038597,0.0035596568196112816,-0.0052427278407812345,0.5670000000000073,1.0,-0.0031338419179906,-0.0009777118273246,0.9797332407928272,0.0034445527007541,0.0057323309053508,-0.007375496422742,0.9999938994092358,5.905080372033157e-05,0.00297093994564873,-0.0018360754758659794,0.5670000000000073,2.0,-0.0024745532061365,0.001076211969734,0.9789615510091424,0.0077077206547358,0.004894140926289,-0.0089343146733211,0.9999740127635414,0.004497772658500269,0.0005607234897388167,0.005606195489056731,0.5670000000000073,3.0,-0.0052689066914787,-0.0010833267051402,0.9801331873911454,0.0054123245442808,0.0136676189016579,-0.0138431699032746,0.9999797825420135,0.0012922633838235245,0.006216310930019989,0.0003493436641826091,0.5670000000000073,4.0,-0.0030296584050358,-0.001334587451074,0.9792333940620508,0.0010440768841054,0.0090914352867439,-0.0293416981466575,0.9999891429220469,0.0012610241773966374,0.0038976657470492357,-0.0022208236711195976,0.6870000000001255,5.0,0.0034096369236675,-0.0022874734702735,0.9801490406265628,0.0025220744562786,-0.0020133275546066,-0.0063293569225874,0.999979630930234,-0.0010068211244892008,-0.0026158099208004673,-0.005734245749405657,0.6870000000001255,6.0,-7.312628517488984e-17,3.9974132616820526e-17,0.979142992621609,-0.0014556178484164,0.0046239210158418,0.0095795491942949,0.999997253183273,-0.00046883599256807506,0.00061347146060554,0.002213023155718293,0.6870000000001255,7.0,0.0044521842650197,-0.0004216497898709,0.9797050577937856,0.0016337336907542,-0.0156782247645417,-0.01658340189357,0.9999462275944542,0.0005354866067871985,-0.006714492734479758,-0.007884843754481303,0.6880000000001019,8.0,5.308416705041047e-19,3.9248721796138086e-17,0.9801964088895654,-0.0008448317780685,0.0025724641137432,0.0028322086094634,0.9999977158976618,-6.636614044689807e-05,0.0010464546635541112,-0.0018624520481466305
9,0.5940000000000509,0.0,-0.0052013177714841,0.0027382311821423,0.9803379256069984,-0.0048190672922847,0.0098747844041057,-0.0074386888657598,0.9999743266944882,0.0020322031796386896,0.003963978912754561,-0.005612750958406352,0.5950000000000273,1.0,-0.0031338419179906,-0.0009777118273246,0.9797332407928272,0.0037348850125781,0.0053672328611824,-0.0089155154599758,0.9999925659072435,0.0001894544353962641,0.0031019717053868724,-0.0022825443704024735,0.5950000000000273,2.0,-0.0019146487196521,0.0002703994869262,0.97876874745999,-0.0025424114086793,0.0076119917827166,-0.0229028610602364,0.9999818283714609,0.003931367443930897,0.0009869173645646243,0.00446242882367934,0.5950000000000273,3.0,-0.00619881379811,-0.0012528405704994,0.9804595887123554,0.0035718365022038,0.0091730126947306,-0.0080529294055378,0.9999788971086159,0.0012749666975412923,0.006369993269678202,-5.461777134654507e-05,0.5950000000000273,4.0,-0.0030296584050358,-0.001334587451074,0.9792333940620508,-0.007308324423584,0.0088900943906621,-0.013183966387181,0.9999871720137808,0.0007001296489633555,0.0041085185716502465,-0.0028784894480188856,0.70900000000006,5.0,0.0034096369236675,-0.0022874734702735,0.9801490406265628,0.0133717684601005,0.0081916953142336,0.0028428754363111,0.9999820590691673,-0.00035327002152289814,-0.002121695981502902,-0.005590630218715838,0.70900000000006,6.0,-7.312628517488984e-17,3.9974132616820526e-17,0.979142992621609,-0.0024239829903746,-0.0019081049908252,0.0239183921157991,0.9999939376968893,-0.0005422058528902905,0.0004570996539312934,0.0034090529754608957,0.70900000000006,7.0,0.0035197398500875,-0.0007785751069246,0.9797611980744036,0.0014123916876525,-0.0122381132726235,-0.0170416073129699,0.9999383505582958,0.0005123050057606531,-0.006834350379684642,-0.008736376893395396,0.70900000000006,8.0,5.308416705041047e-19,3.9248721796138086e-17,0.9801964088895654,-0.0031922640489226,-0.0010459891290986,-0.0027125528703989,0.9999975842170788,-0.0002195816826483458,0.0008897774517966373,-0.0019979089010727764
10,0.6539999999999964,0.0,-0.0052013177714841,0.0027382311821423,0.9803379256069984,-0.0022658985610606,0.0026325921316861,-0.0051684581760923,0.9999731853990583,0.0018565479769544768,0.003964813593790585,-0.00587043146935769,0.6539999999999964,1.0,-0.0031338419179906,-0.0009777118273246,0.9797332407928272,-0.0026744413093601,0.0078362117579457,-0.0014322942693384,0.9999916386331911,-1.2070753651313646e-05,0.0033439330604417075,-0.0023538542201642703,0.6549999999999727,2.0,-0.0019146487196521,0.0002703994869262,0.97876874745999,0.0014457639755687,0.0007354018340077,0.0119877920875789,0.9999801012366509,0.003624327243199931,0.001021014967684631,0.0050615127390109625,0.6549999999999727,3.0,-0.0065084993772711,-0.0013707192596714,0.9795160848932328,-0.0062119027088554,0.0085163574312095,-0.0036496762626933,0.9999786110385526,0.0007657974136750335,0.006491192886750663,-0.0002354456109909618,0.6549999999999727,4.0,-0.0030296584050358,-0.001334587451074,0.9792333940620508,0.0004660265094119,0.002524062163535,0.0476285375684174,0.9999917893882381,0.000595865413836605,0.003977263078435362,-0.0004974725350916406,0.7710000000001855,5.0,0.0034096369236675,-0.0022874734702735,0.9801490406265628,0.0024592679467801,-0.0006794883638699,0.0074382546975756,0.9999840939809729,-0.0003136202913375117,-0.002117349562400154,-0.0052182619900302775,0.7710000000001855,6.0,-7.312628517488984e-17,3.9974132616820526e-17,0.979142992621609,-0.0033575484678543,-0.0002736348939195,0.0140457987684131,0.9999912541964259,-0.0006554935987771436,0.00039759613676897717,0.004111420206361089,0.7710000000001855,7.0,0.0022260921325098,-0.0002108248949354,0.9796968919347868,0.0086734421771431,0.0025787527926149,-0.0322961778599987,0.9999272204724192,0.0008951277672085607,-0.006137859111414832,-0.010347907523286922,0.7720000000001619,8.0,5.308416705041047e-19,3.9248721796138086e-17,0.9801964088895654,-0.0099577950106841,-0.0120585586867294,0.0164361046217617,0.9999990469819894,-0.0006959859957870826,0.00019943837998648794,-0.0011755266645359157
11,0.7350000000001273,0.0,-0.0051770201288591,0.0014825944980898,0.9796877055348504,-0.0138713960286754,-0.0004285482311352,-0.0163329050590393,0.9999698262279355,0.0010511963165489818,0.0038155997652361733,-0.006684520806188487,0.7350000000001273,1.0,-0.0038884611269916,-0.0016337407557024,0.9797465033166524,-0.0043260323506983,0.014509051930699,-0.0153717011775222,0.9999873404261206,-0.00031093181450910255,0.003933889384463792,-0.003121990264467941,0.7350000000001273,2.0,-0.002691119536969,-0.0003211067510782,0.9789860339995112,-0.0038040082940982,0.0077343682531123,-0.027078024055242,0.9999874218838744,0.0030512604643339863,0.0014461535485339725,0.003708709146768144,0.7350000000001273,3.0,-0.0074384064839024,-0.0015402331250306,0.9798424862144428,-0.0065420433801311,0.0155188947458828,-0.0169950902111125,0.9999748889625635,0.00027828995162983985,0.0069978951995228215,-0.001083264412875558,0.7360000000001037,4.0,-0.002918445686661,-0.0023026668639742,0.979008774424462,-0.0164801902453047,0.0070685429875404,-0.0479482244738523,0.999987403147825,-0.0004146059969291818,0.004081474351683089,-0.0028919223110974754,0.80600000000004,5.0,0.004301892652824,-0.0018506526592084,0.9800347283664688,0.0018248880565484,-0.008704820911459,0.0084628940552836,0.9999851862792959,-0.00028974296214791045,-0.0025601815056910436,-0.004794657614034529,0.8050000000000637,6.0,-7.312628517488984e-17,3.9974132616820526e-17,0.979142992621609,-0.0045864881450225,-0.0046408370556633,0.0118777354873627,0.9999885863910333,-0.0008180759446835673,0.0001253403543607902,0.004705542392467924,0.80600000000004,7.0,0.003158536547442,0.0001461004221182,0.979640751654169,0.0039686631363359,-0.0317586578712313,-0.0209687769339855,0.9999081008285796,0.000999824138894104,-0.007274154676272699,-0.011396355681524998,0.80600000000004,8.0,0.0005583919552003,0.0008061202135616,0.9800005297797678,-0.0046155021841995,-0.0043908229406322,0.0133238089921369,0.9999995350021107,-0.0008161924808786983,-6.776920254293579e-05,-0.0005091490271769664
12,0.7910000000001673,0.0,-0.0054427184813688,0.0005515402264481,0.9799377901779842,-0.0116572475016321,-0.0039062929825474,-0.0143658943830118,0.9999663400429321,0.0003891849468728503,0.003520415703601082,-0.007400945175755836,0.7910000000001673,1.0,-0.0046430803359925,-0.0022897696840802,0.9797597658404776,-0.0040173643087166,0.0161912454072191,0.0064414069477359,0.9999853790081908,-0.0005930203056419789,0.004588180299711302,-0.002799767543749867,0.7910000000001673,2.0,-0.0042440611716027,-0.0015041192270871,0.9794206070785536,0.001643605109813,0.0123674320351822,0.0146401333727217,0.9999840774747709,0.0027494965101334846,0.0021345655694327563,0.004441699641101424,0.7920000000001437,3.0,-0.0083683135905337,-0.0017097469903899,0.9801688875356528,-0.0058167455374346,0.0152799019651811,-0.0022196070261577,0.9999712350630507,-0.00012706489314013303,0.007489346872751829,-0.0011927214298858215,0.7920000000001437,4.0,-0.0037388896370725,-0.0034509763064665,0.9790996432778504,-0.0136028859854458,0.0054898241508341,-0.0303953819102231,0.9999809484695804,-0.0012343602609255985,0.004139343331014506,-0.0044096359728018845,0.8740000000000236,5.0,0.004301892652824,-0.0018506526592084,0.9800347283664688,0.0047068462641896,0.0047995147016501,-0.0014126199768123,0.999985551589613,-0.00011956604848125918,-0.0022843475244453243,-0.004864573194547294,0.8730000000000473,6.0,-7.312628517488984e-17,3.9974132616820526e-17,0.979142992621609,-0.0003328348107883,-0.0048907635041931,-0.0019445369015028,0.9999890894424848,-0.0007517713931295342,-0.00013188059195105937,0.004608518555069076,0.8740000000000236,7.0,0.0040909809623743,0.0005030257391719,0.9795846113735512,0.0099324394696294,-0.0178101681027588,-0.0042223665027985,0.9999023910214538,0.0014110990629085417,-0.0076516309471570286,-0.011604730624305863,0.8740000000000236,8.0,-0.0002657956909015,0.0013720693259204,0.9799801257058306,-0.0026751193179326,-0.0051839946918135,0.0155910359646189,0.9999995977712565,-0.000798502139619843,-0.0003059757161909161,0.00027061138093639617
13,0.8690000000001419,0.0,-0.0054427184813688,0.0005515402264481,0.9799377901779842,-0.0079830562785034,-0.0067562257190412,-0.0036251003745864,0.9999664248268689,-2.1815449513497727e-05,0.003111012028992146,-0.007580919944917426,0.8690000000001419,1.0,-0.0046430803359925,-0.0022897696840802,0.9797597658404776,-0.0048278780300431,0.0070825543092449,-0.0033211278855918,0.9999840610367198,-0.0008910662546144948,0.004721287900600051,-0.0029653185325459693,0.8690000000001419,2.0,-0.0048039656580871,-0.0006983067442793,0.979613410627706,-0.0008594333684183,-0.0015792466927276,-0.0121896954921135,0.9999876141263829,0.002393898033804737,0.0020884500767238863,0.0038313473224395843,0.8690000000001419,3.0,-0.009298220697165,-0.0018792608557491,0.9804952888568628,-0.0072854811362062,0.0050310866693646,-0.0015669699265512,0.9999711544101598,-0.000574168547552524,0.007466608952161971,-0.0012690267321463337,0.8700000000001182,4.0,-0.0037388896370725,-0.0034509763064665,0.9790996432778504,-0.0067625076001163,0.0065231379477748,0.021375007800348,0.9999840945442448,-0.0016185673624982794,0.004246488719823403,-0.0033403939546908707,0.9200000000000728,5.0,0.0039119449837472,-0.0012328265508965,0.9793519167414434,0.0077796543518365,0.0137804474004899,0.0095596785694367,0.9999891289961903,0.00021971774559685926,-0.0015683055227460542,-0.004385662018440259,0.9200000000000728,6.0,-7.312628517488984e-17,3.9974132616820526e-17,0.979142992621609,-0.0010898007404051,-0.0069885749385722,-0.010637467107066,0.999991313507499,-0.0007294030525859282,-0.000468757265760538,0.004076904139123887,0.9200000000000728,7.0,0.0040909809623743,0.0005030257391719,0.9795846113735512,-0.0031156873304848,0.0017408748364695,-0.0033745439557828,0.9999054814913257,0.0011397746455029769,-0.007006544288984267,-0.011774435633350492,0.9200000000000728,8.0,-0.0002657956909015,0.0013720693259204,0.9799801257058306,-0.0010972859168438,-0.0051848671687866,0.0031559201178253,0.9999995250131519,-0.0007034933498080182,-0.0005209450929738521,0.0004285869663224845
14,0.9519999999999982,0.0,-0.0045233128536508,0.0003848542917945,0.9802940332002444,-0.0043104559099799,-0.0197083699983402,-0.0039760659602918,0.9999676244800574,-0.00022186089157043938,0.002046666935931555,-0.007778941053175172,0.9519999999999982,1.0,-0.0038884611269916,-0.0016337407557024,0.9797465033166524,0.0080830380840634,-0.0101921801766862,0.0347180011467118,0.9999913764951978,-0.000473911176423081,0.0039378581129436785,-0.001231103943196828,0.9529999999999744,2.0,-0.0048039656580871,-0.0006983067442793,0.979613410627706,0.0130801796185364,-0.0184990043846323,0.0365450503567531,0.9999794353900641,0.002779283655648208,0.0011971542163011864,0.0056543081904588555,0.9529999999999744,3.0,-0.009298220697165,-0.0018792608557491,0.9804952888568628,-0.0067581584810432,0.0066252552397901,-0.0158130088304831,0.9999691121156216,-0.0009553570357897986,0.007525139644700019,-0.002057761151679922,0.9529999999999744,4.0,-0.0037388896370725,-0.0034509763064665,0.9790996432778504,-0.0064346252411474,-0.0045893300405675,-0.0315814666608222,0.9999788307701822,-0.0019614958754298763,0.0037818738483640824,-0.004918127247753648,0.994000000000142,5.0,0.0016251254653544,-0.0031611150924036,0.9803776651467504,-0.0209801048903062,0.0527659354516797,0.0103929996604238,0.9999913610262356,-0.0010020757440923522,0.0011497530367221296,-0.0038667538135139317,0.994000000000142,6.0,-7.312628517488984e-17,3.9974132616820526e-17,0.979142992621609,0.0143920000667318,-0.0124370385848213,-0.1191256567441502,0.9999976917856445,6.84764793768884e-05,-0.001040381687000525,-0.0018786538532537455,0.994000000000142,7.0,-0.0023683364585632,0.0034743644457346,0.9802542118114652,0.0265621095181191,0.084623243645796,0.0092196916270549,0.9999308766286472,0.00257901509295008,-0.0019730724294776485,-0.011300337649971544,0.994000000000142,8.0,0.0005583919552003,0.0008061202135616,0.9800005297797678,-0.0343565168234859,-0.0502446896418205,0.0454554702910635,0.9999891661734319,-0.0023099141625358586,-0.003005012718232541,0.002702171513665589
15,1.0150000000001,0.0,-0.0033139112307982,-0.0001064140552698,0.9797499715072224,-0.0074007735270474,-0.0336941839347124,0.006274267003744,0.9999719174818127,-0.0005862807873664582,0.00032955407078952514,-0.007464041579449918,1.0150000000001,1.0,-0.0031338419179906,-0.0009777118273246,0.9797332407928272,-0.0061310093009652,-0.0241727939519491,0.0083133251045677,0.9999962472964652,-0.0007826195795652258,0.002496129842431093,-0.0008137784650558127,1.0150000000001,2.0,-0.0034675903542858,-0.0009126129890827,0.9792033205390324,-0.0035763977417175,-0.0284735541876291,-0.0099682239062421,0.9999841113908446,0.002282390977483611,-0.00016929630183672197,0.005151601309376787,1.0160000000000764,3.0,-0.009298220697165,-0.0018792608557491,0.9804952888568628,-0.0029904635170177,-0.0075582704118652,-0.0060284370169057,0.9999730148525726,-0.0011072381967366916,0.006869036250767189,-0.0023579506393582804,1.0160000000000764,4.0,-0.0036276769186977,-0.0044190557193667,0.9788750236402616,-0.0065195895557153,-0.0084355626425359,-0.0002835127461242,0.9999801325219092,-0.002318250418225172,0.00316989144996205,-0.004930726585274049,1.0700000000001637,5.0,-0.0050106123078182,-0.0056010346615471,0.9804950393423828,-0.0364733252454596,0.090865161042556,-0.022968523905451,0.9999658884958247,-0.0029938327948528165,0.00583808604318198,-0.005017525416461079,1.0690000000001874,6.0,0.0018745730790753,0.0012187596033526,0.9791675038525331,0.0053204859088858,-0.0400127566104567,-0.1120524906621507,0.9999673465499199,0.00039176623209367673,-0.003031042045476111,-0.007480985045458894,1.0700000000001637,7.0,-0.0192446291037097,0.0055178889222722,0.980132744658856,0.0583900576821485,0.4922545440276416,0.2537636745488286,0.9997012645385345,0.005784215506500526,0.023702046786643133,0.0014620222821343743,1.0700000000001637,8.0,0.0118312233097252,-0.005745098033542,0.9800699036311544,-0.1796163078776964,-0.3452531364667615,0.0826103578619361,0.9997015306769442,-0.01131379275495171,-0.02054319759864014,0.006842856720427883
16,1.1140000000000327,0.0,-0.0002656983525095,-0.0009310542716416,0.9799183958587208,0.0018853819906139,-0.0293959972447692,0.014694768733881,0.9999765704373998,-0.0004915176433888661,-0.0011595984134252053,-0.006728470716422577,1.1140000000000327,1.0,-0.0015092384180019,-0.0013120578567556,0.9802321157274833,0.0114507991056723,-0.034220108736946,0.0247900509259878,0.9999997025948001,-0.00019697725195502657,0.0006123216701183114,0.0004255260813335736,1.1140000000000327,2.0,-0.002691119536969,-0.0003211067510782,0.9789860339995112,0.0176833579772699,-0.0396949261757699,0.0651758077373446,0.9999583684914295,0.0029308403706547266,-0.0020046720201942615,0.008405518947208751,1.1140000000000327,3.0,-0.0083683135905337,-0.0017097469903899,0.9801688875356528,0.0028945351988337,-0.0083074510764798,0.0370845988797703,0.9999802533384816,-0.0009262384248569932,0.006195206029439016,-0.0005044182188137958,1.115000000000009,4.0,-0.0026960202499113,-0.0042388256897745,0.9785595351492844,-0.0114726938850189,-0.0339872232544286,0.0296866891438269,0.9999890893158283,-0.0028796214133216735,0.0012994718521233382,-0.0034409886256523644,1.125,5.0,1.656782294021454,-0.443059606046886,1.0474452805309622,-30.662687819315867,-49.48375136757088,-20.6900339713788,0.17551977725165496,-0.274785606370827,-0.7235537873919132,-0.6084041379508891,1.124,6.0,-0.7649938948733086,0.6200995295531626,0.990758252175833,14.876121030153502,5.017241082228028,-51.76232759335704,0.2049010792994175,0.15910365909622032,0.467030456660225,-0.8453307789947491,1.125,7.0,-0.5104556941947098,0.0533812383436836,0.9277038469560702,0.2416101958258523,1.3396012636472416,-0.6300679038049458,0.9930177815317823,0.018868973474946697,0.11254314821261968,-0.029894601387062236,1.125,8.0,-0.5146392778629642,0.6367204480185886,1.005226086388378,-1.823670089247416,-5.418499130533332,5.975083402784609,0.9272810882791749,-0.07569280091690282,-0.22842376395566302,0.2867803467280675
17,1.1340000000000146,0.0,0.0006537072752084,-0.0010977402062952,0.9802746388809812,0.0038239221337128,-0.0399164134876002,-0.0314853542952947,0.9999607667218045,-0.00031899341117573224,-0.003074132981264336,-0.008301383424331737,1.1340000000000146,1.0,0.0005964132037917,-0.0006941909545073,0.9798026139943744,0.0155252645624485,-0.0341189250452708,0.0115892263933903,0.9999986332835732,0.0005646517194293408,-0.001185302782000363,0.0010048167677309482,1.1340000000000146,2.0,-0.0009216115715028,0.002259224445743,0.9785269779301002,0.0248613665780792,-0.024337751692499,-0.0071312496136016,0.9999552067306567,0.004006751938429504,-0.002961100579909233,0.008047506104930246,1.1340000000000146,3.0,-0.0074384064839024,-0.0015402331250306,0.9798424862144428,-0.0002422486084291,-0.0603876009651858,0.0144685692843214,0.9999952394418807,-0.0009211653474472341,0.0029365593136196615,0.00022173717763989786,1.1340000000000146,4.0,0.0012478658259772,-0.0051887611657058,0.9801543345761654,-0.034728495110905,-0.0880209580158133,-0.0698571129702333,0.9999599649565429,-0.004612551893108677,-0.0033042456094343297,-0.006919162528463472,1.1800000000000637,5.0,-0.0138890644444842,-0.0036081946462408,0.9800459554634424,0.0455014152342567,0.145940238961156,0.0166019365194141,0.19207287037472645,-0.259888130398388,-0.6939668098098457,-0.643409853069091,1.179000000000087,6.0,0.0053206577509413,-0.0008034141576025,0.979355423289619,-0.0196340876981953,-0.0462143229464265,-0.1595441815358511,0.20437341386572852,0.1410146739645108,0.43343894703934666,-0.8663007841511935,1.1800000000000637,7.0,-0.0422368782010498,0.0093429012830959,0.9788190620923992,0.0599926912687261,0.1572608054251412,0.2304140822085986,0.9934038494653894,0.022046705033892864,0.11097272442783557,-0.01864910447067737,1.1800000000000637,8.0,0.0414343696709108,-0.0227418418262229,0.9791955890629436,-0.4003537180057012,-0.5177280589041751,0.3144269708588767,0.9201422917724437,-0.08362271907867758,-0.23730962484731033,0.30004923879335643
18,1.2390000000000327,0.0,0.0042333168585163,-6.027187938361994e-05,0.9799428939462114,-0.0030746635013305,-0.0925014077923287,-0.1299019836460613,0.9998615004690438,-0.00046409405305881994,-0.007608764179707616,-0.014794296338792224,1.2390000000000327,1.0,0.0015092384180019,0.0013120578567556,0.9801790656321824,0.0110176230472754,-0.0303471103675091,-0.0583170256719532,0.9999940035595176,0.0011310487443954409,-0.002657181583279887,-0.0019112717699731323,1.2390000000000327,2.0,0.0003063608368454,0.0063950873660566,0.9803672827061388,0.0371002151552284,-0.0255711189484322,-0.1474820688820013,0.9999752417419857,0.005819316385954407,-0.0038985839828698963,0.0006726832732635847,1.240000000000009,3.0,-0.0052689066914787,-0.0010833267051402,0.9801331873911454,-0.052358807649925,-0.0908025750457074,-0.0963337577192551,0.9999819648106676,-0.003515380014669739,-0.0016459602571817003,-0.004582899909535397,1.240000000000009,4.0,0.004388736949388,-0.004822253127532,0.9801298306157012,-0.07866471206409,-0.1223147376784909,-0.1815759253630172,0.999793687563928,-0.00834330838175552,-0.009358805620869553,-0.01598074685114546,1.2040000000001785,5.0,-0.0245520280394633,-0.0024889962530645,0.97982549610469,0.0825672244753362,0.2032983835730119,-0.0947855534907853,0.20705870927849848,-0.23756511274214545,-0.664284461613364,-0.6778020818637084,1.2040000000001785,6.0,0.0092732683783617,-0.001963436396762,0.9795321084125312,-0.027869746265108,-0.0711947830344324,-0.1175814709179775,0.20517969190035495,0.12360196717015999,0.4005386480902334,-0.884416552948547,1.2040000000001785,7.0,-0.0495697677202822,0.0172945429519267,0.9788302901485229,0.0879955390082901,0.0609254054721391,0.0053213825340108,0.9939327548201676,0.025242146729383977,0.10539449782104178,-0.018775322983513296,1.2040000000001785,8.0,0.0473984450129939,-0.0370666458348737,0.9780866276444546,-0.081302877661149,0.0993611195674402,0.2662429223752181,0.9218906736313454,-0.08504156216294532,-0.2129706425688017,0.31229637202545585
19,1.2789999999999964,0.0,0.0102317296875295,-5.340246600859036e-06,0.9785230256253978,-0.0249489132036157,-0.0991983561541202,-0.1564396139585069,0.9996667488495365,-0.0016865727013450548,-0.012323349021156392,-0.02262038430317326,1.2810000000001764,1.0,0.0036148900397956,0.0019299247590039,0.9797495638990736,-0.0161403907050819,-0.038126147758674,-0.0933398612031886,0.9999682524555747,0.00031783045191129556,-0.004479319602678553,-0.006582458556251047,1.2810000000001764,2.0,0.0026357732887959,0.0081696060800701,0.9797154230875752,0.0061371480664993,-0.0401618009736094,-0.1420192820584294,0.9999455999781811,0.005990126768472458,-0.005608106692754663,-0.006439301584486207,1.2820000000001528,3.0,-0.0021694997924237,-0.0004569064198905,0.980097487246638,-0.1054706695051371,-0.0727751154610712,-0.137758233089535,0.9998857225640255,-0.008464804649039022,-0.005043016494683898,-0.011465464644082,1.2820000000001528,4.0,0.0090295912953863,-0.0063858559361688,0.9802625604015492,-0.1233567201769849,-0.0993402994670332,-0.210255440376678,0.999454329912143,-0.013986982494725205,-0.013890433124115404,-0.026504011171628178,1.2799999999999727,5.0,-0.031920635548834,-0.001330979918739,0.979223315448838,-0.0825929520185037,-0.0239984159715669,-0.0783236320157311,0.21208186616090893,-0.22409085123493935,-0.629427705440567,-0.7131797361551501,1.2799999999999727,6.0,0.0162002620454222,-0.0060412590362499,0.9789091146265398,-0.0718871020025154,-0.1272975264675866,-0.006976910703247,0.2112280399478159,0.10635343391407666,0.36960352446265005,-0.8985905057028343,1.2799999999999727,7.0,-0.0533084665469617,0.015734254037095,0.978063720134996,-0.0699606375421936,0.0327180503247799,-0.2171738696231386,0.994428570496297,0.018990455707000864,0.09950686314477843,-0.02914729764177622,1.2799999999999727,8.0,0.0417469165625083,-0.0417504237182513,0.9784365575124784,-0.123335486157022,0.0272255321072864,0.3396171748189801,0.9203755951862619,-0.0878978888782629,-0.19432640112666438,0.32774986611963336
20,1.3290000000001785,0.0,0.0128190407152444,0.0049657240671218,0.9797856978848132,-0.0671034370657205,-0.0583144440950524,-0.1446286421463593,0.9994356801300427,-0.004609582415388177,-0.014622022702375703,-0.029887614241458058,1.3290000000001785,1.0,0.0082151294525657,0.0012230706740125,0.9803310745591022,-0.1025849098390904,-0.1388268735139469,-0.2942456630405785,0.9996961796655642,-0.004761867766387831,-0.01142566588025647,-0.021314951012004982,1.3290000000001785,2.0,0.0110883025737147,0.0040049913064413,0.9801744791569862,-0.0893877224961593,-0.1900632349162909,-0.1894135246156374,0.9997579359312188,0.0011148532558047867,-0.015075125645279054,-0.0159864702653857,1.3300000000001546,3.0,0.0020091107022123,-0.0067975336449481,0.9795181249014904,-0.055990144930755,-0.0900233521117238,0.0274050614057367,0.9998493838904093,-0.010824000970762183,-0.009090816868095881,-0.010070133346908384,1.3300000000001546,4.0,0.0147948357870601,-0.0149001966857092,0.979744914236742,-0.130146229881882,-0.1023306005041337,-0.021238686461074,0.9992539441216389,-0.019991429269875457,-0.01819717911863605,-0.027581888717421444,1.334,5.0,-0.1017343044800322,0.0191193100047331,0.9760868728125108,1.0646396691852211,1.8658861848697588,0.8254547750279914,0.3207684352259156,-0.15614625700069207,-0.5982229520209066,-0.7175341504505438,1.334,6.0,0.0501075250353706,-0.0294554200041606,0.9778724938187026,-0.5231384053340087,-0.2421066556339282,1.6904143238131262,0.29741427555827216,0.11019975566425667,0.34911546673430827,-0.8817704652757271,1.335,7.0,-0.0335247051467504,0.0065585006214483,0.981131020921478,-0.1555351464862301,-0.0963467322107528,-0.0341373726537383,0.9957293488828655,0.009429562755236027,0.08674049226230594,-0.030170086536877937,1.335,8.0,0.0703068307873863,-0.074445661638761,0.9763502409523952,-0.252115237388705,-0.215357887777407,-0.160637829694049,0.9229777379485157,-0.08819308364127418,-0.19473829342792945,0.32001730003557943
21,1.4039999999999964,0.0,0.0153844521737638,-0.0002322980606381,0.9791538513782828,-0.1478760189231833,-0.1237404856164265,-0.1906769303869959,0.9989519354906784,-0.011615372910638322,-0.020014140983595705,-0.039491111053796185,1.4039999999999964,1.0,0.0186148647918671,-0.0046774661219608,0.9785906233555778,-0.1023645603995463,-0.199065950149582,-0.3794169598603545,0.9989162377636593,-0.00965197243456976,-0.02124272630331325,-0.04027326581519294,1.4039999999999964,2.0,0.024669766743006,-0.0024141671672128,0.9790176578620708,-0.1240025010968324,-0.2574090912701812,-0.2402075427544928,0.999208635549389,-0.005359936504738474,-0.027648123236446547,-0.028088342879137404,1.4039999999999964,3.0,0.0107251335209447,-0.0132028007189585,0.97957728514096,-0.1592738289319824,-0.141004500817414,-0.2029560740575939,0.9995011677290678,-0.0183584118111316,-0.01587431959620823,-0.02020867143975416,1.4039999999999964,4.0,0.0237306433620053,-0.0178532202523804,0.9790884122959712,-0.0976009872737476,-0.1664130010050703,-0.1415339821714039,0.9987799681609525,-0.02391114591864227,-0.025907780664132875,-0.034577726968723285,1.3880000000001471,5.0,-0.0244155175672565,-0.0118661464496005,0.98005003804416,-0.1672800498002064,-0.1267458399387629,-0.0830531478271267,0.3247351654501209,-0.15094431710250159,-0.5578164348665755,-0.7487347397091213,1.3880000000001471,6.0,0.0243089477695326,-0.0119588449604337,0.9793901475334282,-0.1009420701792196,-0.0981141913550524,-0.0405953494874832,0.3015397286883174,0.09299086969900751,0.32230221635190454,-0.892495250132934,1.3900000000001,7.0,-0.0535773766732404,0.0081907493826338,0.9790752659184914,-0.1084407849437023,-0.0777836280765953,-0.0821247701598907,0.9964446526478835,0.0031119052795336543,0.07710261031641696,-0.03381653053411043,1.3900000000001,8.0,0.055592663202829,-0.0605354841377347,0.9763349378969424,-0.2456611906364744,-0.2362462869682637,-0.1025690063615437,0.9246409279821506,-0.08815427126411339,-0.19476887673312027,0.31517148255246547
22,1.5090000000000146,0.0,0.0193520706797704,-0.0012236242116635,0.9796785187520414,-0.1873100147773178,-0.1645685810419961,-0.1535707820668239,0.9983162498967943,-0.020076145576696767,-0.02699524388445285,-0.04725325786021254,1.509999999999991,1.0,0.028527121903186,-0.0084317691326375,0.9798760679724832,-0.2270288020170455,-0.2662840542314491,-0.2696876209948676,0.9977669389879281,-0.020749308883367203,-0.03365831224444452,-0.05383047148575015,1.509999999999991,2.0,0.0402926514567688,-0.0127041750522256,0.9792206626572104,-0.2320456739213729,-0.287910327026116,-0.3133336086247152,0.9980367418789253,-0.0170784554029726,-0.04122200006075525,-0.043951506592371334,1.509999999999991,3.0,0.0169369876583687,-0.0231698461444195,0.9798435062185716,-0.2160963190310088,-0.1445967574516733,-0.2565550975268353,0.9987951732180057,-0.028453658698389717,-0.022492736450856827,-0.03305553009772472,1.509999999999991,4.0,0.0322734288621047,-0.0282916238697419,0.979334472898966,-0.1866399762914282,-0.1151755205698482,-0.1539149891405861,0.998110546227112,-0.03233262805447373,-0.03058565498607262,-0.04236102433109913,1.45900000000006,5.0,-0.0342332510350346,-0.0126724109322044,0.979069198026747,0.078741158786519,0.3091715572459516,-0.1979680906470157,0.3372178452369589,-0.12214069860557418,-0.519380712534944,-0.7756348690231627,1.45900000000006,6.0,0.0270969757427017,-0.017073016727015,0.9796587497723064,-0.1062925967927475,-0.1538512208034609,-0.0072865321715676,0.3071846470704079,0.07480403429254556,0.29648721599217454,-0.9011865954456926,1.45900000000006,7.0,-0.0481182971508231,-0.0006073305669212,0.9781851872876054,-0.1156246786201504,-0.0864014905140444,-0.333955323788848,0.9964437327924434,-0.004340552645093076,0.0676706108361846,-0.050017351093937804,1.4600000000000364,8.0,0.0648802897027168,-0.0735738257304187,0.9746791472969358,-0.268905667277211,-0.1917556759084142,-0.1193890064794706,0.9267063725981086,-0.09028032959739417,-0.19374768543580773,0.3090737702589928
23,1.5260000000000673,0.0,0.0314987249811044,-0.0134356348345807,0.9791079174642376,-0.2707592898140338,-0.2762144174593987,0.0183779476774725,0.9976155824609645,-0.03301094136246955,-0.03897453149572088,-0.046415657661215,1.5260000000000673,1.0,0.0419321763908109,-0.0223444654085015,0.9790150241179848,-0.2873842064091793,-0.3486741015388966,-0.0412425609318149,0.996608737795491,-0.03511410731356494,-0.04903585245384145,-0.055977749073846034,1.5260000000000673,2.0,0.0577036525254378,-0.0297617895507787,0.9765948619401796,-0.2939845796897667,-0.3555115866928506,-0.0857464530162771,0.9966637272981707,-0.032269967310788475,-0.057179568979866514,-0.048482582327623654,1.5260000000000673,3.0,0.0281460865571479,-0.0404043363074845,0.9783175800419152,-0.2923777345937189,-0.1935224912392667,-0.2185602603791195,0.9976436571632609,-0.042371507867881575,-0.03124151796431005,-0.04399722943779405,1.5260000000000673,4.0,0.0374406548401166,-0.039890432887575,0.9784584563123696,-0.2180497587316288,-0.0916405280852061,0.0538934386466646,0.997750108195715,-0.0423681443560971,-0.033345122657767935,-0.03984676566797187,1.4890000000000327,5.0,-0.0852383739707857,0.008263776486254,0.9758827437766288,0.6159074226683696,1.2706824966845336,-0.0214750300989449,0.3822530449909206,-0.05032354922567525,-0.4819870108985467,-0.7867901062631536,1.4890000000000327,6.0,0.039851153116258,-0.0210921020023097,0.9792369523401518,-0.0234849013006135,-0.1585967282517128,0.1617596595034721,0.3192678470019391,0.06106032664971687,0.2679376133173583,-0.9069449342435152,1.4890000000000327,7.0,-0.0376179499171979,-0.0082802841670169,0.979117115945861,-0.1526428647254263,-0.193886731796243,-0.3699586542819312,0.9961763035143677,-0.013570543964285546,0.053310414445641024,-0.06787202932429529,1.4890000000000327,8.0,0.0804956216805181,-0.089767690896053,0.9729703061046916,-0.273475303384249,-0.2435603222072402,-0.2511638064251978,0.9299664894283256,-0.0909528312741391,-0.19676452919972415,0.29694045038085476
24,1.6320000000000618,0.0,0.0554040246610736,-0.0358308616024781,0.9771103025801025,-0.368999829671444,-0.4657517687432998,0.1896055054974361,0.9962079599117523,-0.05148866262446263,-0.059660677124416646,-0.03686762583439215,1.6320000000000618,1.0,0.0653844408655993,-0.034120040104803,0.9769348482657068,-0.0543571567039893,-0.4897783384500939,0.473953901418188,0.9962460957164926,-0.0387528868909397,-0.07067122035925033,-0.03158336809457933,1.6320000000000618,2.0,0.0829530769448148,-0.0480031217575944,0.9757461182740688,-0.1758777675051817,-0.3985558905540457,0.4199394964456346,0.9959663523623152,-0.042608209140316246,-0.07407874110544767,-0.027347862662222715,1.6330000000000382,3.0,0.045306470264489,-0.0615656418982494,0.97638875223439,-0.3251482229289861,-0.2362336198979104,-0.4544157599464209,0.9952175295074077,-0.05735225101886502,-0.04262361059993664,-0.0666034239635345,1.6330000000000382,4.0,0.0399241235301442,-0.0529980114070846,0.9783042855611154,-0.1639715428514043,0.007552576042431,0.0074789628880176,0.997514570271739,-0.04909032857951669,-0.03121697831883771,-0.039753264019252554,1.5800000000001546,5.0,-0.1730499160792069,0.0288858568843375,0.964141241632696,0.0166936375256712,0.7410225595054513,-0.8550547748321556,0.3729656033389138,0.011274092170532964,-0.4320841302014128,-0.821019401719508,1.5800000000001546,6.0,0.050423425489215,-0.0110776295757022,0.9782687587186444,0.3655699524373237,-0.0266334001222,0.0681561164355593,0.3236421798084761,0.05868347651532095,0.22588586748767092,-0.9169446896635784,1.5800000000001546,7.0,-0.0227332119021409,-0.0218447034829222,0.979788757848525,-0.1969972762012361,-0.352332634078717,-0.1492003783452908,0.9963960582560848,-0.024650338512487165,0.032134035770889115,-0.0745295890773026,1.5800000000001546,8.0,0.1031008284119725,-0.1064784391079231,0.9686395414115124,-0.1790917335247948,-0.3126829329127346,-0.1044055082852207,0.9304861758218962,-0.08824060384231204,-0.20176360456355794,0.29274651203969515
25,1.7040000000001785,0.0,0.0835912364848088,-0.0607976336178642,0.9740868302822948,-0.2992028283300646,-0.3802292396816366,0.2332091491862703,0.9946549690508542,-0.06587112581073487,-0.07542841852102644,-0.02516030616442549,1.7040000000001785,1.0,0.0975031996792166,-0.0360806797710824,0.9732550080012798,-0.1184583297590181,-0.4242539145300377,0.2389208931115682,0.994867513925376,-0.044284339157001876,-0.08890732411779816,-0.019313590023151677,1.7040000000001785,2.0,0.1105663620739824,-0.05162366727616,0.972521504417607,0.043007788828437,-0.5846601370546665,0.289065139881251,0.9940060515599439,-0.04085741308853374,-0.10074319880293864,-0.011552019428420691,1.7040000000001785,3.0,0.062032004844295,-0.0725371493579748,0.9754493284317828,-0.2473301866540273,-0.3353712928566469,0.0398386348674716,0.9939185120538285,-0.0690124827037116,-0.056976765208436954,-0.06416320483077728,1.7040000000001785,4.0,0.0435913662855685,-0.062666709578107,0.9772710352282068,-0.1733871767454857,-0.1078261800152892,0.2871813048323029,0.9974702205671132,-0.05677092106885576,-0.034405851079933936,-0.025425558287942948,1.625,5.0,-0.2432273215330712,0.0353833118452717,0.9485876297436668,0.5543397346075953,1.507516629066846,-0.1314069693108427,0.4035300630602646,0.0964957359569518,-0.3876692843211117,-0.8231431146177814,1.6240000000000236,6.0,0.057506220334657,-0.0326376160042753,0.9782370983787004,-0.4095913603296737,0.1204676746266808,3.097415914683572,0.47023666821051835,0.08401123174793912,0.21339826195749456,-0.8522210808258532,1.625,7.0,-0.0024727663740828,-0.0356064349182617,0.979429460052571,-0.2646040027483791,-0.0903669505647276,-0.5610069763373555,0.9937520177213902,-0.038364341073558766,0.024595800767186246,-0.1018830270127372,1.625,8.0,0.1268228190538275,-0.1215769468926701,0.9639170184987382,-0.3246682889435522,-0.3748033444308668,-0.0016417052294261,0.9279621309484645,-0.09309721192529169,-0.21210312779508472,0.29194426837474297
26,1.734000000000151,0.0,0.0944304762357261,-0.0708141638281908,0.972303573663703,-0.1077404010172127,-0.1189870218809887,0.1704543646006936,0.9944234828567549,-0.06918298348515776,-0.07781782103777861,-0.016734343968793145,1.734000000000151,1.0,0.1148823971402778,-0.0423663877531004,0.9725816798686152,-0.1195567833167159,-0.1377989512775136,0.0279509270907437,0.9943696904601738,-0.048344427726311215,-0.09252073719130106,-0.01821121060040329,1.735000000000127,2.0,0.130143026450976,-0.0547080945665906,0.9696508737968909,-0.134687392309722,-0.1157137532176366,-0.1392553063512026,0.9934210071602863,-0.04570437610009214,-0.10328909502279902,-0.018899084298327283,1.735000000000127,3.0,0.0806553772864009,-0.091402521840554,0.9727534575194144,-0.1168316955438947,-0.3591280382772885,0.7837496854161228,0.9943733866024836,-0.07616946645529835,-0.06953934411932548,-0.024167333656751003,1.735000000000127,4.0,0.0582405895535341,-0.0627763761920275,0.9760928031292176,-0.035549293708529,-0.4417575486965332,1.464393229124071,0.99573831527308,-0.05906083353754304,-0.05138285493104278,0.04875271949455072,1.7010000000000218,5.0,-0.3551761241554668,0.1531157572018671,0.9008326624442518,1.3907461414755629,1.8567454650736903,1.8808764224249128,0.5107537922864375,0.17998030399181936,-0.3809193245081732,-0.7494251944365574,1.7000000000000457,6.0,-0.0528735676527708,0.0206180191923666,0.9786108946502952,1.324781884503057,2.378735512737202,0.7014104494599795,0.4744748923378495,0.2200831366842235,0.18625036695734473,-0.8317137670475787,1.7010000000000218,7.0,-0.0165161751719722,-0.0891722324546521,0.9756231490266836,-0.6195208484293387,0.1732746660032638,-2.9703590312949806,0.9667867720909505,-0.07123681893716585,0.024126883878638792,-0.24426736665379717,1.7010000000000218,8.0,0.2088198005209651,-0.1583690875459779,0.9441475112609462,-0.9316564633634294,-1.6394814738484986,-1.272395447346535,0.9225398067496277,-0.0937439300743278,-0.29787331440152853,0.22672421375765608
27,1.8090000000001965,0.0,0.1021972054657296,-0.0787504171380931,0.971002112765761,-0.0867422228056506,-0.1382420286279146,0.0122062980226453,0.9939840774022421,-0.07086443960382204,-0.08195693907501317,-0.01602951053226752,1.8090000000001965,1.0,0.1198844329345857,-0.0512127231615319,0.9704086663495608,-0.0497975181067635,-0.0777338851532371,0.2304195393212195,0.9944304581909581,-0.04985994951599971,-0.09260247817101963,-0.006843266250065687,1.8100000000001728,2.0,0.1320762835600681,-0.0643264318638785,0.968784788012602,-0.1247129791329264,0.0266396343871151,0.0180363480477635,0.9936954620690419,-0.0508175097550922,-0.09817548090584362,-0.018667734586472275,1.8100000000001728,3.0,0.1003940292350731,-0.0998569471505471,0.9694506841504216,-0.0861959811058174,-0.3304649513225399,0.3677732893052839,0.9933902864933034,-0.07973175640965834,-0.0824271896084743,-0.0049339774859659775,1.8100000000001728,4.0,0.0851987908334712,-0.0866912801953301,0.9723069412374928,-0.5195295731752657,-0.3827692924037982,-0.4428552847440977,0.99369243467809,-0.0810751521806321,-0.07285426534400397,0.026351868692801355,1.805000000000064,5.0,-0.3899820724289864,0.1690165311763354,0.8823742943746214,0.1820133792770647,0.4957275902533133,-0.0531266243889784,0.5168380739340059,0.20944939542799573,-0.3404594501679372,-0.7570315177576029,1.8040000000000875,6.0,-0.1280452721024606,0.0971004537644409,0.9664185998680628,0.7519836634643802,0.2157374672342975,-2.251368924597392,0.37700615285118194,0.209444815478658,0.1669650101148755,-0.8866351647542532,1.805000000000064,7.0,-0.0003622891321165,-0.0893664058731039,0.975503723338824,0.0118378977502949,0.1046653017878921,0.6506493795796096,0.9743903376397992,-0.06584412731416826,0.02993493445608481,-0.21291294115563675,1.805000000000064,8.0,0.2536594260424533,-0.167744892125463,0.9312827426435162,1.0953092270736686,1.3547341577878806,-1.910865116559376,0.9677899680111957,-0.022792887040860403,-0.2051975666921469,0.14407297019515267
28,1.8980000000001385,0.0,0.1136383367761117,-0.0792470257317585,0.96931276548255,0.036714078786983,-0.1813230776300847,-0.0693605982669846,0.9936867611520815,-0.06597459298490085,-0.08878173235952919,-0.0187557402094268,1.8990000000001144,1.0,0.1223064965667977,-0.0478944164935134,0.9707585929397184,0.1945741781627776,-0.0252647016569613,0.2803890528548266,0.9951148538251244,-0.03899240265920619,-0.09034550489549877,0.007981852957870034,1.8990000000001144,2.0,0.1301800037697825,-0.0633063131362674,0.9693876816504284,0.1695831499321361,0.048157509168299,0.2350755641545763,0.9948426551647328,-0.0417676558167104,-0.09221751978524496,-0.006283584726810102,1.8990000000001144,3.0,0.1193390302267496,-0.1043975617056058,0.9659194298565812,0.0566507775556124,-0.3519680362555624,0.2090683605218304,0.9924132401050897,-0.07527243804667769,-0.09695567957758833,0.007043942949418614,1.8990000000001144,4.0,0.116481637302216,-0.1068007958119715,0.9676174958036488,-0.2315963863683862,-0.4586787807719168,-0.3274547270039386,0.9914162032779403,-0.08794036449220641,-0.0961251143448294,0.01097116963340851,1.8820000000000616,5.0,-0.4443456845560362,0.1875604000586629,0.8525796202972845,1.084713115801372,0.8259258206648556,-1.8513323573840168,0.4494483593161475,0.3049329039078011,-0.3041646791751486,-0.7826212010702609,1.8820000000000616,6.0,-0.0930528546727014,0.020968583812078,0.9741947878787778,-2.313384122244268,-1.0204030446036687,-1.4356165324665622,0.35142180516980465,0.097117760883595,0.24610890194898016,-0.898054154131932,1.8820000000000616,7.0,0.0315842796449494,-0.0888300771809647,0.97514442554287,-0.032779025162132,-1.3006448140451206,0.4912580281350365,0.9792787930954963,-0.0785582493548875,-0.03514967681943526,-0.183319794542795,1.8820000000000616,8.0,0.2915627779570827,-0.1695032959279075,0.9197830065724876,-0.2394473177452028,-0.5325274285424512,-0.1289092942779229,0.963291479292142,-0.03317387092900728,-0.2285450377915596,0.13688018816321557
29,1.944000000000188,0.0,0.1053458293450117,-0.0927039925455263,0.970382515302976,0.1990694281631382,-0.0986522281835037,-0.0734282359587753,0.9942028068994769,-0.05408533153239446,-0.09049607393687296,-0.021119097240275952,1.944000000000188,1.0,0.1185401281032958,-0.0374398392250247,0.9719899672671826,0.145450701537014,0.070839787584605,0.0282707183025452,0.9959897850928103,-0.02987498399437314,-0.08375559699487266,0.009840390954927636,1.944000000000188,2.0,0.1254472242282684,-0.0496589134249407,0.9712177851804796,0.3326034627310292,0.0550722526166569,0.0685542178793587,0.9959504834448887,-0.023900714566916358,-0.0866555959820272,-0.0014825835838050256,1.944000000000188,3.0,0.1392000476165956,-0.0973646541971882,0.964881065653482,0.1863023637298587,-0.3257082446510584,0.3979765367261914,0.9914589525652717,-0.06524549280252542,-0.10917814565750661,0.02884967171248611,1.944000000000188,4.0,0.1452810150809332,-0.1138027329091033,0.9630822211210592,-0.0029855481091084,-0.4400785612245866,0.2929934052267651,0.9892993864353934,-0.08620246035503029,-0.1145016694285214,0.027298855752127534,1.91800000000012,5.0,-0.5287543628938467,0.2357884813383401,0.7891822449782314,1.2612616408554376,0.9750071514783496,-0.4944873556788692,0.4219678568024149,0.38047336254694253,-0.29582515725453873,-0.7679001397012029,1.91800000000012,6.0,-0.1607739854206626,-0.0576668221047455,0.9654585766568632,-1.092244146577477,0.7204294708735213,-1.7265947599284932,0.2740516582971301,0.08942595107295298,0.296531627614023,-0.910476623359364,1.91800000000012,7.0,0.1124580056944056,-0.107930593459784,0.9678911012870486,-0.3081612463371515,-1.6871516542621685,-0.8444740131653329,0.9633067414288723,-0.10565174867728155,-0.11902033969486356,-0.21612956451637888,1.91800000000012,8.0,0.3328666577766587,-0.1716929758666344,0.9059918929983072,-0.1847557061226268,-0.5889143106768364,-0.3779130653302174,0.9591706948127486,-0.03659419837565704,-0.25427724211202674,0.11830269228370735
30,2.0510000000001583,0.0,0.1033823094459573,-0.0779860488011051,0.9711082711448872,0.358094416471555,-0.013734986900397,0.0766786761167431,0.9954110626199164,-0.035304378943946294,-0.08756947534063808,-0.015556485137610127,2.0510000000001583,1.0,0.1152119668383765,-0.0290296727939284,0.972428650747555,0.1992044626501947,-0.0228103592164004,-0.0717024957984472,0.9964114579437681,-0.01808016123033321,-0.082384295248894,0.007081111819662346,2.0510000000001583,2.0,0.1255898359214879,-0.0310651575647749,0.9717196864830356,0.1729581991016821,-0.0101562672537031,-0.24736158217037,0.9961978243653044,-0.013421239531115011,-0.08508446573356214,-0.013053687223021412,2.0510000000001583,3.0,0.1495264079209902,-0.0829996621022139,0.9649963261200344,0.3615624793523185,-0.1597634811254371,0.4562364145066162,0.9910952956464624,-0.04706815733744999,-0.11231072184573204,0.05386098096766233,2.0510000000001583,4.0,0.1622977864796924,-0.1070346388260492,0.9601458298587612,0.2497272261464068,-0.2407731312484027,0.195512421182557,0.9891400736051519,-0.07128438112277581,-0.12237349534125823,0.0393087704501257,2.025000000000091,5.0,-0.575402738492594,0.2671359519407432,0.7460630480836965,-0.3897157472437942,0.7308411101790867,-0.049125863725772,0.4339873848108797,0.39914916992209604,-0.23858402675326917,-0.7716298025307928,2.025000000000091,6.0,-0.2405845443373185,-0.1026857529869328,0.944161380887564,0.1773457290795186,0.7870149640150106,0.9221630698431712,0.30803280422141394,0.1439263396229956,0.2743556345184367,-0.8995165290833761,2.025000000000091,7.0,0.2122414267006206,-0.1366115020886516,0.9466149556652734,-0.8495974214030427,-1.2556342931829558,-0.7796951329219637,0.9405560355234494,-0.1528877291580625,-0.1718096640536138,-0.24992223920869275,2.025000000000091,8.0,0.3802954163787005,-0.1669059066215978,0.8873211451420353,-0.0709322527246495,-0.7316571979604519,-0.6462266373923117,0.953730647782989,-0.029800803546844404,-0.28583321507442505,0.08836932017176485
31,2.066000000000031,0.0,0.093869163384159,-0.0518895241070348,0.9741858433859032,0.4982262286908064,0.2128332864715592,0.1576118746457871,0.9972464463493746,-0.010163297542693501,-0.07322822540855027,-0.005818902827597578,2.066000000000031,1.0,0.1196738855151207,-0.0067157496580254,0.972853051509962,0.5431132252790356,-0.0910169865825213,0.2516092682524258,0.9961236008174452,0.009477399249907491,-0.08468075559793115,0.021843086533462956,2.066000000000031,2.0,0.1276287274049932,-0.0134915204322202,0.9716186941477654,0.4363522767996478,-0.0675023672360267,0.4919794858011649,0.996108672945802,0.0067487058255104445,-0.08685516474977972,0.013347172289391017,2.067000000000008,3.0,0.1503181111399333,-0.0613025854206829,0.966265211256238,0.5140315606351102,-0.000580777279042,0.6856075568136699,0.9898889791068589,-0.023444028703307487,-0.10667062929995107,0.09050725609414574,2.067000000000008,4.0,0.1669287669488248,-0.0893156785996016,0.9617559442609324,0.4404862340469712,-0.0714234855360584,0.7831090708243257,0.9882314198222913,-0.05121054662611424,-0.1193952456223696,0.08075218952478541,2.0450000000000728,5.0,-0.5714020951433498,0.2332231992177953,0.761422737388638,-0.4859770298539637,-1.1512928170912131,-1.1220360314535311,0.3830760084390796,0.355264588619548,-0.19992222132415033,-0.8288974298742776,2.0450000000000728,6.0,-0.2328876635047177,-0.0932505962531293,0.947117026816512,0.2773303530454157,-0.4488169805778498,-0.1893418165357154,0.3071648150730412,0.1211043442883304,0.238423001854337,-0.9133115494519954,2.0450000000000728,7.0,0.2865019116829045,-0.1693304287026888,0.9210639828575452,-0.6184059700786503,-0.8231096729724391,-1.7475808611759482,0.9046680972874784,-0.17261827245384517,-0.21092465292228696,-0.3275505404588981,2.0450000000000728,8.0,0.4564972788628173,-0.1419058615423638,0.8551765670613074,-0.3907531126934221,-1.452039407842042,-1.7212189608624269,0.9358692615481615,-0.019112621843772663,-0.351818943400979,0.0026199312537496123
32,2.139000000000124,0.0,0.0761307843152128,-0.023485764698503,0.977114385594684,0.5359341498187178,0.3188619885365227,0.2999961185948278,0.9983503758948723,0.015387175825933842,-0.054210586547392595,0.010998821612177277,2.139000000000124,1.0,0.1154527843051745,0.0240591650655875,0.973147887616538,0.2150795003054165,0.1937444474689716,-0.70840840101259,0.9971020781871407,0.023386936413327893,-0.07130003107723194,-0.01252207844049235,2.1400000000001,2.0,0.1296306415696919,0.0126803352700112,0.9717808939589572,0.4091252953854903,-0.0272511672025515,-0.2531963056888914,0.9959339943645159,0.02829820603411461,-0.08549019675749513,0.0024731887829225127,2.1400000000001,3.0,0.1377062323579502,-0.0258149182383656,0.9702105872263632,0.6636363547262872,0.29811200044044,0.4547127044860127,0.9895569580988668,0.007307003960683467,-0.0854436380705518,0.11585775366588312,2.1400000000001,4.0,0.1634443837934237,-0.0674953853639905,0.9639316917504864,0.4089357204253847,0.0721690395341323,0.211562343255418,0.9890254353050771,-0.03018060824648801,-0.11050382154162723,0.09330983136932046,2.1200000000001182,5.0,-0.5029504208805229,0.1908011096839716,0.8186829732438985,0.4675327340610535,-1.2187910331031,-0.7133939302243052,0.3306929299897358,0.3153167348643772,-0.20983872970811773,-0.8643987796635041,2.1200000000001182,6.0,-0.174202145522094,-0.1008912492891877,0.9594308564520772,0.106843080293985,-0.8273752788966899,-1.9724288582540777,0.2295947602903518,0.05518413799320148,0.21609952288403678,-0.9473869078525705,2.1200000000001182,7.0,0.3063432333558088,-0.154424080036717,0.9178823600450778,0.8352789566647695,0.548945114365609,0.8863351400796013,0.932913377192189,-0.12932012558536074,-0.18391202733338735,-0.2812922003479197,2.1200000000001182,8.0,0.571249835757728,-0.1150585564351455,0.787374849571555,-0.3779648499970446,-2.0596485570614065,-1.0168358950429377,0.8966945926815428,-0.02148202251024825,-0.43951864512989197,-0.047965516235472155
33,2.244000000000142,0.0,0.0566969817731511,0.0091422696005564,0.9779738601641488,0.4257191528287244,0.2438384142111108,0.1387812348092905,0.9984173217622025,0.035085429721872605,-0.03950073800635539,0.019275785934056024,2.2450000000001182,1.0,0.1004099686298805,0.0276699321774806,0.9744425139807068,0.1293563271159903,0.1555865736760377,0.1724652167107584,0.9976763680856419,0.02833195542811606,-0.0618754085930963,-0.0032555608578935967,2.2450000000001182,2.0,0.1256559639161283,0.0261695219786577,0.9712871536531912,0.0424109775693307,0.1793406260896503,-0.0325472205107039,0.9968064687577971,0.029056143884606478,-0.07436916321911319,0.001353479684630773,2.248000000000048,3.0,0.1221201102252861,-0.0012613481615093,0.9722587555169556,0.2062464735375519,0.183166039054148,-0.1760428938046702,0.9913371780513751,0.017151180035344996,-0.0726693418968116,0.1080537050952708,2.249000000000024,4.0,0.1482292230567178,-0.0432627586504846,0.9677104066537426,0.4264588870601128,0.3013921813018499,0.1453115979508436,0.9906164220465474,-0.009731107342320086,-0.09017699567012458,0.10223756341726355,2.2450000000001182,5.0,-0.4160872637458903,0.1819418027669648,0.8679709496027875,-0.9231931490707718,-1.720795837785963,1.390313406984275,0.387551085515161,0.20179846440655388,-0.20145589419007803,-0.8766396400889326,2.244000000000142,6.0,-0.0857049373877642,-0.0993857798041142,0.9704752085860244,0.4789078669088782,-1.5192266910954613,0.6409246389560883,0.27728681517659953,-0.004960304163600609,0.1578145387080879,-0.9477246376897545,2.2450000000001182,7.0,0.0782987935679268,-0.079451991511784,0.9734694037157094,1.4347492578826269,4.536849856897756,1.573608351503682,0.9794698292535045,0.00028443709162641936,0.04006828665980218,-0.19756848200510027,2.2450000000001182,8.0,0.6196668951530027,-0.1806473507286106,0.7371563427972194,0.0989286500611974,-0.1359414229999742,3.2421062592466576,0.8982522054946841,-0.09570769202804075,-0.4161250341506566,0.1040334992380646
34,2.275000000000091,0.0,0.0555548545742506,0.0253977394758502,0.9772991420045096,0.1006608319711326,-0.1766708081370494,-0.2018445840620966,0.998124463847846,0.03852210924381561,-0.04669271775684114,0.009131915261179761,2.275000000000091,1.0,0.0901880270896461,0.042458517332765,0.9735427027488728,0.3377564454166206,0.2880643205052384,1.0673660236738152,0.9966695826897323,0.041190214162378475,-0.04810343614285274,0.05137283941522666,2.275000000000091,2.0,0.0983860169426126,0.0275869362936033,0.9743434469508688,0.3197310178756559,0.5081913448293188,1.2713154104489088,0.9958353534762928,0.03866911013627859,-0.04890901396413495,0.06651734391172938,2.275000000000091,3.0,0.1091022611015959,-0.0038186644786954,0.9736714612353172,-0.3559043067089769,0.2638137057004867,-1.2143582551469458,0.9971534038334491,0.0010438661385923707,-0.05950197888223791,0.04629810013325749,2.275000000000091,4.0,0.1261343015595287,-0.0228476162816192,0.9711797590561376,0.1003643782740475,0.4054857559503747,-0.2946053827889527,0.993865409166322,-0.005010579027882197,-0.06707071564606279,0.08779499793945857,2.325000000000045,5.0,-0.3130128788346498,0.196976320480999,0.9076526135330696,-0.5571315965274659,-1.158609746387789,1.0718767996968026,0.42807425098927665,0.12709471536493058,-0.19315766054101036,-0.8736644018961748,2.325000000000045,6.0,-0.0061388137251012,-0.0381485380655668,0.9792063133014964,0.8278373904029981,-1.0909521936618236,1.1727327545526798,0.34363579701153596,-0.0322630413550732,0.08838057867076352,-0.93437808647709,2.325000000000045,7.0,-0.1823577266663048,-0.0193694199282615,0.962733340596834,0.1833616461143562,2.860540086315374,-0.8409300472212725,0.9550489560006459,0.03616665405820923,0.1811852477798357,-0.23183047850373267,2.326000000000022,8.0,0.6481010474721766,-0.1789931133786038,0.7127071612019215,-3.406835739697192,-3.496176196360113,5.089928470522984,0.7746132122284842,-0.3098116425271373,-0.4803715896283878,0.27061828000636307
35,2.379000000000133,0.0,0.070261301830181,0.0275188183055597,0.9768285745739596,0.0035789827548297,-0.2239008169678019,-0.2149247329466127,0.9977264237625149,0.03689202162477634,-0.056366400138692506,-0.001947049538241579,2.379000000000133,1.0,0.0733559718029768,0.0481518573081799,0.9760462591694172,0.0536387938783463,0.254860139649796,0.6958368315704749,0.9948069421761428,0.040037116070568805,-0.03545567883250118,0.08659718224879283,2.380000000000109,2.0,0.0853447040699193,0.0482216348412448,0.9747086515572,0.287381700202275,0.1543810794354221,0.7098444761498043,0.9926162488722364,0.04954271232564454,-0.04131246515407249,0.10272186891369518,2.380000000000109,3.0,0.0769299056457186,-0.0152479149925944,0.9771802754383244,-0.2509377936748894,0.5571228446023226,-0.7560329034535364,0.9994381864137697,-0.011238146151312594,-0.030596861813915292,0.007800490765114458,2.380000000000109,4.0,0.0896050271100559,-0.0260062821163155,0.9756108919067544,-0.1393993742110136,0.6748286919969181,-0.6518294827294283,0.9979015943310454,-0.013153758600776815,-0.032322440425286966,0.054540320050252285,2.374000000000024,5.0,-0.2484278427173135,0.1591047943698909,0.934625203689338,-1.1134418924942966,-0.5185259129197409,1.885672561170901,0.5137523085473945,0.05938365840009393,-0.14704633772755354,-0.8431545060889837,2.374000000000024,6.0,0.0597052623998973,0.0205890417612488,0.9785322544510798,1.2076184787282689,-0.9768752226926504,2.1935278197500776,0.4555813434097857,-0.039329333192931776,0.003084740297581478,-0.8893195867992737,2.374000000000024,7.0,-0.3464631296507844,-0.06072076616851,0.9132410899365472,-0.5983592320551179,2.479461488766193,0.0181393762843317,0.9277898597436599,0.03460126110032032,0.3020216791576798,-0.21631374021518615,2.374000000000024,8.0,0.7289039667937836,-0.362427937366751,0.5455080177306005,1.247100979617865,2.315579811742685,-1.4328128398308198,0.8768032481346496,-0.23148391898176554,-0.37449499603243175,0.19335138287594528
36,2.411000000000058,0.0,0.0782451341274443,0.0230248926354041,0.9765774691771802,-0.1368585108955715,-0.0545931650816833,-0.2048846230237607,0.9978906892571194,0.028116339798064223,-0.0571452454674797,-0.01257237649661288,2.411000000000058,1.0,0.0653287315911621,0.0406393550927224,0.9771072610754346,-0.1653243883555097,-0.0609347828995976,-0.2479907843959493,0.9960504940409739,0.03085434359372538,-0.03841419848364736,0.07386319893554032,2.411000000000058,2.0,0.0876199150741433,0.0521712381378167,0.9751819893709928,-0.2162756068862548,-0.1221534852212685,-0.558383984362754,0.9953620073501043,0.03869041650139494,-0.0474426911062968,0.07420725743154921,2.411000000000058,3.0,0.0458486967558318,-0.0194373337784522,0.9783665402400964,-0.0260039920879794,0.4456445397826439,-0.5441937726593993,0.9997062747097707,-0.011722718980242791,-0.007919652425937469,-0.01967793868968875,2.411000000000058,4.0,0.0490206538663197,-0.0272469330621805,0.9786718449680788,0.1043182794624157,0.6483374459132419,-0.0230406229090995,0.9985451845759175,-0.009604063703610867,0.0009974880250713078,0.0530498005487654,2.409000000000105,5.0,-0.2354480686286252,0.1408667324157729,0.9400009418492904,-0.665208181948721,0.1610375220873765,2.321260076719492,0.6157672048993826,0.03618083829467258,-0.10316704313721718,-0.7803065151086592,2.409000000000105,6.0,0.1393617495565623,0.0722373952129263,0.9675644999137708,0.7906993531318992,-1.008453926574788,1.3706689286560878,0.519291712002758,-0.0640385687852728,-0.06103710943420837,-0.8500056769369807,2.409000000000105,7.0,-0.4189527701457274,-0.1493955315279836,0.8732906455165385,-0.6259844874054055,0.4014162787810988,-0.3837010756843772,0.9201097217655216,-0.0013311988791619666,0.3202082115367224,-0.22552833322350438,2.410000000000082,8.0,0.5713516564472916,-0.3651427800807286,0.7080346282702935,1.4932179233013014,3.403343144819731,1.8519441022043075,0.9284011229304397,-0.21543436732986634,-0.1733252429154197,0.24822922568261294
37,2.514000000000124,0.0,0.0830859610493482,0.0129534307922947,0.976214080879402,-0.1645103210804693,-0.1164045803406683,0.0457774924587724,0.9978994551903846,0.017504108896475034,-0.06142356387088675,-0.010836480234506713,2.514000000000124,1.0,0.0804440714252206,0.0323855603255709,0.9764737205142456,-0.2347451026279195,-0.3724708695561623,-0.4472703873817892,0.9968613568501973,0.02023996542500247,-0.05750370594386257,0.05050844306747284,2.5150000000001,2.0,0.1060965236680546,0.0356770832562065,0.9732957789880132,-0.2616776803472016,-0.4361360841433387,-0.4307489845374379,0.9958679984974718,0.026634016586620814,-0.07005266217739724,0.05128531223423202,2.5150000000001,3.0,0.0277603536799118,-0.024056429489512,0.9795813651574752,-0.0425113915388057,0.2565664717959276,-0.4990590927629599,0.9988986719202745,-0.01347417808912063,0.004003930793443126,-0.04476447585905577,2.5150000000001,4.0,0.0075814368714522,-0.0158134427916491,0.9801094106486476,0.2020177194907935,0.5574044364879173,0.6837568313765656,0.9958168355298126,-0.0008039373858960071,0.028785818365938104,0.08671539898468347,2.509999999999991,5.0,-0.1867605426913377,0.116108916269586,0.9542338388761632,-0.2463856429287403,-0.433980952187901,1.895148337595436,0.6880728248827904,0.008294647998305848,-0.09725194122368082,-0.7190473186102754,2.509999999999991,6.0,0.2201015151268824,0.0640433237001541,0.9526330750757545,-0.0901303832540014,-0.8499419538719708,0.0297111834096885,0.5177142030118882,-0.10417541450321612,-0.08167867235332373,-0.8452503070070113,2.509999999999991,7.0,-0.3540195057627553,-0.0837795066200223,0.9083221806220522,1.2088551797831142,-2.3087952374939977,1.5537072359532362,0.9689815643806381,0.05656496521349275,0.17392055079349691,-0.16621303983904046,2.509999999999991,8.0,0.2944902361658421,-0.3097245876424058,0.882001803066597,2.063373887717155,5.001140457825781,0.0956658317368556,0.9635443168548797,-0.16054702520564723,0.09713632616318801,0.19071323051586897
38,2.546000000000049,0.0,0.0883577736752781,0.0178730126835303,0.9761385451096388,-0.2071254520316143,-0.1522788269564089,0.1419142707434106,0.9977044974248548,0.005766473862980048,-0.06732209729569047,-0.004496533455365535,2.546000000000049,1.0,0.109330148786722,0.0128176861004215,0.9735253594484862,-0.3714328800277308,-0.4954262221951303,-0.5676936796935962,0.9963503306086486,0.003515128736037791,-0.08276427998321778,0.02058486154593099,2.546000000000049,2.0,0.1390208617545871,0.0183530447841912,0.970154815348644,-0.4182500601196997,-0.6496499956207394,-0.3714563286484501,0.9941619809807828,0.007430811873751069,-0.10325305968238895,0.030422759136660385,2.546000000000049,3.0,0.0168748310687556,-0.0181080688353921,0.979231503741303,0.1410243606332209,0.0755975706423401,0.1939948646514579,0.9993448124774594,-0.005833180793730545,0.006302377040305603,-0.03515963338632403,2.547000000000025,4.0,-0.0152175498217666,0.0022200074903233,0.9801390196008752,0.2406008204950877,0.2687570263900419,1.233589975269804,0.988223635590606,0.011820918198225413,0.040242963974396466,0.14715575355245672,2.5850000000000364,5.0,-0.1145056497610508,0.1091414738878916,0.9667112261944506,-0.0997357669913554,-1.3763833368120146,-0.7812445794308622,0.6535119650954107,-0.033362895938701294,-0.13090031781571224,-0.7447644832075867,2.5850000000000364,6.0,0.2743931876031456,0.0308298086796518,0.9406215506215884,-0.60884282428323,-0.6747735859753746,-0.2049770768084553,0.5033346988005539,-0.148061518234174,-0.07503525404145045,-0.8479986311619152,2.5850000000000364,7.0,-0.2014247870559738,0.0352407866835661,0.9576174299339894,0.9107821667055124,-0.9685063920134264,2.403902403410408,0.987473991595932,0.11166858336267407,0.09607168800220749,-0.056528525328168155,2.5850000000000364,8.0,-0.1030657703693063,-0.0531723999051313,0.9729754071231758,3.7640492813938327,5.494667513068052,4.152963315482984,0.8839317365227792,-0.005758875809833718,0.3659231269590712,0.2910872475285138
39,2.604000000000042,0.0,0.0916959825487014,0.0167237900547478,0.975406664745855,-0.2586513343409976,-0.0714982068430881,0.064788603431472,0.9976054265916523,-0.0071144820576355605,-0.06876065226096457,-0.002183959840764557,2.604000000000042,1.0,0.1423550052330466,-0.0008714266649727,0.9690569091135292,-0.3643978595477216,-0.5165852646826554,-0.6481660399435262,0.993981136190022,-0.01163202063574234,-0.1081144260733096,-0.013321706691009433,2.604000000000042,2.0,0.1802711967612925,-0.0096328155880668,0.9631404386080452,-0.5375874358757007,-0.5767588086827726,-0.5247784624088812,0.9911249676730844,-0.016579035982865902,-0.13188858662128397,0.0013545257274625228,2.605000000000018,3.0,0.0190953948495308,-0.0371039411650342,0.9787561818172912,-0.3031327668828332,-0.0718012204822337,-0.0822506110537684,0.9989792055323292,-0.022469033589920827,0.001618324739365303,-0.03915444379083113,2.605000000000018,4.0,-0.017824494192096,0.0135656092346351,0.9789219895644844,0.1053251967451773,-0.0501376905542369,0.6419790631315287,0.9831688916524358,0.01802739353040688,0.034949937594655006,0.17841649428107967,2.659000000000105,5.0,0.0324245894955174,0.0228483925342996,0.9789997941545472,-1.6212807291758442,-2.3760125185724275,-0.1680586682829873,0.6310458183443989,-0.1691177985438095,-0.13627523136614625,-0.7447210260774477,2.659000000000105,6.0,0.2843122792303763,0.0295946233343756,0.937004101457686,-0.0626051356253604,-0.6308732681218427,0.4185838048234792,0.5182159653209807,-0.1750905360502534,-0.08632889768989602,-0.8326721076724777,2.659000000000105,7.0,-0.1593558308523582,0.1190547434135655,0.9601519084207896,1.1460741388379687,-0.7325661596425785,1.3983552895162348,0.9849023274461878,0.1676889679395659,0.04285567889492699,0.003347567609594778,2.659000000000105,8.0,-0.2806202004831815,0.1108669466484153,0.9325957448013776,-0.0439930962372771,1.794651727820778,2.9611033028922584,0.8100227659569034,0.02210855770108329,0.41418996936689223,0.41451296672572085
40,2.7110000000000127,0.0,0.0852665840156623,0.0016778146876201,0.9765386805386532,-0.2849404807273302,0.2441002250480474,-0.1483807671212543,0.9982746123108446,-0.020012609637119677,-0.05415811336462706,-0.010686095073952937,2.7110000000000127,1.0,0.1640244602026371,-0.0136628752147283,0.966088144164962,-0.2016207958097552,-0.2213556779446653,-0.7075068960541537,0.9917359730186982,-0.01759764634690505,-0.11708619894133193,-0.049405512659787466,2.711999999999989,2.0,0.203154470869986,-0.0311481049902653,0.9587304399679044,-0.3583546204371125,-0.208002792221445,-0.5270886005692308,0.989283583564359,-0.030729376781768902,-0.14017631507422298,-0.026912773637736562,2.711999999999989,3.0,0.0250597199974069,-0.0522506425886945,0.978690901553049,-0.2141389737014085,-0.1419569916255226,0.047695915562571,0.9987343721435067,-0.033901688428421776,-0.0063050914821418174,-0.03661386680233849,2.711999999999989,4.0,-0.0113971394261799,-0.0004919047608058,0.9803626182401114,-0.4187206693734014,-0.1130459954465442,-0.1326978646168352,0.984765601297538,-0.0037516636984546107,0.022685871546238717,0.17236004975857822,2.707000000000108,5.0,0.1437402687255484,-0.0517226406610464,0.9680462300891188,-0.9080559032450906,-1.4664888400135174,0.4663876188563844,0.6334771168106318,-0.24645961924447313,-0.13251123782682536,-0.7213911355213349,2.707000000000108,6.0,0.336903500244207,-0.0050050268773664,0.9199739024717812,-0.2216837332298928,-0.8321321470735265,1.5861513888018766,0.5793936467131274,-0.22065177835019628,-0.08403584653198688,-0.7800985651550782,2.707000000000108,7.0,-0.1757643605366087,0.1163797022237934,0.955612711549746,-0.5838970109696093,0.5843219089305945,-0.0389251917230902,0.9888213237089194,0.127861255973943,0.07644685333422382,0.006306156880553072,2.707000000000108,8.0,-0.2367974904692989,0.0974250272512687,0.9460450901371096,-1.696959418771772,-1.9580618439079407,0.6086371074716529,0.8448794502004554,-0.00043696324110363316,0.2677038748585674,0.46315565318563373
41,2.740000000000009,0.0,0.0634770309514845,-0.0143914993029216,0.9775349360966074,-0.2755490168240236,0.4540943234918848,-0.1326637443108362,0.9988876222713898,-0.03193416979441964,-0.029339898469879253,-0.018517484449238023,2.740000000000009,1.0,0.163622366345774,-0.022356562518642,0.965580087483042,-0.5135512203727403,0.1264103173705034,-1.2537179422823492,0.9869339578151147,-0.0350634362061116,-0.1081270677853962,-0.11419481408954495,2.740000000000009,2.0,0.2059909706212143,-0.0437753859739809,0.9575032300756792,-0.5296611054687529,0.0584789914300102,-1.26204263160273,0.9852553086348739,-0.04730427448126879,-0.1357333690097118,-0.09279404592900092,2.740000000000009,3.0,0.0372478422531165,-0.0631575101994673,0.9771129551658246,-0.159590163965218,-0.1545765176072643,0.176765316431567,0.9986262596219128,-0.04210861419673515,-0.014509579981172199,-0.027603084841168444,2.740000000000009,4.0,0.0058910389277737,-0.0477822430011092,0.9790424673701004,-0.7570495500007166,-0.3140980037474261,-0.6862524919733416,0.9894755327195626,-0.04126070349813512,-0.003814134366956819,0.13864045901254038,2.764000000000124,5.0,0.2196578354255772,-0.1446324087493981,0.9431404464211556,-1.0527214567520908,-0.4584948453754443,0.069783783126906,0.6239354025488664,-0.28558112847192396,-0.097038892055063,-0.7209240500466138,2.764000000000124,6.0,0.3777718885720093,-0.0896006288485685,0.8992047194686419,-0.6949834513005572,-1.0183471192094091,2.759733151445294,0.6756371724421778,-0.29193419320179026,-0.05034731820159156,-0.6750955381306161,2.764000000000124,7.0,-0.1773778212942806,0.0711186742970264,0.9616819862507188,-0.6894766404424568,-0.7001919510349278,1.3291904997782285,0.9929200590712969,0.08938792499231663,0.0366494781568588,0.06911129365197848,2.7650000000001,8.0,-0.1136350249120101,0.0444876380732953,0.9720766076662404,0.1342920510481234,-1.1146445026235243,-0.1502204799708842,0.867049182404371,0.02819227632844315,0.2024300801761097,0.45437096461726767
42,2.810000000000173,0.0,0.0241985161055972,-0.0308261976351596,0.9785832500904792,-0.2810842060356189,0.4740305320106296,-0.0385007465967721,0.9987971848786517,-0.04386810777513213,-0.003753002423814281,-0.02157979544659466,2.810000000000173,1.0,0.1501842689012855,-0.0434511385399595,0.967140984517856,-0.4757533717472971,0.2670830181165615,-0.6986243212256831,0.9829148991358282,-0.05269624657013492,-0.09060705415207886,-0.15130025906159653,2.811000000000149,2.0,0.1990583189736091,-0.0670450984960595,0.9568258673421484,-0.563811868627848,0.2423292400088028,-0.8233524692442584,0.9808805130603946,-0.06783212825679942,-0.12014299227577915,-0.13725116714094765,2.813000000000102,3.0,0.0436339761892137,-0.0772741237582066,0.9757206495300386,-0.016066706637897,-0.1907084691637389,0.626782807915664,0.998777321918919,-0.04340333479961732,-0.023310274958627898,0.004079562488485939,2.813000000000102,4.0,0.0360122481699144,-0.0878831458132244,0.975350537326822,-0.7919171602579023,-0.5538890423116236,-1.7975182110504957,0.9948377428713937,-0.07634194577594383,-0.045742591205411444,0.048758466172636114,2.869000000000142,5.0,0.0604541822210514,-0.0954710549869423,0.9730963824368396,1.4657108597653654,3.951810142672191,-1.4372389325065689,0.6203588152129441,-0.06990643547602166,-0.022830213057102013,-0.7808628637849263,2.869000000000142,6.0,0.3912578397947088,-0.2743923903849882,0.8558096277198513,-2.079728076794753,-0.8127382374212774,5.523244148255925,0.811013476490903,-0.40508394619035687,0.0995077621085542,-0.4101979312102085,2.869000000000142,7.0,-0.1358686950134547,0.0590834216723959,0.968972056872035,-0.8254581784949819,0.161151575315866,1.3042929498605629,0.9890008709650059,0.043798316106069206,0.04220003286950636,0.13482634001761443,2.869000000000142,8.0,0.020369121008092,0.0031421155308077,0.9797209939668278,-1.2634509670387113,-1.8510924924925845,-0.1549632631043978,0.890390818332324,0.009706208423183737,0.07001142488073109,0.44967586163114187
43,2.875,0.0,0.014650409839824,-0.0527053458592934,0.97895276291013,-0.3398814865069509,-0.0034199297513475,0.2019299203644077,0.9981747098126227,-0.05918498942413686,-0.003272576205865353,-0.011561832135425226,2.875,1.0,0.1361925991762277,-0.060854899837698,0.9689691724174546,-0.0647700408655701,0.1928272338983047,0.7599823903867003,0.988918555500234,-0.056704505782569706,-0.07569948359385152,-0.11443023112320079,2.875,2.0,0.1775695349379298,-0.0851347582626158,0.9596536527297196,0.0100895706824709,0.3705875498108121,0.9300203168401148,0.9887848046215716,-0.0690832142330864,-0.094913918639478,-0.09232262837032179,2.8759999999999764,3.0,0.0500692263756102,-0.0852326286300131,0.9746027250048946,-0.1197973529828682,-0.1463786331160861,-0.0868632207784834,0.9983019602227922,-0.049254868673505085,-0.031098967384928965,-9.140501847692592e-05,2.8759999999999764,4.0,0.0737695703623696,-0.1143906133240138,0.9702771965123717,-0.4352651015404656,-0.2285818024849241,-1.609572069692223,0.9931864786385303,-0.09149337572352076,-0.064832890755164,-0.03172187139246311,2.90300000000002,5.0,-0.402485334425403,0.1788960975778722,0.8750215665021518,3.5266291884281884,5.902789268836285,0.064889491340913,0.6495724248551047,0.3048366974549028,0.03694167480882878,-0.6955325768179131,2.90300000000002,6.0,0.3269578084360296,-0.3258160217381368,0.864301747933812,1.3417354265659052,0.6095029583521455,-2.442854562318768,0.7835470431198703,-0.33397184961089915,0.039834934269910215,-0.522427040740901,2.90300000000002,7.0,-0.1494251864726024,-0.0176806400393671,0.968264689336251,-0.7444143215098947,0.3583344098657591,-2.061921893179993,0.9977960647278243,-0.0066333593659785505,0.057391054362145234,0.03263860653261301,2.90300000000002,8.0,0.1659697118976511,-0.0946917847270758,0.9615277014406872,-1.5369447451525944,-2.1389630862727103,-1.5232179144089557,0.9249357283120823,-0.020905118746201493,-0.08228740764576868,0.3705207916500019
44,2.9540000000001783,0.0,0.0070326868960638,-0.0604093011085576,0.9781657618494922,-0.0144205510288318,0.1027753797438487,0.1279292720062051,0.9983544988549888,-0.057036131906666405,0.0022352434435536986,-0.0054934469941134625,2.9540000000001783,1.0,0.1062719014123518,-0.0385484238206489,0.9731132010157644,0.7028856750863174,0.5916527907062429,1.4070184776408656,0.9978113234320612,-0.02025894326721285,-0.046053649634849175,-0.0429091995237005,2.9550000000001546,2.0,0.1362847516733842,-0.0699951658645943,0.968392040042106,0.6961868539223245,0.7416589628170536,0.9524588356789876,0.9969067305391922,-0.032589139551910215,-0.056441217882976055,-0.0439238831709014,2.9550000000001546,3.0,0.0668688605154386,-0.0870590341604174,0.9724964164789616,0.0492501437862828,-0.3982072602357132,0.5885369564988687,0.9971798293369171,-0.0472153796733959,-0.04985368965322863,0.03029365467970803,2.9550000000001546,4.0,0.0900596815311583,-0.1122036610529497,0.9689172267066064,0.2826685852207354,-0.4737298542559691,1.5460648581647256,0.9924111027867953,-0.07964750597685738,-0.08035334648044883,0.048164484493827604,2.9750000000001364,5.0,-0.5049954849902706,0.2136272029871361,0.8112138918209759,0.7803835848293665,1.0959296833567431,-0.0833536635775533,0.631838681919062,0.36488061475894945,0.05195053198195222,-0.6818674059014008,2.9750000000001364,6.0,0.3376909598717886,-0.1773556591081914,0.9027506775423484,1.751649692014909,1.663001393206641,-2.1526636682048927,0.750640932932518,-0.21310707492533754,0.022108522080956032,-0.6250078220905412,2.9760000000001128,7.0,-0.1379023654557515,-0.0478006075552066,0.968154450239765,-0.282344257145421,-0.6329593562288626,-0.6710487846160826,0.999390627513682,-0.02363537599486791,0.025685451731402936,-1.444797123219771e-05,2.9760000000001128,8.0,0.2012932985803864,-0.1089533766540533,0.9524805350569152,0.2654195705375493,-0.3103807025912615,1.8405038027476224,0.8869782914977488,-0.010146186314575045,-0.09329386035315596,0.4521756527450482
45,3.009999999999991,0.0,0.0098394990644678,-0.0634206322806234,0.9779340507719764,-0.0343085573542906,-0.1140699558702452,0.0748556147773907,0.998404498284701,-0.05630941395339537,-0.0039455547720185,-0.0014629773207160744,3.009999999999991,1.0,0.0511390853225287,-0.0268566202954603,0.9780805262853772,-0.0467699540259213,0.9484247863560588,0.8250267832993479,0.9997470832686879,-0.021875690932629407,0.004511821893655052,-0.0026205162032252967,3.009999999999991,2.0,0.0740660307377111,-0.0308620726281103,0.9768437723422604,0.5454218079537733,1.0300713521301486,0.0397564539789672,0.9991131973493359,-0.001617426623293271,-0.00413270101567554,-0.041870318792916084,3.009999999999991,3.0,0.0960791625908012,-0.0975996445457832,0.9705849287416258,-0.1396806388742047,-0.4544674038188435,0.2413649957371386,0.9949967090053596,-0.054178800469662954,-0.07208061484595958,0.043018503130635544,3.009999999999991,4.0,0.1098959488601306,-0.0994347645049233,0.9682260108218445,0.3439564904895498,-0.4668388140806576,0.9149964917143392,0.9886113615558991,-0.06194333727387041,-0.09748471648886191,0.09647449829386649,3.0520000000001346,5.0,-0.5518791053283427,0.3234895734107573,0.7426122467321113,1.4440769245190486,1.1895431895160835,1.6285974580060876,0.6567067652070963,0.45391604392052864,0.006911994096769555,-0.6022031832698782,3.0520000000001346,6.0,0.1707888943507546,-0.0228146890665442,0.9648376254734494,1.934377847830882,3.529830649733072,-2.8050605223026728,0.6777828196235729,-0.02676153964628899,0.07008926954787473,-0.7314244757410873,3.0520000000001346,7.0,-0.0376957503972077,-0.1041737691417193,0.973784810019544,-1.0627992038441525,-2.855204410732431,-2.658089187551412,0.9805865625040816,-0.0814899990727292,-0.1263100526827072,-0.12591721120977498,3.053000000000111,8.0,0.2455268738754904,-0.1369446486263724,0.9378559150623982,-0.7551024539729737,-0.4763105961332651,-1.5288064784361544,0.9157815520880379,-0.02645108029596848,-0.1391803501861052,0.3758634317521113
46,3.069000000000188,0.0,0.0215220310847346,-0.0617305499185946,0.9766448389177794,0.0464187016001755,-0.2449603136688483,-0.0384453403545618,0.998523646168201,-0.051525409035820195,-0.016976311666639664,-0.002732235138088436,3.069000000000188,1.0,-0.0027944742535332,-0.0196516453962622,0.9801443790314088,0.1981844386069975,0.7697630128080953,0.832246835552879,0.9982941101129235,-0.010475884835511077,0.043031474272942814,0.038044944114247845,3.070000000000164,2.0,0.0092462242311555,0.0028500254514939,0.9796521753624564,0.3811851701057472,0.944802964229712,-0.0418892589903602,0.9979549983689835,0.019675963796986842,0.04219625814666604,-0.04379672907240691,3.070000000000164,3.0,0.1176776287527359,-0.1057150421250579,0.9666293527302128,-0.0755719443843189,-0.4267539116792535,-0.0963173794832584,0.993322189306966,-0.05638511404471975,-0.09274443076622645,0.03911799721903411,3.070000000000164,4.0,0.132638398913837,-0.0870932572810207,0.966363709826562,0.1879782478524139,-0.3453704197833248,-0.0742504022492704,0.9880942473355844,-0.04821590197254057,-0.11125350708478918,0.09469763640468658,3.132000000000062,5.0,-0.5302040438509993,0.3551978337825023,0.7442789603100879,0.0580038436884415,-0.8036448048114054,-0.2043346780330524,0.6511346152030137,0.42063555073435366,-0.010615421635216777,-0.6316460711239618,3.132000000000062,6.0,-0.1048886735373512,0.0835512062307254,0.9706835540488804,0.2133320476669009,3.259620806232206,-4.522649522044657,0.5074641584335633,0.09039508342970173,0.15909721965632972,-0.8420195552923211,3.132000000000062,7.0,0.1553302085739705,-0.163323411768398,0.9537274188533628,-1.174460298903267,-1.67006952803701,-0.3976683241627498,0.9589625967674793,-0.14651144183380896,-0.19569535246853537,-0.14362612727135401,3.133000000000038,8.0,0.2942518674830327,-0.1318593554278725,0.9241076500434856,-0.1697941512844984,-0.8351873334696369,0.0991401215889775,0.9070786242290337,-0.017096411294938996,-0.18281681892689344,0.37880614158834486
47,3.173000000000002,0.0,0.0282259669046995,-0.0733910203150637,0.9763437165923732,0.1248211127158509,-0.2267686167025381,-0.1009770747303398,0.9986135767294568,-0.04383445007455773,-0.028269391940700717,-0.0070927313191278835,3.173999999999978,1.0,-0.0379714885803804,0.0025020098815919,0.9792537495468384,0.3876571278319691,0.5303615179583022,0.350051544247032,0.9961813910196271,0.009681948155941604,0.06763340738976927,0.05435640045988845,3.173999999999978,2.0,-0.0287195438346291,0.0387732057616463,0.9785912457798178,0.6606916563246156,0.6089229687641476,1.132572340512914,0.9962220162276233,0.05632643084525189,0.06495588878743655,0.012237650241718547,3.173999999999978,3.0,0.1413695474090194,-0.0969077477772977,0.9651717668301848,0.2689028760789618,-0.405228005505003,0.2583403252504725,0.9915496747100905,-0.04247471325465325,-0.10988604377323484,0.05431573160802842,3.173999999999978,4.0,0.1591197386046161,-0.0713007737506516,0.9648352752926052,0.2658277635248127,-0.4198558091807641,0.3000790855059229,0.9849682474604292,-0.032838938588585845,-0.12747655276266295,0.1118431227338261,3.188,5.0,-0.6680461364363668,1.1756627773611552,0.3454220512936277,16.649497059818707,3.919103681831694,-17.59478961187346,-0.48270358735827346,0.6440389956186471,-0.5742894032950899,-0.14967531572356077,3.188,6.0,0.3901248217922705,-1.2075224997060456,1.1163109047775233,-22.062733799724484,43.15676570292097,-90.24331752760716,-0.07245134766078232,0.10584888526992385,0.3469376343794564,0.929075397134397,3.188,7.0,0.1341919870177687,0.0181714091537327,1.115284856218173,-2.662581287340116,4.980994298323519,24.66085938322944,0.6057290995717993,-0.2544175173260449,0.38118889573498965,0.6504298659947345,3.189,8.0,-0.9545679692544052,0.4383070517962038,1.803689529941126,15.725920784840024,24.67041447556952,-48.46752058604524,0.1938967539150123,0.150654804683399,0.6223738334175386,-0.7432079050468892
48,3.249000000000024,0.0,0.0451779134774669,-0.0553566329362641,0.9775237078065075,0.3163676903701615,-0.1112398336231387,-0.0082318354584303,0.9990669584853614,-0.026510732513435633,-0.03340278065665503,-0.00682991718935567,3.249000000000024,1.0,-0.0671908009754873,0.0208122023313493,0.9764308723603486,0.2487432235811624,0.3689622415526905,-0.245795513877964,0.9954307250905431,0.020132802583896714,0.08363309141392757,0.04144692782804627,3.249000000000024,2.0,-0.0539898662443388,0.0777093052716905,0.9758726137243064,0.3468082182359208,0.3241996289535766,0.5908916788101364,0.9935704853326807,0.0735500834822269,0.0753899758808251,0.041526225836543376,3.25,3.0,0.1567913849753673,-0.0774939830460615,0.9640436422637528,0.4049935099686728,-0.101078930187565,0.2992410531174675,0.9910077515851463,-0.023037731973319313,-0.11066990992974458,0.07158959589088842,3.25,4.0,0.1767642204768977,-0.0562534022546095,0.9621429026365969,0.2411865986366043,-0.1885698567704903,0.0098078303167406,0.984487301182056,-0.018540814989797507,-0.13197697814394158,0.11411866293809818,3.244000000000142,5.0,-0.5330872226333832,0.3474903309479281,0.744809695803381,0.6653336307711478,-0.6287594330114332,-2.428094762017539,-0.5649762773057314,0.6634672943524575,-0.4745951587744943,-0.12398544541275436,3.244000000000142,6.0,-0.2744478089538864,-0.0341206088962286,0.9406828286988989,-0.2831070283098557,3.721813480567899,-3.7712286993002864,0.04499321978484249,-0.16485998961995552,0.2948277552874859,0.9401454082789764,3.244000000000142,7.0,0.2372758652111815,-0.2050512432269258,0.9272945332737474,-0.561404653628933,-0.4674977299762521,0.2942261347649211,0.6149259944584211,-0.23333455410770793,0.3133764130477153,0.6849935991993114,3.244000000000142,8.0,0.4028751255093393,-0.1857381154643063,0.8741870427486338,-1.571041119767829,-2.592417486013124,-0.6967658740613955,0.2569035088158964,-0.010038411712071742,0.6215355800747342,-0.7399955000873608
49,3.288999999999988,0.0,0.0327599423197004,-0.0245445650046017,0.9790762741012288,0.6192803392693667,0.4023268666653189,0.0230213827159636,0.9998992464235336,0.005956386322096534,-0.01180389184399766,-0.0051659075646597555,3.288999999999988,1.0,-0.0710296935977536,0.0359098072550963,0.977001160884833,0.1289045962154638,0.00554846234855,-0.2869679201675464,0.9961337259484393,0.025006302808730067,0.07987159488559722,0.026698561353539402,3.288999999999988,2.0,-0.0579103424501759,0.0890234073977785,0.9742536759861842,0.1254424535772927,-0.125818743367193,-0.5464715054498825,0.9948334824887275,0.07503353234625013,0.06703256112699241,0.013525786178678575,3.290000000000191,3.0,0.1490404948051034,-0.0533570852216419,0.9667517532256664,0.5750110925551893,0.2225282449761401,0.5372714756105447,0.9904039643305165,0.0018245619822376627,-0.09429486034267749,0.10102048171002197,3.290000000000191,4.0,0.1772510262721848,-0.0522008545734167,0.9627258926959752,0.0158950756165876,0.0340527934995028,0.0110710747273472,0.9851579954287663,-0.017779285019669026,-0.12633941620429703,0.11483019193627421,3.259999999999991,5.0,-0.5223204703819283,0.2482953617631759,0.7909663327518401,-0.8381926619824653,-1.0323566602885246,-1.2700458279647318,-0.59592099282679,0.6802211851967274,-0.39175024374783757,-0.16943746941394702,3.2590000000000146,6.0,-0.3088890965369791,0.0995787462073813,0.9249895130996538,1.3645755320184068,-1.2013358051130316,3.401198959530813,-0.08320771391961061,-0.061479014120445555,0.359060591835221,0.9275625577598479,3.259999999999991,7.0,0.2557624030417978,-0.2092501316775799,0.922645097306218,0.2083222727102688,0.0809974197600264,-0.8810333542003861,0.660188529713052,-0.22522202793736654,0.274465752723626,0.6618872214727763,3.259999999999991,8.0,0.5472737318672898,-0.2494205620544787,0.7735908774232525,-0.9051693510260788,-1.7945472344279674,-0.4931641555595107,0.28549874355408283,-0.12790522011981825,0.5962404277314576,-0.7393430018832594
50,3.339000000000169,0.0,0.0089462147063084,0.0123592266074725,0.9792048890605548,0.5634193528156017,0.2982979728328777,-0.1053819600636232,0.9993547222575274,0.034278161878889025,0.003863009368949945,-0.010011187661836117,3.339000000000169,1.0,-0.0650784217721907,0.0351647911439754,0.977166432335578,-0.2637211624185829,-0.0840502245978205,-0.5811822450938281,0.9974408834719848,0.008839047108596473,0.07093612277326312,-0.0012734640690574696,3.340000000000145,2.0,-0.0368535462757151,0.0986450149762768,0.9744434191615404,0.2254076076599672,-0.6332666608401968,-0.7433068496581343,0.9957392938083531,0.08161058017764075,0.033864140627009875,-0.026385449564204917,3.340000000000145,3.0,0.1297217039066001,-0.0182616846102623,0.969767905434472,0.5316668833080738,0.1626304560710129,0.0987420705079832,0.9904588756213469,0.026431119442536143,-0.08092784138071474,0.10836648982674214,3.340000000000145,4.0,0.1705541251117245,-0.0438667438534684,0.9635590273517594,0.2167725692592251,0.0340524754445859,-0.1458850385649403,0.9867844815663177,-0.00579988873274847,-0.11975969972372183,0.10899707589043625,3.33400000000006,5.0,-0.4532770031887702,0.195188485265348,0.8470079182628852,-1.512429391379776,-2.298510078752847,0.2616587254376213,-0.6088429867487728,0.6632169431283532,-0.31132027050911854,-0.3041926905835273,3.33400000000006,6.0,-0.1950563847637554,0.0887837862030923,0.9563516330672196,-0.0171943852028307,-1.3107320744307784,-0.879456875549785,-0.016478728996980694,-0.022703493372903404,0.33169278971444494,0.9429702519861163,3.33400000000006,7.0,0.0598620728216549,-0.1272589109789818,0.9689322483094154,1.431474604451732,5.12275287884652,1.0286082791060946,0.5819164142595075,-0.3213697823026988,0.46009032106676667,0.5885674526328762,3.3350000000000364,8.0,0.5905004467570454,-0.1584854597561701,0.7656373694025163,1.7228121147721207,3.285476717356669,-6.57699806565412,-0.05769766392804102,-0.25280853046600293,0.4407607502220898,-0.8593537034100263
51,3.413000000000011,0.0,0.0042674547054271,0.0445970663681366,0.9782933560551728,0.3802727244039879,-0.0951197397890197,-0.7045370463460555,0.9976207692226682,0.05188574225730383,0.00012678526181157632,-0.045394432384136325,3.413999999999988,1.0,-0.0501705589727414,0.025662599441843,0.9783763825860936,0.5085500287503733,-0.4776826666460205,0.1354593551629115,0.9984847091655842,0.03509939010909337,0.04223478315232646,0.0035413935907077413,3.413999999999988,2.0,-0.0088946333900027,0.081474508761224,0.9769876099106758,-0.231356659438323,-0.1769349480261515,0.0169338913626857,0.9972473848990216,0.06587165526472051,0.022253619587483234,-0.025755674326326434,3.413999999999988,3.0,0.1154012551383566,-0.0158604939707956,0.9731084189562302,-0.3156660331866604,0.4950271417701438,-1.1732100734969575,0.9972214334142844,0.009882486843386305,-0.055032799345868036,0.04922540186842547,3.413999999999988,4.0,0.1588653024522076,-0.0335295450427802,0.9666434633751956,0.0436597081360202,0.4098542941405114,-0.5458636090518401,0.9920351311086215,-0.002824332884443141,-0.09548119026495581,0.08210763725528575,3.410000000000082,5.0,-0.3315300946985915,0.1746840282469393,0.9053796367185234,-0.5525638967798396,-1.1262074775362103,2.165755021930315,-0.5961269487696315,0.5916060982999563,-0.32793161387909364,-0.43254565310908494,3.410000000000082,6.0,-0.0886065293954436,0.0798067439134606,0.9723778928865184,0.1773380829858389,-1.6788738886046872,1.109647335819664,-0.03967664859992364,0.07324321145879302,0.31467906923311584,0.9455359744175049,3.411000000000058,7.0,-0.2868036748040513,-0.0845832859275248,0.9330484016708857,0.9092367334705364,2.842692655401512,-3.743066353419688,0.6567871392073292,-0.44614874675819116,0.4612156904615648,0.3960581225148774,3.411000000000058,8.0,0.7249085098331856,-0.2564506227976429,0.6077883928129355,-3.4858498576888155,-3.66798550474873,4.157619739935776,0.14742270307886876,-0.3582188046641475,0.6242771116316636,-0.6783980560811894
52,3.479000000000042,0.0,0.0057182570381644,0.0462924889767663,0.9781494297911651,-0.0830823390519478,-0.0248631437534408,-0.7217028265894467,0.9956788559690385,0.04482273931293119,0.0002848226262017326,-0.08132931017009415,3.479000000000042,1.0,-0.0266619984117248,0.0443530923353688,0.9784906443298184,0.2619490335845291,-0.4853228009703572,-0.7980192046719253,0.9981213029778659,0.04528294956359617,0.016965340844475294,-0.037623081088859436,3.479000000000042,2.0,0.0105736280915377,0.0827402506359104,0.9763673741546718,0.1809227381492531,-0.5459483999961398,1.3587862324889224,0.996426938771915,0.07313936417190249,-0.01307486521907942,0.04016263185678101,3.479000000000042,3.0,0.0855596389342622,-0.0197625202021222,0.9749117862559148,-0.1160181522422023,0.5872549973028869,-1.2249202590974515,0.999619208545694,0.004199777046443897,-0.024493230151410177,-0.011995059649320431,3.479000000000042,4.0,0.1223360280027348,-0.0366882108774766,0.971074596225812,-0.163299041297747,0.7305757765590843,-0.7873724538859368,0.997436850379564,-0.011273502899145438,-0.05684088069292,0.04197322860266174,3.484000000000151,5.0,-0.2888403912364908,0.2085496152212231,0.9131069413718363,0.5402318429154154,-0.5958738305551498,-0.6833273917417968,-0.6554369559325458,0.5359956158900104,-0.29244429197991934,-0.4445080793786881,3.484000000000151,6.0,0.0663988708891726,0.0850387041984896,0.974603308394182,-0.7028096266041616,-1.7115562493491088,-4.184766583268715,0.19185359615870354,0.07420896623343462,0.2642544451198327,0.9422604816110816,3.484000000000151,7.0,-0.4685065019212101,-0.1184758813771958,0.8524483111540826,-0.1589420639618443,2.8104249691188503,-2.2002810457896063,0.6507252032046941,-0.5354160781196314,0.4674704963058091,0.26712856134977936,3.484000000000151,8.0,0.7072036572881142,-0.3955843642479009,0.5514027546910693,1.0698854744187791,2.725452439199086,0.516850294001939,0.08400063834999628,-0.25506177593464446,0.5836348228359313,-0.7663274605461621
53,3.550000000000182,0.0,0.0095910830471004,0.0388989864364156,0.9787302386154232,-0.205880146001564,-0.0941778522726251,-0.6914857585909223,0.9927684254297681,0.03164718696520205,-0.0031335784863261943,-0.11575616490174064,3.550000000000182,1.0,0.0096552034331247,0.049825079907538,0.9781468389045036,-0.1518906326521087,-0.5563851546660528,-1.4613374009354283,0.9932037616187659,0.03332809382716525,-0.010266381153237367,-0.1110411071909762,3.550000000000182,2.0,0.0398160990938448,0.051759450961133,0.978118928090624,-0.5778832393145558,-0.5850259332665271,-1.7451291092471983,0.9970935431453974,0.04169536206750699,-0.040301014965260194,-0.04941448363169355,3.5510000000001583,3.0,0.0374934235046121,-0.0323669667648024,0.9784848607190352,-0.3814717338073466,0.8435426408677428,-1.2598975842870852,0.996924954173725,-0.014873516417383721,0.017474717231988245,-0.07492695451411388,3.5510000000001583,4.0,0.0599309874972126,-0.0308075759825675,0.9771597464077648,0.0164222369347271,1.0074130313956218,-0.5410668798876832,0.9998245919402703,-0.011323422954250638,-0.004088881196865825,0.0143473514848351,3.5650000000000546,5.0,-0.1338236192711425,0.1400599884870473,0.9603189254358055,-1.6396472348890307,-2.9644103616625603,0.6647609693328138,-0.6543156932583981,0.4739464741145625,-0.16067245916191916,-0.5669480347412957,3.5650000000000546,6.0,0.1102380644739112,0.0743074553461007,0.9704844002976212,0.2367706108579789,-0.2237226028165998,-0.6678178570274451,0.22533253542583867,0.07694322730414331,0.2532091564856229,0.9376513804833999,3.5650000000000546,7.0,-0.5201545828447285,-0.1864175568277052,0.8095367221145781,-0.3571148415954529,0.6278688674553651,-0.8918703043022903,0.6645741859737041,-0.5524484131291167,0.4408233243293495,0.24252154315798521,3.5650000000000546,8.0,0.5060181868567837,-0.4009356407251262,0.7369553626689376,1.6022245601889933,4.821276311848944,1.493573383114869,0.011779879606064459,-0.0323424471532061,0.5180351204687862,-0.8546664931477652
54,3.639000000000124,0.0,0.0257328739275595,0.016333624523569,0.9798469431035398,-0.3580107847926664,-0.2668714148247699,-0.4624620076305297,0.9901332552703314,0.009953754171173907,-0.015123719900393783,-0.13895442663712082,3.639000000000124,1.0,0.0452275840353322,0.0226303900232197,0.9783804633626552,-0.5969985296430387,-0.58916296899331,-1.3520421661759394,0.9832883103783548,-0.001113079497476051,-0.037345703538221704,-0.178180128394127,3.639000000000124,2.0,0.078646987682513,0.0270989602806632,0.9761133631295976,-0.4900355019137195,-0.6978281954991669,-1.4820480829119642,0.9894125969060777,0.015597794049687955,-0.0723525422126922,-0.12483802121034779,3.639000000000124,3.0,-0.0062440345723043,-0.0586327241303634,0.978104399179,-0.2307189467058699,0.5947206023729291,-1.1569425686175665,0.9898339756280613,-0.02650995710449502,0.045005767933106997,-0.13228909146039058,3.639000000000124,4.0,-0.0085578957422349,-0.0330562283660024,0.9796530243850012,-0.1471893668859467,1.2038939380150806,0.0804898210379541,0.9980292214236234,-0.020084511309854766,0.05679008774596976,0.0175832739785761,3.6200000000001182,5.0,0.0326783980185389,0.0765320124540021,0.9761705657172224,-0.9070827953018608,-2.25285963629473,1.4875885918490743,-0.6231816723220082,0.3886105290236527,-0.08385734150445161,-0.673494176878841,3.6200000000001182,6.0,0.1705029699291108,0.0399858334332217,0.964725282331713,-0.3029911939595177,-0.8528809061624929,1.7653888860783942,0.15455976118171044,0.14083295968732615,0.19773202844736146,0.9576948379391278,3.6200000000001182,7.0,-0.4242196541924048,-0.1386563504965228,0.8719014287543414,1.107375256049885,-3.6978660888316046,0.3230561988458198,0.7940553001322698,-0.42236448548696015,0.2879222403167035,0.328915194635634,3.6200000000001182,8.0,0.1887426493424766,-0.3322759175605143,0.901260188252261,1.957483229073001,5.274396715233022,0.4559202384208819,-0.11098219724572964,0.19250422089814606,0.3913329975375866,-0.8930193513408067
55,3.6720000000000255,0.0,0.0384870382922812,-0.0058895760630738,0.9786383707873332,-0.5119598831198879,-0.1929868586798644,-0.3642137348678297,0.9871622935461065,-0.01794704225666314,-0.02180150772631699,-0.15720433879472773,3.6760000000001583,1.0,0.0794982032541468,-0.0046279607828733,0.9767971220567526,-0.4814630853333112,-0.5361857569019548,-1.277506419953112,0.968395287987152,-0.027639664000700198,-0.060910555476358264,-0.24028424711114707,3.6760000000001583,2.0,0.1269592752226094,-0.0026621240378619,0.9710933299794396,-0.6265652836595951,-0.7174674229957995,-0.959107226356877,0.9791135627859445,-0.01858881362508952,-0.10348591057637063,-0.174016532228422,3.6760000000001583,3.0,-0.0340265734547394,-0.0633582975218617,0.9761551712888992,0.0678160292378853,0.4471822035335577,-0.4434718938631659,0.9856376699558833,-0.02152474636745137,0.06376574624299708,-0.15488382247293644,3.6760000000001583,4.0,-0.0646016041323346,-0.0358661286034401,0.9773710930667688,-0.0233143263567164,0.8355395287933034,0.961687352305946,0.9930366075026452,-0.019091594257514655,0.09666706715028517,0.06457000322832687,3.695000000000164,5.0,0.1730772850565232,0.0224082701649612,0.9641800261495136,-0.8896661126191987,-1.813449199326829,-0.2670282845752064,-0.634400548582536,0.31998060582516064,0.019349249709758834,-0.7034017076959721,3.695000000000164,6.0,0.2327866217096706,-0.0014085891128721,0.9522654066118909,-0.3850388284021616,-0.9394646836411796,1.0380003576480124,0.11534548870849202,0.1933951690368506,0.14359928034278394,0.9636767993019453,3.69600000000014,7.0,-0.2586099372702066,-0.0330710876458977,0.9450736497792208,1.4146282577641338,-1.4713368094094852,3.670768414882698,0.7927150923358052,-0.2570249512151772,0.28236797914163125,0.47519394060882464,3.69600000000014,8.0,-0.2318535630146795,-0.0967663920673819,0.9471632333888704,3.844962855641804,5.21042660101972,3.2138593141072103,-0.11022176402076034,0.49044762965416044,0.09100657408517536,-0.8596685924099162
56,3.744000000000142,0.0,0.03829745329814,-0.0186939288417244,0.978750653688332,-0.5060748460628519,0.1302991134834449,-0.2619416505727725,0.9844164634713838,-0.04099678848651144,-0.011542059734793364,-0.1706173222078129,3.7450000000001182,1.0,0.1029504677289353,-0.0164035354791748,0.9747169462044748,-0.5398929680220174,-0.5463500852334822,-1.249024525493999,0.9488345351309814,-0.05526632938842274,-0.08250530264909448,-0.29975245255624855,3.7450000000001182,2.0,0.1583320559350281,-0.0369402467833659,0.9668791952622474,-0.7399790586620979,-0.6511935065711257,-0.6321515475579661,0.968211454218329,-0.05815741978766782,-0.127569425381709,-0.20714810197501254,3.7450000000001182,3.0,-0.0576063689019628,-0.0712533826938729,0.9753422279982608,-0.308573835915316,0.3237525971728222,-0.3703630088601055,0.9812126761024826,-0.03631126288504326,0.07845815157849471,-0.1724746210153363,3.7450000000001182,4.0,-0.1007793532336011,-0.020712323148156,0.9742835940482748,0.1454354579820141,0.3856721274460282,0.5706940509565854,0.9894305870806835,-0.009857685942741988,0.11188661714766396,0.09171327210540692,3.77800000000002,5.0,0.2907669187002912,-0.0704696777749382,0.933021770112485,-1.7871791527750351,-1.9379615608522247,0.0674354137505736,-0.612975286452772,0.273352084053736,0.15008809804803505,-0.7259569540723092,3.77800000000002,6.0,0.2875817330798697,-0.0639933696048917,0.9342476092799974,-0.7503205244161296,-0.9528642972902456,2.276131155533588,0.01734616858050379,0.2543553522040154,0.059382526777246813,0.9651301366936469,3.778999999999997,7.0,-0.1486953969587783,0.1083834255559044,0.9624924477563648,0.6213293976380927,-0.7388514223025506,3.3497655891566307,0.7372265704730725,-0.1456962934730068,0.27786962873626747,0.5983795144243392,3.778999999999997,8.0,-0.3908105794584109,0.0568841578492307,0.89662438265372,-0.8327637086007413,-0.1236654512261229,1.7664723340346835,-0.010901921917949737,0.4724498719206406,0.07065877736976224,-0.878452960494343
57,3.84900000000016,0.0,0.0231656388421066,-0.0553371629861657,0.9782014882270827,-0.4995267676636494,0.2111378064870979,-0.4551147123411489,0.9791331025704456,-0.06225731929567265,0.0021114165560580473,-0.19343716179942375,3.84900000000016,1.0,0.1335893738847673,-0.0441490530538937,0.9685978217503488,-0.5938579458315012,-0.2904719592676091,-1.2824362970584295,0.9251164902504649,-0.08039210442336085,-0.0897029794505613,-0.3600693884388633,3.850000000000136,2.0,0.194490672836241,-0.0813674390763217,0.9567411970004572,-0.8430548700343743,-0.3625540504253502,-0.7464895879821736,0.9546353635357443,-0.09762059545587229,-0.1357794051636899,-0.2463848517324328,3.850000000000136,3.0,-0.0698899255510704,-0.0984577420955881,0.9721740951742668,-0.389455944531648,0.1279224685290533,-0.3517208377855016,0.9768889946905702,-0.05630196459846354,0.08361905988411833,-0.1884829797591722,3.850000000000136,4.0,-0.11589795329892,-0.0221904512588308,0.9731686638471516,-0.2059335163499921,0.1536533767770296,-0.1231478865588261,0.989563680472875,-0.02212250044571218,0.11302635550452467,0.08659884655335663,3.889000000000124,5.0,0.3576091695146626,-0.1588394472780281,0.8983678043359766,-1.296238779644693,-0.0924164341661151,-0.6229299606726711,-0.6270770770946732,0.27457376441738734,0.21346056745487524,-0.6970065806130593,3.8880000000001473,6.0,0.3332538086445827,-0.1910093609692029,0.901051232198268,-1.7961741545792775,-1.1795289910114657,1.9044301371878487,-0.05213760572798354,0.3177659944956505,-0.07100762811736629,0.9440679846071942,3.889000000000124,7.0,-0.1838394025232913,0.0597542539542958,0.9602335670107792,-1.232656522764966,0.5214046451627334,-0.8586534399697181,0.7513704143277298,-0.2091577914133113,0.2338113482239684,0.580540930689449,3.889000000000124,8.0,-0.2591324649157253,-0.0287888453788783,0.9449463307555892,0.2024822994584752,-1.071821344348595,-0.3311401354954961,-0.026388098751411408,0.39606504961725525,0.06553276718008678,-0.9155007379252555
58,3.884000000000015,0.0,-0.0054202444656775,-0.0775729060950992,0.9770102687228488,-0.349804892926496,0.5136256466070785,-0.6661838121883515,0.9708113274395915,-0.07191493584741321,0.028842392974049353,-0.22698397495103317,3.884000000000015,1.0,0.1354740933089462,-0.0722490269073818,0.9676816874122685,-0.5837324364317863,0.3923686176020197,-1.5532784426731865,0.8947952072656699,-0.0902553317479876,-0.06474569488076735,-0.4324390212964765,3.884000000000015,2.0,0.2049136760091319,-0.1138462667679612,0.9515946684000612,-0.6635968057811207,0.2123422565594345,-0.9651694918074928,0.9402589589904421,-0.11803739424791969,-0.11837446767417129,-0.2965935754533942,3.884000000000015,3.0,-0.0741528778378429,-0.1158373404425134,0.9693854038861792,-0.1794762811253231,-0.0385383453291275,-0.0367219633718874,0.9764472544937993,-0.06504920981909398,0.07980917663410837,-0.18960446940517675,3.884000000000015,4.0,-0.1187250043502008,-0.0499385697154851,0.9711562760940262,-0.4693989461819174,-0.0623578066761543,-0.7064800839520088,0.992208559258096,-0.04996446876010108,0.10056936957609182,0.053958583187124404,3.9049999999999727,5.0,0.2020478488522246,-0.141557406536474,0.948657033615867,1.0209946131819372,5.700547989639712,-2.5483904865549065,-0.7933355134325502,0.37064125258798447,-0.006832315906580542,-0.48290490209364684,3.9049999999999727,6.0,0.3966376144990273,-0.3615333712310248,0.8198720779797608,-2.670187819129169,-1.6553614999978945,0.5521190700175868,-0.04618122372531422,0.39517690635513786,-0.21655684586856236,0.8915187265370677,3.9049999999999727,7.0,-0.1817899273406933,0.0435317442213951,0.9623852708570038,-0.2387345699579696,0.5790133416080789,0.8414408073058058,0.7224363528827032,-0.2088955303181832,0.2434653852593267,0.6125136566862414,3.9049999999999727,8.0,-0.054778953784777,-0.1065509342530584,0.972635679292121,-2.501422474472888,-2.8787519248766875,-3.0233328340442864,-0.11069168921154435,0.2418581206594046,0.23830123403516607,-0.9340580930905276
59,3.939000000000078,0.0,-0.012015752707297,-0.1099972055956138,0.973246750032094,-0.5421234991161343,-0.0802171879830847,-0.8920627689767272,0.9579459682811221,-0.09816860456581081,0.025738379146465946,-0.26840265045348827,3.939000000000078,1.0,0.1091349451526771,-0.0998530670558639,0.9688069615491312,-0.3324893915665241,0.6366551683768885,0.3220482682608152,0.902253174577494,-0.0904934650495832,-0.023666293909972748,-0.42093948291971955,3.939000000000078,2.0,0.1753882712212786,-0.1313998083063826,0.9547764370233782,-0.0198620267080178,0.9772448677990891,0.536241198817472,0.9534078590305928,-0.10483975086502409,-0.06321598992176793,-0.27572779982343465,3.940000000000055,3.0,-0.0475097514025496,-0.1246938296681459,0.9702258872882952,-0.4294842453329957,-0.1326344219804027,-0.8748543352448315,0.9666213914649443,-0.08979128556883102,0.06913231386892818,-0.229785408103734,3.940000000000055,4.0,-0.083053879127216,-0.093622295031742,0.9722977522523186,-0.3307140894553184,-0.3309568211975262,-2.510550807376946,0.9923721033709496,-0.07761861019080023,0.0666570806937657,-0.0687734934153473,3.980000000000018,5.0,-0.382922201003912,0.1233311779603113,0.894121920389631,2.963149036583885,5.768492514765683,-4.846499806047854,-0.9031005244503653,0.3140178248125861,-0.2733804251495168,-0.10519216502438082,3.980000000000018,6.0,0.3384805801658847,-0.4400362675310901,0.8074602034204986,1.305559720283099,2.128871969629663,-3.0279838797274365,0.08203471670388462,0.32453181898245076,-0.09973589221393075,0.9370176922169327,3.980000000000018,7.0,-0.2027738653035134,-0.0311482546873265,0.9584391194957592,0.0191030814694096,0.0826998351193379,-4.012986757241767,0.8440891660005547,-0.24570002345685305,0.1774803637870625,0.4423185489935977,3.980000000000018,8.0,0.1150756150305338,-0.2562445424583464,0.937789601822102,0.5481112194658135,1.806411290002868,-3.410907031949147,-0.3088414896991197,0.2534606038888678,0.22803280269728882,-0.8879052299714978
