Timestamp,Ax,Ay,Az,Rx,Ry,Rz,EMG
0,0.4746,0.4585,0.2227,-0.1859,-1.3605,-0.4806,2048
0,0.4985,0.4958,0.2349,-0.3215,-1.1632,-0.5448,2036
0,0.447,0.5566,0.1265,-0.2733,-1.1931,-0.6367,2026
0,0.3428,0.5403,0.0823,-0.075,-1.1696,-0.706,2040
0,0.2859,0.4722,0.1321,-0.0025,-1.0254,-0.7395,2066
0,0.3286,0.3762,0.1951,0.0049,-0.9127,-0.8214,2065
0,0.4026,0.3259,0.2683,-0.0296,-0.6241,-0.8684,2051
0,0.3772,0.4138,0.2683,-0.2701,-0.0238,-0.9115,2042
0,0.241,0.5305,0.2717,-0.3852,0.4444,-1.0459,2030
0,0.1619,0.5437,0.262,-0.4627,0.5521,-1.1087,2032
0,0.2439,0.5137,0.2512,-0.5324,0.4099,-1.0657,2061
0,0.5256,0.4604,0.2686,-0.6512,0.1613,-0.9737,2046
0,0.7285,0.3831,0.2986,-0.5988,-0.1108,-0.8709,2035
0,0.8035,0.4324,0.2915,-0.5946,-0.2823,-0.771,2038
0,0.6775,0.5281,0.2241,-0.4714,-0.4546,-0.6825,2051
0,0.5039,0.592,0.0913,-0.2515,-0.6102,-0.667,2076
0,0.4512,0.6206,-0.0654,0.0021,-0.8457,-0.6416,2064
0,0.4573,0.5823,-0.0203,0.1244,-1.0062,-0.6165,2059
0,0.4141,0.5342,0.0222,0.2382,-0.7874,-0.6096,2058
0,0.2795,0.5293,0.0229,0.2601,-0.6327,-0.6379,2044
0,0.2036,0.5317,-0.0015,0.2518,-0.7875,-0.6702,2057
0,0.3513,0.4927,0.0129,0.2397,-0.6478,-0.6276,2053
0,0.4399,0.4712,0.0078,0.2859,-0.2083,-0.5916,2042
0,0.3909,0.459,0.031,0.2836,-0.0799,-0.5927,2050
0,0.3276,0.4841,0.0171,0.3773,-0.1981,-0.6014,2058
0,0.311,0.5024,-0.0151,0.3964,-0.2899,-0.5938,2063
0,0.333,0.5439,-0.0547,0.479,-0.3446,-0.5771,2050
0,0.3723,0.582,-0.0293,0.5366,-0.4196,-0.5536,2035
0,0.3984,0.6099,-0.0608,0.4502,-0.4813,-0.5801,2049
0,0.4285,0.6584,-0.1082,0.5516,-0.6822,-0.6189,2041
0,0.4167,0.6599,-0.0813,0.6317,-0.6003,-0.6325,2032
0,0.3945,0.6741,0.0103,0.5763,-0.2607,-0.5881,2042
0,0.4668,0.7566,0.0698,0.5256,-0.0957,-0.5585,2043
0,0.5833,0.7942,0.0994,0.4906,-0.3245,-0.5144,2045
0,0.6533,0.9211,0.1079,0.5388,-0.6746,-0.4068,2042
0,0.6697,1.0168,0.1968,0.6208,-0.8134,-0.2702,2050
0,0.6509,1.1035,0.2935,0.7534,-0.779,-0.2081,2046
0,0.5759,1.1562,0.3201,0.8445,-0.7521,-0.13,2053
0,0.6255,1.1853,0.3071,0.8931,-0.5351,-0.0342,2049
0,0.7268,1.1934,0.2429,0.9746,-0.285,-0.016,2061
0,0.6975,1.1484,0.238,1.1648,-0.2314,0.0341,2056
0,0.6389,0.9912,0.2832,1.1196,-0.1277,0.142,2066
0,0.7463,0.9041,0.2947,0.9797,-0.026,0.265,2047
0,0.7241,0.8137,0.2542,1.1942,0.0607,0.1891,2032
0,0.4565,0.5835,0.48,1.1105,0.3017,0.3145,2039
0,0.511,0.4109,0.4939,0.9291,0.1538,0.3462,2075
0,0.3699,0.4097,0.5925,0.8907,0.5616,0.2835,2018
0,0.0898,0.498,0.635,0.5584,1.6518,0.1924,2014
0,-0.1516,0.6423,0.4348,0.0101,2.4706,-0.0453,2018
0,-0.3286,0.5991,0.3608,-0.3992,3.1431,-0.3506,2017
0,-0.4341,0.7395,0.6907,-1.0373,3.8263,-0.4822,2014
0,-0.6848,0.9448,0.7063,-1.1911,3.831,-0.7731,2051
0,-0.3899,1.1467,0.6995,-1.5573,3.1297,-0.6353,2077
0,0.3076,1.0957,0.4548,-1.1549,2.3585,-0.5131,2072
0,0.395,0.9473,0.4028,-0.3859,1.0331,-0.4007,2035
0,-0.1309,0.8481,0.7344,-0.5514,0.1008,-0.408,2033
0,-0.3767,0.7446,1.0486,-0.8906,-0.4534,-0.4184,2046
0,-0.2681,0.6487,1.1729,-1.2706,-0.9222,-0.5364,2081
0,-0.2542,0.7041,0.9294,-1.2412,-1.2785,-0.9238,2134
0,-0.6233,0.7615,0.9863,-1.018,-0.8204,-1.322,2002
0,-0.9949,0.8049,1.0164,-1.1113,-0.4446,-1.429,2018
0,-0.884,0.7864,0.8738,-1.1283,-0.1424,-1.417,2061
0,-0.4314,0.7385,0.521,-1.3731,0.395,-1.4816,2052
0,-0.1445,0.707,0.4263,-1.3559,0.6152,-1.4612,2031
0,-0.1152,0.658,0.4485,-1.533,0.6673,-1.3826,2032
0,0.0415,0.7598,0.4214,-1.5359,0.7187,-1.3323,2048
0,0.2263,0.8215,0.2375,-1.5249,0.7885,-1.3446,2055
0,0.2715,0.8926,0.0388,-1.2585,0.5841,-1.2965,2055
0,0.356,0.8953,-0.0637,-0.8993,0.2115,-1.1039,2048
0,0.4163,0.8665,-0.1047,-0.5826,-0.0613,-0.9416,2056
0,0.4841,0.8328,-0.168,-0.3828,-0.331,-0.8006,2047
0,0.5266,0.801,-0.2468,-0.1196,-0.5947,-0.6785,2079
0,0.5217,0.7209,-0.3455,0.0695,-0.8558,-0.5863,2026
0,0.4788,0.6704,-0.4319,0.2598,-1.1616,-0.4775,2042
0,0.4385,0.6467,-0.5051,0.4237,-1.4103,-0.4092,2040
0,0.4106,0.6211,-0.5723,0.6024,-1.5187,-0.3087,2043
0,0.3584,0.5649,-0.6096,0.7241,-1.6073,-0.1987,2032
0,0.3137,0.5205,-0.6516,0.8673,-1.7032,-0.1031,2044
0,0.2737,0.4988,-0.645,0.9877,-1.8002,-0.0332,2032
0,0.2051,0.4949,-0.637,1.1074,-1.7743,0.0413,2040
0,0.1213,0.5061,-0.6104,1.2111,-1.6484,0.0603,2040
0,0.0625,0.5327,-0.583,1.2696,-1.4928,0.0882,2034
0,0.0054,0.5657,-0.5422,1.3066,-1.3422,0.1021,2036
0,-0.0186,0.6267,-0.5029,1.3572,-1.1834,0.1015,2032
0,-0.0432,0.7214,-0.4551,1.4763,-0.9813,0.0804,2038
0,-0.1062,0.7944,-0.3677,1.5977,-0.6875,0.0533,2036
0,-0.1389,0.8657,-0.2751,1.7282,-0.4189,0.0574,2040
0,-0.135,0.9199,-0.1953,1.8865,-0.2436,0.0579,2054
0,-0.1211,0.9885,-0.1526,2.0893,-0.1466,0.0668,2051
0,-0.1274,1.0388,-0.1443,2.3329,-0.0441,0.0441,2052
0,-0.1128,1.0779,-0.1306,2.5326,0.0795,-0.0198,2045
0,-0.0872,1.1169,-0.1345,2.7525,0.2164,-0.0563,2050
0,-0.0618,1.1216,-0.1482,2.9373,0.3521,-0.1021,2049
0,-0.0046,1.1365,-0.147,3.0983,0.5008,-0.1377,2045
0,0.0544,1.1714,-0.166,3.27,0.6172,-0.1301,2052
0,0.1389,1.198,-0.1875,3.4202,0.661,-0.1715,2043
0,0.1946,1.2271,-0.2097,3.6206,0.6544,-0.1168,2047
0,0.2344,1.2109,-0.2297,3.6876,0.6553,-0.1023,2044
0,0.25,1.1611,-0.2656,3.7199,0.7132,-0.021,2045
0,0.3066,1.1006,-0.3049,3.3706,0.906,0.0212,2039
0,0.553,1.2058,-0.303,3.5451,1.017,-0.1298,2045
0,0.3337,0.9912,0.0142,3.095,2.8211,0.2864,2023
0,-0.3625,0.9153,-0.0083,3.0497,1.9539,0.0093,2033
0,-0.5186,-0.1282,0.8433,0.447,4.3634,-0.1071,2047
1,-1.5566,1.7822,1.9999,-2.6831,4.3634,-1.8066,2080
1,-0.0459,1.9999,1.2393,-1.1584,4.3634,-0.8111,1922
1,1.0603,1.6746,1.2803,1.0857,4.3634,0.9119,1983
1,1.9133,0.8435,0.8027,2.2181,4.3634,1.3717,2121
1,1.0972,0.5957,0.7559,2.2357,3.9671,0.8136,2118
1,0.3853,1.0767,0.5774,2.6424,1.8651,0.0414,2122
1,-0.0122,1.1372,0.7307,2.3445,2.215,0.1095,2124
1,-0.0789,1.0364,0.4666,2.2285,3.2749,0.7963,2096
1,-0.1035,0.8145,0.3616,1.8622,3.5829,1.0596,2112
1,0.1372,0.9043,0.2847,1.2677,3.2509,1.3853,2082
1,0.1538,0.7888,0.0991,1.262,2.6951,1.3884,2032
1,0.2739,0.7729,0.0293,0.9729,2.0895,1.2368,2022
1,0.3831,0.7168,-0.1025,0.5023,1.309,1.2636,2014
1,0.5989,0.7305,-0.269,0.3907,0.2751,1.531,2016
1,0.426,0.668,-0.4204,0.5105,-0.4573,1.4029,2015
1,-0.032,0.5662,-0.3965,0.4638,-1.1605,0.9347,2005
1,-0.4421,0.5063,-0.4031,-0.0413,-1.7757,0.6474,2006
1,-0.4487,0.5769,-0.3125,-0.8628,-1.4434,1.0608,1967
1,-0.3784,0.5659,-0.2727,-1.4482,-0.7923,1.1174,2030
1,-0.0869,0.656,-0.2361,-1.4604,-0.5954,0.9216,2071
1,0.165,0.6008,-0.2324,-1.2854,-0.5955,0.974,2057
1,0.1995,0.5498,-0.2109,-1.1244,-0.7782,0.8558,2042
1,0.1304,0.5933,-0.2009,-0.9244,-1.1836,0.5344,2043
1,0.1536,0.5635,-0.2383,-0.7144,-1.5458,0.3991,2054
1,0.3157,0.5234,-0.1726,-0.5546,-1.8342,0.4296,2046
1,0.2839,0.52,-0.1047,-0.4464,-2.1312,0.5565,2041
1,0.3198,0.5078,-0.0566,-0.4426,-2.5374,0.5806,2045
1,0.3054,0.4817,-0.0527,-0.5292,-2.7139,0.548,2051
1,0.1841,0.5764,-0.0642,-0.593,-2.8106,0.436,2050
1,0.4468,0.5168,-0.0042,-0.7303,-3.0736,0.4986,2075
1,0.4204,0.606,-0.1157,-0.4348,-2.9664,0.4727,2049
1,0.1963,0.6438,-0.114,-0.5336,-3.1188,0.3377,2046
1,0.1946,0.6086,-0.198,-0.5578,-3.0506,0.2694,2054
1,0.228,0.5696,-0.2107,-0.558,-2.857,0.1153,2053
1,0.2046,0.5671,-0.2222,-0.5896,-2.7043,0.0361,2040
1,0.1567,0.5942,-0.241,-0.5723,-2.471,-0.0511,2042
1,0.1257,0.6057,-0.2554,-0.5569,-2.1704,-0.1525,2045
1,0.1187,0.6001,-0.2603,-0.5452,-1.8273,-0.2497,2042
1,0.0938,0.6028,-0.2593,-0.5394,-1.4725,-0.3561,2044
1,0.092,0.6055,-0.2529,-0.5257,-1.2017,-0.428,2042
1,0.1228,0.6052,-0.2334,-0.5513,-0.9447,-0.4743,2042
1,0.1323,0.5901,-0.2041,-0.5273,-0.6735,-0.4967,2047
1,0.146,0.5759,-0.1917,-0.4749,-0.4263,-0.5359,2044
1,0.1758,0.571,-0.2043,-0.3883,-0.2153,-0.5665,2045
1,0.2322,0.5786,-0.2124,-0.2962,-0.0529,-0.5939,2049
1,0.2673,0.5959,-0.2214,-0.2618,0.0405,-0.6339,2048
1,0.3113,0.644,-0.2261,-0.2401,0.0703,-0.6545,2044
1,0.3252,0.6917,-0.2092,-0.2004,0.0469,-0.6079,2048
1,0.3579,0.7378,-0.1914,-0.1352,-0.0202,-0.5381,2041
1,0.3821,0.7856,-0.199,-0.102,-0.1164,-0.4558,2049
1,0.4089,0.8015,-0.2246,-0.0782,-0.2526,-0.4046,2048
1,0.4338,0.7986,-0.2937,-0.0577,-0.4227,-0.3914,2047
1,0.449,0.8162,-0.3401,-0.0763,-0.6195,-0.4385,2064
1,0.448,0.853,-0.3748,-0.1125,-0.814,-0.4496,2042
1,0.4399,0.9211,-0.4016,-0.194,-1.0021,-0.4601,2045
1,0.4421,1.0049,-0.447,-0.2729,-1.1456,-0.5345,2045
1,0.4312,1.082,-0.4932,-0.3425,-1.1978,-0.6387,2043
1,0.4148,1.1335,-0.5349,-0.3947,-1.1465,-0.7067,2046
1,0.3809,1.1843,-0.5215,-0.4517,-0.9913,-0.7271,2045
1,0.3396,1.2117,-0.5056,-0.5317,-0.7953,-0.6383,2044
1,0.2781,1.2246,-0.4685,-0.5674,-0.5576,-0.5289,2040
1,0.2053,1.1736,-0.4014,-0.4976,-0.2955,-0.3497,2043
1,0.1318,1.1177,-0.2744,-0.3681,0.0069,-0.2088,2041
1,0.1287,1.0732,-0.1611,-0.2313,0.2867,-0.0696,2043
1,0.1682,1.0637,-0.0674,-0.0683,0.5524,0.0338,2046
1,0.2634,1.0723,-0.0217,0.0843,0.8203,0.0497,2051
1,0.3687,1.1514,-0.0149,0.3332,1.1374,0.006,2063
1,0.292,1.0513,-0.1311,0.2472,1.156,0.1356,2042
1,0.3601,1.1274,-0.1863,0.291,1.3079,0.1152,2052
1,0.3235,1.1067,-0.1411,0.3936,1.6195,0.2373,2043
1,0.2627,1.0835,-0.1548,0.3032,1.7884,0.3783,2038
1,0.2332,1.0981,-0.1589,0.3097,1.7715,0.5541,2041
1,0.2485,1.031,-0.0928,0.3189,1.8441,0.7533,2043
1,0.2188,1.0366,-0.0698,0.3995,1.9757,0.9038,2043
1,0.25,1.0032,-0.084,0.4745,1.8964,1.077,2046
1,0.2737,1.033,-0.1965,0.559,1.3996,1.1147,2055
1,0.3152,0.7917,0.0498,0.3786,2.3125,1.3829,2057
1,0.2229,0.8972,-0.145,0.5136,2.0948,1.4131,2044
1,0.2751,0.9385,-0.248,0.7279,1.6115,1.4146,2045
1,0.2437,0.8645,-0.3301,1.0441,0.9911,1.3564,2045
1,0.1494,0.8767,-0.4858,1.5418,0.0357,1.2804,2048
1,0.2886,0.6628,-0.2063,1.4786,0.5959,1.4953,2054
1,0.2825,0.5752,-0.1379,1.2684,1.2001,1.7088,2049
1,0.2314,0.6001,-0.187,1.2228,1.3735,1.7654,2045
1,0.2219,0.5708,-0.2358,1.1736,1.3205,1.7986,2046
1,0.2039,0.5439,-0.2944,1.101,1.272,1.8706,2042
1,0.2083,0.5349,-0.3354,1.0007,1.1741,1.9224,2042
1,0.2356,0.5842,-0.3696,0.9954,1.0921,1.9683,2037
1,0.1948,0.575,-0.3855,0.9989,1.0621,2.0068,2044
1,0.1995,0.5435,-0.3894,0.8891,1.0477,1.9712,2038
1,0.1768,0.5679,-0.4048,0.8293,0.9622,1.9263,2041
1,0.1907,0.5928,-0.439,0.7139,0.9147,1.917,2038
1,0.2153,0.6062,-0.4475,0.6714,0.7962,1.8246,2046
1,0.2083,0.6062,-0.4524,0.5902,0.7275,1.766,2040
1,0.2134,0.6042,-0.4465,0.5454,0.6022,1.6657,2043
1,0.2041,0.6235,-0.4456,0.5576,0.5279,1.6174,2043
1,0.2178,0.6106,-0.4138,0.5554,0.3421,1.5306,2050
1,0.2065,0.6108,-0.4221,0.5469,0.1947,1.4732,2043
1,0.1914,0.5681,-0.3901,0.5846,0.0551,1.3909,2062
1,0.1995,0.573,-0.3816,0.5887,-0.0333,1.3091,2046
1,0.2231,0.5854,-0.3726,0.5786,-0.138,1.1604,2046
1,0.2432,0.6382,-0.3989,0.5324,-0.1645,1.026,2046
1,0.2273,0.6609,-0.425,0.4851,-0.1489,0.8487,2045
2,0.2478,0.6714,-0.4519,0.4257,-0.1711,0.6446,2048
2,0.25,0.6968,-0.4666,0.4119,-0.139,0.4089,2045
2,0.2356,0.707,-0.457,0.4265,-0.0487,0.2108,2043
2,0.2664,0.7285,-0.4175,0.4456,0.0214,-0.0039,2041
2,0.2952,0.749,-0.4116,0.4345,0.0699,-0.2055,2046
2,0.3269,0.7766,-0.4048,0.4377,0.1069,-0.4111,2046
2,0.3367,0.8169,-0.4097,0.4036,0.1674,-0.6201,2043
2,0.3779,0.8948,-0.4346,0.3292,0.2043,-0.8616,2048
2,0.438,1.0107,-0.4766,0.2185,0.2085,-1.1351,2044
2,0.4749,1.145,-0.5215,0.126,0.1924,-1.4095,2044
2,0.4338,1.2507,-0.5493,0.1314,0.2256,-1.6475,2041
2,0.3679,1.2725,-0.4802,0.2469,0.4073,-1.8267,2045
2,0.3474,1.281,-0.3601,0.3524,0.6492,-1.9389,2052
2,0.3367,1.1895,-0.2085,0.4838,1.0179,-1.9363,2047
2,0.0732,1.146,0.0017,0.8805,1.6183,-1.8531,2053
2,-0.0891,1.1606,0.1101,1.5548,2.2301,-1.7394,2055
2,0.0161,0.821,0.2629,1.4772,2.8007,-1.2424,2047
2,0.3423,0.7434,0.387,1.1766,3.5503,-0.8669,2034
2,0.7358,0.749,0.7119,0.2674,4.3634,-0.363,2157
2,0.4661,0.9719,0.5808,0.3658,4.3634,-0.2649,2017
2,0.3306,1.0625,0.5386,0.618,4.3634,-0.0497,2039
2,0.4248,0.9995,0.6001,0.6568,2.9745,0.1661,1971
2,0.5791,0.9883,0.5461,0.6493,1.1259,0.3814,1982
2,0.6204,0.844,0.3865,0.9512,-0.2707,0.5311,1966
2,0.6267,0.8623,0.2163,1.2286,-0.9973,0.524,2023
2,0.6355,0.9438,0.0938,1.6422,-1.3611,0.6088,2075
2,0.511,0.9661,0.0771,1.8386,-1.6269,0.473,2082
2,0.4019,0.8672,0.0342,1.654,-1.9311,0.4617,2079
2,0.3726,0.698,-0.0283,1.3765,-2.1469,0.3521,2067
2,0.1707,0.7671,-0.167,1.0467,-2.1947,0.1888,2051
2,0.3145,0.5862,-0.2097,0.9649,-1.9995,0.2448,2040
2,0.1812,0.5344,-0.2336,0.6925,-1.7259,0.1924,2037
2,0.2583,0.4656,-0.293,0.4442,-1.5253,0.2393,2039
2,0.3206,0.457,-0.3118,0.3559,-1.2722,0.3619,2040
2,0.2974,0.4697,-0.3103,0.3404,-1.083,0.394,2033
2,0.2979,0.4277,-0.2979,0.3117,-0.8542,0.4271,2025
2,0.2686,0.3472,-0.2837,0.3151,-0.6502,0.395,2057
2,0.2949,0.2734,-0.291,0.3169,-0.5596,0.346,2054
2,0.3396,0.2285,-0.3147,0.3578,-0.5449,0.3285,2044
2,0.3582,0.2017,-0.3093,0.2828,-0.552,0.2444,2059
2,0.3667,0.1926,-0.3279,0.1482,-0.604,0.1374,2050
2,0.3926,0.2109,-0.3452,0.0385,-0.6825,0.0851,2060
2,0.4255,0.2251,-0.3455,-0.0523,-0.7763,0.0522,2046
2,0.4404,0.2551,-0.2986,-0.1601,-0.9002,-0.0433,2052
2,0.4319,0.271,-0.3115,-0.2839,-1.0034,-0.1064,2048
2,0.4409,0.291,-0.2869,-0.3852,-1.0595,-0.1321,2045
2,0.4365,0.3154,-0.2917,-0.5155,-1.1093,-0.206,2043
2,0.4365,0.354,-0.3013,-0.6042,-1.1155,-0.2537,2043
2,0.4104,0.384,-0.293,-0.6367,-1.0828,-0.289,2037
2,0.3879,0.4158,-0.2771,-0.6293,-1.0176,-0.3476,2044
2,0.3708,0.4248,-0.2761,-0.6144,-0.923,-0.4199,2046
2,0.353,0.4312,-0.2744,-0.6054,-0.8385,-0.5135,2043
2,0.3474,0.4341,-0.2771,-0.5858,-0.7385,-0.6099,2045
2,0.3447,0.4631,-0.293,-0.5702,-0.6414,-0.7074,2044
2,0.344,0.4976,-0.3154,-0.595,-0.5485,-0.7704,2044
2,0.3435,0.5388,-0.3379,-0.6737,-0.4386,-0.8295,2049
2,0.3389,0.6047,-0.3723,-0.7649,-0.3856,-0.9005,2043
2,0.3545,0.6772,-0.4045,-0.8421,-0.3707,-0.9594,2046
2,0.3843,0.7615,-0.438,-0.9108,-0.405,-0.9947,2039
2,0.4207,0.8479,-0.4146,-0.9672,-0.4785,-0.9601,2037
2,0.6951,1.0378,-0.3323,-1.1014,-0.5639,-0.7938,2043
2,0.5728,0.9785,-0.364,-1.0931,-0.7151,-0.783,2041
2,0.4897,0.948,-0.3613,-1.0709,-1.167,-0.9991,2045
2,0.5046,1.1316,-0.3511,-0.9295,-1.5838,-1.1397,2046
2,0.5312,1.2896,-0.3032,-0.7674,-1.9538,-1.1809,2054
2,0.5105,1.3655,-0.3118,-0.7393,-2.2969,-1.2043,2046
2,0.6208,1.4148,-0.2852,-0.6377,-2.3333,-0.9664,2050
2,0.5618,1.4265,-0.2747,-0.4932,-2.1684,-0.8693,2047
2,0.5977,1.8174,-0.3418,0.0902,-2.2518,-0.7638,2051
2,0.4536,1.186,-0.1863,0.0838,-2.1987,-0.3559,2032
2,0.3713,1.1733,-0.2456,-0.0776,-2.0654,-0.2128,2036
2,0.2427,1.2849,-0.1646,0.0582,-1.6297,-0.32,2041
2,0.3022,1.1624,-0.0969,0.0224,-1.3589,-0.1204,2035
2,0.323,1.0156,-0.1311,0.1876,-1.0066,-0.1224,2042
2,0.3057,0.8765,-0.1399,-0.0099,-0.5332,0.0121,2043
2,0.3262,0.9175,-0.2563,-0.1808,-0.1442,0.0426,2048
2,0.3572,1.113,-0.2771,-0.0815,0.2293,0.1161,2047
2,0.3105,1.1023,-0.3025,-0.1788,0.5726,0.2191,2054
2,0.1904,0.9983,-0.4084,-0.142,0.904,0.2104,2059
2,0.1125,0.9209,-0.4351,-0.1378,1.2635,0.19,2054
2,0.0811,0.9224,-0.4412,-0.2581,1.539,0.1606,2049
2,0.166,0.9214,-0.4939,-0.3229,1.6772,0.191,2048
2,0.1716,0.8979,-0.4897,-0.261,1.7522,0.2149,2040
2,0.1733,0.8765,-0.4797,-0.2248,1.7744,0.2599,2041
2,0.2263,0.8384,-0.4639,-0.133,1.7821,0.3274,2043
2,0.2947,0.8083,-0.4202,-0.0119,1.6807,0.377,2046
2,0.3552,0.7607,-0.3582,0.067,1.5604,0.4634,2043
2,0.3721,0.7271,-0.3435,0.1842,1.4218,0.5592,2060
2,0.3872,0.7156,-0.313,0.4502,1.1367,0.5751,2048
2,0.394,0.6555,-0.2791,0.5983,0.8134,0.5807,2053
2,0.3806,0.6003,-0.2576,0.6841,0.543,0.606,2043
2,0.3118,0.5684,-0.2542,0.7409,0.3575,0.6203,2038
2,0.2476,0.5432,-0.252,0.7929,0.2998,0.6612,2040
2,0.1472,0.5242,-0.2417,0.8004,0.3488,0.6713,2043
2,0.0947,0.5088,-0.2603,0.7846,0.4607,0.6778,2047
2,0.0483,0.4897,-0.2761,0.7387,0.6343,0.6858,2049
2,0.0479,0.4827,-0.2974,0.6632,0.8277,0.6785,2042
2,0.0696,0.5107,-0.3154,0.6188,0.9812,0.6757,2046
2,0.1223,0.5486,-0.3467,0.6359,1.0761,0.6674,2046
2,0.1401,0.5522,-0.3691,0.6249,1.122,0.636,2043
2,0.156,0.5615,-0.3877,0.5944,1.087,0.613,2044
2,0.1721,0.5815,-0.3992,0.5916,1.0042,0.5807,2041
2,0.1624,0.5957,-0.4072,0.6118,0.8871,0.547,2047
3,0.1868,0.6045,-0.4285,0.6261,0.7685,0.5275,2044
3,0.1914,0.6067,-0.4153,0.6337,0.638,0.4951,2046
3,0.177,0.615,-0.4172,0.6157,0.5325,0.4839,2042
3,0.1863,0.6157,-0.4124,0.6028,0.3995,0.4272,2044
3,0.1914,0.6118,-0.3972,0.5892,0.2734,0.3858,2044
3,0.1943,0.6243,-0.3684,0.5682,0.1441,0.3474,2044
3,0.2043,0.6372,-0.3618,0.5365,0.0176,0.3049,2046
3,0.219,0.6677,-0.365,0.4785,-0.1085,0.2389,2053
3,0.239,0.7114,-0.3762,0.3848,-0.2542,0.1641,2044
3,0.2737,0.7546,-0.3962,0.3051,-0.3835,0.0511,2047
3,0.3291,0.7683,-0.3945,0.2286,-0.5449,-0.0766,2046
3,0.3484,0.7798,-0.3662,0.1545,-0.6729,-0.1398,2047
3,0.3423,0.8376,-0.3369,0.1495,-0.7,-0.1414,2043
3,0.3538,0.9053,-0.311,0.2131,-0.7739,-0.2017,2043
3,0.4832,0.8811,-0.356,0.4723,-0.7735,0.0181,2044
3,0.5793,0.8589,-0.1318,0.3855,-0.4341,0.0534,2047
3,0.7095,0.8191,-0.0442,-0.1057,-0.2408,0.1377,2045
3,0.6526,0.9241,-0.061,-0.42,-0.0971,0.0318,2062
3,0.6301,1.1267,-0.146,-0.6578,-0.214,-0.2224,2047
3,0.7983,1.28,-0.2065,-0.7221,-0.5105,-0.1475,2040
3,0.667,1.1243,-0.2087,-0.5028,-0.6621,0.0535,2031
3,0.3264,0.9805,0.0559,-0.8162,-0.7672,-0.1712,2016
3,0.2549,1.0908,0.0015,-0.6481,-1.1552,-0.1708,2012
3,0.1565,1.0886,0.0239,-0.3545,-1.4339,-0.2041,2036
3,0.219,1.0811,0.0208,-0.0626,-1.383,-0.1767,2051
3,0.2468,0.9976,0.0583,0.0915,-0.9336,-0.13,2049
3,0.2908,0.9514,0.0417,0.1479,-0.5096,-0.0446,2050
3,0.3708,0.8848,0.0332,-0.0174,-0.1681,0.2428,2048
3,0.2832,0.9612,0.0178,-0.1591,0.071,0.178,2055
3,0.2451,0.9749,-0.0227,-0.2109,0.0875,0.3064,2056
3,0.2913,0.9592,-0.074,-0.1918,-0.0795,0.401,2070
3,0.3508,0.9045,-0.1038,-0.1593,-0.4036,0.4908,2052
3,0.4028,0.8315,-0.1279,-0.1324,-0.7753,0.5795,2056
3,0.4236,0.7761,-0.1584,-0.1124,-1.0805,0.643,2049
3,0.4021,0.7642,-0.1758,-0.0943,-1.3332,0.6492,2048
3,0.3813,0.7354,-0.2354,-0.1342,-1.5346,0.6233,2050
3,0.3433,0.7175,-0.281,-0.2205,-1.647,0.5766,2051
3,0.312,0.7239,-0.3347,-0.2606,-1.7102,0.524,2051
3,0.3142,0.6912,-0.3357,-0.3035,-1.6926,0.5123,2045
3,0.3174,0.6799,-0.3398,-0.2754,-1.6426,0.4813,2044
3,0.3235,0.6423,-0.3149,-0.2181,-1.5647,0.4681,2040
3,0.3301,0.5959,-0.2949,-0.1854,-1.4561,0.453,2041
3,0.3318,0.5566,-0.29,-0.1498,-1.335,0.4264,2042
3,0.3628,0.512,-0.2847,-0.0795,-1.213,0.4143,2045
3,0.3711,0.4624,-0.2822,-0.0278,-1.1082,0.4028,2045
3,0.3669,0.4153,-0.2974,-0.0107,-1.0283,0.3518,2041
3,0.3662,0.3865,-0.3093,0.0121,-0.9614,0.2639,2036
3,0.3467,0.3425,-0.3064,-0.0186,-0.8508,0.143,2041
3,0.3235,0.3191,-0.3425,-0.0667,-0.7739,0.026,2038
3,0.3313,0.3008,-0.3523,-0.1087,-0.6921,-0.094,2039
3,0.3191,0.2942,-0.3486,-0.1554,-0.6107,-0.2045,2037
3,0.303,0.2932,-0.3584,-0.2091,-0.543,-0.2911,2039
3,0.2935,0.2981,-0.3594,-0.233,-0.4637,-0.3804,2039
3,0.2856,0.3071,-0.3562,-0.2555,-0.3796,-0.4468,2056
3,0.2827,0.2979,-0.3831,-0.2847,-0.3107,-0.5129,2043
3,0.2812,0.3096,-0.3772,-0.3039,-0.2631,-0.5705,2042
3,0.2893,0.3079,-0.3882,-0.3031,-0.2172,-0.6213,2045
3,0.2969,0.3108,-0.397,-0.2994,-0.1772,-0.6693,2046
3,0.2986,0.3164,-0.3884,-0.308,-0.1386,-0.724,2047
3,0.3044,0.3181,-0.3923,-0.3249,-0.1091,-0.7803,2045
3,0.312,0.342,-0.3977,-0.3558,-0.0555,-0.85,2053
3,0.3232,0.3584,-0.4097,-0.3994,-0.0061,-0.9214,2047
3,0.3176,0.3962,-0.4343,-0.4936,0.036,-1.0054,2050
3,0.3621,0.4514,-0.4561,-0.5887,0.0831,-1.0483,2048
3,0.3743,0.5339,-0.4995,-0.6581,0.1189,-1.0902,2051
3,0.4004,0.6282,-0.5139,-0.7433,0.1373,-1.1371,2050
3,0.4219,0.7336,-0.5195,-0.7975,0.1202,-1.1758,2049
3,0.438,0.8511,-0.4883,-0.8218,0.0478,-1.1778,2048
3,0.4795,0.9355,-0.4565,-0.7795,-0.1346,-1.1893,2048
3,0.5735,1.031,-0.3994,-0.6909,-0.4052,-1.1347,2049
3,0.6499,1.0984,-0.3245,-0.5445,-0.6672,-0.9443,2056
3,0.7334,1.1958,-0.3169,-0.206,-1.0031,-0.9011,2052
3,0.7363,1.2781,-0.2986,0.0578,-1.3909,-0.807,2048
3,0.6709,1.3464,-0.2986,0.173,-1.6255,-0.7871,2045
3,0.5803,1.3538,-0.2981,0.3992,-1.6072,-0.75,2043
3,0.468,1.3096,-0.2063,0.5484,-1.3159,-0.6486,2032
3,0.3293,1.28,-0.1057,0.498,-0.8411,-0.5854,2043
3,0.2676,1.2778,-0.0686,0.4348,-0.308,-0.4424,2020
3,0.2856,1.3257,-0.0874,0.4918,0.1697,-0.3161,2023
3,0.3257,1.2666,-0.1057,0.65,0.719,-0.1353,2040
3,0.3779,1.196,-0.0767,0.7927,0.9574,-0.0224,2043
3,0.4548,1.1748,-0.041,0.8803,1.0618,0.0254,2046
3,0.4358,1.1272,-0.0222,0.867,1.1021,0.1541,2038
3,0.3149,1.0735,-0.05,0.732,1.189,0.165,2035
3,0.2698,1.0596,-0.1638,0.6288,1.2884,0.2437,2043
3,0.2747,1.0942,-0.2944,0.6403,1.376,0.4199,2057
3,0.2078,1.1028,-0.3767,0.6195,1.5544,0.4352,2069
3,0.1641,1.0583,-0.4075,0.5938,1.7483,0.3898,2070
3,0.1438,0.9951,-0.3958,0.5785,1.8781,0.3642,2062
3,0.1401,0.9277,-0.3787,0.5631,1.9478,0.377,2055
3,0.1726,0.8564,-0.364,0.5655,1.9603,0.4396,2052
3,0.2166,0.8091,-0.3433,0.5689,1.914,0.509,2057
3,0.2822,0.7761,-0.3628,0.598,1.8158,0.5783,2052
3,0.3425,0.7708,-0.3691,0.6526,1.6881,0.665,2049
3,0.3408,0.7639,-0.3542,0.6959,1.5314,0.6549,2049
3,0.5078,0.7632,-0.385,0.5878,1.2097,0.8227,2044
3,0.4849,0.6831,-0.387,0.8847,0.7638,0.8625,2059
3,0.3486,0.6465,-0.1719,0.855,0.5581,0.7644,2055
3,0.2739,0.5815,-0.073,-0.0272,0.8713,0.6831,2051
3,0.2458,0.5989,-0.3616,0.522,0.7951,0.7522,2040
4,0.0874,0.5432,-0.2141,0.4336,1.0041,0.6709,2032
4,0.2307,0.5117,-0.2603,0.7653,0.738,0.8613,2017
4,0.1428,0.5037,-0.2437,0.7794,0.8765,0.7945,2032
4,0.1606,0.584,-0.325,1.1728,0.5658,0.773,2032
4,0.1506,0.5239,-0.3018,1.2916,0.3952,0.7458,2038
4,0.1267,0.5107,-0.301,1.376,0.296,0.6312,2043
4,0.1863,0.4873,-0.2534,1.1515,0.5064,0.6413,2053
4,0.1404,0.4866,-0.2976,1.0018,0.6797,0.5327,2049
4,0.103,0.4832,-0.3506,0.872,0.8119,0.4823,2040
4,0.0898,0.5002,-0.3965,0.7443,0.9608,0.4436,2042
4,0.1653,0.5034,-0.4465,0.6114,1.0019,0.4386,2046
4,0.1438,0.5259,-0.4663,0.5505,0.9869,0.369,2040
4,0.1912,0.5293,-0.4702,0.4579,0.9657,0.3524,2046
4,0.1975,0.5642,-0.4683,0.4389,0.8658,0.3056,2043
4,0.1965,0.5669,-0.4553,0.3586,0.7245,0.2211,2043
4,0.2092,0.582,-0.4619,0.3232,0.5791,0.1209,2047
4,0.2185,0.5837,-0.447,0.2559,0.4835,0.0537,2044
4,0.2434,0.6025,-0.4644,0.1537,0.3875,-0.0399,2046
4,0.2866,0.6509,-0.4607,0.0664,0.2669,-0.1432,2050
4,0.2825,0.6592,-0.4619,-0.0723,0.2009,-0.3009,2049
4,0.3044,0.687,-0.3877,-0.318,0.3037,-0.4385,2044
4,0.3835,0.7449,-0.343,-0.5084,0.5434,-0.5175,2048
4,0.4988,0.8267,-0.335,-0.6199,0.7308,-0.4963,2055
4,0.5967,0.8528,-0.24,-0.7046,0.8999,-0.4434,2048
4,0.6641,0.8545,-0.175,-0.9865,1.0705,-0.465,2066
4,0.738,0.8979,-0.1887,-1.0567,0.964,-0.43,2075
4,0.7217,0.9417,-0.1785,-0.9685,0.8027,-0.278,2067
4,0.6428,0.9131,-0.1077,-0.8377,0.3868,-0.3209,1943
4,0.5674,1.093,0.0132,-0.9979,0.0804,-0.512,2022
4,0.6257,1.373,-0.0032,-1.1728,-0.3224,-0.5201,1941
4,0.5269,1.2444,0.0762,-1.4342,-0.5446,-0.5364,1994
4,0.4746,1.293,0.0217,-1.3672,-0.7522,-0.5908,2005
4,0.3015,1.262,0.1384,-1.0709,-1.4355,-0.4956,2018
4,0.2166,1.3235,0.0671,-0.548,-1.7395,-0.4525,2056
4,0.116,1.313,0.0623,0.202,-2.2118,-0.5164,2099
4,0.0872,1.105,0.084,0.6751,-2.3385,-0.5823,2107
4,-0.0879,0.9541,0.0867,0.8316,-2.1031,-0.7608,2108
4,-0.125,0.718,0.1553,0.6594,-1.3587,-0.7022,2104
4,0.0217,0.6133,0.1804,0.4157,-0.5934,-0.4424,2070
4,0.0884,0.6067,0.1514,0.0389,0.0095,-0.251,2083
4,0.1841,0.6912,0.0476,-0.0555,0.379,0.0301,2077
4,0.2385,0.7822,-0.0493,-0.1097,0.624,0.2607,2079
4,0.2739,0.8403,-0.1694,-0.1742,0.6296,0.3562,2068
4,0.292,0.8508,-0.2515,-0.1828,0.3746,0.4341,2047
4,0.3298,0.8462,-0.2744,-0.1637,-0.1051,0.4935,2049
4,0.4092,0.8616,-0.2844,-0.1204,-0.7179,0.5484,2038
4,0.4429,0.8479,-0.2585,-0.0236,-1.3029,0.6004,2032
4,0.4126,0.8364,-0.2605,0.071,-1.8117,0.6352,2032
4,0.3672,0.8408,-0.2729,0.1876,-2.1571,0.6488,2035
4,0.3484,0.8184,-0.2739,0.2598,-2.3666,0.6702,2037
4,0.3032,0.7856,-0.2654,0.2858,-2.3968,0.6626,2042
4,0.2402,0.74,-0.261,0.3245,-2.266,0.6544,2038
4,0.1755,0.6753,-0.2278,0.3465,-2.0206,0.6193,2041
4,0.179,0.6519,-0.2039,0.3842,-1.69,0.6014,2043
4,0.2534,0.6138,-0.2351,0.4823,-1.4113,0.5641,2039
4,0.2942,0.5618,-0.2329,0.6043,-1.1461,0.5067,2038
4,0.3167,0.5012,-0.2251,0.6452,-0.9348,0.4448,2045
4,0.3276,0.4592,-0.2295,0.6359,-0.7704,0.3685,2038
4,0.3359,0.4229,-0.2495,0.6038,-0.6434,0.2938,2041
4,0.3108,0.4023,-0.2686,0.6018,-0.5558,0.1915,2038
4,0.3291,0.4067,-0.3,0.6006,-0.4701,0.0964,2044
4,0.3315,0.3997,-0.3208,0.5795,-0.4019,-0.0168,2048
4,0.3267,0.3887,-0.3333,0.5324,-0.3545,-0.1277,2035
4,0.3391,0.3911,-0.3508,0.5268,-0.3474,-0.2004,2039
4,0.3354,0.3728,-0.3376,0.481,-0.3257,-0.2835,2044
4,0.3496,0.3687,-0.3279,0.4301,-0.3165,-0.3372,2041
4,0.364,0.3662,-0.3247,0.3859,-0.32,-0.4022,2044
4,0.3699,0.3606,-0.2971,0.3161,-0.3125,-0.443,2044
4,0.3721,0.3713,-0.3035,0.231,-0.3068,-0.4844,2053
4,0.3682,0.3777,-0.304,0.1899,-0.3073,-0.5132,2041
4,0.3862,0.3826,-0.3086,0.1523,-0.2952,-0.5287,2048
4,0.3975,0.3955,-0.3074,0.1113,-0.2868,-0.5537,2043
4,0.4119,0.3843,-0.3003,0.0902,-0.3542,-0.595,2043
4,0.4326,0.415,-0.3225,0.0491,-0.4097,-0.6466,2047
4,0.4316,0.4136,-0.3333,0.0503,-0.494,-0.6703,2047
4,0.4382,0.4473,-0.3333,0.0256,-0.5516,-0.7582,2049
4,0.4299,0.4487,-0.3369,-0.0328,-0.5537,-0.7987,2045
4,0.4348,0.4812,-0.3748,-0.0839,-0.5247,-0.7965,2040
4,0.4163,0.4905,-0.3853,-0.2249,-0.4484,-0.817,2044
4,0.4402,0.5566,-0.4202,-0.3769,-0.3815,-0.8273,2043
4,0.4863,0.6848,-0.4622,-0.4919,-0.3691,-0.8212,2044
4,0.4583,0.7673,-0.4451,-0.6438,-0.3344,-0.877,2044
4,0.5181,0.8137,-0.4431,-0.7757,-0.3689,-0.7854,2044
4,0.4446,0.8074,-0.3247,-0.8231,-0.446,-0.6942,2043
4,0.4233,0.8618,-0.2585,-0.8135,-0.5874,-0.6813,2044
4,0.481,0.98,-0.2837,-0.7645,-0.779,-0.634,2048
4,0.6882,1.1252,-0.2537,-0.8536,-1.0713,-0.5891,2047
4,0.6875,1.2148,-0.3064,-1.126,-1.2628,-0.6814,2042
4,0.6157,1.0454,-0.427,-1.3563,-1.4708,-1.0356,2047
4,0.8809,1.2678,-0.6509,-0.7684,-1.6944,-0.8195,2048
4,0.7686,1.7563,-0.4233,0.1722,-1.8514,-0.4903,2052
4,0.2356,1.5867,-0.0986,-0.326,-1.4057,-0.4992,2078
4,0.1482,1.3223,-0.1497,-0.5747,-0.958,-0.2787,2047
4,0.1062,1.3538,-0.2246,-0.2645,-0.4613,-0.1939,2033
4,0.1514,1.3926,-0.2087,-0.0015,0.1053,-0.0461,2023
4,0.2,1.283,-0.1619,0.3959,0.4269,0.1723,2020
4,0.1616,1.0667,-0.1516,0.4654,0.4839,0.1996,2022
4,0.1667,1.0024,-0.2031,0.4862,0.4388,0.2703,2030
4,0.2102,1.0632,-0.2158,0.4506,0.4313,0.3293,2050
4,0.2539,1.0735,-0.2632,0.2998,0.4947,0.4494,2071
4,0.3594,0.9871,-0.2878,0.1562,0.6343,0.5935,2078
4,0.2625,1.0225,-0.3457,0.2581,0.7146,0.651,2077
4,0.1523,0.9548,-0.3328,0.2289,0.7486,0.6532,2057
4,0.094,0.9641,-0.3623,0.2999,0.7967,0.5674,2054
4,0.1133,0.8914,-0.3884,0.3041,0.8899,0.5315,2050
5,0.1768,0.8477,-0.3828,0.2952,1.0408,0.5434,2050
5,0.2224,0.8296,-0.3801,0.2826,1.2043,0.5726,2041
5,0.2454,0.8213,-0.3633,0.2784,1.2969,0.6157,2041
5,0.2844,0.8123,-0.3623,0.2975,1.2942,0.6019,2044
5,0.3079,0.7971,-0.3279,0.3646,1.2583,0.638,2041
5,0.3191,0.7515,-0.2615,0.4534,1.2101,0.648,2042
5,0.3259,0.718,-0.2776,0.575,1.0579,0.6589,2046
5,0.3374,0.6589,-0.2913,0.8505,0.7802,0.6554,2041
5,0.3286,0.6389,-0.3281,1.1184,0.485,0.6371,2044
5,0.2539,0.5776,-0.3276,1.3687,0.2145,0.596,2047
5,0.1768,0.4941,-0.2439,1.3519,0.2125,0.5831,2038
5,0.1401,0.4597,-0.2341,1.0829,0.4251,0.5813,2041
5,0.1021,0.4385,-0.2549,0.921,0.6381,0.5339,2042
5,0.0837,0.4451,-0.3025,0.8372,0.7917,0.5036,2045
5,0.0991,0.4575,-0.3477,0.7584,0.9223,0.4803,2044
5,0.1299,0.4739,-0.3958,0.6718,0.9997,0.4554,2046
5,0.1533,0.5029,-0.4192,0.5954,1.0488,0.4368,2043
5,0.1807,0.5183,-0.4541,0.5417,1.0387,0.4032,2042
5,0.1809,0.5317,-0.4558,0.4922,0.9899,0.3741,2042
5,0.1992,0.5427,-0.4531,0.4549,0.8806,0.3478,2042
5,0.2126,0.5603,-0.4519,0.4046,0.7441,0.3308,2044
5,0.2205,0.5698,-0.4426,0.3521,0.5687,0.3081,2044
5,0.2273,0.5925,-0.4441,0.3041,0.4069,0.2992,2043
5,0.2246,0.6018,-0.4268,0.2649,0.2228,0.2637,2041
5,0.2209,0.6169,-0.4009,0.2097,0.037,0.2273,2045
5,0.2205,0.6313,-0.3647,0.1578,-0.1276,0.2001,2045
5,0.2148,0.6562,-0.3328,0.0949,-0.2843,0.1406,2045
5,0.2461,0.678,-0.3225,0.0158,-0.4392,0.0816,2045
5,0.2751,0.6882,-0.3042,-0.1248,-0.6028,-0.0023,2047
5,0.3132,0.7681,-0.2781,-0.2822,-0.6151,-0.0233,2046
5,0.3962,0.8865,-0.3088,-0.3804,-0.5867,0.0417,2044
5,0.4229,0.8916,-0.2739,-0.3863,-0.6675,0.0771,2047
5,0.4177,0.9175,-0.2134,-0.4585,-0.907,0.091,2059
5,0.3889,0.9424,-0.2131,-0.471,-1.1961,0.0431,2046
5,0.429,0.9497,-0.1526,-0.5296,-1.4233,-0.0531,2042
5,0.4834,0.9741,-0.1409,-0.504,-1.6588,-0.0438,2044
5,0.406,0.8723,-0.0779,-0.6983,-1.6522,-0.102,2044
5,0.4778,0.9863,-0.1626,-0.6476,-1.7781,-0.176,2042
5,0.4771,1.0955,-0.1985,-0.8913,-1.7857,-0.3413,2045
5,0.5049,1.1436,-0.2615,-1.2271,-1.8128,-0.3824,2044
5,0.4946,1.2043,-0.3708,-1.5077,-1.8478,-0.5079,2042
5,0.4753,1.2546,-0.3447,-1.5617,-1.7764,-0.7139,2042
5,0.3811,1.1262,-0.1951,-1.492,-1.5237,-0.8285,2043
5,0.3926,1.0508,-0.1331,-1.2734,-1.4183,-0.7945,2044
5,0.4414,0.9458,0.0012,-0.9661,-1.2042,-0.7192,2045
5,0.4043,0.8206,0.0808,-0.9598,-0.9036,-0.5666,2051
5,0.3499,0.7368,0.0312,-0.9865,-0.6201,-0.4906,2052
5,0.3247,0.6851,-0.0239,-0.9979,-0.2384,-0.4044,2047
5,0.2869,0.644,-0.0713,-1.0136,0.1112,-0.2808,2049
5,0.2776,0.636,-0.0876,-1.064,0.2458,-0.1425,2045
5,0.2986,0.6958,-0.0916,-1.1403,0.1104,0.0278,2041
5,0.3352,0.7761,-0.0964,-1.2022,-0.1594,0.1748,2043
5,0.3745,0.8528,-0.1211,-1.2247,-0.4625,0.2697,2044
5,0.375,0.875,-0.1333,-1.1862,-0.8164,0.3004,2044
5,0.3672,0.8735,-0.1428,-1.1179,-1.1654,0.3036,2043
5,0.3486,0.8748,-0.1267,-0.9891,-1.4545,0.3217,2046
5,0.3086,0.855,-0.0908,-0.8379,-1.6528,0.3565,2046
5,0.2769,0.8245,-0.073,-0.7745,-1.782,0.3505,2047
5,0.2505,0.7832,-0.0984,-0.7261,-1.821,0.3478,2052
5,0.248,0.7639,-0.1382,-0.7564,-1.7401,0.3015,2044
5,0.2373,0.7485,-0.1812,-0.7303,-1.5812,0.3024,2043
5,0.2444,0.7366,-0.2129,-0.7035,-1.405,0.257,2045
5,0.2615,0.6875,-0.2393,-0.6365,-1.2013,0.225,2048
5,0.2893,0.6287,-0.229,-0.5617,-0.9953,0.181,2044
5,0.2993,0.5667,-0.2141,-0.4958,-0.8393,0.1438,2043
5,0.3381,0.5042,-0.2097,-0.443,-0.726,0.1265,2046
5,0.3572,0.459,-0.1965,-0.4073,-0.66,0.1033,2069
5,0.3684,0.4263,-0.2043,-0.3815,-0.6087,0.0766,2041
5,0.3657,0.4043,-0.2312,-0.3651,-0.5717,0.0326,2039
5,0.356,0.4001,-0.2686,-0.3342,-0.541,-0.0281,2046
5,0.3479,0.397,-0.2852,-0.3148,-0.5227,-0.0884,2043
5,0.3232,0.3835,-0.3079,-0.3099,-0.5123,-0.1238,2044
5,0.304,0.3818,-0.3127,-0.2783,-0.4489,-0.1814,2043
5,0.292,0.3765,-0.3167,-0.2723,-0.346,-0.2487,2042
5,0.2917,0.3684,-0.3257,-0.2683,-0.2373,-0.3251,2048
5,0.2844,0.3777,-0.3418,-0.2619,-0.1272,-0.3992,2046
5,0.283,0.3848,-0.3638,-0.2634,-0.008,-0.4576,2045
5,0.2856,0.3994,-0.3708,-0.2461,0.1214,-0.512,2039
5,0.2839,0.4028,-0.3611,-0.2212,0.2272,-0.5452,2057
5,0.2815,0.4092,-0.3486,-0.2053,0.3016,-0.5781,2041
5,0.2932,0.4268,-0.3376,-0.1768,0.33,-0.6044,2043
5,0.3171,0.4336,-0.324,-0.1258,0.3223,-0.6172,2043
5,0.3245,0.4414,-0.2976,-0.0703,0.2971,-0.6225,2044
5,0.3418,0.4465,-0.2871,0.0069,0.2618,-0.6433,2045
5,0.3386,0.4429,-0.2947,0.1111,0.2502,-0.6687,2047
5,0.3369,0.4421,-0.2983,0.1791,0.2607,-0.6923,2042
5,0.3311,0.4719,-0.3025,0.2171,0.2847,-0.7075,2042
5,0.3218,0.5137,-0.3218,0.241,0.3203,-0.708,2045
5,0.3054,0.5774,-0.3469,0.2476,0.3468,-0.6894,2045
5,0.3076,0.6753,-0.3574,0.2482,0.3482,-0.6384,2044
5,0.3123,0.7974,-0.3635,0.2485,0.3025,-0.5817,2044
5,0.3264,0.9104,-0.3501,0.3345,0.2288,-0.5283,2044
5,0.3469,0.9832,-0.3271,0.4469,0.1245,-0.5203,2044
5,0.3613,1.0129,-0.314,0.5167,0.0112,-0.5187,2048
5,0.4336,1.0576,-0.3081,0.6064,-0.0719,-0.6522,2043
5,0.4768,1.1326,-0.2722,0.7255,-0.1963,-0.669,2043
5,0.4949,1.2361,-0.2507,0.8499,-0.3128,-0.7072,2045
5,0.4854,1.313,-0.2383,0.9275,-0.3898,-0.7186,2039
5,0.4175,1.3848,-0.24,0.9529,-0.3868,-0.6434,2044
5,0.3647,1.3945,-0.2261,0.9352,-0.3372,-0.5129,2045
6,0.291,1.5061,-0.2122,1.0549,-0.2337,-0.444,2043
6,0.1899,1.5327,-0.1558,1.3038,0.0581,-0.3322,2067
6,0.0559,1.4314,-0.0383,1.4412,0.5894,-0.1605,2048
6,-0.0073,1.342,0.0747,1.5281,1.0793,0.0013,2060
6,-0.0288,1.2349,0.2043,1.5776,1.6777,0.1117,2052
6,-0.0066,1.1528,0.3494,1.3669,2.3262,0.2412,2044
6,0.0872,1.1987,0.343,1.3051,2.8552,0.2855,2046
6,-0.2375,1.1736,0.4863,1.3446,3.4601,0.0395,2038
6,-0.0535,1.1924,0.7761,0.3517,4.0791,-0.1482,2041
6,0.0916,1.1899,0.4912,0.4904,4.3634,0.0981,2035
6,0.5115,1.1294,0.3372,0.7381,4.1202,0.3683,2045
6,0.415,1.1548,0.1848,1.2713,3.9369,0.3868,2052
6,0.4583,1.0066,0.1184,1.543,3.6326,0.4529,2058
6,0.3733,0.9148,0.0159,1.5062,3.2536,0.567,2052
6,0.3318,0.8975,-0.0715,1.5486,2.8437,0.7225,2049
6,0.2583,0.8362,-0.1057,1.5576,2.4594,0.7682,2045
6,0.3208,0.675,-0.0984,1.3961,2.0407,0.7913,2041
6,0.2722,0.6392,-0.1328,1.1282,1.8105,0.7419,2039
6,0.2339,0.5864,-0.1487,0.8624,1.5376,0.7594,2042
6,0.2297,0.5657,-0.1179,0.5416,1.0969,0.7152,2046
6,0.3035,0.5491,-0.1631,0.4243,0.6726,0.8038,2048
6,0.3047,0.5237,-0.2151,0.4241,0.4124,0.8305,2045
6,0.2368,0.468,-0.2361,0.5325,0.1334,0.7573,2044
6,0.2549,0.4585,-0.2458,0.5121,-0.1088,0.756,2046
6,0.2295,0.4153,-0.2207,0.5171,-0.3626,0.7533,2049
6,0.1687,0.4133,-0.2793,0.5476,-0.6067,0.7083,2041
6,0.2402,0.3682,-0.3083,0.5087,-0.8401,0.7883,2044
6,0.1995,0.365,-0.2981,0.4627,-1.01,0.7582,2045
6,0.1602,0.4167,-0.2954,0.3758,-1.1698,0.7047,2040
6,0.2341,0.3904,-0.3481,0.3129,-1.2227,0.8256,2041
6,0.1609,0.2771,-0.3313,0.1792,-1.5149,0.6416,2040
6,0.1433,0.3901,-0.3789,-0.0173,-1.7747,0.5574,2041
6,0.0459,0.5225,-0.4104,-0.0427,-1.7094,0.5851,2040
6,-0.0227,0.5476,-0.4375,-0.1815,-1.5542,0.5653,2043
6,0.0002,0.5254,-0.4004,-0.4155,-1.3444,0.562,2045
6,0.0557,0.5925,-0.4165,-0.5723,-1.2721,0.5125,2043
6,0.0791,0.6748,-0.3948,-0.6371,-1.1413,0.4627,2040
6,0.0847,0.7505,-0.3838,-0.6978,-0.9343,0.3671,2044
6,0.1338,0.7681,-0.3218,-0.7677,-0.7806,0.2445,2047
6,0.1621,0.7861,-0.2834,-0.8467,-0.6636,0.0798,2044
6,0.2488,0.7878,-0.2708,-0.8388,-0.5674,0.0105,2046
6,0.3027,0.8215,-0.2275,-0.8973,-0.4726,-0.0856,2048
6,0.4109,0.8181,-0.2554,-0.9927,-0.4895,-0.1027,2052
6,0.5232,0.8872,-0.301,-0.7598,-0.7982,-0.0072,2044
6,0.636,0.9624,-0.2703,-0.6754,-1.1176,0.0222,2048
6,0.8657,0.9507,-0.0081,-1.1224,-0.9056,0.1515,2065
6,0.6589,0.8669,-0.1531,-0.9736,-1.1172,0.0027,2073
6,0.6658,0.929,-0.0981,-0.867,-1.4736,-0.124,2070
6,0.4634,0.8589,-0.229,-0.3789,-1.996,-0.3887,2004
6,0.376,0.8523,-0.2559,-0.1185,-2.4643,-0.4999,2023
6,0.3457,0.8291,-0.2605,-0.1519,-2.4892,-0.3201,2050
6,0.395,0.8569,-0.2573,-0.2366,-2.2,-0.4188,2021
6,0.1196,1.019,-0.3638,-0.1041,-1.7104,-1.0258,2042
6,0.4626,0.9087,-0.2686,-0.5738,-1.29,-0.4201,2053
6,0.3704,0.9871,-0.1897,-1.0941,-0.8303,-0.3199,2040
6,0.1165,1.4043,-0.4333,-1.3422,-0.7082,-0.3265,2050
6,0.6235,1.2241,-0.2524,-1.594,-0.3771,-0.1121,2041
6,0.2122,1.3013,-0.189,-1.5912,-0.3017,-0.3655,2037
6,0.1555,1.3362,-0.1204,-1.0555,-0.3535,-0.3164,2039
6,0.3091,1.2227,0.0188,-0.5147,-0.4667,-0.1919,2047
6,0.2036,1.0959,0.0664,0.0095,-0.4381,-0.2052,2049
6,0.144,0.978,0.1506,0.3294,-0.2203,-0.1233,2052
6,0.1558,0.856,0.1924,0.4757,0.1208,-0.0162,2050
6,0.2148,0.8074,0.198,0.53,0.4275,0.1163,2042
6,0.2307,0.8328,0.1724,0.5811,0.5895,0.2125,2045
6,0.2019,0.9194,0.1101,0.702,0.6155,0.243,2050
6,0.0471,0.8994,0.103,0.7782,0.6719,0.1577,2049
6,0.2598,0.9045,0.0022,0.8379,0.5582,0.3622,2042
6,0.2771,0.8086,-0.0444,0.7769,0.3938,0.4466,2037
6,0.3083,0.7686,-0.1074,0.7665,0.0567,0.488,2055
6,0.365,0.7156,-0.1296,0.7388,-0.2823,0.5533,2053
6,0.3403,0.6514,-0.1704,0.7423,-0.5689,0.6024,2050
6,0.3328,0.6243,-0.2312,0.7087,-0.7906,0.6452,2050
6,0.3188,0.5977,-0.283,0.6652,-1.0019,0.7151,2048
6,0.259,0.5901,-0.342,0.6442,-1.136,0.7168,2044
6,0.2515,0.5693,-0.3916,0.6727,-1.2106,0.6469,2045
6,0.2495,0.5608,-0.4236,0.6742,-1.2159,0.6255,2045
6,0.2744,0.5437,-0.4092,0.7056,-1.1975,0.6341,2045
6,0.2527,0.4905,-0.4031,0.7135,-1.1266,0.6321,2040
6,0.241,0.4475,-0.3811,0.714,-1.0292,0.5918,2044
6,0.2302,0.4153,-0.3672,0.711,-0.912,0.5145,2043
6,0.2478,0.3862,-0.3442,0.6422,-0.7685,0.4453,2042
6,0.322,0.406,-0.344,0.643,-0.6442,0.4145,2041
6,0.3499,0.4099,-0.3416,0.6711,-0.555,0.3318,2044
6,0.3547,0.396,-0.3262,0.6588,-0.5335,0.2449,2041
6,0.3457,0.3831,-0.293,0.5758,-0.5329,0.1439,2042
6,0.3411,0.3643,-0.2693,0.4381,-0.5309,0.0318,2047
6,0.3752,0.3718,-0.2539,0.3558,-0.4864,-0.0542,2046
6,0.3955,0.3777,-0.2434,0.2908,-0.4609,-0.1394,2045
6,0.4097,0.3989,-0.2493,0.2569,-0.4896,-0.2223,2045
6,0.375,0.4075,-0.2349,0.2472,-0.4912,-0.3473,2044
6,0.3804,0.4143,-0.2424,0.2245,-0.5056,-0.4097,2043
6,0.4226,0.4204,-0.2441,0.1922,-0.5513,-0.4627,2042
6,0.3845,0.4216,-0.2534,0.1573,-0.5593,-0.5546,2059
6,0.4053,0.4324,-0.2542,0.1553,-0.5869,-0.5907,2043
6,0.4182,0.4683,-0.27,0.1736,-0.553,-0.7299,2045
6,0.3977,0.4683,-0.2808,0.1633,-0.5155,-0.7292,2041
6,0.3564,0.4431,-0.2834,0.1406,-0.4843,-0.8574,2040
6,0.394,0.4863,-0.3086,0.1294,-0.4217,-0.8978,2047
6,0.3613,0.4653,-0.3423,0.0297,-0.3437,-0.8954,2042
7,0.4561,0.5359,-0.3596,-0.0887,-0.2737,-0.891,2048
7,0.4795,0.5996,-0.426,-0.1902,-0.2217,-0.8955,2049
7,0.4624,0.6711,-0.4602,-0.3185,-0.1826,-0.895,2049
7,0.4265,0.7363,-0.4998,-0.384,-0.2274,-0.8762,2043
7,0.5205,0.8254,-0.5254,-0.405,-0.3774,-0.7578,2041
7,0.6265,0.8853,-0.4661,-0.3926,-0.744,-0.5104,2044
7,0.6709,0.8992,-0.3787,-0.5235,-1.0903,-0.3452,2044
7,0.6875,1.0469,-0.4302,-0.1574,-1.4151,-0.2097,2041
7,0.7275,1.0776,-0.3994,0.1028,-1.9092,-0.1321,2042
7,0.8057,1.1304,-0.467,0.3796,-2.3425,-0.0182,2046
7,0.6682,1.3042,-0.3645,0.9373,-2.6726,0.0413,2035
7,0.4097,1.3071,-0.3652,0.7456,-2.4506,-0.3733,2050
7,0.2678,1.3386,-0.4187,0.8283,-2.0627,-0.5577,2048
7,0.218,1.3994,-0.3779,0.6962,-1.3459,-0.4888,2038
7,0.1326,1.1997,-0.4336,0.5185,-0.5417,-0.3261,2047
7,0.2942,1.3293,-0.3406,0.5902,0.1262,-0.0953,2049
7,0.2627,1.1489,-0.3704,0.4583,0.6167,0.1301,2045
7,0.2971,1.1338,-0.3274,0.5468,0.8549,0.2296,2029
7,0.2231,1.1472,-0.3689,0.742,0.9017,0.2348,2043
7,0.1265,1.0835,-0.4277,0.9357,0.9022,0.1016,2025
7,0.0828,1.0791,-0.5007,1.0917,1.0947,-0.028,2035
7,0.1233,1.0063,-0.4871,0.9335,1.4001,-0.1129,2042
7,0.1501,0.9397,-0.4897,0.5858,1.7526,-0.1493,2042
7,0.1819,0.9167,-0.5161,0.1286,2.0726,-0.053,2046
7,0.1787,0.937,-0.5278,-0.7087,2.0903,0.2301,2054
7,0.1233,0.908,-0.5867,-0.5747,2.0186,0.0593,2055
7,0.1492,0.8418,-0.5171,-0.8218,1.8732,0.2096,2057
7,0.1904,0.7654,-0.4929,-0.7757,1.8365,0.2984,2058
7,0.2214,0.7422,-0.4409,-0.6618,1.8375,0.4452,2057
7,0.2395,0.8228,-0.4036,-0.4791,1.8105,0.546,2054
7,0.2244,0.8079,-0.4761,-0.1992,1.654,0.5988,2055
7,0.4133,0.7852,-0.4424,0.072,1.4182,0.6538,2051
7,0.4795,0.8354,-0.4978,0.3509,1.18,0.6731,2046
7,0.3618,0.7012,-0.3735,0.3157,0.9236,0.6293,2050
7,0.3088,0.5688,-0.3293,0.3943,0.6395,0.5384,2048
7,0.281,0.5415,-0.3223,0.5307,0.3673,0.4751,2044
7,0.271,0.5007,-0.2893,0.5205,0.2145,0.4169,2040
7,0.1694,0.512,-0.2917,0.4741,0.2948,0.3333,2041
7,0.1025,0.502,-0.2932,0.4996,0.4751,0.2826,2042
7,0.092,0.4709,-0.2471,0.4685,0.6438,0.2542,2047
7,0.075,0.4546,-0.2539,0.3669,0.8273,0.2357,2045
7,0.0916,0.4302,-0.2764,0.3871,0.9115,0.1828,2043
7,0.1006,0.4609,-0.3296,0.371,0.9765,0.0674,2045
7,0.1003,0.4534,-0.3198,0.3514,1.0618,0.032,2039
7,0.1335,0.479,-0.3489,0.3241,1.0871,-0.0226,2042
7,0.1406,0.4839,-0.3743,0.3128,1.0633,-0.0491,2041
7,0.1799,0.4973,-0.3953,0.2895,0.9874,-0.0963,2042
7,0.2002,0.5095,-0.4141,0.2553,0.8569,-0.1025,2046
7,0.2307,0.5234,-0.4263,0.1936,0.7469,-0.1497,2043
7,0.2178,0.5542,-0.4387,0.0783,0.6396,-0.2165,2041
7,0.2048,0.553,-0.4312,-0.0449,0.5319,-0.2878,2046
7,0.2778,0.5537,-0.4351,-0.1738,0.3931,-0.2748,2045
7,0.2441,0.5735,-0.4067,-0.3089,0.3267,-0.3233,2044
7,0.2893,0.6104,-0.4106,-0.4008,0.151,-0.3207,2047
7,0.3325,0.6641,-0.3811,-0.5377,0.0531,-0.2888,2049
7,0.3616,0.7405,-0.3992,-0.5817,-0.1072,-0.2848,2043
7,0.3467,0.7913,-0.3899,-0.6466,-0.3027,-0.3722,2046
7,0.3806,0.8203,-0.3533,-0.791,-0.4457,-0.3508,2044
7,0.5327,0.8711,-0.2109,-1.2107,-0.3919,-0.1844,2051
7,0.3667,0.896,-0.248,-1.2062,-0.4779,-0.2782,2048
7,0.5178,0.9456,-0.1724,-1.1403,-0.8312,-0.0751,2054
7,0.5286,0.957,-0.1624,-1.0127,-1.2525,-0.137,2045
7,0.5076,1.0439,-0.2087,-0.9412,-1.7157,-0.175,2061
7,0.4929,1.2178,-0.2439,-0.8313,-1.9552,-0.3634,2028
7,0.4524,1.3674,-0.2512,-0.8903,-2.0817,-0.4757,2028
7,0.4275,1.4534,-0.3152,-0.8919,-2.0984,-0.4979,2030
7,0.2361,1.3992,-0.2532,-0.9367,-1.7293,-0.6734,2039
7,0.1721,1.2776,-0.1755,-0.7887,-1.3151,-0.7741,2046
7,0.2402,1.1558,-0.1223,-0.5428,-1.0076,-0.6265,2043
7,0.2266,1.0081,-0.0576,-0.4249,-0.6367,-0.6723,2046
7,0.2502,0.9888,-0.0381,-0.432,-0.2982,-0.6586,2051
7,0.2126,0.9626,-0.0356,-0.4233,0.1093,-0.5333,2049
7,0.2024,0.8799,-0.0251,-0.4557,0.4703,-0.4192,2046
7,0.2678,0.8374,-0.0322,-0.3675,0.6153,-0.2254,2053
7,0.2712,0.7981,-0.0103,-0.1927,0.6244,-0.0507,2053
7,0.293,0.7744,0.0034,-0.1131,0.5272,0.0792,2047
7,0.3496,0.7944,-0.0159,-0.0377,0.3558,0.1786,2048
7,0.3901,0.8208,-0.0393,0.0242,0.1206,0.2792,2043
7,0.406,0.8635,-0.0923,0.1011,-0.1618,0.3657,2047
7,0.3875,0.8818,-0.1465,0.1621,-0.4749,0.4155,2048
7,0.3425,0.8916,-0.1941,0.2441,-0.8123,0.4505,2043
7,0.2749,0.875,-0.2222,0.3212,-1.0958,0.4883,2051
7,0.2244,0.8499,-0.2397,0.4036,-1.2684,0.5438,2047
7,0.207,0.8076,-0.2449,0.4916,-1.3344,0.5616,2044
7,0.1887,0.7612,-0.2498,0.5408,-1.2762,0.5942,2042
7,0.1765,0.7148,-0.2495,0.5793,-1.1399,0.6191,2048
7,0.1648,0.6909,-0.25,0.6323,-0.9593,0.6315,2042
7,0.1606,0.6465,-0.2522,0.6727,-0.7738,0.6165,2045
7,0.1936,0.6101,-0.2627,0.7392,-0.5954,0.6042,2043
7,0.2092,0.5618,-0.25,0.7988,-0.4275,0.5835,2044
7,0.2317,0.5276,-0.2554,0.8513,-0.3137,0.5545,2044
7,0.2515,0.48,-0.2612,0.9006,-0.2481,0.5132,2042
7,0.2795,0.4519,-0.2546,0.9427,-0.2273,0.4657,2041
7,0.3013,0.4275,-0.2729,0.9766,-0.2226,0.418,2045
7,0.3103,0.3926,-0.2744,0.9837,-0.2341,0.3662,2043
7,0.3071,0.3706,-0.272,0.9527,-0.2543,0.2972,2045
7,0.304,0.3594,-0.304,0.9162,-0.2848,0.2237,2048
7,0.302,0.3682,-0.3064,0.8898,-0.302,0.1459,2040
7,0.2856,0.3604,-0.3083,0.8774,-0.3293,0.0691,2042
7,0.28,0.3596,-0.314,0.8345,-0.3157,-0.0084,2043
7,0.2927,0.3591,-0.3,0.8088,-0.295,-0.0816,2044
7,0.293,0.3613,-0.3079,0.7921,-0.2614,-0.142,2045
7,0.293,0.3604,-0.3076,0.7589,-0.2333,-0.2075,2046
7,0.3318,0.3638,-0.3164,0.7183,-0.1997,-0.2493,2045
7,0.3396,0.366,-0.3303,0.6982,-0.2019,-0.2842,2046
7,0.3962,0.342,-0.2981,0.5934,-0.2246,-0.3446,2043
7,0.4302,0.3499,-0.3062,0.4505,-0.2722,-0.3992,2043
8,0.4473,0.3865,-0.3193,0.3714,-0.3843,-0.426,2045
8,0.46,0.426,-0.3281,0.3219,-0.4721,-0.4595,2061
8,0.4434,0.4502,-0.3174,0.2803,-0.5372,-0.5297,2042
8,0.4414,0.4636,-0.3208,0.1768,-0.6209,-0.5552,2042
8,0.4341,0.4961,-0.3425,0.0842,-0.6802,-0.5674,2040
8,0.3958,0.5437,-0.3816,0.045,-0.7043,-0.6004,2044
8,0.4053,0.5776,-0.3877,-0.032,-0.7124,-0.6014,2038
8,0.3735,0.6387,-0.4087,-0.1334,-0.6652,-0.622,2054
8,0.3799,0.6868,-0.4226,-0.236,-0.6231,-0.6566,2053
8,0.376,0.7422,-0.4548,-0.3964,-0.5801,-0.6738,2047
8,0.4502,0.8679,-0.5144,-0.5496,-0.5984,-0.6534,2046
8,0.6348,1.1021,-0.5496,-0.7393,-0.718,-0.5663,2045
8,0.7122,1.3206,-0.5874,-0.9019,-0.977,-0.5433,2047
8,0.6929,1.5881,-0.6243,-0.9307,-1.3615,-0.5837,2048
8,0.6313,1.7776,-0.5967,-0.8106,-1.7408,-0.3458,2049
8,0.4209,1.5386,-0.4956,-0.7371,-1.7773,-0.4119,2041
8,0.3855,1.2546,-0.3147,-0.916,-1.659,-0.249,2042
8,0.3455,1.377,-0.2007,-1.0158,-1.5528,-0.0297,2045
8,0.3159,1.4272,-0.208,-0.3065,-1.1447,0.2554,2043
8,0.2593,1.3918,-0.1572,0.4088,-0.7078,0.3618,2044
8,0.2664,1.1982,-0.0745,0.4141,-0.4318,0.5172,2039
8,0.2356,1.2227,-0.0784,0.2725,-0.1814,0.5631,2042
8,0.239,1.3003,-0.1777,0.0477,0.033,0.4742,2051
8,0.1855,1.2751,-0.2783,-0.0491,0.1743,0.3931,2047
8,0.1748,1.1514,-0.3254,-0.0802,0.3848,0.5364,2063
8,0.1038,1.0469,-0.3362,-0.2559,0.6858,0.4739,2048
8,0.1658,0.9797,-0.3542,-0.3983,0.9271,0.3848,2055
8,0.2197,0.9685,-0.3728,-0.2746,0.9228,0.4199,2049
8,0.1079,0.9385,-0.3621,-0.2021,1.1057,0.4434,2047
8,0.0918,0.915,-0.3337,-0.1798,1.1986,0.5639,2047
8,0.1885,0.8826,-0.3584,-0.1425,1.3628,0.5875,2047
8,0.2554,0.8572,-0.3494,-0.0012,1.4319,0.5907,2044
8,0.3003,0.8215,-0.2986,0.173,1.3742,0.5786,2047
8,0.3455,0.7842,-0.3047,0.4265,1.2244,0.6179,2049
8,0.3672,0.717,-0.2869,0.6823,0.9633,0.6309,2041
8,0.3572,0.6218,-0.27,0.8235,0.7255,0.646,2043
8,0.3306,0.5562,-0.2668,0.9309,0.5572,0.675,2045
8,0.2485,0.4929,-0.2805,0.9969,0.49,0.6897,2043
8,0.1794,0.4443,-0.2842,1.0063,0.4841,0.662,2046
8,0.1204,0.4089,-0.2866,0.9784,0.5132,0.6399,2045
8,0.095,0.3906,-0.3118,0.9126,0.5723,0.6252,2042
8,0.0674,0.3845,-0.3281,0.8277,0.691,0.5999,2043
8,0.0627,0.3818,-0.3525,0.7436,0.8277,0.5711,2043
8,0.0823,0.3933,-0.3711,0.6633,0.9773,0.5445,2043
8,0.0947,0.4072,-0.3972,0.5892,1.0848,0.5299,2044
8,0.1304,0.4434,-0.4189,0.5405,1.0943,0.4972,2045
8,0.1553,0.4644,-0.4497,0.5072,1.0356,0.4678,2044
8,0.1677,0.488,-0.4746,0.4707,0.938,0.4362,2063
8,0.1875,0.5032,-0.4976,0.4269,0.8095,0.4035,2045
8,0.2021,0.5071,-0.4958,0.4004,0.6416,0.3687,2040
8,0.2063,0.5249,-0.4824,0.3374,0.4525,0.3492,2042
8,0.2249,0.5376,-0.4683,0.2938,0.2618,0.2982,2043
8,0.2314,0.5654,-0.4465,0.228,0.0823,0.2531,2045
8,0.2417,0.5959,-0.4453,0.1513,-0.1132,0.1948,2046
8,0.2664,0.6426,-0.4368,0.0613,-0.3103,0.118,2044
8,0.2712,0.7039,-0.4319,-0.0446,-0.4987,0.0177,2044
8,0.2937,0.7529,-0.4236,-0.1346,-0.6893,-0.0726,2047
8,0.3298,0.7917,-0.3701,-0.222,-0.9026,-0.1479,2042
8,0.4407,0.8118,-0.2937,-0.3494,-1.0267,-0.1687,2046
8,0.4521,0.8672,-0.2463,-0.3629,-1.0071,-0.0999,2048
8,0.4075,0.8682,-0.2266,-0.3385,-1.1934,-0.1665,2048
8,0.4412,0.8718,-0.219,-0.3673,-1.3352,-0.1276,2049
8,0.4307,0.8845,-0.2197,-0.4999,-1.4154,-0.1506,2043
8,0.4688,0.8848,-0.2056,-0.7684,-1.3677,-0.1531,2044
8,0.5598,1.0906,-0.2126,-1.0616,-1.3633,-0.2522,2045
8,0.676,1.3171,-0.2891,-1.281,-1.4834,-0.3201,2041
8,0.7173,1.4087,-0.302,-1.3636,-1.672,-0.4147,2039
8,0.5781,1.4065,-0.2654,-1.3227,-1.7985,-0.6534,2044
8,0.4949,1.3542,-0.1055,-1.287,-1.5808,-0.8032,2046
8,0.4373,1.2527,-0.0774,-0.9959,-1.5893,-0.713,2042
8,0.3535,1.1299,-0.0388,-0.5874,-1.5242,-0.8014,2061
8,0.2905,1.0056,0.0388,-0.343,-1.2472,-0.7458,2049
8,0.271,0.8789,0.0737,-0.2784,-0.7967,-0.646,2047
8,0.2644,0.7852,0.1074,-0.2301,-0.3336,-0.4991,2047
8,0.2661,0.7539,0.1418,-0.2462,0.0838,-0.3454,2049
8,0.2964,0.7969,0.1077,-0.2682,0.3976,-0.1515,2047
8,0.3198,0.8408,0.0093,-0.2454,0.6504,0.0186,2053
8,0.3379,0.8604,-0.0813,-0.2499,0.6693,0.0739,2046
8,0.3625,0.8616,-0.1462,-0.2289,0.4721,0.1654,2044
8,0.3713,0.8203,-0.1589,-0.2233,0.0798,0.2976,2044
8,0.4067,0.7761,-0.1514,-0.2264,-0.4092,0.4039,2048
8,0.4233,0.7334,-0.1489,-0.2151,-0.8764,0.4848,2042
8,0.4028,0.7024,-0.1992,-0.1934,-1.281,0.5288,2051
8,0.3704,0.6821,-0.2473,-0.1276,-1.5772,0.5228,2045
8,0.3201,0.6438,-0.2932,-0.0871,-1.7942,0.5372,2047
8,0.2791,0.6008,-0.3369,-0.0704,-1.9335,0.5323,2044
8,0.2319,0.5496,-0.3577,-0.075,-1.9281,0.5352,2043
8,0.2095,0.5046,-0.3613,-0.1099,-1.9153,0.5353,2041
8,0.1956,0.4558,-0.3662,-0.1424,-1.7377,0.5235,2041
8,0.2014,0.4302,-0.3635,-0.1667,-1.5495,0.5143,2046
8,0.2036,0.4124,-0.3723,-0.1714,-1.3712,0.5028,2046
8,0.2263,0.406,-0.3774,-0.161,-1.2087,0.471,2046
8,0.2693,0.3958,-0.3843,-0.1563,-1.0746,0.4378,2042
8,0.2996,0.3904,-0.4009,-0.1554,-0.9705,0.371,2051
8,0.3218,0.3772,-0.4048,-0.1531,-0.8941,0.3008,2043
8,0.3306,0.3826,-0.4055,-0.1498,-0.8355,0.2179,2046
8,0.3433,0.3823,-0.395,-0.1558,-0.7913,0.1204,2046
8,0.3464,0.3796,-0.3838,-0.171,-0.7387,0.0245,2043
8,0.3555,0.385,-0.3726,-0.18,-0.6948,-0.0742,2045
8,0.3669,0.3818,-0.3655,-0.1818,-0.6458,-0.1686,2044
8,0.3669,0.3872,-0.3398,-0.2185,-0.5935,-0.2746,2045
9,0.3616,0.3916,-0.333,-0.2316,-0.5368,-0.3679,2045
9,0.3501,0.3877,-0.3098,-0.2293,-0.4586,-0.4654,2045
9,0.345,0.3977,-0.303,-0.2337,-0.3717,-0.5597,2047
9,0.3513,0.3904,-0.3013,-0.2262,-0.2764,-0.6229,2044
9,0.3635,0.3989,-0.3118,-0.2372,-0.1499,-0.7007,2044
9,0.353,0.4116,-0.322,-0.2398,-0.0583,-0.762,2042
9,0.353,0.406,-0.3171,-0.2619,0.0483,-0.8207,2046
9,0.3601,0.4131,-0.3298,-0.2924,0.1269,-0.8561,2047
9,0.3672,0.4497,-0.3525,-0.3595,0.1879,-0.8882,2044
9,0.3784,0.5107,-0.3721,-0.4365,0.2297,-0.9256,2043
9,0.3855,0.5732,-0.3992,-0.5109,0.2637,-0.959,2044
9,0.3982,0.6438,-0.4202,-0.5888,0.2654,-1.0294,2041
9,0.4363,0.7383,-0.4702,-0.6745,0.1462,-1.1039,2045
9,0.5542,0.834,-0.5452,-0.7182,-0.0411,-1.0564,2043
9,0.6069,1.0415,-0.5205,-0.6542,-0.4249,-1.3082,2045
9,0.9519,1.0859,-0.6135,-0.1128,-0.8067,-0.8219,2051
9,1.157,1.1504,-0.6685,0.5718,-1.5985,-0.4987,2041
9,0.7185,1.2761,-0.3796,0.1577,-1.7155,-0.3753,2052
9,0.4099,1.3723,-0.4426,-0.1818,-1.8853,-0.5592,2048
9,0.3655,1.4377,-0.4082,-0.1039,-1.6954,-0.5734,2039
9,0.2747,1.4255,-0.2915,0.0378,-1.0796,-0.5104,2037
9,0.134,1.3872,-0.1821,0.1855,-0.4502,-0.5006,2036
9,0.1628,1.334,-0.0911,0.3444,0.3465,-0.1852,2038
9,0.2493,1.3254,-0.0327,0.4163,0.7502,-0.0635,2037
9,0.3174,1.3723,0.0242,0.488,1.2135,-0.0895,2041
9,0.3538,1.3296,0.0972,0.5589,1.552,-0.0686,2049
9,0.4268,1.2417,0.1204,0.554,1.6719,0.1517,2052
9,0.3555,1.2021,0.0222,0.4506,1.8014,0.2466,2051
9,0.3425,1.1763,-0.0891,0.3915,1.8478,0.3907,2046
9,0.311,1.2139,-0.2009,0.396,1.8873,0.4522,2046
9,0.25,1.2083,-0.2532,0.4705,1.9538,0.4859,2049
9,0.198,1.1406,-0.2878,0.5573,1.9202,0.5212,2048
9,0.167,1.0603,-0.2871,0.6048,1.8925,0.5062,2051
9,0.2036,0.9734,-0.2881,0.6614,1.8423,0.5291,2053
9,0.198,0.877,-0.2839,0.6726,1.8598,0.5693,2049
9,0.3047,0.8047,-0.3186,0.6866,1.7904,0.698,2045
9,0.395,0.7803,-0.3667,0.7502,1.5305,0.7909,2045
9,0.4099,0.7991,-0.4048,0.8965,1.2029,0.8654,2045
9,0.2993,0.8086,-0.3679,0.9525,0.9947,0.8044,2052
9,0.3689,0.7891,-0.4026,0.891,0.7589,0.9026,2040
9,0.3967,0.6689,-0.3384,0.9814,0.5376,0.9765,2048
9,0.3262,0.5852,-0.2866,1.1171,0.3113,0.9407,2045
9,0.281,0.5488,-0.2515,1.1592,0.2266,0.9541,2044
9,0.1875,0.5227,-0.2285,1.1412,0.1968,0.907,2044
9,0.1243,0.488,-0.2356,1.0927,0.2223,0.8545,2043
9,0.0884,0.446,-0.2314,1.0685,0.432,0.8349,2042
9,0.0698,0.3979,-0.2273,1.0154,0.6833,0.8003,2042
9,0.0923,0.3647,-0.241,0.9927,0.855,0.7561,2043
9,0.0811,0.3804,-0.2837,0.9728,0.9809,0.6959,2036
9,0.061,0.416,-0.3589,1.0005,1.1452,0.6452,2043
9,0.0762,0.4302,-0.3713,0.9849,1.2453,0.6233,2042
9,0.1101,0.4121,-0.3972,0.9211,1.2673,0.5842,2043
9,0.1233,0.3982,-0.4241,0.8678,1.3135,0.5522,2039
9,0.1216,0.4153,-0.4414,0.7802,1.3696,0.5103,2044
9,0.1519,0.4441,-0.4651,0.7168,1.341,0.4587,2045
9,0.1829,0.4641,-0.4912,0.6429,1.277,0.4277,2045
9,0.1753,0.4993,-0.4998,0.5635,1.177,0.3551,2043
9,0.2097,0.5032,-0.5154,0.4532,1.0869,0.295,2046
9,0.2219,0.5305,-0.5139,0.3714,0.9827,0.2248,2046
9,0.2266,0.5549,-0.5149,0.2856,0.8729,0.1364,2043
9,0.2434,0.5698,-0.4993,0.1783,0.74,0.0642,2042
9,0.2817,0.6001,-0.4946,0.0851,0.6189,-0.0137,2051
9,0.2544,0.6394,-0.4822,-0.0169,0.5321,-0.1449,2047
9,0.3066,0.6685,-0.4507,-0.193,0.4958,-0.2047,2048
9,0.3035,0.6953,-0.3772,-0.4566,0.7389,-0.3426,2055
9,0.363,0.7698,-0.3845,-0.59,0.8353,-0.4028,2048
9,0.4409,0.8362,-0.3928,-0.6722,0.6433,-0.461,2045
9,0.5303,0.9346,-0.4001,-0.5409,0.3113,-0.4211,2046
9,0.6226,0.9019,-0.2168,-0.673,0.4859,-0.3646,2060
9,0.7483,0.8838,-0.052,-1.0411,0.7143,-0.2228,2072
9,0.8059,0.886,-0.1196,-1.0449,0.5464,0.0048,2056
9,0.7668,0.8787,-0.1467,-0.6082,-0.2618,0.0605,2036
9,0.6089,0.8188,-0.0483,-0.3312,-1.1539,-0.1031,2006
9,0.644,1.0068,0.0078,-0.6324,-1.6735,-0.1763,2075
9,0.5876,1.1934,0.0002,-0.9429,-1.9495,-0.3855,2004
9,0.7034,1.3962,-0.0398,-0.9088,-2.2332,-0.4934,1988
9,0.5618,1.4102,-0.1409,-0.9469,-2.2051,-0.6488,2023
9,0.3901,1.3562,-0.1367,-0.6679,-2.088,-0.4972,2047
9,0.2615,1.3296,-0.0854,-0.4352,-2.0406,-0.7616,2050
9,0.1975,1.2161,-0.1001,-0.2325,-1.7466,-0.7625,2044
9,0.1936,1.0369,-0.0095,-0.0772,-1.2906,-0.7991,2046
9,0.1843,0.969,-0.0598,0.0506,-0.8624,-0.7522,2051
9,0.0393,0.8457,-0.0007,-0.2039,-0.2081,-0.8923,2048
9,0.1187,0.824,-0.0249,-0.2382,0.3205,-0.7586,2054
9,0.1565,0.7563,0.0027,-0.2067,0.754,-0.5512,2066
9,0.1763,0.8081,0.0264,-0.2422,1.0419,-0.4247,2057
9,0.1882,0.7881,0.0254,-0.2522,1.2248,-0.3009,2068
9,0.2966,0.8479,-0.0566,-0.2017,1.1892,-0.1305,2053
9,0.3535,0.8928,-0.1602,-0.0376,0.9995,-0.049,2050
9,0.4258,0.8982,-0.1482,0.0621,0.704,0.035,2056
9,0.4844,0.8931,-0.1436,0.1349,0.2804,0.1493,2048
9,0.5049,0.8445,-0.1257,0.242,-0.19,0.2579,2052
9,0.4775,0.7922,-0.0903,0.3425,-0.6964,0.387,2050
9,0.4546,0.7891,-0.0864,0.4968,-1.1342,0.4914,2047
9,0.4524,0.7856,-0.1221,0.8102,-1.5989,0.6008,2045
9,0.4138,0.7471,-0.1243,0.9921,-1.8819,0.6108,2048
9,0.3457,0.7305,-0.1484,1.0685,-1.8651,0.6789,2046
9,0.313,0.7383,-0.1636,1.2529,-1.7139,0.7498,2042
9,0.2769,0.707,-0.1448,1.501,-1.5793,0.8974,2037
9,0.251,0.6616,-0.1064,1.6877,-1.4157,1.0226,2043
10,0.2378,0.5737,-0.0986,1.788,-1.1065,1.0974,2048
10,0.2202,0.5828,-0.147,1.8247,-0.6913,1.1817,2049
10,0.2532,0.6238,-0.1667,1.9534,-0.2366,1.2306,2047
10,0.2803,0.6311,-0.2087,2.0202,0.1607,1.2633,2040
10,0.3289,0.5918,-0.2627,1.9571,0.3196,1.294,2046
10,0.3931,0.6016,-0.3042,1.9836,0.3895,1.3733,2044
10,0.4343,0.6221,-0.2996,2.1249,0.412,1.4636,2043
10,0.4666,0.6199,-0.3669,2.2349,0.2284,1.549,2049
10,0.5352,0.6228,-0.4893,2.3344,-0.0819,1.5827,2039
10,0.5444,0.5737,-0.5564,2.4153,-0.2274,1.5432,2067
10,0.4507,0.5674,-0.5491,2.378,-0.1962,1.4423,2056
10,0.5256,0.6104,-0.5337,2.5171,-0.1378,1.6394,2061
10,0.5281,0.6492,-0.5059,2.6669,0.1517,1.8743,2100
10,0.5686,0.7146,-0.4763,2.7922,0.4401,1.9835,2077
10,0.5872,0.7786,-0.594,2.9199,0.4545,2.1503,2006
10,0.7327,0.7896,-0.6738,2.8517,0.2602,2.2703,2084
10,0.8867,0.7717,-0.7024,2.9492,-0.0419,2.2498,2006
10,0.8818,0.6924,-0.6973,2.9167,-0.2935,2.2521,2125
10,0.7678,0.5527,-0.6396,3.1885,-0.6952,2.1094,2018
10,0.8845,0.5876,-0.7722,3.7949,-1.2415,2.5922,2036
10,0.9167,0.6968,-0.8042,3.4133,-0.9843,2.8942,2148
10,0.7429,0.7227,-0.7749,2.9484,-0.4056,3.2112,2078
10,0.3291,0.3613,-0.5586,3.0767,-0.0622,3.0079,2000
10,0.5425,0.0706,-0.3269,3.2376,-0.1393,3.0445,2044
10,0.6924,-0.0508,-0.6387,4.202,-0.3334,3.1871,2203
10,0.8733,0.2742,-1.146,4.3634,-0.7002,3.2395,2087
10,0.9517,0.031,-1.1699,4.3634,-0.5541,3.4154,2241
10,0.6863,-0.085,-0.9443,4.3634,-0.634,3.6451,1849
10,0.5872,-0.3203,-0.5247,4.3634,-0.6255,3.57,1958
10,0.448,-0.6943,-0.512,4.3634,-0.2994,3.548,2033
10,0.71,-0.2656,-0.5098,4.3634,-0.5094,3.2433,1732
10,0.4353,-0.4832,-0.7,4.3634,-0.3614,2.7105,2084
10,0.7925,-0.4175,-0.2771,4.0229,0.0401,2.3494,2004
10,0.7183,-0.2588,-0.3457,3.2112,-0.0659,1.5846,1848
10,0.8723,-0.2141,-0.323,2.3678,-0.1088,0.8351,1829
10,0.3872,-0.1445,-0.7107,1.7124,-0.1795,-0.1622,1967
10,0.7744,-0.1514,-0.6646,0.9333,0.0065,-0.416,2058
10,0.4849,-0.1284,-1.0161,0.7336,-0.2168,-0.9809,2126
10,0.8291,-0.207,-0.9277,0.1746,-0.091,-1.0592,2075
10,0.7151,-0.3335,-1.042,-0.1758,-0.0763,-1.3339,2187
10,0.9619,-0.3977,-1.0723,-0.3609,-0.1541,-1.1966,2091
10,0.8938,-0.3145,-1.0234,-0.4661,-0.1546,-0.8989,2071
10,0.7649,-0.28,-1.1042,-0.3986,-0.0047,-0.6947,2081
10,0.7651,-0.3015,-1.1819,-0.1384,0.1441,-0.5713,2051
10,0.8413,-0.3389,-1.1736,0.1678,0.1408,-0.5305,2069
10,0.7891,-0.3625,-1.2083,0.5022,0.1092,-0.4838,2173
10,0.7502,-0.373,-1.1873,0.7371,0.2288,-0.5125,2087
10,0.8069,-0.3679,-1.1401,0.8564,0.3386,-0.6763,2083
10,0.9014,-0.3289,-1.1086,0.9236,0.3208,-0.7636,1963
10,0.8586,-0.2439,-0.9832,1.0216,0.2449,-0.8204,2046
10,0.7473,-0.1216,-0.9702,1.0873,0.426,-0.9465,1990
10,0.7695,-0.0583,-0.9341,1.1926,0.6954,-1.0681,2000
10,0.8398,-0.0293,-0.8943,1.2183,0.8819,-1.097,2012
10,0.8948,0.0244,-0.8032,1.1853,1.0499,-1.0131,2044
10,0.9077,0.0396,-0.8176,1.0654,0.9838,-0.8545,2057
10,0.9595,0.0825,-0.7949,0.9617,0.997,-0.6558,2060
10,0.8074,0.1494,-0.7693,0.8799,1.0504,-0.5771,2037
10,0.7715,0.1538,-0.7786,0.8076,1.1021,-0.5643,2070
10,0.7385,0.1785,-0.752,0.7203,1.2157,-0.5837,2086
10,0.6609,0.145,-0.7351,0.66,1.3106,-0.6023,2078
10,0.6355,0.2063,-0.6509,0.6047,1.3913,-0.6622,2058
10,0.5586,0.1277,-0.7581,0.6791,1.3832,-0.644,2051
10,0.5176,0.0474,-0.6912,0.6841,1.2608,-0.7453,2021
10,0.4966,0.0264,-0.762,0.6271,1.1296,-0.7739,2011
10,0.407,-0.0557,-0.7883,0.5766,1.0435,-0.7882,2024
10,0.4099,-0.1287,-0.7417,0.3914,0.9275,-0.7934,2107
10,0.3994,-0.1587,-0.7498,0.1582,0.7954,-0.7549,2016
10,0.3672,-0.1475,-0.7739,0.0185,0.6526,-0.6871,2059
10,0.3474,-0.1292,-0.7681,-0.1515,0.5577,-0.5947,2083
10,0.3499,-0.0752,-0.7661,-0.2705,0.4176,-0.5124,2064
10,0.3945,-0.0725,-0.7629,-0.3852,0.3549,-0.4715,2051
10,0.4395,-0.0771,-0.7515,-0.5027,0.157,-0.4806,2050
10,0.4736,-0.0891,-0.843,-0.5653,-0.0288,-0.5393,2101
10,0.4775,-0.1084,-0.8254,-0.5624,-0.1759,-0.6509,2056
10,0.5732,-0.0989,-0.771,-0.5553,-0.2618,-0.7822,2054
10,0.4905,0.0576,-0.9351,-0.4034,-0.3557,-0.8529,2038
10,0.3555,0.0115,-0.7627,0.141,-0.3364,-1.2247,2105
10,0.4004,-0.0479,-0.0652,-0.4962,-1.04,-2.0683,2039
10,0.5793,-0.0073,0.1501,-2.1579,-1.1789,-2.9051,2058
10,0.5481,0.137,-0.0205,-3.5284,-0.8072,-3.4894,2052
10,0.7727,0.1094,-0.5681,-3.8348,-1.3122,-3.8197,2047
10,1.3496,0.0645,-1.0005,-3.403,-2.066,-3.705,2061
10,1.4163,0.0471,-1.1504,-3.0027,-2.8758,-2.9405,2061
10,1.1201,0.1401,-1.335,-2.467,-2.8345,-2.3997,2083
10,0.5723,0.262,-1.2292,-2.1013,-1.909,-2.2447,2065
10,0.6694,0.1843,-1.3435,-1.5109,-1.1227,-1.8568,2059
10,1.3252,-0.0613,-1.4209,-0.9252,-0.8702,-1.1114,2020
10,1.5938,-0.009,-1.2097,-0.5845,-1.6599,-0.0193,2022
10,1.1946,0.4702,-1.1968,-0.6975,-2.1739,0.3908,2043
10,1.1069,0.4873,-0.9453,-0.9341,-2.0959,0.6086,2054
10,1.1975,0.4285,-0.5127,-1.5301,-1.7913,0.7039,2045
10,1.2517,0.5876,-0.2224,-2.0647,-1.4685,0.6976,2034
10,1.2095,0.7695,-0.1108,-2.3911,-1.2621,0.7253,2061
10,1.0754,0.759,-0.1948,-2.6697,-1.2651,0.697,2066
10,1.0403,0.783,-0.2747,-2.9474,-1.2525,0.541,2023
10,0.9224,0.7976,-0.3152,-2.9906,-0.8734,0.2013,2014
10,0.9236,0.832,-0.469,-2.9027,-0.5007,0.0376,2032
10,0.9702,0.8821,-0.5347,-2.6552,-0.3255,0.0617,2052
10,0.9102,0.9277,-0.6301,-2.5249,-0.1582,0.1977,2044
10,0.7129,0.8979,-0.7336,-2.2174,-0.2719,0.2819,2023
10,0.7549,0.8499,-0.9658,-1.884,-0.0738,0.5188,2042
11,0.7244,0.6931,-1.1003,-1.428,0.286,1.1175,2000
11,0.6558,0.416,-0.6064,-1.5604,0.9392,1.8074,2027
11,0.5183,0.3345,-0.8059,-1.4588,1.3091,2.4128,2048
11,0.6782,0.1838,-0.5715,-1.4611,1.3922,3.1008,2049
11,0.6616,0.0999,-0.3767,-1.7598,1.629,3.4031,2018
11,0.6726,0.0725,-0.4558,-2.0032,1.7262,3.5271,2045
11,0.7417,0.1409,-0.603,-2.0406,1.6183,3.6463,2031
11,0.8342,0.1382,-0.5427,-2.0594,1.3785,3.8125,2039
11,0.9292,0.0881,-0.4329,-2.0539,1.2868,3.9539,2038
11,0.9529,0.0688,-0.2766,-1.9785,1.2801,3.9933,2032
11,0.8813,0.0781,-0.252,-1.9049,1.4565,3.8407,2019
11,0.7378,0.1169,-0.2791,-1.6442,1.6203,3.5431,2048
11,0.6814,0.0818,-0.2944,-1.3954,1.5482,3.1574,2028
11,0.6809,-0.0046,-0.2607,-1.1311,1.332,2.7625,2084
11,0.6877,-0.1501,-0.1934,-0.9275,1.1553,2.3494,2063
11,0.6404,-0.3193,-0.1609,-0.8116,1.0236,1.9835,2055
11,0.5535,-0.4592,-0.1675,-0.771,0.9558,1.7221,2050
11,0.4932,-0.583,-0.0881,-0.6947,0.8931,1.5603,2048
11,0.5046,-0.8569,-0.0122,-0.808,0.8355,1.4949,2069
11,0.7676,-1.0435,-0.0532,-0.7445,0.7228,1.758,2051
11,1.0193,-1.2373,0.1265,-1.0336,0.6032,2.4555,2022
11,1.1692,-1.252,0.1406,-1.0632,1.0959,3.0371,2029
11,1.1155,-1.012,0.1189,-1.1837,1.4753,3.4986,2036
11,0.9363,-0.7144,-0.1843,-0.8243,1.5444,3.4184,2061
11,0.9253,-0.5647,-0.3411,-0.2735,1.1632,3.1523,2051
11,0.9358,-0.6226,-0.3545,0.0342,1.026,2.841,2078
11,0.8379,-0.6106,-0.468,0.4702,0.9327,2.5201,2066
11,0.7195,-0.5115,-0.5054,0.9503,0.5741,2.024,2058
11,0.8179,-0.5015,-0.4985,1.3186,0.1962,1.6326,2075
11,0.8303,-0.4824,-0.5264,1.6936,0.028,1.3994,2042
11,0.8044,-0.425,-0.5725,2.12,0.082,1.1192,2044
11,0.731,-0.3699,-0.6077,2.4884,0.2731,0.7778,2037
11,0.6626,-0.2825,-0.6958,2.9385,0.1758,0.3749,2059
11,0.646,-0.2085,-0.6772,3.2171,-0.0723,-0.0032,2054
11,0.6343,-0.1597,-0.6504,3.3705,-0.1531,-0.3641,2062
11,0.6541,-0.0771,-0.6106,3.5909,-0.0635,-0.6592,2049
11,0.7324,-0.0359,-0.6096,3.7628,-0.0719,-0.8134,2045
11,0.6907,-0.0193,-0.6162,3.9419,-0.2426,-0.8737,2037
11,0.7546,-0.0842,-0.5212,4.0321,-0.5592,-0.9413,2023
11,0.8015,-0.1929,-0.4751,4.0106,-0.7616,-1.0186,2026
11,0.8733,-0.2764,-0.4771,3.9295,-1.0106,-1.174,2019
11,0.9446,-0.3066,-0.521,3.7444,-1.3051,-1.3195,2031
11,1.0522,-0.2295,-0.6316,3.6229,-1.5524,-1.4442,2050
11,1.2075,-0.1121,-0.6648,3.3654,-1.8098,-1.3423,2026
11,1.3477,-0.0085,-0.6975,3.2509,-2.1076,-1.1391,2037
11,1.4448,0.033,-0.7339,3.1903,-2.1848,-0.9329,2067
11,1.5286,0.0415,-0.7476,3.1119,-2.0948,-0.7396,2023
11,1.491,0.0796,-0.7896,3.0728,-1.9141,-0.6536,2053
11,1.4912,0.1504,-0.7822,3.1098,-1.7472,-0.6576,2059
11,1.5554,0.2012,-0.7375,3.1148,-1.536,-0.5918,2031
11,1.6523,0.2114,-0.6699,3.093,-1.4977,-0.398,2060
11,1.6785,0.1677,-0.6028,3.1063,-1.5743,-0.1884,2075
11,1.718,0.0413,-0.5542,3.0634,-1.4523,0.0,2027
11,1.6787,-0.0635,-0.5955,2.9918,-1.273,0.1053,2021
11,1.5918,-0.1255,-0.6655,2.7959,-1.221,0.1514,2046
11,1.4956,-0.0928,-0.802,2.7457,-1.3328,0.0182,2051
11,1.3887,0.0312,-0.8699,2.8375,-1.4391,-0.1003,2046
11,1.2405,0.1235,-0.8037,2.9088,-1.4842,-0.1763,2040
11,1.196,0.1465,-0.7498,2.997,-1.4673,-0.2401,2054
11,1.1245,0.104,-0.7224,3.1413,-1.4215,-0.257,2043
11,1.0813,0.0156,-0.7297,3.2951,-1.4131,-0.322,2037
11,1.0427,-0.0781,-0.7148,3.3809,-1.398,-0.4192,2043
11,0.9875,-0.0989,-0.7339,3.454,-1.3524,-0.6209,2027
11,0.9153,-0.0686,-0.7019,3.6407,-1.1884,-0.9043,2059
11,0.7456,-0.0237,-0.6394,3.7182,-0.9786,-1.2605,2045
11,0.6199,0.0903,-0.5889,3.786,-0.751,-1.5095,2043
11,0.5779,0.1482,-0.5095,3.801,-0.5083,-1.6167,2037
11,0.5737,0.135,-0.5337,3.8261,-0.1646,-1.6102,2045
11,0.5601,-0.0139,-0.551,3.8077,0.1985,-1.6206,2028
11,0.5625,-0.1301,-0.5166,3.7585,0.4733,-1.7033,2051
11,0.5667,-0.0771,-0.4094,3.5774,0.8289,-1.7845,2034
11,0.5044,0.1223,-0.415,3.4039,1.1431,-1.8097,2049
11,0.4395,0.3884,-0.4836,3.2477,1.3727,-1.8044,2045
11,0.4475,0.53,-0.4741,2.9449,1.4743,-1.6627,2062
11,0.356,0.5576,-0.3364,2.7902,1.6789,-1.5077,2043
11,0.3491,0.5325,-0.375,2.4834,1.7401,-1.3952,2063
11,0.418,0.4531,-0.1582,1.9595,1.621,-1.1686,2044
11,0.3301,0.4851,-0.2791,1.6616,1.541,-0.9433,2054
11,0.3811,0.4717,-0.3821,1.286,1.3693,-0.6478,2042
11,0.4028,0.4521,-0.4492,1.1717,0.9328,-0.395,2035
11,0.4368,0.3337,-0.3599,0.6131,0.4854,-0.1401,2050
11,0.5208,0.1272,-0.2634,0.069,0.3008,0.0364,2051
11,0.6511,0.0222,-0.3037,-0.3888,0.0173,0.337,2041
11,0.7043,0.1021,-0.4153,-0.9325,-0.347,0.526,2038
11,0.804,0.0654,-0.4292,-1.3476,-0.7023,0.543,2045
11,0.9209,0.0378,-0.4536,-1.6994,-1.0244,0.5757,2040
11,0.884,0.103,-0.4519,-2.0025,-1.368,0.6437,2033
11,0.9014,0.1123,-0.5803,-2.0044,-1.4665,0.6307,2039
11,1.0227,0.0515,-0.5872,-1.9626,-1.4615,0.6586,2055
11,1.1108,-0.0056,-0.582,-1.8017,-1.3958,0.6477,2049
11,1.1316,-0.0452,-0.5596,-1.5712,-1.3374,0.6076,2047
11,1.1179,-0.1211,-0.5217,-1.3327,-1.2406,0.4361,2050
11,1.1001,-0.1819,-0.5508,-1.0954,-1.195,0.2333,2039
11,1.1687,-0.2168,-0.623,-0.8771,-1.1665,0.0911,2045
11,1.2185,-0.2349,-0.6775,-0.7052,-1.0399,-0.0406,2034
11,1.2805,-0.2136,-0.7151,-0.5697,-0.9788,-0.1321,2036
11,1.2864,-0.1494,-0.7266,-0.4722,-1.1011,-0.1755,2041
11,1.3027,-0.0491,-0.7546,-0.3787,-1.3595,-0.1314,2052
11,1.2556,0.1047,-0.8218,-0.2675,-1.6414,-0.0969,2062
11,1.2427,0.175,-0.7947,-0.1936,-1.8923,0.0257,2044
11,1.2117,0.2349,-0.8989,-0.0395,-2.0803,0.0538,2038
11,1.0977,0.248,-0.9243,0.1581,-2.2521,0.0875,2052
11,0.9932,0.1919,-0.8445,0.1687,-2.357,-0.0563,2047
11,0.9387,0.1553,-0.7239,-0.0032,-2.4288,-0.1248,2040
11,0.8306,0.1277,-0.6553,-0.1425,-2.3306,-0.1673,2047
12,0.7605,0.1018,-0.6333,-0.198,-2.2084,-0.2159,2043
12,0.7568,0.0684,-0.6064,-0.3852,-2.139,-0.1987,2039
12,0.769,0.0608,-0.5867,-0.6986,-2.1025,-0.1977,2054
12,0.7336,0.0793,-0.6458,-0.9638,-1.9967,-0.2474,2048
12,0.542,-0.0325,-0.7256,-1.0769,-1.7542,-0.388,2046
12,0.7546,0.0242,-0.7468,-1.4864,-1.8695,-0.3334,2043
12,0.8872,0.1648,-0.7158,-1.8729,-1.9594,-0.1401,2052
12,0.8923,0.2708,-0.7307,-2.2744,-2.0615,0.0056,2038
12,1.0217,0.4424,-0.8342,-2.4759,-2.2334,0.3056,2062
12,0.894,0.522,-0.8909,-2.4678,-2.3529,0.5091,2061
12,0.825,0.5559,-0.9519,-2.4131,-2.5179,0.6534,2072
12,0.8079,0.5305,-0.9832,-2.2987,-2.6131,0.8171,2056
12,0.8462,0.4495,-1.0149,-2.1406,-2.6432,1.0708,2027
12,0.6904,0.3718,-0.9885,-2.2016,-2.5005,1.0852,2035
12,0.7097,0.3362,-0.9695,-2.1848,-2.2636,1.1946,2015
12,0.7554,0.26,-0.8931,-2.2352,-2.0048,1.2399,2046
12,0.7034,0.1685,-0.8516,-2.3041,-1.7662,1.2053,2093
12,0.6821,0.1028,-0.7634,-2.3662,-1.5331,1.1259,2047
12,0.7009,0.0483,-0.675,-2.3894,-1.4021,1.0837,2025
12,0.6958,-0.0061,-0.6252,-2.4005,-1.4344,1.1726,2028
12,0.7024,-0.0574,-0.6465,-2.3607,-1.6255,1.276,2024
12,0.7009,-0.0845,-0.6941,-2.3935,-1.9414,1.479,2039
12,0.6697,-0.1003,-0.6975,-2.4713,-1.8089,1.5841,2030
12,0.6216,-0.115,-0.7124,-2.4374,-1.6088,1.6002,2027
12,0.5269,-0.1343,-0.7229,-2.4203,-1.4712,1.5849,2046
12,0.5173,-0.1511,-0.7476,-2.4105,-1.3592,1.5454,2046
12,0.5349,-0.1394,-0.7437,-2.3225,-1.2456,1.4336,2037
12,0.5415,-0.1577,-0.7339,-2.2494,-1.0797,1.3605,2059
12,0.5386,-0.1487,-0.7185,-2.1676,-0.9507,1.3198,2048
12,0.5383,-0.1978,-0.687,-2.1205,-0.8572,1.2115,2037
12,0.5491,-0.1982,-0.6719,-2.0598,-0.8273,1.0664,2041
12,0.5308,-0.1995,-0.6594,-2.0303,-0.7729,0.9686,2060
12,0.5845,-0.2048,-0.6367,-2.0279,-0.7818,0.8123,2056
12,0.5684,-0.1843,-0.6326,-2.0032,-0.773,0.6986,2045
12,0.5652,-0.1494,-0.6484,-1.947,-0.8055,0.5998,2054
12,0.5388,-0.1113,-0.6609,-1.8996,-0.8034,0.5621,2054
12,0.5454,-0.083,-0.6321,-1.8128,-0.7047,0.5457,2058
12,0.5447,-0.0657,-0.6321,-1.758,-0.5565,0.5782,2063
12,0.5693,-0.054,-0.6743,-1.7221,-0.4003,0.6115,2044
12,0.5942,-0.041,-0.7332,-1.706,-0.181,0.6335,2042
12,0.637,-0.0359,-0.793,-1.762,0.0308,0.6024,2046
12,0.6785,-0.0349,-0.8425,-1.8622,0.1663,0.5111,2046
12,0.7461,-0.0195,-0.8501,-2.0909,0.2563,0.4144,2054
12,0.8091,0.0173,-0.9038,-2.318,0.3449,0.1875,2042
12,0.8569,0.1147,-0.949,-2.5557,0.4131,-0.015,2062
12,0.9216,0.2371,-1.0115,-2.7963,0.4366,-0.2493,2076
12,0.9763,0.4141,-1.0427,-3.0437,0.3891,-0.3894,2067
12,1.3359,0.6768,-1.1235,-3.004,0.2843,-0.3834,2030
12,1.3867,0.9226,-1.1785,-2.8893,0.0032,-0.5888,2026
12,1.2568,1.0071,-1.1978,-2.5498,-0.838,-1.1437,2029
12,1.0874,0.7556,-1.0425,-2.2795,-1.4435,-1.3856,2027
12,0.2695,0.1765,-0.8162,-2.6534,-1.1477,-1.8353,2010
12,0.1677,0.3145,-0.8271,-2.8718,-1.2171,-2.0034,2016
12,0.6152,0.613,-0.6819,-3.477,0.2454,-1.837,2027
12,0.6494,0.8823,-0.6716,-3.4296,1.062,-1.853,2035
12,0.5837,1.0103,-0.5146,-3.3825,1.273,-1.8567,2050
12,0.5688,1.0503,-0.4189,-3.1166,1.7401,-1.7626,2049
12,0.5525,0.9521,-0.3052,-2.6,1.9923,-1.7326,2044
12,0.5745,0.8533,-0.2734,-2.6302,1.5584,-1.8575,2047
12,0.7092,0.873,-0.3374,-3.1428,0.9979,-2.0393,2039
12,0.7896,0.9312,-0.437,-3.3872,0.7694,-2.1834,2055
12,0.7529,0.9602,-0.4434,-3.2951,0.7064,-2.2395,2038
12,0.6934,0.9922,-0.4258,-3.1231,0.6316,-2.3316,2040
12,0.6174,1.0564,-0.4202,-2.8999,0.4983,-2.2426,2043
12,0.4724,1.0449,-0.4333,-2.7448,0.3101,-2.1117,2042
12,0.3811,1.0388,-0.4695,-2.6004,0.0798,-1.98,2046
12,0.2913,1.0259,-0.5061,-2.391,-0.0286,-1.8202,2044
12,0.2065,1.001,-0.4775,-2.2887,-0.0053,-1.7305,2044
12,0.1392,0.9988,-0.488,-2.1037,0.0483,-1.5874,2051
12,0.0562,0.9531,-0.427,-1.9152,0.1623,-1.4276,2045
12,0.0264,0.8804,-0.3857,-1.7301,0.2157,-1.2749,1989
12,-0.0068,0.8337,-0.3137,-1.5178,0.2799,-1.1105,2059
12,-0.0237,0.781,-0.2461,-1.3149,0.2168,-0.9352,2060
12,0.019,0.7,-0.1846,-1.079,0.2176,-0.7861,2049
12,0.0486,0.6499,-0.1448,-0.8778,0.2707,-0.656,2052
12,0.0508,0.6272,-0.1426,-0.752,0.3342,-0.593,2050
12,0.0933,0.6118,-0.1438,-0.5425,0.3405,-0.5492,2046
12,0.115,0.5916,-0.1628,-0.3951,0.3328,-0.5078,2048
12,0.1211,0.5859,-0.2007,-0.2602,0.3135,-0.4647,2048
12,0.1326,0.592,-0.2461,-0.1385,0.286,-0.4221,2045
12,0.1484,0.5947,-0.2771,-0.0483,0.2147,-0.3855,2049
12,0.1775,0.6001,-0.3142,0.0533,0.1067,-0.3356,2044
12,0.1965,0.6121,-0.3455,0.1309,0.0224,-0.2872,2032
12,0.23,0.6304,-0.3601,0.226,-0.0903,-0.2402,2060
12,0.2417,0.6416,-0.4062,0.304,-0.2171,-0.2092,2049
12,0.2466,0.6602,-0.4353,0.3864,-0.3284,-0.1962,2046
12,0.2444,0.6895,-0.4607,0.4797,-0.4036,-0.2012,2044
12,0.2554,0.6995,-0.4802,0.5737,-0.45,-0.2105,2045
12,0.2549,0.7024,-0.4888,0.6617,-0.4715,-0.2238,2042
12,0.2678,0.6995,-0.5066,0.7462,-0.4674,-0.2476,2042
12,0.2693,0.7051,-0.4978,0.81,-0.4237,-0.2677,2044
12,0.2766,0.7051,-0.4812,0.862,-0.3598,-0.304,2045
12,0.2737,0.7307,-0.4976,0.8922,-0.2731,-0.3502,2046
12,0.2791,0.7449,-0.4919,0.9158,-0.1655,-0.4044,2041
12,0.2842,0.7886,-0.5073,0.9003,-0.0228,-0.4888,2042
12,0.2778,0.8125,-0.5083,0.8661,0.1645,-0.5586,2046
12,0.282,0.8486,-0.5217,0.8345,0.3452,-0.6321,2046
12,0.2998,0.8687,-0.5022,0.7986,0.5578,-0.6791,2043
12,0.3123,0.9116,-0.4688,0.7843,0.7642,-0.6991,2045
12,0.7939,0.8835,0.606,-1.2284,2.4956,-0.4362,2118
13,0.0898,1.1536,-0.6992,1.1336,1.2663,-0.8605,2012
13,0.9382,0.9377,0.3589,0.4595,1.6167,-0.2276,2038
13,1.1221,0.8665,1.8767,-4.3635,3.0608,0.8658,2236
13,-0.0796,1.0786,0.1106,-3.356,2.0984,0.4774,1995
13,0.1777,1.2209,0.1038,-1.0677,1.0716,0.4777,2014
13,0.6794,1.0249,0.3333,-0.9692,0.2883,0.5723,1907
13,0.877,0.8879,0.7495,-0.8552,0.1835,0.4196,1816
13,0.4722,1.1487,0.3669,0.0382,-0.1465,0.0148,1948
13,0.2827,1.261,0.3489,0.7661,0.092,-0.1959,2057
13,0.1167,1.2708,0.2532,1.274,0.6385,-0.3157,2081
13,0.0347,1.2393,0.209,1.9803,1.0274,-0.1589,2098
13,0.1121,1.0405,0.1604,2.6069,0.7785,0.5204,2099
13,0.2476,0.8557,0.1501,2.8432,0.4296,1.1264,2100
13,0.2061,0.7812,0.0645,2.6822,0.2828,1.3651,2063
13,0.1277,0.8557,-0.0398,2.4209,0.278,1.5093,2052
13,0.0691,0.9031,-0.1113,2.0076,0.1188,1.4412,2042
13,0.0747,0.9299,-0.1296,1.5663,-0.0526,1.4375,2069
13,0.1228,0.8708,-0.1909,1.2621,-0.2546,1.393,2050
13,0.2065,0.8298,-0.251,0.9672,-0.4024,1.43,2061
13,0.1963,0.7671,-0.3018,0.7775,-0.5791,1.3499,2048
13,0.2136,0.7212,-0.2417,0.548,-0.8075,1.2127,2047
13,0.2759,0.6643,-0.2087,0.2936,-0.9733,1.1933,2051
13,0.3394,0.6143,-0.189,0.0987,-1.1404,1.1849,2048
13,0.3538,0.595,-0.1982,0.0198,-1.4107,1.0921,2046
13,0.3696,0.5962,-0.2012,-0.0294,-1.6372,1.0347,2049
13,0.4048,0.6116,-0.2109,-0.0073,-1.8005,1.0326,2051
13,0.3252,0.5833,-0.2058,0.0707,-1.8864,0.9424,2045
13,0.3579,0.5515,-0.21,0.1651,-1.9333,0.9662,2040
13,0.3242,0.5369,-0.2124,0.3551,-1.9238,0.9918,2043
13,0.3152,0.4729,-0.2043,0.4815,-1.9193,0.9704,2060
13,0.3088,0.4153,-0.1943,0.6056,-1.85,0.8877,2037
13,0.3015,0.3855,-0.1758,0.6561,-1.7338,0.8449,2042
13,0.2607,0.345,-0.2019,0.6793,-1.5824,0.7502,2041
13,0.2588,0.3135,-0.2144,0.6606,-1.4565,0.675,2046
13,0.2634,0.291,-0.2646,0.6596,-1.2676,0.6364,2045
13,0.2214,0.2805,-0.2996,0.6279,-1.1005,0.4863,2046
13,0.1802,0.2576,-0.312,0.5117,-0.9748,0.3109,2048
13,0.1406,0.2476,-0.3354,0.3959,-0.8147,0.1559,2045
13,0.1475,0.2319,-0.3564,0.2759,-0.6351,0.0322,2046
13,0.1951,0.2388,-0.3835,0.1459,-0.5325,-0.0826,2042
13,0.2383,0.2446,-0.415,0.0796,-0.461,-0.1956,2044
13,0.2686,0.2659,-0.4321,0.0494,-0.3988,-0.2647,2040
13,0.2952,0.2695,-0.4426,-0.0241,-0.361,-0.3663,2042
13,0.3159,0.2847,-0.4563,-0.11,-0.3818,-0.4516,2041
13,0.3403,0.2854,-0.4614,-0.1731,-0.432,-0.5421,2044
13,0.3577,0.2876,-0.4695,-0.2361,-0.4874,-0.6287,2045
13,0.3606,0.3057,-0.4646,-0.2943,-0.5301,-0.7031,2047
13,0.375,0.325,-0.4668,-0.3707,-0.5537,-0.7722,2043
13,0.4016,0.3716,-0.4761,-0.4927,-0.5492,-0.836,2046
13,0.4514,0.4539,-0.5151,-0.6392,-0.5357,-0.8714,2045
13,0.5134,0.5637,-0.5525,-0.8054,-0.5343,-0.9415,2044
13,0.575,0.7056,-0.5662,-0.9752,-0.6052,-1.025,2042
13,0.6079,0.8113,-0.5593,-1.136,-0.7476,-1.0642,2053
13,0.7041,1.1267,-0.5142,-1.2552,-0.9601,-1.1114,2051
13,0.6833,1.2849,-0.5908,-0.977,-1.201,-1.1294,2051
13,0.5569,1.3586,-0.5894,-0.6588,-1.5681,-1.2978,2044
13,0.7898,1.4619,-0.4788,-0.6058,-1.7929,-1.0769,2038
13,0.8142,1.7656,-0.4009,-0.5149,-1.8018,-1.1515,2044
13,0.821,1.7307,-0.1182,-1.03,-1.509,-1.0867,2073
13,0.7148,1.9932,-0.2463,0.0189,-1.0461,-1.2175,2039
13,0.5967,1.4626,-0.156,-0.081,-1.0745,-1.2838,2008
13,0.4341,1.4614,-0.2717,0.0956,-1.3956,-0.9987,2031
13,0.4919,1.3879,-0.2253,0.4721,-1.3002,-0.5994,2032
13,0.3145,1.269,-0.1812,0.3493,-0.9565,-0.4147,2035
13,0.2478,1.2102,-0.1682,0.8075,-0.7024,-0.1708,2046
13,0.1597,1.0771,-0.1614,0.7435,-0.4627,0.0177,2054
13,0.0662,0.9163,-0.1541,0.7018,-0.2219,0.1662,2041
13,0.1238,0.7688,-0.0811,-0.8775,0.5063,0.0065,2066
13,0.2529,0.0803,0.0068,-1.816,0.9321,0.8488,2038
13,0.0344,0.9268,-0.5835,-1.9784,1.2278,0.6,2070
13,0.3767,1.9502,-0.3481,-0.6123,1.8281,0.389,2072
13,0.0012,1.2373,-0.3623,-0.1614,1.7821,0.5722,2062
13,-0.0374,0.7339,-0.3887,0.1443,1.6362,0.3597,2060
13,0.0803,0.5984,-0.3604,-0.0941,1.645,0.3762,2055
13,0.1399,0.6394,-0.4639,-0.3065,1.7104,0.2758,2037
13,0.1782,0.6975,-0.5125,-0.2599,1.708,0.2188,2053
13,0.2395,0.689,-0.5205,-0.1477,1.7062,0.2776,2040
13,0.3083,0.6426,-0.5291,-0.1116,1.6796,0.3156,2042
13,0.3618,0.6431,-0.5383,-0.0936,1.5792,0.3282,2046
13,0.3958,0.6445,-0.5378,0.0513,1.3292,0.3498,2042
13,0.418,0.6118,-0.5398,0.2029,1.0055,0.4079,2043
13,0.4214,0.5767,-0.5247,0.3811,0.6909,0.4509,2042
13,0.415,0.5271,-0.4839,0.5086,0.4285,0.4967,2043
13,0.3748,0.4822,-0.449,0.6032,0.2372,0.5429,2043
13,0.3225,0.4348,-0.4048,0.6677,0.1249,0.5833,2045
13,0.2524,0.3923,-0.373,0.6758,0.1354,0.6063,2044
13,0.1975,0.3655,-0.3367,0.6425,0.2609,0.5984,2044
13,0.1382,0.3499,-0.3347,0.5516,0.4795,0.5594,2045
13,0.1047,0.3521,-0.3569,0.4701,0.7031,0.4928,2043
13,0.0825,0.3672,-0.373,0.3932,0.915,0.4414,2040
13,0.0901,0.4031,-0.3948,0.3422,1.0705,0.379,2045
13,0.1101,0.4351,-0.4167,0.2794,1.1911,0.3199,2044
13,0.1365,0.4722,-0.4407,0.2507,1.2456,0.2581,2046
13,0.1455,0.5129,-0.4644,0.2143,1.2768,0.2013,2044
13,0.1611,0.5466,-0.4827,0.193,1.2557,0.151,2039
13,0.1558,0.5688,-0.4998,0.1559,1.2186,0.0858,2044
13,0.1924,0.6233,-0.5154,0.1459,1.1107,0.1064,2044
13,0.1995,0.6462,-0.4995,0.1289,0.9808,0.0637,2045
13,0.1887,0.6765,-0.49,0.1168,0.8131,0.0534,2059
13,0.2019,0.7349,-0.469,0.1188,0.6413,0.0585,2048
13,0.208,0.7427,-0.4385,0.1127,0.4256,0.0473,2047
13,0.219,0.7588,-0.3987,0.0699,0.2131,0.0104,2042
13,0.2432,0.793,-0.3774,0.0136,0.018,-0.0031,2046
13,0.2776,0.8289,-0.3523,-0.0723,-0.1748,-0.0779,2048
13,0.272,0.908,-0.3494,-0.1213,-0.4333,-0.0858,2042
14,0.2578,0.9978,-0.3352,-0.1332,-0.6773,-0.1015,2044
14,0.2471,1.0581,-0.3296,-0.1396,-0.8389,-0.114,2046
14,0.2439,1.0889,-0.3301,-0.1056,-0.9413,-0.1313,2046
14,0.3638,1.0864,-0.2568,-0.1414,-1.0565,-0.0947,2048
14,0.3264,1.0806,-0.1985,-0.0208,-1.0898,-0.1242,2045
14,0.3684,1.0811,-0.1206,-0.08,-1.2106,-0.1317,2044
14,0.3491,1.1138,-0.1147,-0.1377,-1.2869,-0.1172,2043
14,0.4629,1.1899,-0.0828,-0.1806,-1.374,-0.0176,2047
14,0.5381,1.2825,-0.0989,-0.2589,-1.3873,0.0792,2043
14,0.4751,1.3467,-0.124,-0.2806,-1.5886,-0.0533,2040
14,0.4961,1.4338,-0.1938,-0.1261,-1.8744,-0.2103,2043
14,0.4385,1.3513,-0.1548,-0.0021,-1.7358,-0.3056,2043
14,0.4277,1.2029,-0.0796,0.2045,-1.6314,-0.3219,2044
14,0.4204,1.0896,-0.0027,0.346,-1.2936,-0.2717,2042
14,0.2285,0.9695,0.0286,0.6488,-1.073,-0.3947,2041
14,0.1726,0.845,0.1011,0.7668,-0.5244,-0.5328,2041
14,0.1331,0.7234,0.082,0.5971,0.2076,-0.54,2059
14,0.261,0.7441,0.0535,0.4458,0.8088,-0.5023,2049
14,0.343,0.8115,-0.0249,0.3334,1.4279,-0.2879,2056
14,0.3691,0.8523,-0.0835,0.2583,1.8174,-0.0855,2044
14,0.4287,0.865,-0.1255,0.127,1.8916,0.0659,2046
14,0.4526,0.8716,-0.1465,-0.0526,1.5912,0.1767,2050
14,0.4956,0.8838,-0.1677,-0.0895,0.9313,0.2491,2052
14,0.5137,0.8679,-0.157,-0.1068,0.1538,0.3698,2048
14,0.4775,0.814,-0.1533,-0.0514,-0.5461,0.4944,2047
14,0.4292,0.7505,-0.1174,0.0943,-1.0508,0.573,2044
14,0.3926,0.6902,-0.0994,0.2,-1.3908,0.5157,2044
14,0.332,0.6311,-0.1042,0.1892,-1.5083,0.4894,2046
14,0.2539,0.5579,-0.0996,0.0916,-1.4709,0.469,2047
14,0.1985,0.5115,-0.1279,-0.0683,-1.346,0.463,2043
14,0.156,0.4824,-0.1553,-0.2614,-1.1571,0.4694,2046
14,0.1418,0.4521,-0.1777,-0.4133,-0.9626,0.4903,2043
14,0.1592,0.4355,-0.1785,-0.5173,-0.7935,0.4996,2040
14,0.2087,0.415,-0.1885,-0.5686,-0.6687,0.4864,2037
14,0.2607,0.396,-0.1929,-0.5834,-0.5751,0.4974,2044
14,0.3032,0.3801,-0.2058,-0.5643,-0.5373,0.4875,2045
14,0.3406,0.3535,-0.1921,-0.5594,-0.5686,0.4361,2044
14,0.3579,0.3479,-0.2007,-0.571,-0.6389,0.3782,2046
14,0.3584,0.3625,-0.1938,-0.583,-0.7186,0.3153,2044
14,0.3311,0.3779,-0.2134,-0.626,-0.8071,0.2677,2062
14,0.3091,0.3955,-0.2212,-0.6741,-0.8564,0.2091,2044
14,0.2896,0.4241,-0.2371,-0.6897,-0.8634,0.1418,2046
14,0.2612,0.4312,-0.2351,-0.7331,-0.8435,0.073,2044
14,0.251,0.4309,-0.2368,-0.7874,-0.7628,-0.0007,2045
14,0.251,0.4341,-0.2478,-0.8211,-0.6355,-0.0784,2048
14,0.2397,0.4409,-0.2444,-0.8455,-0.4908,-0.1567,2042
14,0.248,0.4458,-0.2493,-0.8487,-0.337,-0.238,2047
14,0.2397,0.4446,-0.252,-0.8487,-0.1888,-0.3137,2045
14,0.2441,0.46,-0.2788,-0.8385,-0.0466,-0.3927,2045
14,0.2502,0.4531,-0.2864,-0.8214,0.0714,-0.4603,2048
14,0.2659,0.4729,-0.2971,-0.8022,0.1491,-0.5098,2043
14,0.2766,0.4795,-0.3015,-0.7705,0.1774,-0.5534,2046
14,0.2952,0.4836,-0.3054,-0.724,0.1603,-0.5795,2045
14,0.3154,0.4915,-0.3184,-0.6833,0.1161,-0.6047,2045
14,0.3406,0.5173,-0.3391,-0.6598,0.0369,-0.6359,2048
14,0.3535,0.5491,-0.3645,-0.64,-0.0523,-0.6791,2046
14,0.3638,0.6018,-0.4036,-0.6138,-0.1497,-0.7237,2043
14,0.3667,0.6541,-0.426,-0.605,-0.2559,-0.7676,2044
14,0.3708,0.7188,-0.4412,-0.6016,-0.3723,-0.7825,2043
14,0.3601,0.7988,-0.4468,-0.5924,-0.4994,-0.8051,2045
14,0.3625,0.8787,-0.4351,-0.5835,-0.6086,-0.8008,2048
14,0.363,0.9702,-0.418,-0.563,-0.7283,-0.8162,2042
14,0.3738,1.0669,-0.4231,-0.5671,-0.8178,-0.8503,2045
14,0.3943,1.1665,-0.4202,-0.5217,-0.8664,-0.8973,2045
14,0.4272,1.2986,-0.4434,-0.4858,-0.8722,-0.9796,2048
14,0.4346,1.407,-0.4697,-0.2766,-0.8488,-1.0656,2045
14,0.3755,1.448,-0.4519,-0.0302,-0.7556,-1.0768,2043
14,0.2974,1.4187,-0.3647,0.126,-0.5536,-1.0228,2043
14,0.2417,1.4673,-0.2654,0.2991,-0.3525,-0.9154,2043
14,0.1501,1.4778,-0.1619,0.4328,-0.0929,-0.7777,2042
14,0.0979,1.438,-0.0852,0.7023,0.1369,-0.6348,2048
14,0.0708,1.3745,0.0215,1.0673,0.4054,-0.5237,2051
14,0.05,1.2969,0.1082,1.423,0.7713,-0.4304,2053
14,0.2007,1.241,0.134,1.6812,1.168,-0.3325,2051
14,0.3069,1.1157,0.1484,1.8434,1.328,-0.367,2047
14,0.4634,1.0337,0.1926,1.7314,1.5298,-0.2061,2050
14,0.376,1.0813,0.1411,1.7178,1.71,-0.102,2040
14,0.2107,0.8972,0.1768,1.5222,1.9209,-0.0851,2035
14,0.092,0.865,0.3054,0.9544,2.3675,-0.1111,2045
14,-0.0083,1.0388,0.2542,0.6521,2.9007,-0.067,2049
14,-0.0093,0.9985,0.2397,0.74,3.3424,0.0055,2047
14,0.1191,0.9019,0.2461,0.717,3.6806,0.1209,2048
14,0.3135,0.9197,0.1897,0.7333,4.0014,0.2172,2044
14,0.4644,0.9719,0.0979,0.9499,4.1164,0.4036,2049
14,0.4653,0.8577,0.0361,1.122,3.9191,0.4982,2044
14,0.4099,0.8948,-0.0325,1.0487,3.6179,0.5902,2054
14,0.3779,0.8586,-0.1411,1.225,3.16,0.6911,2051
14,0.395,0.6975,-0.1147,1.2058,2.5542,0.6652,2049
14,0.3318,0.6633,-0.1421,1.082,2.0594,0.6634,2047
14,0.2649,0.5776,-0.0835,1.0637,1.7447,0.5549,2043
14,0.1907,0.5762,-0.1052,0.8668,1.6249,0.6807,2044
14,0.1487,0.52,-0.1328,0.8263,1.5832,0.7102,2040
14,0.0667,0.4224,-0.1604,0.8066,1.5799,0.7191,2045
14,0.0371,0.4116,-0.231,0.7183,1.5297,0.6944,2041
14,0.1138,0.4297,-0.2195,0.6177,1.4649,0.815,2047
14,0.1267,0.3831,-0.1877,0.5474,1.3452,0.7469,2044
14,0.1213,0.3562,-0.2537,0.4366,1.2006,0.7439,2038
14,0.1233,0.4236,-0.2822,0.3386,0.9854,0.681,2041
14,0.1174,0.4478,-0.3022,0.234,0.7851,0.6273,2045
14,0.1736,0.4653,-0.3184,0.0888,0.5963,0.6454,2043
14,0.2585,0.5146,-0.3394,0.0578,0.347,0.6496,2039
14,0.2178,0.4482,-0.3364,-0.0093,0.0827,0.5787,2042
15,0.1941,0.5151,-0.3604,-0.0587,-0.248,0.547,2038
15,0.1938,0.5198,-0.3638,-0.1173,-0.5221,0.5283,2037
15,0.1057,0.5027,-0.3318,-0.1908,-0.8333,0.4189,2042
15,0.2954,0.7185,-0.4102,-0.057,-0.9736,0.5827,2040
15,0.3318,0.5647,-0.365,-0.1434,-1.1461,0.5498,2048
15,0.271,0.5012,-0.3499,-0.2035,-1.5135,0.506,2043
15,0.2012,0.645,-0.3743,-0.1418,-1.7559,0.5385,2043
15,0.0405,0.7493,-0.4038,-0.01,-1.9094,0.4747,2047
15,0.0193,0.7742,-0.3977,0.0294,-1.9249,0.3954,2049
15,0.0618,0.7642,-0.3726,-0.1397,-1.8518,0.3392,2054
15,0.115,0.8333,-0.3865,-0.1682,-1.6689,0.2113,2041
15,0.116,0.874,-0.3733,-0.2614,-1.4215,0.1025,2044
15,0.0894,0.9924,-0.2114,-0.4964,-0.8256,-0.0393,2052
15,0.1353,0.9602,-0.3757,-0.3373,-0.6893,-0.147,2044
15,0.4807,0.9062,-0.1389,-0.7046,-0.5347,-0.1262,2049
15,0.6023,0.9575,-0.2524,-0.8016,-0.4749,-0.0555,2059
15,0.6685,1.127,-0.1265,-0.6955,-0.4787,-0.0218,2100
15,0.6741,1.2368,-0.0032,-0.7204,-0.2959,-0.0326,2067
15,0.7429,1.0618,0.0461,-1.0496,-0.3613,0.1278,2036
15,0.4392,1.4385,-0.0625,-0.6546,-0.8698,-0.1663,2007
15,0.52,1.3284,-0.0093,-0.8092,-1.1865,-0.0202,2026
15,0.3843,1.3113,0.0059,-0.5936,-1.2444,-0.14,2066
15,0.2119,1.2578,0.0632,-0.4101,-1.0983,-0.2414,1998
15,0.1296,1.1851,0.0984,-0.1437,-0.8167,-0.2168,2012
15,0.1121,0.9939,0.1152,-0.0228,-0.4983,-0.2001,2025
15,0.1055,0.9875,0.145,0.1434,-0.1099,-0.1285,2057
15,0.1897,0.8955,0.1772,0.3152,0.2871,-0.0253,2063
15,0.2356,0.8599,0.1804,0.4842,0.6393,0.0244,2063
15,0.3188,0.8376,0.144,0.6331,0.8532,0.14,2063
15,0.3184,0.8623,0.0925,0.6865,0.9662,0.2277,2063
15,0.2773,0.9646,0.0457,0.7913,0.8865,0.2491,2053
15,0.1978,0.887,-0.0093,0.7674,0.7018,0.2659,2051
15,0.1865,0.8743,-0.0393,0.7347,0.5149,0.2609,2044
15,0.196,0.8179,-0.0244,0.6209,0.3486,0.3298,2048
15,0.2966,0.7622,-0.0388,0.5228,0.1855,0.4508,2048
15,0.3003,0.6538,-0.0542,0.5474,-0.0218,0.4726,2048
15,0.3098,0.6948,-0.1245,0.4501,-0.3048,0.508,2047
15,0.2998,0.6348,-0.1567,0.4894,-0.5647,0.4819,2045
15,0.3623,0.6013,-0.1777,0.4259,-0.9375,0.5288,2051
15,0.3621,0.6191,-0.2439,0.488,-1.2348,0.5593,2042
15,0.3176,0.5762,-0.2432,0.5408,-1.4748,0.5141,2045
15,0.324,0.5369,-0.2529,0.5873,-1.7125,0.5157,2048
15,0.3176,0.4963,-0.2502,0.6781,-1.8664,0.5163,2045
15,0.3018,0.4895,-0.2629,0.7552,-1.9644,0.4754,2041
15,0.2649,0.4495,-0.2625,0.8285,-1.9852,0.4352,2042
15,0.2549,0.4011,-0.2664,0.8554,-1.9166,0.3992,2046
15,0.2419,0.3657,-0.2754,0.7961,-1.7763,0.3472,2047
15,0.2698,0.3391,-0.248,0.6833,-1.5542,0.3041,2040
15,0.2842,0.2996,-0.2798,0.5034,-1.3074,0.2436,2041
15,0.2917,0.302,-0.2937,0.392,-1.0902,0.18,2041
15,0.2957,0.3188,-0.3259,0.3224,-0.9593,0.0735,2043
15,0.2896,0.3242,-0.3442,0.2348,-0.814,-0.038,2042
15,0.3162,0.3345,-0.3674,0.1438,-0.704,-0.129,2041
15,0.3435,0.3599,-0.366,0.0806,-0.5883,-0.227,2043
15,0.345,0.3613,-0.386,0.0007,-0.4755,-0.3195,2050
15,0.3503,0.3679,-0.3762,-0.051,-0.3466,-0.3828,2044
15,0.344,0.3813,-0.3623,-0.1221,-0.2156,-0.479,2043
15,0.3469,0.3887,-0.363,-0.18,-0.0955,-0.5791,2045
15,0.3474,0.4038,-0.3384,-0.198,0.0224,-0.6478,2045
15,0.3926,0.4172,-0.3379,-0.2056,0.0899,-0.6835,2048
15,0.3997,0.4302,-0.3484,-0.1732,0.128,-0.7375,2046
15,0.3938,0.4497,-0.3579,-0.1545,0.1364,-0.8261,2046
15,0.4014,0.48,-0.3552,-0.1962,0.1414,-0.8698,2043
15,0.4873,0.5483,-0.3855,-0.198,0.12,-0.87,2045
15,0.4639,0.584,-0.4436,-0.1812,0.0229,-0.9613,2043
15,0.5273,0.7136,-0.4504,-0.2617,-0.0506,-1.0188,2045
15,0.5989,0.8113,-0.469,-0.375,-0.1132,-0.9403,2045
15,0.5942,0.8552,-0.4724,-0.4063,-0.2541,-0.8393,2048
15,0.6289,0.9624,-0.4355,-0.4667,-0.3589,-0.6886,2089
15,0.5938,0.9946,-0.3682,-0.5721,-0.4844,-0.7638,2033
15,0.5574,1.0696,-0.417,-0.4123,-0.726,-0.7092,2035
15,0.7305,1.1741,-0.2712,-0.3382,-0.8991,-0.5397,2032
15,0.8235,1.5142,-0.2227,-0.0354,-0.7857,-0.3643,2056
15,0.6509,1.563,-0.2815,0.6336,-0.5801,-0.5674,2037
15,0.2971,1.4331,-0.3042,0.537,-0.9399,-0.4582,2022
15,0.2334,1.342,-0.2449,0.5272,-0.9218,-0.283,2017
15,0.3142,1.3154,-0.2058,0.5927,-0.6489,-0.0955,2031
15,0.3774,1.156,-0.1843,0.6283,-0.2675,0.1031,2051
15,0.3796,1.0576,-0.1841,0.7276,-0.0708,0.278,2048
15,0.3943,1.0774,-0.2273,0.8521,-0.0631,0.3868,2045
15,0.3413,1.0491,-0.2383,0.9211,-0.0035,0.3783,2042
15,0.2559,1.0767,-0.2825,1.0017,0.1386,0.3318,2047
15,0.1978,1.0254,-0.3213,0.9909,0.3434,0.2497,2048
15,0.1396,0.9407,-0.3491,0.9369,0.7042,0.1764,2053
15,0.1179,0.9006,-0.3772,0.8825,1.0104,0.1728,2052
15,0.1711,0.8167,-0.4158,0.7493,1.2463,0.2008,2055
15,0.1396,0.8184,-0.4536,0.5885,1.4901,0.1864,2051
15,0.134,0.8574,-0.5068,0.4123,1.7173,0.1752,2051
15,0.1345,0.8491,-0.5398,0.1627,1.8411,0.1499,2047
15,0.3083,0.7634,-0.5386,-0.0621,1.7648,0.3787,2049
15,0.1814,0.825,-0.5852,-0.1348,1.7904,0.3509,2047
15,0.2063,0.7793,-0.5654,-0.182,1.7424,0.4223,2054
15,0.2422,0.7717,-0.5549,-0.1838,1.7231,0.3701,2048
15,0.5024,0.8364,-0.502,-0.1919,1.5094,0.5216,2044
15,0.3928,0.7842,-0.5315,0.0256,1.3244,0.5806,2040
15,0.396,0.8047,-0.3865,-0.0182,1.1142,0.6269,2046
15,0.3137,0.741,-0.3452,0.0819,0.9297,0.5253,2046
15,0.292,0.709,-0.3162,0.1466,0.6931,0.5356,2046
15,0.2549,0.7161,-0.3435,0.3104,0.5192,0.5245,2044
15,0.1943,0.6726,-0.2998,0.4782,0.4187,0.4625,2041
15,0.1653,0.6208,-0.2202,0.4982,0.5127,0.3296,2049
16,0.0994,0.5693,-0.1399,0.512,0.7203,0.2368,2050
16,0.0464,0.5168,-0.1497,0.548,0.9122,0.222,2046
16,0.0334,0.4751,-0.1489,0.6441,0.9645,0.236,2044
16,-0.0088,0.5105,-0.2012,0.6193,1.148,0.1924,2043
16,0.0327,0.49,-0.2424,0.7716,1.1009,0.2023,2042
16,0.0981,0.4983,-0.2417,0.7233,1.2812,0.2064,2043
16,0.1147,0.5015,-0.251,0.6982,1.3236,0.1622,2046
16,0.1599,0.5498,-0.3184,0.7658,1.2537,0.1525,2039
16,0.1377,0.5144,-0.3564,0.7036,1.2179,0.133,2038
16,0.1602,0.5408,-0.3848,0.6275,1.13,0.1084,2039
16,0.1753,0.5698,-0.4233,0.5682,1.0104,0.066,2043
16,0.1387,0.5979,-0.4426,0.4749,0.927,-0.0372,2042
16,0.1877,0.5823,-0.457,0.3647,0.7886,-0.0425,2048
16,0.157,0.595,-0.4375,0.2663,0.705,-0.0828,2043
16,0.2,0.5828,-0.4482,0.165,0.5409,-0.0679,2045
16,0.2114,0.6255,-0.4399,0.0637,0.4271,-0.1225,2044
16,0.2214,0.6299,-0.4084,-0.091,0.3577,-0.1755,2046
16,0.2454,0.6567,-0.3755,-0.2362,0.3442,-0.1886,2046
16,0.3171,0.6917,-0.3403,-0.4317,0.3709,-0.1812,2046
16,0.4392,0.7302,-0.3347,-0.5269,0.3055,-0.1509,2051
16,0.489,0.7715,-0.3069,-0.5661,0.2292,-0.1614,2051
16,0.4666,0.7224,-0.2688,-0.6632,0.0933,-0.2338,2059
16,0.502,0.7827,-0.2153,-0.7917,-0.0325,-0.2855,2084
16,0.5454,0.8464,-0.1616,-0.9337,-0.0237,-0.1653,2148
16,0.759,1.0342,-0.0762,-1.1069,-0.2348,-0.0272,1997
16,0.5391,0.7827,-0.0674,-1.0913,-0.6952,-0.0206,2055
16,0.5552,0.782,-0.0405,-0.9247,-1.4034,-0.0651,2019
16,0.5835,0.8853,-0.0195,-0.8857,-1.821,-0.0437,1999
16,0.5627,0.9387,-0.0093,-0.8424,-2.0337,-0.0635,2013
16,0.5701,1.1028,-0.0688,-0.6477,-2.2443,-0.121,2029
16,0.3794,1.2778,-0.1455,-0.6666,-2.2232,-0.3108,2042
16,0.4138,1.3301,-0.158,-0.6905,-2.1566,-0.3582,2051
16,0.406,1.4097,-0.23,-0.8782,-1.907,-0.4803,2052
16,0.4263,1.407,-0.3555,-0.8379,-1.768,-0.4165,2051
16,0.2285,1.1887,-0.3037,-0.7933,-1.5601,-0.5313,2048
16,0.0813,1.103,-0.1895,-0.5643,-1.3356,-0.552,2071
16,0.0867,1.0156,-0.1294,-0.4382,-1.1489,-0.5098,2038
16,0.092,0.9033,-0.093,-0.3686,-0.8903,-0.4264,2051
16,0.1836,0.8728,-0.1082,-0.334,-0.5698,-0.4032,2056
16,0.2029,0.7996,-0.0989,-0.1727,-0.1627,-0.1446,2054
16,0.2322,0.8027,-0.0364,-0.1734,0.2332,-0.0562,2052
16,0.3101,0.834,-0.0354,-0.1618,0.4141,0.0362,2052
16,0.3135,0.8511,0.0042,-0.0904,0.4943,0.1244,2052
16,0.3726,0.8975,-0.0269,-0.0455,0.4113,0.2203,2060
16,0.3704,0.9338,-0.051,0.0519,0.202,0.2884,2043
16,0.3645,0.9277,-0.0833,0.1445,-0.0743,0.3597,2057
16,0.3352,0.8806,-0.0813,0.228,-0.3245,0.4237,2050
16,0.3315,0.8193,-0.0764,0.3025,-0.5637,0.5488,2047
16,0.3259,0.7852,-0.1023,0.4018,-0.7734,0.6412,2049
16,0.2937,0.7668,-0.136,0.5149,-0.9489,0.6878,2051
16,0.2405,0.7278,-0.1863,0.6099,-1.0373,0.6879,2048
16,0.23,0.7068,-0.2322,0.7435,-1.0808,0.6556,2046
16,0.1963,0.6663,-0.2563,0.8495,-1.0616,0.6245,2045
16,0.1821,0.615,-0.2722,0.9207,-0.974,0.5934,2047
16,0.1611,0.5728,-0.2915,0.9616,-0.8281,0.5542,2042
16,0.175,0.5374,-0.3184,0.9926,-0.6624,0.4935,2043
16,0.1763,0.5015,-0.3252,1.0481,-0.4882,0.4185,2041
16,0.2043,0.4702,-0.3213,1.0974,-0.3248,0.3767,2040
16,0.2412,0.4321,-0.3247,1.117,-0.193,0.3408,2041
16,0.2727,0.4114,-0.3289,1.0977,-0.0975,0.2962,2043
16,0.3081,0.3982,-0.3452,1.0986,-0.0489,0.239,2039
16,0.344,0.3745,-0.3369,1.0875,-0.0358,0.1779,2044
16,0.3652,0.3611,-0.3484,1.0353,-0.0457,0.1019,2044
16,0.3669,0.3491,-0.3416,0.9782,-0.0902,0.0209,2044
16,0.3782,0.356,-0.3496,0.9112,-0.1337,-0.069,2046
16,0.4258,0.3276,-0.3081,0.7897,-0.1233,-0.0823,2044
16,0.4241,0.3171,-0.2712,0.5281,-0.0439,-0.1458,2052
16,0.406,0.3381,-0.27,0.4004,-0.0369,-0.2257,2044
16,0.3943,0.3574,-0.2495,0.288,-0.0237,-0.2655,2045
16,0.377,0.3545,-0.2517,0.2341,-0.0044,-0.3328,2045
16,0.3979,0.3696,-0.2468,0.159,-0.0169,-0.3522,2041
16,0.3933,0.3679,-0.2529,0.1389,-0.0658,-0.3763,2041
16,0.4417,0.3584,-0.241,0.0728,-0.1189,-0.3781,2041
16,0.4595,0.3706,-0.2559,0.0691,-0.1807,-0.3971,2039
16,0.4531,0.3979,-0.2861,0.0847,-0.2518,-0.49,2040
16,0.4568,0.4136,-0.2947,0.133,-0.3429,-0.5216,2043
16,0.4641,0.449,-0.3416,0.1366,-0.4096,-0.5902,2047
16,0.427,0.5005,-0.3943,0.1051,-0.3975,-0.6873,2044
16,0.4351,0.541,-0.4419,-0.0208,-0.3654,-0.732,2044
16,0.4214,0.5906,-0.4714,-0.1814,-0.2947,-0.7843,2044
16,0.4468,0.647,-0.4565,-0.3906,-0.3121,-0.7779,2050
16,0.4829,0.7161,-0.4631,-0.5244,-0.3745,-0.7731,2047
16,0.52,0.8049,-0.4448,-0.5711,-0.5015,-0.7747,2044
16,0.6072,0.908,-0.4006,-0.6738,-0.6032,-0.7275,2050
16,0.7976,1.0291,-0.374,-0.6395,-0.9154,-0.6301,2053
16,0.8157,1.1089,-0.2734,-0.5364,-1.0003,-0.5815,2050
16,0.7117,1.0828,-0.3376,-0.2328,-1.5721,-0.5714,2042
16,0.9377,1.4031,-0.3569,-0.0816,-1.9462,-0.6288,2041
16,0.8359,1.3706,-0.4836,0.2963,-2.5519,-0.3192,2033
16,0.4714,1.2285,-0.3669,0.2245,-2.4374,-0.7269,2033
16,0.3977,1.4172,-0.3098,0.2511,-1.8939,-0.7221,2028
16,0.2144,1.4517,-0.3296,-0.0438,-1.1118,-0.6656,2039
16,0.1499,1.3704,-0.3462,0.0445,-0.5172,-0.4268,2042
16,0.3381,1.3372,-0.3477,0.3119,0.0261,0.0007,2036
16,0.3684,1.0825,-0.2764,0.3895,0.1987,0.2895,2042
16,0.2786,1.1335,-0.2561,0.9031,0.2996,0.367,2052
16,0.2034,1.1904,-0.3684,1.1156,0.1346,0.4859,2035
16,0.1741,1.0952,-0.3145,1.2268,0.1155,0.4842,2039
16,0.1594,1.0156,-0.3,1.2651,0.2681,0.4556,2051
16,0.1033,0.9509,-0.3323,0.8376,0.6151,0.329,2054
16,0.1553,0.8469,-0.3459,0.4892,1.101,0.3091,2054
16,0.031,0.7937,-0.3662,-0.3292,1.6424,0.1792,2056
16,0.1802,0.8743,-0.4983,-0.6243,1.9262,0.3488,2061
16,0.1711,0.7903,-0.4749,-1.0726,2.222,0.3918,2057
16,0.1543,0.9143,-0.6086,-0.9987,2.3308,0.3713,2057
17,0.1624,1.0208,-0.5679,-0.7144,2.2824,0.3079,2053
17,0.2219,1.0254,-0.5703,-0.3229,2.0374,0.3789,2050
17,0.313,0.8606,-0.4482,-0.2619,1.9036,0.505,2047
17,0.3289,0.8384,-0.4351,-0.1782,1.7879,0.546,2049
17,0.3992,0.8545,-0.481,0.1525,1.5788,0.6251,2046
17,0.4231,0.9329,-0.4866,0.4429,1.2262,0.6506,2041
17,0.4282,0.8447,-0.3977,0.5488,0.9194,0.6142,2042
17,0.4238,0.6697,-0.3586,0.8344,0.5072,0.6403,2044
17,0.3604,0.6277,-0.2673,0.8989,0.332,0.616,2044
17,0.262,0.5742,-0.2124,0.9754,0.2148,0.6128,2048
17,0.1711,0.5278,-0.2007,0.9325,0.2599,0.5345,2047
17,0.1189,0.4939,-0.1934,0.9818,0.322,0.5103,2046
17,0.0562,0.4565,-0.2241,0.9539,0.4922,0.4787,2042
17,0.0322,0.4214,-0.2463,0.9095,0.6954,0.4585,2042
17,0.0217,0.4136,-0.249,0.8685,0.9332,0.4087,2041
17,0.0374,0.4028,-0.2793,0.8007,1.1579,0.3815,2042
17,0.0798,0.3867,-0.2971,0.779,1.2774,0.353,2040
17,0.0947,0.3984,-0.324,0.7178,1.3182,0.287,2042
17,0.1323,0.4441,-0.3701,0.6339,1.3242,0.2436,2040
17,0.1643,0.4875,-0.4148,0.6353,1.2659,0.1979,2044
17,0.1841,0.4932,-0.4478,0.6821,1.1535,0.1613,2046
17,0.1953,0.4919,-0.4609,0.6934,1.0224,0.136,2045
17,0.2122,0.502,-0.4656,0.6605,0.8846,0.1192,2046
17,0.2017,0.4993,-0.4727,0.596,0.7493,0.0687,2041
17,0.207,0.5093,-0.4746,0.5307,0.603,0.0168,2047
17,0.2263,0.5261,-0.4758,0.4418,0.4687,-0.0366,2048
17,0.24,0.5491,-0.4673,0.3305,0.3662,-0.1072,2046
17,0.2466,0.5662,-0.4443,0.2087,0.2647,-0.19,2045
17,0.2864,0.5933,-0.4402,0.0804,0.183,-0.2389,2043
17,0.271,0.6003,-0.4255,-0.0358,0.1346,-0.3501,2045
17,0.2751,0.6387,-0.4146,-0.1425,0.0437,-0.4649,2042
17,0.3589,0.6863,-0.4031,-0.3191,0.03,-0.4811,2047
17,0.4377,0.8025,-0.3816,-0.4326,0.2473,-0.5665,2051
17,0.5447,0.9116,-0.3433,-0.4344,0.5231,-0.6574,2051
17,0.5527,0.9165,-0.2354,-0.6682,0.7907,-0.5939,2070
17,0.4607,0.7092,-0.1538,-0.7568,0.5823,-0.6159,2033
17,0.6472,0.9226,-0.0999,-1.038,0.4871,-0.5682,2043
17,0.647,1.0256,-0.0679,-0.9467,-0.0198,-0.5714,2019
17,0.7546,1.1177,0.0146,-1.061,-0.6068,-0.4275,1999
17,0.698,1.1399,0.0366,-0.9194,-0.9457,-0.4148,2020
17,0.626,1.2256,0.042,-0.8634,-1.3531,-0.5902,1997
17,0.6128,1.3525,-0.0269,-0.9452,-1.75,-0.7092,2012
17,0.4846,1.3711,-0.0874,-0.9874,-2.0766,-0.7427,2030
17,0.4124,1.3457,-0.1963,-1.0387,-2.3028,-0.8295,2035
17,0.1279,1.2537,-0.2302,-1.0388,-2.3237,-0.7955,2026
17,0.1228,1.2341,-0.1829,-1.0328,-2.1968,-0.811,2048
17,0.1438,1.1584,-0.2349,-0.9183,-1.7571,-0.7118,2062
17,0.1665,1.1162,-0.2573,-0.7847,-1.1669,-0.6339,2072
17,0.1008,1.0251,-0.2114,-0.7255,-0.6976,-0.5285,2065
17,0.1611,0.9045,-0.0959,-0.6986,-0.471,-0.3878,2057
17,0.0862,0.8335,-0.0378,-0.5035,-0.2333,-0.2743,2056
17,0.1389,0.7944,0.0281,-0.3665,-0.0154,-0.2023,2063
17,0.259,0.7385,0.0696,-0.3068,0.1795,-0.1246,2055
17,0.3496,0.7124,0.0742,-0.2622,0.2289,-0.059,2053
17,0.4143,0.7266,0.0222,-0.1579,0.1144,0.0427,2051
17,0.4294,0.7957,-0.0317,-0.0499,-0.0629,0.1392,2048
17,0.4128,0.8684,-0.084,0.0354,-0.33,0.204,2046
17,0.3455,0.8733,-0.1309,0.096,-0.6304,0.2964,2050
17,0.2935,0.8274,-0.158,0.1426,-0.8821,0.4115,2049
17,0.2842,0.8052,-0.1711,0.2053,-1.125,0.488,2050
17,0.2639,0.7764,-0.1919,0.3053,-1.2952,0.505,2048
17,0.2476,0.7383,-0.2058,0.4518,-1.3537,0.5317,2042
17,0.1963,0.6897,-0.2078,0.5991,-1.3013,0.5518,2045
17,0.1428,0.646,-0.2134,0.7058,-1.1761,0.5618,2040
17,0.1111,0.6067,-0.2507,0.76,-0.9634,0.5545,2043
17,0.1013,0.5957,-0.2761,0.7958,-0.7295,0.5253,2041
17,0.1118,0.5381,-0.2932,0.8588,-0.5316,0.4801,2042
17,0.1375,0.4932,-0.2991,0.8886,-0.3317,0.4348,2042
17,0.1455,0.4641,-0.2896,0.9009,-0.1416,0.3956,2039
17,0.175,0.4536,-0.2976,0.9348,-0.0156,0.3542,2040
17,0.2173,0.4229,-0.2766,0.9355,0.0807,0.3164,2042
17,0.2556,0.4177,-0.2715,0.925,0.1304,0.2922,2042
17,0.3037,0.4167,-0.2576,0.9048,0.1257,0.2918,2043
17,0.3367,0.3999,-0.2422,0.881,0.0613,0.2698,2043
17,0.376,0.3901,-0.2209,0.7909,-0.0148,0.2678,2043
17,0.3616,0.3979,-0.2207,0.7152,-0.069,0.2124,2047
17,0.363,0.437,-0.2117,0.6948,-0.0748,0.1581,2042
17,0.3652,0.4275,-0.1843,0.6532,-0.1318,0.085,2046
17,0.3555,0.4082,-0.2126,0.6114,-0.245,0.0093,2050
17,0.3708,0.3977,-0.1992,0.5645,-0.2104,-0.0326,2046
17,0.3362,0.3718,-0.1892,0.5143,-0.1491,-0.1651,2043
17,0.4158,0.3777,-0.219,0.4725,-0.2262,-0.1862,2036
17,0.4285,0.3765,-0.2402,0.4421,-0.2826,-0.2804,2041
17,0.449,0.3828,-0.2698,0.4297,-0.3245,-0.3653,2043
17,0.4526,0.3923,-0.2883,0.3859,-0.3944,-0.4426,2043
17,0.4402,0.4167,-0.2786,0.3346,-0.5149,-0.5614,2045
17,0.4131,0.4199,-0.3232,0.3617,-0.5811,-0.6456,2048
17,0.3972,0.439,-0.3213,0.3876,-0.599,-0.7076,2047
17,0.3613,0.3979,-0.3618,0.2474,-0.4982,-0.7827,2050
17,0.3845,0.446,-0.3884,0.1198,-0.4189,-0.8299,2043
17,0.3972,0.4976,-0.4282,-0.1103,-0.2938,-0.8692,2046
17,0.4771,0.6565,-0.4597,-0.2812,-0.2257,-0.8799,2046
17,0.5291,0.7981,-0.5081,-0.5899,-0.151,-0.9484,2049
17,0.5303,0.8962,-0.4575,-1.0865,-0.0049,-0.8894,2061
17,0.6733,1.3489,-0.5935,-1.0513,-0.1167,-1.0475,2081
17,0.8906,1.7842,-0.3557,-0.5825,-0.392,-1.1242,2041
17,1.0239,1.7019,-0.3047,-0.7664,-0.7106,-1.1625,2059
17,0.4258,1.2317,-0.2502,-0.4935,-1.4716,-1.3013,1990
17,0.3962,1.3157,-0.2737,0.2875,-2.0463,-1.0023,1938
17,0.2178,0.7498,-0.1025,0.0928,-2.4225,-0.3585,1992
18,0.3438,1.2786,-0.3384,0.6008,-2.7707,-0.2048,2042
18,0.2983,1.6333,-0.533,0.5548,-2.5089,0.0016,2064
18,0.0073,1.2881,-0.032,0.2799,-1.8773,0.1181,2048
18,-0.002,1.2012,0.0962,0.2864,-1.2551,0.3461,2049
18,0.147,1.3228,-0.3979,0.7327,-0.9046,0.3445,2061
18,0.1057,1.1936,-0.4038,0.9804,-0.5215,0.1752,2062
18,0.0837,0.9937,-0.3308,0.8933,-0.2101,0.0493,2059
18,-0.0291,0.9177,-0.2771,0.5608,0.1818,-0.0786,2054
18,-0.0454,0.8494,-0.2866,0.1812,0.5247,-0.0386,2057
18,0.0322,0.6479,-0.1201,-0.8155,1.1255,0.1578,2064
18,0.1804,0.4585,-0.1978,-2.4827,1.9739,0.4297,2072
18,0.093,0.0559,-0.47,-3.6142,2.1355,1.1761,2048
18,-0.0439,1.1604,-0.9221,-1.7948,1.8273,0.8331,2069
18,0.2004,1.9036,-0.5337,-0.9781,1.6855,0.712,2057
18,0.3376,1.6965,-0.592,-0.5778,1.3793,0.717,2073
18,0.3777,1.0723,-0.5332,-0.1984,1.1713,0.5726,2066
18,0.3704,0.833,-0.4714,-0.081,0.9646,0.4208,2047
18,0.4009,0.8311,-0.407,0.0225,0.4872,0.5339,2034
18,0.3813,0.8127,-0.3516,0.238,0.1237,0.5642,2035
18,0.2988,0.7991,-0.3669,0.4448,-0.141,0.5915,2032
18,0.2568,0.74,-0.3376,0.618,-0.2185,0.5805,2036
18,0.1758,0.6584,-0.3101,0.7147,-0.2317,0.5721,2036
18,0.1731,0.5999,-0.2649,0.8158,-0.1308,0.6018,2040
18,0.1033,0.5293,-0.2346,0.9219,0.0176,0.5995,2040
18,0.0454,0.4844,-0.2107,0.9297,0.2105,0.569,2047
18,0.0437,0.4709,-0.2065,0.948,0.4368,0.5521,2040
18,0.0166,0.4727,-0.2273,0.9545,0.6793,0.5111,2044
18,0.0044,0.4512,-0.2441,0.9289,0.9176,0.4807,2044
18,0.0061,0.4412,-0.2688,0.9076,1.1413,0.4129,2045
18,0.0754,0.4485,-0.3013,0.8933,1.2639,0.4056,2042
18,0.0886,0.4509,-0.3313,0.864,1.3523,0.3614,2042
18,0.1035,0.479,-0.3792,0.8347,1.3697,0.3501,2046
18,0.1306,0.499,-0.4246,0.8385,1.311,0.3294,2042
18,0.146,0.5051,-0.4592,0.8504,1.1934,0.3141,2046
18,0.1748,0.5291,-0.4751,0.8572,1.0316,0.3021,2040
18,0.1887,0.5256,-0.4866,0.8514,0.8672,0.2824,2043
18,0.187,0.5203,-0.481,0.777,0.7155,0.2468,2045
18,0.1848,0.5356,-0.4827,0.7367,0.5528,0.2207,2045
18,0.1812,0.5483,-0.5,0.7042,0.3868,0.1707,2045
18,0.21,0.5596,-0.4854,0.6449,0.2115,0.1581,2043
18,0.1963,0.5425,-0.4673,0.5835,0.0968,0.091,2045
18,0.1934,0.582,-0.4434,0.371,0.0345,0.0033,2047
18,0.2087,0.6177,-0.4673,0.2474,-0.0461,-0.0494,2046
18,0.27,0.658,-0.4707,0.1248,-0.0352,-0.0277,2049
18,0.3311,0.7119,-0.3977,-0.1171,0.1822,-0.1269,2047
18,0.5354,0.7568,-0.281,-0.4753,0.7644,0.039,2058
18,0.4448,0.8967,-0.4282,-0.4999,1.2897,-0.2168,2057
18,0.7466,0.917,-0.2695,-0.9714,1.5724,0.0892,2075
18,0.6755,0.9368,-0.2239,-0.7473,1.075,-0.0578,2011
18,0.6785,1.0291,-0.1631,-0.9142,0.2024,0.0574,2023
18,0.9805,1.0515,0.0881,-1.0307,-0.5464,0.3313,2001
18,0.8079,0.9475,0.0808,-0.7969,-1.6882,0.2336,1976
18,0.74,1.062,0.021,-0.3123,-2.8956,0.0049,1974
18,0.6899,1.2969,-0.0312,0.0128,-3.7045,-0.2199,1990
18,0.5935,1.4033,-0.1191,-0.1109,-4.0403,-0.3505,2037
18,0.2969,1.2915,-0.2336,-0.6729,-3.637,-0.4594,2065
18,0.0383,1.2053,-0.2681,-1.1322,-2.8972,-0.7296,2059
18,-0.0991,1.1638,-0.2771,-1.2496,-2.3156,-0.7568,2054
18,-0.0137,1.082,-0.2383,-1.2536,-1.6723,-0.6357,2063
18,-0.1892,1.0371,-0.2773,-1.0536,-0.8817,-0.4815,2065
18,-0.1814,0.9197,-0.158,-1.046,-0.1089,-0.2938,2069
18,0.0005,0.9155,-0.1206,-1.0152,0.5854,-0.2083,2075
18,0.1689,0.8616,-0.0266,-0.799,1.3142,-0.0415,2063
18,0.2812,0.8877,0.0227,-0.779,1.6759,0.0177,2054
18,0.4004,0.9583,0.0049,-0.709,1.676,0.0607,2061
18,0.467,1.0254,-0.0186,-0.5581,1.3454,0.0923,2060
18,0.5271,1.012,-0.0085,-0.3706,0.8604,0.1711,2051
18,0.5344,0.9597,-0.0105,-0.165,0.1317,0.2382,2046
18,0.5078,0.8916,0.0103,-0.0113,-0.5172,0.32,2045
18,0.4429,0.8325,0.0232,0.1021,-1.0116,0.4175,2045
18,0.3472,0.7932,-0.0029,0.2318,-1.3033,0.4665,2047
18,0.2993,0.7566,-0.0535,0.3522,-1.4439,0.5437,2045
18,0.2742,0.7295,-0.1274,0.4452,-1.4748,0.5613,2048
18,0.2563,0.6812,-0.189,0.4999,-1.3968,0.5577,2042
18,0.2029,0.6294,-0.2378,0.5179,-1.2043,0.5237,2041
18,0.168,0.5928,-0.2712,0.5657,-0.9923,0.4842,2038
18,0.1438,0.5427,-0.314,0.6136,-0.7966,0.456,2038
18,0.1487,0.5095,-0.3245,0.6798,-0.5421,0.4191,2040
18,0.1562,0.4712,-0.325,0.7132,-0.2922,0.3462,2046
18,0.167,0.4365,-0.3391,0.8272,-0.0899,0.2717,2040
18,0.1846,0.3975,-0.3311,0.8858,0.1123,0.2147,2041
18,0.2173,0.3657,-0.3508,0.9268,0.2623,0.1675,2042
18,0.2307,0.343,-0.3608,0.954,0.3563,0.126,2037
18,0.2639,0.3352,-0.3767,0.9641,0.3978,0.0891,2041
18,0.2939,0.3191,-0.3875,0.9533,0.3671,0.0403,2043
18,0.321,0.3083,-0.3679,0.9178,0.2896,-0.0168,2046
18,0.3442,0.2905,-0.3679,0.862,0.1835,-0.0704,2045
18,0.345,0.2874,-0.3433,0.8044,0.1012,-0.131,2047
18,0.3262,0.29,-0.3406,0.7333,0.0402,-0.1948,2044
18,0.2996,0.3223,-0.3315,0.6719,0.0246,-0.2703,2041
18,0.2937,0.3555,-0.3215,0.5747,0.0194,-0.3361,2046
18,0.2864,0.4006,-0.3315,0.4757,0.039,-0.3974,2042
18,0.2988,0.4387,-0.3259,0.3871,0.0589,-0.455,2042
18,0.2971,0.4551,-0.3213,0.3318,0.0645,-0.516,2051
18,0.3042,0.4871,-0.2944,0.2867,0.1139,-0.5879,2045
18,0.3635,0.5181,-0.2397,0.171,0.2061,-0.6139,2047
18,0.4465,0.5354,-0.1877,0.0457,0.2894,-0.5939,2046
18,0.532,0.5566,-0.1597,-0.0728,0.2811,-0.5565,2048
18,0.4763,0.5488,-0.1628,0.0649,0.0939,-0.6301,2040
18,0.4678,0.5632,-0.2034,0.1426,-0.0936,-0.6978,2042
18,0.47,0.5608,-0.2212,0.2329,-0.347,-0.7786,2042
19,0.4509,0.5547,-0.2327,0.282,-0.611,-0.8214,2039
19,0.3501,0.5879,-0.2571,0.2907,-0.7299,-0.8455,2040
19,0.418,0.5952,-0.2847,0.2091,-0.7946,-0.8686,2040
19,0.313,0.5884,-0.3362,-0.0056,-0.6391,-1.0083,2044
19,0.3691,0.6931,-0.3662,-0.0832,-0.5448,-0.9837,2049
19,0.3682,0.7571,-0.3718,-0.167,-0.4988,-0.9343,2047
19,0.3938,0.8252,-0.394,-0.3041,-0.4702,-0.9174,2049
19,0.3848,0.9023,-0.4412,-0.3155,-0.4875,-0.8782,2051
19,0.4658,0.9336,-0.4424,-0.4019,-0.5434,-0.834,2047
19,0.5581,1.0361,-0.4141,-0.4366,-0.7356,-0.7681,2048
19,0.8315,1.3293,-0.5088,-0.269,-1.0882,-0.7297,2051
19,0.7424,1.3748,-0.4487,-0.2217,-1.2765,-0.5721,2044
19,0.2871,1.2915,-0.2983,-0.5482,-0.8187,-0.7879,2038
19,0.2302,1.4568,-0.2971,-0.7906,-0.6371,-0.7542,2016
19,0.3667,1.7869,-0.2458,-0.2811,-0.3558,-0.5327,2032
19,0.3145,1.4272,-0.2776,-0.5504,-0.0598,-0.5051,2049
19,0.2578,1.2703,-0.179,-0.2515,0.0687,-0.3699,2017
19,0.2302,1.2368,-0.1726,0.2228,0.0506,-0.1999,2008
19,0.2837,1.2534,-0.1443,0.5618,-0.0494,0.0923,2036
19,0.3037,1.2554,-0.095,0.9495,-0.2048,0.2029,2046
19,0.1926,1.1794,-0.1543,1.1326,-0.3297,0.2286,2053
19,0.0955,1.0386,-0.1262,1.4211,-0.3006,0.0969,2053
19,0.0239,0.9341,-0.2488,1.3316,-0.1192,0.0137,2062
19,0.0723,0.7446,-0.1272,0.7867,0.1895,0.0502,2059
19,0.2061,0.6277,-0.1936,0.1163,0.494,0.2721,2059
19,0.2041,0.5332,-0.2556,-0.978,1.0511,0.5597,2070
19,0.2136,0.2942,-0.3296,-1.8695,1.3848,1.0808,2060
19,0.0544,0.5964,-0.6372,-1.6221,1.2718,1.3336,2056
19,0.0574,1.4065,-0.6443,-0.5071,1.1396,0.9524,2057
19,0.2168,1.4988,-0.428,-0.3903,1.1109,0.8428,2062
19,0.1855,1.0469,-0.5737,-0.0422,0.9863,0.8216,2067
19,0.2556,0.7776,-0.5139,0.127,0.9018,0.6951,2047
19,0.2791,0.7959,-0.5115,0.1301,0.7032,0.7423,2038
19,0.2842,0.7786,-0.4958,0.2441,0.446,0.8007,2039
19,0.2727,0.7512,-0.4592,0.3878,0.2862,0.8359,2038
19,0.2712,0.7195,-0.4243,0.4454,0.1679,0.8444,2041
19,0.2151,0.6768,-0.3794,0.514,0.118,0.8384,2040
19,0.1682,0.6367,-0.363,0.5618,0.0735,0.824,2038
19,0.1204,0.5876,-0.3201,0.5769,0.1023,0.7887,2040
19,0.0984,0.561,-0.3096,0.5873,0.1856,0.7628,2042
19,0.0854,0.5427,-0.304,0.6095,0.2994,0.7197,2043
19,0.0581,0.5217,-0.2803,0.5958,0.4478,0.6754,2044
19,0.0366,0.5027,-0.2761,0.5827,0.5983,0.6368,2044
19,0.04,0.5005,-0.2812,0.559,0.7381,0.5952,2043
19,0.0625,0.5059,-0.3035,0.5574,0.8236,0.5428,2045
19,0.0837,0.4973,-0.3291,0.5677,0.881,0.5121,2045
19,0.1099,0.5225,-0.3535,0.5665,0.8947,0.4773,2041
19,0.1213,0.5435,-0.3789,0.5669,0.8978,0.4405,2042
19,0.1265,0.574,-0.4048,0.5225,0.8835,0.396,2044
19,0.1511,0.6125,-0.4597,0.4934,0.8119,0.3421,2043
19,0.1638,0.646,-0.4758,0.4722,0.709,0.2763,2045
19,0.1653,0.6541,-0.4976,0.4381,0.6185,0.2073,2043
19,0.1819,0.6721,-0.5083,0.3862,0.5374,0.1336,2044
19,0.2009,0.6851,-0.5063,0.331,0.4578,0.0555,2044
19,0.21,0.7161,-0.4915,0.2843,0.3542,-0.0161,2046
19,0.2004,0.7292,-0.5024,0.2525,0.2493,-0.0826,2043
19,0.2441,0.7339,-0.5095,0.19,0.1382,-0.2053,2041
19,0.2756,0.7751,-0.498,0.1224,0.0104,-0.2587,2046
19,0.2527,0.7522,-0.5103,0.0634,-0.0788,-0.3472,2043
19,0.2849,0.7678,-0.4661,-0.0285,-0.1486,-0.387,2042
19,0.3018,0.76,-0.4771,-0.1724,-0.1233,-0.4947,2045
19,0.3042,0.8467,-0.4678,-0.1322,-0.086,-0.522,2047
19,0.3945,0.9026,-0.4148,-0.1858,0.1814,-0.5328,2050
19,1.2637,0.8892,0.0791,-0.9371,1.4707,0.0799,2150
19,1.04,1.0107,-0.0979,-1.1055,2.0017,0.0752,2114
19,1.1228,0.8828,-0.0178,-1.1628,2.235,0.2687,2199
19,0.6833,0.9836,0.2207,-1.5803,1.181,-0.5651,1906
19,0.4541,1.0554,0.0139,-1.8152,-0.4191,-0.5702,1914
19,0.5073,0.9297,-0.0686,-1.2186,-1.2046,-0.0712,1951
19,0.5747,0.8533,-0.0527,-0.8501,-1.7355,0.2495,1973
19,0.6638,0.9453,-0.1541,-0.4591,-1.8319,0.2839,2032
19,0.4841,1.3223,-0.1475,-0.0711,-1.9711,0.2444,2051
19,0.1216,1.5681,-0.1365,-0.2309,-1.5572,-0.078,2044
19,-0.1194,1.415,-0.3032,-0.2378,-1.3858,0.039,2060
19,0.166,1.4126,-0.3633,-0.3727,-1.0178,0.0123,2083
19,-0.0439,1.2642,-0.2888,-0.4607,-0.4998,-0.2221,2067
19,-0.1848,1.084,-0.3228,-0.1545,-0.4164,-0.3321,2058
19,-0.1995,0.8159,-0.1943,0.1317,0.1052,-0.5143,2059
19,-0.0366,0.6453,-0.1301,0.3389,0.7725,-0.3302,2059
19,0.0579,0.519,-0.1313,0.4979,1.5344,-0.2124,2051
19,0.3633,0.3738,-0.0352,0.3278,2.0309,0.1952,2069
19,0.3679,0.3989,-0.0173,-0.0067,2.5128,0.2982,2054
19,0.3806,0.4478,-0.1313,-0.1755,2.5361,0.3468,2058
19,0.3579,0.533,-0.1982,-0.2127,2.3665,0.2812,2049
19,0.3896,0.6174,-0.2825,-0.1928,1.9795,0.1687,2054
19,0.4133,0.6785,-0.3394,-0.1443,1.5283,0.0228,2047
19,0.5166,0.6963,-0.3518,-0.1776,1.0798,0.0197,2048
19,0.6042,0.6926,-0.386,-0.0684,0.4898,0.1125,2047
19,0.6277,0.6748,-0.3889,0.0063,-0.1238,0.1951,2049
19,0.583,0.665,-0.3662,0.059,-0.6205,0.3252,2046
19,0.488,0.6768,-0.3413,0.1392,-1.0031,0.331,2040
19,0.4285,0.6589,-0.3472,0.1274,-1.2611,0.3136,2039
19,0.3586,0.6411,-0.3811,0.1655,-1.3319,0.3374,2039
19,0.2456,0.6106,-0.418,0.2167,-1.2045,0.3538,2042
19,0.1521,0.6201,-0.4248,0.2623,-0.908,0.3159,2041
19,0.0896,0.6228,-0.4185,0.3136,-0.4634,0.2565,2038
19,0.0767,0.5979,-0.4048,0.3643,-0.0033,0.1473,2037
19,0.074,0.5835,-0.387,0.4192,0.4577,0.0453,2042
19,0.0833,0.5791,-0.3718,0.4854,0.8913,-0.0571,2037
19,0.1206,0.5881,-0.3503,0.5529,1.2057,-0.184,2043
19,0.1692,0.5774,-0.3284,0.6276,1.4487,-0.2675,2046
19,0.1919,0.5757,-0.3191,0.6837,1.6033,-0.2898,2045
19,0.2224,0.5835,-0.321,0.7612,1.6364,-0.3224,2046
19,0.2451,0.5803,-0.3074,0.8301,1.6138,-0.3408,2047
20,0.2688,0.5735,-0.3108,0.8863,1.5102,-0.363,2045
20,0.26,0.5725,-0.3201,0.9337,1.451,-0.398,2048
20,0.2683,0.603,-0.3123,0.9501,1.4932,-0.3811,2045
20,0.2124,0.6543,-0.3567,0.9825,1.5185,-0.4513,2046
20,0.2954,0.6077,-0.3384,1.0524,1.4518,-0.3092,2042
20,0.2778,0.6592,-0.3464,1.1252,1.568,-0.3622,2044
20,0.291,0.6428,-0.2983,1.1479,1.5978,-0.3429,2046
20,0.2759,0.6292,-0.2856,1.1998,1.6539,-0.3598,2044
20,0.2673,0.5884,-0.2039,1.1098,1.7365,-0.3719,2044
20,0.2158,0.6223,-0.2251,1.0424,1.814,-0.3826,2046
20,0.3052,0.6523,-0.1497,0.9219,1.8506,-0.3581,2049
20,0.292,0.6321,-0.2354,0.8814,1.8261,-0.3164,2043
20,0.333,0.6426,-0.1924,0.9484,1.8018,-0.2551,2046
20,0.3311,0.6072,-0.1704,0.9027,1.7419,-0.2262,2043
20,0.3318,0.6233,-0.1975,0.9416,1.5645,-0.249,2044
20,0.3625,0.656,-0.241,1.0122,1.4034,-0.2164,2045
20,0.3662,0.6667,-0.2529,1.075,1.3155,-0.2289,2044
20,0.3611,0.7449,-0.2971,1.1676,1.218,-0.2454,2045
20,0.3281,0.7744,-0.3164,1.2729,1.1684,-0.2561,2044
20,0.3386,0.7671,-0.2849,1.2476,1.1254,-0.2296,2042
20,0.334,0.8318,-0.3337,1.2443,1.0722,-0.224,2042
20,0.4238,0.9907,-0.1946,1.1809,1.273,-0.1653,2045
20,0.4258,1.1274,-0.1201,0.7901,1.1266,-0.0241,2053
20,0.8032,1.4451,-0.1895,0.6442,1.0179,0.287,2082
20,0.5369,1.0388,-0.3735,0.9584,0.7689,0.3338,2033
20,0.3635,0.9458,-0.4067,1.5865,0.2827,0.2758,1993
20,0.3218,0.9382,-0.6057,1.5993,-0.2252,0.2935,1983
20,0.4023,1.0425,-0.376,1.4367,-0.5019,0.3357,2018
20,0.4656,1.2957,-0.4404,1.437,-0.5191,0.3181,2052
20,0.4351,1.3352,-0.4644,1.4078,-0.3485,0.2332,2059
20,0.303,1.3596,-0.4719,1.2955,-0.157,0.1385,2060
20,0.2007,1.2249,-0.4619,1.0409,-0.0298,0.1237,2063
20,0.0938,1.0496,-0.3877,0.9305,0.1856,0.0557,2058
20,0.0701,0.9165,-0.2886,0.8701,0.3737,0.043,2049
20,0.0735,0.843,-0.3296,0.8943,0.5798,0.014,2061
20,0.167,0.7517,-0.2764,0.8247,0.7861,0.1013,2056
20,0.2075,0.6765,-0.2759,0.7636,1.0614,0.0886,2056
20,0.2473,0.55,-0.2224,0.3235,1.1884,0.1882,2050
20,0.3181,0.4387,-0.1912,-0.4303,1.4213,0.2759,2057
20,0.2041,0.301,-0.4614,-1.0986,1.5086,0.3529,2056
20,0.1772,0.8247,-0.6523,-0.4862,1.3497,0.3064,2051
20,0.2214,1.283,-0.5657,-0.1755,1.2077,0.3145,2046
20,0.2295,1.1523,-0.6135,-0.1527,1.1318,0.2083,2054
20,0.2866,0.8745,-0.6311,-0.0754,1.0487,0.2187,2055
20,0.281,0.8074,-0.5654,-0.1123,0.9974,0.1884,2046
20,0.2649,0.8342,-0.5393,-0.1708,0.8933,0.1972,2039
20,0.2422,0.8318,-0.5144,-0.1328,0.8167,0.2486,2038
20,0.2358,0.8088,-0.4692,-0.0874,0.7702,0.2701,2043
20,0.2078,0.7908,-0.4368,-0.0116,0.7713,0.2721,2041
20,0.1565,0.7664,-0.396,0.0688,0.785,0.2553,2043
20,0.0967,0.7412,-0.3948,0.1064,0.8047,0.2304,2039
20,0.0732,0.731,-0.3623,0.0983,0.8397,0.2029,2044
20,0.0542,0.7295,-0.3367,0.1196,0.8987,0.1413,2045
20,0.0356,0.7292,-0.3298,0.1326,0.9834,0.0723,2043
20,0.0405,0.7239,-0.3318,0.1333,1.0738,0.018,2044
20,0.0286,0.7046,-0.3352,0.1358,1.1685,-0.0222,2044
20,0.0457,0.7043,-0.3279,0.1455,1.2113,-0.0541,2044
20,0.0679,0.7019,-0.3411,0.1732,1.2424,-0.083,2043
20,0.0859,0.6843,-0.363,0.1952,1.2326,-0.0993,2042
20,0.113,0.6807,-0.3713,0.2378,1.1798,-0.1306,2044
20,0.1306,0.6802,-0.3816,0.3004,1.1051,-0.153,2045
20,0.1167,0.6736,-0.3896,0.329,1.0521,-0.159,2042
20,0.137,0.676,-0.3962,0.3489,0.9503,-0.1944,2041
20,0.1421,0.6855,-0.4048,0.3635,0.8496,-0.2216,2042
20,0.1438,0.6912,-0.4126,0.3667,0.7437,-0.2511,2045
20,0.1501,0.7117,-0.4224,0.328,0.6561,-0.2671,2044
20,0.1719,0.7415,-0.4243,0.3199,0.4975,-0.338,2044
20,0.196,0.748,-0.4197,0.3131,0.3421,-0.39,2047
20,0.2029,0.7607,-0.4028,0.3147,0.1694,-0.4293,2044
20,0.2053,0.7622,-0.3906,0.3177,-0.0107,-0.463,2042
20,0.228,0.7766,-0.3721,0.3493,-0.2369,-0.5074,2058
20,0.217,0.7524,-0.3643,0.3189,-0.3654,-0.5094,2047
20,0.2336,0.7649,-0.3579,0.2918,-0.5236,-0.5311,2050
20,0.2756,0.7812,-0.3538,0.2168,-0.6694,-0.5043,2044
20,0.2349,0.8364,-0.3677,0.1774,-0.7746,-0.5217,2043
20,0.2625,0.9224,-0.3591,0.0232,-0.8721,-0.5059,2045
20,0.2527,1.01,-0.3818,0.0073,-1.0204,-0.4405,2044
20,0.3125,1.0679,-0.3438,-0.0499,-1.0708,-0.3914,2049
20,0.3765,1.1389,-0.2671,0.0092,-1.1041,-0.4647,2049
20,1.2844,1.4409,0.2964,-0.6825,-0.8111,0.0739,2067
20,0.4673,1.3286,0.0366,-0.9586,-0.9954,-0.3585,2041
20,0.5205,1.262,-0.2041,-1.0499,-1.392,-0.147,2055
20,0.1831,1.085,-0.2634,-0.2815,-1.6141,-0.4315,2033
20,0.1069,1.1978,-0.1384,-0.2436,-1.7016,-0.4244,2015
20,0.1011,1.0671,-0.0945,-0.0208,-1.6089,-0.2713,2022
20,0.1487,1.0537,0.0212,0.3077,-1.2077,-0.1467,2037
20,0.0359,0.9749,0.1604,0.6086,-0.8018,-0.075,2040
20,0.1406,0.9382,0.2183,0.8413,-0.5275,0.01,2042
20,0.1775,0.9802,0.178,1.077,-0.3658,-0.0015,2053
20,0.2754,0.947,0.1963,1.0307,-0.1707,0.1364,2060
20,0.2581,1.0,0.126,0.9997,-0.0419,0.19,2053
20,0.2822,1.0144,0.0652,0.9264,0.0992,0.2791,2050
20,0.2915,1.009,-0.0215,0.8897,0.1175,0.3715,2054
20,0.29,0.9749,-0.1287,0.7955,0.1092,0.4185,2066
20,0.2585,0.9214,-0.177,0.657,0.0182,0.4416,2052
20,0.2798,0.8811,-0.2417,0.4835,-0.1549,0.4765,2065
20,0.304,0.8491,-0.2439,0.3135,-0.3163,0.5219,2046
20,0.3213,0.8274,-0.2544,0.1923,-0.4042,0.5429,2046
20,0.3447,0.7888,-0.2649,0.1171,-0.4709,0.5739,2045
20,0.3564,0.7666,-0.2524,0.1293,-0.5873,0.5681,2045
20,0.353,0.7625,-0.2725,0.2653,-0.7938,0.5654,2042
20,0.3577,0.7375,-0.2715,0.2745,-0.9018,0.5854,2042
20,0.3345,0.6753,-0.24,0.3834,-0.9713,0.5737,2042
21,0.3359,0.6624,-0.2454,0.5328,-1.0914,0.547,2042
21,0.3354,0.616,-0.2344,0.5757,-1.1443,0.5424,2042
21,0.3279,0.5674,-0.2253,0.562,-1.1318,0.5372,2045
21,0.312,0.5103,-0.2134,0.4809,-1.0415,0.5348,2045
21,0.2942,0.4517,-0.2134,0.3854,-0.954,0.5062,2043
21,0.2593,0.4189,-0.2361,0.349,-0.8933,0.4657,2045
21,0.2329,0.3772,-0.2405,0.3205,-0.8496,0.4396,2048
21,0.2253,0.3425,-0.2432,0.2405,-0.8112,0.4028,2047
21,0.2119,0.3232,-0.2627,0.1558,-0.7726,0.3706,2044
21,0.2095,0.3093,-0.2817,0.0976,-0.7249,0.3405,2048
21,0.2078,0.3003,-0.28,0.0376,-0.7027,0.3061,2044
21,0.2041,0.2849,-0.3022,-0.0257,-0.6914,0.276,2042
21,0.2166,0.2812,-0.3269,-0.0949,-0.6857,0.2474,2047
21,0.2217,0.2803,-0.3491,-0.1438,-0.6951,0.2052,2064
21,0.2183,0.2939,-0.3833,-0.1702,-0.7188,0.1582,2050
21,0.2173,0.3054,-0.3875,-0.212,-0.7309,0.1213,2044
21,0.2356,0.3264,-0.4292,-0.2436,-0.7654,0.0728,2046
21,0.2417,0.3274,-0.4277,-0.2642,-0.7987,0.0225,2044
21,0.249,0.3506,-0.4167,-0.3216,-0.8272,-0.0169,2044
21,0.2629,0.3511,-0.4492,-0.433,-0.8911,-0.0603,2043
21,0.2632,0.3667,-0.4661,-0.4729,-0.9164,-0.1433,2047
21,0.2563,0.3816,-0.4692,-0.5883,-0.928,-0.2173,2044
21,0.283,0.4133,-0.4861,-0.7062,-0.9568,-0.2834,2049
21,0.3096,0.4473,-0.4829,-0.7909,-0.9946,-0.3566,2043
21,0.3318,0.4612,-0.4771,-0.8514,-1.038,-0.4537,2048
21,0.3579,0.4941,-0.4587,-0.9184,-1.0568,-0.5651,2047
21,0.3894,0.5481,-0.4573,-1.0079,-1.0854,-0.6767,2047
21,0.4155,0.5952,-0.4543,-1.0529,-1.1525,-0.7726,2046
21,0.4099,0.6294,-0.4265,-1.0499,-1.2073,-0.8444,2046
21,0.4299,0.6741,-0.4021,-1.0764,-1.213,-0.9275,2044
21,0.4263,0.7388,-0.3667,-1.0625,-1.1539,-0.9846,2043
21,0.4497,0.7903,-0.3579,-1.0057,-1.1716,-1.032,2047
21,0.4631,0.9133,-0.3682,-1.052,-1.1425,-1.1464,2050
21,0.5374,1.116,-0.4968,-1.3086,-1.2291,-1.303,2043
21,0.8965,1.4739,-0.6443,-0.7522,-1.6636,-1.2142,2049
21,0.9729,1.6165,-0.7498,0.1663,-1.8892,-0.8316,2052
21,0.3584,1.6011,-0.4021,0.1527,-1.3741,-0.9885,2047
21,0.166,1.4963,-0.2136,-0.241,-1.447,-0.5963,2036
21,-0.053,1.3132,-0.1785,-0.1562,-1.4873,-0.2975,2030
21,0.4973,1.3396,-0.0078,0.0113,-1.1615,-0.068,2048
21,0.4116,1.3291,-0.1448,0.2774,-0.7257,-0.0229,2040
21,0.5686,1.3059,-0.1084,0.5269,-0.7393,0.0353,2040
21,0.4646,1.3372,-0.0496,0.8468,-0.5553,0.1691,2049
21,0.4124,1.2178,0.1541,0.9195,-0.1008,0.1981,2043
21,0.252,1.0544,0.178,0.8095,0.1898,0.2802,2032
21,0.1731,0.9861,0.0613,0.6613,0.3384,0.2972,2033
21,0.1299,0.8767,-0.0686,0.4307,0.5988,0.3979,2034
21,0.1482,0.9197,-0.1055,0.3263,0.9556,0.4753,2047
21,0.1292,0.9436,-0.2036,0.1759,1.271,0.5425,2053
21,0.1328,0.958,-0.2866,0.1465,1.4482,0.5838,2058
21,0.1265,0.9656,-0.3086,0.1412,1.6321,0.5731,2057
21,0.0955,0.9314,-0.3318,0.0325,1.8106,0.5849,2054
21,0.1331,0.9309,-0.3518,0.0208,1.8632,0.6418,2057
21,0.157,0.9092,-0.3877,0.134,1.8001,0.7456,2056
21,0.1536,0.7966,-0.3374,0.1392,1.7435,0.7106,2054
21,0.2634,0.8479,-0.4351,0.1922,1.5803,0.6787,2045
21,0.4309,0.8425,-0.4509,0.3555,1.289,0.8841,2044
21,0.3896,0.8801,-0.4702,0.8423,1.0575,0.9873,2045
21,0.5056,0.8809,-0.5024,1.0895,0.6384,1.0511,2045
21,0.4001,0.7029,-0.175,0.4681,0.5351,1.0519,2064
21,0.4111,0.615,-0.3301,0.5593,0.0957,1.1078,2042
21,0.2852,0.7039,-0.1445,-0.965,0.4765,0.7237,2076
21,0.0435,0.625,-0.1121,-0.6967,0.9021,0.7092,2044
21,0.1492,0.5757,-0.1816,-0.0232,0.9082,0.916,2023
21,0.3572,0.6294,-0.304,0.1274,0.9063,0.9143,2044
21,0.0979,0.563,-0.1987,0.2037,1.0377,0.8411,2046
21,0.1582,0.5408,-0.1426,0.3017,0.8937,0.9384,2026
21,0.1099,0.5457,-0.1118,0.393,0.8208,0.8275,2029
21,0.0542,0.5146,-0.1021,0.2723,0.9835,0.6268,2042
21,0.5068,0.6301,-0.218,0.5394,0.4598,0.868,2046
21,0.3865,0.6257,-0.2896,0.9818,0.0362,0.7786,2050
21,0.1304,0.5698,-0.2151,1.2094,-0.241,0.4426,2040
21,0.1956,0.5598,-0.3689,1.2386,-0.4671,0.4477,2043
21,0.1494,0.5234,-0.2756,1.05,-0.3521,0.3478,2047
21,0.1992,0.4758,-0.3506,0.82,-0.5062,0.2936,2040
21,0.1602,0.4844,-0.2683,0.257,-0.1635,0.1762,2046
21,0.1616,0.4883,-0.2598,-0.0678,-0.0168,0.0728,2047
21,0.1895,0.531,-0.28,-0.326,0.1067,-0.0435,2052
21,0.2156,0.5464,-0.2834,-0.483,0.0593,-0.1089,2058
21,0.2788,0.5508,-0.2698,-0.6998,0.0109,-0.138,2043
21,0.3926,0.614,-0.3047,-0.746,-0.1732,-0.1313,2045
21,0.4038,0.6067,-0.3049,-0.7674,-0.4087,-0.1286,2049
21,0.4216,0.6223,-0.2571,-0.7996,-0.6506,-0.1389,2051
21,0.4368,0.6597,-0.2458,-0.8276,-0.9076,-0.1791,2078
21,0.5068,0.7043,-0.2278,-0.8835,-1.1295,-0.1771,2054
21,0.4229,0.6301,-0.2502,-0.8352,-1.3817,-0.2998,2048
21,0.4087,0.6406,-0.2507,-0.76,-1.7658,-0.4299,2005
21,0.4216,0.6946,-0.2793,-0.6775,-2.0746,-0.4782,2041
21,0.429,0.7249,-0.3057,-0.5425,-2.3534,-0.5113,2024
21,0.4038,0.7305,-0.3083,-0.5201,-2.6196,-0.5798,2032
21,0.3977,0.834,-0.3074,-0.599,-2.7888,-0.6919,2035
21,0.4587,0.8733,-0.3408,-0.759,-2.892,-0.6197,2051
21,0.2471,0.9822,-0.291,-1.1019,-2.545,-0.9242,2057
21,0.2759,1.0278,-0.3174,-1.36,-2.3069,-0.8746,2051
21,0.3794,1.0994,-0.3428,-1.6466,-2.0068,-0.7777,2055
21,0.314,1.2168,-0.2932,-1.8456,-1.6712,-0.8669,2054
21,0.2258,1.2039,-0.2144,-1.8687,-1.3236,-1.0041,2046
21,0.228,1.2244,-0.1753,-1.6277,-1.2239,-1.0453,2036
21,0.2681,1.2256,-0.1814,-1.1296,-1.2101,-0.9551,2028
21,0.325,1.0576,-0.1064,-0.877,-1.1818,-0.8756,2042
21,0.2368,0.8215,0.0596,-0.7548,-1.15,-0.7006,2045
21,0.1021,0.8682,0.0818,-0.4955,-1.1629,-0.5892,2046
22,0.2048,0.7729,0.1755,-0.4292,-1.0451,-0.4533,2054
22,0.1003,0.6807,0.2507,-0.3165,-0.9031,-0.3083,2058
22,0.1851,0.7112,0.2148,-0.071,-0.7797,-0.344,2060
22,0.3955,0.7598,0.1509,0.0884,-0.7498,-0.2424,2074
22,0.3684,0.8203,0.1045,0.1751,-0.7124,-0.2707,2057
22,0.3501,0.8567,0.0498,0.3057,-0.7312,-0.2461,2051
22,0.3064,0.9111,-0.0286,0.3064,-0.8162,-0.1443,2055
22,0.271,0.9006,-0.0564,0.2903,-0.9461,-0.0723,2052
22,0.2363,0.8738,-0.0574,0.1618,-0.9291,0.0019,2054
22,0.2292,0.8369,-0.0837,0.0342,-0.8522,0.104,2051
22,0.2131,0.8242,-0.1116,0.0024,-0.8159,0.169,2049
22,0.2041,0.7996,-0.1406,-0.0123,-0.77,0.2446,2042
22,0.2178,0.7722,-0.1316,-0.0043,-0.6883,0.3478,2046
22,0.2483,0.6885,-0.1147,-0.1234,-0.6067,0.4526,2043
22,0.2192,0.6826,-0.1609,0.0043,-0.6529,0.4382,2035
22,0.1836,0.6489,-0.1555,0.079,-0.6697,0.4002,2028
22,0.2153,0.6021,-0.135,0.1336,-0.7178,0.3554,2035
22,0.2356,0.6035,-0.1821,0.2462,-0.7513,0.3675,2043
22,0.2625,0.5566,-0.1404,0.3504,-0.7593,0.3789,2041
22,0.2517,0.5686,-0.1687,0.4516,-0.828,0.299,2038
22,0.2668,0.5635,-0.1631,0.542,-0.8488,0.2934,2046
22,0.3372,0.5244,-0.1592,0.5861,-0.9035,0.2879,2050
22,0.3438,0.5093,-0.1746,0.5614,-0.9895,0.2075,2051
22,0.3494,0.5032,-0.1919,0.5056,-1.0726,0.1691,2047
22,0.3879,0.4912,-0.178,0.4534,-1.1648,0.1815,2049
22,0.3755,0.4858,-0.1982,0.4192,-1.2656,0.1256,2047
22,0.3787,0.5137,-0.1758,0.6516,-1.2565,0.0176,2045
22,0.4382,0.385,-0.1924,0.4484,-1.4709,0.0577,2043
22,0.4036,0.4199,-0.2334,0.3769,-1.5371,-0.029,2042
22,0.385,0.4114,-0.2083,0.2839,-1.6302,-0.0878,2039
22,0.3779,0.4148,-0.2449,0.2163,-1.6896,-0.1561,2039
22,0.3884,0.4185,-0.2432,0.1486,-1.7548,-0.1926,2046
22,0.3914,0.3979,-0.272,0.0563,-1.8795,-0.2232,2044
22,0.3469,0.4324,-0.2905,0.0463,-1.8845,-0.2943,2041
22,0.2205,0.4939,-0.3286,0.1474,-1.8085,-0.5004,2040
22,0.3794,0.4116,-0.3113,0.0656,-1.8041,-0.3939,2046
22,0.3647,0.3943,-0.2998,-0.1037,-1.7506,-0.4376,2042
22,0.3723,0.4907,-0.3689,-0.1473,-1.7442,-0.5369,2046
22,0.3555,0.5337,-0.4109,-0.175,-1.6803,-0.6008,2043
22,0.4353,0.6399,-0.4429,-0.2185,-1.6602,-0.6292,2048
