,Unnamed: 0,timestamp,node,accx,accy,accz,gyrox,gyroy,gyroz,q0,q1,q2,q3,timestamp.1,node.1,accx.1,accy.1,accz.1,gyrox.1,gyroy.1,gyroz.1,q0.1,q1.1,q2.1,q3.1,timestamp.2,node.2,accx.2,accy.2,accz.2,gyrox.2,gyroy.2,gyroz.2,q0.2,q1.2,q2.2,q3.2,timestamp.3,node.3,accx.3,accy.3,accz.3,gyrox.3,gyroy.3,gyroz.3,q0.3,q1.3,q2.3,q3.3,timestamp.4,node.4,accx.4,accy.4,accz.4,gyrox.4,gyroy.4,gyroz.4,q0.4,q1.4,q2.4,q3.4,timestamp.5,node.5,accx.5,accy.5,accz.5,gyrox.5,gyroy.5,gyroz.5,q0.5,q1.5,q2.5,q3.5,timestamp.6,node.6,accx.6,accy.6,accz.6,gyrox.6,gyroy.6,gyroz.6,q0.6,q1.6,q2.6,q3.6,timestamp.7,node.7,accx.7,accy.7,accz.7,gyrox.7,gyroy.7,gyroz.7,q0.7,q1.7,q2.7,q3.7,timestamp.8,node.8,accx.8,accy.8,accz.8,gyrox.8,gyroy.8,gyroz.8,q0.8,q1.8,q2.8,q3.8
0,0,0.0909999999998945,0.0,8.737325022411798e-17,2.6344470562295063e-16,0.9999999999999998,0.0095338759698757,-0.0003927814728104,0.0276120991317944,0.9999989331417742,0.000476693289929,-2.0297177807266285e-05,0.0013806037974041,0.0919999999996434,1.0,-3.6672416478571753e-17,1.2987381917166361e-16,1.0,-0.033538972387657,0.0167781714143931,-0.2191466160373129,0.9999382311206714,-0.0016768450361459,0.0008204830065128,-0.0109566847916491,0.0929999999998472,2.0,-3.812234410120063e-18,2.1885758315661024e-17,1.0000000000000002,-0.0372155014967398,0.0420856140930203,-0.2750154525935541,0.9999015802774112,-0.0018605919378703,0.0020784890252335,-0.0137494668895927,0.0929999999998472,3.0,5.0527039787162913e-17,-2.523568348069487e-17,1.0,-0.227591576799577,0.041073755415401,0.4500855165077198,0.9996794524488,-0.011375931143848,0.0023090365584159,0.0224999753877682,0.0929999999998472,4.0,-1.14954680640706e-16,9.29381930196839e-18,1.0,-0.2769283941062807,-0.0378876962380891,0.3491462867720181,0.9997504287953638,-0.0138429640376682,-0.0016522510534213,0.0174563036349121,0.0229999999996834,5.0,2.071040170415703e-17,5.850588987466921e-17,1.0,-0.0193245603417768,0.0051082935461865,0.0227764434961217,0.9999988518445206,-0.0009662269077088,0.0002565147446819,0.0011388219304604,0.0239999999998872,6.0,-2.8797467602315522e-18,5.586898261312975e-17,1.0,-0.0253533955383093,-0.0144118219871315,-0.0165336091114538,0.9999985944267814,-0.0012676679951127,-0.0007216380428687,-0.0008266806220753,0.0239999999998872,7.0,-6.165104344031963e-19,3.4688991483268776e-17,1.0,-0.0495205077849822,0.0015433590840593,-0.0340505545736422,0.999995482700611,-0.0024760142043011,7.295212277277922e-05,-0.0017025304754971,0.0,8.0,1.6506851273661493e-18,-5.333893028522946e-19,1.0,-0.0131279401874967,0.0062291748993466,-0.006084930435682,0.99999968984752,-0.0006563968057916,0.0003112589419225,-0.000304246558508
1,1,0.125,0.0,5.712411821663564e-05,0.0008279647728839,0.9799695460631264,-0.0007720671862732,-0.0011039396786469,0.0295684864423991,0.999995816481868,0.0004327148409063,-7.701348007223071e-05,0.0028589938007501,0.125,1.0,0.0012919491451756,-0.0015248477652753,0.9795029380796664,-0.0254148309078711,-0.0172239868727481,-0.0869800982379554,0.999878766500843,-0.0028712956813271,-0.0001863168438016,-0.0153027202776789,0.125,2.0,0.000690730263448,-0.002301678963407,0.98041992287267,-0.0308420445954436,-0.0346874736155159,-0.0527391298834127,0.9998601783043276,-0.0033635937851732,0.0001152306429361,-0.0163797680076786,0.125,3.0,-0.0049247509551856,-0.0133662334670792,0.9796035374736723,-0.1934029927823041,0.0662139433940105,0.5503827907448566,0.9985212560670568,-0.0205884702310411,0.0059679880093947,0.0499579742877236,0.1259999999997489,4.0,0.0022490630030073,-0.0171400379546637,0.979607656572018,-0.208170635367707,-0.0352385061109518,0.3508265965426363,0.9991011226377876,-0.0237262148054428,-0.0031425594681737,0.0349876806162895,0.0989999999997053,5.0,-0.0001140649510415,-0.0016050163541062,0.9790415777236888,-0.0447504021382125,0.0113835642118175,0.0050540088663215,0.9999936215977556,-0.0031896661879177,0.0008040270988994,0.0013915221302331,0.099999999999909,6.0,0.0009840274556514,-0.0009807290644822,0.9801694087556848,-0.0143345985760935,-0.0087578661316621,-0.0167674702592162,0.9999961464977112,-0.0019074547998824,-0.0011385275445171,-0.0016650408237208,0.099999999999909,7.0,-0.0008375703969173,-0.0024106923191889,0.9787438311623592,-0.0256759677885729,-0.00562033960404,-0.0262461452464044,0.9999888330332712,-0.0036358473463537,-0.0001749453191352,-0.0030139371204277,0.0239999999998872,8.0,-0.0002555637951902,-0.0009038346050311,0.9794310173616888,-0.0034359111599867,-0.001494843141949,-0.0222617362706687,0.9999986447584892,-0.0008090580661535,0.0002176031089632,-0.0014172350253692
2,2,0.1799999999998363,0.0,0.001438221340626,0.0018676203661498,0.9798614409770104,0.0216695549783532,-0.0109552042784189,0.0407099795670174,0.9999865522779234,0.001569823537473,-0.0006902779826067,0.0048943266829915,0.1799999999998363,1.0,0.0019379237177634,-0.002287271647913,0.9794651667313508,-0.0177672880513679,-0.0257867717008204,-0.0421115365559027,0.9998408130861725,-0.0036099858575942,-0.0015479506542067,-0.01740460680572,0.1799999999998363,2.0,0.0014172462576609,-0.0029778291589116,0.9802974670713708,0.0023401527573266,0.0049826386955385,-0.1105467645545996,0.9997553041231032,-0.0030598276290579,0.000264167829999,-0.0219066096865611,0.1799999999998363,3.0,-0.0090115138350754,-0.0203064338807264,0.9792402367965932,-0.0511381922433475,0.0372344492956571,0.247802820956004,0.9977813109919628,-0.0221575357333912,0.0077829787678818,0.0622970648336028,0.1799999999998363,4.0,0.0024943266263017,-0.0232966461038056,0.9797974508106232,-0.0344141994952678,0.0262382073144286,0.1709586519234144,0.9987565175960148,-0.0243281139411633,-0.0015390008623891,0.0434878478185855,0.2179999999998472,5.0,-7.188844614282528e-05,-0.0037409164549163,0.9797019956987576,-0.008329426067488,0.0055497531733993,0.0316945805414596,0.9999890180686876,-0.0034772001635046,0.0010094427528884,0.0029755413580577,0.2179999999998472,6.0,0.0009701271654995,-0.0019282407974307,0.980488827443082,-0.0153348530019091,-0.0118985155114497,0.0050179513449426,0.9999942747727304,-0.0025831360332333,-0.0016669798970869,-0.0014138627999454,0.2179999999998472,7.0,-0.0008375703969173,-0.0024106923191889,0.9787438311623592,-0.0316371561700238,-0.0005252226049015,0.0202616253283971,0.99998560250362,-0.0049773741303876,-0.0001307424718637,-0.0020008594764508,0.099999999999909,8.0,0.000958162482084,-0.0002841104520649,0.979053114598952,-0.0105839207313903,-0.0036017144587281,-0.0112648310831127,0.9999972293618576,-0.0012723033402051,-3.312148879833095e-05,-0.0019802564949118
3,3,0.2429999999999381,0.0,0.0019692170164463,0.0040115391648865,0.979512649095391,0.0532463706757672,-0.0133390549790464,0.0676241445122154,0.9999556224956958,0.0042812153978552,-0.0013891273708939,0.008276143975919,0.2459999999996398,1.0,0.0026654695078078,-0.0016873351429899,0.97979796293543,-0.0073397585539008,-0.0026633021954392,0.0114070711937118,0.9998500455756676,-0.0037075807426267,-0.0016523003335565,-0.016834788712069,0.2459999999996398,2.0,0.0007705320341839,-0.0020416534564711,0.9794576243674598,-0.0032783701453025,-0.0036385319034484,-0.0250146331062649,0.9997272683947128,-0.0030270989861571,1.8638755967150742e-05,-0.0231565358456488,0.2469999999998435,3.0,-0.0075838589952757,-0.0127014759639826,0.9803015646172744,0.0730362865938793,-0.0133936389956939,0.1164581032015407,0.9975115401736232,-0.0168828662588949,0.0070081402854442,0.0680924519830916,0.2469999999998435,4.0,0.0065721705246693,0.0007139943181791,0.9788699079993768,0.0987200219151755,-0.0212098126462776,0.0800979714112161,0.998725040336815,-0.0168753515546258,-0.0024956119448908,0.047510927534153,0.2419999999997344,5.0,-0.0018434048780893,-0.0058487419972567,0.9790548473275156,-0.0454964345236288,0.0431575996770803,0.0206528654466116,0.999970705297143,-0.0057085637833016,0.0031586876716205,0.0040029413259892,0.2439999999996871,6.0,0.0019052297882274,-0.0022794488911112,0.9794877100873738,-0.005255902801706,-0.0114949128931381,0.0099322414652107,0.999993564343679,-0.002705752549571,-0.0021703999428123,-0.0009162633100294,0.2469999999998435,7.0,-0.0017436757346663,-0.0058395040151003,0.979393618412837,-0.054808747108146,0.0193189307635141,0.0120836953613075,0.9999703228593972,-0.0075160597417956,0.0009478867659399,-0.0014013411824375,0.2189999999995961,8.0,0.000958162482084,-0.0002841104520649,0.979053114598952,-0.0104377476478516,-0.0007327184280238,-0.0005483300430689,0.999996564063852,-0.0016816367232469,-0.0001143620195293,-0.0020077050953815
4,4,0.3139999999998508,0.0,0.0029740842498702,0.0074714119894761,0.9793729283708826,0.0514949868282344,-0.0129949999522103,0.0485581346859211,0.9999174092742754,0.006812282396971,-0.002043802938007,0.0107046862782396,0.3139999999998508,1.0,0.0007275457900442,0.0005999365049231,0.9799112769803772,0.0298382624147287,0.0295760675662164,0.0288203022040524,0.9998798497000658,-0.0017925718144422,-6.860161095417968e-05,-0.0153970173697032,0.3149999999995998,2.0,-1.9461889439029912e-17,1.0689851506270249e-17,0.9799454066426356,0.0298501421407466,0.0172386483419491,0.064809466448605,0.9998005004470892,-0.0012121188496859,0.0008479024464556,-0.0199191148168169,0.3149999999995998,3.0,-0.0079983211737552,-0.0022220378477409,0.9802035958953652,0.1208495516557425,0.0299882315073756,-0.1307713747029455,0.9980257015731768,-0.0094516024410489,0.0085521827975557,0.0614998079676801,0.3149999999995998,4.0,0.0060993569257852,0.0111264163696558,0.9800352038084452,0.1738214354576405,0.0160050021341249,-0.2158196280738785,0.9993070244328398,-0.0059298240852334,-0.0013810652806933,0.0367205768499374,0.3089999999997417,5.0,-0.0051161313350002,-0.0089902604745349,0.9797030164375136,-0.0672551446657014,0.0349748393713435,0.0264984059634343,0.999933878514254,-0.0089628666944345,0.0048490945078033,0.0053284052505009,0.3089999999997417,6.0,0.0018913294980755,-0.0032269606240597,0.979807128774771,-0.0199225480733968,-0.0124417091190088,-0.0175565067288182,0.9999883536327144,-0.0035947170639517,-0.0026740440029055,-0.0017944628260868,0.3089999999997417,7.0,-0.0035628205943316,-0.0095554256615399,0.9803331067294622,-0.0284917540321105,0.0323136701952245,-0.0354807220187946,0.9999538157181204,-0.0086754565483818,0.0026376956804793,-0.0031851916654551,0.2469999999998435,8.0,0.000958162482084,-0.0002841104520649,0.979053114598952,0.0031473515432185,0.0041781433074849,0.0225023882726658,0.999998669427019,-0.0013704215367781,5.830323413235391e-05,-0.0008830004167869
5,5,0.366,0.0,0.0042409332358464,0.0068551380369744,0.9803805493622276,0.0543074664160957,-0.0205722353132129,0.0422931029170782,0.99987075970602,0.0092046521636056,-0.0030708190699699,0.0128182812300634,0.367,1.0,0.0012919491451756,-0.0015248477652753,0.9795029380796664,0.0327304866455446,0.0159287867412964,0.1273394966853822,0.9999590076449276,-4.38282673947241e-05,0.0006450020188989,-0.0090313388404158,0.368,2.0,-0.0014448016792197,-0.0016387316378597,0.980421963802692,0.0328733420943375,-0.0089592504724513,0.2787095230764842,0.9999819297410552,0.0004736613178754,0.0003510673333534,-0.0059826907022251,0.368,3.0,-0.0090075267935736,-0.010174152780032,0.9810669452571888,0.1199540185097252,0.0454330797782159,-0.2279034176979193,0.9986842766209946,-0.0032984653835733,0.0107221334490224,0.0500387011263836,0.368,4.0,0.0068282752458422,0.0041662450612589,0.9798780623420734,0.2041904190284768,0.0409890154183015,-0.4396212173146183,0.9998783541403437,0.0050539905038261,0.0009520718112775,0.0147250691289098,0.3829999999998108,5.0,-0.0068454712620479,-0.0132339861176853,0.9797162860413404,-0.0705662488141971,0.0291093274934884,0.0077398362718932,0.9998893523217994,-0.0122775282719953,0.0061511447071752,0.0057191635589375,0.3839999999995598,6.0,0.0018913294980755,-0.0032269606240597,0.979807128774771,-0.0019555618040373,-0.0080610103476537,-0.0305538788047242,0.9999841429223424,-0.0034945036092244,-0.0029110651836826,-0.0033208504768574,0.3839999999995598,7.0,-0.0062642045975806,-0.0114785466974548,0.980268842056338,-0.0397155336112334,0.024153400928855,-0.0337571503722714,0.9999266753922524,-0.0103785518961992,0.0038916582311154,-0.0048769350771872,0.3089999999997417,8.0,0.000958162482084,-0.0002841104520649,0.979053114598952,0.0037917827249709,-0.005275718263386,-0.0080195942709964,0.9999985817292028,-0.0010585994953522,-0.0002608246819547,-0.0012836966840055
6,6,0.4179999999996653,0.0,0.0043956989226811,0.011419274067035,0.9800001418422156,0.0560885418065806,-0.0126523009544468,0.0201283080220625,0.9998297521577416,0.0116785513672137,-0.0035888156012917,0.013827456047025,0.4209999999998217,1.0,-0.0012103779277192,0.0028872081528363,0.9800245910253244,0.0419915774627275,0.0232667403823016,0.0498117505860144,0.999974552807054,0.0022200492310791,0.0017797331349468,-0.0065419927936533,0.4209999999998217,2.0,-0.0014530319884258,0.0013523003910092,0.980190318245234,0.0399960450830789,0.0071342086273481,0.109532814250404,0.9999964881208292,0.0024995629420637,0.0007207169270979,-0.0005064565308668,0.4219999999995707,3.0,-0.0079382274194686,0.0074149592071837,0.979850500293485,0.1546293480317729,-0.001102789085017,-0.3285326930062054,0.9993704043787957,0.0049431910238178,0.0104840051750282,0.033532750405457,0.4219999999995707,4.0,0.0059787093881643,0.024763976459852,0.9799862246500955,0.1990359551972451,0.0026403783891442,-0.3288067914913624,0.999873886711761,0.015748081211315,0.0011077641419555,-0.0017266929907995,0.44399999999996,5.0,-0.0085748111890956,-0.0174777117608358,0.9797295556451672,-0.0778720252381977,0.0398558155303579,0.0197059847978577,0.9998203917803922,-0.0158422650913605,0.0079542093213214,0.0067035342134496,0.4449999999997089,6.0,0.0018913294980755,-0.0032269606240597,0.979807128774771,3.667761542215648e-05,-0.0016514647855242,0.0016596482672124,0.9999853705105106,-0.0033087286041311,-0.0027982314273712,-0.0032374343020516,0.4449999999997089,7.0,-0.0080525490789135,-0.0131145577828416,0.9799148763170668,-0.0121629612506526,0.0292270378854814,-0.0021383967613252,0.999916774095298,-0.0106091865482861,0.0053796420256955,-0.0049949469778683,0.3839999999995598,8.0,0.000958162482084,-0.0002841104520649,0.979053114598952,0.0091386320726007,-0.0113217443279283,-0.0321673291943535,0.9999953273154428,-0.0005106882041952,-0.0008511486009709,-0.0028913821776987
7,7,0.4529999999999745,0.0,0.0040765930519122,0.0146674560712425,0.979410663165093,0.0584399525526724,-0.0168164754904171,0.010121558697381,0.9997875562533864,0.0141934030179248,-0.004235081254865,0.0143336582356742,0.4539999999997235,1.0,-0.0031483016454827,0.0051744798007494,0.9801379050702717,0.0467992044105365,0.0254220938684842,-0.0269927975692508,0.9999536627491968,0.0046088066412993,0.003022582434834,-0.0078927340784752,0.4539999999997235,2.0,-0.0021437622518738,0.0036539793544163,0.9797158020151994,0.049020472014677,0.0266701412011064,-0.0431394623187125,0.9999823126036332,0.004886229194102,0.0021007344406393,-0.0026619840273564,0.4539999999997235,3.0,-0.0070231355779031,0.017562018571877,0.9794035179997752,0.2051667826202332,-0.0436242437670821,-0.2610422542288905,0.9996385846466508,0.0155230778040793,0.0081883239322789,0.0203638280367272,0.4549999999999272,4.0,0.0063417165473058,0.0375979733907933,0.9795903097867696,0.2218512985268879,-0.039051651393014,-0.1345323499696907,0.9995942614676268,0.0271664505517301,-0.0011180325813698,-0.0084880155841768,0.504,5.0,-0.0095746343561105,-0.0201366408861124,0.9787649575208396,-0.0869614343674419,0.0463710127318287,0.0638211809461795,0.999708516682976,-0.0196266083285619,0.0099922070659326,0.0098910927097495,0.505,6.0,0.0018913294980755,-0.0032269606240597,0.979807128774771,-0.0036322403936056,-0.0058764459287345,0.0201124149317049,0.999987754850152,-0.0033282139821121,-0.0029042731302869,-0.0022312191793413,0.505,7.0,-0.0089655886008296,-0.0134016677333697,0.980204577383214,0.0034282626449166,0.0292580670536397,0.0259445513646556,0.9999196981592124,-0.0100438310970326,0.0067773157520347,-0.0037130420521976,0.4449999999997089,8.0,0.0012137262772743,0.0006197241529661,0.9787099380360342,-0.0026650362198533,-0.0030610789238229,0.0118222524240349,0.9999967153871656,-0.0005623354789845,-0.000980467046172,-0.0023003647669039
8,8,0.5529999999998836,0.0,0.0064054333895289,0.0183390197162142,0.9797207003931993,0.0445120516453523,-0.038973796134122,0.0033417537411784,0.9997493587280758,0.0159667109648273,-0.006043940377891,0.0144829088402558,0.5529999999998836,1.0,-0.0047735827824434,0.0090665701073636,0.979679544654224,0.05450291505716,0.0096239527675848,-0.0384303360821155,0.9999189824110783,0.0073354349377888,0.0034340142207303,-0.0098197532860427,0.5529999999998836,2.0,-0.0021519925610799,0.0066450113832853,0.9794841564577416,0.0427831534844437,-0.0098700376874186,-0.0023837538857111,0.9999713563542976,0.0068746249940089,0.001501243102773,-0.0027878793525324,0.5539999999996326,3.0,-0.0037312770310059,0.0336291537306804,0.9795076097668032,0.2421743845747234,-0.0678160561162327,-0.2190426938312192,0.9995602823798476,0.0277629367587929,0.0047548988347158,0.0092656445171438,0.5539999999996326,4.0,0.007540544464473,0.0528535452011991,0.9776331842510482,0.2171565198562046,-0.000750832627169,-0.3555560407682363,0.9989327423719244,0.0380065360689426,-0.0008678545964721,-0.0262321608287696,0.5649999999995998,5.0,-0.0117109091680733,-0.0230368646873897,0.9786067430136745,-0.0947212173263605,0.0496670822142888,0.0408851127913026,0.9995778353369124,-0.0235846901991153,0.0120631692518531,0.0119328722018211,0.5649999999995998,6.0,0.0019052297882274,-0.0022794488911112,0.9794877100873738,-0.0047788231426609,-0.011495622150161,-0.000430853097058,0.999986450707634,-0.0033521282842334,-0.0032851565549959,-0.0022515291523327,0.5649999999995998,7.0,-0.0089655886008296,-0.0134016677333697,0.980204577383214,-0.0138241381662235,0.0184889767268904,0.0006603374896141,0.9999110110232596,-0.0104087904886577,0.007486688610984,-0.0036846449826807,0.5649999999995998,8.0,0.000958162482084,-0.0002841104520649,0.979053114598952,-0.0160147706008665,-0.006640815917777,-0.0105988489501785,0.9999943229029298,-0.0013217019716249,-0.0012622169898751,-0.0028309140007764
9,9,0.5869999999999891,0.0,0.008260402169542,0.020694629335333,0.979821666464194,0.0267324668248444,-0.0312273090882878,-0.0201448619316145,0.9997411632738898,0.0167968592473846,-0.0073703406406485,0.013459199605988,0.5869999999999891,1.0,-0.0056713181293598,0.0135585969189009,0.9795539804422556,0.0631458820005855,0.0127432828728394,-0.0136507843521457,0.999882158765652,0.0104575193487291,0.0039864709385862,-0.0105079455968487,0.5869999999999891,2.0,-0.0001044926983542,0.0087130705796712,0.9802127684754725,0.0386424347111953,-0.0269687781144598,0.0218532739108545,0.9999618928852908,0.0085615239658535,-7.920694628262105e-06,-0.0017067577188577,0.5869999999999891,3.0,-0.0027390814231706,0.047497239406635,0.9786758961380964,0.177790646849814,-0.0346657914310436,-0.4393718918131415,0.9992565356828964,0.0361966069512401,0.003586045761343,-0.012779742408647,0.5869999999999891,4.0,0.0044894140006934,0.0636044196015109,0.9773025749321884,0.1334075331826161,0.0490195891484835,-0.6127388936523629,0.9974116617042792,0.0441739857516723,0.0025284731306943,-0.0566766521836534,0.6119999999996253,5.0,-0.0142119423600527,-0.026729486747604,0.9789374623705868,-0.0920388274617023,0.0476074013662937,-0.0314881017696993,0.9994791496831588,-0.0272465454172256,0.0138474936111848,0.0103586694196425,0.6119999999996253,6.0,0.0019680549113028,-0.0019614581289644,0.9804337200657036,-0.0116102750931922,-0.0099915470840898,-0.0268653559494224,0.9999803766816636,-0.0036943864774894,-0.0035600058156432,-0.0035950130383625,0.6119999999996253,7.0,-0.0098408935602463,-0.0147505688682283,0.9795609105777954,-0.0155797639367715,0.0108237530027551,-0.0492194449625915,0.9998914403302818,-0.010914194727558,0.0077601702781104,-0.0061455402478769,0.6119999999996253,8.0,0.0016607611689779,-0.0014720555091612,0.9793615649620508,-0.0228722184274591,0.0038182904903891,-0.0039251232829436,0.9999919870669256,-0.0024077381176462,-0.0010268914178755,-0.0030288765433055
10,10,0.6479999999996835,0.0,0.0105487250567572,0.0214579864960115,0.9793963851348512,0.0047185553791864,-0.0392821601525709,-0.0656398113543025,0.99977119525139,0.016505957308296,-0.009063189129921,0.0101473701883028,0.6519999999995889,1.0,-0.0056920075403419,0.0175306581189408,0.9784484028685814,0.063505580846797,-0.0077004096103117,0.0586036211333756,0.9998743105520316,0.0134929174088901,0.0034113191463128,-0.0075938909380201,0.6519999999995889,2.0,0.0005697769466815,0.0123934556740022,0.9802239935905914,0.0596646301032315,-0.0215107484551036,0.0637034359920698,0.9999341976514028,0.0113185597499443,-0.0011538780304307,0.0014694005319034,0.6519999999995889,3.0,-0.0032306473679197,0.0542556512116153,0.9789626587511844,0.078078938788328,0.0119253665712713,-0.3730169180726163,0.9987280990084918,0.0391805928695094,0.0046328448209843,-0.0313943011093176,0.6529999999997926,4.0,-0.0013607107537452,0.0674399071139636,0.9775576747152592,0.0434126816464135,0.0254087091381099,-0.3942464421510928,0.9960477759387356,0.0453755522848309,0.0041870968958924,-0.0762388058794796,0.7129999999997381,5.0,-0.0151695890221687,-0.0315243159736905,0.978633282221328,-0.0564845784461055,0.0266024826861376,-0.063636258629452,0.9994488905961456,-0.0290203489652665,0.014428597175421,0.007179833954721,0.7129999999997381,6.0,0.0028892572438789,-0.0032601779555935,0.9797520213973928,-0.0169003682294555,-0.0127461326956856,-0.0418235638027207,0.9999664716175248,-0.0043316858826311,-0.0039941556670605,-0.0056867265381447,0.7129999999997381,7.0,-0.0098408935602463,-0.0147505688682283,0.9795609105777954,-0.006184630848779,8.723567792209174e-05,-0.0495283383420686,0.9998755265816504,-0.0109008663608505,0.0074702792087978,-0.0086195930410083,0.7139999999999418,8.0,0.0016607611689779,-0.0014720555091612,0.9793615649620508,-0.0045222455956418,-0.0072619601274063,-0.0352082791958856,0.9999845428748156,-0.002467773292804,-0.0013755124427951,-0.004788744296924
11,11,0.7179999999998472,0.0,0.0119298222791666,0.0224976420892773,0.9792882800487354,0.0023223229581205,-0.0150119290208552,-0.0727257746377036,0.9998035795097544,0.0161664357690625,-0.009444577426877,0.0064999008634359,0.7179999999998472,1.0,-0.0048013193153846,0.0208553153989854,0.9795223341774504,0.0572752471074779,-0.0088302749259417,0.0349276634082767,0.9998496229171356,0.0160757133810077,0.0028158588279569,-0.0058629285186283,0.7179999999998472,2.0,0.0020503643566661,0.0156577160797645,0.979150464399201,0.0547972804615103,-0.0375534958174076,0.0963272380507585,0.9998814451949888,0.013722917455862,-0.0030815088683314,0.0062674870861205,0.7189999999995962,3.0,-0.0051498681524685,0.0534091050998518,0.9781880935435912,0.0132239495155417,0.0247886043617965,-0.0107366011635579,0.9987268128261048,0.0386934990497949,0.0055847736446521,-0.0318806646234386,0.7189999999995962,4.0,-0.0022142451594755,0.0669191264813063,0.977574001101376,0.0259662996833861,-0.0439264970426344,0.0846149503950198,0.9963623689589935,0.0453967831902411,0.0011415106902908,-0.0721100461221912,0.7799999999997453,5.0,-0.0163779291132597,-0.0355065271046078,0.9794590598748528,-0.0317926365108176,-0.005165125731937,-0.0342309379819693,0.9994572436974952,-0.0295475810216768,0.0134883400188912,0.0054975594501536,0.7809999999999491,6.0,0.0038732846995303,-0.0042409070200757,0.9800163327074116,-0.0221824088624515,-0.0066486395903984,-0.0239660476757924,0.9999541398758468,-0.0052221783741018,-0.004123485072243,-0.0068879510047048,0.7809999999999491,7.0,-0.0095342356582186,-0.0157020994665133,0.9795843722838564,-0.0089330444586224,-0.0065735809413307,-0.0605744368067811,0.9998473251070288,-0.0110799235003032,0.0068583705063521,-0.011641500141488,0.7809999999999491,8.0,0.002618923651062,-0.0017561659612261,0.9793268387622318,0.0103490318484181,-0.0007710048809932,-0.0197527163239213,0.9999807135444474,-0.0017926808769016,-0.0014140368828732,-0.0057757539858706
12,12,0.8139999999998508,0.0,0.0128370479439724,0.0222213436566901,0.9789711038055084,0.0010564678537488,-0.0236530508259121,-0.0622158220624462,0.9998169704077372,0.0157784902090284,-0.0102811781600692,0.0033708021387554,0.8139999999998508,1.0,-0.0050530800897131,0.0245849183278849,0.979358998617166,0.030265166440346,-0.0046570337057959,0.0340084768614364,0.9998395035343436,0.0172408981558131,0.0025138138555682,-0.0041712519556372,0.8139999999998508,2.0,0.0055068801678467,0.0177389781461078,0.9799994912882096,0.0220068467044125,-0.0357427318934611,0.0884747780188457,0.9998280597422656,0.0143549087477917,-0.0048920035991588,0.0106703255641566,0.8149999999995998,3.0,-0.0073344202597926,0.0532314215416316,0.9786309938072216,0.0045851842846478,0.0261224791838436,0.0330957333876137,0.9988069498086508,0.037831349236123,0.0065485303852816,-0.0301758641749775,0.8149999999995998,4.0,0.0003463580577153,0.0684814683792784,0.9775250219430264,0.0393371274322544,-0.0436170629853829,0.1307101127363036,0.9967709944368144,0.0461526183989896,-0.0018595749321237,-0.0656815228617066,0.8669999999997344,5.0,-0.0157203007993698,-0.0376626470416504,0.9785005861830608,-0.0448317220298688,0.0073030250880604,-0.0084022073447186,0.9994254335361192,-0.0307686947293334,0.0132715491212722,0.0050947237133085,0.8669999999997344,6.0,0.0038593844093784,-0.0051884187530242,0.9803357513948088,-0.0004809147500773,-0.0071800265692242,-0.0043808444709547,0.9999531999524932,-0.0049915486999972,-0.0042660619002126,-0.0071051433629768,0.8669999999997344,7.0,-0.0098408935602463,-0.0147505688682283,0.9795609105777954,0.0125843168496228,-0.0026635974584791,-0.0419003632160192,0.9998332840918293,-0.0101056546915395,0.006521845174734,-0.0137384606459272,0.8679999999999382,8.0,0.002618923651062,-0.0017561659612261,0.9793268387622318,0.0060502593195127,-0.0018933460458365,-0.0035324148678328,0.9999801763232192,-0.0014016353034204,-0.0015024829448742,-0.0059518840765277
13,13,0.8829999999998108,0.0,0.0141038969299487,0.0216050697041884,0.9799787247968532,-0.0188227458500768,-0.0106761965223519,-0.0412372126862978,0.9998407867675708,0.0143870787104541,-0.0104759714086328,0.0012911642921444,0.8829999999998108,1.0,-0.0043255342996688,0.0251848548328079,0.9796917948212454,-0.0032148521977097,-0.0055870088801911,-0.0253799895401756,0.9998442934036836,0.0166376650934808,0.0022202432386873,-0.0054449580610527,0.8829999999998108,2.0,0.0084129441446984,0.0150343773640893,0.9795096680830122,-0.0124711483349931,-0.0156169779546611,-0.0233912083701429,0.999853742373796,0.0130819126576107,-0.0055960535090334,0.0094890256326854,0.8839999999995598,3.0,-0.0073344202597926,0.0532314215416316,0.9786309938072216,-0.0002484179376405,-0.0076735053418875,-0.0216427651059431,0.998818403963384,0.0367440441552397,0.0058429406101117,-0.03126549484948,0.8839999999995598,4.0,0.0040680673467675,0.068148458731293,0.9777199181772924,-0.0129516810817553,-0.0013004001732997,-0.0557923395548671,0.9966658843354356,0.0443507184779972,-0.002007535765986,-0.068455084343662,0.9379999999996472,5.0,-0.0151993009634129,-0.0374011325294171,0.979313094232759,0.0241338938625957,-0.0125842936986647,0.0018932268399449,0.999510219875812,-0.0283936661162569,0.0120902161879495,0.0051910269517215,0.9389999999998508,6.0,0.0038593844093784,-0.0051884187530242,0.9803357513948088,-0.0029203038534311,-0.0136244846271231,-0.006664953655193,0.9999491910697756,-0.0049078360844533,-0.0047161992079537,-0.0074354481304727,0.9389999999998508,7.0,-0.0086589306988019,-0.0143531983316548,0.9802280390892752,0.0226401084217654,-0.0141507590912438,-0.0366538047146877,0.9998252331052792,-0.0087108510762011,0.0055823656295667,-0.0155711757256791,0.9389999999998508,8.0,0.002618923651062,-0.0017561659612261,0.9793268387622318,-0.0086947089542421,0.0050048826819552,0.0006035908731571,0.9999801072183518,-0.0017852102190268,-0.0012325278290075,-0.005922758411275
14,14,0.918999999999869,0.0,0.0140633794795472,0.0186968632198954,0.9792434062394042,-0.0393885932529585,0.0083304838477753,-0.0307769218396964,0.9998813881288282,0.0119500891996972,-0.009712698551652,-0.0002617795475021,0.918999999999869,1.0,-0.0047197480979281,0.0222176757865461,0.9798929017298452,-0.040181798485572,0.0055285744064311,-0.1056779454535139,0.9998399058791472,0.0140893990707538,0.0025945366969441,-0.0107200664518125,0.918999999999869,2.0,0.0069681424654787,0.0133956457262295,0.9799862252430686,-0.0255627499773996,0.0461442853073994,-0.1755562426300466,0.999932430072591,0.0112090657090439,-0.0029918638008196,0.0007354495569073,0.918999999999869,3.0,-0.005321085696991,0.0518830232209929,0.9789891919467012,-0.0424598499796428,-0.0320725248592196,-0.0496931152626328,0.9988582228509508,0.0335384844309132,0.0039953498364921,-0.0337854685449447,0.919999999999618,4.0,0.0038296762732993,0.0627954137414061,0.978256648120874,-0.0640065322328351,0.0099688485193573,-0.0242823016411979,0.9967710886041656,0.0399457954617771,-0.001456461740243,-0.06963913459393,0.9529999999999744,5.0,-0.0139487843674233,-0.03555482149931,0.9791477345543026,0.0206361055827911,-0.0160709175543332,0.0093396459098631,0.9995788859041256,-0.0263314297015616,0.0107981768825487,0.0056662192466829,0.9529999999999744,6.0,0.0038593844093784,-0.0051884187530242,0.9803357513948088,0.0093239091374664,-0.0081639203985094,-0.0035943015703312,0.9999503668398668,-0.0042191466793743,-0.0048518477253627,-0.0076106656583512,0.9549999999999272,7.0,-0.0077458911768857,-0.0140660883811266,0.979938338023128,-0.0020810283713553,-0.0132577777588172,-0.0046364273131655,0.999826291287322,-0.0086668024889906,0.0047672796967292,-0.0157970512928513,0.9549999999999272,8.0,0.002618923651062,-0.0017561659612261,0.9793268387622318,0.0056019207037256,0.000675472532139,-0.006763747342056,0.9999786649143146,-0.0014164343607423,-0.0012108162596676,-0.006260779014786
15,15,1.018999999999778,0.0,0.0126822822571378,0.0176572076266296,0.9793515113255202,-0.0307178658187676,0.0104400207889814,-0.0111151492685569,0.999909127089349,0.0101259727991181,-0.0088610403659682,-0.0008271649896709,1.018999999999778,1.0,-0.005528865105429,0.0202553788940623,0.9791895379733712,-0.0385007436052612,0.0100104800438074,-0.0518771141159568,0.9998370047014236,0.0117913834581436,0.0031578825124967,-0.0133024465368443,1.018999999999778,2.0,0.00556735682623,0.0103914108274031,0.9800974559292488,-0.0498133714564905,0.0086830887215565,-0.0413235063549714,0.9999628410887968,0.0081336848402886,-0.0025271462991672,-0.001331594579047,1.018999999999778,3.0,-0.0036881932887025,0.0491821215292687,0.9791861498980394,-0.0347898353671753,-0.0078265662750467,-0.0005583816298565,0.9989432156612208,0.030947538734618,0.0033679460637243,-0.0338135870620167,1.018999999999778,4.0,0.0037673682304626,0.059054937770879,0.9781862405807462,-0.0372768734135568,-0.0135817196769933,0.023257909293493,0.9969607205466136,0.0370377019412736,-0.0023026733217348,-0.0684998395447722,1.0929999999998472,5.0,-0.0131770911024917,-0.0361059250822462,0.978830284801217,0.0073008354343499,-0.004654508690571,0.002186822194441,0.9996147418908968,-0.0251780127152284,0.0101528873716168,0.005775322339664,1.0929999999998472,6.0,0.0038593844093784,-0.0051884187530242,0.9803357513948088,0.0143067896429499,-0.0042086343404164,0.0050769064400754,0.9999559513676008,-0.0033508674892253,-0.0047764986808602,-0.0073520114212227,1.0929999999998472,7.0,-0.0071395095569973,-0.0128274478323134,0.9796251752509196,0.0163256935304684,-0.0058161472208501,0.0119512361830188,0.9998457813532656,-0.0076345201799371,0.0043661171797448,-0.0152008102571014,1.0929999999998472,8.0,0.002618923651062,-0.0017561659612261,0.9793268387622318,0.0054812209348911,-0.0013640630895506,0.0065922605080403,0.9999809810016496,-0.001092057969006,-0.0012924380623205,-0.0059308218844831
16,16,1.0479999999997744,0.0,0.0130585122461233,0.0152369903953058,0.9793831269639124,-0.0360795100913699,0.0023640918889189,0.0251558905521352,0.9999309005483288,0.0080756611497367,-0.0085325905150341,0.0004156016191355,1.0479999999997744,1.0,-0.0056104363228854,0.0188930185065015,0.9788189704209764,-0.0381419959675424,0.0041482048261826,0.0402442996861825,0.9998839277052092,0.009683095856782,0.0033290338804376,-0.0112821232423345,1.0489999999999782,2.0,0.005611372866201,0.0090259075664365,0.9797321294553726,-0.0376223747872041,-0.0015647429778625,0.0519567157456416,0.9999783235613072,0.0058927559899828,-0.0026524204019466,0.001261943093489,1.0489999999999782,3.0,-0.0044490775977288,0.0464771147870979,0.9788636695217556,-0.0243631342382338,0.0148491607240065,-0.0259397210294805,0.9989546716918336,0.0290349784472437,0.003998468347163,-0.0350791417013825,1.0489999999999782,4.0,0.0044448196055613,0.0579631493841765,0.9787770516783388,-0.0170601124063314,-0.0003914796212816,-0.0384715247842248,0.9968859934881776,0.0354213833695826,-0.0023939572628007,-0.0704124318277505,1.156999999999698,5.0,-0.0118125095554605,-0.0326545976980327,0.9793059490614676,0.0443948805920874,-0.0208139833088967,0.0104532773182094,0.999697941828476,-0.0220996426598015,0.0087147836539346,0.006299479667679,1.1579999999999018,6.0,0.0038593844093784,-0.0051884187530242,0.9803357513948088,-0.0094743247521495,-0.0020891432550523,0.0070507443985695,0.9999578827398488,-0.0037579890125781,-0.0045933828999331,-0.0070007927090273,1.1579999999999018,7.0,-0.0071395095569973,-0.0128274478323134,0.9796251752509196,0.0137324731695179,-0.0064073564151209,0.0218685830477978,0.999869201280703,-0.0068336630502215,0.0039804879269995,-0.0141080507323952,1.1579999999999018,8.0,0.002618923651062,-0.0017561659612261,0.9793268387622318,1.195608128956052e-05,-0.001428086964815,0.0120137044611792,0.999984283758889,-0.0010739069681264,-0.0013671314589102,-0.0053300948040077
17,17,1.1589999999996508,0.0,0.0134347422351089,0.0128167731639818,0.9794147426023048,-0.0337289380977977,-0.0206453727452125,0.0244097186291023,0.9999350836475585,0.0062262562765906,-0.0094053029084267,0.0016132268065021,1.1589999999996508,1.0,-0.0049644617502976,0.0181305946238638,0.9787811990726606,-0.0222157111172055,-0.0164101967708812,0.1499988080766429,0.9999534942735254,0.0085483315578732,0.0023670882918967,-0.0037857906389058,1.1589999999996508,2.0,0.0063378888604139,0.0083497573709319,0.9796096736540733,-0.0189511253313383,-0.0201487202529179,0.1413453492028902,0.9999469860961764,0.0047649228269116,-0.00375229440092,0.0083211053565864,1.1599999999998545,3.0,-0.0053040756850079,0.0459670524773294,0.9789575562135848,-0.000575030375462,0.0217645794800084,-0.0264183084104772,0.9989203729838936,0.0284895286835277,0.0049126138197082,-0.0363634626867113,1.1599999999998545,4.0,0.0044448196055613,0.0579631493841765,0.9787770516783388,0.0055377892495035,0.0046551957888168,-0.0216757289011059,0.996821446952166,0.0351081405800509,-0.0023382656300747,-0.0714769464585923,1.2549999999996544,5.0,-0.0113336862244023,-0.0302571830849894,0.979458039136097,0.0250206521191576,-0.0049874388532903,0.0216490943436636,0.9997356839305857,-0.020175533713441,0.0081923273237269,0.0073753568214083,1.2549999999996544,6.0,0.0038593844093784,-0.0051884187530242,0.9803357513948088,0.0069591974895754,-0.0080188125974718,0.0136718824845702,0.9999634158532824,-0.0033061808206663,-0.004730127428402,-0.0063136374561598,1.2549999999996544,7.0,-0.007446167459025,-0.0118759172340284,0.9796017135448584,0.0011794389545576,0.0015190007825465,0.0461897973322966,0.9998998130221872,-0.0066817387448189,0.004061513874141,-0.0117992538150228,1.2549999999996544,8.0,0.002618923651062,-0.0017561659612261,0.9793268387622318,0.0017301672742951,0.0006601736613771,0.0121816260803505,0.9999874996190258,-0.000971038469182,-0.001330509480696,-0.0047209569476878
18,18,1.1879999999996471,0.0,0.0142848437816981,0.0117125099585109,0.9796554293978084,-0.0114580131478053,0.002311776433289,0.0372980942090271,0.9999369218867794,0.0056119037864487,-0.0090885852248669,0.0034722330127797,1.1879999999996471,1.0,-0.0042369159602533,0.0187305311287869,0.9791139952767396,0.0152152917133642,-0.0087645721951832,0.0905723911546825,0.9999536266386838,0.0094203742957388,0.0018593193623519,0.0007375986581367,1.1889999999998508,2.0,0.0084294047631106,0.0090523133063512,0.979972959197928,0.0081141600652976,-0.0250270987739458,0.1150659943137177,0.9998748594839828,0.0051482318457713,-0.0050806362870719,0.0140694070829677,1.1889999999998508,3.0,-0.0057786316177738,0.0468094935386462,0.979212683093556,0.0136548066513738,-0.0011571145638471,0.0251152398286493,0.9989604483781348,0.0287238907253403,0.0045105304609226,-0.0351086284653121,1.1889999999998508,4.0,0.0042510229272252,0.0582513746116239,0.9778393048757698,0.0173190259243607,-0.0209571242756414,0.0445124476691605,0.9969640528197644,0.0353319154079176,-0.0037187029775814,-0.0692856723064876,1.3149999999995998,5.0,-0.0113336862244023,-0.0302571830849894,0.979458039136097,-0.0048456545240489,0.0092139908687336,0.0134596011089379,0.9997333358268822,-0.0199462894989328,0.0084122689174084,0.0080396830372985,1.3149999999995998,6.0,0.0038593844093784,-0.0051884187530242,0.9803357513948088,-0.0017741121977667,-0.0039956988343324,0.008287198387729,0.9999662362017264,-0.0033333444038107,-0.004650117114485,-0.0058984474618534,1.3149999999995998,7.0,-0.007446167459025,-0.0118759172340284,0.9796017135448584,0.0050037428534313,-0.0035942581619628,0.0194374942312216,0.9999136647845934,-0.0063631562521166,0.0038660512044572,-0.0108271357080055,1.3149999999995998,8.0,0.0014051973737877,-0.0023758901141923,0.9797047415249688,-0.0143909592060319,0.0057549457261307,0.02325750077671,0.9999917191011504,-0.0017152567364003,-0.0009754623540613,-0.0035592269736514
19,19,1.2519999999999527,0.0,0.0138109722240944,0.010396555932658,0.9794463582406971,-0.0163447113589525,0.0002317192556649,0.035587701554346,0.9999355192447876,0.0047504214003146,-0.0088825337109281,0.0052432283996121,1.2529999999997017,1.0,-0.0041553447427968,0.0200928915163477,0.9794845628291348,0.0103009234716477,-0.0049551495907785,0.0451509634414521,0.999943986412069,0.0100230698061448,0.0016162304096995,0.0029916398954004,1.2529999999997017,2.0,0.0084294047631106,0.0090523133063512,0.979972959197928,0.0079336866300639,-0.0054036136641063,0.0512512428570207,0.9998327015897942,0.0054886355168875,-0.005274696900166,0.0166319356789226,1.2529999999997017,3.0,-0.0053040756850079,0.0459670524773294,0.9789575562135848,-0.0096419055106714,-0.0137531354896925,0.0233741934389051,0.9990330361797718,0.0277048152339524,0.0035452682042973,-0.0339538938509095,1.2529999999997017,4.0,0.0049284743023239,0.0571595862249216,0.9784301159733624,-0.0114516244834149,0.0036145391868021,0.0511241594056945,0.9971807562244646,0.0341233752549471,-0.003667200753881,-0.0667284520684086,1.376,5.0,0.0012730801228812,-0.0021763397732749,0.9771052363037424,-1.8763470054764064,1.2029934359416252,-1.9082276385125008,0.9882751650995022,-0.1118780440381502,0.0554552161018197,-0.0878647842815869,1.376,6.0,0.0064540979080217,0.0282980286517374,0.9889916916711784,0.8979889490523185,-0.553507458907748,-3.839273705237365,0.979774534115184,0.0431628192300539,-0.0235227018413113,-0.1939729770704483,1.376,7.0,0.0097615538927442,0.0346625705248581,0.9798536718664724,-3.4073272464340727,0.3173139219820214,-3.662267858815515,0.9666848539488168,-0.1690634119738818,-0.0109545809198823,-0.1918800485578783,1.377,8.0,-0.0647815704015455,-0.1070995275983302,0.9605665199893882,0.4810447842813702,2.32114842517934,0.1981728236475341,0.9929098260108016,0.0172712249121827,0.117445296368989,0.0061955275831116
20,20,1.3549999999995634,0.0,0.0133371006664909,0.009080601906805,0.9792372870835864,-0.0232665494357898,0.0084018242798492,0.0257302934136875,0.9999382417560242,0.0035656539455803,-0.0082633799377573,0.0065203786558603,1.3549999999995634,1.0,-0.0035093701702089,0.0193304676337099,0.9794467914808188,-0.0045788832967447,-0.0114688553036217,0.070018531871197,0.9999305546558692,0.0097852620071718,0.0010283238468969,0.0064866835226412,1.3549999999995634,2.0,0.0091559207573236,0.0083761631108466,0.9798505033966286,-0.0084126070758525,-0.0273847953807971,0.0927448392419424,0.9997399250386791,0.0049526178861855,-0.0066060258212142,0.0212582756257231,1.3559999999997672,3.0,-0.0053040756850079,0.0459670524773294,0.9789575562135848,-0.0122700140871852,0.0103957714392253,0.002366398192751,0.9990638482600652,0.026693104307291,0.0039186331320428,-0.0338164101673455,1.3559999999997672,4.0,0.0049284743023239,0.0571595862249216,0.9784301159733624,-0.0192700615551758,0.0108976667977773,-0.0611600699720829,0.9970234736085922,0.032691856091012,-0.0030385213028999,-0.0697581751988481,1.4379999999996471,5.0,-0.0142838308061956,-0.0304704032025204,0.9789568564069492,-0.0040344839505483,0.0718333351105022,-0.0179556362797002,0.9892624490706088,-0.1022152808359223,0.0543055155224271,-0.0892342658752688,1.4379999999996471,6.0,0.0048712124453337,-0.0042741243516095,0.9799612253300328,-0.0110012242589415,-0.0240608467620034,-0.1467098432939758,0.9785545582825772,0.0380009580853233,-0.0221699242199295,-0.2012346841602373,1.4379999999996471,7.0,-0.0050514413578038,-0.0090012655998284,0.9796425165119214,0.0649964901648856,-0.0540284624580408,0.0687648293309677,0.9704333735424996,-0.150332412846669,-0.0122630027327835,-0.1884379259241573,1.4399999999995998,8.0,0.0008940697834072,-0.0041835593242546,0.9803910946508044,-0.1332173960913536,0.0574145507473659,0.1567749749602834,0.99393608288354,0.0096354771751775,0.1085329326592905,0.014792675556009
21,21,1.3789999999999054,0.0,0.0132799765482743,0.0082526371339212,0.9797951501223168,-0.027865075619948,0.0042229381288946,0.0365773761469183,0.9999314528232636,0.0022249344687247,-0.0079139183439983,0.00833721882957,1.3789999999999054,1.0,-0.0035909413876654,0.0179681072461491,0.979076223928424,-0.0350598772023295,0.0009175824863881,0.0749923662657686,0.9999151802997426,0.0079736429763446,0.0011193836086771,0.0102371970849277,1.3799999999996544,2.0,0.0106089527457494,0.0070238627198373,0.9796055917940298,-0.0466219411391563,-0.0224748293687926,0.078388350190424,0.9996510832532576,0.0024949392122537,-0.007661756990996,0.0251552083817081,1.3799999999996544,3.0,-0.006159073772287,0.0454569901675608,0.9790514429054143,-0.0284593031442317,0.0301230405757822,-0.0155837455574707,0.999076648842708,0.0249788361732244,0.0053348167935199,-0.0345463053080204,1.3799999999996544,4.0,0.0040749398965936,0.0566388055922642,0.978446442359479,-0.011568913870416,-0.0292939251374309,0.0642986072362698,0.9972684212017662,0.0316027031533963,-0.0046657062352156,-0.0665972703078859,1.4539999999997235,5.0,-0.0132542956979365,-0.0219346575215173,0.9792416425198456,0.1556839733870995,-0.0388477344991632,0.0132051993090469,0.991246331320919,-0.085537143611227,0.0471223754868643,-0.0888458746038683,1.4539999999997235,6.0,0.0046760607484231,-0.0096476645406456,0.9796662988103596,-0.0560388291618153,0.0121526672669554,0.0642094011944706,0.9794995986530054,0.0309809273188958,-0.0190310142552085,-0.1981376765723279,1.4539999999997235,7.0,-0.0006202499882225,0.0050447629419532,0.97991385624289,0.335879902630476,-0.0880709407100589,0.1242394097371027,0.975871387825963,-0.1197661442328098,-0.0177705831701904,-0.1817011598532764,1.4539999999997235,8.0,-0.0042275536475374,-0.0284194734752031,0.9797670444128792,-0.4040201479421509,0.0650775546459343,0.1309159369116136,0.9945398707562532,-0.0121936951252927,0.1009739241582968,0.0233671974229028
22,22,1.48299999999972,0.0,0.0149801796414526,0.0060441107229795,0.9802765237133236,-0.0772547724361609,-0.0034917040521935,-0.0324903404778441,0.9999437599015372,-0.0015311786073126,-0.008093139737887,0.0066808394107495,1.48299999999972,1.0,-0.0021967316140511,0.0138335586683946,0.9804768263578616,-0.0678522258569812,-0.0075782611694842,-0.0278514058206995,0.9999505403892436,0.0044903088300508,0.0007192942425876,0.0088451409069187,1.48299999999972,2.0,0.0135232470318073,0.0013282299089498,0.9793474141462906,-0.0864101092283017,-0.0183349192126873,-0.0551050732947836,0.999710855011696,-0.0019445251613688,-0.0086144254780286,0.0223655285509715,1.4839999999999236,3.0,-0.0058557353840435,0.043088467227385,0.9795974144285532,-0.0794784390732994,0.0031969588493758,-0.0557772486260365,0.9990750502255628,0.0207077223653189,0.0053787381837113,-0.0373001799832313,1.4839999999999236,4.0,0.0051560242779136,0.0529037723225868,0.9770750259256888,-0.0718365982608856,-0.0141153765585411,-0.0045682698384871,0.9973703000351584,0.0274945261654406,-0.0051006389086654,-0.0668619407543585,1.4659999999998945,5.0,-0.0109742439936879,-0.011552600810407,0.9793610689542864,0.1237349998199683,-0.0309846378597155,-0.1363891162125602,0.9919778828972096,-0.071891858552212,0.0404700157145275,-0.0957790078500724,1.4669999999996437,6.0,0.0046482601681192,-0.0115426880065426,0.980305136185154,-0.0050038195359826,-0.0082656416078161,-0.1236364933124598,0.9783980710794228,0.0270592083341198,-0.017434818408314,-0.2042083271060822,1.4669999999996437,7.0,0.0055923516785243,0.0238685043145049,0.9801790755287996,0.2386116652022084,-0.0887618529803544,-0.2095100057604741,0.9765390041356006,-0.0957856539884772,-0.0240158178763244,-0.1913633255970969,1.4669999999996437,8.0,-0.0164482013888921,-0.065792515170663,0.977138066814812,-0.6413052453630093,0.2929045159954599,0.1031334654543893,0.9928440843207252,-0.0459927229081207,0.1056965551768035,0.0312014726029815
23,23,1.5159999999996217,0.0,0.016263635295244,0.0033475950590684,0.9799909631084888,-0.1033231383418424,0.0273151749530889,-0.0579532793523152,0.999949719606098,-0.0063533101790408,-0.0067994936350266,0.0037363880635891,1.5159999999996217,1.0,-0.0027540878472234,0.0081416588470112,0.9799367981616716,-0.1171094784455703,0.0201377543142858,-0.186726537715338,0.9999973782627326,-0.001415931590556,0.0017333832039321,-0.0004837231240182,1.5159999999996217,2.0,0.0120866756617936,-0.0033015337577789,0.9800556168638048,-0.1313428112562828,0.0449603312658105,-0.2435938575528385,0.999893030122936,-0.0084162644200121,-0.006373890100447,0.0101226641638053,1.5169999999998254,3.0,-0.0035770694984665,0.0410712063532029,0.9787381470968096,-0.0964870915894502,-0.004781633502165,-0.0569643661899899,0.9990565077986124,0.0158947279202769,0.0049317026144711,-0.0401139646370648,1.5169999999998254,4.0,0.007495950069341,0.0472122749838647,0.9791076609971991,-0.1058853482121334,-0.0297265293213673,-0.069705161980989,0.9972623312040296,0.0217609960235301,-0.0061855129702661,-0.0703991565493718,1.5849999999995816,5.0,-0.0117881137635182,-0.0088655971266608,0.9790181007323032,0.0751005639384111,0.032397433866582,-0.1859646871274496,0.9918137345617204,-0.061626609969458,0.0377568259079316,-0.105271548747815,1.5849999999995816,6.0,0.0045576344647398,-0.0137557022345864,0.9799979635816184,-0.0615299625764192,0.0118392670669171,-0.291578007785314,0.975519685957746,0.0210045354489779,-0.0142667556788316,-0.2184413227433723,1.5849999999995816,7.0,0.0230511535002948,0.0368227204432905,0.9790049701515622,0.0970943831594298,-0.2876440954698491,-0.0579848954785423,0.9769627626395052,-0.0826408275870283,-0.0383623806845476,-0.1929833717700331,1.5849999999995816,8.0,-0.0354974369432572,-0.0875946058935329,0.9754661024294056,-0.0629398034499207,0.3029457192488736,-0.1039178127201576,0.9921723095011008,-0.0500762627938891,0.1115626249507972,0.0253032977680132
24,24,1.6179999999999382,0.0,0.0174494493804172,-0.0030850918620194,0.9795279469849358,-0.1351070533322038,0.0160686077854015,-0.0603795840953643,0.9999006204109824,-0.012609189710512,-0.0062705601813645,0.0006615977544075,1.6189999999996871,1.0,-0.0006459745725878,0.0007624238826377,0.9796162521246136,-0.1713851453328619,0.0439690349603811,-0.0942500281993291,0.9999314015705596,-0.009811126770367,0.0037491361779651,-0.0051843922065084,1.6189999999996871,2.0,0.0079283347840184,-0.0136797417152247,0.9800239824484692,-0.1758979463791834,0.0731827418249493,-0.1036345194631134,0.9998390387095848,-0.0170653784225501,-0.0026665380731481,0.0048537723775707,1.6189999999996871,3.0,-0.0033508348764927,0.0349816571017658,0.9796688499549452,-0.1563314494099347,0.0531653340703649,-0.0900868164019987,0.998944887745376,0.0083706169191752,0.0075445316806246,-0.0445210518911074,1.6189999999996871,4.0,0.0090784027951282,0.0407728843081252,0.9789341931447108,-0.1259688300325946,-0.0271469747919245,0.0316480601788763,0.997482902923619,0.0152397513203807,-0.0071102215688752,-0.0688843458559667,1.643999999999778,5.0,-0.0099149969441847,0.0028599614263225,0.9789660430557522,0.2245465221271694,-0.0387020506905359,-0.2253989257882816,0.9916770028258152,-0.0447792286497361,0.030872615243311,-0.1166980050214284,1.6449999999999818,6.0,0.0024572529796018,-0.0168497935325112,0.9801204244202374,-0.1176100230331064,0.0798802825631001,0.0580780713006607,0.9763682032392462,0.0131263995582284,-0.0076287440629307,-0.2155797569393427,1.6449999999999818,7.0,0.0269791691116548,0.0349397190860654,0.9791630816489312,-0.0039905847239653,0.0272775253048808,-0.1433875946071427,0.976370332209089,-0.0726433674878399,-0.0354008941512416,-0.2004262763093506,1.6449999999999818,8.0,-0.0539014315504731,-0.0931030149931743,0.973478538169173,-0.2381263426232616,0.2091610860914974,0.1670574110930213,0.9910562813109036,-0.0610329304036584,0.1136927075140395,0.0340058368324048
25,25,1.6479999999996835,0.0,0.0276577001102031,-0.006040037974751,0.979772713217651,-0.1079949271500096,0.0214449773489714,-0.004572083018851,0.9998365593200552,-0.0170539451207886,-0.0059900655510663,0.0003697533567232,1.6479999999996835,1.0,-0.0003126425808028,-0.0016048186587009,0.980150155237293,-0.1809020683168171,0.1304505263725992,-0.1543504677432506,0.9997070700677568,-0.0179488615120044,0.0098193869991567,-0.0129302771016296,1.6479999999996835,2.0,0.0030874939520014,-0.0247473027381324,0.9797494773605566,-0.2452236007345392,0.1149927556139076,-0.023179798039723,0.9995711750607928,-0.0289000794821114,0.0030908389609014,0.0035634404767642,1.6479999999996835,3.0,-0.0004654922144288,0.0282273503472321,0.9799015256694794,-0.1267834599227964,0.0452977572359646,0.067473340009702,0.9991093002521714,0.0027657376806912,0.009285514077199,-0.0410698925372337,1.6489999999998872,4.0,0.0121918413017445,0.0337624858783406,0.9793352100036984,-0.1252465999008447,-0.0295738388914625,0.120276341859628,0.9979424244266278,0.0089971413176026,-0.0082367182568964,-0.0629454164333801,1.711,5.0,0.028298654135093,0.1274927590568377,0.9783474753696751,-2.376687980875596,1.488499883815261,-3.7042817203726535,0.942744113932368,-0.1428648586960564,0.0825325434541049,-0.2898474548217157,1.712,6.0,0.0003558767467692,0.0130256147051089,0.9966444735778628,1.483520402494445,-0.7026301364462798,-5.773519844164436,0.8826188098150068,0.072359658762753,-0.0323976764941206,-0.4633557023521573,1.712,7.0,0.0774451473592129,0.2047106422969144,0.9819948075631024,-5.406714096227296,0.9990617889631092,-7.450507956914215,0.8184204560966345,-0.2534349215261252,-0.0387341335735046,-0.5142551550445881,1.712,8.0,-0.2318390525119825,-0.4694165823361088,0.9280219426060105,-1.381715619138448,4.652530544591351,0.3368550463154494,0.9328880284677888,-0.1453650201580002,0.327177161611308,0.0392943020794904
26,26,1.7089999999998329,0.0,0.0367538675408474,-0.0038145741049203,0.9786294509390095,-0.123564119905015,0.014545204798255,0.0223878276763993,0.999741687740176,-0.0217273848993868,-0.0065187467675585,0.0014087158830563,1.7089999999998329,1.0,0.0027470407252642,-0.0003249747554292,0.9801685304878248,-0.2400548484899332,0.1262490214184665,-0.0137877982026051,0.9993978703732658,-0.0280931960121808,0.0151421211041437,-0.0136156233669096,1.7089999999998329,2.0,-0.0010708469257736,-0.0351255106955781,0.9797178429452208,-0.2357805922305729,0.0922110288024434,0.0688435388866921,0.9991639607727916,-0.0395855886222493,0.0075308476426955,0.0069026806416061,1.7089999999998329,3.0,0.0046815063212288,0.0253717534621798,0.979306569785386,-0.1684127139882898,0.0156008142270952,0.1311988438932663,0.9993546752019123,-0.0045488729198247,0.0092200853193608,-0.0344170151806238,1.7099999999995816,4.0,0.0183495377223142,0.027510866187273,0.9793403119993596,-0.1827117739939794,-0.0033084454569909,0.2308653016341713,0.998641487162266,0.0002103774467023,-0.0080279765685447,-0.0514848273948945,1.7779999999997926,5.0,-0.0078559267276666,0.0199314527883288,0.9795356152815454,0.2481005831222289,-0.0172127495165681,0.128279613459733,0.9488504178595628,-0.115734967532705,0.070892555173223,-0.2850658650890145,1.7789999999999964,6.0,-0.0041157685859504,-0.0327711101104169,0.9795662891254876,-0.3451578010814895,0.1236211941154991,0.1265648338534814,0.8874652478171919,0.0510947188762895,-0.0150680602077482,-0.4577856672956227,1.7789999999999964,7.0,0.0188372825394082,0.030232147162651,0.9799036555011243,-0.1349541629451845,0.1309066937745784,0.0580493447023871,0.8235850455496441,-0.2312398677870981,-0.0270704811498835,-0.5172069076714945,1.7789999999999964,8.0,-0.0619511819918624,-0.0920539101295856,0.9731608955767104,0.1564166715418613,0.0989541096818795,-0.1375814625847064,0.9429925905554905,-0.1317520213281966,0.3042598737794039,0.0288497528779847
27,27,1.7919999999999163,0.0,0.0388874247412279,-0.0076153529743023,0.9785845771296786,-0.1114278241326492,0.05295350511782,0.00273299706733,0.9996598239349832,-0.0255165885849682,-0.005210526118871,0.0014108631502037,1.7919999999999163,1.0,0.0100560958541356,0.0033195660983179,0.9786535931661884,-0.1363853519649436,0.023128040179288,0.2596136300447885,0.9993872717732268,-0.0317253511950052,0.0147730632637723,-0.0005828473425363,1.7919999999999163,2.0,0.0012847652167492,-0.0426159743259584,0.977889169645818,-0.1342672732687834,-0.0770802068318961,0.4214645713234125,0.998614425596636,-0.0443151784330748,0.0037351106016595,0.0281325949663202,1.7929999999996653,3.0,0.0062372949632476,0.0189498254591943,0.9798882590717208,-0.1860111033243281,0.056208029262686,-0.0185199245584869,0.9992406949104208,-0.012344360024779,0.0110641178780006,-0.0352595477296588,1.7929999999996653,4.0,0.0199319904481015,0.0210714755115335,0.9791668441468714,-0.1789298533174761,0.01979018332433,0.1605020851113239,0.9989986506959804,-0.0077396393623159,-0.0067852742465223,-0.0435402565857338,1.8469999999997528,5.0,0.0013290201211182,0.0553011287285775,0.9782617333141792,0.33892291070628,-0.095018117302431,-0.4230313559691345,0.9465804500569608,-0.0885860882537032,0.0518876189578904,-0.3056887821571954,1.8469999999997528,6.0,-0.0114554966489932,-0.0692390757115187,0.977513029064646,-0.8571161378755393,0.0742569462643241,0.2474496737982482,0.8950163202136905,0.0062112459833465,0.0114099063154022,-0.4458441667358145,1.8479999999999563,7.0,0.0134791832795767,0.0221824121611075,0.9792018444676412,-0.1034394111151732,0.0822124269983813,-0.0077625707426976,0.8266014876447725,-0.2109068612836054,-0.0196219673703593,-0.5214050775390128,1.8479999999999563,8.0,-0.0740928643323308,-0.0977232590407856,0.9724990550625116,-0.2064078786319247,0.1561816720238062,0.2794973351164938,0.9475892933832591,-0.1301771705521645,0.2885345655219336,0.0433155841645606
28,28,1.8729999999995923,0.0,0.0364038187167766,-0.0158510526493346,0.9786549474215842,-0.1200541173898628,0.0497368085013818,0.063401829582286,0.999538298696986,-0.029793292113779,-0.0039772717093906,0.0044419019245499,1.8729999999995923,1.0,0.0175696722398842,0.0017447053271069,0.98009094609669,-0.0864967498701408,-0.137104942691622,0.567367762408609,0.9990626763770056,-0.0323626705558869,0.006468547240246,0.0280104287990386,1.8739999999997965,2.0,0.0145879320487014,-0.0344602281121755,0.9791178095188544,-0.0300214930898791,-0.1720170858712818,0.860059969286338,0.9965323756991544,-0.0426806701878798,-0.0042095737124781,0.0713012206408274,1.8739999999997965,3.0,-0.0058307790784142,0.0038716164541427,0.9797923313648514,-0.3463232682274514,0.3006046684425697,-0.3588958295946933,0.9978768235137648,-0.027847795886806,0.0253543578275845,-0.0531366342317271,1.8739999999997965,4.0,0.0227378572885867,0.0164772092603637,0.9793076592271266,-0.0917248448550825,-0.1360120552588414,0.2842485738581268,0.9994134176170184,-0.0111508567304829,-0.0137408250283941,-0.029320109290151,1.88399999999956,5.0,0.0110575303327516,0.0869096683776774,0.9753883537163146,0.3726721040505663,-0.1804762057888757,-0.5741909195396508,0.9405523466052912,-0.0626373199721195,0.0289274951114157,-0.3325673607986348,1.88399999999956,6.0,-0.0177149402339516,-0.0756788144064475,0.9769221555183106,0.3762125021606683,0.0891382612756456,-0.0503350052864382,0.8936442292520609,0.0213123974308235,0.008454502060415,-0.4481900206777824,1.88399999999956,7.0,0.0014608840268038,0.0120126469198214,0.9795711113195612,-0.1366532624254285,0.1724226943505124,0.0902242844329221,0.8313134340768686,-0.1915041113558049,-0.0064738788167455,-0.5217300437488849,1.88399999999956,8.0,-0.0831745160894484,-0.1139276682441258,0.969681126083076,-0.3888666246966115,0.1240101703894484,0.0970326698126497,0.950734635149964,-0.1411045389480549,0.2711218258756215,0.0518277739092752
29,29,1.9519999999997708,0.0,0.0331106285961374,-0.0200742826346028,0.9792199494754356,-0.0744037419174584,0.0615754784452326,0.0565510030141345,0.999473769086499,-0.0315760829997726,-0.0021231745772443,0.00711533696557,1.9519999999997708,1.0,0.0268373404975013,-0.0008700866670989,0.9795682723037804,0.0409952538566159,-0.1577988758649072,0.3652883684120758,0.998558997456862,-0.0267460422954015,-0.0028791615036319,0.0464358508968549,1.9529999999999743,2.0,0.0230778134701953,-0.032755482124529,0.979243326715186,0.1529783712651934,-0.1628215062544558,0.3642596431039026,0.995382773176286,-0.031873865372601,-0.0120559877488272,0.0897320719113059,1.9529999999999743,3.0,-0.0162319406878212,-0.0257394357299601,0.9798300901430872,-0.5405212320039301,0.2287985487853114,0.3639068371782291,0.9973344608377372,-0.0522020096019471,0.0374978263634611,-0.0345374642530985,1.9529999999999743,4.0,0.0170152526215952,-0.0048345164564087,0.9803382623507336,-0.2894366305248966,-0.1328804129618178,1.4009104977397953,0.998684578694141,-0.0258872252597526,-0.0175912548997613,0.0406141797640737,1.9589999999998329,5.0,0.0136304519708739,0.0943432068928082,0.97503824032304,0.3019911059689723,-0.1497797280317558,0.0182476282615079,0.9424836781037104,-0.040368244233908,0.0117749735219867,-0.3315965490835664,1.9599999999995816,6.0,-0.0320845010401187,-0.0581124221333844,0.9783141270506108,0.6042883675839724,0.5517926194951521,0.0003946963468708,0.8924264653567482,0.0565940223438723,0.0214873606323176,-0.4471134239752355,1.9599999999995816,7.0,-0.0069360575166368,0.0009114109195952,0.9800750279627888,-0.1095221226853987,0.0721706142451054,-0.1495449879957392,0.8294309326901893,-0.1754757096535613,-0.0010639962539468,-0.5303314728829824,1.9599999999995816,8.0,-0.0955225422286398,-0.1444056468002374,0.9647193649442218,-0.5142689572399072,0.3984584020070389,-0.2708582847662826,0.949155311029592,-0.1642420872507093,0.2652631827633071,0.0420020974491607
30,30,2.0229999999996835,0.0,0.0253145234870996,-0.0270765038797537,0.9787844695530628,-0.0032050422356619,0.1077505263176829,0.0169280635076996,0.9995176237773554,-0.0299931300661734,0.0021968533472251,0.0077527893479183,2.0229999999996835,1.0,0.0385725521731129,0.0117084948037871,0.9793151021853396,0.2187957650973992,0.0126311625825639,0.1969418200329468,0.9983349242130136,-0.0125213857140834,-0.0032648288924868,0.0562132981482019,2.0239999999998872,2.0,0.0249438833577713,-0.0086447209720291,0.9796780448097988,0.4105068687764069,0.1327340337215026,-0.5422176281987442,0.9979937908035362,-0.008770715889069,-0.0039232277238083,0.0625785613817366,2.0239999999998872,3.0,-0.0284962163689924,-0.0566923180715961,0.9769134796512536,-0.4556763676828762,0.1066500862771284,0.5659111434197482,0.996496780515396,-0.0712588549384387,0.0434011065712683,-0.0057171639562635,2.0239999999998872,4.0,0.0141945761351791,-0.030967621128711,0.9792872512444812,-0.3615800753183422,0.0251387843846907,0.7990114275636854,0.9957357556204954,-0.0435826732684748,-0.0143476195027682,0.0800312525471024,2.019999999999982,5.0,0.0560387857105157,0.2233228303193268,0.9518695120415698,3.383028713049104,-0.6423101694353812,0.4701509162304544,0.9441685782519456,0.1234161636180215,-0.0843881416176267,-0.2935860826977884,2.020999999999731,6.0,-0.0858209830112165,0.1198635002957606,0.9685693058175224,0.0235658279003546,-0.5678027698563984,-2.635672665480657,0.8302903787270357,0.0435301687452475,0.0020789455262991,-0.5556245939371514,2.020999999999731,7.0,-0.0318102264190999,-0.0218388118821659,0.9792365269896448,-0.7964314359381858,0.6536237181614587,-1.1544152096539353,0.7938843988399956,-0.1731034704281944,0.0376471470394202,-0.5816918790252845,2.0219999999999345,8.0,-0.102106720773117,-0.148784044156669,0.962854363742174,0.6412966014699217,-0.2779970076652809,-0.4163238634578982,0.9644592064184218,-0.1299039198154504,0.2296139532061286,0.0148607962230576
31,31,2.053999999999633,0.0,0.0188829089326561,-0.0309588278202297,0.9795340661407536,-0.0316980127316767,0.0649415437207085,-0.0338824708714606,0.9995181187040204,-0.0301797776771225,0.0041844045983564,0.0059331408118001,2.053999999999633,1.0,0.0375655090757987,0.0266269065193853,0.9786617599442028,0.3356894876909112,-0.0308534178027985,0.9344137922443287,0.9946782178787102,0.0068288420053489,-0.0056764562999429,0.1026469075928433,2.053999999999633,2.0,0.0182595951654701,0.0211088615115289,0.97988928106704,0.5892419780152512,-0.05735661276835,0.3121333716425409,0.9966641695803596,0.0227233479861795,-0.0057596942154335,0.0781729393942433,2.053999999999633,3.0,-0.0402859361173976,-0.0884876414745489,0.973741742279449,-0.5241164172481747,0.1397672038248233,0.7137185902542796,0.9938612079261636,-0.0930490853010208,0.0515318954275186,0.0304340411026417,2.0549999999998363,4.0,0.013678398144781,-0.058990634646121,0.9771791066371815,-0.4711083531579864,0.0703557831015571,0.7272231088909188,0.9910417155418392,-0.0662886218187089,-0.0098272868236817,0.1155229895170198,2.049999999999727,5.0,0.0599817598842711,0.3540189568675723,0.9109674893538088,1.2340606127860054,-0.1960652073846685,-0.8381853419202163,0.9209505014423514,0.1848351861361788,-0.1036300706810269,-0.3270274244000511,2.049999999999727,6.0,-0.051145474169392,-0.1581473141552974,0.9656373892395912,-2.7263002390430824,-0.3709580427849558,-0.9868144274620262,0.8057098741306811,-0.0860749080416552,0.0646520998595728,-0.582445546740372,2.049999999999727,7.0,-0.0449251255411773,-0.0807908692263655,0.9761293810477985,-0.945002237318834,0.0376515640204074,-0.761316248675688,0.7658709584607578,-0.1950142731110643,0.0594606655674714,-0.6098159866054981,2.050999999999931,8.0,-0.0912032835471001,-0.1851768389573097,0.9567159972447444,-0.1497392510903578,-0.1172734187310119,-0.2520373373419455,0.969294118230704,-0.1367091584705382,0.204367925892707,0.0036426940514257
32,32,2.113999999999578,0.0,0.0078650741066824,-0.0239914120177341,0.9797839316699838,-0.0723621245819298,0.1282661123346815,-0.084848754399632,0.9994387634197944,-0.0320556524564252,0.009610031022364,0.0014968711548215,2.113999999999578,1.0,0.0492522948074869,0.0549662944819329,0.9771458017753144,0.4359385774417747,-0.1145053775546138,1.0197158716999344,0.9876792421974978,0.0309949413598372,-0.0123011997340938,0.1528977064163441,2.113999999999578,2.0,0.0180563387566426,0.0657143164376285,0.9773768962103824,0.6411450221504252,0.0657210384638039,0.1899070323297761,0.9945988939525272,0.0554254926993696,-0.0005901783371705,0.0877536699914685,2.113999999999578,3.0,-0.0495106616039655,-0.1187527779481961,0.9702883448321556,-0.4199221399470126,-0.0309569940765066,0.6421353120918056,0.990759803305724,-0.1089536341961436,0.0500351963106585,0.0634081767535515,2.113999999999578,4.0,0.0090883448040677,-0.0899057765542653,0.9760903407630346,-0.4268167673987175,-0.0181531910879378,0.625723850269802,0.985517657856306,-0.0853716977058791,-0.010516934381735,0.1461369678604524,2.1099999999996726,5.0,0.0371867912500364,0.379541158768914,0.9026004937716776,0.5176863908827952,-0.336916711052851,-0.7577393240256991,0.9016099924409016,0.2059579857377636,-0.1175530488687366,-0.3617485457375402,2.1109999999998763,6.0,-0.0705233016640339,-0.0359652275252088,0.9765935522680168,4.64256610364264,0.4102682493630943,0.0530171949468751,0.8187093027542632,0.1260507503978489,-0.0558852295140891,-0.5574075053584451,2.1109999999998763,7.0,-0.0564659369489526,-0.1309156532037348,0.969472376971472,-0.6359942404891507,0.2689565563798358,-0.2546338983879125,0.7541114460128809,-0.1961507712586394,0.0868979736244703,-0.6207169597384655,2.1109999999998763,8.0,-0.0769083033250353,-0.2139271812352962,0.952833812376736,-0.3254676178606786,-0.0980998017472657,-0.6085634565613797,0.9711510400908444,-0.1560986034837689,0.1787307092351199,-0.0235418116804719
33,33,2.187999999999647,0.0,-0.0077127998259064,-0.0206309522480049,0.9795911782617204,-0.1161805104410123,0.1196416740379582,-0.0414410215727178,0.9992493197574146,-0.0357380437135145,0.0149361531032653,-0.0007074788694055,2.188999999999851,1.0,0.0527393371853464,0.0763364843106889,0.9760708496191934,0.3188775393920777,-0.0267906206283004,0.2783952178451531,0.9847634490566248,0.0478834270750654,-0.0126783116561748,0.1666954925221314,2.188999999999851,2.0,0.0115592095273722,0.1006045107318297,0.9748349178684108,0.4332193795751441,0.016734889776373,0.1004818874001298,0.9927467660720632,0.0764696168709132,0.0016794596730582,0.0927547064265897,2.188999999999851,3.0,-0.0498610707760141,-0.142069503907303,0.9682371247171856,-0.3771480576851045,-0.0232419616097303,0.1106313419131427,0.9888058891137214,-0.1237761398584289,0.0454675627595069,0.0698217845122827,2.188999999999851,4.0,0.0083783701353334,-0.1176405648442279,0.9730444493531664,-0.3894468025815052,-0.0432147460983245,0.1764535409178661,0.9826058100233214,-0.1016271140091077,-0.0148377179145326,0.1547177880325372,2.2369999999996253,5.0,0.0628778999590779,0.4163819896343692,0.8853459258419052,0.3312168405537252,-0.2948191156559934,0.0837812112388863,0.8982500158679793,0.2133786030385281,-0.1370519549911282,-0.3589334790620831,2.2369999999996253,6.0,-0.0774659861322982,0.2176081983298605,0.9520717898415972,0.3286117493921832,-0.642350404258307,-1.3993768398391744,0.7753216257955247,0.1236904771397501,-0.0787518537510274,-0.6143087073853845,2.2369999999996253,7.0,-0.0683728542332854,-0.1949332283266661,0.9582485008066216,-0.9749394645501208,0.1979145229162672,-0.2901790696305519,0.7375847579657149,-0.2137283687268811,0.1216364140659722,-0.6288827330998803,2.237999999999829,8.0,-0.0651622260959408,-0.2303347940110803,0.9504213628481288,-0.1881572368427777,-0.1152914399165712,-0.0114739309337369,0.9735890349572932,-0.1617550159213735,0.1594555205203786,-0.0231007101790742
34,34,2.2929999999996653,0.0,-0.0223834480936896,-0.0175467909108629,0.9790812486102304,-0.1522719782942325,0.0989796691766355,0.0042894205632746,0.998981696670772,-0.0406608730137243,0.0195443967021058,-0.0005288478970896,2.293999999999869,1.0,0.0572127332495379,0.0867603236238865,0.9745436621305356,0.0955483007716228,-0.0616410104909751,-0.009656180285435,0.9845374766057774,0.0531768784178414,-0.0157630274631227,0.1661616794741179,2.293999999999869,2.0,0.0115538437121066,0.1171851996440773,0.9730797180497875,0.172546783983175,0.0007032920890639,-0.2087685027609402,0.9931013938689236,0.0833819694184193,0.0031866886438097,0.0823827268727731,2.293999999999869,3.0,-0.0580686165597601,-0.1441179632472704,0.9675737948292596,-0.3003390132635941,-0.0623589917038714,-0.0195837885058978,0.987785614877246,-0.1336458247361613,0.0391178441814073,0.0699154263290383,2.293999999999869,4.0,0.0124305632898917,-0.133966154237937,0.9703883504118304,-0.2471439864705115,-0.108746624001806,0.180505518437856,0.9801450959277462,-0.1095492144148954,-0.0212944801126714,0.1638935803092952,2.257999999999811,5.0,0.0812619614526032,0.451480952981359,0.8659529102185173,0.6321332820243509,-1.046695577912871,-1.443217669578583,0.8568158599755427,0.2302749788193454,-0.1754004608219792,-0.4267021145571679,2.257999999999811,6.0,-0.0580458965200802,0.3566586403063481,0.9114413246018678,4.039058738229654,-0.0354699887897548,-1.3020241665679542,0.7091454962000093,0.2745971805880537,-0.1873948929842503,-0.6217653960423943,2.25899999999956,7.0,-0.0728691858389578,-0.2566975956529799,0.9415468263135648,-0.8965055751535033,0.1585064137767383,-0.4959268074399542,0.7147823658388227,-0.2308438825988058,0.1489512585942528,-0.6431257994480957,2.25899999999956,8.0,-0.0515624082096652,-0.2439950692759356,0.9478832861848824,-0.299485862444377,-0.1560642530884859,-0.3924827370111596,0.974112142493282,-0.1760149944747119,0.1360799723492423,-0.040081126389417
35,35,2.324999999999818,0.0,-0.0308914957302971,-0.0168003712090732,0.9793178559685216,-0.1396216481715372,0.0100151572348731,-0.0228972608929356,0.9988177268663962,-0.0444509998309348,0.0196208953958247,-0.0015091637887783,2.325999999999567,1.0,0.0601908453381486,0.0866778071395975,0.9741914698286728,-0.050164207331122,-0.0598981438657592,-0.0508690200120564,0.985037203871639,0.050805854666256,-0.019717852519077,0.1634982520163759,2.325999999999567,2.0,0.0173495110473978,0.1177580621377784,0.9716367805244776,-0.1477551405620545,-0.2339109529024532,-0.1195319707545581,0.9942972985367556,0.0747102680621033,-0.0093061649416009,0.0755291550507356,2.325999999999567,3.0,-0.05978259977582,-0.1552703689675018,0.9659348597523232,-0.3558000496034671,0.0011437502609441,0.0527149662138757,0.9858938246354298,-0.1458935777032556,0.0369023573501638,0.0732573993032055,2.325999999999567,4.0,0.0106097194906362,-0.1328798085520843,0.9710985482079002,-0.1848416394416994,-0.2181313946371037,0.4829835388048014,0.9751036310332872,-0.1129457136777389,-0.0302342613002294,0.1884199138922275,2.338999999999942,5.0,0.0945019603218346,0.4536166757846588,0.8629294820235346,-0.4253940025219317,-0.2054237449067044,-0.155166748223841,0.8576287210411975,0.2051186618965914,-0.171046036337698,-0.4394798799036816,2.338999999999942,6.0,-0.0852412461490736,0.3562835452091724,0.9091451838777658,-0.7998292841974747,0.0646052119576209,-0.3720869788314063,0.7120588419002087,0.2411968723711853,-0.1462979132336269,-0.6429566043004594,2.338999999999942,7.0,-0.0769468977777098,-0.2865831483445016,0.933595348107166,-0.6436623729836198,-0.0188920641388116,-0.3947844328073593,0.6987316657180235,-0.2429990569973607,0.1621286183018648,-0.6530236050471974,2.338999999999942,8.0,-0.0315832471859455,-0.2708705695420229,0.9415161353121736,-0.6433225010012178,-0.2148332709672287,-0.5078345502587968,0.9701513971500578,-0.2073562449137968,0.110490444284957,-0.0600126322098343
36,36,2.401999999999589,0.0,-0.0325916988234755,-0.0145918447981313,0.9788364823775147,-0.1721336667458767,-0.1608387330886659,-0.084265629585735,0.9987020916064104,-0.0494432890194965,0.0110977543457132,-0.0051315923841992,2.401999999999589,1.0,0.0662770666767499,0.0721143280669186,0.9751204408277896,-0.3585721319827409,-0.1443460908694149,-0.0997011839272958,0.986432469003655,0.0334961928854952,-0.0303582856754001,0.157820669268578,2.4029999999997926,2.0,0.0337290770282049,0.0905678807589193,0.9739613998191426,-0.5098343742480707,-0.2879540530647302,-0.2062397716140987,0.9964872846324238,0.0477267354207378,-0.0255136753656452,0.0639085492036394,2.4029999999997926,3.0,-0.0670490077770376,-0.1792682726314918,0.9611078591832636,-0.3940354029031887,0.1030576495327078,0.2005608852755359,0.9827234261433404,-0.1601151444908558,0.0411868009034529,0.0831952861952299,2.4029999999997926,4.0,0.0128004429988594,-0.1326418104460245,0.9707189597306904,-0.207171398261609,-0.293826574969768,0.5678150505862624,0.96825310064811,-0.1163094001438003,-0.0420057534298536,0.2172408184533941,2.4789999999998145,5.0,0.1206914537268413,0.4488338570775473,0.8624446311144812,-0.1019746667031729,-0.3017853866397453,0.3650851107057315,0.8646578862637126,0.1885761195264397,-0.184542285998676,-0.4274926099299279,2.4799999999995634,6.0,-0.0972030264433458,0.365521288992769,0.9047202655756744,-0.7914801312932573,-0.2295758601623675,-0.3602833138478868,0.7096884992375249,0.201772510756063,-0.1198614699010685,-0.6642765357788422,2.4799999999995634,7.0,-0.0676903413622448,-0.3185120440473045,0.9242218864986216,-0.3408289457314689,0.0695266831615765,-0.6703053988534114,0.676237347798619,-0.2440063798410382,0.1649118149922548,-0.675254047981292,2.480999999999767,8.0,-0.0039721442781806,-0.3404055877465813,0.9188113287834112,-1.6056853287422506,-0.009770009664364,-1.1614739094016544,0.9479238017602007,-0.2861124769835552,0.0883651780441286,-0.1084975201562302
37,37,2.457999999999629,0.0,-0.0165399533332829,-0.0166363505420075,0.9792383069428892,0.0346058156031451,-0.3784687053350252,-0.2415550041811099,0.9988694861411116,-0.0438403998775957,-0.008606268038107,-0.0162388775849804,2.457999999999629,1.0,0.0815771215884529,0.0417849513208514,0.9753133809583752,-0.5188634666179271,-0.3046954037018251,-0.5285067859148413,0.9901842144235808,0.0104003437797057,-0.0499768169866116,0.1301129206478223,2.4589999999998327,2.0,0.0444532541028398,0.0557172950745901,0.9768646227749468,-0.6272617925557322,-0.2900500619852618,-0.5350314580119037,0.9983910314199212,0.0161840120455124,-0.0410656703543215,0.0355954611253516,2.4589999999998327,3.0,-0.0762306495213022,-0.1939804413065508,0.9573330018672062,-0.1783299078216514,-0.0442702144792439,0.7845320676498511,0.9783324277147072,-0.1612213371688676,0.0435214626942155,0.1223896384841688,2.4589999999998327,4.0,0.0258893485551878,-0.1464639509192222,0.9690975455094908,-0.1442884008559886,-0.2626491840375189,0.5737081560774924,0.9608011374187752,-0.1169875494278377,-0.0515527146025425,0.2460028561435126,2.513999999999669,5.0,0.1122223891775009,0.4108749323042351,0.8825542053445122,-0.7572103423131217,-0.0725624257230071,-0.3166090971500349,0.8646216835214388,0.1548699066442407,-0.1653528714676688,-0.4484451853883078,2.513999999999669,6.0,-0.0413307824293741,0.331147110404958,0.9210208237028208,-0.8302780966334977,-0.9544702772929964,-0.3883836988899096,0.700507276596192,0.1372137299445941,-0.121098893634338,-0.6897804039772495,2.5149999999998727,7.0,-0.0569750537021109,-0.3277437922085445,0.9212289888645516,0.1188469239279451,0.0093721649076427,-0.154142069235784,0.6764217474448597,-0.2271421881144325,0.1570305827456651,-0.6827894566004861,2.5149999999998727,8.0,0.0006860432412469,-0.4886787164109837,0.8493895699098172,-3.222912876441488,0.3808421574536607,-0.1322297185817755,0.8928103013142441,-0.4232923020457095,0.1134868328876462,-0.1040871349261955
38,38,2.5729999999998654,0.0,0.015161126493202,-0.003848449022698,0.9799532283142784,0.254076629195513,-0.4878706332899123,0.1992149095207875,0.9990715428914296,-0.0274402092449774,-0.032815022535591,-0.0051245875071315,2.5729999999998654,1.0,0.0959794411532396,0.0159476013863215,0.9753807568769924,-0.4555329993575907,0.0036534445869076,-1.1966000399572363,0.9961699506142048,-0.0089425757373473,-0.0529409306128759,0.0690124459667797,2.5729999999998654,2.0,0.0688767423691662,0.0167329262553445,0.9777085473389014,-0.6618480711525517,-0.3454812018975994,-1.1026129827187268,0.9978910892965668,-0.0146426679237552,-0.0595658658385489,-0.0212337892400271,2.5729999999998654,3.0,-0.0615135930038632,-0.1605068039440698,0.964327560408503,1.0710933078895173,-0.6285800604392983,0.7158163953057791,0.9824342011488684,-0.0952305516527169,0.0202302436997085,0.1592008784044688,2.5729999999998654,4.0,0.0298602900155867,-0.1318350566850988,0.9695740719042676,0.5486971644050561,0.1228765421227776,-0.727045728018472,0.9730252800493702,-0.0842324749811978,-0.0398424696851312,0.2110432944984897,2.587999999999738,5.0,0.1025129069954079,0.3750597623539704,0.8990769035863029,-1.0763917593294117,0.4240711083282861,0.406143744052422,0.8851138504418976,0.1125657259042389,-0.1218604699811402,-0.4348016271399467,2.588999999999942,6.0,-0.0086450412232661,0.2412696089977971,0.950118539465628,-1.3415915814656802,-0.1346343561655047,1.8743123179702523,0.7745576515395396,0.0643216699717525,-0.082423196735262,-0.6238025199159896,2.588999999999942,7.0,-0.0562591941625414,-0.2216433688545175,0.952696237063526,2.635775143161816,-0.7010544934947729,0.90631756639037,0.7477083301498726,-0.1285216659663824,0.0416451425297154,-0.650138536394663,2.588999999999942,8.0,-0.0791033699075586,-0.8058816231209024,0.5519034937244808,-5.882710045909915,0.1975172031503169,0.7196257815689756,0.753656792085599,-0.6340823841875074,0.1702038311253094,-0.0311709107437937
39,39,2.599999999999909,0.0,0.0506053572153432,0.0094901883120303,0.9782837186352992,0.245218190634725,-0.4934985781750903,0.254716964266212,0.9982791255668912,-0.0125236084685102,-0.0566397736466405,0.0085955063601767,2.599999999999909,1.0,0.0855291315008447,0.0096608562417418,0.9765067513957024,-0.0988764154484299,0.0749913026285705,-1.6197996552206524,0.998685471390742,-0.0081461300166146,-0.0490497184243328,-0.0124537111455845,2.600999999999658,2.0,0.0785193408874963,-0.0200817923000675,0.9768738069600444,-0.3576267644865346,-0.1068296313825586,-0.2591203166637738,0.9969030671924424,-0.0314530994645658,-0.0629360932848681,-0.0351286965088539,2.600999999999658,3.0,-0.0366357221048056,-0.0824046603862175,0.9761236068308624,1.2367463476640954,-0.1908779317149181,-0.5321937985845431,0.9907457804903432,-0.0276568193842734,0.0189423560303848,0.131525989561549,2.600999999999658,4.0,0.0353312025039955,-0.0598969041473304,0.9777576729451868,1.2333899729511495,-0.2667035539432287,-0.0111596789450422,0.9762651504049656,-0.0152062094977017,-0.0382187528857569,0.2126369070160194,2.6799999999998363,5.0,0.1260670527178196,0.3110913586380469,0.9193314227196724,0.007024730050049,0.2296505631428565,2.755537061792253,0.9399644214864143,0.1008185589263088,-0.1251194073586069,-0.3010774624875856,2.6799999999998363,6.0,0.0447771235126353,0.2116800420773207,0.9554598730433832,-0.728275939395319,0.3228101169199177,5.122839049330451,0.9237757147502058,0.0195281096015603,-0.0492516175687288,-0.3792510513367096,2.6799999999998363,7.0,0.0026527407553893,-0.0338513217412842,0.979295691291886,2.7786129632503003,-1.1848173279008591,1.825930366728412,0.8250935714665704,-0.0358088249244702,-0.0967522127950867,-0.5554973768626839,2.6799999999998363,8.0,-0.0655581938589495,-0.9475150044901828,0.2414175625009934,-0.1928161940150045,0.0583405040895581,0.8619352538195847,0.7513888605390336,-0.630877878211729,0.1933735213684809,-0.0038163168727291
40,40,2.6979999999998654,0.0,0.075686571520864,0.0212196357294298,0.9767498502436168,0.0983835633016671,-0.2298321086829509,0.2477545323078548,0.9975640813923528,-0.005855666667786,-0.0661758760411179,0.0212689471741795,2.6979999999998654,1.0,0.0998623357107258,0.0035563739989134,0.9742057616901976,-0.2216763279080649,-0.3675223000842257,-1.2521729646064577,0.9947107380486108,-0.0153909738833489,-0.0682485558986612,-0.0752050540286859,2.6979999999998654,2.0,0.0807071191793412,-0.0251012749154504,0.9767380851136044,-0.2883720062715532,-0.4139774747709127,1.4557531904824683,0.9951109263784906,-0.0492936900740725,-0.0770517748249647,0.037247822988014,2.6989999999996144,3.0,-0.011721651911115,-0.0018937641466393,0.9800331711395446,1.1835583337177875,-0.3284200480051495,-0.3007796120489514,0.9926678046756756,0.0356095007106174,0.0095860996273729,0.1151116836530927,2.6989999999996144,4.0,0.0333501498663179,0.0240509206441645,0.9794423519125882,1.5061519996340398,-0.1257747171349455,1.1051594154391766,0.9614928163569788,0.0595208186493787,-0.0290491039415397,0.2667301741487569,2.69399999999996,5.0,0.1353938925807397,0.2802234012251924,0.9294397986193724,-0.4009676714350412,0.3433833105684772,0.7278579798422858,0.954321911280972,0.0837835740564609,-0.1042618201766564,-0.2671693755294732,2.69399999999996,6.0,0.0710710442990135,0.1017141268528122,0.9716502164157728,-1.1150263113408596,0.3081975706847608,3.9081024429643705,0.982598035652568,-0.0377375493041679,-0.0055159057697113,-0.1817871075950388,2.69399999999996,7.0,0.0259005160705676,0.0776183141941798,0.9766383980619092,1.1464197906056297,-0.1651125439958239,-0.0182615629508492,0.825776564818121,0.013132367756628,-0.1289788402934676,-0.5488944021128656,2.69399999999996,8.0,0.0322264158380386,-0.9022872005883344,0.3809045363036522,-0.4362342043531452,-0.2518249512557516,-0.4922369135752831,0.7482539347514793,-0.6449494134789245,0.1541349828137136,-0.019967730345148
41,41,2.7359999999998763,0.0,0.0812109604105017,0.0253782581024929,0.9763174298991528,0.1196204462729217,0.0179639214259175,0.4981886619748072,0.9969579960122372,0.0004047162571839,-0.0626474779852554,0.0463668404584795,2.7359999999998763,1.0,0.121580757526343,-0.0264531191734511,0.9718098331902778,-0.5657929081495406,-0.1559760920241267,-0.8120098230902559,0.9894423377328134,-0.0414553257911064,-0.0747099308097031,-0.1170629851993676,2.7359999999998763,2.0,0.0884013447180343,-0.056116434334672,0.9731521710655564,-0.4792811500308534,0.1274770564611931,-0.474506479270611,0.9950625773984876,-0.0692969278535293,-0.0701296531576612,0.0114120374661082,2.7359999999998763,3.0,-0.0045721347231127,0.077756628892048,0.9772584111929752,1.3088616837320923,-0.1056424876629373,-1.1672701694468508,0.9932242850628074,0.1008738943432669,0.0174228223151956,0.055012928153954,2.7369999999996253,4.0,0.0561805550413438,0.1265098593907046,0.9699587623771386,1.582086432476412,-0.3200117139184287,0.6109973198053175,0.9452077369532912,0.138502083431311,-0.0254285024143726,0.2945384493640612,2.7849999999998545,5.0,0.1244962682340298,0.2484061518503194,0.9392838031812945,-0.4799728783434559,0.2947928939967695,0.5926678300955983,0.965017149609252,0.063642619932013,-0.0846966058569551,-0.2398291117536312,2.7849999999998545,6.0,0.0661824405226716,0.0360851757443604,0.9771221748880544,-0.8682260996209554,0.2199185429974842,-2.929973472478342,0.9449890257301968,-0.0708546818953391,-0.0006598474280285,-0.3193351216267558,2.7849999999998545,7.0,0.0423969321804131,0.1447124694206745,0.967405706689732,0.984944229538142,-0.2903444074420038,0.3162591067945057,0.8318055270084297,0.0476951298928852,-0.1617598692792727,-0.5288274619509485,2.7849999999998545,8.0,0.001483542082453,-0.8843645218802741,0.422697517785903,2.7752963705439506,-0.908676032314713,0.9256823648019344,0.8528811949296358,-0.5062114526042822,0.1266611095809327,0.0173377019061278
42,42,2.8349999999995816,0.0,0.0787582973393521,0.0324272189760826,0.9757728250313612,0.1699579223594141,0.1039825416029145,0.588147768452272,0.995551613579406,0.0085760393696762,-0.0549827543531588,0.076028501050007,2.8349999999995816,1.0,0.1315362311334073,-0.0572524485250801,0.9695098643320254,-0.5382310258720986,-0.1001650399592103,-0.4552498096405875,0.9847658956823848,-0.0663714958275318,-0.076829821147306,-0.1411670422760185,2.8349999999995816,2.0,0.0744210437471058,-0.0815422225261645,0.9734358603385664,-0.3370668728638503,0.4522206856458235,-1.0233638523034343,0.994727331941588,-0.0798184638904229,-0.0486401796509136,-0.0421981141056098,2.8349999999995816,3.0,-0.0188163874999058,0.1546798479985439,0.96721253516722,0.9810904980164143,0.2096965392900011,-0.812426213439911,0.9885711052549642,0.1456638240630543,0.0360225895813518,0.0145462453629702,2.8349999999995816,4.0,0.0893683780765462,0.2002960934264135,0.9548537940219356,1.0929306696370529,-0.4283809522853088,-0.9553498706901355,0.9494004416824962,0.1949077214415319,-0.0191076028783993,0.2455293892139855,2.8289999999997235,5.0,0.1176133516679182,0.2133025008140618,0.9488420008915636,-0.5647656191184846,0.7170519884315328,1.5260963601464277,0.9845666218842972,0.0406130323055513,-0.0455315160602121,-0.1640305755752555,2.8289999999997235,6.0,0.0593824280042652,-0.0481686441433482,0.9773538299744416,-1.4403482008554975,-0.2957846565165281,-1.223124259961226,0.91766854283457,-0.1377302354594709,-0.0017351890242372,-0.3727087560699451,2.8289999999997235,7.0,0.0623181881433975,0.1939945933909372,0.9582178985813246,0.4648937698307369,-0.1746682679638475,0.7878235735115409,0.8503183027911111,0.0582642363550191,-0.1755200133053915,-0.4927035494388954,2.8289999999997235,8.0,-0.0892481568505996,-0.7625814702244008,0.6088524187101192,3.966322906648921,-0.398266622078554,2.0349927245114414,0.9437483478509002,-0.2899108622089453,0.1324533376779673,0.0880162555436678
43,43,2.863999999999578,0.0,0.0699716612823772,0.039330027166373,0.9761552722699788,0.1101067238053102,0.171893927337321,0.4265791192381864,0.9941618079539262,0.0136336703983686,-0.0442135651990632,0.097476065214173,2.863999999999578,1.0,0.1284297602647841,-0.0795000821991161,0.9683297649089716,-0.289080439957858,0.160048945013926,-0.4070255667367494,0.9814580984351764,-0.0761729936588944,-0.0667142675676968,-0.1627479110647985,2.863999999999578,2.0,0.0668584334073273,-0.0983582278397892,0.972421518117804,-0.3175940921935913,0.1014903428482183,-0.2981754810067595,0.9931581597274108,-0.0918304273621034,-0.0426330445291486,-0.0581933492035988,2.8649999999997817,3.0,-0.0438422440406191,0.2006395115498516,0.9570431777315586,0.4336575641353223,0.5227681322409149,0.0634870116977977,0.984655454619101,0.1624241867575946,0.0603553411373526,0.0207183986152215,2.8649999999997817,4.0,0.0445403412251335,0.2657031759140834,0.9426324736145676,0.8727464899316882,0.1757946448025617,-3.884641640864931,0.9707559842926708,0.2293077932468649,0.0480250480387929,0.0523865409918661,2.9219999999995707,5.0,0.1061305207888279,0.1475678539467024,0.9625933934110792,-1.582490597134119,0.2794922360113301,0.1690804601086348,0.9867893383008698,-0.0331673788506481,-0.0204565315593414,-0.1572522086091985,2.9229999999997744,6.0,0.0806072464744821,-0.1197758548440681,0.9693591782266132,-0.6181438721873036,-0.109851013027507,-2.101263607981349,0.8717758283040782,-0.1598311235690964,-0.0132152891413139,-0.4629106536431087,2.9229999999997744,7.0,0.0762480333908328,0.2141200119618213,0.9530287812450892,-0.1103373760855769,-0.19836177437771,0.1370471796657494,0.8530827195170397,0.0491319318368481,-0.1731052822899567,-0.489765748270237,2.9229999999997744,8.0,-0.145162092763232,-0.4003797985483189,0.882999424540586,6.161850384037301,0.4707232247055946,1.5152202306069085,0.979832495408442,0.0403117950445793,0.1655087150012629,0.1044514498730374
44,44,2.974999999999909,0.0,0.059215808208956,0.0422212961917772,0.9775524795150622,0.0324112341900788,0.1960193688383911,0.2003873891145416,0.9935458070902904,0.0149177425768212,-0.032842342358298,0.1075433434394489,2.974999999999909,1.0,0.1203186352503709,-0.092923604036929,0.9681929713772336,-0.2674693409425,0.1710071097794962,-0.1431012564604712,0.9799381701562002,-0.0854862211535584,-0.0553900909046075,-0.1713044847439259,2.974999999999909,2.0,0.0643374189870682,-0.1185417812609795,0.9709153117618224,-0.3296431719098311,0.0218601967825224,0.1327354096972828,0.9922925858395656,-0.1054634490158557,-0.0385548781600248,-0.0524061673810815,2.975999999999658,3.0,-0.0647534839896449,0.2173344587577321,0.9531703516935924,0.2304559779190983,0.4385964594021618,1.1353225470595738,0.9795319387558096,0.1713003459038201,0.0698040182194339,0.0793773991192565,2.975999999999658,4.0,-0.0760178241109958,0.3433625037428455,0.914636803021218,1.5405788192524306,0.551399058693083,-2.754573926026875,0.9476563645618152,0.2861772594087225,0.1170034504749778,-0.0797507584900999,2.9779999999996107,5.0,0.1010950263204237,0.032774675632857,0.973231532725093,-1.7780182816743488,0.1906570359325051,1.3874219033953508,0.9892093687893696,-0.1166861785975944,0.0077265663582445,-0.0882579208679804,2.9779999999996107,6.0,0.0911987345949212,-0.0777160102863848,0.9724880526533228,0.2151797991678251,-0.0993845114342712,0.2161560955672808,0.8796254491095433,-0.1425757552559056,-0.0219001865296592,-0.4532676969760895,2.9789999999998145,7.0,0.0859032138215558,0.1910598992994057,0.9571529411409804,-0.445166453441306,0.0154849915042575,0.5474301050088466,0.8684027606808703,0.0267332960858415,-0.1536668262215693,-0.4706893695859506,2.9789999999998145,8.0,-0.019281722152256,0.3253463050196942,0.924106052897001,5.721221181897623,-0.9113881618205592,0.6650817379252212,0.9337067182383848,0.3274081511738367,0.1202263162328986,0.0808783020748002
45,45,3.0039999999999054,0.0,0.0484360443529483,0.0401241170214791,0.9769211866065174,-0.1037686365519559,0.2196747502879431,0.0103711133338533,0.9938768470490352,0.0093742673896921,-0.0214435112749404,0.1079866280378112,3.0039999999999054,1.0,0.1137305307444799,-0.1076295153688768,0.9670383931354738,-0.2197780256416832,0.1116704544714068,-0.2090972113462031,0.977616425689161,-0.0925767521986604,-0.0482608451782174,-0.1826651581385486,3.0039999999999054,2.0,0.0561280944238127,-0.1344216108721638,0.9690611268371488,-0.1899432331699128,0.19297999906831,-0.1799814330846477,0.9914962466714,-0.1105005269365856,-0.0281349392952413,-0.0627156405860318,3.0049999999996544,3.0,-0.0657185162318266,0.2320556587085559,0.9498006358629296,-0.042393885024853,0.3479834131988311,0.6102696212993399,0.976781107118364,0.1644181935985144,0.0789559449438863,0.1123889903346517,3.0049999999996544,4.0,-0.0756712894960775,0.3996703182580035,0.8913492540242276,0.5043432970807517,-0.0162902948858974,-0.0766646898258449,0.9434790204552184,0.3021699275496414,0.106378604444442,-0.0849956784899043,3.0839999999998327,5.0,0.0891671528842378,-0.0691110236784813,0.9730580071365896,-1.1573279398249725,0.1502826613263634,0.6159762370192232,0.984363986954674,-0.1649531054946714,0.020306250468756,-0.0583581216820947,3.0839999999998327,6.0,0.0974046670365331,-0.123819066203281,0.9674885889167116,-1.031624597809687,-0.2423073019169044,1.0596984207962317,0.8953108385159844,-0.1887776557991425,0.0013471305923433,-0.4034596440115821,3.0839999999998327,7.0,0.1622358633066918,0.1870765066657556,0.9486995864397066,0.4151819618104617,-0.3391469263217906,0.2494487624894165,0.8711565759588451,0.0366790630884079,-0.1751920092254632,-0.4572183574597184,3.0839999999998327,8.0,-0.0088688908177909,0.4178078111071543,0.8868979511496858,0.0086281996656618,0.5760915206608246,2.6868189936451783,0.915347771919588,0.3280948149804258,0.092545783751756,0.2143070851245458
46,46,3.0589999999997417,0.0,0.0329082623678605,0.0340163292111725,0.9788140454728492,-0.1026792566134858,0.2387174809584394,-0.0960972249397423,0.9946121651774984,0.0040516038050352,-0.0094432134559931,0.1031554705634173,3.0589999999997417,1.0,0.1060951907457827,-0.1167234977728671,0.9670710602475308,-0.1141514352484895,0.1435087105315114,-0.1727783852014019,0.9760195322268,-0.0940368850374027,-0.0404386185631087,-0.1921136515007412,3.059999999999945,2.0,0.0483207129565606,-0.1354370037943484,0.969178480313394,-0.1124785275262541,0.1809353051741357,-0.2154440466484433,0.9908053288248084,-0.1112284651856857,-0.0192323433175495,-0.0745864992831537,3.059999999999945,3.0,-0.093419800478469,0.2198018481227711,0.9504956014839718,-0.20972486294644,0.2626151919232534,-0.5519628237395799,0.981167882821286,0.1446493865510785,0.0927698161100996,0.0882037522404254,3.059999999999945,4.0,-0.0830461480332598,0.3717806487167675,0.9024297682017016,-0.8505983056471493,-0.0661877795698974,0.3821364576484438,0.9610773639726417,0.2522048931037339,0.0941686083452263,-0.0620907847933663,3.1729999999997744,5.0,0.0724030201479038,-0.1351083511193523,0.9681268182068256,-1.182944250691918,0.3372704369857586,0.8888444364674145,0.976271331912736,-0.2113206909747947,0.0443070051251115,-0.0165753234692639,3.1729999999997744,6.0,0.0956487991381847,-0.1886656776723785,0.9566334560801464,-1.2295795946670387,-0.0468256868603933,0.5654577316341795,0.8952915035391736,-0.2365391209147399,0.0300846974490096,-0.376294138868584,3.173999999999978,7.0,0.1392156141434194,0.2101000517783996,0.9472908640018568,-0.1841826592678482,-0.0626800845939168,-0.1347280758265168,0.8683736306436624,0.0309284406813007,-0.1674492253246252,-0.465758978547865,3.173999999999978,8.0,0.061465350349305,0.4495884167977712,0.8685380050335798,-0.5623258930214701,-0.1029206393168931,1.1883583032395737,0.9133191216825736,0.2993765614363012,0.0573498278534834,0.2700608332889549
47,47,3.162999999999556,0.0,0.0215403787178161,0.028947266469254,0.979089407484654,-0.0372254111561334,0.2136255614690226,-0.2067277144719923,0.995676163655908,0.0023728172863862,0.0010281728429891,0.0928562853348321,3.162999999999556,1.0,0.0935367678187521,-0.1156310079530733,0.9685176008032984,0.0181936691065406,0.2206655978594544,-0.2477226451737712,0.974287296165188,-0.087854946859558,-0.0304545921701343,-0.2052274120559489,3.16399999999976,2.0,0.0411958314435505,-0.135763043651071,0.9695387044622162,-0.0197475399442641,0.1364979958924582,-0.2651042798326414,0.9901728722147056,-0.1074064334814242,-0.0134785222124226,-0.0885430438591892,3.16399999999976,3.0,-0.1083953038710131,0.2001412884306957,0.9522835306588118,-0.3458130043072464,0.1387295671173316,-0.6183544885856076,0.9860714900073612,0.1193222788216612,0.0989136432518435,0.0603431980434831,3.16399999999976,4.0,-0.0911036675970747,0.282291232193574,0.9341743852070638,-1.790449662602423,0.4027024508213791,0.2844079673127851,0.9809911519616912,0.1553801515522354,0.1112488438437265,-0.0337203650619752,3.2489999999997963,5.0,0.0454339710823959,-0.2012066004438754,0.9574641811626704,-0.7785554476314585,0.2130332488407784,0.6789791634367618,0.9697797726680571,-0.2367789709365411,0.0568687048116309,0.0151281809604348,3.2489999999997963,6.0,0.0761351446049258,-0.3248435162978123,0.921252478789208,-2.121231323066112,0.0852752497915424,0.9665985294177168,0.8856469937777816,-0.3198530811201656,0.0887726514824835,-0.3247196102163903,3.2489999999997963,7.0,0.1337612432060878,0.2135990043816666,0.9473755301585124,0.02927087408198,-0.0168740190727475,0.6514792820660653,0.883490591205141,0.0296227820922328,-0.1643059326959437,-0.4376875900845517,3.2489999999997963,8.0,0.0387917016271567,0.386948707778222,0.8993952976492782,-1.809859673393036,0.932195803066412,0.8627217402142597,0.923572910910349,0.1940366320315099,0.0655092387359044,0.3241471938837283
48,48,3.237999999999829,0.0,0.0068126063318164,0.0312034630335122,0.9791373408718942,0.0698986894980489,0.2772984289762267,-0.2342223342456756,0.9965697072899692,0.0059380908010081,0.0149378656048803,0.0811813880196367,3.238999999999578,1.0,0.0809712977697625,-0.1067218340416977,0.9709125084559662,0.2313462014208448,0.3307924577446895,-0.3547516647859768,0.9720229662671784,-0.070065412878005,-0.0178593344365118,-0.223479831619936,3.238999999999578,2.0,0.035339687449876,-0.1289883388260674,0.9708836773464868,0.1588918847753516,0.1982309426739915,-0.6678108595808071,0.9879702272326316,-0.0941702641285804,-0.0073875843660737,-0.1224427011017394,3.238999999999578,3.0,-0.1184182025965738,0.1576420454486253,0.9603057402726334,-0.7392178106186206,-0.2031177856216179,-1.1318623620760893,0.9934852466585464,0.073113287137758,0.0871675441489122,0.0065826410175543,3.238999999999578,4.0,-0.0900163423175327,0.1718928454272011,0.96080170056402,-2.097098034383553,-0.0728549081582769,2.159218001687809,0.9901733979381474,0.0547402054739416,0.0970788699628482,0.084473930458043,3.2719999999999345,5.0,0.0293958712218434,-0.2198952959764732,0.9540712455380512,0.1139025985678549,0.1330842338436308,0.2828112479464512,0.973698060035886,-0.2184260177137638,0.0594024297492523,0.0259521484263627,3.2719999999999345,6.0,0.0901264991963394,-0.5386627941873787,0.8135512327449688,-4.10663307145919,-1.017080894606037,0.6526102828870785,0.8246544194612496,-0.4951158972708074,0.1241279827819704,-0.2437161886769759,3.2719999999999345,7.0,0.1459004872313651,0.1850065574940236,0.9503939296469968,-0.782691590433444,0.16950124398736,0.9767746329385878,0.9070197305676386,-0.0080532233351797,-0.1334370927961661,-0.399305517393673,3.2729999999996835,8.0,0.0134924999023585,0.3268570036475914,0.9233522900891638,-0.060702815563161,0.1715157308853565,-1.102946272951508,0.940992759402318,0.1813072694814717,0.0809297245164375,0.2740632782320129
49,49,3.30199999999968,0.0,-0.0088890903343053,0.0452844473218027,0.9787100198239452,0.203841465975491,0.1662924807750272,-0.3558499596912892,0.9975745986130652,0.0168378623658958,0.0235008424910016,0.0633175883553847,3.30199999999968,1.0,0.0600826823726282,-0.0787221051768892,0.9751173782860342,0.4227307964034948,0.345131137756074,-0.832037542061119,0.9635489360311762,-0.0426489402706975,-0.0080031705206964,-0.2639895168914692,3.302999999999884,2.0,0.0263849547010534,-0.108064956117441,0.973716488216544,0.4374262342737667,0.3366508526066904,-1.0708935965470407,0.9821352565205084,-0.0663245540500048,0.0030127256803505,-0.1760747424062805,3.302999999999884,3.0,-0.1121671943167008,0.0957494166796093,0.9685657281385888,-1.0835060274054031,-0.31103941897225,0.8628422859706737,0.9961208250393188,0.020344275660625,0.0672528525422348,0.0529760907935265,3.302999999999884,4.0,-0.0500019402343707,0.1009449469649722,0.97338118106682,-0.5862382672043522,-0.0632939247454488,1.6057305526962715,0.9821949180722888,0.0332329524559329,0.0818619138877102,0.1657930663166365,3.324999999999818,5.0,0.04224814388155,-0.1192755634925574,0.9712900876113668,2.7108897001517334,-0.1291519495987067,-1.5356134459671391,0.9950195280473918,-0.0692262852830001,0.0423580713124945,-0.057876195667545,3.324999999999818,6.0,0.1106184294493699,-0.838628703307751,0.494420328318441,-5.649185479729374,-1.5909306244810468,2.4146706748279443,0.7007573015435716,-0.6808902382387476,0.2092198648568816,-0.039430140169942,3.324999999999818,7.0,0.1370844909992375,0.1456070888145189,0.959502171969632,-0.2447527451266927,0.1944892538548731,-0.4882591301677242,0.8984343676914814,-0.007191931886188,-0.1161479446958174,-0.4234071539422661,3.324999999999818,8.0,-0.0474071039337005,0.205335261841444,0.9571562028953918,-2.6131524564550546,0.3856581092970775,-3.0439574385141386,0.989469741812547,0.0226169890505333,0.0640571950448364,0.1278075803960295
50,50,3.3289999999997235,0.0,-0.0310057948870555,0.0534028659582077,0.9777391137675078,0.0790107448859491,0.4035958475997373,-0.3352374943145871,0.9977496240491052,0.0200396000317292,0.0436165012960622,0.0468156272533883,3.3289999999997235,1.0,0.0361136942584447,-0.0480301590153125,0.978198295291896,0.5535866506613095,0.3561462287855417,0.6614004214303559,0.9727002175423566,-0.0098259019160575,0.0020243944284028,-0.2318483130665099,3.3289999999997235,2.0,-0.0005813046708267,-0.0667267354784583,0.9774544515512054,0.8971308800606821,0.9116834833489867,-1.874929650167377,0.9627088062375652,-0.0118199978771325,0.0382316404788965,-0.2675637937186549,3.3299999999999272,3.0,-0.065257809637278,0.0498669283238712,0.9760695199323084,-0.5884436935197003,-1.0819437099969949,0.7295123300514956,0.9959196660147464,-0.0033786862419362,0.0085141508188936,0.0897781296318176,3.3299999999999272,4.0,-0.0027018684042904,0.0466041776093107,0.9778291008844467,-2.11120406152357,-1.2039914331385275,-4.534252960050815,0.9944049156628192,-0.0821962141616448,-0.0239309011198786,-0.0618866548999466,3.401999999999589,5.0,0.0775914528338471,0.1262249169780961,0.968070677575251,3.4755844692202187,-0.5709558241787895,-1.2260139379056971,0.9862080714383208,0.1121370001403644,0.0020600531919119,-0.1217156079156414,3.401999999999589,6.0,-0.0334326176700846,-0.8854170828470502,0.4182353995997296,3.968629305187144,-0.6628982498476502,-1.4866107883080115,0.8454582873696167,-0.5060930636126643,0.1236568447921363,-0.1173843261139917,3.401999999999589,7.0,0.1031563068621408,0.1431934023031422,0.9640904656158644,-0.0769714176867939,0.4361837460383842,-1.5230953923292667,0.8672339190683447,0.0124793733028205,-0.0909306455337616,-0.489368176899706,3.4029999999997926,8.0,-0.0746560942026385,0.0832522298127856,0.9737461341795438,-0.8885687439371974,-0.2485450009723102,-1.5004244107419007,0.9973302177740602,-0.0235094249964465,0.041935876883391,0.0549647694537408
51,51,3.4039999999999964,0.0,-0.0450478059104003,0.0623671173512632,0.9770578477531168,0.1076037837611177,0.110320245330323,0.22543594625313,0.9968441827545764,0.0267006216427388,0.047151936695167,0.0580124726084566,3.4049999999997453,1.0,0.0025838982903513,-0.0030496955305507,0.979427395383035,0.7854906807905663,0.4355285787016894,2.479874614103615,0.9936460038942424,0.0353541796550195,0.0099356096668264,-0.1063907166367092,3.4049999999997453,2.0,-0.037399580878744,-0.0148823100746676,0.9790576020832154,0.5712003988016103,-0.0403409662296821,2.1606837501596963,0.9865520752277304,0.0209888534192526,0.0243478801769918,-0.1602549581975245,3.4049999999997453,3.0,-0.0494725989597824,-0.0133215538728936,0.9789055103300708,-1.238923759916986,0.1918773439709492,1.9826658688621908,0.9800453340412691,-0.0646411744919152,0.0203190923066411,0.1868683929188586,3.4049999999997453,4.0,0.0091831761405398,-0.0573387239070731,0.9786158286154378,-0.9892387660598292,-0.5596532567838113,1.9168829607683044,0.9903712667802416,-0.1294853088129959,-0.0339579534874303,0.0352869116337446,3.4899999999997817,5.0,0.0498331620494012,0.2338576249367809,0.9499964564244888,2.399274203940713,-0.8024965851071727,-0.8492764052633626,0.9599459522219124,0.221884102366813,-0.0456971475238935,-0.1648726315609074,3.4899999999997817,6.0,0.0116421804252667,-0.8655455930285848,0.4603588665636198,-1.0881588677342366,0.0149221869115502,-0.0779471851448992,0.8169719098151239,-0.5510007984174056,0.1239230796157887,-0.1166108444997695,3.4899999999997817,7.0,0.0741346491574881,0.1255552262192052,0.9690541465590768,-0.17539758952251,0.2275073286028616,-0.0110304312500762,0.8680989560475129,0.012947611127107,-0.0741319681873157,-0.4906536590793901,3.4899999999997817,8.0,-0.0531950857954515,0.06379556404579,0.976365919548247,0.0436340777416723,0.03211356248628,5.746042325601559,0.9449640745418144,-0.003902874674056,0.0418987829913067,0.3244567111009703
52,52,3.492999999999938,0.0,-0.0453669117811693,0.0656152993554709,0.9764683690759938,0.0309516114755448,0.0057048444056641,0.5100220373190889,0.9950698782302514,0.0299561302050681,0.0445469481165222,0.083391469080917,3.492999999999938,1.0,0.0123588584558499,0.0525168150507142,0.9780808978579418,0.8245193342702295,-0.4646234791849183,3.758193527344039,0.9933193756789492,0.0741124441072275,-0.0334675247464855,0.0818772759474731,3.492999999999938,2.0,-0.0358412600983498,0.0625469765836032,0.9772472971540074,1.22797777014025,0.1229663137054716,2.8295069571020086,0.9959778859500088,0.0876348267047851,0.006912493991266,-0.0173322033739106,3.493999999999687,3.0,-0.0455270484313081,-0.0834371001570944,0.9747530652316556,-1.0649638652533395,-0.055623412589259,1.4433484743331133,0.9598952823615082,-0.1117437707644775,0.0151990235595927,0.2566775531251056,3.493999999999687,4.0,0.0357091847664074,-0.1028763788459992,0.974066889283715,-0.6445364862059679,-0.6349797794641738,2.034111592918914,0.9770365669552464,-0.1549707138022271,-0.048801620905979,0.1378478381871962,3.5339999999996508,5.0,0.1024737326524936,0.4171940758370083,0.8793868529849476,1.548827362896931,-0.1020341797992264,-0.2703427093114585,0.9383596645010076,0.2923979190376149,-0.0634258526459221,-0.1730946509750273,3.5339999999996508,6.0,0.0347692947015637,-0.8319306283182518,0.5141191747172581,2.978753473448943,-0.8139857597326492,-0.7140263524895019,0.8974378329402117,-0.4148402613167288,0.0490170066220195,-0.1418105308503633,3.5349999999998545,7.0,0.0466909497096407,0.0989559042141296,0.97356185434536,-0.7264292244698737,0.3869558073297417,-0.5654931572287929,0.8556174956069202,-0.0046359363728687,-0.0370630617469221,-0.5162591778934612,3.5349999999998545,8.0,-0.0621240622106138,-0.0543029909723393,0.9762974885074268,-1.3819537979521628,0.2101501821349247,3.3732747293448115,0.8791501334238021,-0.064004591091504,0.0372602102008879,0.4707548533535328
53,53,3.5679999999997563,0.0,-0.0418117399079779,0.0657623825636478,0.9770507087379958,-0.0747793291648137,-0.0691753520735134,0.3861831299555751,0.993597252825884,0.0275538304374986,0.0382169469682355,0.1026876359135055,3.5679999999997563,1.0,0.0721973207725987,0.1088053296692644,0.9711554701018892,1.0757740513251726,-0.6140122603536088,2.7209188585533663,0.9665912017278526,0.1217578593652697,-0.0748685196454868,0.2127702450794901,3.5679999999997563,2.0,-0.0096912540283358,0.1422809160866359,0.9697856569948364,1.201579469362542,-0.5077926361043552,3.759794873445513,0.9745991589434893,0.1438494585041693,-0.0463479524463684,0.1652745593814426,3.56899999999996,3.0,-0.047180965682439,-0.1385179510533687,0.9693341703010626,-0.8656196228518921,-0.2943032197047968,1.8114539495211064,0.9287378549429512,-0.1427706799975244,0.0023786634299688,0.34213575038177,3.56899999999996,4.0,0.0594630798490433,-0.1477873562086429,0.967084298021494,-0.5692152354680465,-0.527239366855064,2.128527905076093,0.9527922053333022,-0.1746615036557471,-0.0581662480710651,0.2414478415354981,3.593,5.0,0.1489139957437733,0.5931531373390446,0.8065122302460589,1.263308936896825,0.6014002132542555,1.2660259251919117,0.9283875497680376,0.3509555651252982,-0.0747828988915372,-0.0966140092153304,3.593,6.0,0.0476691670971615,-0.838012072079097,0.6062148278935127,10.776482546001594,-2.1888619678517047,-3.549311886374211,0.9536514871581094,0.128947332977991,-0.1052701705793964,-0.2506783148682268,3.594,7.0,0.0191509785842931,0.0839052698138644,0.978856039321782,-2.203432154498852,0.7691124595139028,-1.766215312251737,0.8078789913293164,-0.0671080536763087,0.0454105769809567,-0.5837515944293091,3.594,8.0,-0.0746964272414617,-0.1739967721401364,0.9751423316840336,-0.8806862399388722,-0.30738731522921,-2.1082687634691646,0.9223374026785108,-0.1043889213925892,-0.0133525264423299,0.3717773241449205
54,54,3.604999999999563,0.0,-0.039513842523663,0.0541492856599975,0.9779757211257992,-0.1254408000738293,-0.1605910985510215,0.3451210683122793,0.9921521410791878,0.0225950941209479,0.0276807387950086,0.119822232383692,3.604999999999563,1.0,0.1211639750606471,0.148150674313889,0.9614492544319968,0.8200459688285676,-0.524338300229545,1.823472971071816,0.9365946682397156,0.1550332090507314,-0.1015995284543011,0.2973763059395164,3.604999999999563,2.0,0.0597802496393627,0.2062195523374386,0.9554134277823408,0.911742315928336,-0.5578442517282882,2.798331324711933,0.9349767155255636,0.1799027421463739,-0.086469607126653,0.293217584460084,3.604999999999563,3.0,-0.0440422528221053,-0.176337963663529,0.9628692551625864,-0.6750895677222022,-0.2458885584651717,1.2404765837474057,0.9019739614372684,-0.1637626475250065,-0.0112461207791385,0.3993723737718759,3.604999999999563,4.0,0.0685062208061018,-0.1897537259599855,0.9587149843384988,-0.5563639307329837,-0.3269467269835204,1.2358050584206348,0.9320979717995962,-0.1913619874079911,-0.0681260095700058,0.2998879916942498,3.6529999999997926,5.0,0.0929841394808473,0.4906946455293771,0.8421227432232223,1.3727227236872703,0.0298539935598482,0.9386106305797012,0.9100978534410914,0.3998290796236809,-0.0986131835528531,-0.0461957171041753,3.6529999999997926,6.0,0.1487130232876265,-0.6450486168485106,0.7228006077795436,5.491967251664499,-0.9234430754477654,-1.5544385362022484,0.8835356996862396,0.3273480236587696,-0.1798771328941901,-0.2825812376086039,3.6529999999997926,7.0,0.005892075396385,0.0260586754616031,0.97984245105053,-2.242921678479984,0.5344533820571774,-1.2153279158676364,0.7634677504515809,-0.1326994911318631,0.1175839439799013,-0.6210328938082738,3.6529999999997926,8.0,-0.0638123590001484,-0.1087033695965494,0.9716339641434896,-0.0852045133866432,-0.1426037169741763,-1.154095875541908,0.9424098602430212,-0.1007161889228978,-0.0251731925652523,0.3179405840430708
55,55,3.703999999999724,0.0,-0.034927622252133,0.043299545917026,0.9784754521842596,-0.2062027467470094,-0.0692056479129219,0.4020894790457632,0.9898359708127946,0.0130761169464103,0.0220191184902494,0.1398889719442116,3.703999999999724,1.0,0.1514391975205076,0.1821841980802221,0.951098884146234,0.5213299693490837,-0.2460579871643292,-0.1229213790653007,0.9342139715735128,0.1794420127932669,-0.0987240331841951,0.2920588718621483,3.703999999999724,2.0,0.0697263209674553,0.2639470052255174,0.9406615855858176,0.939049050847592,0.4679776861204022,0.0298485739469768,0.9287664266146524,0.212503291604543,-0.0421591429229854,0.3007621693609139,3.703999999999724,3.0,-0.034423000364567,-0.2072136708095953,0.9572870790288114,-0.4045113864860764,-0.292659552497475,0.6155210803024312,0.8868271629119754,-0.1703197608374422,-0.028529481038177,0.4286196809544161,3.7049999999999272,4.0,0.0759954637829563,-0.217572640390174,0.9528823828983624,-0.310640039996086,-0.2934873484206863,0.589302356833705,0.9208695942256758,-0.1937897861905826,-0.0808157717662224,0.3285019333773809,3.687999999999647,5.0,0.1101943040253608,0.5036826492817938,0.8330606245483217,-0.4219263916629654,-0.1617848464213541,-0.2021534067045457,0.9227449298763992,0.3675910492485679,-0.0986842187363432,-0.0606633321878506,3.688999999999851,6.0,0.1677848266015357,-0.175579147053486,0.948501035888872,5.715836308783532,1.009730605643412,-0.857372371231581,0.7890456348393532,0.5369728862398017,-0.1862178859900163,-0.2332166471795444,3.688999999999851,7.0,-0.0149141522887705,-0.0974243023911159,0.9748369470660782,-1.5544974345753972,0.358358853817513,-0.0148106808906739,0.7521076693314545,-0.1705184332114711,0.1712838287920359,-0.613122636723073,3.688999999999851,8.0,-0.0600534479054563,-0.1273774359238033,0.9689600467574212,-0.1912464046044997,0.122202112445728,-1.0345556478950677,0.957225683252386,-0.1074423135907125,-0.0245345435338726,0.2675316742852368
56,56,3.733999999999924,0.0,-0.0267291059891948,0.0334248541551151,0.9789996598659916,-0.1702885416781885,-0.1361393374628169,0.4706773102925445,0.9864909416395824,0.0063324003024818,0.0133472231314466,0.1631483202614689,3.733999999999924,1.0,0.1567068818767046,0.2079763165820817,0.944169373001174,0.2200581396263075,-0.054710066517066,0.2793924434901745,0.9293537263804462,0.1838258510064251,-0.095375019243712,0.3056359165229177,3.733999999999924,2.0,0.0567427243910625,0.3005913637184828,0.9307814433509852,0.4240440261230784,0.0494946469786015,0.6390829206793245,0.9160142055073758,0.2243251311553427,-0.0347267847088106,0.3307419859416362,3.733999999999924,3.0,-0.0278563210721132,-0.2227288719792926,0.9541000340442084,-0.1619748842758742,-0.2692173982261865,0.6985072772288758,0.8707781561880753,-0.1665571372007271,-0.0386426671467576,0.460989009661813,3.733999999999924,4.0,0.0841838403306665,-0.2272656254226216,0.9492773127640024,0.0441351943200405,-0.3142399637470068,1.0283201942328113,0.9041365607959972,-0.1810991801322283,-0.0847167729833815,0.3775754689630976,3.746,5.0,0.3140384791021621,0.8718425177281478,0.6736998277605875,-6.264930491033514,0.7284542136432023,-0.4757969259238329,0.9936143515018218,0.0511953919533251,-0.0451826616750762,-0.0898224883663053,3.746,6.0,-0.0212929848648603,0.8433373564243032,1.4832446568435071,26.514716481527483,2.2136987309612084,-8.6209371254654,0.0205607813554112,0.948572389963795,-0.2859836163796431,0.1341679784108341,3.746,7.0,-0.0698656574153308,-0.3498897139616309,0.9587575178207322,-1.6170001705357626,0.8580122867006534,1.3455210452030637,0.7715809874754023,-0.1889102048591541,0.2626393848162049,-0.5477191504867445,3.746,8.0,-0.080680818837511,-0.4113236436113204,0.9663024711124442,1.2292604664037787,-0.8329725564911812,-8.89387942903702,0.9799394592714809,-0.0268333205922543,-0.0590629708369006,-0.1884414883846721
57,57,3.8079999999999927,0.0,-0.0099249005210311,0.0265399139485911,0.979464715708151,-0.116560865452901,-0.3335040312307444,0.3180983239603423,0.983887483361802,0.0041474430704857,-0.0046914357787821,0.1786790676892249,3.8079999999999927,1.0,0.1673480704969538,0.2051990372101612,0.943941724064028,-0.1516239518576419,-0.0737248164559366,0.5954899888440007,0.922477053844119,0.1694754078666916,-0.1015786627653673,0.3316563681437352,3.8079999999999927,2.0,0.0681111143678494,0.2949749481273394,0.9312457549309116,-0.4093742578923834,-0.1408856830297803,0.4414431147052027,0.9146620578127332,0.2003219615768336,-0.0472413491594313,0.3478975231837423,3.8089999999997417,3.0,-0.0170106643017622,-0.2255614804994528,0.9522702640610532,0.0273609205699623,-0.3539013565983886,0.3007429209434488,0.8642432023153002,-0.1518649177252639,-0.0517389374163097,0.4768058476687606,3.8089999999997417,4.0,0.0865683605172258,-0.2273158525440093,0.9498354710893616,0.0786563791113377,-0.1266680924416467,0.4030381933049176,0.8982987077364806,-0.1680251207159557,-0.0855760032516941,0.3968674062641374,3.803999999999633,5.0,0.1784212394332741,0.4916509057260825,0.8276456054482602,-1.7749315173731843,-1.0245035217576952,0.772544332972716,0.9935997822232416,-0.0238794294152056,-0.0944429282557678,-0.0571819807212651,3.803999999999633,6.0,0.0654998519844327,0.3873257729916278,0.898213513017064,3.60923941348313,-0.4468294417455688,-4.245216760649212,-0.1055602508776678,0.9809894590188204,-0.0463192407385903,0.156112916397094,3.803999999999633,7.0,-0.0341332307921287,-0.1859282735372164,0.9611740735450376,-1.2076010578682244,0.1995532740231416,0.5409524239028557,0.7774860097277823,-0.2117034098616042,0.2908591852767145,-0.5158469785418023,3.803999999999633,8.0,-0.0601346230902053,-0.1588171823988324,0.9647724756027688,-0.7147814300450902,0.0406033579534156,0.0796606257010774,0.9795557105418958,-0.0664069465765175,-0.0396695579610451,-0.1857069023012351
58,58,3.88399999999956,0.0,0.0124608179549869,0.024641560888014,0.9789394881671158,0.0412934849761153,-0.3336176163580532,0.3575582163576411,0.9803246548540429,0.0099996713506959,-0.0207845170906558,0.1960397447138928,3.884999999999764,1.0,0.1818940295121435,0.1688078640630725,0.9476964002560624,-0.6028323440805892,0.0261084069117186,1.1171599796095188,0.909244750501325,0.1302228867849642,-0.1133558497123021,0.3787696328630051,3.884999999999764,2.0,0.1042881816643216,0.2274353140556251,0.9471711318898866,-1.1906729285589837,-0.3839274607642377,0.6499604897779443,0.914338200663369,0.1435565160935281,-0.0863055195659398,0.3686848773508541,3.884999999999764,3.0,0.0105994035727957,-0.2081007914650978,0.9577299792924416,0.4706718327594178,-0.4119775703814526,-0.1585027259763582,0.8711912829939131,-0.1150053843769248,-0.0597894116095962,0.473523744134456,3.884999999999764,4.0,0.0936012735392829,-0.2138289738179761,0.9514609669070906,0.4317103814494696,-0.0751146829501312,-0.469282469247494,0.912169316414794,-0.1361354476249419,-0.0838505843892133,0.3773371934873524,3.8799999999996544,5.0,0.1639740445633355,0.4154356123865179,0.8712862702181068,-0.240948914228674,0.3146923714260122,0.1874698977768046,0.9954519241007398,-0.013086297534954,-0.0790339503453588,-0.051554343306544,3.8799999999996544,6.0,0.023835448979075,0.4294509843258479,0.8804781220641015,-1.0172092865126434,-0.2157082129985807,0.4939204436603943,-0.0481655995458734,0.984043493172035,-0.0737886856040988,0.15457589864848,3.880999999999858,7.0,-0.053669771924185,-0.2525505930516798,0.944033767156054,-0.8421847048394568,0.13711455425418,0.4408846777650871,0.7841217485230012,-0.2235546360331951,0.3045265330489942,-0.4923819644041164,3.880999999999858,8.0,-0.0605040186505992,-0.239026351397323,0.9484828238111704,-1.1783071115909318,-0.0745829890538431,-0.3334242400706821,0.9705810319589656,-0.1283397175114989,-0.0252551327853842,-0.2021473610476531
59,59,3.9899999999997817,0.0,0.0396018586748565,0.033822506374557,0.9792117906010116,0.1601010283298734,-0.3740670329524446,0.6500814620562244,0.9728235498549664,0.021848123530629,-0.0376731948164509,0.2274153265241673,3.9899999999997817,1.0,0.1785518130111591,0.1196332458340374,0.9565103954279016,-0.7594264241571262,0.1429647623510282,-0.0197886128755229,0.915938460622138,0.0889514196614128,-0.1158239470972581,0.3738036845353168,3.9899999999997817,2.0,0.1194978435846493,0.1572266559195532,0.959597334326734,-1.13997297755297,-0.1479242346703854,-0.041645163521558,0.922756750346298,0.0891279718736408,-0.107938233245648,0.3590620031747153,3.9899999999997817,3.0,0.0451345339948597,-0.1625740154399445,0.9657072865753886,0.878882855838059,-0.5582936731844121,-0.3608799990864325,0.8829990773762936,-0.0565111288476358,-0.0646219505355591,0.4614576092968452,3.9899999999997817,4.0,0.102921415404191,-0.1673710441574181,0.960614967522812,0.9459093515690216,-0.0556114563457528,-0.2252323903745124,0.9228975032448914,-0.0826902905010633,-0.0691572065412863,0.3696482045737558,3.9909999999999854,5.0,0.1578153286079549,0.3998289418837796,0.8802585638824881,-0.5914010365007856,-0.3275057390763507,-0.9477053167732824,0.989901179004625,-0.0184785940549176,-0.0964349075321001,-0.10224727857641,3.9909999999999854,6.0,0.027495195902992,0.3829029611922195,0.9022241054818286,-0.6167953721238408,-0.8107690935696488,-2.0122353585204635,0.0096144562073187,0.991317814513478,0.0251607575888525,0.128699219646484,3.9909999999999854,7.0,-0.0550014311130215,-0.2847165176370002,0.935573271935544,-0.2665871774317438,-0.1004963590802798,-0.0855034678045565,0.7873351117138734,-0.2271785840458997,0.2874274275999354,-0.4958616608255637,3.9909999999999854,8.0,-0.0464746618214076,-0.3594564700080888,0.9098335847713632,-2.63840835855534,0.2023619129697587,-0.2911113789936156,0.943019926166516,-0.2542123386247937,0.0157665572853352,-0.2141049308520948
60,60,4.018999999999778,0.0,0.0691620771861896,0.0433424968561369,0.9766499040319244,0.1088842593317068,-0.4485939592526973,0.6884660623287518,0.9633298334161556,0.0316414202244201,-0.0582787208718541,0.2599962370307001,4.018999999999778,1.0,0.1476985449071441,0.0838798834463609,0.965215159943801,-0.6149710718432417,0.5584285958790751,-1.6058509681923454,0.94965398775287,0.0562828443804047,-0.0895110326175034,0.2949191753909395,4.019999999999982,2.0,0.1043476385532415,0.0887823909708479,0.969982606741926,-1.0209308254745582,0.1023555485655564,-1.5895901780177013,0.9538050690023162,0.0441036476707261,-0.1097945222849837,0.2761447473406571,4.019999999999982,3.0,0.0747029471441255,-0.0852806513649646,0.9732202629367874,1.333964166588426,-0.1546937841636526,-0.5433576908262592,0.8976908876920049,0.0123631716084371,-0.0393292539513642,0.4386928674211034,4.019999999999982,4.0,0.1086592737116512,-0.0823717819843483,0.9706250830105204,1.5350967246553175,-0.1967044623554319,0.1527352605849405,0.924030639237726,-0.0020848474682777,-0.0495073680611133,0.3790937241219049,4.01299999999992,5.0,0.1565273667079015,0.3761129659351002,0.8899484368922685,-0.4311509160652622,-0.2333501757100034,-0.5506213410203394,0.985102463237856,-0.0184494127907444,-0.107263137413511,-0.1331441904199928,4.01299999999992,6.0,0.0297316871445128,0.3272181077158029,0.9218504958844628,-1.6677975348492529,-0.5515131062264963,-0.8108179727405764,0.1161502100351127,0.9849505175988132,0.0546979710294393,0.115714037851472,4.013999999999669,7.0,-0.0619833992989305,-0.2435858950016229,0.947427553941518,1.575173091446048,-0.0074218225737894,1.0037220640764968,0.8363171514095445,-0.1329623651634243,0.2362000722075338,-0.4765544644608095,4.013999999999669,8.0,-0.0692415548544148,-0.627729771399047,0.7487121884814238,-5.818540914627563,0.6568731954501003,-1.2680199985051046,0.8306910980733991,-0.48963270941765,0.0813051962168836,-0.2521935259241905
