Timestamp,Ax,Ay,Az,Rx,Ry,Rz,EMG
0,-0.0906,-0.8975,-0.1653,0.5609,-0.3526,-0.2812,2051
0,-0.2048,-0.9209,-0.1333,0.6975,-0.2891,-0.3894,2049
0,-0.1387,-0.9128,-0.1172,0.7522,-0.3342,-0.329,2053
0,-0.0579,-0.9338,-0.1453,0.8198,-0.5807,-0.395,2054
0,-0.095,-0.9116,-0.1135,0.9043,-0.7949,-0.449,2052
0,-0.0667,-0.9766,-0.0798,0.9199,-1.0487,-0.4032,2053
0,-0.2676,-0.9045,-0.1047,0.9626,-1.0744,-0.4683,2075
0,-0.1941,-0.9509,-0.0435,0.8859,-1.1003,-0.3783,2055
0,-0.1323,-0.978,-0.009,0.874,-1.0539,-0.328,2034
0,-0.1335,-1.0007,0.0793,0.9038,-0.9143,-0.3622,2027
0,-0.1724,-1.0791,0.1736,0.8293,-0.6514,-0.2991,2050
0,-0.0273,-1.1311,0.2192,0.8162,-0.5155,-0.3068,2052
0,0.2144,-1.1421,0.1941,0.7401,-0.6123,-0.3076,2053
0,0.2263,-1.1045,0.2319,0.6513,-0.6821,-0.3264,2052
0,0.1082,-1.0786,0.2371,0.581,-0.823,-0.2952,2048
0,-0.0237,-1.0168,0.2156,0.5738,-0.9893,-0.2842,2053
0,-0.0679,-0.9858,0.1724,0.573,-0.9998,-0.3594,2051
0,0.0146,-1.0278,0.136,0.4639,-1.1544,-0.3906,2056
0,0.0542,-1.0339,0.01,0.3497,-1.199,-0.4095,2055
0,0.1091,-1.0247,-0.0276,0.2445,-1.5522,-0.3446,2051
0,0.2002,-1.063,0.1206,0.1471,-2.2007,-0.2625,2056
0,0.2449,-1.2336,0.3357,-0.1583,-2.9765,-0.0401,2060
0,0.3975,-1.2207,0.3809,-0.6734,-3.9643,0.0987,2051
0,0.3501,-1.1663,0.3752,-0.754,-4.3635,0.1281,2051
0,0.0281,-1.114,0.6682,-0.345,-4.3635,0.125,2050
0,0.6917,-1.7659,1.0378,-1.1927,-4.3635,0.9009,2063
0,1.2778,-0.9805,1.0039,-1.9441,-4.3635,1.1958,2036
0,-0.2703,-0.3179,0.8132,-1.9873,-4.3635,0.5861,2037
0,-0.7043,-0.677,0.3394,-1.5408,-3.7966,0.877,2052
0,-0.3296,-0.8074,0.3127,-1.273,-2.8221,0.8886,2061
0,0.6997,-0.7178,0.917,-1.9146,-4.3635,0.5947,2045
0,1.9292,-0.7166,-0.377,-0.4429,-4.3635,1.7334,2055
0,-1.2285,-0.7051,0.4539,-0.5446,-4.3635,0.4521,2043
0,0.0117,-1.3999,0.2246,-1.0158,-3.7415,0.9644,2059
0,-0.3052,-1.0132,0.2014,-0.4175,-2.1041,0.815,2050
0,-0.5935,-0.9812,-0.1304,-0.7167,-0.0128,0.5153,2054
0,-0.5811,-0.8672,-0.2864,-0.8176,1.8731,0.3924,2054
0,0.1248,-0.9375,-0.5869,-0.8861,2.3451,0.5489,2052
0,0.7034,-0.9421,-1.3328,-0.8449,2.2712,1.1142,2049
0,0.5164,-0.6577,-1.2566,-0.227,-0.0473,1.3968,2050
0,0.0,-0.7612,-0.2888,0.1669,-1.8337,1.3343,2049
0,-0.1543,-1.0725,0.1812,0.0111,-1.1375,1.0335,2055
0,-0.3933,-0.7881,0.0337,-0.0346,0.6606,0.7996,2070
0,-0.6619,-0.947,0.1614,-0.2089,0.6379,1.069,2062
0,-0.7642,-1.1318,0.864,-0.0996,0.9614,1.0717,2042
0,-0.9214,-1.1372,0.4382,0.0489,1.662,1.266,2039
0,-0.5103,-0.9304,-0.0825,-0.285,0.7166,0.9609,2051
0,-0.2092,-0.9575,-0.0056,-0.2735,0.0292,0.6645,2055
0,-0.3276,-0.9749,0.04,-0.1477,0.0104,0.5794,2054
0,-0.4485,-0.949,0.0325,-0.1517,-0.0141,0.6438,2052
0,-0.491,-0.9907,-0.1304,-0.2163,-0.1543,0.6341,2062
0,-0.5527,-1.0037,-0.3108,-0.2472,-0.3611,0.5702,2051
0,-0.5459,-0.9573,-0.354,-0.222,-0.4007,0.51,2056
0,-0.4563,-0.8633,-0.3542,-0.118,-0.3326,0.4003,2042
0,-0.3538,-0.9014,-0.2625,-0.0742,-0.2814,0.1613,2030
0,-0.2573,-0.9517,-0.2183,-0.016,-0.2309,0.1214,2118
0,-0.1414,-1.0081,-0.094,-0.1493,-0.1386,0.2261,2044
0,-0.2002,-1.0317,-0.0107,-0.2566,-0.0132,0.2563,2041
0,-0.2615,-0.9951,-0.0024,-0.1872,-0.1103,0.2607,2016
0,-0.2544,-0.9717,-0.0481,-0.1384,-0.2212,0.2261,2076
0,-0.2324,-1.0146,-0.0012,-0.2103,-0.2859,0.2575,2030
0,-0.1672,-0.9937,-0.1011,-0.2048,-0.2317,0.2924,2061
0,-0.2029,-0.9224,-0.1201,-0.1739,-0.2722,0.2875,2211
0,-0.1953,-0.8906,-0.1311,-0.1744,-0.2898,0.3402,2138
0,-0.2266,-0.8777,-0.1428,-0.1416,-0.2633,0.3196,2127
0,-0.2661,-0.8931,-0.1909,-0.0985,-0.2116,0.3172,2307
0,-0.2576,-1.0083,-0.1223,-0.2515,-0.2434,0.4621,1961
0,-0.2666,-0.9832,-0.0681,-0.2224,-0.1784,0.4818,2089
0,-0.3701,-1.0071,0.0181,-0.3113,-0.2919,0.4589,2072
0,-0.3376,-1.031,0.0208,-0.2745,-0.1903,0.4798,2060
0,-0.3115,-1.0078,0.0061,-0.2535,-0.2987,0.4384,1899
0,-0.2942,-0.9731,-0.0327,-0.2298,-0.4581,0.4277,2146
0,-0.3022,-0.9548,-0.0613,-0.1958,-0.5271,0.4113,1834
0,-0.2197,-1.0305,-0.0835,-0.1667,-0.5723,0.4829,2101
0,-0.0408,-1.0796,-0.1084,-0.1233,-0.6328,0.6336,2091
0,0.0879,-1.2063,-0.1118,-0.1116,-0.7637,0.7954,2133
0,0.0906,-1.2708,-0.0942,-0.1659,-0.9186,0.8869,1961
0,0.0791,-1.175,0.0137,-0.2171,-0.9011,0.9878,1920
0,0.1282,-1.1826,0.0708,-0.2932,-0.94,1.0581,2048
0,0.071,-1.1934,0.095,-0.3478,-0.7921,1.1533,2040
0,0.0781,-1.3584,0.2021,-0.3602,-0.5919,1.1255,2048
0,0.1096,-1.3694,0.1692,-0.38,-0.5283,1.3746,2097
0,0.2078,-1.4087,0.2556,-0.3852,-0.348,1.7121,2038
0,0.1902,-1.4077,0.1931,-0.3974,-0.337,1.9592,2051
0,0.3401,-1.5393,0.2324,-0.3922,-0.0727,2.3136,2048
0,0.4497,-1.8284,0.2461,-0.373,0.2215,2.626,2057
0,0.707,-2.0,0.3567,-0.4374,0.3605,3.1492,2055
0,0.8252,-2.0,0.6365,-0.6562,0.5075,3.5707,2040
0,1.0388,-2.0,0.7578,-1.0343,0.4689,3.7777,2040
0,0.9658,-2.0,0.6392,-1.4263,0.0214,3.8317,2008
0,0.5854,-2.0,0.4609,-1.8112,-0.8584,4.0164,2054
0,0.0183,-2.0,0.5586,-2.1342,-1.7961,3.672,2082
0,0.5681,-1.6204,-0.2209,-2.2595,-2.4318,3.6106,2080
0,0.4102,-1.0864,-0.5996,-1.0943,-4.3635,3.2053,2049
0,-1.0427,-0.8308,-0.3318,0.3139,-4.3635,3.1855,2042
0,-1.3833,-2.0,-0.2163,-1.5799,-3.1676,0.4561,2059
0,-1.177,-1.2102,0.187,-3.0253,-4.2671,-0.1727,2044
0,-1.9324,1.0244,-0.2507,-2.1007,-2.1306,2.2352,2064
0,-2.0,0.2461,-0.4607,-1.9535,1.5749,1.2725,2059
0,0.5571,-1.9297,0.2969,-1.177,-0.2043,3.0533,2034
0,-2.0,-0.3752,-0.3027,0.1368,0.1791,0.2092,2068
0,-2.0,-0.4795,0.1084,-0.4693,0.9084,-0.1915,2071
0,0.4648,-0.3479,0.0171,-1.1395,-0.0092,0.2289,2057
0,-0.6772,-0.1692,0.03,-1.033,0.3321,-1.0112,2031
1,-1.043,-0.2571,-0.0325,-0.3822,0.8712,-0.6883,2049
1,-0.7773,-0.2869,-0.0146,-0.3012,1.3075,-1.0287,2052
1,-0.7329,-0.1792,-0.0354,-0.1003,1.1319,-1.532,2047
1,-0.9875,-0.0825,-0.0059,0.0041,0.8929,-1.7491,2043
1,-2.0,-0.136,-0.0383,0.0915,1.4027,-2.5151,2052
1,-0.2578,-0.0698,0.1401,-0.0732,0.7708,-1.9899,2050
1,-0.3364,0.0532,0.0491,0.02,1.0701,-2.4306,2049
1,-0.4626,-0.0603,0.0085,-0.0189,1.3765,-2.9076,2048
1,-0.5547,-0.0127,-0.0066,0.03,1.9587,-3.0303,2056
1,-0.4041,-0.071,-0.0242,0.0419,2.0731,-3.2033,2056
1,-0.343,-0.0017,-0.1226,0.2759,1.7258,-3.2453,2054
1,-0.3625,0.0305,-0.167,0.3737,1.2704,-3.2877,2046
1,-0.3425,0.0278,-0.1907,0.4401,1.0328,-3.444,2055
1,-0.332,0.019,-0.1938,0.4811,1.0889,-3.6159,2051
1,-0.2639,-0.0764,-0.0889,0.6542,0.8332,-3.6065,2071
1,-0.3215,-0.168,0.0085,0.7992,0.534,-3.7111,2065
1,-0.3977,-0.1868,-0.002,0.7584,0.546,-3.7676,2023
1,-0.4104,-0.218,-0.1165,0.748,0.5309,-3.6958,2097
1,-0.3672,-0.2461,-0.1577,0.7364,0.5303,-3.6585,2038
1,-0.4751,-0.3584,-0.0349,0.5747,0.585,-3.6595,2045
1,-0.5879,-0.4846,-0.0728,0.4032,0.5998,-3.8358,2055
1,-0.5479,-0.4207,-0.1682,0.518,0.3328,-3.6482,2050
1,-0.5188,-0.4827,-0.1162,0.2503,0.0314,-3.5987,2049
1,-0.635,-0.4565,-0.1931,0.0812,-0.4325,-3.3717,2051
1,-0.6855,-0.5789,-0.1682,-0.045,-0.8937,-3.0473,2053
1,-0.8762,-0.5281,-0.2334,-0.1004,-0.9998,-2.6103,2047
1,-0.9641,-0.4958,-0.1194,-0.1189,-1.1753,-2.2169,2054
1,-0.8938,-0.4631,-0.0525,-0.1273,-1.1998,-1.7865,2050
1,-0.9619,-0.3806,-0.1006,-0.1579,-1.0844,-1.4398,2053
1,-0.9753,-0.1716,-0.1458,-0.2302,-1.0704,-1.1097,2052
1,-1.1426,0.2246,-0.1609,-0.222,-0.997,-0.9072,2053
1,-1.6433,-0.6384,0.3672,-0.6918,-1.3286,-2.2947,2044
1,-0.26,0.2578,-0.3123,-0.1955,2.1347,-0.895,2069
1,-1.2441,-1.9133,-1.8042,0.2974,2.4513,2.8733,2036
1,-1.2966,-2.0,-0.1919,1.8156,0.1234,1.6006,2112
1,1.9999,-2.0,-0.3203,-2.9879,-1.2741,3.4754,2025
1,0.0198,1.9999,1.9999,-1.5362,-3.9202,1.9562,2057
1,1.9999,-0.2285,0.6865,-0.2064,-3.1793,-3.0534,2019
1,-1.6167,-1.6118,-2.0,0.3123,2.0607,0.2759,2064
1,-2.0,-0.7847,-0.7478,-0.4735,1.943,2.2621,1987
1,-0.2407,-0.6838,1.0154,-0.6894,-0.6403,2.5643,2119
1,-0.0959,-0.7703,-0.6045,-0.6586,-1.0417,-0.6308,2047
1,-0.9072,-1.55,0.0698,0.0807,-0.9441,-0.0883,2057
1,-0.6978,-1.179,-0.4033,-0.0467,-0.0336,0.3984,2057
1,-0.8406,-0.74,-0.5862,-0.0441,-0.604,0.4896,2055
1,-0.7393,-0.5366,-0.5234,0.0513,-0.5276,0.0635,2060
1,-0.3777,-0.9133,-0.3831,0.017,0.0017,-0.1782,2041
1,-0.4539,-1.1174,-0.385,0.1509,0.175,-0.1354,2058
1,-0.5093,-0.9636,-0.4409,0.1666,-0.1221,-0.218,2053
1,-0.5232,-0.8867,-0.4597,0.2221,-0.1707,-0.4104,2044
1,-0.4194,-0.9302,-0.426,0.3259,-0.1993,-0.5253,2050
1,-0.3174,-0.9351,-0.4133,0.4871,-0.1547,-0.5319,2058
1,-0.3699,-0.9614,-0.3708,0.5936,-0.0726,-0.5309,2039
1,-0.3171,-0.9768,-0.3494,0.6163,-0.073,-0.546,2039
1,-0.2559,-0.936,-0.3037,0.6332,-0.1778,-0.555,2062
1,0.0066,-1.0076,-0.2612,0.7385,-0.4304,-0.5012,2050
1,-0.0471,-0.9436,-0.187,0.918,-0.6847,-0.259,2037
1,-0.2322,-1.0034,-0.0371,0.7304,-1.0207,-0.4164,2050
1,-0.1885,-0.821,-0.0259,0.8143,-0.7863,-0.4172,2043
1,-0.0554,-0.8049,-0.0203,0.9606,-0.9713,-0.3494,2045
1,-0.2896,-0.8943,-0.0356,0.9648,-0.8917,-0.5353,2039
1,-0.0842,-1.0835,-0.0459,0.764,-0.9184,-0.541,2050
1,0.1875,-1.064,-0.0667,0.7614,-1.1737,-0.4478,2057
1,0.2109,-0.6765,-0.2773,0.8618,-1.3537,-0.2686,2052
1,0.4514,-0.9456,-0.0627,0.7477,-1.6625,-0.0442,2054
1,0.2258,-0.7695,-0.1548,0.6323,-2.4956,0.1414,2044
1,-0.428,-0.6953,-0.3472,0.7007,-1.8683,-0.6589,2044
1,-0.1345,-0.8738,-0.2471,0.8786,-1.3958,-0.3551,2057
1,0.1443,-0.9795,-0.0774,0.7556,-1.1846,-0.3682,2052
1,0.3176,-1.0479,-0.0312,0.6987,-1.1192,-0.2831,2054
1,0.3157,-1.0659,0.1606,0.5295,-1.3705,-0.086,2148
1,-0.0151,-0.9155,0.103,0.6441,-1.1152,-0.1782,2229
1,-0.2939,-0.9902,0.3989,0.5256,-0.5577,-0.0939,2251
1,0.1111,-1.2769,0.2375,0.0699,-0.446,-0.0507,1889
1,0.2554,-1.2222,-0.032,0.0718,-0.3823,0.0763,2005
1,0.0386,-0.9719,0.2759,0.087,0.2904,-0.12,2029
1,0.4565,-1.0352,0.2258,0.1545,-0.1529,-0.0229,1921
1,0.7368,-1.1907,0.1816,0.1462,-0.3746,0.3864,2358
1,0.0637,-1.1296,0.1516,0.0314,-0.0806,0.0268,2127
1,0.1802,-1.1614,-0.0613,0.0344,0.2922,0.5141,1878
1,0.5078,-1.1858,-0.1997,0.1113,0.3294,0.7801,2215
1,0.2756,-1.1736,-0.3105,0.1627,0.2093,0.9238,1934
1,0.1108,-1.074,-0.1736,0.3263,-0.0686,1.0638,2809
1,0.0786,-1.1714,-0.0833,0.3911,-0.0164,0.9818,2262
1,0.1992,-1.584,0.0432,0.1044,-0.4461,1.1565,2154
1,0.1606,-1.5071,0.1235,0.0077,-0.6933,1.2512,2063
1,-0.0664,-1.1375,0.1638,0.0304,-0.8909,1.2762,2320
1,-0.0447,-1.354,0.2031,-0.0376,-1.0938,1.3074,2046
1,0.1731,-1.4578,0.2815,0.1858,-0.9194,1.7037,2041
1,-0.0225,-1.7012,0.2229,0.3342,-0.8039,1.8122,2041
1,0.1343,-2.0,0.4773,0.2904,-0.1955,1.6157,2048
1,0.6392,-1.9397,0.6243,0.2577,-0.063,2.0319,2053
1,0.7573,-1.9407,0.7385,0.1318,-0.2939,2.0042,2040
1,0.6514,-1.8953,0.5627,0.0875,-0.4221,2.2551,2041
1,0.407,-1.5667,0.3816,0.0511,-0.1487,2.3336,2050
1,0.3523,-1.2903,0.1387,0.0947,0.0507,2.3593,2045
1,0.3035,-2.0,-0.0088,-0.2441,-0.2477,1.4988,2047
1,0.3528,-2.0,-0.2395,-0.2233,-0.8688,2.0652,2052
1,0.1284,-1.928,-0.3513,-0.2168,-0.6739,2.459,2048
1,-0.1096,-2.0,-0.1377,-0.1862,-1.6655,3.2833,2058
1,-1.032,-2.0,-0.0693,-1.1794,-2.051,3.4596,2063
2,-2.0,-1.3496,-0.5044,-1.4298,-0.0346,4.1502,2046
2,-2.0,-1.3201,-0.3652,-1.0784,2.9424,4.2483,2058
2,-0.4963,-2.0,-0.0833,-1.5198,4.3634,4.3634,2082
2,0.1758,-1.4106,-0.1978,-1.421,4.3634,4.3634,2035
2,0.2104,-1.1572,-0.2385,-1.3921,2.6104,3.4053,2033
2,-0.6548,-0.9873,-0.3479,-1.4616,0.9796,2.9301,2051
2,-2.0,-1.6606,-0.5073,-0.8766,1.5747,1.3605,2044
2,0.4448,-0.9858,-0.2212,-1.5085,-1.0033,2.7183,2061
2,-0.4446,-0.4912,-0.3733,-0.7652,-0.1534,2.423,2053
2,-0.542,-0.4092,-0.6121,-0.5308,-0.1694,1.715,2053
2,-0.4597,-0.1257,-0.3191,-0.4591,0.4176,1.9425,2053
2,-0.689,0.0476,0.0098,-0.2497,1.2262,1.4928,2050
2,-0.5869,0.1384,0.3306,0.244,0.8337,1.5315,2057
2,-0.5815,0.2014,0.5117,0.4195,0.4265,1.1705,2063
2,-0.3535,0.1267,0.4333,0.3224,0.5665,0.2448,2053
2,0.1243,-0.0276,0.3337,0.1421,0.7323,-0.4047,2045
2,0.2363,0.1387,0.2239,0.0474,0.8403,-0.3621,2056
2,0.1467,0.3413,0.1199,0.2305,0.4775,-0.6233,2042
2,0.1707,0.291,0.1296,0.3737,0.119,-1.1878,2043
2,0.1245,0.1931,0.1016,0.4088,-0.0502,-1.755,2059
2,0.1812,0.2979,0.0464,0.4512,-0.0687,-1.9579,2048
2,0.2053,0.353,0.0139,0.5317,-0.1324,-2.2442,2045
2,0.1089,0.3159,0.0081,0.5801,0.0228,-2.6314,2053
2,0.0464,0.3281,-0.0171,0.6038,0.127,-2.8916,2055
2,-0.1072,0.3889,-0.0483,0.6062,0.1052,-3.221,2048
2,-0.1567,0.4487,-0.009,0.6393,-0.1296,-3.5037,2047
2,-0.1624,0.552,-0.0593,0.6866,-0.0772,-3.6162,2053
2,-0.1716,0.6863,-0.168,0.7774,0.1493,-3.6314,2043
2,-0.2424,0.749,-0.2153,0.8886,0.3538,-3.7158,2048
2,-0.3252,0.7488,-0.1887,0.9437,0.5514,-3.9186,2050
2,-0.3831,0.6448,-0.1357,0.8963,0.6665,-4.1246,2055
2,-0.5183,0.553,0.0237,0.8795,0.7183,-4.2819,2064
2,-0.7322,0.5156,0.1726,0.8451,0.8459,-4.3635,2040
2,-0.8259,-0.4602,-1.396,-0.2288,1.4158,-4.3635,2057
2,-2.0,-0.3296,-2.0,-3.3364,4.3634,-3.8772,2017
2,-2.0,-2.0,1.5508,0.758,-0.8574,3.7055,2075
2,-0.8213,-2.0,1.9999,3.5596,-1.5589,3.6806,2075
2,1.4316,-0.5496,-0.2632,-0.2569,4.3634,-1.6805,1895
2,1.9999,-0.0303,-0.6511,-0.4079,-3.2455,2.6097,2060
2,-2.0,-0.3516,0.1484,0.6695,3.2007,-3.2867,2010
2,-0.2991,-1.0261,-0.7522,-1.1915,4.3634,3.0174,2075
2,1.9999,0.2378,-0.2375,-0.2962,1.5055,1.584,2059
2,0.5476,-0.2947,-0.3398,-0.3943,-0.5259,-1.7899,2033
2,-1.0864,-1.5059,0.0818,0.4972,-0.9375,-2.0908,2045
2,-1.166,-1.9937,0.0693,0.084,-0.8143,-0.418,2070
2,-0.6763,-1.1807,-0.1399,0.5862,-0.3031,1.1251,2063
2,-1.0122,-0.3694,-0.0159,0.0076,0.0696,0.2349,2063
2,-0.8645,-0.9075,-0.0945,-0.1778,0.8211,-0.6237,2059
2,-0.8083,-1.1433,-0.1301,-0.1052,0.5067,-0.618,2045
2,-0.6023,-1.0728,-0.1731,0.0093,-0.1533,-0.5882,2039
2,-0.5693,-0.9021,-0.2249,0.0759,-0.4069,-0.8676,2052
2,-0.3982,-0.8521,-0.3242,0.1087,-0.4059,-1.1306,2050
2,-0.2236,-0.9216,-0.3884,0.1911,-0.2097,-1.0722,2060
2,-0.2908,-1.0066,-0.3577,0.2729,-0.051,-0.7827,2063
2,-0.4543,-0.9556,-0.3074,0.2782,-0.0316,-0.7311,2038
2,-0.5789,-0.8525,-0.2825,0.2666,-0.0866,-0.8477,2058
2,-0.4709,-0.7373,-0.2644,0.397,-0.337,-0.8198,2062
2,-0.2927,-0.8396,-0.2661,0.5486,-0.6175,-0.9212,2044
2,-0.2249,-1.0007,-0.2532,0.6239,-0.7486,-0.9588,2073
2,-0.1697,-1.0049,-0.2095,0.6042,-0.6622,-0.8793,2053
2,-0.2119,-0.9214,-0.1292,0.6046,-0.5886,-0.7941,2083
2,-0.209,-0.802,-0.075,0.6344,-0.6546,-0.7717,2044
2,-0.0566,-0.8357,-0.0486,0.736,-0.7929,-0.8159,2062
2,-0.0415,-0.9402,-0.0063,0.6925,-0.908,-0.7841,2082
2,-0.0029,-0.949,-0.0898,0.6348,-0.9255,-0.8107,1975
2,0.1809,-0.9993,-0.0859,0.4432,-0.9148,-0.7566,2069
2,0.2388,-0.9905,-0.1194,0.2384,-0.5996,-0.6293,2037
2,0.1736,-0.8911,-0.0654,0.3021,-1.0211,-0.6309,2062
2,-0.0632,-0.9075,-0.0649,0.2155,-1.0222,-0.9355,2000
2,0.0291,-0.9219,-0.0693,0.228,-0.9473,-0.6365,2233
2,0.3142,-0.832,-0.0012,0.3806,-0.647,-0.0198,2082
2,0.1804,-0.9209,0.0686,0.2646,-1.0503,-0.1149,2061
2,-0.1802,-0.9126,0.0645,0.3952,-0.5859,-0.0051,1985
2,-0.1743,-0.9717,0.033,0.3236,-0.2326,-0.3794,2076
2,0.281,-1.116,-0.0171,0.1621,-0.2076,-0.0911,2175
2,0.7256,-1.4341,0.4912,-0.8443,-2.2573,-0.1792,2035
2,0.5112,-0.8328,-0.2693,0.3405,-0.0999,0.5066,1531
2,-1.0378,-1.0984,0.3777,0.1301,-0.3318,-0.6644,2165
2,-0.1165,-1.0034,-0.0674,0.3096,0.7574,0.2562,2215
2,0.9099,-1.2842,0.0103,0.0401,-0.5653,0.5879,2209
2,0.2766,-1.2795,0.0022,0.0197,-0.7701,0.1875,1783
2,-0.6379,-1.0798,-0.1133,0.0364,-0.7771,0.2613,2013
2,-0.3767,-0.8218,-0.158,0.1188,-0.331,0.388,1955
2,0.2112,-1.2329,-0.2026,0.1848,-0.4172,0.7064,1981
2,-0.1016,-1.2273,-0.1604,0.2891,-0.4825,0.605,2237
2,-0.252,-1.2595,-0.1174,0.2101,-0.5525,0.3915,1712
2,-0.1074,-1.2048,-0.0037,0.1204,-0.6968,0.5473,2339
2,0.189,-1.25,0.0969,0.1759,-0.7497,0.5256,2037
2,0.2148,-1.3962,0.1953,0.1898,-0.9088,0.4992,2189
2,0.2385,-1.3835,0.2112,0.1778,-1.1248,0.7805,2048
2,0.24,-1.3428,0.0608,0.2914,-1.2195,1.085,2045
2,0.2986,-1.5117,0.1133,0.4626,-1.077,1.4629,2050
2,0.4077,-1.7861,0.3628,0.4352,-0.6697,1.4725,2042
2,0.8325,-2.0,0.342,0.2622,-0.4639,1.6198,2038
2,0.9026,-1.9644,0.3699,0.161,-0.4209,1.5938,2039
2,0.7874,-1.8887,0.5227,0.0683,-0.6718,1.9574,1937
2,0.5103,-1.7131,0.5574,0.1092,-0.4891,2.1322,2569
2,0.2625,-1.6577,0.5535,0.0583,-0.1655,2.2314,2660
2,0.3245,-1.6765,0.125,0.0987,0.2549,2.3806,1827
2,0.259,-1.9856,-0.1763,0.1137,0.1786,2.2871,2089
2,0.1987,-2.0,-0.2517,-0.1517,-0.2864,2.0158,2034
2,0.1387,-2.0,-0.2471,-0.0433,-0.5133,2.6641,2033
3,-0.0339,-1.7981,-0.3613,0.4332,-0.0615,2.5892,2043
3,-1.1802,-1.9331,-0.5015,0.2454,-0.3882,2.7544,2042
3,-1.707,-2.0,0.0989,-0.4328,0.2598,3.5942,2058
3,-2.0,-1.2117,-0.6362,-0.6789,1.5921,4.3634,2070
3,-2.0,-1.4346,-0.1211,-1.5753,4.3634,3.837,2068
3,-0.71,-1.6096,-0.2598,-1.7832,4.3634,4.1574,2067
3,-0.0247,-0.9568,-0.2043,-1.5681,4.3634,4.3634,2037
3,-0.0366,-0.3643,-0.1909,-0.8744,3.1757,4.0233,2042
3,-0.1282,-1.0037,-0.2627,-0.6898,1.4624,3.1379,2024
3,-0.5957,-1.02,-0.3096,-0.5546,0.6873,2.9412,2044
3,-0.9814,-0.6348,-0.3958,-0.5243,0.5741,2.8183,2053
3,-1.0002,-0.3328,-0.3953,-0.6948,0.991,2.6627,2057
3,-0.2292,-0.4922,0.136,-0.6753,-0.3059,0.7672,2058
3,-0.0327,-0.0266,-0.1011,-0.6962,-0.269,1.4701,2056
3,-0.3206,0.1753,-0.0469,-0.5598,-0.7407,0.8316,2045
3,-0.0801,0.2349,-0.0291,-0.4072,-1.1399,0.0084,2053
3,0.219,0.2144,0.1333,-0.2077,-1.1017,-0.2951,2057
3,0.1814,-0.0681,0.2507,-0.3032,-0.946,-0.8518,2050
3,-0.0974,-0.2422,0.269,-0.1811,-0.5767,-0.9492,2049
3,-0.1873,-0.1362,0.3303,-0.0482,-0.2968,-0.7439,2055
3,-0.2837,0.4939,0.2717,0.1425,-0.0606,-0.7023,2051
3,-0.313,0.4971,0.1902,0.0755,0.1906,-1.0274,2044
3,-0.1587,0.3074,0.1375,0.1764,0.0779,-1.5502,2050
3,-0.0854,0.1699,0.144,0.271,-0.0899,-2.2224,2054
3,0.1294,0.1565,0.1299,0.3313,-0.1107,-2.5473,2049
3,0.0593,0.2656,0.0344,0.3641,0.4108,-2.6892,2054
3,-0.0112,0.2302,0.0579,0.5102,0.4912,-2.9305,2045
3,-0.0774,0.3115,0.0757,0.5972,0.5277,-3.0269,2052
3,-0.1279,0.4368,0.0422,0.7461,0.6043,-3.1597,2057
3,-0.1396,0.502,0.012,0.8799,0.6328,-3.3453,2051
3,-0.0889,0.5593,-0.0969,1.0071,0.6397,-3.4328,2044
3,-0.0239,0.5598,-0.2266,1.1892,0.5683,-3.3351,2050
3,-0.0984,0.6377,-0.2634,1.3588,0.4666,-3.3379,2061
3,-0.2007,0.6824,-0.1853,1.3077,0.3927,-3.7388,2051
3,-0.3323,0.4131,-0.103,1.1947,0.5008,-4.0201,2054
3,-0.5889,0.2322,-0.0847,1.1678,0.6438,-4.0167,2059
3,-0.7957,0.1577,-0.0574,1.1959,1.0349,-4.1197,2045
3,-0.9771,-1.3198,-1.4253,-0.3931,1.6495,-4.3635,2050
3,-2.0,-2.0,-2.0,-2.3045,4.3634,-3.6535,2016
3,-2.0,-2.0,1.0684,2.5998,-2.5493,4.3634,2056
3,-0.2566,-2.0,1.9999,1.8627,-2.9365,2.3824,2087
3,1.9999,0.7148,-1.1206,-1.5652,4.3634,-0.9921,1944
3,1.9999,1.4573,0.9551,-0.6372,-3.3053,0.3818,2052
3,-2.0,-0.7646,-1.4377,2.4728,0.9622,-2.0228,2020
3,-2.0,-2.0,0.6101,-0.903,4.3634,0.3282,2061
3,1.9999,-0.3674,-1.1011,-0.9674,0.8698,4.3309,2059
3,0.2041,0.7053,0.0569,0.1987,-0.2197,-0.4576,2020
3,-1.3137,-0.9849,0.1208,0.1908,-0.8335,-2.8273,2055
3,-1.1533,-2.0,-0.0566,0.1819,-0.8361,-1.1865,2072
3,-0.5845,-1.312,-0.2332,0.4864,-0.7891,1.0792,1995
3,-0.6775,-0.4099,-0.1431,0.4283,-0.1943,0.4678,2032
3,-0.6211,-0.7795,-0.0676,0.0569,0.7395,-0.4167,2068
3,-0.6926,-1.1223,-0.0349,0.1262,0.6508,-0.4338,2075
3,-0.7104,-1.0337,-0.0249,0.0779,0.0738,-0.3582,2044
3,-0.7729,-0.9758,0.0122,0.0775,-0.0991,-0.6746,2043
3,-0.5483,-0.9556,-0.1133,0.0676,-0.1111,-0.9211,2062
3,-0.3171,-1.0278,-0.2114,0.1467,-0.0664,-0.8873,2025
3,-0.3772,-1.0493,-0.2214,0.1997,0.0561,-0.7273,2058
3,-0.5049,-0.9822,-0.1951,0.1321,0.0337,-0.7597,2051
3,-0.5801,-0.9277,-0.1887,0.0449,-0.0554,-1.0033,2037
3,-0.4976,-0.9011,-0.2244,0.0747,-0.2296,-1.1183,2051
3,-0.3718,-0.9038,-0.2454,0.1607,-0.2786,-1.134,2057
3,-0.1589,-0.8662,-0.2725,0.2733,-0.4346,-0.9854,2040
3,-0.1633,-0.8828,-0.2363,0.3514,-0.4313,-0.9115,2054
3,-0.1062,-0.8252,-0.1958,0.486,-0.4837,-0.7122,2047
3,-0.1567,-0.822,-0.1257,0.5631,-0.6195,-0.7247,2030
3,-0.1108,-0.8953,-0.1047,0.6251,-0.6975,-0.8095,2062
3,0.0076,-0.9517,-0.1108,0.5855,-0.7818,-0.7122,2036
3,0.0564,-0.949,-0.0806,0.4942,-0.8907,-0.7417,2029
3,0.0466,-1.0286,0.0125,0.3619,-0.8222,-0.791,2042
3,0.0605,-1.0093,-0.0396,0.2064,-0.7433,-0.7574,2021
3,0.1433,-0.9558,-0.064,0.1887,-0.546,-0.5923,2032
3,0.259,-0.9043,-0.1292,0.1979,-0.5506,-0.4785,2107
3,0.2292,-0.9109,-0.0327,0.0981,-0.881,-0.3876,2022
3,0.314,-0.9492,-0.0664,0.2209,-1.0705,-0.1362,2053
3,0.1204,-0.896,0.0005,0.2242,-1.0837,0.0039,2082
3,-0.0347,-0.8689,0.0,0.2304,-0.9782,-0.0952,2108
3,-0.0762,-0.8645,-0.001,0.2932,-0.9038,0.2132,2055
3,-0.3315,-0.9138,-0.0427,0.2755,-0.3374,-0.1019,2199
3,-0.0715,-1.0352,-0.0273,0.157,0.014,-0.0695,2048
3,0.1934,-1.1106,0.1072,-0.0031,-0.3382,0.0246,2042
3,0.0759,-1.0259,0.1199,0.0237,-0.5737,0.0832,1903
3,-0.2361,-0.9287,0.1199,0.0541,-0.3852,0.0784,2084
3,-0.3323,-1.0627,0.0332,-0.0336,-0.2527,0.1268,2122
3,-0.1572,-1.1611,-0.03,-0.0458,-0.1346,0.2039,1483
3,-0.0125,-1.062,-0.0576,-0.1252,-0.2702,0.216,1911
3,-0.041,-1.0093,-0.0254,-0.0945,-0.3508,0.1826,2499
3,-0.0972,-1.0925,-0.1067,-0.0204,-0.2689,0.0621,1809
3,0.312,-1.1997,-0.2349,0.0372,-0.2812,0.2796,2344
3,0.2166,-1.1624,-0.2292,0.1269,-0.5438,0.5438,2515
3,0.0562,-1.1387,-0.1846,0.1702,-0.7026,0.9429,2492
3,0.1028,-1.2788,-0.1011,0.1991,-0.613,0.8388,1901
3,0.1526,-1.4265,-0.0308,0.2073,-0.6204,0.6086,1977
3,0.1946,-1.3179,-0.0054,0.1969,-0.6367,0.8419,2268
3,0.1975,-1.3794,0.0474,0.179,-0.8244,0.9155,2011
3,0.3035,-1.5408,0.1619,0.1665,-0.9123,1.1919,2039
3,0.27,-1.5767,0.1199,0.2498,-1.1155,1.511,2043
3,0.4348,-1.8374,0.2212,0.2168,-1.1367,1.9225,2035
3,0.4556,-2.0,0.5659,0.1519,-0.7961,1.4326,2039
3,0.5273,-1.9951,0.5833,0.0305,-0.386,1.7981,2050
3,0.6946,-1.8992,0.6404,-0.0304,-0.3097,1.8698,2055
3,0.5569,-1.7681,0.7449,-0.0111,-0.4734,2.2442,2057
3,0.3193,-1.583,0.5295,0.0427,-0.2425,2.5338,2062
4,0.3772,-1.8359,0.2786,-0.104,0.2911,2.3081,2054
4,0.46,-2.0,0.0725,-0.4031,-0.5978,2.2535,2055
4,0.2581,-2.0,-0.3267,-0.6364,-0.8951,1.8928,2048
4,0.1855,-2.0,-0.0935,-0.7942,-1.2922,2.9416,2046
4,0.384,-2.0,-0.1135,-0.5635,-1.8967,2.6542,2051
4,-1.3782,-2.0,-0.3391,-1.4376,-2.3799,3.2616,2045
4,-2.0,-1.4358,-0.0657,-1.093,0.0407,4.1488,2059
4,-1.0774,-2.0,0.1094,-0.5208,1.5885,4.3634,2067
4,-1.4067,-1.5947,-0.6182,-1.7124,1.7997,4.3634,2061
4,-0.9211,-1.5459,-0.2395,-1.9754,1.7487,4.1508,2041
4,-0.0759,-0.9438,-0.1536,-1.6,0.4283,4.1622,2051
4,-0.6143,-0.7993,-0.1316,-1.3191,-0.7889,3.0827,2047
4,-0.9988,-1.0642,-0.175,-1.1316,-0.9258,2.7643,2058
4,-1.2437,-1.0261,-0.2192,-1.1053,-0.2019,2.5964,2050
4,-1.6157,-0.9456,-0.4558,-0.7961,0.5131,2.2848,2052
4,0.6182,-0.8772,0.043,-1.0489,-2.6665,2.0853,2037
4,-0.7566,-0.2659,-0.2791,-0.7981,-0.8994,2.532,2050
4,-1.3164,-0.1045,-0.1709,-0.7469,-0.9412,1.6771,2053
4,-0.7537,-0.1121,0.0381,-0.693,-0.4165,1.4846,2049
4,-0.429,-0.3154,0.1245,-0.3429,-0.2144,1.0076,2044
4,-0.6133,-0.4856,0.1323,0.029,-0.1226,0.4093,2048
4,-0.7095,-0.5786,0.1899,-0.1201,0.2199,-0.0071,2048
4,-0.5334,-0.373,0.178,-0.4394,0.7664,-0.0904,2052
4,-0.5054,-0.0032,0.0261,-0.4581,1.3347,-0.2541,2052
4,-0.4568,0.2229,-0.0837,-0.1783,1.4906,-0.3514,2049
4,-0.3953,0.313,-0.0972,0.1228,1.1943,-0.6191,2058
4,-0.2463,0.2048,-0.1067,0.3421,0.9195,-1.3406,2042
4,-0.0813,0.0554,-0.123,0.4834,0.7063,-1.9797,2060
4,-0.0544,-0.0439,-0.1533,0.6075,0.5967,-2.4301,2037
4,-0.0652,-0.0388,-0.1685,0.6268,0.6702,-2.8216,2047
4,-0.0491,0.0718,-0.0742,0.6189,0.7383,-3.2314,2048
4,-0.02,0.2019,-0.0454,0.6114,0.8909,-3.5994,2050
4,0.051,0.2478,-0.0547,0.6091,1.0335,-3.9013,2065
4,0.0833,0.2598,-0.0327,0.7183,1.0809,-3.9371,2049
4,-0.0042,0.3108,0.002,0.8421,1.1993,-4.0162,2045
4,-0.1555,0.3406,0.074,0.912,1.3005,-4.1338,2045
4,-0.1267,0.3181,0.1306,1.0234,1.3962,-4.2012,2052
4,-0.1165,0.2988,0.1692,1.116,1.6442,-4.103,2061
4,-0.1931,0.3108,0.2571,1.1907,2.1222,-3.8816,2046
4,-0.3247,0.3,0.2588,1.1917,2.5438,-3.8081,2054
4,-0.3413,0.2046,0.0073,1.1637,2.6284,-3.6577,2071
4,-0.1494,0.1917,-0.2278,1.2086,2.2843,-3.258,2061
4,0.0159,0.1086,-0.3684,1.1633,1.9137,-2.8928,2068
4,-0.1072,0.103,-0.3557,1.019,1.4824,-2.5673,2034
4,-0.3174,0.1099,-0.2502,0.8572,1.0363,-1.9929,2064
4,-0.5601,0.3418,-0.1631,0.711,0.8253,-1.5059,2059
4,-0.7595,0.6667,-0.1357,0.5156,0.5729,-1.4294,2056
4,-0.7075,1.0073,-0.1965,0.3294,0.3779,-1.5516,2052
4,-0.5627,-1.0234,-2.0,-1.7671,4.3634,-4.3635,2044
4,-2.0,-2.0,-2.0,-2.169,-1.4231,-0.8728,2012
4,-2.0,-2.0,1.9999,1.0911,1.1911,4.3634,2037
4,1.9999,-2.0,-0.4946,-0.7598,1.7482,0.0547,2103
4,1.9999,1.9856,1.0776,-0.3235,-1.3094,2.1268,2045
4,0.6553,1.9999,-1.2969,-0.0091,-3.9454,-0.3301,2015
4,-2.0,-1.3228,-0.5195,1.0198,2.806,-2.5306,2039
4,-1.1553,-2.0,0.3159,-0.0392,4.3634,4.2867,2106
4,0.6382,0.0356,0.437,-0.1513,1.123,4.311,2036
4,0.0735,0.5359,-0.1902,-0.224,-0.7304,-0.5271,2035
4,-0.7322,-1.5034,0.3464,0.7965,-0.6058,-2.2975,2026
4,-0.146,-2.0,-0.2847,-0.1135,-0.5219,-0.102,2056
4,-0.468,-1.3115,-0.0085,0.3583,-0.875,2.0146,2080
4,-0.4475,-0.4302,-0.1177,0.0031,0.44,0.7797,2071
4,-0.5762,-0.8328,-0.0425,-0.1964,0.261,-0.036,2063
4,-0.6162,-0.8938,-0.0972,-0.0788,-0.0394,0.1871,2081
4,-0.6184,-0.8438,-0.0952,-0.0426,-0.2924,-0.0747,2049
4,-0.551,-0.9578,-0.1775,-0.0154,-0.2705,-0.2759,2050
4,-0.4058,-0.9607,-0.2266,0.0671,-0.2103,-0.0931,2071
4,-0.335,-0.8579,-0.2239,0.0775,-0.0112,0.0338,2040
4,-0.3643,-0.7871,-0.2798,0.0929,0.1149,-0.0005,2063
4,-0.4238,-0.8726,-0.2778,0.1438,0.041,-0.1396,2058
4,-0.4058,-0.9268,-0.3262,0.2306,-0.0784,-0.1935,2087
4,-0.4441,-0.8713,-0.3401,0.3029,-0.1269,-0.163,2054
4,-0.467,-0.8826,-0.3076,0.3907,-0.0502,-0.1768,2052
4,-0.5181,-0.8899,-0.2429,0.4706,0.0522,-0.1462,2020
4,-0.564,-0.8655,-0.21,0.5257,0.0425,-0.2534,2104
4,-0.5247,-0.9167,-0.1948,0.5669,0.0511,-0.3854,2106
4,-0.4031,-1.0273,-0.1282,0.5508,-0.0197,-0.4915,2053
4,-0.3613,-1.042,-0.0796,0.4797,-0.1135,-0.6297,2051
4,-0.4175,-1.0212,0.0195,0.4148,-0.2615,-0.7134,2047
4,-0.5815,-0.9365,0.0691,0.3609,-0.4381,-0.8023,2057
4,-0.6506,-0.8809,0.1299,0.2851,-0.1168,-0.82,2071
4,-0.4465,-0.9883,0.1345,0.1834,0.2173,-0.9652,2050
4,-0.2656,-1.0576,0.0833,0.1265,0.0812,-0.9087,2030
4,-0.1587,-1.1045,0.0295,0.0682,-0.1999,-0.9337,2057
4,-0.1755,-1.0347,-0.022,0.0144,0.0188,-0.9307,1996
4,-0.1689,-0.9053,-0.1179,-0.0288,0.1775,-0.842,2065
4,-0.0283,-0.8989,-0.1519,-0.0759,0.0862,-0.8602,2052
4,0.0195,-0.9358,-0.2295,-0.0573,-0.1412,-0.9083,2065
4,0.0457,-0.8142,-0.2795,-0.0284,-0.4081,-0.7328,2034
4,0.0408,-0.7825,-0.2551,0.0795,-0.5277,-0.7027,2055
4,0.1726,-0.8489,-0.1624,0.1892,-0.7249,-0.5723,2067
4,0.1921,-0.9321,-0.1301,0.2605,-0.6324,-0.4705,2033
4,0.2207,-0.9683,-0.1565,0.2657,-0.7199,-0.3799,2074
4,0.1599,-0.8875,-0.0591,0.2397,-0.6239,-0.1689,2036
4,-0.0288,-0.8745,-0.0669,0.2225,-0.5588,-0.2085,2050
4,0.0249,-0.8647,-0.0088,0.2847,-0.373,0.1322,1993
4,0.0664,-1.1631,0.0503,0.1461,-0.6353,0.0317,2055
4,-0.1448,-0.8667,-0.083,0.1294,-0.071,0.3722,2006
4,-0.1016,-0.9646,-0.1028,0.032,-0.1513,0.1035,2115
4,-0.04,-1.0801,-0.0261,0.0586,-0.2284,0.1581,2116
4,-0.0889,-0.9614,-0.1167,0.0232,-0.2526,0.1971,2100
4,-0.012,-1.0479,-0.0225,-0.0715,-0.1342,0.2316,2213
4,-0.0464,-1.0542,0.0483,-0.0309,-0.1613,0.4095,1893
5,-0.002,-1.092,0.1252,-0.0394,-0.1747,0.4393,1959
5,0.0308,-1.1807,0.1294,-0.0898,-0.2983,0.4809,1969
5,0.0884,-1.1755,-0.0322,-0.1145,-0.2944,0.661,2022
5,0.0549,-1.0894,-0.1331,-0.0834,-0.5457,0.6596,2255
5,0.0857,-1.146,-0.2419,-0.0213,-0.4424,0.7845,2052
5,0.1306,-1.1934,-0.0872,0.0819,-0.2788,1.0061,2042
5,0.1506,-1.3625,-0.1001,0.1332,-0.182,1.1262,2048
5,0.1323,-1.4763,-0.0012,0.1752,-0.1256,1.5067,2052
5,0.0051,-1.7595,0.2656,0.0586,-0.4209,1.5793,2053
5,0.0176,-1.8926,0.1072,0.0509,-0.7862,1.203,2047
5,-0.2649,-1.7937,0.1243,0.2601,-0.7966,1.5785,2043
5,-0.1665,-2.0,0.5146,0.218,-0.5494,1.3521,2068
5,0.2947,-2.0,0.5637,0.0305,-0.5355,1.5699,2046
5,0.7239,-1.8267,0.4602,0.0172,-1.0086,1.9221,2043
5,0.834,-1.949,0.4712,-0.0294,-1.6455,1.9552,2056
5,0.2209,-1.6284,0.2598,-0.0244,-1.4653,2.1655,2054
5,-0.3301,-1.3794,-0.1519,0.1655,-1.0543,2.0506,2051
5,0.2935,-2.0,-0.2053,-0.2571,-1.221,0.6843,2050
5,0.4592,-2.0,-0.2593,-0.4843,-1.6502,1.2504,2051
5,0.3984,-1.8972,-0.2771,-0.2113,-3.0443,1.4466,2047
5,-0.2671,-1.5933,-0.5491,-0.0538,-2.6846,2.3615,2052
5,-2.0,-1.7339,-0.2747,0.1826,-2.4322,3.2243,2053
5,-1.584,-1.7278,0.0439,-0.6922,-0.8371,3.2842,2063
5,-1.0356,-1.7473,-0.1177,-1.1081,0.7147,3.6491,2058
5,-1.5283,-1.479,-0.3013,-1.1865,3.1062,3.6769,2039
5,-0.4023,-1.3867,-0.0662,-1.4314,3.8193,3.7617,2047
5,0.3123,-0.8577,-0.1057,-0.969,2.5008,3.4188,2050
5,-0.4858,-0.876,-0.1411,-0.8477,1.1252,2.5446,2046
5,-1.0879,-0.9299,-0.2754,-1.0508,1.0421,2.2204,2055
5,-1.582,-0.9463,-0.4963,-0.8942,1.9113,2.0061,2058
5,0.7332,-0.9216,0.1792,-0.8765,-0.7,1.5508,2051
5,-0.229,-0.3345,-0.208,-0.8156,0.8882,1.8948,2047
5,-0.6628,-0.2234,-0.3611,-0.5442,0.7126,1.2917,2049
5,-0.198,-0.1926,-0.1936,-0.5059,0.5466,0.9906,2060
5,-0.0066,-0.1892,-0.0117,-0.4761,0.6823,0.6216,2053
5,-0.1711,-0.1001,0.106,-0.2321,0.8381,0.4167,2046
5,-0.2537,-0.0618,0.178,-0.0083,0.7649,0.3848,2047
5,-0.291,-0.009,0.1714,0.1549,0.9926,0.1971,2049
5,-0.2075,0.0947,0.1001,0.2165,1.3418,-0.061,2053
5,-0.1008,0.0732,-0.0422,0.3115,1.3021,-0.3733,2052
5,-0.0461,0.1638,-0.1201,0.3835,0.9878,-0.6156,2051
5,0.0115,0.2876,-0.1182,0.5671,0.5344,-0.9467,2044
5,0.0625,0.2695,-0.0562,0.7755,0.2397,-1.3836,2050
5,0.1355,0.1658,-0.031,0.8742,0.0754,-1.7323,2042
5,0.1694,0.0776,-0.0229,0.8965,-0.1412,-2.0486,2049
5,0.0542,0.095,0.0322,0.9007,-0.2213,-2.2886,2053
5,0.0349,0.2795,0.0562,0.8677,-0.1205,-2.5763,2057
5,-0.0908,0.3904,0.0439,0.767,0.128,-2.8536,2053
5,-0.1763,0.4119,0.0251,0.8517,0.2922,-2.9845,2047
5,-0.0933,0.4631,-0.0144,0.9013,0.444,-2.8956,2051
5,-0.2712,0.4868,-0.0227,0.9861,0.4105,-2.9477,2053
5,-0.3464,0.4995,-0.0422,0.8361,0.4687,-3.0799,2054
5,-0.3762,0.5315,-0.0461,0.6741,0.5885,-3.3865,2046
5,-0.3391,0.4971,-0.0964,0.6122,0.6695,-3.607,2039
5,-0.3633,0.5002,-0.1125,0.7052,0.4542,-3.8062,2054
5,-0.4629,0.5308,-0.0481,0.6554,0.2392,-4.1363,2058
5,-0.5918,0.1885,-0.9963,0.3225,0.5256,-4.3635,2056
5,-2.0,0.3918,-2.0,-4.16,4.3634,-4.3635,2039
5,-2.0,-2.0,1.9999,2.8304,-4.3635,4.3634,2043
5,-2.0,-2.0,1.9999,3.4913,4.2875,3.2854,2148
5,1.9999,0.377,0.6289,0.0811,0.0907,-3.6568,2008
5,1.4763,-0.0933,-1.4651,2.6295,-4.3635,3.2732,2036
5,-2.0,-1.0935,-0.248,-0.2176,3.2179,-1.1013,2017
5,0.7156,-1.4749,-0.064,-0.6411,-0.6853,3.6414,2117
5,0.8994,1.9999,-0.4741,-0.4847,4.3634,1.4511,2049
5,-0.0293,0.3406,-0.4502,-0.4867,0.1558,-3.2673,2056
5,0.6287,-1.9102,0.6089,0.1912,-0.6576,-0.4802,2054
5,-0.5833,-1.7683,-0.3254,0.8337,0.4593,0.3613,2055
5,-1.7346,-1.8164,0.1809,-0.122,-0.0615,0.3645,2053
5,-1.4087,-0.9539,-0.1033,-0.6565,0.1087,0.9547,2064
5,-0.7354,-0.2979,-0.3369,-0.3448,0.196,-0.3649,2079
5,-0.5994,-0.5723,-0.4082,-0.0503,0.0019,-1.2758,2100
5,-0.4106,-0.9924,-0.4814,0.0956,-0.4211,-0.9349,2050
5,-0.2957,-1.0493,-0.4792,0.2429,-0.3064,-0.6967,2061
5,-0.325,-1.0872,-0.4314,0.2563,-0.181,-0.6181,2049
5,-0.2664,-1.0286,-0.3647,0.2856,-0.0981,-0.6215,2036
5,-0.2563,-1.0281,-0.3359,0.3362,-0.2438,-0.8196,2054
5,-0.3511,-1.0198,-0.2878,0.3862,-0.4982,-0.8538,2056
5,-0.4402,-0.9878,-0.2639,0.4267,-0.6442,-0.8806,2064
5,-0.5737,-0.9575,-0.1904,0.4338,-0.4871,-0.9309,2064
5,-0.3652,-0.9888,-0.1855,0.3749,-0.2613,-0.9737,2065
5,-0.1648,-0.9939,-0.1282,0.3988,-0.4476,-0.9825,2013
5,-0.1489,-0.9329,-0.1169,0.434,-0.7142,-0.8447,2074
5,-0.0505,-0.9695,-0.0662,0.3631,-0.852,-0.7951,2059
5,0.0439,-0.8591,-0.0811,0.3808,-0.8738,-0.63,2080
5,0.0122,-0.9351,-0.0674,0.3012,-0.8829,-0.7962,1964
5,0.0959,-1.0745,-0.0823,0.0369,-1.3065,-0.9588,2086
5,0.7881,-1.2283,-0.2129,-0.3041,-2.3001,-0.8986,2073
5,-0.0796,-0.6438,-0.3484,0.3397,-1.3231,-0.238,2032
5,-0.6721,-0.4106,0.0962,0.2685,-1.6563,0.024,2072
5,0.1624,-1.4673,-0.1816,-0.1167,-1.8891,-1.2158,2026
5,0.0051,-0.9319,-0.3308,0.2061,-0.5754,-0.2924,2166
5,0.1707,-0.5996,-0.2422,0.1575,-0.9725,-0.1408,1985
5,-0.4487,-0.6711,0.0271,0.32,-0.7373,-0.0642,2002
5,-0.1455,-1.0369,-0.0984,0.147,-0.8698,-0.4296,2033
5,-0.0818,-0.9768,0.0254,0.1196,-0.4453,-0.3405,2054
5,-0.187,-0.8928,0.2573,0.1907,-0.2876,-0.1073,2100
5,-0.0706,-1.0437,0.115,0.1341,-0.1723,-0.2341,2196
5,-0.0872,-1.1753,0.1104,-0.0256,-0.3165,-0.2565,1832
5,-0.0566,-0.864,-0.0876,0.1405,-0.0646,0.0226,1991
5,0.4531,-1.1147,0.0061,0.1522,-0.0786,0.4103,2147
5,0.0061,-1.228,-0.0115,0.0325,-0.4057,0.2794,1963
6,-0.1255,-1.1345,-0.1313,0.1457,-0.4253,0.3249,2045
6,-0.1248,-1.072,-0.0679,0.182,-0.1397,0.2646,2054
6,0.2141,-1.1365,-0.0913,0.2472,-0.1601,0.5271,2070
6,0.1724,-1.1926,-0.1609,0.2944,-0.2472,0.6585,1938
6,-0.0938,-1.2349,-0.1553,0.2545,-0.4938,0.6998,2227
6,-0.1023,-1.2947,-0.1055,0.227,-0.5904,0.8935,1961
6,-0.1125,-1.3679,0.0293,0.1903,-0.6177,0.8253,1995
6,0.0344,-1.5242,0.052,0.1083,-0.8156,0.6251,2038
6,0.0376,-1.6001,0.2327,0.0433,-1.2117,0.705,2044
6,0.0312,-1.5842,0.2485,0.0975,-1.1069,0.702,2049
6,-0.1562,-1.4509,0.1965,0.4197,-0.8449,1.0551,2053
6,0.2983,-1.991,0.394,0.3454,-0.4661,0.9669,2046
6,0.8074,-1.9495,0.4668,0.1621,-0.6332,1.1974,2052
6,0.7817,-1.4448,0.3699,0.2745,-1.0162,1.7929,2045
6,0.6548,-1.7529,0.3643,0.3025,-0.853,1.6146,2049
6,0.5505,-1.9573,0.3201,0.0694,-0.4951,1.6543,2048
6,0.417,-1.4014,0.2297,0.0186,-0.4177,1.972,2049
6,0.3198,-1.8633,0.1064,-0.1136,-0.7035,1.1275,2045
6,-0.1191,-1.9692,-0.2505,-0.0906,-0.4595,1.5652,2059
6,-0.1421,-1.6863,-0.2231,0.2476,-0.3996,2.2294,2049
6,0.0811,-2.0,0.1714,0.2081,-0.4594,2.3358,2046
6,0.3342,-2.0,-0.2478,0.816,-2.082,2.1868,2050
6,-2.0,-1.9131,-0.7048,-0.296,-1.3954,4.1426,2043
6,-2.0,-1.0525,-0.2922,-1.7654,1.7671,3.5042,2056
6,-1.1506,-1.6819,-0.2725,-1.659,2.8879,3.7247,2061
6,-0.093,-1.8818,-0.1543,-1.4965,3.014,4.3634,2063
6,0.0205,-1.1733,-0.1155,-1.8792,1.7708,4.3634,2056
6,0.1562,-0.9131,-0.1284,-1.5695,-0.014,2.9102,2039
6,-0.8762,-0.8755,-0.1133,-1.5123,-0.3425,2.3594,2050
6,-1.2739,-0.7976,-0.1843,-1.5243,0.0021,2.2258,2049
6,-1.2075,-0.7419,-0.1624,-1.2953,0.4469,2.2272,2043
6,-2.0,-1.2249,-0.0564,-1.0363,0.7011,0.6331,2055
6,-0.2393,-0.6538,-0.04,-1.1841,-0.2237,1.8285,2058
6,-0.7195,-0.176,-0.0793,-0.7112,0.2614,1.8776,2050
6,-0.5977,-0.2727,-0.054,-0.6369,-0.0119,1.0099,2052
6,-0.1157,-0.2065,0.1475,-0.6042,-0.0491,0.6968,2065
6,-0.1077,-0.1125,0.2305,-0.5219,0.0415,0.4067,2046
6,-0.2727,-0.1465,0.2571,-0.3658,0.2462,-0.0401,2057
6,-0.3318,-0.1272,0.2551,-0.3777,0.6124,-0.0449,2054
6,-0.3733,-0.1868,0.3027,-0.3305,0.7533,-0.3037,2052
6,-0.334,-0.2932,0.2004,-0.1085,0.891,-0.6526,2045
6,-0.2261,-0.1306,0.1255,-0.3021,0.9028,-0.7405,2049
6,-0.052,0.1497,0.0242,-0.0386,0.3663,-1.0645,2049
6,-0.0464,0.3369,0.0264,0.0562,0.1229,-1.3537,2046
6,0.0757,0.27,-0.0029,0.0808,-0.07,-1.8728,2052
6,0.1458,0.1694,-0.0256,0.1438,-0.1141,-2.1534,2059
6,0.0901,0.0156,0.0044,0.3083,-0.2554,-2.4093,2051
6,0.0486,0.0186,-0.0105,0.346,-0.2489,-2.533,2054
6,-0.0273,0.0862,0.0215,0.3211,-0.3261,-2.7779,2048
6,-0.094,0.2461,0.0776,0.3294,-0.4136,-2.975,2055
6,-0.1426,0.3538,0.0359,0.324,-0.2875,-3.2082,2042
6,-0.1465,0.416,-0.0432,0.3765,-0.2422,-3.3541,2032
6,-0.1472,0.4192,-0.1294,0.3663,-0.2301,-3.4625,2053
6,-0.1812,0.406,-0.1667,0.353,-0.2358,-3.5029,2052
6,-0.2842,0.386,-0.103,0.1665,-0.3867,-3.599,2048
6,-0.3711,0.3037,-0.0889,0.1063,-0.5751,-3.7061,2049
6,-0.3423,0.1956,-0.2,0.2229,-0.5111,-3.6463,2049
6,-0.4097,0.2048,-0.304,0.2669,-0.253,-3.4366,2051
6,-0.6514,0.3164,-0.2144,0.0507,-0.1618,-3.407,2060
6,-0.9045,0.3665,-0.1511,0.0241,-0.0707,-3.4857,2050
6,-1.1628,0.4443,-0.1172,0.1851,0.0864,-3.4448,2055
6,-1.2937,0.6575,-0.1133,0.2936,0.4657,-3.4304,2053
6,-2.0,-0.9863,-2.0,-1.1742,3.0624,-4.3635,2052
6,-2.0,-2.0,-2.0,-1.9726,-1.8218,-2.365,1990
6,-2.0,-2.0,1.9999,4.3634,4.3634,4.3634,2170
6,1.9999,-2.0,0.0513,-1.2284,-4.3635,-2.2972,2047
6,1.9999,1.9999,0.0249,-3.356,0.8392,2.1501,2000
6,-2.0,1.9999,0.2302,2.2097,-2.0423,-3.6559,2011
6,-2.0,-0.906,-1.8547,-0.7584,4.3634,1.5215,2063
6,-0.6758,-1.2319,-0.021,-0.0212,4.3634,3.4535,2073
6,0.449,-0.6267,0.1113,0.1124,0.7339,1.0228,2056
6,0.908,-1.3384,-0.2922,-0.4043,-1.3189,-1.8749,2044
6,0.2793,-1.9629,0.4312,0.3286,-1.9554,-1.0911,2060
6,-1.0234,-0.9863,-0.0935,0.5488,-1.0828,1.063,2054
6,-0.9849,-0.3748,-0.4609,0.5598,-0.5032,0.9283,2049
6,-0.219,-0.9492,0.03,-0.1429,0.4073,-0.2204,2064
6,-0.1687,-1.2705,0.1401,-0.3408,0.8022,0.0759,2048
6,-0.78,-1.0828,-0.0671,-0.0043,0.7352,0.4818,2056
6,-0.8049,-0.7585,-0.1274,-0.0534,-0.2292,-0.027,2047
6,-0.5032,-0.9436,-0.2446,-0.0824,-0.6412,-0.5108,2055
6,-0.1748,-1.0237,-0.3308,0.09,-0.4056,-0.4208,2058
6,-0.0276,-0.9763,-0.3298,0.1654,0.0272,-0.132,2046
6,-0.2307,-0.9268,-0.2769,0.1226,0.2733,-0.0635,2050
6,-0.4143,-0.8943,-0.2595,0.1095,0.1473,-0.2215,2054
6,-0.5,-0.9348,-0.2432,0.1358,-0.0479,-0.3497,2054
6,-0.4189,-0.967,-0.2502,0.2123,-0.2277,-0.3836,2041
6,-0.2451,-0.9546,-0.2339,0.2507,-0.1638,-0.3362,2059
6,-0.1223,-0.9453,-0.2412,0.2751,-0.0995,-0.2952,2052
6,-0.1599,-0.9644,-0.1699,0.2282,-0.2139,-0.2558,2034
6,-0.321,-0.9309,-0.1367,0.1936,-0.2565,-0.342,2043
6,-0.4976,-0.9089,-0.1782,0.2418,-0.1774,-0.4912,2062
6,-0.4341,-0.9204,-0.1592,0.2167,-0.0238,-0.4935,2062
6,-0.2219,-0.98,-0.1072,0.2634,-0.045,-0.4686,2047
6,-0.2578,-0.8894,-0.1003,0.2951,-0.0848,-0.386,2054
6,-0.3125,-0.8452,-0.1133,0.2967,-0.1495,-0.4564,2057
6,-0.3057,-0.8459,-0.1147,0.4113,-0.0699,-0.4073,2051
6,-0.1252,-0.9299,-0.1294,0.4349,-0.0774,-0.4394,2057
6,0.0002,-0.9739,-0.106,0.3927,-0.1446,-0.4123,2048
6,0.0183,-1.0137,-0.104,0.3593,-0.2487,-0.4197,2056
6,0.0232,-1.0198,-0.093,0.2754,-0.3695,-0.3497,2056
6,0.0168,-0.9485,-0.0476,0.2456,-0.4061,-0.3219,2025
6,0.0359,-0.9412,-0.0183,0.2583,-0.3075,-0.2252,2051
6,0.0198,-0.9971,-0.0007,0.2939,-0.2059,-0.1581,2053
7,-0.0317,-1.0142,-0.0137,0.2345,-0.1104,-0.0871,2047
7,0.1104,-0.9929,-0.0229,0.2462,-0.1414,0.0852,2048
7,0.1042,-0.9775,-0.0046,0.2417,-0.1555,0.1128,2043
7,0.0239,-0.9802,-0.0024,0.1392,-0.2341,0.1575,2056
7,0.0498,-1.0378,0.0173,0.0137,-0.2711,0.2029,2057
7,-0.0344,-0.9663,-0.0259,0.0272,-0.1565,0.3349,2049
7,-0.0806,-0.9409,-0.0308,0.0766,0.0413,0.3816,2051
7,-0.012,-1.0286,-0.0293,0.0166,0.0099,0.3674,2082
7,-0.0471,-0.9832,-0.083,-0.0478,-0.0415,0.3492,2080
7,-0.0798,-0.9822,-0.1099,-0.061,0.0153,0.4382,2011
7,-0.1943,-0.9666,-0.0884,-0.0839,-0.0121,0.4639,2052
7,-0.2122,-0.988,-0.0789,-0.1127,0.0984,0.491,2076
7,-0.323,-1.0012,-0.1377,-0.0822,-0.0451,0.5027,2077
7,-0.3601,-1.002,-0.1338,-0.1056,-0.0838,0.5377,2023
7,-0.3833,-0.9819,-0.1833,-0.0337,-0.1503,0.516,2076
7,-0.417,-0.9832,-0.2266,-0.0935,-0.1545,0.4204,2166
7,-0.3726,-0.9983,-0.3218,-0.1047,-0.2096,0.3875,1991
7,-0.3286,-0.9707,-0.2991,-0.0747,-0.3317,0.3691,1961
7,-0.2935,-1.0261,-0.1694,-0.0937,-0.4195,0.3729,2107
7,-0.2529,-1.0654,-0.1931,-0.1186,-0.6347,0.3958,2109
7,-0.2422,-1.1094,-0.1985,-0.0895,-0.685,0.3842,1622
7,-0.2708,-1.0874,-0.2034,0.0213,-0.86,0.3382,1709
7,-0.2412,-1.0776,-0.1851,0.0112,-0.9028,0.3498,1858
7,-0.1445,-1.1736,-0.1711,0.0142,-1.2729,0.2988,2066
7,0.0571,-1.2891,-0.0994,0.1587,-1.4459,0.3145,2355
7,0.0769,-1.3574,-0.0442,0.2,-1.6072,0.3962,2061
7,0.0854,-1.3533,-0.0586,0.1904,-1.6165,0.5827,1935
7,0.1365,-1.3716,-0.0269,0.1874,-1.6076,0.6086,1986
7,0.394,-1.3953,0.0317,0.1559,-1.8138,0.9557,2060
7,0.2314,-1.6487,0.1721,0.12,-1.7393,0.7598,1995
7,0.0474,-1.5144,0.3728,0.1397,-1.2061,0.9833,2055
7,0.2473,-1.4165,0.249,0.1694,-0.9039,0.9391,2057
7,0.3838,-1.6479,0.3245,0.1424,-1.3235,1.1448,2048
7,0.3411,-1.6863,0.3704,0.0601,-1.8466,1.4311,2044
7,0.3562,-1.5063,0.3435,0.0225,-2.0518,1.4507,2042
7,0.2925,-1.5579,0.3552,-0.0535,-1.9692,1.2264,2051
7,0.1387,-1.5039,0.3108,-0.204,-1.7183,1.1925,2048
7,0.0376,-1.3748,0.2224,-0.389,-1.8154,1.4442,2055
7,0.189,-1.3347,-0.0798,-0.5027,-2.1719,1.5673,2039
7,0.7212,-1.7781,-0.2258,-0.7889,-2.8092,1.3612,2032
7,0.3691,-1.8188,-0.2739,-0.9198,-3.1457,1.7704,2045
7,-0.2166,-1.0327,-0.2986,-0.4231,-2.9072,2.1587,2044
7,-0.46,-1.1606,-0.3281,0.2611,-2.1482,2.3694,2048
7,0.676,-2.0,-0.0984,0.4472,-3.2521,2.6883,2051
7,-0.3501,-1.6917,-0.0183,-0.7213,-3.5881,3.9291,2056
7,-2.0,-1.6897,0.2312,-2.2704,-1.483,3.7024,2047
7,-1.9709,-1.0637,0.4026,-1.9969,-1.2904,3.5456,2052
7,-1.1431,-1.136,0.1804,-1.9531,-0.4208,3.7444,2058
7,-0.907,-1.1997,0.1077,-2.0358,0.2445,4.1658,2107
7,-0.7163,-0.7927,0.1597,-2.0809,1.0163,3.6765,2037
7,-0.1284,-0.5601,0.313,-1.7206,0.8283,3.3306,2041
7,-0.0325,-0.9246,0.9321,-1.4704,-1.3928,2.427,2044
7,0.2715,0.0708,0.0969,-1.4677,-2.8967,2.8814,2047
7,-1.7478,0.4207,-0.1204,-1.4229,-1.1926,2.055,2051
7,-1.4492,-0.0396,-0.0547,-1.5861,-0.2939,2.3673,2066
7,1.4739,-1.1523,0.3152,-0.7075,-0.7328,2.7292,2036
7,-2.0,0.4424,1.3699,-0.9954,-0.104,2.0289,2055
7,-0.3684,-0.3276,1.2346,-1.9153,-3.3954,1.8165,2070
7,0.0305,-0.2073,1.0447,-1.1983,-2.5358,0.3241,2043
7,-0.6875,0.1052,0.6157,-1.6671,-1.9061,-0.3822,2042
7,-0.9709,0.053,0.4285,-2.076,-0.7662,-0.9203,2049
7,-0.7566,-0.1333,0.5693,-2.1312,0.6269,-1.2987,2063
7,-0.6882,-0.3428,0.6345,-1.8603,1.6349,-1.4045,2048
7,-0.5686,-0.4148,0.4993,-1.7675,2.0507,-1.5379,2052
7,-0.4006,-0.2979,0.3462,-1.9851,2.1471,-1.8634,2052
7,-0.2246,-0.1782,0.2346,-2.1967,2.0899,-2.2409,2051
7,-0.0215,-0.1538,0.1624,-2.1626,1.904,-2.6317,2049
7,0.0479,-0.1775,0.1357,-1.9915,1.6673,-3.0167,2051
7,0.0403,-0.2742,0.0896,-1.7973,1.3018,-3.5021,2056
7,0.0156,-0.3484,0.0181,-1.5852,0.9991,-3.778,2050
7,-0.0217,-0.3608,-0.061,-1.3166,0.7509,-3.8251,2051
7,-0.0601,-0.3523,-0.0935,-1.0318,0.4461,-3.8022,2053
7,-0.0933,-0.3096,-0.1252,-0.8522,0.0679,-3.8613,2052
7,-0.1013,-0.314,-0.1448,-0.665,-0.4089,-4.009,2052
7,-0.0403,-0.3176,-0.1726,-0.4271,-0.9301,-4.0845,2051
7,-0.0396,-0.3794,-0.1531,-0.1879,-1.4844,-4.1896,2052
7,-0.0125,-0.4199,-0.165,0.0067,-2.0401,-4.1992,2053
7,-0.1826,-0.488,-0.1797,0.1356,-2.1799,-4.254,2052
7,-0.3059,-0.4956,-0.1357,0.2547,-2.0698,-4.2923,2047
7,-0.1655,-0.5024,-0.0583,0.3794,-2.1566,-4.2194,2048
7,-0.2551,-0.5911,0.0598,0.4223,-2.1386,-4.3635,2051
7,-0.3557,-0.6477,0.0596,0.3673,-1.8507,-4.3635,2037
7,-0.4624,-0.6921,0.1172,0.3061,-1.7219,-4.3635,2048
7,-0.4253,-0.8169,0.1716,-0.0694,-1.892,-4.3635,2064
7,-0.3994,-0.9041,-0.0125,-0.0671,-1.7884,-4.3635,2057
7,-0.4287,-1.0283,-0.0615,-0.1862,-1.6635,-4.3635,2046
7,-0.5352,-1.1003,-0.064,-0.3384,-1.5034,-4.3635,2048
7,-0.5432,-1.1477,-0.0337,-0.2906,-1.4719,-4.3635,2053
7,-0.5354,-1.0947,-0.1133,-0.0112,-1.6859,-4.3635,2059
7,-0.262,-1.1355,-0.2637,0.4786,-2.121,-4.3635,2055
7,-0.0837,-1.3518,-0.2839,0.607,-2.4936,-4.3635,2051
7,-0.1287,-1.5847,-0.2957,0.394,-2.5818,-4.3635,2054
7,0.1558,-1.5361,-0.4395,0.123,-2.8589,-4.0186,2053
7,0.2493,-1.4619,-0.325,0.2021,-3.3812,-3.5877,2052
7,0.4817,-1.3303,-0.2974,0.1535,-3.6668,-2.8526,2051
7,0.2527,-1.2295,-0.3066,0.6004,-3.5135,-2.2105,2049
7,-0.0242,-1.2712,-0.0208,0.236,-3.8438,-1.3194,2046
7,0.3154,-1.323,0.3542,-0.3148,-3.3387,-0.2408,2056
7,0.5107,-1.2659,0.6753,-0.6123,-2.7936,0.4441,2053
7,0.082,-0.9895,0.5676,-0.6312,-2.7209,1.0143,2051
7,-0.7087,-2.0,0.5566,-1.7933,-2.5879,-1.12,2058
7,-0.2166,-0.4463,0.5325,-0.7108,-2.2294,1.7764,2058
8,0.1707,0.0022,0.7998,0.0505,-2.3792,1.2897,2051
8,-0.2542,-0.8203,1.0535,0.7637,-0.8323,0.12,2044
8,-0.0042,-1.1919,0.7961,0.4213,1.1367,0.549,2048
8,-0.6086,-1.2126,0.5276,0.6814,2.8693,0.7103,2047
8,-0.4026,-1.7148,0.0105,0.614,3.9504,0.398,2043
8,0.2346,-1.7441,-0.4875,0.1514,4.0925,0.8859,2057
8,1.9999,-2.0,-0.0752,-1.0852,3.6984,4.3634,2038
8,-0.3423,-0.2373,-1.5081,0.0441,1.2985,-1.1559,2044
8,-0.5918,-1.1941,-1.2527,-0.1068,2.1021,0.5051,2067
8,-0.1697,-1.6179,-0.3694,-0.1277,0.6514,1.4161,2055
8,-0.1013,-0.8647,0.3398,0.8662,-1.0788,1.5684,2059
8,-0.252,-0.9729,0.467,0.2978,-2.4657,0.6675,2052
8,-0.7441,-0.9915,0.0652,0.066,-1.7696,0.728,2044
8,-0.8433,-0.9827,0.2485,0.0149,-0.809,0.7839,2053
8,-0.5845,-1.0837,0.3596,-0.1526,0.2004,0.7646,2056
8,-0.3391,-1.0581,0.377,-0.3558,0.749,0.7148,2051
8,0.0315,-0.9897,0.0439,-0.3329,0.8243,0.6873,2052
8,0.1958,-0.9473,-0.3945,-0.2041,1.2082,0.6705,2053
8,0.397,-0.9697,-0.5479,-0.143,0.9536,0.6205,2049
8,0.3054,-0.9861,-0.5288,-0.0553,0.2507,0.4871,2046
8,0.2039,-0.9756,-0.4141,-0.0113,-0.5843,0.5248,2053
8,0.3313,-0.9607,-0.3547,-0.0756,-1.0512,0.502,2049
8,0.7017,-1.0332,-0.2275,-0.136,-1.3451,0.5612,2054
8,0.7219,-1.1323,-0.1936,-0.245,-1.6177,0.6943,2055
8,0.3953,-0.9727,-0.1785,-0.2836,-1.4296,0.704,2046
8,0.1147,-0.8376,-0.0583,-0.0768,-1.0592,0.6893,2047
8,-0.1287,-0.9685,-0.0151,-0.0816,-0.7906,0.7705,2051
8,-0.1648,-0.999,0.0078,-0.1175,-0.4422,0.7689,2060
8,-0.0327,-0.9858,0.0215,-0.1276,-0.3454,0.7696,2057
8,0.0984,-1.0134,0.0046,-0.0589,-0.3517,0.8477,2032
8,0.0969,-0.989,-0.1096,-0.0298,-0.3657,0.8135,2070
8,0.0127,-0.9773,-0.189,-0.0649,-0.3681,0.7443,2047
8,-0.1013,-0.9277,-0.2854,-0.0409,-0.3044,0.7447,2139
8,-0.1243,-0.895,-0.2275,-0.0794,-0.3061,0.6747,2063
8,-0.1016,-0.9287,-0.2651,-0.0055,-0.3115,0.6913,2035
8,-0.0225,-0.9553,-0.2192,0.0015,-0.4625,0.6179,2115
8,-0.0601,-0.9927,-0.1863,0.0618,-0.5239,0.6979,2018
8,-0.073,-0.9849,-0.1243,0.0577,-0.6175,0.6806,2048
8,-0.0632,-0.9609,-0.1064,0.0727,-0.5857,0.6289,2044
8,-0.1404,-0.9478,-0.0652,0.0626,-0.5986,0.6546,2043
8,-0.0732,-0.9583,-0.0771,0.0941,-0.5492,0.6404,2102
8,0.0171,-0.9978,-0.1555,0.1067,-0.5707,0.6657,2073
8,0.01,-1.0017,-0.1836,0.0469,-0.659,0.6622,2028
8,-0.0046,-0.9829,-0.1653,0.0352,-0.691,0.6512,2032
8,-0.0598,-0.9382,-0.1074,0.0348,-0.6705,0.6725,2052
8,-0.1799,-0.9497,-0.0886,0.0248,-0.6798,0.6548,2054
8,-0.2166,-0.9702,-0.0857,0.0324,-0.6273,0.6895,1969
8,-0.1448,-0.9719,-0.1038,0.0039,-0.6585,0.7229,2160
8,-0.0432,-1.0361,-0.0967,-0.0214,-0.6936,0.7307,2014
8,0.0215,-1.0703,-0.0715,-0.0915,-0.734,0.7391,2170
8,-0.0144,-1.0403,0.0098,-0.2099,-0.8102,0.7594,2047
8,-0.0564,-0.949,-0.0417,-0.193,-0.7481,0.7795,2170
8,-0.1387,-0.9365,-0.1309,-0.1704,-0.7929,0.7779,2074
8,-0.1467,-0.9712,-0.1604,-0.1651,-0.7273,0.8289,2273
8,-0.0564,-0.9766,-0.1995,-0.2943,-0.6597,0.8926,2075
8,-0.0854,-0.9675,-0.1677,-0.3549,-0.6847,0.8557,2029
8,0.0012,-0.9741,-0.1919,-0.3924,-0.6496,0.9496,2103
8,0.1211,-1.0391,-0.1443,-0.4749,-0.7043,1.2083,2141
8,0.4011,-1.2925,-0.1152,-0.5112,-0.671,1.451,2098
8,0.4995,-1.4448,-0.0471,-0.6098,-0.8142,1.655,2108
8,0.5117,-1.3826,0.0149,-0.8008,-0.8724,1.9919,2109
8,0.5818,-1.2593,0.1294,-0.875,-0.877,2.1442,2031
8,0.6902,-1.3853,0.2275,-0.9854,-0.9819,2.48,2040
8,1.0308,-1.6096,0.469,-1.1572,-1.1589,3.0556,2040
8,1.1038,-1.8457,0.406,-1.2362,-0.8742,3.2058,2098
8,0.5063,-2.0,0.5798,-1.4287,-1.2729,3.2586,2044
8,0.6692,-2.0,0.7952,-1.9447,-0.9785,3.5308,2046
8,0.3193,-2.0,0.9497,-2.4767,-1.3611,3.3322,2057
8,0.0435,-2.0,0.6624,-2.9749,-2.2763,3.1223,2042
8,-0.1111,-2.0,0.5029,-3.5507,-3.4652,2.9313,2059
8,-0.043,-1.8489,-0.1624,-3.8661,-4.3635,2.8743,2054
8,0.0393,-1.2129,-0.3088,-3.5236,-4.3635,2.4783,2062
8,-0.375,-0.9685,-0.1721,-3.026,-4.3635,2.4041,2057
8,-0.8689,-0.7673,-0.0515,-3.0866,-4.3635,1.8117,2055
8,-1.0178,-1.1338,0.2319,-4.0002,-4.3635,-0.1274,2052
8,-1.3228,-0.9167,0.3074,-4.2868,-4.3635,-1.0654,2036
8,-2.0,-0.0134,0.6384,-3.1066,-4.3323,1.5479,2058
8,-2.0,-0.4324,0.1787,-2.5364,-2.3064,1.1282,2054
8,-2.0,-1.0361,0.2195,-2.584,-1.4906,0.6533,2062
8,-0.7852,-1.155,0.6465,-1.772,-2.787,1.0758,2068
8,-0.6526,-1.1702,0.8164,-2.449,-3.672,0.1373,2054
8,-0.1182,-0.3171,0.7017,-2.8333,-3.9478,-0.2468,2049
8,-1.6792,-0.0378,0.6682,-2.8229,-2.9745,-1.0553,2046
8,-1.6553,-0.1394,0.5847,-2.3447,-0.7071,-0.9473,2050
8,-1.8066,-0.4304,0.7844,-1.8992,-0.2196,-0.9613,2053
8,-0.3059,-0.4695,1.1401,-2.0148,-1.4498,-1.111,2053
8,-0.8604,0.1052,0.3711,-1.6641,1.1832,-0.0205,2061
8,-0.6201,-0.3123,0.4238,-1.7042,0.874,-1.4147,2042
8,-0.3689,-0.177,0.2463,-1.554,1.0543,-1.3039,2054
8,-0.3003,-0.0239,0.2002,-1.3059,1.0637,-1.6852,2044
8,-0.4724,-0.1846,0.1887,-1.0405,0.6936,-2.2289,2047
8,-0.5254,-0.2561,0.1919,-0.8245,0.2646,-1.956,2054
8,-0.3667,-0.1228,0.1418,-0.6453,-0.0297,-1.9383,2051
8,-0.2014,-0.1453,0.0879,-0.56,-0.2408,-2.2848,2057
8,-0.2139,-0.188,0.0532,-0.52,-0.5255,-2.5048,2059
8,-0.2075,-0.187,0.0725,-0.3773,-0.8437,-2.5324,2055
8,-0.2732,-0.1882,0.1306,-0.2795,-1.0854,-2.6233,2053
8,-0.4065,-0.2139,0.1895,-0.2541,-1.1244,-2.7682,2047
8,-0.4685,-0.2349,0.2334,-0.2595,-1.0288,-2.9104,2052
8,-0.5308,-0.2229,0.2134,-0.2892,-0.8676,-3.0873,2054
8,-0.5398,-0.2019,0.1697,-0.3112,-0.6637,-3.283,2051
9,-0.469,-0.1655,0.1223,-0.2879,-0.4046,-3.4207,2020
9,-0.3723,-0.0796,0.0095,-0.2129,-0.179,-3.3925,2072
9,-0.3149,-0.0457,-0.0044,-0.2711,0.0744,-3.2573,2012
9,-0.3716,-0.1047,-0.0217,-0.1439,0.1301,-3.2321,2041
9,-0.4878,-0.2139,-0.0015,-0.1469,0.1205,-3.2215,2039
9,-0.3809,-0.2207,-0.1709,0.1181,0.0077,-3.1162,2048
9,-0.1089,-0.2554,-0.3079,0.3219,-0.3489,-2.8819,2052
9,-0.2822,-0.2212,-0.2996,0.1173,-0.9159,-2.8805,2047
9,-0.439,-0.2288,-0.2898,-0.0091,-1.4374,-2.8161,2050
9,-0.6331,-0.3792,-0.2905,0.0281,-1.4587,-2.7233,2051
9,-0.5557,-0.2229,-0.1589,-0.0446,-1.3495,-2.0647,2052
9,-0.9055,-0.0034,-0.0876,0.0883,-1.2539,-2.0072,2051
9,-1.0315,-0.0798,-0.0659,0.1774,-1.0271,-1.8795,2050
9,-1.3975,-1.6086,-0.9084,-1.0334,0.5952,-4.0947,2053
9,-2.0,-1.9014,-2.0,-2.4722,4.3634,-1.7749,2039
9,-2.0,-2.0,-0.7385,0.9644,-3.4511,4.3634,2028
9,-1.478,-2.0,1.9999,1.5059,2.1775,3.2678,2098
9,1.9999,0.5469,-0.7224,-1.8916,3.9877,2.4888,2063
9,1.9999,1.9999,0.1592,1.0123,-4.3635,-0.3946,2031
9,-2.0,-0.865,-0.7598,0.7781,-0.0418,-2.5506,2042
9,1.0039,-2.0,-0.8828,0.6718,1.7681,3.1196,2063
9,-2.0,-0.759,0.3184,0.9231,0.7219,2.9347,2048
9,-0.261,-0.5496,-0.1267,-0.0766,0.9174,0.4087,2073
9,-0.0605,-1.1108,-0.2129,0.3946,-0.0534,-0.5766,2045
9,-0.5786,-1.9678,0.0786,0.5148,-0.3848,0.2908,2061
9,-0.4648,-1.8472,0.1753,0.5737,-0.3532,1.2684,2051
9,-0.8643,-1.1057,0.167,0.3125,0.3437,0.836,2079
9,-1.136,-1.0315,0.1543,-0.0108,0.1976,0.2119,2159
9,-1.1064,-0.9592,0.1858,-0.1796,-0.2629,0.0378,2037
9,-1.0474,-0.9272,0.1418,-0.505,-0.0237,-0.3345,2039
9,-0.5093,-1.0469,-0.1934,-0.1354,0.0366,-0.3357,2041
9,-0.1506,-0.9277,-0.3025,-0.1854,0.0776,-0.084,2049
9,-0.4753,-0.8066,-0.2249,-0.3249,-0.1284,-0.3992,2051
9,-0.6599,-0.8723,-0.2795,-0.2314,-0.3892,-0.6999,2052
9,-0.5273,-0.991,-0.4321,-0.0937,-0.1557,-0.6517,2052
9,-0.4851,-0.8613,-0.5325,0.0431,-0.1486,-0.555,2051
9,-0.5007,-0.7273,-0.5562,0.2049,-0.2004,-0.7178,2047
9,-0.4365,-0.6711,-0.5718,0.3717,-0.2416,-0.8329,2047
9,-0.3777,-0.6865,-0.4934,0.5239,-0.2262,-0.872,2050
9,-0.1826,-0.8525,-0.3523,0.6078,-0.3862,-0.9793,2057
9,-0.3335,-0.9512,-0.2083,0.6782,-0.3882,-0.9242,2056
9,-0.3843,-1.0007,-0.1179,0.6982,-0.3449,-0.8762,2050
9,-0.2427,-1.05,-0.0779,0.6558,-0.3076,-0.9219,2037
9,-0.2339,-1.031,-0.0295,0.6007,-0.193,-0.871,2032
9,-0.1331,-0.99,-0.0151,0.587,-0.2068,-0.7624,2063
9,-0.0522,-1.0737,-0.0391,0.536,-0.0919,-0.75,2052
9,0.0308,-1.0706,-0.0391,0.4478,-0.1918,-0.6777,2037
9,0.491,-1.095,-0.0154,0.2726,-1.0356,-0.8357,2020
9,0.3655,-0.9141,-0.1948,0.2332,-0.9909,-0.9323,2046
9,0.2341,-0.9304,-0.1323,0.3385,-1.1464,-0.7336,2052
9,-0.9561,-1.0347,0.0767,0.204,-0.6777,-0.6847,2143
9,0.2383,-1.0447,-0.1736,0.0394,0.4799,-0.6028,2042
9,0.1238,-0.906,-0.0925,-0.0112,-0.6841,-0.4016,2055
9,-0.4614,-0.8467,-0.1633,0.1384,0.0205,-0.2984,2038
9,0.1824,-0.9812,0.0459,0.0667,0.2448,-0.2986,2034
9,0.2314,-1.0181,-0.0947,0.03,-0.0671,0.0182,2027
9,0.1067,-0.9731,-0.0049,-0.0663,-0.0497,-0.0752,2004
9,0.5261,-1.0447,0.0134,-0.0699,-0.2148,-0.0035,1922
9,0.6252,-1.0789,-0.009,-0.1221,-0.7841,0.018,2059
9,0.3728,-1.011,0.0139,-0.0285,0.0599,0.4197,2165
9,0.1333,-1.1243,0.0898,-0.0641,-0.0329,0.4695,1874
9,0.2043,-1.1221,0.0344,-0.0483,0.1795,0.5694,1997
9,0.1936,-1.1682,-0.0586,-0.1388,0.0968,0.5759,2142
9,0.1401,-1.1333,-0.0876,-0.1758,-0.0437,0.7452,1778
9,-0.0298,-1.0625,-0.1028,-0.1716,-0.017,0.8352,2020
9,-0.0767,-1.0505,-0.1396,-0.1827,-0.1389,0.8641,2465
9,-0.0786,-1.0413,-0.2402,-0.1573,-0.1956,0.9649,1940
9,-0.0483,-1.0771,-0.2463,-0.1209,-0.2912,0.9993,1946
9,-0.0564,-1.1919,-0.23,-0.0912,-0.2902,0.9444,1813
9,-0.0732,-1.2104,-0.2219,-0.1214,-0.4928,0.9304,2178
9,-0.165,-1.1167,-0.1943,-0.1338,-0.5489,0.9761,1652
9,-0.2749,-1.064,-0.1199,-0.1537,-0.6875,0.9661,1938
9,-0.3784,-1.0703,-0.0618,-0.1527,-0.7719,0.9064,2553
9,-0.3633,-1.1665,-0.0483,-0.1916,-0.8641,0.8516,1701
9,-0.3013,-1.2188,-0.0635,-0.1931,-0.9099,0.9063,1952
9,-0.2312,-1.2988,0.0388,-0.1499,-0.8212,0.9332,2226
9,-0.1665,-1.4373,0.0979,-0.1675,-0.8649,0.8859,1980
9,-0.0427,-1.584,0.1648,-0.1863,-0.876,0.8517,1978
9,-0.0063,-1.5549,0.3005,-0.2324,-0.9977,1.0744,1866
9,0.0173,-1.4521,0.0493,-0.0937,-1.0796,1.3379,1928
9,0.0901,-1.782,0.1226,0.0017,-1.1117,1.6679,2065
9,0.0679,-2.0,0.2859,-0.0842,-0.693,1.9824,2030
9,0.1042,-1.9697,0.428,-0.1934,-0.3392,2.5334,2049
9,0.4241,-1.9961,0.4661,-0.2478,-0.3702,2.6685,2054
9,0.8921,-2.0,0.4814,-0.3228,-1.2484,2.7203,2043
9,0.2031,-1.6919,0.2097,-0.2149,-1.4592,2.9834,2021
9,0.1624,-1.7312,-0.0032,0.0676,-1.8696,3.0668,2047
9,0.7236,-2.0,0.3066,-0.3751,-2.4754,2.6328,2007
9,0.2864,-1.7454,-0.5754,-0.4211,-2.2715,2.1724,2058
9,0.5107,-2.0,-0.4468,-1.4165,-4.3635,-0.0433,2061
9,-0.1494,-1.7681,-0.3057,-1.056,-4.3635,0.6084,2055
9,-1.968,-0.8821,-0.3386,-0.8756,-3.4832,1.9365,2049
9,-2.0,-1.249,-0.4607,-0.9947,-1.7302,2.6461,2071
9,-1.5452,-2.0,-0.2322,-0.5165,-0.8998,3.6134,2084
9,-0.9646,-2.0,-0.3257,-1.3343,-1.7263,3.6498,2062
9,-1.8652,-1.1055,-0.0886,-1.9106,1.4854,2.7797,2066
9,-0.7441,-0.9731,-0.1594,-2.2904,2.3796,2.6998,2063
9,-0.3735,-0.0496,-0.0027,-1.6335,1.7267,2.6261,2046
9,-0.9661,-0.325,-0.0227,-0.8741,1.1788,1.9105,2044
9,-1.2544,-0.7373,-0.0854,-0.7702,1.3653,1.8901,2045
9,-1.0242,-0.5439,-0.0383,-0.8078,1.5984,1.8843,2052
9,-1.6243,-0.1787,-0.1523,-0.5478,1.3889,1.3901,2052
9,0.8003,-0.3682,0.5767,-1.0633,-1.3904,0.0826,2058
9,0.0449,0.29,-0.0815,-0.5279,0.8957,1.0734,2051
10,-0.3008,-0.053,0.0818,-0.744,-0.3268,-0.5665,2045
10,0.2263,0.094,0.0881,-0.8724,0.2306,-0.7289,2056
10,0.2908,0.3628,0.2471,-0.6193,0.9706,-0.7225,2048
10,-0.0354,0.3923,0.2849,-0.2675,1.1666,-0.7596,2050
10,-0.2856,0.3716,0.1997,-0.1309,1.066,-0.5762,2046
10,-0.3569,0.4214,0.0527,-0.1264,0.9453,-0.6843,2057
10,-0.23,0.4041,0.0098,0.1024,0.7577,-1.3579,2051
10,0.1753,0.27,-0.0171,0.2634,0.1268,-2.0065,2049
10,0.1323,0.1819,-0.0217,0.3633,-0.2088,-2.3435,2046
10,0.3398,0.3342,-0.0525,0.2832,-0.1177,-2.6513,2051
10,0.2498,0.3015,-0.0515,0.2952,-0.0575,-2.804,2049
10,-0.0979,0.3086,-0.0393,0.4137,-0.0093,-2.9415,2051
10,-0.1892,0.3562,0.0264,0.4943,0.0519,-3.009,2047
10,-0.1396,0.3936,0.0691,0.7371,0.0662,-2.9421,2062
10,-0.2886,0.4871,-0.0117,0.8275,0.3228,-3.0432,2056
10,-0.312,0.5059,-0.0664,0.7196,0.6388,-3.0799,2001
10,-0.4109,0.3826,0.0203,0.3808,0.8301,-3.1287,2061
10,-0.5872,0.2617,0.1047,0.2647,0.5924,-3.3638,2027
10,-0.375,0.0913,-0.1597,0.5903,0.6353,-3.3359,2045
10,-0.2449,0.042,-0.271,0.824,0.8959,-3.124,2049
10,-0.6169,0.1392,-0.1233,0.5871,0.3104,-3.2926,2064
10,-0.999,-0.0984,-0.5903,0.3175,-0.0234,-4.2258,2052
10,-1.2649,0.0283,-2.0,-1.0826,4.3634,-4.3635,2076
10,-2.0,-1.4846,-0.8391,-0.6219,-1.7708,4.2809,1937
10,-2.0,-2.0,1.9999,0.6644,0.4715,0.5333,2062
10,1.9999,-1.9883,1.1155,0.7435,4.3634,1.7713,2190
10,1.9999,-1.0105,0.7002,1.417,-1.7036,1.8113,2079
10,-0.3015,-1.6221,-0.6296,0.7978,2.0076,-0.563,2003
10,-2.0,-2.0,-0.4502,-0.3,3.1003,-1.3509,1993
10,1.5164,0.0679,-0.1382,-1.4676,2.6207,4.3634,2102
10,1.4053,1.9999,-0.219,-0.1241,2.4522,-1.6092,2049
10,1.053,-1.1946,-0.2722,-0.2021,-1.1433,-1.6515,2035
10,-0.6702,-2.0,0.2546,0.5176,-0.1739,-1.3489,2019
10,-1.3193,-2.0,0.0039,0.1715,0.3537,1.101,2041
10,-1.4084,-1.0701,-0.0903,0.1663,0.1055,1.8177,2065
10,-1.1458,-0.0422,-0.2258,0.012,-0.098,0.6405,2046
10,-0.5789,-0.5715,-0.3809,-0.0831,-0.098,-1.138,2062
10,-0.6902,-1.1064,-0.427,0.0425,-0.2321,-0.9424,2055
10,-0.429,-1.0684,-0.3882,0.2068,-0.2819,-0.2509,2043
10,-0.4983,-0.8413,-0.3201,0.3149,-0.1573,-0.3862,2043
10,-0.3818,-0.9475,-0.3081,0.312,-0.0691,-0.5486,2028
10,-0.4421,-0.988,-0.2429,0.329,-0.0314,-0.4938,2054
10,-0.4702,-0.9697,-0.2097,0.3309,-0.1842,-0.5396,2047
10,-0.4619,-0.9788,-0.1975,0.2655,-0.2868,-0.6469,2052
10,-0.4197,-1.0093,-0.2749,0.2187,-0.3972,-0.7156,2061
10,-0.3765,-0.9741,-0.2688,0.2824,-0.4015,-0.6453,2019
10,-0.2957,-0.9106,-0.2766,0.3366,-0.5292,-0.5932,2025
10,-0.1951,-0.9087,-0.2754,0.3231,-0.7988,-0.6589,2081
10,-0.3638,-0.9504,-0.2148,0.3077,-1.027,-0.6661,2007
10,-0.4133,-0.8643,-0.2036,0.3796,-0.8495,-0.4582,2007
10,-0.3599,-0.896,-0.1575,0.2974,-0.6002,-0.5414,2015
10,-0.2078,-0.9775,-0.1724,0.3577,-0.7393,-0.6018,2013
10,-0.1426,-0.9788,-0.2156,0.3649,-0.7753,-0.5759,2061
10,0.0337,-0.9224,-0.1711,0.3205,-0.938,-0.5564,2060
10,-0.3079,-0.9753,-0.0671,0.1942,-1.0909,-0.7721,2038
10,-0.0149,-0.978,-0.1726,0.1017,-1.0934,-0.9388,2038
10,0.0173,-0.8284,-0.2324,0.2225,-1.25,-0.7203,2060
10,-0.2646,-0.3877,-0.2751,0.4786,-0.9154,-0.2293,1969
10,-0.1946,-0.8169,-0.0691,0.2711,-1.4145,-0.6064,2035
10,0.1619,-1.0884,-0.3127,0.3906,-0.2614,-0.5801,2177
10,0.2554,-0.9504,-0.1187,0.0819,-1.4523,-0.3029,2114
10,-0.458,-0.646,-0.0913,0.2346,-0.5079,-0.2661,1972
10,-0.5205,-0.7332,-0.0803,0.2597,-0.4841,-0.3749,2059
10,-0.0999,-1.1323,0.0471,0.0851,-0.6123,-0.6094,2314
10,0.175,-0.8088,-0.093,0.3456,-0.1171,0.1687,2003
10,-0.3342,-0.9502,0.2107,0.2778,-1.0009,-0.3115,1737
10,-0.2024,-1.1099,0.0222,0.1175,-0.5871,-0.3816,1991
10,0.5471,-1.0552,-0.0369,0.3195,-0.4653,0.3673,2153
10,-0.1917,-1.1345,-0.062,0.3437,-0.7861,-0.1654,2015
10,-0.457,-1.1243,-0.1631,0.2911,-0.404,-0.1103,2040
10,0.23,-1.1826,-0.1133,0.3304,-0.3364,0.0823,1904
10,0.2297,-1.1909,-0.134,0.4633,-0.5311,0.4424,2150
10,0.075,-1.2632,-0.0547,0.4822,-0.7701,0.5691,2091
10,-0.1121,-1.292,-0.0613,0.4474,-1.007,0.6454,2207
10,-0.1519,-1.3823,0.03,0.4532,-1.0212,0.8128,2134
10,-0.0903,-1.658,0.1394,0.4188,-1.1416,0.6903,2003
10,0.0295,-1.8018,0.3711,0.3121,-1.0192,0.6112,2039
10,0.2312,-1.7124,0.3,0.2924,-1.0282,0.9047,2051
10,0.4424,-1.6709,0.2571,0.4085,-1.032,1.0417,2056
10,0.7461,-1.8218,0.4094,0.4438,-1.2414,1.4854,2049
10,0.8379,-1.8235,0.4973,0.394,-1.0844,1.6383,2038
10,0.8167,-1.7935,0.4448,0.3444,-0.811,1.835,2042
10,0.6997,-2.0,0.4736,0.1091,-0.3691,1.8399,2047
10,0.6555,-1.6868,0.4392,0.0281,-0.3599,2.3019,2053
10,0.2407,-1.5061,0.271,0.173,-0.2201,2.2887,2048
10,0.4155,-2.0,-0.0469,0.0744,-0.6135,1.3503,2051
10,0.1157,-2.0,-0.3052,0.286,-0.6943,2.2655,2041
10,-0.2183,-2.0,-0.1638,0.6689,-0.3581,2.2756,2042
10,-0.3508,-2.0,-0.4312,0.5215,-0.0108,2.5522,2023
10,-1.0984,-2.0,-0.458,0.0382,-0.2281,2.9396,2061
10,-0.5029,-2.0,0.0098,-0.5091,-1.2528,4.3634,2061
10,-2.0,-0.7603,-0.3596,-0.968,2.9533,4.3634,2064
10,-1.8584,-1.8184,-0.2817,-2.109,3.9186,3.9506,2068
10,-0.1011,-1.4912,-0.4165,-1.8857,4.086,4.3634,2063
10,-0.0862,-0.7708,-0.2471,-1.5532,2.637,4.3634,2036
10,-0.2212,-0.4832,-0.1975,-0.8971,0.9039,2.8199,2028
10,-0.5046,-0.7402,-0.3245,-0.7526,0.4602,2.8906,2052
10,-1.115,-0.7397,-0.4033,-0.5671,0.2844,2.7389,2047
10,-1.3066,-0.5081,-0.3704,-0.4199,0.6979,2.8236,2057
10,-1.2581,-0.2341,-0.2629,-0.278,1.4976,2.7068,2047
10,-1.7375,-0.2124,-0.3225,-0.0364,1.7697,2.0337,2062
11,0.5845,-0.3296,0.2603,-0.0622,-0.7811,1.1866,2055
11,-0.1863,0.2769,0.0352,0.0313,0.2786,1.5897,2053
11,-0.2324,0.1775,0.0969,-0.1557,-0.4047,0.0796,2041
11,0.3396,0.0696,0.1494,-0.2278,-0.1703,-0.4578,2049
11,0.3423,0.0566,0.2222,-0.0431,0.3963,-0.547,2049
11,0.072,0.0481,0.271,0.1285,0.8078,-0.5924,2034
11,-0.2297,0.0066,0.2634,0.2212,1.0377,-0.5758,2053
11,-0.3445,0.1299,0.209,0.2353,1.2089,-0.5192,2056
11,-0.2822,0.2749,0.1621,0.3822,1.0392,-0.9226,2056
11,-0.0696,0.3848,0.0886,0.5059,0.7237,-1.5149,2048
11,0.134,0.429,0.0164,0.5964,0.2951,-1.9683,2050
11,0.2249,0.2834,0.063,0.755,-0.0415,-2.5024,2051
11,0.3601,0.144,0.1082,0.8685,-0.0154,-2.7128,2055
11,0.3596,0.052,0.0776,0.8317,-0.0899,-2.9746,2058
11,0.0544,0.1233,0.0374,0.8238,-0.1147,-3.0829,2053
11,-0.1421,0.3442,0.0322,0.8062,-0.1298,-3.1867,2055
11,-0.1951,0.4939,-0.0112,0.7909,-0.0313,-3.3401,2051
11,-0.2002,0.5884,-0.0613,0.9451,-0.069,-3.3797,2049
11,-0.0378,0.5962,-0.1926,1.1637,-0.1943,-3.3784,2046
11,-0.0916,0.751,-0.2874,1.176,-0.3055,-3.6836,2039
11,-0.2693,0.6877,-0.2056,1.0445,-0.2737,-4.0808,2048
11,-0.4463,0.5164,0.1133,1.1367,0.059,-4.1981,2059
11,-0.7131,0.5408,0.3235,0.9933,0.7558,-4.3635,2049
11,-0.8362,-0.0085,-1.6895,0.1167,1.8417,-4.3635,2072
11,-2.0,1.8074,-2.0,-1.1318,3.3025,-1.1374,2036
11,-2.0,-2.0,1.8494,0.3432,4.3634,2.4386,2136
11,1.9999,-2.0,1.9639,1.4049,-1.5821,-0.6127,2099
11,-1.0293,-2.0,0.7957,1.3551,-1.4197,2.4418,1822
11,1.9999,-2.0,-0.2505,0.0539,-1.6641,-1.947,2100
11,-1.3491,-2.0,-0.0984,-0.1234,4.3634,0.1145,2008
11,-2.0,-0.8884,0.1387,-0.6224,4.3634,0.938,2100
11,1.9999,1.1643,-0.127,-1.1909,2.8002,2.1021,2069
11,1.3865,0.8677,-0.6443,-0.1597,-0.6902,-1.227,2020
11,-0.1763,-1.0935,0.303,-0.0156,0.1249,-2.206,2059
11,-1.6716,-2.0,0.228,-0.0506,0.3713,-1.4023,2067
11,-1.281,-2.0,0.4133,0.0332,0.5394,1.0383,2064
11,-0.9883,-0.9849,-0.071,0.0543,-0.2378,1.0403,2047
11,-0.6665,-0.1257,-0.2695,-0.0712,-0.2558,-0.302,2032
11,-0.3899,-0.6079,-0.4421,-0.1065,-0.1064,-1.3408,2051
11,-0.5901,-1.0967,-0.3818,0.0214,-0.2031,-0.9288,2041
11,-0.4905,-1.0742,-0.3274,0.2167,-0.1013,-0.4019,2039
11,-0.5654,-0.95,-0.2888,0.2551,-0.0149,-0.6144,2049
11,-0.5027,-0.9919,-0.2839,0.2476,0.0281,-0.7909,2027
11,-0.4883,-0.9763,-0.2588,0.2717,-0.0696,-0.7931,2055
11,-0.4941,-0.9453,-0.2517,0.2883,-0.1911,-0.8532,2060
11,-0.4314,-0.9646,-0.2595,0.3008,-0.2643,-0.9601,1995
11,-0.2688,-1.0276,-0.2563,0.3532,-0.432,-1.0134,2045
11,-0.2112,-1.0417,-0.1357,0.3048,-0.4545,-0.8632,2108
11,-0.2627,-0.9275,-0.1118,0.308,-0.6785,-0.805,2053
11,-0.3765,-0.855,-0.0737,0.3827,-0.801,-0.8186,2032
11,-0.3083,-0.8516,-0.0745,0.4512,-0.8564,-0.7621,2073
11,-0.1562,-0.8777,-0.105,0.2842,-0.8361,-0.7743,2005
11,-0.0525,-0.8794,-0.116,0.1582,-0.9353,-0.8273,2045
11,0.0442,-0.8838,-0.1306,0.1093,-0.7807,-0.6833,2046
11,0.0608,-0.8789,-0.0881,0.2092,-0.932,-0.6142,2063
11,0.0334,-0.9495,-0.031,0.2671,-0.9665,-0.6308,2014
11,-0.1167,-0.925,-0.0964,0.1977,-0.8243,-0.6542,2034
11,0.0042,-0.8484,-0.0723,0.1732,-0.807,-0.5469,2077
11,-0.0554,-0.8406,-0.1418,0.1429,-0.5584,-0.6199,2009
11,0.0093,-0.9055,-0.0537,0.1053,-0.6299,-0.5163,1962
11,0.0474,-0.9177,-0.0698,0.0863,-0.4774,-0.3892,2038
11,0.1392,-0.9617,0.0439,0.1037,-0.4623,-0.2606,2147
11,0.0134,-1.0544,0.1475,0.1076,-0.7729,-0.1834,2192
11,-0.2014,-1.021,0.1055,0.1534,-0.3513,-0.0791,1958
11,0.1958,-1.0386,0.1074,0.1234,-0.3882,0.1677,2173
11,-0.1213,-1.1018,0.0247,0.1037,-0.3124,-0.061,1840
11,-0.095,-1.0286,-0.1152,0.0553,0.0582,0.1482,1894
11,0.1555,-1.1096,-0.1111,0.135,0.047,0.1393,2089
11,-0.0259,-1.0474,-0.2046,0.1826,-0.173,0.3396,2071
11,0.0791,-1.0247,-0.1858,0.2143,-0.2661,0.4585,2190
11,0.0459,-1.1184,-0.1487,0.2918,-0.3498,0.6815,1943
11,-0.0698,-1.1736,-0.0928,0.379,-0.4646,0.8825,2355
11,-0.1287,-1.2544,0.0137,0.3617,-0.3502,0.9922,1924
11,-0.1016,-1.4514,0.0518,0.2699,-0.5355,0.708,1975
11,-0.0439,-1.4158,0.0435,0.1918,-0.7063,0.8024,1999
11,-0.0784,-1.5339,0.113,0.1645,-0.7513,0.597,2089
11,-0.1436,-1.6204,0.2468,0.1513,-0.5626,0.7273,1962
11,-0.0244,-1.6301,0.199,0.2858,-0.4733,1.0389,2033
11,0.2529,-1.8457,0.1501,0.3743,-0.4773,1.3146,2048
11,0.5247,-1.8806,0.3105,0.3723,-0.7598,1.5876,2051
11,0.937,-1.7854,0.3777,0.3661,-0.9941,1.9825,2046
11,0.8789,-1.8538,0.3518,0.4287,-1.029,2.2599,2101
11,0.8564,-2.0,0.3403,0.3497,-0.5779,1.9523,2055
11,0.5664,-2.0,0.3225,-0.0214,-0.0626,2.041,2037
11,0.4268,-1.4675,0.0288,-0.077,-0.1562,2.1491,2044
11,0.5071,-2.0,-0.1538,-0.3107,-1.3521,0.9393,2081
11,0.1006,-2.0,-0.0107,-0.4454,-0.7249,1.8014,2043
11,-0.209,-2.0,-0.6584,-0.2799,-0.9308,2.3735,2046
11,-0.4873,-1.9197,-0.4434,-0.0679,-1.187,2.5726,2039
11,-1.2896,-1.969,-0.2495,-0.5572,-0.8893,2.8228,2053
11,-1.1914,-2.0,0.0002,-0.0469,-0.5781,3.629,2061
11,-2.0,-0.8052,-0.6296,-1.0375,2.3969,4.1807,2068
11,-1.7693,-1.7502,-0.2146,-2.1441,3.9396,3.8198,2069
11,0.0244,-1.511,-0.3213,-1.9282,4.0729,4.3634,2049
11,0.426,-0.6084,-0.0876,-1.4608,1.7311,3.7093,2037
11,-0.645,-0.5215,-0.1521,-1.2904,-0.0365,2.1646,2041
11,-1.5212,-0.7432,-0.335,-1.0854,0.4035,2.5972,2050
11,-1.6255,-0.7183,-0.2686,-1.0742,1.4099,2.4694,2060
11,-2.0,-0.8525,-0.4526,-0.5867,2.914,1.4073,2069
11,0.52,-0.5105,0.3398,-0.5837,-0.9308,2.2294,2056
11,-0.5825,0.1941,-0.2012,-0.6305,1.072,1.9176,2048
11,-0.719,0.167,-0.179,-0.6205,0.5256,0.6043,2044
12,0.1067,0.0903,0.1143,-0.7265,0.5779,0.0305,2049
12,0.2312,0.1562,0.3047,-0.4995,0.7656,-0.2075,2053
12,0.041,0.2119,0.3767,-0.2947,0.8737,-0.3052,2047
12,-0.1299,0.1565,0.387,-0.0993,0.9709,-0.1943,2050
12,-0.2832,0.1965,0.3625,0.0208,1.179,-0.2432,2052
12,-0.1228,0.2544,0.2375,0.1085,0.9617,-0.6414,2050
12,0.1086,0.4602,0.0242,0.1902,0.4207,-0.9673,2046
12,0.1216,0.5369,-0.0388,0.475,-0.1322,-1.3434,2045
12,0.0354,0.2874,0.0652,0.7408,-0.5332,-2.1113,2060
12,0.1899,0.3306,0.1116,0.699,-0.2982,-2.3137,2055
12,0.2366,0.1926,0.1152,0.706,-0.2798,-2.7131,2055
12,0.1516,0.2419,0.0708,0.7685,-0.2099,-2.791,2051
12,-0.1033,0.3853,-0.0042,0.7907,0.0792,-2.8785,2054
12,-0.3677,0.4309,0.1072,0.8086,0.1202,-3.2094,2048
12,-0.2239,0.5388,0.0754,0.9448,0.2778,-3.3055,2050
12,-0.2727,0.5103,-0.0522,1.0057,0.5105,-3.3983,2052
12,-0.3367,0.521,-0.2048,1.0954,0.671,-3.3188,2053
12,-0.323,0.5947,-0.2056,1.0923,0.7178,-3.5099,2047
12,-0.3025,0.6108,-0.1667,0.9801,0.7014,-4.0002,2058
12,-0.2534,0.395,-0.0325,0.9967,0.6127,-4.2309,2077
12,-0.4128,0.2603,-0.0168,0.9899,0.7269,-4.3562,2068
12,-1.1494,-1.8586,-1.7205,-1.6064,2.0382,-4.3635,2008
12,-2.0,-2.0,-2.0,-3.1797,0.9672,-1.3255,2021
12,-2.0,-2.0,1.9999,2.0347,-0.4924,4.3634,2059
12,-0.5708,-2.0,1.0374,1.3483,-0.3011,-1.8803,2048
12,1.9999,0.1477,0.3369,0.1328,-2.2342,1.5458,2065
12,0.0195,-0.3977,-0.2163,1.6213,-0.6624,1.6237,2032
12,-2.0,-1.6174,-0.325,-0.4843,4.3634,0.7618,2016
12,-0.728,-0.3535,0.6582,-0.5189,-0.8981,2.5305,2132
12,1.8093,1.3828,-1.1248,-0.7737,4.3634,-1.7464,2081
12,1.9999,-0.3525,-0.3413,-0.4711,-1.8339,-2.0453,2026
12,0.4629,-2.0,0.2478,0.5885,-0.7807,-0.2288,2013
12,-1.4146,-1.5952,-0.0986,0.4797,0.2025,0.4059,2012
12,-1.5142,-1.6113,0.0583,-0.132,0.3918,0.7236,2074
12,-1.3599,-0.7112,-0.2847,-0.0471,0.1189,0.8592,2058
12,-0.6357,-0.0723,-0.354,-0.1437,-0.2362,-0.744,2033
12,-0.2468,-0.7664,-0.4387,0.0716,-0.5052,-1.6462,2064
12,-0.5303,-1.261,-0.3901,0.2352,-0.4655,-0.9231,2045
12,-0.4209,-1.0908,-0.3552,0.3087,-0.1449,-0.5074,2050
12,-0.4128,-1.0159,-0.334,0.3079,0.0811,-0.6281,2045
12,-0.3535,-0.9436,-0.3254,0.3465,0.0222,-0.6799,2058
12,-0.408,-0.9141,-0.2866,0.3682,-0.1579,-0.8433,2045
12,-0.3447,-0.9199,-0.2974,0.3457,-0.4329,-0.923,2053
12,-0.3386,-0.9592,-0.2935,0.3986,-0.5798,-0.93,2049
12,-0.2808,-0.8477,-0.2544,0.5469,-0.6345,-0.5801,2051
12,-0.3848,-0.8328,-0.1858,0.6524,-0.6998,-0.6283,2047
12,-0.3643,-0.9009,-0.1213,0.6658,-0.8118,-0.742,2032
12,-0.3955,-0.9099,-0.0886,0.636,-0.8092,-0.8324,2058
12,-0.3477,-0.907,-0.0688,0.5854,-0.8308,-0.7917,2079
12,-0.2085,-0.8652,-0.0671,0.5151,-0.8845,-0.8335,2137
12,-0.1914,-0.8748,-0.1216,0.4829,-0.9544,-0.9044,2132
12,-0.0125,-0.9048,-0.0342,0.2506,-0.7899,-0.7665,2057
12,0.0332,-1.0342,-0.1204,0.2151,-0.6446,-0.8532,2050
12,0.2197,-0.897,-0.1858,0.3424,-0.7236,-0.5643,2018
12,-0.1084,-0.9338,-0.1584,0.2527,-1.1358,-0.9405,2020
12,-0.0703,-0.8306,-0.1548,0.2473,-1.0674,-0.7998,1945
12,0.0706,-0.8792,-0.1406,0.2538,-0.6955,-0.5428,2060
12,0.1479,-0.9028,0.0393,0.2244,-0.948,-0.4336,1920
12,-0.064,-0.9387,-0.0232,0.3103,-0.7325,-0.4855,2082
12,0.0837,-1.0684,0.0583,0.1429,-0.7481,-0.2759,2169
12,0.1672,-1.0635,0.1108,0.2714,-0.9772,-0.0664,2263
12,-0.1536,-1.0518,0.0938,0.1447,-0.8349,-0.4108,2037
12,0.0273,-1.0728,0.0107,0.1519,-0.6336,0.0627,1615
12,0.1436,-1.1328,0.0491,0.1919,-0.5838,0.1474,2011
12,0.1458,-1.1047,-0.1545,0.2743,-0.7423,-0.1386,1765
12,0.0557,-1.188,-0.072,0.2866,-0.4801,0.0831,1991
12,0.0935,-1.1548,-0.0483,0.2722,-0.3918,0.2169,2068
12,0.2659,-1.1792,-0.0615,0.3808,-0.3059,0.4533,2018
12,0.2673,-1.2144,-0.0693,0.4309,-0.4205,0.7502,2200
12,0.2124,-1.3213,-0.0056,0.403,-0.5733,0.9127,2019
12,0.0867,-1.4106,-0.0239,0.3398,-0.6701,0.7891,1972
12,0.2258,-1.4668,-0.0498,0.2217,-0.9127,0.8439,2074
12,0.1951,-1.4468,0.1147,0.2321,-1.1571,1.0263,2134
12,0.1282,-1.7319,0.3435,0.1485,-1.0718,0.8234,2045
12,0.0762,-1.6765,0.3105,0.2827,-0.8239,1.2078,2047
12,0.135,-1.7898,0.2605,0.3979,-0.42,1.2302,2052
12,0.4993,-1.8103,0.4954,0.4081,-0.3398,1.5532,2047
12,0.6565,-1.6003,0.5183,0.5132,-0.3992,2.0628,2039
12,0.7393,-1.8582,0.4082,0.5424,-0.238,1.9917,2039
12,0.6516,-2.0,0.4668,0.283,-0.1758,2.106,2057
12,0.5999,-1.5752,0.2568,0.149,-0.2266,2.2076,2053
12,0.3784,-1.8618,-0.0754,-0.0407,-0.93,1.3934,2053
12,-0.0171,-2.0,-0.2798,-0.0458,-0.9672,1.4167,2043
12,-0.5481,-2.0,-0.249,0.0711,-0.2204,2.2498,2052
12,-0.1956,-2.0,-0.6267,0.2045,0.2044,2.1445,2030
12,0.1184,-2.0,-0.0454,-0.0613,-1.8864,2.8894,2052
12,-2.0,-1.531,-0.1089,-0.6277,-0.7915,4.1406,2062
12,-2.0,-1.0532,-0.2361,-1.1962,1.9346,4.0183,2067
12,-1.3721,-1.9465,-0.304,-1.9165,3.1405,4.1845,2073
12,0.0959,-1.5635,-0.1985,-1.5723,3.1899,4.3634,2061
12,0.2964,-0.7844,-0.0391,-1.1958,1.2865,3.5753,2041
12,-0.4419,-0.7788,-0.052,-1.0222,0.3939,2.9549,2040
12,-1.2727,-0.7656,-0.168,-1.221,0.5277,2.7109,2050
12,-1.4382,-0.761,-0.188,-1.1276,0.9379,2.6502,2056
12,-1.2476,-0.5637,-0.2026,-1.0096,1.4692,2.5563,2057
12,0.2134,-0.6389,0.197,-0.5738,-0.4031,1.4703,2054
12,-0.396,-0.1738,-0.2002,-0.5918,1.1118,2.431,2055
12,-0.8186,-0.1606,-0.2524,-0.5679,0.7007,1.3651,2055
12,-0.3057,-0.1021,-0.1033,-0.6067,0.8075,0.8568,2054
12,0.0657,0.011,0.1011,-0.5296,0.6737,0.5532,2047
12,0.0115,0.0049,0.1609,-0.3346,0.6108,0.1478,2050
12,-0.0305,-0.0186,0.1777,-0.2084,0.7285,0.0659,2045
12,-0.1313,-0.0464,0.2124,-0.0415,0.8594,0.1192,2051
13,-0.1558,-0.1289,0.2429,0.0804,0.8629,-0.2096,2046
13,-0.1562,-0.1377,0.1943,-0.0537,0.8027,-0.5215,2055
13,-0.0867,-0.0273,0.0713,-0.1967,0.5494,-0.9296,2046
13,-0.0876,0.1348,0.0286,-0.1374,0.1549,-1.3735,2055
13,-0.0391,0.2737,0.0364,0.0836,-0.1506,-1.6539,2052
13,0.0005,0.2061,0.0981,0.2683,-0.3598,-2.0082,2056
13,0.1274,0.1704,0.0994,0.418,-0.5006,-2.1772,2057
13,0.1104,0.1599,0.0818,0.4368,-0.4548,-2.3715,2055
13,0.0271,0.1711,0.0801,0.5317,-0.2714,-2.547,2049
13,-0.1084,0.1526,0.1182,0.5429,-0.1325,-2.6525,2058
13,-0.1594,0.209,0.1328,0.6074,-0.0197,-2.7666,2055
13,-0.2227,0.3081,0.1199,0.6834,0.0738,-2.9417,2051
13,-0.2656,0.3806,0.053,0.7577,0.2137,-3.1191,2047
13,-0.2515,0.4504,-0.0288,0.871,0.396,-3.162,2057
13,-0.2495,0.5105,-0.0913,0.9843,0.4705,-3.0716,2051
13,-0.325,0.6208,-0.1042,0.9881,0.4791,-3.2009,2051
13,-0.3516,0.5942,-0.0918,0.958,0.4012,-3.5126,2044
13,-0.356,0.4756,-0.1155,1.0171,0.4095,-3.6468,2047
13,-0.4417,0.4443,-0.1799,1.0848,0.5553,-3.6035,2048
13,-0.6003,0.4695,-0.1968,1.1001,0.8059,-3.6007,2050
13,-0.8586,0.4712,-0.3176,1.0172,1.1435,-3.7665,2053
13,-1.8669,-1.2195,-2.0,-4.1973,4.3634,-4.3635,2052
13,-2.0,-2.0,-2.0,-0.7417,-4.3635,1.0712,2002
13,-2.0,-2.0,1.9999,2.7464,3.4117,4.3634,2077
13,1.9999,-2.0,-0.7366,-1.0254,0.4769,-4.3635,2171
13,1.9999,1.5723,0.8528,-0.9754,-0.7831,3.123,2166
13,-2.0,0.884,-2.0,0.6833,-2.4649,-1.2264,1789
13,-2.0,-2.0,1.4922,0.5815,4.3634,-1.3477,2023
13,1.8574,-0.7886,-1.3235,-1.3268,4.2048,4.3634,2132
13,0.2344,0.9797,0.208,0.5287,0.869,1.8028,2046
13,-1.2393,-0.2529,0.179,0.14,-0.3426,-2.2507,2049
13,-1.0103,-1.8647,-0.0171,0.0708,-0.7566,-2.3625,2050
13,-0.7639,-2.0,0.0837,0.2898,-1.1697,-0.3541,2069
13,-0.4717,-0.9055,-0.2312,0.6004,-0.8557,1.334,2063
13,-0.677,-0.2693,-0.0837,0.0185,0.2983,0.2087,2040
13,-0.7786,-0.915,-0.1743,-0.1013,0.7938,-0.6726,2071
13,-0.8284,-1.0574,-0.1416,0.0288,0.2016,-0.263,2056
13,-0.7764,-0.8914,-0.1528,0.0346,-0.0646,-0.5192,2078
13,-0.6052,-0.9128,-0.2649,0.0123,-0.3972,-1.1762,2035
13,-0.3704,-0.9631,-0.3499,0.1514,-0.4697,-1.1793,2063
13,-0.2747,-1.0093,-0.3704,0.2719,-0.2662,-0.924,2063
13,-0.3079,-0.9883,-0.3069,0.2972,-0.1193,-0.644,2064
13,-0.4336,-0.9482,-0.2266,0.2354,-0.0831,-0.7618,2036
13,-0.4312,-0.9854,-0.1921,0.1812,-0.1755,-1.0038,2047
13,-0.2844,-0.9819,-0.2109,0.1983,-0.4237,-1.0481,2057
13,-0.2224,-0.8518,-0.1995,0.382,-0.5879,-0.813,2059
13,-0.1802,-0.8691,-0.189,0.4566,-0.5992,-0.8152,2052
13,-0.2251,-0.9265,-0.1204,0.4743,-0.5284,-0.7586,2052
13,-0.2639,-0.8833,-0.0867,0.4485,-0.3446,-0.6956,2024
13,-0.1545,-0.7971,-0.0283,0.4923,-0.4675,-0.653,2044
13,-0.1577,-0.8723,-0.0396,0.455,-0.5645,-0.8138,2044
13,-0.0955,-0.9153,-0.0249,0.5055,-0.7103,-0.6715,2044
13,0.0923,-0.9009,-0.0137,0.4895,-0.759,-0.6245,2050
13,0.0801,-0.9492,-0.0278,0.4325,-0.7582,-0.6783,2033
13,0.0652,-0.9629,-0.0049,0.4228,-0.8877,-0.608,2045
13,0.0615,-0.8599,-0.082,0.3669,-0.7466,-0.5293,2075
13,-0.105,-0.7993,-0.124,0.3137,-0.7024,-0.6243,2051
13,0.0679,-0.7715,-0.04,0.4069,-0.5683,-0.2733,2070
13,0.0569,-0.9436,-0.0386,0.2417,-0.618,-0.5068,2070
13,0.0845,-1.116,-0.0635,0.0846,-0.2754,-0.2719,1954
13,0.1453,-1.1284,-0.0266,0.0876,-0.544,-0.191,2074
13,-0.001,-0.9739,0.0654,0.0708,-0.5086,-0.3063,1908
13,0.2261,-0.9216,-0.0356,0.2717,-0.4625,0.4192,1933
13,-0.1616,-1.113,0.1174,0.0461,-0.5404,-0.0987,2065
13,-0.24,-1.0706,-0.073,0.0458,-0.3361,-0.1281,1942
13,-0.0881,-1.0439,0.0481,0.1265,0.1285,0.1127,2154
13,0.0662,-1.1345,-0.106,0.0916,-0.0177,0.1304,2269
13,0.1301,-1.2275,-0.1077,-0.0578,-0.2735,-0.0188,1935
13,0.0212,-1.1252,-0.2178,0.0521,-0.4235,-0.0136,2263
13,0.2925,-1.2285,-0.0964,0.1352,-0.2354,0.4723,1942
13,0.2292,-1.1992,-0.0291,0.1719,-0.5245,0.6533,2457
13,0.2783,-1.2117,-0.0452,0.275,-0.4537,0.8991,2280
13,0.2891,-1.3208,-0.0266,0.283,-0.6782,0.8963,2082
13,0.2019,-1.3738,-0.0457,0.2721,-0.7292,0.9098,2041
13,0.2231,-1.5771,0.134,0.1522,-0.8503,1.0282,2052
13,0.22,-1.5786,0.1074,0.1217,-0.8242,1.054,2048
13,0.2156,-1.4851,0.0481,0.2727,-1.1701,1.6215,2044
13,0.4114,-1.9458,0.2561,0.2223,-1.2276,1.551,2045
13,0.4543,-2.0,0.6189,0.0846,-0.9802,1.3223,2043
13,0.5293,-1.6628,0.5757,0.0165,-0.8617,1.7436,2047
13,0.6013,-1.7644,0.5945,0.0077,-0.7787,1.5908,2047
13,0.519,-1.7048,0.6504,-0.0177,-0.8837,1.9112,2050
13,0.3228,-1.3577,0.5256,0.0935,-0.9058,2.2079,2046
13,0.1306,-1.5442,0.2615,0.1136,-0.4951,2.0278,2053
13,0.0632,-2.0,-0.0378,-0.2015,-0.536,1.604,2056
13,-0.3357,-2.0,-0.2605,-0.2095,-0.2944,2.1624,2049
13,-0.2878,-1.9382,-0.321,-0.0186,0.0852,2.7072,2042
13,0.2468,-2.0,-0.2466,0.0567,-0.0997,2.7766,2032
13,-0.5308,-2.0,-0.4995,-0.3286,-1.766,3.1431,2050
13,-2.0,-1.5464,-0.3188,-1.0258,-0.3274,3.9864,2059
13,-2.0,-1.0264,-0.2732,-1.2228,2.5678,3.8632,2072
13,-0.7207,-1.8391,-0.1531,-1.1898,3.8953,4.3634,2061
13,-0.239,-1.2791,-0.228,-0.9638,3.3637,4.3634,2063
13,-0.106,-0.9429,-0.197,-0.9765,1.5042,3.3472,2037
13,-0.6558,-0.9036,-0.2163,-1.0389,0.5556,2.8843,2034
13,-0.948,-0.8066,-0.1875,-1.3011,0.5573,2.5858,2050
13,-1.0623,-0.6362,-0.2695,-1.2587,0.5113,2.286,2051
13,-1.4714,-0.6523,-0.4958,-0.8678,0.9151,1.959,2053
13,-0.1116,-0.75,0.0032,-0.9642,-0.4325,1.2888,2058
13,-0.198,-0.2827,-0.1497,-0.82,0.1224,1.8765,2058
13,-0.5676,-0.0769,-0.2183,-0.6573,-0.1369,1.3122,2052
14,-0.498,0.0356,-0.1021,-0.5339,0.4111,0.9353,2054
14,-0.3513,0.1021,0.0613,-0.3658,0.6711,0.717,2064
14,-0.238,-0.0869,0.1633,-0.1927,0.6249,-0.0233,2043
14,-0.1541,-0.1331,0.1931,-0.1216,0.7215,-0.296,2051
14,-0.2559,-0.1653,0.2214,-0.1008,0.985,-0.2049,2054
14,-0.1772,-0.2825,0.2014,-0.0069,0.9321,-0.6317,2056
14,-0.0706,0.0283,0.1199,0.328,0.8291,-0.4766,2051
14,-0.1743,0.2913,0.0522,0.3645,0.7369,-0.7032,2043
14,-0.0232,0.2056,0.022,0.4421,0.52,-1.1363,2049
14,-0.0205,0.1521,0.0459,0.6142,0.3352,-1.5234,2052
14,0.1182,0.0864,0.0669,0.5879,0.0667,-1.8662,2053
14,0.1562,0.1812,-0.0186,0.5285,0.2352,-1.9438,2056
14,0.0449,0.0642,0.0181,0.7405,0.1593,-2.2032,2053
14,-0.0356,0.0693,0.0869,0.7435,0.155,-2.3384,2050
14,-0.0713,0.2065,0.0947,0.7597,0.0902,-2.4497,2051
14,-0.1768,0.3018,0.1077,0.8232,-0.0053,-2.6916,2054
14,-0.1699,0.3752,0.0344,0.8838,0.0696,-2.7855,2051
14,-0.1875,0.4553,-0.0823,0.9854,0.1831,-2.7995,2051
14,-0.2595,0.5667,-0.1191,1.0794,0.2956,-2.8402,2059
14,-0.3704,0.6831,-0.0864,1.0991,0.4899,-2.966,2039
14,-0.3909,0.7083,-0.0774,1.2564,0.6311,-3.1608,2032
14,-0.3342,0.6584,0.0994,1.3635,0.4734,-3.4059,2051
14,-0.408,0.6211,0.1123,1.3854,0.6526,-3.8154,2053
14,-0.4846,0.6685,0.0437,1.3814,1.0573,-4.2604,2047
14,-1.9077,-1.2612,-2.0,-3.1351,4.3634,-4.3635,2009
14,-2.0,-2.0,0.3682,1.1629,-4.3635,4.3634,2013
14,-2.0,-2.0,1.9999,3.645,4.3634,4.3634,2172
14,1.9999,-0.0007,-0.0139,-0.1101,1.8658,-4.3635,2164
14,1.9999,-0.7808,-2.0,0.314,-4.2357,3.1335,2128
14,-2.0,-0.9622,0.8586,0.022,3.7809,-1.0597,1939
14,-2.0,-1.5205,0.625,-1.476,4.3634,2.4647,2064
14,1.9072,1.0269,0.1501,-1.4629,3.7683,2.7027,2086
14,0.5439,0.6311,-0.9048,-0.0008,-0.703,-2.2561,2041
14,0.0547,-1.4753,0.4187,0.3028,-1.1146,-1.8823,2039
14,-0.939,-2.0,-0.3801,0.2546,-0.083,-0.6956,2048
14,-1.2229,-2.0,0.2993,0.42,0.0546,0.9815,2057
14,-1.0142,-0.8386,-0.1086,-0.0196,0.2569,1.3696,2054
14,-0.7551,-0.3923,-0.1445,0.0027,0.1202,0.1677,2045
14,-0.8164,-0.5725,-0.3606,-0.0643,0.1641,-0.9708,1993
14,-0.4641,-0.8909,-0.3208,-0.0607,-0.4932,-0.7858,1945
14,-0.4905,-1.1084,-0.1816,-0.2168,0.1479,-0.5629,2059
14,-0.5093,-1.1829,-0.2698,-0.0995,0.0924,-0.5167,2047
14,-0.3921,-1.127,-0.1804,0.1249,0.1678,-0.3132,2048
14,-0.637,-0.9099,-0.1284,0.0446,-0.0141,-0.3948,2053
14,-0.761,-0.7839,-0.2224,0.0848,-0.2369,-0.7451,2038
14,-0.5635,-0.8645,-0.2854,0.275,-0.3237,-0.874,2098
14,-0.4309,-0.9453,-0.2219,0.2731,-0.1615,-0.8159,2035
14,-0.4033,-1.032,-0.1909,0.2481,-0.2358,-1.018,2037
14,-0.2766,-1.0364,-0.1982,0.288,-0.3346,-1.0058,2046
14,-0.2461,-0.9224,-0.1934,0.2942,-0.4887,-0.9404,2046
14,-0.3086,-0.8398,-0.1589,0.3305,-0.5842,-0.9491,2055
14,-0.311,-0.8018,-0.1655,0.3569,-0.8341,-0.8947,2030
14,-0.2769,-0.7659,-0.114,0.4172,-0.9669,-0.9038,2115
14,-0.1633,-0.8352,-0.1541,0.4189,-1.1226,-0.8564,2038
14,-0.1367,-0.8438,-0.1011,0.3458,-1.114,-0.7999,1958
14,-0.1169,-0.874,-0.0957,0.3538,-1.119,-0.7915,2036
14,-0.0857,-0.9558,-0.0955,0.2951,-1.0732,-0.8018,2052
14,-0.031,-0.9185,-0.0623,0.2894,-0.9882,-0.7408,2076
14,-0.0693,-0.8179,-0.0657,0.2683,-0.818,-0.7084,2043
14,-0.1355,-0.7986,-0.0737,0.3259,-0.7813,-0.7247,2020
14,-0.1687,-0.8428,-0.1162,0.2655,-0.6096,-0.7336,2068
14,-0.0112,-0.8342,-0.1372,0.2301,-0.5406,-0.6264,2048
14,0.0286,-0.8508,-0.0645,0.2767,-0.5277,-0.5524,1929
14,0.0352,-0.9578,0.0474,0.277,-0.6541,-0.2987,1992
14,-0.1482,-1.0354,0.1001,0.2167,-0.6769,-0.3247,2011
14,-0.0771,-0.9719,0.0374,0.2276,-0.3422,-0.1553,1847
14,-0.0088,-1.0288,0.0049,0.1944,-0.3923,0.0357,2420
14,-0.1562,-1.0635,0.0176,0.1549,-0.3602,-0.2069,2144
14,-0.009,-0.9658,0.0862,0.139,-0.1906,-0.0522,2121
14,0.0347,-1.0974,0.0603,0.084,-0.2071,-0.0858,2073
14,0.0706,-1.2141,-0.0679,0.0755,-0.1993,-0.0427,1957
14,0.2061,-1.1331,-0.0425,0.1622,-0.131,0.1297,1931
14,0.2849,-1.1738,-0.1328,0.1842,-0.3703,0.2169,1979
14,0.1228,-1.1489,-0.1694,0.2666,-0.4633,0.5018,1991
14,0.0134,-1.0674,-0.1987,0.3033,-0.4015,0.7718,2023
14,-0.1094,-1.1375,-0.1338,0.3488,-0.4522,0.8521,1869
14,-0.0874,-1.2883,-0.0676,0.3775,-0.4216,0.9573,2072
14,-0.0347,-1.4512,0.0264,0.3557,-0.4497,0.9881,2102
14,0.1069,-1.614,0.0764,0.2361,-0.6446,0.7356,2047
14,0.3535,-1.5803,0.2048,0.1043,-1.077,0.9733,2045
14,-0.1042,-1.5935,0.2612,0.3233,-0.7581,0.8883,2048
14,0.1438,-1.9626,0.3188,0.3661,-0.1071,1.1098,2051
14,0.5779,-1.9006,0.4019,0.304,-0.0888,1.282,2044
14,0.9258,-1.7095,0.406,0.3642,-0.6518,1.7309,2045
14,0.8264,-1.6909,0.3694,0.4489,-0.659,2.0594,2022
14,0.636,-1.8049,0.3357,0.5043,-0.4374,2.0289,2013
14,0.5857,-1.8518,0.3413,0.3848,-0.0284,2.0583,2048
14,0.4429,-1.6794,0.1685,0.1689,0.1329,2.1304,2059
14,0.3403,-2.0,-0.1384,-0.1579,0.0706,1.5374,2027
14,-0.2429,-1.9775,-0.4092,-0.1662,0.9505,2.2229,2084
14,-0.5422,-1.99,-0.2527,-0.0792,0.9688,2.8436,2053
14,0.0168,-2.0,-0.1741,-0.1388,0.9022,2.9806,2039
14,0.1035,-2.0,-0.3398,-0.1011,0.4814,2.5703,2041
14,-1.6328,-1.7307,-0.4536,-0.3007,-0.4422,4.1955,2047
14,-2.0,-1.2729,-0.1965,-0.8653,2.2988,4.3634,2067
14,-1.8621,-1.6733,-0.1992,-1.5997,4.1152,4.1379,2081
14,-0.144,-1.7729,-0.3191,-1.3909,3.8753,4.3634,2088
14,0.2278,-0.9429,-0.1877,-1.171,1.9383,4.1993,2045
14,-0.5679,-0.8193,-0.137,-1.1874,0.5249,2.9435,2033
14,-1.2424,-0.793,-0.2419,-1.239,0.3008,2.9722,2042
14,-1.2266,-0.7625,-0.2908,-1.2095,0.6173,2.7408,2051
14,-1.1919,-0.6633,-0.2988,-1.0047,0.7293,2.6468,2043
15,-1.147,-0.5564,-0.3101,-0.887,0.9574,2.5143,2058
15,-1.2661,-0.5083,-0.3127,-0.7112,1.1374,2.2411,2056
15,-0.2034,-0.6614,0.2415,-0.7926,-0.127,1.0617,2052
15,-0.4436,-0.2791,0.1646,-0.8794,0.2057,1.8048,2056
15,-0.4341,-0.062,0.189,-0.9664,-0.0435,1.262,2053
15,-0.0674,-0.0266,0.1504,-0.7803,-0.3579,0.5494,2043
15,-0.0632,0.0566,0.2695,-0.7778,-0.3691,0.222,2050
15,-0.073,0.0005,0.2722,-0.6879,-0.1467,-0.2412,2055
15,-0.2153,-0.1965,0.3896,-0.5264,-0.1854,-0.2766,2050
15,-0.3081,-0.4397,0.3862,-0.5634,-0.1819,-0.6312,2037
15,-0.2295,-0.2307,0.3152,-0.573,-0.2795,-0.8307,2049
15,-0.3237,0.3171,0.3037,-0.5857,-0.4362,-0.7156,2052
15,-0.2307,0.3472,0.1672,-0.4452,-0.7465,-1.3001,2057
15,-0.0776,0.0286,0.1843,-0.2868,-1.0961,-2.1872,2053
15,-0.0093,-0.166,0.207,-0.2226,-1.1725,-2.7585,2049
15,-0.0479,-0.2178,0.2212,-0.1704,-1.1043,-3.0164,2051
15,-0.1235,-0.1877,0.2053,-0.1246,-0.8834,-3.2575,2050
15,-0.1565,-0.0757,0.1887,-0.0513,-0.5666,-3.4785,2048
15,-0.2227,0.0083,0.1553,0.0095,-0.2019,-3.7243,2062
15,-0.2476,0.0596,0.1184,0.0823,-0.0115,-3.9315,2057
15,-0.2322,0.1111,0.0894,0.1578,0.0403,-4.1563,2053
15,-0.2085,0.1929,0.071,0.2635,0.0983,-4.3635,2067
15,-0.1604,0.2532,0.0454,0.2999,0.2618,-4.3635,2112
15,-0.1648,0.2517,-0.0596,0.3498,0.5562,-4.3635,2077
15,-0.1655,0.1428,-0.1196,0.2807,1.0669,-4.3635,2183
15,-0.2217,0.073,-0.1687,0.447,1.3386,-4.3635,2077
15,-0.3816,-0.0098,-0.0559,0.5561,1.0796,-4.3004,2032
15,-0.376,-0.0815,-0.2537,0.4715,0.709,-4.2949,1981
15,-0.1082,-0.2554,-0.4016,0.3879,0.0898,-4.1908,2032
15,-0.1917,-0.4028,-0.4939,0.1498,-0.7986,-3.9576,2034
15,-0.5251,-0.4707,-0.7517,0.1766,-1.5071,-3.8354,2050
15,-0.8511,-0.5955,-0.5842,-0.0898,-1.7089,-3.1917,2052
15,-1.106,-0.6445,-0.322,-0.5096,-1.183,-2.9584,2044
15,-1.4355,-0.6057,-0.335,-0.6323,-0.3796,-2.5615,2051
15,-1.4353,-0.4756,-0.4104,-0.3729,-0.1603,-1.7273,2055
15,-1.28,-0.1594,-0.3801,-0.191,-0.2372,-1.1387,2059
15,-1.0442,0.2366,-0.2737,-0.0394,-0.3754,-0.5612,2055
15,-1.1602,0.6162,-0.1326,0.2112,-0.3195,-0.2153,2055
15,-2.0,-1.7744,0.073,-1.0456,-0.549,-3.6141,2057
15,-1.2607,-1.3628,1.4807,0.5289,2.2487,-0.4745,2050
15,1.3926,-2.0,-1.5396,4.3634,4.3634,-0.9487,2057
15,1.5635,-2.0,0.9004,-1.0477,0.4334,4.3634,2006
15,0.5195,1.9999,-0.9185,-3.8989,1.2196,1.0995,2083
15,0.1272,1.9999,0.1494,-0.728,0.5825,-1.601,2080
15,-1.2708,0.5283,-0.104,1.968,1.1085,0.0993,2013
15,-2.0,-2.0,-0.1077,1.0648,-0.8946,1.7033,2052
15,-1.4399,-2.0,-0.8171,-0.0667,0.7478,1.1817,2074
15,0.573,-2.0,0.0359,0.5482,-0.0266,0.3542,2096
15,1.6057,-1.0637,0.165,-0.5054,-0.5462,-0.3525,2046
15,-0.6033,-0.2158,-0.0042,0.0023,-0.7601,0.022,2028
15,-1.8882,-0.677,0.1609,-0.5995,0.3894,0.4252,2039
15,-0.5862,-1.1982,-0.135,-0.2766,0.3615,0.5894,2076
15,-0.2888,-1.0005,-0.158,-0.0726,0.2914,0.0197,2065
15,-0.259,-0.9915,-0.3101,-0.0434,0.1193,0.1338,2057
15,-0.3552,-0.8826,-0.1541,-0.1257,-0.2979,0.0013,2044
15,-0.3879,-0.9871,-0.1064,-0.0392,-0.2741,-0.1863,2041
15,-0.3447,-1.0361,-0.2112,0.0546,-0.0257,-0.0253,2005
15,-0.1506,-0.9907,-0.3296,0.0678,0.1005,-0.0294,2049
15,-0.1008,-0.9807,-0.3787,0.0902,0.222,-0.1185,2056
15,-0.1123,-0.9351,-0.3423,0.1526,0.196,-0.0533,2063
15,-0.1724,-0.9053,-0.2932,0.1506,0.1248,-0.0688,2066
15,-0.1636,-0.9504,-0.2419,0.2678,0.1173,-0.127,2062
15,-0.1323,-1.0034,-0.217,0.2871,0.1417,-0.0941,2075
15,-0.0498,-0.9958,-0.2151,0.2326,0.1354,-0.0792,2060
15,-0.0864,-0.9912,-0.1548,0.2334,0.0772,-0.1112,2060
15,-0.1406,-1.0085,-0.1204,0.2109,0.0306,-0.1196,2033
15,-0.0903,-1.0486,-0.0427,0.2345,-0.1266,-0.1123,2047
15,-0.0986,-0.9924,-0.0225,0.1975,-0.2723,-0.0495,2051
15,-0.2334,-0.9258,0.0234,0.0947,-0.3301,-0.0762,2046
15,-0.1538,-0.9441,-0.0012,0.0924,-0.322,-0.0325,2073
15,-0.1411,-0.9946,-0.0513,0.025,-0.296,-0.082,2050
15,-0.1511,-0.9717,-0.1082,-0.0506,-0.33,-0.1977,2046
15,-0.1399,-0.9399,-0.1458,-0.1095,-0.3505,-0.2149,2063
15,-0.0369,-0.8928,-0.1941,-0.0599,-0.3474,-0.1357,2057
15,-0.0574,-0.8987,-0.2151,-0.0117,-0.293,-0.1253,2044
15,-0.1575,-0.8813,-0.2412,-0.0198,-0.2236,-0.143,2059
15,-0.1421,-0.9231,-0.2053,-0.0285,-0.1819,-0.151,2055
15,-0.1377,-0.8394,-0.1375,0.0879,0.0357,-0.0539,2063
15,-0.1716,-0.908,-0.072,0.0925,0.0662,-0.0629,2043
15,-0.2522,-0.9592,-0.0029,-0.0008,0.1063,-0.2137,2044
15,-0.1628,-0.9187,0.0034,-0.0599,0.2113,-0.165,2031
15,-0.0938,-0.938,-0.0432,-0.088,0.2183,-0.216,2056
15,-0.106,-1.009,-0.061,-0.1005,0.1812,-0.188,2038
15,-0.1399,-0.9949,-0.0872,-0.1352,0.255,-0.1726,2052
15,-0.1208,-0.9695,-0.1099,-0.1095,0.2886,-0.1489,2050
15,0.0176,-0.9614,-0.0903,-0.0443,0.1438,-0.1455,2061
15,0.0601,-0.9978,-0.1179,-0.0256,0.1221,-0.1107,2031
15,-0.0066,-1.0403,-0.0732,-0.0477,0.1867,-0.092,2061
15,0.3074,-1.033,-0.0718,-0.106,-0.0453,0.0507,2046
15,0.3379,-1.0071,-0.1606,-0.0388,-0.5775,0.1832,2068
15,0.209,-1.0598,-0.2141,-0.0667,-0.8403,0.1654,2061
15,0.0618,-1.0593,-0.2129,-0.0554,-0.7036,0.2036,2051
15,-0.0913,-1.0146,-0.1685,-0.1189,-0.38,0.3147,1993
15,-0.0273,-0.9661,-0.207,-0.1654,-0.1543,0.3703,2031
15,0.0608,-1.0479,-0.2434,-0.2333,-0.0228,0.4227,2001
15,0.0281,-1.0806,-0.2285,-0.2879,0.0173,0.4884,2068
15,-0.092,-1.0068,-0.2173,-0.2432,-0.0707,0.5141,2059
15,-0.2139,-1.011,-0.1648,-0.2304,-0.0972,0.4979,2040
15,-0.3503,-1.0024,-0.1243,-0.2266,-0.2579,0.4681,2003
15,-0.3855,-0.9475,-0.1177,-0.1742,-0.1778,0.4813,1883
15,-0.2749,-0.9561,-0.1301,-0.2502,-0.2297,0.4533,2055
15,-0.1582,-1.0154,-0.0862,-0.3205,-0.2457,0.4544,2037
15,-0.2073,-0.998,-0.0864,-0.3621,-0.3735,0.3787,2035
15,-0.1443,-0.9934,-0.2256,-0.3264,-0.3252,0.3854,2054
15,-0.1382,-1.0054,-0.1619,-0.3835,-0.3906,0.4819,1940
16,0.0034,-1.0391,-0.1956,-0.3286,-0.3629,0.6902,2030
16,0.106,-1.1401,-0.1011,-0.4137,-0.4613,0.6446,2011
16,0.0417,-1.0872,-0.0869,-0.4609,-0.5754,0.6901,2056
16,-0.0017,-1.1218,-0.0422,-0.4316,-0.5139,0.7767,2012
16,0.0232,-1.1929,-0.0105,-0.4697,-0.5373,0.8658,2023
16,0.0078,-1.1199,-0.0095,-0.4868,-0.4253,1.0042,2012
16,0.0364,-1.1101,-0.053,-0.5151,-0.5649,1.0887,2045
16,0.136,-1.1604,-0.2095,-0.6303,-0.7706,1.2525,2103
16,0.1511,-1.123,-0.1824,-0.5794,-0.9377,1.305,2025
16,-0.0044,-1.0957,-0.106,-0.5584,-1.01,1.3745,2044
16,0.0242,-1.2695,0.0278,-0.649,-0.4525,1.3062,2052
16,0.0859,-1.2195,0.0413,-0.7393,-0.4446,1.4226,2049
16,0.1892,-1.2593,0.085,-0.826,-0.4228,1.4339,2064
16,0.1387,-1.3176,0.1523,-0.9449,-0.5975,1.5964,2052
16,0.1501,-1.3245,0.1335,-1.1274,-0.6425,1.7269,2048
16,0.157,-1.2678,0.1826,-1.325,-0.9094,1.7418,2050
16,0.1719,-1.3315,0.2266,-1.4763,-1.0284,1.8036,2035
16,0.0222,-1.3123,0.2075,-1.7313,-1.2403,1.917,2048
16,0.1042,-1.3711,0.2141,-1.9317,-1.5356,1.9835,2048
16,0.0662,-1.5051,0.1943,-2.0969,-1.7628,1.9812,2049
16,-0.0139,-1.6487,0.1816,-2.1683,-2.1798,2.0678,2051
16,-0.0051,-1.7788,0.219,-2.1891,-2.7598,1.954,2052
16,0.1602,-1.6536,0.2632,-2.2369,-3.8512,1.9988,2046
16,0.1931,-1.4133,0.2471,-2.2792,-4.3635,2.0567,2045
16,-0.1799,-1.1509,0.0527,-2.3242,-4.3635,2.1411,2047
16,-0.7783,-1.2009,-0.0857,-2.3111,-4.3635,1.6298,2053
16,-0.9607,-1.2771,0.0024,-2.6107,-4.3635,1.2508,2054
16,-0.6304,-1.3521,0.0168,-3.1877,-4.3635,0.1947,2052
16,-0.8743,-0.7156,0.0671,-3.2424,-4.3635,0.7372,2057
16,-1.282,-0.0356,0.1042,-2.7974,-4.3635,1.9664,2057
16,-1.126,-0.2212,0.355,-2.869,-4.3635,1.6519,2056
16,-0.9331,-0.3276,-0.0925,-2.8372,-4.3635,1.3177,2055
16,-1.5002,-0.3877,-0.1914,-3.3488,-2.9646,-0.0453,2050
16,0.5542,-0.8486,0.4907,-4.1243,-4.3635,0.9716,2041
16,-1.4988,-0.3418,0.3157,-3.7177,-4.3635,-0.7963,2067
16,-1.394,0.2153,0.7151,-2.8811,-4.3635,-1.0995,2065
16,0.1982,-0.3059,0.6289,-3.7471,-4.3635,-1.4366,2067
16,-0.1299,-0.0991,0.7258,-3.9574,-4.3635,-2.5201,2032
16,-0.5105,-0.2805,0.9746,-3.6696,-4.3635,-1.9941,2049
16,-1.167,-0.5828,1.1006,-3.5346,-4.3635,-2.1064,2041
16,-0.896,-0.6421,1.0051,-3.2083,-2.5251,-1.4364,2055
16,-0.6479,-0.5315,1.1174,-3.0849,-1.0127,-1.2664,2052
16,-0.6318,-0.4661,1.1833,-3.0103,-0.3883,-1.4291,2051
16,-0.8713,-0.386,1.1042,-2.8747,-0.2625,-1.698,2049
16,-1.1677,-0.2302,0.9092,-2.8137,0.2599,-2.0357,2047
16,-1.387,-0.1785,0.6851,-2.7916,1.0776,-2.4494,2049
16,-1.0469,-0.1829,0.6309,-2.6705,1.4299,-2.6223,2054
16,-0.8484,-0.1475,0.5583,-2.3879,1.6631,-3.2329,2055
16,-0.7773,-0.1482,0.4297,-1.9536,1.9401,-3.6408,2050
16,-0.718,-0.1497,0.3213,-1.5961,2.23,-3.8074,2048
16,-0.5901,-0.0916,0.1775,-1.1222,2.59,-3.7197,2056
16,-0.3394,-0.0798,-0.0034,-0.6066,2.7366,-3.6921,2043
16,0.0525,-0.147,-0.1252,-0.2101,2.3137,-3.892,2060
16,0.198,-0.271,-0.3069,0.0308,2.1791,-4.0109,2020
16,0.281,-0.3481,-0.4502,0.4115,1.7737,-3.8627,2032
16,0.4475,-0.4453,-0.5422,1.2676,0.8534,-3.8824,2104
16,0.5608,-0.5649,-0.4067,1.1898,-0.3152,-4.0626,2048
16,0.3713,-0.7837,-0.2053,0.952,-2.903,-4.3635,2071
16,0.0688,-1.1367,0.0305,0.9503,-4.3635,-4.3635,2053
16,-0.1819,-1.2173,0.0913,0.8594,-4.3635,-4.3635,2051
16,-0.3477,-1.3374,0.2925,0.4155,-4.3635,-4.3635,2049
16,-0.4824,-1.5776,0.323,0.4482,-3.5133,-4.3635,2048
16,-0.7563,-1.4099,0.1897,0.3867,-2.8461,-4.3635,2044
16,-0.3936,-1.1426,0.2419,0.5311,-2.7308,-4.3635,2052
16,-0.1084,-1.1833,0.1794,0.8116,-2.692,-4.3635,2055
16,-0.0723,-1.4883,0.2131,0.7799,-2.7032,-4.3635,2052
16,-0.2405,-1.4546,0.2471,0.5317,-2.7032,-4.2817,2048
16,0.2769,-1.4785,0.1841,0.2321,-3.0518,-4.0466,2055
16,0.3843,-1.3411,0.0312,0.0752,-3.0441,-3.9309,2058
16,0.4604,-1.2458,-0.0732,0.0494,-2.7011,-3.6307,2055
16,0.3943,-1.1458,-0.1111,0.3326,-2.1739,-3.3587,2055
16,0.2722,-1.0923,-0.0703,0.6011,-2.1338,-2.9632,2045
16,0.3086,-1.0645,-0.0833,0.7831,-2.223,-2.3674,2051
16,0.4624,-1.0657,-0.0452,0.8409,-2.2113,-1.6859,2055
16,0.5566,-1.1072,0.0881,0.7372,-1.8704,-1.1274,2065
16,0.6492,-1.0964,0.168,0.5529,-1.5972,-0.5388,2051
16,0.6433,-1.1426,0.2183,0.2494,-1.5503,-0.0322,2055
16,0.4946,-1.0884,0.2324,-0.0433,-1.9157,0.3693,2049
16,0.1885,-0.9656,0.1062,-0.2049,-2.4249,0.7893,2049
16,-0.2075,-0.8237,-0.0022,-0.284,-2.7204,1.0617,2050
16,-0.374,-0.7688,-0.0332,-0.3799,-2.846,1.1818,2049
16,-0.4976,-0.7825,0.009,-0.4679,-2.706,1.2512,2056
16,-0.4895,-0.7366,0.0479,-0.4212,-2.4726,1.4223,2056
16,-0.7153,-0.9697,0.2686,-0.4735,-2.2506,1.2567,2050
16,-0.304,-0.8733,0.1772,-0.4698,-1.7306,1.0344,2053
16,-0.7488,-0.7114,0.6208,-0.0067,-0.7396,0.6594,2052
16,0.1951,-0.6018,0.429,0.0739,1.2115,0.7538,2050
16,-0.1658,-1.0142,0.4497,0.4597,2.0907,0.3819,2047
16,-0.4363,-1.8184,0.4121,0.5548,3.3939,0.5393,2049
16,-0.177,-1.8398,0.0234,0.1611,4.3634,0.3473,2060
16,0.5767,-1.6663,-0.5354,-0.2242,4.2855,0.6247,2066
16,1.9999,-2.0,-0.3928,-1.744,4.021,3.217,2050
16,0.0186,-0.2312,-0.7214,0.1586,1.5246,0.6389,2029
16,-0.7549,-1.4363,0.0854,-0.3352,0.082,1.274,2060
16,-0.1411,-1.1699,0.1223,-0.351,-1.8073,1.7122,2067
16,-0.105,-0.6528,0.1328,-0.0587,-2.6104,0.9088,2057
16,-0.0618,-0.769,-0.0374,-0.075,-2.4396,0.6598,2050
16,-0.4143,-1.0032,-0.2507,0.0292,-0.895,0.5312,2051
16,-0.6272,-0.8921,-0.303,-0.0945,0.7874,0.5545,2047
16,-0.675,-0.9128,-0.0884,-0.5733,1.9367,0.869,2047
17,-0.0098,-1.062,-0.0481,-0.5516,0.6404,0.854,2055
17,-0.1079,-1.0142,-0.3999,-0.2641,-0.1401,0.3591,2042
17,-0.3521,-1.0054,-0.3027,-0.1057,-0.3456,0.3641,2049
17,-0.3572,-1.0105,-0.0994,0.1547,-0.4653,0.1768,2051
17,-0.1042,-0.9634,-0.0347,0.2344,-0.9459,0.0906,2047
17,-0.0776,-1.0815,-0.0989,0.2196,-1.1653,0.1507,2055
17,-0.1321,-1.0349,-0.1558,0.1252,-0.7514,0.1964,2069
17,-0.0337,-0.9341,-0.2407,0.0258,-0.1767,0.143,2053
17,0.1152,-1.0032,-0.2249,0.0386,-0.1044,0.1693,2052
17,0.2415,-1.0649,-0.2476,0.0245,-0.6971,0.1836,2049
17,0.4541,-1.0676,-0.2942,0.0767,-1.5141,0.2888,2053
17,0.522,-1.0547,-0.2178,0.1479,-2.0772,0.3856,2061
17,0.3855,-1.0166,-0.0544,0.0975,-2.118,0.436,2039
17,0.103,-0.9526,0.0232,0.0067,-1.6486,0.446,2056
17,-0.0056,-0.9268,-0.053,-0.0241,-1.2199,0.4536,2042
17,0.02,-0.9612,-0.0928,0.0354,-0.7907,0.5245,2047
17,0.1819,-0.9983,-0.104,0.0119,-0.6364,0.546,2060
17,0.1958,-1.0181,-0.1355,0.0234,-0.6403,0.5686,2055
17,0.0376,-0.9907,-0.1636,0.017,-0.6886,0.5842,2051
17,-0.0249,-0.9504,-0.1738,0.0694,-0.7019,0.626,2047
17,-0.0203,-0.9622,-0.1599,0.0947,-0.726,0.6287,2050
17,0.0115,-0.9709,-0.1497,0.091,-0.6662,0.6312,2051
17,0.0154,-0.9814,-0.1206,0.0932,-0.5651,0.6625,2048
17,0.0222,-0.9751,-0.0684,0.0818,-0.4036,0.6239,2054
17,0.0803,-0.9756,-0.0747,0.0107,-0.3655,0.6211,2056
17,0.0469,-0.9634,-0.1011,0.0426,-0.4149,0.6329,2044
17,-0.0295,-0.9651,-0.1074,0.078,-0.3099,0.6498,2052
17,-0.0522,-0.9534,-0.1357,0.0249,-0.3033,0.6624,2050
17,-0.0291,-0.917,-0.24,0.0052,-0.3021,0.5881,2039
17,0.0801,-0.9209,-0.2546,-0.0044,-0.2942,0.5759,2050
17,0.1035,-0.926,-0.2461,-0.0213,-0.2502,0.5277,2054
17,0.0442,-0.9546,-0.2285,-0.0461,-0.2547,0.5064,2049
17,-0.0483,-0.9888,-0.1238,-0.0194,-0.2029,0.5529,2051
17,-0.0486,-1.0195,-0.0166,0.0029,-0.1457,0.6122,2052
17,0.0037,-1.0852,0.1003,0.0096,-0.2278,0.7124,2044
17,-0.0105,-1.0835,0.2048,0.0317,-0.3583,0.8095,2036
17,-0.0745,-1.0388,0.1589,0.0352,-0.4201,0.8528,2057
17,-0.124,-1.0361,0.011,-0.0112,-0.3758,0.8471,2035
17,-0.0854,-1.0066,-0.1362,-0.057,-0.3081,0.8461,1975
17,-0.0625,-0.9792,-0.1858,-0.1125,-0.3653,0.8292,2046
17,-0.438,-0.7156,-0.3596,-0.0678,-0.1491,0.2854,2051
17,0.1392,-1.0403,-0.3357,0.1309,0.08,0.8817,2008
17,0.1865,-1.0466,-0.2173,0.0261,-0.1816,0.9151,2260
17,0.0186,-1.0454,-0.1521,-0.0635,-0.4139,0.9464,2522
17,-0.04,-1.001,-0.0439,-0.0989,-0.4179,1.0267,1814
17,-0.0278,-1.0164,-0.0317,-0.0529,-0.2677,1.0331,2082
17,-0.0713,-1.0259,-0.0039,-0.0262,-0.1697,1.1046,1917
17,-0.0881,-1.0684,-0.0618,-0.0281,-0.2305,1.1772,1804
17,-0.1299,-1.0754,-0.1216,-0.0265,-0.406,1.289,2081
17,-0.134,-1.0374,-0.1077,-0.0329,-0.4919,1.3818,2274
17,-0.0647,-1.051,-0.2593,-0.1776,-0.5243,1.3677,2022
17,-0.0513,-1.2092,-0.1965,-0.2298,-0.5596,1.3719,1969
17,0.0122,-1.2515,-0.249,-0.2051,-0.6199,1.4584,1871
17,-0.0046,-1.2202,-0.1006,-0.2084,-0.7681,1.428,2016
17,-0.0796,-1.2383,-0.0977,-0.1734,-0.834,1.4134,1932
17,-0.04,-1.3386,-0.0989,-0.3216,-1.434,1.4592,1929
17,-0.0039,-1.4172,0.0444,-0.2904,-1.3516,1.2844,2176
17,-0.2227,-1.5469,0.2507,-0.302,-1.1836,1.2802,1952
17,-0.2964,-1.4714,0.2859,-0.3804,-0.9894,1.3155,2548
17,0.0051,-1.3066,0.2048,-0.3308,-1.0419,1.4822,1962
17,-0.0415,-1.4165,0.2656,-0.0627,-0.8196,1.5503,1986
17,-0.0652,-1.8926,0.4316,-0.039,-0.4196,1.6727,2041
17,0.3147,-2.0,0.4949,-0.2886,-0.5815,1.8536,2032
17,0.6572,-1.8413,0.5293,-0.4856,-0.8693,2.0295,2043
17,0.5659,-1.7827,0.4495,-0.6581,-1.3017,1.9243,2053
17,0.3896,-2.0,0.4346,-0.7965,-1.4348,2.2802,2055
17,0.2817,-1.9727,0.4854,-0.9889,-1.812,2.8137,2053
17,0.2417,-1.9102,0.3093,-1.2391,-1.5933,2.6329,2053
17,0.1687,-1.1345,-0.1558,-1.1957,-3.0328,2.6563,2045
17,-0.1211,-2.0,-0.2209,-1.2724,-4.3635,0.1856,2055
17,-0.4592,-1.5022,-0.2419,-0.6665,-4.3193,3.085,2048
17,-1.2134,-1.4602,-0.0112,-0.5586,-2.9052,1.6817,2034
17,-1.0171,-1.5203,-0.1067,0.0309,-0.3779,1.8113,2032
17,1.9999,-2.0,0.4626,-0.3562,-4.3635,0.1349,2043
17,-2.0,-0.7556,-0.0403,-2.3164,-2.4105,3.0995,2035
17,-2.0,-0.7112,0.1853,-2.2305,-1.0527,2.6433,2063
17,-2.0,-1.3555,0.4788,-2.9228,-1.1101,2.215,2074
17,-1.4299,-0.9673,0.1587,-3.4601,-0.8806,2.2815,2096
17,-0.0964,-0.4253,-0.0518,-3.4902,-1.511,2.2221,2061
17,0.0574,-0.6541,0.196,-2.3529,-1.5988,0.954,2038
17,-1.1492,-0.7275,0.3179,-1.9987,-1.0682,0.9477,2021
17,-1.2422,-0.7561,0.1685,-2.2483,-0.4441,1.1468,2050
17,-1.1614,-0.575,0.2473,-2.1349,-0.2968,1.3163,2052
17,-1.6013,-0.5012,0.4543,-1.9054,-0.4886,1.1761,2054
17,0.0012,-0.3865,0.8901,-1.5532,-2.1525,0.9192,2062
17,-0.9824,0.2185,0.3877,-1.8028,1.1545,0.8898,2060
17,-0.6731,-0.304,0.3669,-1.9662,0.4358,-0.5803,2057
17,-0.4009,-0.2966,0.3438,-1.8885,0.2565,-0.5554,2041
17,-0.3887,-0.0146,0.4111,-1.7096,0.6606,-0.9032,2046
17,-0.4329,-0.0056,0.4473,-1.5175,1.0455,-1.2512,2043
17,-0.5366,-0.1213,0.3828,-1.2441,0.919,-1.1415,2055
17,-0.5273,-0.0334,0.2676,-1.0788,0.8614,-1.1267,2058
17,-0.353,0.0159,0.1682,-0.9921,0.8877,-1.5917,2052
17,-0.1626,0.022,0.1055,-0.8479,0.6533,-1.9402,2045
17,-0.1101,0.042,0.0369,-0.7578,0.2613,-2.2513,2045
17,-0.0972,0.1333,-0.0024,-0.5352,-0.1429,-2.4013,2047
17,-0.0779,0.1792,0.0483,-0.2578,-0.4147,-2.553,2049
17,-0.0676,0.1404,0.1072,-0.0437,-0.4978,-2.7368,2053
17,-0.1226,0.1177,0.1174,0.1033,-0.4975,-2.8325,2046
17,-0.0674,0.1179,0.0911,0.2087,-0.4742,-2.9171,2047
17,-0.0989,0.1514,0.1282,0.2609,-0.4753,-3.0195,2053
17,-0.1355,0.2183,0.198,0.349,-0.4976,-3.1239,2054
17,-0.2126,0.2527,0.2505,0.4526,-0.3863,-3.1963,2046
18,-0.2268,0.3323,0.2192,0.6604,-0.1064,-3.1208,2038
18,-0.4028,0.3157,0.1863,0.7953,0.4356,-3.1927,2082
18,-0.4709,0.2234,0.1953,0.9601,1.0059,-3.0777,2027
18,-0.6035,0.1021,0.2043,0.8353,1.385,-2.9364,2061
18,-0.6799,0.0996,0.1555,0.7123,1.4635,-2.9508,2050
18,-0.4111,0.196,-0.1372,1.0648,1.6182,-2.9982,2039
18,0.0276,0.1729,-0.3328,1.4229,1.4792,-2.636,2054
18,-0.1697,0.1353,-0.3247,1.0302,0.5624,-2.4743,2050
18,-0.5083,0.0623,-0.3027,0.7992,-0.2974,-2.5171,2050
18,-0.7251,-0.0249,-0.2332,0.7261,-0.6365,-2.3587,2046
18,-0.939,-0.1069,-0.2136,0.6767,-0.382,-2.0381,2054
18,-1.1846,-0.0386,-0.2068,0.6064,0.0028,-1.8072,2056
18,-1.3621,-0.2649,-0.0022,0.4959,0.0704,-1.9923,2049
18,-1.5339,-0.354,-1.9197,-1.1942,4.3634,-1.8773,2044
18,-2.0,-2.0,-2.0,-0.0273,-0.5733,-2.9086,1992
18,-2.0,-2.0,1.9999,0.7011,-0.9355,4.3634,2084
18,1.9999,-1.2878,0.509,-2.5501,1.4347,3.7203,2112
18,1.9999,1.9999,1.7644,-1.7548,-0.182,1.7443,2275
18,1.1685,1.1177,0.3193,1.9976,-1.9419,-3.3906,1888
18,-2.0,-2.0,-1.4028,1.1344,1.4221,-1.1095,2015
18,-0.5728,-2.0,-0.4958,0.4067,3.9347,2.2947,2112
18,-0.2122,0.4265,0.5339,-0.8355,0.4305,4.3634,2120
18,-0.6189,0.2297,-0.2224,-0.4252,0.2241,-0.5754,2055
18,-1.1035,-1.1472,0.4106,-0.133,-0.6666,-1.5285,2030
18,-0.7598,-2.0,-0.0969,0.3428,-0.3854,-0.1372,2055
18,-0.8838,-1.2649,-0.5464,0.297,-0.4935,1.2669,2046
18,-0.5273,-0.3206,-0.2993,0.0714,-0.369,0.75,2040
18,-0.425,-0.5435,-0.0146,0.053,0.4121,-0.1466,2052
18,-0.6616,-1.0842,-0.0547,0.0895,0.3059,-0.1145,2065
18,-0.707,-1.1001,-0.1011,0.0835,-0.1918,0.0703,2074
18,-0.7104,-0.9858,-0.1565,0.0438,-0.3494,-0.2836,1972
18,-0.5576,-1.0103,-0.1453,0.0627,-0.2659,-0.3798,2066
18,-0.457,-0.9814,-0.1455,0.1192,-0.1109,-0.333,2056
18,-0.5393,-0.95,-0.2175,0.1735,0.0485,-0.3135,2073
18,-0.5264,-0.9165,-0.334,0.2491,-0.1194,-0.3321,2109
18,-0.5056,-0.9172,-0.293,0.2025,-0.2285,-0.5074,2045
18,-0.5344,-0.9851,-0.2913,0.1883,-0.2373,-0.5635,2043
18,-0.4639,-0.9382,-0.3311,0.3577,-0.302,-0.5276,1982
18,-0.2563,-0.8938,-0.3628,0.4691,-0.1939,-0.4209,2114
18,-0.2375,-0.9595,-0.3523,0.4235,-0.2763,-0.4484,2141
18,-0.4155,-0.9297,-0.2097,0.3348,-0.5757,-0.4333,2048
18,-0.5647,-0.9424,-0.0837,0.4549,-0.2481,-0.5301,2081
18,-0.4668,-0.969,-0.0303,0.4706,0.0353,-0.5027,2054
18,-0.3508,-0.9673,0.0215,0.4376,0.0771,-0.4838,2102
18,-0.3081,-0.927,0.0732,0.398,0.017,-0.4622,1941
18,-0.1367,-0.8904,0.0249,0.3512,0.0332,-0.4956,1973
18,-0.0581,-0.9839,0.0078,0.3416,-0.2836,-0.6211,2055
18,-0.1155,-1.0015,-0.022,0.2298,-0.5026,-0.5486,2067
18,-0.1289,-0.9412,-0.0476,0.2226,-0.6341,-0.5107,2129
18,-0.0266,-0.8889,-0.0623,0.1112,-0.6225,-0.5147,2004
18,0.0845,-0.9255,0.0105,0.118,-0.6573,-0.4773,2260
18,-0.0549,-0.9019,-0.0076,0.1712,-0.5791,-0.3341,1896
18,-0.0918,-0.9084,-0.0645,0.11,-0.6706,-0.3834,1930
18,0.0034,-0.9519,-0.0972,0.1117,-0.463,-0.3783,2002
18,-0.1523,-0.9036,-0.175,0.1864,-0.7798,-0.2851,1962
18,-0.1807,-0.906,-0.1992,0.1514,-0.8973,-0.2574,2258
18,-0.1428,-0.959,-0.1042,0.1734,-0.9435,-0.2205,1910
18,-0.2817,-0.9937,-0.0898,0.2253,-0.4629,-0.2155,2021
18,-0.1321,-1.0977,0.0247,0.2614,-0.3856,-0.2418,2036
18,0.0229,-1.0999,0.0105,0.3452,-0.5295,-0.0743,2387
18,0.0398,-1.1528,0.0801,0.4687,-0.585,0.135,1887
18,0.0051,-1.2302,0.0337,0.4718,-0.6223,0.3325,2083
18,0.0608,-1.3152,0.0879,0.3895,-0.5691,0.4143,1952
18,0.0732,-1.4475,0.1438,0.3522,-0.7393,0.2533,2045
18,0.1628,-1.3804,0.1545,0.3497,-1.0971,0.6173,2105
18,0.231,-1.3694,0.1943,0.408,-1.4649,1.0545,2117
18,0.125,-1.5103,0.3015,0.4051,-1.6755,1.2015,2032
18,-0.0173,-1.6411,0.1865,0.5416,-1.6294,0.9512,2048
18,0.103,-1.8052,0.1497,0.6855,-1.3462,1.1144,2050
18,0.3918,-1.8169,0.3213,0.7423,-0.9505,1.2749,2055
18,0.7136,-1.6794,0.377,0.7118,-0.4534,1.2202,2053
18,0.9106,-1.8613,0.3403,0.6533,-0.393,1.8542,2040
18,0.9907,-1.9536,0.343,0.4129,-0.3032,2.2166,2046
18,0.9243,-1.6582,0.2732,0.2382,-0.2511,2.4506,2039
18,0.8,-1.8081,0.1067,0.2597,-0.4373,2.082,2049
18,1.1121,-2.0,-0.0999,0.0927,-1.2829,2.0735,2055
18,0.283,-2.0,-0.2566,-0.0486,-1.4106,1.7126,2035
18,-0.5322,-2.0,-0.2571,-0.3902,-1.2977,2.1651,2041
18,-1.033,-2.0,-0.1445,-1.1085,-0.0439,3.069,2056
18,-0.7739,-1.7544,0.0781,-0.7103,-0.7689,4.1383,2027
18,-2.0,-2.0,-0.0305,-1.2441,1.2893,4.3634,2083
18,-2.0,-1.4497,-0.0925,-1.3411,2.8524,4.1947,2053
18,-0.7805,-1.9487,-0.2712,-1.762,4.0519,4.3634,2100
18,-0.3359,-1.2646,-0.2544,-1.8319,3.7869,4.3634,2066
18,-0.2249,-0.6772,-0.2695,-1.4824,2.29,3.7364,2027
18,-0.3577,-0.813,-0.1995,-1.1085,1.2286,3.2396,2041
18,-0.9197,-0.749,-0.2698,-1.2821,0.8669,2.7199,2052
18,-1.0676,-0.6262,-0.3767,-1.2733,1.2512,2.5804,2049
18,-1.1184,-0.5215,-0.3967,-0.9226,1.5756,2.561,2054
18,-1.9966,-1.1206,-0.1292,-0.5627,1.7956,0.5608,2050
18,-0.1162,-0.283,-0.1052,-0.7252,1.122,2.3129,2069
18,-0.6636,0.1021,-0.1304,-0.5529,1.3307,1.6731,2043
18,-0.2046,0.2244,-0.1931,-0.3996,0.7417,0.9115,2061
18,0.1489,0.2493,-0.0894,-0.2511,0.3196,0.1135,2061
18,0.2,0.259,-0.0181,-0.1792,0.1438,-0.2914,2045
18,0.0171,0.1348,0.0657,-0.0288,0.263,-0.3815,2049
18,-0.0852,0.1311,0.1045,0.18,0.5694,-0.2245,2052
18,-0.1836,0.0911,0.075,0.3894,0.6956,-0.6982,2044
18,-0.2212,0.2673,0.0029,0.4878,0.7758,-0.7988,2051
18,-0.2048,0.5259,-0.0471,0.6509,0.7474,-1.0086,2050
18,-0.0168,0.7437,-0.0708,1.0561,0.2105,-1.3509,2054
18,0.0308,0.6628,-0.0342,1.0202,0.3979,-1.8017,2045
18,0.1465,0.4629,0.0327,1.1202,0.5328,-2.3101,2045
19,0.2766,0.2869,0.0745,1.2463,0.5353,-2.6449,2056
19,0.0808,0.2419,0.0242,1.3687,0.8532,-2.6444,2052
19,-0.1843,0.2937,0.009,1.3796,1.2579,-2.8665,2054
19,-0.0981,0.4963,0.1543,1.5619,1.3519,-2.9046,2051
19,-0.0884,0.5095,0.2825,1.7522,1.2607,-3.1397,2049
19,-0.0454,0.4871,0.1323,1.7379,1.1264,-3.2758,2059
19,-0.1135,0.583,-0.2307,1.7081,1.1005,-3.2897,2025
19,0.1116,0.7244,-0.3679,1.7727,0.7103,-3.3919,2045
19,0.0171,0.8145,-0.0464,1.6743,0.2064,-4.078,2049
19,-0.0596,0.6367,0.207,1.4251,0.5283,-4.3635,2026
19,-0.2983,0.4788,0.3545,1.1906,1.0271,-4.3635,2033
19,-0.7649,0.4041,-2.0,-2.4171,4.3634,-4.3635,2019
19,-2.0,-2.0,1.8401,-0.0748,-0.7512,2.3112,1949
19,-2.0,-2.0,-1.937,-1.0045,1.7816,-1.8309,2121
19,-2.0,-1.2517,1.9999,4.3497,-2.7252,3.2754,2188
19,0.0615,-2.0,1.8145,-1.3549,-1.9477,-0.6785,2137
19,1.9999,-1.259,-0.1406,-0.1276,4.3634,1.4639,2123
19,-2.0,1.0764,-0.3457,-0.6449,3.7549,2.1937,1970
19,-2.0,1.6541,0.6313,-1.3969,1.4234,-1.166,2071
19,1.9999,-0.4036,-0.9526,-1.2565,4.3634,-2.6824,2115
19,1.9999,-1.116,-0.1018,-0.5552,1.213,0.6173,2034
19,-0.9648,-1.583,0.2495,0.3615,-1.2323,-0.7785,2029
19,-1.7463,-1.5071,0.2051,0.068,0.066,-0.0172,2044
19,-1.9229,-1.4917,-0.2104,-0.0222,-0.9151,0.2926,2063
19,-0.5876,-0.4602,-0.6499,-0.0786,-0.5083,-0.0112,2061
19,-0.1213,-0.2561,-0.6729,-0.0208,0.2266,-0.5337,2068
19,-0.7061,-0.9297,-0.5784,0.1503,-0.2794,-1.3286,2053
19,-0.1584,-1.2273,-0.4624,0.2063,-0.2456,-0.6456,2052
19,-0.4897,-0.8298,-0.3789,0.3027,0.0674,-0.4099,2053
19,-0.4431,-0.7305,-0.3259,0.3807,-0.123,-0.6305,2054
19,-0.4229,-0.7949,-0.3083,0.5526,-0.235,-0.5943,2050
19,-0.5103,-0.9448,-0.3152,0.6344,-0.3543,-0.6142,2032
19,-0.2988,-1.0159,-0.2327,0.6913,-0.4771,-0.4184,2044
19,-0.4419,-1.095,-0.1536,0.6497,-0.7998,-0.6323,2048
19,-0.668,-0.9182,-0.0977,0.5903,-0.5127,-0.7757,2052
19,-0.4041,-0.8359,-0.0601,0.5,-0.3614,-0.8234,2032
19,-0.4268,-0.8513,-0.0747,0.5373,-0.2498,-0.8405,2049
19,-0.3662,-0.9421,-0.1287,0.5215,-0.1453,-0.773,2059
19,-0.1504,-0.9341,-0.0974,0.4778,-0.3561,-0.7403,2061
19,-0.02,-0.7974,-0.1616,0.5066,-0.6496,-0.8139,2045
19,-0.1274,-0.8218,-0.1785,0.4947,-0.8597,-0.9088,2027
19,-0.1201,-1.0007,-0.1704,0.3747,-1.0337,-1.0345,2048
19,0.2146,-0.7239,-0.2051,0.6493,-0.8158,-0.5437,2064
19,-0.1304,-0.8069,-0.0928,0.5915,-0.9849,-0.8692,2080
19,0.0498,-0.8528,-0.0989,0.6952,-0.7484,-0.5501,2057
19,0.0171,-1.0452,-0.04,0.4388,-0.4031,-0.5288,1956
19,-0.0686,-1.0767,-0.0486,0.4121,-0.7327,-0.5879,1900
19,-0.0093,-1.0842,0.0955,0.1746,-0.8051,-0.4287,1893
19,0.0554,-1.0847,0.0703,0.0706,-0.516,-0.4444,2242
19,0.1528,-1.083,0.0884,0.1057,-0.4477,-0.3823,2411
19,0.3708,-1.1694,0.0732,0.0587,-0.4506,-0.0585,2108
19,0.1062,-1.1472,0.04,-0.0479,-0.7688,-0.0044,1923
19,0.0537,-0.9678,-0.2043,0.2438,-0.5293,-0.0049,2570
19,-0.0137,-1.1001,-0.1077,0.2338,-0.7287,0.104,1888
19,0.103,-1.196,-0.083,0.2257,-0.8756,0.273,1881
19,0.1438,-1.1541,-0.0754,0.2661,-0.8795,0.4822,2341
19,-0.0063,-1.198,-0.1169,0.3641,-0.8284,0.5152,1786
19,0.0952,-1.3879,-0.0391,0.4566,-0.7046,0.5822,1989
19,0.2007,-1.5352,0.0308,0.3936,-0.6974,0.4445,2052
19,0.3574,-1.4802,0.1348,0.2633,-0.9231,0.753,2012
19,0.3589,-1.3606,0.0215,0.2988,-1.1324,1.0371,2045
19,0.3254,-1.7776,0.2522,0.3049,-0.9693,0.9488,2048
19,0.5447,-1.9399,0.1797,0.2727,-0.8985,1.3989,2046
19,0.5891,-2.0,0.3352,0.223,-1.0043,1.536,2040
19,0.9746,-1.9331,0.5374,0.0759,-1.1629,1.918,2034
19,0.8628,-1.9753,0.5896,0.0434,-1.1865,1.759,2043
19,0.6404,-2.0,0.6953,-0.0109,-1.0994,2.1136,2048
19,0.502,-1.8445,0.6677,-0.223,-0.9685,2.294,2058
19,0.3018,-1.5854,0.3213,-0.3647,-0.8271,2.3641,2118
19,0.0046,-2.0,0.0461,-0.3348,-1.4454,2.1992,2043
19,-0.0005,-2.0,-0.041,-0.6685,-1.2424,2.1802,2040
19,0.1917,-2.0,-0.6604,-0.3589,-0.863,2.8185,2038
19,0.0813,-2.0,-0.4312,-0.0305,-1.1961,2.035,2048
19,-0.0696,-2.0,0.2227,0.2011,-2.5408,3.7308,2033
19,-2.0,-1.2214,0.0061,-1.1152,0.0583,4.3634,2051
19,-2.0,-1.4402,-0.1833,-1.6491,2.0209,4.3634,2077
19,-1.8733,-1.9639,-0.1555,-2.5448,2.5551,4.2371,2087
19,-0.4392,-1.1372,-0.1787,-2.2253,2.9072,4.3634,2055
19,0.2319,-0.4924,-0.0728,-1.798,1.5021,4.3634,2122
19,-0.2754,-0.6191,-0.0156,-1.3608,0.6023,2.7163,2018
19,-0.4873,-0.7375,-0.1187,-1.2436,0.3298,2.9042,2032
19,-1.0623,-0.615,-0.2266,-1.0926,0.2449,2.881,2054
19,-1.5298,-0.3936,-0.1133,-0.924,0.9048,2.7372,2050
19,-1.2886,-0.1125,0.0593,-0.8419,1.6843,2.8078,2045
19,-0.6824,0.1084,0.1179,-0.7264,1.5785,2.512,2076
19,-0.2234,0.1851,0.2144,-0.514,0.3986,1.3821,2048
19,-0.6829,-1.127,0.6318,-1.0175,-1.782,-2.9672,2045
19,0.7183,-0.4343,0.3315,-1.1005,-1.3999,-0.4077,2046
19,0.417,-0.0386,0.3171,-0.9464,-1.0714,-0.5265,2054
19,0.2305,0.0081,0.4229,-1.2031,-0.5698,-0.6512,2047
19,0.2644,0.136,0.3665,-0.6486,0.0706,-1.0436,2048
19,0.0391,0.5537,0.448,-0.3622,0.1589,-1.0477,2057
19,-0.2197,0.6506,0.3567,-0.2541,-0.098,-0.7172,2050
19,-0.136,0.4553,0.269,-0.0326,-0.5839,-1.227,2055
19,0.0107,0.3479,0.2522,0.1236,-0.8708,-2.132,2057
19,0.1509,0.2493,0.2625,0.2169,-0.8597,-2.8713,2052
19,0.2192,0.1831,0.1841,0.2432,-0.6971,-3.0645,2047
19,0.1445,0.2114,0.2014,0.294,-0.4801,-3.2079,2051
19,0.0422,0.2393,0.1814,0.3332,-0.2482,-3.3922,2053
19,-0.0649,0.3438,0.1995,0.422,0.0772,-3.5372,2055
19,-0.1033,0.4585,0.1089,0.5216,0.4054,-3.5913,2053
19,-0.2212,0.5603,-0.0349,0.73,0.6625,-3.6793,2048
20,-0.2634,0.5574,-0.0986,0.9387,0.7661,-3.6596,2052
20,-0.2524,0.5808,-0.0901,1.1234,0.8015,-3.6202,2040
20,-0.3625,0.6528,-0.0796,1.193,0.8673,-3.8689,2062
20,-0.4434,0.6577,-0.1245,1.2977,0.9959,-4.1698,2059
20,-0.51,0.511,-0.1328,1.4099,1.2491,-4.1586,2018
20,-0.6431,0.45,0.0195,1.6139,1.4837,-4.172,2045
20,-0.6084,-0.2708,-0.9497,0.8126,1.7439,-4.3635,2053
20,-2.0,-2.0,-2.0,-3.2955,4.3634,-4.3635,1990
20,-2.0,-2.0,1.4058,3.4432,-4.3635,4.3634,1990
20,-0.2581,-2.0,1.9999,1.1841,-4.3635,-0.976,2133
20,1.9999,1.6335,-0.6772,-1.9178,4.2411,-1.7482,1952
20,1.9999,0.0991,-0.9617,-1.3218,-3.9776,0.7416,2008
20,-2.0,-0.926,1.0276,2.1965,4.3634,-1.6183,2021
20,-2.0,-1.7798,-0.5037,-2.0438,4.3634,2.5665,2107
20,1.0396,-0.3296,0.3132,-0.9359,1.2356,2.3987,2046
20,0.2241,0.0178,-0.1294,0.1193,-0.3149,-1.7618,2072
20,-0.5625,-1.3757,-0.1335,0.3349,-1.3909,-2.3964,2063
20,-1.0068,-2.0,0.0803,-0.0302,-1.2744,-1.0793,2065
20,-0.4873,-1.3823,-0.1956,0.363,-0.6373,1.1468,2065
20,-0.717,-0.3101,-0.0369,-0.1704,0.1274,0.4409,2053
20,-0.762,-0.7793,-0.2297,-0.1671,0.5817,-0.6947,2032
20,-0.655,-1.0371,-0.281,0.1167,0.2967,-0.3493,2046
20,-0.6511,-0.8987,-0.2466,0.1451,-0.1027,-0.4626,2063
20,-0.6008,-0.9072,-0.2693,0.1337,-0.3468,-0.8865,2061
20,-0.4434,-0.948,-0.2852,0.2059,-0.3787,-0.9646,2029
20,-0.3345,-1.0164,-0.2969,0.3095,-0.1384,-0.927,2050
20,-0.3118,-1.0186,-0.2878,0.392,0.0161,-0.7677,2049
20,-0.4189,-0.9683,-0.2322,0.3737,0.0547,-0.7509,2051
20,-0.4631,-0.9241,-0.2161,0.3296,0.0423,-0.871,2047
20,-0.4355,-0.895,-0.2124,0.3382,-0.0828,-0.9192,2041
20,-0.2939,-0.8159,-0.2068,0.4032,-0.2336,-0.8756,2054
20,-0.1924,-0.7769,-0.1396,0.5452,-0.5143,-0.7911,2043
20,-0.177,-0.9185,-0.0686,0.6,-0.5406,-0.8309,2023
20,-0.1541,-0.9741,0.0015,0.5926,-0.4683,-0.7397,2046
20,-0.1353,-0.9375,0.033,0.5581,-0.5352,-0.72,2025
20,-0.1704,-0.9392,0.0232,0.51,-0.5588,-0.7556,2059
20,-0.1516,-0.9475,0.0408,0.4488,-0.6285,-0.7445,2058
20,-0.0532,-0.8962,0.0491,0.3928,-0.7411,-0.7059,2057
20,0.0374,-0.8965,-0.0059,0.4386,-0.7158,-0.7043,2066
20,-0.0022,-0.9438,-0.0684,0.4225,-0.6405,-0.6718,2044
20,0.094,-0.9529,-0.1333,0.3281,-0.6446,-0.6094,2034
20,0.1602,-0.8372,-0.1536,0.3449,-0.7867,-0.5038,2018
20,0.1831,-0.8777,-0.2114,0.3602,-0.9873,-0.4338,2097
20,0.2388,-1.054,-0.1816,0.1594,-0.9483,-0.2324,2484
20,0.2739,-1.103,0.0667,-0.1029,-0.8469,0.1586,1964
20,0.0115,-1.0635,0.2732,0.0348,-0.9734,-0.0787,2074
20,-0.0398,-0.9849,0.1138,0.1674,-0.4759,0.0007,2066
20,-0.1895,-1.0034,0.0847,0.1545,-0.2537,0.0415,2042
20,0.0093,-1.072,0.0322,0.081,-0.1583,0.0186,2183
20,0.2051,-1.0806,-0.0864,0.1442,-0.1892,0.0988,2308
20,0.2168,-1.1577,0.0593,-0.1384,-0.3465,0.1635,2080
20,0.1501,-1.1924,-0.166,-0.1554,-0.5907,0.2281,1874
20,-0.1521,-0.9927,-0.0574,0.0963,-0.1874,0.1438,2032
20,0.1479,-1.1331,-0.1013,0.0944,0.0539,0.2856,2023
20,0.4307,-1.3479,-0.0601,0.0611,-0.2992,0.5229,2094
20,0.1982,-1.1562,-0.137,0.0678,-0.5645,0.5586,2666
20,0.1218,-1.1262,-0.0789,0.1441,-0.5095,0.7945,1854
20,0.189,-1.3943,-0.0754,0.1124,-0.6249,0.7685,2251
20,0.1133,-1.343,-0.0122,0.1017,-0.7666,0.8987,2019
20,0.0637,-1.4211,0.1125,0.0923,-0.9015,0.9244,2065
20,0.1465,-1.6235,0.3196,-0.0136,-1.3211,1.0934,2044
20,0.2283,-1.5923,0.2402,-0.0209,-1.6399,1.288,2057
20,-0.3188,-1.5352,0.1714,0.3999,-0.889,1.1892,2051
20,0.0425,-2.0,0.4788,0.3448,-0.1971,1.1211,2054
20,0.6428,-1.9387,0.6326,0.0987,-0.3417,1.4849,2047
20,0.7207,-1.3943,0.4307,0.3107,-1.0167,2.108,2039
20,0.4976,-2.0,0.4785,0.3516,-0.9259,1.8229,2035
20,0.5332,-1.9294,0.4104,0.1497,-0.5934,2.065,2056
20,0.3457,-1.3167,0.2053,0.1863,-0.6376,1.9714,2051
20,0.2932,-1.8628,-0.1523,0.0039,-1.0369,1.021,2051
20,-0.208,-2.0,-0.1516,0.0226,-0.836,1.613,2043
20,-0.1592,-2.0,-0.2781,0.5979,-0.2224,2.1205,2051
20,0.3906,-2.0,-0.4417,0.7522,-0.1336,2.0463,2035
20,0.8225,-2.0,0.0671,0.5125,-3.4635,4.1951,2045
20,-2.0,-1.6782,0.0391,-0.9393,0.0579,4.1791,2075
20,-2.0,-1.1853,-0.1511,-1.4996,2.4577,3.7564,2059
20,-1.0117,-2.0,-0.2969,-1.6286,3.3697,4.044,2078
20,0.0376,-1.5476,-0.1802,-1.486,3.2243,4.3634,2054
20,0.0752,-0.998,-0.147,-1.4343,1.8929,3.9504,2045
20,-0.2207,-0.8291,-0.114,-1.0845,0.8786,2.9613,2035
20,-0.854,-0.7383,-0.1462,-1.2011,0.5201,2.5878,2041
20,-1.2461,-0.7593,-0.2473,-1.1645,0.9072,2.4591,2055
20,-1.1721,-0.6375,-0.2083,-1.0175,1.3603,2.4015,2055
20,-0.9109,-0.4626,-0.2119,-0.9135,1.8096,2.3416,2060
20,-0.6995,-0.2131,-0.2124,-0.6209,1.7155,2.2092,2061
20,-0.865,-0.5859,-0.009,-0.51,1.339,0.4532,2051
20,0.2224,-0.1985,0.0728,-0.6385,0.5196,0.8802,2055
20,-0.1445,0.1177,0.0,-0.4207,0.2172,0.7633,2053
20,-0.0505,0.0308,-0.0117,-0.2683,-0.0506,0.3245,2056
20,0.0945,-0.0923,0.0842,-0.2196,0.1246,-0.1775,2054
20,0.0396,-0.1069,0.1458,-0.1404,0.6079,-0.5493,2046
20,-0.1187,-0.0308,0.1772,-0.0932,0.9413,-0.5418,2044
20,-0.2524,-0.0923,0.126,0.2326,0.9324,-0.6496,2040
20,-0.2014,-0.0061,0.0674,0.2722,1.0106,-0.9945,2049
20,-0.1069,0.3818,0.009,0.443,0.7174,-1.0845,2049
20,-0.093,0.4995,-0.0361,0.5597,0.4718,-1.3288,2048
20,0.0703,0.4067,-0.1125,0.5464,0.3233,-1.7608,2048
20,0.0999,0.3357,-0.1345,0.6387,0.269,-2.0888,2054
20,0.106,0.2471,-0.0813,0.8207,0.1804,-2.3848,2049
20,0.0488,0.1882,-0.062,0.9179,0.1023,-2.5666,2054
20,0.0186,0.2861,-0.0496,0.9312,0.0664,-2.6591,2049
21,-0.0215,0.395,-0.0251,0.9656,0.0479,-2.8253,2050
21,-0.0686,0.4531,-0.0481,1.0357,0.1159,-2.9632,2052
21,-0.1006,0.4939,-0.1101,1.1298,0.1927,-2.9777,2049
21,-0.1663,0.5718,-0.1907,1.222,0.276,-2.8972,2052
21,-0.3159,0.6975,-0.1526,1.221,0.4032,-2.9677,2053
21,-0.4897,0.7319,-0.0842,1.1449,0.5915,-3.2013,2039
21,-0.5161,0.6536,0.009,1.1523,0.626,-3.4777,2031
21,-0.5327,0.5928,0.1328,1.2479,0.6192,-3.8699,2074
21,-0.4165,-0.0989,-0.5269,0.3532,0.8155,-4.3635,2044
21,-2.0,-1.1985,-2.0,-2.3896,4.3634,-4.3635,2024
21,-2.0,-2.0,-0.8406,0.504,-4.3635,2.8169,2037
21,-2.0,-2.0,1.9999,2.4641,3.1202,4.3634,2120
21,1.9999,-0.5095,-1.4121,-0.4409,2.3872,-3.1429,2004
21,1.9999,1.4019,0.823,-0.1726,-4.3635,2.4393,2066
21,-2.0,0.168,0.1951,1.5314,-0.0439,-3.0961,2013
21,-2.0,-2.0,0.2043,-1.4876,4.3634,-0.7905,2061
21,1.783,-0.7446,0.2554,-1.0618,3.4705,4.3634,2083
21,1.3184,1.6943,-0.3384,-0.0621,0.0401,-0.3308,2044
21,-0.3782,-0.4961,-0.0134,0.237,-1.1776,-2.086,2032
21,-1.4524,-1.9309,-0.0535,0.1007,0.0469,-1.587,2034
21,-0.811,-2.0,0.1069,0.35,-0.3517,0.4994,2050
21,-0.8628,-1.0674,-0.063,-0.0394,0.1156,1.4085,1980
21,-0.7795,-0.5596,-0.2507,-0.2143,0.4215,-0.0407,2049
21,-0.4263,-0.749,-0.4253,-0.1353,0.3132,-0.5421,2076
21,-0.6343,-0.7896,-0.3306,0.0575,-0.2539,-0.5582,2033
21,-0.6045,-0.9397,-0.3838,0.1879,-0.3546,-0.6413,2049
21,-0.4932,-1.002,-0.4165,0.3116,-0.3057,-0.7372,2049
21,-0.2944,-1.0732,-0.3872,0.39,0.0431,-0.5347,2047
21,-0.3684,-1.0288,-0.2876,0.3998,0.124,-0.4757,2109
21,-0.551,-0.9612,-0.2266,0.3607,-0.0888,-0.6726,2069
21,-0.4897,-0.9829,-0.2346,0.3759,-0.3264,-0.861,2054
21,-0.3394,-1.0029,-0.2683,0.4743,-0.3715,-0.8616,2046
21,-0.3975,-0.9436,-0.1909,0.5137,-0.34,-0.8351,2065
21,-0.4324,-0.929,-0.083,0.4847,-0.3508,-0.9182,2082
21,-0.4773,-0.9602,0.0049,0.4131,-0.3609,-0.9857,2040
21,-0.4805,-0.9414,0.0259,0.3168,-0.1273,-1.0013,2054
21,-0.2239,-0.9993,-0.0093,0.298,-0.0104,-1.0218,2045
21,-0.0049,-0.8447,-0.0471,0.3077,-0.3043,-0.7356,2054
21,-0.0449,-0.7383,-0.0522,0.2526,-0.5931,-0.7657,2059
21,0.002,-0.8284,-0.0767,0.2527,-0.785,-0.8492,2036
21,-0.0627,-0.9814,-0.147,0.1969,-0.8803,-0.8616,2109
21,0.1836,-0.843,-0.1514,0.2779,-0.8071,-0.5946,2077
21,0.075,-0.8035,-0.1565,0.2994,-0.8634,-0.6743,2074
21,-0.0483,-0.8342,-0.1482,0.2527,-0.8291,-0.5604,2034
21,0.084,-0.7939,-0.0867,0.238,-0.6424,-0.4366,2082
21,0.0793,-0.959,-0.009,0.187,-0.7295,-0.5136,2110
21,0.0535,-0.9412,0.0295,0.1888,-0.5699,-0.2224,2076
21,-0.1199,-0.9514,0.0815,0.1397,-0.4445,-0.2147,2074
21,-0.168,-1.0166,-0.0176,0.1463,-0.2139,-0.2286,1987
21,0.1948,-1.0293,0.0132,0.1509,-0.2356,0.1043,1802
21,0.2781,-1.1304,0.0354,0.0895,-0.7324,0.1685,2197
21,-0.241,-0.908,-0.0933,0.1666,-0.1099,0.1044,2211
21,-0.0115,-1.0684,0.0271,0.1503,0.119,0.1218,1644
21,-0.0576,-1.1433,-0.0671,0.0834,0.0955,0.0887,1726
21,0.0525,-1.1396,-0.071,-0.0087,-0.0691,0.121,2080
21,0.1445,-1.1577,-0.0906,0.0507,-0.2076,0.1883,2027
21,0.2393,-1.1758,-0.0574,0.0925,-0.2733,0.43,2045
21,0.1523,-1.1799,-0.0532,0.1557,-0.3878,0.5339,2177
21,0.0825,-1.239,-0.0725,0.1601,-0.4309,0.7521,2176
21,0.0559,-1.2188,-0.0178,0.1736,-0.3567,1.0073,1995
21,0.0549,-1.231,0.0574,0.1903,-0.2593,1.1637,2174
21,0.0723,-1.4158,0.1804,0.151,-0.4016,1.3798,2027
21,0.2615,-1.7959,0.2009,0.0639,-0.9088,1.166,1993
21,0.095,-1.688,0.0281,0.174,-1.0704,1.3716,2017
21,-0.0398,-1.8784,0.29,0.2803,-0.8622,1.3812,2053
21,0.2561,-2.0,0.4265,0.2388,-0.5666,1.5159,2045
21,0.5063,-1.9995,0.5452,0.1067,-0.7834,1.6897,2053
21,0.6887,-1.7539,0.4448,0.1133,-0.9818,1.9936,2052
21,0.4321,-1.7078,0.5515,0.1855,-1.2805,2.2057,2049
21,0.3574,-1.7437,0.3398,0.2111,-0.8132,1.8752,2053
21,0.0986,-1.4788,0.1921,0.2153,-0.6686,1.7772,2051
21,-0.124,-1.6738,0.0298,0.0722,-1.3487,0.5677,2059
21,-0.1086,-1.7581,-0.1941,0.028,-0.656,1.0223,2045
21,-0.1628,-1.7271,-0.4287,0.6364,-0.753,1.6965,2047
21,-0.3142,-1.5742,-0.3201,1.5701,0.2234,1.6342,2035
21,0.2217,-2.0,-0.075,1.4561,-0.7642,1.0018,2052
21,-2.0,-0.947,-0.4502,0.7269,-0.6845,2.6288,2055
21,-2.0,-0.9919,-0.384,-1.1389,2.4145,3.4425,2077
21,-1.1731,-1.9353,-0.1545,-1.5057,3.2352,3.2123,2088
21,0.0867,-1.6633,-0.052,-0.9966,3.4734,3.9129,2104
21,0.2593,-1.0974,-0.1226,-1.4705,2.6702,4.3634,2033
21,-0.1638,-0.896,-0.1367,-1.0254,1.1597,2.4661,2030
21,-0.7896,-0.7952,-0.1423,-0.9011,0.9817,2.326,2035
21,-1.0129,-0.7185,-0.2124,-1.1017,1.1174,2.0349,2050
21,-1.1631,-0.72,-0.2483,-0.973,1.4535,1.9512,2060
21,-0.9187,-0.613,-0.2212,-0.8668,1.6314,1.9393,2057
21,-0.7639,-0.4993,-0.2012,-0.6164,1.5225,1.9856,2051
21,-0.7634,-0.4089,-0.2239,-0.3329,1.1856,1.7567,2053
21,-1.074,-0.8523,0.0051,-0.3882,0.9059,0.0445,2052
21,0.3401,-0.4641,0.1157,-0.6931,0.1715,0.8271,2056
21,-0.1738,-0.1694,-0.0054,-0.5837,0.1449,0.5245,2048
21,-0.0303,-0.1882,-0.0005,-0.5851,-0.0466,-0.0128,2046
21,-0.1067,-0.1125,0.0491,-0.5883,0.2529,-0.2804,2053
21,-0.2148,-0.0312,0.1099,-0.5054,0.677,-0.4334,2051
21,-0.1956,-0.0256,0.1335,-0.2996,0.6865,-0.2274,2056
21,-0.1633,-0.1831,0.0796,-0.1017,0.4818,-0.6361,2045
21,-0.2537,-0.0977,-0.0095,-0.2316,0.4621,-0.7227,2044
21,-0.0918,0.0867,-0.0403,-0.1417,-0.022,-1.1874,2056
21,-0.0034,0.2561,-0.0837,0.155,-0.3015,-1.5336,2049
21,0.0132,0.376,-0.0762,0.2766,-0.5356,-1.5906,2050
21,0.0613,0.3123,-0.0608,0.3862,-0.632,-1.8181,2056
21,0.0173,0.1384,0.0071,0.4938,-0.5643,-2.1782,2050
21,-0.0073,0.093,0.0447,0.5247,-0.4273,-2.3463,2051
21,-0.0601,0.1782,0.0684,0.6108,-0.3231,-2.441,2057
