Timestamp,Ax,Ay,Az,Rx,Ry,Rz,EMG
0,0.3643,-1.166,-0.1426,-1.0363,-1.3768,-2.1434,2039
0,0.2944,-1.1311,-0.0879,-1.166,-1.352,-2.1478,2043
0,0.229,-1.0789,-0.0649,-1.2387,-1.2115,-2.1218,2039
0,0.1948,-1.0552,-0.04,-1.2569,-1.0038,-2.0932,2041
0,0.208,-1.0566,-0.0662,-1.2876,-0.8032,-2.0502,2041
0,0.2388,-1.0615,-0.0715,-1.3207,-0.6034,-2.022,2041
0,0.2375,-1.0476,-0.0818,-1.3411,-0.4204,-1.9736,2046
0,0.2322,-1.0354,-0.0725,-1.3826,-0.2952,-1.9275,2037
0,0.2241,-1.0376,-0.0256,-1.442,-0.1996,-1.9025,2048
0,0.2346,-1.0203,-0.0005,-1.5034,-0.1474,-1.8787,2042
0,0.2556,-1.0083,0.009,-1.5953,-0.0867,-1.848,2038
0,0.2195,-1.002,0.0293,-1.6683,0.0292,-1.8213,2040
0,0.2078,-0.9824,0.0383,-1.7234,0.136,-1.7711,2034
0,0.2139,-0.9927,0.021,-1.704,0.302,-1.7084,2038
0,0.2205,-0.9976,0.0205,-1.7347,0.4952,-1.6301,2041
0,0.252,-0.9922,0.0132,-1.7699,0.6585,-1.5459,2040
0,0.2778,-0.9846,0.0139,-1.7158,0.7843,-1.4703,2045
0,0.3083,-0.9678,0.0161,-1.6415,0.8919,-1.36,2042
0,0.3425,-0.969,0.0334,-1.5627,0.9581,-1.229,2046
0,0.3567,-0.969,0.0413,-1.4735,1.058,-1.095,2041
0,0.3608,-0.9614,0.0518,-1.3788,1.1965,-0.9395,2047
0,0.3684,-0.969,0.0664,-1.3214,1.3476,-0.7878,2041
0,0.3635,-1.0024,0.0518,-1.2244,1.4596,-0.6476,2041
0,0.3994,-1.0454,0.0337,-1.1111,1.5334,-0.4727,2040
0,0.4412,-1.0742,0.0144,-1.0088,1.6095,-0.2543,2042
0,0.468,-1.1257,0.0134,-0.9186,1.6727,-0.0321,2041
0,0.4875,-1.1709,0.0288,-0.8228,1.6791,0.1943,2043
0,0.4961,-1.179,0.0537,-0.7201,1.5311,0.4334,2041
0,0.4844,-1.1785,0.0762,-0.6082,1.2885,0.6807,2039
0,0.4592,-1.1777,0.1011,-0.5221,1.1308,0.9443,2039
0,0.4136,-1.2217,0.1167,-0.4723,1.123,1.2079,2043
0,0.3799,-1.2419,0.0933,-0.4051,1.1929,1.5021,2041
0,0.3503,-1.2598,0.0417,-0.2844,1.2569,1.7724,2042
0,0.3364,-1.2649,0.0266,-0.1455,1.2332,2.0375,2038
0,0.2927,-1.2795,0.0481,-0.0421,1.1372,2.2577,2039
0,0.2876,-1.2344,0.0947,-0.0101,0.9689,2.4521,2038
0,0.2292,-1.1763,0.1794,-0.074,0.7885,2.5566,2041
0,0.1897,-1.1006,0.2456,-0.2051,0.6791,2.6625,2039
0,0.1277,-1.0188,0.2654,-0.3492,0.6301,2.7211,2041
0,0.0581,-0.9277,0.2498,-0.4197,0.5678,2.7426,2044
0,0.0251,-0.8086,0.1873,-0.3912,0.4675,2.7493,2046
0,0.0046,-0.7131,0.1074,-0.2641,0.3777,2.7346,2042
0,-0.0137,-0.6526,0.0259,-0.0265,0.3145,2.6994,2037
0,-0.0266,-0.7063,-0.0771,0.2577,0.2951,2.5888,2039
0,-0.0234,-0.802,-0.144,0.5402,0.414,2.5444,2037
0,0.0251,-0.8992,-0.1909,0.768,0.6329,2.5492,2048
0,0.0796,-0.9573,-0.1775,0.9186,0.866,2.5709,2039
0,0.1545,-1.0068,-0.1646,1.0673,0.9605,2.5769,2043
0,0.239,-1.0457,-0.0825,1.1392,0.8401,2.5687,2043
0,0.3325,-1.0715,0.0068,1.0713,0.4639,2.4533,2038
0,0.4172,-1.0942,0.0891,0.9483,-0.0787,2.3027,2043
0,0.4695,-1.1304,0.1628,0.8086,-0.6074,2.2626,2044
0,0.4441,-1.1609,0.2034,0.6576,-0.9939,2.2065,2042
0,0.3728,-1.1538,0.2563,0.622,-1.2102,2.1176,2038
0,0.2664,-1.1702,0.2969,0.5711,-1.2696,2.0201,2045
0,0.2131,-1.1501,0.3674,0.5821,-1.2182,1.8628,2046
0,0.1736,-1.1377,0.4324,0.6384,-1.0829,1.7295,2040
0,0.1345,-1.1382,0.5115,0.6501,-0.8846,1.5571,2042
0,0.1682,-1.1099,0.5928,0.6982,-0.7072,1.3507,2043
0,0.2979,-1.1047,0.6536,0.7221,-0.6741,1.1078,2040
0,0.4468,-1.1213,0.6951,0.6867,-0.7124,0.9026,2042
0,0.5286,-1.1021,0.7222,0.5397,-0.7237,0.7304,2040
0,0.5959,-1.0327,0.6953,0.398,-0.7727,0.5952,2041
0,0.6448,-0.9734,0.6763,0.3445,-0.8582,0.4626,2047
0,0.6414,-0.9072,0.6514,0.3067,-0.954,0.2573,2040
0,0.6255,-0.8435,0.6123,0.3501,-1.1144,-0.0429,2039
0,0.5767,-0.8196,0.5618,0.4586,-1.2818,-0.3618,2039
0,0.5083,-0.8572,0.4861,0.5758,-1.3833,-0.673,2039
0,0.4253,-0.9387,0.418,0.6689,-1.346,-0.8997,2040
0,0.3518,-0.9929,0.3999,0.6962,-1.1676,-1.0887,2043
0,0.312,-1.0156,0.3657,0.6782,-0.9794,-1.2608,2046
0,0.3311,-1.0195,0.3469,0.6717,-0.856,-1.4524,2041
0,0.3979,-1.0483,0.3381,0.6802,-0.8522,-1.6528,2042
0,0.4707,-1.1113,0.3298,0.7074,-0.9103,-1.8343,2040
0,0.5557,-1.179,0.3359,0.6512,-0.9786,-1.9385,2042
0,0.5771,-1.2534,0.2961,0.5289,-1.0413,-2.0567,2042
0,0.5957,-1.3523,0.2385,0.4316,-1.0797,-2.1887,2032
0,0.6282,-1.3933,0.196,0.2655,-1.1243,-2.1911,2046
0,0.6506,-1.3528,0.0698,0.1127,-1.2849,-2.1995,2049
0,0.6497,-1.3396,-0.0137,0.0622,-1.4474,-2.3414,2040
0,0.6377,-1.3281,-0.0581,-0.0178,-1.5155,-2.4898,2037
0,0.5947,-1.2986,-0.0542,-0.1859,-1.5316,-2.4931,2035
0,0.561,-1.1179,-0.0588,-0.373,-1.5664,-2.6219,2038
0,0.5254,-0.9602,-0.0654,-0.5131,-1.496,-2.8725,2039
0,0.4746,-0.9309,-0.1416,-0.5474,-1.3311,-3.1256,2037
0,0.4192,-1.0015,-0.2085,-0.6044,-1.1367,-3.2316,2041
0,0.3254,-1.073,-0.3074,-0.7353,-0.9291,-3.2504,2040
0,0.2124,-1.1133,-0.4009,-0.8377,-0.697,-3.1967,2041
0,0.0994,-1.137,-0.4351,-0.9152,-0.4922,-3.1375,2043
0,0.0759,-1.0986,-0.4839,-0.8419,-0.293,-2.958,2046
0,0.1235,-1.1396,-0.4792,-0.9415,0.0559,-2.9865,2037
0,0.1643,-1.1333,-0.5305,-1.031,0.1115,-2.8943,2033
0,0.2039,-1.175,-0.5457,-1.2648,0.0848,-2.8355,2049
0,0.2266,-1.1318,-0.5732,-1.5182,-0.0007,-2.7231,2041
0,0.2422,-1.0562,-0.5891,-1.5918,-0.0505,-2.6827,2041
0,0.3018,-1.0449,-0.5535,-1.7029,-0.1163,-2.6743,2039
0,0.3169,-0.9934,-0.511,-1.8997,-0.2432,-2.6244,2039
0,0.2883,-0.926,-0.469,-2.0382,-0.3193,-2.5814,2044
0,0.2366,-0.8459,-0.4382,-2.0768,-0.3217,-2.4824,2041
0,0.2119,-0.8574,-0.4138,-2.1347,-0.269,-2.4566,2043
0,0.2219,-0.8389,-0.4045,-2.2153,-0.2268,-2.4216,2043
0,0.1936,-0.7856,-0.4182,-2.2236,-0.2196,-2.306,2041
1,0.1733,-0.7502,-0.4082,-2.259,-0.1784,-2.1409,2038
1,0.1631,-0.7271,-0.3992,-2.3131,-0.1382,-1.9378,2043
1,0.1641,-0.7278,-0.3687,-2.3629,-0.0443,-1.798,2041
1,0.1289,-0.6931,-0.3521,-2.389,0.0447,-1.5828,2041
1,0.1379,-0.6516,-0.3101,-2.3967,0.0262,-1.3656,2041
1,0.1082,-0.7395,-0.3289,-2.4978,-0.0003,-1.2818,2042
1,0.1584,-0.8059,-0.282,-2.6133,-0.0004,-1.1516,2040
1,0.1665,-0.7446,-0.3018,-2.606,0.0515,-0.8978,2045
1,0.1919,-0.7476,-0.2717,-2.5551,0.1057,-0.6673,2039
1,0.1877,-0.7776,-0.2139,-2.5527,0.1573,-0.446,2037
1,0.1904,-0.8032,-0.1697,-2.583,0.3717,-0.1432,2040
1,0.1863,-0.7942,-0.1636,-2.5265,0.6303,0.1599,2044
1,0.2083,-0.8284,-0.1501,-2.4088,0.9143,0.4248,2047
1,0.2649,-0.8464,-0.1304,-2.2511,1.1577,0.7014,2040
1,0.3413,-0.8923,-0.1057,-2.0286,1.336,1.0311,2042
1,0.3928,-0.9685,-0.0366,-1.8057,1.5162,1.3768,2040
1,0.4199,-1.0449,0.0479,-1.6456,1.7118,1.729,2039
1,0.4011,-1.1392,0.072,-1.3821,1.8821,2.0441,2038
1,0.3911,-1.2146,0.1411,-1.2079,2.0168,2.3089,2043
1,0.3884,-1.3049,0.1902,-1.0861,2.1619,2.4932,2045
1,0.4102,-1.3965,0.2126,-0.9822,2.2835,2.6313,2042
1,0.4609,-1.4534,0.2344,-0.9614,2.3758,2.8622,2039
1,0.4675,-1.4668,0.2344,-0.9738,2.4177,3.1099,2042
1,0.4888,-1.5144,0.2437,-0.8918,2.4834,3.2424,2044
1,0.5186,-1.6162,0.2046,-0.9441,2.3338,3.3914,2043
1,0.5654,-1.6221,0.1074,-0.8774,2.1165,3.6544,2041
1,0.5801,-1.5947,0.0237,-0.6428,2.0169,3.9302,2041
1,0.6074,-1.5422,-0.0479,-0.3461,1.9543,4.1648,2043
1,0.5979,-1.552,-0.0276,-0.0217,1.7527,4.3634,2045
1,0.5815,-1.5708,0.063,0.0137,1.3772,4.3634,2041
1,0.5593,-1.4705,0.1704,-0.0635,0.9605,4.3634,2044
1,0.4463,-1.3467,0.2246,-0.2405,0.4912,4.3634,2043
1,0.325,-1.1274,0.2893,-0.3325,0.1493,4.3634,2039
1,0.1826,-1.0566,0.2659,-0.3334,-0.1004,4.3634,2044
1,0.1365,-1.0276,0.1604,-0.2103,-0.435,4.2893,2049
1,-0.009,-0.9924,0.0754,0.077,-0.4777,4.0333,2041
1,0.0552,-1.0425,-0.1743,0.4061,-0.8036,3.8861,2039
1,0.2227,-1.0352,-0.3999,1.0694,-1.0618,3.8002,2041
1,0.2825,-1.1084,-0.4622,1.6106,-1.1316,3.746,2039
1,0.3447,-1.1794,-0.4805,2.0379,-1.2753,3.7223,2035
1,0.3733,-1.2708,-0.417,2.387,-1.5155,3.7174,2043
1,0.4055,-1.2908,-0.3406,2.581,-2.0369,3.6627,2043
1,0.4514,-1.3206,-0.2852,2.7143,-2.5944,3.6054,2039
1,0.4263,-1.3674,-0.199,2.7749,-2.9071,3.5117,2042
1,0.3914,-1.3447,-0.1873,2.7462,-3.0622,3.4355,2042
1,0.4326,-1.3218,-0.1714,2.8424,-3.1834,3.3298,2043
1,0.241,-1.3076,-0.0593,2.7726,-3.1911,3.3318,2058
1,0.1067,-1.2168,-0.0103,2.7052,-3.0614,3.1875,2040
1,0.0137,-1.1831,0.0259,2.7847,-2.6883,3.1142,2041
1,-0.0354,-1.2207,0.0891,2.9316,-2.164,3.0697,2042
1,-0.1179,-1.2498,0.1543,2.8388,-1.5623,3.0134,2041
1,-0.0972,-1.2336,0.2461,2.7063,-1.0114,2.8689,2043
1,-0.0476,-1.2361,0.2688,2.5733,-0.76,2.6722,2041
1,-0.0063,-1.2378,0.3186,2.3949,-0.754,2.4794,2043
1,0.0879,-1.2649,0.3281,2.2029,-0.9347,2.3517,2039
1,0.0962,-1.2229,0.2998,1.9912,-1.2184,2.1916,2037
1,0.0811,-1.1499,0.2385,1.8594,-1.4949,2.0032,2043
1,0.0361,-1.0715,0.1443,1.7957,-1.6382,1.8831,2045
1,0.0435,-1.0173,0.0503,1.7753,-1.7153,1.7556,2044
1,0.033,-0.9561,-0.0317,1.7411,-1.7141,1.5856,2041
1,0.0115,-0.8896,-0.0793,1.7274,-1.7058,1.5024,2037
1,0.0227,-0.8015,-0.1301,1.7475,-1.6126,1.3857,2040
1,0.0737,-0.709,-0.1406,1.7768,-1.3824,1.2724,2040
1,0.1294,-0.6187,-0.113,1.7817,-1.1374,1.1873,2039
1,0.1726,-0.5327,-0.0562,1.7237,-0.952,1.007,2040
1,0.2517,-0.488,-0.0144,1.6712,-0.879,0.7915,2045
1,0.3472,-0.4946,0.0264,1.6004,-0.891,0.5525,2045
1,0.4785,-0.5596,0.0894,1.4605,-0.9416,0.2971,2048
1,0.5471,-0.6445,0.1399,1.235,-1.0411,0.0638,2048
1,0.6121,-0.6702,0.1616,0.9979,-1.2231,-0.1495,2039
1,0.6375,-0.6777,0.1694,0.7946,-1.4352,-0.3786,2042
1,0.6721,-0.7466,0.1509,0.6379,-1.6014,-0.5707,2046
1,0.687,-0.9084,0.1121,0.5501,-1.7018,-0.7923,2046
1,0.5596,-1.1309,0.0715,0.4271,-1.7094,-1.0536,2041
1,0.333,-1.2725,0.1294,0.0796,-1.6731,-1.4661,2040
1,0.0591,-1.2373,0.2725,-0.3915,-1.5729,-1.9527,2038
1,-0.0562,-1.127,0.4258,-0.8078,-1.3195,-2.3746,2034
1,-0.0171,-1.0757,0.5129,-1.0174,-0.9648,-2.6757,2033
1,0.0105,-1.1445,0.4834,-1.1702,-0.4649,-2.8244,2040
1,0.0078,-1.22,0.2969,-1.3414,0.2246,-2.8453,2031
1,-0.0396,-1.2764,0.1191,-1.3856,0.8156,-2.8305,2035
1,-0.0835,-1.3171,0.0508,-1.4504,1.2059,-2.9353,2034
1,-0.0515,-1.4302,0.0669,-1.5057,1.3692,-3.166,2038
1,0.0127,-1.6235,0.1182,-1.6523,1.4696,-3.3745,2038
1,0.1033,-1.7063,0.1467,-1.8652,1.5316,-3.522,2038
1,0.1626,-1.6975,0.1001,-2.0125,1.4579,-3.5773,2042
1,0.1946,-1.6587,0.0645,-2.1261,1.3503,-3.6316,2045
1,0.1926,-1.6072,0.0906,-2.2894,1.3069,-3.7459,2038
1,0.229,-1.5601,0.1458,-2.4265,1.3588,-3.8151,2045
1,0.231,-1.4966,0.2307,-2.6039,1.4667,-3.8582,2040
1,0.2212,-1.4424,0.2649,-2.7883,1.5476,-3.9223,2038
1,0.2053,-1.4622,0.248,-2.8717,1.5202,-4.0652,2046
1,0.2124,-1.5293,0.2202,-2.8931,1.4193,-4.2017,2044
1,0.2192,-1.5715,0.2205,-2.9419,1.2591,-4.3003,2044
1,0.2095,-1.5679,0.2034,-3.046,1.0618,-4.3222,2037
1,0.145,-1.5212,0.1978,-3.1411,0.9271,-4.2434,2042
1,0.0549,-1.4216,0.2041,-3.3782,1.0163,-4.1399,2044
1,-0.1094,-1.2434,0.1953,-3.3581,1.0412,-3.8444,2043
1,-0.2339,-1.2078,0.1553,-3.3661,1.4864,-3.8516,2041
1,-0.2224,-1.1641,0.1147,-3.3869,1.742,-3.753,2039
1,-0.2095,-1.1572,0.0308,-3.209,1.8283,-3.7275,2042
2,-0.144,-1.1174,-0.0593,-3.0668,2.0137,-3.5768,2043
2,-0.0994,-1.0566,-0.0415,-3.0546,2.0841,-3.4071,2039
2,-0.1304,-0.9241,-0.0427,-3.01,2.0715,-3.2182,2045
2,-0.1755,-0.8281,-0.0195,-2.8478,1.8126,-3.0207,2039
2,-0.2668,-0.8413,-0.0374,-2.593,1.5664,-2.8853,2036
2,-0.3064,-0.8748,-0.0686,-2.3431,1.4344,-2.588,2043
2,-0.3335,-0.97,-0.1169,-2.0541,1.5233,-2.3133,2044
2,-0.3345,-1.074,-0.1277,-1.7339,1.6697,-2.0928,2040
2,-0.3809,-1.0864,-0.1069,-1.4804,1.6041,-1.7258,2036
2,-0.3975,-1.1343,-0.0161,-1.3794,1.2778,-1.5476,2042
2,-0.3904,-1.1511,0.0413,-1.2917,0.7922,-1.4051,2040
2,-0.3423,-1.116,0.0708,-1.1144,0.2466,-1.136,2039
2,-0.2747,-1.105,0.1584,-0.9395,-0.0716,-0.7134,2040
2,-0.2351,-1.1738,0.2834,-0.8686,-0.02,-0.2064,2040
2,-0.2458,-1.2419,0.3911,-0.9051,0.4317,0.2968,2037
2,-0.2258,-1.3101,0.4336,-0.9296,0.9757,0.8098,2044
2,-0.2161,-1.3655,0.4695,-0.9483,1.364,1.2676,2046
2,-0.219,-1.4116,0.4954,-1.0447,1.603,1.6349,2040
2,-0.2305,-1.4395,0.5024,-1.1889,1.7167,1.8575,2041
2,-0.2339,-1.4263,0.4795,-1.2567,1.764,1.9839,2042
2,-0.2053,-1.3469,0.4719,-1.3802,1.855,2.2194,2047
2,-0.1963,-1.2427,0.448,-1.5105,2.0563,2.435,2041
2,-0.2036,-1.093,0.3752,-1.597,2.206,2.6552,2048
2,-0.2188,-0.9736,0.2576,-1.5918,2.2582,2.8205,2041
2,-0.2117,-0.9265,0.1545,-1.472,2.2379,2.9353,2041
2,-0.1775,-0.9402,0.0496,-1.2714,2.1688,3.0163,2041
2,-0.1301,-0.9976,-0.0181,-1.1485,2.1389,3.0636,2041
2,-0.1235,-1.042,-0.0479,-1.1358,2.1304,3.0574,2041
2,-0.127,-1.0667,-0.0457,-1.1581,2.0379,3.0496,2044
2,-0.1421,-1.0835,-0.0474,-1.1509,1.7739,3.0119,2042
2,-0.1611,-1.1187,0.0,-1.1463,1.4585,2.9766,2042
2,-0.165,-1.1763,0.0337,-1.1437,1.2011,2.9442,2038
2,-0.155,-1.2224,0.0503,-1.0978,0.9696,2.91,2046
2,-0.156,-1.2725,0.0562,-1.0507,0.7596,2.8604,2041
2,-0.1477,-1.3093,0.0925,-1.0668,0.5715,2.8433,2041
2,-0.1606,-1.3179,0.1223,-1.1236,0.3147,2.7975,2044
2,-0.1292,-1.355,0.1223,-1.0504,-0.0244,2.7147,2046
2,-0.1091,-1.4128,0.1367,-0.9911,-0.3615,2.6227,2037
2,-0.1174,-1.4587,0.1858,-1.0218,-0.6223,2.4535,2037
2,-0.0906,-1.4983,0.2424,-0.9479,-0.8764,2.2826,2039
2,-0.103,-1.5027,0.3711,-1.126,-1.0049,2.2787,2046
2,-0.123,-1.3965,0.4744,-1.2937,-1.0877,2.2543,2044
2,-0.1101,-1.2825,0.4807,-1.2529,-1.1468,2.2609,2042
2,-0.1094,-1.2041,0.4475,-1.1615,-1.1812,2.285,2043
2,-0.0676,-1.1277,0.3999,-1.0391,-1.1393,2.2879,2039
2,-0.0227,-1.1096,0.3796,-0.8929,-1.0144,2.2309,2043
2,0.0447,-1.2041,0.3931,-0.7144,-0.912,2.1136,2040
2,0.0911,-1.2507,0.4824,-0.6352,-0.8214,2.0058,2042
2,0.1443,-1.2097,0.541,-0.5966,-0.8769,1.898,2044
2,0.2065,-1.1248,0.5784,-0.4987,-0.9794,1.7954,2047
2,0.2864,-1.0608,0.6211,-0.3758,-1.0983,1.6732,2045
2,0.3054,-1.0044,0.584,-0.2159,-1.2324,1.5831,2042
2,0.2883,-0.9851,0.5286,0.0426,-1.3841,1.441,2038
2,0.2551,-1.0222,0.5176,0.3587,-1.5589,1.297,2044
2,0.1914,-1.0701,0.5381,0.646,-1.6924,1.1224,2045
2,0.1836,-1.1047,0.5413,0.7922,-1.7994,0.9295,2041
2,0.196,-1.0979,0.5027,0.8393,-1.9247,0.7794,2043
2,0.1973,-1.0652,0.4648,0.8734,-2.0788,0.6256,2045
2,0.1511,-1.0007,0.4307,0.9966,-2.2122,0.4453,2040
2,0.051,-0.9475,0.4417,1.1958,-2.2563,0.2899,2044
2,-0.0168,-0.9592,0.4683,1.4271,-2.184,0.18,2046
2,-0.0166,-0.9941,0.4656,1.7044,-2.0603,0.0237,2041
2,0.0234,-1.0225,0.4189,2.0052,-2.0782,-0.0816,2037
2,0.1201,-1.0671,0.3599,2.2647,-2.2212,-0.2199,2040
2,0.2222,-1.1648,0.3037,2.3661,-2.3096,-0.3599,2041
2,0.2681,-1.238,0.2856,2.3763,-2.3711,-0.4971,2038
2,0.3342,-1.3145,0.3079,2.3622,-2.4526,-0.666,2040
2,0.3872,-1.3691,0.3303,2.4135,-2.6418,-0.8425,2047
2,0.426,-1.446,0.3738,2.3775,-2.9273,-1.0591,2041
2,0.439,-1.5083,0.4219,2.1959,-3.1995,-1.2888,2041
2,0.467,-1.5979,0.45,1.953,-3.5117,-1.4954,2040
2,0.4556,-1.6836,0.4819,1.6775,-3.7058,-1.6791,2038
2,0.4033,-1.7358,0.4775,1.423,-3.7226,-1.8417,2039
2,0.3418,-1.7346,0.4807,1.1299,-3.6101,-1.9373,2043
2,0.2844,-1.6487,0.4473,0.8552,-3.4073,-1.9892,2042
2,0.2334,-1.4534,0.437,0.5895,-3.2058,-2.072,2046
2,0.1885,-1.2183,0.3799,0.3224,-2.9672,-2.2474,2043
2,0.1079,-1.0676,0.2607,0.2163,-2.6201,-2.5406,2042
2,0.0476,-1.0449,0.1179,0.2662,-2.1454,-2.8437,2040
2,-0.0156,-1.0762,-0.0715,0.3267,-1.6283,-3.0573,2038
2,-0.0654,-1.0913,-0.2461,0.5036,-1.1496,-3.1776,2038
2,-0.02,-1.1118,-0.355,0.5685,-0.7417,-3.2585,2041
2,0.0339,-1.134,-0.3696,0.694,-0.5152,-3.2935,2038
2,0.1331,-1.2251,-0.3655,0.6361,-0.4473,-3.2356,2040
2,0.1614,-1.3347,-0.3174,0.4128,-0.4798,-3.1018,2042
2,0.1707,-1.387,-0.2722,0.0558,-0.6112,-2.9221,2043
2,0.1646,-1.3684,-0.2427,-0.2205,-0.864,-2.8079,2042
2,0.125,-1.3662,-0.1926,-0.553,-1.2314,-2.8165,2038
2,0.0969,-1.3591,-0.1709,-0.7677,-1.5199,-2.838,2037
2,0.1575,-1.3374,-0.1042,-0.9593,-1.6712,-2.7015,2043
2,0.1091,-1.3503,-0.051,-1.2262,-1.5476,-2.6782,2041
2,0.0972,-1.3193,-0.0149,-1.5543,-1.5957,-2.5771,2038
2,0.1086,-1.2405,0.0093,-1.7385,-1.6077,-2.4452,2037
2,0.0144,-1.2612,0.0803,-2.0915,-1.448,-2.3617,2047
2,-0.0122,-1.2158,0.1628,-2.4413,-1.2083,-2.3008,2039
2,-0.0212,-1.1182,0.2385,-2.7271,-0.9588,-2.1397,2041
2,-0.0405,-1.0627,0.322,-3.0102,-0.6383,-2.0611,2038
2,-0.1541,-1.0579,0.3657,-3.2817,-0.0782,-1.9915,2040
2,-0.1287,-0.9297,0.3533,-3.3709,0.4085,-1.8623,2049
2,-0.1455,-0.864,0.2913,-3.491,0.9408,-1.7321,2037
2,-0.1309,-0.7847,0.2029,-3.4672,1.3436,-1.5475,2041
2,-0.0708,-0.7095,0.1194,-3.3124,1.6301,-1.4089,2042
2,0.0188,-0.6917,0.0747,-3.1622,1.9068,-1.3157,2041
2,0.0642,-0.6809,0.0579,-3.0665,2.1707,-1.2235,2045
2,0.0803,-0.6794,0.0701,-2.9802,2.4109,-1.064,2040
3,0.0796,-0.6816,0.0947,-2.8303,2.6629,-0.8573,2038
3,0.093,-0.6721,0.1326,-2.638,2.7829,-0.6758,2040
3,0.1389,-0.6987,0.1018,-2.4366,2.6501,-0.4312,2037
3,0.1909,-0.7532,0.0598,-2.2859,2.4601,-0.1266,2043
3,0.2156,-0.8145,0.0322,-2.164,2.2321,0.1093,2041
3,0.2327,-0.8308,0.0269,-2.0194,1.81,0.2667,2041
3,0.2595,-0.7925,0.0378,-1.8233,1.1238,0.4271,2040
3,0.2893,-0.7683,0.0962,-1.5246,0.1405,0.5723,2046
3,0.2988,-0.811,0.1824,-1.1572,-0.8716,0.7307,2036
3,0.2444,-0.9431,0.2715,-0.8035,-1.4912,0.8734,2042
3,0.1296,-1.1208,0.324,-0.5277,-1.6371,0.9674,2044
3,0.0491,-1.3008,0.3052,-0.2432,-1.6442,1.0219,2042
3,0.0337,-1.4456,0.229,0.0562,-1.7643,1.1884,2040
3,0.0706,-1.5698,0.2051,0.2735,-1.8687,1.4834,2042
3,0.1118,-1.6702,0.2141,0.4196,-1.8138,1.7831,2040
3,0.1592,-1.6663,0.2546,0.4398,-1.598,2.0491,2044
3,0.2249,-1.6248,0.3196,0.3377,-1.4423,2.3202,2045
3,0.2705,-1.4915,0.3923,0.1045,-1.2752,2.6689,2044
3,0.2576,-1.2812,0.4868,-0.192,-1.0103,2.9332,2042
3,0.2158,-1.061,0.5015,-0.3181,-0.854,3.0862,2043
3,0.1829,-0.9282,0.4668,-0.3085,-0.7572,3.2204,2044
3,0.1677,-0.8323,0.3452,-0.1971,-0.6002,3.2955,2041
3,0.158,-0.7827,0.1599,0.0113,-0.3831,3.3282,2043
3,0.1904,-0.7881,-0.0559,0.296,-0.1687,3.4098,2043
3,0.2551,-0.8765,-0.2214,0.5886,0.1076,3.4684,2040
3,0.2839,-0.9709,-0.3284,0.8946,0.384,3.5041,2035
3,0.3416,-1.0735,-0.3103,1.1042,0.7775,3.5034,2042
3,0.3716,-1.1589,-0.3032,1.2945,0.8259,3.5145,2039
3,0.3823,-1.2446,-0.2092,1.3969,0.6341,3.5584,2033
3,0.4016,-1.2825,-0.124,1.3328,0.3137,3.5623,2046
3,0.488,-1.2966,-0.0503,1.1865,-0.0298,3.5583,2041
3,0.5591,-1.321,0.0176,0.9983,-0.3783,3.5826,2044
3,0.5344,-1.3171,0.0906,0.7682,-0.7115,3.5003,2041
3,0.4573,-1.2981,0.1804,0.5789,-1.0283,3.3641,2050
3,0.3162,-1.2583,0.2666,0.4012,-1.2963,3.2328,2038
3,0.2029,-1.1926,0.3074,0.3573,-1.4737,3.0721,2038
3,0.0859,-1.1243,0.3425,0.4227,-1.3825,2.9066,2042
3,0.0281,-1.0742,0.3418,0.5869,-1.0794,2.7501,2039
3,0.0344,-1.0269,0.3491,0.7954,-0.6867,2.5386,2044
3,0.1018,-1.0002,0.3303,1.0088,-0.2645,2.3879,2043
3,0.2483,-0.9707,0.355,1.1344,0.0083,2.2652,2039
3,0.4094,-0.9365,0.3767,1.1646,-0.0622,2.1409,2043
3,0.55,-0.8879,0.3662,1.2075,-0.4617,1.9747,2041
3,0.6233,-0.8879,0.3655,1.2404,-1.0006,1.7221,2040
3,0.6086,-0.918,0.3616,1.186,-1.5581,1.454,2038
3,0.5315,-0.9431,0.3865,1.0709,-2.0089,1.1967,2042
3,0.4387,-0.9343,0.4041,0.9789,-2.1921,0.9413,2047
3,0.335,-0.9177,0.4275,0.9539,-2.1839,0.6652,2038
3,0.2634,-0.9138,0.4338,1.0512,-2.0779,0.4125,2040
3,0.2603,-0.9443,0.4236,1.2399,-1.7956,0.1755,2038
3,0.2812,-1.0078,0.4158,1.4111,-1.446,-0.0465,2043
3,0.353,-1.083,0.3977,1.495,-1.2283,-0.2848,2037
3,0.4536,-1.1675,0.3845,1.4408,-1.0969,-0.5364,2043
3,0.5505,-1.2354,0.3635,1.2949,-1.0898,-0.7933,2042
3,0.6233,-1.2747,0.3274,1.1023,-1.1987,-1.0443,2042
3,0.6772,-1.3391,0.2822,0.9445,-1.3735,-1.3179,2037
3,0.7036,-1.4602,0.2397,0.8059,-1.6155,-1.5849,2040
3,0.6968,-1.5608,0.2134,0.6442,-1.9367,-1.8034,2041
3,0.6218,-1.5845,0.1929,0.4143,-2.2953,-1.9915,2047
3,0.5408,-1.5107,0.1826,0.1667,-2.5172,-2.1884,2040
3,0.4402,-1.3262,0.1807,-0.0827,-2.5775,-2.3852,2042
3,0.3604,-1.0894,0.156,-0.2654,-2.4693,-2.599,2041
3,0.2605,-0.9629,0.0911,-0.2988,-2.1168,-2.8393,2039
3,0.1587,-0.9485,-0.042,-0.2266,-1.5972,-3.0624,2040
3,0.0596,-1.0054,-0.2,-0.0623,-0.9694,-3.2572,2037
3,0.0479,-1.0723,-0.3638,0.1498,-0.441,-3.368,2038
3,0.1086,-1.1831,-0.4143,0.2774,-0.0782,-3.4471,2041
3,0.1975,-1.3215,-0.459,0.3746,0.0505,-3.4504,2045
3,0.2693,-1.4905,-0.4253,0.2281,-0.053,-3.4516,2040
3,0.2737,-1.6201,-0.3684,-0.0506,-0.2561,-3.4218,2036
3,0.2803,-1.6533,-0.2974,-0.2819,-0.5079,-3.316,2038
3,0.3032,-1.6775,-0.2388,-0.5659,-0.6881,-3.2075,2041
3,0.2969,-1.7002,-0.1953,-0.7923,-0.7934,-3.1332,2038
3,0.2781,-1.6589,-0.1582,-1.0945,-0.9313,-3.0837,2041
3,0.2537,-1.606,-0.0945,-1.3868,-0.9393,-3.0397,2041
3,0.1594,-1.5449,-0.0415,-1.7161,-0.713,-3.063,2041
3,0.1792,-1.4229,0.0237,-2.0294,-0.7328,-3.17,2043
3,0.0129,-1.373,0.0781,-2.2655,-0.6111,-3.2535,2042
3,0.0427,-1.2659,0.1287,-2.5217,-0.4287,-3.205,2038
3,-0.0757,-1.2444,0.1729,-2.7818,-0.1535,-3.311,2035
3,-0.0295,-1.1587,0.1162,-2.8986,0.1622,-3.2444,2038
3,-0.1074,-1.1074,0.1523,-3.0546,0.5931,-3.2136,2040
3,-0.2188,-1.0999,0.1709,-3.2435,1.0808,-3.2471,2041
3,-0.2092,-1.0083,0.1443,-3.3142,1.4122,-3.1268,2037
3,-0.238,-1.0659,0.1628,-3.4439,1.8073,-3.1054,2042
3,-0.1306,-1.0588,0.1704,-3.5315,2.0989,-3.0427,2043
3,-0.0259,-1.0608,0.1592,-3.6781,2.3896,-3.0184,2037
3,-0.0449,-1.074,0.1155,-3.7924,2.62,-3.0347,2037
3,0.0901,-0.9729,0.0869,-3.8004,2.6559,-2.8899,2042
3,0.1003,-0.9021,-0.0095,-3.6551,2.6007,-2.7606,2042
3,0.1047,-0.8826,-0.0051,-3.4813,2.4862,-2.6132,2036
3,0.1306,-0.8762,0.0015,-3.3672,2.37,-2.3422,2038
3,0.1619,-0.8501,0.0237,-3.2299,2.1153,-1.9434,2039
3,0.1702,-0.8728,0.0701,-3.0283,1.7249,-1.6269,2044
3,0.1667,-0.8928,0.1296,-2.8834,1.2676,-1.2254,2042
4,0.1157,-0.8838,0.1238,-2.7327,0.968,-0.7091,2040
4,0.05,-0.9001,0.1282,-2.4942,0.9212,-0.1828,2040
4,-0.0034,-0.9268,0.1504,-2.2273,0.7566,0.2722,2040
4,-0.0327,-0.9468,0.2039,-1.8909,0.1298,0.6642,2038
4,-0.0889,-1.0352,0.3154,-1.502,-0.7403,1.0088,2038
4,-0.1699,-1.2249,0.4648,-1.2147,-1.3921,1.2556,2042
4,-0.2554,-1.3572,0.5879,-1.1035,-1.4789,1.3547,2042
4,-0.2771,-1.395,0.592,-1.0393,-1.2368,1.4464,2041
4,-0.1682,-1.3281,0.4492,-0.9451,-1.1264,1.7784,2043
4,-0.0403,-1.252,0.2026,-0.6405,-1.2102,2.3051,2041
4,0.0759,-1.2842,0.0005,-0.2007,-1.285,2.854,2039
4,0.1611,-1.353,-0.0742,0.1453,-1.1488,3.3315,2042
4,0.1799,-1.3354,0.0063,0.1352,-0.7861,3.6825,2044
4,0.1206,-1.1587,0.1274,-0.0898,-0.4123,3.8448,2043
4,0.0164,-0.9124,0.1746,-0.2815,-0.3119,3.8858,2042
4,-0.0332,-0.7524,0.1353,-0.2306,-0.5316,3.8896,2040
4,-0.0085,-0.718,0.0359,0.1047,-0.7356,3.963,2044
4,0.0474,-0.8157,-0.1294,0.5464,-0.7368,4.0496,2037
4,0.0896,-0.9998,-0.2778,0.9428,-0.4199,4.1483,2042
4,0.1433,-1.125,-0.3916,1.181,0.0772,4.2423,2042
4,0.1724,-1.1748,-0.4836,1.342,0.4894,4.3634,2041
4,0.2056,-1.2014,-0.5571,1.5649,0.7042,4.3634,2041
4,0.2698,-1.2898,-0.5503,1.888,0.7188,4.3634,2042
4,0.3677,-1.438,-0.4878,2.1482,0.5877,4.3634,2038
4,0.4543,-1.6182,-0.4028,2.1545,0.4022,4.3634,2039
4,0.5183,-1.6785,-0.3171,2.014,0.2333,4.3634,2041
4,0.489,-1.6912,-0.168,1.7915,0.0153,4.3634,2044
4,0.3779,-1.7273,-0.0566,1.4731,-0.3963,4.3634,2041
4,0.2544,-1.6606,0.1311,1.3271,-0.8276,4.3634,2035
4,0.3162,-1.4912,0.2434,0.873,-1.6209,4.3634,2064
4,0.2805,-1.5664,0.3542,0.7167,-2.0682,4.1184,2036
4,0.1057,-1.6458,0.573,0.5124,-2.3119,3.76,2038
4,-0.0222,-1.6082,0.6707,0.2209,-2.3007,3.487,2042
4,-0.1306,-1.5581,0.752,0.0537,-2.2003,3.2576,2038
4,-0.0918,-1.5242,0.7507,0.125,-1.98,3.1099,2045
4,0.0537,-1.4844,0.7292,0.1345,-1.5853,2.8883,2042
4,0.2151,-1.4944,0.6689,0.1266,-1.2259,2.7259,2039
4,0.3801,-1.4546,0.5833,-0.0266,-1.3003,2.5237,2046
4,0.5256,-1.3154,0.4429,-0.1296,-1.772,2.253,2042
4,0.572,-1.145,0.3054,-0.114,-2.1932,1.9117,2042
4,0.5737,-1.0398,0.2073,-0.0826,-2.2863,1.5221,2042
4,0.5955,-0.8779,0.0662,0.0637,-2.1961,1.1643,2040
4,0.5889,-0.771,0.0125,0.337,-2.0133,0.9568,2042
4,0.5513,-0.6963,-0.0068,0.6138,-1.8937,0.7087,2041
4,0.5518,-0.645,-0.0464,0.8941,-1.7427,0.4687,2036
4,0.584,-0.6453,-0.0527,1.1436,-1.5809,0.2866,2045
4,0.6218,-0.7083,-0.0071,1.2756,-1.4186,0.1222,2040
4,0.6157,-0.8103,0.0576,1.2961,-1.281,-0.0874,2040
4,0.5793,-0.8608,0.082,1.2563,-1.2342,-0.2875,2040
4,0.51,-0.856,0.0642,1.2344,-1.142,-0.5082,2042
4,0.4521,-0.9119,0.0701,1.223,-1.0371,-0.7644,2039
4,0.4031,-0.9973,0.0745,1.2063,-0.9535,-0.9919,2039
4,0.365,-1.0684,0.061,1.1981,-0.7681,-1.1905,2040
4,0.3303,-1.1631,0.0696,1.2034,-0.51,-1.3692,2038
4,0.322,-1.2859,0.0806,1.1495,-0.3484,-1.5528,2037
4,0.3237,-1.3752,0.1018,1.0357,-0.3641,-1.78,2041
4,0.3372,-1.3718,0.1497,0.7814,-0.5747,-1.9759,2040
4,0.3081,-1.2939,0.1733,0.4585,-0.8765,-2.1956,2042
4,0.25,-1.1189,0.2429,0.1724,-1.1884,-2.4163,2041
4,0.1472,-0.9883,0.2427,-0.1011,-1.3049,-2.6504,2043
4,0.0266,-0.9509,0.176,-0.171,-1.0939,-2.8225,2041
4,-0.0764,-0.9751,0.0645,-0.1386,-0.6621,-2.9352,2036
4,-0.1426,-0.9973,-0.0886,-0.0451,-0.178,-2.9821,2039
4,-0.1448,-1.0513,-0.2449,0.1254,0.2503,-3.0384,2046
4,-0.0913,-1.1892,-0.3159,0.2673,0.6164,-3.1075,2041
4,-0.0149,-1.3247,-0.3516,0.3276,0.8742,-3.1473,2038
4,0.0566,-1.4111,-0.3835,0.4096,0.9733,-3.1746,2042
4,0.0808,-1.5706,-0.3416,0.3557,0.8582,-3.161,2040
4,0.1367,-1.6362,-0.291,0.1871,0.6885,-3.1162,2041
4,0.2131,-1.5969,-0.2021,-0.0758,0.4871,-3.0299,2041
4,0.3057,-1.5947,-0.1599,-0.2623,0.2336,-2.9827,2040
4,0.3481,-1.6304,-0.0593,-0.496,-0.0891,-2.9183,2041
4,0.321,-1.613,-0.0132,-0.8839,-0.4755,-2.9048,2039
4,0.2383,-1.5347,-0.0017,-1.1459,-0.8905,-2.9199,2029
4,0.1475,-1.5203,0.0659,-1.4177,-1.2141,-2.9084,2041
4,0.0247,-1.4617,0.1279,-1.6715,-1.2336,-2.8817,2038
4,-0.0947,-1.3516,0.2046,-1.9054,-1.0465,-2.8628,2032
4,-0.1719,-1.2844,0.3018,-2.1582,-0.7038,-2.8671,2046
4,-0.2634,-1.2046,0.3621,-2.3914,-0.2277,-2.826,2038
4,-0.2366,-1.134,0.4167,-2.6738,0.3348,-2.8422,2038
4,-0.3259,-1.0601,0.3794,-2.8067,0.8914,-2.849,2045
4,-0.2773,-1.0391,0.3176,-2.8642,1.3394,-2.8721,2042
4,-0.1885,-1.0054,0.2236,-2.8273,1.5605,-2.8598,2039
4,-0.0686,-0.9412,0.0938,-2.6802,1.7655,-2.7117,2043
4,0.0215,-0.9141,0.0254,-2.5478,2.0126,-2.6548,2043
4,0.1099,-0.8743,-0.0144,-2.2955,2.2411,-2.4258,2039
4,0.2126,-0.8367,-0.0088,-2.0852,2.2486,-2.2015,2048
4,0.2153,-0.8354,0.064,-1.8811,2.0457,-1.945,2040
4,0.2075,-0.7971,0.135,-1.6704,1.7086,-1.668,2047
4,0.197,-0.8203,0.175,-1.4621,1.5085,-1.3616,2044
4,0.1687,-0.7676,0.1611,-1.2358,1.4616,-1.0266,2042
4,0.1067,-0.6677,0.1353,-0.9283,1.3414,-0.7188,2041
4,0.074,-0.5369,0.1375,-0.5853,0.8588,-0.4771,2038
4,0.0964,-0.5303,0.1541,-0.1201,-0.1145,-0.257,2043
4,0.1272,-0.6794,0.2468,0.3389,-1.0445,-0.0276,2042
4,0.0664,-0.9285,0.3855,0.6351,-1.3701,0.1076,2045
4,-0.0024,-1.1106,0.4434,0.7617,-1.3282,0.184,2036
4,-0.031,-1.2102,0.4561,0.7865,-1.3547,0.3757,2041
4,-0.0554,-1.2605,0.478,0.8451,-1.5629,0.6506,2041
4,-0.0642,-1.3376,0.4812,1.0933,-1.7552,0.932,2040
4,-0.0593,-1.4492,0.5088,1.3119,-1.7246,1.2354,2038
4,-0.0481,-1.5522,0.5181,1.3002,-1.3921,1.6033,2039
4,-0.0173,-1.5776,0.4551,1.2002,-0.9159,1.9423,2040
4,-0.0112,-1.4971,0.3931,1.0501,-0.4818,2.2985,2039
4,-0.0015,-1.3657,0.3853,0.8244,-0.106,2.6068,2040
4,-0.0171,-1.1548,0.4287,0.493,0.2497,2.7939,2045
4,-0.0518,-0.9331,0.4429,0.2413,0.5255,2.8604,2042
5,-0.1116,-0.7544,0.4075,0.1479,0.7942,2.8681,2043
5,-0.1401,-0.6526,0.2839,0.2405,1.0907,2.8569,2041
5,-0.1335,-0.6279,0.1182,0.5091,1.3553,2.8707,2039
5,-0.0569,-0.708,-0.085,0.793,1.5701,2.9038,2040
5,0.0232,-0.8584,-0.2429,1.0357,1.749,2.965,2042
5,0.1238,-1.001,-0.3396,1.1556,1.8687,3.0018,2043
5,0.1951,-1.0923,-0.3716,1.2195,1.9391,3.0489,2043
5,0.2124,-1.137,-0.3706,1.238,1.8243,3.1269,2038
5,0.272,-1.1831,-0.311,1.2656,1.5547,3.1927,2040
5,0.3237,-1.2454,-0.2415,1.1307,1.142,3.2642,2038
5,0.4275,-1.3027,-0.1819,0.9114,0.6245,3.2792,2041
5,0.5371,-1.3625,-0.0432,0.5859,0.0473,3.2726,2044
5,0.4766,-1.2561,-0.0581,0.2077,-0.4362,3.3628,2043
5,0.3306,-1.1655,0.0369,0.2416,-1.1035,3.1764,2042
5,0.229,-1.1687,0.1758,0.0979,-1.6199,2.9803,2037
5,0.1248,-1.168,0.2581,-0.0558,-1.8702,2.7689,2043
5,0.0359,-1.1812,0.3198,-0.1073,-1.8913,2.6947,2033
5,-0.0759,-1.1309,0.3567,-0.1577,-1.5856,2.569,2039
5,-0.1233,-1.0662,0.3645,-0.0899,-1.2332,2.4495,2043
5,-0.103,-1.074,0.3306,0.0935,-0.8375,2.3904,2040
5,-0.0444,-1.1387,0.3584,0.2389,-0.3786,2.3466,2039
5,0.0669,-1.1628,0.4209,0.2487,-0.0274,2.34,2039
5,0.1838,-1.1384,0.4485,0.2234,0.1594,2.3558,2041
5,0.2561,-1.1157,0.4746,0.2188,0.2238,2.2937,2044
5,0.3992,-1.1106,0.4878,0.1759,0.0684,2.2188,2044
5,0.5486,-1.0725,0.4902,0.1131,-0.3573,2.0566,2046
5,0.6943,-1.0198,0.5244,0.0762,-0.9352,1.9172,2044
5,0.7327,-0.9785,0.563,-0.0072,-1.4949,1.688,2043
5,0.6448,-0.9519,0.6055,-0.0615,-1.9002,1.3997,2041
5,0.5249,-0.9146,0.6829,-0.0739,-2.1182,1.1278,2045
5,0.4111,-0.8752,0.7085,0.0687,-2.2246,0.8444,2039
5,0.3445,-0.8789,0.6799,0.3454,-2.2064,0.6281,2038
5,0.2717,-0.917,0.6584,0.5711,-1.916,0.4976,2040
5,0.2498,-0.9221,0.5925,0.7063,-1.4474,0.3649,2041
5,0.2693,-0.9148,0.5581,0.8096,-0.9999,0.2149,2043
5,0.3555,-0.9216,0.5334,0.8572,-0.664,-0.0017,2043
5,0.4517,-0.9316,0.4907,0.8277,-0.5647,-0.2715,2040
5,0.5557,-0.9939,0.4294,0.779,-0.6193,-0.5663,2039
5,0.605,-1.1133,0.3762,0.6883,-0.7192,-0.8469,2041
5,0.6035,-1.2275,0.334,0.5686,-0.8495,-1.0746,2040
5,0.5913,-1.3545,0.2664,0.4514,-0.9572,-1.2905,2042
5,0.592,-1.4534,0.2522,0.3228,-1.0497,-1.4663,2043
5,0.5898,-1.4373,0.2429,0.1257,-1.1705,-1.6181,2039
5,0.5903,-1.3059,0.2542,-0.1156,-1.3223,-1.818,2042
5,0.573,-1.1406,0.2861,-0.3301,-1.493,-2.0771,2043
5,0.5183,-0.9529,0.2488,-0.4855,-1.6948,-2.3783,2047
5,0.3735,-0.9045,0.1631,-0.5169,-1.6531,-2.7304,2042
5,0.2007,-0.9814,0.0142,-0.4406,-1.2631,-3.0134,2041
5,0.0498,-1.0505,-0.1179,-0.1374,-0.6372,-3.1641,2037
5,-0.0562,-1.1389,-0.2375,0.2085,-0.0782,-3.2678,2038
5,-0.0378,-1.3154,-0.3003,0.3017,0.2727,-3.3993,2038
5,0.0559,-1.4692,-0.2937,0.3041,0.4132,-3.4639,2040
5,0.1208,-1.5825,-0.2617,0.1362,0.4304,-3.4712,2043
5,0.1702,-1.7102,-0.2134,-0.1406,0.3532,-3.4355,2039
5,0.1604,-1.7812,-0.1211,-0.4522,0.1595,-3.376,2037
5,0.1802,-1.8083,-0.0745,-0.7901,-0.059,-3.2937,2040
5,0.1592,-1.8074,-0.0308,-1.1782,-0.2503,-3.2389,2042
5,0.1653,-1.7197,0.0217,-1.4741,-0.4016,-3.1843,2044
5,0.0872,-1.6433,0.083,-1.7013,-0.5561,-3.2208,2041
5,0.1169,-1.574,0.1519,-1.9936,-0.6411,-3.3756,2036
5,0.1438,-1.502,0.1489,-2.2096,-0.5786,-3.4375,2041
5,0.1108,-1.4705,0.2024,-2.3605,-0.4992,-3.3973,2040
5,0.0576,-1.4534,0.2603,-2.5685,-0.2579,-3.332,2041
5,-0.0117,-1.3777,0.3049,-2.8857,-0.0065,-3.2809,2040
5,-0.0615,-1.2959,0.3391,-3.2019,0.2394,-3.282,2042
5,-0.0417,-1.1975,0.3354,-3.4571,0.4727,-3.2383,2041
5,-0.075,-1.0996,0.304,-3.5898,0.7337,-3.2011,2046
5,-0.0417,-1.0386,0.28,-3.7075,0.9909,-3.1601,2038
5,-0.0806,-0.9553,0.1902,-3.7215,1.3141,-3.0331,2043
5,-0.0569,-0.8435,0.1294,-3.5605,1.7771,-2.8943,2041
5,-0.0354,-0.7297,0.0737,-3.1147,2.2304,-2.6207,2041
5,-0.0107,-0.7332,0.0903,-2.8229,2.6272,-2.3754,2039
5,0.0088,-0.6689,0.1296,-2.5798,2.9504,-2.0249,2040
5,0.0056,-0.6194,0.1494,-2.3273,3.1104,-1.7443,2039
5,0.0425,-0.6177,0.1323,-2.0551,3.1793,-1.3768,2037
5,0.0515,-0.688,0.1516,-1.8114,3.2543,-1.012,2043
5,0.0618,-0.7292,0.1294,-1.6343,3.2148,-0.7405,2042
5,0.0938,-0.7148,0.094,-1.4118,2.8308,-0.5621,2041
5,0.1538,-0.679,0.0356,-1.1686,1.8084,-0.3988,2042
5,0.2075,-0.666,0.0457,-0.9419,0.3212,-0.1919,2048
5,0.1389,-0.7324,0.1575,-0.7353,-1.0272,0.0317,2041
5,-0.0259,-0.8796,0.2981,-0.5481,-1.9273,0.2266,2041
5,-0.2073,-1.0095,0.3772,-0.4336,-2.2549,0.3866,2039
5,-0.3342,-1.0916,0.3926,-0.3497,-2.3148,0.6265,2042
5,-0.4307,-1.1516,0.3889,-0.1493,-2.3437,0.8833,2039
5,-0.4043,-1.2061,0.3518,0.1542,-2.5193,1.1657,2039
5,-0.3274,-1.2693,0.3201,0.3686,-2.5595,1.543,2041
5,-0.2729,-1.3455,0.282,0.4516,-2.2786,1.922,2042
5,-0.1899,-1.4084,0.2295,0.4261,-1.7797,2.3426,2038
5,-0.1455,-1.4136,0.2161,0.3341,-1.3065,2.7139,2042
5,-0.1267,-1.2856,0.2493,0.1265,-0.8407,3.0094,2043
5,-0.1257,-1.114,0.3118,-0.0732,-0.6229,3.1929,2042
5,-0.1067,-0.915,0.2927,-0.1724,-0.5932,3.2769,2045
5,-0.0742,-0.8047,0.1741,0.021,-0.6445,3.3749,2042
5,-0.0168,-0.8726,0.0369,0.3908,-0.6404,3.4854,2042
5,0.0298,-1.0327,-0.083,0.6763,-0.5011,3.5539,2041
5,0.0874,-1.196,-0.1941,0.8525,-0.237,3.626,2043
5,0.0881,-1.3201,-0.261,0.9796,0.0937,3.7364,2042
5,0.0818,-1.4197,-0.2979,1.0716,0.3963,3.8535,2039
5,0.1064,-1.5156,-0.3257,1.2251,0.5755,4.013,2042
5,0.1758,-1.6365,-0.324,1.354,0.6934,4.2385,2036
5,0.2651,-1.7412,-0.2893,1.381,0.8039,4.3634,2040
5,0.3401,-1.7646,-0.2041,1.2579,0.8781,4.3634,2047
5,0.3696,-1.7886,-0.0591,0.8648,0.8018,4.3634,2038
5,0.3762,-1.7063,0.0706,0.55,0.5845,4.3634,2044
5,0.3074,-1.5491,0.1938,0.3227,-0.0443,4.2948,2089
6,0.2708,-1.4966,0.3052,0.1329,-0.9174,4.1414,1997
6,0.2463,-1.4395,0.375,0.0027,-1.6241,3.8934,2023
6,0.2363,-1.4399,0.4265,-0.133,-1.7544,3.6298,2036
6,0.1929,-1.46,0.4521,-0.1491,-1.6072,3.3979,2043
6,0.1494,-1.4534,0.4448,-0.1051,-1.3809,3.2432,2045
6,0.1475,-1.3936,0.4248,0.0495,-1.2071,3.1048,2042
6,0.2229,-1.3398,0.4275,0.2657,-1.0195,2.9814,2041
6,0.3872,-1.2864,0.4163,0.4532,-0.8215,2.9486,2041
6,0.5771,-1.2339,0.4214,0.6153,-0.7561,2.8666,2044
6,0.7249,-1.113,0.3977,0.6862,-0.8697,2.6597,2045
6,0.8613,-0.9917,0.363,0.7151,-1.1836,2.3208,2045
6,0.9829,-0.925,0.3601,0.7472,-1.5527,1.907,2054
6,1.0115,-0.9409,0.343,0.7641,-1.8864,1.4905,2047
6,0.8806,-0.9829,0.3101,0.7628,-2.041,1.1009,2044
6,0.7239,-0.9915,0.3069,0.7978,-2.1405,0.726,2042
6,0.6213,-0.936,0.3025,0.8981,-2.2409,0.3746,2038
6,0.594,-0.8975,0.3215,1.0465,-2.1892,0.0722,2040
6,0.5962,-0.8782,0.2974,1.2524,-1.8464,-0.2171,2039
6,0.624,-0.9456,0.2576,1.4817,-1.3203,-0.4694,2039
6,0.6228,-1.0691,0.2336,1.5763,-0.8725,-0.7315,2036
6,0.6318,-1.2395,0.188,1.5406,-0.6968,-1.0259,2037
6,0.606,-1.3149,0.1638,1.429,-0.7869,-1.3251,2043
6,0.5718,-1.2932,0.2078,1.2106,-0.9509,-1.6255,2047
6,0.5471,-1.1951,0.2224,0.9626,-1.2326,-1.9547,2043
6,0.5154,-1.0969,0.2202,0.7894,-1.5412,-2.349,2039
6,0.4341,-1.0662,0.1851,0.6863,-1.7342,-2.7088,2040
6,0.3345,-1.1008,0.0928,0.6126,-1.7113,-3.0135,2041
6,0.2368,-1.1458,-0.0112,0.6474,-1.5178,-3.2094,2041
6,0.1575,-1.2085,-0.0947,0.6622,-1.2275,-3.3342,2035
6,0.0989,-1.3213,-0.1733,0.6566,-0.9475,-3.4846,2035
6,0.0625,-1.4526,-0.1814,0.6161,-0.705,-3.5864,2038
6,0.0308,-1.5498,-0.167,0.4825,-0.5312,-3.6773,2038
6,0.0569,-1.6086,-0.1848,0.3518,-0.4964,-3.7241,2037
6,0.0854,-1.6377,-0.1653,0.2914,-0.5111,-3.7249,2036
6,0.0959,-1.7026,-0.1301,0.0995,-0.6193,-3.6623,2042
6,0.115,-1.7122,-0.0835,-0.1972,-0.7082,-3.6571,2039
6,0.1189,-1.6511,-0.0774,-0.5336,-0.7746,-3.648,2039
6,0.1377,-1.6077,-0.0337,-0.791,-0.8668,-3.692,2035
6,0.1619,-1.5989,0.0283,-1.1266,-0.9054,-3.7254,2041
6,0.0776,-1.5505,0.0901,-1.3053,-0.8419,-3.6512,2036
6,0.0093,-1.5566,0.1521,-1.6037,-0.565,-3.7073,2045
6,0.0352,-1.4978,0.1917,-2.035,-0.3555,-3.7772,2043
6,-0.0286,-1.3516,0.1511,-2.3059,-0.0166,-3.7728,2036
6,-0.0522,-1.2747,0.1714,-2.4285,0.3378,-3.7374,2039
6,-0.0854,-1.2112,0.2078,-2.5611,0.724,-3.7024,2039
6,-0.1621,-1.1738,0.2407,-2.7125,1.0664,-3.6364,2042
6,-0.1853,-1.166,0.2612,-2.9336,1.3636,-3.5703,2040
6,-0.1892,-1.1436,0.2378,-3.0447,1.6844,-3.5473,2040
6,-0.1387,-1.0901,0.1875,-3.0604,1.8757,-3.4913,2041
6,-0.0867,-1.0237,0.0769,-2.9038,1.9935,-3.2983,2037
6,-0.0085,-0.9355,-0.0103,-2.6211,2.0572,-3.1364,2045
6,0.0459,-0.886,-0.0327,-2.3734,2.0586,-2.9082,2042
6,0.1174,-0.8301,0.0339,-2.2181,1.8105,-2.5338,2039
6,0.0767,-0.8484,0.1196,-2.0449,1.5382,-2.1731,2038
6,0.0168,-0.8606,0.228,-1.9558,1.5195,-1.6848,2040
6,-0.1086,-0.7932,0.188,-1.8603,1.7952,-1.2388,2044
6,-0.1838,-0.5735,0.1204,-1.6978,1.9363,-0.9159,2041
6,-0.1392,-0.3674,0.0762,-1.3543,1.3107,-0.6731,2041
6,-0.0483,-0.332,0.0854,-0.895,0.1043,-0.3297,2042
6,-0.0051,-0.4597,0.1616,-0.3747,-0.9626,0.0282,2041
6,-0.0757,-0.6841,0.271,0.1682,-1.4683,0.2493,2042
6,-0.175,-0.8926,0.3796,0.3498,-1.4897,0.3449,2039
6,-0.2148,-1.011,0.4019,0.2906,-1.4146,0.565,2042
6,-0.2166,-1.0669,0.4668,0.3384,-1.344,0.9911,2042
6,-0.2166,-1.1282,0.5303,0.6449,-1.3324,1.4274,2042
6,-0.1794,-1.2053,0.5508,0.9753,-1.4587,1.7672,2042
6,-0.135,-1.2888,0.5559,1.0175,-1.4984,2.0788,2044
6,-0.1177,-1.3645,0.512,0.8678,-1.2965,2.3712,2038
6,-0.1003,-1.3625,0.4087,0.7292,-0.904,2.6794,2042
6,-0.0925,-1.2834,0.3767,0.5663,-0.5058,2.9421,2043
6,-0.0742,-1.168,0.3779,0.3212,-0.2677,3.0556,2043
6,-0.0457,-1.0056,0.3562,0.1384,-0.2123,3.0837,2044
6,-0.0276,-0.8984,0.2693,0.1575,-0.1991,3.0974,2042
6,-0.0281,-0.8875,0.1252,0.3958,-0.1826,3.1566,2041
6,-0.0337,-0.9751,0.0007,0.6793,0.0212,3.2594,2047
6,-0.0371,-1.0901,-0.1235,0.865,0.4259,3.3346,2041
6,-0.0112,-1.1848,-0.2402,1.0246,0.8544,3.3895,2041
6,0.0376,-1.2812,-0.3198,1.1854,1.1296,3.4812,2037
6,0.1016,-1.3782,-0.3169,1.3021,1.2659,3.6213,2041
6,0.1958,-1.4885,-0.2646,1.2912,1.3133,3.7685,2041
6,0.2957,-1.5569,-0.1489,1.1207,1.2818,3.9052,2047
6,0.3647,-1.5667,-0.0483,0.8891,1.1017,4.0077,2041
6,0.3928,-1.5479,0.0593,0.6079,0.7577,4.0591,2041
6,0.4607,-1.5803,0.2451,0.1587,0.2374,4.0977,2044
6,0.3701,-1.4902,0.1946,-0.0447,-0.094,4.0767,2040
6,0.3157,-1.4446,0.2954,-0.1519,-0.3942,4.0294,2044
6,0.2051,-1.3428,0.3381,-0.2611,-0.6084,3.8356,2042
6,0.1746,-1.2886,0.3789,-0.2597,-0.7545,3.5539,2041
6,0.1897,-1.2466,0.416,-0.2376,-0.7712,3.3311,2041
6,0.2249,-1.2202,0.4268,-0.1354,-0.7419,3.1127,2041
6,0.2527,-1.2512,0.4365,-0.0019,-0.7513,2.9118,2041
6,0.2532,-1.2915,0.4626,0.0703,-0.6781,2.7394,2040
6,0.2837,-1.3579,0.5139,0.0728,-0.5212,2.6384,2041
6,0.3872,-1.3323,0.5471,0.0349,-0.4116,2.6192,2036
6,0.5378,-1.218,0.5757,0.049,-0.4433,2.5774,2041
6,0.6826,-1.0876,0.5889,0.1244,-0.7783,2.4924,2045
6,0.8091,-0.9656,0.5781,0.2522,-1.3279,2.3342,2047
6,0.9087,-0.8665,0.5625,0.3081,-1.8138,2.084,2046
6,0.8972,-0.7844,0.5525,0.3164,-2.1331,1.7044,2045
6,0.7832,-0.7686,0.5322,0.3441,-2.3093,1.3379,2045
6,0.6243,-0.7637,0.5393,0.4217,-2.3124,0.9638,2043
6,0.4485,-0.74,0.5344,0.6211,-2.1889,0.6457,2039
7,0.3523,-0.7346,0.5154,0.9246,-1.8713,0.3081,2036
7,0.3804,-0.7993,0.4658,1.2023,-1.3436,0.015,2039
7,0.511,-0.9531,0.395,1.3952,-0.8672,-0.2822,2037
7,0.6426,-1.1641,0.353,1.4135,-0.6014,-0.5284,2039
7,0.7075,-1.3027,0.3406,1.2252,-0.5402,-0.7589,2041
7,0.7471,-1.3965,0.3164,1.0128,-0.7168,-1.0483,2036
7,0.751,-1.479,0.313,0.8389,-1.0736,-1.3142,2039
7,0.7014,-1.4814,0.3003,0.6576,-1.4242,-1.5577,2042
7,0.6101,-1.3679,0.3179,0.4177,-1.6941,-1.7937,2044
7,0.519,-1.2327,0.3335,0.2585,-1.9124,-2.11,2043
7,0.4573,-1.1299,0.3069,0.1967,-1.9659,-2.4627,2043
7,0.3845,-1.0769,0.1865,0.2461,-1.8788,-2.7951,2038
7,0.2717,-1.1318,0.0518,0.3199,-1.5253,-3.0517,2041
7,0.1694,-1.2175,-0.0813,0.394,-1.0576,-3.2592,2041
7,0.1187,-1.2778,-0.1729,0.4513,-0.6345,-3.4055,2040
7,0.095,-1.3213,-0.2468,0.522,-0.3615,-3.5157,2046
7,0.1204,-1.4099,-0.2468,0.5211,-0.2004,-3.5842,2038
7,0.1743,-1.501,-0.2451,0.4168,-0.1984,-3.6302,2037
7,0.2175,-1.5393,-0.2241,0.394,-0.3364,-3.6351,2043
7,0.2358,-1.6406,-0.1885,0.1626,-0.6662,-3.5897,2043
7,0.2046,-1.7144,-0.1409,-0.2553,-0.9645,-3.5402,2041
7,0.1309,-1.7039,-0.1047,-0.6862,-1.1188,-3.4833,2038
7,-0.0098,-1.6353,-0.0828,-0.9151,-1.0829,-3.4557,2039
7,-0.1899,-1.6057,-0.0161,-0.9067,-0.8351,-3.4639,2036
7,-0.0579,-1.5278,-0.0132,-1.3824,-0.565,-3.5563,2034
7,0.0107,-1.4221,-0.011,-1.5745,-0.4485,-3.6588,2042
7,-0.0039,-1.3523,0.1025,-1.8166,-0.2039,-3.6512,2039
7,0.0349,-1.2751,0.1516,-2.0849,-0.0365,-3.6327,2040
7,0.0017,-1.2559,0.1973,-2.3985,0.0871,-3.6474,2041
7,-0.1187,-1.2483,0.2271,-2.6418,0.114,-3.5649,2042
7,-0.1411,-1.2263,0.2356,-2.8815,0.1494,-3.4166,2040
7,-0.1492,-1.2185,0.2625,-3.1493,0.3488,-3.3922,2040
7,-0.2249,-1.2151,0.2705,-3.3942,0.6693,-3.2665,2037
7,-0.2446,-1.175,0.2764,-3.6581,1.089,-3.2186,2041
7,-0.2175,-1.1587,0.2825,-3.8333,1.4209,-3.2006,2037
7,-0.1467,-1.0483,0.2158,-3.7956,1.7163,-3.0012,2042
7,-0.094,-0.9141,0.1821,-3.5782,1.8956,-2.8829,2040
7,-0.0518,-0.8352,0.1516,-3.3468,1.8904,-2.7011,2044
7,0.0088,-0.7612,0.1926,-3.1982,1.8636,-2.3043,2042
7,0.0444,-0.7175,0.2192,-3.0557,1.918,-1.766,2045
7,-0.0042,-0.7061,0.1926,-2.6817,2.2134,-1.1692,2040
7,-0.0635,-0.7078,0.1548,-2.2852,2.655,-0.5818,2036
7,-0.1062,-0.6672,0.0774,-1.9201,2.7047,-0.1658,2044
7,-0.0483,-0.6685,0.0491,-1.6221,1.9873,0.1325,2047
7,0.0371,-0.7114,0.0513,-1.3356,0.8492,0.4979,2040
7,0.0613,-0.8142,0.1509,-0.9403,-0.034,0.8933,2043
7,-0.0486,-0.9248,0.3521,-0.5352,-0.3698,1.0726,2041
7,-0.1025,-1.0601,0.5293,-0.2157,-0.546,1.1121,2040
7,-0.1326,-1.1399,0.7114,-0.1739,-0.7166,1.3142,2040
7,-0.1973,-1.1362,0.7925,-0.1297,-0.9166,1.5785,2041
7,-0.1909,-1.0803,0.7227,0.2741,-1.1885,1.884,2043
7,-0.1299,-1.1208,0.5933,0.6766,-1.3059,2.2229,2041
7,-0.0706,-1.2512,0.4487,0.9063,-1.213,2.5706,2038
7,-0.0259,-1.4285,0.3149,0.8849,-0.9208,2.9034,2043
7,-0.0271,-1.4915,0.2766,0.6225,-0.5609,3.1961,2042
7,-0.0715,-1.3643,0.3386,0.2336,-0.2771,3.3979,2044
7,-0.1125,-1.1348,0.3938,-0.1274,-0.192,3.4408,2042
7,-0.1365,-0.8987,0.3787,-0.2545,-0.2601,3.4062,2039
7,-0.1167,-0.7695,0.2991,-0.0806,-0.3843,3.375,2043
7,-0.0823,-0.8015,0.1353,0.2718,-0.4035,3.3971,2039
7,-0.0774,-0.9263,-0.0249,0.5846,-0.2517,3.435,2040
7,-0.0664,-1.0354,-0.1589,0.8168,-0.0128,3.4611,2042
7,-0.0403,-1.1487,-0.2988,1.0053,0.2274,3.4897,2041
7,0.0056,-1.291,-0.3899,1.1958,0.4579,3.5431,2034
7,0.074,-1.4419,-0.3843,1.3299,0.6926,3.6689,2044
7,0.1331,-1.5513,-0.3101,1.4054,0.857,3.7692,2042
7,0.2283,-1.6655,-0.2131,1.3363,0.7191,3.9207,2037
7,0.3506,-1.7114,-0.1416,1.1999,0.2252,4.0401,2046
7,0.417,-1.6826,-0.0134,0.8067,-0.3012,4.0542,2045
7,0.4717,-1.6492,0.0913,0.5416,-0.6726,4.1249,2046
7,0.2834,-1.479,0.1633,0.2799,-1.2468,3.8708,2039
7,0.2959,-1.4678,0.2485,0.0606,-1.9225,3.7049,2037
7,0.2307,-1.5159,0.3452,-0.1258,-2.3274,3.6178,2041
7,0.1316,-1.5364,0.4312,-0.2589,-2.282,3.5555,2043
7,0.0303,-1.5032,0.4753,-0.375,-1.9919,3.4821,2038
7,-0.0164,-1.4434,0.4736,-0.3087,-1.7155,3.3203,2039
7,0.075,-1.3833,0.4065,-0.1406,-1.5701,3.1449,2042
7,0.1914,-1.3403,0.3606,0.0049,-1.488,3.0079,2044
7,0.3589,-1.3208,0.3457,0.0376,-1.4378,2.9068,2040
7,0.5356,-1.2349,0.3179,0.0469,-1.4114,2.798,2042
7,0.6726,-1.115,0.2849,0.0606,-1.5069,2.6944,2043
7,0.7952,-0.9785,0.2817,0.0633,-1.8297,2.4891,2044
7,0.8501,-0.8901,0.2639,0.0297,-2.1322,2.192,2043
7,0.802,-0.8262,0.2195,-0.0169,-2.1782,1.848,2043
7,0.6758,-0.7844,0.1812,-0.0511,-1.9418,1.5392,2046
7,0.5164,-0.749,0.1711,-0.0356,-1.7448,1.1881,2042
7,0.4556,-0.77,0.1562,0.1123,-1.5905,0.9092,2037
7,0.4702,-0.8406,0.1484,0.3621,-1.3909,0.7391,2043
7,0.5295,-0.9016,0.1213,0.6008,-1.1043,0.6211,2038
7,0.5618,-0.9771,0.0969,0.7403,-0.8822,0.4284,2041
7,0.5537,-1.0681,0.0554,0.779,-0.7605,0.1807,2041
7,0.5181,-1.2048,0.0156,0.7489,-0.7541,-0.1282,2037
7,0.4971,-1.2661,-0.0293,0.6292,-0.9266,-0.4654,2040
7,0.4202,-1.2251,0.0403,0.4333,-1.2086,-0.799,2039
7,0.3633,-1.1228,0.1536,0.2065,-1.3857,-1.133,2040
7,0.2932,-0.9954,0.272,-0.0252,-1.3278,-1.3825,2045
7,0.1843,-0.8894,0.3037,-0.1356,-1.0416,-1.6134,2039
7,0.0737,-0.844,0.2378,-0.1386,-0.5777,-1.8425,2040
7,0.0098,-0.8411,0.1218,-0.0459,0.0007,-2.0124,2038
7,-0.0088,-0.9146,-0.0325,0.0874,0.5908,-2.2238,2040
7,0.0374,-0.9998,-0.1267,0.1755,1.0598,-2.4049,2039
7,0.0994,-1.1267,-0.1631,0.2517,1.3355,-2.5597,2041
7,0.1333,-1.2273,-0.1582,0.2509,1.4696,-2.6645,2037
8,0.1482,-1.3152,-0.1292,0.2108,1.5227,-2.7438,2037
8,0.1448,-1.4016,-0.0925,0.1466,1.5283,-2.7974,2039
8,0.1025,-1.4575,-0.0659,0.1079,1.548,-2.8169,2042
8,0.0781,-1.5205,0.0105,0.0088,1.5817,-2.8392,2036
8,0.0928,-1.6997,0.1362,-0.3992,1.5175,-2.9268,2041
8,0.0676,-1.5161,0.0742,-0.7259,1.5006,-2.9578,2041
8,0.0779,-1.4395,0.0637,-0.5494,1.4918,-3.0265,2035
8,0.0928,-1.4656,0.1155,-0.6299,1.4873,-3.14,2041
8,0.1086,-1.4421,0.1104,-0.6834,1.3913,-3.2087,2046
8,0.0952,-1.4106,0.0942,-0.7098,1.2303,-3.2814,2046
8,0.0928,-1.3845,0.1169,-0.7158,1.0609,-3.3459,2046
8,0.0979,-1.3328,0.1167,-0.7183,0.8407,-3.3895,2042
8,0.0979,-1.2932,0.1389,-0.7709,0.5533,-3.4061,2042
8,0.0564,-1.269,0.1697,-0.8849,0.2767,-3.4006,2042
8,-0.0037,-1.2507,0.2058,-0.9776,0.0672,-3.3726,2045
8,-0.062,-1.2563,0.1855,-1.0219,-0.0589,-3.2886,2038
8,-0.1306,-1.2544,0.1313,-1.0182,-0.0137,-3.1391,2042
8,-0.1519,-1.2109,0.0845,-0.9521,0.0876,-2.9787,2043
8,-0.1484,-1.1375,0.033,-0.8407,0.0435,-2.7926,2043
8,-0.135,-1.0312,0.0103,-0.6701,-0.1439,-2.536,2044
8,-0.1558,-0.9731,0.0166,-0.5145,-0.3462,-2.2944,2039
8,-0.1995,-0.9429,0.0476,-0.4236,-0.5143,-2.1116,2041
8,-0.2607,-0.9417,0.1191,-0.393,-0.687,-1.9896,2042
8,-0.2944,-0.9265,0.2058,-0.3404,-0.8038,-1.7612,2044
8,-0.3774,-0.9648,0.2673,-0.2378,-0.8208,-1.5653,2040
8,-0.438,-0.9968,0.3237,-0.047,-0.5986,-1.284,2043
8,-0.499,-1.0659,0.3633,0.1519,-0.2835,-0.9768,2038
8,-0.5225,-1.1238,0.4038,0.345,0.0154,-0.5746,2042
8,-0.5444,-1.0952,0.4807,0.4698,0.438,-0.0856,2041
8,-0.5874,-1.0588,0.5239,0.5572,0.9274,0.2824,2041
8,-0.4883,-1.0742,0.5183,0.7014,1.173,0.6516,2044
8,-0.3398,-1.135,0.5835,0.689,1.2685,1.1159,2043
8,-0.2668,-1.1729,0.6458,0.5215,1.3536,1.4965,2043
8,-0.2512,-1.147,0.6824,0.3133,1.4194,1.816,2043
8,-0.2981,-1.0059,0.6831,0.0649,1.4455,2.0783,2040
8,-0.3423,-0.8223,0.6025,-0.1274,1.4577,2.2204,2041
8,-0.3137,-0.6724,0.4565,-0.0972,1.3691,2.3008,2045
8,-0.2849,-0.6167,0.2996,0.0667,1.1756,2.3404,2040
8,-0.2231,-0.637,0.1692,0.3314,0.9017,2.3338,2041
8,-0.1855,-0.7263,0.064,0.6192,0.6979,2.376,2046
8,-0.1841,-0.8022,-0.0173,0.8384,0.6259,2.4328,2041
8,-0.1572,-0.8647,-0.0718,1.0092,0.7343,2.4918,2046
8,-0.1235,-0.9744,-0.1047,1.1576,0.8136,2.5396,2039
8,-0.0618,-1.1689,-0.0781,1.2328,0.8291,2.6675,2040
8,0.0161,-1.3364,0.0271,1.1857,0.7767,2.7444,2035
8,0.1614,-1.4485,0.188,0.9507,0.6405,2.8545,2042
8,0.323,-1.4543,0.3262,0.5947,0.2811,2.9156,2043
8,0.3918,-1.3711,0.4175,0.3348,-0.2844,2.9209,2039
8,0.4082,-1.3044,0.5315,0.1783,-0.8368,2.9413,2042
8,0.3735,-1.2288,0.6384,0.0562,-1.3005,2.8895,2041
8,0.3381,-1.1921,0.6997,0.0023,-1.5289,2.8023,2042
8,0.2729,-1.1292,0.7529,0.0427,-1.5482,2.6342,2036
8,0.2661,-1.0884,0.8086,0.1795,-1.3697,2.4565,2043
8,0.3264,-1.103,0.8542,0.3392,-1.1508,2.3069,2047
8,0.4336,-1.1052,0.8328,0.492,-1.0504,2.1973,2044
8,0.5381,-1.1116,0.7749,0.5287,-1.014,2.1306,2043
8,0.6077,-1.1079,0.7341,0.4405,-1.0676,2.0507,2042
8,0.6516,-1.0879,0.6758,0.3324,-1.0737,1.9048,2043
8,0.6199,-1.04,0.6299,0.2709,-1.0003,1.691,2040
8,0.5908,-0.9863,0.6348,0.2799,-0.8429,1.4324,2038
8,0.6362,-0.9382,0.6521,0.3369,-0.6865,1.0918,2033
8,0.7368,-0.9062,0.6719,0.3998,-0.553,0.691,2042
8,0.8184,-0.8779,0.6602,0.4189,-0.4718,0.3152,2040
8,0.8645,-0.8406,0.6157,0.3802,-0.5356,-0.0646,2041
8,0.8875,-0.7935,0.5352,0.3494,-0.7179,-0.4269,2046
8,0.8838,-0.7871,0.4314,0.3638,-0.9138,-0.7658,2043
8,0.8811,-0.8467,0.3367,0.4184,-1.0646,-1.0453,2044
8,0.8567,-1.0381,0.2673,0.4417,-1.0765,-1.2676,2043
8,0.8105,-1.2605,0.199,0.4047,-0.9897,-1.4552,2039
8,0.7241,-1.3372,0.1562,0.1931,-0.9813,-1.6159,2041
8,0.6699,-1.1909,0.1626,-0.0654,-1.2018,-1.795,2042
8,0.6326,-0.9341,0.1396,-0.2472,-1.5713,-2.0457,2044
8,0.55,-0.8208,0.1099,-0.3406,-1.8294,-2.3854,2043
8,0.3857,-0.8589,-0.0327,-0.3017,-1.8892,-2.7344,2039
8,0.218,-0.948,-0.1931,-0.147,-1.5716,-2.9656,2043
8,0.0405,-1.0779,-0.3572,0.1088,-1.1326,-3.0854,2041
8,-0.0544,-1.1851,-0.4504,0.3288,-0.7569,-3.1598,2042
8,-0.0435,-1.3384,-0.439,0.401,-0.4809,-3.2559,2043
8,-0.0242,-1.5193,-0.387,-0.0306,-0.386,-3.3604,2034
8,-0.0229,-1.5952,-0.3057,-0.4381,-0.4625,-3.3581,2034
8,-0.0281,-1.6812,-0.1697,-0.8235,-0.5843,-3.3238,2037
8,0.042,-1.7087,-0.0349,-1.29,-0.6698,-3.1793,2037
8,0.0676,-1.7783,0.0674,-1.6366,-0.6067,-3.0022,2037
8,0.0908,-1.8408,0.1123,-2.1497,-0.4721,-3.028,2043
8,0.1829,-1.7256,0.0867,-2.544,-0.3598,-3.0676,2037
8,0.1431,-1.7229,0.147,-2.7631,-0.3261,-3.0042,2039
8,0.1379,-1.6436,0.2007,-2.9666,-0.3252,-2.8924,2043
8,0.0762,-1.6055,0.2192,-3.1519,-0.2539,-2.871,2040
8,0.0271,-1.5664,0.2483,-3.366,-0.1416,-2.9164,2038
8,0.032,-1.4858,0.2141,-3.5481,-0.041,-2.8233,2048
8,0.0168,-1.4492,0.2388,-3.7308,0.3127,-2.7863,2045
8,-0.0164,-1.4058,0.196,-3.9037,0.6857,-2.8157,2042
8,-0.0432,-1.3655,0.1675,-4.0884,1.1471,-2.8191,2043
8,0.0413,-1.2642,0.136,-4.1821,1.3738,-2.7729,2044
8,0.071,-1.2146,0.1143,-4.1893,1.5885,-2.652,2041
8,0.1301,-1.0764,0.0889,-4.0727,1.7235,-2.4168,2041
8,0.1575,-0.9985,0.0823,-3.9181,1.8562,-2.2997,2043
8,0.0862,-0.9468,0.0637,-3.6928,2.0462,-2.1596,2038
8,0.0801,-0.926,0.1108,-3.5475,2.2053,-1.996,2035
8,0.1396,-0.8655,0.0891,-3.5025,2.4167,-1.7351,2042
8,0.21,-0.7866,0.0757,-3.3022,2.5919,-1.4037,2040
8,0.2886,-0.7246,0.1003,-2.9715,2.5245,-1.0967,2040
9,0.3352,-0.707,0.0896,-2.6223,2.3048,-0.7562,2042
9,0.3301,-0.6992,0.1084,-2.3145,2.1158,-0.4654,2042
9,0.3328,-0.6584,0.1531,-2.0378,1.6705,-0.2737,2043
9,0.3174,-0.5706,0.207,-1.7572,0.7305,-0.0282,2041
9,0.2908,-0.543,0.3381,-1.4918,-0.2711,0.2767,2043
9,0.1519,-0.5876,0.467,-1.1143,-0.8745,0.5509,2042
9,-0.0381,-0.646,0.5422,-0.6677,-0.976,0.7754,2041
9,-0.1855,-0.7051,0.5002,-0.2614,-0.7384,0.9385,2040
9,-0.2188,-0.7983,0.3616,0.1252,-0.4705,1.1491,2039
9,-0.1604,-0.9526,0.2627,0.4847,-0.3384,1.4579,2042
9,-0.0901,-1.0979,0.2747,0.8012,-0.4296,1.7482,2039
9,-0.0725,-1.229,0.3828,0.9351,-0.6273,1.9478,2041
9,-0.0894,-1.2776,0.4453,0.9289,-0.9785,2.0354,2045
9,-0.0864,-1.2939,0.3975,0.9505,-1.495,2.153,2040
9,-0.0632,-1.3066,0.2825,1.0515,-1.9507,2.4004,2040
9,-0.0486,-1.3611,0.2075,1.1738,-2.0016,2.6498,2045
9,-0.0876,-1.366,0.1604,1.1898,-1.6821,2.9138,2039
9,-0.1299,-1.2834,0.1582,1.0802,-1.2974,3.0757,2045
9,-0.1223,-1.1057,0.1284,1.0575,-1.0172,3.1805,2039
9,-0.0959,-0.9856,0.1042,1.1148,-0.9022,3.264,2040
9,-0.0476,-0.9377,0.0303,1.2625,-0.8439,3.3134,2043
9,0.001,-0.9978,-0.1023,1.5547,-0.7448,3.3637,2041
9,0.063,-1.1299,-0.2363,1.8587,-0.5873,3.448,2045
9,0.0962,-1.1975,-0.3352,2.0411,-0.3573,3.5491,2039
9,0.1267,-1.2441,-0.4053,2.1579,-0.1244,3.6695,2044
9,0.1516,-1.2834,-0.4363,2.3023,0.0065,3.7787,2043
9,0.2219,-1.3635,-0.4277,2.4721,-0.0052,3.9094,2040
9,0.2759,-1.4365,-0.3716,2.5729,-0.0124,4.0432,2043
9,0.3406,-1.5139,-0.2832,2.5103,-0.0493,4.1401,2042
9,0.3782,-1.5935,-0.158,2.3304,-0.1056,4.2232,2043
9,0.3225,-1.5276,-0.1035,2.1117,-0.4453,4.2164,2042
9,0.2544,-1.4404,0.0315,2.0172,-0.7751,4.1783,2041
9,0.26,-1.4326,0.155,1.7302,-1.1029,4.1294,2042
9,0.2224,-1.4143,0.2644,1.3525,-1.3267,4.0438,2044
9,0.1479,-1.3833,0.3347,1.0762,-1.3495,3.8894,2045
9,0.0215,-1.355,0.4299,0.8887,-1.2744,3.7214,2042
9,-0.0715,-1.3706,0.5225,0.6794,-1.2134,3.4861,2042
9,-0.0813,-1.3374,0.5461,0.5098,-1.1966,3.2227,2040
9,-0.0488,-1.3152,0.5549,0.4189,-1.1003,3.0104,2041
9,-0.001,-1.3008,0.5305,0.3009,-0.9058,2.8177,2037
9,0.0718,-1.2456,0.4812,0.2185,-0.7252,2.6108,2038
9,0.1958,-1.1777,0.3833,0.2262,-0.6312,2.4694,2039
9,0.3772,-1.0972,0.261,0.3328,-0.7212,2.3806,2044
9,0.5557,-0.9824,0.1804,0.4444,-1.0147,2.3077,2042
9,0.6699,-0.9087,0.1084,0.5794,-1.3745,2.1399,2042
9,0.6179,-0.8076,0.1648,0.5269,-1.5954,1.7037,2046
9,0.6021,-0.6821,0.1455,0.6084,-1.9471,1.3974,2038
9,0.6306,-0.6824,0.1846,0.8666,-2.2933,1.2355,2039
9,0.5974,-0.8076,0.3203,1.0606,-2.4132,1.0824,2037
9,0.5813,-0.8608,0.4651,1.0232,-2.492,0.871,2041
9,0.5532,-0.8403,0.5513,0.9628,-2.7159,0.6309,2037
9,0.5295,-0.8235,0.5811,0.9914,-2.9661,0.387,2043
9,0.4688,-0.8672,0.5991,1.0107,-2.9847,0.1322,2042
9,0.4177,-0.9224,0.5779,1.0397,-2.8484,-0.1426,2040
9,0.3442,-1.0117,0.5601,1.0706,-2.6231,-0.4406,2038
9,0.2979,-1.1624,0.5488,1.0499,-2.3615,-0.7516,2040
9,0.3132,-1.3081,0.5049,0.9078,-2.127,-0.9841,2036
9,0.3816,-1.3755,0.478,0.6857,-1.9498,-1.183,2040
9,0.4697,-1.3896,0.425,0.4615,-1.9106,-1.4061,2039
9,0.4971,-1.4045,0.3909,0.2132,-2.0036,-1.6532,2041
9,0.4719,-1.4104,0.3738,-0.1105,-2.0654,-1.904,2040
9,0.4182,-1.3503,0.3347,-0.4092,-2.1109,-2.1406,2037
9,0.3706,-1.2148,0.2947,-0.6541,-2.1529,-2.353,2041
9,0.3115,-1.0483,0.2124,-0.783,-2.1674,-2.584,2040
9,0.2563,-0.9541,0.0969,-0.8172,-1.9989,-2.8303,2039
9,0.1936,-0.8887,-0.0234,-0.7347,-1.707,-3.0373,2039
9,0.1255,-0.8748,-0.1746,-0.5594,-1.1905,-3.1953,2039
9,0.0962,-0.9043,-0.2952,-0.3464,-0.6256,-3.3134,2040
9,0.0823,-0.9553,-0.4077,-0.1233,-0.1153,-3.3841,2040
9,0.1279,-1.0662,-0.4192,0.0599,0.2273,-3.4295,2042
9,0.1777,-1.1436,-0.4011,0.1218,0.4204,-3.389,2041
9,0.2327,-1.248,-0.3413,0.1517,0.5938,-3.3126,2040
9,0.2722,-1.4309,-0.283,0.0317,0.583,-3.1873,2046
9,0.2781,-1.5271,-0.261,-0.3601,0.5145,-2.9901,2040
9,0.29,-1.5029,-0.25,-0.5738,0.3674,-2.8295,2042
9,0.2969,-1.5447,-0.1995,-0.7937,0.1926,-2.8122,2040
9,0.2759,-1.5481,-0.1099,-1.0108,0.0121,-2.8079,2045
9,0.2471,-1.5137,-0.0103,-1.3101,-0.1333,-2.8164,2038
9,0.1765,-1.4775,0.1196,-1.5655,-0.2112,-2.8719,2040
9,0.0371,-1.429,0.1956,-1.8129,-0.0859,-2.8705,2037
9,0.0361,-1.363,0.2405,-2.1217,0.2838,-2.9987,2043
9,0.1069,-1.2773,0.2712,-2.3133,0.5364,-3.0613,2037
9,0.0591,-1.239,0.2966,-2.495,0.8273,-3.061,2041
9,0.0015,-1.1853,0.3062,-2.6445,1.1298,-3.017,2042
9,-0.0835,-1.1887,0.342,-2.8147,1.4576,-3.0483,2038
9,-0.1177,-1.1453,0.3694,-3.0541,1.852,-3.0079,2044
9,-0.1501,-1.0938,0.3723,-3.2204,2.3509,-3.0019,2043
9,-0.1746,-1.0613,0.2932,-3.2941,2.7596,-3.0212,2197
9,-0.0811,-1.0107,0.2366,-3.2407,2.9751,-2.9573,2060
9,-0.0386,-0.9912,0.1675,-3.2166,3.1167,-2.9044,1998
9,0.0151,-0.9829,0.1458,-3.1353,3.2258,-2.7842,1817
9,0.0654,-0.9602,0.1465,-3.0536,3.3804,-2.5986,2045
9,0.0559,-0.9292,0.1555,-2.8903,3.3841,-2.3863,2075
9,0.064,-0.8943,0.1956,-2.7048,3.1894,-2.1577,2052
9,0.1086,-0.8445,0.1641,-2.5039,2.8963,-1.8483,2049
9,0.1138,-0.7952,0.0637,-2.1975,2.6697,-1.5637,2048
9,0.1362,-0.7253,-0.0039,-1.8512,2.2782,-1.3711,2044
9,0.2224,-0.635,0.0066,-1.4568,1.4665,-1.0965,2048
9,0.2676,-0.6694,0.1069,-1.0563,0.3915,-0.7978,2042
9,0.2285,-0.8408,0.3052,-0.7741,-0.5536,-0.5466,2042
9,0.0601,-1.0151,0.5073,-0.5894,-1.2808,-0.4288,2044
10,-0.0442,-1.1208,0.6067,-0.5785,-1.7869,-0.3183,2041
10,-0.0876,-1.2021,0.6309,-0.6067,-1.9789,-0.0119,2037
10,-0.1277,-1.2476,0.6553,-0.4942,-1.8278,0.4626,2042
10,-0.1694,-1.3435,0.6914,-0.2191,-1.4635,0.958,2044
10,-0.2046,-1.4485,0.771,-0.0389,-0.9938,1.3625,2041
10,-0.2083,-1.5183,0.78,-0.0314,-0.5841,1.7434,2039
10,-0.1707,-1.5396,0.7429,-0.0872,-0.2458,2.1807,2042
10,-0.1501,-1.5649,0.6396,-0.1262,0.0766,2.5663,2042
10,-0.0911,-1.5759,0.5686,-0.1345,0.4606,2.8846,2043
10,-0.0259,-1.4951,0.5286,-0.2944,0.9091,3.2262,2045
10,-0.0171,-1.2544,0.5212,-0.5966,1.3488,3.5194,2042
10,-0.0701,-0.9189,0.5049,-0.8993,1.6291,3.5849,2044
10,-0.1113,-0.6511,0.417,-0.9539,1.6524,3.5601,2041
10,-0.1121,-0.4846,0.2866,-0.7753,1.4857,3.5017,2043
10,-0.0737,-0.5076,0.1157,-0.4505,1.3813,3.477,2042
10,0.0044,-0.6963,-0.0291,-0.0518,1.3925,3.4953,2037
10,0.0601,-0.8958,-0.1487,0.2615,1.398,3.5296,2044
10,0.1421,-1.0342,-0.1938,0.3474,1.4914,3.5945,2039
10,0.146,-1.0833,-0.2803,0.4504,1.5129,3.5826,2044
10,0.1228,-1.2268,-0.2285,0.6229,1.654,3.6316,2045
10,0.157,-1.4065,-0.1926,0.6877,1.4648,3.6872,2039
10,0.2881,-1.5156,-0.1196,0.6337,0.7472,3.7037,2042
10,0.4688,-1.562,0.0437,0.4308,0.1296,3.6673,2044
10,0.5474,-1.5679,0.2024,0.1755,-0.5136,3.6395,2044
10,0.5752,-1.4526,0.3179,-0.1015,-1.2396,3.5624,2045
10,0.4746,-1.2959,0.4275,-0.2723,-1.8326,3.4553,2041
10,0.3118,-1.1689,0.5181,-0.3996,-2.3583,3.2063,2034
10,0.147,-1.1414,0.6062,-0.2069,-2.489,3.0753,2042
10,-0.0388,-1.1343,0.72,0.0051,-2.1935,2.8992,2039
10,-0.1221,-1.0742,0.781,0.1317,-1.6769,2.6699,2041
10,-0.074,-1.0139,0.7644,0.3767,-1.2792,2.4172,2042
10,0.0999,-1.0471,0.7339,0.7584,-0.9822,2.2421,2044
10,0.3315,-1.1533,0.7759,1.0282,-0.7328,2.1212,2039
10,0.5132,-1.2148,0.8408,1.0076,-0.6484,2.0908,2043
10,0.7024,-1.2141,0.8743,0.8985,-0.7516,2.0921,2044
10,0.8516,-1.1909,0.9165,0.809,-1.0444,2.0126,2044
10,0.8782,-1.1445,0.918,0.6854,-1.562,1.7572,2045
10,0.7922,-1.0564,0.9341,0.5906,-2.1517,1.3736,2045
10,0.6599,-0.9287,0.9277,0.6549,-2.7227,1.011,2044
10,0.5156,-0.8201,0.8713,0.9166,-2.8932,0.5942,2037
10,0.4343,-0.7581,0.8608,1.3022,-2.6795,0.1995,2035
10,0.4368,-0.7539,0.8394,1.6614,-2.3282,-0.1197,2036
10,0.5051,-0.8059,0.8005,1.8656,-1.8215,-0.3532,2040
10,0.6003,-0.8853,0.7419,1.8662,-1.3874,-0.573,2040
10,0.678,-0.9192,0.6855,1.7373,-1.2366,-0.8259,2038
10,0.7297,-0.9429,0.5913,1.6066,-1.3629,-1.08,2037
10,0.7842,-0.9617,0.4963,1.5603,-1.695,-1.3183,2042
10,0.7942,-1.0254,0.45,1.4559,-2.0327,-1.5864,2043
10,0.7324,-1.1729,0.3901,1.2236,-2.1828,-1.8595,2039
10,0.6501,-1.3557,0.3479,0.9897,-2.1413,-2.1382,2039
10,0.5198,-1.54,0.2844,0.7973,-1.9239,-2.3485,2037
10,0.4265,-1.6726,0.2539,0.5433,-1.641,-2.5389,2040
10,0.3596,-1.6023,0.2102,0.2591,-1.3969,-2.7027,2041
10,0.3748,-1.4473,0.1458,0.1088,-1.3282,-2.8683,2045
10,0.4316,-1.2993,0.1042,-0.0545,-1.3489,-3.0975,2043
10,0.4751,-1.2322,0.0088,-0.2147,-1.3837,-3.3869,2044
10,0.4692,-1.3003,-0.1443,-0.1995,-1.5215,-3.6663,2047
10,0.3674,-1.366,-0.2261,-0.2763,-1.6434,-3.8072,2044
10,0.2412,-1.4187,-0.2466,-0.4353,-1.5936,-3.8908,2039
10,0.1096,-1.4626,-0.2598,-0.5682,-1.4468,-3.9325,2042
10,0.0581,-1.5562,-0.2122,-0.8166,-1.3101,-3.9546,2035
10,-0.1106,-1.6069,-0.1738,-0.9987,-0.9849,-3.9261,2038
10,-0.0806,-1.5977,-0.179,-1.4748,-0.5604,-3.9199,2041
10,0.0559,-1.5105,-0.2153,-1.7318,-0.3525,-3.8334,2040
10,-0.0156,-1.5603,-0.189,-1.9536,-0.1673,-3.7366,2035
10,-0.0847,-1.5212,-0.1389,-2.1961,0.0866,-3.6592,2041
10,-0.041,-1.4104,-0.1597,-2.3677,0.2939,-3.5902,2039
10,0.0454,-1.3425,-0.126,-2.5192,0.3959,-3.5083,2036
10,0.0774,-1.3293,-0.0549,-2.7199,0.4494,-3.4777,2044
10,-0.0002,-1.3323,0.0149,-2.9903,0.5849,-3.4619,2039
10,0.0901,-1.2856,0.0525,-3.1781,0.5839,-3.3452,2041
10,0.0784,-1.2488,0.082,-3.311,0.6648,-3.2772,2040
10,0.0945,-1.2341,0.1682,-3.5683,0.6885,-3.2014,2040
10,0.0505,-1.1951,0.2148,-3.8233,0.783,-3.1214,2038
10,0.0381,-1.1641,0.2837,-4.0717,0.9416,-3.071,2041
10,0.1116,-1.0598,0.3413,-4.3635,1.0318,-2.8247,2044
10,0.0095,-1.0059,0.3323,-4.3635,1.3243,-2.7115,2039
10,-0.0642,-0.9856,0.3325,-4.3635,1.542,-2.531,2043
10,-0.0837,-0.9609,0.3108,-4.2949,1.8326,-2.2945,2039
10,-0.1155,-0.936,0.2959,-4.1387,2.127,-2.0522,2040
10,-0.1028,-0.885,0.2661,-3.8803,2.2866,-1.8349,2041
10,-0.0425,-0.8694,0.2488,-3.637,2.1964,-1.5925,2040
10,0.0195,-0.8816,0.219,-3.4267,2.0278,-1.2153,2039
10,0.0005,-0.8672,0.1758,-3.2609,1.8929,-0.8296,2044
10,-0.0151,-0.783,0.1724,-3.052,1.5613,-0.5374,2040
10,0.0107,-0.6963,0.1787,-2.7317,0.5711,-0.2831,2042
10,-0.0103,-0.6719,0.2966,-2.3389,-0.6679,0.0804,2043
10,-0.0764,-0.7554,0.4712,-1.972,-1.5106,0.4765,2039
10,-0.1565,-0.8271,0.613,-1.6299,-1.662,0.7937,2047
10,-0.2336,-0.9109,0.5979,-1.2292,-1.3507,1.1248,2041
10,-0.2976,-1.0417,0.5259,-0.7947,-0.8738,1.486,2038
10,-0.2961,-1.2344,0.4778,-0.402,-0.6324,1.8554,2044
10,-0.2693,-1.3438,0.5007,-0.1362,-0.6827,2.1897,2040
10,-0.1975,-1.3489,0.5959,-0.1023,-1.0191,2.4213,2042
10,-0.1272,-1.2217,0.5867,-0.0811,-1.6386,2.5626,2041
11,-0.0652,-1.1353,0.4651,0.0,-2.0118,2.7705,2038
11,-0.0325,-1.1641,0.292,0.1784,-2.0511,2.9743,2040
11,-0.002,-1.2083,0.1482,0.4189,-1.9644,3.2238,2042
11,0.0105,-1.2412,0.0522,0.628,-1.9527,3.4483,2043
11,0.0291,-1.251,0.0098,0.7368,-1.9022,3.5766,2044
11,0.0627,-1.2288,0.0039,0.8347,-1.8198,3.672,2046
11,0.0725,-1.2146,-0.0476,1.0158,-1.7508,3.7984,2042
11,0.0803,-1.1936,-0.1074,1.2264,-1.6732,3.905,2041
11,0.1023,-1.2131,-0.1865,1.4885,-1.5707,3.9966,2043
11,0.1042,-1.2949,-0.2615,1.8141,-1.3788,4.1109,2043
11,0.0894,-1.4094,-0.283,2.0667,-0.9742,4.2671,2038
11,0.1121,-1.5176,-0.3267,2.2534,-0.5613,4.3634,2040
11,0.2075,-1.6238,-0.3518,2.4005,-0.3406,4.3634,2043
11,0.3315,-1.7512,-0.3191,2.5075,-0.2414,4.3634,2043
11,0.4136,-1.8237,-0.2258,2.4939,-0.1855,4.3634,2042
11,0.438,-1.8528,-0.1062,2.3258,-0.3239,4.3634,2040
11,0.4331,-1.8899,0.0813,2.1188,-0.6032,4.3634,2043
11,0.3765,-1.9089,0.1948,1.7997,-0.9572,4.3634,2041
11,0.3708,-1.8486,0.3184,1.5668,-1.5484,4.3634,2044
11,0.4697,-1.7524,0.4443,1.3699,-2.323,4.3634,2043
11,0.5552,-1.5867,0.553,1.1013,-3.1967,4.1474,2042
11,0.5669,-1.4409,0.6687,0.9227,-3.9648,3.7249,2045
11,0.4656,-1.3987,0.7063,0.8616,-4.3399,3.2385,2044
11,0.3369,-1.4773,0.7036,0.9131,-4.127,2.8309,2041
11,0.241,-1.5046,0.6802,0.9339,-3.5057,2.6579,2042
11,0.2803,-1.3928,0.5994,1.071,-3.0867,2.5543,2042
11,0.4468,-1.2478,0.5276,1.3274,-2.8216,2.4072,2047
11,0.6829,-1.1255,0.4207,1.6106,-2.6675,2.1405,2045
11,0.8943,-1.0281,0.262,1.8002,-2.6324,1.7998,2037
11,0.9878,-0.9895,0.0676,1.9108,-2.5437,1.3742,2048
11,0.967,-0.9854,0.0049,1.8773,-2.4645,0.9573,2046
11,0.9822,-0.9231,0.0,1.8523,-2.6389,0.6566,2039
11,1.0833,-0.7991,0.042,1.896,-2.8616,0.3641,2042
11,1.1731,-0.7283,0.0913,2.0128,-2.8549,0.0061,2041
11,1.1619,-0.7666,0.1316,2.0454,-2.7373,-0.3738,2038
11,1.0869,-0.8599,0.1782,1.9144,-2.7137,-0.7327,2042
11,0.9517,-1.0149,0.2239,1.6586,-2.8075,-1.1336,2041
11,0.8225,-1.2048,0.2583,1.3307,-2.8699,-1.521,2039
11,0.6279,-1.3401,0.3098,0.9317,-2.7216,-1.8733,2038
11,0.4946,-1.3906,0.3132,0.5907,-2.4433,-2.1751,2038
11,0.3843,-1.4456,0.303,0.3722,-2.0807,-2.4589,2036
11,0.3308,-1.4724,0.2253,0.1585,-1.672,-2.6943,2036
11,0.354,-1.4285,0.1162,-0.0695,-1.3439,-2.8931,2042
11,0.3882,-1.3186,0.0383,-0.2723,-1.1754,-3.1198,2042
11,0.4087,-1.2271,-0.0515,-0.4321,-1.1397,-3.4083,2040
11,0.3892,-1.2324,-0.1482,-0.4747,-1.1119,-3.7261,2045
11,0.3357,-1.3406,-0.2537,-0.4566,-1.0955,-3.9986,2039
11,0.2798,-1.4902,-0.3232,-0.4701,-1.0686,-4.1992,2040
11,0.2166,-1.5667,-0.3477,-0.555,-1.0219,-4.2663,2037
11,0.1548,-1.6528,-0.3608,-0.7142,-0.9837,-4.292,2039
11,0.073,-1.6958,-0.3049,-0.956,-0.8268,-4.2552,2039
11,0.0212,-1.7275,-0.2554,-1.3042,-0.6211,-4.1532,2047
11,-0.0156,-1.6809,-0.2178,-1.6442,-0.4492,-3.9992,2040
11,-0.01,-1.5623,-0.2112,-1.8792,-0.3161,-3.8315,2038
11,-0.0879,-1.4397,-0.1848,-1.7574,-0.132,-3.6475,2041
11,-0.0657,-1.5405,-0.1394,-2.0987,0.1167,-3.807,2042
11,0.1086,-1.4783,-0.1504,-2.4302,0.2836,-3.8495,2041
11,0.2007,-1.3948,-0.2109,-2.3413,0.446,-3.7436,2042
11,0.0972,-1.4429,-0.1511,-2.4422,0.549,-3.6708,2039
11,0.1152,-1.4624,-0.0916,-2.585,0.5432,-3.568,2034
11,0.0696,-1.4402,-0.0696,-2.7493,0.653,-3.4981,2039
11,-0.0005,-1.4189,-0.0764,-2.9099,0.8244,-3.4464,2045
11,0.0061,-1.3584,-0.0334,-3.0307,0.9644,-3.3425,2043
11,-0.0215,-1.3481,0.0168,-3.2267,1.1913,-3.2308,2039
11,-0.0691,-1.2561,0.063,-3.4314,1.4865,-3.065,2044
11,-0.0925,-1.2148,0.1123,-3.6541,1.9254,-3.0011,2210
11,-0.1072,-1.1648,0.1873,-3.9006,2.2306,-2.8343,1839
11,-0.0752,-1.0405,0.1975,-3.9964,2.4958,-2.6765,2003
11,-0.1248,-1.011,0.2324,-4.0514,2.7593,-2.5776,2048
11,-0.0911,-0.9495,0.2175,-4.0297,2.8592,-2.4123,2045
11,-0.0867,-0.9016,0.2068,-3.9727,2.9143,-2.2157,2047
11,0.0312,-0.8708,0.157,-3.8992,3.0082,-2.0153,2045
11,0.1448,-0.8159,0.1245,-3.7396,3.1413,-1.7285,2044
11,0.2332,-0.75,0.095,-3.5589,3.1645,-1.4691,2043
11,0.26,-0.7197,0.1045,-3.3199,3.0139,-1.2113,2041
11,0.304,-0.7319,0.1133,-3.0484,2.7135,-0.8289,2038
11,0.2988,-0.7747,0.1311,-2.8887,2.5353,-0.3634,2042
11,0.2683,-0.7688,0.1194,-2.8007,2.4559,-0.0181,2043
11,0.2419,-0.729,0.1257,-2.6193,2.1015,0.1804,2041
11,0.2441,-0.6997,0.1697,-2.4437,1.341,0.3456,2043
11,0.2456,-0.708,0.2549,-2.1636,0.3774,0.6002,2043
11,0.1782,-0.7725,0.4031,-1.7467,-0.4297,0.8803,2042
11,0.0591,-0.8477,0.5535,-1.4115,-0.7375,1.074,2040
11,-0.0383,-0.9802,0.613,-1.2142,-0.6652,1.1942,2040
11,-0.0535,-1.1274,0.5618,-1.05,-0.6367,1.3543,2039
11,-0.0046,-1.2891,0.4473,-0.7074,-0.7191,1.6502,2043
11,0.0491,-1.4502,0.394,-0.3271,-0.7536,2.0319,2040
11,0.0974,-1.6289,0.4011,-0.1418,-0.6212,2.3422,2051
11,0.1438,-1.7351,0.4524,-0.2599,-0.389,2.6161,2038
11,0.1646,-1.7122,0.5107,-0.5213,-0.2217,2.791,2046
11,0.1926,-1.5156,0.5232,-0.8416,-0.2647,3.0316,2043
11,0.1572,-1.2515,0.4917,-1.1296,-0.4183,3.2352,2043
11,0.0957,-0.9636,0.4553,-1.2452,-0.522,3.3399,2049
11,0.0203,-0.8018,0.3579,-1.1187,-0.5509,3.2834,2042
11,-0.0164,-0.7607,0.1958,-0.7293,-0.4932,3.2994,2040
11,-0.0564,-0.8176,0.0291,-0.2473,-0.3547,3.3941,2038
11,-0.0095,-0.9297,-0.0945,0.1048,-0.1165,3.5083,2039
11,0.0554,-1.0239,-0.168,0.2763,0.2302,3.6182,2041
11,0.1079,-1.1035,-0.198,0.4188,0.5,3.6988,2044
11,0.1638,-1.1804,-0.1675,0.5328,0.7364,3.7707,2046
11,0.2363,-1.2495,-0.1287,0.5713,0.8605,3.8157,2041
11,0.3357,-1.3123,-0.0813,0.5514,0.781,3.8882,2042
11,0.428,-1.354,-0.05,0.5167,0.5627,3.9554,2042
11,0.5312,-1.3953,0.002,0.4392,0.3008,4.0628,2041
11,0.5713,-1.4136,0.072,0.387,0.1194,4.1318,2040
11,0.543,-1.3242,0.1865,0.2662,-0.1907,4.0303,2038
11,0.4985,-1.2351,0.2544,0.2133,-0.7562,3.8749,2043
11,0.3552,-1.1685,0.3906,0.1346,-1.2752,3.6475,2049
11,0.2078,-1.1042,0.4868,0.0948,-1.6134,3.3491,2041
11,0.116,-1.0605,0.5298,0.198,-1.6984,3.1674,2053
12,0.0457,-1.0364,0.5605,0.3663,-1.2447,3.0654,2041
12,0.0046,-0.9875,0.5515,0.5125,-0.6006,2.901,2045
12,0.0791,-0.948,0.5161,0.7233,-0.0678,2.7076,2040
12,0.2612,-0.9182,0.5415,0.9673,0.0663,2.5237,2041
12,0.4956,-0.9521,0.575,1.2531,-0.2982,2.4214,2040
12,0.6624,-1.0598,0.7527,1.5572,-0.5441,2.4836,2048
12,0.8137,-1.0625,0.7737,1.4234,-1.2866,2.1816,2042
12,0.834,-1.0352,0.8083,1.3581,-2.1517,1.8648,2052
12,0.8086,-0.9937,0.8545,1.3146,-2.9831,1.4338,2046
12,0.72,-0.9609,0.8735,1.362,-3.4532,1.0997,2042
12,0.5759,-0.9197,0.9141,1.4745,-3.6452,0.7807,2040
12,0.4475,-0.8562,0.9177,1.751,-3.5766,0.4401,2033
12,0.3787,-0.8625,0.9065,2.1658,-3.1938,0.1282,2041
12,0.4148,-0.9131,0.8987,2.5765,-2.6863,-0.1722,2040
12,0.5093,-0.9883,0.8525,2.7984,-2.2065,-0.4223,2040
12,0.6318,-1.0432,0.7871,2.7729,-1.8752,-0.6161,2043
12,0.7732,-1.0581,0.7148,2.6032,-1.7319,-0.8146,2039
12,0.8877,-1.0417,0.6318,2.4055,-1.7965,-1.0665,2040
12,0.9468,-1.0601,0.5696,2.2372,-1.9403,-1.3489,2039
12,0.967,-1.1721,0.5056,2.0984,-2.1116,-1.655,2041
12,0.9124,-1.2778,0.457,1.8639,-2.2925,-1.9329,2044
12,0.8796,-1.4131,0.3623,1.6198,-2.329,-2.1996,2037
12,0.8611,-1.6108,0.2944,1.4026,-2.2013,-2.4661,2039
12,0.8777,-1.7908,0.2043,1.1548,-2.0704,-2.7014,2038
12,0.8777,-1.8081,0.1733,0.808,-2.1001,-2.9633,2042
12,0.8313,-1.7634,0.208,0.3675,-2.4382,-3.3144,2041
12,0.7312,-1.7139,0.3059,-0.1494,-2.8793,-3.705,2041
12,0.5225,-1.6575,0.2905,-0.4894,-2.8943,-3.955,2041
12,0.3545,-1.5217,0.0588,-0.7127,-2.3643,-4.1787,2037
12,0.1584,-1.3943,-0.2063,-0.6541,-1.6086,-4.3635,2041
12,0.0632,-1.5342,-0.365,-0.8271,-1.3026,-4.3635,2039
12,0.0295,-1.6343,-0.4041,-0.9328,-1.0738,-4.3635,2038
12,0.0645,-1.7136,-0.4185,-1.0521,-0.6116,-4.3635,2040
12,0.1514,-1.7395,-0.4663,-1.3569,-0.3615,-4.3635,2038
12,0.085,-1.8396,-0.3823,-1.8024,-0.4369,-4.3635,2040
12,-0.0303,-1.8901,-0.3374,-2.3009,-0.4848,-4.3635,2037
12,0.0715,-1.7896,-0.3103,-2.6516,-0.467,-4.3635,2035
12,0.085,-1.762,-0.301,-2.8236,-0.2718,-4.3635,2047
12,0.0569,-1.783,-0.2637,-3.0552,-0.1835,-4.3635,2042
12,0.1782,-1.7119,-0.2261,-3.3315,-0.2208,-4.3635,2039
12,0.2781,-1.6287,-0.22,-3.5529,-0.3312,-4.3635,2039
12,0.2122,-1.6682,-0.1152,-3.7965,-0.3454,-4.1793,2040
12,0.2778,-1.5334,-0.0674,-4.0612,-0.4103,-3.848,2042
12,0.1636,-1.4688,-0.0591,-4.2654,-0.4629,-3.7585,2044
12,0.0627,-1.4175,-0.012,-4.3635,-0.4251,-3.5422,2045
12,0.0374,-1.3518,0.0378,-4.3635,-0.2914,-3.3661,2042
12,0.0608,-1.2693,0.0518,-4.3635,-0.0631,-3.3021,2038
12,0.1067,-1.1387,0.0481,-4.3635,-0.0513,-3.1605,2041
12,0.0667,-1.0911,0.071,-4.3635,-0.036,-2.9444,2046
12,0.04,-1.0671,0.1245,-4.3635,0.0908,-2.647,2040
12,0.0344,-1.061,0.2136,-4.3635,0.2414,-2.4321,2042
12,0.0254,-0.9741,0.1785,-4.3635,0.3216,-2.2398,2039
12,0.0259,-0.8606,0.1819,-4.3635,0.2882,-1.9967,2040
12,0.0686,-0.73,0.1433,-4.3635,0.3159,-1.6968,2040
12,0.1338,-0.6411,0.0698,-4.3635,0.4035,-1.4225,2044
12,0.1516,-0.6194,0.0193,-4.3635,0.5478,-1.1392,2042
12,0.1926,-0.6726,0.0542,-4.3635,0.7024,-0.8732,2040
12,0.2246,-0.7698,0.147,-4.3635,0.7686,-0.6028,2041
12,0.2346,-0.8486,0.2168,-4.2109,0.8087,-0.3389,2043
12,0.2671,-0.863,0.2659,-4.0855,0.7096,-0.0502,2042
12,0.3203,-0.8821,0.3032,-4.0512,0.5561,0.2634,2042
12,0.3813,-0.8804,0.3203,-3.8331,0.504,0.5456,2042
12,0.4709,-0.8674,0.4392,-3.4435,0.1281,0.8396,2043
12,0.4963,-0.8523,0.6194,-3.0946,-0.0322,1.35,2044
12,0.4595,-0.8518,0.7744,-2.6831,0.248,1.8727,2046
12,0.3672,-0.8894,0.8218,-2.1658,0.6217,2.2461,2042
12,0.282,-0.9626,0.7766,-1.7078,0.7546,2.5069,2039
12,0.2148,-1.0405,0.7334,-1.4483,0.6054,2.7586,2040
12,0.1287,-1.0828,0.5986,-1.2856,0.2764,3.0146,2039
12,0.0806,-1.1348,0.3704,-0.9761,-0.0764,3.2508,2038
12,0.1016,-1.2332,0.2043,-0.5593,-0.2253,3.4456,2040
12,0.1582,-1.3972,0.0837,-0.0828,-0.1541,3.6624,2045
12,0.2188,-1.531,0.1208,0.1989,-0.0338,3.9141,2045
12,0.1938,-1.4773,0.2534,0.0933,-0.0579,4.0531,2040
12,0.1399,-1.186,0.3059,-0.1129,-0.3578,4.0178,2040
12,0.104,-0.8142,0.2742,-0.0997,-0.8704,3.9329,2042
12,0.1226,-0.6416,0.144,0.2112,-1.342,3.9213,2042
12,0.1416,-0.7166,-0.0527,0.8168,-1.543,3.9547,2045
12,0.1904,-0.8987,-0.2334,1.4239,-1.5287,4.0586,2039
12,0.2393,-1.1301,-0.426,1.8691,-1.3215,4.204,2039
12,0.3274,-1.3267,-0.5664,2.1969,-0.9778,4.3547,2042
12,0.4761,-1.4697,-0.6284,2.5072,-0.7568,4.3634,2040
12,0.6025,-1.5295,-0.5867,2.7793,-0.8232,4.3634,2037
12,0.7092,-1.49,-0.5095,3.0026,-1.061,4.3634,2047
12,0.7551,-1.5195,-0.3345,3.1762,-1.3711,4.3634,2044
12,0.7598,-1.5938,-0.1924,3.1589,-1.8239,4.3634,2043
12,0.7488,-1.6816,0.0317,3.0851,-2.4623,4.3634,2042
12,0.6516,-1.6782,0.1323,2.8633,-3.1994,4.3634,2040
12,0.5718,-1.6741,0.3486,2.622,-3.7147,4.3634,2041
12,0.4375,-1.6001,0.4753,2.4237,-3.9291,4.3634,2039
12,0.3264,-1.54,0.6072,2.4125,-4.043,4.3634,2042
12,0.2556,-1.4622,0.7158,2.4413,-4.3547,4.0282,2043
12,0.2571,-1.5024,0.824,2.3124,-4.3635,3.6756,2042
12,0.2849,-1.4727,0.9434,2.096,-4.3635,3.2355,2043
12,0.3435,-1.4116,0.9551,1.8809,-4.3635,2.8015,2036
12,0.3762,-1.3994,0.8701,1.7781,-4.1643,2.4866,2041
12,0.3506,-1.397,0.7478,1.7753,-3.4505,2.2533,2044
12,0.4028,-1.3557,0.6248,1.8559,-2.9329,2.0883,2040
12,0.5618,-1.304,0.4802,2.0586,-2.7129,1.8394,2045
12,0.6992,-1.2756,0.3445,2.3482,-2.6771,1.5527,2044
12,0.8506,-1.2629,0.2319,2.4479,-2.6187,1.2463,2048
12,0.9089,-1.2236,0.0964,2.4076,-2.5617,0.9337,2042
12,1.0103,-1.1357,0.0388,2.3386,-2.6585,0.5903,2043
13,1.083,-1.0374,0.0288,2.333,-2.8046,0.2799,2049
13,1.1545,-0.929,0.0508,2.3794,-2.8727,-0.0573,2044
13,1.2507,-0.8633,0.0933,2.4464,-3.0027,-0.3892,2042
13,1.2629,-0.854,0.1294,2.446,-3.1464,-0.7195,2048
13,1.1436,-0.8687,0.1689,2.4083,-3.1267,-1.019,2039
13,1.0134,-0.8923,0.1917,2.3174,-2.9329,-1.3655,2039
13,0.8865,-0.9397,0.252,2.1487,-2.73,-1.7355,2039
13,0.7622,-1.0483,0.363,1.876,-2.5551,-2.115,2037
13,0.6682,-1.1902,0.4531,1.4709,-2.316,-2.4354,2036
13,0.5652,-1.3037,0.4653,1.0496,-1.9579,-2.7263,2058
13,0.5046,-1.4121,0.4248,0.7332,-1.5635,-3.0068,2028
13,0.5212,-1.5068,0.3372,0.4349,-1.3403,-3.2405,2026
13,0.5293,-1.5237,0.2644,0.1076,-1.2015,-3.4009,2039
13,0.5374,-1.5349,0.1465,-0.1011,-1.0824,-3.5438,2038
13,0.5393,-1.5808,0.0571,-0.1756,-0.9901,-3.6595,2042
13,0.5801,-1.6172,-0.0244,-0.2747,-0.9259,-3.7523,2038
13,0.6323,-1.6196,-0.0999,-0.3694,-0.8885,-3.7522,2042
13,0.6094,-1.4902,-0.1738,-0.4799,-0.8589,-3.7736,2039
13,0.6262,-1.3855,-0.1829,-0.6629,-0.8606,-3.8391,2045
13,0.5842,-1.3457,-0.2278,-1.0503,-0.9062,-4.0153,2051
13,0.4941,-1.4214,-0.2488,-1.4717,-0.9114,-4.2608,2048
13,0.2856,-1.4517,-0.2852,-1.6242,-0.719,-4.2519,2037
13,0.1609,-1.5337,-0.2666,-1.8472,-0.316,-4.3126,2045
13,0.1665,-1.4419,-0.301,-1.9037,0.1119,-4.1812,2038
13,0.2175,-1.4775,-0.2388,-2.0034,0.4556,-4.031,2038
13,0.1572,-1.4624,-0.2112,-2.2582,0.7098,-3.8994,2040
13,0.1934,-1.3489,-0.219,-2.4697,0.7586,-3.8554,2042
13,0.2339,-1.2217,-0.2522,-2.5048,0.5948,-3.8411,2042
13,0.134,-1.2046,-0.3462,-2.5597,0.6881,-3.8586,2044
13,0.125,-1.1946,-0.3718,-2.5498,0.7895,-3.7561,2040
13,0.1067,-1.2356,-0.3337,-2.6259,0.9194,-3.641,2034
13,0.1941,-1.2122,-0.2998,-2.8007,1.0401,-3.4435,2039
13,0.218,-1.1587,-0.238,-3.0104,1.089,-3.3933,2043
13,0.1616,-1.0613,-0.1985,-3.2151,1.0489,-3.3662,2038
13,0.1978,-0.9609,-0.1504,-3.4869,0.9154,-3.3895,2038
13,0.2053,-0.7844,-0.1921,-3.603,0.6935,-3.2648,2039
13,0.1133,-0.8245,-0.1558,-3.6466,0.5562,-3.1688,2041
13,0.0835,-0.8733,-0.1191,-3.8415,0.4722,-3.0415,2039
13,0.0918,-0.8486,-0.0811,-3.9743,0.4458,-2.8381,2041
13,0.1104,-0.8164,-0.0518,-4.0843,0.4192,-2.7052,2040
13,0.0518,-0.8511,0.0217,-4.3193,0.471,-2.6163,2035
13,-0.0095,-0.8501,0.05,-4.3635,0.6468,-2.4912,2043
13,-0.0237,-0.8152,0.0508,-4.3635,0.8236,-2.3049,2041
13,0.0137,-0.7788,0.0684,-4.3635,0.9597,-2.0743,2036
13,0.0681,-0.7744,0.0618,-4.3635,1.1288,-1.7958,2039
13,0.1497,-0.7437,0.0632,-4.3635,1.3403,-1.5278,2039
13,0.2656,-0.7271,0.0842,-4.3635,1.5708,-1.2513,2041
13,0.3535,-0.718,0.1167,-4.3635,1.7339,-0.9019,2047
13,0.3938,-0.7051,0.1841,-4.3635,1.808,-0.5062,2041
13,0.4004,-0.7056,0.2671,-4.3635,1.7612,-0.0983,2038
13,0.3821,-0.7412,0.3579,-4.3635,1.6017,0.3288,2043
13,0.3533,-0.8215,0.4624,-4.3602,1.5218,0.7461,2039
13,0.3071,-0.9128,0.5305,-4.2518,1.487,1.156,2041
13,0.2686,-0.9729,0.5732,-4.0254,1.505,1.5885,2043
13,0.2078,-1.0117,0.6145,-3.7027,1.5126,1.9714,2044
13,0.1133,-1.0312,0.6289,-3.3107,1.3925,2.2297,2040
13,0.0852,-1.0552,0.6335,-2.8911,1.1204,2.4408,2041
13,0.0459,-1.134,0.6414,-2.5009,0.7979,2.5802,2045
13,0.0642,-1.2617,0.5879,-2.1427,0.2533,2.6457,2037
13,0.1089,-1.3992,0.4829,-1.8102,-0.2626,2.7408,2041
13,0.1938,-1.5796,0.3489,-1.5687,-0.5156,2.8099,2045
13,0.2786,-1.7725,0.1926,-1.379,-0.6052,2.9693,2041
13,0.3633,-1.9624,0.0571,-1.2198,-0.7243,3.272,2042
13,0.4204,-1.9971,0.0552,-1.0794,-0.9331,3.6564,2036
13,0.3916,-1.7852,0.2036,-1.191,-1.1665,4.0587,2048
13,0.3018,-1.4087,0.3708,-1.5195,-1.5091,4.2546,2047
13,0.1584,-1.0876,0.4553,-1.7594,-2.017,4.1643,2045
13,0.0146,-0.8572,0.4353,-1.7363,-2.5269,3.9825,2044
13,-0.1116,-0.7903,0.2507,-1.2708,-2.8267,3.8183,2038
13,-0.1709,-0.8726,0.0002,-0.5279,-2.7742,3.7684,2032
13,-0.1658,-1.0129,-0.1978,0.1862,-2.433,3.7683,2038
13,-0.113,-1.178,-0.3323,0.6538,-1.8803,3.7889,2042
13,-0.0146,-1.3103,-0.449,1.036,-1.3161,3.7941,2048
13,0.1462,-1.4175,-0.4961,1.4984,-1.074,3.8559,2040
13,0.3396,-1.5251,-0.4907,1.901,-1.166,3.9912,2040
13,0.551,-1.6812,-0.4546,2.2557,-1.4123,4.1698,2043
13,0.8296,-1.8215,-0.3264,2.422,-1.7458,4.3634,2041
13,0.9546,-1.8799,-0.1604,2.3501,-2.2081,4.3634,2045
13,0.9553,-1.8567,0.0579,2.173,-2.6834,4.3634,2045
13,0.9053,-1.8293,0.241,1.7713,-3.3552,4.3634,2040
13,0.8308,-1.7715,0.3862,1.6261,-4.0956,4.3634,2040
13,0.6633,-1.6506,0.5276,1.6314,-4.3635,4.2461,2043
13,0.4917,-1.6553,0.6741,1.5689,-4.3635,4.0861,2039
13,0.2368,-1.5974,0.7961,1.3611,-4.3635,3.7814,2042
13,0.083,-1.4368,0.8562,1.271,-4.3635,3.4327,2042
13,-0.0017,-1.3162,0.842,1.3953,-3.8861,3.0476,2042
13,0.0247,-1.2583,0.7659,1.5459,-3.0664,2.7469,2040
13,0.1416,-1.2041,0.698,1.6056,-2.3542,2.4232,2044
13,0.3459,-1.178,0.6372,1.6606,-1.9169,2.0703,2046
13,0.5947,-1.166,0.5935,1.7285,-1.7299,1.7554,2045
13,0.7952,-1.1123,0.4282,1.8441,-1.6784,1.5183,2042
13,0.8596,-1.1604,0.4277,1.9165,-1.5876,1.2649,2044
13,0.7576,-1.1843,0.2837,1.6952,-1.9775,0.8264,2038
13,0.7349,-1.1047,0.1545,1.6034,-2.5192,0.5445,2043
13,0.7085,-0.9785,0.1104,1.5737,-2.807,0.2822,2042
13,0.7153,-0.8657,0.0935,1.6531,-2.7255,-0.0297,2044
13,0.7542,-0.7737,0.1448,1.7556,-2.5665,-0.2637,2040
13,0.7671,-0.7166,0.1572,1.8852,-2.4647,-0.4855,2042
13,0.7698,-0.6545,0.1509,2.0393,-2.4734,-0.6817,2044
13,0.7505,-0.6355,0.1436,2.1788,-2.5298,-0.8977,2041
13,0.7229,-0.7253,0.1006,2.2435,-2.5452,-1.2086,2043
13,0.6631,-0.9189,0.0945,2.1961,-2.4541,-1.4865,2035
14,0.5923,-1.1536,0.1179,2.0535,-2.2971,-1.6969,2040
14,0.5027,-1.3652,0.1626,1.7757,-2.3025,-1.8863,2036
14,0.4133,-1.4897,0.2354,1.3738,-2.3959,-2.0743,2041
14,0.3496,-1.5837,0.3635,0.8464,-2.5779,-2.321,2037
14,0.2871,-1.5972,0.3806,0.4018,-2.6574,-2.5357,2035
14,0.218,-1.6016,0.4285,0.1333,-2.6759,-2.6811,2037
14,0.1687,-1.553,0.4116,-0.3956,-2.5113,-2.857,2038
14,0.1208,-1.4121,0.2988,-0.6861,-2.2642,-3.0002,2040
14,0.1382,-1.2397,0.1938,-0.8937,-1.9583,-3.1148,2042
14,0.1514,-1.0854,0.106,-1.0341,-1.5755,-3.2251,2046
14,0.1943,-1.0471,0.0415,-1.0754,-1.1836,-3.3585,2040
14,0.2178,-1.0811,-0.0088,-1.081,-0.848,-3.4565,2044
14,0.2524,-1.1252,-0.0684,-1.0568,-0.5783,-3.492,2045
14,0.2625,-1.197,-0.113,-1.1499,-0.4199,-3.5228,2039
14,0.2676,-1.2319,-0.1755,-1.2332,-0.4332,-3.5007,2038
14,0.2571,-1.2737,-0.1741,-1.3161,-0.4441,-3.4244,2039
14,0.2417,-1.3123,-0.2109,-1.5566,-0.3581,-3.3138,2035
14,0.231,-1.2732,-0.2502,-1.7888,-0.2024,-3.1288,2039
14,0.2534,-1.2244,-0.2898,-1.8261,0.0105,-2.9734,2044
14,0.2754,-1.1753,-0.3162,-1.8025,0.2184,-2.8759,2042
14,0.2874,-1.1475,-0.3169,-1.8566,0.3749,-2.8022,2042
14,0.282,-1.1201,-0.2778,-1.8646,0.502,-2.7552,2040
14,0.2676,-1.0874,-0.2476,-1.8968,0.6474,-2.7112,2040
14,0.2554,-1.0596,-0.1785,-1.927,0.7159,-2.6533,2041
14,0.2334,-1.0295,-0.1418,-1.9136,0.753,-2.581,2039
14,0.2876,-1.0088,-0.0525,-1.9514,0.767,-2.4368,2043
14,0.2524,-0.9924,-0.0005,-2.0684,0.8724,-2.3397,2039
14,0.2271,-0.9451,0.0291,-2.1715,0.9246,-2.2344,2042
14,0.1655,-0.9072,0.0383,-2.2728,0.8994,-2.2165,2039
14,0.1875,-0.887,0.0547,-2.3575,0.8067,-2.1546,2041
14,0.1877,-0.8877,0.0642,-2.4172,0.7043,-2.0754,2038
14,0.1897,-0.9119,0.0801,-2.4618,0.6931,-2.0081,2039
14,0.2014,-0.9084,0.1118,-2.5701,0.671,-1.8692,2040
14,0.1816,-0.8977,0.1257,-2.6674,0.7356,-1.7342,2039
14,0.1558,-0.8696,0.1313,-2.7464,0.893,-1.586,2040
14,0.1692,-0.8589,0.1321,-2.7725,1.0792,-1.4431,2040
14,0.1931,-0.8345,0.113,-2.7805,1.2762,-1.2573,2042
14,0.2249,-0.8108,0.0991,-2.7496,1.4561,-1.0938,2041
14,0.2725,-0.8306,0.0747,-2.6364,1.4464,-0.9954,2044
14,0.3552,-0.8884,0.0986,-2.5008,1.1918,-0.8479,2040
14,0.4204,-0.9795,0.1594,-2.3514,0.8062,-0.6512,2033
14,0.4312,-1.073,0.2634,-2.2953,0.5171,-0.4509,2039
14,0.3936,-1.1213,0.3347,-2.2758,0.4494,-0.2607,2043
14,0.3125,-1.1104,0.3738,-2.2237,0.5293,-0.017,2042
14,0.2573,-1.0469,0.3901,-2.1238,0.5754,0.2007,2041
14,0.2495,-0.9663,0.3762,-1.9446,0.491,0.398,2041
14,0.2686,-0.8962,0.3411,-1.7014,0.2919,0.5924,2041
14,0.3521,-0.9111,0.2715,-1.3549,0.0324,0.8384,2040
14,0.4612,-1.0303,0.1907,-0.954,-0.0955,1.1171,2043
14,0.5295,-1.1755,0.1187,-0.6233,-0.0064,1.4565,2040
14,0.5366,-1.2976,0.0725,-0.3671,0.2527,1.7885,2040
14,0.5459,-1.323,0.1033,-0.1426,0.5063,2.1253,2042
14,0.5378,-1.2107,0.3096,-0.1958,0.4307,2.4009,2039
14,0.4575,-0.9531,0.501,-0.5192,0.1911,2.544,2043
14,0.3518,-0.7366,0.6118,-0.8243,-0.1426,2.5035,2045
14,0.2212,-0.5725,0.5847,-0.921,-0.4691,2.3226,2039
14,0.1211,-0.5283,0.428,-0.7312,-0.5723,2.2144,2040
14,0.0635,-0.5569,0.1921,-0.3489,-0.3754,2.266,2041
14,0.0566,-0.616,-0.0137,0.091,0.0487,2.4446,2038
14,0.0774,-0.7502,-0.2024,0.5406,0.5885,2.6342,2038
14,0.1421,-0.894,-0.3042,0.9003,1.0737,2.8164,2040
14,0.2383,-1.0166,-0.3479,1.1464,1.423,2.9814,2039
14,0.3215,-1.0911,-0.3447,1.2971,1.5394,3.1234,2038
14,0.4536,-1.1392,-0.3103,1.4533,1.3894,3.2794,2038
14,0.634,-1.1951,-0.22,1.7397,0.8693,3.3471,2043
14,0.7488,-1.2812,-0.1477,1.6656,0.2436,3.4528,2045
14,0.7788,-1.313,-0.1555,1.4653,-0.3694,3.5675,2043
14,0.7661,-1.3044,-0.1592,1.3113,-0.8696,3.654,2044
14,0.6487,-1.3093,-0.1177,1.2766,-1.1725,3.7257,2041
14,0.571,-1.3132,-0.0249,1.1959,-1.4812,3.7451,2043
14,0.5164,-1.3137,-0.0032,1.4187,-1.869,3.8442,2041
14,0.3979,-1.2605,0.0444,1.5652,-2.3477,3.7491,2041
14,0.2092,-1.1687,0.1707,1.5567,-2.4296,3.4336,2041
14,0.0388,-1.1848,0.2424,1.5199,-2.1897,3.2208,2044
14,-0.0427,-1.2563,0.2881,1.5266,-1.6689,3.0871,2043
14,-0.0764,-1.3508,0.3413,1.5146,-0.9441,3.0827,2038
14,-0.0935,-1.4187,0.4092,1.396,-0.0611,3.0002,2042
14,-0.0088,-1.4253,0.4729,1.1452,0.7602,3.0002,2040
14,0.1509,-1.4265,0.5366,0.893,1.2816,3.0546,2043
14,0.3179,-1.4058,0.5984,0.6159,1.4348,3.0273,2044
14,0.4368,-1.3916,0.7014,0.2638,1.532,2.9898,2040
14,0.4387,-1.2727,0.71,-0.1168,1.8057,2.7549,2046
14,0.4006,-1.177,0.645,-0.3834,2.2081,2.5252,2042
14,0.4707,-1.1973,0.6108,-0.551,2.6848,2.5344,2041
14,0.4875,-1.0725,0.6033,-0.6762,3.0688,2.2935,2042
14,0.6638,-0.8818,0.4836,-0.8403,3.2774,1.8793,2046
14,1.9999,-0.9578,1.1121,2.9597,3.7998,-0.7444,1956
14,0.8967,-0.8572,0.5117,1.5869,1.7685,-0.6031,2086
14,0.272,-0.6631,0.0837,1.3077,0.3942,-0.2497,2047
14,-0.1738,-1.0654,0.0686,1.3287,0.9554,-0.2445,2017
14,-0.0439,-1.0354,0.0625,1.4362,2.2332,-0.3253,2067
14,-0.0112,-0.9756,0.1609,1.6349,3.5212,-0.0366,2055
14,-0.062,-0.958,0.3472,1.4833,4.3634,0.4024,2109
14,-0.0605,-0.8215,0.4519,1.239,4.3634,0.6927,1954
14,0.0117,-0.8396,0.4521,0.544,4.3634,1.3655,1964
14,0.2358,-0.5723,0.3726,0.2617,4.3634,1.1488,2023
14,0.3845,-0.5266,0.2583,0.0824,3.7676,0.4099,2041
14,0.3582,-0.6511,0.0222,0.0808,2.5494,-0.1434,2036
14,0.1682,-0.9475,0.0396,1.0413,2.5349,-0.2551,2047
14,-0.0613,-1.0916,0.3547,2.1798,3.5091,-0.3342,2051
14,-0.2034,-1.0342,0.3677,2.0899,4.0279,-0.3135,2039
14,-0.2036,-0.9546,0.2214,1.8433,4.096,-0.0322,2042
14,-0.1636,-0.8276,0.1326,1.9639,3.8988,0.0605,2045
14,-0.1348,-0.832,0.1482,2.4502,3.6572,0.1449,2041
14,-0.1257,-0.8616,0.251,2.779,3.469,0.0369,2042
