Timestamp,Ax,Ay,Az,Rx,Ry,Rz,EMG
0,0.916,-1.8914,-0.6848,-0.4481,0.0033,-0.0477,1948
0,0.5571,-2.0,-0.625,-0.2225,0.5172,-0.1999,2074
0,0.5295,-2.0,-0.3069,-0.0073,0.9849,-0.151,2094
0,0.8467,-2.0,-0.0388,0.0719,1.1011,-0.0509,2107
0,1.2029,-1.9875,0.0925,0.1353,0.9476,0.0481,1929
0,1.2156,-1.7188,0.0369,0.1252,0.6408,0.1887,2102
0,1.0024,-1.4412,-0.0918,0.0651,0.561,0.3787,2028
0,0.6487,-1.177,-0.2,0.0442,0.5726,0.6769,2247
0,0.4966,-1.1785,-0.4082,-0.1392,0.5654,0.7636,1831
0,0.3245,-1.2549,-0.5151,-0.2424,0.6947,0.7574,2090
0,0.4248,-1.4172,-0.4626,-0.5517,0.8572,0.6369,2146
0,0.4307,-1.3408,-0.9656,-0.4103,0.9184,0.5904,2083
0,0.1467,-0.6345,-0.9973,-0.5283,0.5502,0.5709,2116
0,0.2712,-1.136,-0.7764,-0.6517,1.8968,-0.0157,1743
0,-0.1792,-0.2305,-0.259,-0.0321,1.0351,0.1242,2212
0,0.407,-0.7393,-0.3315,-0.3164,1.2126,-0.0975,1927
0,0.3496,-0.6973,-0.1953,0.0521,0.695,0.1047,2111
0,0.3293,-0.7002,-0.1338,0.0929,0.6275,0.1487,2229
0,0.4246,-0.8232,-0.1638,-0.0796,0.5557,0.1389,1995
0,0.4421,-0.8086,0.0015,-0.0842,0.7544,0.238,2108
0,0.2639,-0.6748,-0.114,0.1792,0.5771,0.5227,2063
0,0.5679,-0.8164,-0.1094,0.0168,0.6865,0.2598,2155
0,0.519,-0.7661,-0.1853,0.0067,0.5267,0.2063,1934
0,0.3806,-0.5498,-0.1382,0.0437,0.4635,0.2318,2072
0,0.3076,-0.4324,-0.0171,0.0762,0.5075,0.3374,2012
0,0.2705,-0.396,-0.0305,0.1277,0.3064,0.3176,2110
0,0.3325,-0.4382,-0.1299,0.1575,0.3619,0.1898,1965
0,0.2593,-0.385,-0.1965,0.1956,0.3342,0.0502,2022
0,0.177,-0.375,-0.2185,0.1936,0.275,0.0274,2060
0,0.0876,-0.4209,-0.1748,0.1537,0.3169,0.024,2093
0,0.0027,-0.4202,-0.2056,0.2047,0.3513,0.073,1952
0,-0.0532,-0.4587,-0.304,0.2642,0.2025,0.1477,2017
0,0.0552,-0.4792,-0.3267,0.3448,0.0883,0.1348,2091
0,0.1982,-0.4395,-0.3064,0.4509,-0.0316,0.0333,2004
0,0.2446,-0.4209,-0.2034,0.5263,-0.1105,-0.1807,2106
0,0.3401,-0.468,-0.4097,0.3366,-0.4904,-0.3876,1996
0,0.3357,-0.6211,-0.3394,0.0819,-0.4468,-0.6457,1982
0,0.2563,-0.5991,-0.428,-0.0577,-0.7079,-0.7026,2190
0,0.2224,-0.5972,-0.3992,-0.0182,-0.6549,-0.6614,2052
0,0.2124,-0.574,-0.2363,0.0185,-0.371,-0.6035,2113
0,0.218,-0.6025,-0.2358,0.0744,-0.5149,-0.5761,1956
0,0.3501,-0.7173,-0.2029,0.0763,-0.5719,-0.5428,1935
0,0.3638,-0.8445,-0.1904,0.0414,-0.6205,-0.552,1947
0,0.2759,-0.9287,-0.1731,0.0688,-0.5445,-0.4725,1956
0,0.262,-0.9011,-0.1099,0.1772,-0.3746,-0.3077,2154
0,0.3113,-0.8518,-0.1514,0.2432,-0.2729,-0.3104,2168
0,0.4299,-0.949,-0.2522,0.2811,-0.2824,-0.3551,2252
0,0.4631,-1.1042,-0.2671,0.3615,-0.2759,-0.3233,2172
0,0.3943,-1.2087,-0.0808,0.5115,-0.3257,-0.1151,1929
0,0.3911,-1.2917,0.0154,0.5175,-0.4694,0.0827,2047
0,0.459,-1.344,0.009,0.5361,-0.4882,0.1856,1972
0,0.4319,-1.239,-0.127,0.5892,-0.5277,0.3807,2093
0,0.5452,-1.2234,-0.3223,0.6686,-0.653,0.6975,2047
0,0.7239,-1.2937,-0.429,0.8717,-0.5276,0.8459,2047
0,0.8083,-1.4314,-0.3154,0.9401,-0.3161,0.808,2012
0,0.7605,-1.5823,-0.1294,0.9288,-0.1136,0.5814,1950
0,0.9133,-1.5305,-0.0349,0.7353,-0.1637,0.612,1982
0,1.1245,-1.2239,0.0496,0.8403,-0.1396,0.8004,2028
0,1.1904,-0.8999,-0.0818,0.6918,-0.2177,0.8762,2115
0,1.0586,-0.8235,-0.1897,0.6983,-0.4537,0.8913,1987
0,0.8071,-0.8284,-0.3767,0.6933,-0.3709,0.7859,2040
0,0.5823,-0.8022,-0.4106,0.7275,-0.1774,0.8291,2070
0,0.4548,-0.8345,-0.3584,0.7558,0.0273,0.8681,2044
0,0.4719,-0.9414,-0.3433,0.6794,0.2016,0.6874,2104
0,0.5632,-1.009,-0.3386,0.7168,0.322,0.5608,1967
0,0.5869,-0.8621,-0.073,1.0361,0.2469,0.6778,2069
0,0.7063,-0.7703,-0.0352,1.0242,-0.0092,0.5292,2044
0,0.7158,-0.7959,0.0273,1.1985,-0.1963,0.2683,2048
0,0.6023,-0.6965,0.0645,1.3647,-0.3779,0.1352,2060
0,0.5627,-0.5667,0.1416,1.4197,-0.5275,0.0574,2050
0,0.5508,-0.5056,0.0974,1.4115,-0.5943,0.0463,2056
0,0.4922,-0.4854,0.0325,1.4071,-0.591,0.0739,2102
0,0.4341,-0.4705,-0.0308,1.3591,-0.5719,0.1238,2031
0,0.342,-0.4241,-0.0698,1.2488,-0.4848,0.1984,2119
0,0.2612,-0.3423,-0.114,1.1822,-0.3191,0.2871,1978
0,0.219,-0.2759,-0.0867,1.1604,-0.1706,0.3623,2036
0,0.188,-0.24,-0.0642,1.0833,0.0088,0.3726,2084
0,0.1045,-0.1882,-0.0557,1.0553,0.1119,0.4372,2077
0,0.0579,-0.1487,-0.0471,1.0531,0.0352,0.547,2019
0,0.1216,-0.2668,-0.062,1.101,0.0533,0.4733,2117
0,0.1619,-0.509,-0.0527,1.1915,0.006,0.3184,2003
0,0.1458,-0.7659,0.0247,1.1103,-0.2687,0.172,2091
0,0.1458,-0.8784,-0.0178,0.9495,-0.4578,-0.1096,2171
0,0.1365,-0.8982,-0.1118,0.6967,-0.5136,-0.3207,2048
0,0.0288,-0.9045,-0.2188,0.4321,-0.5321,-0.4075,2101
0,0.0095,-0.8542,-0.3342,0.2491,-0.7006,-0.414,1976
0,0.1091,-0.7639,-0.4111,0.276,-0.797,-0.4462,1970
0,0.1091,-0.7288,-0.3933,0.3671,-0.9959,-0.3814,1864
0,0.106,-0.7017,-0.3159,0.5189,-1.2351,-0.2709,2084
0,0.1375,-0.6667,-0.2739,0.706,-1.5029,-0.1451,1976
0,0.1941,-0.6233,-0.1924,0.8046,-1.6202,0.0138,2025
0,0.2366,-0.6143,-0.1265,0.901,-1.6756,0.1858,2258
0,0.229,-0.7158,-0.0598,0.9324,-1.6347,0.3113,2000
0,0.3162,-0.9255,0.0474,1.0214,-1.4387,0.4341,2026
0,0.4001,-1.1367,0.1311,1.0698,-1.184,0.4315,2027
0,0.5535,-1.3926,0.0815,1.0383,-0.9465,0.4064,1900
0,0.5999,-1.5254,0.2478,1.1516,-0.4963,0.5653,2018
0,0.6091,-1.4451,0.5833,1.411,-0.5269,0.7062,1996
0,0.8269,-1.3943,0.8489,1.4472,-0.3928,0.9014,2238
0,0.8096,-1.2764,0.9978,1.595,-0.1622,0.8993,1897
0,0.5996,-1.3118,1.0784,1.3146,0.0595,0.9939,1996
0,0.5095,-1.3457,0.8621,1.1561,0.0354,0.9464,2245
0,0.356,-1.4814,0.7849,1.0164,0.3147,0.8252,2033
0,0.2356,-1.5371,0.6714,0.7682,0.3518,0.7264,2055
1,0.1545,-1.5918,0.5701,0.5039,0.524,0.6694,1956
1,0.2073,-1.6179,0.4438,0.5803,0.504,0.7223,2300
1,0.4961,-1.5747,0.4536,0.6335,0.1952,0.656,2012
1,0.6326,-1.7212,0.4399,0.5922,-0.1149,0.4915,2036
1,0.6677,-1.7649,0.4207,0.541,-0.5806,0.2927,2049
1,0.5557,-1.6765,0.4053,0.4813,-0.8403,0.1152,2040
1,0.457,-1.635,0.3562,0.4675,-0.9818,-0.0571,2061
1,0.3616,-1.5874,0.3125,0.3951,-0.8112,-0.0824,2026
1,0.3635,-1.4595,0.2969,0.3193,-0.7714,-0.1467,2062
1,0.2791,-1.3977,0.2937,0.2318,-0.6809,-0.1637,2015
1,0.3022,-1.3132,0.2671,0.0939,-0.6682,-0.1424,2057
1,0.3,-1.1899,0.2874,0.0075,-0.6436,-0.1473,2045
1,0.2686,-1.0493,0.2622,0.0228,-0.5181,-0.1372,2211
1,0.2581,-0.9197,0.2615,0.1611,-0.5249,-0.0879,2027
1,0.3037,-0.8582,0.2302,0.1208,-0.4313,-0.041,2101
1,0.3035,-0.7896,0.2231,0.122,-0.1914,-0.0465,2041
1,0.2817,-0.7256,0.2249,0.0499,-0.1694,-0.0348,2049
1,0.2219,-0.6506,0.2039,0.0419,-0.0851,-0.0389,2031
1,0.1465,-0.6624,0.2122,0.014,0.0818,-0.0858,2061
1,0.0903,-0.6575,0.1956,0.0036,0.2023,-0.1486,2065
1,0.0889,-0.6035,0.1672,-0.0622,0.3516,-0.1812,2024
1,0.1431,-0.5818,0.1396,-0.1019,0.4892,-0.2527,2040
1,0.1738,-0.5591,0.1042,-0.2187,0.4976,-0.2743,2049
1,0.1702,-0.5312,0.0583,-0.3192,0.4809,-0.2903,2063
1,0.1787,-0.5037,0.0581,-0.371,0.4325,-0.3152,2079
1,0.1777,-0.4426,0.0286,-0.3762,0.3907,-0.3557,2023
1,0.1685,-0.4507,0.0034,-0.3646,0.3773,-0.4071,2056
1,0.157,-0.4324,0.0068,-0.3032,0.2703,-0.4209,2037
1,0.1648,-0.4453,-0.0305,-0.2583,0.2261,-0.446,2069
1,0.1758,-0.4849,-0.0603,-0.195,0.1558,-0.4734,2044
1,0.1951,-0.5295,-0.0503,-0.1277,0.1061,-0.4874,2064
1,0.1748,-0.5706,-0.0344,-0.0728,0.0169,-0.4718,2049
1,0.1794,-0.6023,-0.063,-0.0096,-0.1272,-0.4153,2166
1,0.1904,-0.6299,-0.0857,0.0848,-0.2112,-0.342,1977
1,0.1418,-0.6775,-0.0439,0.1352,-0.2418,-0.2759,2096
1,0.1267,-0.7175,-0.0134,0.1875,-0.3233,-0.2717,2126
1,0.1465,-0.7627,0.0012,0.1798,-0.4336,-0.2257,1992
1,0.126,-0.752,0.0249,0.1967,-0.4252,-0.1946,2032
1,0.1233,-0.7556,0.0493,0.1914,-0.4433,-0.0933,2010
1,0.0889,-0.7493,0.0671,0.2107,-0.3986,-0.0306,2000
1,0.1006,-0.8433,0.0933,0.22,-0.2285,0.0237,2183
1,0.0967,-0.8987,0.1355,0.1912,-0.1196,0.0662,2112
1,0.1226,-0.9124,0.1633,0.1461,-0.0349,0.1127,2031
1,0.1477,-0.8904,0.1528,0.1238,0.1111,0.179,2139
1,0.1482,-0.8733,0.1846,0.1023,0.1674,0.2373,2061
1,0.1772,-0.8965,0.1965,0.0779,0.1646,0.2389,2169
1,0.2747,-0.9131,0.188,0.125,0.0723,0.2342,2006
1,0.3826,-0.9939,0.2114,0.1654,-0.067,0.2113,2008
1,0.4346,-1.071,0.1448,0.1782,-0.298,0.2281,2032
1,0.4619,-1.1768,0.1782,0.23,-0.52,0.2163,2138
1,0.5227,-1.3398,0.2627,0.2233,-0.5886,0.0666,2134
1,0.5391,-1.2961,0.3274,0.2221,-0.6986,0.0961,2109
1,0.4756,-1.2844,0.3279,0.1902,-0.6357,0.2385,2098
1,0.5151,-1.2395,0.3472,0.1064,-0.4031,0.3771,2178
1,0.3557,-1.25,0.4434,-0.1132,0.3774,0.328,2256
1,0.2649,-1.3298,0.446,-0.295,1.1464,0.2505,1965
1,0.3799,-1.3271,0.6084,-0.609,2.186,0.1867,2039
1,0.542,-1.313,0.7048,-0.9505,2.9267,0.1597,2033
1,0.6716,-1.2791,0.7397,-1.1117,2.9586,0.0775,1954
1,0.6201,-1.3428,0.6086,-0.9871,2.0784,0.0513,2071
1,0.6016,-1.3303,0.415,-0.7581,1.1685,-0.0112,2025
1,0.5869,-1.3379,0.3047,-0.4634,0.3414,-0.0601,2010
1,0.6011,-1.3359,0.2288,-0.2823,-0.2787,-0.1185,2056
1,0.5735,-1.2197,0.2024,-0.1449,-0.5963,-0.1483,2000
1,0.5044,-1.1643,0.187,-0.0906,-0.6628,-0.1314,2050
1,0.4753,-1.1216,0.1831,-0.0814,-0.5612,-0.0666,2126
1,0.4602,-1.1223,0.1687,-0.1457,-0.3252,0.043,2036
1,0.449,-1.1189,0.1484,-0.2491,-0.0663,0.1212,2101
1,0.3962,-1.0986,0.1296,-0.3773,0.2571,0.1549,2001
1,0.3523,-1.0103,0.123,-0.4378,0.5541,0.2117,2047
1,0.3003,-0.9817,0.127,-0.498,0.77,0.2531,2094
1,0.2795,-0.9268,0.1243,-0.5344,0.8738,0.2759,2058
1,0.269,-0.8394,0.1362,-0.5883,0.8954,0.2754,2063
1,0.2559,-0.7812,0.1206,-0.6706,0.8777,0.2266,2044
1,0.2512,-0.7083,0.115,-0.7336,0.872,0.1689,2041
1,0.2366,-0.6426,0.1348,-0.795,0.8594,0.1151,2045
1,0.2222,-0.6187,0.1326,-0.8472,0.8598,0.0722,2048
1,0.2153,-0.5798,0.1304,-0.8557,0.8349,0.0491,2032
1,0.228,-0.5176,0.1191,-0.7869,0.7926,0.0222,2022
1,0.2522,-0.4851,0.0967,-0.6899,0.6361,0.0511,2094
1,0.1643,-0.415,0.0391,-0.6421,0.5148,0.0461,2100
1,0.1477,-0.4016,0.009,-0.6217,0.5074,0.1425,2013
1,0.0977,-0.2715,-0.062,-0.5452,0.56,0.1988,2045
1,0.158,-0.2959,-0.0786,-0.5187,0.6674,0.3791,2043
1,0.1882,-0.3452,-0.124,-0.4132,0.6015,0.5248,2107
1,0.1433,-0.3894,-0.0784,-0.1554,0.4261,0.6476,2107
1,0.1375,-0.405,0.0186,0.1286,0.2986,0.7566,2062
1,0.2234,-0.3501,0.0413,0.5305,0.0188,0.8601,2006
1,0.1057,-0.4504,0.1323,0.8891,-0.2084,0.8839,2075
1,0.124,-0.5449,0.2209,1.0942,-0.3298,0.7514,2015
1,0.1848,-0.6267,0.2034,1.1945,-0.5414,0.661,2056
1,0.241,-0.7703,0.2134,1.1829,-0.8625,0.6649,2074
1,0.1462,-0.8347,0.2246,1.0609,-0.9019,0.4891,2132
1,0.1306,-0.9531,0.198,0.8231,-0.8373,0.5141,2012
1,0.1067,-0.9944,0.1812,0.6012,-0.7577,0.4406,2021
1,0.0393,-0.9851,0.2356,0.394,-0.5578,0.3565,2072
1,0.1648,-0.9558,0.1614,0.1771,-0.3305,0.3418,2184
1,0.1714,-0.821,0.1553,0.11,-0.308,0.4392,1924
1,0.1384,-0.8489,0.1111,0.1266,-0.2457,0.5635,2082
1,0.1309,-0.9023,0.1594,0.0774,0.0101,0.4866,1997
1,0.4397,-0.8713,0.1624,0.1928,-0.2489,0.4726,2025
2,0.2639,-0.9197,0.2153,0.2052,-0.2256,0.2759,2110
2,0.2825,-0.9712,0.2493,0.227,-0.1872,0.3448,2038
2,0.2297,-1.1138,0.2395,0.2228,-0.0061,0.298,2033
2,0.2432,-1.2605,0.311,0.2615,0.181,0.3461,2007
2,0.2427,-1.3464,0.3823,0.269,0.2051,0.4083,2149
2,0.1155,-1.3425,0.4954,0.0831,0.2594,0.3465,2036
2,0.2483,-1.2327,0.4751,0.0965,-0.1557,0.4739,2024
2,0.2263,-1.1514,0.5466,0.0992,-0.2454,0.434,2177
2,-0.0513,-1.3291,0.6357,-0.0241,-0.243,0.3513,2015
2,0.0681,-1.522,0.5225,-0.0708,-0.2128,0.367,2014
2,-0.0935,-1.6748,0.6016,-0.3745,0.373,0.193,2014
2,-0.1667,-1.593,0.5891,-0.5657,0.609,0.1268,2068
2,-0.1089,-1.5901,0.4453,-0.6622,0.8749,0.1171,2022
2,0.0444,-1.4722,0.3918,-0.6138,1.025,0.1545,2082
2,0.144,-1.4048,0.3489,-0.5647,1.0645,0.1547,2031
2,0.2708,-1.3623,0.3035,-0.5394,1.1162,0.1432,2028
2,0.2864,-1.3801,0.3284,-0.5382,1.1529,0.1188,1963
2,0.2214,-1.3723,0.3313,-0.5344,1.2354,-0.0053,2026
2,0.1409,-1.3621,0.2854,-0.5247,1.3187,-0.0723,2036
2,0.1436,-1.2817,0.2251,-0.412,1.2284,-0.1433,2040
2,0.1548,-1.2668,0.1836,-0.2851,1.0476,-0.2289,2047
2,0.1831,-1.281,0.1406,-0.1268,0.6261,-0.2926,2066
2,0.1562,-1.2834,0.0952,0.029,0.2689,-0.3522,2180
2,0.22,-1.2559,0.1045,0.1244,-0.0197,-0.3626,1982
2,0.1741,-1.2136,0.1023,0.1942,-0.2814,-0.381,2080
2,0.136,-1.1602,0.0972,0.2051,-0.4581,-0.3831,2007
2,0.0605,-1.1025,0.0872,0.1573,-0.3657,-0.3715,2050
2,0.1404,-0.9966,0.0918,0.071,-0.292,-0.4281,2041
2,0.0979,-0.9395,0.1062,0.0031,-0.1309,-0.5031,2048
2,0.2471,-0.8699,0.0552,-0.0125,-0.2021,-0.5331,2104
2,0.207,-0.8213,0.0808,-0.0684,-0.1015,-0.6012,2028
2,0.2988,-0.8069,0.0439,-0.0024,-0.3922,-0.4883,2078
2,0.3164,-0.772,0.012,-0.0377,-0.289,-0.4974,2044
2,0.2466,-0.6943,-0.0098,0.0622,-0.4589,-0.4911,2065
2,0.2061,-0.6414,-0.0305,0.1707,-0.6395,-0.4631,2036
2,0.1616,-0.6455,-0.0212,0.1822,-0.5682,-0.4952,2112
2,0.1523,-0.6328,0.0315,0.123,-0.3108,-0.5228,2123
2,0.1428,-0.6331,0.0693,0.074,-0.1421,-0.4726,2028
2,0.0876,-0.5737,0.0676,-0.0137,0.0189,-0.5084,2043
2,0.0562,-0.5178,0.0684,-0.0292,0.1808,-0.5275,2029
2,0.0986,-0.5151,0.1194,-0.0545,0.3274,-0.6227,2122
2,0.1416,-0.5962,0.0808,-0.0808,0.3212,-0.646,2032
2,0.1074,-0.6299,0.0481,-0.0931,0.3288,-0.6861,2047
2,0.135,-0.6689,-0.0105,-0.1463,0.3268,-0.7465,2104
2,0.1445,-0.6616,-0.0591,-0.1944,0.2762,-0.7435,2139
2,0.135,-0.6609,-0.1331,-0.2348,0.2767,-0.7653,2042
2,0.1392,-0.676,-0.1262,-0.239,0.2364,-0.797,2054
2,0.1572,-0.6953,-0.1445,-0.2103,0.2063,-0.8071,2032
2,0.1765,-0.7373,-0.1309,-0.1669,0.1108,-0.7938,2111
2,0.2085,-0.7529,-0.1074,-0.1691,-0.0695,-0.7548,1979
2,0.2239,-0.7485,-0.1272,-0.1751,-0.1939,-0.7063,2059
2,0.2324,-0.7327,-0.1074,-0.1655,-0.3103,-0.6719,2127
2,0.2246,-0.7017,-0.0928,-0.1715,-0.3489,-0.6204,2018
2,0.2402,-0.72,-0.095,-0.2203,-0.2706,-0.5813,2095
2,0.2295,-0.7886,-0.0837,-0.2366,-0.1683,-0.5545,2089
2,0.2344,-0.8342,-0.0842,-0.2679,-0.0467,-0.4886,2022
2,0.1836,-0.8606,-0.0923,-0.3043,0.1674,-0.4315,2044
2,0.2019,-0.8623,-0.0718,-0.2958,0.3326,-0.3449,2052
2,0.1797,-0.8496,-0.0603,-0.2935,0.4935,-0.2875,2025
2,0.1699,-0.8281,-0.0415,-0.2673,0.5855,-0.2027,2001
2,0.1985,-0.7988,-0.0037,-0.2398,0.7122,-0.1324,2009
2,0.2488,-0.7874,0.0127,-0.2029,0.751,-0.1141,2073
2,0.2793,-0.8167,0.0312,-0.1389,0.7103,-0.1465,2146
2,0.3401,-0.9438,0.0559,-0.0973,0.5552,-0.1638,1943
2,0.3972,-1.1096,0.1169,-0.0431,0.389,-0.1778,2049
2,0.3625,-1.2773,0.1519,-0.0486,0.2545,-0.2741,2406
2,0.4819,-1.3223,0.1914,0.0822,0.0063,-0.2089,1822
2,0.4692,-1.3079,0.2874,0.0459,-0.0666,-0.1533,2002
2,0.4424,-1.2654,0.3423,-0.0949,0.0194,0.0007,1934
2,0.4304,-1.1592,0.3386,-0.21,0.0064,0.0051,2014
2,0.1392,-1.0359,0.3433,-0.2764,0.4345,-0.2795,2031
2,0.0518,-0.9121,0.4829,-0.331,1.1286,-0.4181,2018
2,0.1038,-0.9802,0.636,-0.2678,1.6279,-0.3539,2046
2,0.155,-1.209,0.6428,-0.2125,1.8282,-0.2763,2039
2,0.4331,-1.3774,0.5754,-0.3554,1.9238,-0.2802,2005
2,0.6699,-1.5005,0.5056,-0.4935,1.5576,-0.3426,2050
2,0.751,-1.5347,0.4067,-0.3394,0.7008,-0.2645,2043
2,0.7119,-1.3215,0.3149,-0.0501,-0.0898,-0.0257,2131
2,0.5393,-1.2617,0.1965,0.1976,-0.9266,0.2643,2112
2,0.4707,-1.156,0.0911,0.4719,-1.4984,0.1787,2037
2,0.3708,-1.0332,0.0793,0.6827,-1.6179,0.1023,2129
2,0.3005,-0.9634,0.1067,0.7706,-1.4229,0.1238,2044
2,0.2273,-0.9429,0.1499,0.8003,-1.1958,0.1534,2055
2,0.2209,-0.9844,0.1187,0.8007,-1.0202,0.1687,2057
2,0.3542,-1.0027,0.0935,0.7324,-0.8068,0.2386,2053
2,0.384,-1.0483,0.0818,0.5689,-0.6332,0.2689,2112
2,0.4695,-1.0044,0.0645,0.5638,-0.7573,0.2454,2030
2,0.4595,-1.0334,0.073,0.398,-0.7252,0.2128,2073
2,0.3997,-0.9468,0.094,0.3273,-0.6297,0.1428,2009
2,0.3701,-0.8337,0.0698,0.2673,-0.4398,0.0786,2026
2,0.2886,-0.7261,0.0598,0.1276,-0.1184,0.0888,2063
2,0.2964,-0.5447,0.0134,0.1543,0.0368,0.033,2028
2,0.1428,-0.5046,0.0581,0.0736,0.4354,0.0099,2023
2,0.1758,-0.5054,-0.0559,0.0617,0.6136,0.0818,2011
2,0.2544,-0.4771,-0.0459,-0.0005,0.7927,-0.0354,2045
2,0.1873,-0.5183,-0.0476,-0.0952,1.0252,-0.0839,2146
2,0.2141,-0.5261,-0.1304,-0.0997,1.1828,-0.0123,2009
2,0.3103,-0.4553,-0.0999,-0.0924,1.1302,-0.1358,2020
2,0.2878,-0.5056,-0.0566,-0.1963,1.22,-0.1547,2006
2,0.272,-0.5073,-0.1216,-0.143,1.0168,-0.065,2068
2,0.2727,-0.4829,-0.0835,-0.1875,1.032,-0.0788,2043
2,0.1995,-0.5557,-0.0349,-0.1473,1.02,-0.0574,2039
3,0.155,-0.6372,0.0005,-0.1989,1.156,-0.0949,2033
3,0.1602,-0.6636,0.0676,-0.1687,1.2198,-0.0473,2061
3,0.2244,-0.7239,0.0803,-0.1786,1.2027,-0.024,2063
3,0.218,-0.8013,0.0972,-0.2318,1.2344,-0.0423,1967
3,0.1794,-0.8826,0.218,-0.1954,1.1927,-0.0088,2005
3,0.1904,-0.9448,0.2495,-0.2729,1.1005,0.0678,2223
3,0.1873,-0.936,0.2773,-0.3213,0.9738,0.1926,1999
3,0.304,-0.9346,0.2422,-0.3143,0.5163,0.31,2119
3,0.4106,-0.9299,0.2058,-0.3796,0.2188,0.2614,1961
3,0.395,-0.9255,0.158,-0.4854,-0.0952,0.2316,2065
3,0.3953,-0.8916,0.0679,-0.4852,-0.2951,0.202,2046
3,0.3809,-0.8889,0.1089,-0.5232,-0.2397,0.0976,2017
3,0.3884,-0.9121,0.0872,-0.4109,-0.2205,0.0658,2229
3,0.3606,-1.1208,0.0767,-0.3216,0.0252,0.1537,1939
3,0.4299,-1.4998,0.0696,-0.1799,0.1396,0.3115,2022
3,0.3203,-1.8376,0.2124,-0.1724,0.5323,0.0742,1968
3,0.1948,-1.8577,0.335,-0.1462,0.6115,0.161,2052
3,0.0908,-1.822,0.3716,-0.2914,0.6417,0.291,2117
3,0.0188,-1.6802,0.4504,-0.4837,1.0038,0.4035,1941
3,-0.0432,-1.2407,0.3765,-0.7432,1.4929,0.3096,2114
3,0.0559,-1.1729,0.3516,-0.655,1.6095,0.4193,1977
3,0.366,-1.2761,0.4656,-0.7083,1.8391,0.2803,2061
3,0.4324,-1.3738,0.5066,-0.7945,1.6945,-0.1025,2031
3,0.3,-1.427,0.5059,-0.7078,1.5846,-0.2792,2095
3,0.1499,-1.457,0.4626,-0.5738,1.6467,-0.3035,2032
3,0.1025,-1.5095,0.3687,-0.416,1.6863,-0.2756,2106
3,0.1631,-1.4807,0.3052,-0.3638,1.9567,-0.3465,2051
3,0.1677,-1.4631,0.207,-0.2685,2.0122,-0.3006,2032
3,0.0701,-1.4861,0.1318,-0.2228,2.2194,-0.2535,2023
3,-0.0027,-1.4797,0.1072,-0.134,2.3782,-0.2333,2064
3,-0.0273,-1.4436,0.1804,-0.1557,2.5505,-0.308,1985
3,0.0244,-1.2927,0.2229,-0.0995,2.3987,-0.3819,2024
3,0.123,-1.1384,0.2568,-0.043,2.0939,-0.41,2022
3,0.2793,-1.0095,0.3123,0.0609,1.553,-0.4358,2051
3,0.3403,-0.9504,0.3533,0.1441,0.991,-0.4424,2037
3,0.3162,-0.928,0.3127,0.2269,0.4805,-0.2922,2051
3,0.2786,-0.8867,0.3386,0.1039,0.29,-0.3067,2076
3,0.1658,-0.8789,0.2883,-0.0505,0.2436,-0.3167,2018
3,0.0803,-0.8003,0.2104,-0.1369,0.4416,-0.4163,2036
3,0.0271,-0.7686,0.1699,-0.2579,0.7951,-0.4903,2161
3,0.0259,-0.7222,0.1292,-0.2695,1.116,-0.5554,2045
3,0.0906,-0.6636,0.0891,-0.3436,1.3854,-0.6012,2054
3,0.1406,-0.6301,0.0391,-0.3984,1.5817,-0.628,2067
3,0.1943,-0.5735,0.019,-0.3669,1.6848,-0.6558,2106
3,0.2034,-0.5779,-0.0095,-0.3946,1.6867,-0.7074,2137
3,0.189,-0.5681,-0.0222,-0.3076,1.6867,-0.7333,2120
3,0.1841,-0.5742,-0.0452,-0.2221,1.6627,-0.7894,2064
3,0.166,-0.6191,-0.0857,-0.1859,1.6225,-0.8437,2037
3,0.1196,-0.6565,-0.0786,-0.1292,1.5643,-0.8835,2099
3,0.0979,-0.7026,-0.0999,-0.1055,1.5759,-0.9413,2077
3,0.0588,-0.7664,-0.0933,-0.0811,1.5785,-0.97,1996
3,0.0251,-0.8311,-0.0884,-0.0585,1.6127,-0.9959,2012
3,0.0076,-0.8918,-0.0559,-0.043,1.592,-0.9741,2032
3,0.0034,-0.9441,-0.054,0.0104,1.5388,-0.9368,2197
3,0.0542,-0.9829,-0.0442,0.1039,1.4671,-0.7849,1988
3,0.1003,-0.9072,-0.0283,0.1229,1.3796,-0.8685,2036
3,0.1682,-0.9568,0.0261,0.1835,1.2287,-0.8939,2001
3,0.207,-1.0415,0.0854,0.2133,1.1448,-0.8721,2081
3,0.2131,-1.1057,0.1069,0.1951,1.064,-0.8481,2062
3,0.1699,-1.0969,0.1477,0.1947,1.0634,-0.7572,1945
3,0.1091,-1.0872,0.2253,0.1586,1.2137,-0.715,2075
3,0.0977,-1.115,0.2261,0.102,1.3187,-0.6673,2005
3,0.0288,-1.1541,0.238,0.1233,1.4958,-0.6385,2054
3,0.0413,-1.2122,0.2605,0.07,1.596,-0.6835,2071
3,0.0872,-1.2319,0.2627,0.0234,1.5486,-0.6867,2119
3,0.0972,-1.1528,0.2744,0.0205,1.5214,-0.7016,2125
3,0.1438,-1.1521,0.2751,0.0204,1.3388,-0.7308,1987
3,0.1602,-1.146,0.2705,0.0128,1.1314,-0.7409,2045
3,0.1562,-1.1348,0.262,0.0016,1.0172,-0.715,2027
3,0.1758,-1.1394,0.2305,-0.0141,0.9208,-0.6929,2074
3,0.2146,-1.1768,0.2209,-0.034,0.8335,-0.6733,2033
3,0.2542,-1.2561,0.2205,-0.0724,0.6982,-0.6558,1979
3,0.26,-1.2996,0.2073,-0.0506,0.612,-0.5823,2013
3,0.2856,-1.333,0.2415,-0.0629,0.5536,-0.4874,2031
3,0.2849,-1.2659,0.2668,-0.0774,0.4931,-0.3446,2009
3,0.3396,-1.1416,0.2637,-0.0886,0.455,-0.2421,2045
3,0.3577,-1.0757,0.2683,-0.1182,0.5185,-0.1706,2063
3,0.3169,-1.0481,0.2563,-0.1662,0.6343,-0.132,2024
3,0.249,-1.075,0.2764,-0.242,0.877,-0.1436,2051
3,0.2231,-1.0698,0.2744,-0.2774,1.1391,-0.1902,2032
3,0.2144,-1.0234,0.2783,-0.3385,1.3988,-0.1995,2039
3,0.2893,-0.9578,0.3044,-0.4333,1.5673,-0.2023,2030
3,0.304,-0.8516,0.3083,-0.4976,1.5531,-0.2551,2049
3,0.2673,-0.7969,0.2839,-0.5974,1.5205,-0.3265,2044
3,0.25,-0.7786,0.2979,-0.683,1.4238,-0.4209,2028
3,0.2476,-0.79,0.29,-0.7522,1.2515,-0.4987,2032
3,0.2539,-0.7791,0.2742,-0.8186,1.0797,-0.5612,2044
3,0.1953,-0.7771,0.2578,-0.8837,0.9825,-0.6023,2057
3,0.1777,-0.8113,0.2314,-0.925,0.9003,-0.6556,2036
3,0.1592,-0.8401,0.2253,-0.9907,0.8441,-0.7035,2032
3,0.1448,-0.8374,0.2104,-1.0409,0.805,-0.7191,2107
3,0.1533,-0.8247,0.1824,-1.0529,0.7973,-0.7076,2120
3,0.1431,-0.832,0.176,-1.044,0.8521,-0.6604,2055
3,0.1528,-0.8716,0.1624,-1.0029,0.9227,-0.593,2179
3,0.1628,-0.907,0.1682,-0.9527,0.9361,-0.5293,2004
3,0.1736,-0.9387,0.1633,-0.9464,1.0254,-0.4629,2078
3,0.144,-0.949,0.1692,-0.9473,1.0754,-0.3783,2009
3,0.1003,-0.9241,0.2119,-0.9551,1.1669,-0.3109,2041
3,0.0645,-0.9104,0.2175,-0.9746,1.2125,-0.2487,2100
3,0.0547,-0.9026,0.2463,-0.9805,1.2643,-0.19,2006
3,0.0403,-0.9097,0.2834,-0.9883,1.3001,-0.1487,2072
3,0.0317,-0.9058,0.3208,-1.0151,1.2733,-0.1329,2036
3,0.0554,-0.9124,0.322,-1.0737,1.235,-0.136,2060
4,0.062,-0.9089,0.3164,-1.146,1.1841,-0.1569,1983
4,0.082,-0.8909,0.293,-1.1921,1.0885,-0.1595,2013
4,0.1301,-0.8682,0.2859,-1.2288,1.007,-0.161,2043
4,0.1709,-0.8513,0.2319,-1.2303,0.928,-0.159,2020
4,0.219,-0.853,0.1938,-1.2324,0.8501,-0.1554,2013
4,0.2561,-0.8682,0.1541,-1.2354,0.7831,-0.1597,2101
4,0.4038,-0.822,0.1729,-1.3001,0.9891,-0.0196,2011
4,0.3435,-0.9299,0.1472,-1.3721,1.0805,-0.0208,2111
4,0.3398,-0.9131,0.188,-1.3155,1.366,0.0812,2052
4,0.4534,-0.8931,0.2083,-1.4264,1.874,0.0593,2072
4,0.3145,-0.8691,0.2046,-1.481,2.2196,-0.0726,1974
4,0.2625,-0.8032,0.2012,-1.448,2.2425,-0.1963,2034
4,0.2717,-0.823,0.1721,-1.4037,2.2848,-0.2743,2037
4,0.2427,-0.8076,0.1465,-1.3307,2.2326,-0.3611,2035
4,0.2896,-0.8357,0.0881,-1.2075,2.009,-0.4541,2142
4,0.3499,-0.8962,0.0498,-1.111,1.7143,-0.4703,2006
4,0.3093,-0.8525,-0.0129,-0.9781,1.4456,-0.4809,2074
4,0.2454,-0.8872,-0.0305,-0.995,1.3573,-0.4936,2067
4,0.4072,-0.844,-0.1133,-0.8452,1.0685,-0.4506,2032
4,0.2046,-0.9124,-0.0698,-0.9646,1.4487,-0.5052,2023
4,0.3301,-0.8879,-0.0916,-0.8697,1.3812,-0.4124,2056
4,0.2522,-0.9294,-0.0725,-0.9271,1.5821,-0.3662,2094
4,0.3037,-0.873,-0.0911,-0.766,1.5293,-0.2772,2010
4,0.2908,-0.8833,-0.1787,-0.5803,1.3493,-0.0915,2056
4,0.3745,-0.8474,-0.1077,-0.4754,1.3906,-0.1453,2019
4,0.3516,-0.8835,-0.1621,-0.3758,1.3162,-0.1625,1980
4,0.3979,-0.8813,-0.1421,-0.2686,1.1597,-0.1433,2044
4,0.3213,-0.8953,-0.1509,-0.3296,1.1686,-0.1834,2061
4,0.2354,-1.0039,-0.1509,-0.4762,1.2886,-0.1333,2041
4,0.3044,-0.9685,-0.1697,-0.5227,1.2484,-0.0735,2047
4,0.2131,-1.0437,-0.1003,-0.6169,1.4925,-0.0671,2032
4,0.1917,-1.0586,-0.1372,-0.7621,1.5482,-0.0554,1964
4,0.3093,-0.9375,-0.1697,-0.7505,1.4314,-0.0495,2053
4,0.3438,-0.9119,-0.1169,-0.7829,1.464,-0.0609,2026
4,0.3667,-0.9087,-0.1785,-0.7469,1.3046,0.0045,2007
4,0.3704,-0.8967,-0.1797,-0.7135,1.2845,-0.0325,2030
4,0.3894,-0.8833,-0.2109,-0.6578,1.2909,-0.0419,1989
4,0.3528,-0.9426,-0.167,-0.6457,1.3427,-0.0405,2069
4,0.3054,-0.9731,-0.1987,-0.6016,1.4727,-0.0345,2039
4,0.2598,-1.0337,-0.1653,-0.605,1.6093,0.0136,2022
4,0.2112,-1.0684,-0.1646,-0.5534,1.8363,0.0522,1940
4,0.2153,-1.1064,-0.1328,-0.5096,1.9738,0.0888,1973
4,0.1936,-1.157,-0.0862,-0.4807,2.1206,0.0945,2027
4,0.1565,-1.0754,-0.0291,-0.4697,2.1441,0.0429,2143
4,0.1284,-1.0596,0.0415,-0.4591,2.1748,0.0152,2134
4,0.1562,-0.9827,0.0637,-0.3787,2.1688,-0.0538,2015
4,0.1204,-1.2473,0.0791,-0.3907,2.1712,-0.0337,1992
4,0.189,-1.3176,0.1519,-0.4083,2.1312,-0.0069,2048
4,0.1201,-1.385,0.1709,-0.4594,2.1342,0.0064,2045
4,0.0571,-1.2805,0.2021,-0.5223,2.062,0.018,2059
4,-0.0403,-1.2229,0.2263,-0.6357,2.2149,-0.026,2063
4,-0.0889,-1.1355,0.2134,-0.642,2.2418,-0.0826,2035
4,-0.1409,-1.155,0.2617,-0.6865,2.3811,-0.2039,2086
4,-0.1597,-1.1367,0.293,-0.7253,2.5048,-0.2884,2032
4,-0.1519,-1.1021,0.2764,-0.7276,2.5268,-0.3179,2008
4,-0.134,-1.114,0.2517,-0.7072,2.512,-0.336,2026
4,-0.0957,-1.104,0.1846,-0.6395,2.4143,-0.3243,2053
4,-0.0132,-1.1553,0.1526,-0.5677,2.2983,-0.2863,2080
4,0.0466,-1.1877,0.1199,-0.4876,2.0459,-0.2373,2106
4,0.0391,-1.1416,0.095,-0.3863,1.8353,-0.1736,2028
4,0.0076,-1.1023,0.0918,-0.2923,1.7602,-0.0965,2061
4,-0.0144,-1.0376,0.1108,-0.2108,1.8265,-0.0354,2062
4,-0.0283,-1.0015,0.1301,-0.1487,1.9556,-0.0095,2076
4,-0.0337,-1.0181,0.1826,-0.1344,2.0526,0.0104,2024
4,-0.0378,-0.9646,0.2219,-0.1262,2.1405,0.0128,2041
4,-0.0312,-0.9399,0.2407,-0.1525,2.183,0.0142,2066
4,0.0159,-0.8982,0.2412,-0.1759,2.1373,0.0286,2070
4,0.0547,-0.8618,0.2476,-0.1839,2.0723,0.0218,2060
4,0.0496,-0.8408,0.2317,-0.1872,1.9366,-0.0233,2031
4,0.0891,-0.8359,0.1875,-0.165,1.7977,-0.0607,2067
4,0.1223,-0.8264,0.1492,-0.1345,1.586,-0.1244,2064
4,0.115,-0.8386,0.1086,-0.1131,1.4242,-0.1601,2082
4,0.1082,-0.8589,0.0457,-0.0949,1.299,-0.1867,2036
4,0.1091,-0.864,-0.0315,-0.0506,1.2709,-0.2091,2070
4,0.1299,-0.8564,-0.0576,-0.0181,1.2874,-0.2183,2053
4,0.145,-0.8289,-0.0754,0.024,1.2959,-0.24,2021
4,0.1655,-0.8335,-0.1106,0.0341,1.3109,-0.2657,2027
4,0.1692,-0.8457,-0.1052,0.0238,1.3493,-0.2627,2031
4,0.1453,-0.8584,-0.0994,0.0342,1.3691,-0.2864,2034
4,0.1409,-0.9097,-0.1001,0.0105,1.4034,-0.3097,2139
4,0.0913,-0.9526,-0.0813,-0.0089,1.4751,-0.3294,2103
4,0.1038,-0.9871,-0.0603,-0.0115,1.4617,-0.3133,2062
4,0.1094,-1.0149,-0.05,-0.0342,1.4407,-0.3196,2082
4,0.1216,-0.9929,-0.0249,-0.081,1.4081,-0.3195,2038
4,0.1204,-0.9844,-0.0212,-0.1025,1.3624,-0.3259,2031
4,0.1382,-1.0032,-0.0105,-0.1238,1.3099,-0.3329,2009
4,0.1394,-1.043,-0.0034,-0.1397,1.2712,-0.387,2037
4,0.1333,-1.0452,0.0095,-0.1626,1.226,-0.4057,2036
4,0.1282,-1.0508,0.0122,-0.1967,1.1852,-0.4426,2032
4,0.116,-1.0562,0.0332,-0.202,1.1653,-0.4779,2068
4,0.1338,-1.0776,0.0583,-0.2168,1.0998,-0.4831,2044
4,0.1558,-1.0732,0.0784,-0.2131,1.0054,-0.486,2021
4,0.1694,-1.0742,0.1179,-0.2103,0.8951,-0.4826,2142
4,0.1594,-1.0806,0.1555,-0.2199,0.7641,-0.4777,2055
4,0.1431,-1.0801,0.1768,-0.2597,0.6883,-0.454,1991
4,0.1021,-1.041,0.2073,-0.2723,0.6807,-0.432,2082
4,0.1038,-1.0288,0.1936,-0.298,0.728,-0.4155,2058
4,0.0947,-1.0322,0.2122,-0.3233,0.8166,-0.4161,2017
4,0.1177,-1.105,0.2051,-0.3145,0.8791,-0.4068,2068
4,0.1633,-1.1523,0.1929,-0.292,0.9469,-0.4034,2032
4,0.24,-1.1741,0.2153,-0.2884,0.9473,-0.3802,2107
4,0.2844,-1.137,0.2483,-0.2566,0.876,-0.3611,2048
4,0.2922,-1.075,0.2854,-0.2495,0.7604,-0.342,2014
5,0.3064,-1.0315,0.2964,-0.2543,0.6445,-0.3192,2082
5,0.2188,-1.0183,0.2959,-0.2551,0.5986,-0.3075,2040
5,0.1392,-1.0557,0.2722,-0.2437,0.6271,-0.3243,2095
5,0.0989,-1.0884,0.2651,-0.2959,0.8259,-0.3545,2050
5,0.0903,-1.0681,0.2742,-0.3393,1.0124,-0.3742,2054
5,0.103,-1.0239,0.3135,-0.4065,1.1713,-0.3963,2105
5,0.1221,-0.9507,0.3662,-0.4971,1.2975,-0.4334,2051
5,0.1582,-0.8833,0.3955,-0.5778,1.3114,-0.4799,2060
5,0.2305,-0.8311,0.4504,-0.6167,1.2263,-0.5291,2050
5,0.3801,-0.8154,0.4187,-0.5223,0.9416,-0.5814,2016
5,0.4683,-0.71,0.4077,-0.3585,0.4713,-0.7276,2097
5,0.5859,-0.7576,0.4109,-0.2167,-0.0301,-0.8335,2038
5,0.6345,-0.7947,0.3457,-0.1204,-0.4197,-0.9251,2008
5,0.5522,-0.8899,0.2388,-0.0804,-0.9211,-0.7951,1996
5,0.259,-1.0022,0.2061,-0.1607,-1.0742,-0.6991,2034
5,-0.0037,-1.0671,0.0857,-0.3223,-0.9515,-0.6151,2019
5,-0.0283,-1.0652,-0.0701,-0.2946,-0.8063,-0.4486,2077
5,-0.1812,-1.104,-0.0032,-0.3404,-0.2738,-0.3255,2085
5,-0.1838,-1.1628,0.0244,-0.3814,0.2482,-0.2041,2102
5,-0.1284,-1.0793,0.1084,-0.4983,0.8227,-0.194,2040
5,0.1013,-1.0588,0.1702,-0.5276,1.0808,-0.1168,2070
5,0.2634,-0.9072,0.2537,-0.5885,1.165,-0.0734,2079
5,0.2922,-0.9011,0.3064,-0.6971,1.1597,-0.0443,2123
5,0.3418,-0.8367,0.3096,-0.651,0.9468,-0.0501,2038
5,0.3762,-0.8169,0.3032,-0.6064,0.7156,-0.0637,2042
5,0.3823,-0.8083,0.3005,-0.5285,0.581,-0.108,2038
5,0.3979,-0.7847,0.2996,-0.4353,0.3964,-0.1545,2051
5,0.3862,-0.7517,0.2544,-0.3203,0.246,-0.182,2108
5,0.4048,-0.7371,0.2227,-0.2285,0.1052,-0.1891,2028
5,0.4062,-0.7239,0.1858,-0.1565,0.0061,-0.2059,2042
5,0.3948,-0.6863,0.1292,-0.0625,-0.0507,-0.2095,2096
5,0.3779,-0.6501,0.0964,0.0329,-0.0906,-0.1904,2055
5,0.3674,-0.6306,0.083,0.1194,-0.1466,-0.1645,2051
5,0.3508,-0.6155,0.061,0.1899,-0.2124,-0.1322,2027
5,0.3064,-0.5933,0.043,0.2514,-0.2473,-0.076,2014
5,0.2881,-0.6062,0.0491,0.2671,-0.278,-0.0706,2054
5,0.2573,-0.6128,0.0244,0.2304,-0.286,-0.0571,2039
5,0.2512,-0.5593,0.0066,0.2605,-0.3077,0.0197,2019
5,0.1902,-0.5693,0.0225,0.2558,-0.2574,0.0526,2051
5,0.2734,-0.5764,0.0178,0.2449,-0.2441,0.0803,2050
5,0.2739,-0.5486,0.0181,0.2598,-0.2069,0.0981,2112
5,0.2703,-0.5955,0.0315,0.2108,-0.1666,0.0787,2058
5,0.26,-0.6028,-0.0154,0.1011,-0.1057,0.0534,2150
5,0.2427,-0.6182,-0.0166,0.0382,-0.0356,0.0852,2074
5,0.218,-0.6709,-0.0361,0.0073,-0.0254,0.1037,2027
5,0.2427,-0.7368,-0.0654,-0.0884,0.0019,0.1119,1985
5,0.2083,-0.7632,-0.1116,-0.2051,0.085,0.0993,2001
5,0.1763,-0.8354,-0.1367,-0.3773,0.1819,0.1131,2120
5,0.1655,-0.8557,-0.1509,-0.4533,0.2631,0.1357,2166
5,0.1641,-0.8711,-0.1304,-0.4826,0.4623,0.1634,2065
5,0.2334,-0.8589,-0.0759,-0.5004,0.5018,0.189,2047
5,0.334,-0.8525,-0.0254,-0.5382,0.5577,0.2167,2055
5,0.3977,-0.8467,0.0632,-0.5353,0.5747,0.2381,1998
5,0.4258,-0.8689,0.1038,-0.5516,0.5842,0.2441,2022
5,0.4434,-0.8628,0.1445,-0.5532,0.5938,0.2341,2039
5,0.4487,-0.8269,0.1965,-0.5545,0.5968,0.2495,2067
5,0.4397,-0.7605,0.2161,-0.4835,0.6341,0.2268,2021
5,0.4053,-0.6829,0.2583,-0.3767,0.6837,0.1948,2039
5,0.3489,-0.6523,0.3074,-0.2278,0.7175,0.1475,2046
5,0.2983,-0.6729,0.343,-0.1149,0.671,0.1401,2020
5,0.251,-0.7593,0.3127,-0.0875,0.6118,0.1441,2191
5,0.2109,-0.813,0.2559,-0.0957,0.4968,0.1662,2041
5,0.1858,-0.8577,0.2124,-0.232,0.4799,0.0907,2117
5,0.1492,-0.855,0.1792,-0.3421,0.5232,0.0754,1990
5,0.127,-0.7839,0.1343,-0.3823,0.5393,0.0964,2030
5,0.2026,-0.7727,0.156,-0.4213,0.494,0.1007,2037
5,0.2754,-0.8071,0.1633,-0.355,0.483,0.0642,1886
5,0.3621,-0.9253,0.2134,-0.2823,0.3669,0.0278,2025
5,0.3652,-1.0569,0.2249,-0.2188,0.2432,-0.0402,2024
5,0.3503,-1.123,0.3323,-0.1165,0.1685,-0.0519,1944
5,0.3027,-1.0752,0.3687,-0.124,0.1723,-0.1767,1975
5,0.2766,-1.1501,0.3933,-0.1685,0.1685,-0.2458,2024
5,0.2192,-1.2285,0.4319,-0.1942,0.4207,-0.316,2053
5,0.1965,-1.418,0.4189,-0.0973,0.7128,-0.3559,2178
5,0.3413,-1.7998,0.3269,-0.1716,0.6915,-0.3053,2059
5,0.3164,-1.9429,0.24,-0.2843,0.6437,-0.2201,2056
5,0.1985,-1.9917,0.1064,-0.456,0.538,-0.1429,2037
5,0.1428,-1.8833,-0.0396,-0.4839,0.4626,0.0272,1998
5,0.0579,-1.6404,-0.0283,-0.4883,0.5382,0.0903,2058
5,0.0239,-1.3994,0.0483,-0.3995,0.6088,0.1264,2306
5,0.0793,-1.3345,0.1465,-0.3434,0.8092,0.0975,1996
5,0.1807,-1.3054,0.2078,-0.2959,0.8797,0.0764,2072
5,0.3467,-1.2515,0.3401,-0.2017,0.8775,0.049,2044
5,0.5461,-1.2566,0.4041,-0.1083,0.6379,0.0699,2040
5,0.5793,-1.2893,0.4102,-0.0344,0.3489,0.1013,2062
5,0.5237,-1.2676,0.3604,0.082,0.033,0.1272,2049
5,0.418,-1.2471,0.2703,0.1658,-0.2171,0.1482,2005
5,0.2925,-1.2078,0.1826,0.2264,-0.334,0.181,2020
5,0.1631,-1.1521,0.1182,0.2209,-0.3278,0.2253,2007
5,0.0581,-1.0671,0.0479,0.2264,-0.2687,0.2739,1988
5,-0.0039,-0.9685,0.0029,0.2629,-0.1141,0.3105,2041
5,0.0156,-0.8755,0.021,0.243,0.0415,0.3176,2026
5,0.0459,-0.7812,0.0154,0.247,0.1539,0.3177,2074
5,0.1292,-0.7224,0.0239,0.2627,0.192,0.3132,2032
5,0.2056,-0.6816,0.0732,0.249,0.1963,0.2903,2032
5,0.2791,-0.6538,0.0908,0.2874,0.1244,0.2534,2042
5,0.2798,-0.6169,0.1008,0.2955,0.053,0.1879,2063
5,0.2551,-0.6184,0.1116,0.3113,0.0,0.1123,2051
5,0.2217,-0.6455,0.0947,0.2754,0.0071,0.0461,2047
5,0.2251,-0.6528,0.0825,0.2767,0.0047,-0.0137,2044
5,0.1938,-0.6677,0.0781,0.2926,0.0566,-0.066,2049
5,0.1882,-0.6526,0.082,0.2979,0.1021,-0.1155,2045
6,0.2095,-0.6152,0.0691,0.3264,0.086,-0.1647,1964
6,0.2268,-0.5884,0.0925,0.3268,0.0288,-0.1976,2017
6,0.2539,-0.5686,0.0933,0.3204,-0.0752,-0.2261,2082
6,0.2332,-0.5305,0.0684,0.2888,-0.1214,-0.2808,2031
6,0.2153,-0.5078,0.0632,0.3013,-0.173,-0.3449,2023
6,0.209,-0.509,0.052,0.2846,-0.172,-0.4099,2090
6,0.1785,-0.5234,0.0381,0.2745,-0.125,-0.4685,2024
6,0.158,-0.564,0.0271,0.2589,-0.0762,-0.5083,2025
6,0.1536,-0.6365,0.0298,0.2294,-0.0602,-0.5588,2131
6,0.1487,-0.687,0.032,0.2047,-0.0808,-0.5577,2010
6,0.1545,-0.6919,0.0193,0.1898,-0.157,-0.5245,2123
6,0.1768,-0.6838,-0.0037,0.1932,-0.289,-0.4834,2019
6,0.2271,-0.71,-0.0071,0.2076,-0.4318,-0.4328,2080
6,0.2222,-0.7502,-0.0085,0.2268,-0.559,-0.4007,2075
6,0.1904,-0.8271,0.0405,0.2731,-0.6602,-0.3571,2059
6,0.1326,-0.9294,0.0889,0.34,-0.6925,-0.3543,2061
6,0.2083,-0.9187,0.1367,0.3611,-0.7429,-0.3741,2038
6,0.3049,-0.8601,0.0981,0.2806,-0.7778,-0.3563,2032
6,0.2185,-0.9851,0.0574,0.1348,-0.801,-0.3257,1974
6,0.1799,-0.9253,0.0142,0.1521,-0.7578,-0.2401,1972
6,0.1548,-0.7947,-0.0051,0.1726,-0.5239,-0.1478,1987
6,0.157,-0.8157,-0.0364,0.2679,-0.4538,-0.0655,2095
6,0.1558,-0.958,0.0139,0.3705,-0.4852,-0.0447,2016
6,0.0889,-1.1172,0.0083,0.4943,-0.556,0.0503,2063
6,0.1138,-1.3564,0.019,0.4936,-0.7292,0.0935,1999
6,0.1487,-1.4226,0.0737,0.4329,-0.7861,0.1462,2005
6,0.1382,-1.3333,0.1121,0.392,-0.6837,0.3236,2073
6,0.1348,-1.2026,0.1777,0.3269,-0.4863,0.5476,2013
6,0.239,-1.199,0.2122,0.2998,-0.3938,0.6569,2114
6,0.3376,-1.407,0.3457,0.1168,-0.0554,0.7542,2051
6,0.3281,-1.6362,0.4651,-0.3567,0.6136,0.762,2058
6,0.4058,-1.6597,0.7407,-0.6062,1.4026,0.9297,2053
6,0.7161,-1.3796,0.8616,-0.6076,1.5338,1.0931,2087
6,1.1499,-1.2043,0.925,-0.751,1.8082,0.9781,2033
6,1.2698,-1.1497,0.8152,-0.8008,1.4046,0.7945,2009
6,0.8228,-1.2788,0.5757,-0.6328,0.5843,0.5043,1991
6,0.6067,-1.2722,0.3296,-0.3221,-0.2119,0.2293,2007
6,0.4817,-1.2363,0.1736,-0.1143,-0.4337,-0.039,2129
6,0.4563,-1.1909,0.1526,0.0441,-0.4452,-0.1693,2044
6,0.4402,-1.1787,0.2148,0.1112,-0.3458,-0.1401,2049
6,0.4778,-1.2214,0.2844,0.1498,-0.4076,-0.0252,2022
6,0.5271,-1.2117,0.2922,0.1731,-0.5087,0.0401,2016
6,0.5349,-1.1831,0.2539,0.14,-0.551,0.0868,2047
6,0.5073,-1.1194,0.1882,0.1246,-0.5108,0.0539,2066
6,0.4277,-1.0251,0.0823,0.1233,-0.3041,-0.0089,2041
6,0.3284,-0.9702,0.0391,0.0667,-0.096,-0.0117,2040
6,0.2598,-0.8735,0.0288,-0.0177,0.038,-0.008,1997
6,0.1858,-0.7563,0.0193,-0.1056,0.1923,0.0076,2031
6,0.137,-0.6565,0.0273,-0.175,0.3296,0.015,2032
6,0.1255,-0.5928,0.0845,-0.2674,0.3948,-0.0027,2074
6,0.1843,-0.5518,0.0981,-0.3617,0.4243,-0.0795,2057
6,0.1858,-0.4951,0.1196,-0.4442,0.4472,-0.1245,1993
6,0.208,-0.4375,0.1201,-0.4573,0.387,-0.1479,2135
6,0.1919,-0.4333,0.116,-0.4795,0.4133,-0.1519,2021
6,0.2329,-0.3967,0.0469,-0.5219,0.3686,-0.0634,2067
6,0.1882,-0.3428,-0.0237,-0.5429,0.3702,0.03,1994
6,0.2197,-0.2566,-0.137,-0.6179,0.485,0.2377,2053
6,0.2078,-0.3142,-0.2053,-0.6409,0.5825,0.3843,2019
6,0.1873,-0.2607,-0.1548,-0.4406,0.5582,0.5205,2036
6,0.0933,-0.2454,-0.1062,-0.1951,0.4585,0.7712,2077
6,0.1714,-0.2312,-0.1184,0.3029,0.176,1.0587,2209
6,0.1125,-0.4451,0.0347,0.6829,-0.1542,1.193,2013
6,0.0769,-0.6497,0.1885,0.7375,-0.139,0.944,2007
6,0.1108,-0.5935,0.2957,0.8441,-0.3229,0.7225,2077
6,0.0291,-0.5779,0.4084,0.9368,-0.7082,0.6617,2096
6,0.0674,-0.5803,0.3916,1.0809,-1.083,0.6818,1992
6,0.0208,-0.7065,0.3716,1.0246,-1.1623,0.6023,2081
6,0.0073,-0.7993,0.343,0.8536,-1.0379,0.3378,2030
6,0.0952,-0.9026,0.3142,0.6232,-0.9467,0.2629,2086
6,0.2947,-0.8691,0.1763,0.49,-0.942,0.3317,2156
6,0.1936,-0.9116,0.1924,0.5352,-1.1009,0.4834,1986
6,0.1804,-1.0056,0.2288,0.5251,-1.19,0.5754,2059
6,0.3108,-0.9822,0.1692,0.5882,-1.4356,0.5904,2049
6,0.5039,-0.907,0.1353,0.7682,-2.0542,0.6,2037
6,0.0991,-1.0342,0.3516,0.543,-1.5643,0.4715,1990
6,0.1379,-0.9211,0.3652,0.496,-1.3587,0.6027,2122
6,-0.2258,-0.8794,0.228,0.3539,-0.5474,0.4753,2002
6,0.4805,-0.7607,-0.0361,0.9377,-0.6726,0.6682,2135
6,-0.1218,-1.3152,0.6006,0.2288,0.2507,0.4983,2098
6,0.3713,-1.1882,-0.0059,0.4898,-0.2402,0.5706,2007
6,0.4465,-1.3416,0.3545,0.5671,-0.2277,0.6163,2100
6,0.1921,-1.4045,0.5039,0.5325,-0.5525,0.5225,2164
6,0.4529,-1.3264,0.3845,0.4908,-0.7999,0.647,1991
6,0.2578,-1.2671,0.6233,0.2824,-0.8712,0.6055,2011
6,0.1968,-1.4739,0.605,0.2482,-0.9558,0.8316,2065
6,0.1255,-1.6655,0.6418,-0.0341,-0.7489,0.8018,2036
6,-0.1353,-1.6775,0.6526,-0.2846,-0.3706,0.6648,2081
6,-0.2349,-1.5554,0.6218,-0.4579,0.073,0.4456,2032
6,-0.1641,-1.4177,0.5532,-0.5024,0.3215,0.2593,2041
6,-0.0764,-1.3193,0.478,-0.5879,0.5703,0.1213,2039
6,0.0801,-1.2729,0.4658,-0.6445,0.7834,0.0961,2041
6,0.2786,-1.2905,0.47,-0.6944,0.7926,0.0021,2045
6,0.3484,-1.2502,0.5122,-0.8412,1.0625,-0.2686,2071
6,0.3296,-1.2781,0.4937,-1.0276,1.2613,-0.3777,2036
6,0.2449,-1.3628,0.3643,-1.0395,1.1489,-0.4002,2070
6,0.2927,-1.3867,0.2476,-0.9652,1.028,-0.3898,2037
6,0.2446,-1.4216,0.1099,-0.852,0.9023,-0.263,2124
6,0.1934,-1.3772,0.0488,-0.6562,0.671,-0.1533,2021
6,0.2126,-1.3135,0.0312,-0.4994,0.4633,-0.1772,2019
6,0.2778,-1.2693,0.072,-0.3903,0.186,-0.2402,2032
6,0.2756,-1.1516,0.0967,-0.2839,-0.1453,-0.3334,2028
6,0.2778,-1.0442,0.1709,-0.175,-0.5139,-0.3473,2037
6,0.3079,-0.9893,0.1973,-0.1959,-0.7167,-0.3304,2064
7,0.2009,-1.0032,0.2468,-0.279,-0.7692,-0.4378,2148
7,0.1895,-0.9048,0.2231,-0.2946,-0.8787,-0.4181,2036
7,0.2317,-0.8877,0.1575,-0.3565,-0.9023,-0.3513,2051
7,0.186,-0.8027,0.0645,-0.4342,-0.8158,-0.4673,2109
7,0.2449,-0.7075,0.0237,-0.4484,-0.7937,-0.3827,2051
7,0.1614,-0.6816,-0.0115,-0.5167,-0.594,-0.4368,2058
7,0.1616,-0.6489,-0.0261,-0.5252,-0.5076,-0.4687,2039
7,0.1516,-0.623,-0.019,-0.5321,-0.4313,-0.5044,2043
7,0.1262,-0.6357,-0.0342,-0.5183,-0.3338,-0.5332,2073
7,0.0872,-0.6309,-0.0271,-0.4902,-0.242,-0.5671,2032
7,0.116,-0.6279,-0.0122,-0.5035,-0.1598,-0.6407,2040
7,0.0862,-0.6162,0.0044,-0.5066,-0.1135,-0.6715,2041
7,0.0842,-0.5828,0.0293,-0.4746,-0.1193,-0.6679,2056
7,0.1262,-0.6436,0.0208,-0.4627,-0.1643,-0.6353,2052
7,0.1226,-0.7275,-0.0173,-0.4171,-0.2258,-0.6837,2042
7,0.1704,-0.7156,-0.0278,-0.4111,-0.3115,-0.7385,2056
7,0.1963,-0.6719,-0.0693,-0.4308,-0.3702,-0.7955,2074
7,0.2349,-0.6506,-0.1121,-0.4746,-0.4273,-0.8051,2018
7,0.2114,-0.6531,-0.1533,-0.498,-0.4308,-0.8315,2043
7,0.1782,-0.7126,-0.1501,-0.509,-0.4509,-0.8461,2141
7,0.1831,-0.741,-0.1504,-0.5056,-0.4364,-0.8267,2013
7,0.147,-0.7788,-0.1406,-0.4841,-0.3606,-0.7935,2023
7,0.1165,-0.7932,-0.125,-0.457,-0.2894,-0.7404,2072
7,0.1165,-0.7715,-0.1174,-0.4456,-0.2316,-0.6819,2047
7,0.1384,-0.7637,-0.1165,-0.4494,-0.1647,-0.6707,2044
7,0.1658,-0.7939,-0.0686,-0.5027,-0.0658,-0.6578,2069
7,0.2424,-0.8035,-0.0515,-0.5259,-0.0925,-0.6175,2032
7,0.2083,-0.7939,-0.0867,-0.5191,-0.0581,-0.5545,2076
7,0.2864,-0.7864,0.1533,-0.5783,-0.5117,-0.4065,2155
7,-0.7437,-0.6501,1.6953,-3.3081,-3.0349,-0.8863,2050
7,0.9497,-1.2368,-0.8198,-1.6355,-1.6849,0.0507,2030
7,0.4956,-0.9839,-0.6318,0.085,0.899,-0.1589,2032
7,0.3818,-1.1824,-0.2346,0.7918,1.2436,-0.2135,2146
7,0.272,-0.884,-0.1877,1.0327,1.3663,-0.3583,2019
7,0.075,-0.6003,-0.031,0.4682,0.7375,-0.4469,2072
7,0.155,-0.5959,-0.0107,0.1213,0.269,-0.3621,2082
7,0.2556,-0.657,-0.0513,0.1221,0.1718,-0.2334,2010
7,0.2502,-0.8572,-0.1145,0.2273,0.1377,-0.1724,1970
7,0.2627,-1.0149,-0.0696,0.2748,0.1175,-0.1487,2021
7,0.3325,-1.1709,-0.1055,0.2569,0.0666,-0.138,2150
7,0.2793,-1.3257,-0.0393,0.1642,0.2783,-0.1759,2168
7,0.3237,-1.3735,0.0908,0.1398,0.4059,-0.1039,1951
7,0.3311,-1.353,0.1523,0.0193,0.919,-0.0772,2004
7,0.447,-1.3169,0.2214,-0.1313,1.2588,0.024,2214
7,0.3975,-1.354,0.2808,-0.291,1.8615,0.0346,2064
7,0.5142,-1.4104,0.3025,-0.4402,2.2621,0.1068,2114
7,0.4424,-1.5012,0.3198,-0.5807,2.8299,0.1108,1990
7,0.7078,-1.436,0.4067,-0.6203,2.8155,0.2385,2159
7,0.7952,-1.3027,0.4026,-0.5035,2.4666,0.2646,2023
7,0.8877,-1.2485,0.3628,-0.3646,1.7243,0.2936,2033
7,0.8198,-1.2766,0.2971,-0.2525,0.9515,0.2325,2111
7,0.6343,-1.269,0.2397,-0.1053,0.2783,0.1715,2036
7,0.5857,-1.1929,0.2009,0.1241,-0.1474,0.135,2045
7,0.5083,-1.1072,0.1533,0.3729,-0.4103,0.1531,2057
7,0.5027,-1.2109,0.1824,0.5116,-0.5195,0.2429,2046
7,0.5916,-1.158,0.094,0.661,-0.6019,0.2954,2062
7,0.5461,-1.1628,0.1023,0.6942,-0.4675,0.2722,2036
7,0.5212,-1.1306,0.0444,0.7292,-0.3799,0.3241,2036
7,0.48,-1.0637,0.0474,0.6821,-0.2466,0.3365,2050
7,0.3716,-0.9543,0.0137,0.6534,-0.0178,0.3344,2028
7,0.2793,-0.8545,0.0242,0.6255,0.1475,0.3332,2039
7,0.2004,-0.7612,0.0496,0.5646,0.3586,0.3161,2069
7,0.1848,-0.7085,0.0664,0.5022,0.4729,0.2738,2027
7,0.1804,-0.6145,0.0977,0.4434,0.5867,0.2296,2075
7,0.1741,-0.5562,0.1096,0.4132,0.6389,0.1851,2026
7,0.207,-0.5115,0.1177,0.4192,0.6253,0.1436,2032
7,0.2375,-0.5188,0.1528,0.4027,0.6233,0.0989,2142
7,0.2202,-0.4805,0.1274,0.3774,0.5974,0.0419,2046
7,0.1895,-0.4563,0.0881,0.2832,0.5624,0.0747,2017
7,0.1924,-0.4543,0.0872,0.2705,0.5683,0.0625,2032
7,0.0122,-0.3684,0.0662,0.1561,0.773,0.1374,2042
7,0.0776,-0.3586,-0.0205,0.1895,0.7723,0.2103,2041
7,0.1318,-0.4197,0.1006,0.1334,1.0155,0.335,2078
7,0.1479,-0.3394,0.0676,0.161,0.9705,0.3424,2056
7,0.1841,-0.4033,0.0073,0.2643,0.7557,0.3392,2114
7,0.2307,-0.4736,0.0535,0.3852,0.7034,0.2203,2019
7,0.332,-0.4805,0.1255,0.5436,0.2223,0.2534,1986
7,0.2637,-0.5681,0.0962,0.5493,-0.1589,0.2089,1976
7,0.2192,-0.656,0.1174,0.5842,-0.3966,0.2109,2044
7,0.0754,-0.7212,0.1819,0.5123,-0.3781,0.1778,2207
7,0.1064,-0.7734,0.1345,0.524,-0.5345,0.2053,2170
7,0.1526,-0.7913,0.2444,0.4023,-0.4939,0.1597,1992
7,0.166,-0.8472,0.2229,0.32,-0.6169,0.2109,2030
7,0.2363,-0.8103,0.3008,0.2478,-0.6067,0.2457,2117
7,0.2861,-0.7864,0.3071,0.2836,-0.7853,0.3083,2043
7,0.2671,-0.8225,0.2822,0.206,-0.8206,0.388,2049
7,0.3301,-0.8074,0.2534,0.1831,-0.8771,0.5239,2215
7,0.3782,-0.8113,0.2896,0.2208,-0.8779,0.7054,1956
7,0.4023,-0.7812,0.1648,0.4171,-0.9098,0.717,2098
7,0.3594,-0.9119,0.3369,0.5798,-0.8706,0.5857,2048
7,0.2874,-1.1084,0.3396,0.799,-0.979,0.5355,1982
7,0.2905,-1.2366,0.4827,0.8566,-0.6921,0.4663,2042
7,0.1333,-1.342,0.5767,0.7992,-0.4252,0.4148,2113
7,0.1084,-1.3691,0.6292,0.7973,-0.3392,0.4638,2191
7,-0.0752,-1.5125,0.6558,0.6283,-0.0051,0.5578,2110
7,-0.0146,-1.7307,0.4939,0.4014,0.1321,0.659,2189
7,-0.0156,-1.8882,0.4502,0.1214,0.3631,0.7028,2037
7,0.0598,-1.8757,0.2983,-0.0668,0.2095,0.7425,2044
7,0.146,-1.6655,0.3477,-0.216,0.0856,0.5637,2239
7,0.0085,-1.5071,0.4758,-0.3184,0.0996,0.3936,1996
7,0.3281,-1.2832,0.4121,-0.2721,-0.0442,0.4465,2074
7,0.3674,-1.2356,0.4939,-0.2984,-0.0336,0.3464,2189
8,0.4185,-1.3237,0.5105,-0.367,0.1349,0.2979,2064
8,0.3525,-1.4258,0.5251,-0.3924,0.2844,0.1412,2022
8,0.3147,-1.4558,0.4822,-0.3145,0.2976,0.0053,2002
8,0.2236,-1.4424,0.3542,-0.1934,0.2593,-0.194,2040
8,0.1677,-1.3953,0.219,-0.0851,0.2578,-0.2682,2061
8,0.1599,-1.2939,0.1562,0.0012,0.3007,-0.3239,2098
8,0.1777,-1.2056,0.155,0.0415,0.2449,-0.2896,2162
8,0.2007,-1.1416,0.2085,0.0659,0.1794,-0.2972,2022
8,0.2131,-1.0735,0.2222,0.0221,0.0599,-0.3585,2009
8,0.2781,-1.0325,0.2458,-0.0782,0.033,-0.4223,2055
8,0.2754,-0.9739,0.2324,-0.2236,0.059,-0.5044,2037
8,0.2485,-0.9136,0.2285,-0.383,0.1358,-0.5428,2044
8,0.2031,-0.874,0.2087,-0.5018,0.2071,-0.5577,2050
8,0.1694,-0.8054,0.1584,-0.6044,0.2892,-0.524,2084
8,0.165,-0.7551,0.1287,-0.6604,0.352,-0.4485,2023
8,0.1836,-0.7397,0.0935,-0.6257,0.2261,-0.3799,2048
8,0.2056,-0.6616,0.0566,-0.611,0.1322,-0.3934,2009
8,0.2205,-0.5986,0.0466,-0.5147,0.0236,-0.3831,2016
8,0.1428,-0.5349,0.05,-0.4629,0.0079,-0.4472,2043
8,0.1611,-0.4851,0.043,-0.4088,-0.0863,-0.4843,2054
8,0.1924,-0.5007,0.0642,-0.4562,-0.028,-0.6064,2145
8,0.1199,-0.5488,0.0581,-0.4548,-0.0892,-0.6566,2051
8,0.0813,-0.5776,0.0295,-0.4991,-0.1068,-0.6727,2037
8,0.0432,-0.5806,0.0266,-0.5062,-0.0204,-0.6545,2077
8,0.0234,-0.5825,-0.0125,-0.5227,-0.0349,-0.6339,2087
8,0.0515,-0.572,-0.0461,-0.4723,-0.057,-0.6211,2097
8,0.0598,-0.5593,-0.041,-0.4019,-0.1153,-0.6157,1973
8,0.0862,-0.5806,-0.0146,-0.3687,-0.2485,-0.5902,2103
8,0.0989,-0.5942,-0.0061,-0.3251,-0.3798,-0.5878,2012
8,0.0984,-0.6208,-0.0364,-0.3302,-0.5462,-0.5627,2044
8,0.0996,-0.6426,-0.0532,-0.3225,-0.6249,-0.5625,2036
8,0.0728,-0.6865,-0.0986,-0.3285,-0.6212,-0.5717,1973
8,0.0166,-0.7485,-0.0801,-0.3316,-0.5604,-0.5731,2107
8,0.0212,-0.7888,-0.0813,-0.3362,-0.457,-0.5773,2051
8,0.0483,-0.7961,-0.0479,-0.3296,-0.3747,-0.5482,2030
8,0.1157,-0.7478,-0.0066,-0.3263,-0.344,-0.4979,1980
8,0.1934,-0.6758,0.0115,-0.3039,-0.4311,-0.4525,2018
8,0.2654,-0.6587,0.0227,-0.2679,-0.5635,-0.4034,2071
8,0.3,-0.7378,0.0151,-0.2693,-0.5926,-0.3719,2039
8,0.2874,-0.8123,0.0164,-0.2738,-0.6128,-0.3454,2197
8,0.2581,-0.906,0.0178,-0.2739,-0.649,-0.3141,2014
8,0.2349,-1.0027,-0.0168,-0.2999,-0.5268,-0.2838,2149
8,0.1936,-1.0969,-0.0347,-0.2882,-0.3006,-0.2517,1940
8,0.2275,-1.1895,-0.0662,-0.2995,-0.0692,-0.189,2032
8,0.3354,-1.2625,-0.0271,-0.3219,0.1076,-0.1202,2119
8,0.3513,-1.2883,-0.0083,-0.3694,0.265,-0.0473,1989
8,0.3396,-1.3398,0.0911,-0.4436,0.3935,0.019,2082
8,0.3599,-1.323,0.1436,-0.5308,0.7192,0.018,2006
8,0.5415,-1.3037,0.1946,-0.4902,0.7722,0.0185,2026
8,0.562,-1.5159,0.3113,-0.558,1.0451,0.0597,1956
8,0.5117,-1.7363,0.4009,-0.808,1.6859,0.131,2015
8,0.6409,-1.6528,0.4377,-0.851,1.8839,0.188,2045
8,0.8774,-1.6746,0.4619,-0.9127,2.013,0.3253,2111
8,1.0835,-1.3333,0.5034,-0.7548,1.8257,0.3097,2025
8,1.0759,-1.2756,0.4192,-0.6617,1.4785,0.2004,2046
8,0.8862,-1.1455,0.2554,-0.4022,0.852,0.0766,2030
8,0.5344,-1.2031,0.2334,-0.2527,0.5968,0.0198,2042
8,0.3921,-1.2488,0.2305,-0.1032,0.4703,-0.0453,2084
8,0.3213,-1.2639,0.1919,0.0229,0.3474,-0.1003,2077
8,0.3621,-1.2146,0.1458,0.161,0.2096,-0.0847,2026
8,0.4812,-1.1658,0.1262,0.2264,-0.0894,0.0031,2056
8,0.4961,-1.0859,0.073,0.2369,-0.308,0.0656,2039
8,0.4514,-0.9944,0.0215,0.231,-0.448,0.1369,2035
8,0.4065,-0.9021,0.0039,0.253,-0.3996,0.1836,2004
8,0.3591,-0.783,0.0303,0.2983,-0.2563,0.2392,2037
8,0.3374,-0.6926,0.0571,0.3374,-0.0638,0.284,2009
8,0.3152,-0.6279,0.0903,0.3679,0.1382,0.3358,2046
8,0.2856,-0.5759,0.1147,0.3906,0.2476,0.4028,2033
8,0.2561,-0.5469,0.0857,0.4221,0.2779,0.4811,2097
8,0.1331,-0.52,0.1118,0.4408,0.371,0.5251,2041
8,0.1204,-0.4609,0.0449,0.5485,0.3611,0.5898,2025
8,0.0872,-0.3899,0.0525,0.556,0.4127,0.5695,2036
8,0.0486,-0.4106,0.1196,0.5299,0.4303,0.6165,2034
8,0.0544,-0.3267,0.0847,0.6215,0.4248,0.6577,2124
8,0.1199,-0.3511,0.1638,0.5691,0.3968,0.6911,2079
8,0.1311,-0.3127,0.1277,0.6253,0.3153,0.6902,2067
8,0.1292,-0.3235,0.0876,0.6734,0.2115,0.6882,2048
8,0.136,-0.4014,0.082,0.6632,0.1489,0.6452,2010
8,0.1328,-0.4409,0.0188,0.715,0.1543,0.545,2097
8,0.2219,-0.5259,0.0474,0.6564,0.1216,0.532,2029
8,0.2354,-0.6123,-0.0154,0.6332,0.0029,0.34,2011
8,0.4053,-0.6633,-0.0356,0.5879,-0.2374,0.3504,2108
8,0.2319,-0.6792,-0.0913,0.5102,-0.2839,0.2891,2033
8,0.1357,-0.7488,-0.1133,0.473,-0.381,0.2787,2052
8,0.1143,-0.8042,0.0208,0.3428,-0.2205,0.3087,2055
8,0.085,-0.8328,0.011,0.3131,-0.276,0.222,2146
8,0.1506,-0.8118,0.1633,0.2345,-0.198,0.2647,2013
8,0.2075,-0.8162,0.188,0.173,-0.2811,0.1802,2043
8,0.1833,-0.7766,0.3103,0.0838,-0.1915,0.2382,1982
8,0.2939,-0.7751,0.3914,0.1176,-0.3417,0.2967,2103
8,0.3503,-0.7305,0.4431,0.1674,-0.4627,0.2177,2022
8,0.3691,-0.7539,0.394,0.2575,-0.6642,0.2011,2061
8,0.3579,-0.6958,0.4441,0.334,-0.755,0.1702,1981
8,0.1167,-0.7522,0.4175,0.3187,-0.4494,0.2125,2150
8,0.0671,-0.896,0.4719,0.4425,-0.1083,0.3374,2049
8,0.1252,-1.0647,0.4268,0.6051,-0.0021,0.3722,2016
8,0.2993,-1.2161,0.4714,0.7277,-0.0138,0.3388,2164
8,0.3149,-1.3953,0.5442,0.7171,-0.1977,0.328,1908
8,0.1953,-1.5562,0.5496,0.5104,-0.2602,0.2906,2030
8,0.1128,-1.5532,0.4766,0.3247,-0.4394,0.4216,2116
8,0.0962,-1.5999,0.4954,0.0976,-0.4046,0.498,1937
9,0.0742,-1.8108,0.4529,-0.0827,-0.2834,0.5578,2199
9,0.1445,-1.9678,0.3044,-0.0871,-0.3019,0.7244,2136
9,0.1528,-1.8389,0.2681,-0.0696,-0.43,0.5225,1979
9,0.2561,-1.7217,0.418,-0.0276,-0.6689,0.6578,2009
9,0.3203,-1.4688,0.4248,0.0466,-0.7268,0.4618,2010
9,0.3499,-1.271,0.4102,0.2697,-0.6763,0.5348,2071
9,0.4194,-1.217,0.636,0.3073,-0.5911,0.3304,2066
9,0.3601,-1.3313,0.5886,0.3207,-0.6392,0.1081,2121
9,0.2961,-1.3865,0.5168,0.2975,-0.4215,-0.1726,1993
9,0.29,-1.3948,0.4302,0.2629,-0.3762,-0.4,2079
9,0.262,-1.3882,0.2861,0.1896,-0.2768,-0.5639,2032
9,0.2041,-1.365,0.2344,0.0555,-0.1232,-0.5568,2042
9,0.2207,-1.2485,0.145,-0.02,-0.1139,-0.5332,2052
9,0.2097,-1.188,0.1794,-0.0929,-0.0633,-0.494,2122
9,0.2385,-1.1006,0.1699,-0.0972,-0.1643,-0.4992,1981
9,0.1665,-1.0352,0.1821,-0.2036,-0.0687,-0.5027,2107
9,0.1924,-0.929,0.2063,-0.2204,-0.1354,-0.4899,2034
9,0.1536,-0.8965,0.248,-0.365,0.0593,-0.4805,2038
9,0.1492,-0.7568,0.2212,-0.4521,0.0405,-0.4851,2070
9,0.1118,-0.7092,0.2168,-0.5588,0.1891,-0.4344,2013
9,0.1545,-0.6675,0.1836,-0.6068,0.2438,-0.3846,2041
9,0.1694,-0.6211,0.1172,-0.5931,0.2077,-0.3638,2234
9,0.2065,-0.6401,0.0923,-0.5681,0.1862,-0.2904,2023
9,0.2009,-0.6497,0.0793,-0.5389,0.1059,-0.1984,2025
9,0.2273,-0.6702,0.031,-0.5039,0.0301,-0.1734,2048
9,0.1431,-0.6914,0.0574,-0.4489,-0.086,-0.1654,2073
9,0.1929,-0.4895,-0.0088,-0.3781,-0.0828,-0.4485,2023
9,0.1973,-0.4429,-0.0078,-0.312,-0.1417,-0.5279,2066
9,0.1672,-0.5208,0.0154,-0.3099,-0.1976,-0.6011,1994
9,0.1594,-0.5708,-0.0115,-0.3037,-0.3007,-0.608,2127
9,0.1174,-0.5591,0.0132,-0.339,-0.3184,-0.5847,1935
9,0.0842,-0.5066,0.0242,-0.3068,-0.2935,-0.5163,2039
9,0.0449,-0.5298,0.0073,-0.2499,-0.2896,-0.4798,2003
9,0.0405,-0.6545,0.0029,-0.1907,-0.2699,-0.465,2047
9,0.0686,-0.6929,-0.0239,-0.1364,-0.2811,-0.4099,2006
9,0.0674,-0.6646,-0.0488,-0.1306,-0.3173,-0.3818,2063
9,0.0759,-0.6152,-0.0291,-0.1276,-0.3681,-0.3835,2048
9,0.1108,-0.6321,-0.0396,-0.1317,-0.3796,-0.4264,2067
9,0.1511,-0.6567,-0.0317,-0.1337,-0.4436,-0.4324,2021
9,0.1948,-0.7085,-0.0381,-0.1396,-0.555,-0.4088,2110
9,0.2095,-0.7747,-0.05,-0.1261,-0.609,-0.373,2029
9,0.1904,-0.7954,-0.0334,-0.1028,-0.6907,-0.3429,2135
9,0.2004,-0.8369,-0.054,-0.0715,-0.7012,-0.3316,2079
9,0.2622,-0.8755,0.0,-0.0414,-0.7343,-0.3374,2051
9,0.2871,-0.9375,0.127,0.0445,-0.7058,-0.3693,2053
9,0.302,-0.9614,0.1838,0.1144,-0.6652,-0.2776,2113
9,0.2708,-0.8542,0.1089,0.0762,-0.6195,-0.074,2089
9,0.2751,-0.8608,-0.0474,-0.0583,-0.6702,0.0575,2094
9,0.2708,-0.9404,-0.074,-0.2521,-0.3546,-0.0013,2058
9,0.2542,-0.9404,-0.1042,-0.2179,-0.0795,-0.1075,2127
9,0.2751,-1.0046,-0.0779,-0.1265,0.1634,-0.0309,2068
9,0.2886,-1.2141,-0.042,-0.091,0.3609,-0.0052,2028
9,0.4351,-1.4111,0.0432,-0.073,0.4504,-0.0055,2039
9,0.3855,-1.4858,0.1719,-0.2189,0.6625,0.0096,2018
9,0.3406,-1.3848,0.2732,-0.3571,0.9056,0.0515,1966
9,0.4299,-1.2849,0.3584,-0.5269,1.1471,0.0822,1990
9,0.4019,-1.2949,0.4995,-0.8321,1.7096,0.0728,2005
9,0.2659,-1.397,0.5515,-1.1515,2.6896,0.0344,2124
9,0.2969,-1.373,0.6411,-1.3737,3.5954,-0.063,2032
9,0.6003,-1.27,0.7251,-1.3615,3.8391,-0.0593,2036
9,0.7825,-1.2849,0.6885,-1.1812,3.365,-0.1585,2007
9,0.8113,-1.2568,0.5332,-0.8259,2.092,-0.1224,2033
9,0.7761,-1.2544,0.3062,-0.3609,0.6122,-0.0953,1989
9,0.8171,-1.2971,0.2341,-0.0726,-0.5324,-0.0598,2035
9,0.5493,-1.2957,0.2036,0.0474,-0.9661,-0.1377,2058
9,0.407,-1.2607,0.1545,0.0937,-1.1335,-0.0965,2037
9,0.1191,-1.2603,0.1411,0.0324,-0.8653,0.0158,2047
9,0.3975,-1.1912,0.1143,0.1683,-1.0332,0.2092,2039
9,0.4216,-1.1646,0.1479,0.2305,-0.9316,0.3223,2051
9,0.3916,-1.1353,0.1077,0.2514,-0.9706,0.4135,2034
9,0.4202,-1.0933,0.0776,0.2607,-0.8955,0.426,2156
9,0.3467,-1.0151,0.0527,0.2834,-0.7898,0.387,2083
9,0.3064,-0.9263,0.0601,0.2838,-0.6701,0.3738,2045
9,0.2805,-0.8311,0.061,0.284,-0.5152,0.349,2072
9,0.2764,-0.7568,0.072,0.2695,-0.3658,0.3232,2018
9,0.2617,-0.6968,0.0896,0.2317,-0.1854,0.3016,2052
9,0.2158,-0.6479,0.1028,0.214,-0.0015,0.3153,2052
9,0.1841,-0.6443,0.1074,0.1968,0.1601,0.3293,2013
9,0.207,-0.6094,0.1028,0.2075,0.3149,0.326,2064
9,0.2078,-0.5859,0.1145,0.1911,0.436,0.3309,1990
9,0.2124,-0.5571,0.0923,0.2113,0.4986,0.3393,2051
9,0.1865,-0.5315,0.0662,0.196,0.5793,0.3128,2018
9,0.1694,-0.5115,0.0601,0.1734,0.6253,0.2952,2053
9,0.1467,-0.4771,0.0764,0.1208,0.6685,0.2782,2070
9,0.1726,-0.384,0.0637,0.1294,0.6161,0.2982,2043
9,0.1941,-0.3674,0.0654,0.1276,0.5777,0.3538,2044
9,0.2292,-0.3579,0.0278,0.1689,0.4876,0.4454,2079
9,0.2444,-0.3618,0.0164,0.2193,0.4052,0.5124,2066
9,0.1616,-0.4165,0.0244,0.2436,0.3986,0.4798,1995
9,0.1626,-0.437,-0.0078,0.3064,0.3887,0.4128,2040
9,0.1367,-0.4414,-0.0173,0.357,0.4643,0.2802,2060
9,0.1589,-0.4771,0.0042,0.3682,0.3586,0.2071,2073
9,0.1411,-0.5386,0.0339,0.29,0.3181,0.1394,2026
9,0.072,-0.6067,0.0002,0.2619,0.2485,0.1521,2151
9,0.0327,-0.6826,0.0442,0.2083,0.2673,0.1783,2041
9,0.0029,-0.8337,0.1006,0.1274,0.3071,0.2135,2202
9,0.1055,-0.917,0.1213,0.0429,0.2286,0.1795,2012
9,0.0979,-0.9297,0.1282,-0.068,0.1345,0.1196,1997
9,0.1675,-1.0208,0.1863,-0.1965,-0.0245,0.1473,2015
9,0.2654,-1.0408,0.207,-0.3128,-0.1891,0.1354,2076
9,0.2705,-0.9756,0.2214,-0.3433,-0.3924,0.127,1995
9,0.3381,-0.8728,0.2222,-0.3141,-0.5228,0.1393,2127
9,0.3271,-0.825,0.24,-0.2706,-0.503,0.2065,2041
9,0.4497,-0.7307,0.2671,-0.0029,-0.7359,0.3041,1949
9,0.2903,-0.8208,0.3557,0.1868,-0.7437,0.3386,2016
10,0.1458,-0.9275,0.3872,0.469,-0.5847,0.3326,2125
10,0.2229,-1.0369,0.4524,0.6668,-0.4581,0.3348,1984
10,0.2583,-1.1868,0.4585,0.9011,-0.3886,0.2943,1992
10,0.2222,-1.272,0.502,1.0385,-0.3251,0.243,2081
10,0.1499,-1.3447,0.5837,0.9862,-0.4902,0.2434,1954
10,0.0752,-1.3943,0.554,0.7658,-0.6477,0.3103,2161
10,0.0276,-1.4392,0.5352,0.5156,-0.7489,0.3458,2002
10,0.0139,-1.5947,0.3945,0.316,-0.7464,0.3547,2062
10,0.002,-1.7659,0.3308,-0.0033,-0.5841,0.4247,2011
10,0.0601,-1.7415,0.2639,-0.1434,-0.4073,0.5051,2038
10,0.0979,-1.6233,0.3132,-0.2783,-0.3152,0.3755,2059
10,0.1636,-1.4597,0.2571,-0.3021,-0.0727,0.2064,2170
10,0.2661,-1.3672,0.2905,-0.2056,0.1356,0.2332,1985
10,0.3479,-1.333,0.2964,-0.1358,0.3282,0.1759,2111
10,0.3518,-1.353,0.3276,-0.1064,0.5315,0.1301,2043
10,0.2947,-1.4282,0.3789,-0.2085,0.8288,-0.0157,2172
10,0.2185,-1.448,0.3804,-0.2859,1.1467,-0.184,2057
10,0.2332,-1.386,0.3538,-0.3306,1.3488,-0.4024,2037
10,0.2419,-1.3457,0.2693,-0.3208,1.2814,-0.5596,2043
10,0.3379,-1.2971,0.2102,-0.2141,0.8814,-0.6046,2051
10,0.2551,-1.2549,0.1873,-0.1165,0.4285,-0.6248,2042
10,0.3464,-1.2339,0.1768,-0.024,-0.0266,-0.5067,2011
10,0.2642,-1.1619,0.1797,0.0413,-0.2838,-0.5485,1998
10,0.2673,-1.1165,0.189,0.0541,-0.4382,-0.4868,2050
10,0.239,-1.0764,0.2029,-0.0206,-0.4295,-0.4826,2037
10,0.2166,-0.999,0.1804,-0.1005,-0.3444,-0.4886,2069
10,0.1921,-0.9109,0.1941,-0.1807,-0.2396,-0.4831,2133
10,0.1699,-0.8428,0.178,-0.2342,-0.1337,-0.4884,2017
10,0.1851,-0.7617,0.1675,-0.239,-0.0454,-0.5076,2048
10,0.2207,-0.7007,0.1211,-0.2404,0.0133,-0.5412,2078
10,0.2217,-0.6768,0.1033,-0.2123,0.0352,-0.5554,2040
10,0.2034,-0.6531,0.075,-0.1866,0.039,-0.5317,2065
10,0.2236,-0.605,0.0251,-0.1691,0.0553,-0.5327,2059
10,0.2065,-0.5747,0.0259,-0.1413,0.0778,-0.5689,2081
10,0.1746,-0.5654,0.0151,-0.1393,0.1145,-0.5948,2070
10,0.1377,-0.5625,0.0154,-0.1136,0.1788,-0.6124,2002
10,0.1184,-0.5815,0.0305,-0.1463,0.2884,-0.648,2024
10,0.083,-0.5564,0.0239,-0.1582,0.3251,-0.6384,2053
10,0.0813,-0.5405,0.0205,-0.1748,0.4046,-0.6482,2057
10,0.0898,-0.5356,0.0137,-0.196,0.4658,-0.6488,2024
10,0.0896,-0.5383,-0.0046,-0.1736,0.4754,-0.6691,1976
10,0.1069,-0.5525,-0.011,-0.1471,0.441,-0.6561,2021
10,0.1199,-0.5447,-0.0249,-0.1326,0.4,-0.6433,1989
10,0.136,-0.5469,-0.0315,-0.075,0.2625,-0.6251,2036
10,0.1501,-0.5664,-0.0229,-0.0234,0.1285,-0.5987,1931
10,0.1536,-0.5908,-0.0706,0.0381,-0.0039,-0.5556,2067
10,0.1575,-0.6289,-0.0747,0.0896,-0.1236,-0.5141,2005
10,0.1406,-0.6851,-0.1072,0.1348,-0.1654,-0.4822,2117
10,0.1755,-0.7083,-0.0684,0.2205,-0.2087,-0.4798,2097
10,0.2664,-0.7371,0.0186,0.3493,-0.23,-0.5247,2044
10,0.3127,-0.77,-0.0015,0.4307,-0.281,-0.4277,2105
10,0.1934,-0.8145,-0.1084,0.3623,-0.2494,-0.2073,2036
10,0.0564,-0.8433,-0.1423,0.2687,-0.0514,-0.0859,2046
10,0.0879,-0.8677,-0.1799,0.2023,0.2008,-0.063,2006
10,0.0657,-0.8977,-0.1479,0.2181,0.3733,-0.0053,2071
10,0.0559,-0.9224,-0.0688,0.2697,0.3934,0.0349,2067
10,0.1111,-0.9111,-0.0188,0.2725,0.3573,0.0702,2048
10,0.1226,-0.8882,0.0383,0.2796,0.3132,0.0726,2090
10,0.157,-0.9294,0.064,0.2811,0.1926,0.0602,2051
10,0.1826,-1.0396,0.113,0.2685,0.1127,0.022,2030
10,0.2305,-1.2019,0.1682,0.2129,0.1178,0.0057,1925
10,0.3115,-1.3254,0.2244,0.1037,0.116,0.0096,2020
10,0.4429,-1.4031,0.3083,-0.0831,0.0696,0.0362,2165
10,0.6223,-1.302,0.3369,-0.1819,-0.1281,0.2128,2116
10,0.6323,-1.1394,0.5186,-0.408,0.1806,0.2641,2098
10,0.3396,-1.0427,0.6128,-0.5745,0.5927,0.2464,2109
10,0.2778,-1.1257,0.6851,-0.7554,1.1632,0.2191,2016
10,0.395,-1.2388,0.6404,-0.9178,1.9309,0.1306,2119
10,0.4573,-1.3467,0.5615,-1.0156,2.2475,0.0975,2057
10,0.832,-1.4014,0.5542,-1.0099,2.2485,0.0945,2027
10,0.9375,-1.4375,0.4731,-1.0083,1.9876,0.0353,2070
10,0.7852,-1.3638,0.3916,-0.8881,1.4298,-0.0165,2044
10,0.5747,-1.2468,0.3071,-0.6091,0.7054,-0.0487,2102
10,0.5024,-1.1799,0.2175,-0.3408,0.1171,-0.0601,2030
10,0.4326,-1.1072,0.1802,-0.2005,0.0297,-0.0993,2061
10,0.3889,-1.0078,0.1667,-0.0154,-0.0931,-0.0823,2025
10,0.3406,-1.0605,0.1775,0.0554,-0.055,-0.0639,1997
10,0.3037,-1.0764,0.1912,0.0783,0.085,-0.0296,2033
10,0.2883,-1.0886,0.2019,0.0668,0.2541,-0.0621,2083
10,0.3254,-1.1277,0.1846,0.0076,0.3846,-0.0633,2001
10,0.3831,-1.071,0.1533,-0.087,0.4651,-0.0409,2036
10,0.3804,-1.0007,0.0955,-0.1645,0.4498,0.0258,2048
10,0.3499,-0.9185,0.0364,-0.2167,0.4872,0.0178,2056
10,0.3259,-0.8225,0.0178,-0.2547,0.5275,0.03,2069
10,0.2439,-0.7539,0.01,-0.257,0.6292,0.0645,2008
10,0.1772,-0.6772,0.0054,-0.3245,0.7427,0.0768,2075
10,0.2222,-0.5767,0.0061,-0.3408,0.8339,0.0663,2020
10,0.1924,-0.5415,-0.0024,-0.3936,0.8851,0.0353,2062
10,0.1604,-0.4707,-0.0208,-0.4541,0.9289,-0.0627,2052
10,0.1682,-0.541,0.0205,-0.5598,1.1708,0.0499,2053
10,0.2053,-0.4585,-0.0349,-0.5691,1.1906,-0.1218,2050
10,0.145,-0.4697,-0.0706,-0.6508,1.3339,-0.1133,2031
10,0.2222,-0.4521,-0.1011,-0.6297,1.4022,0.0236,2036
10,0.1682,-0.3662,-0.1152,-0.5521,1.4677,0.006,2103
10,0.238,-0.3843,-0.0669,-0.2808,1.4386,0.2939,2073
10,0.1624,-0.4597,0.0879,0.1147,1.3989,0.4722,2107
10,0.1711,-0.5342,0.1746,0.5229,1.2648,0.5477,2188
10,0.1677,-0.6699,0.2424,0.7175,1.0752,0.5781,2029
10,0.1289,-0.8274,0.311,0.8259,0.7977,0.507,1893
10,0.0825,-0.9966,0.3333,0.9038,0.3822,0.3558,2028
11,0.0952,-1.0627,0.3154,0.7369,0.2077,0.2623,2042
11,0.1516,-1.0535,0.3301,0.3983,0.1292,0.1325,2109
11,0.2456,-0.98,0.2324,0.0985,-0.019,0.1004,2163
11,0.2317,-0.937,0.1433,-0.0579,-0.0891,0.1814,2064
11,0.2334,-0.9395,0.0847,-0.1987,-0.1205,0.2165,2064
11,0.2397,-0.9404,0.0293,-0.2606,-0.1045,0.298,2131
11,0.4744,-0.7507,-0.0796,-0.1606,-0.3587,0.2623,2050
11,0.2078,-0.8108,-0.0288,-0.1831,-0.0957,0.3064,2068
11,0.2244,-0.7605,0.0056,-0.1242,0.1888,0.3975,2045
11,0.3455,-0.6333,-0.1233,0.1257,0.1459,0.3834,2039
11,0.613,-0.5732,-0.1218,0.3107,0.1059,0.2788,2162
11,0.384,-0.7634,0.062,0.318,0.1176,0.1041,1989
11,0.2708,-0.8586,0.0779,0.2872,0.3504,0.1599,2152
11,0.1196,-0.9587,0.1274,0.134,0.8938,0.1413,2185
11,-0.0515,-1.1199,0.2246,-0.0539,1.5233,0.0671,2013
11,0.4177,-1.4324,-0.0002,0.3607,1.1801,0.0742,1948
11,0.3083,-1.9915,0.2983,0.1759,1.207,-0.1322,2080
11,-0.2803,-2.0,0.5759,-0.4413,1.3793,-0.227,2079
11,-0.2268,-1.7261,0.4229,-0.4421,1.0192,0.132,2002
11,-0.1865,-1.4304,0.7083,-0.7062,1.5336,0.1724,2000
11,-0.1479,-1.2351,0.4634,-0.646,1.3027,0.2039,2048
11,0.0708,-1.3645,0.4653,-0.5165,1.4061,0.3297,2038
11,0.2327,-1.3564,0.4783,-0.424,1.3836,0.0545,2046
11,0.2954,-1.3838,0.5051,-0.4831,1.2962,-0.1108,2046
11,0.2742,-1.4177,0.4377,-0.4886,1.3817,-0.069,2051
11,0.0933,-1.4551,0.4414,-0.5054,1.5532,-0.1017,2035
11,0.011,-1.5168,0.4099,-0.5112,1.8547,-0.1663,2022
11,0.0671,-1.5244,0.3579,-0.4622,2.1509,-0.2172,2066
11,0.0737,-1.5405,0.3416,-0.3934,2.3563,-0.2714,2001
11,0.0435,-1.5024,0.3328,-0.3955,2.4467,-0.3914,2033
11,0.0103,-1.4768,0.3564,-0.3502,2.3871,-0.4888,2040
11,-0.0137,-1.4021,0.4048,-0.2855,2.1676,-0.6393,1956
11,-0.0842,-1.3704,0.427,-0.3041,1.9485,-0.7232,2037
11,-0.0042,-1.2275,0.4231,-0.2884,1.6103,-0.7241,2040
11,0.1133,-1.1079,0.4316,-0.2848,1.1646,-0.7329,2149
11,0.1943,-1.0527,0.3689,-0.2752,0.6998,-0.6843,2043
11,0.1873,-1.0586,0.3625,-0.4003,0.3425,-0.7123,2047
11,0.1782,-1.0017,0.2598,-0.4927,0.1388,-0.7455,2064
11,0.1094,-0.8928,0.1843,-0.5665,0.1699,-0.7605,2040
11,0.0886,-0.7488,0.1226,-0.5388,0.312,-0.7333,2063
11,0.0547,-0.7046,0.0947,-0.5212,0.4987,-0.7363,2067
11,0.0354,-0.7258,0.0437,-0.4966,0.756,-0.8075,2028
11,0.0447,-0.6978,0.0254,-0.4244,0.9641,-0.863,2047
11,0.0649,-0.6731,0.0178,-0.4072,1.2105,-0.9148,2071
11,0.0691,-0.6477,-0.0034,-0.3727,1.3431,-0.9128,2094
11,0.1204,-0.6221,-0.0229,-0.3444,1.4561,-0.993,1991
11,0.0833,-0.5942,-0.01,-0.308,1.5382,-1.0073,2024
11,0.105,-0.5728,-0.0208,-0.2764,1.582,-1.0204,1985
11,0.0837,-0.6133,-0.0491,-0.2527,1.6384,-1.0232,2107
11,0.0432,-0.6897,-0.0405,-0.2334,1.6531,-1.0319,2024
11,0.0469,-0.7275,-0.0945,-0.2185,1.6518,-1.0646,2050
11,0.0325,-0.7449,-0.1062,-0.1932,1.6243,-1.0997,2181
11,0.0625,-0.7678,-0.124,-0.1454,1.5677,-1.1154,1987
11,0.0828,-0.8025,-0.144,-0.09,1.4649,-1.0918,1987
11,0.0977,-0.842,-0.1499,-0.0341,1.334,-1.0609,2087
11,0.0762,-0.8862,-0.1414,0.0129,1.2609,-1.0451,1967
11,0.0811,-0.9351,-0.0642,0.0333,1.2426,-1.0373,1964
11,0.0977,-1.0107,-0.0295,0.059,1.1877,-1.029,2040
11,0.1099,-1.0769,0.0383,0.045,1.1424,-1.0079,2101
11,0.1509,-1.1267,0.0564,0.0441,1.0372,-0.9637,2023
11,0.145,-1.1475,0.1194,-0.0222,0.9966,-0.9537,1996
11,0.1394,-1.1519,0.1775,-0.1045,0.9855,-0.9456,2126
11,0.0972,-1.1716,0.1902,-0.1727,1.0633,-0.9648,2005
11,0.1074,-1.2041,0.2407,-0.2328,1.1025,-0.9821,2065
11,0.1355,-1.2449,0.2659,-0.3039,1.1495,-1.0025,2098
11,0.1831,-1.2568,0.2637,-0.393,1.1404,-0.9982,1992
11,0.2383,-1.2625,0.2524,-0.4825,1.0942,-0.9741,2026
11,0.2566,-1.2385,0.2544,-0.5223,1.0668,-0.9364,2069
11,0.2639,-1.2305,0.2485,-0.538,1.0065,-0.9215,2080
11,0.3215,-1.2612,0.2349,-0.5303,0.9259,-0.8951,2038
11,0.3396,-1.3743,0.2549,-0.5015,0.8335,-0.889,2040
11,0.3831,-1.4897,0.2456,-0.4381,0.697,-0.8777,2169
11,0.4373,-1.4915,0.3188,-0.4023,0.5067,-0.8387,2000
11,0.4771,-1.3606,0.3386,-0.3999,0.3224,-0.7251,2049
11,0.469,-1.2151,0.3301,-0.3725,0.2282,-0.6251,2050
11,0.438,-1.1411,0.2988,-0.3918,0.3023,-0.5605,2070
11,0.3604,-1.1392,0.2664,-0.4104,0.481,-0.5184,2042
11,0.2859,-1.1208,0.2478,-0.4444,0.7802,-0.5054,2040
11,0.1753,-1.0579,0.2595,-0.493,1.1403,-0.487,2073
11,0.1143,-0.9177,0.3032,-0.5352,1.4948,-0.5008,2032
11,0.1558,-0.7971,0.3521,-0.6229,1.6579,-0.5512,2029
11,0.1606,-0.7461,0.3406,-0.7225,1.7654,-0.607,2066
11,0.1597,-0.7534,0.324,-0.8032,1.7551,-0.6564,2036
11,0.1755,-0.7727,0.2993,-0.8865,1.7178,-0.6895,2060
11,0.1648,-0.7791,0.26,-0.9757,1.6382,-0.7241,1974
11,0.1389,-0.7607,0.239,-1.0576,1.521,-0.7621,2073
11,0.1284,-0.7305,0.2012,-1.1303,1.3511,-0.7869,2026
11,0.1443,-0.719,0.136,-1.1632,1.1572,-0.7897,2013
11,0.1714,-0.7131,0.0654,-1.1144,1.0076,-0.7771,2021
11,0.1843,-0.7004,-0.0242,-1.031,0.8799,-0.7399,2077
11,0.1958,-0.719,-0.0759,-0.9196,0.7714,-0.6857,1961
11,0.2659,-0.7703,-0.144,-0.8107,0.6815,-0.595,2046
11,0.2959,-0.8127,-0.1807,-0.6823,0.6207,-0.4669,2057
11,0.2488,-0.8484,-0.1665,-0.5372,0.6083,-0.3432,2039
11,0.2019,-0.8926,-0.1226,-0.4855,0.6797,-0.2084,2051
11,0.1987,-0.8882,-0.054,-0.4522,0.7845,-0.0565,1984
11,0.135,-0.866,0.0044,-0.4322,0.9243,0.0526,2044
11,0.0808,-0.8623,0.0708,-0.4466,1.0991,0.1374,2067
11,0.0413,-0.8777,0.1257,-0.4697,1.2841,0.1948,1990
11,0.0254,-0.9062,0.1619,-0.5569,1.4129,0.2268,2056
11,0.0608,-0.9365,0.1753,-0.6532,1.5178,0.247,2030
11,0.1006,-0.9519,0.1499,-0.7505,1.5695,0.2525,2057
11,0.1477,-0.9871,0.1465,-0.8431,1.5422,0.2254,2069
12,0.2114,-1.0044,0.1101,-0.9034,1.4482,0.1992,2103
12,0.2734,-0.9807,0.0747,-0.9323,1.3122,0.2053,2078
12,0.3372,-0.9426,0.0645,-0.961,1.2127,0.2328,2169
12,0.366,-0.907,0.0413,-0.985,1.1896,0.1983,1986
12,0.386,-0.8701,0.0168,-1.0006,1.1556,0.194,2096
12,0.396,-0.8713,0.0364,-0.9734,1.1706,0.1422,2045
12,0.3926,-0.8872,0.0549,-0.9618,1.384,0.0641,2075
12,0.2832,-0.8984,0.1401,-1.0256,1.704,0.0032,2049
12,0.2686,-0.9277,0.1831,-1.0926,1.9567,-0.0346,2057
12,0.3145,-0.9265,0.2188,-1.1483,2.31,-0.0947,2058
12,0.2952,-0.8982,0.22,-1.2159,2.592,-0.1535,2052
12,0.3062,-0.8931,0.2083,-1.2829,2.7353,-0.2208,2063
12,0.4146,-0.8499,0.1316,-1.2336,2.6598,-0.2346,1986
12,0.4148,-0.8228,0.1204,-1.1808,2.5535,-0.3007,2066
12,0.4583,-0.7375,0.0188,-1.0449,2.2083,-0.2871,2026
12,0.4163,-0.7703,0.0134,-0.9837,2.0176,-0.3057,2037
12,0.3376,-0.7891,0.0115,-0.8906,1.8977,-0.331,2055
12,0.3342,-0.8118,-0.0198,-0.7971,1.6837,-0.3207,2149
12,0.2981,-0.8081,0.0178,-0.7549,1.5491,-0.3232,1983
12,0.241,-0.8054,-0.012,-0.7163,1.4668,-0.2852,2075
12,0.2175,-0.8174,-0.0198,-0.7182,1.4627,-0.2525,2024
12,0.2104,-0.8296,0.009,-0.6637,1.4099,-0.1703,2073
12,0.1936,-0.8494,-0.0049,-0.6044,1.4019,-0.0836,2028
12,0.2021,-0.8779,-0.0286,-0.5522,1.3727,-0.0467,1996
12,0.2339,-0.905,-0.0513,-0.5454,1.3155,-0.0389,2055
12,0.2383,-0.9097,-0.1096,-0.5526,1.2143,-0.0225,2206
12,0.2241,-0.8877,-0.1411,-0.5691,1.1688,0.0184,2034
12,0.1626,-0.9177,-0.1733,-0.612,1.1565,0.0823,2015
12,0.1506,-0.937,-0.1868,-0.6228,1.162,0.1361,2112
12,0.1121,-0.9602,-0.1626,-0.6336,1.237,0.1955,2004
12,0.1189,-0.9778,-0.1416,-0.6203,1.2774,0.2384,2025
12,0.1628,-0.9768,-0.1606,-0.6257,1.3219,0.2705,2132
12,0.1953,-0.9758,-0.1606,-0.6336,1.4069,0.2859,2026
12,0.2195,-1.0623,-0.1597,-0.626,1.4696,0.3163,2108
12,0.2322,-1.2039,-0.1814,-0.6019,1.4848,0.3337,2026
12,0.2305,-1.2922,-0.1199,-0.6297,1.6163,0.3543,2037
12,0.2039,-1.2959,-0.0745,-0.6894,1.6852,0.3661,2073
12,0.189,-1.2935,-0.0181,-0.759,1.7326,0.3574,2025
12,0.1797,-1.2681,0.0068,-0.8143,1.7904,0.3521,2146
12,0.134,-1.2776,0.1157,-0.952,1.8638,0.3454,1912
12,0.0767,-1.1741,0.1328,-1.0147,1.9471,0.3016,2016
12,0.0315,-1.1479,0.1936,-1.1184,2.0892,0.2654,2045
12,0.0237,-1.1138,0.2175,-1.1709,2.2254,0.2028,2017
12,0.0403,-1.123,0.2168,-1.2131,2.3541,0.1313,2046
12,0.0894,-1.126,0.2385,-1.2452,2.5089,0.0533,2026
12,0.1028,-1.072,0.2749,-1.1812,2.5566,-0.0495,2066
12,0.072,-1.1165,0.3452,-1.1704,2.7248,-0.1581,2075
12,0.0654,-1.0127,0.3687,-1.0601,2.7987,-0.2812,2054
12,0.0842,-1.0386,0.4026,-0.9913,2.8241,-0.363,2169
12,0.1628,-1.0664,0.322,-0.8397,2.6325,-0.4028,2057
12,0.3042,-1.0505,0.2375,-0.6062,2.2334,-0.4195,2121
12,0.3477,-1.0481,0.1663,-0.3478,1.8887,-0.4333,2028
12,0.1809,-1.1372,0.1594,-0.2834,1.6494,-0.4496,2076
12,0.0908,-1.1587,0.0732,-0.2135,1.4049,-0.4015,2058
12,-0.0273,-1.1814,0.0674,-0.1983,1.4191,-0.3332,2022
12,-0.1882,-1.1719,0.0613,-0.2012,1.6374,-0.2491,2006
12,-0.2783,-1.1577,0.0554,-0.2539,1.8494,-0.1685,2048
12,-0.2708,-1.1533,0.0691,-0.3053,2.0836,-0.1272,2096
12,-0.218,-1.1333,0.1187,-0.3932,2.2134,-0.1362,2033
12,-0.1511,-1.0425,0.116,-0.4683,2.2274,-0.1779,2226
12,-0.0962,-0.9558,0.1267,-0.5019,2.1365,-0.1898,2022
12,-0.0217,-0.9143,0.1235,-0.5241,2.014,-0.1843,2047
12,0.0039,-0.9204,0.1174,-0.5412,1.8262,-0.1816,2034
12,0.0654,-0.9248,0.0955,-0.5477,1.6119,-0.1605,2068
12,0.1062,-0.9263,0.0779,-0.5477,1.3892,-0.1586,2032
12,0.1172,-0.9253,0.0535,-0.534,1.2194,-0.1673,2005
12,0.1135,-0.9084,0.0459,-0.5295,1.0814,-0.1892,2038
12,0.1028,-0.9019,0.0208,-0.5216,1.0361,-0.2027,2030
12,0.0723,-0.8977,0.0032,-0.496,1.0597,-0.2027,2031
12,0.0908,-0.8757,-0.0188,-0.4541,1.1236,-0.2004,2066
12,0.0935,-0.8503,-0.0383,-0.422,1.2097,-0.1754,2022
12,0.1145,-0.8726,-0.04,-0.3863,1.2812,-0.1538,2107
12,0.1213,-0.8813,-0.0508,-0.3532,1.3332,-0.1241,2020
12,0.1492,-0.9026,-0.0293,-0.295,1.3832,-0.1027,2119
12,0.1748,-0.9199,-0.0002,-0.244,1.4142,-0.1057,2008
12,0.2104,-0.9238,0.0034,-0.1868,1.4038,-0.1178,2007
12,0.2554,-0.9048,0.0222,-0.1317,1.3869,-0.1184,2026
12,0.2949,-0.9014,0.0237,-0.0712,1.2766,-0.1384,2084
12,0.3054,-0.916,0.0105,-0.0142,1.1621,-0.1627,2060
12,0.2917,-0.9746,-0.0178,0.0372,1.0716,-0.2007,2051
12,0.2715,-1.0012,-0.03,0.1004,1.0053,-0.2336,2102
12,0.2195,-1.0359,-0.0081,0.1285,0.9532,-0.2591,1996
12,0.1838,-1.0613,-0.0249,0.1424,0.9248,-0.2622,2105
12,0.2056,-1.0464,0.0193,0.1811,0.8822,-0.2673,2060
12,0.1968,-1.0769,0.0449,0.1722,0.81,-0.3048,2067
12,0.2065,-1.0806,0.0632,0.1518,0.7387,-0.342,2047
12,0.2256,-1.0854,0.0417,0.1115,0.7096,-0.3501,2170
12,0.2202,-1.0786,0.0366,0.0786,0.709,-0.379,2080
12,0.1895,-1.1016,0.0417,0.0405,0.7359,-0.4104,2003
12,0.2322,-1.1182,0.0249,0.0051,0.7742,-0.4109,1993
12,0.2129,-1.1528,0.0503,-0.0417,0.8066,-0.4293,2040
12,0.217,-1.1804,0.0688,-0.0502,0.7741,-0.393,2100
12,0.2007,-1.2622,0.0786,-0.0783,0.7381,-0.3513,2066
12,0.1853,-1.2217,0.1292,-0.0819,0.6867,-0.3083,2030
12,0.1948,-1.1189,0.1667,-0.1206,0.6103,-0.2775,2019
12,0.1326,-0.981,0.2271,-0.2001,0.6518,-0.293,2051
12,0.1086,-1.0239,0.2588,-0.2416,0.6558,-0.341,2068
12,0.0159,-1.1489,0.2903,-0.4028,0.9303,-0.3549,2035
12,0.0417,-1.1648,0.231,-0.4356,1.0878,-0.3207,2054
12,0.0979,-1.1284,0.2078,-0.4163,1.2476,-0.2733,2032
12,0.1602,-1.0872,0.2126,-0.4067,1.3555,-0.2637,2061
12,0.1814,-1.0232,0.2161,-0.4095,1.3862,-0.2818,2064
12,0.1794,-0.9033,0.2617,-0.4287,1.3424,-0.3501,2049
12,0.1643,-0.8374,0.324,-0.5129,1.2667,-0.408,2041
13,0.1208,-0.7661,0.3496,-0.5545,1.2513,-0.4514,2005
13,0.1592,-0.6743,0.3691,-0.4482,1.2011,-0.4955,2062
13,0.3821,-0.7454,0.3855,-0.4572,1.0071,-0.6268,2046
13,0.6301,-0.686,0.3567,-0.3117,0.5841,-0.8469,2020
13,0.8472,-0.6162,0.229,0.0236,-0.2448,-0.9176,2099
13,0.842,-0.6965,0.2644,0.1214,-0.7315,-0.9893,2032
13,0.7258,-0.8718,0.2422,0.173,-1.2824,-0.9238,2106
13,0.4641,-1.04,0.2075,0.1854,-1.6024,-0.8098,2025
13,0.0425,-1.1184,0.1602,0.1177,-1.4372,-0.6343,2066
13,-0.3376,-1.1323,0.1177,0.0152,-1.0126,-0.3236,2034
13,-0.4656,-1.1377,-0.0139,-0.134,-0.3919,-0.068,2033
13,-0.5354,-1.082,-0.0479,-0.2474,0.4742,0.0389,2039
13,-0.2109,-1.0151,-0.1035,-0.3077,0.8726,0.2245,2045
13,0.083,-0.8997,-0.0342,-0.3803,0.9608,0.2807,2011
13,0.2222,-0.8989,0.0454,-0.4217,0.8347,0.2083,2077
13,0.3574,-0.8186,0.0945,-0.3717,0.6149,0.1465,2025
13,0.4158,-0.7295,0.2041,-0.2954,0.4795,0.1289,2070
13,0.3955,-0.7073,0.252,-0.2296,0.265,0.1445,2054
13,0.3987,-0.7246,0.2371,-0.1678,0.1574,0.1848,2127
13,0.3989,-0.752,0.2263,-0.1064,0.121,0.2412,2061
13,0.4258,-0.7727,0.2229,-0.0663,0.1217,0.2614,2033
13,0.4561,-0.7571,0.1946,0.0168,0.1115,0.2577,2014
13,0.4634,-0.761,0.1626,0.069,0.1404,0.2117,2015
13,0.4197,-0.7637,0.136,0.1774,0.1222,0.1851,2035
13,0.3687,-0.7178,0.0996,0.3253,0.1055,0.1794,2058
13,0.363,-0.7217,0.1006,0.4011,0.0618,0.1478,2048
13,0.3137,-0.6992,0.0798,0.4468,0.07,0.1241,2059
13,0.2778,-0.677,0.0581,0.4581,0.0059,0.1165,2027
13,0.2651,-0.6548,0.051,0.4354,0.0073,0.0771,2042
13,0.2888,-0.6128,0.0371,0.4073,-0.0194,0.025,2075
13,0.2876,-0.6213,0.0681,0.3203,-0.0141,-0.0342,2063
13,0.311,-0.5952,0.0613,0.2622,-0.0585,-0.0706,2050
13,0.2664,-0.5833,0.0598,0.1931,-0.0079,-0.0899,2012
13,0.3137,-0.5508,-0.0098,0.2284,-0.0352,-0.0763,2044
13,0.3171,-0.5659,0.0256,0.1969,-0.0257,-0.0888,2054
13,0.302,-0.592,0.0332,0.121,-0.026,-0.0972,2165
13,0.2644,-0.6069,-0.0061,0.0184,-0.0089,-0.1107,1990
13,0.2468,-0.5735,-0.0552,-0.0469,-0.0075,-0.1001,2043
13,0.189,-0.6006,-0.0847,-0.1164,0.0228,-0.0916,2003
13,0.1494,-0.627,-0.1245,-0.1811,0.0948,-0.094,2070
13,0.1106,-0.6465,-0.1719,-0.2321,0.2048,-0.0695,2114
13,0.0967,-0.7139,-0.187,-0.2964,0.2967,-0.0455,2018
13,0.1299,-0.7773,-0.1838,-0.3542,0.389,-0.0181,2048
13,0.1775,-0.8655,-0.1729,-0.44,0.448,0.0162,2060
13,0.2092,-0.9211,-0.1658,-0.5208,0.4707,0.0521,2011
13,0.1624,-0.9761,-0.0879,-0.653,0.5181,0.0896,2205
13,0.1648,-0.896,-0.0654,-0.6608,0.4986,0.1764,2117
13,0.156,-0.8647,-0.0107,-0.7328,0.5935,0.2265,2002
13,0.1997,-0.8262,0.064,-0.7451,0.6469,0.2746,2011
13,0.2046,-0.8625,0.127,-0.7413,0.7618,0.308,2062
13,0.2542,-0.8618,0.2227,-0.6925,0.8552,0.3256,2021
13,0.2981,-0.854,0.3147,-0.597,0.8724,0.3352,2075
13,0.4006,-0.8115,0.3999,-0.4607,0.7818,0.3448,1997
13,0.4434,-0.8223,0.4675,-0.2971,0.6227,0.4201,2083
13,0.4531,-0.8706,0.4946,-0.0959,0.3406,0.3915,2047
13,0.4509,-0.8337,0.5181,0.0501,0.1095,0.352,2084
13,0.3911,-0.8284,0.5542,0.1457,-0.0579,0.2385,1974
13,0.2991,-0.9045,0.5103,0.1297,-0.1164,0.1846,2078
13,0.2168,-1.0337,0.4944,0.0743,-0.0799,0.2135,2036
13,0.2058,-1.1392,0.4016,0.1388,-0.0545,0.0964,2036
13,0.2986,-1.1992,0.3721,0.1248,-0.0032,0.0329,2000
13,0.3367,-1.2522,0.313,-0.0096,-0.0527,-0.0146,2062
13,0.3823,-1.3132,0.2178,-0.1615,-0.2164,-0.0459,2123
13,0.3406,-1.3164,0.1985,-0.3021,-0.2432,-0.0515,2017
13,0.2419,-1.3665,0.1038,-0.3412,-0.249,-0.0083,2054
13,0.1055,-1.645,0.136,-0.3698,-0.0806,0.1702,2027
13,0.0725,-1.9268,0.1089,-0.3902,0.153,0.2119,2049
13,0.1301,-1.9927,0.0474,-0.2751,0.1875,0.3302,2012
13,0.3252,-1.8364,0.0486,-0.1229,0.094,0.3715,2059
13,0.427,-1.6365,0.0735,-0.0462,-0.0249,0.3794,2075
13,0.3684,-1.4912,0.0867,0.0964,0.0157,0.3911,2040
13,0.2866,-1.3926,0.1543,0.1163,0.3233,0.2101,2073
13,0.2183,-1.2915,0.2344,0.0471,0.872,0.071,2159
13,0.2024,-1.2227,0.3281,-0.0077,1.3034,-0.0269,2023
13,0.3411,-1.1775,0.4019,-0.0704,1.4296,-0.1206,2051
13,0.4197,-1.1499,0.3967,-0.1326,1.2242,-0.2491,2054
13,0.4282,-1.1331,0.2822,-0.1898,0.8628,-0.3875,2047
13,0.4116,-1.0962,0.1919,-0.2205,0.4982,-0.4464,2049
13,0.3618,-1.0461,0.1279,-0.2454,0.1337,-0.408,2028
13,0.3025,-0.998,0.0576,-0.2579,-0.1617,-0.3252,2061
13,0.1909,-0.8999,0.0005,-0.2486,-0.2719,-0.2748,2029
13,0.1094,-0.8018,-0.0581,-0.2192,-0.3035,-0.1843,2058
13,0.0618,-0.6978,-0.0845,-0.1357,-0.2155,-0.1812,2050
13,0.0508,-0.6355,-0.0566,-0.0642,-0.1143,-0.1296,2049
13,0.0417,-0.5935,-0.0549,-0.0242,0.0386,-0.0734,2050
13,0.0317,-0.5862,-0.0239,-0.0073,0.1787,-0.0473,2043
13,0.061,-0.5803,-0.011,-0.0017,0.2995,-0.0305,2150
13,0.0725,-0.5356,0.0032,0.0154,0.3918,-0.0198,2066
13,0.1296,-0.5359,0.0312,-0.0498,0.4677,-0.0016,2033
13,0.1511,-0.5059,0.0342,-0.051,0.4686,-0.0225,2047
13,0.1621,-0.4539,0.0405,-0.0318,0.4326,-0.0289,2058
13,0.1526,-0.3953,0.054,-0.0021,0.3931,-0.0441,2092
13,0.2102,-0.4021,0.0413,0.0509,0.2543,-0.0314,2050
13,0.2158,-0.3943,0.033,0.0882,0.1611,-0.0732,2036
13,0.2109,-0.4629,0.0154,0.127,0.0659,-0.1068,2122
13,0.2327,-0.553,-0.0322,0.1851,-0.0723,-0.1194,2113
13,0.248,-0.5803,-0.0432,0.231,-0.208,-0.1328,1993
13,0.2358,-0.6196,-0.0796,0.2473,-0.2681,-0.1396,1999
13,0.2109,-0.6172,-0.103,0.2874,-0.3694,-0.1618,2009
13,0.1995,-0.668,-0.0803,0.3101,-0.418,-0.1626,2047
13,0.1643,-0.7043,-0.0701,0.3276,-0.5213,-0.1475,2082
14,0.1636,-0.7246,-0.0681,0.3786,-0.589,-0.1346,2051
14,0.1321,-0.7686,-0.0061,0.4247,-0.6594,-0.0871,1980
14,0.1436,-0.7854,0.0183,0.4485,-0.6745,-0.0313,2041
14,0.1965,-0.8601,0.0474,0.4791,-0.7509,0.0533,2054
14,0.209,-0.8921,0.0713,0.5229,-0.6843,0.0976,2039
14,0.2576,-0.9514,0.0874,0.5564,-0.6335,0.136,1999
14,0.3086,-0.9841,0.0535,0.6345,-0.6292,0.1874,1994
14,0.2817,-0.9956,0.0798,0.6102,-0.4591,0.1558,2050
14,0.2798,-1.0662,0.1062,0.5801,-0.3649,0.1108,2045
14,0.3125,-1.0339,0.1875,0.565,-0.3745,0.1547,2111
14,0.2598,-1.103,0.1763,0.5067,-0.1137,0.106,2032
14,0.2629,-1.1921,0.168,0.5196,-0.1049,-0.0667,2058
14,0.272,-1.3418,0.26,0.4537,-0.0653,-0.1851,2048
14,0.325,-1.3621,0.2546,0.3882,-0.1268,-0.1559,1961
14,0.4067,-1.2412,0.3972,0.3193,-0.1309,-0.1119,2045
14,0.3523,-1.1926,0.3833,0.1694,-0.0553,-0.1182,2025
14,0.3811,-1.3137,0.4216,0.0443,-0.0254,-0.1128,2032
14,0.1333,-1.5532,0.5125,-0.4675,0.8706,-0.2112,2067
14,0.1938,-1.5452,0.4832,-0.7076,1.3123,-0.202,2081
14,0.2009,-1.554,0.6235,-0.8618,1.982,-0.2854,2046
14,0.626,-1.5107,0.6477,-0.8224,1.8227,-0.147,2073
14,0.9929,-1.4578,0.5767,-0.8211,1.1002,0.0906,2064
14,0.8982,-1.4944,0.3911,-0.6385,0.3631,0.2201,2009
14,0.8489,-1.3042,0.2822,-0.1823,-0.3991,0.1148,2073
14,0.7734,-1.21,0.2039,0.12,-0.9945,-0.0929,2042
14,0.5615,-1.1724,0.0361,0.0449,-1.0544,-0.1914,2045
14,0.0139,-1.2395,-0.0396,0.0803,-0.9455,0.1209,2010
14,-0.0422,-1.1714,-0.0605,0.1835,-0.4984,0.1489,2044
14,0.2261,-1.1304,0.0903,0.1958,-0.1716,0.2401,2034
14,0.3101,-1.0999,0.1687,0.1762,0.0144,0.2987,2063
14,0.4236,-1.0266,0.207,0.1689,-0.024,0.3104,2067
14,0.5112,-0.98,0.1943,0.1325,-0.0698,0.271,2078
14,0.4595,-0.9485,0.166,0.0882,-0.1665,0.2076,2007
14,0.4304,-0.8757,0.1611,0.1236,-0.1884,0.12,2070
14,0.3716,-0.7581,0.1392,0.1141,-0.2386,0.038,2029
14,0.2932,-0.6665,0.1196,0.0779,-0.214,-0.0087,2069
14,0.2285,-0.5933,0.0774,0.0119,-0.1302,0.0047,2001
14,0.1672,-0.5615,0.0605,-0.0929,-0.0001,0.0176,2054
14,0.1538,-0.4836,0.0293,-0.1775,0.1414,0.0156,2009
14,0.1348,-0.418,0.0029,-0.2982,0.33,-0.0036,2200
14,0.1221,-0.3364,-0.0154,-0.3987,0.4758,0.0044,2026
14,0.1653,-0.3562,-0.0115,-0.4196,0.5024,0.0165,2072
14,0.1511,-0.2329,-0.0137,-0.4196,0.6006,0.0083,2025
14,0.1636,-0.198,-0.0447,-0.424,0.6477,0.0631,2071
14,0.1909,-0.1797,-0.1025,-0.4313,0.6191,0.0686,2133
14,0.1477,-0.2639,-0.0659,-0.3739,0.7027,0.1272,2001
14,0.1589,-0.282,-0.1162,-0.2763,0.6445,0.1208,2060
14,0.2085,-0.3049,-0.0449,-0.0582,0.628,0.0872,2018
14,0.2642,-0.3853,-0.0701,0.0233,0.5107,0.0258,2052
14,0.2791,-0.4436,-0.1155,0.1304,0.3006,-0.0184,2133
14,0.2559,-0.5012,-0.0825,0.1639,0.1566,-0.0225,2012
14,0.1831,-0.6226,-0.0588,0.1731,0.1209,0.0491,1977
14,0.1831,-0.708,-0.0017,0.2754,-0.1202,0.1208,1966
14,0.2156,-0.7019,0.0581,0.3939,-0.4224,0.1708,1951
14,0.176,-0.7925,0.2126,0.4968,-0.7319,0.3119,2024
14,0.1633,-0.8218,0.238,0.5163,-0.9935,0.4208,1987
14,0.1084,-0.8682,0.2871,0.395,-1.0754,0.4577,2045
14,0.0071,-0.9309,0.3589,0.4148,-1.0042,0.4561,2025
14,-0.0132,-0.9399,0.387,0.331,-0.7714,0.3428,2036
14,0.1641,-0.8682,0.3989,0.3726,-0.6817,0.3882,2124
14,0.3359,-0.8191,0.4548,0.4159,-0.6532,0.4948,2068
14,0.4294,-0.8816,0.4705,0.6107,-0.7598,0.5545,2049
14,0.3926,-0.999,0.5525,0.7556,-0.8443,0.4406,2278
14,0.4102,-1.1917,0.5703,0.8902,-0.8854,0.516,2024
14,0.3022,-1.302,0.5916,0.8938,-0.8102,0.4987,2003
14,0.1577,-1.4507,0.5691,0.8088,-0.7094,0.5279,2136
14,0.0303,-1.604,0.5171,0.6228,-0.6144,0.5295,1996
14,-0.0112,-1.9353,0.365,0.4529,-0.3543,0.6537,2258
14,-0.0149,-2.0,0.2463,0.1597,-0.0851,0.7162,2030
14,0.0466,-2.0,0.0776,-0.0206,-0.1776,0.7288,2008
14,0.1284,-1.925,0.0693,-0.1438,-0.3878,0.6267,2115
14,0.083,-1.5759,0.061,-0.1437,-0.3104,0.3911,2078
14,0.1982,-1.312,0.2092,-0.23,0.0884,0.2992,2119
14,0.5525,-1.1853,0.4468,-0.3611,0.6809,0.3132,2043
14,0.4688,-1.3125,0.5745,-0.5267,1.1885,0.0645,2064
14,0.4727,-1.3777,0.6841,-0.5239,1.3762,-0.2491,2018
14,0.4421,-1.4341,0.6646,-0.4073,1.2025,-0.3918,2091
14,0.3601,-1.4343,0.4866,-0.2196,0.8094,-0.4189,2006
14,0.3433,-1.3589,0.3379,-0.0566,0.5751,-0.4057,2025
14,0.3235,-1.3137,0.2126,0.0278,0.3441,-0.2955,2143
14,0.2856,-1.2539,0.1189,0.0429,0.2534,-0.3649,1998
14,0.2566,-1.2334,0.0886,0.03,0.255,-0.456,2018
14,0.1995,-1.1799,0.1582,-0.0482,0.2875,-0.5309,2139
14,0.1985,-1.0391,0.1707,-0.0626,0.1509,-0.522,2035
14,0.1592,-0.9431,0.2063,-0.0916,0.1105,-0.5273,2082
14,0.1597,-0.8394,0.2603,-0.1439,0.0515,-0.5141,2088
14,0.1914,-0.7026,0.28,-0.1682,-0.0257,-0.4939,2039
14,0.1851,-0.6379,0.261,-0.1803,-0.043,-0.4508,1975
14,0.1853,-0.606,0.2437,-0.1606,-0.1013,-0.4505,2168
14,0.2178,-0.5728,0.1846,-0.0626,-0.2337,-0.4594,1994
14,0.2576,-0.5918,0.1724,-0.0266,-0.3123,-0.3542,2061
14,0.3076,-0.5757,0.1582,0.1225,-0.4508,-0.1328,2106
14,0.1409,-0.5068,0.1531,0.0068,-0.3938,-0.2831,2136
14,0.127,-0.4978,0.1392,-0.0453,-0.2109,-0.3823,2077
14,0.1323,-0.469,0.1089,-0.0425,-0.1059,-0.5726,2031
14,0.2024,-0.4961,0.0725,0.0333,-0.1417,-0.7152,1991
14,0.2317,-0.5659,0.0588,0.0196,-0.1085,-0.7019,2139
14,0.1682,-0.6147,0.0317,0.0061,-0.1469,-0.6926,2205
14,0.1084,-0.6177,0.0793,-0.0003,-0.1875,-0.64,1982
14,0.0952,-0.571,0.0681,0.0274,-0.2341,-0.6387,2179
14,0.1313,-0.541,0.0417,0.0714,-0.3892,-0.5389,2115
14,0.1516,-0.5127,0.0466,0.1217,-0.4862,-0.5926,2106
15,0.0742,-0.5386,0.0266,0.2088,-0.5484,-0.5464,2073
15,0.0435,-0.6199,0.0903,0.2782,-0.5806,-0.516,2095
15,0.0322,-0.7866,0.1221,0.2806,-0.532,-0.5509,2129
15,0.0591,-0.8342,0.1831,0.2336,-0.4065,-0.579,2028
15,0.0625,-0.834,0.1787,0.1332,-0.3172,-0.5556,1988
15,0.0767,-0.8108,0.1367,0.0434,-0.2562,-0.487,2469
15,0.0906,-0.825,0.165,-0.0852,-0.2188,-0.4084,1823
15,0.1177,-0.927,0.1208,-0.1629,-0.2152,-0.4474,1884
15,0.1482,-0.9543,0.1111,-0.2397,-0.2517,-0.4437,1975
15,0.2148,-0.9602,0.1172,-0.2456,-0.2309,-0.5113,2239
15,0.2698,-0.9624,0.1189,-0.3346,-0.2171,-0.4633,2032
15,0.3347,-0.9683,0.0671,-0.4267,-0.2577,-0.5381,2110
15,0.3376,-1.0527,0.0386,-0.4508,-0.229,-0.5361,2004
15,0.3616,-1.1814,0.043,-0.4582,-0.1686,-0.5259,2052
15,0.3484,-1.2937,0.0271,-0.4591,-0.0156,-0.4398,1986
15,0.3508,-1.366,0.0742,-0.5096,0.1084,-0.337,2129
15,0.3564,-1.3403,0.071,-0.6299,0.0771,-0.1722,1973
15,0.334,-1.2297,0.1765,-0.7455,-0.0633,0.0328,2097
15,0.4058,-1.0649,0.0806,-0.8248,-0.2521,0.1216,2309
15,0.4976,-1.0178,0.1519,-0.7654,-0.5,-0.0224,1999
15,0.4961,-1.0989,0.1262,-0.7458,-0.781,-0.1221,2075
15,0.3918,-1.3169,0.1982,-0.8215,-0.6677,-0.1609,2048
15,0.2966,-1.6001,0.2429,-1.0248,-0.4172,-0.172,2101
15,0.3916,-1.7095,0.2104,-1.2118,-0.0674,-0.0161,2043
15,0.7478,-1.6323,0.1865,-1.2869,-0.0072,0.2033,2014
15,1.0447,-1.4905,0.1379,-1.2588,-0.2352,0.2653,2127
15,1.1138,-1.312,0.2319,-1.0878,-0.6889,0.2373,1944
15,1.0339,-1.1855,0.2908,-1.0119,-0.9978,0.2003,2030
15,0.8145,-1.177,0.3921,-0.9752,-1.0075,0.0534,2074
15,0.5957,-1.2393,0.3494,-1.027,-0.6956,0.0559,1842
15,0.437,-1.3506,0.3713,-1.0875,-0.3899,0.0257,2131
15,0.4436,-1.416,0.3315,-1.1776,-0.1884,0.0113,1947
15,0.5269,-1.4248,0.2771,-1.2256,-0.2169,-0.0201,2175
15,0.6755,-1.334,0.208,-1.2537,-0.3539,-0.085,2114
15,0.6487,-1.2397,0.2271,-1.254,-0.512,-0.1184,2038
15,0.5776,-1.1682,0.208,-1.324,-0.6422,-0.1776,2066
15,0.5798,-1.0371,0.2349,-1.3551,-0.6087,-0.235,2032
15,0.5732,-0.8533,0.2893,-1.3318,-0.4586,-0.2308,2166
15,0.5291,-0.782,0.2825,-1.3616,-0.3104,-0.2272,1952
15,0.4988,-0.7322,0.1904,-1.3247,-0.1285,-0.2474,2077
15,0.501,-0.6128,0.1213,-1.2652,0.1278,-0.2143,2196
15,0.522,-0.491,0.1167,-1.2339,0.3594,-0.1113,2057
15,0.5249,-0.4065,0.0151,-1.223,0.4862,0.0119,2063
15,0.5481,-0.3364,-0.0591,-1.2043,0.7122,0.1582,2255
15,0.5017,-0.2229,-0.0259,-1.097,0.9883,0.2701,1844
15,0.5166,-0.0112,-0.0784,-0.9923,1.0785,0.4401,1990
15,0.6191,0.105,-0.1638,-0.8901,1.0737,0.41,1842
15,0.6572,0.095,-0.2212,-0.754,1.0337,0.139,1873
15,0.5542,0.0974,-0.3164,-0.5767,1.101,-0.1197,2100
15,0.4438,0.2019,-0.3965,-0.5389,1.4617,-0.1834,2432
15,0.2949,0.2864,-0.3608,-0.4697,1.7342,-0.2171,1805
15,0.2173,0.4426,-0.4797,-0.5059,1.6486,-0.0554,2308
15,0.1582,0.6042,-0.5234,-0.5456,1.5789,0.0872,1930
15,0.0117,0.533,-0.6433,-0.6546,1.2415,0.2514,2032
15,-0.2151,0.197,-0.7456,-0.7271,1.5093,0.6889,1991
15,-0.3787,-0.1055,-0.7708,-0.7705,1.6472,1.03,2007
15,-0.3542,-0.1816,-0.7476,-0.7391,1.9422,1.2914,2058
15,-0.2437,-0.2095,-0.6523,-0.6576,2.0976,1.3312,1911
15,-0.0422,-0.3499,-0.6055,-0.6128,2.1466,1.3539,2097
15,0.1121,-0.5386,-0.4822,-0.4829,2.0379,1.1608,2101
15,0.0991,-0.908,-0.4453,-0.4433,1.9262,0.9532,2044
15,0.085,-1.6255,-0.3521,-0.6425,1.8395,0.6753,2145
15,-0.1404,-2.0,-0.1567,-0.9341,2.0311,0.3602,2272
15,-0.2339,-2.0,-0.2708,-1.3865,1.7411,0.5996,2156
15,-0.2847,-1.4846,-0.2988,-1.6235,2.1124,0.6392,2228
15,-0.0818,-1.1277,-0.2036,-1.7946,2.2618,0.6087,1825
15,0.2195,-0.9773,-0.2129,-1.8947,2.1503,0.5108,2262
15,0.2808,-0.9968,-0.3848,-1.9719,1.6507,0.5132,2044
15,-0.2847,-0.5649,-0.1606,-1.2681,1.6989,0.6871,2135
15,-0.0583,-0.3677,-0.0732,-0.6201,1.5307,0.2625,2008
15,0.1982,-0.6953,0.0879,0.0522,1.3523,-0.4643,2111
15,0.418,-1.2007,0.3899,0.4745,0.3891,-0.8224,1615
15,0.7009,-1.762,0.4441,0.5706,-0.1693,-0.5854,2201
15,0.606,-2.0,0.5842,0.7585,-0.7693,0.2428,1909
15,0.6401,-2.0,0.1821,0.8096,-1.0271,0.4996,2034
15,0.5959,-2.0,0.1714,1.0204,-0.7678,0.6107,2051
15,0.6904,-2.0,0.0549,1.0575,-0.8331,0.7455,2048
15,0.6843,-1.6812,0.0339,0.9871,-0.5758,0.4663,2116
15,0.6655,-1.5518,-0.0002,0.8289,-0.2804,0.3253,1878
15,0.6895,-1.6973,-0.0901,0.4368,0.0392,0.2842,1949
15,0.3892,-1.6575,0.0449,0.2815,0.3727,0.532,2029
15,0.3472,-1.6755,-0.1921,-0.0061,0.5673,0.8503,1988
15,0.3118,-1.3462,-0.2717,0.133,0.7641,0.9891,2091
15,0.2698,-1.5366,-0.3662,0.0899,0.606,0.764,2112
15,0.4773,-1.7256,-0.3713,0.1467,0.3256,0.4223,2108
15,0.512,-1.457,-0.3208,0.1,0.1756,0.0205,2091
15,0.2957,-1.189,-0.2598,-0.0031,0.0836,-0.0799,2083
15,0.2256,-1.063,-0.282,-0.0079,0.0429,-0.1707,2108
15,0.1978,-0.9382,-0.1953,-0.0023,0.1685,-0.1947,2081
15,0.2151,-0.9167,-0.179,-0.089,0.2549,-0.0707,2035
15,0.249,-0.907,-0.2212,-0.1527,0.2294,0.0385,2058
15,0.3335,-0.7339,-0.2458,-0.1368,0.2514,0.0055,2049
15,0.3127,-0.6118,-0.2129,-0.1475,0.1792,-0.1843,2090
15,0.2522,-0.6375,-0.2002,-0.1665,0.1152,-0.2465,1938
15,0.1912,-0.6284,-0.1643,-0.1887,-0.0156,-0.191,2040
15,0.3254,-0.583,-0.2754,-0.2799,-0.3787,0.0286,2109
15,0.0981,-0.5793,-0.2087,0.0063,-0.1823,0.1565,2072
15,0.0139,-0.3689,-0.0605,-0.002,-0.2193,0.422,1935
15,0.085,-0.2148,0.0496,0.2988,0.0321,0.2217,2094
15,0.147,-0.3276,0.0254,0.2567,-0.0718,0.1778,1972
15,0.2185,-0.4392,0.0176,0.2473,-0.0784,0.1209,2031
15,0.1206,-0.5002,0.0007,0.2188,-0.2085,-0.0169,2054
15,0.0942,-0.5134,-0.0364,0.2071,-0.1943,-0.1186,2009
16,0.1335,-0.4844,-0.0303,0.195,-0.2445,-0.2237,2058
16,0.1863,-0.479,-0.0261,0.1694,-0.3152,-0.3164,1962
16,0.2368,-0.5044,-0.0962,0.1286,-0.3509,-0.4207,1967
16,0.2634,-0.5293,-0.1838,0.0791,-0.4065,-0.4754,2118
16,0.2339,-0.5842,-0.2605,-0.0212,-0.4822,-0.549,1981
16,0.1904,-0.5977,-0.3,-0.0266,-0.4914,-0.6028,2077
16,0.0667,-0.6555,-0.3093,-0.1519,-0.2914,-0.7054,2102
16,-0.0166,-0.6287,-0.4556,-0.2057,-0.2942,-0.7191,2102
16,0.082,-0.5481,-0.4619,-0.3051,-0.141,-0.7423,2016
16,0.2092,-0.5288,-0.4941,-0.2832,-0.2293,-0.7734,2180
16,0.3069,-0.5186,-0.374,-0.2706,-0.4173,-0.7476,2216
16,0.3354,-0.512,-0.3179,-0.2185,-0.5869,-0.7767,2002
16,0.3589,-0.6125,-0.3684,-0.1646,-0.6051,-0.8609,2064
16,0.4358,-0.8806,-0.3999,-0.1482,-0.7126,-0.8929,2314
16,0.4648,-0.9819,-0.312,-0.1482,-0.5545,-0.8791,1990
16,0.4204,-0.9661,-0.2517,-0.1123,-0.4291,-0.8431,2045
16,0.4441,-0.9482,-0.175,-0.0917,-0.3658,-0.7312,1812
16,0.5049,-0.9338,-0.2053,-0.0835,-0.3183,-0.6352,2015
16,0.5549,-0.9351,-0.3086,-0.0092,-0.3875,-0.5608,2032
16,0.5059,-1.0325,-0.356,0.0931,-0.2948,-0.4825,2058
16,0.4285,-1.1404,-0.3066,0.1453,-0.251,-0.3988,2207
16,0.4202,-1.2273,-0.2041,0.1333,-0.0891,-0.2591,2303
16,0.4285,-1.2571,-0.0823,0.0972,0.0216,-0.1538,1824
16,0.4795,-1.2532,-0.0898,0.1352,-0.0123,-0.0419,2585
16,0.5112,-1.3811,-0.166,0.1852,0.1521,0.0274,1837
16,0.5637,-1.5569,-0.0735,0.3003,0.2095,0.024,1943
16,0.5266,-1.6733,0.1687,0.4634,0.1,-0.161,2067
16,0.5779,-1.6558,0.4077,0.6083,-0.1502,-0.0848,1877
16,0.6677,-1.5417,0.5686,0.6875,-0.5189,-0.0116,2007
16,0.7673,-1.4868,0.4663,0.6893,-0.85,-0.0437,2132
16,0.7175,-1.5469,0.2649,0.6173,-0.9741,0.0453,2221
16,0.5396,-1.5046,-0.0378,0.4317,-0.8787,0.1675,2023
16,0.4275,-1.3511,-0.231,0.2649,-0.6452,0.2918,2001
16,0.3809,-1.1543,-0.3342,0.1273,-0.3215,0.3318,1937
16,0.4275,-1.1382,-0.3882,0.0007,-0.2124,0.3249,2105
16,0.4541,-1.197,-0.3547,-0.083,-0.2723,0.3643,2090
16,0.4546,-1.1492,-0.3325,-0.112,-0.3787,0.3547,2045
16,0.4619,-1.0566,-0.2559,-0.0867,-0.4906,0.2559,2077
16,0.489,-0.9541,-0.1709,-0.024,-0.5757,0.1579,2030
16,0.5183,-0.8516,-0.1077,0.0467,-0.6775,0.0748,2054
16,0.5437,-0.7722,-0.0693,0.1358,-0.7381,0.0073,2026
16,0.53,-0.6873,-0.0369,0.2101,-0.7669,-0.0449,2047
16,0.4883,-0.6047,-0.0364,0.2601,-0.7363,-0.0555,2027
16,0.4365,-0.5225,-0.0212,0.3087,-0.7102,-0.0142,2074
16,0.3662,-0.4678,-0.0188,0.2924,-0.6184,-0.0221,2058
16,0.3159,-0.4602,-0.0535,0.2878,-0.49,0.0085,2005
16,0.2849,-0.4443,-0.0718,0.2924,-0.3409,0.0515,2158
16,0.2739,-0.4133,-0.0962,0.2722,-0.1838,0.128,2032
16,0.2683,-0.3728,-0.1189,0.227,-0.1019,0.2476,2015
16,0.2754,-0.334,-0.1545,0.2103,0.0406,0.3875,2028
16,0.2534,-0.3193,-0.1631,0.1513,0.1618,0.4711,2021
16,0.2595,-0.3274,-0.2085,0.0747,0.2474,0.5044,2134
16,0.2161,-0.3455,-0.2004,-0.0265,0.3611,0.5691,1975
16,0.1907,-0.3596,-0.219,-0.1005,0.3738,0.6361,2063
16,0.2122,-0.3794,-0.2029,-0.157,0.4364,0.6458,2250
16,0.2043,-0.3894,-0.1941,-0.196,0.4982,0.642,2065
16,0.1912,-0.4297,-0.1609,-0.2063,0.5003,0.628,2007
16,0.1753,-0.4883,-0.1489,-0.2338,0.5153,0.565,2135
16,0.1948,-0.5396,-0.1953,-0.2422,0.5496,0.4856,1974
16,0.2107,-0.5449,-0.1931,-0.1908,0.561,0.4071,2095
16,0.2417,-0.5962,-0.1553,-0.149,0.5492,0.3079,2134
16,0.21,-0.6628,-0.0911,-0.0744,0.5176,0.195,2105
16,0.197,-0.7285,-0.0674,-0.0124,0.4428,0.1105,2210
16,0.2156,-0.8237,-0.0693,0.0241,0.3278,0.0233,2137
16,0.2297,-0.8958,-0.0967,0.0714,0.1646,-0.0101,2074
16,0.2236,-0.9128,-0.0222,0.1404,0.0298,0.0324,2038
16,0.2202,-0.8892,0.0396,0.234,-0.1214,0.0792,1948
16,0.2639,-0.9133,0.1248,0.3555,-0.2462,0.053,1983
16,0.3132,-0.9463,0.2388,0.473,-0.3352,0.0011,2012
16,0.3853,-0.9697,0.2786,0.5916,-0.4321,0.0033,1963
16,0.4976,-1.0293,0.2439,0.6632,-0.5498,0.0454,1977
16,0.5237,-1.176,0.2112,0.7361,-0.524,0.0258,2031
16,0.4897,-1.3186,0.1692,0.7974,-0.4773,0.0609,2318
16,0.4316,-1.3962,0.1235,0.8341,-0.3294,0.1012,1799
16,0.3877,-1.4331,0.0122,0.8476,-0.1724,0.1091,2074
16,0.3069,-1.4197,-0.0378,0.9115,-0.1136,0.1425,2131
16,0.2314,-1.4043,-0.1096,1.0232,-0.1551,0.1822,2070
16,0.2241,-1.4575,-0.1628,1.201,-0.2598,0.1651,2181
16,0.2417,-1.6846,-0.3091,1.2729,-0.3923,0.0438,2042
16,0.1082,-1.8472,-0.386,1.2892,-0.3834,0.0246,2448
16,-0.0862,-1.7791,-0.3655,1.2773,-0.4088,0.2201,1874
16,-0.0923,-1.5938,-0.2529,1.1974,-0.2831,0.3622,2070
16,-0.0073,-1.4258,-0.1343,1.1485,-0.0631,0.4442,2295
16,0.156,-1.3945,-0.0291,1.1804,-0.0531,0.4934,2072
16,0.3806,-1.3774,0.0781,1.2465,-0.1128,0.4163,1995
16,0.595,-1.3479,0.1672,1.3267,-0.2927,0.3036,1984
16,0.6118,-1.3223,0.2219,1.397,-0.3449,0.304,2047
16,0.6165,-1.3835,0.2371,1.4537,-0.4133,0.2887,2071
16,0.5786,-1.4727,0.2109,1.3299,-0.3236,0.2705,1951
16,0.4263,-1.5024,0.1619,1.1152,-0.1987,0.3318,2064
16,0.2361,-1.4119,0.1736,0.91,0.0156,0.4116,2081
16,0.1829,-1.2224,0.176,0.7457,0.1794,0.3999,2104
16,0.1531,-1.0981,0.2014,0.5911,0.3417,0.3372,1994
16,0.1699,-0.9841,0.2178,0.4627,0.3848,0.2487,1966
16,0.2344,-0.8633,0.2175,0.3718,0.3836,0.1583,2055
16,0.2859,-0.7639,0.2463,0.3075,0.3104,0.0892,2031
16,0.2925,-0.6731,0.2686,0.2741,0.2306,-0.0188,2035
16,0.283,-0.6062,0.2561,0.2811,0.0771,-0.0823,2071
16,0.271,-0.5737,0.2656,0.2884,-0.0137,-0.1357,2046
16,0.2104,-0.5288,0.238,0.2922,-0.0914,-0.1848,2040
16,0.1567,-0.5027,0.2034,0.2974,-0.118,-0.2197,2103
16,0.1118,-0.499,0.1438,0.2999,-0.0884,-0.2903,2076
16,0.0938,-0.5032,0.1021,0.3211,-0.0722,-0.3268,2262
17,0.0637,-0.5188,0.0637,0.3424,-0.0843,-0.3452,2019
17,0.042,-0.5427,0.0232,0.3432,-0.0256,-0.399,2067
17,0.0837,-0.5444,0.0437,0.3769,-0.0301,-0.4396,2068
17,0.062,-0.5737,0.0276,0.3324,-0.0587,-0.4714,2032
17,0.062,-0.6172,0.0327,0.306,-0.1005,-0.4942,2056
17,0.0684,-0.6492,0.0276,0.253,-0.1276,-0.5355,2316
17,0.0779,-0.6711,-0.0029,0.2136,-0.1734,-0.5227,1926
17,0.0898,-0.6675,-0.0193,0.1669,-0.1736,-0.5159,2063
17,0.0854,-0.6199,0.001,0.1373,-0.2116,-0.5014,1947
17,0.0969,-0.6013,-0.0176,0.1561,-0.31,-0.4611,1967
17,0.0991,-0.6221,-0.0361,0.206,-0.3858,-0.4012,2081
17,0.1382,-0.6436,-0.0464,0.2935,-0.5279,-0.3454,2138
17,0.1975,-0.6853,-0.0527,0.43,-0.7417,-0.3193,1986
17,0.1704,-0.7488,-0.0352,0.5335,-0.8669,-0.2851,1964
17,0.1694,-0.8054,0.0049,0.6159,-0.9885,-0.255,2041
17,0.1633,-0.8818,0.0225,0.655,-1.1131,-0.2338,2005
17,0.1636,-0.9438,0.021,0.7094,-1.2536,-0.1439,2030
17,0.1653,-0.9846,0.03,0.7088,-1.1873,-0.0426,2149
17,0.186,-1.0322,0.0857,0.6529,-1.1306,0.0224,2376
17,0.1775,-1.0283,0.0574,0.6421,-0.9736,0.0936,1931
17,0.1729,-1.0461,0.0698,0.6199,-0.6725,0.1322,2028
17,0.2673,-1.1284,0.1375,0.632,-0.5962,0.1005,2120
17,0.3047,-1.207,0.1599,0.5798,-0.4946,0.0945,2191
17,0.2722,-1.2053,0.2178,0.5525,-0.291,0.1662,2044
17,0.2698,-1.2212,0.3008,0.4862,-0.195,0.2187,2104
17,0.2827,-1.2478,0.3669,0.4179,-0.047,0.2404,1978
17,0.3232,-1.2458,0.4221,0.3149,0.0326,0.2634,2151
17,0.3879,-1.1882,0.4612,0.2152,0.0498,0.2561,2078
17,0.4587,-1.2415,0.4248,0.1442,-0.0065,0.2129,2042
17,0.5142,-1.3313,0.4219,0.0847,-0.1253,0.1374,2116
17,0.5017,-1.4182,0.4541,-0.0156,-0.2884,0.1149,2010
17,0.4807,-1.418,0.55,-0.1305,-0.4641,0.1534,1936
17,0.468,-1.4182,0.5845,-0.4132,-0.0399,0.1651,2059
17,0.4956,-1.4941,0.5669,-0.414,0.1261,0.512,2021
17,0.8538,-1.4072,0.5884,-0.4027,0.0489,0.7694,2176
17,0.8188,-1.251,0.5166,-0.4295,0.1282,0.6142,2113
17,0.6541,-1.0745,0.3547,-0.3353,-0.0739,0.4016,2022
17,0.5415,-0.9775,0.3286,-0.1928,-0.0666,0.2365,2123
17,0.4731,-1.021,0.3115,-0.0874,-0.0388,0.1457,2029
17,0.4119,-1.0559,0.3469,0.0631,-0.0634,0.1547,2043
17,0.3962,-1.0459,0.344,0.208,-0.1906,0.2453,2024
17,0.3616,-1.0437,0.2673,0.3362,-0.2995,0.3638,2018
17,0.3264,-1.1201,0.2278,0.3365,-0.3747,0.3228,2061
17,0.3193,-1.082,0.1709,0.3249,-0.4944,0.2015,2057
17,0.2949,-0.9583,0.156,0.2992,-0.585,0.0822,2006
17,0.2678,-0.8638,0.1514,0.2751,-0.6042,-0.069,2060
17,0.2576,-0.7788,0.1851,0.1661,-0.5319,-0.1356,2043
17,0.241,-0.7056,0.2036,0.0304,-0.3896,-0.1349,1966
17,0.2217,-0.6113,0.1819,-0.0791,-0.373,-0.1322,2029
17,0.2322,-0.5222,0.1421,-0.1406,-0.2771,-0.0822,1982
17,0.1946,-0.4578,0.0928,-0.1787,-0.1984,-0.014,2095
17,0.1606,-0.4099,0.0588,-0.1374,-0.1466,0.0591,2081
17,0.1658,-0.3914,-0.0002,-0.102,-0.0561,0.1539,1992
17,0.1521,-0.3948,-0.0488,-0.1033,0.0574,0.181,2026
17,0.1665,-0.3591,-0.1028,-0.0509,0.1537,0.2124,2039
17,0.155,-0.3604,-0.1201,-0.0005,0.4077,0.2653,2161
17,0.1873,-0.3701,-0.1465,0.0767,0.5153,0.3183,1977
17,0.1929,-0.4312,-0.0996,0.09,0.6506,0.3156,2099
17,0.1533,-0.4517,-0.084,0.1473,0.6026,0.328,1963
17,0.1641,-0.4797,-0.0066,0.2215,0.6513,0.2923,2052
17,0.1609,-0.4907,0.0815,0.3189,0.6703,0.2863,2062
17,0.0945,-0.5107,0.1494,0.3618,0.6042,0.2698,2196
17,0.0774,-0.5784,0.2095,0.344,0.4167,0.2999,2039
17,0.1062,-0.644,0.2124,0.3253,0.2515,0.3079,2098
17,0.0134,-0.7832,0.2876,0.2972,0.2107,0.3045,2166
17,0.0269,-0.9204,0.3245,0.2336,0.0646,0.3583,1947
17,0.1145,-0.9377,0.3589,0.1276,-0.1566,0.3542,2040
17,0.1689,-0.9016,0.4133,-0.0185,-0.3282,0.3093,2023
17,0.2703,-0.8118,0.3933,-0.1357,-0.7352,0.3386,2024
17,0.3503,-0.7458,0.3088,-0.2155,-0.9714,0.3437,2134
17,0.3052,-0.7737,0.2693,-0.2509,-1.1292,0.3205,2054
17,0.2793,-0.8198,0.2544,-0.2104,-1.0915,0.3072,2003
17,0.1809,-0.8616,0.2068,-0.1451,-0.6959,0.2864,2255
17,0.208,-0.8359,0.27,0.0294,-0.5147,0.3281,1977
17,0.1218,-0.9453,0.4165,0.1469,-0.0846,0.385,1991
17,0.2268,-0.8977,0.2935,0.2615,0.0798,0.2935,2092
17,0.4568,-0.9658,0.3149,0.5035,-0.1334,0.4103,2004
17,0.3894,-1.2173,0.3823,0.4964,-0.0943,0.3685,2325
17,0.1707,-1.3572,0.3694,0.4663,-0.2796,0.5072,1905
17,-0.0144,-1.4536,0.4016,0.3129,-0.1019,0.5739,2043
17,0.0481,-1.4236,0.407,0.3145,-0.1658,0.5939,1976
17,0.1941,-1.4695,0.5618,0.2075,-0.1007,0.583,2029
17,0.0239,-1.6641,0.6267,-0.0619,-0.0727,0.5307,1892
17,-0.085,-1.748,0.574,-0.3698,0.1164,0.5015,2074
17,-0.0166,-1.5747,0.5588,-0.5288,0.3504,0.3826,1963
17,0.1086,-1.3643,0.6013,-0.4438,0.396,0.3024,2063
17,0.2947,-1.1606,0.6067,-0.3735,0.3545,0.2388,2026
17,0.4099,-1.1331,0.5803,-0.3329,0.3361,0.2139,2028
17,0.4465,-1.2273,0.5237,-0.2766,0.159,0.0411,2066
17,0.376,-1.3281,0.4561,-0.2567,0.2681,-0.2007,2009
17,0.3132,-1.416,0.3486,-0.2558,0.5123,-0.3045,2042
17,0.2483,-1.4756,0.2544,-0.3157,0.8032,-0.318,1905
17,0.2031,-1.481,0.1458,-0.3064,0.9537,-0.2847,2070
17,0.2473,-1.4385,0.1023,-0.2509,0.8168,-0.1973,2031
17,0.2832,-1.3718,0.1282,-0.1535,0.52,-0.0959,2064
17,0.2903,-1.2859,0.1416,-0.0613,0.19,-0.0858,2173
17,0.2334,-1.2117,0.1765,-0.0575,-0.0113,-0.1659,2122
17,0.2173,-1.0999,0.2202,-0.0566,-0.1393,-0.1619,2013
17,0.1931,-1.0491,0.261,-0.1338,-0.1302,-0.2831,2174
17,0.2505,-0.9377,0.2681,-0.181,-0.1414,-0.3296,2017
17,0.322,-0.8291,0.2258,-0.147,-0.2533,-0.3368,1977
17,0.4788,-0.6956,0.1338,-0.0236,-0.4693,-0.3848,2060
18,0.3589,-0.7874,0.241,-0.1144,-0.3575,-0.4783,2049
18,0.2959,-0.7285,0.1638,-0.1125,-0.3326,-0.4705,1994
18,0.2395,-0.6567,0.1497,-0.1064,-0.2284,-0.5119,2051
18,0.1848,-0.6382,0.1611,-0.0989,-0.002,-0.5169,2034
18,0.1328,-0.6057,0.1826,-0.1036,0.2067,-0.5805,2020
18,0.1094,-0.5945,0.1633,-0.1221,0.3665,-0.6074,2054
18,0.1091,-0.5688,0.1599,-0.1569,0.5251,-0.6331,2056
18,0.1033,-0.554,0.1516,-0.1879,0.587,-0.6767,2108
18,0.104,-0.5422,0.1362,-0.2096,0.5942,-0.7237,1984
18,0.1094,-0.5715,0.1001,-0.2397,0.5373,-0.7432,2045
18,0.1108,-0.5701,0.0562,-0.1988,0.4562,-0.7468,2109
18,0.1306,-0.5879,0.0398,-0.183,0.3438,-0.797,1967
18,0.1179,-0.5662,0.0178,-0.1698,0.2032,-0.7801,2029
18,0.123,-0.5549,-0.0249,-0.1483,0.0431,-0.7967,2129
18,0.1321,-0.5422,-0.0601,-0.1057,-0.0945,-0.8187,2032
18,0.1379,-0.5598,-0.054,-0.0595,-0.1634,-0.8287,2069
18,0.1082,-0.6238,-0.0676,-0.0136,-0.2037,-0.8082,1957
18,0.0295,-0.6895,-0.05,0.0273,-0.173,-0.7743,1994
18,0.0081,-0.7231,-0.0288,0.0515,-0.1294,-0.7279,2106
18,0.0227,-0.7576,-0.0115,0.0218,-0.1325,-0.6751,1993
18,0.0237,-0.76,-0.0005,-0.0105,-0.1697,-0.6317,1936
18,0.0676,-0.76,0.0134,0.006,-0.2763,-0.6008,2149
18,0.1453,-0.7629,0.0154,-0.0213,-0.4737,-0.5604,2023
18,0.2151,-0.7568,-0.032,-0.0184,-0.5943,-0.4999,1930
18,0.178,-0.76,0.0203,-0.0405,-0.6785,-0.4333,2193
18,0.1199,-0.8098,-0.0017,-0.0543,-0.7303,-0.3787,2238
18,0.0723,-0.8665,-0.0159,-0.0655,-0.6038,-0.2872,1937
18,0.1292,-0.8728,0.0251,-0.108,-0.5221,-0.2444,2034
18,0.144,-0.9282,0.0242,-0.1282,-0.4438,-0.2434,1904
18,0.1926,-1.0867,0.0574,-0.1365,-0.3859,-0.19,2035
18,0.2065,-1.2778,0.0955,-0.1549,-0.3352,-0.1723,1994
18,0.1943,-1.4609,0.124,-0.2084,-0.3225,-0.1181,1981
18,0.1692,-1.4146,0.1907,-0.2329,-0.2776,0.0374,2335
18,0.2778,-1.2551,0.2764,-0.2493,-0.1609,0.1629,1936
18,0.4421,-1.3298,0.2593,-0.2555,-0.2242,0.1598,2058
18,0.6064,-1.5774,0.2512,-0.2579,-0.4307,0.2627,2023
18,0.5486,-1.6292,0.4453,-0.4172,-0.4088,0.3968,2029
18,0.3469,-1.5703,0.5913,-0.6633,-0.1288,0.5454,2116
18,0.2463,-1.447,0.5637,-0.7865,0.4634,0.6102,2232
18,0.7104,-1.2927,0.7456,-0.8492,0.9758,0.7998,2136
18,1.0161,-1.0898,0.7615,-0.9126,1.1393,0.8435,2027
18,0.8901,-1.0662,0.5229,-0.8602,1.0887,0.5881,2065
18,0.7158,-1.1318,0.4019,-0.6241,1.0993,0.3725,1989
18,0.7029,-1.1213,0.4365,-0.4389,1.0893,0.1517,2044
18,0.6902,-1.1555,0.4788,-0.3205,0.9943,0.0156,2040
18,0.6582,-1.1926,0.4446,-0.1573,0.6874,-0.006,2063
18,0.6411,-1.2351,0.3926,0.0337,0.2803,0.0442,2078
18,0.6138,-1.2378,0.2891,0.1699,-0.128,0.1426,2020
18,0.5586,-1.2017,0.1724,0.2478,-0.3322,0.1888,2096
18,0.4734,-1.1206,0.0789,0.2774,-0.35,0.1902,2078
18,0.3669,-1.0154,0.033,0.2382,-0.1605,0.1618,2098
18,0.3079,-0.897,0.0327,0.1828,0.0944,0.1238,2000
18,0.2644,-0.7849,0.0554,0.1202,0.3349,0.0755,2075
18,0.2644,-0.6909,0.093,0.075,0.5255,0.0376,2032
18,0.2322,-0.614,0.1362,0.0519,0.6165,0.0345,2089
18,0.2634,-0.5137,0.1521,0.066,0.5442,0.0655,2021
18,0.2705,-0.5222,0.1226,0.0667,0.4418,0.0925,2064
18,0.2126,-0.4958,0.084,0.0787,0.3709,0.1356,2062
18,0.2046,-0.4592,0.0354,0.0844,0.2999,0.2073,2088
18,0.1716,-0.3899,-0.0593,0.0422,0.2871,0.324,2001
18,0.1323,-0.3101,-0.1301,0.0394,0.2619,0.442,2042
18,0.0813,-0.3276,-0.0791,0.1428,0.269,0.5441,2102
18,0.0488,-0.2205,-0.1179,0.3019,0.2815,0.5883,2093
18,0.1245,-0.2729,0.0212,0.4918,0.3276,0.7573,2025
18,0.1543,-0.4541,0.2585,0.51,0.4132,0.7751,2052
18,0.1279,-0.4065,0.0474,0.6799,0.2116,0.6231,1977
18,0.2156,-0.5552,0.1694,0.6923,0.1181,0.7086,2048
18,0.1301,-0.521,0.1479,0.6887,0.2641,0.4799,1988
18,0.1204,-0.6089,0.1323,0.6564,0.116,0.4449,2010
18,0.1235,-0.6753,0.2102,0.6063,0.2296,0.3741,2133
18,0.1057,-0.7305,0.1792,0.526,0.1065,0.373,1976
18,0.0615,-0.8394,0.1545,0.4133,0.0634,0.3566,1975
18,0.0938,-0.8792,0.2034,0.3393,-0.0415,0.3342,2091
18,0.1016,-0.9087,0.2227,0.2906,-0.2081,0.2878,2022
18,0.1057,-0.9565,0.2332,0.2234,-0.335,0.3397,2239
18,0.2451,-0.8667,0.2505,0.2645,-0.6544,0.4303,2068
18,0.2795,-0.8289,0.3176,0.2762,-0.7867,0.499,2134
18,0.4055,-0.7786,0.2422,0.4405,-1.1366,0.6874,2103
18,0.4722,-0.7725,0.3828,0.52,-1.2904,0.6317,2147
18,0.3293,-0.9133,0.342,0.5365,-1.3474,0.6126,2006
18,0.2971,-0.9158,0.3149,0.5526,-1.3021,0.5919,2029
18,0.2673,-0.9167,0.3887,0.5177,-0.9154,0.5127,2046
18,0.2556,-0.9946,0.406,0.5189,-0.773,0.4972,1993
18,0.2131,-1.1111,0.4084,0.4518,-0.5247,0.4654,2073
18,0.1746,-1.1667,0.5098,0.4358,-0.3789,0.391,2096
18,0.1067,-1.2446,0.5957,0.3658,-0.2581,0.3948,2006
18,0.0916,-1.2476,0.6814,0.1977,-0.2269,0.3702,2152
18,0.2107,-1.1575,0.5793,0.1441,-0.3207,0.341,2012
18,0.1079,-1.3359,0.6912,-0.0282,-0.2167,0.3655,2188
18,-0.0125,-1.605,0.6125,-0.234,-0.1096,0.3587,2052
18,-0.1519,-1.7847,0.5181,-0.4529,0.2553,0.2426,1976
18,-0.1521,-1.7664,0.4775,-0.6361,0.5766,0.1654,2034
18,-0.0129,-1.5227,0.3914,-0.6067,0.649,0.0409,2040
18,0.2002,-1.2717,0.3701,-0.4689,0.6124,-0.0128,1982
18,0.3184,-1.1926,0.3906,-0.3827,0.6461,-0.0204,2048
18,0.3596,-1.2656,0.3906,-0.3195,0.6307,-0.0466,1990
18,0.3799,-1.365,0.3511,-0.3193,0.6946,-0.2013,2059
18,0.2893,-1.4783,0.3572,-0.4072,0.9677,-0.2856,2069
18,0.2288,-1.491,0.3018,-0.4469,1.211,-0.3043,2045
18,0.2314,-1.4524,0.2383,-0.3694,1.2524,-0.2726,2076
18,0.2112,-1.4263,0.2095,-0.2212,1.0939,-0.2301,1915
18,0.1978,-1.3806,0.2109,-0.1346,0.8336,-0.1984,2032
18,0.2019,-1.2666,0.2104,0.0056,0.3982,-0.2144,2156
19,0.1521,-1.239,0.2388,0.0142,0.3418,-0.1992,2069
19,0.1641,-1.165,0.2454,0.0261,0.2518,-0.2121,2054
19,0.1428,-1.0823,0.2517,0.0169,0.1726,-0.2915,2086
19,0.1604,-0.9819,0.2551,-0.0212,0.0854,-0.3334,2059
19,0.219,-0.8975,0.231,-0.0886,0.0149,-0.4059,2022
19,0.2026,-0.8401,0.1956,-0.1832,0.023,-0.4521,2029
19,0.1797,-0.7571,0.1804,-0.2701,0.0758,-0.4783,2027
19,0.1917,-0.6836,0.1182,-0.2751,0.0635,-0.4412,2067
19,0.2104,-0.6726,0.0742,-0.2758,0.0788,-0.394,2041
19,0.1577,-0.6272,0.0403,-0.265,0.1005,-0.3322,2047
19,0.1174,-0.5581,0.002,-0.2493,0.1706,-0.3263,2058
19,0.1052,-0.519,-0.0151,-0.2079,0.3031,-0.3812,2029
19,0.0984,-0.5325,-0.0022,-0.181,0.4318,-0.4263,2042
19,0.0955,-0.5645,-0.0337,-0.1577,0.5335,-0.4378,2046
19,0.0776,-0.6196,-0.0298,-0.1269,0.6128,-0.4874,1969
19,0.1169,-0.6199,-0.0234,-0.0906,0.6484,-0.5284,2018
19,0.1509,-0.635,-0.0139,-0.1053,0.6426,-0.5508,2051
19,0.1394,-0.5754,0.0334,-0.0485,0.6048,-0.5538,2031
19,0.2083,-0.5435,0.0791,-0.0543,0.434,-0.6289,2030
19,0.2429,-0.5752,0.0952,-0.0214,0.353,-0.6596,2106
19,0.2534,-0.6079,0.0774,-0.0336,0.2392,-0.7271,2055
19,0.2563,-0.5779,0.0459,-0.1342,0.1321,-0.7537,2028
19,0.2183,-0.5964,-0.0076,-0.2377,0.0916,-0.8127,2097
19,0.2178,-0.6284,-0.0374,-0.2677,0.1147,-0.8883,2050
19,0.2241,-0.676,-0.0522,-0.2994,0.1489,-0.9283,2036
19,0.2122,-0.7183,-0.0518,-0.3149,0.1249,-0.9449,2099
19,0.1953,-0.7339,-0.0691,-0.2866,0.1209,-0.9566,2048
19,0.1912,-0.7214,-0.0667,-0.2727,0.067,-0.9188,2118
19,0.2031,-0.698,-0.0479,-0.2626,-0.0614,-0.8581,2045
19,0.2207,-0.6875,-0.0808,-0.2184,-0.1443,-0.8074,2062
19,0.1917,-0.731,-0.0864,-0.1792,-0.1988,-0.7698,1993
19,0.1689,-0.7981,-0.0901,-0.1653,-0.1795,-0.7525,2159
19,0.127,-0.8257,-0.0784,-0.1708,-0.0739,-0.6962,2032
19,0.1035,-0.8013,-0.0916,-0.1704,0.0834,-0.6064,2122
19,0.1516,-0.79,-0.0398,-0.1193,0.2771,-0.5369,2001
19,0.1836,-0.8157,-0.0056,-0.0971,0.4678,-0.502,2049
19,0.2095,-0.929,0.0332,-0.0778,0.4995,-0.4621,2064
19,0.2156,-1.0984,0.0835,-0.0581,0.5087,-0.4587,1984
19,0.1663,-1.2454,0.1414,-0.0585,0.4498,-0.4279,1982
19,0.1191,-1.344,0.1968,-0.0631,0.4181,-0.3517,2040
19,0.1035,-1.3606,0.2319,-0.0376,0.447,-0.2406,2222
19,0.1162,-1.332,0.2727,-0.0662,0.4044,-0.0844,1953
19,0.2319,-1.2732,0.2996,-0.0959,0.3715,0.0138,2054
19,0.3088,-1.2354,0.3208,-0.1405,0.2892,0.0574,1975
19,0.356,-1.2739,0.3567,-0.1662,0.2376,0.0384,2025
19,0.3977,-1.3801,0.4141,-0.1655,0.2112,0.0314,2012
19,0.3972,-1.5298,0.5164,-0.2253,0.2637,0.0185,2087
19,0.374,-1.6199,0.6262,-0.3721,0.4209,0.0308,2024
19,0.3928,-1.6108,0.7017,-0.5485,0.507,0.1157,2020
19,0.5364,-1.531,0.7346,-0.7393,0.5745,0.2605,2131
19,0.7151,-1.2993,0.636,-0.7504,0.6301,0.3944,2067
19,0.7126,-1.1306,0.5605,-0.5773,0.4409,0.2811,2052
19,0.7754,-1.1038,0.5168,-0.5127,0.3606,0.1513,2072
19,0.6614,-1.0549,0.3962,-0.3754,0.2089,-0.0563,2006
19,0.5938,-1.0488,0.3123,-0.2779,0.1988,-0.182,2058
19,0.5811,-1.0601,0.2461,-0.1294,0.2754,-0.2441,2031
19,0.4412,-1.2153,0.3669,-0.1638,0.5179,-0.2559,2049
19,0.4417,-1.1643,0.1001,-0.0226,0.4779,-0.2183,2047
19,0.4446,-1.1021,0.1404,0.0376,0.6127,-0.1712,2056
19,0.3738,-1.0398,0.1467,0.0176,0.7296,-0.1772,2122
19,0.3462,-0.9182,0.0244,0.0439,0.6594,-0.133,2031
19,0.3572,-0.8303,0.033,0.0784,0.7327,-0.1364,2029
19,0.3105,-0.7334,0.0396,0.0617,0.8424,-0.1731,2128
19,0.2654,-0.6819,0.0486,-0.0045,0.8839,-0.1903,2020
19,0.2271,-0.6204,0.0515,-0.0298,0.954,-0.212,2146
19,0.1846,-0.6189,0.0476,-0.0872,1.0844,-0.2358,2053
19,0.2368,-0.5901,0.0159,-0.0694,1.0544,-0.228,2071
19,0.2192,-0.6055,0.0276,-0.1577,1.1748,-0.2647,2028
19,0.2805,-0.5476,-0.04,-0.2067,1.1302,-0.278,2115
19,0.2451,-0.5532,-0.0547,-0.3137,1.1645,-0.2695,2033
19,0.1672,-0.5042,-0.1479,-0.4731,1.2432,-0.1878,2059
19,0.0728,-0.489,-0.1775,-0.6067,1.3769,-0.0973,2116
19,0.0571,-0.4231,-0.1931,-0.6271,1.5293,-0.0417,2027
19,0.0701,-0.2141,-0.1101,-0.3517,1.6579,-0.0137,2058
19,0.187,-0.1675,0.0815,0.02,1.6539,0.1506,2061
19,0.1943,-0.2664,0.2354,0.4397,1.5727,0.2598,2010
19,0.1775,-0.3308,0.3389,0.9369,1.3454,0.3404,1971
19,0.261,-0.5852,0.3635,1.097,0.9405,0.3137,2037
19,0.2664,-0.8779,0.2925,0.926,0.6327,0.078,2063
19,0.1392,-0.9595,0.2307,0.6759,0.4047,0.0176,2027
19,0.0745,-0.9382,0.2678,0.4143,0.3882,-0.0617,2093
19,0.0989,-0.9456,0.2295,0.1372,0.4136,-0.0622,1996
19,0.2332,-0.9233,0.1953,-0.1151,0.3328,0.0036,2026
19,0.282,-0.9116,0.1204,-0.2804,0.1478,0.0045,2047
19,0.2725,-0.8604,0.043,-0.2799,0.0602,0.0201,2049
19,0.26,-0.8777,0.062,-0.2472,0.0818,0.1776,2000
19,0.2964,-0.842,-0.0105,-0.1019,0.0318,0.2015,2008
19,0.3708,-0.8557,0.032,-0.0549,0.128,0.1851,2141
19,0.4033,-0.8484,0.0688,-0.0784,0.2248,0.1405,2053
19,0.3799,-0.8152,0.1357,-0.0935,0.383,0.1036,1949
19,0.3821,-0.7778,0.0764,-0.0055,0.5542,0.1886,2125
19,0.4639,-0.71,0.1753,0.0739,0.6086,0.1716,2065
19,0.3997,-0.7791,0.2363,0.0818,0.7152,0.1731,2038
19,0.4075,-0.835,0.3035,0.1308,0.5699,0.1926,2150
19,0.4224,-0.8555,0.3318,0.157,0.5433,0.1413,2030
19,0.3462,-0.8606,0.3401,0.1398,0.4458,0.1206,2209
19,0.2712,-0.8843,0.3599,0.1422,0.4669,0.0766,2019
19,0.0681,-1.2615,0.5566,-0.1728,0.6609,0.1724,1996
19,0.1519,-1.4583,0.2256,-0.0948,0.5886,0.1009,1980
19,0.0183,-1.7461,0.4871,-0.312,1.0774,0.0582,2050
19,-0.2046,-1.8745,0.5625,-0.6313,1.3924,0.0495,2074
19,-0.1318,-1.7739,0.5142,-0.6645,1.2681,0.2629,2032
20,0.0215,-1.491,0.3901,-0.7465,1.4251,0.0736,2151
20,0.1577,-1.1682,0.353,-0.4946,1.2985,0.1377,1978
20,0.0769,-1.0884,0.4585,-0.4767,1.4139,0.0545,2003
20,0.2051,-1.0947,0.3228,-0.2265,1.289,0.0812,2037
20,0.7312,-1.3291,0.4167,0.0784,1.0319,0.1695,2051
20,0.5569,-1.4824,0.3687,-0.151,1.1437,-0.1914,2120
20,0.2986,-1.5691,0.2529,-0.1866,1.2509,-0.0626,2039
20,0.116,-1.6387,0.2271,-0.1989,1.8118,-0.1818,2051
20,-0.009,-1.6729,0.2285,-0.2976,2.2759,-0.34,2060
20,-0.0315,-1.6301,0.2974,-0.3353,2.4908,-0.4979,2054
20,-0.1021,-1.5757,0.2974,-0.3354,2.6305,-0.6256,2100
20,-0.03,-1.4436,0.3181,-0.1988,2.4746,-0.7501,1992
20,-0.0122,-1.3413,0.3792,-0.1744,2.2915,-0.7973,2005
20,0.0249,-1.2817,0.4109,-0.1856,1.9859,-0.7861,2042
20,0.0586,-1.25,0.4329,-0.3251,1.812,-0.8473,2055
20,0.0608,-1.1978,0.4062,-0.4769,1.845,-1.0335,2066
20,0.1257,-1.0671,0.3911,-0.6593,1.8359,-1.1829,2059
20,0.2383,-1.033,0.2842,-0.765,1.6753,-1.2292,2045
20,0.2681,-0.9695,0.208,-0.8508,1.6526,-1.279,2052
20,0.1626,-0.9438,0.2,-0.9047,1.5816,-1.2423,2075
20,0.0996,-0.8711,0.1602,-0.8363,1.5526,-1.1849,2029
20,0.0967,-0.7961,0.1282,-0.7452,1.6018,-1.1105,2058
20,0.0713,-0.6836,0.1296,-0.5525,1.6969,-1.0278,2059
20,0.1091,-0.5811,0.1257,-0.3934,1.7532,-0.946,2060
20,0.1504,-0.5417,0.1509,-0.2302,1.7013,-0.8935,2042
20,0.104,-0.5754,0.145,-0.1252,1.6183,-0.8987,2069
20,0.0537,-0.6348,0.1475,-0.0846,1.611,-0.9095,2030
20,0.0007,-0.6768,0.124,-0.098,1.6677,-0.9296,2071
20,0.0134,-0.6675,0.126,-0.1087,1.7466,-0.9745,2071
20,0.0271,-0.6653,0.116,-0.1249,1.848,-1.0235,2041
20,0.0281,-0.6963,0.0933,-0.1858,1.8441,-1.0758,2015
20,0.0276,-0.7473,0.0852,-0.2107,1.8394,-1.138,2067
20,0.0256,-0.8179,0.0874,-0.2282,1.7488,-1.1997,2058
20,0.0273,-0.9011,0.0776,-0.276,1.6492,-1.233,2037
20,-0.0061,-0.967,0.052,-0.3184,1.4826,-1.1893,2190
20,0.019,-0.9788,0.0198,-0.3184,1.2844,-1.1628,1996
20,0.0713,-0.9868,0.0012,-0.2567,1.1754,-1.1308,2109
20,0.1121,-1.0117,0.0081,-0.2081,1.0311,-1.0804,2073
20,0.1697,-1.0085,0.0051,-0.2029,0.9128,-1.0348,2072
20,0.2705,-1.0261,-0.0085,-0.2161,0.7854,-1.05,1977
20,0.2881,-1.0723,0.0427,-0.273,0.7677,-1.082,2056
20,0.2493,-1.1265,0.0667,-0.3008,0.8154,-1.0977,2015
20,0.2305,-1.1445,0.1218,-0.3505,0.9417,-1.0979,2079
20,0.2402,-1.1355,0.1655,-0.3943,1.0734,-1.0833,1952
20,0.2615,-1.1433,0.2173,-0.4311,1.0901,-1.0746,2037
20,0.2805,-1.1497,0.2346,-0.4633,1.095,-1.0725,2116
20,0.3069,-1.1675,0.2659,-0.4763,1.0818,-1.0837,1989
20,0.3167,-1.2329,0.27,-0.4855,0.9941,-1.0816,2086
20,0.3381,-1.3088,0.2859,-0.4819,0.8794,-1.0573,2024
20,0.3613,-1.3518,0.2808,-0.4951,0.7674,-1.0433,2036
20,0.3713,-1.3733,0.2878,-0.5018,0.6625,-0.9714,2052
20,0.3828,-1.3289,0.2737,-0.5127,0.6473,-0.8987,2044
20,0.3621,-1.251,0.2927,-0.5253,0.7102,-0.8325,2103
20,0.3713,-1.1846,0.3054,-0.5357,0.8064,-0.7991,2017
20,0.3853,-1.1868,0.3027,-0.5401,0.9162,-0.7863,2106
20,0.3604,-1.1775,0.2959,-0.5453,1.0408,-0.763,2034
20,0.3091,-1.156,0.3157,-0.5402,1.1396,-0.7594,2047
20,0.3008,-1.0774,0.3423,-0.5409,1.2404,-0.7787,2042
20,0.2681,-0.9768,0.3911,-0.5823,1.2673,-0.8285,2052
20,0.2341,-0.8625,0.4368,-0.6687,1.2536,-0.8835,2068
20,0.1956,-0.7654,0.4595,-0.7763,1.2138,-0.9242,2045
20,0.1597,-0.6885,0.4446,-0.8605,1.2109,-0.9589,2057
20,0.1616,-0.6892,0.4111,-0.9511,1.1846,-0.989,2040
20,0.1589,-0.7156,0.3501,-1.0471,1.1489,-1.0143,2043
20,0.1707,-0.7336,0.2649,-1.0986,1.075,-1.0151,2147
20,0.2061,-0.7234,0.196,-1.1515,1.0029,-1.0092,2032
20,0.2092,-0.7175,0.1204,-1.1714,0.9415,-0.9826,2036
20,0.2009,-0.7341,0.0703,-1.1555,0.8705,-0.9564,2127
20,0.1924,-0.7483,0.0144,-1.1055,0.8119,-0.8986,2027
20,0.1899,-0.7354,-0.0322,-1.0318,0.8114,-0.7996,2012
20,0.208,-0.7083,-0.0444,-0.9036,0.808,-0.6806,2008
20,0.2461,-0.7568,-0.0398,-0.7922,0.7534,-0.5566,2026
20,0.2458,-0.8396,0.0122,-0.6933,0.6942,-0.43,2029
20,0.1836,-0.9045,0.0718,-0.6407,0.6138,-0.3011,2038
20,0.1487,-0.9084,0.1282,-0.6324,0.6316,-0.1716,1998
20,0.1042,-0.8662,0.1797,-0.6339,0.7018,-0.0647,2039
20,0.1086,-0.7988,0.2178,-0.6542,0.8228,0.0112,2056
20,0.105,-0.7532,0.2737,-0.6929,0.9315,0.0433,2051
20,0.1421,-0.7637,0.2607,-0.757,1.0006,0.0631,2029
20,0.1724,-0.793,0.2488,-0.8071,1.0485,0.0827,2066
20,0.2275,-0.8049,0.2031,-0.8403,1.0341,0.1024,2032
20,0.2817,-0.8511,0.167,-0.8682,0.9769,0.1091,2048
20,0.3218,-0.8569,0.1531,-0.8688,0.9612,0.1011,2045
20,0.3435,-0.8184,0.1162,-0.8493,0.8684,0.1056,2029
20,0.3977,-0.77,0.0986,-0.8218,0.7969,0.0975,2039
20,0.4434,-0.77,0.1033,-0.8024,0.7557,0.0814,2060
20,0.4529,-0.7874,0.0967,-0.7849,0.7007,0.077,2074
20,0.4568,-0.7917,0.0776,-0.7564,0.7522,0.08,2071
20,0.4417,-0.7935,0.0688,-0.7303,0.8128,0.0792,2041
20,0.4268,-0.7966,0.0461,-0.7233,0.9564,0.071,2083
20,0.4065,-0.7932,0.051,-0.724,1.1219,0.0606,2059
20,0.3757,-0.8081,0.0596,-0.7537,1.2921,0.0162,2059
20,0.3755,-0.7993,0.0798,-0.7889,1.4888,-0.0369,2051
20,0.3459,-0.7864,0.0725,-0.8303,1.6018,-0.0929,2058
20,0.3633,-0.7727,0.0876,-0.8443,1.6835,-0.1072,2100
20,0.3784,-0.7844,0.0781,-0.876,1.7427,-0.1252,2034
20,0.3376,-0.771,0.0696,-0.8921,1.7683,-0.1032,2027
20,0.3357,-0.7578,0.0613,-0.9144,1.7393,-0.0882,2078
20,0.3386,-0.7832,0.0596,-0.9445,1.6776,-0.122,1977
20,0.3384,-0.8101,0.0442,-0.9461,1.6068,-0.0984,2052
20,0.3293,-0.8643,0.0129,-0.9453,1.5177,-0.0397,1996
21,0.3384,-0.9058,-0.0044,-0.9234,1.4219,0.0075,2027
21,0.3315,-0.9395,-0.0349,-0.9191,1.3435,0.0304,2041
21,0.3254,-0.9829,-0.0723,-0.9116,1.2745,0.0767,2039
21,0.2793,-0.999,-0.0869,-0.8957,1.2491,0.1156,2023
21,0.2361,-0.9731,-0.0999,-0.8999,1.2415,0.1202,2057
21,0.2976,-0.9141,-0.0505,-0.7903,1.3197,0.1816,2093
21,0.3005,-0.9324,0.0466,-0.6883,1.2098,0.2234,2129
21,0.2769,-0.9949,0.0708,-0.6533,1.1415,0.2603,2120
21,0.3335,-1.0525,0.0085,-0.6843,0.9986,0.3187,2095
21,0.3579,-1.1411,-0.0796,-0.8014,0.981,0.3563,2036
21,0.2773,-1.2812,-0.1274,-0.9929,1.1151,0.2663,2015
21,0.1548,-1.2656,-0.1401,-1.0511,1.2813,0.2939,2111
21,0.1675,-1.208,-0.0981,-1.0314,1.4549,0.3033,1991
21,0.2039,-1.1631,-0.0647,-1.0106,1.5932,0.3551,2079
21,0.2852,-1.1921,-0.0872,-1.0222,1.5941,0.4121,2072
21,0.3987,-1.3291,-0.0532,-0.978,1.5182,0.4109,2013
21,0.2366,-1.4368,0.0195,-1.0364,1.6779,0.347,2066
21,0.1509,-1.3513,0.1028,-1.0848,1.8435,0.3298,2012
21,0.1003,-1.2705,0.2346,-1.1544,2.2281,0.2597,2017
21,0.0967,-1.1428,0.2861,-1.2556,2.551,0.141,2105
21,0.137,-1.0264,0.3774,-1.2335,2.8573,0.0217,2047
21,0.2178,-0.9973,0.427,-1.1769,2.8477,-0.1322,2052
21,0.2273,-0.9602,0.4282,-1.0879,2.8196,-0.2667,2081
21,0.2185,-0.929,0.4551,-0.9991,2.7279,-0.3551,1988
21,0.2207,-0.8672,0.4607,-0.8244,2.5229,-0.4508,2063
21,0.3376,-0.7898,0.3552,-0.5517,2.1687,-0.4155,2024
21,0.2937,-0.8674,0.3701,-0.471,1.9825,-0.4196,2016
21,0.2576,-0.8975,0.2637,-0.3962,1.6732,-0.3812,2047
21,0.1396,-1.0156,0.1421,-0.32,1.5407,-0.3216,2017
21,0.0151,-1.1729,0.0906,-0.293,1.4914,-0.2721,2052
21,-0.113,-1.2322,-0.0293,-0.3223,1.4994,-0.2189,1999
21,-0.188,-1.2043,-0.0916,-0.3224,1.7126,-0.1653,2155
21,-0.2781,-1.1633,-0.1211,-0.3097,1.9419,-0.1804,2038
21,-0.2544,-1.1418,-0.0986,-0.2903,2.0869,-0.2113,2098
21,-0.1533,-1.1453,-0.0483,-0.331,2.235,-0.249,1992
21,-0.0864,-1.1646,0.0125,-0.4153,2.2605,-0.2717,2170
21,-0.0369,-1.1521,0.0862,-0.4709,2.0992,-0.2376,2007
21,0.0154,-1.0933,0.103,-0.5339,1.996,-0.2131,2062
21,0.022,-1.0564,0.1475,-0.5924,1.8403,-0.1754,2077
21,0.041,-1.0183,0.167,-0.647,1.695,-0.1724,2064
21,0.0596,-0.9753,0.1636,-0.6641,1.5689,-0.1996,2055
21,0.0933,-0.9485,0.1785,-0.6721,1.4781,-0.2388,2147
21,0.1152,-0.9116,0.198,-0.6365,1.366,-0.245,2039
21,0.1389,-0.8967,0.2009,-0.5924,1.2694,-0.2555,2070
21,0.1523,-0.9084,0.1653,-0.573,1.2322,-0.2594,2042
21,0.1687,-0.9033,0.1345,-0.5397,1.2138,-0.2631,2029
21,0.1348,-0.8867,0.1116,-0.5197,1.287,-0.2867,2030
21,0.1545,-0.8748,0.0942,-0.5012,1.3557,-0.2936,2088
21,0.1521,-0.8528,0.0889,-0.4817,1.4426,-0.2966,2052
21,0.1494,-0.8662,0.071,-0.4256,1.483,-0.2912,2119
21,0.1492,-0.8691,0.0486,-0.3726,1.4981,-0.2542,2058
21,0.1506,-0.8689,0.0425,-0.3037,1.5045,-0.237,2034
21,0.1663,-0.8982,0.0437,-0.2394,1.4597,-0.248,2035
21,0.166,-0.9199,0.0229,-0.22,1.4195,-0.2623,2105
21,0.1697,-0.9211,0.0344,-0.1806,1.3697,-0.2725,2058
21,0.1479,-0.9155,0.0332,-0.1297,1.3331,-0.2575,2038
21,0.1682,-0.9431,0.0432,-0.0872,1.3528,-0.2666,2109
21,0.1812,-0.9661,0.0386,-0.0405,1.3087,-0.2405,2039
21,0.1758,-0.9934,0.0171,0.0127,1.2736,-0.2348,2062
21,0.1985,-1.0322,0.021,0.0441,1.2138,-0.2579,2024
21,0.1829,-1.0503,0.0486,0.0722,1.1427,-0.2846,2050
21,0.2021,-1.042,0.0469,0.09,1.0469,-0.2835,2102
21,0.1965,-1.0181,0.0898,0.1023,0.9998,-0.3045,2018
21,0.1724,-1.0232,0.1382,0.0965,0.9696,-0.3149,2059
21,0.1956,-1.0684,0.137,0.0638,0.9464,-0.3113,2069
21,0.1433,-1.071,0.1638,0.0257,0.9399,-0.3412,2066
21,0.1426,-1.0911,0.157,-0.0186,0.95,-0.3494,2017
21,0.1445,-1.1243,0.1292,-0.0449,1.0123,-0.3739,2083
21,0.177,-1.1567,0.1331,-0.0716,1.0563,-0.3773,2131
21,0.2034,-1.2373,0.1226,-0.0871,1.0577,-0.3887,2029
21,0.2104,-1.2842,0.1179,-0.1016,1.0106,-0.3599,2007
21,0.2122,-1.344,0.1392,-0.132,0.93,-0.3067,2050
21,0.1941,-1.3508,0.1936,-0.1838,0.8249,-0.2856,2019
21,0.1484,-1.3052,0.2341,-0.2296,0.7323,-0.255,2059
21,0.1169,-1.2065,0.2927,-0.2751,0.6835,-0.2404,2060
21,0.1162,-1.0986,0.3022,-0.3139,0.7352,-0.226,2036
21,0.0952,-1.0066,0.3049,-0.3646,0.8413,-0.2332,2072
21,0.1169,-0.9534,0.322,-0.4409,0.963,-0.3152,2079
21,0.1826,-0.9236,0.3445,-0.4987,1.0837,-0.4131,2034
21,0.2466,-0.8528,0.3735,-0.5268,1.0865,-0.4682,2051
21,0.2842,-0.7776,0.3904,-0.562,1.0248,-0.5228,2064
21,0.3252,-0.7339,0.386,-0.5351,0.9015,-0.5697,2047
21,0.4688,-0.6721,0.4065,-0.4124,0.6767,-0.6703,2154
21,0.6733,-0.7041,0.3896,-0.3478,0.3009,-0.8787,2032
21,0.7759,-0.7441,0.3494,-0.293,0.0249,-0.9878,2050
21,0.7756,-0.7166,0.3027,-0.2242,-0.3397,-0.9608,2041
21,0.6201,-0.8691,0.2126,-0.1731,-0.6842,-0.7921,2146
21,0.3696,-1.0312,0.1672,-0.1519,-0.7791,-0.6755,2018
21,0.0676,-1.0977,0.1204,-0.1377,-0.6719,-0.5718,2110
21,-0.188,-1.0718,0.021,-0.172,-0.4476,-0.3777,2067
21,-0.3328,-1.0615,-0.0403,-0.2176,0.0146,-0.2196,2099
21,-0.3345,-1.0237,-0.0496,-0.1872,0.4975,-0.1321,2022
21,-0.0581,-1.0012,0.0171,-0.1677,0.6486,-0.0173,2063
21,0.0889,-1.0334,0.1169,-0.2021,0.6839,-0.0044,2079
21,0.1426,-0.9961,0.1992,-0.1583,0.4854,-0.0001,2016
21,0.2454,-0.9192,0.2312,-0.1631,0.2277,0.0558,2049
21,0.3687,-0.8682,0.198,-0.1309,-0.0417,0.1633,2043
21,0.3882,-0.8118,0.3062,-0.1009,-0.0746,0.1585,2077
21,0.3674,-0.8174,0.3352,-0.0925,-0.1977,0.1413,2079
21,0.4724,-0.7495,0.3298,-0.0272,-0.3072,0.0835,2066
21,0.5801,-0.6458,0.3645,0.1213,-0.1784,0.0043,2048
21,0.6448,-0.6548,0.3777,0.242,-0.1547,-0.1133,2015
21,0.6538,-0.6804,0.4263,0.3525,-0.0372,-0.244,2024
22,0.5798,-0.7148,0.3809,0.4454,-0.0218,-0.2787,2061
22,0.4509,-0.741,0.2776,0.5185,0.1333,-0.2609,2043
22,0.3479,-0.7551,0.1738,0.5522,0.3611,-0.2713,2029
22,0.2585,-0.7693,0.0925,0.5545,0.5833,-0.2759,2044
22,0.1824,-0.7915,0.0845,0.5271,0.7209,-0.257,2112
22,0.1362,-0.7874,0.0667,0.4743,0.7461,-0.2076,2032
22,0.1558,-0.8145,0.064,0.3819,0.7042,-0.1989,2057
22,0.1719,-0.7644,0.0728,0.3449,0.6681,-0.1779,2057
22,0.2297,-0.738,0.0869,0.3096,0.54,-0.1152,2090
22,0.2529,-0.7622,0.1538,0.2117,0.4558,-0.1008,2016
22,0.2832,-0.8042,0.1021,0.1017,0.3726,-0.073,2035
22,0.3154,-0.8142,0.1196,-0.0133,0.3879,-0.0494,2062
22,0.3115,-0.8184,0.0588,-0.1433,0.5517,-0.0723,2060
22,0.3477,-0.8796,0.093,-0.2828,0.5627,-0.0649,2145
22,0.3184,-0.832,0.0935,-0.3803,0.7229,-0.0963,2029
22,0.2793,-0.8274,0.0886,-0.4829,0.7578,-0.0856,2053
22,0.2773,-0.8052,0.0989,-0.5787,0.8597,-0.0884,2051
22,0.2534,-0.791,0.0881,-0.6678,0.95,-0.0887,2127
22,0.2126,-0.8064,0.0884,-0.7052,1.0299,-0.0921,2009
22,0.208,-0.8279,0.0996,-0.7257,1.1132,-0.0812,2097
22,0.2437,-0.8271,0.1057,-0.7191,1.189,-0.0698,2039
22,0.2944,-0.8323,0.134,-0.7256,1.179,-0.0542,2057
22,0.3345,-0.8521,0.1287,-0.7585,1.1109,-0.0301,2042
