Timestamp,Ax,Ay,Az,Rx,Ry,Rz,EMG
0,-0.3359,-1.1414,-0.0435,-0.5723,2.0066,-0.3048,1998
0,-0.2527,-1.1548,-0.1169,-0.6052,2.3334,-0.2409,2051
0,-0.1807,-1.1824,-0.2246,-0.7255,2.5164,-0.0469,2084
0,-0.1553,-1.155,-0.1458,-0.6411,2.425,0.1776,2051
0,-0.1279,-1.1052,-0.0479,-0.6963,2.4196,0.3203,2065
0,-0.0981,-1.0647,-0.0615,-0.8084,2.4398,0.4386,2034
0,-0.0281,-1.0508,-0.1155,-0.7737,2.4458,0.4541,2017
0,0.0234,-1.0034,-0.1821,-1.0199,2.3499,0.6321,2042
0,-0.0657,-0.928,-0.1892,-1.0652,1.9037,0.7233,2078
0,-0.1714,-0.7617,-0.1433,-0.9536,1.6812,0.8332,2064
0,-0.2429,-0.6746,-0.1526,-0.7458,1.6946,0.838,2040
0,-0.3218,-0.7078,-0.2209,-0.655,1.9144,0.7356,1985
0,-0.3022,-0.7837,-0.3062,-0.5356,2.027,0.6894,2012
0,-0.2756,-0.8015,-0.2952,-0.5347,2.1149,0.7191,2058
0,-0.2825,-0.7354,-0.2866,-0.3759,2.1956,0.7375,2045
0,-0.1965,-0.7063,-0.3137,-0.3534,2.2156,0.7945,2039
0,-0.0852,-0.6594,-0.3862,-0.3396,2.1051,0.8787,2038
0,-0.0569,-0.6838,-0.3745,-0.3139,2.0048,0.9517,2066
0,-0.0569,-0.687,-0.4019,-0.4044,1.8984,1.0575,2028
0,-0.0935,-0.6785,-0.4253,-0.575,1.7936,1.1131,2033
0,-0.1199,-0.6018,-0.5303,-0.7187,1.79,1.2581,2055
0,-0.1108,-0.4292,-0.613,-0.657,2.0174,1.5487,2033
0,-0.1682,-0.3328,-0.6609,-0.6775,2.2049,1.7925,2052
0,-0.2297,-0.3145,-0.6387,-0.6213,2.3613,1.7576,2050
0,-0.1287,-0.332,-0.6458,-0.6179,2.3988,1.6403,1987
0,-0.0493,-0.3008,-0.6541,-0.6759,2.4859,1.5267,2061
0,0.0608,-0.3057,-0.6531,-0.7853,2.3447,1.433,2046
0,0.1414,-0.27,-0.6558,-0.8031,2.0379,1.3295,2048
0,0.0881,-0.2212,-0.6516,-0.7462,1.6865,1.1523,2039
0,-0.0662,-0.2373,-0.627,-0.6072,1.3981,0.9713,2031
0,-0.1904,-0.3391,-0.5999,-0.4774,1.1716,0.8333,2031
0,-0.2522,-0.4451,-0.5127,-0.3571,1.1351,0.7423,2069
0,-0.3047,-0.5371,-0.5166,-0.2004,1.0915,0.7244,2030
0,-0.3086,-0.668,-0.449,-0.027,1.1212,0.6272,2054
0,-0.3433,-0.9119,-0.4148,0.0137,1.2576,0.5211,2045
0,-0.4197,-1.1418,-0.4819,-0.0442,1.1067,0.4518,2054
0,-0.4031,-1.3169,-0.5105,-0.106,0.8138,0.3468,2021
0,-0.3813,-1.3049,-0.4719,-0.2353,0.5651,0.3183,2028
0,-0.4707,-1.1196,-0.5007,-0.2675,0.3859,0.397,2052
0,-0.5393,-0.9438,-0.5566,-0.1297,0.077,0.459,2048
0,-0.5288,-0.8562,-0.5503,-0.0017,-0.14,0.5834,2025
0,-0.5364,-0.863,-0.5664,0.1908,-0.236,0.7879,2039
0,-0.6482,-0.9138,-0.6365,0.3613,-0.1051,0.8411,2040
0,-0.7327,-0.8757,-0.7791,0.5813,0.0025,0.787,2041
0,-0.6348,-0.8289,-0.7739,0.8015,-0.0859,0.6991,2032
0,-0.5149,-0.6941,-0.7021,0.823,-0.2673,0.6536,2035
0,-0.4863,-0.6301,-0.5774,0.7847,-0.2838,0.6747,2045
0,-0.542,-0.6868,-0.5701,0.6942,-0.3461,0.6668,2050
0,-0.616,-0.8376,-0.5571,0.5601,-0.5044,0.6545,2044
0,-0.6511,-0.9163,-0.5127,0.4726,-0.5172,0.6228,2042
0,-0.6206,-0.918,-0.4697,0.4771,-0.1719,0.5099,2049
0,-0.5027,-0.8394,-0.488,0.4825,0.133,0.4269,2042
0,-0.3367,-0.7341,-0.5884,0.5602,0.2587,0.4169,2045
0,-0.1868,-0.6628,-0.6226,0.5821,0.1847,0.5152,2043
0,-0.1384,-0.7073,-0.5991,0.5248,0.0943,0.6312,2047
0,-0.1943,-0.7673,-0.5522,0.4595,0.0069,0.6889,2040
0,-0.3511,-0.8071,-0.4771,0.3578,-0.0747,0.6601,2046
0,-0.4314,-0.783,-0.4551,0.3337,-0.0471,0.5564,2046
0,-0.4653,-0.7559,-0.4475,0.3144,0.129,0.4579,2038
0,-0.418,-0.7305,-0.4595,0.3304,0.2666,0.3963,2040
0,-0.3931,-0.7332,-0.4849,0.3778,0.3164,0.3844,2033
0,-0.3962,-0.7473,-0.5085,0.4101,0.2772,0.4016,2047
0,-0.4277,-0.7861,-0.4761,0.3796,0.1477,0.4103,2051
0,-0.4885,-0.8555,-0.4587,0.3413,0.0385,0.3614,2040
0,-0.5583,-0.8799,-0.4302,0.2851,-0.0013,0.3533,2041
0,-0.6067,-0.8579,-0.4426,0.3173,-0.1816,0.2818,2040
0,-0.6448,-0.8552,-0.4236,0.277,-0.0393,0.2286,2042
0,-0.5862,-0.7937,-0.4272,0.3547,0.0,0.1981,2041
0,-0.5383,-0.7627,-0.4482,0.3987,-0.0055,0.1958,2042
0,-0.4893,-0.7434,-0.4702,0.4562,-0.0388,0.2373,2040
0,-0.4866,-0.7722,-0.4641,0.492,-0.1008,0.2458,2041
0,-0.4868,-0.7803,-0.4431,0.4807,-0.1077,0.2763,2043
0,-0.5166,-0.7561,-0.4734,0.5002,-0.0828,0.299,2047
0,-0.5347,-0.8271,-0.4272,0.5074,-0.1198,0.2228,2050
0,-0.4939,-0.854,-0.3745,0.4581,-0.1851,0.1282,2032
0,-0.4685,-0.7761,-0.4023,0.398,-0.1284,0.1274,2038
0,-0.4731,-0.7537,-0.4573,0.4574,-0.2216,0.1253,2041
0,-0.3982,-0.6543,-0.5229,0.6926,-0.4767,0.1426,2041
0,-0.3889,-0.7659,-0.5078,0.5811,-0.4015,0.1525,2047
0,-0.3899,-0.7371,-0.5007,0.6336,-0.4769,0.2264,2039
0,-0.5156,-0.8384,-0.4387,0.5239,-0.4168,0.1868,2044
0,-0.5513,-0.8005,-0.4595,0.4872,-0.3842,0.137,2042
0,-0.5044,-0.7273,-0.4265,0.664,-0.5034,0.1649,2037
0,-0.4924,-0.7964,-0.4373,0.6252,-0.384,0.1384,2039
0,-0.4297,-0.7415,-0.468,0.6638,-0.4422,0.1533,2034
0,-0.4255,-0.7639,-0.3872,0.6341,-0.5509,0.1823,2041
0,-0.4985,-0.7861,-0.3352,0.583,-0.553,0.1983,2042
0,-0.6084,-0.832,-0.2644,0.4597,-0.5706,0.1294,2046
0,-0.6316,-0.8406,-0.2542,0.4569,-0.5894,0.081,2038
0,-0.5898,-0.8318,-0.2646,0.5147,-0.6094,0.0366,2048
0,-0.4617,-0.7261,-0.3574,0.6605,-0.6769,0.1289,2039
0,-0.4529,-0.8276,-0.3206,0.5986,-0.6359,0.1257,2034
0,-0.4565,-0.7998,-0.3647,0.5789,-0.6803,0.1874,2049
0,-0.4668,-0.771,-0.3694,0.6217,-0.6918,0.1695,2038
0,-0.4934,-0.8499,-0.2949,0.5444,-0.738,0.1635,2050
0,-0.4744,-0.8279,-0.2886,0.5414,-0.6885,0.1852,2041
0,-0.5996,-0.8777,-0.1829,0.4433,-0.6411,0.1325,2040
0,-0.627,-0.854,-0.2173,0.3702,-0.493,0.0406,2044
0,-0.5359,-0.7134,-0.2578,0.534,-0.5516,0.1148,2042
0,-0.5625,-0.8352,-0.2522,0.4448,-0.4927,0.0565,2036
0,-0.4712,-0.7583,-0.2993,0.4458,-0.4675,0.0939,2036
1,-0.543,-0.834,-0.1948,0.4497,-0.5881,0.1543,2045
1,-0.6873,-0.9175,-0.115,0.1543,-0.3025,0.0051,2046
1,-0.7632,-0.8887,-0.0198,0.0581,-0.1878,-0.0475,2040
1,-0.6792,-0.8579,-0.1106,0.12,-0.1365,-0.1029,2035
1,-0.3877,-0.7542,-0.2764,0.4123,-0.3623,-0.0262,2045
1,0.0166,-0.4824,-0.4304,0.6552,-0.7404,0.3247,2049
1,-0.3784,-0.8979,-0.4231,0.4864,-0.3227,0.1914,2040
1,-0.4075,-0.7642,-0.4619,0.5914,-0.5347,0.2505,2021
1,-0.4719,-0.8247,-0.3298,0.5123,-0.5382,0.2277,2033
1,-0.6426,-0.8928,-0.1257,0.3069,-0.3555,0.1212,2040
1,-0.8601,-0.9045,0.0481,0.0517,-0.1561,-0.0023,2047
1,-0.9268,-0.875,0.0588,0.0679,-0.0017,-0.1232,2048
1,-0.7078,-0.8025,-0.0217,0.1706,-0.0811,-0.1194,2047
1,-0.4888,-0.772,-0.1699,0.2663,-0.1947,-0.0469,2042
1,-0.447,-0.7786,-0.2844,0.2831,-0.2987,0.0189,2037
1,-0.5054,-0.8538,-0.2534,0.5261,-0.5682,0.1016,2049
1,-0.5803,-0.8877,-0.1738,0.0511,-0.1916,-0.0254,2034
1,-0.6494,-0.8196,-0.1299,-0.026,-0.0465,-0.0687,2048
1,-0.7097,-0.8396,-0.0203,-0.077,0.0507,-0.1546,2045
1,-0.6008,-0.8264,-0.0889,-0.0446,0.0481,-0.1762,2043
1,-0.3909,-0.8088,-0.2375,0.0988,-0.1269,-0.1262,2043
1,-0.3342,-0.8435,-0.3425,0.1461,-0.1859,-0.0543,2036
1,-0.3606,-0.8418,-0.4065,0.2904,-0.1954,0.0055,2037
1,-0.3835,-0.8428,-0.321,0.2996,-0.3095,0.0168,2034
1,-0.5242,-0.9028,-0.2024,0.494,-0.573,0.0598,2047
1,-0.7214,-0.9851,-0.0503,0.019,-0.2482,-0.045,2040
1,-0.8457,-0.8503,0.0632,-0.1369,-0.079,-0.1566,2041
1,-0.8188,-0.8706,0.011,-0.029,-0.0362,-0.223,2048
1,-0.5283,-0.8257,-0.1118,0.1518,-0.2784,-0.1406,2038
1,-0.3809,-0.8254,-0.2649,0.1883,-0.3858,-0.0649,2053
1,-0.2036,-0.6367,-0.3015,0.3263,-0.7183,0.0306,2045
1,-0.7625,-1.0259,-0.1074,0.0365,-0.3113,-0.0929,2045
1,-0.6375,-0.8096,-0.1306,-0.0839,-0.161,-0.1092,2031
1,-0.7166,-0.833,-0.0598,-0.1137,-0.0774,-0.1663,2047
1,-0.6245,-0.8408,-0.0808,-0.0356,-0.0939,-0.1715,2038
1,-0.4597,-0.8408,-0.1501,0.0145,-0.1454,-0.1325,2046
1,-0.4006,-0.8523,-0.2241,0.0526,-0.0898,-0.0842,2037
1,-0.439,-0.8499,-0.2249,0.0645,-0.1168,-0.0698,2035
1,-0.4741,-0.823,-0.1919,0.0253,-0.1372,-0.0642,2039
1,-0.5559,-0.8091,-0.1582,-0.035,-0.0851,-0.0727,2040
1,-0.6484,-0.813,-0.1016,-0.0819,-0.0601,-0.1136,2043
1,-0.6296,-0.8452,-0.0955,-0.0262,-0.0936,-0.1214,2041
1,-0.5361,-0.8503,-0.1184,-0.0047,-0.1466,-0.0915,2044
1,-0.4326,-0.865,-0.1592,0.0495,-0.2176,-0.0281,2039
1,-0.5039,-0.8604,-0.1226,0.016,-0.2092,-0.0176,2042
1,-0.572,-0.8403,-0.1123,-0.0344,-0.1128,-0.0333,2035
1,-0.5923,-0.8264,-0.1169,-0.023,-0.1171,-0.0397,2039
1,-0.5286,-0.8342,-0.1472,-0.0051,-0.0728,-0.0378,2048
1,-0.5132,-0.8367,-0.1248,0.0321,-0.0779,-0.0077,2044
1,-0.5027,-0.8789,-0.1125,0.0272,-0.0145,-0.0023,2039
1,-0.5127,-0.8618,-0.1189,0.0602,-0.0244,0.0241,2040
1,-0.5249,-0.844,-0.1064,0.038,-0.0325,0.039,2043
1,-0.5549,-0.8513,-0.1067,0.0483,-0.0281,0.0447,2043
1,-0.6038,-0.8508,-0.0752,0.0081,-0.0467,0.0269,2041
1,-0.5562,-0.8499,-0.1089,0.0184,-0.0466,-0.0011,2044
1,-0.5483,-0.8528,-0.1106,0.0467,-0.112,0.0136,2047
1,-0.5027,-0.8708,-0.1345,0.0397,-0.0762,0.0241,2039
1,-0.5161,-0.8557,-0.1562,0.0369,-0.0795,0.0152,2039
1,-0.5305,-0.8635,-0.1245,0.0252,-0.043,0.0009,2041
1,-0.5149,-0.8623,-0.1028,0.0245,-0.0373,0.0121,2044
1,-0.5186,-0.8662,-0.1138,0.0017,-0.0346,0.0136,2043
1,-0.5046,-0.8708,-0.1206,0.0246,-0.0357,0.0182,2039
1,-0.457,-0.8772,-0.1521,0.0593,-0.0784,0.039,2042
1,-0.4463,-0.8479,-0.2163,0.0948,-0.1072,0.0698,2038
1,-0.4856,-0.8547,-0.1865,0.076,-0.0679,0.0647,2037
1,-0.5842,-0.8733,-0.1438,0.0176,0.0197,0.0296,2039
1,-0.6448,-0.8547,-0.0898,-0.0381,0.0664,-0.0342,2046
1,-0.6602,-0.8535,-0.0464,-0.0699,0.0932,-0.075,2042
1,-0.5215,-0.877,-0.0857,0.0176,0.012,-0.051,2038
1,-0.3806,-0.8621,-0.1741,0.0511,-0.1505,0.0138,2041
1,-0.4067,-0.8748,-0.1721,0.0722,-0.102,0.0366,2044
1,-0.5688,-0.8186,-0.1882,0.2523,-0.5494,0.0692,2038
1,-0.5637,-0.8909,-0.1572,0.0266,-0.036,0.0417,2040
1,-0.5796,-0.8184,-0.1702,0.0052,0.0325,0.01,2042
1,-0.606,-0.8354,-0.0967,0.037,0.0068,-0.0194,2043
1,-0.6079,-0.8579,-0.0461,0.0107,0.0431,-0.0382,2043
1,-0.5496,-0.8711,-0.0229,0.0088,0.0411,-0.0296,2040
1,-0.5142,-0.8862,-0.0725,-0.0234,-0.0325,-0.037,2042
1,-0.4792,-0.8806,-0.1335,-0.0021,-0.0542,-0.0194,2044
1,-0.4727,-0.8682,-0.1814,0.0164,-0.1093,0.0108,2038
1,-0.4641,-0.8503,-0.2349,0.0515,-0.1723,0.0395,2037
1,-0.5144,-0.8555,-0.2163,0.0266,-0.1531,0.021,2039
1,-0.6082,-0.8748,-0.1318,-0.0131,-0.0622,-0.0137,2046
1,-0.5872,-0.876,-0.104,-0.0256,-0.0117,-0.0531,2042
1,-0.5149,-0.854,-0.1133,0.0241,-0.0759,-0.0264,2047
1,-0.4365,-0.8525,-0.1169,0.0401,-0.1505,0.0254,2039
1,-0.4182,-0.8457,-0.1311,0.061,-0.2939,0.0627,2046
1,-0.2764,-0.7371,-0.1838,0.2191,-1.1931,0.1752,2041
1,-0.5637,-0.9316,-0.1318,-0.0655,-0.469,0.1092,2052
1,-0.6489,-0.8308,-0.1431,-0.073,-0.339,0.0855,2033
1,-0.6123,-0.8318,-0.0842,-0.0397,-0.3492,0.0546,2044
1,-0.5137,-0.8335,-0.1128,0.0293,-0.3891,0.0977,2043
1,-0.3906,-0.835,-0.0938,0.0654,-0.495,0.1493,2046
1,-0.6294,-0.8501,-0.0762,0.0527,-0.7209,0.1938,2044
1,-0.5222,-0.8723,-0.0845,-0.0096,-0.5485,0.1993,2043
1,-0.5925,-0.8223,-0.0935,-0.03,-0.4974,0.1724,2041
1,-0.6208,-0.8396,-0.1006,-0.0292,-0.2707,0.1408,2042
1,-0.6025,-0.8181,-0.1355,0.0282,-0.2589,0.1614,2041
1,-0.5571,-0.8357,-0.1306,0.0695,-0.3502,0.1735,2063
1,-0.5708,-0.8503,-0.0784,0.055,-0.3858,0.1706,2041
1,-0.5781,-0.8533,-0.0342,0.0067,-0.4472,0.1739,2041
1,-0.6267,-0.8369,0.0212,-0.082,-0.4468,0.1505,2046
1,-0.2224,-0.8259,0.0715,-0.1872,-1.9305,-0.0169,2020
1,-0.7192,-0.9036,-0.0315,-0.1173,-0.2906,0.1015,2051
1,-0.6306,-0.8442,-0.0693,-0.0598,-0.2446,0.1047,2044
2,-0.5078,-0.8262,-0.1155,0.0238,-0.3294,0.1394,2041
2,-0.5325,-0.8523,-0.1296,0.0188,-0.2591,0.1378,2051
2,-0.5762,-0.8416,-0.0864,-0.004,-0.1993,0.1469,2034
2,-0.6257,-0.8103,-0.0752,-0.0587,-0.1662,0.1232,2042
2,-0.6948,-0.8062,-0.0488,-0.0511,-0.1063,0.098,2039
2,-0.6177,-0.7832,-0.0383,-0.0284,-0.1292,0.1265,2045
2,-0.5881,-0.8235,-0.0479,-0.0225,-0.0702,0.1288,2047
2,-0.5999,-0.8501,-0.0488,-0.0266,-0.0454,0.1186,2040
2,-0.5522,-0.8591,-0.0667,-0.0418,-0.0384,0.1079,2042
2,-0.5771,-0.8513,-0.0432,-0.0682,0.0237,0.0953,2044
2,-0.5796,-0.8364,-0.0669,-0.0553,0.0115,0.0981,2039
2,-0.5554,-0.8323,-0.0823,-0.063,0.0081,0.0906,2040
2,-0.5811,-0.8345,-0.0903,-0.0617,0.057,0.0812,2042
2,-0.594,-0.8433,-0.0938,-0.0605,0.0229,0.0668,2045
2,-0.5322,-0.8479,-0.1106,-0.0282,-0.0164,0.0862,2039
2,-0.5457,-0.8538,-0.0769,-0.0423,0.0184,0.0855,2046
2,-0.5898,-0.8621,-0.0632,-0.0551,0.0506,0.0735,2043
2,-0.5981,-0.8499,-0.0471,-0.0872,0.0711,0.0518,2037
2,-0.6221,-0.8459,-0.0432,-0.1405,0.1919,0.0097,2046
2,-0.6643,-0.8406,-0.0439,-0.1848,0.2256,-0.0365,2041
2,-0.5859,-0.8425,-0.0945,-0.1489,0.1907,-0.0503,2042
2,-0.4443,-0.8367,-0.1436,-0.0635,0.0915,0.0107,2044
2,-0.3853,-0.8145,-0.1494,-0.0445,-0.0537,0.0736,2039
2,-0.5117,-0.8547,-0.1423,-0.0479,-0.0776,0.084,2039
2,-0.6255,-0.8464,-0.1045,-0.074,-0.0313,0.0664,2033
2,-0.6506,-0.8169,-0.0625,-0.0939,0.036,0.0337,2044
2,-0.6567,-0.8154,-0.0327,-0.0931,0.0549,0.0136,2045
2,-0.6035,-0.8281,-0.0305,-0.0803,0.0188,0.0101,2046
2,-0.5217,-0.8376,-0.0764,-0.0499,-0.0463,0.0442,2041
2,-0.4937,-0.8269,-0.1116,-0.029,-0.0787,0.0759,2037
2,-0.5459,-0.8269,-0.1191,-0.0181,-0.0911,0.0875,2039
2,-0.5818,-0.8167,-0.1052,-0.0256,-0.0599,0.0859,2041
2,-0.6389,-0.8149,-0.0884,-0.0302,-0.0165,0.0716,2042
2,-0.6514,-0.8096,-0.0459,-0.0292,-0.0111,0.0495,2046
2,-0.6433,-0.8311,-0.032,-0.0334,-0.0092,0.038,2040
2,-0.6047,-0.8503,-0.0386,-0.0249,-0.0344,0.0471,2043
2,-0.5352,-0.8481,-0.0869,-0.0012,-0.1109,0.0602,2042
2,-0.5195,-0.8364,-0.1055,0.0053,-0.169,0.0751,2043
2,-0.5662,-0.8306,-0.1057,-0.0149,-0.1908,0.0666,2039
2,-0.6108,-0.8169,-0.0967,-0.0349,-0.2205,0.0443,2042
2,-0.6348,-0.8186,-0.0947,-0.0493,-0.2025,0.0185,2042
2,-0.5908,-0.8357,-0.0823,-0.0269,-0.1993,0.0165,2048
2,-0.5278,-0.8354,-0.0698,-0.0269,-0.2806,0.0337,2042
2,-0.4468,-0.8318,-0.1099,0.0145,-0.4257,0.0832,2039
2,-0.5146,-0.8418,-0.084,-0.0202,-0.4245,0.0904,2046
2,-0.6125,-0.8311,-0.083,-0.0499,-0.3264,0.0589,2039
2,-0.6628,-0.8064,-0.0454,-0.0766,-0.293,0.0258,2039
2,-0.6377,-0.7878,-0.0337,-0.0906,-0.3171,0.0005,2039
2,-0.667,-0.6438,-0.1174,-0.1724,-0.8724,-0.0272,2017
2,-0.5547,-0.8467,-0.0879,0.017,-0.2741,0.0844,2046
2,-0.5496,-0.822,-0.1372,-0.0233,-0.2601,0.0686,2048
2,-0.5486,-0.8181,-0.1277,0.0,-0.224,0.068,2040
2,-0.5757,-0.8323,-0.0898,-0.0123,-0.2088,0.0692,2041
2,-0.6199,-0.8218,-0.0776,-0.0475,-0.1414,0.0662,2038
2,-0.6633,-0.8401,-0.0232,-0.063,-0.1461,0.0364,2041
2,-0.6382,-0.8242,-0.0271,-0.0783,-0.1602,0.0309,2047
2,-0.6218,-0.8301,-0.03,-0.0959,-0.1372,0.0266,2041
2,-0.5933,-0.8352,-0.0486,-0.066,-0.1754,0.032,2042
2,-0.5701,-0.8398,-0.0916,-0.0703,-0.1563,0.0401,2041
2,-0.5947,-0.8296,-0.1047,-0.0629,-0.0991,0.0372,2038
2,-0.5947,-0.8213,-0.0852,-0.0638,-0.0806,0.0238,2041
2,-0.5808,-0.8025,-0.0662,-0.0662,-0.0537,0.0373,2040
2,-0.5999,-0.8054,-0.0378,-0.0839,-0.0567,0.0352,2043
2,-0.626,-0.8123,0.0078,-0.1053,-0.0798,0.0181,2044
2,-0.6245,-0.8096,-0.001,-0.1196,-0.0864,0.0128,2041
2,-0.5713,-0.8167,-0.0598,-0.0884,-0.1294,0.0458,2038
2,-0.5579,-0.8313,-0.0969,-0.0827,-0.1123,0.0543,2036
2,-0.5647,-0.8311,-0.1025,-0.0577,-0.0686,0.0595,2041
2,-0.5403,-0.8291,-0.1052,-0.0562,-0.0921,0.072,2042
2,-0.5627,-0.8032,-0.0913,-0.0554,-0.0653,0.079,2042
2,-0.6221,-0.8062,-0.0378,-0.068,-0.0642,0.0654,2042
2,-0.6316,-0.8059,-0.0149,-0.0862,-0.0635,0.0573,2041
2,-0.6074,-0.8193,-0.0229,-0.0656,-0.0736,0.0611,2048
2,-0.5691,-0.8193,-0.0349,-0.0481,-0.1292,0.0925,2041
2,-0.5493,-0.8491,-0.0742,-0.0325,-0.1165,0.0985,2042
2,-0.5674,-0.8406,-0.0916,-0.0285,-0.1445,0.1028,2042
2,-0.5754,-0.8374,-0.0833,-0.0455,-0.1218,0.0867,2042
2,-0.6147,-0.8293,-0.0464,-0.0662,-0.112,0.0656,2039
2,-0.6572,-0.8245,-0.0366,-0.077,-0.1043,0.0494,2040
2,-0.6284,-0.8132,-0.0242,-0.0878,-0.1032,0.041,2039
2,-0.5886,-0.8342,-0.0554,-0.0706,-0.122,0.0438,2042
2,-0.5291,-0.8235,-0.0981,-0.0427,-0.1397,0.0723,2040
2,-0.521,-0.8342,-0.1191,-0.0333,-0.1312,0.0776,2040
2,-0.5872,-0.8374,-0.0974,-0.0523,-0.0903,0.0633,2039
2,-0.6211,-0.8235,-0.0833,-0.0645,-0.0473,0.0426,2040
2,-0.6353,-0.8079,-0.0613,-0.0867,-0.0174,0.0144,2035
2,-0.6482,-0.8132,-0.011,-0.0867,0.0003,0.0131,2045
2,-0.5938,-0.8108,-0.0054,-0.0835,-0.0585,0.0312,2049
2,-0.5801,-0.8213,-0.0432,-0.0748,-0.0791,0.0397,2050
2,-0.6104,-0.8291,-0.0532,-0.0704,-0.0739,0.0342,2036
2,-0.6133,-0.8203,-0.0811,-0.0668,-0.055,0.0274,2046
2,-0.6235,-0.8171,-0.0786,-0.0557,-0.0346,0.0168,2039
2,-0.6182,-0.8254,-0.0601,-0.0625,-0.018,0.0072,2039
2,-0.6274,-0.8252,-0.0513,-0.0843,0.0172,-0.0056,2050
2,-0.6147,-0.8203,-0.0469,-0.0547,0.0188,-0.0093,2043
2,-0.5566,-0.822,-0.0735,-0.0156,0.0154,0.0111,2044
2,-0.5542,-0.8186,-0.0774,-0.0075,-0.0025,0.0196,2044
2,-0.6055,-0.8318,-0.0459,-0.0349,0.0121,0.0013,2039
2,-0.627,-0.824,-0.0371,-0.0431,0.0162,-0.0202,2045
2,-0.6211,-0.8127,-0.0393,-0.0423,0.0149,-0.0342,2043
3,-0.6255,-0.8232,-0.0439,-0.0634,0.0197,-0.0553,2038
3,-0.5952,-0.8313,-0.0735,-0.0257,0.0037,-0.0494,2047
3,-0.5466,-0.8401,-0.1013,-0.0016,-0.0197,-0.0395,2045
3,-0.5444,-0.8433,-0.0894,0.0079,0.0019,-0.0302,2047
3,-0.5879,-0.8279,-0.0688,-0.0009,-0.0173,-0.0318,2035
3,-0.6235,-0.8242,-0.0459,-0.017,0.0016,-0.0345,2039
3,-0.6331,-0.8164,-0.0398,-0.0253,0.0365,-0.0519,2041
3,-0.6265,-0.8098,-0.0449,-0.0115,0.0136,-0.0559,2032
3,-0.5667,-0.821,-0.0759,0.0097,0.0194,-0.0425,2043
3,-0.561,-0.8259,-0.0806,0.0084,-0.0059,-0.0366,2038
3,-0.5593,-0.8225,-0.0894,0.0096,-0.0182,-0.0289,2039
3,-0.5806,-0.814,-0.064,-0.0083,-0.0597,-0.0226,2040
3,-0.6133,-0.8062,-0.0652,-0.029,-0.0252,-0.0202,2040
3,-0.6213,-0.821,-0.0527,-0.0197,-0.03,-0.0344,2043
3,-0.5959,-0.8264,-0.0608,-0.0174,-0.034,-0.0282,2045
3,-0.5645,-0.8186,-0.0776,-0.0095,-0.0017,-0.0161,2044
3,-0.5701,-0.8267,-0.094,-0.0101,-0.0317,-0.0009,2039
3,-0.5801,-0.8389,-0.0999,-0.0282,0.0136,-0.0065,2038
3,-0.5991,-0.8254,-0.0706,-0.0254,0.019,-0.014,2039
3,-0.6057,-0.8069,-0.073,-0.0487,0.0316,-0.0197,2035
3,-0.6152,-0.8049,-0.0557,-0.0603,0.0539,-0.0245,2041
3,-0.592,-0.8218,-0.0422,-0.0286,0.0221,-0.0138,2040
3,-0.5432,-0.8198,-0.0603,-0.0403,0.0202,0.0031,2042
3,-0.5308,-0.843,-0.05,-0.0111,-0.0083,0.0236,2044
3,-0.5469,-0.8298,-0.0488,-0.0217,-0.0083,0.034,2041
3,-0.5793,-0.8401,-0.0784,-0.0091,0.02,0.0313,2043
3,-0.6069,-0.8232,-0.0554,-0.0225,-0.0103,0.0262,2045
3,-0.6235,-0.821,-0.0684,-0.0465,0.0119,0.0077,2040
3,-0.6514,-0.8213,-0.0286,-0.0458,0.0052,-0.0127,2038
3,-0.5735,-0.8135,-0.0522,-0.0192,-0.0497,-0.002,2047
3,-0.5139,-0.8174,-0.0874,0.0027,-0.1237,0.0364,2041
3,-0.5205,-0.845,-0.0776,0.0043,-0.088,0.0518,2039
3,-0.5583,-0.8535,-0.0657,-0.0104,-0.0746,0.0435,2040
3,-0.5667,-0.8364,-0.064,-0.0249,-0.0393,0.0403,2041
3,-0.6035,-0.8484,-0.0569,-0.0406,-0.0003,0.0257,2043
3,-0.5896,-0.8354,-0.0679,-0.0238,-0.0071,0.0232,2041
3,-0.5623,-0.8491,-0.0706,-0.0165,-0.0089,0.0222,2045
3,-0.55,-0.8438,-0.0837,0.004,-0.0051,0.0236,2041
3,-0.5308,-0.8372,-0.0801,0.008,-0.041,0.0272,2045
3,-0.5652,-0.8386,-0.0818,0.0024,-0.0378,0.0293,2039
3,-0.603,-0.8384,-0.0449,-0.018,-0.0245,0.0055,2043
3,-0.6316,-0.8301,-0.0198,-0.0357,-0.0043,-0.0258,2041
3,-0.6233,-0.8293,-0.0178,-0.0399,0.0107,-0.045,2041
3,-0.5498,-0.843,-0.0498,-0.0108,-0.0293,-0.0352,2047
3,-0.5061,-0.8345,-0.0925,0.0184,-0.0655,0.0052,2042
3,-0.5312,-0.8484,-0.106,0.0125,-0.0748,0.0103,2043
3,-0.5759,-0.842,-0.0999,0.0073,-0.0614,-0.0016,2034
3,-0.5913,-0.8276,-0.0845,-0.0053,-0.0545,-0.0162,2042
3,-0.6023,-0.8223,-0.0769,-0.017,-0.0174,-0.0401,2043
3,-0.5959,-0.7922,-0.0483,-0.0083,-0.0273,-0.063,2041
3,-0.5239,-0.7717,-0.0356,-0.0266,-0.0607,-0.1305,2038
3,-0.4353,-0.7815,-0.0542,0.0072,-0.1357,-0.1324,2043
3,-0.4707,-0.8218,-0.0303,0.0209,-0.1971,-0.0621,2039
3,-0.4697,-0.8772,-0.0718,0.0205,-0.1918,-0.036,2042
3,-0.5522,-0.7451,-0.1052,-0.0457,-0.38,-0.1103,2034
3,-0.5354,-0.8296,-0.0867,0.0397,-0.0747,-0.0983,2046
3,-0.5649,-0.7336,-0.1055,0.0184,-0.0635,-0.1011,2035
3,-0.5286,-0.7161,-0.1013,0.0346,-0.1139,-0.1392,2040
3,-0.5164,-0.7551,-0.072,0.0607,-0.1796,-0.1471,2047
3,-0.6211,-0.8677,-0.0042,0.0326,-0.0906,-0.0894,2047
3,-0.656,-0.907,-0.0344,-0.0214,0.0129,-0.0921,2038
3,-0.7151,-0.8894,-0.0642,-0.0337,0.1029,-0.1175,2046
3,-0.6353,-0.9111,-0.0359,-0.1197,0.1389,-0.2111,2051
3,-0.6006,-0.8062,-0.0408,-0.1312,0.1439,-0.2546,2032
3,-0.47,-0.8232,-0.0923,-0.1004,0.02,-0.2537,2047
3,-0.428,-0.7717,-0.0806,-0.0618,-0.0541,-0.2156,2038
3,-0.4368,-0.7881,-0.0469,-0.1041,-0.0751,-0.2401,2040
3,-0.5027,-0.8291,0.0117,-0.0598,-0.0422,-0.1878,2040
3,-0.5818,-0.9058,-0.0161,-0.1413,0.038,-0.1198,2046
3,-0.6104,-0.8345,-0.1045,-0.1076,-0.0284,-0.1099,2054
3,-0.5791,-0.8623,-0.0425,-0.1377,-0.0209,-0.0919,2040
3,-0.6638,-0.8892,0.0415,-0.2902,0.1071,0.0043,2047
3,-0.7603,-0.8611,-0.0217,-0.2828,0.0856,0.0265,2037
3,-0.7419,-0.8984,-0.0149,-0.171,0.098,0.016,2045
3,-0.7642,-0.9658,0.0115,-0.181,0.2713,0.0483,2047
3,-0.7637,-0.9346,-0.0547,-0.2228,0.3301,-0.0154,2038
3,-0.6199,-0.8459,-0.124,-0.179,0.1975,-0.1104,2039
3,-0.5137,-0.8428,-0.1365,-0.0835,0.1899,-0.0949,2040
3,-0.533,-0.8425,-0.1526,-0.061,0.0362,-0.0399,2040
3,-0.522,-0.8372,-0.1919,-0.0462,-0.1438,-0.0486,2040
3,-0.5007,-0.8389,-0.1738,-0.0422,-0.1898,-0.0394,2035
3,-0.5056,-0.8726,-0.1343,-0.1039,-0.1113,-0.0264,2039
3,-0.5161,-0.8728,-0.0786,-0.1258,-0.0405,-0.0393,2038
3,-0.4861,-0.8809,-0.0767,-0.1109,0.0165,-0.0743,2041
3,-0.4519,-0.8623,-0.1045,-0.0633,0.0162,-0.0437,2038
3,-0.4556,-0.8481,-0.1052,-0.0655,-0.0177,-0.0079,2040
3,-0.5105,-0.8582,-0.0967,-0.0808,0.0213,0.0008,2037
3,-0.5557,-0.8506,-0.0906,-0.0458,-0.0068,0.0045,2040
3,-0.5549,-0.8325,-0.0769,-0.0446,-0.0687,-0.0072,2041
3,-0.5618,-0.8484,-0.0474,-0.0478,-0.0583,-0.0109,2038
3,-0.5933,-0.8638,-0.0337,-0.0475,-0.0535,-0.0202,2039
3,-0.5981,-0.8728,-0.0298,-0.0514,-0.0525,-0.0304,2042
3,-0.5625,-0.856,-0.0581,-0.0037,-0.0649,-0.0162,2040
3,-0.5574,-0.8345,-0.093,-0.0071,-0.1196,-0.0004,2043
3,-0.5486,-0.842,-0.1018,-0.0057,-0.145,0.0115,2041
3,-0.5547,-0.8303,-0.0957,-0.0048,-0.1491,0.0124,2043
3,-0.5515,-0.8396,-0.061,-0.0229,-0.1338,0.0003,2042
3,-0.5479,-0.8599,-0.0627,-0.0465,-0.0927,-0.0133,2043
3,-0.5442,-0.865,-0.0681,-0.0506,-0.0623,-0.0316,2039
3,-0.4966,-0.8857,-0.1179,-0.0059,-0.1005,-0.0063,2043
3,-0.4944,-0.8616,-0.1602,0.0369,-0.1621,0.0111,2045
3,-0.5029,-0.856,-0.1707,0.0225,-0.1958,0.0313,2037
3,-0.5562,-0.8394,-0.1155,0.0149,-0.2368,0.0312,2042
4,-0.5652,-0.8455,-0.0476,-0.023,-0.2157,0.0025,2048
4,-0.5808,-0.8657,-0.0088,-0.0633,-0.1135,-0.0237,2040
4,-0.5601,-0.8857,-0.01,-0.0844,-0.0514,-0.0517,2042
4,-0.5269,-0.8799,-0.0562,-0.0794,-0.0539,-0.0526,2045
4,-0.5159,-0.8669,-0.1477,-0.0607,-0.0774,-0.0249,2039
4,-0.5344,-0.8486,-0.1726,-0.0269,-0.1377,-0.0051,2043
4,-0.5449,-0.8354,-0.1726,-0.0088,-0.1886,-0.0024,2038
4,-0.5403,-0.8374,-0.1238,-0.0053,-0.1418,-0.0047,2042
4,-0.553,-0.8647,-0.095,-0.0312,-0.0574,-0.0071,2040
4,-0.5457,-0.8616,-0.0544,-0.0475,-0.0075,-0.0186,2042
4,-0.5535,-0.8638,-0.0322,-0.0655,0.0063,-0.0276,2042
4,-0.5557,-0.8584,-0.0562,-0.0575,-0.02,-0.0176,2046
4,-0.5398,-0.845,-0.0913,-0.0273,-0.1039,0.0025,2039
4,-0.5229,-0.845,-0.1028,-0.0289,-0.1478,-0.0004,2045
4,-0.5281,-0.8408,-0.1108,-0.023,-0.0979,0.0008,2043
4,-0.5437,-0.8477,-0.1016,-0.019,-0.0814,-0.0021,2039
4,-0.5308,-0.8604,-0.0793,-0.0326,-0.0594,-0.0072,2043
4,-0.5298,-0.8647,-0.0725,-0.0397,-0.0292,-0.0025,2040
4,-0.5442,-0.8687,-0.0608,-0.0474,-0.0174,-0.0019,2043
4,-0.5366,-0.8582,-0.0857,-0.0324,-0.051,0.0085,2041
4,-0.5461,-0.8669,-0.1021,-0.0292,-0.0795,0.0056,2043
4,-0.5454,-0.8557,-0.1287,-0.0196,-0.0826,0.0112,2036
4,-0.5618,-0.8396,-0.1206,-0.0109,-0.1028,-0.0001,2037
4,-0.5413,-0.8486,-0.113,-0.015,-0.0925,-0.0079,2041
4,-0.5405,-0.8728,-0.0647,-0.0406,-0.0477,-0.0164,2040
4,-0.5444,-0.8772,-0.0444,-0.07,-0.0184,-0.0272,2044
4,-0.5518,-0.8765,-0.0383,-0.066,-0.0229,-0.03,2040
4,-0.5271,-0.8577,-0.0869,-0.0216,-0.1048,-0.0089,2040
4,-0.5212,-0.8362,-0.1077,-0.035,-0.1521,0.0017,2036
4,-0.5386,-0.8462,-0.1077,-0.0316,-0.1115,0.0069,2042
4,-0.5503,-0.8452,-0.0935,-0.0268,-0.1016,0.0023,2042
4,-0.5342,-0.8523,-0.0708,-0.047,-0.0642,-0.0064,2039
4,-0.5244,-0.863,-0.0542,-0.0605,0.0125,-0.0079,2045
4,-0.5364,-0.8503,-0.0408,-0.0678,0.0087,-0.0032,2045
4,-0.5422,-0.8555,-0.0728,-0.0662,-0.0201,-0.0003,2037
4,-0.531,-0.8633,-0.1279,-0.0185,-0.0549,0.0109,2041
4,-0.5479,-0.8477,-0.1399,-0.0216,-0.1023,0.0161,2035
4,-0.5525,-0.8628,-0.135,-0.0277,-0.0894,-0.0044,2036
4,-0.5564,-0.8564,-0.103,-0.0206,-0.0497,-0.0035,2038
4,-0.5342,-0.8557,-0.0874,-0.034,-0.0629,-0.0073,2038
4,-0.5269,-0.8713,-0.0598,-0.0485,-0.0322,-0.0153,2041
4,-0.5269,-0.8682,-0.0608,-0.0527,-0.0293,-0.0092,2045
4,-0.5349,-0.8657,-0.0723,-0.0649,-0.0494,-0.0043,2041
4,-0.552,-0.865,-0.1042,-0.0457,-0.0406,-0.0025,2044
4,-0.5476,-0.8569,-0.1199,-0.0153,-0.084,-0.0056,2041
4,-0.5364,-0.8496,-0.1414,0.0016,-0.1381,-0.0067,2042
4,-0.5278,-0.8528,-0.0972,-0.014,-0.1051,-0.0165,2039
4,-0.5278,-0.8711,-0.0635,-0.0342,-0.031,-0.0224,2042
4,-0.5325,-0.8728,-0.0298,-0.0606,-0.0037,-0.026,2036
4,-0.5337,-0.8716,-0.0239,-0.074,-0.0063,-0.0314,2043
4,-0.5293,-0.8669,-0.0525,-0.0541,-0.0397,-0.023,2043
4,-0.5251,-0.8506,-0.1062,-0.0369,-0.0972,-0.0031,2042
4,-0.5325,-0.843,-0.1299,-0.035,-0.106,-0.0068,2038
4,-0.5393,-0.843,-0.113,-0.0132,-0.0802,-0.0061,2039
4,-0.5239,-0.8442,-0.103,-0.0015,-0.0791,-0.0076,2040
4,-0.5142,-0.8594,-0.1045,-0.0144,-0.0691,-0.0053,2041
4,-0.5156,-0.8689,-0.0715,-0.0228,-0.0364,-0.0048,2042
4,-0.5354,-0.8669,-0.0469,-0.0461,-0.0128,0.0011,2044
4,-0.5449,-0.8616,-0.0471,-0.0574,-0.0228,-0.004,2036
4,-0.5444,-0.8606,-0.0889,-0.047,-0.0377,-0.0057,2041
4,-0.5359,-0.8403,-0.1165,-0.0168,-0.0822,0.0081,2046
4,-0.5312,-0.8481,-0.1406,-0.0237,-0.0976,0.0089,2042
4,-0.5339,-0.8669,-0.1069,0.0013,-0.0662,0.0121,2040
4,-0.5171,-0.8713,-0.0779,-0.0349,-0.0435,0.0083,2041
4,-0.5125,-0.8691,-0.0613,-0.0565,0.0056,0.0149,2043
4,-0.5452,-0.8699,-0.043,-0.0634,0.0075,0.0113,2039
4,-0.5459,-0.8669,-0.0549,-0.0663,-0.0055,0.0117,2042
4,-0.5474,-0.8638,-0.0837,-0.0664,-0.0262,0.0064,2047
4,-0.5356,-0.8599,-0.1304,-0.0372,-0.0483,0.0093,2039
4,-0.5269,-0.8506,-0.1355,-0.0433,-0.0751,0.0023,2044
4,-0.5186,-0.8557,-0.1372,-0.0377,-0.0493,0.0035,2037
4,-0.5286,-0.8572,-0.0999,-0.032,-0.0308,-0.0041,2039
4,-0.5217,-0.8606,-0.0764,-0.0461,-0.0092,-0.0031,2041
4,-0.52,-0.8647,-0.0454,-0.0501,0.0073,-0.0047,2038
4,-0.5298,-0.8799,-0.0344,-0.0543,-0.0004,-0.0048,2043
4,-0.5254,-0.8689,-0.0535,-0.0353,-0.0152,-0.0011,2043
4,-0.5315,-0.8694,-0.0818,-0.0189,-0.0202,0.0089,2043
4,-0.5447,-0.844,-0.0876,-0.0077,-0.0306,0.0097,2037
4,-0.5471,-0.8435,-0.082,0.0138,-0.0726,0.0049,2043
4,-0.5388,-0.845,-0.0754,0.0105,-0.0551,0.0031,2039
4,-0.5342,-0.864,-0.073,0.0093,-0.018,0.0007,2037
4,-0.5461,-0.873,-0.0718,0.0097,-0.0013,-0.0072,2038
4,-0.5225,-0.8706,-0.0901,0.0356,-0.0361,-0.0137,2041
4,-0.491,-0.8672,-0.104,0.0336,-0.0605,-0.0148,2041
4,-0.501,-0.8662,-0.1125,0.0397,-0.0198,-0.0008,2044
4,-0.5283,-0.8696,-0.0972,0.021,0.0338,-0.0136,2038
4,-0.5361,-0.8853,-0.0867,0.0341,0.0727,-0.0193,2040
4,-0.5513,-0.8621,-0.0669,0.0209,0.0671,-0.0289,2043
4,-0.5369,-0.8701,-0.0627,0.014,0.0442,-0.0293,2037
4,-0.531,-0.864,-0.0623,0.0467,0.0028,-0.0142,2039
4,-0.5261,-0.8657,-0.0571,0.0237,-0.0205,-0.0134,2042
4,-0.5125,-0.8604,-0.0723,0.0352,0.0047,-0.0169,2043
4,-0.5002,-0.8682,-0.0591,0.0493,-0.0415,-0.0035,2039
4,-0.4934,-0.8704,-0.063,-0.0012,-0.0101,0.0053,2041
4,-0.5388,-0.8679,-0.0793,-0.0083,0.049,0.0182,2038
4,-0.5586,-0.856,-0.0935,-0.0017,0.0362,0.0041,2035
4,-0.5007,-0.8477,-0.1479,0.038,-0.0023,0.0208,2044
4,-0.4924,-0.8542,-0.1602,0.0376,0.0056,0.0366,2042
4,-0.5117,-0.8696,-0.1401,0.0262,0.0473,0.0392,2038
4,-0.5408,-0.8606,-0.1111,0.0248,0.0462,0.0373,2040
4,-0.5259,-0.8694,-0.0818,-0.0003,0.0502,0.0389,2045
4,-0.5291,-0.8645,-0.0649,-0.0144,0.0366,0.0419,2038
4,-0.5312,-0.8647,-0.053,-0.0189,0.015,0.0385,2039
5,-0.5361,-0.8699,-0.0503,-0.0362,0.0128,0.033,2044
5,-0.5298,-0.873,-0.0603,-0.0485,0.0518,0.0276,2044
5,-0.5168,-0.8696,-0.0911,0.0003,0.0197,0.035,2033
5,-0.4866,-0.8645,-0.1155,0.0013,-0.0282,0.0415,2039
5,-0.4836,-0.876,-0.126,0.0117,0.0036,0.0527,2039
5,-0.5227,-0.8711,-0.0728,0.0055,0.0256,0.0446,2044
5,-0.5298,-0.8767,-0.0474,-0.0169,0.0466,0.0403,2042
5,-0.5374,-0.8748,-0.0234,-0.0298,0.0461,0.033,2042
5,-0.5488,-0.8721,-0.0125,-0.0459,0.0385,0.0261,2049
5,-0.5461,-0.8652,-0.0396,-0.0362,-0.0019,0.0232,2046
5,-0.5378,-0.8665,-0.0806,-0.012,-0.0422,0.0325,2041
5,-0.5093,-0.8691,-0.1094,-0.0093,-0.0566,0.0285,2043
5,-0.5256,-0.8594,-0.1069,0.0056,-0.0208,0.0321,2042
5,-0.5376,-0.863,-0.0972,0.0099,-0.0445,0.0181,2045
5,-0.5168,-0.8672,-0.0876,0.0124,-0.0374,0.0148,2046
5,-0.5078,-0.8682,-0.0681,0.0337,-0.024,0.0244,2040
5,-0.51,-0.8755,-0.0745,0.0312,-0.0376,0.0329,2038
5,-0.5281,-0.8872,-0.072,0.0157,-0.01,0.0365,2042
5,-0.5735,-0.8862,-0.0596,-0.0035,0.0024,0.0281,2045
5,-0.5752,-0.8677,-0.0686,-0.0233,-0.0193,0.0148,2044
5,-0.5317,-0.8557,-0.1206,0.0196,-0.0625,0.0123,2038
5,-0.5098,-0.8457,-0.1318,0.0317,-0.0963,0.0172,2047
5,-0.4885,-0.8662,-0.1243,0.0182,-0.0182,0.022,2044
5,-0.5093,-0.8691,-0.0947,0.0252,0.0127,0.0233,2037
5,-0.4993,-0.8716,-0.0837,0.0113,0.0048,0.0192,2043
5,-0.5054,-0.873,-0.0581,0.0061,0.0248,0.031,2045
5,-0.5195,-0.876,-0.051,0.0079,0.0479,0.0324,2041
5,-0.5115,-0.875,-0.0745,0.0153,0.0318,0.0312,2039
5,-0.5015,-0.8638,-0.0957,0.0234,0.0087,0.0384,2047
5,-0.5049,-0.8674,-0.106,0.0089,0.0249,0.0313,2043
5,-0.5286,-0.8596,-0.0947,0.01,0.0304,0.0276,2041
5,-0.5483,-0.8513,-0.092,0.0016,0.0093,0.0184,2040
5,-0.5334,-0.8721,-0.0767,-0.0031,0.0218,0.0109,2042
5,-0.5334,-0.875,-0.064,0.0013,0.0218,0.0041,2038
5,-0.5154,-0.8806,-0.0818,0.0039,0.0047,0.0064,2044
5,-0.5051,-0.8799,-0.1011,0.0053,-0.0031,0.0127,2041
5,-0.5232,-0.8638,-0.0891,-0.008,0.0182,0.0117,2042
5,-0.5183,-0.8672,-0.072,0.002,0.0328,0.0107,2040
5,-0.5303,-0.844,-0.1035,0.0037,0.0116,0.0137,2042
5,-0.5295,-0.8657,-0.1038,-0.0025,0.0232,0.0128,2044
5,-0.532,-0.8784,-0.0781,0.0072,0.0276,0.0119,2039
5,-0.5183,-0.8777,-0.0789,0.0182,0.0285,0.014,2042
5,-0.5159,-0.8772,-0.0664,0.0009,0.0184,0.0214,2040
5,-0.5281,-0.8708,-0.0627,-0.0079,0.0176,0.0216,2037
5,-0.552,-0.8625,-0.0613,0.0003,-0.0208,0.0182,2042
5,-0.5325,-0.8572,-0.0769,-0.0089,-0.0245,0.0176,2040
5,-0.5374,-0.8428,-0.0754,-0.0059,-0.0158,0.0184,2043
5,-0.5288,-0.8494,-0.0708,-0.0048,-0.0338,0.0166,2043
5,-0.5251,-0.8503,-0.0835,-0.0017,-0.0459,0.0204,2041
5,-0.5278,-0.8657,-0.0745,-0.0075,-0.0141,0.0248,2037
5,-0.5247,-0.8628,-0.0671,0.014,-0.03,0.0314,2041
5,-0.5125,-0.864,-0.0757,0.0051,-0.0465,0.0289,2042
5,-0.5222,-0.8713,-0.0828,-0.0008,-0.0258,0.0332,2039
5,-0.5493,-0.8706,-0.0457,-0.0116,-0.0269,0.0292,2044
5,-0.5442,-0.863,-0.042,-0.0369,-0.0361,0.0198,2046
5,-0.5505,-0.8611,-0.0437,-0.0526,-0.0313,0.0088,2038
5,-0.5347,-0.8599,-0.0654,-0.0312,-0.0642,0.008,2043
5,-0.5105,-0.8704,-0.0845,-0.0252,-0.1244,0.0012,2042
5,-0.5061,-0.8689,-0.1179,-0.0374,-0.0864,0.012,2044
5,-0.5359,-0.8718,-0.103,-0.0313,-0.0585,0.0149,2041
5,-0.5095,-0.8728,-0.1143,-0.0256,-0.0551,0.0131,2037
5,-0.5056,-0.8748,-0.1011,-0.0306,-0.0573,0.0141,2042
5,-0.5068,-0.8726,-0.0686,-0.0527,-0.0193,0.0201,2043
5,-0.5364,-0.863,-0.0623,-0.0493,-0.0236,0.0272,2040
5,-0.5261,-0.8545,-0.0833,-0.0409,-0.0401,0.0289,2040
5,-0.5166,-0.8403,-0.1082,-0.0253,-0.0551,0.0316,2047
5,-0.5081,-0.845,-0.1118,-0.0045,-0.0625,0.039,2044
5,-0.5024,-0.8828,-0.0942,-0.0142,-0.0518,0.0399,2040
5,-0.5254,-0.8704,-0.0693,-0.0234,-0.0244,0.0378,2038
5,-0.5308,-0.8718,-0.042,-0.0451,-0.0316,0.0345,2043
5,-0.5444,-0.8662,-0.0452,-0.0598,-0.036,0.0309,2039
5,-0.5466,-0.8721,-0.0591,-0.0534,-0.051,0.0269,2040
5,-0.5166,-0.8672,-0.1069,-0.0264,-0.0912,0.0249,2045
5,-0.5066,-0.8599,-0.1277,-0.0301,-0.0915,0.0314,2044
5,-0.5088,-0.8633,-0.1179,-0.0113,-0.0618,0.0415,2045
5,-0.5276,-0.863,-0.0876,-0.0146,-0.0683,0.0361,2042
5,-0.5239,-0.8745,-0.075,-0.0368,-0.0322,0.0364,2042
5,-0.5503,-0.8669,-0.0461,-0.0429,-0.0252,0.0312,2044
5,-0.5459,-0.8694,-0.0386,-0.0582,-0.0449,0.0261,2043
5,-0.5378,-0.8647,-0.0623,-0.0485,-0.0654,0.0246,2044
5,-0.5217,-0.8635,-0.0945,-0.0384,-0.0917,0.0329,2039
5,-0.52,-0.8691,-0.1323,-0.0389,-0.0786,0.0332,2043
5,-0.5161,-0.8564,-0.1348,-0.0112,-0.0647,0.0345,2042
5,-0.5156,-0.8662,-0.1072,-0.0041,-0.0656,0.035,2041
5,-0.5161,-0.8687,-0.0894,-0.018,-0.0563,0.0418,2041
5,-0.5259,-0.874,-0.0605,-0.0338,-0.0419,0.0374,2041
5,-0.5425,-0.8782,-0.0439,-0.0483,-0.0403,0.0333,2044
5,-0.5415,-0.8621,-0.0474,-0.0591,-0.0483,0.0262,2041
5,-0.5356,-0.8633,-0.0833,-0.0511,-0.0559,0.0305,2040
5,-0.5281,-0.8535,-0.1221,-0.0374,-0.0646,0.035,2041
5,-0.5134,-0.8594,-0.1265,-0.0252,-0.0579,0.0334,2037
5,-0.5134,-0.8647,-0.106,-0.0112,-0.0607,0.0366,2045
5,-0.5156,-0.866,-0.0747,-0.0229,-0.0623,0.0369,2039
5,-0.5232,-0.8689,-0.0498,-0.0399,-0.0344,0.0401,2045
5,-0.55,-0.8689,-0.0408,-0.0499,-0.0389,0.0381,2039
5,-0.5483,-0.8621,-0.0518,-0.0603,-0.0389,0.0333,2038
5,-0.5625,-0.8645,-0.0762,-0.0698,-0.0406,0.027,2039
5,-0.5669,-0.8596,-0.103,-0.0407,-0.0442,0.0236,2041
5,-0.5144,-0.8647,-0.1196,-0.0256,-0.1093,0.016,2042
5,-0.5029,-0.8806,-0.1206,-0.0308,-0.0752,0.0278,2040
5,-0.5232,-0.8706,-0.0928,-0.0246,-0.0411,0.0321,2040
5,-0.5256,-0.8645,-0.0725,-0.0426,-0.0434,0.0285,2043
6,-0.531,-0.8621,-0.0574,-0.0482,-0.0333,0.0302,2040
6,-0.5254,-0.8596,-0.061,-0.0386,-0.0462,0.032,2042
6,-0.5308,-0.8569,-0.0854,-0.0385,-0.0631,0.0341,2042
6,-0.5422,-0.865,-0.0928,-0.0487,-0.0402,0.034,2039
6,-0.5349,-0.8684,-0.1089,-0.0365,-0.0314,0.0345,2040
6,-0.5249,-0.8691,-0.0999,-0.0314,-0.0482,0.0302,2041
6,-0.5098,-0.8679,-0.0989,-0.0427,-0.0257,0.0326,2042
6,-0.5315,-0.8577,-0.0815,-0.0447,-0.0178,0.0338,2042
6,-0.531,-0.8599,-0.053,-0.0505,-0.0318,0.0322,2039
6,-0.5347,-0.8611,-0.0642,-0.0521,-0.0473,0.0318,2043
6,-0.5383,-0.863,-0.0691,-0.0407,-0.059,0.0324,2044
6,-0.5327,-0.864,-0.0891,-0.045,-0.0519,0.0328,2040
6,-0.5325,-0.8577,-0.0959,-0.032,-0.0514,0.0373,2041
6,-0.5356,-0.8638,-0.0854,-0.0461,-0.0529,0.0284,2040
6,-0.5286,-0.8774,-0.0874,-0.0543,-0.0294,0.0308,2040
6,-0.5366,-0.8606,-0.0798,-0.0465,-0.0519,0.03,2040
6,-0.5183,-0.8518,-0.0903,-0.0426,-0.065,0.0296,2042
6,-0.53,-0.8552,-0.0806,-0.041,-0.0696,0.0382,2041
6,-0.541,-0.8616,-0.0859,-0.0485,-0.0569,0.0324,2040
6,-0.5378,-0.8623,-0.0862,-0.041,-0.0549,0.0325,2043
6,-0.5293,-0.8552,-0.0881,-0.0462,-0.0495,0.0364,2038
6,-0.5249,-0.8625,-0.1016,-0.0485,-0.035,0.0425,2040
6,-0.5371,-0.8684,-0.0894,-0.067,-0.0334,0.0394,2040
6,-0.5413,-0.8604,-0.0745,-0.0694,-0.0309,0.0373,2036
6,-0.5364,-0.8479,-0.0847,-0.0651,-0.0563,0.0414,2048
6,-0.5183,-0.8545,-0.1084,-0.0633,-0.0623,0.0392,2040
6,-0.5308,-0.8511,-0.0967,-0.0405,-0.0458,0.0481,2042
6,-0.5403,-0.8516,-0.0933,-0.0443,-0.043,0.0431,2039
6,-0.5193,-0.8669,-0.1052,-0.0385,-0.0358,0.0498,2045
6,-0.5305,-0.8545,-0.0898,-0.0461,-0.0414,0.0474,2039
6,-0.5449,-0.866,-0.0681,-0.0808,-0.0273,0.0502,2038
6,-0.5667,-0.8433,-0.0569,-0.0836,-0.0285,0.0493,2040
6,-0.5461,-0.8479,-0.061,-0.0763,-0.0514,0.0494,2039
6,-0.5317,-0.8589,-0.1006,-0.0659,-0.0625,0.0569,2043
6,-0.5249,-0.8679,-0.1304,-0.0506,-0.0583,0.0609,2043
6,-0.5271,-0.8735,-0.1135,-0.039,-0.041,0.0647,2043
6,-0.5239,-0.8689,-0.1106,-0.0517,-0.0109,0.0684,2045
6,-0.5364,-0.8528,-0.0999,-0.0364,-0.0068,0.0704,2038
6,-0.5391,-0.8579,-0.075,-0.0543,-0.0218,0.0615,2040
6,-0.5576,-0.8535,-0.0532,-0.0635,-0.0221,0.0545,2037
6,-0.5581,-0.8591,-0.0437,-0.0756,-0.0398,0.0465,2039
6,-0.5476,-0.8652,-0.0598,-0.0804,-0.0423,0.0406,2044
6,-0.5159,-0.8652,-0.0999,-0.0575,-0.0602,0.0466,2041
6,-0.5017,-0.8591,-0.1199,-0.0238,-0.0818,0.0589,2042
6,-0.4961,-0.8643,-0.1414,-0.0316,-0.0257,0.0687,2039
6,-0.5376,-0.8474,-0.1199,-0.016,-0.0007,0.0751,2036
6,-0.5269,-0.8718,-0.0996,-0.0356,-0.006,0.0627,2043
6,-0.5676,-0.8354,-0.0693,-0.0571,0.015,0.0535,2040
6,-0.5696,-0.8726,-0.0413,-0.0619,0.0204,0.0498,2041
6,-0.5759,-0.8552,-0.0566,-0.071,-0.036,0.0373,2045
6,-0.5474,-0.8582,-0.0645,-0.0663,-0.0625,0.0401,2045
6,-0.5344,-0.854,-0.0981,-0.0566,-0.0533,0.0465,2040
6,-0.5264,-0.8547,-0.1272,-0.0352,-0.0591,0.0495,2041
6,-0.5205,-0.8533,-0.1323,-0.0174,-0.0567,0.0503,2042
6,-0.5159,-0.8564,-0.1062,-0.0117,-0.0208,0.0597,2043
6,-0.5349,-0.863,-0.0886,-0.0186,-0.0116,0.0554,2040
6,-0.5593,-0.8601,-0.0598,-0.0417,-0.0023,0.0489,2042
6,-0.5793,-0.8689,-0.0349,-0.0569,-0.0194,0.0392,2044
6,-0.5737,-0.8691,-0.0439,-0.0618,-0.0348,0.0314,2040
6,-0.5574,-0.865,-0.0933,-0.0563,-0.0577,0.0258,2043
6,-0.5491,-0.855,-0.1379,-0.0466,-0.0583,0.0254,2040
6,-0.5464,-0.8572,-0.1396,-0.0401,-0.0498,0.0257,2041
6,-0.5349,-0.8408,-0.1448,-0.0401,-0.0475,0.0146,2046
6,-0.5381,-0.8494,-0.1191,-0.0358,-0.0455,0.0137,2043
6,-0.5337,-0.8613,-0.0911,-0.0521,-0.0385,0.0142,2040
6,-0.5486,-0.8672,-0.0679,-0.0602,-0.0208,0.019,2041
6,-0.5461,-0.8604,-0.0698,-0.0626,-0.0252,0.012,2036
6,-0.5483,-0.8589,-0.1096,-0.0415,-0.0301,0.023,2042
6,-0.5552,-0.843,-0.1167,-0.0541,-0.0373,0.0226,2045
6,-0.5493,-0.8372,-0.1296,-0.0417,-0.032,0.0127,2041
6,-0.5571,-0.8484,-0.1069,-0.0312,-0.025,0.0113,2037
6,-0.5557,-0.8328,-0.0986,-0.0429,-0.0393,0.0107,2038
6,-0.5564,-0.8557,-0.0862,-0.0376,-0.0499,0.0053,2045
6,-0.5681,-0.8643,-0.0542,-0.035,-0.0491,0.0039,2041
6,-0.5667,-0.863,-0.0425,-0.0553,-0.0545,-0.0047,2040
6,-0.5447,-0.8538,-0.0652,-0.0631,-0.0394,-0.012,2044
6,-0.5491,-0.8413,-0.0974,-0.0385,-0.0407,-0.0173,2041
6,-0.5273,-0.8557,-0.156,-0.033,-0.061,-0.0044,2040
6,-0.5215,-0.8472,-0.1445,-0.0229,-0.0344,0.0031,2040
6,-0.5364,-0.843,-0.1289,-0.0254,-0.0353,-0.0017,2039
6,-0.5464,-0.8445,-0.1101,-0.0426,-0.0418,-0.0081,2041
6,-0.5581,-0.8591,-0.075,-0.0578,-0.032,-0.0157,2037
6,-0.5671,-0.8457,-0.0598,-0.0639,-0.0334,-0.03,2043
6,-0.5503,-0.8472,-0.0784,-0.0555,-0.0559,-0.0242,2039
6,-0.5337,-0.8362,-0.1162,-0.0341,-0.069,-0.0132,2041
6,-0.5408,-0.8306,-0.1245,-0.0378,-0.0474,-0.0052,2040
6,-0.5491,-0.8386,-0.1355,-0.0209,-0.0475,-0.0013,2039
6,-0.5439,-0.8423,-0.1265,-0.0162,-0.0478,-0.0073,2043
6,-0.5374,-0.8552,-0.1025,-0.0292,-0.0301,-0.0024,2041
6,-0.5574,-0.865,-0.0679,-0.0449,-0.0284,-0.0119,2042
6,-0.5645,-0.8552,-0.0627,-0.0615,-0.0209,-0.0169,2038
6,-0.5632,-0.8413,-0.0857,-0.0511,-0.0433,-0.0184,2043
6,-0.5513,-0.8291,-0.1135,-0.0253,-0.0866,-0.0095,2042
6,-0.5498,-0.8416,-0.1299,-0.0246,-0.0762,-0.0142,2040
6,-0.5579,-0.8462,-0.1299,-0.0146,-0.0567,-0.0158,2041
6,-0.5486,-0.8511,-0.1018,-0.0214,-0.0659,-0.0186,2040
6,-0.5427,-0.8601,-0.0852,-0.0324,-0.0587,-0.0261,2037
6,-0.542,-0.8542,-0.0508,-0.0535,-0.0342,-0.0282,2042
6,-0.554,-0.8518,-0.0688,-0.0483,-0.0439,-0.0338,2041
6,-0.561,-0.8625,-0.0879,-0.0395,-0.0643,-0.0317,2043
6,-0.5496,-0.8506,-0.1326,-0.0439,-0.0645,-0.0264,2044
6,-0.5422,-0.8337,-0.1421,0.0029,-0.0859,-0.0222,2039
6,-0.521,-0.8308,-0.1372,0.0063,-0.0898,-0.0268,2041
7,-0.5303,-0.8367,-0.1355,0.0107,-0.0478,-0.0248,2040
7,-0.5471,-0.8528,-0.0964,0.0083,-0.032,-0.0372,2038
7,-0.5488,-0.8638,-0.0737,-0.0099,-0.0418,-0.0423,2043
7,-0.5562,-0.8635,-0.0757,-0.0338,-0.0353,-0.047,2036
7,-0.5574,-0.8582,-0.0869,-0.0209,-0.0603,-0.0486,2046
7,-0.5381,-0.8481,-0.1033,-0.017,-0.086,-0.0565,2040
7,-0.5156,-0.8372,-0.1326,0.0041,-0.1043,-0.0549,2045
7,-0.512,-0.8513,-0.1345,0.0044,-0.0967,-0.0455,2041
7,-0.5317,-0.864,-0.1211,0.0055,-0.0333,-0.0317,2040
7,-0.5356,-0.8723,-0.1111,0.0069,-0.025,-0.0357,2043
7,-0.5359,-0.8738,-0.1033,0.0041,-0.0306,-0.0373,2043
7,-0.5344,-0.8752,-0.0906,0.0136,-0.0704,-0.0442,2045
7,-0.5366,-0.8674,-0.0828,0.0115,-0.112,-0.0462,2043
7,-0.5356,-0.8684,-0.0713,0.0142,-0.112,-0.0431,2042
7,-0.5339,-0.8706,-0.0627,0.0101,-0.0887,-0.0533,2042
7,-0.5295,-0.8701,-0.0613,0.0015,-0.047,-0.0507,2047
7,-0.5283,-0.8621,-0.084,-0.0144,-0.0318,-0.0546,2039
7,-0.5188,-0.8479,-0.1038,-0.006,-0.0561,-0.0485,2045
7,-0.4941,-0.8459,-0.1187,0.0105,-0.1039,-0.0454,2046
7,-0.4814,-0.8657,-0.1348,0.0137,-0.0798,-0.0321,2039
7,-0.498,-0.8816,-0.1228,-0.004,-0.0077,-0.0229,2044
7,-0.5374,-0.8833,-0.1057,-0.0165,0.0357,-0.0222,2042
7,-0.5535,-0.8655,-0.0813,-0.0434,0.0177,-0.0285,2041
7,-0.5493,-0.8667,-0.0735,-0.053,-0.004,-0.0361,2037
7,-0.5522,-0.877,-0.085,-0.0411,-0.0368,-0.037,2039
7,-0.5396,-0.863,-0.1011,-0.0399,-0.0664,-0.0376,2039
7,-0.531,-0.863,-0.1072,-0.0326,-0.0718,-0.043,2042
7,-0.5161,-0.8689,-0.0991,-0.0268,-0.0501,-0.0345,2042
7,-0.5212,-0.8628,-0.0898,-0.0257,-0.0451,-0.0277,2039
7,-0.509,-0.8655,-0.0833,-0.0322,-0.0454,-0.0276,2044
7,-0.4993,-0.8633,-0.072,-0.0439,-0.0337,-0.0265,2041
7,-0.502,-0.8701,-0.0786,-0.0475,-0.0218,-0.0202,2043
7,-0.4851,-0.8586,-0.0994,-0.0454,-0.0407,-0.0109,2044
7,-0.4819,-0.8645,-0.1216,-0.0597,-0.0258,-0.0053,2036
7,-0.5007,-0.8621,-0.1235,-0.0535,0.0003,-0.0039,2042
7,-0.5071,-0.8647,-0.113,-0.066,0.0096,-0.0025,2041
7,-0.5107,-0.8694,-0.0952,-0.0627,0.0111,-0.0072,2039
7,-0.5159,-0.8813,-0.0654,-0.0736,0.0059,-0.0085,2040
7,-0.5142,-0.8818,-0.0483,-0.0723,-0.0017,-0.0095,2045
7,-0.5164,-0.8911,-0.0364,-0.07,-0.0045,-0.0083,2040
7,-0.5034,-0.8777,-0.0642,-0.0543,-0.0196,0.0069,2043
7,-0.5151,-0.8767,-0.0942,-0.0478,-0.0332,0.0128,2039
7,-0.5144,-0.8728,-0.1152,-0.0501,-0.0004,0.0164,2041
7,-0.5281,-0.8611,-0.1074,-0.0341,-0.0076,0.0154,2041
7,-0.5156,-0.8706,-0.1069,-0.0329,-0.0161,0.0076,2040
7,-0.5132,-0.8748,-0.0962,-0.026,-0.023,0.0041,2042
7,-0.5083,-0.8745,-0.064,-0.0372,-0.0073,0.0009,2042
7,-0.5122,-0.8884,-0.061,-0.0465,0.0016,0.0032,2041
7,-0.5137,-0.8809,-0.0735,-0.043,-0.0132,0.0089,2041
7,-0.5,-0.8774,-0.1023,-0.0284,-0.0166,0.0224,2044
7,-0.5103,-0.8691,-0.1079,-0.0149,-0.0276,0.0265,2043
7,-0.5242,-0.8765,-0.1172,-0.0128,-0.0228,0.0218,2043
7,-0.519,-0.8828,-0.1133,-0.0198,-0.0063,0.0161,2042
7,-0.5327,-0.8867,-0.0898,-0.0309,0.0137,0.015,2042
7,-0.5356,-0.8706,-0.0967,-0.0286,0.0049,0.0091,2037
7,-0.5161,-0.874,-0.1157,-0.018,-0.0357,0.0089,2042
7,-0.4971,-0.8789,-0.1169,-0.0137,-0.0358,0.0085,2042
7,-0.5027,-0.8789,-0.1301,-0.0162,0.0107,0.0109,2041
7,-0.499,-0.8752,-0.1165,-0.0119,0.0224,0.0124,2040
7,-0.4734,-0.8728,-0.1108,-0.0152,0.0148,0.0162,2043
7,-0.4812,-0.8696,-0.0894,-0.0172,0.0257,0.0222,2042
7,-0.4915,-0.8638,-0.0803,-0.0047,0.0188,0.0341,2041
7,-0.4971,-0.875,-0.0767,-0.0037,0.0027,0.0336,2044
7,-0.4973,-0.885,-0.0874,0.0004,0.0141,0.0348,2041
7,-0.5037,-0.8816,-0.0901,-0.0048,0.0214,0.0328,2044
7,-0.5142,-0.8813,-0.0828,-0.0043,0.0228,0.0258,2038
7,-0.519,-0.8777,-0.0833,-0.0033,0.0021,0.0176,2038
7,-0.5046,-0.873,-0.0894,0.0146,-0.0309,0.0153,2044
7,-0.4937,-0.8792,-0.1067,0.022,-0.0418,0.0176,2042
7,-0.4949,-0.8948,-0.1099,0.0144,-0.008,0.0178,2043
7,-0.5217,-0.8899,-0.0874,0.006,0.0233,0.0134,2041
7,-0.5249,-0.8872,-0.0698,-0.016,0.0262,0.0052,2038
7,-0.5378,-0.8789,-0.0928,-0.0268,0.0172,-0.0041,2039
7,-0.5149,-0.8701,-0.1177,-0.0009,-0.0158,-0.0131,2041
7,-0.498,-0.8557,-0.1528,-0.0005,-0.0413,-0.0023,2043
7,-0.4929,-0.8633,-0.155,-0.0044,-0.0137,0.0047,2038
7,-0.5144,-0.8662,-0.1252,0.0047,0.0061,0.0072,2040
7,-0.5093,-0.8804,-0.1057,0.0051,0.0079,0.0083,2041
7,-0.4985,-0.8809,-0.0876,-0.0024,0.0177,0.0146,2041
7,-0.5127,-0.8872,-0.0781,-0.0104,0.0317,0.018,2038
7,-0.5168,-0.8628,-0.0852,-0.0101,0.0196,0.0257,2037
7,-0.5117,-0.8574,-0.113,0.0,-0.0083,0.0285,2043
7,-0.5024,-0.8672,-0.1289,-0.0032,0.0005,0.0274,2043
7,-0.521,-0.8599,-0.1333,0.0057,0.0134,0.024,2039
7,-0.5063,-0.8557,-0.1301,0.0164,-0.0057,0.016,2039
7,-0.4846,-0.877,-0.1082,0.0149,-0.0099,0.0168,2044
7,-0.4971,-0.8928,-0.0825,-0.0067,0.0373,0.0162,2035
7,-0.5173,-0.8943,-0.0598,-0.0258,0.0523,0.0204,2046
7,-0.5283,-0.877,-0.0557,-0.0435,0.0415,0.0169,2044
7,-0.5212,-0.8652,-0.095,-0.0466,0.0226,0.0161,2042
7,-0.5256,-0.8538,-0.1206,-0.0409,-0.0084,0.0132,2038
7,-0.51,-0.8706,-0.1384,-0.0411,-0.0213,0.0101,2039
7,-0.4941,-0.8667,-0.136,-0.0334,-0.0113,0.0068,2045
7,-0.488,-0.8789,-0.1206,-0.0365,0.0205,0.0075,2037
7,-0.4973,-0.8845,-0.1006,-0.0338,0.0278,0.0121,2046
7,-0.4836,-0.8821,-0.0854,-0.032,0.0184,0.0204,2041
7,-0.4824,-0.873,-0.0723,-0.035,0.0149,0.0318,2049
7,-0.4949,-0.8701,-0.0781,-0.0429,0.0274,0.0376,2039
7,-0.5081,-0.8647,-0.0898,-0.0348,0.0224,0.0325,2041
7,-0.4919,-0.8606,-0.1018,-0.03,0.0033,0.0364,2037
7,-0.4993,-0.8635,-0.1108,-0.0217,0.0001,0.0419,2045
7,-0.5142,-0.864,-0.0969,-0.0244,0.0031,0.053,2045
8,-0.5166,-0.8694,-0.0806,-0.033,0.0096,0.0586,2042
8,-0.5305,-0.8704,-0.0767,-0.0294,0.0116,0.0591,2042
8,-0.5254,-0.8748,-0.0649,-0.039,0.0115,0.0603,2036
8,-0.509,-0.876,-0.0859,-0.0318,-0.0091,0.0629,2043
8,-0.4995,-0.8748,-0.1206,-0.015,-0.0401,0.0731,2045
8,-0.4819,-0.8711,-0.1328,-0.0186,-0.0453,0.0783,2042
8,-0.5022,-0.8728,-0.1157,-0.0072,-0.0292,0.0787,2039
8,-0.5029,-0.8823,-0.0872,-0.021,-0.0209,0.0674,2040
8,-0.5085,-0.8816,-0.0815,-0.0352,-0.0096,0.0714,2039
8,-0.5308,-0.8779,-0.0488,-0.0445,-0.0206,0.069,2040
8,-0.5149,-0.8757,-0.0693,-0.0309,-0.0599,0.0736,2041
8,-0.5034,-0.8762,-0.0928,-0.0146,-0.0953,0.0742,2046
8,-0.5044,-0.8792,-0.1179,-0.015,-0.0827,0.0856,2043
8,-0.5012,-0.8796,-0.1235,-0.0079,-0.0626,0.0884,2039
8,-0.5137,-0.8687,-0.1187,-0.0056,-0.0603,0.083,2041
8,-0.5234,-0.8674,-0.105,-0.0031,-0.049,0.0862,2041
8,-0.5156,-0.8872,-0.0774,-0.0176,-0.0517,0.0755,2044
8,-0.5188,-0.8779,-0.0627,-0.0298,-0.0672,0.0642,2036
8,-0.5027,-0.8799,-0.0947,-0.0092,-0.1152,0.0609,2039
8,-0.4841,-0.8743,-0.1016,0.0079,-0.1521,0.066,2042
8,-0.4861,-0.8987,-0.1138,-0.0055,-0.1226,0.0668,2042
8,-0.5293,-0.8811,-0.1047,-0.0019,-0.0964,0.0719,2040
8,-0.5698,-0.8779,-0.0859,-0.0258,-0.0941,0.0575,2037
8,-0.5793,-0.866,-0.1106,-0.0419,-0.0848,0.0497,2038
8,-0.5764,-0.8494,-0.1189,-0.0392,-0.0967,0.0373,2046
8,-0.5564,-0.8328,-0.1497,-0.0162,-0.1252,0.0395,2044
8,-0.5293,-0.8447,-0.1616,-0.0048,-0.1205,0.0531,2043
8,-0.5215,-0.8496,-0.1584,0.0186,-0.0936,0.0683,2042
8,-0.5168,-0.8608,-0.1379,0.0431,-0.1137,0.0743,2043
8,-0.4915,-0.8826,-0.1206,0.0493,-0.1076,0.0929,2043
8,-0.4902,-0.8809,-0.113,0.0478,-0.0714,0.1161,2040
8,-0.5076,-0.8689,-0.1016,0.0421,-0.0402,0.1253,2044
8,-0.5151,-0.8538,-0.0842,0.0427,-0.0442,0.118,2042
8,-0.5254,-0.8542,-0.0859,0.0245,-0.0399,0.1125,2044
8,-0.5178,-0.8582,-0.0872,0.025,-0.0517,0.0963,2038
8,-0.5068,-0.8713,-0.0923,0.0188,-0.0839,0.0678,2043
8,-0.4934,-0.8743,-0.1177,-0.0072,-0.0678,0.0441,2040
8,-0.5078,-0.8752,-0.1104,-0.0178,-0.0415,0.035,2034
8,-0.4983,-0.8806,-0.1118,-0.0248,-0.0378,0.0212,2043
8,-0.5002,-0.8662,-0.1194,-0.0197,-0.0409,0.021,2040
8,-0.5142,-0.873,-0.1028,-0.0321,-0.0209,0.022,2037
8,-0.5469,-0.8672,-0.1008,-0.0394,0.0069,0.0197,2041
8,-0.5627,-0.8608,-0.0957,-0.0425,0.0025,0.0123,2038
8,-0.5706,-0.8486,-0.0889,-0.0485,-0.018,0.0079,2040
8,-0.5776,-0.8462,-0.0972,-0.0505,-0.0481,0.0079,2045
8,-0.5688,-0.8413,-0.1021,-0.0373,-0.0698,0.0035,2041
8,-0.5469,-0.8462,-0.1025,-0.03,-0.0718,0.0119,2044
8,-0.5435,-0.8406,-0.1011,-0.0182,-0.0565,0.0265,2039
8,-0.5557,-0.8406,-0.1016,-0.0057,-0.0571,0.029,2041
8,-0.5532,-0.844,-0.1067,-0.006,-0.0515,0.0373,2043
8,-0.5586,-0.8457,-0.095,0.0039,-0.0515,0.0392,2041
8,-0.5491,-0.8586,-0.0864,0.0111,-0.0605,0.0344,2036
8,-0.5276,-0.863,-0.1016,0.0093,-0.0719,0.0358,2049
8,-0.52,-0.8547,-0.1104,0.0025,-0.0676,0.0348,2044
8,-0.522,-0.8538,-0.1177,0.0024,-0.0589,0.0338,2043
8,-0.5286,-0.8672,-0.1128,-0.015,-0.0517,0.03,2045
8,-0.533,-0.863,-0.1099,-0.0185,-0.0358,0.0253,2043
8,-0.5366,-0.8596,-0.1016,-0.0274,-0.037,0.0182,2040
8,-0.54,-0.855,-0.1084,-0.0205,-0.039,0.0216,2045
8,-0.5457,-0.8513,-0.104,-0.0296,-0.0465,0.016,2040
8,-0.5435,-0.8569,-0.1023,-0.0289,-0.0277,0.0168,2042
8,-0.5444,-0.8413,-0.0872,-0.0358,-0.0413,0.0136,2039
8,-0.5415,-0.8459,-0.0828,-0.0433,-0.0629,0.0099,2038
8,-0.5459,-0.845,-0.0791,-0.0439,-0.0609,0.018,2041
8,-0.5359,-0.845,-0.0959,-0.031,-0.0614,0.0281,2039
8,-0.5334,-0.8411,-0.1033,-0.0252,-0.0542,0.0316,2044
8,-0.5325,-0.8433,-0.1187,-0.0226,-0.0374,0.0429,2040
8,-0.5498,-0.8406,-0.123,-0.0096,-0.0446,0.0497,2042
8,-0.5476,-0.8525,-0.1086,-0.0309,-0.0606,0.047,2043
8,-0.5408,-0.8499,-0.1052,-0.0313,-0.0288,0.049,2045
8,-0.5444,-0.8508,-0.0811,-0.0338,-0.0244,0.0571,2042
8,-0.5276,-0.8496,-0.1001,-0.0534,-0.0314,0.0573,2042
8,-0.5322,-0.8428,-0.0933,-0.0425,-0.0266,0.059,2040
8,-0.5437,-0.8474,-0.0942,-0.0457,-0.0304,0.0613,2038
8,-0.5439,-0.8494,-0.1008,-0.0542,-0.039,0.0622,2043
8,-0.5417,-0.8538,-0.0959,-0.0535,-0.0329,0.0577,2043
8,-0.5383,-0.8582,-0.1023,-0.0415,-0.0477,0.0599,2043
8,-0.531,-0.8586,-0.0945,-0.0434,-0.0561,0.0581,2041
8,-0.54,-0.8647,-0.1018,-0.0561,-0.0349,0.0618,2041
8,-0.5544,-0.8501,-0.0759,-0.0527,-0.0374,0.0621,2043
8,-0.5569,-0.8408,-0.0803,-0.0601,-0.0553,0.0656,2036
8,-0.5503,-0.8452,-0.092,-0.0565,-0.0599,0.0622,2040
8,-0.5564,-0.8545,-0.0977,-0.0533,-0.0607,0.0626,2038
8,-0.5479,-0.8552,-0.0972,-0.0645,-0.0643,0.0595,2041
8,-0.5481,-0.8491,-0.1064,-0.0577,-0.0649,0.0559,2041
8,-0.5374,-0.8523,-0.0942,-0.0615,-0.0719,0.0547,2044
8,-0.5432,-0.8569,-0.1067,-0.065,-0.0607,0.0585,2041
8,-0.5349,-0.8525,-0.0999,-0.0591,-0.0567,0.0595,2045
8,-0.5332,-0.8496,-0.1084,-0.0517,-0.0597,0.0587,2035
8,-0.5325,-0.8528,-0.114,-0.0451,-0.0683,0.0594,2046
8,-0.5383,-0.8594,-0.1057,-0.0541,-0.0529,0.0613,2042
8,-0.552,-0.8547,-0.0989,-0.0474,-0.0486,0.0658,2038
8,-0.5435,-0.8472,-0.1052,-0.0555,-0.0543,0.0574,2039
8,-0.5437,-0.8604,-0.0979,-0.0712,-0.0505,0.0494,2043
8,-0.5596,-0.856,-0.0828,-0.0823,-0.0473,0.0421,2041
8,-0.5605,-0.8564,-0.0786,-0.0804,-0.0691,0.0308,2042
8,-0.5396,-0.8557,-0.1091,-0.0711,-0.0924,0.0308,2044
8,-0.532,-0.8552,-0.1143,-0.0562,-0.0895,0.0356,2043
8,-0.5356,-0.8604,-0.1184,-0.0517,-0.0726,0.038,2039
8,-0.5449,-0.8589,-0.1162,-0.0418,-0.0477,0.0392,2038
8,-0.5457,-0.8506,-0.106,-0.0326,-0.0477,0.0418,2041
8,-0.5508,-0.8452,-0.0952,-0.0397,-0.0602,0.0415,2040
8,-0.554,-0.842,-0.0845,-0.0525,-0.0671,0.0321,2042
9,-0.5593,-0.8501,-0.0679,-0.0605,-0.0748,0.033,2041
9,-0.5571,-0.843,-0.0923,-0.0682,-0.0735,0.025,2043
9,-0.5574,-0.8506,-0.1084,-0.0782,-0.0638,0.0234,2042
9,-0.5601,-0.8477,-0.1345,-0.0561,-0.0607,0.0309,2044
9,-0.5503,-0.8481,-0.1584,-0.026,-0.094,0.0265,2043
9,-0.5198,-0.8555,-0.1482,-0.0164,-0.0898,0.0304,2041
9,-0.5425,-0.8606,-0.1289,-0.0236,-0.0541,0.0401,2043
9,-0.5515,-0.8521,-0.0864,-0.0325,-0.0378,0.0352,2040
9,-0.5542,-0.8464,-0.0767,-0.0427,-0.0422,0.0194,2044
9,-0.5525,-0.8489,-0.0808,-0.0445,-0.0413,0.0154,2036
9,-0.5425,-0.8403,-0.0991,-0.0318,-0.0603,0.015,2036
9,-0.5359,-0.8411,-0.1045,-0.0326,-0.0687,0.0149,2043
9,-0.5347,-0.8555,-0.113,-0.0278,-0.0601,0.0137,2040
9,-0.5493,-0.8523,-0.1069,-0.0322,-0.0614,0.0101,2042
9,-0.5461,-0.8459,-0.1086,-0.034,-0.0498,0.0095,2039
9,-0.5544,-0.8459,-0.1006,-0.0294,-0.0487,0.0061,2042
9,-0.5476,-0.8521,-0.1011,-0.0318,-0.0453,0.0057,2043
9,-0.5537,-0.8467,-0.1016,-0.0232,-0.0522,0.0107,2039
9,-0.5632,-0.8586,-0.0979,-0.0278,-0.0646,0.0095,2039
9,-0.5627,-0.853,-0.0942,-0.0117,-0.061,0.0125,2044
9,-0.5596,-0.8462,-0.114,-0.0181,-0.0663,0.0101,2041
9,-0.5491,-0.8481,-0.1147,-0.0166,-0.0453,0.0112,2040
9,-0.5596,-0.8423,-0.0942,-0.0071,-0.0594,0.0069,2038
9,-0.5452,-0.8423,-0.113,-0.0194,-0.0623,0.0049,2042
9,-0.5515,-0.8445,-0.1106,-0.0101,-0.0545,0.0084,2042
9,-0.5432,-0.8491,-0.0955,-0.0123,-0.0526,0.0071,2041
9,-0.5496,-0.8506,-0.1108,-0.0028,-0.0356,0.0049,2042
9,-0.5376,-0.8545,-0.1099,-0.004,-0.0407,0.0089,2039
9,-0.533,-0.8494,-0.1047,-0.0049,-0.0365,0.0064,2040
9,-0.5435,-0.8564,-0.1091,0.0001,-0.035,0.0043,2037
9,-0.5369,-0.855,-0.1104,-0.0069,-0.0429,0.0027,2042
9,-0.5515,-0.853,-0.1077,-0.0166,-0.0349,-0.0004,2042
9,-0.5696,-0.8567,-0.093,-0.024,-0.0172,-0.0028,2034
9,-0.5623,-0.8352,-0.0852,-0.0225,-0.0417,-0.0029,2046
9,-0.5522,-0.8379,-0.0938,-0.023,-0.065,-0.0041,2039
9,-0.542,-0.8608,-0.1035,-0.0212,-0.0317,-0.004,2045
9,-0.5461,-0.8491,-0.1116,-0.0019,-0.037,-0.0056,2040
9,-0.5305,-0.8508,-0.1096,-0.0069,-0.0418,-0.0039,2043
9,-0.5378,-0.8425,-0.1023,0.0036,-0.0393,0.0016,2043
9,-0.5425,-0.8503,-0.085,-0.0053,-0.0451,-0.0001,2043
9,-0.551,-0.8518,-0.0784,-0.0133,-0.0186,-0.0015,2042
9,-0.5703,-0.8496,-0.0564,-0.015,-0.0346,-0.004,2038
9,-0.5588,-0.8462,-0.0857,-0.0112,-0.0486,-0.0011,2044
9,-0.5493,-0.856,-0.116,0.0205,-0.075,-0.0004,2042
9,-0.5408,-0.8601,-0.125,0.0156,-0.0738,-0.0099,2037
9,-0.543,-0.8599,-0.1191,0.0051,-0.0409,-0.0047,2044
9,-0.5583,-0.8406,-0.0952,0.0049,-0.0597,-0.0092,2041
9,-0.5442,-0.8462,-0.0933,0.0008,-0.0743,-0.0164,2044
9,-0.5356,-0.8577,-0.0728,-0.0037,-0.0449,-0.017,2038
9,-0.5422,-0.8633,-0.0784,-0.0107,-0.0123,-0.0198,2042
9,-0.5171,-0.8467,-0.1208,0.0101,-0.0447,-0.0136,2039
9,-0.4849,-0.856,-0.1501,0.0261,-0.0566,-0.0033,2044
9,-0.5056,-0.8633,-0.144,0.023,-0.0081,0.0048,2042
9,-0.532,-0.8594,-0.1204,0.032,-0.0069,0.0077,2042
9,-0.5305,-0.8503,-0.0981,0.0055,-0.0076,0.002,2043
9,-0.5305,-0.8613,-0.082,-0.0073,0.0198,-0.0028,2041
9,-0.5435,-0.8718,-0.0574,-0.0297,0.0377,-0.0067,2043
9,-0.5503,-0.8477,-0.0676,-0.0313,0.0495,0.0069,2037
9,-0.5095,-0.8689,-0.1128,-0.0205,0.0172,-0.0097,2045
9,-0.5142,-0.864,-0.144,-0.008,0.0266,0.0161,2042
9,-0.5112,-0.8584,-0.1353,-0.0075,0.0378,0.0196,2042
9,-0.5137,-0.8521,-0.1323,-0.015,0.0541,0.0193,2038
9,-0.5205,-0.8479,-0.0962,-0.0208,0.0649,0.018,2044
9,-0.5259,-0.8374,-0.0669,-0.0349,0.0485,0.016,2036
9,-0.5193,-0.8579,-0.0603,-0.019,0.0234,0.0161,2044
9,-0.5027,-0.8799,-0.0564,-0.014,0.0156,-0.0007,2042
9,-0.4988,-0.8906,-0.0779,-0.0189,0.0365,0.0269,2039
9,-0.5435,-0.8782,-0.0811,-0.0226,0.0631,0.0269,2040
9,-0.5562,-0.8679,-0.095,-0.0312,0.0783,0.0165,2041
9,-0.5759,-0.8647,-0.0886,-0.0269,0.0599,-0.0055,2037
9,-0.5674,-0.8647,-0.1018,-0.0449,0.0265,-0.0256,2040
9,-0.5603,-0.8665,-0.1118,-0.0357,-0.0162,-0.0409,2042
9,-0.5378,-0.8606,-0.1133,-0.037,-0.0442,-0.0449,2046
9,-0.5203,-0.8672,-0.1226,-0.0431,-0.032,-0.0369,2042
9,-0.5227,-0.8633,-0.1079,-0.0349,-0.0084,-0.032,2035
9,-0.5273,-0.8652,-0.0911,-0.0384,0.0029,-0.0234,2041
9,-0.5249,-0.8596,-0.0933,-0.026,0.0004,-0.0105,2040
9,-0.5227,-0.854,-0.1082,-0.0168,-0.024,-0.0009,2040
9,-0.5359,-0.8538,-0.0801,-0.0093,-0.0442,0.0117,2043
9,-0.5444,-0.8528,-0.0676,-0.0064,-0.0509,0.0205,2043
9,-0.55,-0.8486,-0.0747,-0.0228,-0.0282,0.0218,2043
9,-0.5459,-0.8518,-0.0847,-0.0284,-0.0161,0.0292,2048
9,-0.5417,-0.8496,-0.0833,-0.0221,-0.0206,0.0284,2040
9,-0.522,-0.8491,-0.1055,-0.0041,-0.0526,0.028,2041
9,-0.4917,-0.8601,-0.1455,0.0193,-0.0766,0.0345,2043
9,-0.4839,-0.8684,-0.136,0.0212,-0.0481,0.0502,2043
9,-0.5056,-0.8716,-0.1108,0.0059,-0.0037,0.0551,2041
9,-0.5203,-0.8579,-0.0779,-0.0008,0.0049,0.0543,2039
9,-0.5251,-0.8557,-0.0776,-0.0233,0.0069,0.0541,2042
9,-0.5339,-0.8511,-0.0686,-0.0389,0.0256,0.0547,2046
9,-0.5396,-0.8486,-0.0715,-0.0342,0.0133,0.0422,2043
9,-0.5042,-0.8496,-0.1038,-0.0162,-0.0216,0.0483,2046
9,-0.5,-0.8604,-0.1077,-0.0127,-0.029,0.0595,2040
9,-0.5171,-0.8577,-0.1016,-0.018,-0.0016,0.0726,2045
9,-0.5342,-0.8596,-0.0918,-0.0217,0.0088,0.0738,2042
9,-0.5342,-0.8711,-0.0928,-0.017,0.004,0.0668,2041
9,-0.5437,-0.8647,-0.0823,-0.0338,0.0101,0.0762,2036
9,-0.5615,-0.8557,-0.0903,-0.0381,0.0314,0.0722,2046
9,-0.5632,-0.8557,-0.114,-0.0364,0.0177,0.0615,2044
9,-0.5364,-0.8428,-0.1428,-0.0196,0.0067,0.0659,2042
9,-0.5271,-0.8464,-0.1462,-0.0073,-0.0205,0.0694,2040
9,-0.5288,-0.8494,-0.1255,-0.0166,-0.0124,0.0695,2043
10,-0.5457,-0.8633,-0.0896,-0.0131,-0.0008,0.0699,2041
10,-0.5566,-0.8618,-0.0728,-0.0312,-0.0128,0.0613,2042
10,-0.5469,-0.8645,-0.0686,-0.0332,-0.0154,0.0566,2041
10,-0.5393,-0.8611,-0.0779,-0.0268,-0.0217,0.0487,2045
10,-0.5237,-0.8569,-0.1121,-0.0091,-0.0318,0.0561,2039
10,-0.5056,-0.8682,-0.1357,-0.0036,-0.0419,0.0627,2042
10,-0.5193,-0.8752,-0.1357,-0.0217,0.0127,0.0688,2039
10,-0.5415,-0.8645,-0.126,-0.0189,0.0304,0.063,2041
10,-0.5471,-0.8545,-0.1086,-0.0341,0.0019,0.0503,2039
10,-0.5471,-0.8511,-0.1201,-0.0312,-0.0088,0.0426,2042
10,-0.5457,-0.8535,-0.1111,-0.0193,-0.0152,0.0368,2036
10,-0.541,-0.8542,-0.1091,-0.0345,-0.02,0.0282,2044
10,-0.521,-0.8611,-0.1238,-0.0301,-0.0075,0.0389,2042
10,-0.5273,-0.8564,-0.1335,-0.0264,0.0017,0.0439,2041
10,-0.5232,-0.8564,-0.1272,-0.0282,0.025,0.053,2046
10,-0.5471,-0.8452,-0.1118,-0.0316,0.0365,0.0578,2041
10,-0.552,-0.8359,-0.0957,-0.0308,0.0354,0.0606,2040
10,-0.5522,-0.8315,-0.0918,-0.0213,0.0103,0.0609,2044
10,-0.5396,-0.8335,-0.0969,-0.0184,0.0001,0.0671,2040
10,-0.5598,-0.8381,-0.104,-0.0201,0.0217,0.0784,2042
10,-0.5669,-0.8438,-0.0928,-0.0117,0.0321,0.074,2039
10,-0.5605,-0.8435,-0.1001,-0.0258,0.0063,0.0711,2043
10,-0.5503,-0.8469,-0.115,-0.0232,0.0001,0.0704,2044
10,-0.5593,-0.8503,-0.1104,-0.0156,0.0075,0.0676,2045
10,-0.5601,-0.8486,-0.1069,-0.0193,0.0125,0.0698,2040
10,-0.5535,-0.8425,-0.106,-0.0272,0.0041,0.0694,2046
10,-0.5537,-0.8423,-0.1074,-0.0213,0.0069,0.0691,2041
10,-0.5566,-0.8418,-0.0974,-0.0304,-0.0047,0.0645,2049
10,-0.5552,-0.8538,-0.106,-0.0352,-0.0036,0.0643,2042
10,-0.552,-0.8486,-0.1187,-0.0332,-0.0111,0.0618,2040
10,-0.5293,-0.8442,-0.1172,-0.0372,-0.0039,0.0615,2038
10,-0.5396,-0.835,-0.116,-0.0393,-0.0087,0.0645,2040
10,-0.543,-0.8406,-0.1133,-0.0527,0.0011,0.0603,2043
10,-0.5596,-0.8396,-0.0798,-0.0562,-0.0039,0.0591,2042
10,-0.561,-0.8467,-0.0791,-0.0703,-0.0221,0.0551,2040
10,-0.5613,-0.854,-0.0957,-0.0671,-0.0177,0.0582,2040
10,-0.5535,-0.8416,-0.1162,-0.0446,-0.0406,0.0633,2041
10,-0.5432,-0.8335,-0.1479,-0.0439,-0.0405,0.0696,2043
10,-0.5432,-0.8398,-0.1506,-0.0425,-0.0047,0.0695,2043
10,-0.5535,-0.8269,-0.1514,-0.0449,0.0035,0.0755,2037
10,-0.5588,-0.8198,-0.1433,-0.0534,-0.0141,0.0719,2041
10,-0.5503,-0.8149,-0.1338,-0.0329,-0.0365,0.0718,2044
10,-0.5474,-0.8357,-0.1218,-0.0208,-0.0469,0.0786,2040
10,-0.55,-0.8494,-0.1074,-0.0266,-0.016,0.0903,2041
10,-0.572,-0.8511,-0.103,-0.0258,-0.0069,0.0917,2042
10,-0.5732,-0.8518,-0.0989,-0.0426,-0.0101,0.0798,2043
10,-0.5679,-0.8499,-0.093,-0.0571,-0.015,0.0716,2041
10,-0.5771,-0.8474,-0.0999,-0.0562,-0.0374,0.0578,2041
10,-0.5654,-0.8296,-0.1133,-0.0376,-0.0779,0.0471,2043
10,-0.542,-0.8345,-0.1306,-0.0188,-0.089,0.0478,2041
10,-0.5493,-0.8503,-0.1235,-0.019,-0.0506,0.0574,2041
10,-0.5662,-0.8462,-0.1028,-0.0073,-0.0455,0.0607,2038
10,-0.5737,-0.8489,-0.093,-0.0221,-0.0589,0.0597,2045
10,-0.5637,-0.8582,-0.1003,-0.0262,-0.0481,0.0557,2042
10,-0.563,-0.8479,-0.0996,-0.0189,-0.0573,0.0482,2044
10,-0.5503,-0.8386,-0.1235,-0.0316,-0.0806,0.045,2038
10,-0.5476,-0.8311,-0.1343,-0.0109,-0.1029,0.0461,2046
10,-0.5586,-0.8254,-0.1453,0.0056,-0.1123,0.0549,2041
10,-0.5784,-0.8208,-0.1445,0.0248,-0.1369,0.0662,2041
10,-0.5793,-0.8074,-0.1355,0.0481,-0.2052,0.0692,2040
10,-0.5837,-0.8215,-0.1106,0.0599,-0.2199,0.0645,2041
10,-0.5869,-0.8372,-0.0859,0.0502,-0.186,0.066,2041
10,-0.5789,-0.8406,-0.0688,0.0455,-0.1515,0.0712,2037
10,-0.5645,-0.8423,-0.0332,0.0467,-0.1081,0.0791,2042
10,-0.5627,-0.8455,-0.0342,0.0426,-0.0843,0.0995,2038
10,-0.5681,-0.8271,-0.0635,0.0742,-0.0997,0.1167,2035
10,-0.5789,-0.8306,-0.1128,0.0943,-0.1265,0.1392,2039
10,-0.5874,-0.8157,-0.1489,0.1302,-0.1646,0.1458,2045
10,-0.5964,-0.8076,-0.1355,0.1402,-0.1985,0.1446,2041
10,-0.6064,-0.8213,-0.0918,0.1475,-0.1617,0.1358,2043
10,-0.6121,-0.842,-0.0452,0.119,-0.1253,0.1226,2038
10,-0.5896,-0.8435,-0.019,0.0864,-0.1116,0.0955,2040
10,-0.5762,-0.8545,-0.0339,0.071,-0.0941,0.0756,2044
10,-0.554,-0.8547,-0.0728,0.0772,-0.1156,0.0679,2041
10,-0.5317,-0.8569,-0.1465,0.0704,-0.1306,0.065,2041
10,-0.5364,-0.8523,-0.1748,0.0554,-0.1316,0.0631,2040
10,-0.5518,-0.8459,-0.158,0.0477,-0.1344,0.0461,2042
10,-0.5557,-0.8564,-0.1406,0.0189,-0.1039,0.0317,2044
10,-0.5471,-0.856,-0.1223,0.0081,-0.0792,0.0153,2038
10,-0.5393,-0.8477,-0.0991,-0.0015,-0.0738,-0.0029,2041
10,-0.5366,-0.8345,-0.1055,-0.0012,-0.0835,-0.0109,2041
10,-0.5356,-0.8438,-0.1089,-0.0241,-0.0578,-0.0059,2039
10,-0.5586,-0.8406,-0.1157,-0.0137,-0.0324,0.0077,2042
10,-0.5713,-0.8235,-0.1082,-0.0262,-0.0754,0.0037,2042
10,-0.5518,-0.8284,-0.114,-0.0362,-0.08,0.0049,2042
10,-0.5601,-0.8315,-0.0864,-0.0357,-0.0312,0.0125,2046
10,-0.5623,-0.8291,-0.0769,-0.0627,-0.0008,0.0174,2039
10,-0.5608,-0.8335,-0.0828,-0.0634,-0.0055,0.0174,2043
10,-0.5696,-0.8228,-0.0845,-0.0574,-0.0152,0.0176,2036
10,-0.5691,-0.8193,-0.0952,-0.0613,-0.0253,0.0226,2042
10,-0.5776,-0.8176,-0.0986,-0.0491,-0.0254,0.0256,2042
10,-0.5752,-0.8274,-0.0916,-0.0332,-0.0392,0.0249,2041
10,-0.5662,-0.8374,-0.0889,-0.0262,-0.0615,0.0238,2037
10,-0.5735,-0.8452,-0.0764,-0.0316,-0.0382,0.0254,2043
10,-0.5852,-0.8535,-0.0623,-0.0362,-0.0198,0.0273,2039
10,-0.5935,-0.8411,-0.032,-0.049,-0.0358,0.019,2040
10,-0.5964,-0.8347,-0.0554,-0.0479,-0.0627,0.0105,2039
10,-0.5776,-0.8291,-0.0769,-0.0407,-0.074,0.0048,2043
10,-0.5835,-0.8269,-0.0972,-0.0198,-0.0814,0.0063,2039
10,-0.5681,-0.8345,-0.1257,-0.0095,-0.1024,0.0124,2040
10,-0.574,-0.8401,-0.1211,-0.0112,-0.1,0.0128,2039
10,-0.5637,-0.8521,-0.0903,-0.0129,-0.0716,0.0109,2043
10,-0.5757,-0.8611,-0.075,-0.0348,-0.0481,0.0063,2043
11,-0.5706,-0.8567,-0.0657,-0.0515,-0.0374,0.0029,2043
11,-0.5652,-0.8318,-0.0854,-0.0399,-0.07,-0.0025,2041
11,-0.55,-0.825,-0.0999,-0.0385,-0.0739,-0.0044,2042
11,-0.553,-0.834,-0.126,-0.0278,-0.0509,0.0072,2045
11,-0.5566,-0.832,-0.1184,-0.0221,-0.0569,0.0067,2042
11,-0.5588,-0.8359,-0.1016,-0.0168,-0.0606,0.0072,2044
11,-0.5647,-0.8459,-0.071,-0.0154,-0.0445,0.0088,2040
11,-0.5613,-0.8452,-0.052,-0.035,-0.0349,0.0117,2041
11,-0.5686,-0.8459,-0.0476,-0.037,-0.0261,0.0117,2041
11,-0.5713,-0.8416,-0.0581,-0.0398,-0.0499,0.0084,2041
11,-0.561,-0.8384,-0.0867,-0.0463,-0.0574,0.0127,2041
11,-0.5662,-0.8254,-0.1033,-0.0252,-0.0567,0.0198,2044
11,-0.5674,-0.8379,-0.1016,-0.028,-0.0591,0.0158,2040
11,-0.5579,-0.8455,-0.123,-0.0174,-0.0458,0.0193,2042
11,-0.5571,-0.8564,-0.114,-0.0321,-0.0381,0.016,2043
11,-0.564,-0.8391,-0.0872,-0.0441,-0.0261,0.0104,2042
11,-0.5798,-0.8394,-0.064,-0.0533,-0.0325,0.0027,2037
11,-0.5762,-0.8335,-0.0703,-0.0654,-0.0392,-0.0011,2043
11,-0.5513,-0.8359,-0.095,-0.0425,-0.0629,0.0017,2044
11,-0.5449,-0.8411,-0.1079,-0.0345,-0.0691,0.0084,2043
11,-0.5371,-0.8486,-0.136,-0.0308,-0.0302,0.0162,2039
11,-0.542,-0.8489,-0.1189,-0.0212,-0.0148,0.0165,2042
11,-0.5515,-0.8386,-0.1042,-0.0324,-0.0017,0.0249,2046
11,-0.5835,-0.845,-0.0798,-0.0439,0.0004,0.0217,2044
11,-0.606,-0.8359,-0.0562,-0.0521,-0.0095,0.0117,2037
11,-0.5952,-0.8259,-0.0398,-0.0629,-0.0184,-0.0012,2041
11,-0.5767,-0.8311,-0.0642,-0.0599,-0.0398,-0.0061,2042
11,-0.5571,-0.8303,-0.0959,-0.045,-0.0629,0.0005,2045
11,-0.5444,-0.8347,-0.1082,-0.0365,-0.0649,0.0128,2045
11,-0.5464,-0.8337,-0.1042,-0.0252,-0.0337,0.0234,2044
11,-0.5635,-0.835,-0.0955,-0.0004,-0.038,0.028,2039
11,-0.5579,-0.8379,-0.0852,-0.0237,-0.0349,0.0301,2040
11,-0.5701,-0.8521,-0.0823,-0.0317,-0.0158,0.0244,2040
11,-0.585,-0.8396,-0.0442,-0.0415,-0.0117,0.0197,2044
11,-0.5642,-0.8289,-0.074,-0.0431,-0.039,0.0129,2038
11,-0.5481,-0.8337,-0.1021,-0.0296,-0.0526,0.0204,2041
11,-0.5608,-0.8367,-0.1243,-0.0224,-0.0388,0.0314,2041
11,-0.5623,-0.8435,-0.1272,-0.012,-0.0384,0.0221,2041
11,-0.5569,-0.8489,-0.1082,-0.0057,-0.0246,0.0185,2041
11,-0.5608,-0.8486,-0.0872,-0.0169,0.0001,0.017,2041
11,-0.561,-0.8486,-0.0652,-0.0253,0.0116,0.0105,2041
11,-0.5735,-0.8357,-0.0657,-0.0337,0.006,0.0001,2041
11,-0.571,-0.8352,-0.0959,-0.0325,-0.0124,-0.0031,2040
11,-0.5544,-0.8303,-0.1145,-0.0168,-0.0237,-0.0015,2044
11,-0.5415,-0.8372,-0.1218,-0.0077,-0.0224,0.0023,2039
11,-0.5386,-0.8428,-0.1196,0.0005,-0.0084,0.0117,2038
11,-0.5479,-0.8352,-0.1108,0.0091,-0.006,0.0172,2037
11,-0.5483,-0.8418,-0.0918,0.0067,-0.0039,0.0198,2042
11,-0.5574,-0.8535,-0.0798,0.0017,0.0129,0.0245,2055
11,-0.5723,-0.8535,-0.0674,-0.0222,0.0362,0.0242,2039
11,-0.5881,-0.8354,-0.0657,-0.0301,0.0449,0.022,2043
11,-0.5959,-0.834,-0.0601,-0.0462,0.0425,0.0081,2044
11,-0.5625,-0.8357,-0.0979,-0.0188,0.0081,0.0097,2041
11,-0.5422,-0.8193,-0.1162,0.0064,-0.0332,0.0208,2047
11,-0.5408,-0.8389,-0.1199,-0.0097,-0.0101,0.028,2043
11,-0.5542,-0.8359,-0.1084,0.0198,0.0039,0.0386,2043
11,-0.5569,-0.8376,-0.0935,0.0013,-0.0104,0.0332,2042
11,-0.5618,-0.842,-0.0945,-0.0145,0.0205,0.0392,2041
11,-0.5801,-0.8455,-0.064,-0.0232,0.0202,0.0322,2045
11,-0.5776,-0.8376,-0.0664,-0.0349,0.0177,0.0205,2041
11,-0.5691,-0.8359,-0.1006,-0.0111,-0.0138,0.0236,2043
11,-0.5496,-0.8362,-0.1157,-0.0201,-0.0069,0.0246,2043
11,-0.5566,-0.8293,-0.1243,-0.0162,0.0254,0.0392,2038
11,-0.5679,-0.822,-0.0974,-0.0117,-0.0013,0.0334,2042
11,-0.5618,-0.8289,-0.1023,-0.015,-0.0156,0.0334,2040
11,-0.5664,-0.8408,-0.0859,-0.0288,0.006,0.033,2038
11,-0.5774,-0.8477,-0.0737,-0.041,0.0317,0.024,2042
11,-0.5701,-0.832,-0.0771,-0.0405,0.0156,0.0172,2038
11,-0.5586,-0.8308,-0.1025,-0.0356,-0.0015,0.0434,2041
11,-0.5518,-0.8308,-0.1194,-0.0097,0.0025,0.0565,2042
11,-0.5566,-0.8254,-0.1089,-0.0081,0.0047,0.0614,2044
11,-0.5703,-0.8301,-0.0918,-0.0193,0.0123,0.0704,2041
11,-0.5886,-0.8442,-0.0715,-0.0164,0.0092,0.0647,2042
11,-0.5869,-0.8503,-0.0554,-0.0461,0.015,0.0551,2041
11,-0.6318,-0.8816,-0.0557,-0.0997,0.0415,-0.0338,2041
11,-0.5662,-0.7983,-0.1187,-0.0265,-0.016,0.0435,2043
11,-0.5752,-0.8223,-0.127,-0.0177,-0.0525,0.0521,2042
11,-0.5554,-0.8301,-0.1357,-0.0099,-0.0246,0.0517,2041
11,-0.5774,-0.8333,-0.0857,-0.0138,-0.0129,0.0547,2038
11,-0.5774,-0.833,-0.063,-0.0356,-0.0132,0.0503,2039
11,-0.5767,-0.8523,-0.0603,-0.0553,-0.0164,0.0446,2035
11,-0.5608,-0.8491,-0.0925,-0.0479,-0.0073,0.0043,2039
11,-0.5225,-0.8257,-0.1335,0.0043,-0.0478,0.0703,2041
11,-0.5198,-0.8459,-0.1455,-0.0254,0.0134,0.0758,2039
11,-0.5588,-0.821,-0.1401,-0.0111,0.0429,0.0819,2039
11,-0.5713,-0.8198,-0.1169,-0.0242,0.0125,0.0738,2042
11,-0.5781,-0.8354,-0.1111,-0.0406,0.0168,0.068,2049
11,-0.5779,-0.8325,-0.1182,-0.0276,0.0142,0.0583,2040
11,-0.5588,-0.8362,-0.1194,-0.032,-0.0052,0.0522,2041
11,-0.5464,-0.8379,-0.1208,-0.0473,0.0161,0.0589,2037
11,-0.5623,-0.8374,-0.113,-0.0467,0.0328,0.0627,2039
11,-0.574,-0.8291,-0.0933,-0.0704,0.0443,0.0583,2040
11,-0.5725,-0.8291,-0.0991,-0.0751,0.0364,0.0535,2043
11,-0.5654,-0.8142,-0.1206,-0.0723,0.0293,0.0446,2042
11,-0.5608,-0.8237,-0.1223,-0.0634,0.0241,0.0627,2043
11,-0.5586,-0.8215,-0.1274,-0.0607,0.0451,0.0714,2040
11,-0.5789,-0.8252,-0.1074,-0.0561,0.0493,0.0718,2039
11,-0.5769,-0.8237,-0.1155,-0.0577,0.0366,0.0751,2052
11,-0.5872,-0.8284,-0.0874,-0.0538,0.0237,0.0762,2033
11,-0.5933,-0.8301,-0.0803,-0.0613,0.032,0.0776,2039
11,-0.6074,-0.8325,-0.0793,-0.0543,0.0374,0.0744,2034
11,-0.6006,-0.8274,-0.1023,-0.0527,0.0116,0.0651,2044
11,-0.5869,-0.825,-0.1101,-0.0513,0.01,0.0617,2033
12,-0.5764,-0.8113,-0.1245,-0.0397,0.0095,0.0659,2043
12,-0.5764,-0.8103,-0.1382,-0.0261,0.0,0.0679,2043
12,-0.5742,-0.8103,-0.125,-0.0177,-0.0029,0.0722,2041
12,-0.5762,-0.8186,-0.1108,-0.0209,0.0149,0.0771,2035
12,-0.5862,-0.8171,-0.1052,-0.027,0.0192,0.077,2040
12,-0.5842,-0.8262,-0.1226,-0.038,0.0193,0.0658,2039
12,-0.575,-0.8276,-0.1228,-0.0434,0.033,0.0653,2043
12,-0.5771,-0.8018,-0.1584,-0.0245,0.0172,0.0598,2037
12,-0.5701,-0.8032,-0.1707,-0.0462,-0.0007,0.0579,2042
12,-0.5935,-0.8042,-0.1589,-0.0469,0.0177,0.0602,2038
12,-0.6028,-0.7996,-0.1155,-0.0479,0.0019,0.0466,2040
12,-0.6003,-0.811,-0.1067,-0.068,0.0123,0.0517,2042
12,-0.6038,-0.8076,-0.1033,-0.0606,0.0132,0.0493,2039
12,-0.645,-0.7253,-0.1191,-0.0485,0.0658,0.0238,2042
12,-0.3647,-0.6672,-0.092,0.002,-0.1489,-0.1839,2042
12,-0.3918,-0.8538,-0.0701,0.0645,-0.0655,0.0169,2049
12,-0.6926,-0.9568,0.01,-0.1579,0.2016,0.1993,2037
12,-0.7747,-0.854,-0.1519,-0.1754,0.0724,0.1156,2036
12,-0.6667,-0.7986,-0.1836,-0.0948,0.0057,0.0377,2043
12,-0.6016,-0.793,-0.1067,-0.0803,0.0422,0.0402,2045
12,-0.6201,-0.8062,-0.1013,-0.1111,0.032,0.0746,2042
12,-0.6213,-0.8032,-0.1667,-0.0676,-0.0882,0.0614,2043
12,-0.5938,-0.8237,-0.147,-0.0344,-0.1157,0.0443,2040
12,-0.6052,-0.8411,-0.1089,-0.0361,-0.0348,0.0581,2039
12,-0.6106,-0.8374,-0.0771,-0.0553,-0.0346,0.065,2040
12,-0.5901,-0.8174,-0.0715,-0.0712,-0.0645,0.0578,2040
12,-0.5681,-0.8081,-0.0771,-0.0619,-0.0742,0.0518,2039
12,-0.5508,-0.7896,-0.1064,-0.0414,-0.0643,0.0574,2044
12,-0.5479,-0.8054,-0.1296,-0.0415,-0.0453,0.0775,2041
12,-0.5669,-0.8328,-0.1553,-0.0474,-0.0189,0.0792,2039
12,-0.5901,-0.8303,-0.1406,-0.0519,-0.0178,0.065,2041
12,-0.6008,-0.8364,-0.1069,-0.0694,-0.0349,0.0519,2041
12,-0.6057,-0.8445,-0.0991,-0.0852,-0.0366,0.0386,2044
12,-0.6143,-0.8445,-0.1099,-0.0715,-0.0563,0.0192,2044
12,-0.6096,-0.8389,-0.1245,-0.0547,-0.0863,0.0019,2044
12,-0.6116,-0.8445,-0.1345,-0.061,-0.0551,0.0048,2040
12,-0.5964,-0.8469,-0.1465,-0.0384,-0.0545,-0.0072,2040
12,-0.5913,-0.834,-0.1355,-0.0249,-0.0976,-0.0156,2045
12,-0.571,-0.8438,-0.1348,-0.0413,-0.0762,-0.0237,2037
12,-0.5894,-0.8401,-0.1177,-0.0336,-0.0493,-0.0244,2040
12,-0.5881,-0.8308,-0.1157,-0.0178,-0.0726,-0.0376,2044
12,-0.5747,-0.8325,-0.1418,-0.0036,-0.0848,-0.0393,2041
12,-0.5793,-0.8364,-0.1375,-0.0061,-0.0667,-0.0365,2040
12,-0.5889,-0.8274,-0.1409,-0.0019,-0.0533,-0.0376,2041
12,-0.592,-0.8203,-0.1353,-0.0039,-0.0763,-0.0525,2039
12,-0.5813,-0.8267,-0.1321,-0.0276,-0.0732,-0.0547,2043
12,-0.5916,-0.8306,-0.1204,-0.0233,-0.0518,-0.0631,2041
12,-0.5867,-0.8196,-0.1123,-0.0108,-0.0687,-0.0712,2041
12,-0.5825,-0.8267,-0.1003,-0.0097,-0.0917,-0.0755,2042
12,-0.5769,-0.8403,-0.1187,-0.0008,-0.0779,-0.0744,2043
12,-0.5803,-0.8274,-0.1008,0.0134,-0.0695,-0.0726,2041
12,-0.5757,-0.8337,-0.0935,0.0029,-0.0715,-0.0732,2041
12,-0.5945,-0.8381,-0.1045,0.0043,-0.057,-0.0731,2042
12,-0.6086,-0.8389,-0.085,-0.0043,-0.0906,-0.0886,2038
12,-0.606,-0.8347,-0.092,-0.0021,-0.1254,-0.0989,2043
12,-0.5784,-0.8386,-0.1133,0.0181,-0.1354,-0.0993,2042
12,-0.561,-0.8367,-0.1357,0.0209,-0.128,-0.1,2041
12,-0.5518,-0.8335,-0.1323,0.0217,-0.1035,-0.0949,2044
12,-0.5562,-0.8301,-0.1267,0.0308,-0.0933,-0.0904,2041
12,-0.5547,-0.8213,-0.1106,0.0182,-0.0993,-0.0854,2041
12,-0.5625,-0.8225,-0.1194,0.027,-0.0955,-0.0792,2039
12,-0.5562,-0.825,-0.1104,0.0465,-0.1113,-0.0756,2040
12,-0.5415,-0.8376,-0.0972,0.0294,-0.1016,-0.0692,2041
12,-0.5515,-0.835,-0.1013,0.0406,-0.073,-0.0593,2043
12,-0.5608,-0.8425,-0.0957,0.0184,-0.0734,-0.0573,2044
12,-0.5715,-0.8381,-0.114,0.012,-0.0595,-0.0563,2041
12,-0.5879,-0.832,-0.1018,0.0103,-0.0695,-0.0662,2036
12,-0.5879,-0.8481,-0.1118,-0.0056,-0.0711,-0.081,2045
12,-0.5825,-0.8347,-0.1301,-0.0048,-0.0792,-0.0802,2043
12,-0.571,-0.8262,-0.1365,0.0137,-0.1093,-0.0875,2038
12,-0.5601,-0.8345,-0.136,0.0008,-0.112,-0.0925,2039
12,-0.5625,-0.8384,-0.1091,0.0027,-0.0787,-0.0914,2041
12,-0.5671,-0.8333,-0.0952,-0.0067,-0.0772,-0.0963,2041
12,-0.5576,-0.8416,-0.0959,-0.0228,-0.079,-0.0967,2040
12,-0.5466,-0.8337,-0.104,-0.012,-0.078,-0.0919,2045
12,-0.5435,-0.8337,-0.1082,-0.0067,-0.0787,-0.082,2039
12,-0.5457,-0.8411,-0.1147,-0.0185,-0.0555,-0.0738,2040
12,-0.5544,-0.8328,-0.1174,-0.0071,-0.0426,-0.0659,2042
12,-0.5632,-0.822,-0.1211,-0.0115,-0.0539,-0.0619,2043
12,-0.5664,-0.8108,-0.1248,-0.024,-0.0441,-0.0567,2041
12,-0.5769,-0.8047,-0.1106,-0.03,-0.0467,-0.0581,2038
12,-0.5769,-0.8118,-0.1064,-0.0321,-0.0767,-0.0537,2041
12,-0.562,-0.8083,-0.0872,-0.0213,-0.1036,-0.061,2039
12,-0.5552,-0.8362,-0.085,-0.0208,-0.0794,-0.0523,2041
12,-0.5613,-0.8479,-0.0818,-0.0192,-0.0617,-0.0419,2043
12,-0.5474,-0.8596,-0.1064,-0.021,-0.0694,-0.0388,2039
12,-0.5398,-0.8638,-0.135,-0.0031,-0.0736,-0.0285,2042
12,-0.5398,-0.8586,-0.123,0.0036,-0.0788,-0.0284,2043
12,-0.5415,-0.8596,-0.1331,-0.0015,-0.0656,-0.0361,2045
12,-0.5581,-0.8835,-0.1201,-0.015,-0.0353,-0.0382,2042
12,-0.574,-0.9004,-0.115,-0.0491,-0.0028,-0.0418,2040
12,-0.5828,-0.8882,-0.1191,-0.0716,0.0148,-0.0517,2041
12,-0.5935,-0.8918,-0.1289,-0.0723,0.0336,-0.0482,2044
12,-0.5962,-0.8621,-0.1362,-0.0503,0.0113,-0.0505,2042
12,-0.5613,-0.8682,-0.1404,-0.0415,-0.018,-0.0586,2039
12,-0.533,-0.8816,-0.1328,-0.0514,0.0104,-0.0638,2041
12,-0.5405,-0.8818,-0.1135,-0.0519,0.0228,-0.0808,2039
12,-0.5308,-0.8762,-0.0854,-0.0872,0.0016,-0.1,2040
12,-0.5315,-0.8762,-0.0886,-0.104,0.0154,-0.0991,2047
12,-0.5505,-0.8567,-0.0908,-0.0939,0.0181,-0.09,2038
12,-0.5234,-0.8318,-0.1072,-0.068,-0.0097,-0.0848,2044
12,-0.4902,-0.8301,-0.1333,-0.0455,-0.0293,-0.0866,2040
13,-0.4692,-0.8513,-0.1357,-0.0656,0.0131,-0.0772,2041
13,-0.4866,-0.853,-0.1465,-0.0738,0.0495,-0.0723,2038
13,-0.4993,-0.8423,-0.1353,-0.0898,0.0344,-0.0839,2043
13,-0.498,-0.8501,-0.135,-0.1139,0.0324,-0.083,2041
13,-0.5107,-0.8257,-0.1294,-0.1157,0.0344,-0.083,2042
13,-0.4993,-0.821,-0.1421,-0.1029,0.0112,-0.0844,2038
13,-0.4814,-0.8125,-0.1611,-0.0902,-0.0031,-0.0834,2042
13,-0.4771,-0.8181,-0.1538,-0.0948,0.0186,-0.0754,2038
13,-0.4844,-0.821,-0.1443,-0.0977,0.0535,-0.0692,2040
13,-0.4905,-0.8176,-0.1184,-0.0937,0.0402,-0.0722,2041
13,-0.4668,-0.8171,-0.1213,-0.098,0.017,-0.0682,2045
13,-0.4734,-0.8208,-0.0874,-0.0959,0.0039,-0.0546,2044
13,-0.49,-0.8337,-0.0732,-0.1064,0.01,-0.0439,2041
13,-0.5127,-0.8369,-0.0728,-0.1065,-0.0017,-0.0384,2040
13,-0.5305,-0.8325,-0.052,-0.1113,-0.0294,-0.0384,2043
13,-0.5527,-0.8542,-0.0481,-0.1136,-0.0289,-0.0342,2040
13,-0.5732,-0.8611,-0.0447,-0.1139,-0.049,-0.0344,2041
13,-0.5967,-0.8589,-0.0403,-0.1047,-0.0715,-0.0308,2045
13,-0.6074,-0.8748,-0.0403,-0.102,-0.0919,-0.0277,2038
13,-0.5962,-0.8635,-0.0601,-0.0972,-0.1087,-0.022,2044
13,-0.5813,-0.854,-0.0701,-0.0902,-0.1262,-0.023,2041
13,-0.5547,-0.8438,-0.1042,-0.0752,-0.1409,-0.0292,2044
13,-0.5266,-0.8613,-0.1348,-0.0431,-0.1554,-0.0158,2043
13,-0.5315,-0.8618,-0.1536,-0.0088,-0.1495,0.028,2043
13,-0.5283,-0.8711,-0.1592,-0.0248,-0.1249,0.0505,2039
13,-0.5369,-0.8533,-0.1765,-0.0461,-0.0989,0.0491,2043
13,-0.5317,-0.8499,-0.1501,-0.0403,-0.0792,0.0466,2040
13,-0.5344,-0.8594,-0.1345,-0.0535,-0.0794,0.0562,2041
13,-0.5203,-0.8604,-0.1543,-0.0533,-0.1068,0.055,2044
13,-0.511,-0.8689,-0.1633,-0.0361,-0.1128,0.0581,2046
13,-0.5173,-0.8857,-0.1621,-0.02,-0.1117,0.0602,2040
13,-0.51,-0.8958,-0.1628,-0.0349,-0.0935,0.0595,2040
13,-0.5156,-0.8992,-0.1409,-0.0344,-0.0545,0.0555,2039
13,-0.5217,-0.876,-0.1106,-0.0393,-0.0495,0.0463,2040
13,-0.5178,-0.8713,-0.0969,-0.0522,-0.0627,0.0334,2036
13,-0.5273,-0.8699,-0.0847,-0.0482,-0.063,0.0277,2045
13,-0.5271,-0.8687,-0.0894,-0.0377,-0.0816,0.0224,2043
13,-0.5156,-0.8748,-0.1062,-0.0274,-0.0956,0.0145,2043
13,-0.4963,-0.8772,-0.1211,-0.0193,-0.0864,0.0119,2047
13,-0.4988,-0.8757,-0.1277,-0.016,-0.069,0.0184,2039
13,-0.5149,-0.8848,-0.1143,-0.0152,-0.0611,0.016,2038
13,-0.5298,-0.8716,-0.0994,-0.0172,-0.0831,0.008,2040
13,-0.5369,-0.8667,-0.1047,-0.0059,-0.1004,0.0083,2040
13,-0.5366,-0.8604,-0.1094,-0.0101,-0.0988,0.0101,2041
13,-0.5459,-0.8489,-0.1211,0.0047,-0.098,0.0142,2041
13,-0.5305,-0.8442,-0.1365,0.0228,-0.1178,0.0111,2040
13,-0.5151,-0.8442,-0.1536,0.0286,-0.1039,0.0153,2042
13,-0.5051,-0.8518,-0.1633,0.0344,-0.0782,0.0304,2038
13,-0.5125,-0.8489,-0.1523,0.0309,-0.0684,0.0358,2043
13,-0.5139,-0.8621,-0.1318,0.0181,-0.0586,0.0392,2041
13,-0.531,-0.875,-0.1155,0.0068,-0.0534,0.035,2044
13,-0.5366,-0.8611,-0.1238,0.0146,-0.057,0.0358,2040
13,-0.5283,-0.863,-0.1252,0.0077,-0.0578,0.0332,2042
13,-0.5334,-0.8608,-0.1426,-0.0181,-0.018,0.0336,2043
13,-0.5398,-0.8525,-0.1326,-0.0117,-0.0138,0.0236,2043
13,-0.5181,-0.8398,-0.1484,-0.0112,-0.038,0.0145,2040
13,-0.4976,-0.8557,-0.1497,0.004,-0.0446,0.0202,2041
13,-0.4949,-0.8745,-0.1543,0.0115,-0.0394,0.0228,2039
13,-0.5076,-0.8816,-0.127,-0.0077,-0.017,0.0305,2038
13,-0.5308,-0.8708,-0.1074,-0.0103,0.0095,0.0336,2038
13,-0.5278,-0.8748,-0.1028,-0.0318,0.0032,0.0242,2043
13,-0.5293,-0.8513,-0.1069,-0.0433,0.0031,0.0221,2040
13,-0.543,-0.8464,-0.1104,-0.0475,-0.0103,0.0196,2040
13,-0.53,-0.8496,-0.1348,-0.0266,-0.028,0.0045,2040
13,-0.5217,-0.8354,-0.1414,-0.0226,-0.039,0.0092,2041
13,-0.5234,-0.8547,-0.1243,-0.029,-0.0406,0.0099,2038
13,-0.5496,-0.866,-0.0916,-0.0233,-0.0474,0.0035,2039
13,-0.5554,-0.8674,-0.075,-0.0417,-0.0594,-0.0011,2040
13,-0.5623,-0.8657,-0.0708,-0.0574,-0.0423,0.0025,2039
13,-0.5574,-0.8618,-0.0989,-0.0378,-0.0479,-0.0024,2040
13,-0.541,-0.8428,-0.1333,-0.0202,-0.0736,0.0001,2037
13,-0.5215,-0.8442,-0.168,-0.0073,-0.0795,0.0035,2043
13,-0.5217,-0.8357,-0.1643,0.0,-0.0438,0.0028,2040
13,-0.5271,-0.8298,-0.1536,0.0192,-0.0442,-0.0245,2040
13,-0.4819,-0.8411,-0.1409,0.0051,-0.0806,-0.0293,2039
13,-0.5276,-0.8809,-0.1243,0.0091,-0.051,0.0185,2041
13,-0.5608,-0.8948,-0.1233,-0.0208,-0.0216,0.0297,2037
13,-0.5671,-0.8682,-0.1382,-0.0318,-0.0446,0.0154,2039
13,-0.5464,-0.8708,-0.1292,-0.022,-0.0423,0.0016,2041
13,-0.5415,-0.8667,-0.1184,-0.0278,-0.0228,0.0039,2038
13,-0.5352,-0.842,-0.1306,-0.031,-0.0321,0.0048,2041
13,-0.5156,-0.8401,-0.1514,-0.0222,-0.0846,-0.0001,2039
13,-0.5044,-0.8489,-0.1519,-0.0131,-0.0895,0.0093,2039
13,-0.5161,-0.863,-0.1287,-0.018,-0.0498,0.0189,2042
13,-0.5378,-0.8572,-0.1013,-0.0288,-0.0417,0.0248,2044
13,-0.5334,-0.8584,-0.0867,-0.0301,-0.0542,0.0186,2037
13,-0.5383,-0.8667,-0.084,-0.0425,-0.0473,0.0209,2041
13,-0.5457,-0.8499,-0.0991,-0.0354,-0.0418,0.0252,2040
13,-0.5259,-0.8474,-0.1201,-0.0316,-0.0507,0.031,2042
13,-0.5251,-0.845,-0.1328,-0.0253,-0.041,0.0346,2043
13,-0.5242,-0.8394,-0.1443,-0.0282,-0.0306,0.0422,2039
13,-0.5254,-0.8369,-0.1226,-0.0321,-0.0393,0.0438,2043
13,-0.5449,-0.8503,-0.095,-0.043,-0.0442,0.0451,2044
13,-0.5503,-0.8538,-0.0913,-0.0574,-0.0413,0.0459,2040
13,-0.5408,-0.8525,-0.0823,-0.0565,-0.0394,0.0455,2043
13,-0.5317,-0.856,-0.0984,-0.0553,-0.0401,0.0437,2039
13,-0.5269,-0.8506,-0.1206,-0.0481,-0.0429,0.0533,2045
13,-0.5317,-0.8562,-0.1367,-0.0494,-0.0381,0.0614,2037
13,-0.532,-0.8518,-0.1416,-0.0454,-0.0292,0.0659,2042
13,-0.5315,-0.8506,-0.1416,-0.0407,-0.0384,0.0683,2044
13,-0.5342,-0.8572,-0.1226,-0.0467,-0.0329,0.0679,2041
13,-0.5339,-0.8567,-0.105,-0.0478,-0.0224,0.073,2041
13,-0.5359,-0.8486,-0.0957,-0.0494,-0.0226,0.0695,2041
14,-0.5369,-0.853,-0.1069,-0.0573,-0.0332,0.0682,2041
14,-0.5359,-0.8569,-0.1067,-0.0571,-0.0265,0.0682,2043
14,-0.5393,-0.8589,-0.0989,-0.0593,-0.0352,0.0606,2049
14,-0.5381,-0.8567,-0.0928,-0.0602,-0.0475,0.0578,2039
14,-0.5422,-0.8533,-0.1106,-0.0525,-0.0597,0.0563,2039
14,-0.5237,-0.8481,-0.1221,-0.0478,-0.0477,0.0589,2040
14,-0.5286,-0.8586,-0.1096,-0.0566,-0.0229,0.0622,2044
14,-0.5437,-0.8606,-0.1101,-0.0687,-0.0202,0.0595,2040
14,-0.5457,-0.8518,-0.1079,-0.0674,-0.0293,0.0515,2046
14,-0.5344,-0.8567,-0.1147,-0.0554,-0.0392,0.0498,2045
14,-0.5295,-0.8586,-0.1311,-0.0486,-0.0293,0.0578,2041
14,-0.5391,-0.8618,-0.1416,-0.0551,-0.0162,0.0583,2039
14,-0.5593,-0.8491,-0.145,-0.0522,0.0189,0.0668,2042
14,-0.5422,-0.8508,-0.1409,-0.0403,-0.0019,0.0589,2039
14,-0.5435,-0.8494,-0.1438,-0.0519,-0.0172,0.0582,2042
14,-0.5432,-0.8501,-0.1331,-0.045,-0.0119,0.0513,2044
14,-0.55,-0.8442,-0.1226,-0.0312,-0.0214,0.0497,2044
14,-0.5371,-0.8545,-0.1179,-0.0426,-0.0149,0.0513,2040
14,-0.54,-0.8452,-0.1296,-0.038,-0.0145,0.0549,2038
14,-0.5403,-0.8491,-0.1243,-0.0469,-0.0107,0.0594,2040
14,-0.5479,-0.844,-0.1218,-0.0462,-0.0041,0.0635,2042
14,-0.5461,-0.8345,-0.1221,-0.0441,-0.0226,0.0578,2040
14,-0.5376,-0.8386,-0.1292,-0.0349,-0.0217,0.0546,2039
14,-0.5371,-0.8521,-0.1199,-0.0374,-0.0153,0.0533,2043
14,-0.5449,-0.8508,-0.1191,-0.0306,-0.0148,0.0594,2038
14,-0.552,-0.8508,-0.1223,-0.0258,-0.0238,0.0589,2038
14,-0.5598,-0.8542,-0.1121,-0.0308,-0.0061,0.0581,2040
14,-0.5625,-0.8464,-0.0991,-0.0265,0.0021,0.0574,2041
14,-0.5664,-0.8511,-0.1104,-0.0316,-0.0125,0.0474,2038
14,-0.5544,-0.8511,-0.1101,-0.027,-0.0258,0.0415,2041
14,-0.5496,-0.8503,-0.1123,-0.0321,-0.0411,0.0373,2044
14,-0.5474,-0.8584,-0.1196,-0.0366,-0.0309,0.0338,2036
14,-0.5571,-0.8481,-0.1287,-0.0313,-0.0321,0.0309,2042
14,-0.5474,-0.8464,-0.1379,-0.023,-0.0399,0.0217,2043
14,-0.5476,-0.8494,-0.127,-0.0288,-0.035,0.0216,2036
14,-0.5525,-0.853,-0.1343,-0.0277,-0.0338,0.0116,2041
14,-0.5464,-0.8538,-0.1272,-0.0257,-0.034,0.008,2041
14,-0.5496,-0.8545,-0.1223,-0.0342,-0.0297,0.008,2040
14,-0.5498,-0.8445,-0.1331,-0.0322,-0.0357,0.0047,2040
14,-0.542,-0.8447,-0.1414,-0.0278,-0.0471,0.0055,2046
14,-0.541,-0.8484,-0.1453,-0.0297,-0.0481,0.0041,2046
14,-0.5505,-0.8491,-0.1631,-0.0119,-0.0555,-0.0009,2041
14,-0.5471,-0.8408,-0.1436,-0.0146,-0.0676,-0.0093,2044
14,-0.5503,-0.8481,-0.1228,-0.0188,-0.0647,-0.0071,2040
14,-0.5508,-0.8511,-0.1121,-0.0272,-0.0581,-0.0124,2044
14,-0.5574,-0.842,-0.0977,-0.0405,-0.0578,-0.0132,2044
14,-0.5588,-0.8374,-0.0959,-0.0525,-0.0562,-0.0084,2037
14,-0.552,-0.8269,-0.1135,-0.0463,-0.0719,-0.0071,2043
14,-0.5339,-0.8303,-0.1404,-0.0357,-0.0818,0.0001,2044
14,-0.5176,-0.8279,-0.1472,-0.0204,-0.0742,0.0161,2041
14,-0.5288,-0.8403,-0.1487,-0.0192,-0.0487,0.0314,2039
14,-0.5544,-0.8472,-0.1538,-0.0172,-0.0296,0.0374,2040
14,-0.5723,-0.8418,-0.1387,-0.015,-0.016,0.0433,2040
14,-0.5596,-0.8599,-0.1313,-0.0117,-0.0364,0.0228,2043
14,-0.5557,-0.843,-0.1418,-0.0005,-0.0481,0.0129,2042
14,-0.5483,-0.8625,-0.123,0.0105,-0.0664,0.0087,2044
14,-0.5376,-0.8647,-0.1304,0.0057,-0.0645,0.0007,2044
14,-0.5425,-0.873,-0.1282,0.0003,-0.0499,-0.0005,2041
14,-0.5376,-0.8645,-0.1221,-0.0101,-0.0551,-0.01,2040
14,-0.5422,-0.8547,-0.1089,-0.0182,-0.0703,-0.0173,2044
14,-0.5322,-0.8562,-0.1182,-0.0224,-0.0716,-0.0242,2040
14,-0.5337,-0.8506,-0.126,-0.0208,-0.0758,-0.0234,2041
14,-0.5271,-0.8552,-0.126,-0.019,-0.076,-0.0226,2040
14,-0.5354,-0.8416,-0.1318,-0.0129,-0.0663,-0.0196,2046
14,-0.5437,-0.8508,-0.1428,-0.012,-0.0585,-0.0153,2041
14,-0.5498,-0.8508,-0.136,-0.0121,-0.0625,-0.0169,2040
14,-0.5564,-0.8513,-0.1414,-0.0193,-0.0664,-0.0174,2038
14,-0.5627,-0.8572,-0.1296,-0.0346,-0.0441,-0.0157,2043
14,-0.5603,-0.8418,-0.1345,-0.0397,-0.0533,-0.0248,2038
14,-0.5537,-0.8394,-0.1333,-0.0292,-0.0838,-0.0325,2035
14,-0.5427,-0.8477,-0.1523,-0.0127,-0.0953,-0.03,2045
14,-0.5203,-0.8447,-0.1631,0.0073,-0.0948,-0.0264,2041
14,-0.5164,-0.8591,-0.1423,0.004,-0.0694,-0.0173,2041
14,-0.5486,-0.8604,-0.1047,0.0023,-0.0505,-0.0156,2036
14,-0.552,-0.8523,-0.0835,-0.0077,-0.0641,-0.0192,2041
14,-0.5532,-0.8577,-0.0764,-0.0244,-0.0754,-0.031,2038
14,-0.5469,-0.8638,-0.0891,-0.0266,-0.077,-0.0421,2044
14,-0.5432,-0.8682,-0.0847,-0.0276,-0.0866,-0.0478,2043
14,-0.5415,-0.8569,-0.1248,-0.0397,-0.082,-0.0449,2040
14,-0.533,-0.8516,-0.1707,-0.0401,-0.0686,-0.0377,2039
14,-0.5278,-0.8394,-0.198,-0.022,-0.0688,-0.0322,2039
14,-0.5161,-0.8369,-0.1978,-0.0056,-0.0716,-0.0221,2043
14,-0.5193,-0.8359,-0.1853,-0.0085,-0.0557,-0.0107,2045
14,-0.5342,-0.8477,-0.156,-0.0052,-0.0481,-0.0099,2038
14,-0.5315,-0.8604,-0.136,-0.0165,-0.0559,-0.0217,2044
14,-0.5134,-0.8586,-0.1223,-0.0289,-0.0413,-0.0204,2037
14,-0.5205,-0.854,-0.1099,-0.0214,-0.0365,-0.0133,2044
14,-0.52,-0.8462,-0.106,-0.0201,-0.0518,-0.0061,2042
14,-0.5356,-0.8623,-0.1091,-0.0226,-0.0754,-0.008,2042
14,-0.5354,-0.8601,-0.1265,-0.0442,-0.0688,-0.01,2042
14,-0.5449,-0.8604,-0.1023,-0.043,-0.0497,-0.0069,2038
14,-0.5461,-0.8601,-0.1079,-0.0453,-0.055,-0.0112,2041
14,-0.533,-0.8621,-0.104,-0.0498,-0.0835,-0.019,2043
14,-0.5249,-0.8613,-0.0898,-0.033,-0.1021,-0.0221,2038
14,-0.5244,-0.8564,-0.0747,-0.0112,-0.1284,-0.0266,2044
14,-0.5291,-0.875,-0.051,-0.0229,-0.1261,-0.0214,2036
14,-0.5535,-0.8772,-0.0603,-0.0405,-0.1059,-0.0229,2041
14,-0.5581,-0.8743,-0.0613,-0.0411,-0.1072,-0.0342,2042
14,-0.5469,-0.874,-0.0623,-0.0594,-0.1008,-0.0399,2048
14,-0.5312,-0.8579,-0.0835,-0.0637,-0.1028,-0.0318,2043
15,-0.5259,-0.8459,-0.0999,-0.059,-0.1175,-0.0345,2044
15,-0.5212,-0.8369,-0.1123,-0.0589,-0.1253,-0.0242,2035
15,-0.5276,-0.8396,-0.1392,-0.0519,-0.1336,-0.0168,2042
15,-0.5237,-0.8391,-0.1472,-0.0638,-0.1257,-0.0089,2042
15,-0.5332,-0.8489,-0.1482,-0.0716,-0.1161,-0.0065,2038
15,-0.5227,-0.8608,-0.1245,-0.0779,-0.1072,-0.0129,2043
15,-0.5098,-0.8569,-0.1323,-0.0645,-0.1152,-0.0089,2042
15,-0.5054,-0.8574,-0.1382,-0.0706,-0.1084,0.0009,2043
15,-0.5134,-0.8518,-0.1533,-0.0816,-0.0683,0.0214,2038
15,-0.5139,-0.8525,-0.1538,-0.0702,-0.0533,0.0254,2044
15,-0.5186,-0.8577,-0.1436,-0.0782,-0.0645,0.0238,2042
15,-0.5,-0.8635,-0.1501,-0.084,-0.0579,0.0254,2045
15,-0.4873,-0.8679,-0.1333,-0.0916,-0.0511,0.0304,2038
15,-0.4883,-0.8645,-0.123,-0.0992,-0.036,0.029,2043
15,-0.4958,-0.8569,-0.1016,-0.1128,-0.0306,0.0304,2042
15,-0.4854,-0.8574,-0.0837,-0.1163,-0.0205,0.0294,2050
15,-0.4849,-0.8687,-0.0718,-0.1193,-0.0076,0.0268,2043
15,-0.4751,-0.8821,-0.0669,-0.1184,-0.0057,0.0296,2045
15,-0.4758,-0.8911,-0.0688,-0.1344,0.0051,0.0324,2043
15,-0.4873,-0.9055,-0.0657,-0.1483,0.0142,0.0309,2042
15,-0.5042,-0.8931,-0.0806,-0.149,0.0194,0.0249,2043
15,-0.5178,-0.8809,-0.0911,-0.1623,0.0254,0.0168,2040
15,-0.5315,-0.8611,-0.1255,-0.1665,0.0236,0.0127,2046
15,-0.5413,-0.8601,-0.1475,-0.1875,0.0105,-0.0127,2040
15,-0.5417,-0.8625,-0.1472,-0.1969,0.0063,-0.0328,2043
15,-0.5442,-0.8674,-0.137,-0.2123,-0.0025,-0.0431,2043
15,-0.5417,-0.8604,-0.1416,-0.2063,0.0088,-0.0399,2035
15,-0.5317,-0.884,-0.1311,-0.2105,-0.006,-0.0627,2046
15,-0.5466,-0.8716,-0.1384,-0.2097,-0.0113,-0.0682,2039
15,-0.5471,-0.8655,-0.1448,-0.2236,-0.0257,-0.0735,2036
15,-0.5583,-0.8516,-0.1331,-0.2256,-0.0313,-0.0752,2037
15,-0.551,-0.8521,-0.1394,-0.2296,-0.0485,-0.076,2039
15,-0.5618,-0.8374,-0.1462,-0.2205,-0.0682,-0.0787,2040
15,-0.5527,-0.8494,-0.1255,-0.2229,-0.0775,-0.0782,2040
15,-0.5603,-0.8384,-0.1172,-0.2048,-0.0989,-0.0727,2042
15,-0.5447,-0.8323,-0.1174,-0.1835,-0.1317,-0.0653,2044
15,-0.5266,-0.8489,-0.1316,-0.1694,-0.1481,-0.0503,2041
15,-0.5217,-0.8413,-0.1238,-0.1537,-0.1424,-0.0382,2043
15,-0.5156,-0.8506,-0.1099,-0.1511,-0.1441,-0.0297,2049
15,-0.5151,-0.8574,-0.1086,-0.1543,-0.1607,-0.0212,2041
15,-0.5156,-0.8606,-0.1406,-0.1667,-0.1575,-0.0154,2040
15,-0.5217,-0.8604,-0.1826,-0.1609,-0.1372,-0.0101,2039
15,-0.5264,-0.8501,-0.2053,-0.1474,-0.1178,-0.0188,2041
15,-0.5095,-0.8513,-0.2322,-0.1563,-0.1108,-0.0221,2039
15,-0.511,-0.8359,-0.2449,-0.1609,-0.1268,-0.0358,2040
15,-0.4941,-0.8379,-0.2449,-0.1478,-0.1518,-0.0479,2037
15,-0.4944,-0.8442,-0.2126,-0.1586,-0.1581,-0.0474,2040
15,-0.4961,-0.854,-0.1904,-0.1635,-0.1422,-0.0433,2042
15,-0.4924,-0.8567,-0.1763,-0.1619,-0.1332,-0.0376,2041
15,-0.4888,-0.8535,-0.1545,-0.1743,-0.1123,-0.0306,2040
15,-0.4861,-0.8557,-0.1384,-0.1792,-0.0862,-0.0214,2042
15,-0.4873,-0.8586,-0.1479,-0.1629,-0.0927,-0.0109,2046
15,-0.4814,-0.8782,-0.1531,-0.1574,-0.1124,-0.0057,2044
15,-0.4998,-0.8972,-0.1523,-0.1511,-0.1151,-0.0009,2040
15,-0.5354,-0.8918,-0.144,-0.1602,-0.1268,-0.0043,2038
15,-0.5542,-0.8884,-0.1135,-0.1784,-0.1412,-0.0224,2047
15,-0.5881,-0.8877,-0.103,-0.2069,-0.1434,-0.0453,2045
15,-0.5945,-0.8716,-0.0989,-0.2135,-0.1678,-0.074,2043
15,-0.5791,-0.8333,-0.1248,-0.1989,-0.2352,-0.0914,2040
15,-0.5449,-0.8311,-0.1426,-0.1824,-0.2823,-0.1019,2044
15,-0.5269,-0.8562,-0.1597,-0.1876,-0.2674,-0.09,2040
15,-0.5225,-0.863,-0.1655,-0.1711,-0.2294,-0.0786,2044
15,-0.5281,-0.8538,-0.1594,-0.1606,-0.2457,-0.075,2039
15,-0.5386,-0.8518,-0.1697,-0.1614,-0.2461,-0.0561,2044
15,-0.5383,-0.8477,-0.1741,-0.1531,-0.2402,-0.0518,2040
15,-0.5361,-0.8267,-0.2034,-0.1216,-0.2468,-0.0485,2041
15,-0.5334,-0.8284,-0.2034,-0.108,-0.2876,-0.0388,2043
15,-0.5337,-0.8562,-0.2034,-0.1028,-0.2864,-0.0368,2041
15,-0.5574,-0.8777,-0.1729,-0.0932,-0.2792,-0.0417,2043
15,-0.5415,-0.8931,-0.1536,-0.1069,-0.2942,-0.0462,2038
15,-0.5291,-0.8757,-0.1521,-0.1107,-0.3045,-0.0486,2043
15,-0.5298,-0.8621,-0.1392,-0.1044,-0.3119,-0.039,2041
15,-0.5388,-0.8508,-0.1455,-0.1137,-0.3144,-0.0381,2044
15,-0.5293,-0.8398,-0.1755,-0.1005,-0.3109,-0.0431,2037
15,-0.5042,-0.8318,-0.2002,-0.0868,-0.3153,-0.0381,2041
15,-0.4792,-0.8276,-0.2412,-0.0935,-0.3073,-0.0225,2039
15,-0.4775,-0.8389,-0.2407,-0.1033,-0.283,-0.0123,2038
15,-0.4558,-0.8464,-0.2422,-0.0961,-0.2618,-0.0027,2038
15,-0.4482,-0.8442,-0.2175,-0.1076,-0.2655,0.0048,2042
15,-0.4441,-0.8516,-0.1914,-0.1306,-0.2264,0.0105,2039
15,-0.4734,-0.8552,-0.1694,-0.1436,-0.1824,0.0164,2041
15,-0.4646,-0.8496,-0.1567,-0.1486,-0.1818,0.0164,2042
15,-0.4521,-0.8413,-0.1521,-0.1354,-0.1727,0.0234,2042
15,-0.4568,-0.8442,-0.1572,-0.1266,-0.1457,0.033,2040
15,-0.4551,-0.8711,-0.1619,-0.149,-0.112,0.0471,2049
15,-0.4683,-0.8699,-0.1575,-0.1517,-0.0854,0.0518,2038
15,-0.4817,-0.8696,-0.1646,-0.1503,-0.0704,0.055,2038
15,-0.4822,-0.877,-0.1738,-0.1617,-0.0422,0.0529,2040
15,-0.49,-0.8679,-0.188,-0.1451,-0.0413,0.0499,2042
15,-0.4897,-0.8723,-0.1807,-0.134,-0.0595,0.0415,2042
15,-0.5083,-0.8704,-0.1755,-0.138,-0.0402,0.047,2043
15,-0.5205,-0.8699,-0.1743,-0.1076,-0.0376,0.043,2039
15,-0.542,-0.8667,-0.1396,-0.1095,-0.055,0.0348,2041
15,-0.5532,-0.885,-0.1389,-0.1161,-0.0485,0.0296,2042
15,-0.5625,-0.8901,-0.1343,-0.1099,-0.0573,0.0204,2038
15,-0.5632,-0.8918,-0.137,-0.1155,-0.0639,0.0097,2041
15,-0.5667,-0.8706,-0.1626,-0.1139,-0.0638,0.0079,2035
15,-0.5547,-0.8489,-0.1963,-0.0943,-0.0836,0.0049,2039
15,-0.5342,-0.8323,-0.2056,-0.0727,-0.1128,0.0033,2043
16,-0.5178,-0.8306,-0.2148,-0.0561,-0.1095,0.0119,2040
16,-0.5098,-0.8386,-0.2117,-0.0272,-0.0902,0.0214,2042
16,-0.5098,-0.855,-0.2012,-0.0181,-0.0743,0.027,2044
16,-0.5122,-0.8638,-0.2009,-0.0169,-0.0482,0.0333,2043
16,-0.5254,-0.8665,-0.1941,-0.0117,-0.0501,0.0366,2040
16,-0.5239,-0.8655,-0.1724,-0.0201,-0.0633,0.0353,2042
16,-0.5273,-0.8525,-0.1709,-0.0245,-0.0675,0.0399,2041
16,-0.5249,-0.8467,-0.1951,-0.0055,-0.0658,0.0422,2040
16,-0.5188,-0.8455,-0.2058,0.0165,-0.0637,0.0459,2043
16,-0.5181,-0.8533,-0.208,0.0093,-0.0471,0.0523,2053
16,-0.5117,-0.8577,-0.199,0.014,-0.0146,0.0537,2043
16,-0.5061,-0.8513,-0.1804,0.0197,-0.0127,0.0505,2042
16,-0.4958,-0.8474,-0.1873,0.0127,-0.0091,0.0565,2045
16,-0.4966,-0.8496,-0.1667,0.0185,-0.0053,0.0646,2040
16,-0.4915,-0.8477,-0.1689,0.022,0.0089,0.0734,2040
16,-0.4971,-0.8481,-0.1584,0.0246,0.0172,0.0762,2043
16,-0.4919,-0.8445,-0.1589,0.0336,0.0266,0.0787,2041
16,-0.4983,-0.8608,-0.1575,0.0296,0.0337,0.0776,2042
16,-0.4929,-0.8574,-0.1631,0.0322,0.0353,0.0786,2041
16,-0.5078,-0.8628,-0.1619,0.0326,0.0384,0.0856,2039
16,-0.522,-0.8599,-0.1648,0.0292,0.0473,0.0839,2047
16,-0.543,-0.8496,-0.1572,0.0274,0.0465,0.0808,2043
16,-0.5461,-0.8435,-0.1682,0.0256,0.0346,0.0678,2042
16,-0.5413,-0.8406,-0.178,0.033,0.0269,0.0634,2041
16,-0.5278,-0.8474,-0.1797,0.0405,0.0261,0.0542,2042
16,-0.5269,-0.8462,-0.189,0.0509,0.027,0.0582,2037
16,-0.5208,-0.842,-0.1978,0.0664,0.0264,0.0647,2043
16,-0.5046,-0.8523,-0.1914,0.0591,0.0477,0.0707,2045
16,-0.5254,-0.8569,-0.1804,0.0502,0.0727,0.0811,2038
16,-0.5366,-0.8464,-0.1626,0.0459,0.0668,0.0783,2043
16,-0.5481,-0.8469,-0.1558,0.0378,0.0655,0.0766,2043
16,-0.551,-0.8494,-0.1584,0.0402,0.0658,0.0707,2040
16,-0.5513,-0.8511,-0.1555,0.036,0.0575,0.0638,2040
16,-0.553,-0.8464,-0.1792,0.0429,0.038,0.0586,2042
16,-0.5356,-0.8508,-0.1785,0.0438,0.0345,0.0551,2046
16,-0.5334,-0.8538,-0.178,0.0446,0.0414,0.0586,2041
16,-0.5327,-0.8499,-0.1853,0.0534,0.0485,0.0573,2043
16,-0.5378,-0.8494,-0.1555,0.0607,0.0395,0.0538,2040
16,-0.5293,-0.8425,-0.1609,0.0498,0.0499,0.0537,2039
16,-0.5266,-0.8438,-0.1462,0.0502,0.0561,0.0521,2038
16,-0.5178,-0.8367,-0.1567,0.0682,0.0439,0.0521,2041
16,-0.5076,-0.8447,-0.1687,0.0641,0.0418,0.0519,2043
16,-0.5056,-0.8555,-0.1909,0.0679,0.0598,0.0625,2040
16,-0.5286,-0.8535,-0.1826,0.0711,0.0732,0.0658,2041
16,-0.5461,-0.8513,-0.1665,0.0581,0.0539,0.0566,2040
16,-0.5498,-0.8562,-0.1479,0.0501,0.0429,0.0509,2043
16,-0.5479,-0.8464,-0.1484,0.0507,0.0513,0.0441,2039
16,-0.5415,-0.834,-0.168,0.0653,0.0395,0.0433,2039
16,-0.5354,-0.8303,-0.1755,0.0746,0.0253,0.0443,2041
16,-0.5361,-0.8389,-0.1819,0.0806,0.0185,0.0356,2044
16,-0.519,-0.8416,-0.179,0.082,0.0298,0.0352,2045
16,-0.5269,-0.8574,-0.1572,0.0822,0.0474,0.0446,2045
16,-0.5288,-0.8628,-0.1611,0.0774,0.0505,0.0429,2039
16,-0.5178,-0.864,-0.1594,0.0676,0.0477,0.0402,2042
16,-0.5322,-0.8604,-0.1604,0.0626,0.0639,0.0446,2035
16,-0.54,-0.8403,-0.166,0.07,0.0537,0.0405,2037
16,-0.5312,-0.8394,-0.1743,0.0747,0.0292,0.0329,2039
16,-0.5364,-0.843,-0.1868,0.074,0.0256,0.0264,2047
16,-0.5352,-0.8464,-0.1897,0.0945,0.0153,0.0224,2040
16,-0.5334,-0.8528,-0.1689,0.083,0.0073,0.018,2044
16,-0.531,-0.8574,-0.1721,0.083,0.0262,0.0146,2042
16,-0.542,-0.856,-0.1353,0.0831,0.0282,0.0099,2042
16,-0.5425,-0.8479,-0.1235,0.0611,0.035,0.0138,2041
16,-0.5457,-0.8411,-0.1438,0.0443,0.0278,0.0157,2042
16,-0.5366,-0.8208,-0.1675,0.035,0.0201,0.0168,2040
16,-0.5354,-0.8262,-0.1763,0.0454,0.0153,0.0182,2043
16,-0.5234,-0.8354,-0.1682,0.0413,0.0196,0.0137,2043
16,-0.5149,-0.8442,-0.166,0.0376,0.0328,0.0071,2041
16,-0.512,-0.8511,-0.1653,0.0417,0.0162,0.0108,2042
16,-0.5212,-0.8567,-0.144,0.0394,0.0088,0.0173,2042
16,-0.5369,-0.8672,-0.1255,0.0314,0.0154,0.0262,2043
16,-0.5583,-0.864,-0.126,0.0297,0.0128,0.0258,2040
16,-0.5498,-0.8533,-0.1233,0.0421,-0.0044,0.0241,2038
16,-0.5383,-0.856,-0.1384,0.0376,-0.0132,0.0234,2040
16,-0.5334,-0.8496,-0.1565,0.0414,-0.0137,0.0224,2042
16,-0.5247,-0.8604,-0.1467,0.0439,-0.0181,0.0238,2041
16,-0.5239,-0.8586,-0.1399,0.0292,-0.0129,0.0217,2039
16,-0.5195,-0.8733,-0.1414,0.033,-0.0091,0.0216,2045
16,-0.5171,-0.8699,-0.1443,0.0248,-0.0097,0.0214,2037
16,-0.5198,-0.8721,-0.1433,0.0013,-0.0035,0.0188,2041
16,-0.5205,-0.8601,-0.1619,0.0069,-0.004,0.0154,2041
16,-0.5188,-0.8599,-0.1565,0.0063,-0.0055,0.0097,2042
16,-0.5325,-0.8564,-0.1526,0.0027,-0.0052,0.0056,2040
16,-0.5339,-0.8281,-0.1624,0.0044,-0.0228,-0.0016,2039
16,-0.5391,-0.8394,-0.1509,0.0085,-0.0406,-0.0051,2040
16,-0.5298,-0.8489,-0.1428,0.0084,-0.0438,0.0024,2041
16,-0.5208,-0.8513,-0.1396,0.0127,-0.0475,0.0053,2041
16,-0.5161,-0.8689,-0.1343,0.0152,-0.0328,0.0138,2040
16,-0.5293,-0.8623,-0.1423,0.0083,-0.0144,0.0252,2040
16,-0.5471,-0.8679,-0.146,0.0007,-0.0145,0.0222,2039
16,-0.5457,-0.8586,-0.1414,0.0023,-0.0282,0.0162,2041
16,-0.5488,-0.8528,-0.1624,0.0055,-0.0463,0.0096,2039
16,-0.5396,-0.8516,-0.1704,0.0036,-0.0481,0.0057,2046
16,-0.533,-0.8459,-0.177,0.0153,-0.0489,0.0009,2041
16,-0.5266,-0.8464,-0.157,0.0127,-0.0594,-0.0024,2039
16,-0.5161,-0.8579,-0.1414,-0.0035,-0.0362,-0.0015,2043
16,-0.5164,-0.8633,-0.1328,0.0016,-0.03,0.0009,2042
16,-0.5156,-0.8635,-0.1243,-0.0146,-0.0442,-0.0012,2046
16,-0.5137,-0.8662,-0.1396,-0.0273,-0.0366,-0.0032,2044
16,-0.5173,-0.8552,-0.145,-0.0158,-0.0401,-0.0072,2042
16,-0.5186,-0.8481,-0.1536,-0.0084,-0.0518,-0.0064,2040
16,-0.5195,-0.8438,-0.1819,-0.0063,-0.0494,0.0009,2040
16,-0.5269,-0.8408,-0.1592,0.0089,-0.0426,0.0039,2040
16,-0.5339,-0.8459,-0.1245,0.0005,-0.0465,0.0028,2040
16,-0.53,-0.8613,-0.1177,-0.0067,-0.0546,0.0035,2041
16,-0.5342,-0.8721,-0.1189,-0.021,-0.0563,-0.0004,2040
16,-0.5442,-0.8689,-0.1277,-0.033,-0.0502,-0.0029,2040
16,-0.5312,-0.8501,-0.1521,-0.0104,-0.0711,-0.0036,2042
16,-0.52,-0.8562,-0.175,-0.0115,-0.087,-0.004,2041
17,-0.5149,-0.8572,-0.1787,-0.0136,-0.07,-0.0032,2044
17,-0.5225,-0.8506,-0.1685,0.0001,-0.0621,-0.0013,2036
17,-0.5093,-0.8516,-0.1619,-0.0196,-0.0541,-0.0055,2043
17,-0.5139,-0.854,-0.1477,-0.016,-0.0478,-0.0063,2045
17,-0.5151,-0.8645,-0.1406,-0.0293,-0.0487,-0.0077,2043
17,-0.5234,-0.8647,-0.1169,-0.0505,-0.0451,-0.0109,2041
17,-0.531,-0.8618,-0.1279,-0.0451,-0.0539,-0.0197,2042
17,-0.5242,-0.8545,-0.1379,-0.0405,-0.0672,-0.0242,2039
17,-0.512,-0.8506,-0.1675,-0.0262,-0.0732,-0.0193,2038
17,-0.5176,-0.8491,-0.1748,-0.018,-0.0742,-0.0181,2043
17,-0.5156,-0.8428,-0.1772,-0.0097,-0.0625,-0.0116,2040
17,-0.5227,-0.8552,-0.1609,0.0033,-0.0634,-0.004,2042
17,-0.5293,-0.8684,-0.1401,-0.0053,-0.0617,-0.0063,2042
17,-0.5298,-0.8716,-0.1255,-0.0186,-0.0438,-0.0081,2043
17,-0.5352,-0.8682,-0.1138,-0.0228,-0.0495,-0.0146,2038
17,-0.5315,-0.864,-0.1172,-0.0349,-0.0645,-0.019,2039
17,-0.5269,-0.8572,-0.134,-0.0294,-0.08,-0.017,2039
17,-0.5222,-0.854,-0.1536,-0.0274,-0.0894,-0.0156,2039
17,-0.5129,-0.8606,-0.1672,-0.0224,-0.0834,-0.0109,2045
17,-0.5161,-0.8643,-0.1626,-0.0192,-0.0772,-0.0096,2036
17,-0.5107,-0.8794,-0.157,-0.0229,-0.0726,-0.0181,2042
17,-0.5071,-0.8823,-0.1421,-0.0253,-0.0666,-0.0204,2037
17,-0.5078,-0.8726,-0.1289,-0.0314,-0.0623,-0.0208,2040
17,-0.5151,-0.8677,-0.1306,-0.0365,-0.0605,-0.0216,2040
17,-0.5173,-0.8516,-0.1335,-0.0313,-0.0775,-0.0265,2039
17,-0.5068,-0.8481,-0.1487,-0.025,-0.0863,-0.0261,2041
17,-0.4985,-0.854,-0.1724,-0.0096,-0.0898,-0.0214,2040
17,-0.5022,-0.8582,-0.1611,-0.0056,-0.0925,-0.0137,2044
17,-0.4956,-0.877,-0.1521,-0.0157,-0.0637,-0.0088,2040
17,-0.509,-0.874,-0.1345,-0.0294,-0.0449,-0.0053,2041
17,-0.5146,-0.8625,-0.1316,-0.0461,-0.0497,-0.0107,2040
17,-0.5181,-0.8616,-0.1294,-0.0406,-0.0641,-0.0145,2036
17,-0.5139,-0.8591,-0.127,-0.0384,-0.072,-0.0115,2041
17,-0.5132,-0.8562,-0.1387,-0.0415,-0.0782,-0.0132,2042
17,-0.5139,-0.8555,-0.158,-0.033,-0.0708,-0.0097,2042
17,-0.512,-0.8677,-0.155,-0.0285,-0.061,-0.0061,2036
17,-0.5212,-0.8704,-0.147,-0.0265,-0.0633,0.0015,2044
17,-0.5198,-0.866,-0.1399,-0.0305,-0.0679,0.0043,2042
17,-0.5132,-0.8718,-0.1362,-0.0312,-0.0678,0.0056,2045
17,-0.52,-0.8628,-0.126,-0.0385,-0.0728,0.0104,2040
17,-0.5125,-0.8506,-0.1365,-0.0421,-0.0714,0.0103,2046
17,-0.5142,-0.8521,-0.1421,-0.0497,-0.0694,0.0104,2040
17,-0.4966,-0.8457,-0.1665,-0.0654,-0.0494,0.0149,2037
17,-0.4934,-0.8311,-0.1643,-0.0601,-0.0422,0.0237,2040
17,-0.4905,-0.8401,-0.1685,-0.0582,-0.0591,0.0312,2039
17,-0.4836,-0.8469,-0.1641,-0.0647,-0.0554,0.0434,2038
17,-0.4902,-0.854,-0.1514,-0.0577,-0.0442,0.0579,2037
17,-0.4978,-0.8557,-0.144,-0.0561,-0.0385,0.0606,2041
17,-0.5039,-0.8586,-0.1406,-0.0577,-0.0313,0.0655,2038
17,-0.4988,-0.8667,-0.1431,-0.0599,-0.017,0.0747,2039
17,-0.5029,-0.8594,-0.1355,-0.0617,-0.0099,0.0791,2036
17,-0.4949,-0.8579,-0.145,-0.0554,-0.0077,0.0867,2038
17,-0.5071,-0.8579,-0.1455,-0.0493,-0.014,0.0912,2042
17,-0.5098,-0.8555,-0.1423,-0.0478,-0.0076,0.0952,2035
17,-0.52,-0.8645,-0.1348,-0.0543,-0.0085,0.0887,2038
17,-0.5203,-0.8679,-0.1147,-0.0659,-0.0145,0.0847,2042
17,-0.5225,-0.8743,-0.1047,-0.0784,-0.0047,0.0784,2041
17,-0.5222,-0.8694,-0.1079,-0.094,-0.0099,0.0803,2035
17,-0.5269,-0.8604,-0.1206,-0.0843,-0.0121,0.0788,2043
17,-0.5269,-0.8442,-0.1672,-0.0429,-0.0557,0.0854,2042
17,-0.5044,-0.8613,-0.1648,-0.0385,-0.0711,0.0832,2043
17,-0.51,-0.8713,-0.1624,-0.0403,-0.0156,0.0932,2039
17,-0.533,-0.8638,-0.1492,-0.0337,0.0016,0.0981,2040
17,-0.5317,-0.8555,-0.1379,-0.0477,-0.0225,0.0874,2041
17,-0.5149,-0.8577,-0.1477,-0.0591,-0.0226,0.0851,2041
17,-0.5181,-0.863,-0.1306,-0.0531,-0.0071,0.0888,2040
17,-0.5095,-0.8608,-0.1487,-0.033,-0.0262,0.0892,2038
17,-0.4805,-0.8577,-0.1833,-0.0144,-0.0534,0.0933,2042
17,-0.481,-0.8577,-0.1992,-0.0004,-0.0333,0.1076,2040
17,-0.5134,-0.8528,-0.1794,0.0005,0.0029,0.1171,2043
17,-0.5273,-0.8574,-0.1394,-0.0024,0.0121,0.1112,2040
17,-0.5378,-0.855,-0.1406,-0.0016,0.0206,0.1104,2040
17,-0.5249,-0.8804,-0.1284,0.0001,0.0245,0.1007,2040
17,-0.5276,-0.8748,-0.1235,-0.0057,0.0306,0.1077,2040
17,-0.53,-0.8745,-0.1123,-0.0077,0.0145,0.1037,2041
17,-0.5256,-0.8796,-0.1357,-0.0137,-0.0005,0.0964,2038
17,-0.5325,-0.8665,-0.1516,-0.0051,-0.0045,0.1072,2041
17,-0.5237,-0.8645,-0.1633,-0.0044,0.0089,0.1049,2041
17,-0.5229,-0.8635,-0.1807,0.0077,0.0256,0.1016,2040
17,-0.5278,-0.8594,-0.1753,-0.0032,0.0304,0.0939,2041
17,-0.5356,-0.8513,-0.1643,-0.0178,0.0316,0.0956,2038
17,-0.5359,-0.8542,-0.1445,-0.0198,0.0113,0.0787,2043
17,-0.5344,-0.8457,-0.1377,-0.0182,0.0073,0.0651,2042
17,-0.5244,-0.8457,-0.1575,-0.0119,-0.0173,0.0796,2040
17,-0.5146,-0.8496,-0.1772,-0.0064,-0.0129,0.0796,2048
17,-0.5173,-0.8486,-0.175,-0.0012,0.019,0.0929,2041
17,-0.5374,-0.8535,-0.1689,-0.0073,0.0317,0.0971,2041
17,-0.5486,-0.8547,-0.155,-0.0209,0.0276,0.0923,2039
17,-0.5522,-0.8582,-0.1616,-0.0308,0.0281,0.0855,2039
17,-0.5366,-0.8425,-0.1714,-0.0148,0.0192,0.0816,2041
17,-0.5283,-0.8247,-0.1724,0.0059,0.0164,0.0838,2043
17,-0.5083,-0.8501,-0.1909,0.0166,0.0246,0.0916,2042
17,-0.5198,-0.8438,-0.1838,0.022,0.0449,0.102,2039
17,-0.5459,-0.8364,-0.1655,0.019,0.0475,0.1057,2040
17,-0.5559,-0.8374,-0.1384,0.0076,0.0344,0.0993,2041
17,-0.5498,-0.8381,-0.1296,0.0097,0.027,0.094,2040
17,-0.5466,-0.8281,-0.1387,0.0256,0.0113,0.0955,2039
17,-0.5503,-0.8333,-0.1392,0.0117,0.0075,0.0995,2044
17,-0.5559,-0.8418,-0.1589,-0.0012,0.0205,0.0987,2041
17,-0.5637,-0.8442,-0.1514,-0.0027,0.0124,0.092,2048
17,-0.5491,-0.8455,-0.1592,-0.0133,-0.0012,0.0823,2037
17,-0.5442,-0.8438,-0.1682,-0.0091,0.0097,0.0851,2043
18,-0.5408,-0.8372,-0.1675,-0.0052,0.0152,0.0872,2042
18,-0.5444,-0.8374,-0.1694,0.0057,0.0031,0.0888,2042
18,-0.5432,-0.8408,-0.1755,0.0158,0.0028,0.0866,2043
18,-0.55,-0.8572,-0.1631,0.0225,0.0245,0.0961,2041
18,-0.5615,-0.8489,-0.144,0.0154,0.0241,0.0912,2037
18,-0.5737,-0.8347,-0.1318,0.0065,0.0298,0.0804,2040
18,-0.5618,-0.8574,-0.1233,-0.0075,0.0138,0.075,2042
18,-0.5625,-0.8311,-0.1367,-0.0185,-0.0009,0.0743,2039
18,-0.5637,-0.8291,-0.1555,-0.0149,-0.0258,0.0675,2041
18,-0.5752,-0.8311,-0.168,-0.0091,-0.0277,0.0659,2041
18,-0.5635,-0.8435,-0.1643,-0.0015,-0.028,0.0593,2038
18,-0.5615,-0.8325,-0.1609,0.0025,-0.0237,0.0578,2041
18,-0.5686,-0.8398,-0.1428,-0.0032,-0.0397,0.0554,2042
18,-0.575,-0.8445,-0.1528,-0.0047,-0.0423,0.0559,2039
18,-0.5635,-0.8435,-0.1506,0.0019,-0.0561,0.0466,2039
18,-0.553,-0.8286,-0.1663,0.0015,-0.0672,0.0461,2043
18,-0.5381,-0.8391,-0.1829,0.0043,-0.0573,0.0473,2038
18,-0.5359,-0.8389,-0.1853,0.0004,-0.0262,0.049,2041
18,-0.5439,-0.8372,-0.1628,0.0035,-0.0188,0.0505,2037
18,-0.5452,-0.8357,-0.166,0.0019,-0.0346,0.0494,2039
18,-0.5359,-0.8352,-0.1675,0.0029,-0.0385,0.0485,2041
18,-0.5479,-0.8333,-0.1606,0.0093,-0.0421,0.0514,2040
18,-0.5608,-0.8296,-0.1443,0.0049,-0.0479,0.0495,2039
18,-0.5632,-0.8357,-0.1541,0.0044,-0.0457,0.0399,2038
18,-0.5527,-0.8372,-0.1558,-0.0005,-0.0467,0.0422,2038
18,-0.5491,-0.8372,-0.1484,-0.0071,-0.0293,0.0373,2038
18,-0.5522,-0.8352,-0.1497,-0.0015,-0.0294,0.0381,2040
18,-0.5564,-0.8379,-0.1567,0.0011,-0.0454,0.0362,2040
18,-0.5505,-0.8381,-0.1697,0.0008,-0.0376,0.0364,2040
18,-0.5488,-0.8193,-0.1685,0.0232,-0.0389,0.0406,2041
18,-0.5532,-0.8303,-0.1582,0.0192,-0.0542,0.0415,2037
18,-0.5598,-0.8289,-0.1455,0.0123,-0.0418,0.0403,2044
18,-0.5796,-0.8477,-0.1157,0.0033,-0.0294,0.0388,2045
18,-0.584,-0.8379,-0.123,-0.0174,-0.0373,0.0224,2044
18,-0.5723,-0.8293,-0.1223,-0.0257,-0.0462,0.0107,2039
18,-0.5615,-0.8345,-0.1387,-0.0218,-0.0587,0.0092,2042
18,-0.5576,-0.8296,-0.1558,-0.0244,-0.0798,0.0076,2038
18,-0.5583,-0.8335,-0.179,-0.0184,-0.0787,0.0109,2041
18,-0.5583,-0.834,-0.1724,-0.0035,-0.0614,0.0153,2042
18,-0.5605,-0.8394,-0.1604,-0.0091,-0.0429,0.0154,2043
18,-0.5662,-0.845,-0.1694,-0.01,-0.0405,0.012,2037
18,-0.5579,-0.8389,-0.1479,-0.0124,-0.0565,0.0041,2037
18,-0.5532,-0.8298,-0.1541,-0.0105,-0.0547,0.0035,2039
18,-0.5554,-0.8369,-0.1509,-0.0148,-0.0509,0.002,2045
18,-0.5493,-0.8323,-0.158,-0.0117,-0.0503,0.0031,2033
18,-0.5527,-0.8308,-0.1523,-0.018,-0.0611,-0.002,2037
18,-0.5557,-0.835,-0.1479,-0.0229,-0.0545,-0.0023,2040
18,-0.5684,-0.8325,-0.1345,-0.0308,-0.0541,-0.0043,2040
18,-0.5596,-0.8335,-0.1313,-0.0313,-0.0633,-0.0033,2041
18,-0.5461,-0.8335,-0.1467,-0.0313,-0.0702,-0.0056,2040
18,-0.543,-0.8311,-0.1436,-0.0326,-0.0667,-0.0011,2038
18,-0.551,-0.8306,-0.1528,-0.0192,-0.0598,0.0045,2039
18,-0.5498,-0.834,-0.1489,-0.0257,-0.0647,0.0065,2043
18,-0.5588,-0.8357,-0.1489,-0.0233,-0.0582,0.0068,2040
18,-0.5581,-0.8394,-0.1396,-0.0282,-0.0469,0.0024,2042
18,-0.5532,-0.845,-0.136,-0.0409,-0.0457,-0.004,2040
18,-0.5537,-0.8359,-0.1299,-0.0421,-0.0539,-0.0064,2042
18,-0.5752,-0.8237,-0.1479,-0.0346,-0.0529,-0.0007,2038
18,-0.541,-0.8481,-0.1548,-0.0369,-0.0731,-0.0057,2041
18,-0.5459,-0.8401,-0.1597,-0.0274,-0.065,0.0067,2041
18,-0.5593,-0.8298,-0.1638,-0.0129,-0.0847,0.0039,2040
18,-0.5432,-0.8462,-0.1509,-0.0213,-0.0752,-0.0077,2039
18,-0.5476,-0.8521,-0.1394,-0.0213,-0.0679,0.0023,2043
18,-0.5544,-0.8499,-0.1213,-0.0344,-0.0562,-0.0076,2043
18,-0.5618,-0.8555,-0.1013,-0.0486,-0.0501,-0.0148,2042
18,-0.552,-0.8398,-0.1294,-0.0445,-0.0631,-0.0134,2040
18,-0.5435,-0.843,-0.1321,-0.0377,-0.0667,-0.0144,2040
18,-0.553,-0.8425,-0.1562,-0.0302,-0.077,-0.0035,2041
18,-0.5435,-0.8296,-0.1584,-0.0216,-0.0684,-0.0021,2043
18,-0.5312,-0.834,-0.1626,-0.0225,-0.0561,-0.0027,2040
18,-0.5786,-0.8445,-0.1399,-0.0309,-0.0413,-0.0067,2043
18,-0.5618,-0.874,-0.1165,-0.0388,-0.0614,-0.0089,2041
18,-0.5798,-0.8508,-0.1257,-0.0473,-0.0684,-0.0154,2037
18,-0.5586,-0.8235,-0.1384,-0.0366,-0.0687,-0.0238,2039
18,-0.5315,-0.8152,-0.1682,-0.0108,-0.0606,-0.0039,2043
18,-0.5193,-0.8335,-0.1802,0.0052,-0.0671,0.0004,2039
18,-0.5283,-0.8372,-0.1902,0.0178,-0.066,0.0104,2042
18,-0.5254,-0.8469,-0.1653,0.0218,-0.0594,0.0173,2045
18,-0.5449,-0.8469,-0.1543,0.0169,-0.0336,0.0204,2044
18,-0.5632,-0.8503,-0.1467,0.0083,-0.0224,0.0115,2040
18,-0.5618,-0.8462,-0.1301,0.0017,-0.0308,-0.0001,2041
18,-0.5542,-0.832,-0.1228,-0.0108,-0.0458,-0.0131,2041
18,-0.5461,-0.8608,-0.134,-0.0312,-0.0413,-0.0148,2036
18,-0.5532,-0.8625,-0.1433,-0.0232,-0.0225,-0.0166,2042
18,-0.5447,-0.8464,-0.135,-0.0192,-0.0056,-0.0174,2037
18,-0.5342,-0.8438,-0.1482,-0.0142,-0.0041,-0.014,2042
18,-0.5251,-0.8325,-0.1672,0.0024,-0.0208,-0.0108,2043
18,-0.5603,-0.8569,-0.1448,0.0043,-0.0447,-0.014,2042
18,-0.5605,-0.8501,-0.1279,-0.0019,-0.0455,-0.0101,2037
18,-0.5513,-0.8345,-0.1213,-0.0011,-0.0213,-0.0141,2045
18,-0.5378,-0.8394,-0.1306,-0.0028,-0.0384,-0.0224,2041
18,-0.5352,-0.8396,-0.1389,-0.0158,-0.0422,-0.0138,2044
18,-0.5444,-0.8479,-0.1409,-0.0124,-0.0173,-0.0072,2039
18,-0.5537,-0.8325,-0.1494,-0.0069,-0.0336,-0.0077,2038
18,-0.5491,-0.8367,-0.1519,-0.0049,-0.0511,-0.0146,2040
18,-0.5498,-0.8379,-0.1704,0.0091,-0.047,-0.0156,2047
18,-0.5642,-0.8301,-0.1519,0.0089,-0.0348,-0.0154,2039
18,-0.5542,-0.8445,-0.1377,-0.0036,-0.0437,-0.0228,2041
18,-0.5605,-0.8445,-0.1318,-0.0121,-0.0583,-0.0332,2042
18,-0.5549,-0.8403,-0.1311,-0.0201,-0.0567,-0.0369,2042
18,-0.5496,-0.8494,-0.1294,-0.018,-0.0527,-0.0329,2036
19,-0.5427,-0.8479,-0.1536,-0.0069,-0.0634,-0.0346,2037
19,-0.5359,-0.8438,-0.1653,-0.0011,-0.0659,-0.0312,2039
19,-0.5364,-0.8352,-0.1655,0.0027,-0.0446,-0.0281,2047
19,-0.5427,-0.843,-0.1355,-0.0063,-0.0442,-0.0285,2042
19,-0.553,-0.845,-0.1177,-0.0209,-0.0585,-0.0362,2041
19,-0.5557,-0.8499,-0.1172,-0.0281,-0.0637,-0.0474,2045
19,-0.5505,-0.8496,-0.116,-0.0229,-0.0742,-0.0469,2039
19,-0.5459,-0.8442,-0.1448,-0.0202,-0.0814,-0.0451,2040
19,-0.5383,-0.8486,-0.1492,-0.022,-0.0802,-0.0427,2040
19,-0.5369,-0.8438,-0.1492,-0.0137,-0.0621,-0.037,2044
19,-0.5381,-0.8579,-0.1438,-0.0099,-0.0606,-0.0366,2040
19,-0.5327,-0.842,-0.1321,-0.0182,-0.0514,-0.0322,2037
19,-0.5256,-0.8401,-0.1355,-0.0172,-0.0481,-0.0258,2038
19,-0.5305,-0.8442,-0.1423,-0.0244,-0.0477,-0.0294,2042
19,-0.551,-0.8445,-0.1389,-0.0333,-0.0499,-0.0236,2042
19,-0.5459,-0.8442,-0.1545,-0.0306,-0.0752,-0.0361,2036
19,-0.5342,-0.8325,-0.1538,-0.0184,-0.0851,-0.0427,2041
19,-0.5232,-0.8518,-0.1497,-0.0133,-0.0776,-0.0442,2039
19,-0.5276,-0.8459,-0.1621,-0.014,-0.0621,-0.0389,2040
19,-0.5266,-0.8542,-0.1575,-0.0184,-0.0662,-0.0422,2040
19,-0.5266,-0.8613,-0.1516,-0.025,-0.0585,-0.0426,2042
19,-0.5259,-0.8687,-0.1421,-0.0269,-0.0478,-0.0439,2036
19,-0.5315,-0.8589,-0.1213,-0.0337,-0.043,-0.0466,2042
19,-0.5256,-0.8623,-0.1167,-0.035,-0.0482,-0.0482,2040
19,-0.5303,-0.8652,-0.1187,-0.0305,-0.0543,-0.0533,2045
19,-0.5325,-0.8616,-0.1179,-0.0365,-0.0586,-0.0515,2039
19,-0.5259,-0.8669,-0.1169,-0.0281,-0.0631,-0.0485,2041
19,-0.5251,-0.865,-0.1426,-0.0136,-0.0686,-0.0503,2042
19,-0.5222,-0.8777,-0.1367,-0.0258,-0.0613,-0.0533,2043
19,-0.5266,-0.8652,-0.1238,-0.0198,-0.0358,-0.0489,2042
19,-0.5312,-0.8579,-0.1301,-0.0252,-0.0356,-0.0513,2042
19,-0.5222,-0.8564,-0.1299,-0.0386,-0.0405,-0.0549,2044
19,-0.5278,-0.8665,-0.1355,-0.0325,-0.0455,-0.0559,2042
19,-0.5178,-0.8633,-0.1357,-0.0222,-0.0461,-0.0518,2042
19,-0.5059,-0.8625,-0.1357,-0.0213,-0.0373,-0.0425,2041
19,-0.5071,-0.8589,-0.1465,-0.0137,-0.0314,-0.0337,2045
19,-0.5022,-0.8611,-0.1443,0.0056,-0.0308,-0.0293,2045
19,-0.5098,-0.8682,-0.1279,-0.0028,-0.0117,-0.0238,2039
19,-0.5127,-0.865,-0.115,-0.0161,0.0158,-0.0154,2043
19,-0.5181,-0.8635,-0.123,-0.0178,0.0035,-0.0189,2045
19,-0.5259,-0.8503,-0.1238,-0.0269,-0.0149,-0.0228,2039
19,-0.5215,-0.8582,-0.125,-0.0156,-0.0204,-0.0216,2042
19,-0.5071,-0.8618,-0.1333,0.0056,-0.0439,-0.0237,2041
19,-0.5027,-0.8787,-0.1533,0.0093,-0.0393,-0.0188,2041
19,-0.498,-0.8838,-0.1377,0.0027,0.0009,-0.0101,2042
19,-0.5103,-0.8723,-0.1509,0.0036,0.0166,-0.0127,2041
19,-0.5078,-0.8699,-0.1367,-0.0013,0.0015,-0.0173,2040
19,-0.5132,-0.8708,-0.1375,-0.0137,-0.0033,-0.0248,2042
19,-0.5215,-0.8611,-0.125,-0.0165,-0.0047,-0.0272,2043
19,-0.5085,-0.8679,-0.1108,-0.0177,-0.0256,-0.0349,2038
19,-0.51,-0.873,-0.114,-0.0107,-0.0384,-0.0376,2048
19,-0.4951,-0.8743,-0.1262,-0.0108,-0.0317,-0.0318,2042
19,-0.4939,-0.8713,-0.1316,-0.0069,-0.0184,-0.018,2042
19,-0.4993,-0.8716,-0.1572,0.0024,-0.0209,-0.0081,2043
19,-0.5029,-0.8691,-0.1553,0.0023,-0.0182,-0.0084,2044
19,-0.5029,-0.8708,-0.1458,0.0021,-0.0008,-0.0103,2039
19,-0.5112,-0.8572,-0.1396,0.0051,0.0111,-0.0072,2035
19,-0.5051,-0.8525,-0.1396,0.0174,-0.0047,-0.0084,2045
19,-0.5049,-0.8574,-0.136,0.0194,-0.0152,-0.0103,2044
19,-0.5034,-0.8591,-0.1394,0.0238,-0.0075,0.0021,2044
19,-0.5046,-0.8616,-0.1304,0.0336,-0.006,0.0072,2041
19,-0.5061,-0.8647,-0.1353,0.0293,-0.0043,0.0065,2038
19,-0.4973,-0.8745,-0.1304,0.0276,0.0041,0.0045,2039
19,-0.4985,-0.8669,-0.1277,0.0226,0.0081,0.0021,2045
19,-0.4949,-0.8567,-0.1245,0.0284,-0.0004,0.0134,2039
19,-0.488,-0.8684,-0.1399,0.0325,-0.0249,0.0027,2044
19,-0.4932,-0.8591,-0.1465,0.039,-0.0205,0.0113,2044
19,-0.4973,-0.876,-0.1448,0.034,0.0007,0.0218,2038
19,-0.5154,-0.8679,-0.1335,0.0249,0.0154,0.0277,2038
19,-0.5178,-0.8816,-0.1235,0.0256,0.0108,0.0173,2042
19,-0.512,-0.8665,-0.1304,0.014,0.0035,0.0196,2046
19,-0.511,-0.863,-0.1255,0.0136,-0.0051,0.0204,2040
19,-0.5066,-0.8589,-0.135,0.0113,-0.0103,0.0197,2041
19,-0.5061,-0.8564,-0.1465,0.0113,-0.0089,0.03,2043
19,-0.4985,-0.8516,-0.1526,0.0205,-0.0157,0.0352,2039
19,-0.4973,-0.8486,-0.1492,0.0253,-0.0092,0.0388,2041
19,-0.499,-0.8586,-0.1467,0.0354,-0.0152,0.0529,2041
19,-0.5081,-0.873,-0.1289,0.0252,-0.0162,0.0541,2035
19,-0.5127,-0.8687,-0.1218,0.0145,0.0004,0.0574,2042
19,-0.5166,-0.8643,-0.1135,0.0181,-0.0043,0.0541,2039
19,-0.5059,-0.8689,-0.1248,-0.0015,-0.0015,0.0603,2042
19,-0.522,-0.8586,-0.1404,-0.0004,0.0125,0.0739,2041
19,-0.5256,-0.8618,-0.137,-0.0076,-0.0064,0.0649,2045
19,-0.5205,-0.8516,-0.1594,-0.0113,-0.0105,0.0744,2040
19,-0.5283,-0.834,-0.1619,-0.0056,-0.0216,0.0827,2039
19,-0.5244,-0.8389,-0.167,-0.0142,-0.0133,0.0804,2038
19,-0.5212,-0.8337,-0.1555,-0.0178,-0.0031,0.0822,2039
19,-0.5093,-0.8386,-0.1331,-0.0177,-0.0188,0.0788,2038
19,-0.4966,-0.8496,-0.1348,-0.0241,-0.0281,0.0784,2046
19,-0.4966,-0.8777,-0.1248,-0.0345,-0.0213,0.0884,2042
19,-0.5024,-0.8621,-0.1243,-0.0465,-0.0007,0.0957,2044
19,-0.5005,-0.863,-0.1465,-0.0538,0.0156,0.108,2038
19,-0.5085,-0.856,-0.1545,-0.0531,0.0256,0.1198,2041
19,-0.5293,-0.8452,-0.1423,-0.0535,0.0214,0.1268,2041
19,-0.5239,-0.8486,-0.1399,-0.0458,0.0097,0.118,2040
19,-0.5337,-0.8521,-0.1475,-0.033,0.0113,0.11,2039
19,-0.5403,-0.8721,-0.1394,-0.0401,0.0212,0.1079,2041
19,-0.5483,-0.8572,-0.1194,-0.0403,0.0217,0.1115,2040
19,-0.5488,-0.8569,-0.113,-0.0381,-0.0005,0.1093,2042
19,-0.5403,-0.8542,-0.1138,-0.0431,-0.0084,0.1043,2043
19,-0.5442,-0.8508,-0.1187,-0.0461,-0.0079,0.1043,2042
19,-0.5352,-0.8616,-0.1243,-0.0518,-0.0068,0.0935,2037
20,-0.5278,-0.8542,-0.1326,-0.0535,0.0064,0.086,2042
20,-0.5112,-0.8494,-0.1472,-0.0514,-0.022,0.1005,2038
20,-0.5137,-0.8547,-0.1545,-0.041,-0.0165,0.0983,2041
20,-0.5173,-0.8652,-0.1533,-0.0362,-0.0075,0.0997,2045
20,-0.5266,-0.8691,-0.1382,-0.0474,0.0028,0.1084,2041
20,-0.5425,-0.8547,-0.1387,-0.0494,-0.0001,0.1051,2037
20,-0.5522,-0.8547,-0.1311,-0.0501,0.0077,0.1001,2044
20,-0.5684,-0.8545,-0.1438,-0.0555,0.0241,0.0832,2042
20,-0.5347,-0.8389,-0.165,-0.039,-0.0136,0.0886,2039
20,-0.5469,-0.8362,-0.1675,-0.0281,-0.0027,0.0916,2042
20,-0.5356,-0.8655,-0.1626,-0.0353,-0.0142,0.0795,2040
20,-0.5452,-0.8518,-0.1523,-0.0374,-0.0053,0.083,2041
20,-0.55,-0.842,-0.1411,-0.0455,-0.0196,0.0756,2036
20,-0.551,-0.8503,-0.1421,-0.0477,-0.0197,0.0772,2042
20,-0.5459,-0.8477,-0.1252,-0.0402,-0.0298,0.0726,2041
20,-0.5388,-0.8503,-0.1411,-0.037,-0.0318,0.0671,2043
20,-0.5286,-0.8496,-0.1492,-0.0487,-0.0131,0.067,2040
20,-0.5393,-0.8462,-0.1597,-0.0493,-0.0003,0.0692,2041
20,-0.5376,-0.8396,-0.1426,-0.0454,-0.0158,0.0659,2041
20,-0.5437,-0.8403,-0.1533,-0.045,-0.0286,0.0663,2038
20,-0.5439,-0.842,-0.1487,-0.0414,-0.024,0.0631,2044
20,-0.5518,-0.8374,-0.1445,-0.0325,-0.0282,0.0627,2036
20,-0.5403,-0.8423,-0.1477,-0.0293,-0.0411,0.0605,2043
20,-0.5342,-0.8435,-0.1399,-0.0353,-0.0292,0.0666,2043
20,-0.5481,-0.8442,-0.1389,-0.0249,-0.0178,0.0712,2039
20,-0.552,-0.8525,-0.1401,-0.0349,-0.0241,0.0646,2037
20,-0.5596,-0.8511,-0.1306,-0.0555,-0.0273,0.0606,2044
20,-0.5591,-0.8508,-0.1335,-0.0473,-0.0344,0.0537,2039
20,-0.5525,-0.8435,-0.1401,-0.0473,-0.0376,0.0473,2040
20,-0.5488,-0.8323,-0.144,-0.0621,-0.0277,0.0398,2042
20,-0.5469,-0.833,-0.1633,-0.0543,-0.034,0.0539,2042
20,-0.5613,-0.8357,-0.1548,-0.0511,-0.0358,0.0597,2040
20,-0.5586,-0.8459,-0.1516,-0.065,-0.0369,0.0535,2046
20,-0.553,-0.8489,-0.1445,-0.057,-0.0338,0.0411,2039
20,-0.5479,-0.8506,-0.1545,-0.0589,-0.0208,0.0348,2041
20,-0.5383,-0.8472,-0.1528,-0.0649,-0.0252,0.0358,2044
20,-0.533,-0.8381,-0.1687,-0.0407,-0.0515,0.0549,2039
20,-0.5349,-0.8394,-0.1643,-0.0272,-0.0442,0.0559,2040
20,-0.541,-0.8394,-0.1423,-0.0294,-0.0431,0.0599,2041
20,-0.5469,-0.8464,-0.1345,-0.031,-0.0397,0.0589,2042
20,-0.5464,-0.8459,-0.1387,-0.0365,-0.0473,0.0577,2045
20,-0.5486,-0.8472,-0.1396,-0.0443,-0.0454,0.0566,2036
20,-0.5457,-0.8445,-0.1519,-0.0466,-0.0426,0.0546,2041
20,-0.5481,-0.8501,-0.1653,-0.0502,-0.0449,0.0526,2042
20,-0.5498,-0.8379,-0.1782,-0.0518,-0.0467,0.0537,2043
20,-0.5581,-0.8389,-0.1584,-0.0485,-0.0401,0.0477,2042
20,-0.551,-0.8345,-0.1538,-0.0575,-0.0314,0.0469,2039
20,-0.5547,-0.8362,-0.1543,-0.0615,-0.0427,0.0426,2038
20,-0.5569,-0.8296,-0.1621,-0.0531,-0.0433,0.0419,2038
20,-0.541,-0.8218,-0.1631,-0.0435,-0.0497,0.0462,2037
20,-0.5417,-0.8286,-0.157,-0.0447,-0.0463,0.0559,2041
20,-0.5422,-0.8464,-0.1594,-0.0423,-0.033,0.0597,2040
20,-0.5491,-0.8472,-0.1443,-0.0495,-0.026,0.0619,2041
20,-0.554,-0.8467,-0.1377,-0.0593,-0.031,0.0578,2041
20,-0.5623,-0.8479,-0.1394,-0.0651,-0.0422,0.0497,2044
20,-0.5618,-0.8481,-0.1431,-0.0609,-0.0457,0.0414,2042
20,-0.5544,-0.8313,-0.1582,-0.0542,-0.0527,0.0358,2042
20,-0.5552,-0.8281,-0.166,-0.0497,-0.0543,0.0376,2043
20,-0.5581,-0.8308,-0.1702,-0.0407,-0.0566,0.041,2039
20,-0.5645,-0.8313,-0.1646,-0.0418,-0.0597,0.0407,2043
20,-0.5669,-0.8459,-0.1572,-0.0453,-0.061,0.0364,2043
20,-0.5681,-0.8345,-0.1445,-0.0558,-0.0571,0.0333,2038
20,-0.5569,-0.834,-0.1433,-0.0597,-0.059,0.0281,2042
20,-0.5493,-0.8318,-0.1582,-0.0637,-0.0593,0.0229,2042
20,-0.5408,-0.8235,-0.1692,-0.0502,-0.0563,0.034,2042
20,-0.5371,-0.8208,-0.188,-0.0365,-0.0599,0.0426,2042
20,-0.5403,-0.833,-0.1677,-0.0419,-0.0538,0.0526,2040
20,-0.5701,-0.8462,-0.146,-0.0326,-0.0457,0.053,2042
20,-0.5757,-0.8369,-0.1428,-0.0533,-0.0454,0.0473,2038
20,-0.5679,-0.8416,-0.147,-0.0605,-0.0494,0.0407,2043
20,-0.5686,-0.8337,-0.1587,-0.0619,-0.0485,0.0378,2039
20,-0.5686,-0.8193,-0.1536,-0.0538,-0.0629,0.0293,2040
20,-0.5571,-0.8186,-0.178,-0.0344,-0.0945,0.0296,2040
20,-0.5305,-0.8469,-0.1797,-0.033,-0.0816,0.0274,2043
20,-0.5327,-0.8513,-0.1802,-0.0385,-0.0451,0.0369,2042
20,-0.5364,-0.8408,-0.1606,-0.033,-0.0361,0.041,2043
20,-0.5435,-0.842,-0.1458,-0.0442,-0.0505,0.0342,2040
20,-0.5469,-0.8411,-0.1392,-0.0471,-0.0447,0.038,2039
20,-0.5657,-0.8274,-0.1326,-0.0316,-0.0453,0.0382,2043
20,-0.5579,-0.8389,-0.1479,-0.0338,-0.061,0.0334,2041
20,-0.5535,-0.8394,-0.1533,-0.0406,-0.0494,0.0334,2041
20,-0.5586,-0.8342,-0.1636,-0.0314,-0.0503,0.0258,2044
20,-0.5486,-0.8362,-0.1631,-0.0398,-0.0555,0.0225,2038
20,-0.5554,-0.8389,-0.175,-0.0364,-0.0594,0.027,2038
20,-0.5557,-0.8386,-0.1716,-0.0435,-0.0442,0.028,2040
20,-0.5737,-0.8269,-0.1619,-0.0481,-0.0458,0.0221,2041
20,-0.5764,-0.825,-0.1514,-0.0505,-0.0622,0.0137,2039
20,-0.5701,-0.8218,-0.1511,-0.0535,-0.0748,0.0138,2044
20,-0.5598,-0.8252,-0.1558,-0.039,-0.0844,0.0128,2039
20,-0.5488,-0.8313,-0.1594,-0.0466,-0.081,0.0164,2043
20,-0.5447,-0.8396,-0.165,-0.0462,-0.0601,0.0297,2040
20,-0.5464,-0.8367,-0.1677,-0.0421,-0.0473,0.0317,2043
20,-0.5476,-0.8386,-0.1648,-0.0459,-0.0419,0.0352,2044
20,-0.5581,-0.8357,-0.1602,-0.0418,-0.0384,0.0338,2040
20,-0.5583,-0.8328,-0.165,-0.0374,-0.0418,0.0334,2038
20,-0.5579,-0.8286,-0.1572,-0.0286,-0.0471,0.0313,2044
20,-0.5601,-0.8298,-0.156,-0.0238,-0.0594,0.0262,2040
20,-0.5557,-0.8406,-0.1548,-0.023,-0.0518,0.0277,2040
20,-0.5542,-0.8369,-0.1582,-0.0194,-0.0507,0.024,2040
20,-0.5593,-0.8438,-0.1404,-0.0194,-0.0506,0.0225,2043
20,-0.5623,-0.8367,-0.1555,-0.0246,-0.0475,0.0209,2043
20,-0.5581,-0.832,-0.1501,-0.0324,-0.0462,0.0193,2039
20,-0.5515,-0.8318,-0.1584,-0.0277,-0.0527,0.0165,2044
21,-0.5435,-0.8323,-0.1506,-0.018,-0.0582,0.016,2044
21,-0.5498,-0.8369,-0.156,-0.0202,-0.0478,0.0234,2045
21,-0.5583,-0.8342,-0.1606,-0.0117,-0.0348,0.0294,2041
21,-0.5637,-0.8372,-0.1685,-0.0217,-0.0384,0.0274,2040
21,-0.5686,-0.8328,-0.147,-0.0228,-0.0438,0.0197,2041
21,-0.5691,-0.8284,-0.1526,-0.0297,-0.0434,0.0148,2044
21,-0.5669,-0.8271,-0.1555,-0.0294,-0.0435,0.0133,2041
21,-0.5635,-0.8298,-0.167,-0.0173,-0.0546,0.0131,2037
21,-0.5588,-0.8342,-0.1768,-0.0107,-0.071,0.0068,2043
21,-0.5505,-0.8296,-0.1716,-0.0009,-0.0651,0.0107,2044
21,-0.5413,-0.8386,-0.1624,0.0088,-0.0621,0.0137,2041
21,-0.5374,-0.8442,-0.1638,0.0059,-0.047,0.0178,2038
21,-0.5398,-0.8457,-0.1619,-0.0059,-0.0257,0.0254,2041
21,-0.5515,-0.8403,-0.1318,-0.0152,-0.0272,0.0229,2042
21,-0.5732,-0.8374,-0.1287,-0.0206,-0.034,0.0201,2043
21,-0.5725,-0.8386,-0.1284,-0.0288,-0.0398,0.0153,2044
21,-0.562,-0.8293,-0.1443,-0.0182,-0.0533,0.0101,2040
21,-0.5503,-0.8286,-0.1597,-0.0048,-0.0595,0.0109,2039
21,-0.5496,-0.8369,-0.1577,-0.0044,-0.049,0.015,2040
21,-0.5476,-0.8354,-0.1577,0.0007,-0.045,0.0217,2038
21,-0.561,-0.8442,-0.1575,-0.0043,-0.0517,0.0201,2039
21,-0.5559,-0.8367,-0.1479,-0.0132,-0.0399,0.0181,2039
21,-0.5522,-0.8323,-0.1333,-0.017,-0.0348,0.0181,2038
21,-0.5566,-0.8423,-0.127,-0.0265,-0.0393,0.0154,2037
21,-0.5586,-0.844,-0.144,-0.0304,-0.0414,0.0148,2041
21,-0.5559,-0.8264,-0.1548,-0.0072,-0.053,0.0125,2038
21,-0.5559,-0.8291,-0.168,-0.0101,-0.0579,0.0182,2042
21,-0.5488,-0.8333,-0.1731,-0.012,-0.0483,0.0236,2043
21,-0.5593,-0.8289,-0.1687,-0.0012,-0.0509,0.0225,2036
21,-0.5518,-0.8386,-0.1516,-0.0112,-0.0551,0.0197,2039
21,-0.5598,-0.832,-0.1389,-0.0169,-0.0539,0.0173,2043
21,-0.5522,-0.8381,-0.1438,-0.0176,-0.0534,0.0169,2041
21,-0.5454,-0.8254,-0.1621,-0.0156,-0.0583,0.0138,2039
21,-0.5359,-0.8301,-0.1555,-0.024,-0.0474,0.0216,2039
21,-0.5425,-0.8396,-0.1626,-0.0305,-0.0297,0.03,2039
21,-0.5522,-0.8328,-0.1697,-0.0284,-0.0237,0.0296,2041
21,-0.552,-0.8252,-0.1689,-0.0285,-0.0312,0.0261,2041
21,-0.5598,-0.8267,-0.1675,-0.0298,-0.0266,0.0232,2039
