Timestamp,Ax,Ay,Az,Rx,Ry,Rz,EMG
0,-1.4751,-1.4656,-0.1348,-1.9228,-2.0912,2.667,2064
0,-1.354,-1.6545,-0.2014,-2.7173,-1.4384,1.1561,2048
0,-0.9133,0.2529,-0.3694,-1.3992,-0.6199,1.8974,1942
0,-0.7737,0.1748,0.2229,0.6731,-0.6994,1.6689,2017
0,-0.1184,-1.592,0.7903,-0.9112,-3.3768,0.9255,2131
0,-0.3313,-1.4421,0.3105,-1.2608,-2.6152,0.422,2070
0,-1.168,-0.7031,0.2949,-1.5969,-2.086,0.3397,2040
0,-1.0466,-0.5444,-0.1282,-1.4669,-1.633,-0.0638,2050
0,-1.0186,-0.7285,0.3047,-1.0295,-0.1218,-0.6361,2025
0,-0.9102,-0.5779,0.3352,-1.2676,0.4161,-0.7992,2036
0,-0.7605,-0.4993,0.1875,-1.1661,1.0529,-0.7878,2041
0,-0.4927,-0.3125,0.1633,-1.067,1.2717,-0.9605,2052
0,-0.4475,-0.218,0.1035,-0.9605,1.3736,-1.4077,2055
0,-0.5076,-0.2102,0.0986,-0.5954,1.5082,-1.8643,2054
0,-0.5422,-0.3428,0.1018,-0.4795,1.4083,-2.2019,2065
0,-0.4106,-0.5276,0.0369,-0.5059,1.2753,-2.4818,2055
0,-0.3506,-0.4209,-0.0183,-0.4639,1.2456,-2.6091,2048
0,-0.2202,-0.4199,-0.1338,-0.2859,1.2523,-2.7446,2037
0,-0.1938,-0.3337,-0.0261,-0.0787,1.1545,-3.0397,2035
0,-0.1018,-0.2856,0.0703,0.0834,0.8319,-2.9103,2038
0,-0.094,-0.344,0.145,0.0963,0.3212,-2.8879,2041
0,-0.2317,-0.4258,-0.001,-0.0514,-0.0955,-2.8806,2075
0,-0.2847,-0.4102,-0.1255,0.0878,-0.3073,-2.9046,2044
0,-0.25,-0.4338,-0.1201,0.2236,-0.3936,-3.1136,2054
0,-0.2739,-0.3994,-0.0081,0.3121,-0.5416,-3.1556,2029
0,-0.3464,-0.3503,0.0239,0.3264,-0.7863,-3.1115,2040
0,-0.3718,-0.3367,0.0344,0.352,-0.9685,-3.0787,2040
0,-0.4451,-0.3423,0.0269,0.3574,-1.046,-3.1001,2048
0,-0.5791,-0.3433,0.0842,0.4354,-0.8783,-3.0878,2040
0,-0.6614,-0.0913,0.0688,0.7325,-0.479,-3.0951,2040
0,-0.7727,-0.4229,0.1538,0.8958,-0.271,-2.9564,2054
0,-0.8054,-0.4587,0.1265,0.9481,0.0016,-2.6313,2048
0,-0.7842,-0.4861,0.085,0.9352,0.1772,-2.3928,2045
0,-0.8494,-0.564,0.1003,0.9455,0.3445,-2.0961,2046
0,-0.8374,-0.6414,0.0562,0.8332,0.5436,-1.7174,2048
0,-0.8396,-0.7156,-0.0522,0.6355,0.6761,-1.3529,2046
0,-0.7876,-0.7327,-0.1221,0.3188,0.6683,-1.0836,2053
0,-0.802,-0.6375,-0.1804,0.1216,0.6079,-0.8572,2023
0,-0.7151,-0.5667,-0.2378,0.0177,0.5129,-0.5281,2048
0,-0.7375,-0.4998,-0.2502,-0.1337,0.4595,-0.3441,2056
0,-0.7285,-0.3325,-0.2246,-0.4036,0.457,-0.2133,2035
0,-0.6851,-0.0881,-0.2236,-0.699,0.6351,-0.2534,2043
0,-0.4624,0.1985,-0.2932,-0.928,0.6426,-0.5087,2032
0,-0.3127,0.415,-1.731,-0.439,0.0127,-1.2516,2082
0,-1.4792,-2.0,-0.0049,-1.6379,1.1451,-4.1215,2026
0,1.2864,-2.0,-0.1951,1.3451,1.8097,2.198,2114
0,-1.6726,-2.0,-0.3257,-1.5464,0.6964,4.3634,2120
0,1.1331,0.947,-0.8979,2.906,-3.2038,1.2062,1806
0,1.8472,1.2546,1.9999,0.1678,-4.3635,2.3499,1930
0,0.1213,1.2349,-1.0417,0.1518,-2.4744,-0.5141,2114
0,-2.0,0.0979,-1.397,0.174,-0.3807,1.4122,2128
0,-1.3049,-0.7754,-0.0461,0.2309,4.1872,2.44,2023
0,-0.7678,-1.356,-0.0466,-0.4642,0.8917,0.0345,2072
0,0.6667,-1.0876,0.0779,-1.073,0.4707,0.4689,1997
0,0.2549,-1.584,-0.3396,-0.6248,0.4159,-0.1099,2040
0,-0.158,-1.4509,0.114,0.0373,-0.0224,0.6585,2215
0,-0.6104,-1.0571,0.1108,-0.0804,0.2939,1.1736,2134
0,-0.5625,-0.8679,-0.0837,-0.2835,0.0426,0.5363,2067
0,-0.3071,-1.0522,-0.1316,-0.3533,0.0454,0.0282,2047
0,-0.3523,-1.0342,-0.2612,-0.1629,0.1764,0.2147,1787
0,-0.4895,-0.9783,-0.2341,-0.1123,0.1167,0.2747,2058
0,-0.4871,-1.0234,-0.1978,-0.1318,0.0635,0.075,2074
0,-0.4697,-0.9893,-0.1497,-0.1369,-0.0201,-0.1442,2082
0,-0.4148,-1.022,-0.1443,-0.0943,-0.0625,-0.2477,2029
0,-0.3364,-1.0618,-0.1724,-0.0349,-0.1262,-0.1971,1938
0,-0.2529,-1.0425,-0.1362,-0.0125,-0.1282,-0.2241,2032
0,-0.2117,-1.0232,-0.1428,0.0537,-0.1491,-0.2717,2073
0,-0.2307,-1.0381,-0.1235,0.1404,-0.1888,-0.2711,2063
0,-0.3855,-0.8918,-0.1296,0.2918,-0.1144,-0.1689,2252
0,-0.4519,-0.8967,-0.0969,0.4462,-0.0558,-0.124,2085
0,-0.3364,-1.0132,-0.0576,0.5339,-0.0858,-0.2639,2065
0,-0.1802,-1.0723,-0.0728,0.5616,-0.0514,-0.2952,2097
0,-0.1812,-1.0522,-0.0535,0.6679,-0.1253,-0.1144,2073
0,-0.1414,-1.0374,-0.0781,0.7347,-0.1518,-0.0944,1970
0,-0.1978,-1.0393,-0.0415,0.6673,-0.3212,-0.2759,1994
0,0.0237,-0.8828,-0.1357,0.9419,-0.086,-0.1229,1949
0,0.4502,-0.9888,0.0815,0.0557,0.3855,0.7994,2149
0,-0.3486,-1.0498,-0.1265,0.4938,-0.2939,-0.089,2125
0,-0.3584,-0.9741,-0.0823,0.5526,-0.2442,-0.0812,1965
0,0.7131,-1.0481,0.3474,-0.2309,0.02,0.3109,2081
0,0.1428,-0.8142,-0.1819,-1.8643,0.4224,0.365,2052
0,-1.1035,-1.0886,-0.6978,-0.1927,-2.3642,0.1698,2086
0,-0.7869,-1.2253,-0.2969,-0.0575,-1.5856,0.0072,2126
0,-0.6089,-1.0984,-0.2976,0.8569,-1.0649,-0.6448,2076
0,-0.3088,-0.9546,-0.0564,0.9653,-0.0559,-1.0156,1830
0,0.0088,-0.6428,-0.429,1.2362,0.2689,-0.9111,1749
0,0.0161,-0.7424,0.0081,1.1994,0.3141,-1.2736,2136
0,0.136,-0.9351,0.1733,0.6036,-0.1581,-0.7411,2003
0,0.1482,-1.0088,-0.0325,0.3802,-0.2008,-0.4003,1653
0,-0.0444,-1.0408,-0.0159,0.401,-0.2161,-0.2389,1424
0,-0.0496,-1.0747,-0.0603,0.2525,-0.2085,-0.1892,1766
0,0.0156,-1.0879,-0.1389,0.3446,-0.1294,-0.0076,1600
0,-0.1099,-1.0688,-0.0496,0.4918,0.1531,-0.0369,1607
0,-0.0884,-1.1758,0.0229,0.4273,0.0948,-0.0398,1966
0,0.0195,-1.1875,0.0825,0.3785,-0.0639,0.1167,2277
0,0.1279,-1.2642,0.0776,0.2498,-0.265,0.1679,2582
0,-0.0366,-1.1794,0.0674,0.281,-0.2452,0.041,2142
0,-0.03,-1.2002,0.2393,0.1447,-0.3404,0.2204,2160
0,-0.0422,-1.231,0.1321,0.0369,-0.3485,0.3473,1765
0,0.0498,-1.2295,0.073,0.0088,-0.4317,0.2892,2207
0,0.2261,-1.324,0.0979,-0.0065,-0.2155,0.2995,2143
0,0.2534,-1.47,0.3103,-0.0269,-0.4727,0.2906,2139
1,0.2236,-1.4419,0.571,-0.0921,-0.7766,0.4562,2087
1,0.178,-1.4092,0.4373,0.0278,-0.2772,0.5438,2116
1,0.5793,-1.5437,0.5383,0.0088,-0.187,0.816,2077
1,0.9695,-1.6714,0.481,-0.1293,-0.1814,1.0524,1961
1,1.2495,-1.6785,0.4856,-0.2211,-0.5291,1.3411,2047
1,1.1038,-1.5056,0.3789,-0.2052,-0.8814,1.6893,2131
1,0.8,-1.4897,0.3027,-0.2495,-1.2826,1.9068,1963
1,0.5649,-1.7366,0.2263,-0.1666,-1.5431,2.5598,1938
1,1.3005,-1.8447,0.6282,-0.4111,-1.1857,-1.5636,1660
1,0.4617,-2.0,0.2336,-0.3489,-0.2147,3.7,2156
1,-0.0015,-1.1826,0.002,-0.4992,0.5894,3.1511,2157
1,0.5227,-1.9026,0.0684,-0.8245,-0.6481,4.3634,2266
1,0.1609,-2.0,-0.3726,-0.8854,-1.6032,4.2113,1886
1,-0.562,-2.0,0.0088,-0.9833,-1.3011,4.3634,1960
1,-1.5312,-1.9153,0.3569,-0.0647,-1.5803,4.2369,2071
1,-0.7039,-1.7703,0.3889,0.2123,-2.4895,3.8193,2052
1,-0.1052,-1.5864,0.0178,-0.4352,-1.7723,3.79,1849
1,-0.1738,-1.2354,0.0183,-0.9066,-2.0298,4.0233,2221
1,-0.4666,-1.1902,0.4207,-1.1809,-2.2607,3.8779,2266
1,-0.9722,-1.2107,0.0562,-0.742,-1.3509,3.1347,2165
1,-1.1072,-0.8953,0.1704,0.0882,-1.0178,2.3951,2076
1,-1.9229,-0.7795,0.5815,0.6759,2.2489,2.8964,2032
1,-0.1655,-1.0017,0.3599,0.5261,-0.2481,2.6255,2015
1,-0.5212,-0.8757,0.4592,-0.0457,-0.8375,1.6843,2037
1,-1.1121,-0.4321,0.2915,-0.3725,0.4161,1.6239,2027
1,-0.9622,-0.1482,0.2783,-0.3726,0.9817,1.5323,2036
1,-0.6816,-0.22,0.2625,-0.3085,1.5225,1.2513,2011
1,-0.4812,-0.2002,0.2136,-0.2798,1.9829,0.4634,2008
1,-0.291,-0.0061,0.0796,-0.6295,2.1349,-0.0268,2023
1,0.0532,0.0503,0.0073,-1.0593,1.7903,-0.2269,2006
1,0.2393,0.0774,-0.135,-1.0753,1.3274,-0.5825,2051
1,0.1982,0.0305,0.0142,-1.1362,0.972,-1.0287,2043
1,0.0935,0.1467,-0.2222,-0.8851,0.8022,-1.0512,2042
1,0.0281,0.1555,-0.1714,-0.7276,0.62,-1.3836,2049
1,-0.0786,0.1941,-0.103,-0.61,0.5249,-1.6446,2052
1,-0.0566,0.1978,-0.0762,-0.5721,0.3947,-1.8772,2069
1,-0.1196,0.2166,-0.0522,-0.3846,0.4249,-2.2032,2071
1,-0.0823,0.0935,-0.042,-0.4284,0.2598,-2.5513,2049
1,-0.1267,0.0842,-0.1101,-0.3723,0.2389,-2.7763,2039
1,-0.0879,0.0212,-0.0657,-0.4643,0.0539,-2.8806,2043
1,-0.259,0.0139,-0.2168,-0.3695,0.0674,-3.0455,2025
1,-0.3657,0.2051,-0.2214,-0.0581,0.0896,-3.0232,2036
1,-0.3523,0.1089,-0.1975,0.1001,-0.0659,-3.0327,2061
1,-0.3752,0.0125,-0.248,0.3036,-0.0321,-3.2031,2035
1,-0.4468,-0.1436,-0.2014,0.5681,-0.0172,-3.0047,2053
1,-0.5144,-0.1875,-0.1216,0.7353,-0.026,-2.7602,2047
1,-0.6511,-0.2659,-0.1118,0.7439,0.0772,-2.5232,2050
1,-0.79,-0.3201,-0.0559,0.8364,0.1855,-2.1619,2045
1,-0.8623,-0.3203,-0.0586,0.9288,0.2545,-1.7436,2053
1,-0.8008,-0.3271,-0.0862,0.9524,0.2147,-1.3916,2044
1,-0.8042,-0.2793,-0.1157,0.8263,0.1887,-1.1615,2048
1,-0.8862,-0.3181,-0.0767,0.5582,0.1111,-1.0451,2054
1,-1.0652,-0.1833,-0.0757,0.2071,0.4382,-1.0955,2072
1,-0.3447,-0.9045,0.2822,-0.5819,-0.0242,-0.9473,2044
1,-0.7019,-0.7019,-1.2759,-1.3805,2.532,-2.8729,2008
1,-2.0,-1.656,-2.0,0.2811,3.1404,1.8748,1950
1,-2.0,-1.8933,0.3396,-0.0973,2.1374,4.3634,2163
1,-1.0564,-2.0,-1.7927,0.6004,-0.4719,-0.9397,2008
1,0.6545,-1.5498,0.342,2.1446,0.9539,-0.4153,1830
1,1.9854,0.636,1.9004,-0.5028,1.5487,0.1563,1994
1,0.4561,-1.0076,-0.6204,0.5277,0.3887,0.4377,2039
1,-0.6458,-1.3838,-0.0549,0.6723,0.6261,1.2576,2100
1,-1.3499,-0.3188,0.0435,0.5489,-0.0481,1.2912,2068
1,-1.6716,-0.5806,0.5884,-0.1244,0.1539,0.4556,2091
1,-0.7031,-0.783,-0.217,0.0039,0.6634,0.0515,2093
1,-0.1492,-1.0132,0.2502,0.0325,0.1178,0.182,1956
1,-0.2769,-1.2764,-0.0039,-0.1575,0.4342,0.1312,2095
1,-0.7268,-1.4192,0.0176,-0.3338,0.0796,0.1033,2055
1,-0.4832,-0.9524,-0.0579,-0.0562,-0.0615,0.1465,2027
1,-0.4751,-0.8335,-0.1743,0.1559,0.096,0.1794,2048
1,-0.6375,-0.8269,0.03,0.1386,-0.0277,0.0619,2086
1,-0.613,-0.9211,0.0247,-0.0222,-0.1708,-0.1164,1974
1,-0.5288,-1.0088,-0.0029,-0.1712,-0.2265,-0.2867,2069
1,-0.3542,-1.0559,-0.0706,-0.1976,-0.0867,-0.3428,2048
1,-0.3208,-1.0171,-0.0618,-0.1566,-0.0111,-0.3155,2057
1,-0.3818,-1.0044,-0.0303,-0.1182,-0.0365,-0.2983,2022
1,-0.4583,-0.9802,0.0022,-0.086,-0.0883,-0.3241,2086
1,-0.5027,-0.9875,0.0085,-0.0688,-0.1125,-0.3787,2046
1,-0.5513,-1.0122,0.0325,-0.0995,-0.1096,-0.4763,1798
1,-0.5461,-1.0098,0.0115,-0.1506,-0.1308,-0.5766,2021
1,-0.5166,-1.0181,-0.0386,-0.1766,-0.1543,-0.6711,2069
1,-0.479,-0.9839,-0.0798,-0.1575,-0.1245,-0.716,1991
1,-0.3928,-0.9561,-0.0962,-0.1281,-0.1479,-0.7581,2038
1,-0.376,-0.9709,-0.1169,-0.09,-0.1537,-0.8558,2048
1,-0.3352,-0.9587,-0.1096,-0.01,-0.2248,-0.9947,2064
1,-0.2339,-1.0867,-0.0112,-0.1405,-0.6172,-1.2821,2091
1,-0.2732,-0.8625,-0.2346,-0.1224,-0.5359,-0.9364,2002
1,-0.4441,-0.814,-0.1084,0.2702,0.2476,-0.7327,2099
1,-0.6172,-0.7524,-0.1829,0.6649,0.2009,-0.7745,1908
1,-0.1555,-1.095,-0.1021,0.3388,0.2767,-0.1396,1940
1,-0.0667,-1.1904,-0.0308,0.3579,0.1455,-0.4867,2131
1,-0.0586,-0.9475,-0.0806,0.4856,0.1679,-0.5084,2041
1,-0.2446,-0.7991,-0.0242,0.5414,0.0727,-0.4167,2062
1,-0.3025,-0.7888,-0.0356,0.7978,-0.0844,-0.3087,2146
1,-0.2131,-0.8909,0.1655,0.8658,0.0653,-0.4962,1992
1,-0.0156,-1.0212,0.1677,0.6943,0.2021,-0.5429,2037
1,0.095,-1.0481,0.0967,0.4602,0.1123,-0.4494,2063
1,-0.0967,-0.9065,-0.0457,0.5878,0.0457,-0.4904,2289
1,-0.3081,-0.9297,0.0444,0.5317,-0.1445,-0.698,2212
1,-0.1108,-0.9939,-0.0393,0.3486,-0.0714,-0.501,2116
1,-0.0066,-0.9731,-0.0344,0.4368,-0.1023,-0.7765,2016
1,0.052,-0.9504,-0.0071,0.4807,-0.1368,-0.722,2337
1,0.1006,-0.927,0.0413,0.5087,-0.1181,-0.5031,2183
2,0.0664,-1.0261,0.0225,0.3019,-0.1404,-0.2846,2060
2,-0.0635,-1.0234,-0.0464,0.2573,0.0256,-0.2004,2267
2,-0.1746,-1.0405,-0.0374,0.2876,0.034,-0.1186,2495
2,-0.2212,-1.0115,-0.0356,0.3484,0.0238,-0.0731,1893
2,-0.135,-0.998,-0.0466,0.4737,-0.047,-0.1111,1872
2,-0.0786,-1.0808,0.0757,0.5004,0.0053,-0.1354,1558
2,-0.0752,-1.189,0.0562,0.3422,0.0684,0.0012,1864
2,-0.1658,-1.2124,0.0281,0.3908,0.0505,0.2449,1505
2,-0.2817,-1.1597,0.0398,0.4498,0.0028,0.2424,2078
2,-0.3313,-1.1938,0.0486,0.4414,-0.0654,0.2143,1906
2,-0.1968,-1.3203,0.1477,0.4289,-0.1493,0.0911,1996
2,-0.1736,-1.4116,0.1987,0.4231,-0.2879,-0.0418,1951
2,-0.1206,-1.5381,0.2537,0.391,-0.3508,-0.0751,2217
2,0.0591,-1.7688,0.3669,0.3113,-0.5036,0.0957,1879
2,0.0898,-1.8218,0.4478,0.5172,-0.6164,0.2048,2063
2,0.6345,-1.8884,0.6213,0.2762,-1.1907,0.4602,2090
2,1.0552,-1.4851,0.6409,0.2209,-1.0852,0.8725,2108
2,1.042,-1.23,0.5776,0.0551,-0.9649,0.807,2026
2,1.1621,-1.0649,0.3013,-0.1682,-0.8886,1.3318,2030
2,1.4004,-1.4546,0.3428,-0.2675,-0.3975,1.9185,1783
2,1.2104,-1.6418,0.2119,-0.0643,0.0206,2.0144,2073
2,0.4902,-1.6594,0.0208,0.1184,0.1393,2.4165,2075
2,0.2937,-2.0,0.2803,0.1438,0.1758,0.4634,2024
2,-0.0671,-2.0,0.1548,-0.1033,0.8837,3.1608,2035
2,0.2036,-2.0,-0.1157,-1.1095,1.2054,4.3634,2032
2,-0.4492,-2.0,0.0669,-0.4125,0.379,4.3634,2167
2,-1.0498,-2.0,0.3174,0.8861,-0.0658,3.662,2040
2,-0.4163,-2.0,0.801,-0.2842,-1.7926,4.3634,2024
2,-0.6506,-1.7383,0.1636,-1.8695,-0.9238,4.2554,2059
2,-0.7615,-1.2227,-0.5288,-1.2296,0.5272,3.8958,1984
2,0.0188,-1.1025,-0.177,-0.5396,-0.5155,4.3634,2014
2,-0.8247,-1.2573,0.1956,-1.1919,-0.414,3.5898,2019
2,-0.6492,-0.957,-0.0293,-0.4088,-0.4932,2.0943,2054
2,-0.5234,-0.9331,0.3647,-0.9485,-0.9118,2.536,2048
2,-0.8022,-0.6924,0.2554,-0.9198,-1.099,2.3366,2040
2,-0.7405,-0.5994,0.1689,-0.9044,-0.5365,2.2449,2045
2,-0.7095,-0.3542,0.1116,-0.708,0.0728,2.011,2058
2,-0.73,-0.2212,0.1294,-0.4496,0.4898,1.5028,2065
2,-0.675,-0.2407,0.126,-0.4221,0.9345,0.9794,2041
2,-0.5688,-0.1865,0.1235,-0.6103,1.1419,0.4562,2042
2,-0.377,-0.1396,0.1255,-0.6763,1.3485,-0.153,2042
2,-0.1785,-0.1577,0.1431,-0.764,1.5069,-0.6942,2057
2,0.105,-0.0754,0.2068,-0.9214,1.2921,-1.0051,2053
2,0.0339,-0.061,-0.0125,-0.9151,1.2521,-1.3308,2055
2,-0.0002,0.0706,-0.0276,-0.8633,1.1527,-1.6594,2039
2,-0.0964,0.1597,-0.022,-0.7172,1.1315,-2.0367,2061
2,-0.082,0.1682,0.0107,-0.5695,1.1307,-2.3261,2074
2,-0.0815,0.0964,0.0798,-0.5481,1.0809,-2.6208,2088
2,-0.0894,0.0938,-0.0439,-0.5099,1.0424,-2.8528,2028
2,-0.0859,0.0906,0.0161,-0.5289,0.797,-3.0867,2037
2,-0.1177,0.1736,-0.0808,-0.384,0.6794,-3.2962,2037
2,-0.1404,0.1841,-0.1335,-0.0956,0.4649,-3.4159,2058
2,-0.1841,0.0312,-0.199,0.0173,0.2535,-3.4809,2044
2,-0.2549,0.0474,-0.2183,0.1566,0.0679,-3.4001,2032
2,-0.3042,-0.0046,-0.2375,0.3144,-0.138,-3.2543,2052
2,-0.4919,-0.075,-0.2173,0.4285,-0.1463,-3.1375,2054
2,-0.7292,-0.134,-0.1941,0.5461,-0.071,-2.8285,2045
2,-0.8928,-0.1697,-0.1267,0.5898,-0.0248,-2.5095,2049
2,-1.0168,-0.1482,-0.0972,0.5284,0.0015,-2.1892,2054
2,-0.9951,-0.0479,-0.1355,0.4948,-0.0814,-1.7755,2043
2,-0.8081,0.0049,-0.1621,0.5429,-0.1722,-1.1926,2051
2,-0.8772,0.0242,-0.0642,0.242,-0.2523,-0.9712,2073
2,-1.2375,0.1848,0.0347,-0.1281,0.227,-1.2921,1829
2,-0.2241,-0.7769,0.271,-1.7036,-0.4408,-1.334,2151
2,-0.8018,-0.0029,-2.0,-2.1056,1.8005,-2.4514,2272
2,-2.0,-1.6584,-1.5356,2.9624,0.3002,1.916,1479
2,-2.0,-2.0,-1.1448,0.2344,1.3989,4.3634,1876
2,0.479,-2.0,-0.0911,3.0104,-1.5342,-4.3635,2306
2,1.9999,-0.0518,1.9999,-1.2758,-0.8636,1.8963,2012
2,-2.0,-0.4314,-0.3093,-1.7081,1.2584,-3.5668,1924
2,0.0349,-0.3035,-0.824,0.6558,-0.5572,1.7367,2038
2,-0.8616,-0.1382,0.1023,0.5393,0.4016,1.7474,2070
2,-0.8967,-0.6118,0.5161,0.0261,0.3184,0.322,2069
2,-1.0801,-1.0649,-0.1992,-0.1535,0.2739,-0.3227,2069
2,-0.572,-1.26,0.2251,0.0056,-0.0458,-0.2217,2046
2,-0.4866,-1.2051,-0.156,-0.2115,0.1212,0.2408,2035
2,-0.4558,-0.8511,-0.2522,-0.053,0.4462,-0.0146,2049
2,-0.2837,-0.887,-0.1833,-0.0783,0.0886,-0.0915,1980
2,-0.3591,-0.9783,-0.2329,0.0595,0.0196,-0.1175,1910
2,-0.3215,-1.1226,-0.1206,0.0635,0.0557,-0.1204,2047
2,-0.3987,-1.1592,-0.0684,-0.0204,-0.065,-0.2254,2026
2,-0.3604,-1.0232,-0.1431,-0.049,-0.1298,-0.2819,2043
2,-0.4031,-0.937,-0.1509,0.0308,-0.1316,-0.2729,2115
2,-0.5127,-0.917,-0.1106,0.0917,-0.0386,-0.3354,2037
2,-0.5691,-0.9597,-0.0081,0.1043,-0.081,-0.4386,2009
2,-0.5483,-1.0271,0.0266,0.0597,-0.1276,-0.5971,2062
2,-0.5435,-0.9961,0.0027,0.0129,-0.1835,-0.7461,2037
2,-0.5093,-0.9885,-0.0276,-0.0475,-0.1843,-0.7974,2054
2,-0.4739,-0.9634,-0.0161,-0.059,-0.1694,-0.8384,1960
2,-0.3459,-0.9697,-0.0234,-0.0562,-0.2096,-0.8879,2024
2,-0.2747,-0.9644,-0.0728,-0.0145,-0.1665,-0.8673,2058
2,-0.2366,-0.9536,-0.1333,0.0736,-0.1009,-0.6914,2040
2,-0.272,-0.9424,-0.1719,0.1168,-0.1177,-0.4381,2032
2,-0.3184,-1.0249,-0.1577,0.0859,-0.2226,-0.3982,2049
2,-0.3032,-1.0686,-0.1099,-0.0032,-0.3871,-0.5911,2079
2,-0.2019,-1.05,-0.1282,-0.0646,-0.5006,-0.7561,2085
2,0.623,-1.3528,0.9465,-1.1251,0.2641,0.0734,2076
2,-0.3757,-0.9043,-0.3599,0.2629,-0.4235,-1.0166,2069
2,-0.0891,-0.8672,0.24,0.2838,0.2669,-0.3457,2045
2,-0.2642,-0.9775,-0.3105,0.23,-0.1185,-0.8907,2083
2,0.0503,-1.0464,0.1072,0.1281,0.2036,-0.5687,2004
3,-0.0369,-0.9268,-0.0906,0.3256,0.1401,-0.5742,2064
3,-0.0439,-0.8911,-0.0344,0.3757,-0.0256,-0.3964,2065
3,-0.0515,-0.8711,-0.0962,0.4794,-0.0771,-0.4919,1764
3,-0.0835,-0.8052,-0.0298,0.7533,0.2161,-0.4048,2116
3,-0.075,-0.9385,0.0759,0.6873,0.1557,-0.5124,2141
3,-0.0718,-0.9897,0.0129,0.7513,0.1541,-0.6817,2047
3,0.0745,-0.9619,0.0181,0.7293,0.0907,-0.5317,1858
3,0.1284,-0.9871,-0.0532,0.6622,0.1059,-0.5161,1881
3,0.1174,-0.9805,-0.0266,0.5873,-0.0181,-0.3223,2003
3,0.0588,-1.0366,-0.0208,0.4077,-0.0497,-0.3882,2128
3,0.0896,-0.9971,-0.0193,0.3854,-0.0029,-0.2649,2014
3,0.0051,-0.9292,0.0488,0.3448,-0.0049,0.0688,1945
3,-0.063,-1.0029,0.0667,0.2774,0.108,0.0342,1736
3,-0.0774,-1.0994,0.0769,0.226,0.0338,0.0202,1960
3,0.0442,-1.116,0.0605,0.2623,0.0138,0.069,2060
3,0.0679,-1.1555,0.0745,0.3397,0.1084,0.1152,1562
3,-0.0208,-1.1287,-0.053,0.4365,0.1386,0.3213,1566
3,-0.1018,-1.1138,-0.0144,0.4003,0.1567,0.5789,1319
3,-0.1011,-1.1116,0.0095,0.4125,0.2225,0.5815,1970
3,-0.1057,-1.2126,0.0203,0.4345,0.0794,0.4517,2652
3,-0.0786,-1.2825,0.041,0.4888,-0.0184,0.4529,1842
3,-0.0913,-1.3191,0.0491,0.5396,-0.1254,0.4819,2260
3,-0.1179,-1.2944,0.1799,0.5888,-0.1558,0.4386,1940
3,-0.1697,-1.2161,0.1833,0.5426,-0.1844,0.4603,2337
3,-0.1716,-1.3049,0.1787,0.4478,-0.0009,0.5113,1969
3,0.0481,-1.5215,0.2124,0.3041,-0.0611,0.4955,1975
3,0.1992,-1.854,0.3054,0.2517,-0.2261,0.5227,1987
3,0.2788,-1.9124,0.3813,0.3326,-0.3846,0.7014,1974
3,0.6694,-1.8901,0.5952,0.2839,-0.8242,0.897,2021
3,0.7241,-1.5239,0.6262,0.1384,-0.9657,1.2982,2019
3,0.7827,-1.2551,0.533,0.0429,-0.8931,1.374,2028
3,0.8899,-1.3799,0.4456,-0.11,-0.9645,1.8556,2006
3,0.8687,-1.3347,0.4536,-0.3316,-0.8191,1.9249,2026
3,0.7319,-1.4282,-0.1477,0.0571,-0.5474,1.7994,2039
3,0.678,-2.0,-0.0833,-0.1069,0.471,-0.785,1968
3,-0.5825,-2.0,0.5742,-0.9158,0.5887,3.4765,2093
3,0.3794,-1.5071,0.4136,-1.513,1.1069,3.4643,1983
3,0.9451,-1.823,-0.0332,-1.0319,-0.0457,4.3634,1804
3,-0.2004,-2.0,-0.7688,-0.473,-0.0107,4.1913,2030
3,-2.0,-1.9282,-0.0034,0.713,0.9784,3.178,2115
3,-0.9272,-1.8723,0.6804,1.0116,-1.3753,2.75,2258
3,0.5103,-1.7332,0.0718,0.0388,-1.5775,4.2014,2029
3,0.0562,-1.2034,0.281,-1.0493,-0.591,3.2473,1949
3,-0.4299,-1.2534,-0.0044,-0.9424,-1.7727,3.7241,1986
3,-0.8015,-1.2126,-0.0771,-0.9144,-1.5486,2.8971,2017
3,-0.5161,-0.9397,0.1165,-0.3779,-1.7056,2.5164,2071
3,-0.5635,-0.6458,0.3372,-0.7205,-1.8847,2.3846,2016
3,-0.834,-0.6575,0.0833,-0.4135,-0.9845,2.0909,2104
3,-0.9932,-0.6296,0.0222,-0.1571,-0.3227,1.9877,2042
3,-0.7852,-0.499,0.1235,0.245,0.1289,2.3541,2039
3,-0.8013,-0.71,0.2993,0.1091,0.4895,1.8065,2049
3,-0.8281,-0.5576,0.3164,-0.3268,1.0222,0.9407,2043
3,-0.7229,0.6157,0.0984,0.1787,1.4732,0.9733,2024
3,-0.6206,-0.3674,0.2532,-0.2404,1.5544,-0.3153,2047
3,-0.1287,-0.2397,0.1987,-0.6668,1.5418,-0.804,2053
3,0.2422,-0.1255,0.0417,-1.0314,1.4692,-0.9341,2036
3,0.3,-0.0925,-0.0908,-0.9712,1.4455,-1.2826,2035
3,0.489,0.1394,-0.1458,-0.718,1.2375,-1.4824,2042
3,0.1174,-0.0632,-0.1328,-0.7195,1.0167,-1.743,2036
3,-0.1614,0.063,-0.022,-0.4815,1.0833,-2.0948,2053
3,-0.1555,0.2678,-0.0435,-0.2177,1.0521,-2.2953,2064
3,-0.2019,0.1772,-0.0554,-0.1641,0.9995,-2.7293,2045
3,-0.1023,0.2664,-0.1409,0.0067,0.8103,-2.9395,2038
3,-0.0972,0.1577,-0.0723,-0.0438,0.4974,-3.1167,2055
3,-0.1814,0.0793,-0.0669,0.026,0.3611,-3.2929,2019
3,-0.3438,0.0671,-0.0952,0.0778,0.3745,-3.3825,2030
3,-0.4062,0.0728,-0.1753,0.1806,0.4896,-3.3126,2041
3,-0.4819,0.0554,-0.2583,0.3422,0.5839,-3.1995,2036
3,-0.6284,0.0071,-0.2664,0.5071,0.6628,-3.038,2043
3,-0.7642,-0.041,-0.2241,0.6301,0.6843,-2.8778,2032
3,-0.8359,-0.0669,-0.1968,0.6078,0.5972,-2.6362,2053
3,-0.8271,-0.0996,-0.2769,0.5843,0.5091,-2.2559,2040
3,-0.7881,-0.0942,-0.3201,0.5904,0.3049,-1.7309,2054
3,-0.9172,-0.0703,-0.2393,0.3184,0.1562,-1.5792,2050
3,-0.5073,-2.0,-1.1362,-2.6276,-0.5432,-1.275,2052
3,-2.0,-2.0,1.0398,-2.9807,-4.3635,-3.5259,2281
3,-2.0,1.9999,1.9999,1.3203,2.6014,4.3634,2658
3,-1.5049,-0.6318,-1.8728,-0.1184,1.6404,1.5098,1696
3,-0.7114,-1.9458,-1.4417,3.6671,0.0181,-4.2676,1910
3,0.8469,-1.8259,1.823,-0.1526,3.3621,-1.5677,2070
3,1.9999,-0.0579,-1.886,-0.5819,1.8233,-0.155,2164
3,-0.334,-2.0,-1.3296,0.9324,1.2344,0.9541,1890
3,-0.7817,-1.7395,0.3582,0.9288,1.23,0.4125,2005
3,0.061,-1.3123,0.4285,-0.1976,-0.9568,-0.1716,2068
3,-0.2322,-1.0012,0.0154,0.5553,-0.5292,0.23,2075
3,-0.7546,-1.1792,0.3318,0.5846,-0.0542,-0.2511,2038
3,-0.9521,-1.0535,0.3284,-0.0063,-0.3421,0.0743,2039
3,-0.8792,-0.9023,0.02,-0.2015,0.3096,-0.2083,2031
3,-0.4404,-0.8467,-0.0107,-0.0499,0.1719,-0.2179,2055
3,-0.3228,-1.052,-0.0198,-0.0993,0.0589,-0.2621,2057
3,-0.5735,-0.9556,-0.0793,-0.1722,-0.2064,-0.3418,2022
3,-0.4495,-0.9114,0.0115,-0.1418,-0.292,-0.4109,2065
3,-0.2805,-0.876,-0.0852,-0.025,0.018,-0.3838,2083
3,-0.2949,-0.9536,-0.0649,0.045,-0.0774,-0.3378,2010
3,-0.4106,-0.991,-0.0842,0.0538,-0.0479,-0.3401,2052
3,-0.4626,-0.9822,-0.0679,0.0533,0.0136,-0.3705,2012
3,-0.4629,-0.9968,-0.075,0.0577,0.0111,-0.4056,2012
3,-0.4712,-1.0012,-0.0435,0.0477,-0.0425,-0.4879,2051
3,-0.4033,-0.9717,-0.0703,0.0641,-0.0397,-0.5299,2042
3,-0.3435,-0.9463,-0.0171,0.1229,0.0252,-0.5108,1946
3,-0.3269,-0.939,0.0251,0.133,-0.002,-0.4912,2073
3,-0.3501,-0.9702,0.0469,0.1048,0.0289,-0.5116,2032
4,-0.3123,-1.0464,0.0574,0.059,0.018,-0.4579,2052
4,-0.3147,-1.0708,0.063,-0.0473,-0.1462,-0.4611,2032
4,-0.4099,-0.9675,-0.0002,-0.0587,-0.0635,-0.5734,2025
4,-0.5146,-0.96,-0.012,-0.0425,0.1615,-0.6893,2028
4,-0.2776,-1.0667,0.1643,-0.3661,-0.5034,-0.8429,1983
4,-0.2969,-0.9468,-0.0242,-0.1795,0.2169,-0.8492,2019
4,-0.2341,-1.01,-0.168,-0.1052,0.1048,-0.9243,2045
4,-0.084,-0.8479,-0.0845,0.3033,0.0003,-0.675,2021
4,-0.325,-0.9014,-0.2681,0.1912,-0.0052,-0.7601,2066
4,-0.1985,-0.9956,-0.0503,0.2575,0.0405,-0.6528,2049
4,-0.041,-0.9688,-0.0166,0.053,-0.0602,-0.7376,2140
4,-0.0259,-0.979,-0.1824,0.1329,-0.0226,-0.6758,2280
4,-0.0647,-1.0186,-0.062,0.2674,-0.0545,-0.6044,2171
4,0.0251,-0.9863,-0.0127,0.3915,0.1461,-0.4598,1950
4,0.1143,-1.0457,0.0051,0.4265,0.1493,-0.3904,2107
4,0.0344,-1.0437,-0.0271,0.4593,0.172,-0.3902,1970
4,0.0139,-1.0396,-0.0068,0.4346,0.2838,-0.3461,2114
4,-0.0339,-0.9351,-0.0842,0.4189,0.3862,-0.2633,2157
4,0.1064,-0.8496,-0.0952,0.2864,0.2661,-0.1922,2227
4,0.1353,-0.8794,0.0,0.5743,0.2956,0.0438,1970
4,0.0269,-1.0493,0.1577,0.3779,0.0462,-0.1237,2031
4,-0.1392,-1.083,-0.0112,0.2658,0.0067,-0.0194,1796
4,-0.1694,-1.0173,-0.0103,0.4003,0.2368,0.1402,1789
4,-0.0825,-1.0261,0.0271,0.3816,0.3309,-0.0051,1527
4,-0.0303,-1.0466,-0.0063,0.3896,0.2633,-0.0108,1616
4,-0.0198,-1.085,0.0098,0.5012,0.2852,0.1143,1958
4,0.0015,-1.1826,0.0427,0.4538,0.2465,0.1732,2135
4,-0.0842,-1.158,0.0435,0.4313,0.2682,0.2072,1948
4,-0.1089,-1.2146,0.0588,0.4141,0.3136,0.1859,2108
4,-0.0361,-1.2869,0.071,0.2868,0.4059,0.2393,1839
4,-0.0798,-1.272,-0.0073,0.3578,0.331,0.3204,1978
4,-0.126,-1.2183,0.0891,0.4477,0.2296,0.449,2102
4,-0.2063,-1.2363,0.1377,0.4119,0.134,0.4761,2182
4,-0.3059,-1.2429,0.2029,0.4967,0.0859,0.3691,2021
4,-0.3647,-1.3323,0.2666,0.524,0.0824,0.3838,2354
4,-0.3225,-1.366,0.2671,0.5191,0.1318,0.4172,2454
4,-0.1726,-1.5249,0.3296,0.3641,0.1272,0.3859,1210
4,-0.032,-1.6655,0.2593,0.338,-0.1135,0.2714,2200
4,0.2402,-1.5933,0.2927,0.4052,-0.2942,0.2353,2092
4,0.3354,-1.5818,0.4121,0.3425,-0.5939,0.2035,2047
4,0.6094,-1.5781,0.4573,0.0157,-0.9003,0.5048,2027
4,0.7239,-1.4521,0.3081,0.0433,-1.0712,0.6367,1853
4,0.7759,-1.4639,0.2798,0.0095,-0.7698,1.107,2029
4,1.1597,-1.3354,0.1951,0.0489,-0.281,2.061,1787
4,1.5784,-1.6799,0.1533,-0.0407,-0.7011,2.8347,2347
4,1.262,-1.6099,0.2043,-0.2502,-0.766,2.4487,2003
4,0.1025,1.0549,-0.7068,1.2312,-1.3685,0.2061,1919
4,-0.5789,-2.0,0.2476,-0.279,0.7842,0.7662,2691
4,-0.3098,-2.0,0.4087,-1.8036,0.31,3.4283,1947
4,0.3936,-1.947,0.0085,-1.5058,0.3526,4.3634,1876
4,-0.4048,-1.8845,-0.4246,-0.6902,-0.1609,3.5668,1884
4,-1.1008,-1.9426,-0.1011,1.6737,0.1649,2.3945,2039
4,0.5454,-2.0,0.9719,-0.0068,-2.5755,4.3634,2056
4,-0.7441,-1.4409,0.2185,-2.1278,-1.1013,3.2152,2016
4,-0.51,-1.1414,-0.2424,-1.3745,-0.3947,3.6609,2029
4,-0.2749,-1.1377,0.2612,-1.3288,-1.2351,3.5982,2042
4,-0.2771,-1.0991,-0.1709,-1.0605,-1.1896,2.6141,2050
4,-0.4097,-1.0522,0.145,-0.6767,-1.1615,1.7579,2046
4,-0.7239,-0.8359,0.2646,-0.9989,-1.2267,2.4593,2055
4,-0.9561,-0.5193,0.2644,-0.6839,-1.1943,2.2001,2020
4,-0.8625,-0.4827,0.3635,-0.4376,-0.7329,1.8823,2052
4,-0.823,-0.3428,0.3628,-0.1622,-0.1934,1.6673,2061
4,-0.8762,-0.4343,0.3127,-0.5145,0.3714,1.0033,2038
4,-0.8159,-0.2539,0.1956,-0.7962,0.7594,0.4689,2045
4,-0.696,-0.0854,0.137,-0.8863,0.8328,-0.142,2053
4,-0.3774,-0.073,0.1572,-0.8741,0.9364,-0.8918,2062
4,0.144,-0.0256,0.0964,-0.8324,0.9267,-1.1057,2046
4,0.1377,-0.0437,-0.0598,-0.5679,0.9427,-1.1339,2042
4,0.0083,0.0752,0.0649,-0.4995,0.7492,-1.4709,2057
4,-0.2178,0.0386,0.0574,-0.4675,0.7749,-1.945,2063
4,-0.374,0.0808,0.1721,-0.2774,0.9737,-2.1399,2081
4,-0.2705,0.1169,0.1196,-0.2494,1.0343,-2.2784,2065
4,-0.2048,0.0669,0.0728,-0.2005,0.9973,-2.7014,2024
4,-0.1121,0.0312,-0.1167,-0.4203,0.9367,-2.9847,2030
4,-0.1914,0.1353,-0.0876,-0.2412,0.5974,-3.0063,2026
4,-0.2256,0.0862,-0.2021,-0.1995,0.2603,-3.3035,2031
4,-0.2144,0.0381,-0.2415,0.0246,-0.104,-3.4631,2024
4,-0.1489,-0.0764,-0.2507,0.0965,-0.4345,-3.3628,2036
4,-0.2344,-0.1262,-0.2424,0.1068,-0.6453,-3.1524,2060
4,-0.4639,-0.1831,-0.2163,0.1922,-0.7015,-2.7938,2042
4,-0.7532,-0.2507,-0.1829,0.2593,-0.5822,-2.4595,2056
4,-1.0151,-0.2766,-0.0854,0.3011,-0.4193,-2.1489,2048
4,-1.1104,-0.2451,-0.0471,0.245,-0.3132,-1.7883,2050
4,-1.0935,-0.2131,-0.0176,0.083,-0.2783,-1.5262,2052
4,-1.0342,-0.2002,-0.0679,-0.0876,-0.225,-1.2954,2030
4,-1.1826,-0.1453,-0.0515,-0.2872,-0.0059,-1.1969,2079
4,-1.2156,0.0142,-0.1096,-0.7184,0.5036,-1.292,2007
4,-0.7583,0.3071,-0.303,-0.6544,0.53,-1.0661,2045
4,-0.5413,0.6721,-0.3657,-0.5979,0.4687,-1.046,2143
4,0.3918,-0.0779,-0.3792,-1.2011,-0.2986,-1.0516,2032
4,-0.6401,0.3281,-1.5903,-2.5308,3.0634,-2.5504,1837
4,-1.9949,-1.8894,-0.2598,3.5553,1.3508,-0.2502,2244
4,-2.0,-2.0,0.9377,1.3731,2.1588,4.3634,2320
4,0.9294,-1.3188,-0.5305,1.49,-2.0873,-2.3221,2216
4,1.9999,0.9595,1.3677,0.8215,-2.2776,2.3747,1859
4,-1.5835,0.4541,-0.5776,-0.8291,2.8521,-1.5977,1866
4,-1.1724,-0.0708,-1.4089,0.3354,-0.0008,1.1106,2022
4,-0.3188,-0.9387,0.9021,1.0424,1.8743,0.1447,2096
4,0.6926,-1.1357,0.8108,-0.1771,0.3597,-0.1848,2075
4,-0.2324,-1.2644,-0.0967,-0.251,-0.2735,-0.3808,2063
4,-0.729,-0.9724,-0.0347,0.0581,-0.4923,-0.3289,2024
4,-1.1431,-1.0969,-0.0696,0.2305,0.269,0.3298,2032
4,-0.8538,-1.1909,-0.043,0.1293,0.4894,-0.0103,2055
5,-0.0693,-0.9751,0.0752,-0.1292,0.0095,-0.3693,2034
5,0.0288,-0.8682,0.0088,-0.2004,-0.0746,-0.3602,2061
5,-0.2405,-1.0576,-0.0405,-0.1919,-0.0005,-0.2978,2046
5,-0.4946,-1.1174,-0.1401,-0.2159,-0.1028,-0.3524,2043
5,-0.448,-0.9829,-0.1897,-0.19,-0.2013,-0.4489,2042
5,-0.3296,-0.9731,-0.1736,-0.1321,-0.2453,-0.5219,2093
5,-0.2883,-1.0212,-0.168,-0.0792,-0.2252,-0.5759,2017
5,-0.3401,-1.0674,-0.1614,-0.0554,-0.2689,-0.6405,2054
5,-0.3887,-1.0374,-0.189,-0.0847,-0.4085,-0.7074,2052
5,-0.416,-0.9695,-0.2026,-0.0751,-0.4534,-0.7797,2049
5,-0.3733,-0.9595,-0.1848,-0.0498,-0.4797,-0.8308,2045
5,-0.3455,-0.9709,-0.1438,-0.0189,-0.3922,-0.8066,2052
5,-0.335,-0.9136,-0.1265,0.0474,-0.3135,-0.6452,2053
5,-0.2385,-0.9585,-0.0913,0.1137,-0.3051,-0.7122,2047
5,-0.1052,-0.9539,-0.0852,0.1571,-0.3039,-0.644,2062
5,-0.0308,-0.989,-0.0181,0.0848,-0.3583,-0.4193,2025
5,-0.1194,-1.0957,0.0383,0.059,-0.4373,-0.4805,2058
5,-0.208,-1.0969,-0.0544,-0.0198,-0.539,-0.6577,2061
5,-0.1665,-1.0308,-0.0115,0.0346,-0.2772,-0.6773,2063
5,0.1592,-0.9719,-0.0117,-0.2839,0.0338,-0.5874,2049
5,0.2314,-0.8616,0.0017,-0.2302,-0.1286,-0.599,2059
5,0.1814,-0.7842,-0.1191,0.3272,-0.5833,-0.4522,2059
5,-0.1323,-1.0073,-0.1118,0.2996,-0.3221,-0.7303,2042
5,-0.0647,-1.0396,-0.1702,0.2854,-0.4036,-0.7106,2049
5,0.0398,-1.021,0.0115,0.1178,-0.2211,-0.6341,2040
5,0.1067,-1.0122,-0.0134,0.0012,-0.173,-0.5754,2059
5,0.1038,-0.697,-0.2292,0.2863,-0.5674,-0.4888,2097
5,0.0061,-0.8318,-0.1311,0.5372,-0.7255,-0.4958,1849
5,0.0244,-1.0557,0.0137,0.433,-0.7375,-0.3621,2057
5,0.1284,-0.9656,-0.0017,0.5843,-0.6416,-0.3831,2137
5,0.4482,-0.8977,0.0061,0.8983,-0.6906,-0.2385,1933
5,0.3064,-1.0544,0.0884,0.7939,-0.879,-0.2935,2264
5,-0.1045,-1.1055,0.0498,0.5853,-0.7847,-0.2766,2025
5,0.0342,-1.0955,0.0618,0.3826,-0.5026,0.0399,2070
5,0.2454,-1.0073,0.02,0.2641,-0.1424,0.1883,2129
5,0.2439,-0.9563,-0.0525,0.3056,-0.0365,0.3404,2059
5,0.1475,-0.9546,-0.0322,0.3012,-0.0056,0.4192,2142
5,0.2356,-1.0188,0.1052,0.1643,0.1443,0.5111,1937
5,0.3206,-1.0896,0.1204,0.0794,0.3341,0.5694,2247
5,0.2563,-1.1489,0.0476,-0.0794,0.2549,0.7388,2030
5,0.0352,-1.0713,0.0127,-0.0549,0.3539,0.7769,2197
5,-0.0205,-1.0898,-0.0085,-0.1348,0.4156,0.7907,1690
5,-0.0176,-1.1077,-0.0989,-0.2874,0.4583,0.7279,2332
5,-0.1213,-1.1497,-0.1594,-0.2225,0.4076,0.5894,2449
5,-0.1624,-1.1311,-0.145,-0.0708,0.2987,0.5498,1309
5,-0.2434,-1.0723,-0.0662,0.1646,0.2506,0.4852,2179
5,-0.2734,-1.1357,0.0845,0.1839,0.1297,0.3143,1570
5,-0.3865,-1.0679,-0.0129,0.2452,0.2625,0.5281,1734
5,-0.4558,-1.0801,-0.0618,0.4586,0.3577,0.734,2369
5,-0.4348,-1.1533,0.0396,0.4894,0.3819,0.6858,1267
5,-0.4485,-1.2234,-0.0122,0.5272,0.2867,0.489,2564
5,-0.3657,-1.2319,-0.0132,0.5525,0.3153,0.4125,2671
5,-0.2747,-1.4524,0.0276,0.5272,0.2882,0.1922,2228
5,-0.1682,-1.7107,0.1855,0.469,0.1221,0.0285,1952
5,0.0679,-1.7371,0.4009,0.3934,-0.2116,0.0698,1987
5,0.2205,-1.6062,0.5776,0.2614,-0.4168,0.2097,1881
5,0.4321,-1.6853,0.6404,0.091,-1.1773,0.454,2637
5,0.7883,-1.6287,0.7188,0.063,-1.4291,0.8661,2133
5,0.7771,-1.4709,0.5242,0.0812,-1.1146,0.8448,2000
5,0.7397,-1.4395,0.5029,0.0374,-1.3781,1.3555,1996
5,0.7344,-1.2671,0.3145,0.0127,-1.3286,1.5356,1781
5,0.3889,-0.5151,-0.1758,0.0411,-0.5962,1.2866,2136
5,0.6223,-2.0,0.2981,-0.7066,-0.1844,-1.413,1972
5,0.0488,-2.0,0.1931,-0.4015,0.2494,2.8936,2194
5,0.7095,-0.9133,0.0791,-0.2105,1.7076,3.1275,2008
5,0.7144,-1.8682,-0.0039,-0.2699,1.2862,3.9194,1859
5,-0.1404,-2.0,-0.4351,0.2217,0.593,3.8221,1935
5,-1.0957,-2.0,0.209,0.3579,1.1994,3.5027,1986
5,-0.6008,-2.0,0.5925,0.9452,-0.5926,3.281,2164
5,1.0137,-2.0,0.0837,0.2163,-1.3327,3.9665,2190
5,-0.0449,-1.6365,-0.1382,-0.3816,0.0518,4.135,2055
5,-0.1555,-1.2747,-0.1323,-0.5514,-1.8136,4.3634,1981
5,-0.6504,-1.512,0.2119,-0.0981,-1.7444,4.3634,1973
5,-0.7703,-1.1892,0.1445,-0.3834,-1.6293,3.3702,2066
5,-0.6008,-1.1133,0.4338,-0.4542,-1.9469,2.9761,2092
5,-0.8567,-0.5857,0.3489,-0.4737,-1.6202,2.8418,2032
5,-0.9629,-0.4912,0.2378,-0.0089,-0.9259,2.4904,2010
5,-0.8237,-0.6265,0.3147,0.1242,-0.6203,2.6215,2024
5,-0.7708,-0.5972,0.2517,0.4896,0.0768,2.4406,2036
5,-0.9624,-0.3574,0.3406,0.7233,0.9195,1.7756,2043
5,-1.0493,-0.4783,0.4387,0.5594,1.4848,1.2619,2042
5,-0.9575,-0.4331,0.4133,0.0739,1.8199,0.5778,2047
5,-0.5994,-0.3235,0.2344,-0.3076,1.9723,-0.1902,2036
5,-0.1145,-0.2083,0.1455,-0.7332,2.0126,-0.6701,2050
5,0.3342,-0.0525,-0.0229,-1.0071,1.8261,-0.7336,2037
5,0.2891,-0.1155,-0.0122,-0.9532,1.7029,-0.8532,2048
5,0.0986,-0.0127,-0.219,-0.8369,1.3442,-1.0648,2083
5,-0.0925,0.1321,-0.2078,-0.3992,1.0441,-1.3447,2058
5,-0.1541,0.1912,-0.1123,-0.2344,1.0226,-1.7793,2044
5,-0.0034,0.0613,-0.0413,-0.1923,0.9255,-2.121,2080
5,0.0576,0.083,-0.1506,-0.066,0.7846,-2.3896,2070
5,-0.0161,0.0371,-0.1309,-0.1296,0.5251,-2.6302,2039
5,-0.0649,0.0647,-0.1917,-0.0754,0.2691,-2.8469,2061
5,-0.1187,0.0881,-0.2285,-0.0152,0.1047,-2.9625,2003
5,-0.1609,0.0503,-0.2244,0.0678,-0.0928,-3.0883,1991
5,-0.1843,0.0032,-0.2773,0.1627,-0.2615,-3.1104,2067
5,-0.2595,0.0208,-0.2764,0.2804,-0.3015,-3.0232,2046
5,-0.4297,0.0061,-0.2419,0.3859,-0.1977,-2.8882,2052
5,-0.627,-0.0745,-0.188,0.4743,-0.0577,-2.7833,2043
5,-0.7144,-0.1245,-0.115,0.4968,0.0621,-2.6285,2049
5,-0.7136,-0.1599,-0.1243,0.4442,0.1173,-2.3914,2045
5,-0.7075,-0.1404,-0.1584,0.4783,0.0642,-2.053,2055
6,-0.752,-0.1965,-0.1885,0.3416,-0.0162,-1.752,2053
6,-0.9729,-0.2605,-0.2781,0.2167,-0.0146,-1.739,2051
6,-1.0256,-0.208,-0.2981,0.234,0.1079,-1.6687,2038
6,-0.8704,-0.1277,-0.2349,0.2039,0.1128,-1.5073,2006
6,-0.7346,-0.0383,-0.2827,0.0759,0.1654,-1.4282,2001
6,-0.6411,0.2017,-0.3052,-0.0071,0.2092,-1.439,2041
6,-1.4268,-2.0,-2.0,-1.6266,0.5847,-1.6636,1983
6,-0.3628,-2.0,1.9999,-4.2224,-0.5327,-1.8785,1496
6,-2.0,0.3411,1.1199,1.0351,1.5767,4.3634,2667
6,-1.2361,-2.0,-0.7432,0.64,0.4348,-0.9905,2166
6,-0.1914,-0.759,-1.1006,2.4089,0.1213,-1.2267,1966
6,1.3403,-1.7759,0.7319,0.2646,2.212,-1.7126,1839
6,0.3594,1.0286,-0.7983,-0.5205,2.4728,1.072,1922
6,0.2957,-0.615,-0.991,0.8144,0.4863,0.4856,2209
6,-0.0464,-0.8494,0.0586,0.2895,-0.177,1.3489,2140
6,-0.8005,-0.5581,0.8022,0.3464,0.337,0.2902,2058
6,-0.752,-1.5474,-0.0005,0.0928,-0.3057,-0.0894,2056
6,-0.7407,-1.3225,0.1912,0.1206,0.2959,-0.0017,2044
6,-0.7427,-0.7996,0.0078,0.0161,0.2734,0.2599,2037
6,-0.6826,-0.8008,-0.0298,-0.0453,0.1216,-0.0613,2035
6,-0.3896,-0.9546,0.1274,-0.0646,0.1131,-0.1712,2094
6,-0.3696,-0.9656,0.075,-0.0459,0.0546,-0.2187,1958
6,-0.4912,-1.0291,0.1194,-0.0884,0.1097,-0.2693,2133
6,-0.5195,-1.0439,0.0471,-0.1778,0.178,-0.5067,2088
6,-0.3586,-1.0508,0.0037,-0.2273,0.0089,-0.5473,2052
6,-0.2791,-0.9626,-0.0723,-0.1759,-0.0084,-0.4365,2048
6,-0.4102,-0.8904,-0.0532,-0.0625,0.0317,-0.4123,2039
6,-0.4802,-0.9519,-0.021,-0.0153,-0.0077,-0.5368,2047
6,-0.4873,-1.0068,0.0007,-0.037,-0.1016,-0.7465,2069
6,-0.5139,-1.041,-0.0317,-0.1059,-0.1186,-0.7891,2095
6,-0.5205,-1.0049,-0.0251,-0.1266,-0.0386,-0.7486,2083
6,-0.4614,-0.9783,-0.0071,-0.1326,0.0419,-0.7775,2014
6,-0.3601,-0.9692,-0.0171,-0.1601,0.0425,-0.7457,2063
6,-0.3167,-0.9319,-0.0413,-0.114,0.0727,-0.738,2030
6,-0.3027,-0.9175,-0.0649,-0.0625,0.0551,-0.6843,2020
6,-0.2864,-0.9392,-0.0645,-0.0097,0.0142,-0.7116,2057
6,-0.2729,-0.9656,-0.0608,0.0329,-0.0306,-0.6465,1931
6,-0.228,-0.9512,-0.0647,0.1093,0.0068,-0.5464,2037
6,-0.3044,-1.0159,-0.0356,0.0466,-0.1083,-0.5518,2115
6,-0.2964,-0.9797,-0.0786,0.0582,0.0028,-0.4999,2028
6,-0.2913,-0.947,-0.0483,0.0346,0.0631,-0.6317,2152
6,-0.1968,-0.9731,0.0088,-0.0703,0.0952,-0.7058,2114
6,0.2373,-1.4194,0.4712,-1.344,0.2103,-0.1085,2082
6,-0.2859,-0.6172,-0.4724,0.2775,-0.2514,-0.7706,1950
6,-0.2903,-0.6692,-0.0159,0.56,-0.1607,-0.5633,2016
6,-0.2717,-1.062,-0.1116,0.4006,-0.2051,-0.6905,2119
6,-0.0591,-1.001,-0.0652,0.5695,-0.085,-0.8231,2069
6,0.1992,-1.0813,0.217,0.3882,0.1008,-0.646,2148
6,0.2109,-1.0674,0.1018,0.3111,-0.1626,-0.6357,1916
6,0.1289,-0.9912,0.1433,0.2926,-0.3396,-0.5477,2081
6,0.0776,-0.9165,0.0122,0.6456,-0.4822,-0.6397,2126
6,0.2959,-0.896,0.0786,0.6921,-0.5054,-0.39,2011
6,0.0889,-1.0457,0.0562,0.4456,-0.5076,-0.442,2037
6,-0.0806,-1.0696,-0.0212,0.3249,-0.2776,-0.3422,2321
6,0.0552,-1.0146,0.0308,0.3007,-0.3163,-0.0641,2072
6,0.1904,-0.9978,-0.0037,0.2155,-0.2615,-0.0836,1992
6,-0.012,-0.9897,-0.0068,0.1751,-0.1832,-0.0324,1898
6,-0.0305,-0.9983,-0.0181,0.2203,-0.1184,0.0894,2282
6,-0.0518,-0.9648,0.0259,0.2693,-0.1766,0.1746,2117
6,-0.0393,-1.0034,0.0767,0.2783,-0.1975,0.1927,2043
6,0.1699,-1.0383,0.0879,0.2167,-0.2241,0.3337,2426
6,-0.1221,-1.0918,0.1365,0.1735,-0.0535,0.0892,1395
6,-0.0967,-1.0625,0.0527,0.2452,-0.0956,0.3528,2246
6,-0.0225,-0.9851,0.0823,0.2366,-0.0069,0.4767,2046
6,-0.0544,-1.1047,0.0798,0.1344,0.0121,0.3537,2029
6,-0.1206,-1.1577,-0.0583,0.1485,0.0188,0.405,2664
6,-0.1902,-1.0916,-0.0562,0.2763,-0.029,0.486,2390
6,-0.1741,-1.095,-0.0107,0.2643,-0.0599,0.4954,2329
6,-0.1655,-1.1465,0.0168,0.2306,-0.0988,0.4418,2099
6,-0.2188,-1.2097,0.0344,0.2546,-0.1316,0.4742,1816
6,-0.2798,-1.2561,0.0974,0.2344,-0.0996,0.5319,1313
6,-0.3918,-1.3857,0.2175,0.284,-0.1188,0.2493,1220
6,-0.3711,-1.2683,0.1482,0.4642,-0.1498,0.1388,2111
6,-0.1096,-1.3467,0.2219,0.3484,-0.1032,0.2262,2466
6,0.2822,-1.6602,0.2617,0.0322,-0.192,0.2844,1689
6,0.3662,-1.7397,0.3442,0.0936,-0.4508,0.0834,1940
6,0.7883,-1.6296,0.5918,0.0728,-1.0244,0.4183,1960
6,0.6633,-1.4177,0.5798,-0.098,-0.9995,0.712,1914
6,0.5574,-1.2808,0.6001,-0.2574,-0.9741,0.8024,1963
6,0.7024,-1.3022,0.5173,-0.3948,-0.7911,1.1708,1966
6,0.7346,-1.4685,0.4617,-0.4228,-0.5915,1.5422,1760
6,0.563,-1.4546,0.3352,-0.3071,-0.5088,1.4206,1992
6,0.3733,-1.7312,0.2051,-0.2503,-0.9661,1.4805,2072
6,0.2869,-0.8252,0.3914,0.3739,-1.0591,-2.5028,2021
6,-0.0554,-2.0,0.1184,-0.2043,0.9079,2.2285,2194
6,-0.0237,-1.4548,-0.0283,-0.4224,1.8235,4.0081,2173
6,0.3921,-1.3643,-0.6143,-0.2124,-0.4814,2.898,1835
6,-0.3479,-2.0,-0.5808,0.7973,0.907,2.5488,1821
6,-1.1213,-2.0,0.2668,0.2501,2.1734,2.7141,2006
6,-0.8188,-1.5188,0.624,1.2785,1.2591,3.0486,2057
6,-0.0051,-1.9343,0.3335,0.6759,-0.7251,2.7786,2122
6,0.5947,-1.8284,-0.1133,0.0221,-0.1015,3.4689,2024
6,0.0144,-1.4343,-0.0447,-0.5425,0.3733,3.5399,2092
6,-0.3574,-1.3293,0.0396,-0.9443,-0.7854,3.5548,2019
6,-0.5813,-1.3264,0.125,-0.5541,-0.8239,3.2331,1996
6,-0.5229,-1.0715,0.1809,-0.4995,-0.7564,3.1524,1991
6,-0.4705,-0.9246,0.1475,-0.3085,-0.9897,3.2043,2117
6,-0.7126,-0.6357,0.1541,0.0166,-0.8497,2.8161,2025
6,-0.8113,-0.5845,0.1362,0.2444,0.4148,2.1213,2032
6,-0.3799,-0.8359,0.2908,0.3864,-0.715,2.192,2009
6,-0.9531,-0.8154,0.5195,-0.3769,-0.6827,1.2505,1992
7,-0.9187,-0.5,0.3755,-0.7485,-0.3309,1.3918,2048
7,-0.4062,-0.5059,0.2778,-0.3723,0.2703,2.127,2024
7,-0.3425,-0.6462,0.2573,-0.3061,0.9527,1.6886,2020
7,-0.3689,-0.4829,0.2217,-0.7139,1.3243,0.7582,2020
7,-0.2542,-0.2888,0.1594,-0.9345,1.2426,0.489,2048
7,-0.1501,-0.3044,0.1377,-1.1027,0.9383,0.2329,2056
7,-0.1455,-0.2964,0.0925,-1.3719,0.7156,-0.1562,2057
7,-0.0627,-0.1729,0.1582,-1.3699,0.3273,-0.3598,2038
7,-0.1101,-0.1726,-0.0449,-1.1689,0.3654,-0.7795,2061
7,-0.0071,-0.1414,-0.0549,-1.1529,0.2282,-1.19,2042
7,0.033,-0.2112,-0.0659,-1.2461,-0.0779,-1.3905,1953
7,-0.0657,-0.1533,-0.0574,-1.1445,-0.2456,-1.5841,2120
7,-0.1218,-0.0623,-0.1089,-0.9838,-0.2409,-1.7523,2087
7,-0.0608,-0.2529,0.0146,-1.109,-0.5401,-2.0647,2094
7,-0.0286,-0.1572,-0.1294,-0.9827,-0.6454,-2.2368,2057
7,-0.0793,-0.2119,-0.22,-0.9705,-0.8239,-2.4282,2063
7,-0.1411,-0.2217,-0.2339,-0.9083,-0.9379,-2.6642,2042
7,-0.1677,-0.2698,-0.2312,-0.9325,-1.3179,-2.7702,2065
7,-0.134,-0.281,-0.251,-0.9329,-1.6656,-2.8649,2002
7,-0.2095,-0.3184,-0.2607,-0.9738,-1.8551,-2.9835,2030
7,-0.248,-0.313,-0.2476,-0.9682,-2.0445,-3.0196,2049
7,-0.3477,-0.3533,-0.1733,-1.023,-2.2586,-3.0648,2042
7,-0.3923,-0.2188,-0.1978,-1.0469,-2.3249,-2.9889,2056
7,-0.5479,-0.2341,-0.0842,-0.8166,-2.2652,-3.0498,2050
7,-0.748,-0.4497,0.0178,-0.8428,-1.9972,-3.0919,2050
7,-0.8979,-0.5415,0.0386,-0.807,-1.5375,-2.8899,2051
7,-0.9377,-0.6414,0.0312,-0.6505,-1.0762,-2.5128,2043
7,-1.0017,-0.6294,0.0715,-0.5655,-0.7114,-2.296,2042
7,-1.051,-0.564,0.0559,-0.5641,-0.4209,-2.2646,2037
7,-0.9905,-0.5674,-0.0154,-0.5733,-0.2457,-2.3048,2046
7,-0.9182,-0.5588,-0.0896,-0.6384,-0.0176,-2.1373,2047
7,-0.8748,-0.468,-0.1697,-0.6416,0.2125,-1.9916,2057
7,-0.7158,-0.376,-0.1316,-0.4868,0.403,-1.6583,2044
7,-0.6072,-0.2986,-0.0918,-0.4148,0.5208,-1.4119,2047
7,-0.5679,-0.1499,-0.0632,-0.3803,0.493,-1.1938,2055
7,-1.8213,-2.0,-1.2302,-1.931,1.5932,-3.2662,1995
7,-1.3044,0.5393,0.4714,-1.7857,1.959,-1.133,2146
7,-1.5012,0.5725,-0.5889,1.4958,4.3634,2.0798,2055
7,-1.1995,-2.0,1.9999,4.3634,4.2353,1.2023,2468
7,0.5212,-2.0,1.6318,-1.9164,1.9433,0.874,1715
7,0.6836,-0.1538,-1.3105,-2.8409,2.5762,1.3107,1722
7,-0.1348,0.1833,-1.1099,0.1783,-0.0278,-0.9978,1979
7,-0.5586,-0.8442,-0.4514,1.2733,0.3044,-0.2045,2047
7,-0.5156,-0.4961,-0.4521,0.2011,1.8382,-0.4408,2066
7,-0.9858,-0.532,-0.793,0.8316,2.3483,1.1605,2133
7,-0.1172,-1.4963,0.1624,1.0657,1.2228,0.5331,2027
7,0.644,-1.0544,0.5481,-0.4024,-1.2342,0.403,1869
7,0.26,-0.7544,-0.0474,0.5919,-0.8977,0.7237,2051
7,-0.6387,-0.9595,0.1626,0.899,0.0509,0.5044,2053
7,-1.0903,-1.1548,0.3779,0.6602,0.2645,0.6122,2064
7,-1.0623,-1.1763,0.2422,0.1338,0.1698,0.7504,2060
7,-0.6174,-1.1038,0.2466,-0.2176,0.2527,0.1467,2049
7,-0.1682,-0.9407,0.2468,-0.1759,0.3904,0.1827,2066
7,-0.1355,-0.8931,0.1821,-0.2113,0.2706,0.2396,2038
7,-0.3015,-0.9509,0.0322,-0.2823,0.1036,0.2207,2058
7,-0.3762,-1.0281,-0.0491,-0.34,0.0479,0.1397,2018
7,-0.2661,-1.0356,-0.1033,-0.2946,0.0453,0.1302,2065
7,-0.1897,-1.0305,-0.1155,-0.1902,0.1164,0.1967,2054
7,-0.2642,-1.0234,-0.0952,-0.1392,0.0774,0.2116,2081
7,-0.3721,-1.0537,-0.0449,-0.1502,-0.0541,0.1337,2020
7,-0.4158,-1.0479,-0.0605,-0.2099,-0.118,0.0141,2066
7,-0.4199,-1.0239,-0.1143,-0.2868,-0.0691,-0.0763,2043
7,-0.373,-1.0156,-0.1284,-0.2799,0.006,-0.1005,2048
7,-0.304,-1.0193,-0.1406,-0.2959,-0.0245,-0.0844,2054
7,-0.2642,-0.9751,-0.1611,-0.2758,-0.0481,-0.0997,2001
7,-0.2212,-0.9531,-0.1858,-0.2388,-0.0382,-0.1807,2055
7,-0.2339,-0.9829,-0.1807,-0.1671,-0.0129,-0.3057,2016
7,-0.241,-1.0144,-0.1499,-0.1092,0.0196,-0.3994,2061
7,-0.2388,-1.0078,-0.106,-0.0358,-0.0265,-0.396,2067
7,-0.2336,-1.0015,-0.0637,-0.0597,-0.0653,-0.4124,2090
7,-0.2307,-1.0195,-0.0481,-0.1157,-0.0281,-0.448,2013
7,-0.2114,-1.0098,-0.0366,-0.172,-0.0115,-0.4581,2059
7,-0.1572,-1.02,-0.0515,-0.2133,-0.0149,-0.4385,2034
7,-0.0701,-0.9983,-0.1211,-0.2012,0.0138,-0.3617,2041
7,-0.052,-0.9592,-0.1687,-0.0818,0.0349,-0.0969,1978
7,-0.2305,-0.9421,-0.1096,-0.0465,-0.1794,0.0344,2052
7,-0.3606,-1.0505,-0.1541,-0.0959,-0.2978,-0.2027,2073
7,-0.4016,-1.0154,-0.1558,-0.0241,0.0503,-0.2819,2046
7,-0.2263,-1.0154,-0.1233,-0.0622,-0.0372,-0.259,2037
7,-0.1882,-0.9819,-0.1824,-0.0438,0.0402,-0.2691,2074
7,0.0312,-0.9961,-0.0413,-0.3546,0.4389,-0.0113,2104
7,-0.2065,-0.853,-0.1421,-0.2802,0.2966,-0.0925,2077
7,-0.4297,-0.9492,-0.084,-0.1449,0.4738,-0.3338,2065
7,-0.3662,-0.9641,-0.0339,0.0328,0.7003,-0.5124,2088
7,-0.1226,-0.9224,0.0085,-0.0053,0.7933,-0.4227,2044
7,0.0193,-0.9407,0.0378,-0.1669,0.558,-0.2634,2060
7,-0.1494,-0.9702,-0.0261,-0.1288,0.3304,-0.3802,2021
7,-0.1682,-1.03,-0.0344,-0.2743,0.0365,-0.424,2056
7,-0.1982,-1.0171,-0.1001,-0.1643,-0.1531,-0.5462,2000
7,-0.1121,-0.979,-0.0598,-0.0646,0.0442,-0.5771,2066
7,-0.2131,-1.0046,-0.1802,0.0115,0.206,-0.5454,2076
7,-0.1401,-0.9619,-0.1282,0.1723,0.216,-0.4722,2045
7,-0.1951,-0.9543,-0.1765,0.4324,0.3169,-0.5727,2039
7,-0.1025,-1.0764,-0.0359,0.3274,-0.1622,-0.6798,2011
7,-0.0208,-1.0647,-0.0527,0.2691,-0.2473,-0.6668,2041
7,-0.0913,-1.0437,-0.05,0.2081,-0.3868,-0.6706,2029
7,0.0188,-1.0894,0.0112,0.0856,-0.4461,-0.4171,2013
7,-0.052,-1.0083,-0.0708,0.0811,-0.3834,-0.3995,2122
7,-0.0588,-1.0273,-0.0872,0.0854,-0.4303,-0.3378,2031
7,0.0181,-1.033,-0.1106,0.0459,-0.5051,-0.3318,2240
7,0.2017,-0.9951,-0.1174,0.0996,-0.6231,-0.259,2519
7,0.3086,-0.9404,-0.1414,0.2914,-0.7963,-0.1557,2126
7,0.407,-0.9729,-0.0828,0.1874,-0.7778,-0.0521,1715
7,0.4165,-1.0198,-0.071,0.1975,-0.6807,0.1076,2177
8,0.1704,-0.9451,-0.0984,-0.1337,-0.718,-0.1555,2088
8,0.3997,-1.0527,-0.1724,0.1545,-0.3358,0.3723,1992
8,0.4236,-1.0642,-0.2432,-0.017,-0.2567,0.6171,2257
8,0.4158,-1.0745,-0.1775,-0.0571,-0.2282,0.6388,2214
8,0.3921,-1.0991,-0.1768,-0.0088,-0.1736,0.7975,2041
8,0.1387,-1.0525,-0.1753,0.0437,-0.0879,1.0304,2070
8,0.075,-1.0571,-0.0957,0.0462,-0.0525,1.1962,2100
8,0.0627,-1.0645,-0.0808,-0.0116,-0.0854,1.2344,2045
8,0.0901,-1.0273,-0.0435,-0.016,-0.0928,1.3644,1982
8,0.1313,-0.9866,-0.0923,-0.0338,-0.1317,1.4422,2177
8,0.1333,-0.9702,-0.1143,-0.0486,-0.1093,1.489,1919
8,0.1287,-1.0623,-0.1089,-0.0882,-0.0863,1.5776,1976
8,0.1252,-1.1128,-0.0969,-0.0691,-0.0736,1.6953,2075
8,0.0952,-1.1667,-0.0547,-0.1167,-0.1005,1.7803,2061
8,-0.0193,-1.1558,-0.041,-0.1292,-0.187,1.8668,2026
8,-0.1072,-1.1433,0.0032,-0.1509,-0.1855,1.8911,2068
8,-0.1433,-1.0757,0.0203,-0.2073,-0.2725,1.9371,2061
8,-0.165,-1.1465,0.0747,-0.204,-0.3064,1.959,2049
8,-0.2837,-1.2612,0.1145,-0.2721,-0.2814,1.9536,2071
8,-0.3704,-1.2795,0.1794,-0.4709,-0.3446,1.9821,2054
8,-0.2024,-1.3162,0.2019,-0.5331,-0.6063,1.9358,1857
8,-0.2153,-1.3528,0.1978,-0.6094,-0.3322,1.7615,2042
8,-0.2424,-1.4695,0.2185,-0.6825,-0.6493,1.7685,2050
8,-0.1084,-1.5703,0.2239,-0.9321,-0.8123,1.7094,2054
8,0.1477,-1.6362,0.1584,-1.144,-0.997,1.6602,2050
8,0.3774,-1.5303,0.1438,-1.222,-1.1208,1.8805,2056
8,0.3652,-1.4807,0.1836,-1.4082,-1.2259,1.9213,2041
8,0.312,-1.469,0.198,-1.5193,-1.5628,2.0884,2046
8,0.4412,-1.3623,0.1943,-1.3669,-1.7242,2.1951,2046
8,0.104,-1.3818,0.1316,-1.3941,-1.9241,2.4674,2041
8,0.1162,-1.3093,0.0569,-1.6941,-2.5754,2.5898,2072
8,0.1829,-1.2075,0.0291,-2.077,-3.3375,2.7472,2093
8,-0.2048,-1.3015,-0.001,-2.3346,-3.7744,2.6,2173
8,-0.4954,-1.3022,-0.0173,-2.2113,-4.0864,2.3029,2059
8,-0.6499,-1.2017,0.0195,-2.013,-3.9267,2.049,1957
8,-0.3721,-1.1843,0.1724,-2.0876,-4.0532,2.1149,1978
8,-0.8584,-0.0427,0.0559,-1.3059,-3.6431,2.8293,1981
8,-0.7332,-0.3186,0.2576,-2.1206,-4.3635,1.9951,2048
8,0.1572,-0.4978,0.0679,-2.327,-4.3635,1.4503,2070
8,0.7512,-0.2969,0.1541,-3.6141,-4.3635,3.4304,2056
8,-1.3054,-0.2227,0.4319,-2.1522,-4.3635,-0.915,2059
8,-0.3679,0.0251,0.8025,-0.8481,-4.3635,0.1341,2035
8,-0.3889,-0.4099,0.7361,-1.4166,-4.3635,0.3141,2057
8,-0.3789,-0.4646,0.6697,-2.1445,-4.3635,-0.4444,2059
8,-0.1321,-0.3276,0.7832,-1.6033,-4.3635,0.0703,2050
8,-0.6562,-0.5496,0.9851,-1.4838,-4.3635,-0.1569,2039
8,-0.9167,-0.4717,0.7734,-1.8038,-2.5934,-0.2409,2039
8,-1.2698,-0.4128,0.6555,-1.5637,-1.0134,-0.1253,2039
8,-1.0408,-0.3403,0.7134,-2.2975,-0.1964,-1.1156,2035
8,-0.8274,-0.3062,0.5488,-2.4117,0.5139,-1.5811,2056
8,-0.6616,-0.3198,0.4351,-2.2559,0.9794,-2.2217,2051
8,-0.6338,-0.3281,0.311,-2.1475,1.1488,-2.5171,2052
8,-0.6174,-0.3506,0.1785,-2.0809,1.1853,-2.6926,2045
8,-0.4106,-0.4023,0.1047,-1.9636,1.0653,-2.928,2048
8,-0.1863,-0.4172,0.0671,-1.9109,0.8404,-3.1934,2046
8,-0.0217,-0.4089,-0.0352,-1.8725,0.4505,-3.4247,2043
8,0.0525,-0.4033,-0.1221,-1.6653,-0.057,-3.5532,2047
8,-0.1052,-0.4124,-0.042,-1.6286,-0.6124,-3.7113,2043
8,-0.1375,-0.4666,-0.1538,-1.6631,-0.8427,-3.6451,2058
8,-0.0935,-0.6228,-0.1006,-1.3978,-1.1175,-3.5195,2047
8,-0.0269,-0.8164,-0.0989,-1.1419,-1.0479,-3.6384,2036
8,-0.1541,-0.8557,-0.0188,-1.2892,-1.1782,-3.813,2034
8,-0.2183,-0.8455,-0.0461,-1.3597,-1.7211,-3.8697,2039
8,-0.2271,-0.9202,-0.083,-1.3062,-2.376,-3.8996,2037
8,-0.1917,-0.9741,-0.0854,-1.3704,-2.9879,-3.9012,2040
8,-0.166,-1.0281,-0.1125,-1.4672,-3.4523,-3.8451,2047
8,-0.0547,-1.0649,-0.146,-1.4514,-3.8486,-3.8282,2050
8,-0.0491,-1.168,-0.1492,-1.5213,-4.2134,-3.7824,2049
8,-0.0776,-1.3179,-0.1621,-1.3661,-4.3635,-3.6909,2047
8,-0.1702,-1.4641,-0.0933,-1.1034,-4.3635,-3.6531,2043
8,-0.2043,-1.5544,0.0547,-0.9572,-4.3635,-3.5288,2041
8,-0.1201,-1.5164,0.2217,-0.9617,-4.3635,-3.3045,2044
8,-0.1394,-1.3533,0.4062,-0.7727,-4.3635,-3.1321,2043
8,-0.3108,-1.3135,0.6887,-0.5813,-4.3635,-2.9489,2044
8,-0.5432,-1.2102,1.0037,-0.6147,-3.6561,-2.6629,2056
8,-0.8296,-0.928,1.0935,-0.696,-2.7357,-2.1305,2058
8,-0.8389,-0.7004,0.939,-0.3474,-1.182,-1.7149,2058
8,-0.7861,-0.624,0.9009,0.0317,0.5035,-1.1906,2032
8,-0.9641,-0.6892,0.7905,0.4449,2.4649,-0.8365,2044
8,-1.2688,-0.8132,0.6565,0.7743,3.7458,-0.4956,2036
8,1.9031,-1.9302,1.9999,-1.5773,4.3634,3.9026,2130
8,-0.7341,-1.1589,-0.2449,-0.0943,4.3634,1.7944,1917
8,1.3252,-0.7954,-0.189,0.3835,1.2726,-0.7769,2033
8,1.9999,-2.0,-1.1152,-0.7514,1.6841,-1.0814,2075
8,1.9999,-2.0,-2.0,-0.3978,0.0305,-0.6169,2067
8,1.2815,-0.9067,-0.3557,0.7059,-0.6522,-1.0504,2002
8,-0.7856,-1.1982,-0.0273,0.5882,-1.846,-2.0493,2023
8,-0.2136,-1.1843,0.1396,1.8117,0.3697,0.6197,2126
8,0.5244,-1.6328,0.7676,0.9252,-2.7059,0.8662,2074
8,0.4993,-1.3247,0.8804,-0.4241,-0.4777,0.4585,2054
8,0.575,-0.3633,1.0303,-0.7648,1.2932,0.6827,2048
8,-0.25,-0.9421,0.4919,-0.1734,1.6623,0.8577,2112
8,-0.3579,-1.4988,-0.3259,-0.5509,1.3555,0.8736,2158
8,-0.072,-1.2329,-0.7136,-0.196,1.0877,0.9017,2113
8,0.0823,-1.0073,-0.4175,0.0756,0.9541,0.7032,2095
8,0.2527,-1.0396,-0.4866,0.2625,0.342,0.8636,2050
8,0.5361,-0.9124,-0.5703,0.4417,-0.2995,0.8701,2079
8,0.5195,-0.9587,-0.2908,0.4169,-0.1758,0.6263,2060
8,0.2458,-0.9001,0.0642,0.0394,0.2266,0.6508,2047
8,-0.0222,-0.8936,-0.0203,-0.169,0.3053,0.8436,2060
8,-0.105,-0.98,-0.0828,-0.1923,0.3097,0.8071,1828
9,-0.1362,-1.0288,-0.1025,-0.145,0.3031,0.7216,2087
9,-0.009,-1.0049,-0.0662,-0.0575,-0.0091,0.7195,2126
9,-0.0071,-1.0303,-0.1382,-0.0987,-0.0469,0.5309,2081
9,-0.033,-1.0085,-0.145,-0.0353,-0.0594,0.3267,2013
9,0.0833,-1.0093,-0.1428,0.0478,-0.2113,0.3689,1968
9,0.2146,-1.0303,-0.1792,0.0763,-0.1983,0.4152,2136
9,0.3105,-1.0613,-0.1875,0.0245,-0.188,0.4731,2025
9,0.2849,-1.0552,-0.1765,-0.0301,-0.1946,0.5352,1966
9,0.2932,-1.009,-0.178,0.0148,-0.2834,0.5817,2128
9,0.2563,-1.0457,-0.1514,0.0646,-0.3717,0.6039,2079
9,0.2561,-1.0391,-0.0969,0.085,-0.447,0.6228,1914
9,0.2146,-1.0264,-0.0569,0.0462,-0.3621,0.6245,2065
9,0.2473,-1.0479,-0.0261,-0.0172,-0.3421,0.7231,2044
9,0.2803,-1.0833,-0.1404,-0.3524,-0.104,1.2157,2043
9,0.4192,-0.9121,-0.1685,-0.1716,-0.5982,1.4672,2005
9,-0.0271,-1.1199,-0.1211,-0.4207,-0.4249,1.4027,2028
9,-0.2576,-0.9851,-0.1121,-0.5394,-0.1669,1.2125,2049
9,-0.3582,-0.8872,-0.2004,-0.4838,0.1374,0.8933,2070
9,-0.1084,-0.8618,-0.1414,-0.2228,0.2461,0.5711,2060
9,-0.1418,-1.0027,-0.1479,0.059,0.0796,0.334,2050
9,-0.0786,-0.9526,-0.1692,0.291,-0.1712,-0.0518,2057
9,0.1865,-0.9302,-0.249,0.4026,-0.5336,0.0446,2086
9,0.2527,-0.9539,-0.1946,0.5821,-1.015,0.3346,2045
9,0.1699,-1.125,-0.0244,0.2289,-1.3778,0.5052,2063
9,-0.0281,-0.9768,-0.1658,0.149,-1.3687,0.6052,2056
9,-0.2207,-1.0305,0.0007,0.0977,-1.1607,0.6488,2051
9,-0.0901,-1.0146,-0.0244,-0.0569,-0.872,0.6111,2040
9,-0.0874,-1.0181,-0.0325,-0.1622,-0.6004,0.5879,2049
9,-0.2104,-1.0366,0.0352,-0.3345,-0.6136,0.4505,2052
9,-0.1079,-1.03,-0.0913,-0.1579,-0.418,0.5028,2037
9,-0.104,-1.0061,-0.095,-0.2333,-0.3112,0.4991,2041
9,-0.1018,-0.9802,-0.1135,-0.2434,-0.186,0.4303,2088
9,0.053,-1.0459,-0.146,-0.1368,-0.253,0.5153,2068
9,-0.0034,-1.0088,-0.1426,-0.1581,-0.3705,0.4416,1913
9,0.0691,-0.9695,-0.155,-0.1501,-0.5405,0.5355,2116
9,0.1968,-1.063,-0.0991,-0.2219,-0.503,0.597,1965
9,0.073,-1.0339,-0.1382,-0.267,-0.298,0.5814,2047
9,-0.0776,-1.1001,-0.1165,-0.2262,-0.1175,0.5481,2072
9,-0.0217,-1.0098,-0.1367,-0.1908,-0.0802,0.6329,2057
9,0.0762,-1.0669,-0.1499,-0.184,-0.1562,0.7399,2056
9,0.0852,-1.0259,-0.1626,-0.1902,-0.3081,0.7264,2082
9,0.0461,-1.002,-0.1597,-0.182,-0.3482,0.7135,2032
9,0.1089,-1.0164,-0.1018,-0.1888,-0.3317,0.813,2122
9,0.0632,-0.9702,-0.114,-0.183,-0.2545,0.8524,1815
9,0.0793,-1.0283,-0.0747,-0.2469,-0.2682,0.9228,2023
9,0.0728,-0.9934,-0.1345,-0.2442,-0.1792,1.0087,2032
9,0.0056,-0.9963,-0.158,-0.1791,-0.0843,1.0595,2170
9,0.0857,-1.0789,-0.1704,-0.1807,-0.1329,1.22,2117
9,0.0554,-1.0371,-0.1462,-0.172,-0.1249,1.2978,2190
9,0.0808,-1.0657,-0.1335,-0.2372,-0.092,1.3504,2086
9,0.0908,-1.1216,-0.0642,-0.2591,-0.1571,1.4151,2066
9,-0.0017,-1.0757,-0.0649,-0.3065,-0.1818,1.4533,2165
9,-0.0564,-1.0693,-0.0669,-0.3393,-0.2514,1.5187,1897
9,-0.0132,-1.1096,-0.0515,-0.3541,-0.2967,1.5563,2060
9,-0.061,-1.0955,-0.0305,-0.3534,-0.3883,1.6074,2004
9,-0.1431,-1.0403,-0.0305,-0.3165,-0.3975,1.658,2069
9,-0.1233,-1.0466,-0.0034,-0.3602,-0.4561,1.7165,2019
9,-0.1506,-1.1077,0.0173,-0.4152,-0.4991,1.7536,2049
9,-0.1614,-1.1777,0.0684,-0.489,-0.4365,1.6756,2078
9,-0.1704,-1.2253,0.0532,-0.5747,-0.475,1.8012,2041
9,-0.1221,-1.3037,-0.0085,-0.662,-0.64,1.9361,2040
9,0.0696,-1.4282,0.1467,-0.7396,-0.7136,1.9411,2048
9,0.1943,-1.5742,0.2444,-0.9495,-0.9761,1.9788,2055
9,0.2334,-1.8018,0.2354,-1.2283,-1.2946,1.829,2045
9,0.6331,-1.9756,0.3953,-1.4223,-1.7022,2.0985,2053
9,0.8818,-2.0,0.6267,-1.9329,-2.6979,2.3362,2067
9,0.7129,-2.0,0.5808,-2.4495,-3.2709,2.2455,2110
9,0.7869,-2.0,0.5771,-2.6108,-3.8591,2.5016,2118
9,1.1948,-1.8003,0.4644,-2.2529,-4.2202,3.3943,2016
9,1.3289,-1.7371,0.5022,-2.2864,-4.3635,3.8466,2304
9,0.7668,-1.3828,0.1577,-2.1029,-4.3635,4.3101,1904
9,-0.5117,-1.5422,0.0049,-2.1229,-4.3635,4.3326,2050
9,-1.541,-1.49,-0.053,-1.5735,-4.3635,4.3634,2117
9,-1.8918,-1.582,0.3523,-1.6789,-4.3635,4.3634,1981
9,-2.0,-1.0901,0.3501,-2.1141,-3.7098,2.7428,1995
9,-1.6899,-0.1812,-0.1282,-1.6017,-0.8167,3.9932,1983
9,0.2043,-0.3579,0.7197,-2.6159,-1.0993,4.0508,2007
9,1.6121,-0.9199,0.0823,-4.3635,-4.3635,4.3634,2078
9,-2.0,-0.0115,-0.1582,-2.968,-4.3635,-0.3008,2039
9,-1.834,0.3784,0.4165,-1.2433,-4.3635,-0.4711,2054
9,-1.8613,-0.4458,0.3887,-0.3056,-4.2341,-1.0227,2037
9,-1.5815,-0.7595,0.271,-0.4699,-1.0891,-1.8319,2049
9,-0.6489,-0.9497,0.2007,-1.1324,0.7313,-0.7433,2057
9,0.7371,-0.6604,0.8601,-0.7391,-1.7327,-1.0294,2040
9,0.262,0.0276,0.5183,-1.1925,-1.6805,-1.1199,2044
9,-0.1509,-0.238,0.5303,-1.0184,0.2639,-0.2529,2064
9,-0.9346,-0.4458,0.2439,-1.4549,0.1059,-0.4301,2080
9,-1.0923,-0.2957,0.5396,-1.6671,-0.0843,-1.8656,2065
9,-1.0388,-0.2922,0.623,-1.3778,0.9119,-2.5035,2070
9,-0.9968,-0.3164,0.5496,-1.1131,1.7767,-2.6594,2087
9,-0.7161,-0.1301,0.1721,-1.3715,1.8068,-2.0357,2027
9,-0.6472,-0.2183,-0.0806,-1.4732,2.0708,-2.875,2037
9,-0.283,-0.1748,-0.1357,-1.3029,1.8374,-3.293,2028
9,0.1304,-0.2778,-0.0999,-1.1105,0.9901,-3.3343,2069
9,0.2678,-0.4832,-0.1614,-0.9239,0.2499,-3.3837,2016
9,-0.012,-0.4504,-0.1267,-0.7787,-0.167,-3.5362,2042
9,-0.2434,-0.4023,-0.2898,-0.7448,-0.6907,-3.5015,2052
9,-0.2959,-0.3784,-0.1606,-0.4649,-1.2383,-3.4548,2055
9,-0.218,-0.4773,0.0737,-0.3903,-1.7696,-3.3573,2039
9,-0.2522,-0.51,0.0847,-0.5817,-2.0265,-3.3551,2040
9,-0.3936,-0.6267,-0.0464,-0.6581,-2.2573,-3.3597,2051
9,-0.5481,-0.6077,-0.0154,-0.5372,-2.1371,-3.4724,2048
10,-0.6238,-0.2563,0.1423,-0.1495,-1.825,-3.2894,2073
10,-0.8538,-0.5295,0.3425,-0.1567,-1.3972,-3.3472,2045
10,-1.0459,-0.5239,0.3958,-0.2197,-0.8004,-3.2216,2037
10,-1.0168,-0.489,0.3438,-0.1675,-0.2529,-2.9725,2044
10,-0.7874,-0.4958,0.2231,-0.0843,0.1669,-2.7216,2038
10,-0.6155,-0.5056,0.0203,-0.0541,0.3599,-2.4377,2047
10,-0.8049,-0.5439,0.0322,-0.0935,0.4546,-2.2812,2053
10,-1.0596,-0.6086,-0.0178,-0.4006,0.6052,-2.5093,2060
10,-0.6675,-1.3279,-0.1946,-1.0953,0.4329,-2.2816,2041
10,-0.7419,-0.6133,-0.728,-0.3994,0.3284,-1.3519,2054
10,-0.7314,-0.7546,-0.4651,-0.0237,-0.593,-0.5211,2048
10,-0.8735,-1.2461,-0.186,-0.5847,-0.9513,-0.5984,2032
10,-1.4985,-1.7183,-0.9741,-1.7612,2.7673,-3.009,2135
10,-2.0,-0.9392,1.8162,-0.9961,-3.9773,4.3634,4036
10,-2.0,-0.499,0.1934,4.3634,3.3424,3.7556,1234
10,1.9487,-0.1409,-1.1628,1.3805,-3.0175,-3.0821,1616
10,1.9999,-1.7292,0.5938,-1.5829,-1.761,3.0038,1953
10,-2.0,0.916,-0.2317,-3.2461,-1.3203,-4.3635,2100
10,1.9999,-2.0,-1.3364,-1.8426,-1.9852,1.6384,2072
10,-0.0354,-0.7795,-1.7563,-0.6399,1.5221,2.746,1909
10,-1.8965,-0.8047,-0.3752,0.414,1.3789,2.5195,1955
10,-0.5488,-0.9744,-0.3455,0.9104,0.5272,1.5914,1961
10,-0.0696,-0.4116,0.0525,0.801,-0.1521,-0.435,2085
10,-0.1758,-0.0696,0.3623,0.8321,-0.3834,-0.2854,2044
10,-1.3784,-0.4832,0.2766,0.6219,0.1782,1.0521,2037
10,-1.3569,-1.1951,0.314,0.1302,0.0911,1.2595,2122
10,-0.7805,-1.4805,0.0505,-0.3056,0.436,0.481,2084
10,-0.1567,-1.3137,-0.0293,-0.1059,0.6488,0.1037,2122
10,0.1184,-1.1792,0.0212,-0.0341,0.3031,0.7182,2098
10,-0.2129,-1.1047,0.0745,0.0531,0.1402,0.7336,2057
10,-0.4968,-1.0115,0.1409,-0.0101,0.0629,0.3974,2025
10,-0.5132,-0.9558,0.0886,-0.1599,0.1048,0.2999,2077
10,-0.4446,-0.9927,0.0483,-0.2373,0.1041,0.2698,2053
10,-0.3521,-1.073,-0.0029,-0.2899,0.1075,0.1577,2010
10,-0.3853,-1.0347,-0.0681,-0.3388,0.1091,0.2049,1954
10,-0.4822,-0.9963,-0.1348,-0.3816,0.0587,0.2633,2163
10,-0.5088,-1.02,-0.2134,-0.394,-0.0419,0.1212,2062
10,-0.4727,-1.0271,-0.2617,-0.3754,-0.071,0.0055,1988
10,-0.3955,-1.0103,-0.3225,-0.2952,-0.1044,0.0547,1956
10,-0.3989,-0.9607,-0.3462,-0.2316,-0.1332,0.1141,2075
10,-0.2837,-1.0156,-0.3455,-0.1288,-0.1586,0.1446,2014
10,-0.2935,-0.9106,-0.2717,-0.121,-0.4362,0.3926,2025
10,-0.687,-0.7744,-0.3352,-0.0107,-0.2895,0.0422,1749
10,-0.5588,-0.968,-0.1917,0.0405,-0.1393,-0.2567,2079
10,-0.3804,-0.9976,-0.1125,0.0884,-0.0384,-0.3734,2079
10,-0.0781,-1.0078,0.3953,-0.393,-0.7328,0.0091,1862
10,-0.2773,-0.7954,-0.6821,-0.1559,0.3737,-0.2035,2212
10,-0.8047,-1.2397,-0.332,0.865,-0.3297,-0.1274,2142
10,-0.9719,-1.072,-0.2773,1.1017,-0.3429,-0.3457,1982
10,-0.1729,-1.1243,-0.1885,0.8616,-0.1105,-0.257,2149
10,-0.4641,-1.0137,-0.2566,0.3364,-0.2175,-0.872,2334
10,-0.1436,-0.9517,-0.1729,0.7666,-0.2645,-0.448,2269
10,0.3418,-0.9778,0.1646,0.1772,0.398,0.2474,2161
10,0.2571,-0.991,0.1716,-0.4785,0.6227,1.0057,2074
10,-0.5107,-0.7402,-0.5691,-0.1928,-0.2964,0.1958,74
10,-1.2983,-1.1729,-0.406,1.7209,-2.022,-0.6885,2898
10,-0.4902,-1.1558,0.1672,0.6517,-0.6361,-0.7194,2797
10,-0.4343,-0.9355,-0.1687,0.6766,-0.4205,-1.3155,2046
10,-0.0444,-0.6663,-0.0293,0.7086,-0.2242,-1.2031,2019
10,0.2327,-0.752,-0.1426,0.5717,-0.0294,-0.7389,2087
10,0.0144,-0.9509,-0.042,0.4838,-0.1056,-0.4097,2133
10,-0.1677,-0.8857,-0.1533,0.5466,-0.2254,-0.4838,2082
10,-0.0503,-1.0254,-0.0764,0.3438,-0.2316,-0.102,1840
10,-0.2009,-0.9661,-0.1384,0.2557,-0.4562,-0.42,2178
10,-0.0444,-0.8708,-0.176,0.4024,-0.3674,-0.2268,2207
10,-0.1956,-0.9231,-0.126,0.3878,-0.2883,-0.3011,2163
10,-0.2529,-0.8962,-0.1516,0.3835,-0.2499,-0.2324,2325
10,-0.1667,-0.9534,-0.073,0.4024,-0.2023,-0.0587,2199
10,-0.2258,-0.9358,-0.1267,0.3995,-0.2498,-0.0832,2050
10,-0.3191,-0.8706,-0.0771,0.5558,-0.2065,-0.0429,1983
10,-0.3369,-1.0088,-0.0439,0.508,-0.14,-0.0746,2166
10,-0.2363,-1.1519,-0.0103,0.4089,-0.0732,-0.07,2265
10,-0.1646,-1.2292,-0.0571,0.4239,-0.0575,-0.1236,2253
10,-0.1306,-1.2578,0.0012,0.4268,-0.0565,-0.1727,1767
10,-0.0825,-1.2764,0.0708,0.4191,-0.182,-0.151,2175
10,-0.0813,-1.3203,0.1279,0.3457,-0.2362,-0.0891,1709
10,-0.0554,-1.373,0.1963,0.282,-0.2891,-0.0061,1849
10,-0.0891,-1.3621,0.2446,0.2595,-0.3793,-0.0091,1824
10,-0.0989,-1.3333,0.252,0.3032,-0.4265,0.0437,1704
10,-0.0366,-1.4346,0.2961,0.1914,-0.4151,0.0728,2398
10,0.1013,-1.5869,0.3135,0.0916,-0.4831,0.1253,1908
10,0.4343,-1.6865,0.3818,0.0402,-0.7458,0.2589,2132
10,0.6948,-1.6558,0.4324,0.0975,-1.2046,0.3727,2131
10,0.7361,-1.562,0.5286,0.0065,-1.5486,0.6771,2034
10,0.9121,-1.4712,0.5127,-0.0342,-1.4458,1.0352,2066
10,0.8586,-1.4651,0.5186,-0.0318,-1.3126,1.6542,1997
10,0.9587,-1.573,0.4009,-0.0963,-1.6432,2.2792,2012
10,0.9285,-1.3091,0.4434,-0.3675,-2.1872,2.3846,2084
10,1.1665,-1.6462,0.2141,-0.4958,-1.0211,-1.324,1933
10,-0.5503,-2.0,0.0876,-0.7537,-1.0857,4.3339,2092
10,-0.3264,-0.7419,0.2415,-0.8347,-0.4875,2.7089,2092
10,-0.0513,-1.3103,0.0466,-1.2418,-0.2799,4.3634,1821
10,0.2253,-1.459,-0.5542,0.0168,-1.4757,3.2754,1982
10,-0.2791,-2.0,-0.2568,0.3217,-0.2816,2.3784,2044
10,-1.0959,-2.0,0.3035,-1.165,-0.0366,2.9672,2155
10,-0.7915,-1.4956,0.3159,-0.8273,-1.1005,2.6575,2258
10,-0.373,-0.8398,-0.2957,0.5887,-1.4876,2.0012,2005
10,0.3745,-1.8523,0.2974,0.3033,-1.1958,3.5841,1902
10,-0.4038,-1.2883,0.189,-0.1458,-0.8252,3.1935,2001
10,-0.6182,-1.5139,0.0928,-1.0521,-0.9268,2.278,2057
10,-0.374,-1.3481,0.1504,-1.04,-1.2441,1.7345,2059
10,-0.1826,-0.969,0.1116,-1.1488,-1.5812,2.0988,2051
10,-0.6509,-0.8245,0.043,-0.8096,-0.7943,1.8699,2056
11,-0.7966,-0.5471,0.0181,-0.3141,-0.6879,2.4128,2071
11,-0.8433,-0.4607,0.2244,0.0782,-0.3727,1.9754,2037
11,-0.781,-0.4546,0.3474,0.0341,0.041,1.5118,2052
11,-0.7202,-0.3618,0.3643,-0.0433,0.2631,1.132,2038
11,-0.6001,-0.3274,0.3181,-0.3251,0.5627,0.7027,2028
11,-0.4236,-0.4043,0.1497,-0.6842,0.9095,0.3239,2070
11,-0.2251,-0.3198,-0.0063,-0.6139,1.0204,-0.149,2033
11,-0.1523,-0.2119,-0.0188,-0.4589,0.8859,-0.2827,2035
11,-0.1309,-0.2085,0.051,-0.4642,0.5425,-0.549,2029
11,-0.147,-0.1064,0.0164,-0.2153,0.6271,-0.7496,2047
11,-0.0447,-0.0354,-0.0725,-0.0248,0.7803,-0.8959,2045
11,-0.0964,-0.1323,0.001,-0.3521,0.6482,-1.3567,2067
11,-0.1726,-0.0085,-0.0417,-0.4956,0.4858,-1.7366,2046
11,-0.1919,-0.0188,-0.0452,-0.5229,0.2855,-1.9973,2035
11,-0.1218,0.1011,-0.1321,-0.3701,0.2352,-2.182,2053
11,-0.1223,0.0469,-0.2073,-0.5798,0.0827,-2.4406,2045
11,-0.2068,0.1191,-0.2654,-0.1043,0.0008,-2.4883,2058
11,-0.2798,0.0886,-0.1919,-0.0856,-0.1244,-2.4739,2035
11,-0.4558,0.1191,-0.2207,0.145,-0.1381,-2.646,2049
11,-0.5713,0.103,-0.2073,0.371,-0.0197,-2.6425,2018
11,-0.6426,0.043,-0.1724,0.4763,0.1099,-2.6217,2022
11,-0.6948,-0.0417,-0.1321,0.5281,0.1763,-2.4386,2042
11,-0.7703,-0.0984,-0.0649,0.596,0.2009,-2.0961,2045
11,-0.8816,-0.1567,-0.0613,0.3747,0.3192,-1.601,2053
11,-1.0928,-0.1704,-0.1782,0.0059,0.4907,-1.2335,2065
11,-1.2122,-0.1763,-0.2415,-0.1914,0.7404,-1.0399,2021
11,-1.1206,-0.1909,-0.2244,-0.5161,0.8377,-1.0479,1967
11,-0.9404,-0.1543,-0.4189,-0.6414,0.942,-0.9311,2015
11,-0.6938,0.0637,-0.4592,-0.642,0.6878,-0.7405,2007
11,0.1987,-0.7649,-1.7217,-2.9684,0.56,-0.5004,2257
11,-2.0,0.0203,-2.0,-1.4663,2.5293,-4.2646,1720
11,-1.394,-2.0,1.9999,-3.9863,1.3611,4.3634,1931
11,-0.1584,-1.533,-0.6855,1.2525,-1.1452,3.3745,1674
11,1.4204,-2.0,0.9834,3.0188,-1.4375,-4.3635,1687
11,0.6165,-2.0,1.0981,-0.3785,2.6105,-1.7037,1867
11,-2.0,-2.0,0.1836,0.3968,-0.9798,0.4404,2055
11,-0.4062,-0.5991,0.1658,0.0276,-1.484,2.4003,2073
11,-0.2207,0.3687,-0.5881,0.1497,2.0074,3.2419,2010
11,-0.533,-0.1155,-0.1885,0.2784,0.8281,0.0273,2065
11,-0.54,-0.8279,-0.1665,-0.0794,0.3197,-0.4508,2149
11,-0.1279,-0.9885,-0.0383,0.1167,0.1574,-0.3181,2166
11,-0.3794,-0.9895,0.0796,0.1834,0.0285,-0.3334,2100
11,-0.7856,-1.188,0.2678,0.2184,0.0309,-0.3,2005
11,-0.8203,-1.1775,0.1816,0.084,-0.1882,-0.0117,1858
11,-0.6294,-1.0474,0.0413,0.0149,0.0666,-0.1109,2058
11,-0.3481,-0.9478,-0.073,-0.0654,0.1365,-0.1742,2042
11,-0.2874,-0.9478,-0.0818,-0.1236,0.0293,-0.1883,2147
11,-0.4246,-0.9915,-0.02,-0.1653,-0.0703,-0.2238,2050
11,-0.5718,-0.9641,0.012,-0.2029,-0.1642,-0.3092,2050
11,-0.6282,-0.9529,-0.0251,-0.151,-0.096,-0.4888,2082
11,-0.5464,-0.9819,-0.0811,-0.1738,-0.1368,-0.5605,2108
11,-0.5044,-0.9634,-0.1521,-0.192,-0.1503,-0.5297,1990
11,-0.4905,-0.9104,-0.1636,-0.1689,-0.1988,-0.6123,2039
11,-0.4783,-0.9019,-0.1558,-0.1432,-0.1866,-0.653,2027
11,-0.4949,-0.9055,-0.1221,-0.1107,-0.1662,-0.6715,1952
11,-0.4785,-0.8904,-0.1187,-0.0619,-0.0778,-0.6221,2085
11,-0.3574,-1.0015,-0.114,-0.0073,-0.0519,-0.591,2058
11,-0.2659,-0.9993,-0.1165,0.0417,-0.0443,-0.4577,1981
11,-0.2458,-0.9446,-0.1509,0.0935,-0.0425,-0.2567,2041
11,-0.2507,-1.0852,-0.05,-0.2353,-0.7841,-0.0864,1958
11,-0.137,-0.9829,-0.3938,-0.1189,-0.0084,0.0795,2077
11,-0.4958,-0.8486,-0.1008,0.316,-0.1772,-0.2617,2080
11,-0.8301,-0.8831,-0.3457,0.8652,0.006,-0.6228,2013
11,-0.2126,-1.1187,0.1746,0.4671,0.329,-0.5216,2011
11,-0.4233,-0.8818,-0.3091,0.8445,-0.0751,-1.2211,2046
11,0.1057,-0.9319,0.2019,0.4265,0.2309,-0.4505,2168
11,0.3115,-0.9607,0.146,-0.4697,0.4589,0.2535,2075
11,-0.2036,-0.7332,-0.2358,0.399,-0.5011,-0.2477,1997
11,-0.0977,-0.9033,0.1411,0.6987,-0.4141,0.1618,2046
11,-0.6626,-1.0249,-0.1316,0.7814,-0.6674,-0.3634,1952
11,-0.5806,-1.0583,-0.1519,0.95,-0.6284,-0.9131,2170
11,-0.208,-0.9426,-0.1462,0.7361,-0.259,-1.0436,2318
11,-0.0623,-0.8762,-0.1145,0.9207,-0.1471,-1.3216,2149
11,0.0681,-0.8279,0.0281,0.7915,-0.0812,-0.9333,2021
11,0.1467,-0.8518,0.0417,0.6244,-0.2119,-0.5502,2005
11,0.0554,-0.9177,0.0769,0.3891,-0.3725,-0.299,1924
11,-0.1116,-1.011,0.0754,0.2796,-0.284,-0.3168,2140
11,-0.1086,-0.9656,0.0303,0.3292,-0.2175,-0.233,2316
11,-0.082,-1.0088,0.0554,0.3457,-0.0229,-0.2509,2435
11,-0.0396,-0.9941,0.042,0.339,0.0562,-0.1228,2002
11,-0.0825,-0.9819,-0.0251,0.3314,0.0979,-0.0141,2320
11,-0.1445,-0.9919,-0.0085,0.3235,0.0149,0.0917,1792
11,-0.1917,-1.0276,-0.0405,0.283,-0.0001,0.0774,2192
11,-0.2007,-1.0745,0.0034,0.2839,0.0238,0.0222,1443
11,-0.1941,-1.1379,-0.009,0.2839,0.0129,0.07,1718
11,-0.1426,-1.2571,0.0574,0.2527,-0.0059,0.0451,1595
11,-0.1509,-1.2546,0.1016,0.2298,-0.0345,0.0362,2164
11,-0.1792,-1.3103,0.1506,0.232,-0.0824,0.0625,2463
11,-0.0928,-1.5229,0.2588,0.1033,-0.2586,0.1969,2047
11,-0.1401,-1.4451,0.3042,0.1523,-0.3267,0.1649,2079
11,-0.207,-1.4426,0.3511,0.3044,-0.2485,0.1103,1968
11,-0.0293,-1.4893,0.469,0.1377,-0.135,0.0125,2262
11,0.2046,-1.6726,0.436,0.0756,-0.0336,0.0495,2116
11,0.3972,-1.6409,0.4165,0.1835,0.0035,0.0691,2226
11,1.1169,-1.8237,0.4819,0.0866,-0.5667,0.8409,2140
11,1.2207,-1.7456,0.501,-0.0458,-1.0971,1.0875,2080
11,1.083,-1.4465,0.4929,-0.244,-1.4504,1.3896,1987
11,0.9036,-1.4714,0.3533,-0.4958,-1.5504,1.8286,1968
11,0.9106,-1.418,0.7075,-0.8301,-1.9706,-2.3898,1686
11,0.0325,-2.0,0.4189,-0.4922,-1.1448,2.7207,1951
11,-1.0579,-0.3711,-0.4016,-0.1039,0.573,2.51,2568
12,0.1453,-1.4761,0.0117,-0.7124,1.0774,3.878,2246
12,-0.0603,-1.3699,-0.5151,0.6839,-0.1308,2.655,2076
12,-0.5693,-2.0,-0.01,0.9219,0.817,2.1248,1843
12,-1.0015,-2.0,0.2773,-0.2886,1.7263,2.794,1860
12,-1.0032,-2.0,0.1389,-0.3325,2.1505,3.3164,2009
12,-0.3743,-1.5281,0.1089,0.3729,1.0955,3.178,1950
12,-0.0952,-1.0857,-0.3682,0.4826,-0.0818,1.9666,1903
12,0.2007,-1.5981,-0.0405,-0.1868,-0.7043,2.8465,1994
12,-0.0969,-1.3923,0.0852,-0.2647,-0.7122,2.4997,2082
12,-0.4946,-1.1631,0.1536,-0.8518,-0.5509,2.8359,2066
12,-0.793,-1.1143,-0.1133,-0.1919,-0.0148,2.8992,2117
12,-0.907,-1.0938,0.2478,-0.5602,-0.9308,1.9455,2060
12,-0.3777,-0.6877,0.1899,-0.587,-0.6277,1.451,2067
12,-0.3672,-0.6714,0.1008,-0.339,-0.6229,1.4229,2060
12,-0.428,-0.6108,0.0496,-0.086,-0.6176,1.4949,2065
12,-0.6042,-0.4004,-0.0381,0.122,-0.1136,1.745,2038
12,-0.6187,-0.3586,-0.02,0.137,0.1087,1.994,1985
12,-0.7168,-0.3179,0.1738,0.0796,0.4397,1.1437,2109
12,-0.6309,-0.3169,0.2563,-0.1501,0.8409,0.2521,2078
12,-0.4417,-0.3386,0.2065,0.0735,1.1991,-0.0285,2123
12,-0.2769,-0.3113,0.1899,-0.0044,1.2655,-0.1156,2018
12,-0.2585,-0.3113,0.0906,-0.3541,1.3346,-0.2661,2024
12,-0.0105,-0.1992,0.1172,-0.6496,1.0606,-0.5112,2017
12,-0.0798,-0.207,-0.0818,-0.6677,1.1455,-0.9112,2041
12,-0.249,-0.0505,-0.1035,-0.4585,1.2118,-1.1014,2112
12,-0.3018,-0.0598,-0.0325,-0.5323,0.9878,-1.3207,1892
12,-0.2019,-0.0195,-0.1011,-0.5932,0.8621,-1.6294,2070
12,-0.1677,-0.0486,-0.0408,-0.6056,0.8042,-1.8905,2093
12,-0.1343,-0.1428,-0.0144,-0.7694,0.6979,-2.1523,2070
12,-0.1675,0.0505,-0.2551,-0.542,0.7661,-2.2517,2166
12,-0.2019,0.0305,-0.2751,-0.6598,0.4586,-2.2858,2016
12,-0.197,0.001,-0.3176,-0.4233,0.218,-2.4398,1959
12,-0.2312,-0.0266,-0.3259,-0.1487,-0.0249,-2.5654,2069
12,-0.2393,-0.1121,-0.3037,-0.0369,-0.2168,-2.6354,2081
12,-0.345,-0.1838,-0.2686,-0.0305,-0.2539,-2.6051,2080
12,-0.4663,-0.1604,-0.2141,0.0137,-0.2811,-2.524,1850
12,-0.552,-0.2134,-0.1904,0.0158,-0.2812,-2.3728,2111
12,-0.6521,-0.283,-0.1709,0.0165,-0.2272,-2.1186,2071
12,-0.749,-0.3311,-0.1265,-0.0096,-0.1491,-1.8057,2067
12,-0.8853,-0.4656,-0.0803,0.0667,-0.1503,-1.3509,2046
12,-0.9602,-0.4351,-0.0994,-0.0364,-0.1353,-1.3042,2054
12,-1.0051,-0.4497,-0.1755,-0.0904,0.0811,-1.1107,2046
12,-1.0459,-0.4817,-0.2207,-0.3418,0.1768,-1.1103,2004
12,-0.937,-0.4827,-0.3635,-0.5705,0.4075,-1.0188,2083
12,-0.8367,-0.3911,-0.3203,-0.5164,0.4345,-0.7549,2007
12,-0.6838,-2.0,-1.4314,-4.1873,0.3292,-1.024,2028
12,-2.0,0.0117,-1.6985,-1.6171,0.3924,-2.8671,1570
12,-1.49,-0.9839,1.5134,-2.3439,0.893,4.3634,1817
12,-0.6052,-0.259,-0.2317,4.3634,-0.703,1.6882,1630
12,1.9146,-2.0,0.8813,0.5703,-1.7879,-4.3635,2292
12,-1.4331,-1.2388,0.8889,-0.7839,1.4504,-1.7697,1919
12,-2.0,-2.0,-0.2402,0.167,-0.2338,-0.5677,2024
12,-0.1465,-0.9199,-0.0906,0.2915,0.1992,2.4967,1980
12,-0.033,-0.4854,-0.2446,0.2697,0.9981,1.6227,2025
12,-0.3381,-0.4946,-0.2725,0.1208,0.1742,-0.0388,2054
12,-0.6555,-0.5942,-0.0981,0.2507,0.2237,-0.1289,2096
12,-0.3655,-0.8955,0.2097,0.3313,-0.0474,0.0357,2135
12,-0.4834,-1.1218,0.2927,0.2733,0.2021,-0.0225,1831
12,-0.6592,-1.2056,0.3247,0.2369,0.3173,-0.216,2025
12,-0.6052,-1.302,0.2385,0.088,0.0939,-0.1459,2041
12,-0.5303,-1.1438,0.1292,-0.0382,0.1563,-0.1297,2049
12,-0.3835,-0.9663,0.063,-0.1583,0.025,-0.1479,2040
12,-0.3276,-0.9856,0.0271,-0.2468,0.0253,-0.2377,2112
12,-0.4216,-1.0762,0.0388,-0.2862,-0.0551,-0.308,2142
12,-0.4177,-1.0601,-0.02,-0.3009,-0.0687,-0.3389,2126
12,-0.3823,-1.053,-0.105,-0.2862,-0.0916,-0.3614,1926
12,-0.3953,-1.0349,-0.2004,-0.2681,-0.1045,-0.3895,2013
12,-0.4851,-0.9897,-0.2515,-0.2057,-0.1883,-0.4378,2083
12,-0.5183,-0.9319,-0.2786,-0.1526,-0.2871,-0.5232,2080
12,-0.4822,-0.9048,-0.2549,-0.0662,-0.3522,-0.6084,2030
12,-0.4468,-0.8867,-0.2141,0.0083,-0.2304,-0.5723,2101
12,-0.2881,-0.918,-0.261,0.1308,-0.2203,-0.5453,2105
12,-0.155,-0.9426,-0.2056,0.1159,-0.4787,-0.1585,2041
12,0.2888,-1.1196,0.0703,-0.4139,0.3172,0.7448,2007
12,0.0308,-1.0833,-0.019,-0.5465,0.3119,0.8981,2021
12,-0.7656,-0.7617,-0.3083,0.1703,-0.6786,-0.145,2064
12,-0.7917,-0.8958,-0.0046,0.4545,-0.3353,-0.1205,1979
12,-0.8313,-1.0415,-0.291,0.838,-0.0422,-0.8914,2079
12,-0.7786,-0.9983,-0.1982,0.6546,-0.1485,-1.4187,2024
12,-0.439,-0.6277,-0.4233,1.0286,-0.2153,-1.3784,2072
12,0.1431,-1.0237,0.2126,0.4046,0.6205,-0.2272,2030
12,0.1482,-0.9292,-0.0938,0.0318,0.0254,-0.3988,2083
12,-0.1755,-0.865,0.0413,0.9814,-0.3131,-0.4131,1990
12,-0.2622,-0.9697,0.019,0.7075,-0.2061,-0.3482,2176
12,-0.3774,-0.9644,-0.0654,0.7713,-0.4428,-0.6723,2001
12,-0.2117,-0.9426,0.0547,0.7557,-0.0706,-0.8014,2129
12,0.0166,-0.9353,0.0454,0.6337,-0.0879,-0.7239,2089
12,-0.0168,-0.9495,0.0127,0.5476,-0.1249,-0.7098,2026
12,-0.0706,-0.9321,-0.041,0.5892,0.0807,-0.5566,2167
12,-0.0833,-0.9326,0.0002,0.5651,-0.0517,-0.4382,2154
12,-0.0188,-0.9238,0.0198,0.4779,-0.0924,-0.2927,2012
12,0.0496,-0.9409,0.001,0.4219,-0.1334,-0.2927,2066
12,0.0476,-1.0037,-0.0234,0.3956,-0.0975,-0.2357,2112
12,-0.1021,-1.0525,0.0142,0.3606,-0.002,-0.0937,1691
12,-0.1738,-1.0212,-0.0251,0.4231,-0.0021,0.0618,2240
12,-0.1646,-1.0071,-0.0591,0.5517,0.0397,0.0021,2419
12,-0.0498,-1.1089,0.0107,0.3235,0.0758,0.0224,1589
12,-0.0522,-1.1353,0.0137,0.3247,-0.0194,0.1107,2084
12,-0.0486,-1.1553,0.0388,0.3096,-0.0217,0.2172,2044
12,-0.1067,-1.1414,0.0259,0.3051,-0.0349,0.2421,1942
12,-0.197,-1.1675,0.0356,0.314,-0.0437,0.2918,2075
12,-0.2578,-1.1941,0.1104,0.3083,0.0368,0.3369,1897
13,-0.3242,-1.2659,0.1416,0.2795,0.0891,0.2229,1978
13,-0.2256,-1.3525,0.1985,0.2469,0.0201,0.1167,1675
13,-0.1826,-1.4963,0.3408,0.1602,-0.1402,0.2149,1855
13,-0.3069,-1.48,0.3501,0.3328,-0.2481,0.0871,2531
13,-0.1277,-1.5574,0.5107,0.3103,-0.1659,0.0896,1941
13,0.114,-1.8225,0.4536,0.2952,-0.1422,0.1417,2067
13,0.3538,-1.6235,0.4531,0.5011,-0.1739,-0.0619,2032
13,1.0935,-1.5657,0.4727,0.4193,-0.9276,0.6774,1793
13,1.2773,-1.5359,0.5173,0.2297,-1.1128,1.0524,2089
13,1.2329,-1.3823,0.4727,-0.0663,-1.6563,1.3965,2108
13,1.105,-1.3457,0.3762,-0.2637,-1.7258,1.8594,2020
13,0.1074,1.031,-0.5081,0.7205,-1.892,-0.3974,2156
13,0.302,-2.0,0.1587,-0.6855,-0.9701,-0.1558,1955
13,-0.7988,-2.0,-0.05,-1.2095,-0.7541,3.7834,2306
13,-0.5771,-0.7168,0.603,-0.3384,1.9555,2.422,2227
13,0.4778,-1.8318,-0.4673,-0.0097,0.2822,4.3634,1828
13,0.2253,-2.0,-0.2893,0.4453,0.1675,3.1184,1815
13,-0.6985,-2.0,-0.0112,-0.5971,0.7311,3.333,1440
13,-1.4026,-2.0,0.0303,-0.3116,0.9717,3.307,2522
13,-0.7715,-1.4922,0.1362,0.8011,0.1016,2.4903,2324
13,0.2429,-1.5378,0.114,0.0851,-0.565,2.6566,1994
13,0.0547,-1.5195,-0.1421,-0.0744,-0.2513,3.601,1948
13,-0.3247,-1.2195,0.1709,-0.5863,-0.9644,3.1303,2136
13,-0.5994,-1.3367,0.0122,-0.936,-0.8461,2.5321,2054
13,-0.3062,-0.8674,0.0742,-0.6357,-0.8999,2.5149,1998
13,-0.7219,-0.834,0.2915,-0.433,-0.8183,2.0889,2026
13,-0.5588,-0.7815,0.1284,-0.4089,-0.7718,1.4822,2015
13,-0.5586,-0.6038,0.0942,-0.0637,-0.2895,2.2602,2037
13,-0.7656,-0.4167,0.075,0.2874,0.2565,2.349,2053
13,-0.8325,-0.3921,0.1812,0.481,0.6239,1.7677,2058
13,-0.7522,-0.3479,0.2793,0.4719,0.901,1.135,2049
13,-0.6252,-0.3069,0.2886,0.2622,1.2388,0.4549,2043
13,-0.4861,-0.2781,0.2244,0.0565,1.4773,-0.0675,2046
13,-0.2903,-0.2168,0.1221,-0.1316,1.6727,-0.3789,2038
13,-0.0073,-0.1694,-0.0146,-0.2521,1.6797,-0.7134,2045
13,0.0854,-0.1042,-0.0137,-0.349,1.5378,-0.9262,2050
13,0.1516,-0.0427,-0.0396,-0.4365,1.1949,-1.083,2054
13,-0.1257,0.0608,-0.144,-0.171,1.1697,-1.3412,2058
13,-0.1938,-0.0059,-0.0798,-0.3043,0.948,-1.706,2043
13,-0.1187,0.0483,-0.0601,-0.336,0.7885,-1.9586,2054
13,-0.0674,0.0996,-0.0681,-0.3063,0.6015,-2.2298,2069
13,-0.0291,0.0725,-0.1013,-0.2365,0.4581,-2.4625,2080
13,-0.0969,0.0759,-0.1819,-0.1364,0.334,-2.6061,2068
13,-0.1489,0.011,-0.2087,-0.0587,0.1329,-2.7378,2064
13,-0.144,-0.0173,-0.2422,0.023,-0.193,-2.8598,2034
13,-0.1892,-0.0793,-0.2859,0.1147,-0.3946,-2.8932,2033
13,-0.3164,-0.1626,-0.2961,0.2338,-0.4951,-2.8139,2023
13,-0.4829,-0.1665,-0.2231,0.2618,-0.475,-2.6533,2049
13,-0.6958,-0.175,-0.1707,0.2771,-0.3187,-2.4686,2056
13,-0.8931,-0.1802,-0.0757,0.2971,-0.1226,-2.2824,2039
13,-0.9546,-0.198,-0.0657,0.2595,0.0844,-1.9325,2046
13,-0.9336,-0.2083,-0.1409,0.127,0.1503,-1.5488,2047
13,-0.9219,-0.2183,-0.2036,-0.0158,0.0629,-1.2014,2039
13,-1.0242,-0.2837,-0.2126,-0.2292,-0.0044,-1.1095,2035
13,-1.1785,-0.2295,-0.2307,-0.504,0.2364,-1.2633,2027
13,-1.0564,-0.1558,-0.2615,-0.7066,0.5453,-1.2085,2026
13,-0.3372,-2.0,-0.7573,-3.2392,-0.3574,-1.3659,2037
13,-1.894,-0.3416,-1.6699,-3.3515,1.0899,-4.2174,2339
13,-1.4209,0.5906,0.3088,1.2402,4.3634,4.2899,1242
13,-2.0,0.4883,-0.6646,2.2578,-0.7096,4.3634,1967
13,0.4163,-2.0,0.5759,2.0996,-0.2918,-4.3635,2134
13,0.0847,-1.0242,0.9307,-1.5149,-0.6315,-0.4144,1963
13,-0.5991,-1.5691,0.4441,-0.2478,1.5657,-1.013,1945
13,0.1196,-0.8367,-0.8435,0.153,2.0265,0.277,2030
13,0.1956,-0.2153,-0.1633,0.597,-0.1728,1.5479,2095
13,-0.155,-0.4685,-0.0034,0.2987,-0.0626,0.8997,2088
13,-0.8479,-0.8284,0.0059,0.1654,0.0663,0.2759,2062
13,-0.7739,-0.9124,0.1731,0.3124,-0.1398,0.0497,2054
13,-0.4907,-1.218,0.2908,0.1886,0.0008,-0.0518,2047
13,-0.4626,-1.2361,0.2017,-0.0609,0.2193,0.1623,1945
13,-0.3989,-0.9683,0.1731,-0.0356,0.029,0.0755,2091
13,-0.6118,-0.9329,0.0637,-0.0788,-0.0039,0.034,2064
13,-0.5835,-0.9707,0.0198,-0.1105,0.032,-0.0996,1945
13,-0.5129,-0.9417,-0.0049,-0.2444,0.0819,-0.2149,2047
13,-0.3708,-0.9763,-0.0933,-0.3663,0.0764,-0.3425,2088
13,-0.3101,-1.0125,-0.1433,-0.4034,0.1012,-0.4176,2023
13,-0.3999,-0.9744,-0.1448,-0.2751,0.0471,-0.4354,2022
13,-0.4592,-0.9246,-0.1477,-0.1159,-0.0346,-0.4694,2023
13,-0.5352,-0.9258,-0.1345,-0.0551,-0.0137,-0.5333,2048
13,-0.5842,-0.9167,-0.1887,-0.0164,-0.0463,-0.6613,2048
13,-0.5586,-0.9236,-0.1909,0.0321,-0.031,-0.7158,2016
13,-0.4912,-0.9426,-0.1443,0.0727,0.0154,-0.6837,2065
13,-0.4478,-0.9199,-0.084,0.1256,0.0401,-0.5952,2059
13,-0.4407,-0.9534,-0.0581,0.1669,0.0855,-0.5966,2047
13,-0.385,-1.0256,0.0095,0.1622,0.0679,-0.6771,2052
13,-0.3135,-1.0359,0.0247,0.1859,0.1553,-0.606,1995
13,-0.3337,-1.0044,-0.0049,0.2096,0.3048,-0.4236,2055
13,-0.3796,-1.0012,0.0061,0.2068,0.4091,-0.3682,2005
13,0.1772,-1.1091,0.415,-0.7376,-0.1498,0.091,2080
13,-0.3652,-1.021,-0.3799,-0.0294,-0.0505,-0.6695,2028
13,-0.7883,-0.9768,0.0217,0.4113,0.3284,-0.8678,2028
13,-0.447,-1.0044,-0.5239,-0.0944,0.0659,-0.4822,2069
13,-0.4429,-0.894,-0.1182,0.286,0.0369,-1.0263,2067
13,-0.2207,-0.9656,-0.0073,0.022,0.0092,-0.8819,1991
13,-0.0229,-0.9387,-0.0688,-0.0296,-0.069,-1.005,2056
13,-0.4148,-0.8867,-0.2981,0.2607,0.1545,-0.8364,2029
13,-0.2407,-0.8552,-0.1602,0.2875,-0.0189,-0.717,2052
13,-0.0984,-0.8411,-0.0366,0.5541,0.0483,-0.6329,2038
13,-0.0688,-0.9351,-0.0671,0.5517,0.0778,-0.7564,2041
13,-0.0728,-0.979,-0.0186,0.4818,0.0253,-0.8403,1952
13,-0.0354,-0.9417,-0.04,0.5343,0.0734,-0.8011,1990
13,-0.0063,-0.978,-0.073,0.6817,0.0242,-0.7617,2027
13,0.0989,-0.9712,-0.0283,0.6771,0.0683,-0.7341,1998
14,0.1743,-0.9629,0.002,0.6207,-0.0503,-0.5745,2071
14,0.1279,-0.9668,-0.0027,0.5248,-0.1491,-0.4856,2195
14,0.0339,-0.988,-0.033,0.4837,-0.1436,-0.357,1736
14,-0.0042,-0.9954,-0.0266,0.5984,-0.1522,-0.2539,1959
14,0.051,-1.0508,0.0183,0.663,-0.1313,-0.2733,1937
14,0.1355,-1.1433,0.0718,0.5205,-0.1968,-0.2436,2194
14,0.1814,-1.1394,0.0388,0.4508,-0.0771,-0.0863,1580
14,0.0916,-1.1504,0.0696,0.493,-0.1005,-0.0478,2314
14,0.0713,-1.0688,0.1194,0.4858,-0.0728,0.234,2467
14,-0.0562,-1.1521,0.1489,0.3268,0.015,0.3368,1918
14,-0.1208,-1.144,0.0295,0.4184,0.1169,0.3782,1828
14,-0.1038,-1.1948,0.0723,0.5305,0.0783,0.3963,2151
14,-0.0371,-1.3003,0.0723,0.4609,-0.0835,0.3441,1665
14,-0.0093,-1.3274,0.0295,0.4606,-0.1856,0.3448,2157
14,-0.0054,-1.3064,0.113,0.5127,-0.3362,0.3109,2057
14,-0.0664,-1.2576,0.1504,0.5257,-0.3338,0.2667,1752
14,-0.0754,-1.2258,0.1501,0.4477,-0.2537,0.2412,2119
14,0.0847,-1.3594,0.2563,0.3274,-0.1895,0.3919,1966
14,0.311,-1.6724,0.3091,0.1631,-0.5007,0.438,1810
14,0.4043,-1.594,0.3794,0.0973,-0.6138,0.6373,1754
14,0.5039,-1.5149,0.4429,-0.1619,-0.7931,0.8574,1994
14,0.5562,-1.3989,0.4634,-0.094,-0.8419,0.8102,2514
14,0.5469,-1.3335,0.5364,-0.1092,-0.6774,1.2918,2290
14,0.4429,-1.397,0.3901,-0.2565,-0.5646,1.556,1991
14,0.6035,-1.3328,0.2612,-0.2289,-0.5673,1.7353,2154
14,0.676,-1.3853,0.2852,-0.3173,-0.6329,1.7677,1957
14,0.3049,-1.5061,0.0847,-0.4614,-0.6088,1.6261,2047
14,-0.1125,0.2649,-0.2461,0.8782,-1.0684,-1.558,2026
14,0.0229,-2.0,-0.0337,0.2426,-0.1326,1.5206,2256
14,0.512,-1.8252,0.2031,-0.9782,-0.3803,3.4195,2012
14,0.8594,-1.7456,-0.2515,-0.9725,-1.0436,4.0559,1894
14,-0.489,-2.0,-0.781,-0.7781,-0.4354,3.2616,1994
14,-1.4871,-1.9478,-0.0156,0.7172,-0.0935,2.8062,2063
14,-0.5298,-1.7539,0.8726,0.6569,-2.3952,3.276,2091
14,0.4482,-1.7349,0.0303,-0.0573,-2.0474,4.0006,2034
14,-0.0596,-1.3105,-0.0103,-0.5947,-0.9503,3.229,1993
14,-0.4736,-1.1594,-0.0935,-0.5525,-1.8077,3.5965,2044
14,-0.9121,-1.1755,0.1799,-0.1069,-0.7885,3.2552,2022
14,-0.637,-1.1479,0.4214,-0.3931,-0.4143,3.4113,2022
14,-0.4114,-0.8503,0.5012,-0.6605,-1.0853,3.0396,2044
14,-0.5911,-0.5793,0.3501,-0.5561,-1.1568,1.9714,2049
14,-0.98,-0.6824,0.292,-0.608,-0.703,1.7578,2058
14,-1.1401,-0.6699,0.282,-0.3868,0.1569,1.4245,2064
14,-0.6155,-0.6206,0.4163,-0.0965,0.726,1.8479,2048
14,-0.7144,-0.6477,0.407,0.1129,1.3003,1.6981,2049
14,-0.8057,-0.6438,0.4287,0.0771,1.9516,1.0001,2049
14,-0.6895,-0.6169,0.3428,-0.306,2.3234,0.5364,2054
14,-0.5049,-0.3486,0.2322,-0.4951,2.5358,0.3641,2050
14,-0.3091,-0.2036,0.1436,-0.6239,2.5332,0.1682,2026
14,-0.2681,-0.1907,0.0715,-0.75,2.4607,-0.2293,2045
14,-0.1934,-0.1536,-0.0242,-0.71,2.3245,-0.6785,2058
14,-0.1404,-0.1892,-0.0918,-0.712,2.1105,-1.0255,2063
14,0.0271,-0.1333,-0.1104,-0.5908,1.6479,-0.963,2069
14,-0.0349,-0.1709,-0.1396,-0.3583,1.4367,-1.0764,2049
14,-0.0698,-0.2583,-0.0654,-0.4083,1.0729,-1.3215,2050
14,-0.1016,-0.147,-0.0667,-0.3177,0.7937,-1.5944,2012
14,-0.1365,-0.0933,-0.0945,-0.3169,0.5683,-1.7793,2063
14,-0.1577,-0.1025,-0.0891,-0.3061,0.381,-1.9033,2041
14,-0.208,-0.0676,-0.1648,-0.2019,0.3105,-2.1222,2050
14,-0.145,-0.0498,-0.1614,-0.2946,-0.1406,-2.236,2075
14,-0.1421,-0.0356,-0.1948,-0.0282,-0.2902,-2.3922,1988
14,-0.2251,-0.1394,-0.1663,0.0382,-0.4573,-2.463,2015
14,-0.2976,-0.1284,-0.1765,0.1069,-0.591,-2.4856,2045
14,-0.3374,-0.1724,-0.1868,0.1547,-0.6364,-2.4895,2032
14,-0.3813,-0.1501,-0.2036,0.1538,-0.6695,-2.522,2053
14,-0.4829,-0.1755,-0.1936,0.2089,-0.6488,-2.4954,2057
14,-0.6567,-0.2307,-0.1355,0.3055,-0.5032,-2.3499,2023
14,-0.8621,-0.363,-0.0312,0.302,-0.208,-2.2019,2010
14,-0.9807,-0.3513,-0.0098,0.2569,0.0973,-2.0579,2040
14,-0.9639,-0.385,-0.0068,0.185,0.3401,-1.9844,2096
14,-0.8628,-0.3838,-0.0203,0.1689,0.4354,-1.8427,2082
14,-0.7234,-0.3472,-0.0798,0.0447,0.5233,-1.6182,2064
14,-0.6104,-0.2087,-0.1526,-0.0951,0.5398,-1.3713,2024
14,-0.6257,-0.0347,-0.1372,-0.3424,0.6103,-1.2407,2003
14,0.1987,-1.1016,0.1345,-1.589,0.1348,-1.0479,2006
14,-0.7573,-0.0073,-2.0,-1.7676,1.5973,-2.6197,2045
14,-2.0,-2.0,-1.3264,-0.7099,1.3145,-0.4585,2138
14,-2.0,-1.3557,0.1135,0.2093,2.7666,4.3634,2389
14,0.3547,-2.0,-0.2898,4.3244,-2.2754,-4.3635,2208
14,1.9999,-0.1824,1.9999,-0.271,-3.2569,1.6969,1536
14,-2.0,-0.499,0.0554,-0.2493,0.0214,-1.6171,1961
14,0.1018,-1.6689,-1.1362,-0.3952,-0.3317,0.3401,2054
14,-0.8855,0.1497,-0.3066,0.6044,1.3308,2.4059,2062
14,-0.2478,-0.2478,0.1042,0.455,0.9797,1.4905,2112
14,-0.29,-0.5369,-0.1746,0.1525,0.2601,-0.0663,2039
14,-0.645,-0.9348,0.2393,0.4123,-0.2135,-0.5195,2077
14,-0.5491,-1.3022,0.2415,0.3325,-0.1993,-0.2377,2098
14,-0.6912,-1.3286,0.1045,0.183,0.3781,0.0285,2043
14,-0.6025,-1.1758,0.0098,0.02,0.2613,-0.0992,2033
14,-0.3608,-1.0398,0.0271,-0.0551,-0.0478,-0.2133,2054
14,-0.2239,-0.9551,0.0432,-0.0071,0.1306,-0.1911,2067
14,-0.3267,-0.9172,0.1438,0.0136,0.118,-0.1465,2085
14,-0.5432,-1.0095,0.1914,-0.1645,-0.1181,-0.3052,2046
14,-0.6357,-1.0947,0.0918,-0.3217,-0.2076,-0.4948,2075
14,-0.5232,-0.998,0.0266,-0.3251,-0.0469,-0.541,1989
14,-0.4016,-0.9456,-0.0361,-0.294,-0.0162,-0.5252,2046
14,-0.3506,-0.9766,-0.0566,-0.3091,-0.1029,-0.6078,2089
14,-0.3909,-1.0183,-0.1279,-0.3329,-0.2088,-0.659,2035
14,-0.418,-1.0039,-0.1562,-0.3159,-0.2831,-0.7171,2037
14,-0.4224,-0.957,-0.155,-0.283,-0.3011,-0.756,2044
14,-0.4167,-0.8904,-0.1653,-0.2028,-0.2763,-0.8007,2067
14,-0.3638,-0.9463,-0.1414,-0.1794,-0.2511,-0.7927,2052
15,-0.3311,-1.0164,-0.167,-0.1844,-0.2069,-0.7826,2066
15,-0.2781,-0.9575,-0.1638,-0.1274,-0.2005,-0.7389,2019
15,-0.2307,-0.9431,-0.1804,-0.1057,-0.2372,-0.7158,2075
15,-0.1785,-0.9126,-0.178,-0.0024,-0.2485,-0.5895,2017
15,-0.1643,-0.9861,-0.1079,0.0108,-0.4167,-0.5243,1985
15,-0.2441,-1.0867,-0.1033,-0.1443,-0.7102,-0.6725,2105
15,-0.0745,-1.2048,-0.0784,-0.6909,-0.2161,-0.1835,2120
15,-0.3208,-0.8525,-0.2808,-0.194,-0.3159,-0.5867,2002
15,-0.4011,-0.8054,-0.1802,0.184,-0.2201,-0.4852,1962
15,-0.0132,-1.0554,0.23,-0.1802,0.2481,0.1036,2051
15,-0.5513,-0.917,-0.4985,0.2741,-0.5265,-1.2469,2061
15,-0.2263,-0.9124,-0.0542,0.295,-0.2806,-1.0082,2067
15,-0.0435,-0.9839,-0.0535,0.1671,-0.0993,-1.0517,2055
15,0.1348,-0.9167,-0.1472,-0.002,-0.0017,-0.6187,2089
15,0.0442,-0.8035,-0.1279,0.3015,-0.3454,-0.5986,1996
15,-0.0359,-0.7861,-0.1763,0.4046,-0.559,-0.5284,2165
15,-0.0657,-1.0386,-0.0894,0.5105,-0.706,-0.7217,2020
15,0.0417,-0.8918,-0.1357,0.7415,-0.7343,-0.767,2060
15,-0.0769,-1.1267,0.0608,0.6429,-0.7224,-0.8291,1849
15,0.1272,-0.8987,-0.1873,0.7688,-0.6737,-0.4492,1819
15,-0.0212,-1.0684,-0.1006,0.7283,-0.5878,-0.549,2082
15,-0.1384,-1.1101,-0.1636,0.4954,-0.2902,-0.608,2067
15,0.0847,-0.9954,-0.2446,0.4023,-0.2083,-0.2764,2119
15,0.0608,-0.9036,-0.3381,0.4761,-0.1341,-0.2273,2097
15,-0.1001,-0.9155,-0.2358,0.6481,-0.0578,-0.3048,1888
15,0.1382,-1.0576,0.1064,0.6251,-0.35,-0.4429,1842
15,0.415,-1.0552,0.3518,0.7096,-0.7564,0.09,2096
15,0.4199,-1.2095,0.5554,0.516,-0.8066,0.24,2350
15,0.0386,-1.1453,0.4785,0.3211,-0.4244,0.1129,2052
15,-0.2083,-1.1765,0.3096,0.2281,0.0409,0.0626,2275
15,0.2188,-1.1313,0.1028,0.1312,0.2705,0.288,2216
15,0.3193,-1.2043,-0.1016,0.1507,0.2028,0.1687,1386
15,0.2515,-1.177,-0.1218,0.2233,0.0321,0.4044,2236
15,0.1399,-1.1804,-0.1541,0.3602,0.1832,0.5144,1784
15,-0.0503,-1.2231,-0.0215,0.3227,0.0453,0.5143,2134
15,-0.1392,-1.2129,0.0435,0.2273,0.1782,0.5316,2858
15,-0.2261,-1.2671,-0.0029,0.1965,0.2478,0.6284,1611
15,-0.2595,-1.2798,-0.0085,0.3151,0.1834,0.7413,2331
15,-0.24,-1.3037,0.1433,0.4143,0.1052,0.6713,1797
15,-0.3274,-1.3242,0.2241,0.4372,0.1384,0.4734,2097
15,-0.1418,-1.3342,0.2761,0.4152,0.1787,0.3274,2246
15,0.302,-1.4436,0.3977,0.1534,0.017,0.4416,2426
15,0.5115,-1.5869,0.4722,-0.1694,-0.3926,0.5348,2158
15,0.7532,-1.6677,0.4707,-0.1657,-1.0223,0.62,1974
15,0.907,-1.7007,0.5508,0.0154,-1.6333,0.8709,2258
15,0.5251,-1.4534,0.5098,-0.1147,-1.7558,1.2416,2076
15,0.5144,-1.3586,0.469,-0.0944,-1.6519,1.4605,2082
15,0.5745,-1.2124,0.3442,-0.1878,-1.5046,1.5986,2005
15,0.8896,-0.1492,0.2942,-0.0851,-0.7138,-0.9562,2020
15,0.2744,-2.0,0.1108,-0.2699,-0.7427,1.4708,2225
15,0.0098,-1.1548,-0.1746,-0.0787,0.0214,2.1286,2075
15,0.5078,-1.5688,-0.0129,-0.5631,1.5175,3.0987,1972
15,-0.1106,-1.4238,-0.126,-0.0907,1.3114,2.9906,1958
15,0.0027,-1.6663,-0.1882,0.5532,0.3649,3.0665,1921
15,-0.155,-2.0,-0.0835,-0.0121,0.505,2.9791,1938
15,-0.5679,-2.0,0.0576,-0.4753,1.0882,3.311,2023
15,-0.5176,-1.8032,0.1868,0.3681,0.4097,3.3389,2050
15,-0.3604,-1.6375,-0.0725,0.3357,-0.4026,2.6012,2024
15,0.1865,-1.5859,-0.0378,0.3219,-0.2189,2.8897,2090
15,0.1936,-1.4082,0.0439,0.0298,-0.753,3.5114,2040
15,-0.2524,-1.2461,0.1428,-0.6574,-1.3206,3.1036,2047
15,-1.1177,-0.9302,0.0215,-0.1298,0.2313,2.7237,1974
15,-1.0681,-1.5269,-0.0364,0.2764,0.3737,3.5822,2161
15,-0.2471,-0.3013,0.0474,0.4793,-0.7002,1.9243,1904
15,-0.3313,-0.8589,0.1899,0.3417,-0.1485,1.9118,2080
15,-0.8108,-0.6797,0.1831,0.1848,-0.0513,2.4053,2083
15,-0.9124,-0.7534,0.1919,0.4701,0.5932,2.0867,2071
15,-0.8162,-0.8828,0.2405,0.5645,0.9291,1.1375,2061
15,-0.6802,-0.751,0.376,0.4457,1.2789,0.8582,2049
15,-0.5439,-0.4512,0.23,0.0206,1.7009,0.6351,2027
15,-0.4768,-0.3892,0.1509,-0.3991,1.9475,-0.1553,2040
15,-0.1001,-0.2551,0.0125,-0.3265,1.9698,-0.5529,1860
15,0.0459,-0.1406,0.0222,-0.1954,1.9006,-0.701,2152
15,-0.0764,-0.1829,0.0596,-0.276,1.7319,-0.9648,2126
15,-0.1836,-0.0271,-0.1353,-0.2658,1.6195,-1.1417,2080
15,-0.2178,0.0554,-0.1533,-0.1272,1.3537,-1.504,2078
15,-0.1523,0.0215,-0.1768,-0.1033,1.2166,-1.8548,2109
15,-0.085,0.0437,-0.2515,-0.0595,1.0202,-2.0734,2021
15,-0.0386,-0.032,-0.1536,-0.102,0.6838,-2.384,2015
15,-0.0044,0.1096,-0.2539,0.0594,0.3843,-2.4645,2024
15,-0.1194,0.1099,-0.3677,0.0676,0.0518,-2.6603,2093
15,-0.1321,0.0549,-0.332,0.0961,-0.2931,-2.7588,2027
15,-0.2322,0.0066,-0.355,0.1804,-0.4854,-2.8975,2026
15,-0.3096,-0.0132,-0.3613,0.3027,-0.6221,-2.8494,2036
15,-0.4431,-0.0447,-0.3235,0.3312,-0.6103,-2.8141,2054
15,-0.5896,-0.1072,-0.2722,0.359,-0.5553,-2.7199,2045
15,-0.7212,-0.1426,-0.2053,0.3318,-0.453,-2.5506,2071
15,-0.8005,-0.1926,-0.1816,0.2248,-0.2593,-2.1997,2040
15,-0.7607,-0.0647,-0.1631,0.1116,-0.2117,-2.0326,2034
15,-0.9866,-0.2161,-0.2004,0.0378,-0.1581,-1.6775,2036
15,-1.0005,-0.176,-0.2219,-0.0226,-0.0286,-1.7265,2057
15,-1.092,-0.2188,-0.1353,-0.1416,0.1726,-1.6889,2059
15,-0.9846,-0.1631,-0.2412,-0.433,0.4737,-1.6691,2058
15,-0.8518,-0.1528,-0.3018,-0.4209,0.6292,-1.4841,2036
15,-0.6624,0.0093,-0.2698,-0.5624,0.6006,-1.2675,2010
15,-1.9006,-2.0,-2.0,-1.4482,1.5012,-3.754,2138
15,-1.2581,0.0881,0.4902,-4.2752,-0.0293,-1.9807,1271
15,-2.0,0.4453,-0.9104,1.8885,4.3634,3.1606,3335
15,-2.0,-2.0,0.3906,3.5395,-0.1127,2.2961,1555
15,0.3938,-2.0,-0.5103,1.4039,-0.191,-3.4918,1963
15,0.0117,0.5022,1.238,-0.348,-2.9553,0.6554,1501
16,0.335,0.0117,-0.1926,0.3136,1.5667,0.9328,1848
16,-1.0356,0.0852,-1.4734,0.4147,1.8648,0.6448,2007
16,-0.1606,-1.1399,0.3826,0.6907,0.049,-0.0542,2153
16,0.2278,-0.9336,0.5073,0.2792,0.1258,0.6161,2083
16,-0.3696,-0.7539,-0.0332,0.5179,0.4036,0.0154,2057
16,-0.8513,-0.9924,0.4219,0.5191,-0.5508,-0.0645,2087
16,-1.1584,-1.0999,0.1646,0.1806,-0.1475,0.2984,2187
16,-0.8157,-1.3574,0.1184,0.1862,0.5514,-0.0871,2065
16,-0.3181,-1.1858,0.1843,-0.0896,0.1787,-0.3404,2135
16,-0.2031,-0.9102,0.1365,-0.0914,0.1631,-0.379,2081
16,-0.2959,-0.8594,0.1743,0.0312,0.1055,-0.2976,2048
16,-0.4324,-1.0032,0.1575,-0.039,-0.0607,-0.3244,2054
16,-0.6226,-1.0732,0.0435,-0.1481,-0.1377,-0.3982,2108
16,-0.6106,-1.051,-0.0017,-0.1835,-0.0979,-0.4047,2154
16,-0.4944,-0.9939,-0.0222,-0.1716,-0.0486,-0.4938,2052
16,-0.4231,-0.9756,-0.0393,-0.1827,-0.0985,-0.597,2020
16,-0.4336,-0.9719,-0.0342,-0.189,-0.1322,-0.5799,2051
16,-0.4592,-0.9683,-0.0469,-0.2144,-0.0969,-0.5231,2036
16,-0.4829,-0.916,-0.0938,-0.1792,-0.0663,-0.5108,2047
16,-0.4431,-0.9368,-0.1287,-0.1716,-0.0754,-0.6693,2039
16,-0.3726,-1.0046,-0.1396,-0.1847,-0.1349,-0.8881,2030
16,-0.3252,-0.9722,-0.1685,-0.1341,-0.14,-0.9986,2004
16,-0.197,-0.9512,-0.166,-0.0639,-0.1334,-0.9823,2028
16,-0.1108,-0.9514,-0.1807,-0.0007,-0.1631,-0.9087,2032
16,-0.0337,-0.9646,-0.1602,0.0538,-0.2252,-0.8012,2045
16,-0.1372,-0.9746,-0.1438,0.0406,-0.289,-0.7919,2050
16,-0.0898,-1.0649,-0.0828,-0.3686,-0.1613,-0.6898,2032
16,-0.1824,-0.8091,-0.4302,0.014,-0.2607,-0.9048,2056
16,-0.1724,-0.7219,-0.3914,0.4132,-0.0229,-0.5024,2039
16,-0.228,-0.6824,-0.4202,0.9059,-0.4421,-0.8698,2032
16,-0.0408,-1.218,0.2463,0.3229,0.1396,-0.3863,2039
16,0.3291,-1.1128,0.0999,0.0567,-0.2914,-0.5627,2073
16,0.3948,-0.9031,-0.3096,0.2084,-0.3537,-0.2855,2068
16,0.04,-0.7966,0.2327,0.7345,-0.2187,-0.6167,2022
16,-0.2693,-0.8767,-0.271,0.7797,-0.2838,-0.5589,2074
16,-0.0859,-0.9397,-0.2444,0.8596,-0.1475,-0.6726,2084
16,0.2212,-0.9036,0.0085,1.0183,-0.0944,-0.5984,1874
16,0.249,-1.0051,0.1528,0.8118,-0.0021,-0.5838,2056
16,0.2512,-1.0217,0.0596,0.6111,-0.0365,-0.4761,1996
16,0.2297,-1.1025,0.0938,0.3466,-0.0525,-0.1726,2056
16,0.2554,-1.0315,0.0232,0.2306,0.0141,-0.02,2141
16,0.314,-0.9419,0.0366,0.2573,-0.0979,0.0103,2000
16,0.3589,-1.0144,0.0854,0.28,-0.3148,0.0656,2039
16,0.3691,-1.0042,0.0317,0.3358,-0.1273,0.1989,1883
16,0.1575,-1.0984,0.189,0.092,0.1823,0.3559,1952
16,0.1177,-1.1062,0.0759,0.0848,0.4189,0.2167,2230
16,0.105,-1.1011,0.0974,0.0025,0.3887,0.4233,2306
16,0.0234,-1.0664,0.0515,-0.0357,0.4601,0.6082,1735
16,0.0227,-1.0442,-0.0056,-0.0208,0.5293,0.5078,2161
16,0.0396,-1.1284,-0.0093,0.0174,0.3806,0.5161,2117
16,0.0066,-1.1311,-0.0327,0.1607,0.3678,0.728,2185
16,-0.0969,-1.1326,-0.0059,0.1694,0.232,0.8335,2688
16,-0.1748,-1.1382,0.0142,0.1587,0.2402,0.9276,2121
16,-0.2637,-1.1406,0.0398,0.2109,0.1321,1.0497,2521
16,-0.4285,-1.3821,0.0054,0.2348,0.1661,0.9483,2046
16,-0.3789,-1.4211,0.1938,0.4382,-0.0755,0.6336,1546
16,-0.4663,-1.3472,0.2322,0.5006,0.0678,0.4516,2638
16,-0.345,-1.3809,0.2622,0.2661,0.2165,0.3951,2075
16,0.1067,-1.7683,0.27,-0.0667,0.0537,0.538,2166
16,0.2744,-1.9873,0.3457,0.0515,-0.3667,0.5485,2204
16,0.365,-1.958,0.6646,0.2726,-0.7309,0.2281,2079
16,0.666,-1.623,0.6809,0.0165,-1.3228,0.6702,1923
16,0.7485,-1.4683,0.6709,-0.0919,-1.2467,1.0529,2039
16,0.783,-1.1707,0.6814,-0.3354,-0.9068,1.0168,2019
16,0.5896,-1.3264,0.4453,-0.3243,-0.8738,0.7437,1929
16,0.4937,-1.8503,0.3477,-0.2234,-1.2832,1.5625,2043
16,0.7598,-2.0,0.6096,-0.1053,-0.7763,-2.5952,1841
16,-0.1755,-2.0,0.0698,-0.3293,1.436,3.0477,2253
16,0.5654,-1.2063,-0.3401,-0.5123,2.5285,4.2205,2204
16,0.5352,-1.9365,-1.0566,0.22,0.4787,2.9582,2042
16,-0.6648,-2.0,-0.0947,0.6035,1.9861,2.9478,1980
16,-1.217,-2.0,0.4834,0.118,2.3754,3.6296,1987
16,-0.4246,-1.9524,0.48,1.2656,0.9492,3.9651,1998
16,1.2666,-2.0,0.0027,0.5123,-0.3638,3.4768,2137
16,0.301,-1.9392,0.1851,-0.5899,0.4449,4.3634,2022
16,-0.1619,-1.3831,-0.0979,-0.7974,-0.3681,4.3634,2001
16,-0.2568,-1.3945,0.3345,-0.7787,-1.1055,4.1607,1851
16,-0.4187,-1.1963,0.1458,-1.0516,-1.2247,3.9362,2045
16,-0.1731,-1.0232,0.0591,-0.3516,-1.1646,3.9879,2060
16,-1.2637,-0.8452,0.2883,-0.1643,0.6148,3.703,2184
16,0.01,-0.7556,0.1677,0.1346,-1.4527,3.4761,2046
16,-0.6133,-0.6868,0.4238,-0.4065,-1.658,2.3253,2065
16,-1.125,-0.4358,0.2439,-0.61,-0.7758,2.2952,1994
16,-0.7637,-0.3474,0.4116,-0.2438,-0.1734,2.5851,2020
16,-0.4727,-0.6091,0.4341,-0.3269,0.3677,2.1927,2038
16,-0.395,-0.4194,0.3594,-0.6918,0.6846,1.2472,2015
16,-0.0132,-0.1279,0.1538,-1.0142,0.6742,0.699,2019
16,0.0679,-0.2336,0.0654,-1.4952,0.3312,0.4806,1980
16,0.1174,-0.1797,0.0623,-1.6676,0.2597,-0.2533,2058
16,0.0596,-0.1411,-0.0391,-1.4238,0.3021,-0.4739,2042
16,-0.0459,-0.114,-0.0386,-1.3681,0.2446,-0.771,2111
16,-0.0742,-0.0571,-0.0271,-1.3737,0.1284,-1.164,2105
16,-0.0623,0.0134,-0.0442,-1.3938,0.1261,-1.5073,2112
16,-0.0664,0.0867,-0.051,-1.2844,0.0676,-1.8445,2062
16,-0.0776,0.1338,-0.0493,-1.0624,-0.0107,-2.3043,2038
16,-0.0508,0.0449,-0.0991,-1.0556,-0.195,-2.6683,2058
16,0.0237,-0.0212,-0.1743,-0.9902,-0.3864,-2.8799,2061
16,0.0535,-0.0796,-0.2266,-1.012,-0.6176,-3.1132,1853
16,-0.0149,-0.0889,-0.27,-0.9881,-0.8548,-3.2798,2033
16,-0.1235,-0.0691,-0.2756,-0.9255,-1.0993,-3.4111,2031
16,-0.1628,-0.1111,-0.2529,-0.9391,-1.3471,-3.4793,2131
16,-0.1743,-0.1323,-0.2515,-0.944,-1.5498,-3.5419,2051
17,-0.1782,-0.177,-0.2668,-0.9752,-1.8578,-3.5932,2045
17,-0.1528,-0.2239,-0.2683,-0.9308,-2.1746,-3.7263,2054
17,-0.2334,-0.2988,-0.2166,-0.9471,-2.4562,-3.6926,2041
17,-0.4187,-0.313,-0.1287,-0.9861,-2.661,-3.581,2039
17,-0.6084,-0.3342,-0.0337,-0.9878,-2.6745,-3.4805,2053
17,-0.7427,-0.3965,0.0076,-0.9508,-2.4113,-3.1672,2046
17,-0.9141,-0.3811,0.0598,-0.7974,-2.0184,-2.737,2049
17,-1.0676,-0.2759,0.1943,-0.659,-1.6249,-2.3772,2047
17,-1.1265,-0.1216,0.2817,-0.6199,-1.2806,-2.2067,2044
17,-1.1765,-0.0381,0.2029,-0.7233,-0.901,-2.2233,2050
17,-1.1929,0.1448,0.1042,-0.7106,-0.4384,-2.0904,2045
17,-1.2424,0.5037,0.0535,-0.5773,0.2384,-1.951,2032
17,-1.1821,0.7952,0.0647,-0.3799,0.8226,-2.1706,1978
17,-1.5962,-0.2017,-0.8906,-0.9517,4.2263,-4.3635,3329
17,-2.0,-2.0,-2.0,-4.3635,4.3634,0.8243,1801
17,-2.0,-2.0,-0.0618,4.3634,1.4812,2.6886,1943
17,0.0781,-2.0,0.9626,-1.167,1.3432,2.2238,2119
17,1.9473,0.52,-2.0,-3.0939,1.5002,-0.8875,1529
17,0.554,-0.3281,-0.6421,3.6946,0.402,-2.7197,1931
17,-0.3262,-0.7629,0.9939,0.7212,1.8326,-1.1591,2017
17,-0.1892,-0.5811,-0.8386,-1.0119,-0.9327,1.4988,2163
17,-1.3789,-0.2957,-1.0337,1.4881,1.8144,1.6976,2083
17,0.0112,-1.5715,1.1523,0.9855,0.7124,0.7444,2109
17,0.1389,-1.137,0.7043,-0.0937,-0.9287,0.7279,2061
17,-0.1111,-1.2463,-0.0308,0.4019,-0.1673,0.7909,2043
17,-0.7312,-1.1279,0.0642,0.2838,0.4087,0.9929,2009
17,-0.9504,-0.9573,0.343,0.1951,0.0679,0.7786,2031
17,-0.5286,-1.083,0.3787,-0.4441,0.339,0.3773,2071
17,-0.1885,-1.0476,0.1243,-0.5606,0.4011,0.2926,2075
17,-0.0361,-1.0376,-0.0479,-0.4954,0.3405,0.434,2011
17,-0.1931,-1.0237,-0.2075,-0.4657,0.0015,0.4496,2049
17,-0.3708,-1.0571,-0.3516,-0.4835,-0.0232,0.2787,2051
17,-0.2939,-1.03,-0.3196,-0.332,-0.1784,0.2015,2024
17,-0.2595,-1.0415,-0.2717,-0.2603,-0.1542,0.1482,2051
17,-0.3345,-1.0037,-0.1909,-0.2515,-0.2547,0.1772,2054
17,-0.4333,-0.9712,-0.2302,-0.2095,-0.1704,0.1666,2050
17,-0.3381,-0.9829,-0.2439,-0.193,-0.0646,0.0878,2040
17,-0.2646,-1.0366,-0.2493,-0.1445,-0.0704,0.0582,2070
17,-0.217,-1.0149,-0.2278,-0.091,-0.142,0.0538,2068
17,-0.2612,-1.0146,-0.1201,-0.0019,-0.1245,0.0166,2034
17,-0.3069,-1.0032,-0.1008,-0.0044,-0.0557,-0.0491,2090
17,-0.2629,-0.9929,-0.0793,0.0008,-0.0356,-0.0708,2051
17,-0.2017,-0.9983,-0.0674,0.0061,-0.0088,-0.1101,2091
17,-0.2256,-0.9746,-0.0786,0.0036,-0.0125,-0.1585,2044
17,-0.3093,-1.0027,-0.0991,-0.0277,-0.0148,-0.2163,1999
17,-0.3489,-1.0125,-0.0994,-0.0288,-0.0236,-0.3159,2062
17,-0.2917,-1.0073,-0.1008,-0.0489,-0.0293,-0.4036,2091
17,-0.2234,-0.9736,-0.1404,-0.0364,-0.043,-0.4358,2075
17,-0.1758,-0.9604,-0.1348,0.0104,-0.0929,-0.4227,2034
17,-0.1738,-0.9763,-0.1182,-0.0316,-0.161,-0.4424,2012
17,-0.1274,-0.9622,-0.1057,-0.0722,-0.1936,-0.4083,2066
17,-0.1399,-0.9695,-0.0969,-0.0297,-0.1823,-0.3221,2042
17,-0.1858,-0.9636,-0.0947,-0.0445,-0.294,-0.2774,2054
17,-0.2603,-0.9822,-0.072,-0.0856,-0.2987,-0.3731,2003
17,-0.2568,-1.0122,-0.082,-0.09,-0.2691,-0.4583,2048
17,-0.1816,-0.9912,-0.1143,-0.0619,-0.2241,-0.4281,2057
17,-0.196,-0.9297,-0.1345,-0.0593,-0.2127,-0.3958,2064
17,-0.2234,-0.9512,-0.1167,-0.0719,-0.1641,-0.5047,2052
17,-0.0935,-0.929,-0.1345,-0.073,-0.1442,-0.4088,2034
17,-0.0588,-0.9358,-0.2188,-0.0493,-0.2261,-0.2623,2030
17,-0.0493,-0.9597,-0.1584,0.1658,-0.1418,-0.235,2040
17,-0.1265,-1.0322,-0.0359,0.1657,-0.1447,-0.204,2082
17,-0.1714,-0.9521,-0.1147,0.3481,0.0181,-0.2689,2054
17,-0.1533,-0.9958,-0.0486,0.4165,0.2276,-0.2404,2029
17,-0.0308,-1.0845,0.0042,0.208,0.1032,-0.4063,2060
17,0.0151,-1.0427,-0.0151,0.1406,0.0866,-0.3137,1964
17,0.0435,-1.0127,-0.0381,0.1783,-0.0322,-0.089,2050
17,-0.0129,-1.052,-0.02,0.1001,-0.0851,-0.0714,2029
17,-0.0691,-1.0312,-0.1055,0.1021,-0.1497,-0.0518,2017
17,-0.0186,-1.0269,-0.0798,0.0844,-0.3193,0.0766,2056
17,-0.0559,-1.033,-0.0769,0.1144,-0.3862,0.021,2093
17,-0.0452,-1.0413,-0.0508,0.1413,-0.4943,0.0812,1904
17,-0.1091,-1.0193,-0.0876,0.2784,-0.4755,0.0049,2078
17,0.0029,-1.0474,-0.0093,0.2473,-0.4317,0.1057,2003
17,-0.0483,-0.9954,-0.1191,0.3505,-0.658,0.0453,2219
17,0.1748,-1.0652,0.0115,0.2598,-0.5612,0.1088,2120
17,0.3062,-1.0371,0.0042,0.1332,-0.5406,0.1894,2065
17,0.2332,-0.9705,0.0073,0.08,-0.3598,0.149,2036
17,0.3813,-1.0513,0.0022,0.0053,-0.3827,0.4629,2175
17,0.4424,-1.031,0.0095,-0.0702,-0.2673,0.6303,2096
17,0.4214,-1.0618,-0.0652,-0.071,-0.1782,0.9071,2034
17,0.3638,-1.0366,-0.1208,-0.078,-0.1065,1.2531,2027
17,0.356,-1.0906,-0.0979,-0.0875,-0.1051,1.4925,2125
17,0.3918,-1.1218,-0.0774,-0.1262,-0.0538,1.6606,2103
17,0.3467,-1.1643,-0.0862,-0.2012,0.0531,1.7897,2101
17,0.2869,-1.1958,-0.04,-0.2602,-0.0329,1.9237,1961
17,0.2649,-1.1755,0.0129,-0.2601,-0.0997,2.0214,2061
17,0.165,-1.1301,0.0762,-0.306,-0.2212,2.1417,2042
17,0.0823,-1.0908,0.0627,-0.296,-0.3129,2.3289,2039
17,0.0833,-1.115,0.1528,-0.3522,-0.3595,2.4686,2012
17,-0.0378,-1.2451,0.1514,-0.4456,-0.3197,2.5197,2023
17,-0.1609,-1.3853,0.1865,-0.4856,-0.255,2.5938,2046
17,-0.1782,-1.4973,0.2605,-0.7288,-0.4817,2.7528,2057
17,0.0359,-1.7051,0.2036,-0.7966,-0.9377,2.6607,2070
17,0.2056,-2.0,0.45,-0.9284,-0.4096,2.1455,2081
17,0.3547,-2.0,0.3679,-1.1452,-0.5006,2.4409,2042
17,0.3926,-1.9529,0.4336,-1.4845,-1.0268,2.6008,2057
17,0.5081,-1.9795,0.3896,-1.4669,-1.0544,2.5429,2057
17,0.5845,-1.9849,0.3931,-1.5181,-1.4901,3.0285,2064
17,0.7217,-1.8357,0.3303,-1.5002,-1.8398,3.2376,2043
17,0.8342,-1.5544,0.2644,-1.4057,-2.0514,3.2212,2026
17,0.0842,-1.197,0.1016,-1.2616,-1.8322,3.6729,1994
17,-0.3345,-1.3979,0.134,-2.1088,-2.6815,4.2827,1976
18,-1.0605,-1.5586,-0.168,-2.2325,-3.3701,3.7793,2008
18,-1.217,-1.4431,-0.2305,-1.7551,-3.2104,3.386,2142
18,-1.7183,-1.302,-0.0249,-1.9411,-3.1162,2.5954,2092
18,-1.5547,0.2646,0.072,-0.9222,-2.2644,2.6077,2010
18,-0.5259,0.1331,0.4036,-2.3477,-2.2407,3.9386,2082
18,1.9999,-0.2764,0.5723,-3.7921,-4.3635,4.3389,2075
18,-1.4717,-0.5049,0.3193,-3.5392,-4.3635,-1.3816,2089
18,-0.9885,0.5342,0.8284,-2.0937,-4.3635,-2.3011,1989
18,-0.6506,0.126,0.748,-2.1947,-4.3635,0.091,2037
18,-0.2517,-0.2646,0.4365,-1.9993,-4.3635,0.0338,2053
18,-0.3625,-0.4407,0.9072,-2.3485,-4.3635,-0.5103,2054
18,-0.2024,-0.2251,0.9148,-3.1572,-4.3635,-1.0754,2076
18,-0.3018,-0.179,0.6743,-2.6338,-4.3635,-1.1066,2057
18,-0.8093,-0.1924,0.7554,-2.1385,-3.2071,-0.7111,2032
18,-1.0886,-0.0417,0.8989,-2.4863,-1.7149,-0.8841,2041
18,-0.97,-0.0466,0.8462,-2.8509,-0.5382,-1.4135,2043
18,-0.8049,-0.1565,0.6875,-3.0701,0.2055,-1.9787,2036
18,-0.6426,-0.1628,0.4807,-3.23,0.4453,-2.6101,2044
18,-0.5588,-0.0808,0.2869,-3.1945,0.3693,-3.0941,2047
18,-0.481,-0.113,0.1453,-3.0577,0.1667,-3.3384,2066
18,-0.3398,-0.186,0.0571,-2.9841,-0.0828,-3.5435,2041
18,-0.1531,-0.2129,0.0339,-2.9177,-0.4697,-3.798,2044
18,-0.05,-0.2527,-0.0027,-2.8098,-1.0283,-4.0225,2091
18,-0.0657,-0.3298,-0.1018,-2.7457,-1.5942,-4.1692,2028
18,-0.135,-0.3826,-0.1548,-2.6685,-1.9776,-4.2351,2015
18,-0.1885,-0.4546,-0.1357,-2.3886,-2.4462,-4.1692,2029
18,-0.1016,-0.5334,-0.1238,-2.218,-2.8727,-3.9081,2032
18,0.0723,-0.6472,-0.1995,-2.1944,-3.0533,-3.7748,2039
18,-0.0254,-0.8857,-0.1184,-2.4551,-3.3922,-3.7577,2019
18,-0.2722,-0.9465,-0.052,-2.5187,-4.2118,-3.8109,2037
18,-0.5132,-0.9387,0.053,-2.4602,-4.3635,-3.8555,2002
18,-0.666,-0.9854,0.0913,-2.4354,-4.3635,-3.8572,2069
18,-0.6289,-1.0664,0.2666,-2.5493,-4.3635,-3.543,2082
18,-0.7229,-1.2651,0.1375,-2.3435,-4.3635,-3.5153,2055
18,-0.4434,-1.1116,0.2117,-1.9726,-4.3635,-3.3794,2041
18,-0.9121,-1.6543,0.4561,-1.486,-4.3635,-3.331,2054
18,-1.0688,-1.3962,0.8821,-1.6548,-4.3635,-2.8273,2026
18,-1.1384,-1.1125,0.9102,-1.2995,-4.0379,-2.4481,1996
18,-1.1301,-0.918,0.8064,-0.4619,-2.4796,-2.3353,2047
18,-2.0,-0.8987,0.8145,-0.3726,0.4526,-2.3819,2042
18,-2.0,-0.4868,1.498,0.8059,3.8115,-1.9779,2012
18,0.4062,-2.0,1.2991,-1.8951,4.3634,4.3634,2170
18,-0.8752,-0.5688,0.7251,0.5923,3.9175,-0.3064,2007
18,0.1411,-0.8909,0.0037,0.375,3.5788,-1.1062,2076
18,1.9999,-1.4895,-1.0698,0.4793,3.418,-2.9688,2132
18,1.9999,-2.0,-2.0,-0.3386,4.331,-1.0664,2255
18,0.0183,-1.3381,-1.2561,3.1337,4.3634,-2.701,1849
18,1.9999,-0.8052,1.9999,-1.4872,0.2806,-1.2884,1952
18,-2.0,-1.2358,-1.2109,0.3349,3.5684,-1.6901,2059
18,-0.2964,-1.4441,0.7864,1.3111,-1.3874,0.0647,2112
18,0.7393,-2.0,0.1497,-0.3372,-1.7041,1.1062,2081
18,1.1741,-1.0737,0.1555,-0.7933,0.813,0.6293,2032
18,0.469,-0.6941,-0.2026,-0.0264,0.5277,0.0346,2035
18,0.2705,-0.8562,-0.3625,0.036,0.0931,0.3739,2064
18,0.5786,-1.042,-0.2947,-0.249,0.4436,0.8043,2056
18,0.5022,-0.9963,-0.3247,-0.1772,0.3971,0.6794,2054
18,0.2786,-0.8728,-0.4995,-0.1392,-0.0326,0.5252,2057
18,0.3069,-0.9797,-0.4624,0.0268,-0.514,0.5698,2058
18,0.2009,-1.0706,-0.249,0.1808,-0.4711,0.5789,2045
18,-0.0632,-1.009,-0.2146,0.1441,-0.4779,0.5706,2043
18,-0.1421,-1.0066,-0.2715,0.104,-0.4988,0.5393,2040
18,0.1045,-1.0298,-0.3264,0.1165,-0.4928,0.5026,2047
18,0.2515,-1.0469,-0.3691,0.173,-0.6165,0.452,2011
18,0.4097,-1.0657,-0.2764,0.1907,-0.7083,0.5502,2001
18,0.417,-1.1111,-0.176,0.1744,-0.7678,0.6432,2049
18,0.4016,-0.9893,-0.1531,0.31,-0.8617,0.6436,2040
18,0.3694,-1.0356,-0.0813,0.3252,-0.8299,0.6913,2052
18,0.2812,-1.0764,-0.0176,0.2666,-0.7405,0.8006,2038
18,0.2366,-1.0093,-0.0315,0.1658,-0.6862,0.8597,2040
18,0.2275,-0.9517,-0.0334,0.1357,-0.7996,0.8568,2046
18,0.1921,-1.03,0.0083,-0.0213,-0.6011,1.0489,2052
18,0.0671,-1.0142,-0.0649,-0.1914,-0.4108,1.0994,2061
18,-0.1343,-0.9067,-0.2148,0.0376,-0.3786,0.8692,2037
18,0.0183,-0.9675,-0.1296,-0.1107,-0.2292,0.8238,2042
18,-0.0569,-0.9492,-0.3491,0.1498,-0.4577,0.673,2052
18,0.1348,-0.9133,-0.5366,0.3101,-0.8625,0.7253,2053
18,0.115,-1.022,-0.1587,0.2075,-0.8506,0.6237,2048
18,0.042,-1.0081,-0.125,0.443,-1.3158,0.6833,2040
18,0.0149,-0.9614,-0.2217,0.4847,-1.4747,0.6834,2048
18,-0.0171,-1.001,-0.032,0.4738,-1.4786,0.7288,2049
18,-0.0828,-1.0239,0.0229,0.2195,-1.1372,0.7182,2045
18,-0.0891,-0.989,-0.0371,0.2177,-1.0116,0.6829,2050
18,-0.2136,-1.0452,0.0769,-0.108,-1.1027,0.442,2047
18,-0.0732,-1.0327,-0.0532,0.0671,-0.9184,0.5946,2049
18,-0.085,-1.0139,-0.0747,-0.0212,-0.4382,0.5743,2045
18,-0.2285,-1.0022,-0.1484,-0.0115,-0.4366,0.4946,2050
18,-0.0938,-1.022,-0.134,-0.0746,-0.4315,0.5793,2048
18,-0.0554,-0.991,-0.1257,-0.0649,-0.2436,0.5143,2046
18,0.0291,-0.9954,-0.134,-0.0449,-0.2253,0.5742,2068
18,0.0391,-1.0115,-0.1523,-0.0272,-0.1579,0.5433,2043
18,0.0933,-1.0251,-0.155,-0.0653,-0.1758,0.6212,2049
18,0.0425,-0.9973,-0.1558,-0.047,-0.1471,0.5906,2059
18,0.0605,-1.0112,-0.1021,-0.0358,-0.1443,0.6024,2010
18,-0.0127,-0.9985,-0.1138,-0.0531,-0.0639,0.666,2071
18,0.0244,-1.0408,-0.0947,-0.0896,-0.1687,0.7016,2005
18,0.0352,-1.0242,-0.1638,-0.0792,-0.0771,0.732,2086
18,0.1057,-1.0676,-0.0981,-0.0784,0.0161,0.756,2063
18,0.0398,-1.0168,-0.1511,-0.1381,-0.0032,0.7556,2042
18,0.1096,-0.9949,-0.0862,-0.1743,-0.0091,0.8387,2118
18,0.0811,-0.9976,-0.061,-0.138,0.125,0.8819,2203
18,0.1243,-1.0496,-0.1016,-0.2087,0.0166,1.0369,2071
19,0.1243,-1.0273,-0.1602,-0.1241,0.0672,1.1468,2021
19,0.1885,-1.0884,-0.0879,-0.1413,0.0366,1.3035,2220
19,0.2119,-1.1086,-0.0708,-0.1708,-0.0127,1.4613,2182
19,0.272,-1.1611,-0.01,-0.2836,0.0044,1.6151,2036
19,0.1411,-1.1248,-0.075,-0.3,-0.0051,1.6623,2152
19,0.1084,-1.1675,-0.0862,-0.3715,-0.08,1.7404,2055
19,0.0552,-1.1167,-0.0696,-0.3369,-0.1081,1.7901,2036
19,0.0244,-1.1489,-0.032,-0.3726,-0.2072,1.8875,2070
19,-0.031,-1.1614,-0.0486,-0.3691,-0.273,2.007,2076
19,-0.0662,-1.1843,-0.0293,-0.3469,-0.2129,2.072,2048
19,0.0173,-1.2341,0.0203,-0.3675,-0.2522,2.1542,2057
19,0.1177,-1.2568,0.0986,-0.4924,-0.3484,2.1764,2050
19,0.0254,-1.4209,0.1187,-0.7716,-0.6725,2.121,2039
19,0.0105,-1.4951,0.0742,-0.9389,-1.1363,2.0517,1958
19,0.104,-1.5972,0.2417,-1.068,-1.3753,2.1616,2101
19,0.6726,-1.9014,0.252,-1.2467,-2.5044,2.2678,2085
19,1.084,-1.9744,0.6165,-1.4207,-2.8044,2.5858,2077
19,0.5183,-1.8718,0.7117,-1.699,-2.6931,2.5392,2055
19,0.3433,-1.99,0.5813,-1.9619,-3.1048,2.7446,2059
19,1.0908,-1.8589,0.6448,-1.9044,-3.3945,3.4553,2041
19,1.4126,-1.6926,0.4238,-1.8467,-4.0816,3.8503,1938
19,1.147,-1.6428,0.3657,-1.6769,-4.3635,3.6418,1970
19,-0.0059,-1.5342,0.0579,-1.658,-4.3635,4.2108,2114
19,-0.9429,-1.5767,0.1145,-1.7844,-3.9791,4.1828,2114
19,-1.5793,-1.4651,0.1907,-1.7915,-4.2652,4.3268,2069
19,-1.6201,-1.7061,0.4814,-2.3582,-4.3635,3.9602,2095
19,-1.5835,-0.949,0.1978,-1.9578,-3.2885,2.3479,2018
19,-0.9207,-0.3345,0.1387,-1.1021,-2.4601,3.3065,1986
19,-0.3035,-0.5103,0.2078,-2.8783,-0.2374,3.6023,2020
19,1.0686,-1.1858,0.3301,-4.3635,-3.7086,3.6892,2090
19,-2.0,-0.168,-0.3848,-1.5608,-4.3635,-0.4926,2048
19,-1.5708,-0.344,0.4631,-0.3043,-4.3635,-1.0258,2013
19,-1.4385,-0.8623,0.4802,-0.7564,-3.2947,-0.2244,2041
19,-0.8782,-0.7009,0.3015,-1.2161,-0.0683,-0.7909,2032
19,-1.0247,-0.6343,0.1042,-0.7894,1.0018,-1.5609,2047
19,-0.2122,-0.415,0.9067,-1.2641,-2.3433,-1.6994,2055
19,-0.2776,-0.1047,0.238,-1.0295,-0.8525,-1.5231,2062
19,-0.6284,-0.1655,0.1721,-1.0449,0.5046,-0.7229,2030
19,-0.9241,-0.313,0.353,-0.9321,0.269,-1.9082,2081
19,-0.8594,-0.3584,0.5322,-1.1452,0.626,-2.9688,2051
19,-0.6934,-0.2717,0.4282,-0.8862,1.3656,-3.075,2052
19,-0.6716,-0.3376,0.3091,-0.9344,1.695,-3.0237,2058
19,-0.6384,-0.3586,0.0886,-1.4135,1.7358,-3.2142,2037
19,-0.5732,-0.251,-0.1802,-1.3224,1.8217,-3.7833,2044
19,-0.1802,-0.1838,-0.2234,-1.0499,1.2848,-3.6789,2041
19,-0.0903,-0.3774,-0.2468,-0.6444,0.9416,-3.8731,2034
19,-0.0969,-0.5159,-0.3218,-0.5489,0.4735,-3.9614,2018
19,-0.1877,-0.4268,-0.3176,-0.4725,-0.369,-4.0447,2039
19,-0.1721,-0.3896,-0.2395,-0.3143,-1.0228,-4.0006,2027
19,-0.2053,-0.5034,-0.2109,-0.4188,-1.3547,-3.9853,2026
19,-0.178,0.0542,-0.3555,0.0297,-1.6717,-3.8203,2039
19,-0.2466,-0.4956,-0.1965,0.2558,-1.7792,-4.0978,2051
19,-0.3408,-0.6023,-0.0544,0.3163,-1.9266,-3.634,2043
19,-0.5193,-0.5249,0.0859,0.3697,-2.0792,-3.3351,2045
19,-0.7266,-0.491,0.2102,0.2729,-1.8753,-3.1056,2055
19,-0.9839,-0.415,0.2927,0.1186,-1.4651,-2.9584,2062
19,-1.1089,-0.3704,0.3032,0.226,-0.9369,-2.6706,2039
19,-1.1763,-0.3704,0.3347,0.3088,-0.3673,-2.34,2054
19,-1.3162,-0.3652,0.4036,0.365,0.0409,-2.2089,2040
19,-1.2783,-0.3196,0.3167,0.3348,0.4554,-2.129,2057
19,-1.2012,-0.2729,0.1565,0.4047,0.8967,-1.9407,2048
19,-1.0356,-0.3765,-0.0142,0.5241,1.0859,-1.2671,2036
19,-0.842,-0.324,-0.2249,0.2804,1.1051,-1.0713,2000
19,-0.6104,-0.2415,-0.2444,0.1228,0.6409,-0.5554,2061
19,-0.4163,-0.2175,-0.147,0.0119,-0.1645,-0.094,2057
19,-2.0,-1.7688,-1.9963,-1.6596,1.6667,-2.217,2071
19,-1.9995,0.0369,0.2109,-2.8881,-4.3635,-0.6729,1888
19,-2.0,0.4187,-0.4092,0.8986,2.9168,2.7747,2106
19,-1.1807,-0.7395,-2.0,-1.1405,2.9715,4.1016,2263
19,0.6489,-2.0,-0.675,2.5007,1.9471,-4.3635,2460
19,1.6843,-2.0,1.9999,0.632,-0.1653,1.4812,1633
19,1.4844,1.324,0.9673,-0.2072,-4.3635,4.3634,1913
19,-2.0,-1.4807,1.9999,0.1093,-1.4636,-0.8424,2091
19,0.7134,-2.0,-0.884,0.6473,-2.4855,1.0505,2071
19,-2.0,-0.3586,-0.073,0.1732,2.3459,4.2434,1993
19,-1.7009,-0.2666,0.3926,-0.2272,1.2832,1.8205,2063
19,-0.2888,-0.2349,-0.3167,-0.4187,1.8757,1.1869,2044
19,0.1519,-0.3987,-0.0115,0.3694,1.3339,-0.6758,2055
19,-0.2393,-1.4197,0.3381,-0.1298,0.4207,-1.3434,2060
19,0.2163,-1.593,-0.0122,-0.3565,-0.4962,1.0255,2056
19,-0.374,-1.1641,-0.1516,-0.1995,0.3136,0.7472,2040
19,-0.7122,-1.0293,-0.1179,-0.1216,-0.0631,0.5385,2044
19,-0.5134,-0.8376,-0.1499,-0.1333,-0.0724,0.4904,2054
19,-0.4043,-0.7864,-0.1206,-0.1923,0.21,0.3824,2035
19,-0.3921,-0.8318,-0.1235,-0.2699,0.063,0.2057,2047
19,-0.4622,-0.9033,-0.2073,-0.3233,0.1035,0.0388,2056
19,-0.491,-1.0039,-0.2566,-0.2461,0.1057,-0.0579,2063
19,-0.437,-1.0071,-0.2275,-0.1402,-0.015,-0.0747,2064
19,-0.3174,-0.9741,-0.1931,-0.1028,-0.037,-0.1265,2036
19,-0.3142,-1.0854,-0.2009,-0.0656,0.0931,-0.2148,2043
19,-0.2539,-1.1584,-0.1797,-0.0325,0.033,-0.2386,2076
19,-0.2598,-1.1064,-0.1589,0.0095,-0.0349,-0.216,2011
19,-0.3071,-1.074,-0.1206,0.0819,-0.0226,-0.1587,2062
19,-0.335,-0.9905,-0.0725,0.0553,-0.1453,-0.218,2044
19,-0.2871,-0.9854,-0.1016,0.0672,-0.0629,-0.3434,1989
19,-0.2375,-1.0225,-0.0559,0.061,-0.0539,-0.4164,2048
19,-0.166,-1.0798,-0.075,0.0274,-0.1234,-0.3741,2056
19,-0.1111,-1.0784,-0.1042,0.0883,-0.127,-0.242,2082
19,-0.0396,-1.0613,-0.0503,0.0598,-0.2838,0.0454,1952
19,-0.4138,-0.9851,-0.0771,-0.0601,-0.3623,-0.1951,2065
19,-0.4009,-0.9722,-0.1416,0.0453,-0.1599,-0.4462,2034
19,-0.2817,-1.0676,-0.2839,0.2509,0.1678,-0.4872,2028
19,-0.0439,-0.9241,-0.167,-0.2357,-0.6839,-0.1706,2021
19,-0.0422,-0.8933,-0.1257,0.0752,-0.5472,-0.2273,2203
20,-0.2815,-1.0396,-0.1294,0.602,0.1224,-0.5087,2102
20,0.0593,-1.1367,0.3547,0.4409,-0.081,-0.4121,2077
20,0.1028,-1.0205,-0.1968,0.3738,-0.1964,-0.3345,2088
20,0.333,-1.1306,0.3027,-0.4566,-0.7237,-0.2509,1931
20,-0.075,-0.8699,-0.4041,0.1143,-0.5915,-0.5153,1984
20,-0.1663,-0.9485,-0.1509,0.4651,-0.6866,-0.328,2097
20,-0.3191,-0.8132,-0.3752,1.172,-0.0786,-0.4635,2084
20,-0.0491,-1.0801,0.0891,0.8292,0.0393,-0.6291,2017
20,0.019,-0.9768,-0.0586,0.5381,-0.0989,-0.583,2148
20,0.1633,-0.9077,-0.0405,0.6954,-0.0226,-0.326,2160
20,0.3535,-0.988,0.0356,0.5801,-0.297,-0.0214,2153
20,0.1675,-1.0276,0.0503,0.3661,-0.465,0.0184,1853
20,-0.1682,-0.9934,-0.0613,0.3397,-0.3697,-0.1899,1929
20,-0.0979,-1.0425,-0.0618,0.3124,-0.285,0.0035,2198
20,0.0532,-1.002,-0.0823,0.2975,-0.1796,0.0582,1623
20,0.1685,-0.991,-0.0691,0.3203,-0.1746,0.138,1938
20,0.1255,-1.0386,-0.0735,0.3361,-0.123,0.1731,2253
20,0.0557,-1.0913,-0.0208,0.3317,-0.293,0.1928,1119
20,0.0159,-1.1267,0.0161,0.3368,-0.2228,0.2677,2171
20,0.0879,-1.1235,0.1167,0.2493,-0.1538,0.393,1501
20,0.052,-1.1348,0.0461,0.1537,-0.1121,0.3771,2166
20,0.0051,-1.1511,0.0317,0.1225,-0.0236,0.4413,2294
20,-0.0398,-1.2048,0.0188,0.121,-0.008,0.6245,2119
20,-0.1016,-1.1899,0.0242,0.1657,0.0401,0.7355,2536
20,-0.2048,-1.2219,0.0046,0.2023,-0.0844,0.7352,1538
20,-0.2588,-1.2578,0.0984,0.2432,-0.1747,0.62,1491
20,-0.1729,-1.3076,0.1287,0.2578,-0.4358,0.5484,2149
20,-0.0056,-1.4246,0.1958,0.1583,-0.6185,0.473,2293
20,0.0002,-1.5112,0.271,0.0606,-0.6297,0.3923,2070
20,-0.0137,-1.5217,0.3044,0.0225,-0.5293,0.495,2066
20,0.0081,-1.5566,0.4473,0.0894,-0.501,0.5698,2037
20,0.1292,-1.6243,0.5671,0.0816,-0.4852,0.7372,2006
20,0.3831,-1.7788,0.5625,-0.076,-0.7608,0.7476,2212
20,0.8987,-1.7842,0.5664,-0.0498,-1.1573,1.0927,2171
20,1.1541,-1.5195,0.5186,-0.1161,-1.4251,1.5262,2126
20,1.1392,-1.4636,0.4421,-0.1985,-1.5988,1.9845,2185
20,1.2839,-1.5222,0.4143,-0.4128,-1.7064,2.6649,2066
20,1.2935,-1.5334,0.1982,-0.6612,-2.2848,3.1006,2035
20,0.2615,0.9392,-0.488,0.2309,-1.3046,-0.2434,2032
20,0.5156,-2.0,0.4319,-0.901,-0.4201,2.2196,1950
20,-1.8267,-1.355,-0.2178,-1.1356,-0.8538,3.5232,2130
20,-0.0378,-1.7344,0.0923,-1.7554,0.1795,4.3634,2038
20,0.3542,-1.5952,-0.0652,-0.0984,-0.7861,4.3634,1939
20,0.1194,-2.0,-0.5061,-0.9179,-0.8638,3.8325,1988
20,-0.9238,-2.0,-0.4082,-0.8111,-1.2302,3.487,2120
20,-0.9456,-0.8958,0.1365,0.5525,-2.5125,2.8023,2170
20,-0.4812,-1.6809,0.2847,0.9861,-1.7191,3.3994,1989
20,-0.1086,-1.5034,0.3125,0.0932,-2.0108,3.9135,2009
20,-0.4509,-1.2,0.2988,-0.8295,-2.0692,3.165,2037
20,-0.5662,-1.1855,-0.1016,-1.0111,-2.3241,2.0957,2054
20,-0.4956,-0.9463,0.3127,-0.8421,-2.3486,1.7374,2043
20,-0.7656,-0.5295,0.1797,-0.8015,-2.1814,2.6014,2038
20,-1.2397,-0.1504,0.3193,-0.3241,-1.7496,2.6988,2039
20,-1.0754,-0.4814,0.2078,0.7835,-0.4887,2.6283,2030
20,-1.2827,-0.2834,0.6274,1.2993,0.6747,1.5554,2023
20,-1.1089,-0.3323,0.6079,0.7817,1.6131,1.1949,2044
20,-1.1667,-0.2241,0.5386,0.0217,1.8741,0.318,2066
20,-0.8157,-0.2334,0.2517,-0.5325,2.1654,-0.6379,2030
20,-0.0425,-0.0598,0.0691,-0.7951,2.2581,-0.7795,2032
20,0.5383,0.0562,-0.0173,-0.759,1.9775,-0.6568,2020
20,0.2983,0.1768,-0.2612,-0.4257,1.9606,-1.0033,2047
20,-0.0291,0.1797,-0.1621,-0.4741,1.5791,-1.36,2126
20,-0.0901,0.2017,-0.0095,-0.2329,1.2971,-1.691,2050
20,-0.0205,0.3264,-0.126,-0.1152,1.3431,-1.9146,2018
20,0.0876,0.2034,-0.0559,-0.0486,1.0808,-2.3035,1990
20,0.1482,0.3572,-0.2744,0.0446,0.8734,-2.6176,2029
20,0.0896,0.2549,-0.248,-0.185,0.4067,-2.899,2075
20,-0.1296,0.3655,-0.3484,0.2823,0.2449,-3.0601,2024
20,-0.3052,0.3167,-0.2539,0.3424,0.216,-3.1484,2046
20,-0.4585,0.3191,-0.3184,0.5241,0.3161,-3.2874,1989
20,-0.604,0.2498,-0.3176,0.9535,0.4152,-3.3504,2050
20,-0.6562,0.1455,-0.2734,1.1971,0.6064,-3.281,2064
20,-0.728,-0.0222,-0.3469,1.2437,0.7024,-3.0521,2027
20,-0.699,-0.084,-0.3643,1.0602,0.6646,-2.4816,2113
20,-0.7224,-0.1072,-0.4941,0.7209,0.5896,-1.8675,2081
20,-0.8555,-0.2334,-0.511,0.2639,0.179,-1.1294,2017
20,-1.115,-0.3638,-0.4497,-0.3322,-0.2807,-0.6777,2056
20,-1.1389,-0.3289,-0.3918,-0.9528,-0.4288,-0.391,2063
20,-1.1611,-0.0818,-0.4724,-1.4234,-0.5445,-0.0772,2115
20,-0.9575,-0.3037,-1.4512,-2.426,-0.1461,0.2737,1977
20,-2.0,-0.2927,-2.0,-2.2012,1.7138,-1.6619,2097
20,-2.0,0.4175,-0.1965,0.3824,1.8643,3.2854,2199
20,-1.1189,-2.0,-0.6829,2.0651,0.7829,-1.913,1769
20,1.4927,-2.0,0.9885,0.4148,-1.725,-4.3635,2139
20,1.0378,-2.0,0.6477,-1.8277,1.9176,-2.3158,2000
20,-0.2581,-0.1934,0.1626,1.5218,-0.3318,0.5275,2003
20,-1.8027,-0.8472,1.2815,2.5159,1.4897,4.1556,1963
20,-1.6409,-0.9404,0.9692,0.7846,0.5919,0.6007,2148
20,-0.478,-0.8403,-0.0325,-0.866,0.0123,0.1225,2128
20,-0.9404,-1.1074,-0.1133,0.0072,1.8245,-1.2299,2035
20,-0.1609,-0.7891,-0.0652,0.0389,0.4754,-0.9107,2133
20,0.314,-0.8301,-0.0605,0.2258,0.3378,-0.1762,2028
20,-0.1682,-0.9272,0.3113,0.5674,0.7553,-0.0298,2169
20,-0.8311,-1.0662,0.4841,0.4433,0.3305,0.0989,2067
20,-0.8877,-1.2271,0.3833,0.1189,0.0952,0.1147,2123
20,-0.667,-1.2566,0.1821,-0.0254,0.3137,-0.3591,2014
20,-0.4568,-1.1433,0.1399,-0.2036,0.238,-0.6308,2038
20,-0.2834,-0.9812,0.104,-0.286,-0.075,-0.4825,2016
20,-0.4067,-0.9636,0.0879,-0.2647,-0.0726,-0.4659,2082
20,-0.6179,-1.0005,0.0093,-0.2372,0.0079,-0.4581,1989
20,-0.6877,-0.9707,-0.0798,-0.2249,0.089,-0.4153,2036
21,-0.5278,-0.9287,-0.1494,-0.206,0.0831,-0.4607,2029
21,-0.3752,-0.9014,-0.2053,-0.1278,-0.014,-0.6193,2059
21,-0.3093,-0.906,-0.196,-0.0314,-0.1117,-0.7614,2022
21,-0.3213,-0.9243,-0.146,0.049,-0.2565,-0.7725,2082
21,-0.3525,-0.9448,-0.1814,0.1417,-0.35,-0.7492,2008
21,-0.3135,-0.9895,-0.1223,0.1924,-0.3236,-0.7554,2107
21,-0.2363,-1.0068,-0.1978,0.2976,-0.4185,-0.8103,2032
21,-0.1062,-1.0039,-0.2356,0.4872,-0.499,-0.7873,2178
21,0.1851,-1.0032,-0.2642,0.3919,-0.7702,-0.5078,1990
21,0.1021,-0.9631,-0.3516,0.6963,-0.0515,-0.2144,2036
21,-0.2104,-0.8184,-0.1887,1.174,-0.6348,-0.6243,2068
21,-0.2529,-1.1201,0.1079,0.448,-0.1571,-0.2028,2194
21,-0.2095,-1.0071,-0.1179,0.2438,-0.2396,-0.5529,2084
21,-0.1523,-0.8162,-0.0498,0.5577,-0.3033,-0.6379,2052
21,-0.1055,-0.8044,0.1313,0.3623,-0.2595,-0.5185,1952
21,-0.1643,-0.7822,-0.0286,0.5742,-0.1466,-0.5084,2105
21,-0.2468,-0.9021,0.0078,0.3858,-0.1675,-0.5012,1950
21,-0.1165,-0.9578,-0.0261,0.2735,-0.1927,-0.4538,2126
21,-0.1206,-0.8977,-0.0945,0.4695,-0.1217,-0.4312,2180
21,-0.2598,-0.8994,0.0615,0.7179,0.0664,-0.6726,1944
21,-0.0662,-0.9067,0.1006,0.5424,0.0224,-0.4456,1910
21,0.0493,-0.9695,0.0771,0.3184,-0.0048,-0.5196,1912
21,0.1448,-0.8945,0.061,0.3135,-0.1008,-0.3734,1954
21,0.0371,-0.9817,0.0586,0.2645,-0.0586,-0.2742,2064
21,-0.0173,-1.031,0.0327,0.2529,0.0184,-0.0473,1400
21,-0.0012,-1.0693,-0.0481,0.2682,0.0923,-0.0505,1873
21,0.0115,-1.1069,-0.012,0.35,0.1421,-0.1037,2223
21,0.0125,-1.1553,0.0291,0.2535,0.0718,-0.0013,1782
21,-0.0437,-1.1877,0.2051,0.2466,0.0944,0.137,1965
21,-0.1079,-1.1482,0.0933,0.2008,0.0567,0.3292,1822
21,-0.1165,-1.1885,0.2134,0.1228,0.0525,0.4428,1913
21,-0.1248,-1.229,0.0869,0.1016,0.0414,0.5549,1790
21,-0.1299,-1.3335,0.1953,0.1432,0.0117,0.5582,2313
21,-0.178,-1.532,0.3118,0.0582,-0.0324,0.3318,1770
21,-0.1504,-1.6011,0.3926,0.0694,-0.1566,0.2934,2380
21,-0.093,-1.6147,0.4668,0.1253,-0.1344,0.2666,2083
21,0.1577,-1.7017,0.5415,-0.0374,-0.174,0.341,1938
21,0.2058,-2.0,0.6226,-0.089,-0.1637,0.1583,1826
21,0.8357,-1.7024,0.6021,0.128,-0.5843,0.6677,2035
21,0.8794,-1.688,0.5859,0.0569,-0.4882,0.8917,2037
21,0.8809,-1.4885,0.4922,0.0435,-0.4602,1.2327,2007
21,1.1155,-1.3862,0.5056,-0.1381,-0.5869,1.6961,1780
21,1.2498,-1.2671,0.4185,-0.587,-0.8066,1.8824,2177
21,0.9431,-0.4678,0.1055,0.1619,-1.3762,-2.0,1851
21,-0.1272,-2.0,-0.1304,-0.1135,0.1694,1.1222,2176
21,-1.1133,-1.6213,-0.1201,-1.0403,0.3737,3.8165,2547
21,0.6428,-1.3928,0.2239,-1.023,0.3622,4.3634,2232
21,0.7625,-1.9375,-0.3853,0.4817,-0.1067,3.6323,1918
21,-0.1836,-2.0,0.1499,-0.1216,0.0786,3.3499,1693
21,-1.1794,-2.0,0.239,-1.0965,-0.5393,3.9177,1928
21,-0.8755,-1.3391,-0.0134,0.149,-1.1139,3.3122,2170
21,-0.2446,-1.469,0.0779,0.1954,-1.1155,2.8208,1669
21,-0.0913,-1.5359,0.064,-0.165,0.0656,4.3634,1891
21,-0.1775,-1.1245,0.1121,0.0638,-1.0449,4.2414,2110
21,-0.4268,-1.051,0.0056,-0.3726,-1.4274,3.2463,1970
21,-0.7288,-1.0583,0.1716,0.0024,-1.5267,1.8969,2093
21,-0.678,-0.7869,0.238,-0.4602,-1.2303,2.599,2059
21,-0.9124,-0.5481,0.0579,0.1987,-0.8368,2.375,2011
21,-0.7642,-0.6621,0.0732,0.6612,-0.5513,2.5261,1991
21,-0.9431,-0.7056,0.1484,0.867,0.0577,2.435,2049
21,-1.0864,-0.6892,0.2974,0.8391,0.6355,1.899,2054
21,-1.0593,-0.6614,0.396,0.6046,1.1274,1.4163,2059
21,-0.9285,-0.5359,0.3645,0.0514,1.6727,0.8433,2057
21,-0.6516,-0.3542,0.2158,-0.3021,2.0012,0.2088,2034
21,-0.3159,-0.208,0.052,-0.7368,2.1485,-0.0778,2031
21,-0.0596,-0.1558,-0.093,-1.0264,2.09,-0.4117,2063
21,0.1099,-0.1338,-0.1919,-1.178,1.8194,-0.8148,2065
21,-0.0483,-0.1919,-0.2109,-1.1172,1.6064,-1.1399,2010
21,0.01,-0.0046,-0.2229,-0.9797,1.2066,-1.2379,2052
21,-0.0747,-0.0068,-0.2251,-0.7901,1.1327,-1.6038,2070
21,0.021,-0.0193,-0.2195,-0.7593,0.9794,-1.9278,2065
21,-0.011,0.0916,-0.2241,-0.6588,0.7878,-2.2308,2074
21,0.0981,-0.0024,-0.1597,-0.7545,0.4145,-2.5334,2068
21,0.0203,0.1531,-0.3391,-0.6224,0.2069,-2.7829,2082
21,-0.0981,0.1941,-0.2834,-0.3785,-0.0914,-2.8954,1962
21,-0.2371,0.1587,-0.145,-0.4059,-0.2377,-3.0981,2059
21,-0.2881,0.1267,-0.2046,-0.3964,-0.2453,-3.293,2026
21,-0.3818,0.0723,-0.249,-0.298,-0.208,-3.3067,2026
21,-0.5186,0.0466,-0.2109,-0.1646,-0.084,-3.1823,2051
21,-0.7122,0.0073,-0.1946,-0.1089,0.0015,-3.093,2059
21,-0.7849,-0.0642,-0.1702,-0.0394,0.0105,-2.9219,2034
21,-0.6833,-0.0579,-0.1877,-0.1678,0.0483,-2.4867,2038
21,-0.6399,-0.0864,-0.1907,-0.3196,0.0562,-1.8377,2089
21,-0.7229,-0.1121,-0.2493,-0.416,-0.2258,-1.1484,1927
21,-0.822,-0.2065,-0.1599,-1.1465,-0.4573,-0.8167,2088
21,-1.0696,0.1106,-0.2439,-1.7759,-0.4653,-0.7992,1997
21,-0.5723,-0.5674,-1.8738,-3.3729,-0.649,-0.5426,1733
21,-2.0,0.9475,-2.0,-3.3266,-2.4931,-3.2772,2215
21,-2.0,0.5696,-0.8259,0.0314,3.0605,4.3634,2804
21,-0.8582,-1.4243,-0.2141,3.3798,-1.3001,-1.1328,1694
21,1.9999,-2.0,1.9999,1.953,-4.3635,-4.3635,2916
21,-2.0,-2.0,1.3101,-1.3259,4.3634,-2.7972,1423
21,-1.241,-2.0,0.9194,1.3735,-3.1746,1.9319,1727
21,0.4788,-1.4014,-0.3826,-0.3974,-1.5735,4.2698,2038
21,-0.3093,0.0081,-0.3054,0.3686,2.5353,2.5705,1854
