Timestamp,Ax,Ay,Az,Rx,Ry,Rz,EMG
0,-0.5032,-0.4636,-0.521,-0.665,-1.012,1.6759,2059
0,-0.5435,-0.3662,-0.5044,-0.6613,-0.9401,1.5876,1994
0,-0.8459,-0.4924,-0.4839,-0.5727,-0.8857,1.244,2070
0,-0.7852,-0.4419,-0.5261,-0.5683,-0.6445,1.1524,2073
0,-0.738,-0.4204,-0.5125,-0.6232,-0.3362,0.9632,2065
0,-0.9941,-0.2585,-0.446,-0.632,-0.2975,0.9391,2071
0,-0.9419,-0.1165,-0.5906,-0.6815,-0.0947,0.8562,2058
0,-1.0325,-0.0417,-0.5425,-0.7951,-0.0085,0.7034,2058
0,-0.8081,-0.0032,-0.5852,-0.759,-0.0939,0.7042,2040
0,-0.6902,0.0046,-0.5315,-0.6786,-0.1396,0.6445,2138
0,-0.8191,0.2683,-0.5813,-0.2256,-0.3153,0.596,2067
0,-0.9424,0.3457,-0.6484,-0.2867,-0.7546,0.3904,2100
0,-0.856,0.0164,-0.8259,-0.3131,-1.332,0.3171,2052
0,-0.6836,-0.4106,-0.7551,-0.5444,-1.6863,0.3876,2053
0,-0.6985,-0.4434,-0.7422,-0.691,-1.9999,0.3804,2047
0,-0.7629,-0.3462,-0.7222,-0.7891,-2.247,0.2334,2052
0,-0.8186,-0.3684,-0.7788,-0.8096,-2.4531,0.0902,2049
0,-0.8611,-0.3215,-0.7517,-0.7227,-2.494,-0.0799,2059
0,-0.8918,-0.2148,-0.6619,-0.5497,-2.4582,-0.1915,2062
0,-0.8442,-0.3433,-0.5801,-0.4802,-2.6653,-0.1172,2055
0,-0.8232,-0.4092,-0.5769,-0.3727,-2.8376,-0.1446,2049
0,-0.7954,-0.6951,-0.4028,-0.1942,-2.9885,-0.0696,2056
0,-0.6829,-0.9702,-0.3247,-0.1041,-3.1604,0.0514,2051
0,-0.6553,-1.0828,-0.2537,-0.061,-2.757,0.1321,2072
0,-0.6846,-1.0256,-0.2288,-0.0003,-2.0196,0.0979,2046
0,-0.6943,-1.0042,-0.2739,0.2329,-1.5515,-0.1731,2033
0,-0.4978,-1.1594,-0.2898,0.1847,-1.33,-0.5874,2058
0,-0.2368,-1.3477,-0.5444,-0.257,-1.1066,-0.8236,2056
0,-0.0984,-1.2666,-0.7661,-0.1911,-0.819,-0.753,2053
0,-0.158,-0.8213,-0.7446,0.0546,-0.803,-0.5967,2063
0,-0.387,-0.3862,-0.5579,0.2534,-1.0226,-0.5955,2047
0,-0.6482,-0.2351,-0.45,0.1954,-1.2944,-0.6263,2036
0,-0.6562,-0.2839,-0.3979,-0.1009,-1.6639,-0.8638,2039
0,-0.5151,-0.4084,-0.3401,-0.1519,-1.6462,-1.1022,2052
0,-0.4468,-0.4858,-0.2778,0.0099,-1.4404,-1.1967,2050
0,-0.366,-0.675,-0.2122,0.2316,-1.3509,-1.1231,2051
0,-0.3823,-0.8442,-0.1379,0.2759,-1.1834,-0.9841,2049
0,-0.4641,-0.7837,-0.1187,0.0751,-0.8485,-0.946,2048
0,-0.4543,-0.6936,-0.0288,-0.0735,-0.7104,-0.9528,2042
0,-0.3792,-0.6245,-0.031,-0.1619,-0.508,-1.0408,2052
0,-0.3486,-0.594,-0.072,-0.1248,-0.3915,-1.1336,2042
0,-0.3613,-0.6326,-0.2363,-0.189,-0.2151,-1.1351,2048
0,-0.4463,-0.6492,-0.4153,-0.2663,-0.0493,-1.1552,2043
0,-0.4431,-0.6172,-0.4836,-0.1831,0.079,-1.1641,2049
0,-0.3699,-0.584,-0.4375,-0.0429,0.2444,-1.1405,2042
0,-0.2693,-0.5781,-0.417,0.0174,0.4248,-1.1066,2045
0,-0.2078,-0.5786,-0.4614,0.1,0.7585,-1.1417,2051
0,-0.1445,-0.5938,-0.4866,0.1405,1.0112,-1.272,2050
0,-0.0847,-0.6157,-0.5869,0.1381,1.29,-1.4306,2049
0,-0.113,-0.6467,-0.7153,0.108,1.4495,-1.5378,2049
0,-0.2085,-0.6848,-0.8059,0.088,1.6069,-1.5913,2046
0,-0.2769,-0.699,-0.7397,0.1635,1.4865,-1.611,2045
0,-0.2356,-0.7346,-0.6086,0.2057,1.5089,-1.6482,2048
0,-0.1514,-0.7886,-0.5129,0.2884,1.7157,-1.7478,2045
0,-0.0334,-0.8955,-0.4558,0.3828,2.0136,-1.9005,2058
0,0.0217,-0.9854,-0.5164,0.541,2.367,-2.0678,2060
0,-0.1328,-1.1187,-0.6345,0.6233,2.735,-2.184,2052
0,-0.4001,-1.1169,-0.7622,0.6409,3.0963,-2.1682,2040
0,-0.5825,-0.9453,-0.9482,0.5944,3.2997,-2.1892,2046
0,-0.5776,-0.8921,-0.9937,0.4533,3.0034,-2.4133,2044
0,-0.4556,-0.9727,-0.8362,0.4123,2.167,-2.6979,2048
0,-0.28,-1.1008,-0.5889,0.5343,0.7427,-3.1495,2052
0,-0.2512,-1.1313,-0.5229,1.1503,-0.0527,-3.4765,2049
0,-0.4832,-1.3325,-0.5798,1.3214,-0.2224,-3.8257,2070
0,-0.8892,-1.4016,-0.5991,1.1459,0.045,-3.9953,2032
0,-1.1909,-1.3098,-0.3738,0.7686,0.1871,-4.0295,2034
0,-1.1494,-1.0715,-0.2974,0.3426,0.9628,-3.9607,2036
0,-0.9163,-0.7275,-0.5186,0.4169,1.4307,-3.9924,2046
0,-0.7744,-0.6467,-0.6111,0.7245,1.4553,-3.9037,2075
0,-0.645,-0.6855,-0.7356,1.1893,0.9726,-3.7669,2045
0,-0.509,-0.8281,-0.6655,1.2069,0.0474,-3.8576,1990
0,-0.521,-0.8613,-0.4885,1.0318,-0.5163,-3.9197,2036
0,-0.5327,-0.8962,-0.3979,0.9626,-0.3244,-3.9094,2037
0,-0.521,-0.8855,-0.1135,0.461,0.0313,-4.107,2013
0,-0.0991,-0.9854,0.1484,-0.0031,0.5062,-4.0736,2124
0,0.479,-1.0728,0.1589,-0.191,0.8252,-4.1156,2099
0,1.1289,-1.3855,0.4419,-0.3232,0.61,-3.8551,2224
0,1.553,-1.8486,1.8828,0.6285,0.0403,-2.7634,2091
0,-2.0,-2.0,0.3372,1.1003,4.0267,0.864,2065
0,-2.0,-2.0,1.084,-2.4791,2.0273,4.3634,1998
1,-2.0,-2.0,1.585,-3.9884,4.3634,4.3634,1695
1,1.9932,0.4641,-1.7815,-2.9891,4.3634,2.6354,2332
1,1.9999,0.7375,-1.3962,-2.061,3.219,2.0925,2122
1,1.1277,0.6843,-1.4792,-2.0594,0.1876,0.8745,2061
1,0.8901,0.3904,-0.3354,-2.1084,-0.5661,2.4471,1951
1,-0.1692,-0.3757,-0.48,-1.3912,-0.3421,2.4691,2035
1,-0.4268,-0.7217,-0.7529,-1.0979,-0.1932,2.3997,2075
1,-0.3726,-0.7954,-1.0547,-1.0405,-0.2954,2.9079,2037
1,-0.1833,-0.7629,-0.9431,-1.0353,-0.2943,2.3253,2038
1,-0.2229,-0.4805,-0.6814,-0.9331,-0.454,2.0073,2122
1,-0.3821,-0.3408,-0.512,-0.9254,-0.712,1.8411,2001
1,-0.3657,-0.5725,-0.4783,-1.0963,-0.8973,1.7701,2010
1,-0.3765,-0.7576,-0.4871,-1.256,-1.0789,1.8931,2131
1,-0.3652,-0.8667,-0.5671,-1.3286,-1.1211,1.9355,2102
1,-0.3889,-0.7883,-0.7822,-1.322,-1.0018,1.7892,2069
1,-0.4185,-0.749,-0.7444,-1.2639,-0.9596,1.864,2106
1,-0.4402,-0.7737,-0.6704,-1.2254,-0.9565,2.0347,2029
1,-0.4595,-0.8975,-0.55,-1.1312,-0.9797,2.0678,2017
1,-0.4673,-0.959,-0.5361,-1.0939,-0.9662,2.0407,2083
1,-0.469,-0.8848,-0.593,-1.0525,-0.9428,1.9374,1943
1,-0.4502,-0.8008,-0.5759,-1.0244,-0.8885,1.918,2047
1,-0.3828,-0.7314,-0.6414,-0.9376,-0.9289,1.9188,2078
1,-0.3589,-0.75,-0.6675,-0.8989,-0.9425,1.8611,2125
1,-0.385,-0.7424,-0.627,-0.8234,-0.9383,1.8487,2037
1,-0.4299,-0.7131,-0.6133,-0.7877,-1.0124,1.7522,1976
1,-0.4719,-0.6672,-0.5542,-0.7514,-0.9616,1.7535,1997
1,-0.522,-0.6746,-0.5552,-0.7553,-0.8477,1.7753,2011
1,-0.4539,-0.6602,-0.6763,-0.7329,-0.9713,1.7636,2066
1,-0.4014,-0.5701,-0.7234,-0.7072,-1.0092,1.7532,2057
1,-0.3665,-0.5244,-0.6643,-0.7019,-1.2404,1.8172,1959
1,-0.3728,-0.5447,-0.6956,-0.6445,-1.3458,1.7455,2063
1,-0.3699,-0.5986,-0.7283,-0.6442,-1.4444,1.7143,2083
1,-0.4287,-0.5674,-0.6804,-0.7197,-1.3575,1.6205,2024
1,-0.4624,-0.4724,-0.698,-0.7612,-1.2828,1.5211,2049
1,-0.4409,-0.2056,-0.6477,-0.6233,-1.1856,1.5261,2032
1,-0.5342,0.0178,-0.7134,-0.5568,-1.0389,1.5395,1969
1,-0.562,0.0813,-0.7202,-0.6002,-0.9923,1.5853,2037
1,-0.5032,-0.082,-0.8054,-0.5526,-1.1694,1.5462,2042
1,-0.5383,-0.3057,-0.833,-0.3824,-1.3224,1.4258,2029
1,-0.4712,-0.4302,-0.8962,-0.3803,-1.3966,1.3276,2058
1,-0.4082,-0.4612,-0.8831,-0.3651,-1.6014,1.1902,2066
1,-0.4565,-0.4065,-0.7251,-0.4042,-1.7893,1.1102,2050
1,-0.4893,-0.3845,-0.7422,-0.363,-1.7153,1.0234,2052
1,-0.593,-0.3855,-0.8618,-0.3056,-1.5853,0.9325,2062
1,-0.6782,-0.4429,-0.9446,-0.314,-1.5559,0.8083,2048
1,-0.6567,-0.4805,-0.9209,-0.3278,-1.4231,0.7207,2049
1,-0.5134,-0.6782,-0.8462,-0.5231,-1.2793,0.6656,2059
1,-0.4548,-0.9136,-0.8123,-0.702,-1.1672,0.5498,2050
1,-0.2749,-0.8999,-0.6719,-0.8779,-1.2665,0.5907,2066
1,-0.1624,-0.6914,-0.6653,-0.6806,-1.3707,0.4288,2057
1,-0.2026,-0.6914,-0.6892,-0.6235,-1.4451,0.2005,2033
1,-0.28,-0.646,-0.7373,-0.5996,-1.3596,0.2213,2052
1,-0.3572,-0.4465,-0.7747,-0.5565,-1.1567,0.2068,2046
1,-0.4443,-0.2407,-0.8069,-0.5285,-1.033,0.1728,2042
1,-0.4761,0.0686,-0.8611,-0.382,-1.0653,-0.0533,2044
1,-0.5693,0.3176,-0.9229,-0.0944,-0.9865,0.0241,2047
1,-0.7236,0.5442,-0.9048,0.4022,-0.7158,0.1784,2055
1,-0.925,0.5269,-0.813,0.8855,-0.3931,0.3489,2072
1,-1.0024,0.2024,-0.6562,1.2706,-0.0963,0.33,2052
1,-0.9211,-0.1604,-0.5144,1.5784,-0.1896,0.0871,2032
1,-0.5771,-0.4038,-0.3799,1.7972,-0.3121,-0.1514,2046
1,-0.5059,-0.5552,-0.3484,1.7504,-0.3075,-0.1819,2056
1,-0.6428,-0.7229,-0.2454,1.8065,-0.434,-0.2839,2053
1,-0.6877,-0.9402,-0.1726,1.7946,-0.5948,-0.4625,2055
1,-0.6401,-1.1936,-0.1008,1.4243,-0.7947,-0.6891,2051
1,-0.5764,-1.2102,-0.0598,1.0367,-0.8979,-0.916,2055
1,-0.4932,-1.0466,-0.0845,0.5498,-0.8649,-1.0067,2052
1,-0.407,-0.7847,-0.1545,0.422,-0.7769,-0.9405,2052
1,-0.3772,-0.5388,-0.2197,0.5268,-0.6554,-0.932,2054
1,-0.3645,-0.3831,-0.3428,0.8195,-0.3629,-1.0519,2042
1,-0.3628,-0.4048,-0.3835,0.9808,-0.0961,-1.2315,2051
1,-0.3926,-0.5356,-0.4419,1.0469,0.1979,-1.3352,2051
1,-0.3242,-0.7598,-0.4119,0.9313,0.1639,-1.266,2036
1,-0.2498,-0.8374,-0.3611,0.9151,-0.01,-1.1953,2051
1,-0.2087,-0.814,-0.2676,0.9846,-0.1437,-1.1797,2057
1,-0.2598,-0.8213,-0.1448,1.1316,-0.2529,-1.0883,2049
1,-0.3711,-0.8313,-0.0798,1.2717,-0.0964,-1.2384,2050
1,-0.5134,-0.8892,-0.0139,1.2352,0.4356,-1.3579,2048
1,-0.6313,-0.9541,-0.0505,1.1332,0.9883,-1.4275,2042
1,-0.6243,-1.0298,-0.0793,1.012,1.2561,-1.5474,2055
1,-0.4561,-1.1038,-0.1738,0.9529,1.4772,-1.6853,2053
1,-0.2759,-1.1604,-0.2932,0.9761,1.802,-1.7487,2059
1,-0.1492,-1.2158,-0.4624,0.9188,2.067,-1.8165,2046
1,-0.1704,-1.1887,-0.5962,0.9067,2.09,-1.8528,2044
1,-0.2532,-1.1016,-0.624,0.8923,1.8506,-2.0522,2048
1,-0.2871,-0.9885,-0.5564,0.922,1.4777,-2.3373,2052
1,-0.2488,-0.8823,-0.3984,0.9419,1.1577,-2.6739,2049
1,-0.228,-0.8931,-0.3506,0.9624,0.8345,-2.981,2044
1,-0.2886,-0.9578,-0.3872,1.0806,0.5456,-3.1933,2045
1,-0.4297,-1.01,-0.4341,1.0575,0.3201,-3.3657,2047
1,-0.5999,-1.0493,-0.4836,0.925,0.2051,-3.6282,2036
1,-0.6348,-1.0703,-0.4656,0.8368,0.0891,-3.8507,2050
1,-0.7168,-1.0979,-0.4963,0.7662,0.0302,-4.0217,2051
1,-0.9072,-1.0479,-0.6577,0.7965,0.3424,-4.1038,2050
1,-1.1309,-0.9392,-0.646,0.7166,0.5426,-4.1162,2069
1,-1.2595,-0.8401,-0.6401,0.8646,0.6156,-4.0819,2038
1,-1.3333,-0.6699,-0.5505,1.0444,0.6016,-3.9651,2049
1,-1.3948,-0.5146,-0.5278,1.001,0.4711,-3.8985,2040
1,-1.532,-0.4167,-0.4673,1.109,0.2745,-3.9688,2047
1,-1.6133,-0.376,-0.3892,1.119,-0.1171,-3.9924,2046
1,-1.6433,-0.3206,-0.709,1.4829,-0.4365,-4.0042,2053
1,-1.7441,-0.543,-0.7908,1.868,-0.4493,-3.9189,2032
1,-1.8713,-0.6133,-0.0598,2.1489,-0.702,-2.0827,2013
1,0.134,-0.4229,-0.0195,0.4361,0.8261,-4.023,1978
1,1.689,-0.8447,-0.8894,0.0824,2.2905,-4.3635,1729
1,1.9999,-1.2961,-0.8335,-0.0535,0.0266,-3.558,2028
1,1.9999,-1.9084,0.1887,1.3181,-1.721,-3.6904,2233
1,-2.0,-2.0,1.9999,1.7227,3.9415,4.1158,2223
1,-2.0,-1.6367,-0.8186,-4.3373,1.9173,1.9546,2279
1,-2.0,-2.0,1.9999,-3.5123,1.902,4.3634,2189
1,-0.1477,-2.0,-0.3418,-4.3635,4.3634,4.3634,1879
1,1.9999,-0.1497,-1.0955,-3.6796,1.8647,0.9724,2043
1,0.8337,1.4448,-1.176,-3.3432,-0.42,1.0053,1968
1,-0.0056,1.8293,-1.4475,-2.6757,-0.6371,1.3913,2264
1,-0.2417,0.3318,-1.2769,-2.3617,-0.2304,2.3875,2088
1,-0.2761,-0.749,-1.2483,-2.0077,-0.283,2.0518,2044
1,-0.4883,-0.907,-1.0708,-1.7997,-0.5504,2.4727,2104
1,-0.7949,-0.854,-0.6816,-1.7306,-1.0033,2.2374,2024
1,-0.678,-0.6943,-0.52,-1.8515,-0.9553,1.9314,2085
1,-0.6826,-0.5635,-0.4363,-1.959,-1.2186,1.666,1949
1,-0.4922,-0.5085,-0.4932,-2.0525,-1.4937,1.6701,2105
1,-0.2859,-0.4873,-0.5339,-2.0489,-1.5247,2.0129,2008
1,-0.2944,-0.6902,-0.6772,-1.9932,-1.5531,2.064,1988
2,-0.1865,-0.8508,-0.8352,-1.841,-1.3239,2.1481,2068
2,-0.2307,-0.8721,-0.8542,-1.6988,-1.015,2.2798,1989
2,-0.344,-0.8333,-0.8562,-1.4936,-0.7857,2.3514,2108
2,-0.3682,-0.8882,-0.6763,-1.3363,-0.614,2.4426,2042
2,-0.4382,-0.936,-0.5669,-1.3183,-0.5709,2.3566,1950
2,-0.4343,-0.9294,-0.4048,-1.3287,-0.767,2.3377,2045
2,-0.4922,-0.7905,-0.4299,-1.2786,-0.9613,2.2807,2056
2,-0.5806,-0.6946,-0.5322,-1.2111,-1.2011,2.2164,2059
2,-0.5945,-0.6738,-0.6609,-1.1573,-1.26,2.1983,2038
2,-0.5815,-0.6384,-0.7178,-1.1331,-1.1371,2.1573,2044
2,-0.4976,-0.5688,-0.74,-1.0604,-1.1046,2.0807,2018
2,-0.4199,-0.5356,-0.7603,-1.0194,-1.1051,2.0132,2048
2,-0.4353,-0.5137,-0.7649,-0.985,-1.2734,1.8919,1984
2,-0.4626,-0.5293,-0.7283,-0.9835,-1.3756,1.8385,2063
2,-0.4851,-0.4841,-0.7346,-1.0037,-1.44,1.7665,2032
2,-0.572,-0.4131,-0.6938,-0.9732,-1.5367,1.6371,2041
2,-0.5513,-0.3611,-0.6833,-0.9746,-1.6222,1.6378,2050
2,-0.5449,-0.3528,-0.6626,-0.9653,-1.6506,1.6556,2054
2,-0.5781,-0.3137,-0.6697,-0.8999,-1.7757,1.6189,2051
2,-0.5789,-0.2668,-0.6902,-0.8851,-1.8098,1.5656,2049
2,-0.5718,-0.157,-0.7249,-0.7994,-1.907,1.489,2050
2,-0.5881,-0.0583,-0.7561,-0.6149,-2.0249,1.4462,2052
2,-0.6182,-0.0251,-0.7874,-0.5401,-2.0917,1.4007,2048
2,-0.6467,-0.0664,-0.8206,-0.5307,-2.1007,1.3242,2054
2,-0.677,-0.1001,-0.8171,-0.5695,-2.0849,1.1818,2053
2,-0.6604,-0.073,-0.7881,-0.6329,-2.0871,1.0312,2055
2,-0.6597,-0.0334,-0.7771,-0.6517,-2.1828,0.9019,2073
2,-0.6113,-0.0115,-0.7727,-0.6299,-2.1101,0.7745,2053
2,-0.5554,-0.0447,-0.7827,-0.6779,-2.0531,0.6281,2053
2,-0.5168,-0.0386,-0.8057,-0.595,-2.0782,0.4334,2049
2,-0.4868,-0.0234,-0.8667,-0.4486,-2.0064,0.2982,2053
2,-0.51,0.0015,-0.8767,-0.3372,-1.9647,0.1096,2044
2,-0.552,0.0571,-0.8264,-0.3302,-1.9887,-0.2898,2046
2,-0.4924,0.054,-0.7908,-0.08,-1.9783,-0.6108,2048
2,-0.4641,0.0518,-0.7856,0.3352,-1.6973,-0.7754,2047
2,-0.4807,-0.0615,-0.7273,0.456,-1.4938,-0.9665,2049
2,-0.4668,-0.1389,-0.6755,0.4454,-1.5732,-1.0126,2047
2,-0.4453,-0.1782,-0.6038,0.5606,-1.6286,-1.0721,2045
2,-0.3723,-0.25,-0.5452,0.8058,-1.6333,-1.2025,2043
2,-0.3899,-0.2253,-0.5632,1.1709,-1.4423,-1.2027,2053
2,-0.3677,-0.3118,-0.4878,1.4665,-1.3591,-1.4472,2063
2,-0.3838,-0.4956,-0.4661,1.5681,-1.2971,-1.5764,2068
2,-0.4136,-0.793,-0.4805,1.9757,-1.5358,-1.5934,2047
2,-0.5801,-1.2786,-0.5535,2.3542,-1.0849,-0.7799,2039
2,-1.1501,-1.2793,-0.6125,2.2554,0.3432,1.0629,2032
2,-1.748,-0.866,-0.1885,2.2253,0.2165,1.6266,2023
2,-1.5481,-0.5784,0.3643,2.2739,-0.1169,0.9473,2039
2,-0.8113,-0.5327,0.3872,1.7442,1.2777,-0.0495,2055
2,-0.5364,-0.4731,-0.0264,0.9387,2.5693,-0.4489,2049
2,-0.5261,-0.4443,-0.248,0.8592,2.4851,-0.4904,2019
2,-0.4373,-0.5137,-0.1252,1.1268,1.5805,-0.398,2025
2,-0.3625,-0.7183,-0.0933,1.0658,0.4117,-0.4585,2058
2,-0.3384,-0.7954,-0.2341,1.0005,-0.5787,-0.64,2065
2,-0.4392,-0.7524,-0.2771,0.9036,-1.1323,-0.8087,2057
2,-0.6062,-0.6802,-0.092,0.7737,-1.248,-0.8677,2049
2,-0.5208,-0.7312,0.0793,0.3781,-1.2806,-0.9801,2053
2,-0.2664,-0.6782,0.0349,0.2353,-0.9919,-1.0854,2053
2,-0.0483,-0.6479,-0.075,0.2547,-0.5829,-1.0243,2054
2,-0.0642,-0.6187,-0.2317,0.4031,-0.0285,-0.9495,2055
2,-0.1589,-0.6084,-0.3694,0.7126,0.2579,-0.9495,2050
2,-0.3123,-0.7021,-0.3645,0.9151,0.4189,-0.9882,2045
2,-0.4089,-0.8022,-0.2866,0.8767,0.5287,-0.9897,2044
2,-0.4729,-0.8428,-0.2212,0.8469,0.681,-1.0098,2056
2,-0.5042,-0.8386,-0.1545,0.8102,0.7693,-1.1063,2057
2,-0.4585,-0.8481,-0.1604,0.7851,0.8429,-1.2816,2057
2,-0.4531,-0.9106,-0.1267,0.7606,0.8985,-1.4841,2049
2,-0.4341,-0.9546,-0.1067,0.6417,0.9738,-1.6603,2055
2,-0.4089,-0.9207,-0.1362,0.6087,1.1456,-1.7342,2047
2,-0.3601,-0.8838,-0.2654,0.6602,1.4632,-1.7978,2045
2,-0.2869,-0.8994,-0.3547,0.7557,1.8401,-1.8823,2052
2,-0.1099,-1.012,-0.4541,0.7886,2.1798,-2.0302,2042
2,0.0098,-1.1597,-0.5713,0.8152,2.4776,-2.2011,2083
2,-0.0312,-1.1812,-0.5886,0.9696,2.6747,-2.3581,2031
2,-0.1187,-1.1785,-0.6672,0.9958,2.4364,-2.4396,2034
2,-0.3015,-1.1321,-0.8186,1.0449,2.0327,-2.8449,2037
2,-0.3911,-1.0977,-0.7385,0.9333,1.2018,-3.2798,2056
2,-0.3342,-1.0222,-0.5542,0.7606,0.2791,-3.6548,2071
2,-0.3779,-1.0168,-0.5496,0.7774,0.1368,-3.8952,2057
2,-0.4973,-1.0833,-0.5601,0.8849,0.1583,-4.1374,2065
2,-0.7449,-1.1533,-0.51,1.0495,0.2727,-4.2855,2064
2,-1.248,-1.2354,-0.5269,0.9621,0.3786,-4.2626,2040
2,-1.6196,-1.2246,-0.2156,0.9971,0.2261,-3.9712,2029
2,-1.6909,-1.1404,-0.3223,0.8361,0.872,-3.7483,2032
2,-1.6362,-1.0928,-0.4446,0.903,1.1523,-3.5696,2008
2,-1.7097,-1.0146,-0.4517,1.0039,0.8588,-3.6561,1982
2,-1.8882,-0.8589,-0.5127,0.9543,0.9953,-3.7266,2104
2,-2.0,-0.4885,-0.5066,0.7801,1.6287,-3.3065,2042
2,-1.7935,-0.1572,-0.3823,0.8363,1.7843,-2.8083,1982
2,-1.1426,-0.1123,-0.2163,0.6538,1.3784,-2.7565,2023
2,-0.3718,-0.1575,-0.2451,0.5482,0.3385,-2.9158,2155
2,0.3738,-0.2056,-0.364,0.3983,-1.0167,-2.8956,2099
2,0.5745,-0.501,-0.4695,0.8652,-1.3113,-3.1428,2055
2,0.5186,-1.4158,-0.2612,0.6811,-0.8099,-3.2548,2028
2,1.2317,-2.0,0.0508,0.2641,0.1245,-3.0698,1934
2,1.9999,-2.0,1.7498,0.4896,-0.0522,-2.0201,2237
2,-1.5413,-2.0,0.9932,1.0279,1.4904,0.9688,2405
2,-2.0,-2.0,1.9999,-2.412,0.8,4.3634,1920
2,-2.0,-2.0,1.9016,-4.3635,4.1901,4.3634,1694
2,0.1179,0.5107,-0.1086,-3.6215,4.3634,3.3693,2114
2,0.8245,0.5886,-1.2764,-4.0949,4.3634,-0.2209,2115
2,1.7083,1.2051,-1.5183,-2.5324,1.6318,1.387,2057
2,1.0317,1.6555,-1.4573,-2.7175,0.7284,2.8317,2283
2,-0.2361,0.6731,-1.104,-2.3197,-0.9501,3.0136,1999
2,-0.4463,-0.2415,-1.0181,-1.5336,-0.337,3.0853,1920
2,-0.4624,-0.739,-1.0083,-1.1605,-0.6275,3.0947,2131
3,-0.8459,-1.0137,-0.6638,-1.3999,-0.6236,3.4328,2121
3,-1.0879,-0.8647,-0.6729,-1.6467,-0.5677,2.443,2162
3,-0.8198,-0.5747,-0.5879,-1.9591,-1.0178,2.4633,2054
3,-0.7004,-0.4001,-0.6335,-2.1097,-1.4065,2.6061,2057
3,-0.4258,-0.3955,-0.7122,-2.2627,-1.6518,2.516,2110
3,-0.2825,-0.5137,-0.8154,-2.3667,-1.8378,2.4968,2062
3,-0.2371,-0.6399,-0.8999,-2.3329,-1.7366,2.5408,2068
3,-0.3069,-0.6794,-0.8503,-2.2999,-1.4291,2.4791,2029
3,-0.2854,-0.7412,-0.7766,-2.184,-1.3599,2.4926,1966
3,-0.2727,-0.8752,-0.7314,-2.0837,-1.1749,2.4791,2062
3,-0.3547,-0.9832,-0.6575,-1.9995,-1.2263,2.3622,2024
3,-0.4023,-0.9641,-0.5779,-1.8724,-1.3266,2.2832,2082
3,-0.4412,-0.8428,-0.551,-1.7426,-1.4278,2.1756,1987
3,-0.4634,-0.7788,-0.551,-1.6227,-1.4404,2.0829,2025
3,-0.4463,-0.749,-0.5757,-1.4657,-1.3818,1.9224,2071
3,-0.4299,-0.7434,-0.6372,-1.3019,-1.292,1.7338,2052
3,-0.4272,-0.6631,-0.6653,-1.1781,-1.2043,1.5496,2007
3,-0.4534,-0.6094,-0.6609,-1.0439,-1.2113,1.5081,2027
3,-0.4124,-0.5178,-0.6467,-0.967,-1.2416,1.433,2054
3,-0.4146,-0.3916,-0.6184,-0.8875,-1.2753,1.3163,2030
3,-0.4639,-0.3142,-0.6497,-0.7942,-1.4985,1.2613,2052
3,-0.5039,-0.291,-0.6104,-0.7669,-1.6313,1.2724,2040
3,-0.575,-0.2097,-0.5649,-0.7873,-1.6902,1.209,2048
3,-0.6362,-0.1309,-0.5486,-0.8245,-1.6639,1.1685,2044
3,-0.6472,-0.0674,-0.6094,-0.7726,-1.6671,1.1224,2056
3,-0.6292,-0.0581,-0.634,-0.6906,-1.6709,1.0965,2051
3,-0.6313,-0.0679,-0.7002,-0.6114,-1.6215,1.0432,2051
3,-0.7036,-0.0811,-0.7659,-0.6233,-1.5974,1.0298,2055
3,-0.6931,-0.0435,-0.7549,-0.428,-1.5504,1.0242,2054
3,-0.7046,-0.0105,-0.7771,-0.4228,-1.5952,1.0049,2039
3,-0.7285,0.0029,-0.7708,-0.4489,-1.6823,0.9582,2055
3,-0.698,0.0115,-0.823,-0.5442,-1.6648,0.9521,2047
3,-0.7021,0.0085,-0.8665,-0.5213,-1.5435,0.91,2055
3,-0.7163,-0.0322,-0.8162,-0.6016,-1.3948,0.855,2048
3,-0.6992,-0.0889,-0.7986,-0.7392,-1.1793,0.8042,2057
3,-0.6675,-0.1223,-0.8066,-0.8479,-0.9954,0.8123,2046
3,-0.6677,-0.0962,-0.8083,-0.865,-0.8846,0.8504,2040
3,-0.6187,-0.04,-0.8284,-0.8095,-0.7536,0.8985,2053
3,-0.5645,0.0208,-0.8103,-0.6679,-0.6132,0.8734,2033
3,-0.561,0.0913,-0.7673,-0.4586,-0.5556,0.6731,2116
3,-0.4963,0.1516,-0.708,-0.2051,-0.5903,0.3896,2108
3,-0.4634,0.1843,-0.6387,0.2518,-0.6769,0.1031,2019
3,-0.3931,0.1509,-0.5627,0.787,-0.9021,-0.3346,2018
3,-0.3167,-0.0176,-0.4998,1.1388,-1.1704,-0.4798,2033
3,-0.3428,-0.0693,-0.5161,1.4065,-1.3175,-0.6853,2044
3,-0.4243,-0.0852,-0.5459,1.7132,-1.4589,-0.9819,2053
3,-0.4722,-0.29,-0.6157,2.0208,-1.5085,-1.1728,2056
3,-0.4819,-0.636,-0.6025,2.225,-1.517,-1.2697,2050
3,-0.5825,-0.8987,-0.479,2.1747,-1.319,-1.0685,2035
3,-0.6912,-1.1316,-0.3149,2.0197,-1.4498,-0.6702,1999
3,-0.8545,-1.1287,-0.2976,1.7404,-1.5763,-0.0559,1907
3,-1.1819,-0.7881,-0.4705,1.2339,-0.9439,0.0839,1923
3,-1.2495,-0.4634,-0.3977,1.3055,-0.2673,-0.2043,2029
3,-1.082,-0.5024,-0.0996,1.1689,0.0374,-0.3956,2020
3,-0.8801,-0.575,-0.0649,0.9195,0.3986,-0.6777,2118
3,-0.6619,-0.7317,-0.2183,0.6881,0.5465,-0.72,2026
3,-0.4937,-0.7566,-0.2339,0.6437,0.2963,-0.6734,2147
3,-0.3611,-0.6733,-0.1882,0.6847,-0.0527,-0.577,2075
3,-0.3699,-0.6152,-0.1743,0.7597,-0.3251,-0.5662,2078
3,-0.5171,-0.5923,-0.2156,0.7689,-0.3585,-0.6751,2063
3,-0.6619,-0.6482,-0.1921,0.6857,-0.4369,-0.8256,2060
3,-0.5925,-0.7312,-0.0718,0.4006,-0.6841,-0.9861,2078
3,-0.4004,-0.7847,-0.092,-0.108,-0.7216,-1.1003,2057
3,-0.1421,-0.7095,-0.2285,-0.3051,-0.6514,-1.2501,2052
3,-0.0325,-0.561,-0.3713,-0.1529,-0.3615,-1.339,2055
3,-0.1021,-0.4255,-0.4355,0.2051,-0.3217,-1.3834,2057
3,-0.2546,-0.4067,-0.4238,0.4586,-0.3734,-1.4019,2059
3,-0.3479,-0.5217,-0.4014,0.5414,-0.3349,-1.3517,2047
3,-0.4822,-0.6196,-0.3584,0.5859,-0.187,-1.293,2036
3,-0.5664,-0.6929,-0.3408,0.6175,0.0656,-1.4003,2045
3,-0.5884,-0.6997,-0.3257,0.7016,0.3563,-1.4589,2046
3,-0.7024,-0.7341,-0.292,0.6826,0.5706,-1.5137,2049
3,-0.7424,-0.698,-0.2717,0.62,0.6814,-1.5932,2053
3,-0.7285,-0.6792,-0.2664,0.6119,0.8277,-1.6964,2055
3,-0.6548,-0.6838,-0.2393,0.5504,0.9059,-1.7309,2048
3,-0.531,-0.6826,-0.2417,0.5825,1.0288,-1.7646,2055
3,-0.4624,-0.7156,-0.2603,0.5726,1.1316,-1.7369,2051
3,-0.4446,-0.7493,-0.3225,0.6625,1.1665,-1.733,2065
3,-0.4932,-0.7747,-0.4109,0.8152,1.2356,-1.7958,2053
3,-0.5439,-0.8188,-0.4321,0.8312,1.2563,-1.9064,2042
3,-0.5383,-0.8931,-0.4719,0.7171,1.2718,-2.0517,2050
3,-0.4316,-0.9026,-0.5425,0.6353,1.3114,-2.0666,2060
3,-0.3975,-0.8484,-0.7827,0.7911,1.5233,-2.0819,2047
3,-0.4697,-0.759,-0.8813,1.0284,1.6458,-2.3092,2045
3,-0.5764,-0.8079,-0.842,0.963,1.5459,-2.4816,2049
3,-0.6055,-0.8174,-0.8367,0.9717,1.281,-2.5944,2061
3,-0.6174,-0.7993,-0.634,1.1206,1.013,-2.7811,2037
3,-0.5125,-0.9446,-0.5974,0.9633,0.8817,-2.9918,2059
3,-0.4595,-1.0994,-0.4832,0.903,0.3281,-3.1857,2051
3,-0.4407,-1.1929,-0.4185,0.8305,-0.4325,-3.4497,2032
3,-0.5439,-1.2749,-0.5059,0.655,-1.011,-3.7004,2037
3,-0.7708,-1.272,-0.5396,0.4743,-1.3623,-3.9881,2053
3,-1.0466,-1.1956,-0.5254,0.4192,-1.1006,-4.178,2035
3,-1.1943,-1.1313,-0.5342,0.5731,-0.3545,-4.1575,2049
3,-1.1511,-0.9939,-0.3215,0.7577,0.229,-3.9307,2038
3,-0.9519,-0.9026,-0.2781,0.7633,0.6783,-3.9014,2062
3,-0.7939,-0.9565,-0.0911,0.6396,0.6622,-3.8906,2052
3,-0.6169,-0.9495,0.0073,0.4091,0.2244,-3.7645,2067
3,-0.4902,-0.8923,0.0383,0.3852,-0.4131,-3.68,2063
3,-0.5996,-0.823,-0.0078,0.287,-0.7457,-3.5476,2066
3,-0.8274,-0.7515,-0.0815,0.2468,-0.7284,-3.4262,2056
3,-0.8318,-0.6973,-0.2249,0.1036,-0.122,-3.4196,2032
4,-0.5359,-0.686,-0.3364,0.3105,0.7227,-3.3192,1997
4,-0.2087,-0.9841,-0.4607,0.3994,1.9619,-3.0283,2032
4,0.3435,-1.74,-0.4436,-0.1389,2.3425,-2.9468,2049
4,1.9999,-2.0,1.9999,1.2697,1.3728,-2.7524,2223
4,-1.1182,-2.0,1.2117,2.5875,3.4933,0.3781,2360
4,-2.0,-2.0,1.9999,-2.164,0.7397,4.3634,1727
4,-2.0,-2.0,1.155,-4.3635,3.2417,4.3634,1660
4,-0.0566,0.2209,0.2212,-2.5683,4.3634,2.0056,2223
4,0.5056,1.0454,-0.5745,-3.9992,4.3634,0.1197,2263
4,0.7166,1.7888,-1.5364,-2.9079,0.8087,0.5376,2186
4,1.9999,1.3225,-1.0798,-1.9113,0.2727,3.2018,2108
4,0.7429,0.3984,-0.6362,-1.7728,-1.2814,3.6155,2071
4,-0.7061,-0.2441,-0.9241,-0.98,-1.9445,3.224,1980
4,-0.9546,-0.7312,-1.0149,-0.6925,-0.7464,2.806,1981
4,-1.0796,-1.1614,-0.7297,-0.8758,-0.6379,2.7055,2058
4,-0.865,-1.1682,-0.4033,-1.1055,-0.2649,2.6964,2123
4,-0.6792,-0.7766,-0.3323,-1.3011,-0.6592,2.8847,2002
4,-0.7039,-0.5957,-0.3909,-1.5261,-1.0043,2.7273,2080
4,-0.5642,-0.6426,-0.5591,-1.7017,-1.2134,2.6269,2020
4,-0.4729,-0.7473,-0.7485,-1.8174,-1.292,2.7839,2118
4,-0.3674,-0.7029,-0.7798,-1.8554,-1.2604,2.7189,2075
4,-0.3071,-0.6892,-0.7781,-1.8206,-1.1158,2.6998,2170
4,-0.23,-0.8081,-0.6843,-1.7985,-1.0805,2.6896,2041
4,-0.282,-0.926,-0.625,-1.798,-1.1403,2.6314,2079
4,-0.4438,-0.9277,-0.5752,-1.8174,-1.1793,2.5746,2056
4,-0.5344,-0.8855,-0.5227,-1.8069,-1.2805,2.5165,2124
4,-0.5718,-0.8735,-0.4956,-1.8094,-1.3119,2.4001,2077
4,-0.5337,-0.8772,-0.5361,-1.7988,-1.2463,2.3186,2055
4,-0.5129,-0.8433,-0.5972,-1.7191,-1.1652,2.1666,2064
4,-0.5061,-0.8223,-0.6401,-1.678,-1.0444,2.0648,2086
4,-0.509,-0.7605,-0.5964,-1.5627,-0.9638,2.01,2079
4,-0.5271,-0.6697,-0.5771,-1.4921,-0.9734,1.9353,2027
4,-0.511,-0.5994,-0.5425,-1.442,-1.0256,1.8728,2045
4,-0.48,-0.5759,-0.4995,-1.427,-1.0789,1.8176,2058
4,-0.5117,-0.5391,-0.5115,-1.3501,-1.0701,1.7839,2179
4,-0.572,-0.4724,-0.5093,-1.3097,-1.056,1.6242,1986
4,-0.5649,-0.4167,-0.519,-1.2336,-1.1087,1.5499,2058
4,-0.5549,-0.3362,-0.4968,-1.1804,-1.0812,1.4476,2066
4,-0.5776,-0.2793,-0.4805,-1.1696,-1.1342,1.3565,2044
4,-0.6409,-0.1975,-0.4873,-1.1563,-1.1601,1.2587,2029
4,-0.6377,-0.125,-0.4722,-1.1038,-1.2326,1.2399,2050
4,-0.6853,-0.0942,-0.4429,-1.0585,-1.3141,1.2512,2047
4,-0.7058,-0.0818,-0.449,-1.0228,-1.3872,1.207,2017
4,-0.752,-0.0298,-0.5186,-0.8677,-1.3131,1.1368,2037
4,-0.7869,-0.0298,-0.564,-0.8789,-1.1156,1.1081,2057
4,-0.7744,-0.0122,-0.625,-0.8139,-1.062,1.1034,2058
4,-0.7383,0.0671,-0.6677,-0.718,-1.0019,1.123,2046
4,-0.7473,0.1274,-0.6641,-0.6777,-1.0777,1.1756,2044
4,-0.7561,0.1562,-0.7207,-0.5589,-1.1838,1.1302,2051
4,-0.7744,0.1763,-0.7341,-0.4781,-1.1686,1.0199,2038
4,-0.7627,0.1672,-0.7314,-0.4466,-1.0875,0.8966,2049
4,-0.7815,0.1523,-0.7346,-0.4999,-1.0773,0.75,2062
4,-0.7637,0.2024,-0.6707,-0.3216,-1.0108,0.6179,2035
4,-0.7878,0.1951,-0.696,-0.2862,-1.0184,0.4767,2060
4,-0.7712,0.158,-0.8179,-0.2242,-0.9082,0.2723,2050
4,-0.7068,0.1243,-0.873,-0.125,-0.602,0.1768,2047
4,-0.6887,0.1072,-0.8667,0.0298,-0.2541,0.1788,2041
4,-0.6362,0.0842,-0.7649,0.1071,-0.1947,0.0823,2044
4,-0.5696,0.0781,-0.7471,0.2196,-0.3096,-0.0196,2037
4,-0.521,0.085,-0.708,0.4055,-0.4975,-0.1557,2042
4,-0.449,0.0037,-0.7258,0.6055,-0.8156,-0.2838,2048
4,-0.438,-0.0115,-0.699,0.6855,-1.1073,-0.3666,2058
4,-0.4905,0.0396,-0.6538,0.7047,-1.2798,-0.7174,2062
4,-0.5432,-0.0178,-0.6921,0.8838,-1.375,-0.961,2055
4,-0.5747,-0.2021,-0.6831,1.0842,-1.2182,-1.022,2052
4,-0.5674,-0.3125,-0.6558,1.0541,-0.8027,-0.9305,2051
4,-0.5759,-0.2888,-0.5837,0.9692,-0.4528,-0.7902,2053
4,-0.5559,-0.2166,-0.5342,1.164,-0.2725,-0.8487,2052
4,-0.4905,-0.2378,-0.4429,1.4391,-0.3169,-0.9299,2050
4,-0.3691,-0.4651,-0.3154,1.5961,-0.4717,-1.0634,2055
4,-0.2222,-0.8,-0.2556,1.5122,-0.7915,-1.1611,2050
4,-0.3623,-1.3845,-0.1157,1.8973,-1.1276,-1.2914,2045
4,-0.4849,-1.771,-0.1064,1.8474,-0.9013,-0.2582,2057
4,-1.1672,-1.3684,-0.3267,1.0753,-0.0419,0.961,2054
4,-1.4595,-0.6365,-0.322,0.5275,-0.2265,0.5464,2049
4,-1.2551,-0.3462,-0.0354,0.8164,0.1629,-0.3962,2040
4,-0.6921,-0.386,0.1536,0.8147,1.1136,-0.9622,2056
4,-0.458,-0.4395,-0.1897,0.5066,1.2861,-1.1548,2049
4,-0.3477,-0.3752,-0.5562,0.5203,1.3073,-1.1892,2051
4,-0.4351,-0.396,-0.512,0.7391,0.9998,-1.1339,2046
4,-0.4067,-0.457,-0.4153,0.7773,0.1362,-1.0935,2037
4,-0.3257,-0.5271,-0.4675,0.9175,-0.3486,-1.0867,2041
4,-0.3445,-0.5615,-0.5088,1.0706,-0.4819,-1.2071,2039
4,-0.438,-0.6633,-0.4644,0.9857,-0.3715,-1.2742,2041
4,-0.5286,-0.7646,-0.429,0.8084,-0.2839,-1.3649,2054
4,-0.6235,-0.8472,-0.2695,0.6,-0.3681,-1.4779,2047
4,-0.5378,-0.7849,-0.0557,0.4591,-0.4418,-1.5367,2048
4,-0.4414,-0.6482,-0.0803,0.453,-0.2224,-1.5181,2055
4,-0.3872,-0.4778,-0.23,0.5593,0.198,-1.5966,2052
4,-0.3909,-0.4866,-0.3623,0.7339,0.5529,-1.6631,2046
4,-0.5305,-0.6536,-0.4216,0.7729,0.6468,-1.6382,2058
4,-0.574,-0.7917,-0.4526,0.7407,0.5781,-1.5953,2048
4,-0.6116,-0.866,-0.4185,0.7255,0.3898,-1.5664,2051
4,-0.5986,-0.8423,-0.3801,0.7476,0.3151,-1.682,2045
4,-0.5569,-0.8159,-0.4084,0.823,0.3543,-1.7735,2044
4,-0.5359,-0.8313,-0.4546,0.853,0.5702,-1.8318,2046
4,-0.5737,-0.8645,-0.4785,0.8381,0.8914,-1.8708,2047
4,-0.5698,-0.8838,-0.469,0.8504,1.1102,-1.8785,2053
4,-0.5388,-0.9048,-0.4783,0.853,1.3223,-1.9073,2046
4,-0.4561,-0.9326,-0.4741,0.7128,1.4323,-1.9242,2052
4,-0.406,-0.9019,-0.6982,0.5145,1.5767,-1.9715,2052
5,-0.3337,-0.8892,-0.8052,0.4594,1.6828,-1.9443,2052
5,-0.3147,-0.8259,-0.8489,0.4504,1.6711,-2.021,2061
5,-0.3208,-0.7849,-0.8972,0.5199,1.6125,-2.2138,2049
5,-0.3672,-0.7344,-0.9175,0.7554,1.6636,-2.3743,2066
5,-0.4724,-0.6687,-0.9614,0.9055,1.9156,-2.596,2081
5,-0.5178,-0.6768,-0.8047,0.9136,1.8527,-2.824,2029
5,-0.3643,-0.7019,-0.7942,0.9516,1.5186,-3.0514,2052
5,-0.1577,-0.9924,-0.7654,1.1543,1.0706,-3.3821,2070
5,-0.0977,-1.2839,-0.7012,1.1826,0.061,-3.703,2034
5,-0.3726,-1.4937,-0.6936,1.1619,-0.4532,-4.0871,2030
5,-0.8184,-1.3923,-0.5581,0.8103,-0.2135,-4.3635,2062
5,-1.0039,-1.2346,-0.731,0.675,0.1557,-4.0913,2019
5,-1.1899,-0.95,-0.4958,0.6669,-0.0273,-4.0715,2050
5,-1.1797,-0.8391,-0.5369,0.6889,0.1545,-3.8855,2021
5,-1.0432,-0.8618,-0.3706,0.6036,0.1052,-3.7486,2046
5,-1.0225,-0.9905,-0.4583,0.5168,-0.3457,-3.6193,2045
5,-1.2158,-1.0,-0.2017,0.3586,-1.0147,-3.4657,2045
5,-1.324,-0.8333,0.0569,0.1313,-1.2037,-3.1917,2030
5,-1.3149,-0.4778,0.0718,0.1229,-0.339,-2.9224,2021
5,-0.9719,-0.335,0.0186,0.3265,0.9802,-2.7741,2036
5,-0.0586,-0.7566,-0.2351,0.2045,1.2934,-3.0115,2064
5,1.3489,-0.7971,-0.6167,0.3104,1.4362,-2.9268,2032
5,1.3994,-2.0,1.5005,2.2578,-0.1771,-2.1802,2187
5,-2.0,-2.0,0.03,0.5581,0.9654,4.3634,2078
5,-2.0,-2.0,1.9999,-4.3635,-0.2975,4.3634,1643
5,-1.2856,-0.8193,-0.4792,-3.4625,4.3634,1.9532,2170
5,-0.0679,1.3086,-0.7332,-3.5015,4.3634,-0.1963,2207
5,0.2607,1.6775,-1.1545,-1.5379,1.8515,0.5576,2118
5,1.9999,0.939,-1.0288,-1.9194,1.2294,2.8414,2090
5,0.8367,0.4019,-0.949,-1.8534,-0.8582,3.0283,2122
5,-0.199,-0.3303,-0.5764,-1.2507,-1.5452,3.2345,2094
5,-0.5442,-0.5071,-0.8967,-0.932,-1.0684,2.745,2127
5,-0.9094,-0.8064,-0.7109,-0.9158,-0.6381,2.7078,1980
5,-0.916,-1.0371,-0.4817,-0.9646,-0.4844,2.8753,2055
5,-0.5737,-0.8147,-0.4924,-0.9899,-0.7585,2.801,2156
5,-0.5305,-0.5315,-0.4631,-1.0848,-0.8427,2.9622,1963
5,-0.7092,-0.5435,-0.4944,-1.1894,-1.0702,2.8189,2054
5,-0.6575,-0.6833,-0.5015,-1.382,-1.207,2.8039,2112
5,-0.4539,-0.7432,-0.5195,-1.4442,-1.3284,2.7888,2020
5,-0.4092,-0.6899,-0.6243,-1.4833,-1.2561,2.6771,2072
5,-0.4292,-0.6982,-0.6018,-1.5339,-1.3155,2.6409,2043
5,-0.3699,-0.7646,-0.5962,-1.5308,-1.4095,2.6581,2143
5,-0.3652,-0.8274,-0.6021,-1.5146,-1.3924,2.479,1952
5,-0.4114,-0.885,-0.5791,-1.5134,-1.5372,2.379,2060
5,-0.4209,-0.926,-0.5547,-1.4922,-1.5281,2.2941,2105
5,-0.4561,-0.9082,-0.6064,-1.4323,-1.4249,2.2209,1975
5,-0.4844,-0.8318,-0.595,-1.3617,-1.4147,2.1309,1977
5,-0.4402,-0.8142,-0.561,-1.3699,-1.3179,2.0628,2116
5,-0.4539,-0.7996,-0.5596,-1.3351,-1.1563,1.9915,1988
5,-0.5042,-0.7578,-0.5801,-1.2856,-1.0886,1.9611,2114
5,-0.4841,-0.7,-0.5701,-1.3045,-0.9339,1.9683,2057
5,-0.4109,-0.6321,-0.6084,-1.2629,-0.8565,2.0024,2216
5,-0.501,-0.5662,-0.5952,-1.219,-0.7602,1.9001,2053
5,-0.5386,-0.5378,-0.5796,-1.2054,-0.749,1.9257,1969
5,-0.5442,-0.4895,-0.5591,-1.1492,-0.6992,1.8963,2051
5,-0.5989,-0.4221,-0.5811,-1.1155,-0.7265,1.8066,2034
5,-0.5894,-0.3857,-0.583,-1.0606,-0.7501,1.7355,2073
5,-0.6575,-0.3616,-0.5217,-1.0672,-0.7886,1.6025,1996
5,-0.6917,-0.3193,-0.4932,-1.0583,-0.7357,1.5115,2019
5,-0.7183,-0.1904,-0.4634,-1.0182,-0.6833,1.5141,2020
5,-0.7664,-0.1094,-0.4639,-0.9851,-0.6944,1.3802,2111
5,-0.8716,-0.1504,-0.4917,-0.903,-0.7837,1.1939,1938
5,-0.8457,-0.2092,-0.533,-0.9369,-0.8954,1.0479,2114
5,-0.7146,-0.2056,-0.5105,-0.8987,-0.8147,1.0017,2015
5,-0.7502,-0.1558,-0.5996,-0.8834,-0.8319,0.8825,2122
5,-0.7585,-0.1191,-0.5889,-0.8689,-0.8239,0.8199,2069
5,-0.8018,-0.0869,-0.552,-0.7777,-0.8907,0.7961,2026
5,-0.8213,-0.1265,-0.5891,-0.6879,-1.0034,0.6879,2031
5,-0.7798,-0.105,-0.5662,-0.6035,-1.0604,0.569,2062
5,-0.6875,-0.0845,-0.5391,-0.5504,-1.1101,0.5486,2123
5,-0.7166,-0.0234,-0.5444,-0.5195,-1.1579,0.4071,2047
5,-0.7156,-0.0425,-0.5422,-0.5068,-1.2569,0.3585,2057
5,-0.6575,-0.1287,-0.5662,-0.5273,-1.2422,0.3176,2071
5,-0.6682,-0.1018,-0.5298,-0.4685,-1.272,0.2223,2052
5,-0.6914,0.0688,-0.5415,-0.3068,-1.1987,0.1732,2036
5,-0.7229,0.1321,-0.5662,-0.2802,-1.0975,0.112,2064
5,-0.7659,0.1284,-0.5547,-0.2246,-0.9556,0.1001,2038
5,-0.7878,0.1724,-0.6201,-0.1619,-0.9164,0.1103,2043
5,-0.7312,0.2261,-0.7026,-0.0635,-0.9415,0.1071,2041
5,-0.6274,0.1858,-0.688,-0.1561,-0.9891,0.131,2054
5,-0.5398,0.0725,-0.6841,-0.2381,-1.0373,0.1566,2053
5,-0.5415,0.0217,-0.6536,-0.2963,-1.1461,0.1133,2064
5,-0.5742,0.0117,-0.6858,-0.3509,-1.3496,0.0133,2053
5,-0.668,0.0063,-0.7278,-0.3579,-1.4151,-0.0119,2047
5,-0.7725,-0.0605,-0.6531,-0.4408,-1.3611,0.0598,2052
5,-0.8472,-0.0505,-0.637,-0.3754,-1.1744,0.1232,2049
5,-0.9006,0.0068,-0.5986,-0.2145,-0.9838,0.2075,2061
5,-0.9136,0.0518,-0.5574,-0.0445,-0.7987,0.2763,2047
5,-0.9297,0.082,-0.6008,0.0457,-0.5657,0.3992,2059
5,-0.9534,0.1021,-0.5806,0.1182,-0.5643,0.4922,2050
5,-0.9685,0.1321,-0.5667,0.1958,-0.5144,0.6251,2052
5,-0.9565,0.2329,-0.5146,0.3,-0.4428,0.6508,2043
5,-0.9314,0.355,-0.5083,0.5014,-0.3635,0.563,2054
5,-0.9475,0.3503,-0.4893,0.8088,-0.1738,0.3721,2058
5,-0.915,0.313,-0.4839,0.9965,-0.0471,0.1329,2055
5,-0.8623,0.3171,-0.4597,1.0597,0.0483,-0.1099,2036
5,-0.7844,0.4004,-0.4561,1.1529,0.0297,-0.6456,2040
5,-0.6614,0.3687,-0.4561,1.5665,-0.0558,-0.8003,2043
5,-0.5789,0.0874,-0.4209,2.0751,-0.0759,-0.8661,2043
5,-0.5371,-0.3433,-0.3887,1.9868,-0.0425,-1.0809,2053
5,-0.4312,-0.9478,-0.5139,1.8413,-0.4213,-1.1031,2058
5,-0.3682,-1.2866,-0.7036,1.372,-0.852,-0.9063,2055
5,-0.5542,-1.1516,-0.6821,0.8925,-0.554,-0.5718,2072
5,-0.77,-0.7939,-0.3667,1.14,-0.0827,-0.5183,2080
6,-0.6553,-0.7283,0.074,1.2062,-0.1919,-0.9377,2045
6,-0.2642,-0.8018,0.1692,0.9582,-0.3161,-1.3274,2040
6,-0.0576,-0.833,-0.0706,0.8479,0.0455,-1.5924,2051
6,-0.054,-0.7373,-0.3083,0.9223,0.6809,-1.7715,2054
6,-0.1541,-0.48,-0.4175,1.1118,0.918,-1.7274,2047
6,-0.3174,-0.1819,-0.4207,1.2228,0.6152,-1.7903,2041
6,-0.4233,-0.1677,-0.4426,1.3114,0.2256,-1.6909,2046
6,-0.6189,-0.2761,-0.5115,1.2758,-0.1595,-1.5599,2033
6,-0.8369,-0.3877,-0.5527,1.1854,-0.2599,-1.4965,2051
6,-0.9707,-0.4653,-0.552,1.1889,0.0129,-1.4798,2033
6,-0.9622,-0.4758,-0.3337,0.9951,0.3887,-1.625,2038
6,-0.7302,-0.4934,-0.1445,0.6548,0.907,-1.7315,2044
6,-0.5151,-0.5083,-0.0544,0.5524,1.2716,-1.656,2046
6,-0.3586,-0.5173,-0.1074,0.5618,1.5482,-1.6607,2045
6,-0.2869,-0.5122,-0.21,0.7433,1.5667,-1.7896,2046
6,-0.2996,-0.6152,-0.2754,1.0156,1.5376,-1.9443,2052
6,-0.2656,-0.7832,-0.231,1.0897,1.3352,-2.1369,2044
6,-0.2131,-0.9399,-0.2781,1.1331,1.2175,-2.257,2044
6,-0.2163,-1.0627,-0.3804,1.0003,1.1561,-2.2839,2052
6,-0.304,-1.1514,-0.6587,0.8453,1.3082,-2.1401,2059
6,-0.4668,-1.1418,-0.8967,0.9765,1.9398,-2.0011,2051
6,-0.5706,-1.1201,-1.0161,1.0336,2.5717,-2.059,2045
6,-0.5537,-0.9709,-1.1467,1.213,3.0618,-2.1383,2073
6,-0.4543,-0.7319,-1.2063,1.4276,3.4858,-2.2755,2037
6,-0.4172,-0.6157,-1.1252,1.8234,3.6376,-2.3739,2031
6,-0.3684,-0.8555,-0.7158,2.1056,3.2859,-2.5388,2055
6,-0.1638,-1.1218,-0.2961,2.2867,2.8593,-2.6287,2058
6,0.0049,-1.3113,-0.1924,2.4365,2.8406,-2.5033,2054
6,-0.0435,-1.4409,-0.1416,2.5233,2.9046,-2.4807,2058
6,-0.166,-1.5239,-0.1721,2.429,2.9042,-2.8992,2053
6,-0.3477,-1.5322,-0.2812,2.1538,2.686,-3.3825,2058
6,-0.5796,-1.4963,-0.4067,2.0521,2.1069,-3.8179,2055
6,-0.6433,-1.5164,-0.5444,2.0286,1.4974,-4.3206,2046
6,-0.6833,-1.4353,-0.7573,1.8656,1.2118,-4.3635,2049
6,-0.8467,-1.3269,-0.9368,1.7831,0.9447,-4.3635,2064
6,-1.0466,-1.2,-0.9341,1.6094,0.267,-4.3635,2023
6,-1.301,-0.9971,-1.1177,1.4533,-0.3814,-4.3635,2032
6,-1.4915,-0.8435,-0.9407,1.2362,-1.2505,-4.3635,2026
6,-1.7864,-0.49,-1.2134,1.7729,-1.2908,-4.3635,2042
6,-2.0,-0.4441,-0.936,2.045,-0.5361,-4.0354,2033
6,-1.6777,-0.4871,-0.5325,1.4725,-0.0116,-3.0622,2011
6,-0.7529,-0.6392,-0.2534,0.8678,0.0509,-3.4515,2111
6,-0.3105,-0.4255,-0.6611,0.5946,0.4454,-3.8435,2050
6,0.3027,-0.4561,1.8916,-0.1678,-1.173,-3.3154,2133
6,-1.6091,-2.0,0.6912,1.6965,1.3846,0.3532,2083
6,-2.0,-2.0,1.4211,-1.7852,-2.4614,4.3634,1748
6,-2.0,-2.0,0.6877,-4.3635,1.7523,4.3634,1827
6,0.075,0.4856,-0.7014,-3.2172,4.3634,1.8263,2305
6,0.822,1.5247,-0.376,-3.9398,4.3634,0.3621,2380
6,0.9575,1.2432,-1.7561,-2.5803,1.5898,-0.3887,2234
6,1.9999,0.1204,-1.6604,-2.0347,-0.136,2.6876,2158
6,1.3433,-0.1099,-1.4626,-1.9651,-1.535,3.4864,2101
6,-0.5283,-0.3401,-0.6011,-1.5756,-1.5888,3.3481,2062
6,-0.9355,-0.6797,-0.8958,-1.2215,-0.8854,3.4387,2007
6,-1.186,-1.1768,-0.6956,-1.3533,-0.0526,3.6348,2064
6,-1.198,-1.3088,-0.6562,-1.5175,0.3289,3.3377,2069
6,-0.7356,-0.9319,-0.5178,-1.7294,0.1667,3.1919,2125
6,-0.4438,-0.5359,-0.4541,-1.8996,-0.0427,3.1464,2071
6,-0.3176,-0.4937,-0.4854,-1.9064,-0.4067,3.0674,2143
6,-0.2498,-0.6943,-0.6343,-1.9623,-0.7036,2.7453,2086
6,-0.1741,-0.8274,-0.7312,-1.9631,-0.8673,2.5294,1988
6,-0.1726,-0.7927,-0.6819,-1.9466,-1.0537,2.4574,2052
6,-0.2278,-0.7097,-0.6545,-1.9261,-1.0259,2.367,2087
6,-0.3533,-0.7205,-0.5852,-1.937,-1.0383,2.2189,2010
6,-0.3218,-0.781,-0.5906,-1.9224,-1.0867,2.1214,2017
6,-0.2896,-0.7856,-0.6443,-1.8897,-1.1419,2.0865,2105
6,-0.4172,-0.7346,-0.6406,-1.861,-1.2186,1.9025,2125
6,-0.4651,-0.6626,-0.635,-1.8049,-1.3475,1.8522,2068
6,-0.5076,-0.6328,-0.6257,-1.7692,-1.2307,1.78,1934
6,-0.5132,-0.6643,-0.6409,-1.6992,-1.187,1.7143,2066
6,-0.4924,-0.6873,-0.6963,-1.6213,-1.1378,1.6396,2175
6,-0.5347,-0.6433,-0.6882,-1.6157,-0.9865,1.5697,2022
6,-0.5815,-0.5559,-0.7258,-1.5579,-0.9324,1.5079,2069
6,-0.5864,-0.5051,-0.6875,-1.5426,-0.9158,1.4845,2145
6,-0.5454,-0.5193,-0.6252,-1.5243,-0.9857,1.5121,2094
6,-0.6011,-0.5266,-0.6274,-1.5189,-1.011,1.4527,2060
6,-0.592,-0.4502,-0.6343,-1.4356,-1.1258,1.4209,2029
6,-0.5884,-0.4099,-0.7188,-1.3296,-1.1983,1.4003,2007
6,-0.5913,-0.3843,-0.6682,-1.264,-1.1919,1.3151,2030
6,-0.6279,-0.3406,-0.5554,-1.1678,-1.3057,1.2423,2065
6,-0.6162,-0.2717,-0.5581,-1.1188,-1.2758,1.2797,2164
6,-0.6511,-0.2354,-0.5508,-1.0587,-1.3455,1.283,2086
6,-0.6321,-0.2107,-0.5662,-0.9835,-1.3517,1.1905,2013
6,-0.5977,-0.1919,-0.5706,-0.9139,-1.3639,1.1533,2042
6,-0.6218,-0.1353,-0.6301,-0.8203,-1.3399,1.0649,2044
6,-0.5884,-0.0579,-0.6658,-0.7308,-1.3161,0.9777,2082
6,-0.5713,-0.002,-0.6958,-0.6541,-1.2893,0.8825,2053
6,-0.5547,0.0193,-0.7827,-0.5574,-1.2898,0.809,2075
6,-0.5393,0.0203,-0.7478,-0.4257,-1.2532,0.6894,2068
6,-0.5557,0.0371,-0.7212,-0.2966,-1.1959,0.5761,2062
6,-0.5728,0.0203,-0.7283,-0.2196,-1.1362,0.4398,2050
6,-0.5193,-0.0168,-0.7432,-0.2021,-1.1816,0.324,2053
6,-0.4861,-0.0796,-0.7407,-0.1816,-1.2905,0.2131,2058
6,-0.4861,-0.115,-0.7874,-0.1844,-1.3913,0.1249,2036
6,-0.52,-0.1792,-0.8098,-0.3009,-1.4137,0.1043,2052
6,-0.5432,-0.176,-0.7715,-0.365,-1.3872,0.1218,2046
6,-0.564,-0.2107,-0.7793,-0.5735,-1.3894,0.0868,2049
6,-0.5415,-0.2493,-0.8274,-0.7498,-1.3912,0.0795,2047
6,-0.5366,-0.2612,-0.8376,-0.7789,-1.3483,0.0899,2051
6,-0.5759,-0.1777,-0.7776,-0.8349,-1.2714,0.0123,2043
6,-0.5586,-0.0251,-0.7891,-0.802,-1.1315,-0.1107,2054
7,-0.5317,0.0452,-0.8052,-0.6913,-1.0419,-0.0727,2054
7,-0.551,0.0947,-0.7717,-0.5188,-1.0231,-0.1052,2050
7,-0.5337,0.1313,-0.7317,-0.2846,-1.0642,-0.1124,2055
7,-0.5022,0.1616,-0.6982,0.0438,-1.0978,-0.1421,2057
7,-0.53,0.1946,-0.626,0.4046,-1.044,-0.2211,2054
7,-0.4988,0.105,-0.5732,0.7371,-1.0692,-0.2101,2047
7,-0.5427,-0.0217,-0.582,1.074,-1.0206,-0.31,2045
7,-0.6133,-0.1841,-0.5518,1.2768,-1.0162,-0.4039,2050
7,-0.6741,-0.3044,-0.5388,1.4549,-0.9264,-0.4946,2073
7,-0.7781,-0.3159,-0.4458,1.5516,-0.7914,-0.3908,2120
7,-0.9136,-0.4023,-0.3953,1.6126,-0.8738,-0.4209,2018
7,-0.9114,-0.5076,-0.3645,1.5998,-0.8283,-0.5112,2018
7,-0.8921,-0.5527,-0.3428,1.4788,-0.4536,-0.6594,2034
7,-0.8323,-0.5474,-0.2864,1.3149,-0.1617,-0.7962,2034
7,-0.7361,-0.5703,-0.3442,0.9638,0.065,-0.9553,2040
7,-0.6309,-0.5632,-0.4734,0.6592,0.172,-1.0552,2048
7,-0.5679,-0.5029,-0.5081,0.5951,-0.0642,-1.0923,2051
7,-0.5769,-0.4395,-0.4866,0.6934,-0.4295,-1.1292,2045
7,-0.6394,-0.3811,-0.4485,0.8108,-0.7308,-1.201,2056
7,-0.6721,-0.3481,-0.3816,0.9978,-0.7612,-1.1998,2057
7,-0.6802,-0.3716,-0.2627,1.0852,-0.7488,-1.1567,2052
7,-0.6184,-0.3755,-0.1743,1.0421,-0.6476,-1.187,2051
7,-0.4958,-0.3958,-0.1255,0.9036,-0.4679,-1.1698,2039
7,-0.3601,-0.4248,-0.1475,0.8874,-0.24,-1.1091,2044
7,-0.2981,-0.4641,-0.2646,0.8897,-0.041,-1.0519,2048
7,-0.3167,-0.4211,-0.3586,1.0375,0.155,-1.0757,2045
7,-0.3633,-0.4272,-0.3994,1.2061,0.2922,-1.1091,2053
7,-0.4546,-0.4644,-0.4385,1.218,0.2808,-1.0761,2048
7,-0.5369,-0.4592,-0.4707,1.2307,0.2376,-1.1218,2041
7,-0.5576,-0.4666,-0.4202,1.1702,0.3462,-1.2134,2049
7,-0.5442,-0.4714,-0.292,1.1806,0.3832,-1.2368,2047
7,-0.4912,-0.5083,-0.2175,1.3243,0.4297,-1.2207,2059
7,-0.4697,-0.5925,-0.2639,1.3352,0.581,-1.2525,2056
7,-0.5142,-0.6492,-0.3293,1.3082,0.6866,-1.3398,2054
7,-0.5754,-0.751,-0.3875,1.2619,0.768,-1.4415,2044
7,-0.6221,-0.8274,-0.4026,1.173,0.876,-1.4668,2047
7,-0.6277,-0.8472,-0.4348,1.1575,0.9597,-1.4335,2048
7,-0.5793,-0.802,-0.4497,1.2276,1.1339,-1.4547,2043
7,-0.4666,-0.7949,-0.491,1.252,1.5185,-1.5876,2052
7,-0.406,-0.8667,-0.5676,1.2547,1.8241,-1.705,2049
7,-0.4006,-0.9187,-0.6787,1.3379,1.961,-1.7857,2053
7,-0.449,-0.926,-0.7817,1.3778,1.9173,-1.8551,2033
7,-0.5112,-0.8911,-0.8289,1.3288,1.9592,-2.0817,2045
7,-0.5383,-0.8003,-0.7803,1.2933,1.8347,-2.3137,2045
7,-0.4751,-0.7339,-0.5024,1.4122,1.3306,-2.5783,2063
7,-0.2212,-0.854,-0.3459,1.5881,0.8957,-2.8907,2053
7,-0.0735,-1.0298,-0.3496,1.803,0.5416,-3.3166,2050
7,-0.0889,-1.2388,-0.3989,1.9046,0.2003,-3.6912,2068
7,-0.2861,-1.4014,-0.4563,1.9595,-0.0771,-3.9705,2051
7,-0.5374,-1.4666,-0.4658,2.0194,-0.2991,-4.2133,2044
7,-0.6687,-1.4678,-0.4634,1.9302,0.1526,-4.3635,2028
7,-0.7639,-1.4688,-0.2534,1.3197,0.4481,-4.3635,2042
7,-0.7566,-1.46,-0.3901,0.7187,0.4846,-4.3635,2042
7,-0.821,-1.3157,-0.4927,0.6918,0.0878,-4.3635,2031
7,-1.0642,-1.1394,-0.5571,0.7087,-0.4585,-4.3635,2026
7,-1.176,-0.9858,-0.5608,0.8554,-0.7694,-4.3635,2058
7,-1.1929,-0.9033,-0.5334,0.8618,-1.0228,-4.3635,2021
7,-1.1521,-0.8184,-0.5591,0.7585,-1.2125,-4.1928,2063
7,-1.3838,-0.8386,-0.2759,0.5131,-1.3263,-4.043,2047
7,-1.4563,-0.6343,-0.0928,0.1962,-0.9939,-3.9114,2051
7,-1.5806,-0.5146,0.0874,0.066,0.4979,-3.5701,2033
7,-0.4722,-0.4763,-0.1211,-0.3212,1.1597,-3.756,2039
7,0.2495,-0.4392,-0.5859,-0.6263,1.1963,-3.8843,2004
7,1.4783,-0.0735,1.6846,2.0204,-0.9973,-3.7699,2136
7,-1.7166,-2.0,0.5774,1.6527,1.3335,0.9738,2285
7,-2.0,-2.0,1.9999,-1.4926,1.1814,4.3634,1500
7,-2.0,-2.0,0.9192,-4.3635,3.9707,4.3634,1865
7,-0.3645,0.4397,0.3918,-2.642,4.3634,2.8881,2185
7,1.0435,1.0864,-0.9783,-3.8956,4.3551,0.0149,2215
7,1.4277,1.0012,-0.9685,-3.16,0.4566,0.276,2057
7,1.863,0.7678,-1.1094,-2.1594,-1.3403,2.3451,2159
7,0.4919,0.1243,-0.5483,-2.0821,-2.6117,3.1873,2071
7,-0.801,-0.4448,-0.812,-1.6319,-2.5232,2.9847,2125
7,-1.0544,-0.6814,-1.1978,-1.3681,-1.4189,2.6185,1939
7,-0.9036,-0.9265,-0.9421,-1.4314,-0.6825,2.5394,2080
7,-0.4951,-1.0698,-0.6694,-1.3818,-0.4108,2.8183,1916
7,-0.4199,-0.9043,-0.4524,-1.47,-0.7845,2.9353,1921
7,-0.6174,-0.6711,-0.3188,-1.5351,-0.9684,2.7484,2116
7,-0.5964,-0.6489,-0.4885,-1.6411,-1.0702,2.6316,2127
7,-0.5593,-0.7439,-0.6621,-1.656,-1.2133,2.6666,1995
7,-0.5698,-0.7781,-0.8059,-1.7781,-1.0511,2.6823,2037
7,-0.4026,-0.7024,-0.7878,-1.7751,-1.083,2.6618,2024
7,-0.2175,-0.7202,-0.7205,-1.741,-0.9468,2.6585,2204
7,-0.2297,-0.8372,-0.6917,-1.7157,-0.916,2.5774,2051
7,-0.3115,-0.9197,-0.6687,-1.7149,-0.9367,2.4827,2002
7,-0.4099,-0.8762,-0.6665,-1.6544,-1.0489,2.4747,1783
7,-0.4746,-0.8167,-0.6504,-1.639,-0.9967,2.4366,2189
7,-0.4836,-0.7729,-0.571,-1.639,-1.0359,2.3234,1989
7,-0.4226,-0.7383,-0.5735,-1.6554,-1.046,2.2031,2067
7,-0.4656,-0.6873,-0.5942,-1.5896,-1.0682,2.0905,2003
7,-0.4351,-0.6277,-0.6389,-1.534,-1.0095,2.0775,2015
7,-0.429,-0.5488,-0.6655,-1.4968,-0.8496,2.0283,2029
7,-0.46,-0.5142,-0.7188,-1.4568,-0.8612,1.9779,2073
7,-0.4771,-0.5146,-0.6377,-1.4813,-0.7696,1.9358,1978
7,-0.5303,-0.4814,-0.6233,-1.3874,-0.7271,1.8748,2096
7,-0.5894,-0.4702,-0.6042,-1.3411,-0.6739,1.8138,1984
7,-0.6416,-0.4351,-0.605,-1.2655,-0.7046,1.7492,1992
7,-0.6335,-0.4004,-0.6548,-1.2001,-0.7098,1.7105,2027
7,-0.6809,-0.3396,-0.6797,-1.1419,-0.6477,1.6403,1973
7,-0.7109,-0.2688,-0.6138,-1.0782,-0.6818,1.5387,2032
7,-0.7371,-0.2275,-0.584,-1.0144,-0.8267,1.4591,2049
7,-0.6987,-0.2207,-0.4851,-0.9632,-0.6683,1.4015,2080
8,-0.7957,-0.2498,-0.5171,-0.8861,-0.7641,1.2236,2023
8,-0.8005,-0.2341,-0.5544,-0.8199,-0.7606,1.0151,2065
8,-0.8203,-0.1726,-0.6077,-0.7801,-0.7672,0.9966,1996
8,-0.8096,-0.0476,-0.5757,-0.7403,-0.7766,0.9267,2019
8,-0.7324,0.0234,-0.6294,-0.6505,-0.8999,0.9364,2079
8,-0.626,-0.03,-0.6655,-0.6075,-0.9397,0.9068,2064
8,-0.6492,-0.0327,-0.696,-0.452,-1.0886,0.8998,2027
8,-0.6389,-0.0344,-0.7405,-0.3563,-1.2457,0.871,2055
8,-0.6235,-0.0239,-0.7397,-0.3069,-1.2738,0.7926,2041
8,-0.6428,0.0198,-0.7048,-0.2438,-1.2326,0.7545,2052
8,-0.6621,0.0544,-0.6736,-0.2059,-1.1889,0.6317,2049
8,-0.6558,0.0537,-0.6926,-0.1589,-1.1451,0.501,2059
8,-0.6636,0.0081,-0.6177,-0.2081,-1.0957,0.3691,2034
8,-0.7888,0.0134,-0.5928,-0.1772,-0.9539,0.2734,2047
8,-0.7485,0.0078,-0.655,-0.0931,-1.0103,0.1826,2073
8,-0.554,-0.0203,-0.6687,-0.1104,-1.0215,0.1831,2052
8,-0.4968,-0.0149,-0.585,-0.0664,-1.0943,0.2215,2044
8,-0.5808,0.0237,-0.5955,0.0029,-1.1645,0.1898,2046
8,-0.645,0.0342,-0.6433,-0.069,-1.182,0.0747,2048
8,-0.7046,0.0901,-0.6689,-0.0587,-1.1298,-0.0276,2047
8,-0.7563,0.1143,-0.6875,-0.1212,-1.1127,-0.0779,2054
8,-0.7849,0.1338,-0.645,0.0649,-1.1937,-0.0674,2054
8,-0.8398,0.1157,-0.6021,0.1326,-1.2933,-0.0477,2055
8,-0.8855,0.0989,-0.5823,0.2045,-1.3279,0.0462,2051
8,-0.9153,0.0256,-0.5308,0.1559,-1.1625,0.1659,2053
8,-0.926,-0.01,-0.5627,0.1779,-1.07,0.2049,2051
8,-0.8894,-0.0745,-0.5642,0.036,-0.9148,0.3124,2049
8,-0.8591,-0.0554,-0.5676,-0.068,-0.6602,0.3699,2052
8,-0.8157,0.0432,-0.5217,-0.0527,-0.5743,0.3976,2065
8,-0.7827,0.1443,-0.5454,0.1104,-0.5837,0.3389,2080
8,-0.73,0.1929,-0.5935,0.3618,-0.4809,0.1947,2162
8,-0.6951,0.2043,-0.5906,0.6802,-0.3738,-0.016,2021
8,-0.6384,0.208,-0.5305,0.9586,-0.3562,-0.2627,2009
8,-0.5703,0.208,-0.4751,1.2375,-0.4032,-0.4904,2034
8,-0.5,0.1636,-0.4453,1.5664,-0.4642,-0.6641,2048
8,-0.4666,0.0564,-0.4409,1.7699,-0.534,-0.7969,2048
8,-0.4595,-0.2029,-0.4307,2.0526,-0.5404,-0.923,2041
8,-0.4348,-0.4749,-0.3916,2.2506,-0.6818,-0.9271,2046
8,-0.4561,-0.7344,-0.376,2.0395,-0.8167,-0.8713,2049
8,-0.5044,-0.7563,-0.4399,1.5868,-0.7452,-0.9539,2040
8,-0.4954,-0.6248,-0.4333,1.3489,-0.6108,-1.3727,2050
8,-0.4236,-0.594,-0.2683,1.4235,-0.4757,-1.9439,2040
8,-0.2603,-0.8643,-0.0571,1.5289,-0.5469,-2.075,2040
8,-0.1343,-1.2908,0.0024,1.2504,-0.7929,-1.5615,2051
8,-0.3584,-1.074,-0.2307,0.9107,-0.9392,-1.2278,2066
8,-0.5586,-0.7612,-0.2273,0.8425,-0.6312,-1.2989,2065
8,-0.5007,-0.4109,-0.0332,0.9513,0.1326,-1.8459,2049
8,-0.356,-0.2134,0.1951,1.0765,0.4599,-2.1574,2058
8,-0.365,-0.2202,0.0383,1.0882,0.248,-2.1292,2034
8,-0.5559,-0.3643,-0.2639,0.9345,0.3384,-1.8883,2042
8,-0.6245,-0.3909,-0.3276,0.981,0.5693,-1.8277,2045
8,-0.6577,-0.4517,-0.2529,0.901,0.6188,-1.8215,2051
8,-0.5334,-0.5735,-0.2239,0.8194,0.7526,-1.7793,2030
8,-0.408,-0.6904,-0.2568,0.649,0.9347,-1.699,2052
8,-0.3345,-0.7666,-0.2825,0.4619,1.0206,-1.7065,2043
8,-0.2295,-0.7944,-0.3188,0.4413,1.2592,-1.7667,2049
8,-0.2258,-0.7822,-0.3289,0.4301,1.4829,-1.6574,2051
8,-0.3188,-0.7405,-0.3574,0.5991,1.5386,-1.6114,2048
8,-0.4038,-0.689,-0.4363,0.9373,1.682,-1.7318,2057
8,-0.4939,-0.7466,-0.4858,1.2607,1.8981,-1.8668,2042
8,-0.5828,-0.8989,-0.5369,1.3532,2.1843,-2.1015,2021
8,-0.531,-1.1018,-0.4512,1.1471,2.4939,-2.0628,2041
8,-0.5134,-1.2024,-0.6423,0.9532,2.4306,-1.9481,2061
8,-0.4856,-1.1145,-0.824,0.9047,2.2013,-1.9719,2063
8,-0.606,-0.7808,-0.8726,1.2002,1.9752,-2.0666,2065
8,-0.8179,-0.5964,-0.7415,1.5697,1.8809,-2.1501,2033
8,-0.9092,-0.9119,-0.447,1.5544,1.9213,-2.3653,2047
8,-0.6062,-1.0984,-0.2913,1.6351,1.9273,-2.6097,2032
8,-0.2786,-1.1729,-0.3655,1.7418,2.0929,-2.7606,2057
8,-0.2578,-1.2939,-0.4482,1.8487,2.0579,-2.8099,2043
8,-0.5117,-1.3936,-0.5171,1.8508,1.7121,-3.0392,2054
8,-0.7126,-1.3887,-0.5496,1.7113,1.3073,-3.3278,2037
8,-0.7083,-1.3196,-0.6211,1.5285,1.3127,-3.8247,2032
8,-0.6685,-1.0994,-0.7449,1.6323,1.1781,-4.1008,2048
8,-0.6694,-1.0613,-0.8064,1.649,0.8106,-4.3635,2032
8,-0.6042,-0.9563,-0.8523,1.6824,0.4145,-4.3635,2069
8,-0.7031,-0.8599,-0.9082,1.8799,-0.1216,-4.3635,2045
8,-0.9009,-0.7993,-0.8894,2.1289,-0.4907,-4.3635,2021
8,-0.9924,-0.8743,-0.7617,2.3168,-0.6466,-4.3635,2018
8,-0.8933,-0.9648,-0.5486,2.2234,-0.7458,-4.3635,2021
8,-0.8477,-1.092,-0.5046,2.0908,-0.2068,-4.3635,2055
8,-0.7295,-1.062,-0.3723,1.7913,-0.2698,-4.3326,2047
8,-0.6062,-0.9431,-0.0742,1.3115,-0.2557,-4.2945,2092
8,-0.6643,-0.8501,0.5725,0.8809,0.6943,-3.8107,2020
8,0.1323,-0.9468,-0.0466,0.492,1.8499,-3.4246,2038
8,0.4238,-0.6091,1.6021,2.0262,-1.5905,-2.8179,2228
8,-1.1399,-2.0,1.2097,0.2951,4.3634,1.5392,2190
8,-2.0,-2.0,1.9999,-1.2318,1.6331,4.3634,1648
8,-2.0,-2.0,0.1511,-4.3635,4.3634,4.3634,1746
8,0.4116,0.1558,1.1489,-4.015,4.3634,4.3499,2256
8,1.9999,0.9412,-1.3293,-3.8273,3.9125,-0.4577,2181
8,1.9999,0.7637,-1.6572,-3.1172,-0.1103,-0.1125,2147
8,1.1716,0.6724,-1.6118,-2.3699,-2.8798,1.9061,2095
8,-0.52,0.0352,-1.0139,-2.3376,-3.119,2.954,2104
8,-0.8909,-0.2244,-1.0503,-1.5657,-2.1141,3.3549,2002
8,-0.8254,-0.5986,-0.9941,-1.2833,-0.7867,3.2644,1983
8,-0.8193,-1.1567,-0.7129,-1.4079,-0.3097,2.9799,2019
8,-0.3638,-1.2451,-0.4148,-1.5294,-0.748,2.7954,2002
8,-0.3926,-0.9839,-0.3569,-1.7002,-1.0187,2.7521,2151
8,-0.6909,-0.7454,-0.291,-1.8817,-1.3386,2.6532,1976
8,-0.6042,-0.7209,-0.4971,-1.8989,-1.4801,2.6887,2052
8,-0.5703,-0.7676,-0.7087,-1.9234,-1.4735,2.5643,2028
8,-0.3877,-0.6931,-0.7402,-1.8919,-1.5251,2.4852,2196
8,-0.1926,-0.6455,-0.6614,-1.8066,-1.5312,2.5265,1848
8,-0.1523,-0.7305,-0.5571,-1.7635,-1.5498,2.5651,1963
9,-0.2031,-0.8857,-0.5137,-1.7594,-1.589,2.4854,2119
9,-0.3306,-0.9583,-0.4919,-1.7357,-1.5355,2.3795,1989
9,-0.5176,-0.9043,-0.5396,-1.7026,-1.4877,2.2868,2041
9,-0.4763,-0.8037,-0.5747,-1.6423,-1.4587,2.3133,2123
9,-0.4292,-0.7456,-0.5945,-1.5105,-1.3793,2.2126,2113
9,-0.4033,-0.7122,-0.6343,-1.4404,-1.3202,2.1891,2133
9,-0.3901,-0.6536,-0.6152,-1.382,-1.1994,2.1467,2040
9,-0.4241,-0.572,-0.5767,-1.3038,-1.1098,2.1324,1988
9,-0.5623,-0.5303,-0.5593,-1.2757,-1.0477,1.9819,2049
9,-0.5925,-0.5479,-0.5325,-1.2511,-0.9557,1.9602,1991
9,-0.592,-0.5322,-0.5017,-1.2553,-0.9224,1.9319,2047
9,-0.6409,-0.4551,-0.5327,-1.2571,-0.9066,1.8638,1901
9,-0.6399,-0.4109,-0.593,-1.2429,-0.9576,1.8001,2063
9,-0.6208,-0.4026,-0.5879,-1.1686,-1.0223,1.7572,2049
9,-0.6218,-0.3809,-0.6489,-1.0962,-0.9709,1.7073,2040
9,-0.6411,-0.3931,-0.5598,-1.0776,-0.8681,1.6784,2049
9,-0.6482,-0.3501,-0.5527,-1.031,-0.71,1.6376,2080
9,-0.6296,-0.3142,-0.5303,-0.9886,-0.7231,1.6611,2145
9,-0.6111,-0.2866,-0.5352,-0.9349,-0.6428,1.6508,2080
9,-0.6824,-0.2534,-0.6035,-0.8399,-0.6722,1.5615,2046
9,-0.6877,-0.2463,-0.5745,-0.7708,-0.7486,1.4705,1947
9,-0.5793,-0.2441,-0.5505,-0.7096,-0.8548,1.4191,2050
9,-0.6096,-0.2043,-0.5601,-0.6472,-0.9396,1.3605,2056
9,-0.6165,-0.1506,-0.5166,-0.6193,-1.0356,1.2669,2060
9,-0.6128,-0.1741,-0.5461,-0.6675,-1.1259,1.1938,2012
9,-0.5659,-0.1108,-0.5566,-0.6445,-1.1738,1.0922,2064
9,-0.5984,-0.0796,-0.5891,-0.6064,-1.1625,0.9554,2052
9,-0.5911,-0.0774,-0.6377,-0.6196,-1.1816,0.8443,2053
9,-0.5928,0.0073,-0.5881,-0.4602,-1.1569,0.6905,2048
9,-0.6174,0.0647,-0.532,-0.3361,-1.1521,0.5871,2047
9,-0.7231,0.0723,-0.5889,-0.2934,-0.932,0.4691,2066
9,-0.7192,0.0278,-0.7053,-0.247,-0.9632,0.3509,2079
9,-0.6514,-0.0391,-0.7471,-0.2633,-0.8713,0.224,2121
9,-0.6248,-0.0527,-0.8201,-0.3061,-0.8082,0.0919,2062
9,-0.6421,-0.063,-0.8135,-0.3192,-1.0057,0.0294,2043
9,-0.668,-0.0732,-0.783,-0.384,-1.1074,0.0667,2023
9,-0.6917,-0.1155,-0.8079,-0.4695,-1.1122,0.1069,2036
9,-0.7607,-0.1431,-0.8228,-0.5248,-1.024,0.1903,2032
9,-0.8054,-0.0999,-0.8042,-0.5211,-0.9435,0.2357,2041
9,-0.8281,-0.0156,-0.7192,-0.475,-0.8577,0.2745,2040
9,-0.8455,0.0605,-0.6716,-0.4609,-0.7132,0.2759,2051
9,-0.8015,0.0776,-0.6406,-0.4492,-0.6007,0.2714,2064
9,-0.8096,0.0601,-0.6497,-0.2225,-0.4361,0.2874,2059
9,-0.7935,0.0056,-0.6506,0.0587,-0.2444,0.0438,2050
9,-0.7136,-0.1526,-0.6406,0.2935,-0.1553,0.0373,2048
9,-0.6924,-0.2827,-0.6211,0.4663,-0.0838,0.138,2049
9,-0.6753,-0.2979,-0.5884,0.4876,-0.079,0.074,2046
9,-0.6221,-0.2515,-0.5442,0.579,-0.1486,-0.0493,2050
9,-0.5527,-0.1868,-0.5024,0.7148,-0.2815,-0.0995,2050
9,-0.4993,-0.0747,-0.4641,0.8709,-0.3754,-0.3117,2052
9,-0.4561,-0.0359,-0.4634,1.0528,-0.394,-0.506,2068
9,-0.4492,-0.1345,-0.4541,1.2342,-0.5621,-0.7405,2045
9,-0.4614,-0.3306,-0.4641,1.2553,-0.7327,-0.8692,2034
9,-0.4939,-0.615,-0.4888,1.2026,-0.7215,-0.9433,2067
9,-0.4888,-0.9167,-0.3706,1.1215,-0.9469,-0.932,2028
9,-0.5317,-0.9385,-0.3567,1.105,-0.9965,-0.722,2045
9,-0.6758,-0.677,-0.3625,1.1188,-0.7411,-0.643,2044
9,-0.6926,-0.4409,-0.3257,1.2079,-0.447,-0.9178,2106
9,-0.644,-0.3398,-0.2822,1.2034,-0.1186,-1.2311,2056
9,-0.5781,-0.3347,-0.2615,1.1577,0.1815,-1.4261,2040
9,-0.5278,-0.3582,-0.2678,1.0271,0.2978,-1.5201,2060
9,-0.5076,-0.3291,-0.2771,1.0853,0.1752,-1.4898,2034
9,-0.5071,-0.345,-0.2236,1.2227,-0.0226,-1.4569,2037
9,-0.5146,-0.3933,-0.1606,1.1441,-0.1856,-1.4198,2039
9,-0.5422,-0.3972,-0.1458,1.1258,-0.405,-1.3732,2033
9,-0.5784,-0.4121,-0.1431,1.1721,-0.5187,-1.4111,2045
9,-0.5659,-0.5273,-0.0918,1.082,-0.5541,-1.4488,2042
9,-0.5305,-0.6587,-0.1104,0.8483,-0.386,-1.4581,2042
9,-0.521,-0.7078,-0.1809,0.5691,-0.1522,-1.4701,2047
9,-0.4507,-0.6636,-0.2236,0.5183,0.065,-1.5254,2050
9,-0.3643,-0.5442,-0.252,0.6284,0.2914,-1.5853,2051
9,-0.3298,-0.5347,-0.2852,0.793,0.4975,-1.6142,2054
9,-0.3291,-0.5742,-0.3201,0.8537,0.6441,-1.6099,2054
9,-0.2957,-0.6538,-0.3518,0.8522,0.8006,-1.5227,2053
9,-0.3198,-0.6868,-0.4248,0.9845,1.0664,-1.5006,2054
9,-0.3569,-0.7446,-0.4019,1.0877,1.1868,-1.4701,2062
9,-0.3333,-0.8337,-0.4573,0.9461,1.3278,-1.45,2048
9,-0.3547,-0.9185,-0.5806,0.7273,1.6098,-1.4814,2046
9,-0.4199,-0.9463,-0.6733,0.6992,1.8532,-1.4904,2048
9,-0.4993,-0.8816,-0.7524,0.7672,1.9925,-1.4757,2060
9,-0.5886,-0.7046,-0.7854,0.9512,2.2939,-1.6462,2042
9,-0.6255,-0.4529,-0.7927,1.067,2.5846,-1.835,2044
9,-0.49,-0.4221,-0.5813,1.1708,2.4697,-2.043,2043
9,-0.2498,-0.687,-0.384,1.2463,2.1015,-2.3158,2058
9,0.0439,-0.8914,-0.386,1.5506,1.8407,-2.5907,2032
9,0.1975,-1.094,-0.429,1.8876,1.7257,-2.8115,2060
9,0.1465,-1.2678,-0.5356,2.084,1.635,-2.9803,2052
9,-0.0925,-1.427,-0.5852,2.2514,1.4728,-3.2511,2041
9,-0.2478,-1.4644,-0.5569,2.4493,1.3766,-3.585,2063
9,-0.2839,-1.5159,-0.6511,2.4559,1.5066,-3.9399,2057
9,-0.51,-1.6147,-0.7729,2.3554,1.619,-4.1125,2061
9,-0.7539,-1.5439,-0.7637,2.2872,1.3517,-4.2198,2021
9,-0.9534,-1.3906,-0.6768,2.3288,0.5442,-4.357,2063
9,-1.2544,-1.3608,-0.6921,2.3017,-0.0454,-4.3635,2054
9,-1.6506,-1.3867,-0.7407,2.1258,-0.1842,-4.3635,2031
9,-1.9478,-1.2336,-0.8127,1.8345,0.2224,-4.3635,2054
9,-2.0,-1.0417,-0.6631,1.8789,0.4829,-4.3635,2011
9,-1.842,-0.8557,-0.677,1.6968,0.5237,-4.3635,2044
9,-1.6565,-0.8396,-0.6328,1.3981,0.9483,-4.1367,2059
9,-1.5322,-0.6553,-0.4915,1.2015,0.6644,-3.5659,2086
9,-2.0,-0.4006,-0.3967,1.044,1.1661,-2.4872,1977
10,-2.0,0.0269,-0.0281,1.4837,1.9618,-1.699,1964
10,1.9999,-1.7998,0.2808,1.4597,4.0984,-4.3635,2080
10,-2.0,-2.0,1.9999,2.2602,1.541,4.3634,1942
10,0.5051,-2.0,-0.5618,-3.8131,1.3973,-3.3979,2307
10,-0.5791,-2.0,0.043,-4.3635,4.3634,4.3634,2171
10,-2.0,-2.0,1.4565,-3.8235,-3.7821,4.3634,2085
10,-1.8035,-1.188,-0.0845,-3.1882,-0.0282,0.3306,2065
10,-0.6431,0.4431,-0.9114,-4.1952,0.2914,1.1215,1999
10,-0.1814,0.7004,-1.1426,-3.1485,-0.7136,1.0155,2116
10,0.3276,0.4041,-1.2009,-3.0686,-0.8356,1.7193,2118
10,-0.2131,0.1589,-0.6758,-2.5839,-1.4355,2.7705,2180
10,-0.397,-0.2937,-0.6833,-1.9913,-1.4455,3.6653,2014
10,-0.635,-0.6208,-1.1985,-1.6969,-1.1343,3.0372,2010
10,-0.8286,-1.0039,-1.0842,-1.7479,-0.768,2.8231,2040
10,-0.6101,-1.0352,-0.7607,-1.8186,-0.6432,2.901,2139
10,-0.4695,-0.7422,-0.5554,-1.969,-0.6231,3.0582,2181
10,-0.45,-0.5969,-0.4316,-1.9663,-0.8271,2.7537,2067
10,-0.2993,-0.6982,-0.4836,-2.0572,-1.0733,2.5141,2144
10,-0.1748,-0.7969,-0.5178,-2.1189,-1.4138,2.4803,2141
10,-0.2058,-0.7695,-0.5715,-2.0995,-1.5661,2.3099,2053
10,-0.21,-0.8008,-0.6489,-2.0395,-1.4969,2.1852,1943
10,-0.1892,-0.8665,-0.6936,-1.9145,-1.3664,2.2711,2134
10,-0.176,-0.9084,-0.6689,-1.8607,-1.23,2.2614,1883
10,-0.1243,-0.8916,-0.5989,-1.8361,-1.1548,2.1953,2158
10,-0.2136,-0.8713,-0.5813,-1.8048,-1.2145,2.1192,2069
10,-0.3259,-0.8459,-0.5002,-1.8403,-1.2977,2.1154,2103
10,-0.3997,-0.7734,-0.5596,-1.7566,-1.2226,2.0224,2031
10,-0.4607,-0.8066,-0.5281,-1.7972,-1.1792,2.011,2015
10,-0.5249,-0.7908,-0.5952,-1.8004,-1.1649,1.9695,2084
10,-0.5449,-0.6594,-0.5928,-1.7361,-1.083,1.9112,2140
10,-0.5574,-0.6135,-0.5964,-1.7807,-0.9847,1.9157,1974
10,-0.5559,-0.5872,-0.5852,-1.7992,-0.9855,1.8835,2040
10,-0.5308,-0.542,-0.5896,-1.7531,-0.9393,1.8223,2008
10,-0.5371,-0.5178,-0.6204,-1.7294,-0.9539,1.7397,2133
10,-0.6055,-0.5203,-0.6396,-1.6805,-1.0151,1.6912,2018
10,-0.6685,-0.5066,-0.603,-1.6576,-0.9825,1.621,2011
10,-0.6401,-0.4326,-0.5691,-1.6001,-0.9319,1.5968,2192
10,-0.6057,-0.408,-0.5601,-1.5781,-0.8867,1.5737,1931
10,-0.6055,-0.3904,-0.6375,-1.4841,-0.9686,1.5344,2154
10,-0.6445,-0.3533,-0.656,-1.4199,-0.9147,1.5452,2073
10,-0.7354,-0.2354,-0.613,-1.3067,-0.9355,1.4841,2097
10,-0.729,-0.1848,-0.6208,-1.2372,-0.9196,1.3897,2029
10,-0.7019,-0.2329,-0.6118,-1.2113,-0.8899,1.3707,2064
10,-0.76,-0.2573,-0.5598,-1.1822,-0.977,1.3078,2083
10,-0.6689,-0.2109,-0.4954,-1.1192,-1.0061,1.2334,2073
10,-0.718,-0.1711,-0.5549,-1.0629,-1.0184,1.1837,1970
10,-0.7864,-0.1321,-0.5447,-1.0155,-1.0493,1.0247,2073
10,-0.7451,-0.1023,-0.5789,-0.9413,-1.03,0.9333,2039
10,-0.7637,-0.0728,-0.5779,-0.9166,-1.0484,0.8734,2036
10,-0.7197,-0.0361,-0.6089,-0.857,-1.0668,0.8371,2032
10,-0.6484,-0.0417,-0.6125,-0.8669,-1.1989,0.7726,2055
10,-0.6218,0.0205,-0.647,-0.7745,-1.2503,0.6329,2043
10,-0.5852,0.0085,-0.635,-0.7356,-1.3585,0.5275,2067
10,-0.5686,-0.0027,-0.6975,-0.5907,-1.3988,0.3422,2031
10,-0.5818,-0.0669,-0.686,-0.5942,-1.3928,0.2638,2052
10,-0.5789,-0.0427,-0.7114,-0.5582,-1.3427,0.2336,2035
10,-0.5427,-0.0593,-0.6472,-0.4729,-1.2599,0.2281,2049
10,-0.5691,-0.1042,-0.6482,-0.4232,-1.0636,0.2084,2055
10,-0.5745,-0.0703,-0.6184,-0.3553,-0.9576,0.1768,2052
10,-0.5906,0.04,-0.6177,-0.2746,-0.9297,0.1627,2057
10,-0.6023,0.1064,-0.6606,-0.2398,-0.9115,0.1364,2065
10,-0.6531,0.137,-0.6821,-0.1483,-0.9303,0.0348,2056
10,-0.7485,0.1252,-0.6943,-0.1108,-1.026,0.0016,2057
10,-0.7573,0.0796,-0.7319,-0.1928,-1.0724,-0.0148,2048
10,-0.7136,0.0466,-0.6741,-0.1991,-0.9923,-0.037,2047
10,-0.7251,0.0117,-0.6265,-0.2818,-0.8492,0.0278,2066
10,-0.7888,0.0342,-0.5579,-0.2266,-0.8343,0.1386,2103
10,-0.8091,0.0876,-0.5164,-0.2895,-0.7255,0.2406,2075
10,-0.7676,0.1348,-0.5229,-0.2714,-0.5087,0.3755,2033
10,-0.7217,0.1746,-0.564,-0.1975,-0.4097,0.4856,2030
10,-0.7146,0.2207,-0.5989,-0.035,-0.3113,0.5006,2041
10,-0.7366,0.2595,-0.5969,0.1887,-0.2569,0.3999,2048
10,-0.7512,0.2935,-0.5671,0.4231,-0.2946,0.2633,2048
10,-0.7271,0.3003,-0.532,0.6689,-0.3847,0.1578,2043
10,-0.6855,0.2966,-0.521,0.9353,-0.4806,0.015,2046
10,-0.5962,0.2742,-0.4854,1.2049,-0.5181,-0.2061,2049
10,-0.5615,0.2571,-0.4631,1.4705,-0.5389,-0.4968,2042
10,-0.563,0.1833,-0.426,1.7655,-0.6513,-0.6608,2046
10,-0.5806,0.0532,-0.3586,2.0237,-0.7983,-0.8771,2047
10,-0.6021,-0.2227,-0.3157,2.284,-0.8521,-1.001,2060
10,-0.6379,-0.6184,-0.2964,2.3065,-1.0364,-1.0503,2053
10,-0.6145,-1.0203,-0.3591,1.9295,-1.3713,-0.9757,2073
10,-0.6296,-1.123,-0.5242,1.3149,-1.1898,-0.8184,2035
10,-0.7805,-0.8054,-0.5347,1.1812,-0.6263,-0.8425,2039
10,-0.7717,-0.5151,-0.2927,1.3181,-0.2586,-1.1611,2128
10,-0.6785,-0.4639,-0.1335,1.2656,0.0533,-1.5783,2027
10,-0.5005,-0.5613,-0.1917,1.1559,0.3731,-1.7322,2032
10,-0.417,-0.4963,-0.366,1.0112,0.7678,-1.7632,2043
10,-0.4641,-0.2808,-0.5078,1.0151,1.0575,-1.7347,2052
10,-0.5071,-0.095,-0.4551,1.2756,0.9602,-1.6641,2078
10,-0.5461,-0.0369,-0.2737,1.2866,0.4225,-1.58,2028
10,-0.5754,-0.0505,-0.2839,1.0192,0.1607,-1.587,2031
10,-0.6094,-0.0447,-0.3699,1.0708,0.1734,-1.6319,2040
10,-0.6321,-0.1477,-0.2876,1.3174,0.1513,-1.7318,2053
10,-0.5432,-0.261,-0.1877,1.2716,0.0222,-1.8614,2037
10,-0.45,-0.3667,-0.2021,1.22,0.043,-1.8976,2047
10,-0.4353,-0.4534,-0.2593,1.2752,0.2631,-1.8639,2042
10,-0.4858,-0.5115,-0.2319,1.3375,0.5831,-1.8949,2044
10,-0.5061,-0.5159,-0.2058,1.3395,0.8296,-1.9101,2051
10,-0.5251,-0.4751,-0.1946,1.4013,1.0011,-1.8853,2052
10,-0.5029,-0.4497,-0.2417,1.4567,1.1484,-1.8733,2062
10,-0.4634,-0.4927,-0.2771,1.3766,1.3207,-1.9145,2051
11,-0.4551,-0.5527,-0.3574,1.2536,1.4597,-1.9427,2051
11,-0.4658,-0.6072,-0.4548,1.1234,1.5615,-1.9358,2047
11,-0.521,-0.6357,-0.4636,0.9878,1.5639,-1.8684,2045
11,-0.5674,-0.5164,-0.5103,1.1447,1.4592,-1.7772,2045
11,-0.5967,-0.3779,-0.5381,1.4133,1.4343,-1.7696,2051
11,-0.5999,-0.3667,-0.6011,1.5688,1.6559,-1.9345,2045
11,-0.6072,-0.5188,-0.6394,1.549,1.9562,-2.0752,2044
11,-0.5254,-0.6226,-0.5857,1.6201,1.9162,-2.2462,2035
11,-0.3467,-0.7986,-0.5981,1.6442,1.7333,-2.3039,2038
11,-0.1724,-0.9995,-0.6995,1.6981,1.6483,-2.3475,2065
11,-0.0613,-1.0938,-0.7219,1.7418,1.6548,-2.3397,2049
11,-0.092,-1.1106,-0.5767,1.9136,1.4487,-2.4176,2058
11,-0.1089,-1.1917,-0.4099,2.0567,1.136,-2.6093,2064
11,-0.0605,-1.3657,-0.3594,2.2479,0.9163,-2.9461,2064
11,-0.1006,-1.5193,-0.2952,2.3782,0.6372,-3.2473,2052
11,-0.1763,-1.6982,-0.2505,2.3979,0.3796,-3.5833,2046
11,-0.2651,-1.7993,-0.2234,2.4643,0.0,-4.0606,2033
11,-0.2478,-1.9492,-0.3687,2.3735,-0.2332,-4.3635,2042
11,-0.2446,-1.9429,-0.4792,2.3032,-0.1812,-4.3635,2033
11,-0.4446,-1.8884,-0.4697,2.179,0.0266,-4.3635,2063
11,-0.4836,-1.8857,-0.4517,2.0042,0.6123,-4.3635,2041
11,-0.3179,-1.8125,-0.512,1.9502,0.8048,-4.3635,2042
11,-0.5286,-1.7849,-0.613,1.9056,1.0933,-4.3635,2053
11,-0.7605,-1.7153,-0.501,1.796,0.9371,-4.3635,2058
11,-1.0752,-1.5256,-0.4124,1.5322,1.1376,-4.3635,2044
11,-1.2463,-1.28,-0.2017,1.3123,1.1198,-4.1699,2049
11,-2.0,-1.1775,-0.2747,0.9246,1.8455,-3.7183,2029
11,-1.6626,1.3057,-0.5415,1.515,3.2224,-2.1252,1955
11,1.2327,-1.7915,1.6055,2.0548,2.8584,-0.1522,2049
11,-2.0,-2.0,-1.0173,-1.6744,4.3182,-3.8451,2140
11,-1.948,-2.0,1.2378,-0.4528,3.3318,1.2475,2106
11,-2.0,-2.0,0.6038,-2.1208,-0.6922,4.3634,2189
11,-2.0,-2.0,-1.2864,-4.3635,2.8734,3.4593,1764
11,0.3748,0.2966,-0.9146,-4.3635,3.4018,1.2945,1814
11,1.688,1.3936,-0.3345,-4.3635,2.9164,0.2093,2300
11,1.4434,0.6799,-0.46,-4.3635,-1.034,1.5972,2145
11,1.4604,-0.1189,-0.8303,-2.4983,-2.0482,2.4971,2113
11,0.6091,-0.6587,-1.0696,-2.3952,-1.9106,3.0773,2135
11,-0.759,-1.0051,-0.6995,-2.3807,-1.7341,2.9126,2012
11,-1.0557,-1.0808,-0.8835,-2.3622,-0.9539,2.3587,1909
11,-0.5693,-1.0078,-0.6243,-2.4164,-0.714,2.5875,2137
11,-0.4641,-0.8718,-0.6548,-2.5064,-0.4842,2.5555,2238
11,-0.4529,-0.6589,-0.4146,-2.4498,-0.6875,2.3483,2142
11,-0.1108,-0.7615,-0.5095,-2.3682,-0.9762,2.0722,2042
11,0.0049,-0.8413,-0.5771,-2.2675,-1.2532,2.0049,2156
11,-0.0562,-0.7776,-0.6045,-2.2475,-1.4229,1.8985,2032
11,-0.0149,-0.7563,-0.5676,-2.0523,-1.3615,1.9512,1962
11,-0.0369,-0.8276,-0.6672,-1.9241,-1.1913,1.8957,2114
11,-0.1057,-0.8718,-0.5974,-1.8768,-1.1041,1.8654,2117
11,-0.1282,-0.7681,-0.5222,-1.8415,-1.1657,1.86,2063
11,-0.1658,-0.6653,-0.5864,-1.784,-1.2427,1.7899,2013
11,-0.2698,-0.6409,-0.6582,-1.7221,-1.2873,1.7795,2000
11,-0.3738,-0.6189,-0.665,-1.7146,-1.0925,1.6809,2075
11,-0.3682,-0.5857,-0.6121,-1.6948,-1.0753,1.6359,1964
11,-0.4192,-0.5298,-0.603,-1.6546,-1.0183,1.5289,1889
11,-0.4827,-0.5225,-0.5383,-1.6362,-1.0662,1.5217,1992
11,-0.4905,-0.499,-0.5425,-1.6568,-1.0666,1.5277,2054
11,-0.4822,-0.4333,-0.6228,-1.6207,-1.0553,1.4731,1958
11,-0.4519,-0.4314,-0.6702,-1.6001,-1.0661,1.4776,1985
11,-0.4521,-0.4866,-0.7063,-1.5438,-1.0583,1.4599,2015
11,-0.4448,-0.5208,-0.6997,-1.505,-0.9702,1.4261,2061
11,-0.5002,-0.5457,-0.6899,-1.4142,-0.8489,1.4089,1917
11,-0.5571,-0.5632,-0.6233,-1.3877,-0.86,1.4193,2018
11,-0.5525,-0.55,-0.6008,-1.3118,-0.8626,1.4653,2010
11,-0.5786,-0.5417,-0.5532,-1.2929,-0.8055,1.4146,1941
11,-0.6172,-0.5098,-0.6042,-1.2298,-0.8311,1.3556,1945
11,-0.5933,-0.4724,-0.6125,-1.178,-0.8636,1.3376,2121
11,-0.5149,-0.4058,-0.6538,-1.1047,-0.8741,1.3588,2186
11,-0.5178,-0.3328,-0.6902,-1.0232,-0.887,1.2936,1967
11,-0.4971,-0.3359,-0.7041,-0.9412,-0.8689,1.2347,2008
11,-0.5042,-0.3313,-0.7319,-0.8351,-0.8962,1.1989,2140
11,-0.4983,-0.3423,-0.7725,-0.6845,-0.9199,1.2168,2070
11,-0.4829,-0.3264,-0.8025,-0.6092,-0.8103,1.2219,2043
11,-0.4851,-0.2812,-0.8008,-0.5315,-0.7123,1.2222,2047
11,-0.5115,-0.2314,-0.7705,-0.4727,-0.5806,1.1632,2105
11,-0.5774,-0.2061,-0.7415,-0.4052,-0.5655,1.1043,2059
11,-0.6191,-0.2109,-0.6584,-0.4083,-0.5959,0.9628,1907
11,-0.5955,-0.2263,-0.6982,-0.4141,-0.7027,0.8713,2061
11,-0.5603,-0.2175,-0.6638,-0.4014,-0.7016,0.7885,2051
11,-0.5769,-0.1667,-0.6104,-0.3452,-0.7522,0.6905,2061
11,-0.6077,-0.1606,-0.6741,-0.2996,-0.7766,0.6002,2051
11,-0.593,-0.1531,-0.6472,-0.2258,-0.8789,0.5201,2050
11,-0.5911,-0.1731,-0.6704,-0.1842,-0.9274,0.4164,2050
11,-0.561,-0.1694,-0.6804,-0.089,-1.0854,0.347,2051
11,-0.5686,-0.1389,-0.7451,-0.0567,-1.1589,0.2458,2065
11,-0.6008,-0.1321,-0.7844,-0.0629,-1.233,0.1752,2054
11,-0.6426,-0.0767,-0.8713,-0.0414,-1.3308,0.0852,2052
11,-0.6787,-0.0566,-0.9565,-0.0642,-1.4776,0.018,2044
11,-0.6602,-0.1082,-0.9128,-0.2507,-1.5676,0.0937,2054
11,-0.6985,-0.144,-0.8726,-0.5008,-1.5086,0.1939,2047
11,-0.7292,-0.0979,-0.7834,-0.6753,-1.3223,0.2285,2038
11,-0.7034,0.0212,-0.7222,-0.7608,-1.0565,0.226,2042
11,-0.677,0.1279,-0.7358,-0.7395,-0.7159,0.2333,2042
11,-0.6738,0.2129,-0.7637,-0.7126,-0.5721,0.2056,2051
11,-0.5762,0.2041,-0.8098,-0.5826,-0.5548,0.1792,2055
11,-0.4868,0.1375,-0.8171,-0.3689,-0.6662,0.0937,2061
11,-0.3467,0.0596,-0.7861,-0.1397,-0.8949,-0.0266,2065
11,-0.2954,0.0291,-0.7412,0.1722,-1.0922,-0.1408,2067
11,-0.3381,0.0208,-0.6616,0.5047,-1.3223,-0.2324,2056
11,-0.3979,-0.0146,-0.5654,0.7917,-1.6364,-0.4342,2060
11,-0.4766,-0.0496,-0.4929,1.0194,-1.85,-0.5914,2057
11,-0.5964,-0.0981,-0.4805,1.2029,-1.8498,-0.8472,2032
11,-0.6685,-0.1797,-0.4485,1.4486,-1.6548,-1.152,2054
11,-0.6926,-0.2842,-0.3284,1.8848,-1.3034,-1.2768,2012
11,-0.769,-0.5979,-0.1804,2.2365,-1.1147,-1.1184,2029
12,-0.8809,-1.0056,-0.1343,2.2216,-1.2212,-0.4758,2047
12,-1.0576,-1.1035,-0.219,1.7751,-1.2748,-0.2702,2049
12,-0.9661,-0.7175,-0.3657,1.6052,-0.2655,-0.8348,2104
12,-0.8472,-0.4395,-0.2107,1.7066,0.9827,-1.0192,2068
12,-0.7129,-0.3918,-0.031,1.4828,1.3099,-1.0919,2035
12,-0.5054,-0.4812,-0.1592,1.1473,1.1204,-1.1492,2024
12,-0.3657,-0.5562,-0.3445,0.9833,0.9337,-1.1298,2034
12,-0.3435,-0.5703,-0.3831,0.8921,0.7827,-0.9572,2032
12,-0.3943,-0.5127,-0.3145,0.81,0.3751,-0.7814,2044
12,-0.3315,-0.3538,-0.2095,0.967,-0.3065,-0.8622,2047
12,-0.281,-0.3145,-0.1584,1.234,-0.5747,-1.0082,2049
12,-0.2883,-0.3906,-0.1404,1.3568,-0.5125,-1.1893,2055
12,-0.304,-0.5144,-0.1763,1.3842,-0.3987,-1.3298,2034
12,-0.2793,-0.6438,-0.2639,1.2798,-0.2454,-1.4155,2047
12,-0.229,-0.7563,-0.2158,1.1316,-0.1962,-1.5233,2053
12,-0.1494,-0.771,-0.3433,0.9829,-0.1005,-1.6074,2052
12,-0.1948,-0.7559,-0.5105,0.9686,0.1049,-1.6941,2051
12,-0.2979,-0.749,-0.6338,0.9023,0.2213,-1.76,2043
12,-0.3499,-0.6895,-0.5994,0.9327,0.2575,-1.835,2070
12,-0.3115,-0.6357,-0.4912,1.1023,0.3405,-1.9098,2048
12,-0.2817,-0.6812,-0.5308,1.3608,0.483,-1.9467,2049
12,-0.2869,-0.8079,-0.5779,1.3824,0.8341,-2.0831,2043
12,-0.3337,-0.9568,-0.6301,1.2456,1.087,-2.2273,2035
12,-0.3083,-1.0227,-0.6611,1.1873,1.237,-2.3145,2064
12,-0.219,-1.0791,-0.6294,1.1921,1.498,-2.3903,2078
12,-0.1353,-1.0583,-0.6448,1.4599,1.7784,-2.4392,2067
12,-0.1091,-1.1326,-0.699,1.6334,2.1739,-2.5788,2113
12,-0.2529,-1.2317,-0.759,1.5496,2.259,-2.7695,2023
12,-0.4407,-1.2932,-0.6572,1.585,1.7464,-2.9693,2063
12,-0.532,-1.3044,-0.4683,1.6583,1.01,-3.2604,2078
12,-0.5273,-1.3682,-0.4248,1.6317,0.6562,-3.6154,2047
12,-0.5864,-1.4446,-0.4646,1.5391,0.2988,-3.9693,2051
12,-0.717,-1.5046,-0.5916,1.4463,-0.1525,-4.3635,2058
12,-1.0515,-1.4414,-0.696,1.3432,-0.1037,-4.3635,2066
12,-1.4153,-1.2385,-0.7424,1.2697,0.0739,-4.3635,2047
12,-1.5479,-1.0283,-0.7747,1.273,0.3027,-4.3635,2041
12,-1.6245,-0.8821,-0.8972,1.1852,0.3798,-4.2483,2053
12,-1.6895,-0.6516,-0.8345,1.2877,0.0316,-4.1499,2035
12,-1.6418,-0.3584,-0.8022,1.5279,-0.4414,-4.1871,2056
12,-1.5845,-0.2468,-0.8513,1.5462,-0.7186,-4.3635,2033
12,-1.478,-0.3169,-0.8105,1.6556,-0.638,-4.3635,2051
12,-1.1899,-0.5183,-0.6819,1.5209,-0.5265,-4.3635,2052
12,-0.802,-0.6094,-0.6677,1.5874,0.0266,-4.3635,2056
12,-0.7424,-0.8284,-0.0447,1.3788,-0.1005,-4.3635,2021
12,-2.0,0.9331,1.4001,1.7394,-4.3635,-4.3635,1852
12,1.9999,-2.0,-2.0,-0.2509,4.3634,-4.3635,2763
12,-2.0,-2.0,1.9999,-0.2731,-0.1605,-4.3635,1499
12,1.9999,-2.0,-2.0,-2.7813,4.3634,4.3634,2469
12,-2.0,-2.0,1.9999,-0.412,1.5466,4.3634,2360
12,-2.0,-2.0,1.9999,-4.3635,0.3614,4.3634,1791
12,0.7256,-0.7078,0.2629,-3.9327,4.3634,2.1331,1954
12,0.8364,1.2029,-1.1309,-4.3635,2.8666,0.2333,2215
12,1.0493,1.4114,-1.5144,-3.3279,-0.6227,0.2739,2082
12,1.0378,0.9619,-1.2075,-2.7549,-1.6382,2.1272,2167
12,0.0715,0.6616,-0.969,-2.2688,-2.026,3.0006,2171
12,-0.6887,0.2358,-1.0261,-1.2326,-1.3527,2.9992,1915
12,-0.8635,-0.397,-0.8364,-1.011,-1.0587,2.5141,1940
12,-0.5403,-0.8525,-0.5271,-0.8765,-1.309,2.3581,1981
12,-0.3621,-1.1638,-0.4109,-1.033,-1.4952,2.5545,2012
12,-0.5015,-0.9424,-0.4529,-1.1947,-1.8467,2.4448,1948
12,-0.501,-0.7703,-0.5208,-1.3027,-1.8413,2.2057,2052
12,-0.4028,-0.7612,-0.6445,-1.4218,-1.8118,2.0807,2185
12,-0.281,-0.7551,-0.7864,-1.5057,-1.5627,2.122,2060
12,-0.2083,-0.6592,-0.9534,-1.399,-1.3243,2.2254,2142
12,-0.1318,-0.7446,-0.8633,-1.3497,-0.968,2.3506,2064
12,-0.0645,-0.9636,-0.6814,-1.3207,-0.8827,2.5385,2067
12,-0.1589,-1.0366,-0.5525,-1.3627,-0.77,2.5931,2021
12,-0.3323,-0.969,-0.479,-1.4182,-0.7797,2.5762,2153
12,-0.4114,-0.9243,-0.5178,-1.431,-0.8116,2.5537,2067
12,-0.4709,-0.8848,-0.5562,-1.4105,-0.8086,2.527,1952
12,-0.5154,-0.8752,-0.5652,-1.4159,-0.7263,2.4454,2115
12,-0.5552,-0.823,-0.6147,-1.3414,-0.7208,2.3716,2067
12,-0.5923,-0.7373,-0.6709,-1.266,-0.6714,2.2535,1901
12,-0.5989,-0.6921,-0.5715,-1.2721,-0.6055,2.1371,2044
12,-0.5706,-0.6633,-0.5361,-1.2487,-0.6244,2.0995,1949
12,-0.6101,-0.6428,-0.5151,-1.2597,-0.5833,2.0229,2120
12,-0.6128,-0.6267,-0.554,-1.2619,-0.6915,1.9407,1971
12,-0.627,-0.6091,-0.5776,-1.2054,-0.6118,1.8241,2010
12,-0.6296,-0.5833,-0.5825,-1.1548,-0.7143,1.7452,2080
12,-0.6145,-0.5386,-0.627,-1.0903,-0.7228,1.7121,2108
12,-0.6274,-0.5046,-0.6021,-1.0585,-0.7256,1.6582,2029
12,-0.6309,-0.4751,-0.5942,-1.0503,-0.7719,1.611,2134
12,-0.635,-0.4436,-0.5667,-1.0505,-0.6897,1.5848,2059
12,-0.6311,-0.3442,-0.6091,-1.0368,-0.74,1.6338,2021
12,-0.627,-0.3171,-0.5981,-1.0355,-0.7961,1.6305,2048
12,-0.6553,-0.2866,-0.585,-1.0431,-0.7907,1.6001,2027
12,-0.6292,-0.2544,-0.6348,-1.001,-0.8489,1.5542,2076
12,-0.6272,-0.2153,-0.6897,-0.9283,-0.8345,1.4794,2061
12,-0.6167,-0.1782,-0.6702,-0.8616,-0.9383,1.4091,2057
12,-0.5615,-0.1714,-0.7031,-0.7909,-1.1009,1.3216,2041
12,-0.5688,-0.1301,-0.7251,-0.7092,-1.2015,1.2054,2031
12,-0.6028,-0.1128,-0.7502,-0.6944,-1.2074,1.0965,2052
12,-0.6062,-0.085,-0.709,-0.5924,-1.1957,0.9813,2046
12,-0.6108,-0.0649,-0.6931,-0.5124,-1.1065,0.8592,2050
12,-0.6196,-0.0625,-0.7622,-0.3705,-1.0477,0.7427,2061
12,-0.6025,-0.1113,-0.7429,-0.3092,-0.9994,0.6187,2049
12,-0.5984,-0.1284,-0.7417,-0.3021,-0.9365,0.5015,2043
12,-0.6306,-0.1033,-0.7341,-0.3055,-0.8331,0.3565,2054
12,-0.626,-0.0854,-0.7224,-0.2776,-0.761,0.2216,2047
12,-0.6143,-0.0486,-0.7222,-0.2392,-0.7508,0.1647,2057
12,-0.6433,0.0078,-0.6772,-0.2053,-0.6917,0.1257,2067
12,-0.7085,0.0457,-0.7129,-0.1474,-0.5361,0.069,2060
13,-0.6687,0.0999,-0.6641,-0.0023,-0.3638,0.0549,2055
13,-0.6809,0.1338,-0.6033,0.1735,-0.3926,0.1446,2079
13,-0.7222,0.0662,-0.5847,0.2962,-0.2987,0.0732,2078
13,-0.6902,-0.1064,-0.5647,0.4117,-0.2561,0.1111,2041
13,-0.6584,-0.2205,-0.4819,0.4474,-0.3392,0.0838,2030
13,-0.6023,-0.3062,-0.4607,0.6164,-0.4227,0.0445,2036
13,-0.5718,-0.325,-0.4709,0.7187,-0.441,-0.0252,2043
13,-0.595,-0.3601,-0.5034,0.7175,-0.447,-0.08,2052
13,-0.6499,-0.3687,-0.5461,0.6929,-0.4304,-0.1999,2052
13,-0.6892,-0.3574,-0.5625,0.6079,-0.363,-0.3663,2052
13,-0.676,-0.2954,-0.5503,0.5741,-0.2966,-0.4568,2055
13,-0.6348,-0.2334,-0.5132,0.6546,-0.3824,-0.5224,2053
13,-0.6174,-0.2217,-0.4932,0.8092,-0.518,-0.5781,2050
13,-0.6208,-0.2427,-0.4695,0.8986,-0.5758,-0.594,2052
13,-0.6082,-0.3081,-0.4312,0.8557,-0.601,-0.5908,2039
13,-0.5955,-0.3503,-0.4182,0.86,-0.6236,-0.6312,2048
13,-0.554,-0.3967,-0.3701,0.8688,-0.5934,-0.7067,2044
13,-0.4963,-0.4221,-0.3679,0.8548,-0.5264,-0.8638,2048
13,-0.457,-0.4294,-0.3169,0.8815,-0.5637,-1.0011,2052
13,-0.4485,-0.4446,-0.323,0.8906,-0.5821,-1.1186,2046
13,-0.4697,-0.4282,-0.3262,0.8359,-0.5631,-1.1982,2042
13,-0.4995,-0.3853,-0.3154,0.87,-0.5605,-1.2663,2052
13,-0.531,-0.3596,-0.2686,0.895,-0.6212,-1.3003,2104
13,-0.5056,-0.365,-0.2493,0.8842,-0.579,-1.2449,2046
13,-0.4871,-0.3862,-0.259,0.9071,-0.4753,-1.2306,2035
13,-0.4238,-0.3984,-0.2715,0.8882,-0.3065,-1.2668,2042
13,-0.364,-0.3987,-0.2686,0.8512,-0.0752,-1.2781,2047
13,-0.3359,-0.3914,-0.2937,0.8299,0.1381,-1.2784,2048
13,-0.3191,-0.3887,-0.342,0.8399,0.2545,-1.2957,2044
13,-0.2971,-0.4209,-0.4045,0.8661,0.3282,-1.3342,2043
13,-0.3245,-0.4426,-0.407,0.9532,0.4506,-1.3934,2046
13,-0.3315,-0.4861,-0.3088,0.9481,0.583,-1.4081,2041
13,-0.312,-0.5601,-0.2605,0.8748,0.757,-1.3071,2043
13,-0.2957,-0.6443,-0.2754,0.8044,0.9239,-1.2175,2044
13,-0.2908,-0.6904,-0.3264,0.8428,1.1099,-1.1347,2050
13,-0.3479,-0.7461,-0.3989,0.9038,1.4062,-1.1053,2044
13,-0.4482,-0.8228,-0.3972,0.9805,1.6555,-1.0971,2050
13,-0.49,-0.9458,-0.4226,0.8871,1.8199,-1.1239,2060
13,-0.4731,-0.9636,-0.5037,0.8733,1.9371,-1.1203,2048
13,-0.3884,-0.9385,-0.5681,1.0058,2.0648,-1.1732,2041
13,-0.3967,-0.8584,-0.7212,1.2204,2.3345,-1.4591,2057
13,-0.3335,-0.8647,-0.6997,1.0825,2.5272,-1.4772,2067
13,-0.3152,-0.8831,-0.7139,1.056,2.3812,-1.45,2044
13,-0.2634,-0.9248,-0.6575,1.2276,2.1606,-1.6544,2024
13,-0.1748,-1.0654,-0.6484,1.5342,1.9963,-1.9383,2049
13,-0.2065,-1.2278,-0.7212,1.8638,1.9819,-2.1619,2042
13,-0.3354,-1.4236,-0.8186,2.0631,2.0533,-2.4084,2061
13,-0.3979,-1.5801,-0.8801,2.1128,2.0446,-2.7565,2046
13,-0.3928,-1.5974,-0.925,2.1003,1.7974,-3.0862,2065
13,-0.4263,-1.5027,-0.9341,2.2843,1.5731,-3.4402,2066
13,-0.5117,-1.4746,-0.8945,2.2815,1.2746,-3.7418,2052
13,-0.6289,-1.4436,-0.8875,2.2636,1.0175,-3.9478,2069
13,-0.7732,-1.4636,-0.9346,2.2884,0.9001,-4.1686,2054
13,-0.8997,-1.499,-0.9492,2.179,0.7953,-4.3233,2046
13,-1.0486,-1.5325,-1.002,1.813,0.8206,-4.3635,2063
13,-1.0979,-1.3123,-1.0664,1.5968,0.8525,-4.3538,2027
13,-1.1177,-0.9866,-1.0691,1.6266,0.6694,-4.3161,2037
13,-1.1201,-0.8833,-1.1929,1.8161,0.0565,-4.3635,2043
13,-1.2444,-0.7441,-1.1821,1.9777,-0.3521,-4.3635,2056
13,-1.4714,-0.6772,-1.0574,1.7688,-0.8333,-4.3635,2046
13,-1.8403,-0.4038,-0.8982,1.4763,-0.4911,-4.3635,2059
13,-1.9917,-0.1184,-0.313,1.5603,0.5256,-3.8338,2061
13,-1.3093,-0.0332,0.1699,0.8951,1.6386,-3.1429,1922
13,0.7793,-0.3926,0.2437,1.0204,1.5062,-3.1031,2059
13,1.9999,-0.6118,-0.3572,1.3664,1.8499,-4.3486,2017
13,0.762,0.0425,1.9999,4.2584,-2.4911,-2.9885,2298
13,-2.0,-2.0,1.0754,-2.5464,-0.6032,4.3634,1646
13,-2.0,-2.0,1.9999,-3.584,4.2792,4.3634,2090
13,-1.3364,-2.0,0.5652,-4.1996,4.3634,4.3634,2069
13,0.7305,-0.2805,0.4102,-3.3886,3.9891,2.4217,2162
13,1.6653,0.1421,-1.5762,-3.0802,1.4679,0.0932,2073
13,1.7847,0.1721,-1.2375,-2.6318,-1.621,1.5988,2210
13,0.1387,0.7327,-1.2566,-2.4388,-1.7908,2.3589,2130
13,-0.7534,0.3105,-0.8645,-1.8049,-1.5941,2.9538,1972
13,-0.6633,-0.4241,-0.8118,-1.0092,-1.2339,3.4158,1985
13,-0.6731,-1.0085,-0.7188,-1.1049,-0.9107,3.2043,1971
13,-0.6914,-1.1279,-0.4585,-1.1374,-1.3029,2.8914,2056
13,-0.501,-0.7585,-0.5864,-1.2202,-1.5166,2.6699,2083
13,-0.5366,-0.4453,-0.4902,-1.3792,-1.6197,2.8384,2082
13,-0.5115,-0.4109,-0.5461,-1.4536,-1.8146,2.7235,2074
13,-0.2427,-0.5801,-0.604,-1.5696,-1.9098,2.5867,1953
13,-0.1338,-0.5891,-0.6318,-1.5542,-1.8889,2.5169,2062
13,-0.1506,-0.5349,-0.6841,-1.5294,-1.8825,2.4368,2054
13,-0.1392,-0.5583,-0.6277,-1.4628,-1.696,2.4759,2031
13,-0.1738,-0.6604,-0.5989,-1.3663,-1.5187,2.5285,2052
13,-0.2324,-0.7605,-0.5793,-1.3275,-1.2973,2.4679,1974
13,-0.2903,-0.7808,-0.4983,-1.3119,-1.1971,2.4924,2076
13,-0.3528,-0.6958,-0.4985,-1.2738,-1.128,2.4642,2029
13,-0.3914,-0.637,-0.5442,-1.2398,-0.9995,2.4284,1998
13,-0.4333,-0.6418,-0.5364,-1.1744,-0.9151,2.361,2096
13,-0.4587,-0.668,-0.5408,-1.1382,-0.7799,2.3021,1991
13,-0.4604,-0.6819,-0.5574,-1.0925,-0.7516,2.2297,2003
13,-0.4653,-0.6812,-0.5291,-1.0934,-0.7344,2.1702,2008
13,-0.5278,-0.6636,-0.5125,-1.0674,-0.7122,2.0873,1997
13,-0.5659,-0.6055,-0.5891,-1.0437,-0.6746,1.9679,2050
13,-0.614,-0.5618,-0.5745,-1.0544,-0.6149,1.8839,2029
13,-0.6091,-0.5432,-0.5044,-1.0677,-0.569,1.8857,1938
13,-0.6072,-0.5317,-0.502,-1.1144,-0.5686,1.8286,2018
13,-0.593,-0.4761,-0.5288,-1.1219,-0.5866,1.761,2058
13,-0.604,-0.3845,-0.6426,-1.0348,-0.7763,1.7118,2037
13,-0.6531,-0.3679,-0.6404,-1.0308,-0.7991,1.6297,1992
14,-0.6973,-0.3516,-0.5251,-1.0389,-0.7269,1.5884,2008
14,-0.7456,-0.2935,-0.531,-1.1111,-0.5874,1.5065,2018
14,-0.7795,-0.229,-0.4861,-1.1999,-0.5898,1.4274,2035
14,-0.7151,-0.1826,-0.5293,-1.1694,-0.6514,1.3982,2045
14,-0.7197,-0.1497,-0.5662,-1.1926,-0.6584,1.3672,2045
14,-0.7449,-0.2107,-0.5955,-1.1676,-0.7562,1.2161,2038
14,-0.6765,-0.2817,-0.6711,-1.1769,-0.8465,1.1459,2063
14,-0.6462,-0.28,-0.6924,-1.1532,-0.9564,1.1399,2071
14,-0.646,-0.2207,-0.6807,-1.1171,-1.0393,1.0758,2065
14,-0.6426,-0.1685,-0.7563,-1.1198,-0.8686,1.0323,2047
14,-0.6633,-0.1367,-0.6875,-1.1115,-0.7401,1.0223,2069
14,-0.6868,-0.0391,-0.6401,-1.0192,-0.7489,1.0212,2049
14,-0.616,-0.033,-0.6956,-0.9646,-0.715,0.9668,2038
14,-0.5889,-0.1082,-0.6819,-0.8941,-0.7293,0.9313,2036
14,-0.6223,-0.1523,-0.7009,-0.807,-0.7305,0.9211,2071
14,-0.6692,-0.1611,-0.7036,-0.7275,-0.7172,0.8782,2053
14,-0.6799,-0.1631,-0.7437,-0.6895,-0.6501,0.8593,2055
14,-0.6641,-0.168,-0.759,-0.6108,-0.5474,0.8098,2054
14,-0.668,-0.1663,-0.7393,-0.5408,-0.4312,0.7497,2050
14,-0.6702,-0.1475,-0.7136,-0.495,-0.2894,0.679,2049
14,-0.6899,-0.105,-0.7205,-0.4512,-0.1376,0.5963,2056
14,-0.6846,-0.0544,-0.7144,-0.3882,0.037,0.4996,2045
14,-0.6455,-0.0166,-0.6562,-0.3223,0.1037,0.4241,2059
14,-0.6089,-0.0137,-0.6382,-0.2751,0.0896,0.3329,2056
14,-0.5713,-0.0291,-0.6504,-0.2527,-0.0361,0.271,2052
14,-0.5762,-0.0452,-0.679,-0.1727,-0.1772,0.1345,2046
14,-0.5901,-0.1035,-0.718,-0.1386,-0.187,0.0168,2049
14,-0.6367,-0.167,-0.7249,-0.0917,-0.0977,-0.055,2058
14,-0.6567,-0.2009,-0.7351,-0.0686,0.022,-0.1706,2055
14,-0.6243,-0.2078,-0.7202,-0.0372,0.1216,-0.2449,2062
14,-0.5935,-0.1934,-0.6575,0.0647,0.1931,-0.3581,2052
14,-0.5085,-0.1741,-0.6074,0.193,0.1514,-0.5042,2062
14,-0.4841,-0.1931,-0.5667,0.406,0.0639,-0.62,2050
14,-0.4561,-0.2722,-0.499,0.6364,-0.1107,-0.7066,2058
14,-0.4468,-0.3123,-0.4963,0.8079,-0.24,-0.7532,2049
14,-0.4875,-0.3547,-0.4817,0.9867,-0.3743,-0.8578,2045
14,-0.5549,-0.3767,-0.4404,1.177,-0.4817,-0.9835,2049
14,-0.6013,-0.394,-0.4124,1.332,-0.6087,-1.0179,2057
14,-0.6689,-0.429,-0.397,1.3086,-0.7127,-0.9535,2051
14,-0.7539,-0.458,-0.3818,1.1814,-0.6157,-0.9021,2038
14,-0.7681,-0.4385,-0.363,1.1121,-0.4982,-0.8733,2039
14,-0.6982,-0.3975,-0.3381,1.0737,-0.375,-0.9074,2041
14,-0.6001,-0.3721,-0.3623,1.0246,-0.1758,-1.0445,2041
14,-0.5476,-0.3586,-0.3557,1.0302,-0.002,-1.1805,2040
14,-0.4941,-0.3389,-0.3281,1.0307,0.0473,-1.2936,2052
14,-0.4448,-0.3655,-0.3281,1.0002,-0.0033,-1.3391,2075
14,-0.4272,-0.4031,-0.3877,0.9814,-0.0471,-1.2989,2058
14,-0.4268,-0.4285,-0.4231,1.0066,-0.0767,-1.2398,2037
14,-0.4268,-0.4685,-0.4014,0.9911,-0.0828,-1.224,2040
14,-0.4172,-0.4636,-0.3857,0.9969,-0.0324,-1.2267,2048
14,-0.4287,-0.4697,-0.3633,1.0837,-0.0079,-1.266,2052
14,-0.4714,-0.4751,-0.3704,1.2179,0.0133,-1.3372,2042
14,-0.4976,-0.5061,-0.418,1.2374,0.0951,-1.4727,2038
14,-0.5203,-0.5686,-0.4299,1.1043,0.1755,-1.5206,2048
14,-0.4978,-0.584,-0.4231,1.0344,0.2586,-1.4673,2053
14,-0.4602,-0.5227,-0.3696,1.1114,0.3163,-1.4691,2041
14,-0.417,-0.4839,-0.3335,1.1633,0.3057,-1.515,2043
14,-0.3704,-0.4348,-0.4075,1.1666,0.4533,-1.6231,2044
14,-0.3723,-0.4146,-0.4961,1.2026,0.579,-1.7357,2054
14,-0.4224,-0.4182,-0.5562,1.3266,0.6239,-1.8028,2049
14,-0.436,-0.4714,-0.6077,1.5062,0.5449,-1.863,2044
14,-0.4258,-0.5381,-0.6777,1.6689,0.6146,-1.9535,2056
14,-0.4204,-0.636,-0.7163,1.7494,0.7352,-2.0306,2034
14,-0.4014,-0.6787,-0.7283,1.8273,0.8724,-2.0723,2048
14,-0.3906,-0.6816,-0.7495,1.9554,0.9449,-2.1185,2039
14,-0.4009,-0.7029,-0.7617,2.0877,0.9911,-2.2204,2052
14,-0.4138,-0.8003,-0.6919,2.0989,0.9335,-2.3313,2025
14,-0.4336,-0.8953,-0.6082,2.0751,0.8301,-2.4296,2042
14,-0.4561,-0.9717,-0.4971,2.2186,0.6392,-2.5137,2057
14,-0.4705,-1.189,-0.3845,2.2373,0.4831,-2.6721,2055
14,-0.4954,-1.3862,-0.4294,2.1465,0.3562,-2.8209,2041
14,-0.614,-1.5652,-0.4204,2.0449,0.2187,-3.0126,2036
14,-0.6787,-1.5859,-0.2734,1.9309,-0.1256,-3.1713,2060
14,-0.6155,-1.5076,-0.2732,1.7158,-0.1784,-3.3737,2062
14,-0.5833,-1.5264,-0.3506,1.5825,0.1257,-3.5489,2058
14,-0.5828,-1.6543,-0.3638,1.372,0.1563,-3.6932,2026
14,-0.624,-1.5884,-0.3472,1.2348,0.0634,-3.7664,2059
14,-0.6052,-1.4614,-0.4075,1.1489,0.1451,-3.9265,2046
14,-0.5981,-1.4373,-0.4495,1.0234,0.2776,-4.0704,2078
14,-0.6572,-1.3848,-0.6543,0.8042,0.2804,-4.1021,2024
14,-0.7664,-1.324,-0.7351,0.7534,-0.0778,-4.0564,2081
14,-0.8281,-1.2065,-0.8347,0.9096,-0.4486,-4.0901,2086
14,-0.9067,-1.093,-0.738,1.0682,-0.9427,-4.3064,2049
14,-1.1243,-1.0125,-0.5063,0.9461,-1.2025,-4.2647,2033
14,-1.1155,-0.7681,-0.3701,1.0487,-0.8974,-3.911,2076
14,-1.4788,-0.5049,0.0044,1.1977,-0.5112,-2.9862,2012
14,-2.0,-0.356,0.4302,1.3027,0.3947,-0.6271,1928
14,-1.9768,0.1589,0.4897,1.4033,3.4893,-2.9753,1939
14,1.9999,-1.3806,-0.1611,1.8889,2.5019,-4.3635,1946
14,-2.0,-2.0,1.4817,-1.9327,-1.4462,-0.9814,1693
14,1.3503,-2.0,1.1567,-4.3635,4.3634,0.4944,2257
14,-2.0,0.2366,1.1824,-2.8456,-0.4814,4.3634,2305
14,-2.0,-1.825,-0.0129,-1.5008,0.9263,1.4245,2019
14,0.1487,-1.1387,-0.9094,-2.9411,-0.1016,1.5623,2008
14,-0.3135,0.1729,-0.7437,-2.6176,-0.8698,1.2033,2138
14,0.1096,0.7146,-1.3787,-2.8063,-0.8989,1.6028,2104
14,-0.1152,0.2219,-0.6562,-2.302,-1.5119,3.1327,2118
14,-0.147,-0.1982,-1.1079,-1.7286,-0.9243,3.0451,2080
14,-0.3176,-0.5789,-0.8291,-1.3852,-1.0993,2.8035,1981
14,-0.2607,-0.8857,-0.7283,-1.2303,-1.3402,2.4531,2212
14,-0.2407,-0.885,-0.5635,-1.3802,-1.3014,2.5585,2071
14,-0.4443,-0.7251,-0.4065,-1.2917,-1.4118,2.7228,2143
14,-0.4065,-0.6978,-0.4236,-1.3163,-1.4167,2.6516,2029
15,-0.2952,-0.719,-0.4634,-1.3857,-1.4703,2.5432,1964
15,-0.1907,-0.7388,-0.5249,-1.3536,-1.4894,2.4519,2014
15,-0.125,-0.6963,-0.5813,-1.3051,-1.589,2.3591,2075
15,-0.0815,-0.7517,-0.574,-1.2018,-1.547,2.2819,1948
15,-0.1545,-0.8362,-0.5544,-1.1187,-1.3399,2.2748,2128
15,-0.1948,-0.8191,-0.481,-1.072,-1.1421,2.3056,1871
15,-0.2849,-0.8049,-0.5117,-1.0612,-0.9893,2.2507,2144
15,-0.3223,-0.8296,-0.5037,-1.0298,-0.9654,2.2578,2013
15,-0.3955,-0.833,-0.4629,-1.0748,-0.8833,2.285,2045
15,-0.437,-0.7556,-0.4458,-1.0903,-0.8471,2.3033,2026
15,-0.4985,-0.7512,-0.4565,-1.0616,-0.7127,2.2846,2020
15,-0.5039,-0.7793,-0.4946,-1.0049,-0.7086,2.2839,2028
15,-0.5376,-0.7886,-0.5083,-1.0174,-0.665,2.2728,2082
15,-0.6067,-0.7634,-0.4136,-1.078,-0.5149,2.2172,2017
15,-0.635,-0.7388,-0.4529,-1.135,-0.4825,2.2083,2083
15,-0.6028,-0.7061,-0.4958,-1.1756,-0.4159,2.2113,2036
15,-0.6135,-0.6968,-0.4944,-1.189,-0.3689,2.2031,2143
15,-0.626,-0.6831,-0.5469,-1.1712,-0.4296,2.1642,1974
15,-0.634,-0.7146,-0.5608,-1.2414,-0.2936,2.1293,2057
15,-0.6228,-0.6741,-0.5339,-1.1953,-0.3167,2.1009,1974
15,-0.6147,-0.635,-0.5491,-1.1838,-0.3248,2.0632,2110
15,-0.5762,-0.6045,-0.4707,-1.2015,-0.331,2.0129,1972
15,-0.6218,-0.5784,-0.4341,-1.1985,-0.4196,1.923,2120
15,-0.6414,-0.5417,-0.4746,-1.1355,-0.4719,1.8229,1987
15,-0.7207,-0.5342,-0.4766,-1.1332,-0.4876,1.7325,2110
15,-0.7153,-0.5308,-0.4548,-1.1664,-0.4227,1.5998,1914
15,-0.6328,-0.446,-0.4814,-1.117,-0.382,1.5538,2159
15,-0.5381,-0.3792,-0.4731,-1.0248,-0.3136,1.4704,2135
15,-0.6252,-0.3464,-0.4878,-0.9796,-0.3402,1.3247,1983
15,-0.605,-0.3289,-0.5325,-0.9421,-0.4799,1.2615,2087
15,-0.6465,-0.2891,-0.5232,-0.921,-0.5135,1.1244,2015
15,-0.7029,-0.2229,-0.4924,-0.9938,-0.4888,0.9352,2053
15,-0.7107,-0.1514,-0.5317,-1.0384,-0.4261,0.8127,2042
15,-0.6802,-0.0569,-0.5322,-0.9913,-0.5032,0.7609,1990
15,-0.6562,0.0215,-0.5857,-0.8756,-0.4959,0.715,2054
15,-0.6174,-0.0261,-0.6006,-0.8071,-0.5601,0.5894,2061
15,-0.5767,-0.0359,-0.5818,-0.6971,-0.6088,0.5107,2033
15,-0.6172,-0.051,-0.5952,-0.591,-0.7255,0.4558,2059
15,-0.5945,-0.0505,-0.5945,-0.4979,-0.7606,0.4229,2070
15,-0.615,-0.0242,-0.6033,-0.335,-0.7249,0.3992,2018
15,-0.6292,-0.0439,-0.6731,-0.2135,-0.6735,0.3749,2076
15,-0.6306,-0.1208,-0.7183,-0.1439,-0.4887,0.3526,2054
15,-0.6587,-0.1636,-0.7356,-0.1173,-0.3253,0.3413,2043
15,-0.6477,-0.1416,-0.7578,-0.0682,-0.1924,0.3151,2052
15,-0.6111,-0.113,-0.8235,-0.0783,-0.1159,0.2452,2053
15,-0.5981,-0.0718,-0.8237,-0.072,-0.0698,0.1735,2057
15,-0.6116,0.022,-0.7585,-0.0071,-0.0414,0.0719,2032
15,-0.6367,0.0222,-0.7939,-0.0971,0.0273,-0.037,2059
15,-0.6223,-0.0063,-0.8291,-0.1412,0.0625,-0.2211,2050
15,-0.5659,0.009,-0.7783,-0.1143,0.0421,-0.3657,2054
15,-0.5867,0.0586,-0.8005,-0.0297,0.0141,-0.4783,2077
15,-0.646,0.1169,-0.8025,0.0794,-0.0161,-0.5597,2086
15,-0.6843,0.094,-0.7729,0.2112,-0.1073,-0.5658,2099
15,-0.7483,0.0454,-0.7207,0.2503,-0.1473,-0.6367,2034
15,-0.7319,-0.085,-0.6699,0.3037,-0.1715,-0.5853,2031
15,-0.7527,-0.1785,-0.6018,0.3449,-0.2036,-0.7148,2026
15,-0.6636,-0.2681,-0.5767,0.401,-0.2752,-0.77,2037
15,-0.647,-0.313,-0.5496,0.4769,-0.2653,-0.8308,2036
15,-0.6528,-0.2756,-0.533,0.5397,-0.296,-0.9797,2047
15,-0.6396,-0.2839,-0.4746,0.6303,-0.3739,-1.0721,2046
15,-0.5969,-0.2737,-0.4077,0.8032,-0.3944,-1.1457,2055
15,-0.5859,-0.3176,-0.3518,0.9909,-0.4348,-1.1447,2052
15,-0.5901,-0.4172,-0.2761,1.189,-0.634,-1.0555,2051
15,-0.6233,-0.5164,-0.3091,1.241,-0.6211,-0.8513,2050
15,-0.6807,-0.5847,-0.3994,1.1271,-0.3729,-0.8066,2088
15,-0.7068,-0.5359,-0.4438,0.9877,-0.1257,-0.8749,2054
15,-0.6819,-0.4307,-0.448,0.995,0.0372,-0.9589,2084
15,-0.6477,-0.3699,-0.4465,1.0451,0.1421,-1.0357,2042
15,-0.6204,-0.3516,-0.4336,1.0676,0.1439,-1.0862,2029
15,-0.5964,-0.3457,-0.4368,1.023,0.0936,-1.1263,2043
15,-0.5762,-0.3301,-0.4792,0.9874,0.1111,-1.1568,2036
15,-0.5452,-0.3101,-0.5037,1.0531,0.0907,-1.1736,2034
15,-0.4958,-0.3118,-0.5105,1.0626,0.0535,-1.2037,2049
15,-0.449,-0.3176,-0.5222,1.0694,0.0775,-1.2515,2043
15,-0.4114,-0.3354,-0.5085,1.1254,0.1392,-1.3043,2044
15,-0.3953,-0.3794,-0.4548,1.1856,0.1409,-1.3531,2052
15,-0.3918,-0.4448,-0.4617,1.2172,0.2044,-1.3909,2054
15,-0.3882,-0.4968,-0.4771,1.2643,0.3241,-1.4411,2047
15,-0.4275,-0.531,-0.46,1.3339,0.452,-1.4665,2046
15,-0.4756,-0.5588,-0.4243,1.3777,0.5355,-1.4657,2056
15,-0.4866,-0.583,-0.4062,1.3496,0.5779,-1.3727,2070
15,-0.4875,-0.5242,-0.4951,1.3346,0.6598,-1.3615,2045
15,-0.4482,-0.4258,-0.4788,1.3946,0.7409,-1.4537,2039
15,-0.4426,-0.4033,-0.408,1.4636,0.7967,-1.5492,2031
15,-0.394,-0.4714,-0.4377,1.5202,0.7965,-1.5295,2045
15,-0.3379,-0.5537,-0.4812,1.635,0.8054,-1.5197,2044
15,-0.2361,-0.6675,-0.5332,1.8486,0.9086,-1.5781,2054
15,-0.1924,-0.8186,-0.5879,1.9582,1.1143,-1.6074,2040
15,-0.207,-0.9978,-0.5203,2.1273,1.1198,-1.6326,2044
15,-0.2031,-1.1721,-0.4761,2.1347,1.1074,-1.6237,2036
15,-0.1863,-1.2253,-0.4646,2.1598,1.1885,-1.6599,2043
15,-0.2271,-1.2031,-0.3774,2.1265,1.328,-1.749,2035
15,-0.2793,-1.2227,-0.4238,1.8225,1.5837,-1.8743,2038
15,-0.2646,-1.4031,-0.543,1.5247,1.7126,-2.0908,2025
15,-0.1882,-1.4414,-0.5559,1.4398,1.5458,-2.3447,2044
15,-0.1013,-1.4482,-0.5732,1.5793,1.301,-2.655,2063
15,-0.0615,-1.573,-0.502,1.6932,1.1708,-2.9233,2055
15,0.0356,-1.7554,-0.5117,1.5291,1.2452,-3.1307,2050
16,0.186,-1.7183,-0.5095,1.4976,1.2296,-3.3294,2045
16,0.1917,-1.7288,-0.5647,1.33,1.1101,-3.5312,2056
16,0.0093,-1.8958,-0.5217,1.0228,0.7051,-3.6524,2053
16,-0.2039,-1.9897,-0.5371,0.6927,0.1084,-3.8855,2029
16,-0.4434,-1.8787,-0.6084,0.5562,-0.3569,-3.9306,2024
16,-0.5798,-1.6921,-0.5046,0.4798,-0.8716,-4.0843,2056
16,-0.7058,-1.5242,-0.4824,0.4988,-0.8606,-4.2909,2055
16,-0.9514,-1.396,-0.5432,0.5088,-0.6051,-4.3236,2060
16,-1.4043,-1.1831,-0.8701,0.814,-0.5718,-4.0905,2070
16,-2.0,-0.8237,-0.9514,0.6656,-0.0272,-3.1368,2071
16,-2.0,-0.2695,-0.6548,0.7331,1.0785,-1.9473,2032
16,-2.0,0.0503,-0.3745,1.2408,0.9483,-2.1632,2007
16,-1.6746,0.3384,-0.2468,0.9399,3.0572,-3.1337,1972
16,0.7024,1.4714,0.4167,1.9326,1.3936,-3.054,2201
16,-1.636,-2.0,0.2729,0.0382,3.0091,-0.5903,2226
16,-2.0,-2.0,0.8901,-1.472,-2.1838,4.3634,1820
16,-2.0,-2.0,0.7756,-4.3635,3.4007,4.2718,1870
16,0.0239,-0.0439,-0.6433,-2.7741,3.4958,1.6811,2064
16,0.5579,0.6941,-0.6211,-3.3295,2.4899,0.7257,2187
16,1.7239,0.1741,-1.0762,-2.0434,0.1362,0.9998,2117
16,1.8459,-0.1262,-0.9456,-1.6747,-0.7582,3.2082,2115
16,0.1838,-0.0938,-0.8506,-1.5059,-0.5068,3.4934,2142
16,-0.6316,-0.6965,-0.8667,-0.974,-0.5506,3.2867,1889
16,-0.5078,-1.3728,-1.0232,-0.8549,0.1072,3.5532,2032
16,-0.5535,-1.2996,-0.7314,-0.9421,0.6016,3.2058,2040
16,-0.5205,-0.8579,-0.4338,-1.0728,0.4464,3.1408,1937
16,-0.3152,-0.4705,-0.4902,-1.2596,-0.0852,3.1042,2157
16,-0.2961,-0.3923,-0.2903,-1.374,-0.5743,2.9381,2033
16,-0.4226,-0.5688,-0.3401,-1.4902,-0.8598,2.7798,1946
16,-0.4468,-0.7068,-0.458,-1.6467,-1.1367,2.6538,2070
16,-0.3501,-0.7163,-0.5408,-1.7386,-1.1236,2.5778,2006
16,-0.3159,-0.6411,-0.6211,-1.7088,-1.1035,2.4017,2016
16,-0.3132,-0.6604,-0.6157,-1.7399,-1.1543,2.3653,2111
16,-0.2737,-0.6628,-0.5417,-1.7483,-1.2149,2.2782,2180
16,-0.1921,-0.6848,-0.5471,-1.759,-1.2924,2.2887,2016
16,-0.2986,-0.6492,-0.5427,-1.7306,-1.179,2.2361,2153
16,-0.4072,-0.5867,-0.491,-1.7018,-1.1733,2.1358,2046
16,-0.4268,-0.5603,-0.4675,-1.6069,-1.0878,2.1146,2100
16,-0.4978,-0.5776,-0.5112,-1.535,-0.9416,2.0843,2118
16,-0.5503,-0.5615,-0.499,-1.4957,-0.807,2.0241,1937
16,-0.53,-0.5366,-0.575,-1.4013,-0.759,2.0007,2016
16,-0.5483,-0.5935,-0.5073,-1.4171,-0.7103,1.8317,2091
16,-0.5608,-0.6057,-0.4199,-1.3659,-0.7267,1.7928,2049
16,-0.5957,-0.5928,-0.4187,-1.3355,-0.77,1.77,2167
16,-0.5652,-0.5164,-0.4597,-1.3366,-0.8039,1.7427,2081
16,-0.7021,-0.5591,-0.5183,-1.3259,-0.7188,1.6649,1938
16,-0.6953,-0.5356,-0.5251,-1.3109,-0.6847,1.5458,2044
16,-0.6335,-0.4861,-0.6055,-1.2829,-0.6179,1.5713,2135
16,-0.6868,-0.4348,-0.5547,-1.24,-0.5659,1.5436,2032
16,-0.6501,-0.4556,-0.5381,-1.2371,-0.6472,1.5447,2006
16,-0.646,-0.4534,-0.5674,-1.1722,-0.7405,1.5326,2119
16,-0.739,-0.4407,-0.553,-1.1119,-0.7749,1.4732,2174
16,-0.7954,-0.4465,-0.5059,-1.1176,-0.8448,1.3687,2082
16,-0.8174,-0.3975,-0.5166,-1.19,-0.6874,1.1547,2051
16,-0.7173,-0.2925,-0.5083,-1.1271,-0.6524,1.2833,1956
16,-0.762,-0.2695,-0.5562,-1.1525,-0.6739,1.1393,2169
16,-0.6372,-0.2664,-0.5356,-1.1276,-0.7092,1.0319,2084
16,-0.6255,-0.2297,-0.5828,-1.1065,-0.6972,0.9798,2041
16,-0.6279,-0.2026,-0.5879,-1.0316,-0.7119,0.8473,2085
16,-0.6514,-0.1306,-0.6685,-0.8688,-0.8871,0.765,2123
16,-0.6995,-0.1404,-0.6736,-0.7823,-0.9116,0.673,2060
16,-0.6785,-0.1982,-0.657,-0.719,-0.9127,0.5655,2060
16,-0.6599,-0.1965,-0.644,-0.6577,-0.91,0.5265,2057
16,-0.668,-0.1775,-0.6448,-0.603,-0.9211,0.4991,2055
16,-0.689,-0.1594,-0.5913,-0.5548,-0.9195,0.4745,2050
16,-0.7053,-0.1338,-0.5916,-0.4924,-0.8901,0.4626,2063
16,-0.7415,-0.093,-0.5938,-0.4576,-0.883,0.4514,2031
16,-0.7317,-0.0269,-0.6016,-0.3793,-0.9664,0.3827,2065
16,-0.7544,0.0217,-0.6782,-0.3984,-1.0267,0.3016,2065
16,-0.7434,0.093,-0.7412,-0.2814,-1.2583,0.185,2058
16,-0.7676,0.1448,-0.8667,-0.2614,-1.3921,0.0614,2059
16,-0.8425,0.1042,-0.8518,-0.4204,-1.3647,-0.079,2045
16,-0.9253,0.0549,-0.8853,-0.6434,-1.1545,-0.0726,2052
16,-0.9631,0.0564,-0.8718,-0.8501,-0.9721,-0.1404,2046
16,-0.8721,0.0916,-0.8201,-1.0063,-0.8874,-0.0991,2041
16,-0.8179,0.0979,-0.8306,-1.1211,-0.8272,0.0127,2049
16,-0.7876,0.1492,-0.8169,-1.0224,-0.6654,-0.1088,2044
16,-0.7395,0.1238,-0.8025,-0.724,-0.7201,0.0229,2051
16,-0.7354,0.051,-0.7456,-0.5373,-0.7697,0.1096,2063
16,-0.7024,-0.0117,-0.6816,-0.4192,-0.7899,0.1388,2052
16,-0.6965,-0.0303,-0.6431,-0.3722,-0.819,0.0469,2057
16,-0.6821,-0.0378,-0.6458,-0.3151,-0.8307,-0.0752,2053
16,-0.666,-0.0273,-0.6699,-0.2571,-0.7541,-0.1736,2057
16,-0.6265,-0.0476,-0.6772,-0.0997,-0.7042,-0.184,2052
16,-0.5842,-0.0623,-0.6448,0.0395,-0.6432,-0.299,2043
16,-0.4939,-0.061,-0.5967,0.1716,-0.5867,-0.4159,2039
16,-0.4368,-0.1018,-0.5457,0.4185,-0.4786,-0.5477,2047
16,-0.3818,-0.1721,-0.5122,0.6813,-0.3428,-0.6758,2046
16,-0.3374,-0.2432,-0.4817,0.8713,-0.31,-0.8897,2046
16,-0.2864,-0.3293,-0.4019,1.1878,-0.3738,-1.0749,2047
16,-0.2932,-0.4148,-0.3413,1.5287,-0.4801,-1.1503,2055
16,-0.3547,-0.502,-0.3054,1.8287,-0.4766,-1.3149,2040
16,-0.467,-0.6804,-0.2524,2.0588,-0.4742,-1.2982,2042
16,-0.5654,-0.9285,-0.2219,2.0325,-0.6959,-0.9602,2046
16,-0.7461,-1.0571,-0.3206,1.587,-0.5641,-0.5504,2046
16,-0.7617,-0.7632,-0.4741,0.9934,0.0097,-0.7747,2067
16,-0.5894,-0.417,-0.3862,0.7549,0.757,-1.0307,2085
16,-0.512,-0.2861,-0.2437,0.8035,1.2777,-1.218,2040
16,-0.4023,-0.2712,-0.175,0.9143,1.0941,-1.37,2034
16,-0.3169,-0.2949,-0.2881,0.7681,0.5421,-1.4023,2063
16,-0.3726,-0.2803,-0.5134,0.7044,0.3662,-1.2683,2050
16,-0.5127,-0.2622,-0.5159,0.7874,0.1712,-1.2709,2043
16,-0.5581,-0.2805,-0.3328,0.8023,-0.1712,-1.2722,2029
16,-0.5173,-0.2925,-0.2463,0.8287,-0.3982,-1.291,2039
16,-0.4951,-0.3533,-0.2676,0.9042,-0.2523,-1.428,2041
16,-0.4304,-0.4636,-0.324,0.9297,0.108,-1.6179,2037
16,-0.3701,-0.5837,-0.3567,0.7935,0.4978,-1.6837,2051
17,-0.3672,-0.6882,-0.4187,0.6221,0.7264,-1.7032,2040
17,-0.2893,-0.6624,-0.4341,0.6159,0.8106,-1.6926,2049
17,-0.2163,-0.5825,-0.4502,0.679,0.8401,-1.6906,2054
17,-0.187,-0.5122,-0.5176,0.8939,1.0022,-1.7667,2046
17,-0.2668,-0.5337,-0.4463,1.0646,1.0983,-1.8338,2056
17,-0.2629,-0.666,-0.417,1.0568,1.291,-1.8556,2056
17,-0.2161,-0.8374,-0.499,1.0875,1.7799,-1.8229,2045
17,-0.1721,-0.979,-0.5574,0.9991,2.2084,-1.7166,2057
17,-0.2739,-1.0483,-0.7502,0.8437,2.1933,-1.7544,2055
17,-0.3906,-1.0066,-0.9312,0.8973,1.8056,-1.8888,2054
17,-0.4861,-0.9746,-0.9517,1.1364,1.5197,-1.9884,2044
17,-0.4976,-0.929,-0.7417,1.3768,1.3988,-2.3004,2054
17,-0.3757,-1.0125,-0.6287,1.4801,1.629,-2.6575,2042
17,-0.2107,-1.1345,-0.5251,1.6908,2.0228,-2.9273,2051
17,-0.1096,-1.241,-0.5117,1.8777,2.1647,-3.075,2051
17,-0.1191,-1.3621,-0.5762,1.792,2.2024,-3.2017,2041
17,-0.2095,-1.4626,-0.6956,1.6952,1.9856,-3.3436,2040
17,-0.3672,-1.5032,-0.8423,1.6572,1.7021,-3.5531,2063
17,-0.5452,-1.4712,-0.8901,1.5491,1.0597,-3.905,2055
17,-0.6775,-1.3242,-0.8789,1.721,0.3377,-4.2381,2044
17,-0.7917,-1.2349,-0.8718,1.8363,0.1257,-4.3635,2038
17,-0.9478,-1.2725,-0.9133,1.943,0.012,-4.3635,2046
17,-1.385,-1.1606,-0.9968,2.0497,-0.1226,-4.3635,2037
17,-1.6453,-0.9824,-0.6084,2.0869,-0.4727,-4.3635,1997
17,-1.457,-0.8257,-0.5095,2.0118,-0.3866,-4.3517,1968
17,-1.2437,-0.8342,-0.6489,1.7736,-0.0192,-4.3635,2047
17,-1.5073,-0.7864,-0.6926,1.5827,-0.3196,-4.3624,2066
17,-1.9253,-0.2793,-0.6074,1.9117,-0.2998,-3.1694,2068
17,-1.5276,-0.4102,-0.3906,1.6962,-0.1958,-3.6721,2076
17,-0.6858,-0.4917,-0.4514,1.3186,0.4016,-4.0805,2064
17,0.1831,-0.4563,-1.0413,1.2865,0.6664,-3.8185,2054
17,0.562,-0.7432,0.6323,1.3467,-3.6121,-2.7911,2137
17,-2.0,-2.0,1.7654,2.3762,-4.3635,3.756,2125
17,-2.0,-2.0,1.9999,-2.5705,-1.1595,4.3634,1860
17,-2.0,-2.0,0.0085,-4.3635,1.4372,4.3634,2098
17,-2.0,0.4463,-0.6882,-3.1881,3.5322,0.8408,2171
17,-0.2603,1.3162,-0.7473,-1.5596,4.2431,0.3006,2156
17,-0.1843,0.6941,-1.5742,-2.7932,4.3634,1.9739,1939
17,0.0652,-0.0784,-1.5461,-2.4004,4.3634,2.852,2015
17,1.1917,-0.1592,-1.5627,-1.4426,2.9906,3.3931,2082
17,1.8022,-0.0469,-1.0493,-0.5908,0.8889,3.5991,2072
17,1.3489,-0.2861,-0.626,-0.4595,0.2758,3.0152,2053
17,-0.0452,-0.4419,-0.8208,-0.5305,-0.2986,2.4928,2051
17,-0.5757,-0.5193,-0.7209,-0.1443,-0.7841,2.1778,2048
17,-0.355,-0.6912,-0.6899,0.0342,-0.3294,2.2084,2041
17,-0.2805,-0.7852,-0.3821,0.0993,-0.0759,2.5167,2028
17,-0.3914,-0.78,-0.1604,-0.1005,-0.1441,2.1465,2041
17,-0.5396,-0.7246,-0.208,-0.2161,-0.1,1.8606,2038
17,-0.6731,-0.6436,-0.3306,-0.1542,0.0503,1.8002,2042
17,-0.6726,-0.7241,-0.3696,-0.285,0.223,1.8121,2041
17,-0.6511,-0.813,-0.4355,-0.3824,0.2377,1.7875,2038
17,-0.5427,-0.7817,-0.5364,-0.4694,0.1196,1.6416,2058
17,-0.4429,-0.7524,-0.6345,-0.4927,0.1993,1.4765,2046
17,-0.354,-0.7529,-0.4915,-0.4173,-0.0407,1.3527,2048
17,-0.2798,-0.7441,-0.5703,-0.3072,-0.5086,1.2744,2068
17,-0.2446,-0.7515,-0.5515,-0.2622,-0.7415,1.2017,2046
17,-0.3359,-0.7961,-0.5681,-0.1791,-0.915,1.3167,2056
17,-0.4639,-0.8416,-0.5513,-0.0439,-0.8329,1.4591,2043
17,-0.6123,-0.9089,-0.5786,0.029,-0.4888,1.5633,2057
17,-0.5696,-1.0063,-0.4346,0.0891,-0.3156,1.5061,2052
17,-0.5105,-0.9966,-0.365,0.1241,-0.0961,1.5362,2062
17,-0.4319,-0.8789,-0.2998,0.3136,0.0619,1.6095,2087
17,-0.4211,-0.7966,-0.3169,0.4749,0.2039,1.6522,2044
17,-0.46,-0.8042,-0.2883,0.6661,0.186,1.6776,2040
17,-0.4573,-0.854,-0.2598,0.8526,0.102,1.7395,2045
17,-0.4045,-0.8433,-0.2334,0.9918,-0.0281,1.7683,2054
17,-0.4412,-0.8176,-0.218,1.2206,-0.057,1.7795,2049
17,-0.5151,-0.7805,-0.2512,1.3352,-0.1693,1.7598,2051
17,-0.5886,-0.7844,-0.323,1.3705,-0.1181,1.6875,2055
17,-0.551,-0.6814,-0.3428,1.5949,0.0843,1.6246,2045
17,-0.5713,-0.5608,-0.1428,1.8387,0.1278,1.5463,2042
17,-0.4893,-0.6313,-0.1501,1.9967,0.1908,1.6203,2059
17,-0.5134,-0.8379,-0.2983,1.9604,0.2748,1.5832,2049
17,-2.0,-2.0,1.0728,4.3634,-4.1317,3.2303,1656
17,0.1338,1.345,1.5979,-0.1732,-1.5277,0.4079,1621
17,0.0454,-1.1821,-2.0,0.1593,2.8767,0.6072,2052
17,-0.2744,-1.2097,-1.2546,-0.0274,1.2239,0.7316,2336
17,-0.3286,-1.165,-1.0107,-0.1594,0.1384,0.8255,2448
17,-0.1321,-1.0574,-1.0093,-0.0963,0.1795,0.8004,2157
17,-0.2063,-0.9851,-0.9192,0.0121,0.1175,0.6967,2042
17,-0.1755,-0.9045,-0.8093,0.0322,0.0009,0.6112,2040
17,-0.0369,-0.8867,-0.6455,0.0645,0.324,0.8345,2054
17,-0.0481,-0.8743,-0.533,0.0738,0.5075,1.2587,2049
17,-0.0164,-0.7815,-0.6206,-0.0233,0.2059,1.5387,2047
17,-0.2642,-0.6594,-0.3496,0.1989,0.3783,0.7882,2055
17,0.0161,-1.0281,-0.2375,-0.0421,-0.2332,0.2815,2037
17,-0.0679,-0.8149,-0.1877,-0.1246,-0.3886,0.2373,2046
17,-0.0728,-0.8943,-0.1125,-0.543,-0.7729,0.0035,2051
17,-0.2527,-0.8494,-0.124,-0.8307,-0.7348,-0.1177,2076
17,-0.3921,-0.8149,-0.1692,-0.7814,-0.6231,-0.1735,2053
17,-0.4875,-0.8318,-0.2395,-0.4976,-0.4109,-0.1583,1954
17,-0.5012,-0.8303,-0.1289,-0.0302,-0.3084,-0.1376,2023
17,-0.4246,-0.8562,-0.1453,0.2715,-0.1674,-0.0523,2028
17,-0.4331,-0.906,-0.2317,0.3537,0.1157,-0.1104,1993
17,-0.572,-0.9009,-0.2449,0.43,0.3036,-0.1044,2054
17,-0.6521,-0.8503,-0.2463,0.3942,0.3783,0.0089,2002
17,-0.6582,-0.6958,-0.2974,0.4361,0.7377,0.1088,2040
17,-0.6931,-0.6516,-0.2678,0.4421,0.8975,0.1899,2084
17,-0.7817,-0.7925,-0.3577,0.4145,0.7727,0.0917,2066
17,-0.7957,-0.9561,-0.3748,0.4598,0.6046,0.0631,2064
17,-0.7678,-1.0117,-0.4011,0.3787,0.4613,0.0577,2061
17,-0.7473,-0.9631,-0.4316,0.4004,0.293,-0.0023,2046
17,-0.7698,-0.8843,-0.4526,0.4179,0.2145,0.032,2045
