Timestamp,Ax,Ay,Az,Rx,Ry,Rz,EMG
0,-0.0068,-1.4531,-0.6025,0.027,0.0921,-0.2854,2054
0,-0.0759,-1.3047,-0.6775,0.0541,0.1083,-0.2908,2037
0,-0.1147,-1.2886,-0.6047,0.2288,0.1691,-0.3872,2047
0,-0.103,-1.394,-0.5476,0.3068,0.1051,-0.4245,2042
0,-0.0349,-1.386,-0.4404,0.2005,-0.0662,-0.3687,2044
0,-0.2039,-1.3184,-0.4229,0.1654,-0.0654,-0.3943,2041
0,-0.2,-1.2993,-0.4172,0.0706,-0.1069,-0.392,2052
0,-0.3105,-1.1045,-0.3518,0.1012,0.1792,-0.3895,2057
0,-0.3184,-1.1946,-0.3499,0.0346,0.4613,-0.4976,2052
0,-0.1682,-1.1829,-0.3171,-0.0188,0.5502,-0.54,2053
0,-0.1416,-1.1667,-0.4241,0.0154,0.5099,-0.5958,2053
0,-0.1443,-1.1519,-0.5134,0.0924,0.2522,-0.5986,2024
0,-0.3206,-1.1912,-0.4453,0.1851,0.2081,-0.5171,2031
0,-0.385,-1.1848,-0.385,0.3107,0.2658,-0.5107,2021
0,-0.3887,-1.2209,-0.3953,0.4136,0.4196,-0.4735,2051
0,-0.5334,-1.262,-0.3186,0.3263,0.2619,-0.4229,2058
0,-0.6438,-1.0793,-0.3987,0.4412,0.4263,-0.4778,2075
0,-0.5522,-1.3853,-0.3411,0.1264,0.5485,-0.4802,2033
0,-0.6265,-1.2551,-0.322,0.0045,0.6664,-0.4249,2042
0,-0.6204,-1.2493,-0.3547,0.0368,1.0886,-0.3213,2030
0,-0.4827,-1.198,-0.2485,0.1113,1.2058,-0.3263,2032
0,-0.4773,-1.0332,-0.2957,0.4561,1.5073,-0.2498,2041
0,-0.2969,-1.4006,-0.262,0.196,1.2037,-0.2783,2032
0,-0.3474,-1.2146,-0.429,0.0878,0.926,-0.0868,2054
0,-0.2861,-1.3003,-0.3682,-0.0493,0.5259,-0.0495,2043
0,-0.3149,-1.2822,-0.5474,-0.1324,0.3868,-0.1364,2040
0,-0.1665,-1.2219,-0.6609,-0.2045,0.0892,-0.212,2047
0,-0.1367,-1.1013,-0.8145,-0.1328,-0.1053,-0.1626,2000
0,-0.3645,-1.0457,-0.5859,0.3051,-0.3362,-0.1854,2078
0,-0.3977,-1.0425,-0.4841,0.6915,-0.3392,-0.1641,2060
0,-0.4807,-1.1414,-0.4658,0.9733,-0.1007,-0.0593,2056
0,-0.4983,-1.1787,-0.4568,1.1672,0.149,0.0574,2063
0,-0.3652,-1.1792,-0.4138,1.2382,0.2709,0.1091,2056
0,-0.3691,-1.1855,-0.3792,1.2603,0.2898,0.195,2077
0,-0.4133,-1.1775,-0.2917,1.2399,0.2983,0.2099,2032
0,-0.3315,-1.3555,-0.376,1.0568,0.4019,0.2454,2030
0,-0.0439,-1.3369,-0.4646,0.8787,0.4826,0.135,2019
0,-0.0259,-1.1714,-0.4241,0.905,0.4767,0.2205,2039
0,-0.1523,-1.1306,-0.439,0.9361,0.2759,0.2418,2073
0,-0.2336,-1.2292,-0.4546,0.8163,0.2136,0.1309,2000
0,-0.2039,-1.3569,-0.4043,0.541,0.2241,0.0917,1984
0,-0.1013,-1.2742,-0.4211,0.4248,0.1035,0.0894,2056
0,0.0227,-1.1658,-0.374,0.3036,-0.068,-0.0602,2012
0,-0.0334,-1.1616,-0.4224,0.1593,-0.1312,-0.0249,2084
0,-0.2192,-1.2205,-0.6157,0.2554,-0.0198,0.1711,2040
0,-0.2795,-1.1265,-0.7229,0.1827,0.4151,0.0224,2010
0,-0.1326,-1.0847,-0.5767,0.2842,0.5962,0.0836,2081
0,-0.0076,-1.0974,-0.5542,0.3125,0.7474,0.0437,2064
0,-0.2415,-1.1045,-0.6067,0.6315,0.766,0.2884,2016
0,-0.1204,-1.2888,-0.4348,0.5613,0.7339,0.1378,2036
0,-0.1155,-1.0381,-0.3118,0.6146,0.644,0.1406,2054
0,-0.3098,-1.2805,-0.3569,0.5128,0.7192,0.1955,2019
0,-0.2646,-1.145,-0.3394,0.44,0.8757,0.1806,2054
0,-0.218,-0.905,-0.2773,0.6897,1.1263,0.1824,2100
0,-0.1318,-1.3342,-0.3264,0.3814,0.7268,0.1819,2062
0,-0.2646,-1.1196,-0.3999,0.3389,0.7498,0.1613,2034
0,-0.2471,-1.1177,-0.3691,0.3337,0.6263,0.1591,2005
0,-0.3066,-1.1665,-0.3171,0.2735,0.7373,0.1898,2074
0,-0.2754,-1.1108,-0.3408,0.214,0.8989,0.1352,1995
0,-0.2039,-1.1597,-0.3333,0.1585,1.1423,0.1161,2060
0,-0.4441,-0.8047,-0.3098,0.5004,1.8114,0.0613,2003
0,0.0498,-1.3438,-0.3645,0.131,1.1238,-0.0003,2083
0,0.0454,-1.1072,-0.4419,-0.0092,0.7313,0.0382,2043
0,0.0559,-1.0986,-0.4216,-0.0425,0.4461,-0.0522,2039
0,-0.2441,-0.8706,-0.4939,0.1708,0.712,-0.21,2070
0,0.0283,-1.3293,-0.4897,-0.1523,0.1647,-0.0591,2060
0,-0.1589,-1.1506,-0.5413,-0.2545,0.2007,-0.0485,2006
0,-0.3125,-0.9465,-0.5454,-0.1413,0.5807,-0.1704,2012
0,-0.002,-1.2407,-0.5117,-0.377,0.0041,-0.1204,1940
0,-0.1687,-1.1008,-0.5249,-0.4248,-0.0297,-0.0883,2055
0,-0.2634,-1.1023,-0.5349,-0.4763,-0.0154,-0.0882,2032
0,-0.2854,-0.9753,-0.4827,-0.3137,0.2116,-0.1413,2024
0,-0.0916,-1.1995,-0.4941,-0.388,-0.104,-0.1438,2082
0,-0.2405,-1.1008,-0.5154,-0.3848,-0.0414,-0.1173,2061
0,-0.2629,-1.115,-0.4128,-0.3345,-0.1023,-0.1234,1994
0,-0.3125,-1.1467,-0.4048,-0.3863,0.0807,-0.1056,2042
0,-0.2842,-1.1313,-0.4619,-0.328,0.2401,-0.0545,2127
0,-0.2146,-1.2102,-0.2944,-0.2943,0.1743,-0.0615,1968
0,-0.127,-1.1331,-0.3044,-0.0321,0.0218,-0.03,2031
0,-0.2429,-1.1667,-0.5281,-0.198,0.3726,0.0482,2027
0,-0.3762,-1.1677,-0.3091,-0.0996,-0.0138,0.0349,2030
0,-0.2683,-1.1182,-0.3987,-0.09,0.1631,0.0112,1999
0,-0.3459,-1.0649,-0.3699,0.0485,0.1108,0.0004,2075
0,-0.384,-1.2034,-0.364,0.0285,-0.0372,-0.0447,1916
0,-0.375,-1.1909,-0.364,0.0342,-0.0955,-0.0933,2048
0,-0.4036,-1.2278,-0.3708,0.0189,-0.1886,-0.0858,2040
0,-0.2773,-1.2493,-0.4478,0.0027,-0.2366,-0.0317,2037
0,-0.2854,-1.1963,-0.4421,0.0298,-0.2233,0.0619,2072
0,-0.3879,-1.2085,-0.4614,0.1071,-0.1332,0.1653,2041
0,-0.4033,-1.1775,-0.4966,0.1317,0.0838,0.2819,2092
0,-0.4116,-1.1199,-0.5269,0.1951,0.2498,0.3277,2034
0,-0.2771,-1.0623,-0.5471,0.2641,0.2614,0.3341,2025
0,-0.2222,-1.0588,-0.5022,0.3474,0.0149,0.3079,2027
0,-0.1477,-1.0767,-0.5471,0.3871,-0.2389,0.2277,2058
0,-0.1921,-1.1086,-0.5042,0.4622,-0.602,0.1372,2020
0,-0.1919,-1.1416,-0.5176,0.4936,-0.7375,0.0491,2034
0,-0.2454,-1.1821,-0.5405,0.4932,-0.887,-0.0045,2028
0,-0.2407,-1.1804,-0.5686,0.518,-1.0014,-0.0702,2107
0,-0.2439,-1.2295,-0.6282,0.5289,-1.0559,-0.0968,2050
0,-0.2795,-1.2864,-0.6479,0.5518,-1.1276,-0.1163,2020
1,-0.2766,-1.3127,-0.6792,0.538,-1.0817,-0.0784,2053
1,-0.272,-1.2964,-0.6543,0.5327,-0.9879,-0.0085,2053
1,-0.3184,-1.2957,-0.6929,0.5,-0.8601,0.0784,2036
1,-0.3286,-1.302,-0.7566,0.4794,-0.7957,0.1329,2082
1,-0.2825,-1.2371,-0.7607,0.5452,-0.8007,0.1049,2059
1,-0.3298,-1.2195,-0.6792,0.5602,-0.8172,0.0353,2046
1,-0.4548,-1.2534,-0.6616,0.5396,-0.7112,0.0048,2057
1,-0.5134,-1.2063,-0.6243,0.5303,-0.5177,-0.0411,2065
1,-0.4358,-1.217,-0.5627,0.4706,-0.4255,-0.0799,2038
1,-0.3752,-1.2512,-0.5471,0.4489,-0.3954,-0.1025,2064
1,-0.2649,-1.2673,-0.427,0.394,-0.5243,-0.0051,2054
1,-0.2383,-1.3145,-0.3726,0.2484,-0.6942,0.1758,2046
1,-0.1877,-1.3503,-0.4058,0.0507,-0.8672,0.2036,2057
1,-0.0491,-1.3013,-0.4326,-0.0119,-1.0472,0.2848,2041
1,-0.1074,-1.1155,-0.4448,0.0224,-1.2187,0.1445,2075
1,-0.1716,-1.1235,-0.5051,0.0993,-1.2975,0.1734,2034
1,-0.1711,-1.1621,-0.4446,0.263,-1.4162,0.2081,2024
1,-0.1404,-1.1697,-0.4729,0.3004,-1.3412,0.3,2038
1,-0.0691,-1.1797,-0.4624,0.3914,-1.3006,0.3505,2066
1,-0.0437,-1.1978,-0.3867,0.4838,-1.3492,0.4081,2058
1,-0.1384,-1.1262,-0.3601,0.5353,-1.169,0.4826,1998
1,-0.1777,-1.1409,-0.3098,0.5789,-0.7423,0.4699,2017
1,-0.2163,-1.2568,-0.2935,0.4874,-0.4155,0.449,2032
1,-0.1938,-1.1221,-0.2942,0.5172,-0.1222,0.4219,2028
1,-0.0205,-1.1323,-0.3218,0.4904,0.039,0.3926,2044
1,0.1465,-1.1995,-0.3311,0.4936,0.0298,0.3711,2035
1,0.1064,-1.1353,-0.2173,0.5405,-0.2521,0.3521,2052
1,-0.0308,-1.1294,-0.2034,0.553,-0.4334,0.3622,2113
1,-0.2114,-1.2175,-0.0977,0.3607,-0.4943,0.3546,2069
1,-0.2344,-1.1421,-0.1685,0.3024,-0.4797,0.3578,2037
1,-0.4041,-1.0886,-0.2119,0.2304,-0.3317,0.4036,1988
1,-0.4558,-1.0935,-0.0837,0.34,-0.2541,0.4437,2117
1,-0.3984,-1.1538,-0.1536,0.2376,-0.0397,0.4406,2034
1,-0.3101,-1.1409,-0.2449,0.149,0.0378,0.5785,2016
1,-0.2842,-1.1089,-0.2031,0.1792,0.0413,0.5332,2025
1,-0.2839,-1.2498,-0.1785,0.1055,0.2683,0.6146,2023
1,-0.3621,-1.0569,-0.3149,0.1356,0.3814,0.6544,2006
1,-0.3003,-1.0557,-0.3396,0.1999,0.5036,0.6233,2075
1,-0.23,-1.2063,-0.4119,0.195,0.5514,0.6189,2171
1,-0.1433,-1.3054,-0.4448,0.0071,0.4601,0.8722,1932
1,-0.1619,-0.9873,-0.5068,0.2842,0.175,0.6034,2075
1,-0.218,-1.1584,-0.4541,0.3436,0.121,0.644,2022
1,-0.3545,-1.1252,-0.3672,0.3392,0.1756,0.6826,2103
1,-0.4243,-1.1294,-0.3174,0.1987,0.3579,0.7596,2046
1,-0.4028,-1.1909,-0.343,-0.0815,0.6604,0.8939,2134
1,-0.3994,-0.8853,-0.5139,-0.0646,0.712,0.8897,2023
1,-0.2312,-1.0391,-0.4736,-0.0322,0.5497,0.8042,1956
1,-0.1235,-1.0815,-0.3784,0.21,0.2208,0.7763,2118
1,-0.2327,-1.1714,-0.3235,0.3008,0.022,0.8082,2043
1,-0.3284,-1.2402,-0.2568,0.2709,-0.076,0.8518,2104
1,-0.364,-1.2874,-0.2205,0.1169,0.0368,0.9323,2125
1,-0.3987,-1.2153,-0.2947,-0.0739,0.1883,0.9477,2035
1,-0.4861,-1.0403,-0.3508,-0.1244,0.2886,0.8897,1932
1,-0.4968,-0.9253,-0.4258,-0.0288,0.2783,0.8491,1955
1,-0.4414,-0.9307,-0.4346,0.1233,0.1707,0.8497,2082
1,-0.4246,-0.9648,-0.4568,0.2529,0.1906,0.8621,1967
1,-0.4954,-1.0566,-0.4131,0.2597,0.2301,0.9138,2008
1,-0.4089,-1.1104,-0.3938,0.1493,0.306,0.9544,2120
1,-0.3569,-1.0679,-0.4214,0.0521,0.233,0.9557,1995
1,-0.3606,-1.0535,-0.4883,-0.0599,0.3324,1.0838,1851
1,-0.3074,-0.9749,-0.4729,0.0012,0.0317,0.8701,1986
1,-0.427,-0.9443,-0.3628,0.1336,-0.1408,0.8408,2067
1,-0.4165,-1.0745,-0.3101,0.2201,-0.1023,0.7773,2151
1,-0.585,-1.134,-0.2515,0.226,0.129,0.7561,2108
1,-0.7456,-1.2556,-0.1531,0.0119,0.73,0.7759,2050
1,-0.5879,-1.123,-0.2009,0.0278,0.5442,0.7576,2175
1,-0.5571,-1.1646,-0.2537,-0.0169,0.5116,0.7919,1941
1,-0.5535,-1.1267,-0.3425,0.0059,0.4249,0.7468,1923
1,-0.5085,-1.1433,-0.259,0.0759,0.235,0.6845,2059
1,-0.5164,-1.1477,-0.2573,0.0573,0.2073,0.6324,2067
1,-0.5662,-1.0005,-0.2539,0.1346,0.3508,0.5986,1983
1,-0.6143,-0.9905,-0.2605,0.1643,0.632,0.5809,2056
1,-0.457,-1.1082,-0.3408,0.1336,0.7697,0.558,1934
1,-0.386,-1.2834,-0.4868,-0.0969,1.1002,0.6877,2000
1,-0.2556,-1.0938,-0.5737,0.1573,0.4437,0.4726,2012
1,-0.3748,-1.1248,-0.4976,0.1958,0.2101,0.3927,1989
1,-0.6128,-1.1917,-0.3232,0.0651,0.3715,0.3539,2116
1,-0.5933,-0.918,-0.3132,0.2225,0.2282,0.2625,2072
1,-0.647,-1.0493,-0.1531,0.2959,0.2565,0.2409,2016
1,-0.8389,-1.4097,-0.03,0.0013,0.7987,0.2527,1984
1,-0.6899,-1.0454,-0.2173,0.1723,0.7437,0.2563,2012
1,-0.6191,-1.1106,-0.3833,0.222,0.8006,0.2309,2037
1,-0.4783,-1.1528,-0.5679,0.2225,0.7139,0.371,1924
1,-0.4814,-1.0376,-0.7278,0.3328,0.545,0.4858,2024
1,-0.4592,-0.9609,-0.679,0.4488,-0.0466,0.6183,2113
1,-0.4385,-1.0664,-0.6072,0.6026,-0.5767,0.3466,2058
1,-0.6958,-1.1973,-0.4644,0.4975,-0.3701,0.0288,2078
1,-0.6709,-0.9863,-0.3242,0.5727,-0.239,0.0305,2087
1,-0.5093,-0.9919,-0.3267,0.7336,-0.1112,0.0301,2071
1,-0.6511,-1.4897,-0.0703,0.2935,0.3702,-0.0822,1920
1,-0.3923,-0.7659,-0.4634,0.7604,0.1032,-0.085,1971
1,-0.438,-1.1755,-0.2393,0.5693,0.1344,-0.4208,2081
1,-0.2788,-1.1702,-0.3342,0.4259,0.0937,-0.3481,2009
1,-0.5063,-0.9094,-0.2756,0.4081,-0.0035,-0.4753,1974
1,-0.4897,-0.9065,-0.384,0.3699,0.0127,-0.5271,1933
1,-0.6287,-0.8928,-0.3286,0.4558,-0.1344,-0.5658,2065
1,-0.5073,-1.0239,-0.1968,0.3625,-0.3071,-0.4754,2077
1,-0.4326,-1.1589,-0.2905,-0.1015,-0.3968,-0.3675,1938
1,-0.4021,-0.8721,-0.3828,0.2501,-0.3462,-0.4946,2039
1,-0.218,-0.8213,-0.3101,0.4345,-0.456,-0.5924,2131
1,-0.4177,-0.8806,-0.1816,0.4928,-0.4942,-0.7119,2109
1,-0.4319,-0.8689,0.0088,0.2915,-0.4625,-0.7008,2066
1,-0.4128,-0.8123,-0.0796,-0.1053,-0.7598,-0.6357,1914
2,-0.4697,-0.7793,0.0166,0.2226,-0.6465,-0.6645,2159
2,-0.3914,-1.0894,0.0469,-0.0419,-0.9887,-0.6991,2052
2,-0.6218,-0.6675,-0.0735,0.3277,-0.7449,-0.5655,2058
2,-0.425,-0.8855,-0.0396,0.0732,-0.9199,-0.4647,2127
2,-0.3706,-1.0911,0.0588,-0.5039,-1.4099,-0.3486,2056
2,-0.6741,-0.8123,-0.0151,-0.1055,-0.8135,-0.333,2163
2,-0.5417,-1.0264,-0.2422,-0.6813,-1.274,-0.2348,2010
2,-0.4858,-0.6724,-0.3765,-0.096,-0.9392,-0.2665,2020
2,-0.4502,-1.0891,-0.3853,-0.5008,-1.576,-0.1987,2078
2,-0.645,-0.8162,-0.3635,0.1546,-1.0728,-0.3273,2048
2,-0.7124,-1.0652,-0.197,-0.1281,-0.8054,-0.2678,2056
2,-0.8394,-0.8904,-0.1729,-0.094,-0.3722,-0.2622,2067
2,-0.6133,-0.8765,-0.2856,-0.1096,-0.1967,-0.2433,2048
2,-0.3511,-0.9741,-0.356,-0.1779,-0.2069,-0.2127,2080
2,-0.3394,-0.9238,-0.5242,-0.4087,-0.5653,-0.1441,2024
2,-0.0747,-1.1411,-0.4756,-0.4763,-1.0073,-0.0463,2048
2,-0.3699,-0.9622,-0.3799,-0.3683,-1.0923,-0.0843,2037
2,-0.7317,-0.8354,-0.1379,-0.4223,-0.8329,-0.1539,2025
2,-0.7566,-0.6895,-0.1284,-0.143,-0.2092,-0.3428,2091
2,-0.4294,-0.9351,-0.0889,-0.1088,0.0341,-0.3506,2107
2,-0.1401,-1.1165,-0.2327,-0.5052,-0.0107,-0.0999,2013
2,-0.0176,-1.1443,-0.313,-0.138,0.1755,-0.2262,2019
2,-0.1238,-1.3577,-0.1743,0.0637,0.0743,-0.1617,2050
2,-0.2944,-1.3418,-0.2136,0.1053,0.3524,-0.1149,2025
2,-0.3528,-1.3826,-0.2788,0.2386,0.5316,-0.2466,2098
2,-0.551,-1.2842,-0.3091,0.2884,0.6621,-0.2453,2009
2,-0.6711,-1.1526,-0.4031,0.4273,0.518,-0.2563,2068
2,-0.7859,-1.4768,-0.3315,0.1674,0.5574,0.0475,2064
2,-0.8879,-0.9597,-0.6458,0.277,0.2244,-0.0467,2015
2,-0.7634,-1.1245,-0.6196,0.1895,-0.0354,0.1302,2064
2,-0.5933,-1.1279,-0.4695,0.1061,-0.363,0.1846,2054
2,-0.3342,-1.0876,-0.4937,0.0362,-0.5012,0.1176,2038
2,-0.3699,-1.021,-0.5188,0.0878,-0.6161,0.0788,2046
2,-0.5659,-0.9441,-0.5032,0.3119,-0.7175,0.0312,2021
2,-0.645,-0.9539,-0.4604,0.4241,-0.7192,0.0318,2046
2,-0.5967,-0.9756,-0.5042,0.5183,-0.7485,0.092,2047
2,-0.5007,-1.0515,-0.4844,0.5414,-0.7437,0.1518,2034
2,-0.3276,-1.1472,-0.4109,0.5299,-0.6339,0.189,2048
2,-0.3308,-1.1309,-0.3708,0.461,-0.4906,0.1934,2056
2,-0.3386,-1.1084,-0.3196,0.3655,-0.3583,0.151,2015
2,-0.4268,-1.0374,-0.2544,0.3827,-0.2927,0.1625,2038
2,-0.4243,-1.0037,-0.314,0.4389,-0.1784,0.1246,2066
2,-0.4434,-0.9729,-0.3748,0.5245,-0.1132,0.1172,2055
2,-0.4531,-0.9675,-0.3777,0.5577,-0.0999,0.1253,2019
2,-0.3569,-0.9575,-0.3726,0.5276,-0.0477,0.1756,2081
2,-0.313,-0.9575,-0.4202,0.4803,-0.0892,0.1875,2017
2,-0.2834,-0.957,-0.4006,0.4629,-0.2642,0.2409,2037
2,-0.2944,-0.9333,-0.3496,0.5898,-0.3485,0.275,2047
2,-0.415,-0.9661,-0.262,0.6991,-0.278,0.338,2046
2,-0.521,-0.9087,-0.2129,0.7866,-0.1119,0.3389,2055
2,-0.4846,-0.9077,-0.2344,0.7586,0.1045,0.351,1998
2,-0.415,-0.9207,-0.1941,0.8226,0.1581,0.359,2070
2,-0.3611,-1.022,-0.2261,0.7981,0.2272,0.3698,2079
2,-0.3459,-1.0591,-0.2451,0.7886,0.1622,0.3962,2059
2,-0.384,-1.0957,-0.3494,0.789,0.2637,0.3654,2073
2,-0.376,-1.1157,-0.376,0.7191,0.1483,0.4048,2082
2,-0.4067,-1.1504,-0.3516,0.6823,0.1024,0.4334,2043
2,-0.4041,-1.2007,-0.3135,0.5879,0.0719,0.4858,2076
2,-0.5017,-1.1587,-0.3018,0.5288,0.0975,0.4639,2021
2,-0.4993,-1.1072,-0.3376,0.5466,-0.0907,0.414,2022
2,-0.5378,-1.0654,-0.3811,0.4851,-0.2745,0.3635,2027
2,-0.4934,-0.9792,-0.4509,0.5593,-0.7002,0.3705,2064
2,-0.6177,-1.0212,-0.4131,0.6582,-1.1101,0.3525,2037
2,-0.7378,-0.9966,-0.3394,0.558,-1.1856,0.3159,2012
2,-0.8245,-0.9766,-0.1958,0.483,-1.17,0.2212,2059
2,-0.8684,-0.9824,-0.0786,0.4171,-1.1639,0.183,2041
2,-0.7817,-1.125,0.0764,0.3858,-1.1003,0.1806,2104
2,-0.7173,-1.2227,-0.0432,0.2373,-0.8423,0.1168,2000
2,-1.0276,-1.0742,-0.0605,0.1349,-0.461,0.387,2022
2,-0.7195,-1.0439,-0.0193,0.1301,-0.1393,0.492,1996
2,-0.6528,-1.1406,0.1348,0.094,0.2526,0.3867,2056
2,-0.4602,-1.1074,0.2339,-0.0752,0.3839,0.2879,2030
2,-0.5166,-0.9653,0.1545,-0.1453,0.7312,0.1952,2022
2,-0.6306,-0.8062,0.0288,0.0188,0.8556,0.2028,2044
2,-0.6252,-0.9863,0.0383,-0.0028,0.7584,0.1285,2062
2,-0.5828,-0.9817,-0.1907,-0.0735,0.8779,0.0491,2026
2,-0.5342,-0.9941,-0.166,-0.1432,0.7032,0.0176,2066
2,-0.2251,-1.0039,-0.124,-0.2784,0.3551,0.0124,2043
2,-0.4226,-0.8323,-0.1213,-0.2517,0.0558,0.0431,2039
2,-0.6223,-0.9836,-0.0559,-0.3097,-0.3139,-0.2731,2027
2,-0.5459,-1.0286,-0.0413,-0.4505,-0.6239,-0.4789,2020
2,-0.5376,-0.9272,-0.011,-0.3926,-1.1027,-0.7003,2015
2,-0.4607,-0.968,-0.0134,-0.4674,-1.4736,-0.7388,2084
2,-0.3323,-0.9729,-0.0298,-0.5296,-1.8478,-0.7116,2032
2,-0.3411,-0.9336,-0.0349,-0.6311,-2.1703,-0.7144,2016
2,-0.4006,-0.9333,0.031,-0.7409,-2.5099,-0.6929,2033
2,-0.5842,-1.0889,0.0728,-0.844,-2.4717,-0.5822,2061
2,-0.7598,-0.9519,0.0637,-0.8934,-2.9341,-0.6071,2035
2,-0.9517,-0.9385,0.0708,-0.9347,-2.6034,-0.4995,2045
2,-0.9097,-0.9453,0.0947,-0.7557,-2.5161,-0.3204,2061
2,-0.9163,-0.8948,0.0334,-0.7443,-2.1244,-0.0635,2088
2,-0.8684,-0.8853,-0.0195,-0.6153,-2.065,-0.0831,2024
2,-0.6245,-0.8691,-0.042,-0.51,-1.655,0.0405,2003
2,-0.4563,-0.8982,-0.0938,-0.5669,-1.3786,0.0483,1999
2,-0.3091,-0.8994,-0.0945,-0.5589,-1.4547,0.0565,2010
2,-0.3931,-0.9758,-0.0417,-0.5791,-1.3474,0.0795,2033
2,-0.3611,-0.9741,-0.011,-0.6213,-1.4853,0.1362,2056
2,-0.4478,-0.9692,-0.0356,-0.6086,-1.7488,-0.0372,2069
2,-0.2034,-0.9878,-0.0862,-0.5706,-1.5392,0.116,2100
2,-0.4109,-0.9768,-0.0781,-0.4143,-1.495,-0.0076,2050
2,-0.3474,-1.0876,0.0696,-0.4394,-2.1963,-0.2554,2119
2,-0.3635,-1.0034,-0.0085,-0.2988,-1.2139,-0.1591,2129
3,-0.2869,-1.1812,-0.1833,-0.3879,-1.4356,-0.242,2029
3,-0.1516,-1.2703,-0.23,-0.2611,-0.7568,-0.2595,2047
3,-0.167,-1.4375,-0.4373,-0.5248,-1.1669,-0.2429,2022
3,-0.637,-1.041,-0.5339,-0.0904,-0.6666,-0.3196,2008
3,-0.5901,-1.2693,-0.4265,-0.0957,-0.6994,-0.4299,2064
3,-0.6069,-1.135,-0.4268,-0.0688,-0.8348,-0.4818,2004
3,-0.5376,-1.0278,-0.3906,0.0138,-1.0961,-0.4895,1951
3,-0.5042,-0.9211,-0.229,0.1107,-1.4655,-0.4583,2024
3,-0.4333,-0.9583,-0.0686,0.1404,-1.8214,-0.4099,2027
3,-0.406,-1.0059,0.0164,0.193,-2.0282,-0.3251,2037
3,-0.4509,-1.0854,0.0833,0.2361,-2.0632,-0.283,2041
3,-0.488,-1.1067,0.052,0.2602,-1.8903,-0.2922,2099
3,-0.627,-1.0803,0.0938,0.2717,-1.5715,-0.2645,2038
3,-0.6858,-1.0339,0.0403,0.2265,-1.2009,-0.2164,2071
3,-0.7407,-1.0332,-0.0286,0.208,-0.822,-0.1537,2045
3,-0.7024,-1.0698,-0.1321,0.2394,-0.5152,-0.0553,2058
3,-0.6838,-1.0972,-0.2061,0.3261,-0.2538,0.0277,2105
3,-0.6458,-1.1113,-0.2722,0.3438,-0.1313,0.1125,2057
3,-0.6118,-1.0835,-0.249,0.3874,-0.1754,0.1699,2018
3,-0.6038,-1.0608,-0.1956,0.4341,-0.1543,0.2296,1970
3,-0.6238,-1.0537,-0.1604,0.4859,0.0169,0.277,2038
3,-0.5725,-1.1028,-0.1938,0.4962,0.0784,0.2952,2052
3,-0.4971,-1.1284,-0.2251,0.6066,0.1236,0.2787,2103
3,-0.5188,-1.1228,-0.1501,0.6505,0.1977,0.1862,2002
3,-0.449,-1.1167,-0.1257,0.6399,0.4318,0.1105,2034
3,-0.4883,-1.0852,-0.1511,0.6758,0.5466,0.0722,2080
3,-0.478,-1.071,-0.1074,0.6219,0.5297,-0.0093,2002
3,-0.3972,-1.0442,-0.1492,0.6478,0.5478,-0.0032,2043
3,-0.4041,-1.0994,-0.1345,0.6572,0.6337,0.0587,2135
3,-0.387,-1.0935,-0.1377,0.6413,0.6351,0.0812,1943
3,-0.4148,-1.1274,-0.1138,0.5586,0.6789,0.1108,2070
3,-0.4236,-1.1096,-0.0771,0.6907,0.7356,0.1775,2050
3,-0.4219,-1.1111,-0.0659,0.6336,0.8368,0.2412,2006
3,-0.3987,-1.0767,-0.0884,0.563,0.9728,0.2418,1970
3,-0.3577,-1.0537,-0.0977,0.6411,1.0146,0.2361,2042
3,-0.3696,-1.1128,-0.0623,0.66,1.0728,0.2229,2103
3,-0.248,-1.1443,-0.0732,0.6364,1.1789,0.3019,2061
3,-0.1775,-1.1411,-0.0645,0.6288,1.1987,0.2635,2069
3,-0.2324,-1.106,-0.0803,0.577,1.2094,0.2304,1980
3,-0.2952,-1.0891,-0.0674,0.5874,1.1244,0.2124,2041
3,-0.3867,-1.1389,-0.0679,0.6104,1.0384,0.1992,2036
3,-0.4717,-1.1174,-0.0632,0.6007,0.936,0.1834,2011
3,-0.5347,-1.0249,-0.0522,0.5328,0.7622,0.2132,2075
3,-0.5371,-0.9377,-0.0732,0.5866,0.6858,0.1144,2029
3,-0.6741,-0.9897,-0.0935,0.5902,0.689,0.1119,2017
3,-0.7454,-0.9949,-0.0452,0.5465,0.6295,0.171,2021
3,-0.7329,-1.0654,-0.0266,0.3876,0.6205,0.2254,2092
3,-0.562,-1.1326,0.0381,0.2851,0.4846,0.3137,2049
3,-0.4561,-1.0979,0.1284,0.1903,0.1904,0.406,2037
3,-0.3982,-0.9917,0.2124,0.1902,-0.165,0.3183,2076
3,-0.5608,-1.051,0.3157,0.1354,-0.161,0.2663,2012
3,-0.7537,-1.0337,0.373,0.0613,0.1353,0.277,2046
3,-0.6741,-1.022,0.3892,-0.0362,0.3466,0.2507,2038
3,-0.6536,-1.054,0.2944,-0.0911,0.924,0.186,2057
3,-0.5662,-0.9941,0.1501,-0.0899,1.327,0.1855,2032
3,-0.3699,-0.9985,0.0986,-0.2276,1.1561,0.2075,2019
3,-0.3523,-1.0237,-0.0295,-0.259,0.6785,0.0917,2056
3,-0.3948,-0.9548,-0.0884,-0.2974,0.0065,-0.0041,2029
3,-0.4275,-0.9329,-0.0886,-0.283,-0.5984,-0.1477,2068
3,-0.5225,-0.9509,-0.0659,-0.3002,-1.0086,-0.3107,2041
3,-0.5747,-0.9409,-0.0432,-0.4157,-1.3232,-0.3755,2046
3,-0.5273,-0.9653,-0.0415,-0.5545,-1.6179,-0.3633,2043
3,-0.5371,-0.9805,-0.0103,-0.6469,-1.7427,-0.3563,2057
3,-0.6699,-0.9629,0.0696,-0.6281,-1.9495,-0.212,2054
3,-0.7139,-0.9543,0.1831,-0.6666,-1.9515,-0.1168,2099
3,-0.7737,-0.9312,0.187,-0.6107,-1.4444,-0.0352,2024
3,-0.7441,-0.873,0.1121,-0.6249,-0.9035,-0.0736,2041
3,-0.6335,-0.9299,0.0588,-0.6339,-0.2886,-0.1272,2050
3,-0.4844,-0.894,0.0137,-0.5702,0.051,-0.2105,2110
3,-0.2791,-0.8933,-0.1287,-0.5259,0.02,-0.2538,2007
3,-0.2222,-0.9021,-0.2175,-0.5558,-0.2032,-0.1938,2101
3,-0.2537,-0.917,-0.2307,-0.5813,-0.5541,-0.1581,2011
3,-0.2969,-0.8811,-0.2073,-0.5709,-0.9416,-0.1519,2068
3,-0.4524,-0.8994,-0.1284,-0.5376,-1.0005,-0.0975,2049
3,-0.5107,-0.8757,-0.0417,-0.4823,-1.1231,-0.1593,2041
3,-0.4067,-0.908,-0.0195,-0.4935,-1.0998,-0.141,2041
3,-0.3945,-0.8579,-0.0295,-0.4377,-1.0135,-0.1522,2062
3,-0.3635,-0.9194,0.0317,-0.3721,-0.9349,-0.227,2039
3,-0.4038,-0.9822,-0.051,-0.294,-0.5434,-0.2213,2068
3,-0.2896,-1.1292,-0.1252,-0.263,-0.4059,-0.2059,2037
3,-0.3801,-1.1406,-0.2651,-0.1575,0.0248,-0.2619,2072
3,-0.3726,-1.2681,-0.3223,-0.183,0.0831,-0.3401,2112
3,-0.4373,-1.3147,-0.3806,-0.1847,0.0698,-0.404,2139
3,-0.3618,-1.3069,-0.4395,-0.2156,-0.147,-0.4602,2034
3,-0.2734,-1.1821,-0.4766,-0.0924,-0.5874,-0.5363,1980
3,-0.2417,-1.1123,-0.376,-0.0365,-1.0871,-0.6135,1996
3,-0.3279,-1.0498,-0.2942,-0.0272,-1.541,-0.6399,2077
3,-0.4629,-0.9939,-0.2319,0.0084,-1.9291,-0.6047,1990
3,-0.6248,-0.9519,-0.1394,0.1093,-2.0742,-0.5067,2014
3,-0.7214,-0.9456,-0.0715,0.13,-2.0418,-0.4237,2091
3,-0.7424,-0.9373,-0.0969,0.1515,-1.8479,-0.3008,2069
3,-0.7881,-0.9546,-0.0945,0.1792,-1.6286,-0.2104,2067
3,-0.7139,-1.0027,-0.0767,0.3095,-1.3363,-0.1445,2054
3,-0.677,-1.0337,-0.0762,0.3581,-1.1661,-0.0799,2150
3,-0.5471,-1.1233,0.0005,0.3978,-0.9823,-0.0137,2018
3,-0.5364,-1.1357,-0.0215,0.426,-0.7862,0.0216,2045
3,-0.5325,-1.1606,-0.0713,0.4904,-0.5922,0.0413,1990
3,-0.5361,-1.1748,-0.0525,0.5461,-0.3553,0.0898,2095
3,-0.5527,-1.1663,-0.0916,0.5437,-0.0206,0.1284,1997
3,-0.5005,-1.1604,-0.1848,0.5197,0.2766,0.1197,2033
3,-0.4993,-1.196,-0.2991,0.5462,0.4671,0.0951,2038
4,-0.4512,-1.2285,-0.3176,0.6059,0.5952,0.076,2156
4,-0.449,-1.2344,-0.3381,0.6795,0.6205,0.0678,1949
4,-0.4082,-1.1912,-0.3777,0.687,0.5461,0.0373,2059
4,-0.395,-1.1218,-0.3376,0.6622,0.3938,0.0389,2008
4,-0.4319,-1.0996,-0.2703,0.6674,0.293,0.0803,2031
4,-0.564,-1.0054,-0.2441,0.7959,0.241,0.1237,1984
4,-0.46,-1.0654,-0.1387,0.717,0.194,0.1498,2002
4,-0.4343,-1.1052,-0.0422,0.8207,0.3477,0.1914,2045
4,-0.4365,-1.0354,0.0254,1.01,0.6785,0.1715,2036
4,-0.3604,-1.0583,0.0693,1.1049,0.9472,0.1798,2054
4,-0.3088,-1.0771,0.094,1.0945,1.1685,0.174,2117
4,-0.283,-1.1196,0.0759,1.0914,1.3089,0.1764,2017
4,-0.2571,-1.1064,0.0469,1.0553,1.3355,0.2113,1990
4,-0.2422,-1.1667,0.075,1.0311,1.239,0.2183,2050
4,-0.3892,-1.1038,0.0896,0.9798,1.2336,0.1694,1989
4,-0.4133,-0.9688,0.0398,0.8967,1.2806,0.0409,2034
4,-0.4436,-0.8816,-0.04,0.7857,1.2433,-0.0831,1989
4,-0.4998,-0.8796,-0.1099,0.767,0.9648,-0.1346,2070
4,-0.5549,-0.9255,-0.126,0.7501,0.6983,-0.0672,2067
4,-0.6355,-0.9897,-0.0779,0.6875,0.4024,0.0515,2077
4,-0.7129,-1.0769,-0.0107,0.5618,0.3501,0.2425,2052
4,-0.759,-1.1511,0.1851,0.4402,0.4529,0.5088,2088
4,-0.6992,-1.2407,0.2832,0.3181,0.6883,0.6747,2101
4,-0.4973,-1.3132,0.4307,0.2135,0.768,0.7361,2069
4,-0.4148,-1.2197,0.4219,0.1617,1.1227,0.5445,2014
4,-0.3142,-1.1482,0.5242,0.045,1.3479,0.4787,2009
4,-0.1533,-1.1414,0.4365,-0.0425,1.4557,0.3015,2008
4,-0.2383,-1.0767,0.3108,-0.0907,1.3436,0.142,1988
4,-0.4319,-1.0234,0.1365,-0.0365,1.0841,0.0328,2063
4,-0.4448,-1.0444,0.0281,-0.1097,0.5284,-0.0173,2138
4,-0.532,-1.0237,-0.1697,-0.2092,0.0933,-0.0149,2037
4,-0.7083,-0.9392,-0.1775,-0.393,-0.3393,0.0346,2040
4,-0.6821,-0.9697,-0.0559,-0.506,-0.7684,0.0242,2059
4,-0.4639,-0.9797,0.0945,-0.6155,-0.9443,0.1093,2098
4,-0.322,-0.9985,0.2175,-0.5251,-1.5211,0.0107,2052
4,-0.5525,-0.875,0.22,-0.4944,-1.4917,0.1333,2071
4,-0.7146,-0.8054,0.3474,-0.4434,-1.1961,0.2029,2126
4,-0.8735,-0.8713,0.3562,-0.3056,-0.6236,0.2535,2089
4,-0.7017,-0.9229,0.2463,-0.2614,-0.0001,0.31,2063
4,-0.7329,-0.9121,0.0916,-0.2971,0.4216,0.2721,2162
4,-0.4692,-0.959,-0.0161,-0.3357,0.471,0.2775,2127
4,-0.1824,-0.9839,-0.0708,-0.4143,0.2293,0.2931,2053
4,-0.355,-1.0017,-0.0989,-0.4195,0.2988,0.2402,2039
4,-0.1689,-0.9688,-0.1284,-0.4623,-0.2428,0.3325,2052
4,-0.438,-0.9617,-0.1067,-0.3665,-0.1716,0.1989,2081
4,-0.5825,-0.8787,-0.1633,-0.1954,-0.2409,0.1141,2021
4,-0.6633,-0.8577,-0.2063,-0.1977,-0.4111,0.1332,2039
4,-0.4885,-0.9492,-0.03,-0.1843,-0.642,0.1382,2029
4,-0.4285,-0.7979,-0.0288,-0.1467,-0.5979,0.1381,2027
4,-0.4275,-0.6689,-0.1826,-0.1338,-0.4458,0.1432,2025
4,-0.5205,-0.7788,-0.1802,-0.1871,-0.4952,0.1063,2042
4,-0.562,-0.9648,-0.0969,-0.1686,-0.247,0.0571,2092
4,-0.4768,-1.0181,-0.2285,-0.1537,0.1606,0.0802,2104
4,-0.5742,-1.1133,-0.3044,-0.1934,0.3377,0.0947,2145
4,-0.552,-1.2803,-0.2954,-0.1269,0.5418,-0.0447,2086
4,-0.3701,-1.3037,-0.447,-0.1083,0.6087,-0.2016,2016
4,-0.1809,-1.4075,-0.3484,-0.0531,0.3294,-0.3285,1978
4,-0.2959,-1.2175,-0.2942,-0.0537,-0.2252,-0.4091,1996
4,-0.5317,-1.0374,-0.1643,-0.0864,-0.6624,-0.4305,1967
4,-0.7227,-0.8533,-0.1741,-0.0993,-0.9953,-0.3037,2049
4,-0.845,-0.7739,-0.175,-0.0711,-1.1511,-0.1458,2033
4,-0.8467,-0.7593,-0.1504,-0.0526,-1.1729,-0.07,2119
4,-0.7832,-0.7979,-0.1707,-0.0423,-1.0264,-0.0264,2034
4,-0.6667,-0.8723,-0.2031,-0.0312,-0.7704,0.0013,2035
4,-0.5544,-0.9324,-0.2332,-0.0084,-0.5971,0.0182,2026
4,-0.5625,-1.0095,-0.2129,0.012,-0.536,0.0395,2033
4,-0.6411,-1.0381,-0.1504,0.0828,-0.4595,0.0582,2059
4,-0.6929,-1.0869,-0.0737,0.1147,-0.3472,0.0742,2073
4,-0.6433,-1.1057,-0.0242,0.1368,-0.2207,0.088,2038
4,-0.533,-1.1094,-0.0288,0.1457,-0.0694,0.0914,2065
4,-0.4612,-1.0864,-0.0923,0.1744,0.0609,0.1001,1996
4,-0.4185,-1.1169,-0.1121,0.2353,0.1991,0.1245,2052
4,-0.4543,-1.1074,-0.1372,0.2593,0.4152,0.1249,2010
4,-0.4485,-1.0984,-0.186,0.3135,0.5613,0.0864,2042
4,-0.4722,-1.1592,-0.2595,0.3313,0.8347,0.002,1935
4,-0.4973,-1.1401,-0.2561,0.3609,0.9705,-0.0414,2074
4,-0.449,-1.074,-0.3267,0.3828,1.0139,-0.084,2010
4,-0.3325,-1.1404,-0.2957,0.4264,0.8612,-0.038,2037
4,-0.2983,-1.1257,-0.2285,0.5058,0.7167,-0.0119,1996
4,-0.3091,-1.1038,-0.1934,0.5891,0.5755,0.0378,2080
4,-0.3894,-1.0505,-0.1516,0.6481,0.6114,0.0446,2035
4,-0.4023,-1.0247,-0.1455,0.6661,0.6289,0.0043,2115
4,-0.355,-1.012,-0.1392,0.7393,0.6528,-0.021,2048
4,-0.2993,-1.0291,-0.1321,0.8769,0.647,-0.0309,2062
4,-0.2961,-1.0625,-0.1047,0.9021,0.6753,-0.0799,2047
4,-0.3279,-1.0757,-0.0527,0.8951,0.7192,-0.118,2029
4,-0.418,-1.052,-0.0618,0.8886,0.817,-0.1165,2013
4,-0.5181,-0.999,-0.0889,0.8834,0.9287,-0.0917,2020
4,-0.5269,-0.9553,-0.1465,0.873,0.978,-0.0605,2088
4,-0.5356,-0.9385,-0.1892,0.8044,0.9076,-0.063,2010
4,-0.594,-0.9229,-0.1411,0.7718,0.6763,-0.0915,2122
4,-0.6877,-0.8933,-0.1279,0.7215,0.5109,-0.0582,2027
4,-0.7278,-1.0234,-0.1255,0.5456,0.3639,-0.0609,2033
4,-0.6917,-1.1782,-0.0178,0.4163,0.2493,0.0262,2076
4,-0.6218,-1.2991,0.0596,0.1973,-0.0149,0.0162,1930
4,-0.7058,-1.2505,0.0105,0.067,-0.2701,-0.0073,1877
4,-0.9436,-1.0449,-0.0359,0.1201,-0.5184,-0.1734,2066
4,-0.9487,-1.0488,0.1047,0.1442,-0.2635,-0.1997,2159
4,-0.8542,-1.0696,0.1467,0.2252,0.229,-0.1554,2113
4,-0.6482,-1.0586,0.2524,0.1023,0.6179,-0.0481,2063
4,-0.4688,-1.0806,0.3164,-0.1384,0.8946,0.0398,2024
4,-0.3386,-1.1299,0.2341,-0.1958,0.7815,-0.1661,1992
4,-0.208,-1.3237,0.1223,-0.5388,0.3954,-0.1764,1974
4,-0.4763,-1.0723,0.02,-0.2807,-0.3826,-0.4623,1994
4,-0.7642,-0.98,0.0061,-0.2266,-0.8143,-0.4034,2081
5,-0.8716,-0.9207,0.1128,-0.1404,-1.2026,-0.2807,2183
5,-0.9131,-0.9172,0.1638,-0.1008,-1.2639,-0.0489,2143
5,-0.8586,-0.8867,0.1313,-0.1052,-1.0813,0.134,2113
5,-0.729,-0.824,0.1003,-0.1083,-0.7809,0.1274,2059
5,-0.5894,-0.9197,0.0786,-0.2157,-0.2619,0.1902,2063
5,-0.5059,-0.9243,0.0386,-0.3071,0.1543,0.1916,2035
5,-0.4583,-0.8882,-0.0151,-0.4054,0.5825,0.1643,2013
5,-0.416,-0.8726,-0.0247,-0.4643,0.7628,0.1497,2005
5,-0.3948,-0.8694,-0.0605,-0.4731,0.7312,0.2125,2033
5,-0.4172,-0.8743,-0.0557,-0.4442,0.5726,0.2878,2056
5,-0.4658,-0.9182,-0.0227,-0.4077,0.3414,0.3264,2057
5,-0.4844,-0.9451,-0.0361,-0.3767,0.2105,0.3207,2021
5,-0.4512,-0.9775,-0.0669,-0.2968,0.0272,0.285,2045
5,-0.4136,-0.9299,-0.158,-0.2003,-0.1039,0.224,2032
5,-0.3591,-0.9097,-0.2229,-0.1171,-0.3854,0.161,2019
5,-0.3723,-0.9138,-0.2039,-0.0286,-0.5631,0.0607,2056
5,-0.4053,-0.8765,-0.1335,-0.018,-0.6478,0.0276,2022
5,-0.186,-0.8235,-0.1733,-0.0063,-0.7124,0.0597,2032
5,-0.238,-0.8245,-0.1707,-0.0806,-0.5799,0.012,2078
5,-0.4067,-0.7798,-0.2058,-0.1297,-0.4156,0.0566,2033
5,-0.46,-0.8389,-0.1067,-0.1527,-0.0599,0.0514,2102
5,-0.4377,-0.9341,-0.1587,-0.2003,0.0414,0.0924,2070
5,-0.4973,-1.0276,-0.2043,-0.1226,0.2071,0.1182,2079
5,-0.6399,-0.9983,-0.2939,0.1687,0.3143,0.1238,2134
5,-0.2825,-1.6067,-0.2092,0.1028,0.3416,-0.1771,2155
5,-0.1174,-1.5073,-0.3877,0.1131,0.22,-0.2505,1978
5,-0.2271,-1.5962,-0.3079,0.0463,-0.1055,-0.4051,1958
5,-0.6316,-1.3521,-0.2568,0.0226,-0.4191,-0.4135,1947
5,-1.021,-1.0508,-0.3105,-0.077,-0.7244,-0.3366,2083
5,-1.1516,-0.9543,-0.408,-0.1818,-0.9063,-0.2135,2032
5,-1.0764,-0.948,-0.4683,-0.2772,-1.0465,-0.1462,2053
5,-0.832,-0.9167,-0.519,-0.3352,-1.2053,-0.1293,1966
5,-0.6316,-0.9033,-0.4692,-0.3477,-1.3456,-0.1436,1998
5,-0.582,-0.9155,-0.365,-0.2729,-1.2889,-0.0947,2016
5,-0.6807,-0.9343,-0.1843,-0.2151,-1.1292,-0.0035,2036
5,-0.7673,-0.9646,-0.0723,-0.1236,-0.877,0.1112,2051
5,-0.7627,-0.9932,0.0566,-0.0137,-0.5774,0.1965,2074
5,-0.707,-1.0261,0.0977,0.1256,-0.2839,0.2745,2111
5,-0.5676,-1.0452,0.1074,0.2927,-0.0474,0.31,1988
5,-0.4028,-1.0645,0.0488,0.4059,0.1883,0.3076,2076
5,-0.3765,-1.0671,-0.0212,0.4334,0.3559,0.3068,2069
5,-0.4336,-1.0547,-0.0745,0.4414,0.5184,0.2876,2096
5,-0.4512,-1.0266,-0.1423,0.4538,0.6719,0.2747,2002
5,-0.415,-1.0046,-0.2346,0.4454,0.6719,0.2575,2060
5,-0.3682,-0.9534,-0.3521,0.412,0.5755,0.2161,1981
5,-0.3547,-0.9963,-0.4275,0.3559,0.382,0.182,2039
5,-0.4028,-1.0269,-0.4204,0.4145,0.1348,0.198,2078
5,-0.3491,-1.0188,-0.3408,0.5107,0.0519,0.2827,2004
5,-0.3962,-0.9968,-0.3179,0.5072,-0.0386,0.2563,2029
5,-0.4016,-0.9377,-0.2705,0.5538,-0.1015,0.2179,1983
5,-0.4429,-1.0012,-0.1968,0.597,-0.0168,0.2109,2104
5,-0.4163,-1.0232,-0.1738,0.6359,0.137,0.1899,1943
5,-0.2644,-1.0488,-0.1904,0.6203,0.278,0.1862,2056
5,-0.397,-1.1128,-0.1082,0.618,0.4135,0.0941,2102
5,-0.4082,-1.1162,-0.1321,0.6156,0.3581,0.1272,2104
5,-0.4199,-1.0542,-0.1201,0.6825,0.2207,0.1389,2041
5,-0.4543,-1.0603,-0.092,0.7208,0.2719,0.1879,2085
5,-0.5032,-1.0955,-0.0251,0.718,0.3297,0.1923,2024
5,-0.4551,-1.0435,-0.0027,0.6457,0.4235,0.159,2038
5,-0.4424,-1.0774,0.0046,0.6268,0.4617,0.1866,2062
5,-0.4119,-0.9146,-0.0242,0.6751,0.4028,0.1667,2019
5,-0.4478,-1.0706,-0.0088,0.6502,0.3425,0.0427,2077
5,-0.6118,-0.9631,-0.0312,0.6821,0.3156,0.0112,2026
5,-0.6445,-0.9907,-0.1084,0.518,0.3207,-0.0774,2060
5,-0.7119,-1.0105,-0.0962,0.4027,0.1117,-0.0497,2048
5,-0.6873,-1.1255,-0.0554,0.2281,-0.1723,-0.0084,2042
5,-0.6685,-1.2156,0.041,0.018,-0.5577,0.0286,2049
5,-0.897,-1.1726,0.1792,-0.2426,-0.9187,-0.0332,2003
5,-1.0247,-1.0488,0.2856,-0.3337,-1.0365,-0.0511,2007
5,-1.0381,-1.0022,0.282,-0.3159,-0.6525,-0.0514,2056
5,-0.8188,-1.0315,0.3018,-0.3056,-0.3057,-0.0116,2060
5,-0.5913,-1.0422,0.2061,-0.2967,0.002,0.0128,2042
5,-0.8496,-1.1045,0.1702,-0.1603,0.0807,-0.2228,2038
5,-0.8171,-1.0176,0.2627,-0.1621,0.4015,-0.1252,2107
5,-0.8318,-0.9512,0.1919,-0.1637,0.6918,-0.0193,2114
5,-0.8115,-0.8787,0.0771,-0.1186,0.7221,0.1501,2129
5,-0.7834,-0.8359,-0.0312,-0.0683,0.4678,0.2914,2077
5,-0.7402,-0.8745,-0.0466,-0.0937,0.1562,0.3239,2025
5,-0.6155,-0.8889,-0.0979,-0.202,-0.0463,0.286,2008
5,-0.5747,-0.8574,-0.1248,-0.2774,-0.1988,0.2422,2002
5,-0.6289,-0.8015,-0.0256,-0.3145,-0.1264,0.1846,2030
5,-0.6404,-0.7932,0.0042,-0.3155,0.129,0.1862,2028
5,-0.6277,-0.7922,0.0405,-0.3079,0.4425,0.2417,2054
5,-0.5952,-0.813,0.0203,-0.3265,0.747,0.2766,2026
5,-0.4619,-0.8931,-0.0349,-0.3069,0.8686,0.2942,2065
5,-0.325,-0.9297,0.0059,-0.339,0.8092,0.3149,2025
5,-0.2866,-0.8816,-0.0088,-0.3653,0.6381,0.3389,2039
5,-0.1968,-0.821,0.0254,-0.3678,0.4156,0.3832,2047
5,-0.4558,-0.8171,0.0608,-0.3559,0.5275,0.3334,2056
5,-0.5522,-0.8135,0.0352,-0.3313,0.7095,0.2631,2067
5,-0.4849,-0.8643,-0.0862,-0.2573,0.744,0.1995,2065
5,-0.3552,-0.9075,-0.2302,-0.184,0.5098,0.1461,2045
5,-0.3083,-1.0125,-0.27,-0.1602,0.0692,0.0586,2027
5,-0.3015,-1.0225,-0.2739,-0.1473,-0.3542,0.0791,2091
5,-0.3293,-1.0166,-0.1243,-0.1396,-0.652,0.0812,2007
5,-0.3474,-0.988,-0.103,-0.2368,-0.6169,-0.0021,2034
5,-0.3735,-0.9834,-0.0959,-0.2982,-0.3509,-0.0751,2031
5,-0.5374,-0.9749,-0.0911,-0.3542,0.0491,-0.1019,2114
5,-0.5344,-1.0295,-0.1614,-0.3532,0.346,-0.1294,2025
5,-0.4624,-1.0811,-0.3811,-0.3593,0.4101,-0.1563,2083
5,-0.803,-0.9204,-0.5647,-0.1802,0.3711,-0.0756,1997
5,-0.9158,-1.2427,-0.4458,-0.0578,0.4325,-0.2016,2056
6,-0.7651,-1.2856,-0.5024,-0.0107,0.4988,-0.3229,2038
6,-0.5596,-1.293,-0.5518,0.0193,0.3147,-0.4285,2023
6,-0.4373,-1.3079,-0.4814,0.0441,-0.082,-0.4673,2066
6,-0.5203,-1.2656,-0.3972,0.0722,-0.5833,-0.4409,2018
6,-0.7454,-1.2271,-0.353,0.0815,-0.9774,-0.4145,2047
6,-0.9246,-1.166,-0.311,0.0015,-1.1175,-0.4076,2099
6,-0.947,-1.1431,-0.3591,-0.1321,-1.1569,-0.4044,2064
6,-0.8665,-1.0911,-0.3896,-0.2626,-1.2099,-0.4236,2041
6,-0.782,-0.981,-0.4241,-0.3309,-1.1306,-0.4417,2045
6,-0.8708,-0.8372,-0.4377,-0.3179,-0.9027,-0.4341,1949
6,-0.8918,-0.7815,-0.3228,-0.1571,-0.6277,-0.3942,2045
6,-0.8625,-0.7913,-0.2634,-0.0626,-0.4964,-0.3007,2031
6,-0.7769,-0.8259,-0.2532,0.0654,-0.3498,-0.185,2036
6,-0.6216,-0.873,-0.2266,0.2361,-0.2039,-0.1288,2052
6,-0.4854,-0.9512,-0.1426,0.3819,0.0064,-0.0961,2076
6,-0.436,-0.989,-0.1182,0.5209,0.343,-0.0734,2127
6,-0.4121,-0.9995,-0.0742,0.7231,0.6577,-0.0638,2068
6,-0.3853,-0.9963,-0.1013,0.6392,0.9003,-0.0538,2046
6,-0.4045,-0.9636,-0.1531,0.4697,0.9778,-0.1071,2048
6,-0.491,-0.8457,-0.2344,0.4614,1.0361,-0.1561,2057
6,-0.4443,-0.9648,-0.1951,0.3638,0.9704,-0.1321,1993
6,-0.3735,-0.9233,-0.2866,0.375,0.7662,-0.0366,2103
6,-0.325,-0.877,-0.2749,0.4255,0.6023,0.0252,2011
6,-0.2156,-0.9116,-0.2661,0.3666,0.3902,0.092,2070
6,-0.2578,-0.8679,-0.2158,0.398,0.3065,0.1908,2072
6,-0.3704,-0.9114,-0.1667,0.4328,0.3104,0.257,2059
6,-0.4265,-0.9497,-0.1147,0.4667,0.4036,0.2671,2071
6,-0.449,-0.9697,-0.1646,0.4342,0.6793,0.2618,2124
6,-0.4507,-1.0432,-0.2185,0.4725,0.8192,0.2589,2021
6,-0.4373,-1.094,-0.3018,0.5287,0.9202,0.3075,2058
6,-0.3103,-1.1521,-0.3635,0.4251,0.9059,0.328,2035
6,-0.2454,-1.1003,-0.3716,0.4753,0.7946,0.2132,2086
6,-0.262,-1.134,-0.304,0.4524,0.5137,0.1914,2038
6,-0.2375,-1.0615,-0.3196,0.4309,0.3593,0.1851,2105
6,-0.2747,-0.9985,-0.2844,0.4637,0.2103,0.1666,2061
6,-0.3857,-0.9766,-0.2388,0.499,0.0795,0.2252,2029
6,-0.4666,-0.9424,-0.2329,0.5363,0.0732,0.176,2064
6,-0.5261,-0.9849,-0.1899,0.556,-0.0004,0.2412,2059
6,-0.5212,-1.0354,-0.1699,0.5585,-0.0906,0.2814,2102
6,-0.5896,-0.9871,-0.2061,0.5457,-0.1137,0.191,2014
6,-0.6504,-1.0435,-0.2573,0.4625,-0.1577,0.1186,2106
6,-0.6284,-1.1797,-0.2334,0.373,-0.4116,0.173,2025
6,-0.8015,-1.2637,-0.2905,0.3579,-0.4922,0.1092,2061
6,-0.7854,-1.3945,-0.2856,0.1703,-0.8399,0.1683,2061
6,-0.8821,-1.3945,-0.2759,0.0388,-1.221,0.2052,2033
6,-1.1597,-1.2476,-0.2273,-0.0236,-1.7835,0.1669,1940
6,-1.3064,-1.1912,-0.2156,-0.0876,-1.6681,0.0904,2030
6,-1.3982,-1.1987,-0.1572,-0.0208,-1.2814,-0.0029,2033
6,-1.4929,-1.1379,-0.1113,-0.0269,-0.6862,-0.0427,2000
6,-1.2527,-1.0518,-0.1323,-0.0679,-0.1218,-0.0542,2061
6,-0.9661,-0.8938,-0.2661,-0.1742,0.2031,-0.0595,2053
6,-0.739,-0.9805,-0.2493,-0.1876,0.1256,0.1578,2044
6,-0.6736,-0.9172,-0.1587,-0.1525,-0.0742,0.3509,2034
6,-0.5732,-0.8877,-0.1606,-0.2052,-0.1703,0.3345,2064
6,-0.5088,-0.8997,-0.1582,-0.2689,-0.1097,0.2017,2029
6,-0.5952,-0.8335,-0.0491,-0.288,0.063,0.0718,2029
6,-0.6641,-0.7769,0.0183,-0.3169,0.2756,-0.0431,2024
6,-0.668,-0.6826,-0.0193,-0.2751,0.5289,-0.0308,2073
6,-0.5503,-0.6252,-0.0784,-0.2462,0.7047,0.0076,2055
6,-0.4121,-0.6108,-0.1697,-0.2223,0.8668,0.0294,2054
6,-0.3245,-0.6555,-0.21,-0.1332,0.8608,0.1027,2041
6,-0.3406,-0.7178,-0.1919,-0.0675,0.7975,0.1629,2075
6,-0.3569,-0.7444,-0.1812,-0.0265,0.734,0.2364,2080
6,-0.3813,-0.7812,-0.1267,0.0083,0.6859,0.2537,2070
6,-0.3662,-0.77,-0.1711,0.0292,0.6315,0.2919,2059
6,-0.3174,-0.7959,-0.1587,0.0261,0.4797,0.4156,2032
6,-0.2317,-0.8889,-0.0737,-0.0369,0.1678,0.4638,2047
6,-0.1787,-0.7837,-0.0547,-0.0053,-0.147,0.4595,2089
6,-0.2375,-0.8464,-0.011,0.0546,-0.3227,0.3747,2079
6,-0.2478,-0.9309,0.0498,-0.0754,-0.3195,0.3109,2023
6,-0.4143,-0.6868,-0.0632,0.1667,-0.0357,0.0846,2027
6,-0.4348,-0.937,-0.0437,0.1035,0.0875,0.0341,2022
6,-0.4299,-0.9634,-0.1462,0.0774,0.2442,0.0172,2045
6,-0.4097,-1.0405,-0.2766,0.0613,0.2434,-0.0477,2132
6,-0.4189,-1.1411,-0.3931,-0.328,0.0617,-0.0493,2030
6,-0.4944,-1.1565,-0.3728,-0.0659,-0.1887,-0.1633,2042
6,-0.5164,-1.1531,-0.428,-0.1027,-0.5613,-0.1882,2112
6,-0.5579,-1.1497,-0.3933,-0.0019,-0.814,-0.1996,2020
6,-0.5698,-1.3435,-0.2971,-0.012,-0.9471,-0.2642,2036
6,-0.5144,-1.3503,-0.4263,-0.0419,-0.8373,-0.3385,2040
6,-0.7397,-1.3813,-0.4597,0.0146,-0.9955,-0.3947,2022
6,-0.9136,-1.3684,-0.4507,0.0031,-1.0507,-0.4795,2112
6,-0.8298,-1.342,-0.6165,0.0581,-1.0725,-0.5385,2048
6,-0.9741,-1.2573,-0.5422,0.1145,-1.2525,-0.5533,2106
6,-1.0444,-1.217,-0.498,0.1634,-1.3423,-0.463,2032
6,-1.1521,-1.1265,-0.3728,0.138,-1.448,-0.3087,2080
6,-1.1282,-1.1384,-0.2815,0.0372,-1.38,-0.1425,1978
6,-1.0664,-1.1267,-0.2634,-0.026,-1.1958,-0.0399,1980
6,-0.9346,-1.1348,-0.3201,-0.0973,-0.9304,0.0245,1970
6,-0.7639,-1.1216,-0.4358,-0.0732,-0.6738,0.0748,2015
6,-0.7468,-1.0732,-0.418,-0.035,-0.4951,0.1321,2028
6,-0.7109,-1.0439,-0.4338,-0.0322,-0.392,0.1601,2080
6,-0.8315,-0.9841,-0.4246,0.0067,-0.3859,0.2232,2004
6,-0.9893,-0.9006,-0.3237,0.0835,-0.4291,0.2968,2064
6,-0.9421,-0.8784,-0.2849,0.1061,-0.532,0.3787,2074
6,-0.812,-0.8865,-0.2817,0.1181,-0.561,0.4291,2059
6,-0.7087,-0.9065,-0.2349,0.1161,-0.5259,0.4251,1986
6,-0.5684,-0.9202,-0.2717,0.1751,-0.3785,0.4247,2057
6,-0.4917,-0.9229,-0.2432,0.3019,-0.1996,0.4207,1988
6,-0.5205,-0.8518,-0.1838,0.3699,0.1144,0.3484,2034
6,-0.4976,-0.8279,-0.2537,0.3293,0.3723,0.283,2069
7,-0.5623,-0.7849,-0.3062,0.3027,0.4803,0.2806,2082
7,-0.635,-0.7104,-0.3491,0.2798,0.4446,0.2951,2058
7,-0.5649,-0.7334,-0.4202,0.2376,0.3535,0.2944,2019
7,-0.4114,-0.7881,-0.4634,0.3089,0.2215,0.2936,2048
7,-0.3484,-0.7969,-0.4832,0.3329,-0.0301,0.253,2049
7,-0.1963,-0.7881,-0.4487,0.3195,-0.2838,0.1981,2049
7,-0.2786,-0.7834,-0.3521,0.3393,-0.3297,0.1635,2023
7,-0.3921,-0.7437,-0.2883,0.3485,-0.2891,0.1176,2038
7,-0.4768,-0.7759,-0.2227,0.4,-0.2015,0.0859,2047
7,-0.5159,-0.7881,-0.2234,0.4962,-0.025,0.1032,2017
7,-0.4705,-0.8044,-0.1843,0.5296,0.1288,0.0574,2033
7,-0.3015,-0.8835,-0.1792,0.5191,0.2999,0.0298,2064
7,-0.2632,-0.9512,-0.2009,0.549,0.3151,-0.0113,1976
7,-0.2375,-0.9697,-0.2332,0.5795,0.2755,-0.0439,2072
7,-0.2285,-1.0532,-0.2512,0.6679,0.3199,-0.0594,2140
7,-0.3716,-1.1487,-0.1213,0.7245,0.3521,-0.0806,2033
7,-0.3953,-1.2522,-0.1243,0.6248,0.4683,-0.1306,2078
7,-0.3535,-1.2585,-0.2161,0.5072,0.4685,-0.2108,1991
7,-0.3479,-1.2188,-0.2771,0.5538,0.3232,-0.2044,2033
7,-0.407,-1.2102,-0.2595,0.6257,0.1609,-0.2503,2061
7,-0.4609,-1.2229,-0.1465,0.4892,-0.1365,-0.2835,1971
7,-0.4985,-1.1812,-0.0527,0.4131,-0.3434,-0.3075,2042
7,-0.4966,-1.1292,-0.0696,0.3739,-0.3765,-0.3338,2011
7,-0.5205,-1.0864,-0.1257,0.3807,-0.3757,-0.3983,2025
7,-0.5361,-0.9607,-0.0657,0.4486,-0.7371,-0.3827,2047
7,-0.7,-0.9336,-0.1169,0.3678,-0.9537,-0.3598,2065
7,-1.0305,-0.8289,-0.0049,0.2449,-1.2182,-0.2076,2015
7,-1.188,-0.8804,0.2017,0.193,-1.3041,0.0384,2059
7,-1.2185,-1.0435,0.355,0.1562,-1.0796,0.2083,2071
7,-1.051,-1.2468,0.4163,0.0485,-0.8186,0.2396,2091
7,-0.8542,-1.384,0.3223,-0.1309,-0.5514,0.1479,1990
7,-0.5615,-1.3281,0.0671,-0.2237,-0.2507,0.0356,2043
7,-0.479,-1.3132,-0.0286,-0.2019,-0.3,-0.2601,1963
7,-0.5142,-1.2258,-0.1641,-0.0964,-0.452,-0.5658,2002
7,-0.6965,-1.1499,-0.1672,-0.1214,-0.7227,-0.5509,2025
7,-0.9148,-1.0623,-0.0754,-0.0148,-0.9927,-0.4279,2070
7,-1.0544,-1.0022,-0.0186,0.0686,-1.0804,-0.3029,2144
7,-0.958,-0.9668,-0.1255,0.0521,-1.1762,-0.1803,2077
7,-0.8391,-0.9177,-0.1567,0.0479,-1.3857,-0.1056,2027
7,-0.7598,-0.9207,-0.0581,-0.0206,-1.419,-0.1005,2023
7,-0.6931,-0.8293,-0.0103,-0.0405,-1.2794,-0.0894,2019
7,-0.6638,-0.78,0.0662,-0.0766,-0.8803,0.0782,2035
7,-0.656,-0.7834,0.168,-0.1501,-0.3461,0.2053,2009
7,-0.5986,-0.7913,0.2761,-0.2124,0.2052,0.3109,2053
7,-0.5393,-0.8315,0.3018,-0.2709,0.6552,0.3846,2049
7,-0.4414,-0.8899,0.2437,-0.3068,0.9403,0.4091,2020
7,-0.3909,-0.9102,0.1165,-0.2811,1.0352,0.4396,2046
7,-0.342,-0.8611,0.0515,-0.2529,1.0069,0.4342,2066
7,-0.3088,-0.7969,-0.082,-0.2276,0.8666,0.399,2017
7,-0.311,-0.7742,-0.1597,-0.1776,0.6514,0.3879,2021
7,-0.3809,-0.7681,-0.1726,-0.1521,0.4883,0.3864,2024
7,-0.4712,-0.7905,-0.1851,-0.1459,0.3702,0.3641,2027
7,-0.4548,-0.8428,-0.1733,-0.163,0.2687,0.3328,2035
7,-0.384,-0.8713,-0.1855,-0.1903,0.1376,0.2822,2037
7,-0.3318,-0.9062,-0.2437,-0.2033,-0.0483,0.3045,2010
7,-0.387,-0.9526,-0.2495,-0.2252,-0.2047,0.1914,2057
7,-0.4221,-0.9417,-0.1914,-0.1474,-0.2976,0.1432,2026
7,-0.2659,-0.9001,-0.1675,-0.1019,-0.391,0.1278,2013
7,-0.312,-0.9451,-0.1477,-0.0816,-0.383,0.075,2027
7,-0.4021,-0.9929,-0.0117,-0.0888,-0.2035,0.0076,2057
7,-0.3569,-0.9761,-0.0278,-0.1214,0.0465,-0.0201,2051
7,-0.4082,-0.9683,-0.0781,-0.0928,0.1494,-0.0254,2002
7,-0.4473,-0.989,-0.0376,-0.0674,0.2123,-0.0526,2052
7,-0.4441,-1.0005,-0.2087,-0.0281,0.1412,-0.0509,2047
7,-0.5938,-1.1636,-0.2327,0.0707,-0.0534,-0.0891,2053
7,-0.439,-1.3794,-0.3262,0.2071,-0.0482,-0.242,2059
7,-0.3582,-1.4746,-0.4292,0.3164,-0.1451,-0.3944,2050
7,-0.5984,-1.4958,-0.2771,0.3742,-0.1513,-0.4771,2004
7,-0.8779,-1.3403,-0.2654,0.3561,-0.1057,-0.4682,1914
7,-1.1133,-1.2339,-0.3105,0.2514,-0.1617,-0.3802,2123
7,-1.2295,-1.1328,-0.3977,0.1072,-0.2571,-0.2835,2044
7,-1.1499,-1.1577,-0.4556,-0.0117,-0.4685,-0.2476,1977
7,-0.9077,-1.1294,-0.5718,-0.1068,-0.7754,-0.2123,1896
7,-0.8013,-1.0789,-0.5344,-0.1137,-1.1677,-0.1728,1997
7,-0.8347,-1.0051,-0.3296,-0.1131,-1.0986,-0.1482,2047
7,-0.667,-1.0244,-0.1619,-0.1091,-0.7886,-0.151,2069
7,-0.7734,-0.9219,-0.1653,-0.0097,-0.2466,-0.0983,2009
7,-0.7859,-0.9944,0.0459,0.1033,0.4417,-0.1313,2104
7,-0.8296,-0.9133,-0.0227,0.2301,0.8821,-0.0481,2021
7,-0.7939,-0.9297,-0.0244,0.2465,1.0288,0.0032,2027
7,-0.7195,-0.8684,-0.1165,0.4565,1.2054,0.0443,2020
7,-0.5076,-1.0271,-0.1497,0.501,1.0728,0.147,2056
7,-0.2971,-1.116,-0.0823,0.3601,0.7308,0.2784,2041
7,-0.2825,-0.8962,-0.1729,0.4562,0.6149,0.2798,2045
7,-0.2515,-0.9204,-0.1155,0.6272,0.6584,0.2076,2077
7,-0.3538,-0.8445,-0.238,0.5456,0.5786,0.2181,2002
7,-0.6182,-0.6587,-0.3262,0.7558,0.9352,0.0667,2064
7,-0.5491,-0.8506,-0.3706,0.5545,0.6766,0.1892,1997
7,-0.49,-0.7903,-0.4299,0.4657,0.4368,0.2766,2045
7,-0.416,-0.7522,-0.3967,0.6727,0.3882,0.3156,2048
7,-0.3484,-0.8086,-0.4209,0.6131,0.0316,0.3376,2016
7,-0.4546,-0.8455,-0.3447,0.6353,0.0637,0.306,2022
7,-0.4851,-0.9148,-0.2791,0.6853,0.1856,0.3065,2053
7,-0.4399,-0.9678,-0.3274,0.7243,0.3136,0.3161,2109
7,-0.3828,-1.0112,-0.3726,0.7709,0.2766,0.2882,2059
7,-0.3186,-1.0603,-0.3665,0.7613,0.2444,0.3013,2110
7,-0.3181,-1.0422,-0.3438,0.7814,0.0902,0.24,1991
7,-0.3174,-1.0359,-0.2966,0.7472,-0.0407,0.1816,2019
7,-0.353,-1.0769,-0.2256,0.6505,-0.1161,0.1718,2119
7,-0.5208,-0.874,-0.2068,0.7668,-0.0826,0.0915,1942
7,-0.5164,-0.9575,-0.1211,0.7946,-0.1268,0.0296,2140
7,-0.51,-0.9868,-0.0981,0.6003,-0.2495,0.2285,2000
8,-0.5156,-0.9775,0.0212,0.7209,-0.3739,0.1252,2053
8,-0.3997,-1.1636,0.1028,0.5683,-0.5673,0.1816,2063
8,-0.5266,-1.0854,0.1394,0.4542,-0.652,0.098,2016
8,-0.6389,-1.1121,0.1807,0.2591,-0.7316,0.1409,2023
8,-0.9448,-1.0381,0.2795,0.1109,-0.8826,0.1269,2068
8,-1.1204,-1.0781,0.2561,0.1554,-0.7561,-0.0684,2018
8,-0.9878,-1.3411,0.1873,-0.0039,-0.8898,-0.0438,2077
8,-1.2695,-1.0544,-0.0225,-0.1282,-0.9917,-0.0819,1991
8,-1.0974,-1.1567,-0.0137,-0.4061,-1.5059,-0.1056,2003
8,-1.1138,-1.1182,0.0,-0.284,-1.5856,-0.1607,2036
8,-1.1877,-1.0735,0.0095,-0.1385,-1.0608,-0.2173,2039
8,-1.0166,-0.9451,0.0527,-0.026,-0.4064,-0.0816,2077
8,-0.9822,-0.8818,0.0999,-0.0029,-0.0358,0.0051,2046
8,-0.8105,-0.9038,0.0583,0.0314,0.355,0.1029,2119
8,-0.6299,-0.9319,-0.0701,0.0415,0.3217,0.176,2037
8,-0.593,-0.9316,-0.0593,0.0032,0.0234,0.2043,2049
8,-0.5967,-0.9062,-0.0298,-0.0471,-0.2908,0.2402,2063
8,-0.6697,-0.8875,0.0413,-0.0811,-0.4662,0.2559,2032
8,-0.6638,-0.8604,0.0845,-0.1278,-0.3711,0.2081,2021
8,-0.6812,-0.802,0.1033,-0.1847,-0.2076,0.1486,2023
8,-0.666,-0.7373,0.1252,-0.2397,-0.0357,0.0888,2057
8,-0.5747,-0.7217,0.104,-0.2939,0.096,0.0507,2022
8,-0.4736,-0.7485,0.04,-0.2898,0.1627,0.096,2038
8,-0.4119,-0.7549,-0.0432,-0.2735,0.1477,0.1573,2041
8,-0.3511,-0.7734,-0.0779,-0.337,0.0217,0.1879,2047
8,-0.3291,-0.7761,-0.0618,-0.3927,-0.0734,0.2265,2018
8,-0.3044,-0.7842,-0.0288,-0.3858,-0.1442,0.2971,2047
8,-0.3931,-0.7722,-0.03,-0.3508,-0.0892,0.2433,2016
8,-0.4272,-0.7969,-0.0232,-0.3072,-0.0047,0.1615,2044
8,-0.3828,-0.8184,-0.0505,-0.3329,0.0384,0.0744,2049
8,-0.3525,-0.8235,-0.124,-0.2922,-0.0509,0.0314,2098
8,-0.3159,-0.8516,-0.1677,-0.2413,-0.228,0.018,2019
8,-0.3005,-0.8989,-0.1816,-0.2189,-0.3995,0.0184,2029
8,-0.4741,-0.8965,-0.1697,-0.271,-0.5512,0.0437,2008
8,-0.375,-0.9517,-0.1135,-0.2525,-0.5526,0.0366,2030
8,-0.4766,-0.9954,-0.0388,-0.2775,-0.5076,0.0381,2060
8,-0.5017,-1.1035,0.071,-0.2892,-0.3196,0.0093,2049
8,-0.3833,-1.1294,0.0234,-0.3462,0.0142,-0.0349,2041
8,-0.4026,-1.1589,-0.0732,-0.4079,0.2077,-0.1004,2082
8,-0.4116,-1.1189,-0.1519,-0.4116,0.3485,-0.1364,2045
8,-0.4609,-1.1077,-0.2385,-0.3633,0.3546,-0.1896,2040
8,-0.4077,-1.053,-0.3882,-0.2822,0.2388,-0.2277,2081
8,-0.6023,-1.0349,-0.4331,-0.2111,-0.0502,-0.2084,2037
8,-0.8127,-1.2002,-0.27,-0.1232,-0.2549,-0.2811,2066
8,-0.5852,-1.2988,-0.3789,-0.0716,-0.2626,-0.3686,2123
8,-0.5339,-1.356,-0.4143,0.0458,-0.6066,-0.43,1967
8,-0.6655,-1.3774,-0.2683,0.1539,-0.7931,-0.4421,2059
8,-0.8806,-1.3481,-0.2156,0.1384,-0.8729,-0.3918,2032
8,-1.1646,-1.3433,-0.1711,0.0798,-0.9693,-0.2782,2063
8,-1.4045,-1.3,-0.1577,-0.0329,-0.8621,-0.2236,2137
8,-1.2415,-1.2266,-0.3123,-0.195,-0.6735,-0.2112,2074
8,-1.0283,-1.1514,-0.4048,-0.3115,-0.8347,-0.2109,2007
8,-0.8049,-1.0273,-0.4294,-0.3828,-1.0757,-0.1907,1942
8,-0.8433,-0.8186,-0.397,-0.1679,-0.8264,-0.3709,1978
8,-0.8362,-0.79,-0.2812,0.041,-0.5793,-0.545,2012
8,-0.8665,-0.8005,-0.1316,0.0538,-0.4348,-0.5588,2004
8,-0.9624,-0.7776,-0.1084,0.0515,-0.1633,-0.3651,2033
8,-0.9697,-0.7097,-0.0752,0.2464,0.1364,-0.1843,2023
8,-0.7834,-0.8191,-0.0928,0.5333,0.3924,-0.0836,2096
8,-0.6042,-0.9895,-0.0757,0.6333,0.3484,0.0766,2116
8,-0.5024,-1.0261,-0.0271,0.5683,0.3424,0.3116,2077
8,-0.5117,-0.8855,-0.04,0.5995,0.3635,0.3615,2028
8,-0.4573,-0.8933,-0.0771,0.6493,0.5212,0.375,2017
8,-0.4675,-0.8909,-0.1194,0.6653,0.5978,0.3053,2038
8,-0.5383,-0.8818,-0.1755,0.6228,0.6982,0.3298,2021
8,-0.4441,-0.8765,-0.2864,0.5287,0.8191,0.3317,2032
8,-0.3943,-0.8696,-0.3257,0.4163,0.8453,0.2369,2032
8,-0.4395,-0.8257,-0.397,0.3342,0.7935,0.2096,2016
8,-0.4124,-0.7961,-0.4192,0.3374,0.5654,0.276,1992
8,-0.3811,-0.7964,-0.408,0.4357,0.4168,0.3204,2055
8,-0.3901,-0.8127,-0.3445,0.4191,0.3157,0.2519,2040
8,-0.365,-0.8491,-0.3398,0.3417,0.3529,0.242,2075
8,-0.3291,-0.918,-0.3201,0.2607,0.2711,0.2288,2010
8,-0.4001,-0.8794,-0.28,0.3417,0.2147,0.2538,2055
8,-0.4517,-0.8008,-0.2039,0.4276,0.3252,0.1204,2059
8,-0.3542,-0.9109,-0.1396,0.5725,0.4987,-0.0265,2075
8,-0.179,-1.0144,-0.0796,0.5414,0.375,0.1151,2070
8,-0.1487,-0.9697,-0.1326,0.494,0.3575,0.0127,2049
8,-0.1416,-0.989,-0.1191,0.4585,0.2547,-0.0768,2053
8,-0.2695,-0.969,-0.1531,0.4085,0.2526,-0.1398,2001
8,-0.3591,-0.999,-0.0471,0.4169,0.0704,-0.2234,2073
8,-0.4331,-1.0701,0.0508,0.3679,-0.125,-0.2879,2104
8,-0.4768,-1.0498,-0.0249,0.2983,-0.2771,-0.3998,2066
8,-0.4753,-0.9836,-0.1384,0.2701,-0.5758,-0.4452,2070
8,-0.5703,-1.0828,-0.1003,0.2087,-0.9333,-0.4422,2055
8,-0.7329,-1.1663,-0.0017,0.112,-1.2551,-0.3446,2007
8,-0.936,-1.1587,0.0137,0.0333,-1.2785,-0.3084,2053
8,-1.1335,-1.2249,0.1465,-0.1499,-1.3368,-0.3625,2013
8,-1.1196,-1.1431,0.2603,-0.143,-1.5036,-0.328,2059
8,-1.0552,-1.2197,0.2678,-0.1432,-1.2014,-0.3224,2116
8,-1.0056,-1.3264,0.217,-0.0937,-0.8329,-0.2313,2047
8,-0.8103,-1.2524,0.1887,-0.0229,-0.7106,-0.1569,2062
8,-0.9961,-1.241,0.1675,0.0664,-0.3526,-0.0253,2022
8,-1.1501,-1.2185,0.2068,0.1153,0.0321,0.1553,2038
8,-0.9941,-1.1848,0.1777,-0.0124,0.3203,0.1679,2037
8,-0.8362,-1.1074,0.074,-0.1976,0.2487,0.0939,2031
8,-0.6848,-1.1101,-0.0146,-0.3497,-0.1739,-0.0229,2049
8,-0.585,-1.094,-0.1106,-0.2394,-0.6881,-0.0377,2043
8,-0.7207,-0.9565,-0.136,-0.0401,-1.1147,0.0502,2106
8,-0.8164,-0.8303,-0.1011,0.0664,-1.2475,0.1734,2020
8,-0.8958,-0.803,-0.0134,0.0811,-1.062,0.263,2039
8,-0.7756,-0.8477,0.041,-0.0115,-0.6628,0.3179,2009
8,-0.6394,-0.8833,0.0703,-0.116,-0.2282,0.3609,2114
9,-0.4795,-0.8201,0.0698,-0.2457,0.0169,0.3342,2024
9,-0.3398,-0.7412,0.0447,-0.3599,0.0762,0.249,2020
9,-0.3013,-0.6687,0.0244,-0.3695,0.2135,0.228,2039
9,-0.3242,-0.6277,-0.0186,-0.3342,0.3012,0.2248,2071
9,-0.3289,-0.5828,-0.1042,-0.2654,0.3257,0.2145,2033
9,-0.29,-0.6023,-0.1787,-0.2019,0.1752,0.2314,2045
9,-0.3167,-0.6733,-0.1716,-0.1145,-0.0467,0.2717,2046
9,-0.3433,-0.7312,-0.0942,0.0031,-0.2823,0.3083,2066
9,-0.3357,-0.822,-0.0432,0.002,-0.4556,0.3274,2059
9,-0.4255,-0.7102,-0.0852,0.0201,-0.483,0.3167,2064
9,-0.3523,-0.8848,0.0266,-0.079,-0.4344,0.2868,2075
9,-0.29,-0.9495,-0.0476,-0.3926,-0.3791,0.4524,2029
9,-0.3279,-0.8008,-0.0928,-0.2374,-0.0273,0.2464,2013
9,-0.22,-0.9426,-0.1213,-0.2976,0.1569,0.1453,2010
9,-0.2886,-0.8992,-0.2324,-0.228,0.2163,0.0776,2051
9,-0.3354,-0.981,-0.2168,-0.2143,0.0687,0.0298,2054
9,-0.4041,-0.9509,-0.249,-0.035,-0.1963,-0.1186,2168
9,-0.4006,-1.0237,-0.2334,-0.1451,-0.4016,-0.1498,1996
9,-0.5066,-1.0356,-0.3125,-0.2433,-0.7054,-0.1521,1996
9,-0.5549,-1.1077,-0.2527,-0.3079,-0.874,-0.1595,2060
9,-0.4753,-1.1458,-0.4312,-0.288,-0.83,-0.1856,2046
9,-0.634,-1.2275,-0.4998,-0.2453,-1.0073,-0.2507,2014
9,-0.656,-1.4177,-0.3601,-0.1935,-1.0926,-0.4252,2103
9,-0.5952,-1.3701,-0.374,-0.1071,-1.1162,-0.5627,2116
9,-0.6343,-1.281,-0.2598,-0.0937,-1.4406,-0.6361,1979
9,-0.8135,-1.217,-0.063,-0.0969,-1.8547,-0.6273,2032
9,-1.0344,-1.1699,0.1406,-0.0613,-1.9916,-0.5376,2052
9,-1.2979,-1.1458,0.2544,-0.0521,-1.8916,-0.4292,2100
9,-1.3069,-1.2263,0.2544,-0.1322,-1.3922,-0.399,2115
9,-1.1501,-1.2891,0.0884,-0.1934,-0.912,-0.3856,2032
9,-0.9705,-1.2356,-0.123,-0.188,-0.603,-0.3245,1999
9,-0.843,-1.2322,-0.1877,-0.1555,-0.6425,-0.3912,1993
9,-0.8894,-1.1069,-0.1362,-0.0858,-0.4211,-0.2594,1977
9,-0.9084,-0.9065,-0.0085,0.0467,0.102,-0.084,2010
9,-0.9304,-0.916,-0.05,-0.0646,-0.0274,0.0,2010
9,-0.9739,-0.5112,-0.0652,0.3875,0.8761,-0.1413,2111
9,-0.7249,-1.0078,-0.0095,0.1404,0.5221,0.1168,2022
9,-0.79,-0.8108,-0.0295,0.3618,0.8521,0.1607,2064
9,-0.6091,-0.938,-0.0608,0.4147,0.8404,0.3219,2044
9,-0.5398,-0.9456,-0.0938,0.5117,0.8802,0.3607,2051
9,-0.4758,-0.9473,-0.0942,0.6239,1.1144,0.3935,2039
9,-0.4812,-0.947,-0.1685,0.5974,1.2037,0.3454,2064
9,-0.5303,-0.9165,-0.1848,0.5729,1.2854,0.3215,2094
9,-0.5659,-0.8801,-0.1882,0.5095,1.3167,0.3093,2116
9,-0.572,-0.8184,-0.2109,0.4259,1.3966,0.3088,2028
9,-0.5056,-0.7517,-0.3147,0.2598,1.27,0.2567,2050
9,-0.3323,-0.761,-0.3989,0.2537,1.0017,0.239,2016
9,-0.2703,-0.7632,-0.4189,0.2697,0.6368,0.232,2025
9,-0.3394,-0.7542,-0.4041,0.2822,0.4192,0.2408,2000
9,-0.3816,-0.7676,-0.3281,0.2417,0.3986,0.1783,2057
9,-0.3875,-0.7637,-0.323,0.2828,0.275,0.179,2033
9,-0.4775,-0.8965,-0.2683,0.2667,0.3807,0.1727,2123
9,-0.3674,-0.8,-0.1868,0.4092,0.2296,0.1667,2032
9,-0.4106,-0.9006,-0.1484,0.3374,0.4787,0.1354,2047
9,-0.2605,-0.877,-0.1504,0.4852,0.4044,0.1272,2053
9,-0.3179,-0.9375,-0.106,0.5155,0.4685,0.1838,2073
9,-0.2222,-0.9309,-0.1777,0.4418,0.5002,0.1507,2080
9,-0.2209,-1.0188,-0.1609,0.5287,0.4377,0.0875,2023
9,-0.3567,-1.1609,-0.0745,0.4599,0.4673,0.0658,2100
9,-0.3225,-1.0132,-0.1729,0.5484,0.4706,0.0732,2032
9,-0.2922,-1.2178,-0.1516,0.493,0.4516,0.0088,2038
9,-0.2583,-1.2959,-0.1846,0.371,0.5735,0.0388,2001
9,-0.2878,-1.1389,-0.2822,0.4432,0.4173,-0.0077,2091
9,-0.3049,-1.2292,-0.2817,0.4164,0.2385,-0.0924,1968
9,-0.3496,-1.2725,-0.1975,0.349,-0.079,-0.1418,2044
9,-0.3445,-1.2888,-0.1326,0.2831,-0.3055,-0.2189,2026
9,-0.3586,-1.26,-0.1208,0.2674,-0.4738,-0.3782,2008
9,-0.3696,-1.2312,-0.126,0.2674,-0.7313,-0.4987,2038
9,-0.4417,-1.1548,-0.116,0.2181,-1.0272,-0.6026,2052
9,-0.6167,-1.0063,-0.094,0.2762,-1.2639,-0.6922,1900
9,-0.9941,-0.9197,-0.0261,0.3278,-1.4295,-0.6295,2080
9,-1.2827,-0.8794,0.0994,0.269,-1.3629,-0.3549,2097
9,-1.3279,-0.8401,0.1831,0.238,-1.1117,-0.0333,2126
9,-1.1277,-0.7883,0.2131,0.3434,-0.9251,0.3726,2058
9,-1.0288,-1.0186,0.2898,0.2701,-0.6263,0.5173,2024
9,-0.76,-1.1572,0.3467,0.1938,-0.5199,0.6296,2050
9,-0.5483,-1.28,0.3774,0.1055,-0.5227,0.4791,2048
9,-0.436,-1.3816,0.3508,-0.0481,-0.7058,0.2143,2058
9,-0.5447,-1.3853,0.3452,-0.1388,-0.9166,-0.0768,1993
9,-0.7009,-1.342,0.1753,-0.0727,-1.188,-0.2976,2043
9,-0.9817,-1.228,0.0593,0.0988,-1.4577,-0.3286,2050
9,-1.0781,-1.0918,-0.0256,0.1751,-1.3572,-0.322,2151
9,-1.1567,-0.9629,-0.0989,0.1706,-1.1793,-0.2458,2098
9,-1.1499,-0.8328,-0.1443,0.1149,-0.9943,-0.1129,2025
9,-1.0356,-0.7339,-0.1208,0.0349,-0.8548,-0.0079,1971
9,-0.8586,-0.7307,-0.1362,-0.0646,-0.6213,0.1493,2002
9,-0.7236,-0.8018,-0.1416,-0.1537,-0.4872,0.2386,2025
9,-0.6177,-0.8142,-0.0679,-0.1997,-0.385,0.3055,2065
9,-0.5413,-0.8899,0.0452,-0.2418,-0.1787,0.4079,2036
9,-0.5122,-0.8994,0.1204,-0.2867,0.0794,0.4682,2042
9,-0.4685,-0.8726,0.1724,-0.3037,0.3175,0.4678,2018
9,-0.4172,-0.832,0.228,-0.2671,0.5035,0.4236,2032
9,-0.4321,-0.7671,0.1697,-0.2775,0.7305,0.4228,2046
9,-0.3408,-0.7148,0.0938,-0.2101,0.7373,0.4131,2043
9,-0.3271,-0.7131,0.0298,-0.1446,0.5185,0.3928,2038
9,-0.3433,-0.7456,0.0002,-0.089,0.2916,0.3934,2054
9,-0.3821,-0.7964,-0.0696,-0.0899,0.1272,0.4055,2078
9,-0.3027,-0.8621,-0.1052,-0.1137,0.0025,0.3669,2051
9,-0.3999,-0.8643,-0.144,-0.1678,-0.0278,0.3535,2032
9,-0.3196,-0.8904,-0.1621,-0.2292,-0.0176,0.2766,2038
9,-0.3499,-0.8479,-0.1887,-0.2748,0.0025,0.2364,2096
9,-0.3306,-0.9226,-0.189,-0.2948,-0.0369,0.1261,2020
10,-0.386,-0.8958,-0.1904,-0.326,-0.1389,0.1626,2066
10,-0.335,-0.9084,-0.1523,-0.2816,-0.1867,0.0467,2042
10,-0.4338,-0.895,-0.1968,-0.2523,-0.2638,-0.0489,2039
10,-0.3562,-1.0012,-0.0764,-0.251,-0.4188,-0.0337,2019
10,-0.3315,-1.0579,0.0002,-0.2453,-0.45,-0.0916,2058
10,-0.2126,-1.1123,0.0085,-0.2665,-0.4505,-0.1181,2017
10,-0.2422,-1.1389,0.0413,-0.2707,-0.4556,-0.1855,2096
10,-0.2402,-1.1316,0.0742,-0.2454,-0.363,-0.2362,2032
10,-0.2722,-1.1072,0.0618,-0.228,-0.2063,-0.2693,2030
10,-0.3669,-1.0786,0.02,-0.1779,-0.0133,-0.2702,1996
10,-0.4548,-1.1462,-0.0269,-0.1719,0.18,-0.2883,2042
10,-0.552,-1.2056,-0.1226,-0.1087,0.4101,-0.285,2008
10,-0.5881,-1.2285,-0.196,-0.0827,0.5047,-0.2951,2132
10,-0.6028,-1.3149,-0.2856,-0.0313,0.4972,-0.3638,2058
10,-0.5938,-1.3459,-0.3594,0.0715,0.377,-0.4713,1979
10,-0.6343,-1.2915,-0.3801,0.2056,0.0068,-0.5746,2054
10,-0.7759,-1.2012,-0.2891,0.3365,-0.4018,-0.5888,2048
10,-0.9143,-1.1628,-0.1616,0.3887,-0.6668,-0.5562,2053
10,-1.0168,-1.1895,-0.0781,0.4112,-0.6682,-0.4887,2099
10,-1.1326,-1.2109,-0.0081,0.3221,-0.3922,-0.4364,2056
10,-1.0928,-1.2153,-0.0444,0.1987,0.1376,-0.4192,2005
10,-0.9961,-1.1494,-0.1526,0.0736,0.4108,-0.348,2010
10,-0.8223,-1.1448,-0.2739,-0.0727,0.3922,-0.276,2024
10,-0.7424,-0.8005,-0.2632,0.1638,0.74,-0.4237,1989
10,-0.6541,-0.9741,-0.3167,0.1281,0.2561,-0.3919,2032
10,-0.8206,-0.7966,-0.3376,0.1685,0.2503,-0.418,2072
10,-0.8301,-0.8213,-0.2424,0.384,0.2891,-0.4442,2097
10,-0.7971,-0.8958,-0.1516,0.4817,0.3891,-0.2972,2065
10,-0.7876,-0.9016,-0.1477,0.5414,0.5281,-0.1758,2107
10,-0.7703,-0.9883,-0.0894,0.5086,0.6416,0.0325,2062
10,-0.7151,-1.0217,-0.0977,0.4287,0.8128,0.2691,2155
10,-0.6982,-0.8914,-0.1733,0.5128,1.06,0.3322,2090
10,-0.6438,-0.9031,-0.1406,0.5787,1.292,0.3557,2077
10,-0.5659,-0.9124,-0.229,0.5422,1.4577,0.2799,2020
10,-0.4402,-0.8772,-0.3315,0.4831,1.472,0.2502,2022
10,-0.3196,-0.8931,-0.4836,0.4337,1.2251,0.2215,2088
10,-0.3044,-0.9202,-0.5254,0.4831,0.7774,0.1951,2015
10,-0.3762,-0.9155,-0.5059,0.3798,0.3795,0.1904,2035
10,-0.3748,-0.9124,-0.467,0.2978,-0.0097,0.1852,2049
10,-0.4131,-0.8342,-0.4165,0.2804,-0.1859,0.1716,2122
10,-0.4651,-0.7773,-0.3311,0.3306,-0.2171,0.0956,1990
10,-0.5068,-0.7798,-0.2708,0.4568,-0.0145,0.0708,2068
10,-0.47,-0.7986,-0.2241,0.4751,0.2756,0.075,2007
10,-0.3789,-0.8457,-0.2805,0.5442,0.492,0.0868,2052
10,-0.3232,-0.8633,-0.3274,0.6151,0.5442,0.1204,1983
10,-0.2344,-0.9619,-0.3694,0.5541,0.4723,0.1245,2133
10,-0.1909,-0.9778,-0.3848,0.6008,0.3345,0.1529,2071
10,-0.1853,-1.0615,-0.3271,0.5928,0.2053,0.2019,2077
10,-0.1765,-1.1382,-0.2742,0.5054,0.0301,0.1879,2085
10,-0.2058,-1.0906,-0.2427,0.5096,-0.0884,0.1502,2009
10,-0.217,-1.0793,-0.2126,0.5492,-0.179,0.0422,2115
10,-0.2236,-1.1377,-0.124,0.6602,-0.2755,-0.0225,2006
10,-0.1804,-1.293,0.0208,0.589,-0.4128,0.0314,2059
10,-0.2175,-1.3235,0.1423,0.4775,-0.4723,0.0506,2032
10,-0.3884,-1.2063,0.1863,0.4759,-0.5641,-0.1637,2016
10,-0.3933,-1.2708,0.1406,0.4599,-0.5939,-0.3253,1992
10,-0.4482,-1.2107,0.0476,0.4536,-0.7147,-0.3546,2011
10,-0.594,-1.1741,-0.0027,0.3532,-0.8155,-0.3482,2023
10,-0.6055,-1.0186,-0.0325,0.3107,-1.0894,-0.3091,2075
10,-0.8003,-0.925,-0.0562,0.2233,-1.3267,-0.2533,2060
10,-1.0454,-0.8057,-0.0093,0.1619,-1.4767,-0.0386,2005
10,-1.0515,-0.8123,0.0876,0.2053,-1.3474,0.1405,2088
10,-0.9844,-0.9336,0.2219,0.2328,-1.2252,0.3906,2118
10,-0.8687,-1.0935,0.3364,0.1577,-1.0754,0.551,2069
10,-0.6055,-1.2698,0.4258,-0.0072,-0.961,0.4938,2042
10,-0.4355,-1.4131,0.3855,-0.2404,-0.7008,0.2864,1988
10,-0.2449,-1.2703,0.4285,-0.3582,-0.8084,0.1112,1977
10,-0.3833,-1.3303,0.3464,-0.2718,-1.0159,-0.3469,2016
10,-0.7019,-1.335,0.2959,-0.3083,-1.3117,-0.4561,2021
10,-0.9536,-1.1733,0.25,-0.1016,-1.4946,-0.4257,2085
10,-1.1077,-0.9949,0.1008,0.0194,-1.2292,-0.3185,2200
10,-1.1243,-0.8748,-0.0803,0.0423,-1.0633,-0.1863,2099
10,-1.0291,-0.8367,-0.188,0.0117,-0.9488,-0.0394,1955
10,-0.8606,-0.8389,-0.2085,-0.08,-0.8464,0.0899,1983
10,-0.7034,-0.8372,-0.1775,-0.1763,-0.6747,0.234,2098
10,-0.5671,-0.8508,-0.0757,-0.2457,-0.5524,0.3598,2030
10,-0.5056,-0.8416,0.0708,-0.3381,-0.3923,0.4204,2020
10,-0.5071,-0.8398,0.1809,-0.3615,-0.1216,0.4912,1995
10,-0.4915,-0.8323,0.2439,-0.3441,0.1309,0.5237,2027
10,-0.4492,-0.8445,0.2739,-0.3393,0.3358,0.528,2037
10,-0.3699,-0.8054,0.2209,-0.2988,0.4187,0.4916,2047
10,-0.3479,-0.7612,0.1355,-0.2892,0.4026,0.5124,2046
10,-0.3633,-0.7222,0.0876,-0.1828,0.2992,0.5486,2046
10,-0.3923,-0.739,0.0544,-0.1196,0.239,0.5442,2057
10,-0.3982,-0.7961,-0.0181,-0.1055,0.2639,0.5225,2052
10,-0.3582,-0.8132,-0.1621,-0.172,0.2586,0.5244,2029
10,-0.429,-0.9497,-0.158,-0.212,0.2567,0.4429,2055
10,-0.4617,-1.1714,-0.1707,-0.3508,0.1619,0.3235,2073
10,-0.4207,-0.9346,-0.2981,-0.3243,-0.1362,0.3742,2048
10,-0.2856,-1.2947,-0.1958,-0.5701,-0.5746,0.2518,2032
10,-0.4209,-1.012,-0.2893,-0.3669,-0.8139,0.2506,2055
10,-0.2273,-1.0374,-0.167,-0.3444,-0.999,0.3376,2132
10,-0.3933,-0.9265,-0.0728,-0.316,-0.9417,0.212,2019
10,-0.3701,-0.9817,-0.0088,-0.3426,-0.8696,0.0719,2077
10,-0.3259,-0.9736,0.0063,-0.3562,-0.6576,0.0509,1981
10,-0.4014,-0.9741,-0.0188,-0.3737,-0.4442,0.0317,2049
10,-0.4614,-1.0276,-0.0876,-0.3277,-0.2159,-0.0161,2119
10,-0.428,-1.0337,-0.2092,-0.3017,-0.0182,-0.0855,2108
10,-0.4973,-1.0056,-0.3774,-0.2225,-0.1063,-0.081,2035
10,-0.7666,-1.1118,-0.2795,-0.1914,-0.2803,-0.1136,2046
10,-0.6873,-1.26,-0.3428,-0.1167,-0.2436,-0.2249,2147
10,-0.5732,-1.3748,-0.3281,-0.0176,-0.5568,-0.3284,1985
10,-0.4307,-1.4626,-0.3069,0.0204,-0.8974,-0.4217,2054
11,-0.5427,-1.4438,-0.2354,0.0397,-1.2924,-0.4072,2116
11,-0.7751,-1.3325,-0.0806,0.0273,-1.4671,-0.3569,1986
11,-1.0159,-1.2158,-0.0234,-0.0537,-1.3169,-0.2956,2054
11,-1.1387,-1.1318,-0.0122,-0.159,-0.8998,-0.2739,2124
11,-1.061,-1.0461,-0.0623,-0.2421,-0.4027,-0.2952,2056
11,-0.9009,-0.9636,-0.1755,-0.2077,-0.0537,-0.3212,2002
11,-0.9404,-0.8523,-0.29,-0.0609,0.2719,-0.4199,1979
11,-0.7344,-0.8723,-0.2327,0.0747,0.346,-0.4964,1994
11,-0.8125,-0.8628,-0.1694,0.2397,0.528,-0.5942,1999
11,-0.8413,-0.8872,-0.0327,0.349,0.5701,-0.6629,2012
11,-0.7859,-0.9651,-0.0127,0.3438,0.6525,-0.4008,2009
11,-0.7166,-0.8926,-0.053,0.3585,0.6887,-0.0959,2128
11,-0.6138,-0.8401,-0.0393,0.6907,0.6325,0.0623,2081
11,-0.406,-0.9917,-0.0322,0.6554,0.5019,0.2103,2098
11,-0.3032,-0.9863,-0.0374,0.6249,0.2464,0.3402,2094
11,-0.3062,-0.9026,-0.0562,0.7018,0.1779,0.4075,2059
11,-0.3591,-0.9119,-0.0569,0.7769,0.2201,0.4408,2051
11,-0.4329,-0.9436,-0.0227,0.7722,0.3956,0.49,2059
11,-0.5229,-0.9363,-0.1013,0.6067,0.695,0.4103,2091
11,-0.5237,-0.8989,-0.1968,0.571,0.7083,0.3766,2031
11,-0.4949,-0.9106,-0.2554,0.5825,0.705,0.3276,1993
11,-0.3704,-0.9229,-0.3865,0.5667,0.5814,0.3301,2016
11,-0.2725,-0.915,-0.429,0.5627,0.4079,0.3149,2103
11,-0.2903,-0.9285,-0.438,0.4959,0.2531,0.2336,1993
11,-0.3657,-0.8718,-0.4114,0.5366,0.1952,0.1506,2105
11,-0.4563,-0.9292,-0.3577,0.5285,0.1121,0.1121,1993
11,-0.4468,-0.8965,-0.3921,0.5183,0.1257,0.1107,2076
11,-0.3799,-0.9443,-0.3684,0.5409,0.0033,0.0354,2052
11,-0.3428,-0.9932,-0.334,0.5434,-0.1044,0.0413,1995
11,-0.3154,-1.0027,-0.2344,0.5345,-0.2816,0.0642,2072
11,-0.3191,-1.0459,-0.0703,0.5819,-0.2996,0.0586,2030
11,-0.3081,-1.0869,0.0569,0.5529,-0.2252,0.0043,2081
11,-0.2769,-1.1228,0.125,0.4888,-0.1819,-0.0523,2078
11,-0.1943,-1.2085,0.1948,0.4063,-0.248,-0.1549,2080
11,-0.1597,-1.218,0.198,0.3593,-0.4131,-0.2823,2015
11,-0.2986,-1.0637,0.1689,0.3372,-0.6327,-0.5484,2051
11,-0.4167,-1.0117,0.1094,0.3457,-0.8291,-0.7293,2080
11,-0.5916,-0.9297,0.0801,0.3734,-0.9999,-0.7332,2030
11,-0.7634,-0.8418,0.0918,0.2911,-1.0612,-0.658,2046
11,-0.9424,-0.8254,0.1199,0.2233,-0.9808,-0.4433,2040
11,-1.01,-0.947,0.1248,0.1093,-0.8231,-0.1766,2078
11,-0.8857,-1.0239,0.135,0.0714,-0.7211,0.167,2060
11,-0.5906,-1.158,0.2231,-0.0384,-0.7823,0.3717,2045
11,-0.3479,-1.3933,0.364,-0.2457,-0.9344,0.3513,2044
11,-0.2083,-1.425,0.4294,-0.3334,-1.0614,0.2123,2038
11,-0.2688,-1.343,0.4197,-0.3939,-1.1907,-0.2192,2018
11,-0.3806,-1.2388,0.3049,-0.3571,-1.1231,-0.6649,2021
11,-0.6992,-1.1458,0.271,-0.2545,-1.211,-0.8036,2046
11,-0.9526,-1.1033,0.2256,0.0174,-1.3504,-0.7162,2034
11,-1.0076,-0.9973,0.1208,0.049,-1.2663,-0.5107,2107
11,-0.9194,-0.9194,0.0151,0.0455,-1.2109,-0.3221,2084
11,-0.752,-0.8516,-0.0564,-0.015,-1.3962,-0.1281,2115
11,-0.6104,-0.8701,0.0073,-0.0382,-1.649,0.0288,2003
11,-0.4875,-0.9004,0.0535,-0.1077,-1.7743,0.1764,2030
11,-0.4421,-0.9397,0.1367,-0.0055,-1.9337,0.2906,2045
11,-0.4006,-0.9443,0.24,0.0308,-1.8385,0.3994,2015
11,-0.4568,-1.0361,0.3833,-0.2196,-1.2408,0.5299,2040
11,-0.4116,-0.8875,0.3745,-0.0791,-1.0524,0.4237,1988
11,-0.4348,-0.8916,0.3594,-0.1067,-0.5894,0.3665,2041
11,-0.4473,-0.8762,0.3123,-0.1438,-0.2735,0.3799,2029
11,-0.3811,-0.7549,0.1331,-0.0751,-0.2634,0.3911,2072
11,-0.3391,-0.9504,0.134,-0.1043,-0.3504,0.4256,2080
11,-0.3843,-0.9812,0.0908,-0.0876,-0.5569,0.467,2010
11,-0.3342,-0.9714,0.009,-0.0936,-0.7793,0.4843,2032
11,-0.406,-0.947,-0.0142,-0.1132,-0.9911,0.4866,2019
11,-0.3081,-0.9385,-0.0164,-0.1437,-1.0939,0.5173,2097
11,-0.3743,-0.9016,-0.0063,-0.1285,-1.0837,0.4846,2020
11,-0.3418,-0.9146,0.0115,-0.1432,-0.9732,0.4779,2065
11,-0.3606,-0.9375,0.0061,-0.1677,-0.8263,0.4285,2039
11,-0.4451,-0.8826,-0.0154,-0.1438,-0.6544,0.3762,2041
11,-0.3618,-0.9595,-0.0046,-0.1557,-0.4725,0.3538,2034
11,-0.3821,-0.9731,-0.0322,-0.1858,-0.2388,0.2806,2106
11,-0.2891,-0.9998,-0.0466,-0.261,-0.0401,0.2618,1999
11,-0.3088,-0.9583,-0.062,-0.3446,0.119,0.2605,2057
11,-0.3342,-0.6174,-0.0754,-0.3027,0.1655,0.3392,2071
11,-0.4243,-0.8359,0.0024,-0.398,0.1384,0.3404,2040
11,-0.4641,-0.9592,0.0083,-0.371,0.1932,0.3264,2220
11,-0.5229,-0.9478,-0.0742,-0.2253,0.2313,0.3329,1983
11,-0.5718,-1.2024,-0.0491,-0.1108,0.1328,0.2717,2060
11,-0.2305,-1.4917,-0.0608,-0.1309,0.3713,0.008,2028
11,-0.3433,-1.5496,-0.1392,-0.0238,0.1622,-0.1181,2057
11,-0.4409,-1.5623,-0.0391,0.0656,-0.3502,-0.3385,2113
11,-0.7397,-1.3364,0.0266,0.131,-0.5624,-0.3774,1981
11,-1.1531,-1.0613,0.1511,0.1587,-0.6673,-0.2654,2040
11,-1.3215,-0.9363,0.1985,0.0518,-0.4621,-0.1428,2060
11,-1.2358,-0.9507,0.0652,-0.1221,-0.1487,-0.0606,1981
11,-0.9714,-1.0154,-0.0811,-0.2378,-0.1276,-0.0025,1967
11,-0.6946,-1.0168,-0.1309,-0.2995,-0.2344,0.0653,1990
11,-0.8723,-0.9792,-0.0718,-0.3422,-0.1298,0.045,2046
11,-0.7627,-0.9111,-0.0117,-0.2462,-0.0293,0.0682,2042
11,-0.5195,-0.8752,0.1445,-0.1451,0.2597,0.2033,2066
11,-0.7422,-0.8657,0.176,0.2105,1.1109,-0.0731,2038
11,-0.791,-0.9546,0.2073,0.2274,1.3213,0.0541,1998
11,-0.7065,-0.9661,0.2188,0.3185,1.4426,0.2269,2056
11,-0.5913,-0.9805,0.2231,0.4694,1.5641,0.331,2075
11,-0.5872,-1.0,0.1509,0.6277,1.7013,0.3353,2048
11,-0.4805,-1.0442,-0.0068,0.6835,1.7827,0.3197,2043
11,-0.3892,-0.9871,-0.1201,0.703,1.8484,0.2473,2042
11,-0.5005,-0.9465,-0.2061,0.6715,1.7985,0.1537,2042
11,-0.4839,-0.906,-0.2915,0.6253,1.6494,0.1621,2002
12,-0.4336,-0.864,-0.3562,0.6003,1.3101,0.2031,2061
12,-0.3552,-0.8579,-0.4124,0.5613,0.9007,0.2625,2074
12,-0.3145,-0.8733,-0.4182,0.5928,0.3649,0.277,2113
12,-0.2417,-0.8005,-0.3962,0.6513,-0.0675,0.2862,2004
12,-0.313,-0.8511,-0.2708,0.6477,-0.242,0.1457,2048
12,-0.4021,-0.8484,-0.1628,0.6569,-0.1578,0.1085,2050
12,-0.4358,-0.9087,-0.0374,0.6714,0.0481,0.0547,2026
12,-0.4656,-0.8208,-0.0432,0.6813,0.4051,0.0166,2079
12,-0.4011,-0.8533,-0.0862,0.7003,0.646,-0.0541,2089
12,-0.3506,-0.9209,-0.1382,0.6843,0.795,-0.0985,2047
12,-0.311,-0.8999,-0.2,0.6959,0.7975,-0.1376,2057
12,-0.3232,-0.9873,-0.1841,0.6742,0.6421,-0.2091,2055
12,-0.2581,-1.0801,-0.1609,0.5777,0.4713,-0.2701,2022
12,-0.1743,-1.0723,-0.1848,0.5659,0.2148,-0.3967,2121
12,-0.1951,-1.2131,-0.0977,0.4705,-0.1184,-0.5078,2004
12,-0.1819,-1.2183,-0.0366,0.3843,-0.4509,-0.6066,2125
12,-0.2178,-1.1357,0.031,0.3754,-0.736,-0.7486,2037
12,-0.3147,-1.1003,0.0901,0.3513,-0.8842,-0.9753,2060
12,-0.5457,-1.0117,0.1858,0.345,-0.9823,-1.0235,2103
12,-0.7715,-0.8452,0.2068,0.2485,-0.9392,-0.9862,2015
12,-0.9492,-0.7632,0.208,0.2297,-0.8893,-0.8617,2047
12,-1.0933,-0.7583,0.2732,0.2238,-0.7879,-0.6257,2060
12,-1.1555,-0.8958,0.3472,0.1979,-0.5916,-0.3473,2039
12,-0.9299,-1.1047,0.3979,0.1679,-0.4231,-0.0451,2107
12,-0.6953,-1.3657,0.4463,0.1205,-0.2718,0.1671,2083
12,-0.5039,-1.4214,0.4583,-0.0506,-0.1495,0.112,2099
12,-0.3086,-1.4292,0.4241,-0.2775,-0.1338,-0.1547,2023
12,-0.2766,-1.3721,0.3904,-0.3153,-0.2376,-0.5606,1976
12,-0.3801,-1.3208,0.3604,-0.3193,-0.2952,-0.9543,2025
12,-0.647,-1.1831,0.3223,-0.4512,-0.2494,-1.0272,1996
12,-0.7964,-1.0049,0.196,-0.5425,-0.2144,-0.9099,2031
12,-0.8379,-0.9604,0.0728,-0.4269,-0.4105,-0.7983,2027
12,-0.8853,-0.9519,0.0312,-0.1967,-0.7606,-0.4446,2109
12,-0.8064,-0.8689,0.0254,-0.1089,-0.9075,-0.1029,2061
12,-0.574,-0.8252,-0.0178,-0.1751,-0.9863,-0.0168,2072
12,-0.4846,-0.8401,-0.0093,-0.2353,-1.1212,0.0471,2022
12,-0.4172,-0.8882,0.0942,-0.2812,-1.0906,0.1583,2052
12,-0.4077,-0.9124,0.2412,-0.3292,-0.7853,0.2831,2025
12,-0.4331,-0.9153,0.3145,-0.4036,-0.283,0.4378,2036
12,-0.3628,-0.906,0.2578,-0.4052,0.094,0.507,2021
12,-0.3787,-0.8848,0.2429,-0.3173,0.3476,0.5058,2044
12,-0.3369,-0.8462,0.189,-0.2653,0.389,0.4129,2019
12,-0.2107,-0.9304,0.1406,-0.2854,0.2188,0.4132,2055
12,-0.2095,-0.9231,0.0864,-0.2056,-0.07,0.4211,2016
12,-0.238,-0.9189,0.051,-0.1779,-0.4014,0.4405,2108
12,-0.2998,-0.8989,0.0459,-0.1899,-0.5707,0.4552,2023
12,-0.4089,-0.8735,0.0022,-0.2167,-0.5865,0.4272,2061
12,-0.4136,-0.8682,-0.0618,-0.2273,-0.4867,0.406,2036
12,-0.4033,-0.928,-0.124,-0.269,-0.2822,0.3039,2058
12,-0.3491,-0.9417,-0.2234,-0.263,-0.2304,0.2595,2061
12,-0.0166,-0.9741,-0.2598,-0.2686,-0.5967,0.4127,2008
12,-0.1511,-1.0376,-0.2244,-0.2657,-0.8059,0.3321,2041
12,-0.261,-1.0972,-0.0845,-0.2334,-0.8289,0.2755,2033
12,-0.2617,-1.113,0.0259,-0.2382,-0.6682,0.2171,2034
12,-0.4128,-1.0278,0.0847,-0.2896,-0.4161,0.2213,2042
12,-0.3572,-1.0356,0.1301,-0.3609,-0.078,0.1426,2083
12,-0.4163,-1.0364,0.1028,-0.3665,0.2846,0.1044,2051
12,-0.3821,-1.0466,0.0249,-0.357,0.5597,0.081,2006
12,-0.3237,-0.998,-0.1609,-0.3025,0.6352,0.0605,2084
12,-0.4927,-1.1133,-0.209,-0.2149,0.5048,0.0546,2037
12,-0.4614,-1.3086,-0.248,-0.0762,0.3915,-0.0261,2052
12,-0.4065,-1.3479,-0.364,0.018,0.1288,-0.1119,2104
12,-0.4141,-1.3918,-0.3359,0.1091,-0.2983,-0.2258,1944
12,-0.5229,-1.3728,-0.2788,0.1346,-0.53,-0.2179,2056
12,-0.7893,-1.2549,-0.1956,0.1091,-0.6396,-0.1402,1978
12,-1.0183,-1.1038,-0.1472,0.0414,-0.5204,-0.089,2079
12,-1.0681,-1.0535,-0.1165,0.0254,-0.1284,-0.0688,2063
12,-1.012,-1.0437,-0.1111,-0.0051,0.271,-0.1124,2039
12,-0.7839,-1.0688,-0.1787,-0.01,0.2322,-0.1666,1997
12,-0.5691,-1.1479,-0.2412,-0.073,-0.0403,-0.2506,2001
12,-0.4404,-1.1301,-0.1372,0.0105,-0.3373,-0.277,2050
12,-0.6492,-0.9678,-0.0938,0.4228,-0.0224,-0.5169,2020
12,-0.6958,-0.9788,0.0439,0.3819,-0.02,-0.3501,2024
12,-0.7302,-0.9231,0.1328,0.4928,0.2476,-0.2358,2019
12,-0.7764,-0.8953,0.1458,0.5702,0.5577,-0.0574,2035
12,-0.7083,-0.8911,0.1265,0.5601,0.7661,0.0751,2108
12,-0.696,-0.9492,0.0544,0.6345,1.0065,0.08,2045
12,-0.5864,-0.9861,-0.0798,0.6701,1.1693,0.1944,2100
12,-0.468,-0.979,-0.1785,0.7462,1.1725,0.3016,2039
12,-0.4102,-0.9688,-0.2449,0.742,1.0941,0.3281,2076
12,-0.4309,-0.918,-0.3186,0.7497,0.9517,0.3444,2019
12,-0.4048,-0.9333,-0.3171,0.8429,0.6749,0.3409,2059
12,-0.4585,-0.9487,-0.2954,0.8999,0.5351,0.3695,2101
12,-0.4763,-0.9504,-0.2839,0.8569,0.4834,0.416,1997
12,-0.3735,-0.915,-0.2732,0.7513,0.353,0.3995,2055
12,-0.3679,-0.9263,-0.2632,0.7171,0.23,0.3735,2025
12,-0.3748,-0.9333,-0.2554,0.7786,0.1928,0.3934,1990
12,-0.3948,-0.9387,-0.2358,0.7455,0.2049,0.382,2110
12,-0.4141,-0.8806,-0.1479,0.7617,0.2087,0.2072,2040
12,-0.468,-0.9385,-0.1233,0.7156,0.3571,0.1517,2057
12,-0.4624,-1.009,-0.1333,0.6966,0.3631,0.1834,2060
12,-0.4094,-1.0505,-0.1528,0.6626,0.3088,0.2282,2061
12,-0.3691,-1.0247,-0.1812,0.7083,0.1445,0.1724,2035
12,-0.3289,-1.0098,-0.1965,0.7271,-0.006,0.0481,2029
12,-0.2808,-1.1145,-0.1191,0.7449,-0.1758,-0.0716,2063
12,-0.2502,-1.1689,-0.0259,0.7419,-0.4076,-0.0855,2006
12,-0.1768,-1.2014,0.0088,0.6921,-0.6729,-0.122,2018
12,-0.2625,-1.1206,0.064,0.6526,-0.8799,-0.2639,2023
12,-0.4414,-1.021,0.1875,0.5667,-1.1328,-0.4184,2017
12,-0.5718,-0.9326,0.2566,0.4627,-1.2323,-0.5336,2036
12,-0.7932,-0.8635,0.2856,0.3701,-1.1636,-0.4683,2080
12,-0.9321,-0.8701,0.3394,0.3168,-1.0191,-0.3092,2060
12,-0.9048,-0.9417,0.3545,0.2902,-0.824,-0.0614,2106
12,-0.835,-1.0989,0.3772,0.2229,-0.6548,0.1642,2044
13,-0.7129,-1.1265,0.3574,0.098,-0.4747,0.3273,2059
13,-0.4277,-1.1543,0.4045,0.0348,-0.6012,0.386,2107
13,-0.1091,-1.3052,0.3877,-0.026,-0.7444,0.1597,2020
13,-0.1667,-1.2625,0.3459,-0.1493,-0.8949,-0.0136,2077
13,-0.426,-1.156,0.4875,-0.3333,-1.2175,-0.4229,2058
13,-0.6094,-1.0356,0.428,-0.3928,-0.9766,-0.6786,1994
13,-0.8115,-0.9475,0.3586,-0.3663,-0.6512,-0.6653,2012
13,-0.8667,-0.7913,0.2681,-0.3414,-0.4137,-0.4589,2046
13,-0.876,-0.6997,0.1797,-0.2595,-0.2605,-0.3055,2059
13,-0.7261,-0.7349,0.1199,-0.2293,-0.3135,-0.0246,2097
13,-0.5312,-0.738,-0.0027,-0.2731,-0.4899,0.0927,2086
13,-0.3237,-0.8884,-0.0181,-0.3251,-0.8019,0.2027,2076
13,-0.1929,-0.9895,0.0154,-0.4517,-1.2631,0.3429,2009
13,-0.1787,-1.0039,0.1389,-0.4019,-1.717,0.445,2025
13,-0.2627,-1.095,0.3464,-0.4185,-1.7828,0.5729,2036
13,-0.4294,-0.9551,0.4421,-0.4028,-1.401,0.5485,2028
13,-0.5439,-0.864,0.4395,-0.3569,-0.7822,0.4276,2120
13,-0.4939,-0.8118,0.4043,-0.3749,-0.3072,0.3417,2033
13,-0.3936,-0.8081,0.3269,-0.3613,0.0101,0.2915,2017
13,-0.3811,-0.8533,0.2227,-0.3915,0.0063,0.2988,2056
13,-0.1755,-0.8901,0.0823,-0.3489,-0.3169,0.3818,2009
13,-0.1416,-0.9534,0.0027,-0.3891,-0.7725,0.4026,2016
13,-0.1538,-0.9963,-0.0317,-0.3757,-1.1495,0.4279,2019
13,-0.2209,-1.0161,0.0017,-0.3401,-1.3683,0.4773,2066
13,-0.3154,-1.0046,0.0486,-0.3426,-1.3452,0.4528,1989
13,-0.3354,-1.0166,0.1006,-0.3324,-1.164,0.4422,2107
13,-0.344,-1.0186,0.104,-0.3721,-0.8536,0.3915,2005
13,-0.1462,-1.125,0.083,-0.4867,-0.755,0.4199,2046
13,-0.2256,-1.1655,0.0596,-0.5026,-0.6084,0.3255,2041
13,-0.2671,-1.1812,0.0447,-0.5271,-0.65,0.2586,2064
13,-0.4021,-1.1826,0.0601,-0.5528,-0.7351,0.2954,2071
13,-0.4084,-1.134,0.0352,-0.5175,-0.6675,0.223,2050
13,-0.4695,-1.1416,-0.0347,-0.4964,-0.5412,0.174,1972
13,-0.4314,-1.1672,-0.0771,-0.5022,-0.3195,0.1499,2067
13,-0.4602,-1.1133,-0.1252,-0.4872,-0.2211,0.1542,2064
13,-0.6418,-1.1189,-0.1135,-0.512,-0.2292,0.0939,2064
13,-0.6782,-1.2122,-0.0962,-0.4623,-0.0597,0.0322,2034
13,-0.5977,-1.2444,-0.1619,-0.3638,0.1164,-0.0634,1997
13,-0.449,-1.3132,-0.1521,-0.2639,0.0308,-0.185,2042
13,-0.418,-1.2271,-0.1946,-0.1985,-0.2783,-0.2529,2008
13,-0.4998,-1.248,-0.0938,-0.1603,-0.6705,-0.2858,2053
13,-0.7661,-1.2021,0.0283,-0.1147,-0.7731,-0.2053,2053
13,-0.9221,-1.1509,0.1189,-0.1055,-0.4008,-0.1693,2039
13,-0.9395,-1.0808,0.1133,-0.0819,0.1908,-0.1458,2074
13,-0.9878,-0.9155,0.0498,0.0806,0.7983,-0.3619,2065
13,-0.8643,-0.8667,0.0388,0.1828,0.9792,-0.5466,1963
13,-0.7546,-0.8628,0.04,0.3101,0.8545,-0.8279,2139
13,-0.6206,-0.9951,0.0378,0.3008,0.4841,-0.8606,1985
13,-0.5449,-1.0393,0.0481,0.1989,0.3408,-0.7705,1990
13,-0.5461,-1.0605,0.1055,-0.053,0.2308,-0.5554,1994
13,-0.4963,-0.9395,0.0129,0.1004,0.0457,-0.3301,2029
13,-0.4365,-0.97,0.0708,-0.0129,0.0519,-0.1791,1999
13,-0.5078,-0.9563,0.042,0.036,0.0016,0.0252,2083
13,-0.4907,-0.7603,0.0544,0.2642,0.0419,0.1542,2035
13,-0.5332,-0.8176,0.0486,0.4117,0.2783,0.124,2080
13,-0.5806,-0.8535,-0.0125,0.5626,0.5032,0.1908,2137
13,-0.582,-0.8933,-0.01,0.6907,0.7801,0.2385,2039
13,-0.5488,-0.9297,-0.0928,0.7213,1.1198,0.2846,2104
13,-0.448,-1.0156,-0.1965,0.6898,1.2672,0.3252,2020
13,-0.335,-1.0579,-0.2493,0.5657,1.1732,0.3151,2119
13,-0.2583,-1.0081,-0.3557,0.4964,1.0282,0.3141,1998
13,-0.1785,-1.03,-0.4304,0.457,0.7079,0.4144,2002
13,-0.1875,-0.9998,-0.3672,0.4366,0.4069,0.3759,2002
13,-0.2681,-0.9768,-0.3232,0.4457,0.2288,0.331,2052
13,-0.355,-0.9636,-0.1929,0.4482,0.0895,0.3816,2019
13,-0.428,-0.9106,-0.104,0.5604,0.0079,0.2792,2024
13,-0.4102,-0.8962,-0.0703,0.654,0.0892,0.1832,2027
13,-0.344,-1.0085,-0.0361,0.7293,0.1011,0.1804,2098
13,-0.2896,-1.0991,0.0044,0.7395,0.0992,0.2515,2032
13,-0.1763,-1.0737,0.0347,0.6136,0.1015,0.2157,2002
13,-0.1433,-1.0854,0.0713,0.5881,0.1362,0.1171,2040
13,-0.2058,-1.0913,0.0562,0.6048,0.0792,0.1032,2052
13,-0.2063,-1.1685,0.1023,0.6384,-0.0366,0.0587,2106
13,-0.2043,-1.1367,0.1272,0.5999,-0.1899,-0.0518,2008
13,-0.251,-1.1279,0.1362,0.5212,-0.3354,-0.1334,2059
13,-0.2795,-1.04,0.1482,0.5208,-0.6103,-0.1928,2060
13,-0.3535,-0.9553,0.1372,0.503,-0.7811,-0.2738,2067
13,-0.4551,-0.917,0.1338,0.4962,-1.0596,-0.2354,2020
13,-0.5083,-0.895,0.1711,0.4842,-1.122,-0.1477,2034
13,-0.6746,-0.9333,0.2122,0.4402,-1.171,0.0181,2071
13,-0.7524,-1.0083,0.2375,0.3811,-1.1304,0.135,2106
13,-0.842,-1.1116,0.2705,0.2679,-0.8136,0.1831,2020
13,-0.8147,-1.1484,0.2742,0.1272,-0.3619,0.3247,2081
13,-0.675,-1.1895,0.3367,-0.0594,0.1443,0.5183,2048
13,-0.3525,-1.1501,0.3594,-0.1716,0.4338,0.5496,2031
13,-0.115,-1.051,0.3564,-0.0687,0.4159,0.4831,2033
13,0.0054,-1.1697,0.344,-0.049,0.0847,0.1417,2001
13,-0.2161,-1.1624,0.2566,0.0867,-0.3345,-0.1061,2058
13,-0.593,-1.0737,0.323,0.1756,-0.7558,-0.3466,2109
13,-0.7861,-1.1172,0.3291,0.0804,-0.8977,-0.4445,2011
13,-0.7842,-1.1794,0.2878,-0.2159,-0.9903,-0.5685,2045
13,-0.616,-1.2437,0.1663,-0.6625,-1.2805,-0.7304,2043
13,-0.4922,-1.2798,0.1123,-0.9692,-1.9927,-0.911,2028
13,-0.4714,-1.2288,0.1077,-0.4354,-3.1957,-0.8044,2126
13,-0.6812,-1.1047,0.1633,0.0201,-3.4962,-0.0634,2147
13,-0.749,-0.845,0.3066,0.0758,-3.3497,0.2679,2102
13,-0.9363,-0.8354,0.4663,0.0754,-2.7137,0.5544,1984
13,-0.8821,-0.7747,0.5354,-0.0491,-1.4458,0.6616,1957
13,-0.5217,-0.8628,0.4868,-0.2036,-0.1842,0.6014,2021
13,-0.3494,-0.8979,0.3755,-0.2907,0.6055,0.5078,2009
13,-0.2014,-0.9045,0.2615,-0.3028,0.7618,0.4366,2054
13,-0.0869,-0.8901,0.1384,-0.2657,0.5592,0.4079,1983
14,-0.1321,-0.8728,0.0225,-0.1882,0.1764,0.5028,2021
14,-0.2451,-0.8584,0.0061,-0.0418,-0.2755,0.6887,2016
14,-0.4036,-0.8523,0.0234,0.034,-0.5882,0.8629,2038
14,-0.4399,-0.8936,0.0774,0.0631,-0.6956,0.8126,2025
14,-0.4517,-0.9678,0.1189,0.0131,-0.5853,0.6995,2075
14,-0.4753,-1.0173,0.0896,-0.0663,-0.3225,0.651,2046
14,-0.3813,-1.0981,0.0508,-0.2445,-0.0055,0.5296,2069
14,-0.3726,-0.981,-0.0447,-0.3111,0.1398,0.4667,2031
14,-0.3486,-1.0623,-0.0291,-0.3755,0.2152,0.2667,2101
14,-0.3315,-0.865,-0.0703,-0.2919,0.2526,0.2108,2045
14,-0.3945,-1.2039,0.1216,-0.4975,0.2844,-0.0471,2058
14,-0.4309,-0.687,-0.0371,-0.2602,0.4149,0.189,2059
14,-0.3384,-0.9844,0.0195,-0.5825,0.3249,0.0282,2060
14,-0.5066,-0.7607,-0.0044,-0.2663,0.436,0.3011,2043
14,-0.4033,-1.4797,0.2476,-0.6554,0.3325,0.0802,2052
14,-0.4937,-0.915,-0.2039,-0.3456,0.4994,0.3061,2075
14,-0.3477,-1.3677,-0.0996,-0.2738,0.2903,0.0735,2171
14,-0.1294,-1.5435,-0.2585,-0.2729,0.2487,-0.2041,2067
14,-0.0947,-1.512,-0.2593,-0.1828,-0.408,-0.4412,1994
14,-0.3108,-1.3528,-0.1313,-0.0362,-1.1437,-0.601,1907
14,-0.6853,-1.1487,0.0359,0.063,-1.7831,-0.5489,2015
14,-1.3691,-0.9893,0.3228,0.1987,-2.1335,-0.2494,2120
14,-1.3635,-0.9084,0.3782,0.0611,-1.3888,-0.131,2038
14,-1.0327,-0.8989,0.167,-0.2125,-0.5325,-0.1298,2019
14,-0.8235,-0.9177,-0.0112,-0.3396,-0.2069,-0.0945,2003
14,-0.5977,-0.9209,-0.115,-0.279,-0.3103,-0.1401,2059
14,-0.5833,-1.0181,-0.1528,-0.2472,-0.2717,-0.1177,2066
14,-0.833,-1.0408,-0.0725,-0.087,-0.1213,-0.0944,2032
14,-0.6992,-1.0215,0.0901,0.0121,-0.1312,0.1061,2059
14,-0.5991,-1.0342,0.2068,0.0518,-0.0746,0.1646,2079
14,-0.7371,-0.9995,0.21,0.1756,0.1603,0.1304,2031
14,-0.5776,-0.9998,0.2612,0.1558,0.2637,0.202,2091
14,-0.7297,-0.9773,0.261,0.2603,0.8212,0.1559,2022
14,-0.6194,-0.9834,0.1958,0.3205,1.275,0.1369,2046
14,-0.5654,-0.9763,0.0562,0.3302,1.619,0.1309,2020
14,-0.4897,-0.9468,-0.072,0.3337,1.7227,0.0696,2049
14,-0.3926,-0.926,-0.23,0.3876,1.6127,0.0555,2021
14,-0.3862,-0.9512,-0.2886,0.4818,1.3402,0.0791,2019
14,-0.3582,-0.9758,-0.3389,0.5284,1.0938,0.1531,2064
14,-0.3269,-0.9675,-0.3003,0.4488,0.8268,0.2153,2065
14,-0.3391,-0.9414,-0.2722,0.322,0.6199,0.1952,2049
14,-0.3958,-0.9221,-0.2283,0.4075,0.545,0.2386,2051
14,-0.4814,-0.9026,-0.1333,0.4762,0.5576,0.1807,2070
14,-0.498,-0.8513,-0.0906,0.5514,0.7148,0.0668,2125
14,-0.4824,-0.9709,-0.0125,0.5841,1.0252,-0.0426,2037
14,-0.4189,-0.9739,-0.0784,0.548,1.3776,-0.0232,1983
14,-0.3091,-0.9846,-0.1335,0.553,1.4984,-0.0537,1997
14,-0.2417,-0.9824,-0.1763,0.5687,1.4235,-0.1124,2020
14,-0.2686,-1.0186,-0.1711,0.5219,1.2898,-0.1145,2072
14,-0.2983,-0.9766,-0.157,0.5248,1.0929,-0.178,2081
14,-0.2549,-1.0029,-0.1543,0.6084,0.8677,-0.2498,2010
14,-0.1787,-1.0903,-0.1106,0.6195,0.6264,-0.2935,2063
14,-0.1731,-1.1621,-0.0366,0.6172,0.3593,-0.3215,2081
14,-0.2041,-1.1316,0.0,0.5745,0.1393,-0.329,2016
14,-0.2871,-1.0295,0.0159,0.5829,-0.1218,-0.4243,2019
14,-0.3542,-0.9763,0.0295,0.5886,-0.3176,-0.5882,2004
14,-0.5127,-0.9065,0.1042,0.6062,-0.4593,-0.6592,2066
14,-0.6865,-0.8809,0.1235,0.5397,-0.4677,-0.6191,2057
14,-0.77,-0.9729,0.093,0.4388,-0.4135,-0.4626,2074
14,-0.791,-1.0376,0.0884,0.3474,-0.4513,-0.1763,2065
14,-0.8225,-1.0789,0.1526,0.2852,-0.4954,0.0374,2077
14,-0.7239,-1.1895,0.2446,0.1445,-0.4687,0.1944,2060
14,-0.5161,-1.2363,0.3225,0.1129,-0.4386,0.283,2074
14,-0.3423,-1.2798,0.407,0.1304,-0.3524,0.1878,2046
14,-0.2698,-1.24,0.3894,0.1517,-0.1595,-0.0585,2052
14,-0.3667,-1.2104,0.3647,0.1389,0.0334,-0.4063,2029
14,-0.425,-1.2202,0.3406,0.0123,0.0535,-0.6305,2002
14,-0.5879,-1.1973,0.2529,-0.1731,0.0936,-0.6862,2029
14,-0.7893,-1.1594,0.1929,-0.3345,-0.0672,-0.6862,2057
14,-0.8289,-1.1235,0.2339,-0.4177,-0.3269,-0.5741,2018
14,-0.7805,-1.0667,0.1548,-0.3448,-0.6131,-0.4813,2049
14,-0.7209,-1.0386,0.0813,-0.2468,-0.8811,-0.2148,2051
14,-0.6082,-0.9653,0.0205,-0.2397,-0.9425,0.0977,2085
14,-0.5374,-0.8916,0.0198,-0.2808,-0.9236,0.257,2085
14,-0.4834,-0.8792,0.0535,-0.2851,-0.8214,0.3076,2063
14,-0.4368,-0.9058,0.0913,-0.239,-0.724,0.3562,2099
14,-0.4375,-0.9265,0.2256,-0.2132,-0.5141,0.4445,2045
14,-0.4639,-0.9841,0.3367,-0.3183,-0.122,0.5123,2035
14,-0.4658,-0.8923,0.303,-0.3337,0.2318,0.4508,2025
14,-0.4041,-0.9241,0.2539,-0.377,0.5193,0.4229,2020
14,-0.3582,-0.9048,0.178,-0.3574,0.6368,0.405,2035
14,-0.2993,-0.8894,0.0457,-0.3029,0.545,0.4108,2032
14,-0.2307,-0.8733,-0.0591,-0.2136,0.1903,0.3884,2098
14,-0.2319,-0.8845,-0.1206,-0.1117,-0.245,0.4059,2012
14,-0.1938,-0.8645,-0.1555,-0.0176,-0.7027,0.4786,2014
14,-0.3081,-0.8933,-0.1084,-0.0025,-0.907,0.4436,2098
14,-0.3931,-0.9041,-0.0872,0.0032,-0.903,0.4012,2057
14,-0.377,-0.9009,-0.0593,-0.0322,-0.7895,0.3364,2024
14,-0.3606,-0.8833,-0.0637,-0.019,-0.6938,0.2827,2002
14,-0.2654,-0.9097,-0.0352,-0.0368,-0.6524,0.2264,2018
14,-0.394,-0.9111,-0.0256,-0.0792,-0.4902,0.2322,2102
14,-0.4041,-0.8352,-0.0535,-0.0593,-0.3613,0.2232,2034
14,-0.428,-0.9233,0.0095,-0.086,-0.1996,0.2308,2175
14,-0.4397,-0.9919,0.0305,-0.0812,0.1546,0.232,1957
14,-0.4658,-0.9915,-0.0823,-0.0177,0.405,0.2518,2026
14,-0.6404,-1.1335,-0.1272,0.0494,0.3337,0.2107,2062
14,-0.5308,-1.5012,-0.0947,0.0989,0.3868,0.0097,2202
14,-0.3892,-1.6143,-0.2915,0.1666,0.227,-0.1701,1986
14,-0.2822,-1.5449,-0.332,0.2242,-0.3791,-0.3538,2017
14,-0.4233,-1.3762,-0.28,0.2052,-1.1561,-0.4164,2065
14,-0.8176,-1.1252,-0.1748,0.2209,-1.8195,-0.3173,2004
14,-1.2441,-0.99,0.0212,0.2509,-2.0672,-0.1742,2071
15,-1.1462,-0.9502,0.053,0.1372,-1.7136,-0.089,2016
15,-0.9636,-0.9453,-0.0129,0.014,-1.3865,-0.0501,2016
15,-0.8164,-0.9421,-0.0364,-0.0104,-1.2644,-0.0402,2090
15,-0.6624,-0.9993,-0.0571,-0.03,-1.0403,-0.0534,2043
15,-0.6057,-1.0273,-0.0552,0.0567,-0.7807,0.0234,2059
15,-0.6533,-1.0796,-0.0081,0.1172,-0.4908,0.0449,2033
15,-0.6504,-1.0696,0.0476,0.1519,-0.1225,0.0601,2068
15,-0.676,-1.0525,0.0652,0.1794,0.238,0.0429,2069
15,-0.7031,-1.0176,0.0469,0.2072,0.4942,0.0487,2041
15,-0.6592,-0.9966,0.0281,0.2609,0.6618,0.0438,2017
15,-0.5911,-0.9907,-0.0691,0.3216,0.6992,0.0212,2071
15,-0.4583,-0.9297,-0.1211,0.4453,0.8646,-0.0659,2035
15,-0.4783,-0.8804,-0.1453,0.3864,0.6793,-0.0029,2039
15,-0.3716,-0.8604,-0.1353,0.4372,0.4883,0.0699,2104
15,-0.3418,-0.8467,-0.0842,0.5564,0.3786,0.1373,2023
15,-0.4089,-0.8347,-0.0886,0.6187,0.4745,0.1382,2054
15,-0.4285,-0.8499,-0.0732,0.5573,0.5584,0.0736,2068
15,-0.4258,-0.8931,-0.032,0.5851,0.6557,0.0292,2058
15,-0.4229,-0.9309,-0.0659,0.6078,0.9282,0.153,2031
15,-0.4297,-0.9321,-0.1382,0.5894,1.1452,0.2089,2073
15,-0.4309,-0.948,-0.1692,0.4627,1.2828,0.1217,2033
15,-0.4194,-0.9028,-0.1938,0.4144,1.3724,0.0273,2034
15,-0.3953,-0.9402,-0.2485,0.443,1.3688,-0.034,2012
15,-0.2954,-0.98,-0.3318,0.4578,1.2327,-0.0113,2039
15,-0.1575,-0.969,-0.3552,0.5,0.863,-0.116,2076
15,-0.1331,-0.9795,-0.3125,0.5316,0.3717,-0.2721,2020
15,-0.0986,-1.0259,-0.2952,0.4791,-0.0744,-0.3183,2052
15,-0.1357,-1.0049,-0.1938,0.5102,-0.414,-0.3227,2121
15,-0.2209,-0.9597,-0.0603,0.5204,-0.6408,-0.3723,1984
15,-0.2881,-1.0151,0.0894,0.5986,-0.6837,-0.3883,2043
15,-0.3193,-1.0771,0.2268,0.6701,-0.7107,-0.3785,2034
15,-0.4473,-1.041,0.376,0.6297,-0.7152,-0.4436,2065
15,-0.5073,-1.0449,0.3564,0.552,-0.6185,-0.4605,2118
15,-0.5491,-1.0369,0.3416,0.5062,-0.6312,-0.4357,2045
15,-0.6279,-1.1289,0.4163,0.439,-0.6944,-0.3575,2064
15,-0.623,-1.2346,0.3721,0.3055,-0.6634,-0.2855,2066
15,-0.7146,-1.1401,0.3557,0.1988,-0.707,-0.2091,2014
15,-0.8225,-1.1023,0.3938,0.1196,-0.7283,-0.1221,2008
15,-0.7046,-1.1406,0.3633,0.1722,-0.7074,0.0477,2074
15,-0.4182,-1.3916,0.4138,0.1814,-0.8644,0.1358,2040
15,-0.3645,-1.4146,0.458,-0.0208,-1.0369,0.0748,2080
15,-0.2983,-1.3167,0.4548,-0.1675,-1.2099,-0.2217,2025
15,-0.4475,-1.2266,0.4041,-0.3936,-1.1631,-0.5661,2011
15,-0.7273,-1.0437,0.4939,-0.439,-1.2179,-0.6661,1996
15,-0.8115,-1.0166,0.4673,-0.5039,-0.934,-0.6267,2011
15,-0.7949,-1.0049,0.3279,-0.3233,-0.974,-0.4119,2045
15,-0.7424,-0.8713,0.1855,-0.3389,-0.9408,-0.1081,2084
15,-0.6724,-0.9141,0.1516,-0.3021,-1.1648,0.1968,2091
15,-0.53,-0.8518,0.1179,-0.2844,-1.346,0.28,2101
15,-0.4548,-0.9805,0.1274,-0.2693,-1.3846,0.3737,2139
15,-0.4331,-0.9517,0.1882,-0.1812,-1.3643,0.3735,2079
15,-0.5188,-0.9871,0.2769,-0.2428,-0.9802,0.4313,2063
15,-0.5146,-0.8909,0.3015,-0.2898,-0.3181,0.4283,2016
15,-0.4822,-0.8567,0.1836,-0.3039,0.2701,0.4015,2021
15,-0.4556,-0.8025,0.1204,-0.3095,0.6454,0.3579,2033
15,-0.3647,-0.8291,0.0603,-0.3244,0.7313,0.3565,2014
15,-0.2534,-0.8162,0.0,-0.2855,0.4611,0.3745,2081
15,-0.2737,-0.8354,-0.0339,-0.2527,0.0597,0.4249,2013
15,-0.2126,-0.8616,0.0125,-0.2332,-0.3539,0.541,2026
15,-0.231,-0.8567,0.0425,-0.229,-0.6328,0.6169,2028
15,-0.2905,-0.8328,0.0806,-0.1832,-0.7249,0.6424,2066
15,-0.241,-0.8491,0.1018,-0.1646,-0.6377,0.6537,2041
15,-0.2729,-0.8438,0.0625,-0.0964,-0.3313,0.5747,2028
15,-0.3257,-0.8391,0.0002,-0.0597,-0.0415,0.4634,2041
15,-0.363,-0.8613,-0.0371,-0.0862,0.1397,0.3707,2037
15,-0.2939,-0.9165,-0.0168,-0.1182,0.3306,0.3063,2043
15,-0.3208,-0.9768,-0.0217,-0.1779,0.4926,0.2418,2070
15,-0.1626,-0.9307,-0.0713,-0.3623,0.4203,0.4093,2111
15,-0.3669,-0.9473,-0.0115,-0.3027,0.5252,0.1868,2128
15,-0.4038,-0.9119,-0.0574,-0.3087,0.4851,0.1794,2060
15,-0.3745,-1.001,0.001,-0.294,0.4723,0.2448,1999
15,-0.4048,-1.1101,-0.0295,-0.2832,0.3408,0.1727,2049
15,-0.49,-1.1858,-0.0251,-0.1662,0.1996,0.1984,2095
15,-0.4312,-1.5015,-0.0034,-0.1332,0.4205,0.0569,1982
15,-0.4258,-1.6228,-0.0999,-0.0836,0.6272,-0.0941,2028
15,-0.5237,-1.5986,-0.1021,-0.0706,0.5858,-0.2927,2108
15,-0.7332,-1.4214,-0.1548,-0.089,0.5791,-0.333,2048
15,-1.0691,-1.1619,-0.1714,-0.139,0.6356,-0.2441,2048
15,-1.2207,-1.0186,-0.0991,-0.2445,0.8214,-0.13,2109
15,-1.2039,-1.0007,-0.0562,-0.3908,1.034,-0.0775,2037
15,-0.9265,-1.0044,-0.1279,-0.5165,1.0094,-0.1182,1935
15,-0.752,-1.0867,-0.1785,-0.5773,0.8439,-0.2425,1983
15,-0.4883,-0.9846,-0.179,-0.4236,0.499,-0.3468,1975
15,-0.3926,-0.9788,-0.0205,-0.2623,0.3084,-0.4337,1996
15,-0.4912,-0.9587,0.1216,-0.0537,0.2595,-0.4064,2045
15,-0.5303,-0.9675,0.2278,0.0703,0.2374,-0.21,2084
15,-0.6379,-0.937,0.2734,0.2768,0.3951,-0.0642,2051
15,-0.7217,-0.9624,0.2976,0.387,0.6424,0.0407,2125
15,-0.7268,-1.05,0.2671,0.5425,0.9961,0.1197,2060
15,-0.6443,-1.0808,0.1653,0.6301,1.3576,0.1509,2100
15,-0.563,-1.0847,0.0408,0.6289,1.5223,0.0894,2081
15,-0.4724,-1.0505,-0.1387,0.5185,1.5672,-0.0238,2010
15,-0.4106,-1.0154,-0.3213,0.4895,1.3619,-0.125,1984
15,-0.3516,-0.9368,-0.4688,0.5466,0.9833,-0.1245,1994
15,-0.3799,-0.9087,-0.45,0.6076,0.62,-0.1017,2044
15,-0.4036,-0.9028,-0.4404,0.6227,0.2963,-0.0779,2048
15,-0.3604,-0.8699,-0.4023,0.6157,0.0406,-0.0348,2097
15,-0.3542,-0.8496,-0.332,0.6086,-0.091,-0.0188,2065
15,-0.332,-0.8828,-0.2417,0.6646,-0.0411,0.0033,2020
15,-0.4114,-0.907,-0.1353,0.7456,0.072,0.0125,2060
15,-0.4827,-0.9238,-0.0806,0.7114,0.4336,0.0451,2051
15,-0.4182,-0.9285,-0.0703,0.6409,0.7055,-0.0067,2022
15,-0.3647,-0.9104,-0.1008,0.6071,0.8158,-0.0554,2019
16,-0.3159,-0.9871,-0.0935,0.5281,0.9166,-0.026,2026
16,-0.2761,-0.959,-0.1384,0.5416,0.8858,-0.0073,2043
16,-0.2827,-0.9734,-0.1948,0.5585,0.8371,0.0032,2004
16,-0.2671,-0.9724,-0.2585,0.5564,0.7766,0.0145,2054
16,-0.219,-0.9741,-0.3118,0.6171,0.608,-0.0546,2034
16,-0.2542,-1.0547,-0.3313,0.6116,0.4502,-0.0336,2090
16,-0.2861,-1.0073,-0.3259,0.553,0.2309,-0.0601,2005
16,-0.3369,-0.9624,-0.2915,0.6168,0.0125,-0.0542,1996
16,-0.4141,-1.0005,-0.2356,0.6199,-0.0714,-0.0027,2064
16,-0.4543,-1.032,-0.147,0.6096,-0.0695,0.0759,2039
16,-0.458,-1.0315,-0.0852,0.5877,-0.0393,0.0898,2038
16,-0.4402,-1.0754,-0.0654,0.5798,-0.0342,0.1045,2054
16,-0.4043,-1.0681,-0.0203,0.5557,-0.079,0.0871,2073
16,-0.3943,-1.0398,0.0117,0.4982,-0.1487,0.0876,2036
16,-0.4731,-1.0349,0.0195,0.4749,-0.2465,0.0182,2043
16,-0.5679,-1.0452,0.0427,0.4751,-0.3541,0.0238,2084
16,-0.5911,-1.0754,0.0002,0.4104,-0.424,0.0125,2055
16,-0.6057,-1.1567,-0.0371,0.3546,-0.5906,0.0341,2030
16,-0.6692,-1.2104,-0.0696,0.2602,-0.6553,0.1,2017
16,-0.6499,-1.2234,0.0232,0.1792,-0.858,0.1362,2038
16,-0.6404,-1.1868,0.1123,0.0449,-0.9001,0.1828,2036
16,-0.6123,-1.1448,0.2185,-0.0182,-0.9183,0.2381,2067
16,-0.5891,-1.1299,0.2571,0.0049,-0.8127,0.2854,2009
16,-0.4526,-1.1763,0.311,0.1091,-0.8411,0.318,2069
16,-0.4302,-1.2988,0.2832,0.2132,-0.9196,0.2699,2023
16,-0.7266,-1.2854,0.3147,0.1987,-1.1828,0.1385,2115
16,-0.9827,-1.1816,0.4277,0.2578,-1.2403,0.0967,2006
16,-1.1763,-1.229,0.511,0.083,-0.9673,0.0499,2016
16,-1.2092,-1.2114,0.4849,-0.1529,-0.6135,0.0224,2024
16,-1.0461,-1.0742,0.4226,-0.3044,-0.5153,-0.0079,2065
16,-0.728,-1.021,0.2336,-0.4964,-0.4938,-0.3153,1984
16,-0.4309,-1.1357,-0.0427,-0.6765,-0.7542,-0.5541,1967
16,-0.2253,-1.1931,-0.1965,-0.543,-1.5358,-0.614,2052
16,-0.3853,-0.9763,-0.2207,-0.0286,-2.4205,-0.175,2139
16,-0.5957,-0.8472,0.0471,0.2181,-2.891,0.0495,2131
16,-0.9885,-0.842,0.363,0.1932,-2.5569,0.3384,2164
16,-1.0112,-0.8535,0.5095,0.0791,-1.3083,0.5782,1968
16,-0.9277,-0.8184,0.5098,-0.1549,0.1948,0.5557,2023
16,-0.7859,-0.8721,0.4048,-0.3887,1.299,0.4268,2081
16,-0.6084,-0.8501,0.2781,-0.4991,1.8717,0.3654,2021
16,-0.3066,-0.8416,0.0383,-0.5173,1.8342,0.2691,2001
16,-0.0703,-0.7971,-0.2004,-0.4729,1.2868,0.2236,2003
16,0.0005,-0.8179,-0.2527,-0.3566,0.4738,0.2653,2017
16,-0.083,-0.7239,-0.2593,-0.1972,-0.2436,0.4184,2034
16,-0.1985,-0.7612,-0.1785,-0.2196,-0.6725,0.5105,2091
16,-0.3982,-0.7227,-0.0803,-0.1906,-0.7103,0.6233,2042
16,-0.5425,-0.7751,0.0491,-0.2514,-0.4112,0.6557,2073
16,-0.5901,-0.7993,0.062,-0.3637,0.017,0.6494,2036
16,-0.5698,-0.8533,0.031,-0.4406,0.4565,0.5943,2052
16,-0.416,-0.9431,-0.0051,-0.5952,0.6393,0.518,2101
16,-0.2876,-0.833,-0.1511,-0.5032,0.7295,0.347,2029
16,-0.1604,-0.8831,-0.199,-0.3987,0.5819,0.2305,2051
16,-0.1001,-0.9404,-0.1475,-0.2778,0.3498,0.1329,2019
16,-0.144,-0.9556,-0.1255,-0.259,0.0439,0.0975,2080
16,-0.29,-0.7668,-0.1895,-0.3349,-0.2112,0.1697,2026
16,-0.2422,-0.949,-0.0667,-0.2681,-0.2731,-0.0273,2073
16,-0.2463,-0.8923,-0.0618,-0.2643,-0.2401,-0.0626,2046
16,-0.1272,-1.1482,0.0842,-0.5806,-0.4416,0.1594,2064
16,-0.4346,-0.8132,-0.0073,-0.2077,-0.0843,-0.0972,2031
16,-0.2888,-1.012,-0.0322,-0.2165,-0.0049,-0.1181,2114
16,-0.1653,-1.0627,-0.1038,-0.1846,0.0043,-0.2097,2020
16,-0.2856,-1.1418,-0.1372,-0.1614,-0.1618,-0.242,2129
16,-0.4519,-1.3108,0.0002,-0.1214,-0.1597,-0.3547,2034
16,-0.5757,-1.4045,-0.0322,-0.126,-0.0917,-0.4602,1986
16,-0.7009,-1.4343,-0.05,-0.1047,-0.0728,-0.5448,2074
16,-0.8115,-1.3452,-0.0869,-0.09,0.0083,-0.5635,2045
16,-0.9773,-1.2056,-0.1689,-0.1336,-0.0067,-0.5453,2112
16,-1.0474,-1.084,-0.2522,-0.1892,-0.0093,-0.4806,2053
16,-1.0334,-1.1091,-0.2473,-0.1649,-0.1537,-0.4477,2007
16,-0.8623,-1.1577,-0.2996,-0.0727,-0.3145,-0.4593,2018
16,-0.8496,-1.0798,-0.293,0.0551,-0.2673,-0.5838,1978
16,-0.6643,-1.1294,-0.1267,0.079,-0.4778,-0.6895,2002
16,-0.6357,-1.157,0.0654,0.0894,-0.7235,-0.7168,2047
16,-0.6523,-1.1421,0.1628,0.1527,-0.6276,-0.5592,2020
16,-0.6833,-1.1221,0.2534,0.1722,-0.4172,-0.3302,2072
16,-0.8247,-1.0156,0.2693,0.3525,0.0265,-0.3201,2060
16,-0.8757,-1.0334,0.3013,0.475,0.56,-0.3551,2048
16,-0.8235,-1.0828,0.1965,0.5384,0.9357,-0.196,2059
16,-0.8035,-1.0437,0.0303,0.5179,1.1627,-0.1108,2032
16,-0.709,-1.0269,-0.0811,0.5184,1.2792,-0.1075,2039
16,-0.5632,-1.0374,-0.2432,0.4951,1.1946,-0.0466,1989
16,-0.4644,-0.9949,-0.3601,0.5711,0.9915,-0.031,2031
16,-0.4841,-0.9336,-0.3972,0.6343,0.6602,-0.0009,2041
16,-0.4609,-0.9419,-0.4075,0.6979,0.3898,0.0266,2067
16,-0.449,-0.9543,-0.386,0.7098,0.119,0.0676,2058
16,-0.4409,-0.9294,-0.3459,0.6859,-0.0096,0.0895,2138
16,-0.4436,-0.9033,-0.303,0.6866,-0.0087,0.073,2081
16,-0.4514,-0.9546,-0.2136,0.6508,-0.0229,0.0554,2026
16,-0.51,-0.9058,-0.2007,0.7275,0.0892,0.0945,2022
16,-0.5088,-0.8794,-0.1174,0.6947,0.3324,0.0558,2052
16,-0.4631,-0.8821,-0.1252,0.6802,0.4986,0.017,1991
16,-0.3916,-0.8787,-0.1917,0.6975,0.6449,0.0292,2070
16,-0.3259,-0.8821,-0.2485,0.7344,0.5747,0.045,1976
16,-0.2468,-0.885,-0.2686,0.7316,0.4771,0.0206,2043
16,-0.2229,-0.9202,-0.2732,0.681,0.3791,0.03,2028
16,-0.2363,-0.9448,-0.2346,0.6779,0.2932,0.0839,2064
16,-0.3154,-0.969,-0.2185,0.6104,0.3143,0.1642,2036
16,-0.3525,-0.9807,-0.2317,0.5389,0.3103,0.1751,2051
16,-0.3555,-0.9902,-0.252,0.5315,0.3808,0.1352,2032
16,-0.4163,-1.0745,-0.2092,0.6359,0.3602,0.1242,2059
16,-0.4258,-1.1521,-0.1746,0.6501,0.4207,0.1353,2021
16,-0.3716,-1.1426,-0.1689,0.5657,0.5036,0.0748,2066
17,-0.3684,-1.0884,-0.2002,0.5881,0.5854,-0.0278,2053
17,-0.4167,-1.1003,-0.2029,0.542,0.5592,-0.1224,2046
17,-0.3245,-1.0806,-0.1978,0.5682,0.3856,-0.1641,2016
17,-0.283,-1.1589,-0.1697,0.549,0.0944,-0.1342,2130
17,-0.3086,-1.1882,-0.0911,0.4914,-0.3123,-0.1149,2003
17,-0.3782,-1.1418,0.0254,0.4416,-0.6839,-0.1136,2050
17,-0.3909,-1.189,0.1499,0.4105,-0.8805,-0.1011,2054
17,-0.4775,-1.1357,0.2483,0.3617,-0.9111,-0.0623,2040
17,-0.5889,-1.0239,0.3142,0.3539,-0.866,-0.0453,2059
17,-0.6548,-0.9487,0.2961,0.3486,-0.7941,-0.0847,2037
17,-0.7527,-0.9236,0.2178,0.3843,-0.6702,-0.0182,2143
17,-0.8052,-0.9333,0.2151,0.3871,-0.5795,0.1226,2085
17,-0.8381,-1.0806,0.2522,0.3155,-0.3545,0.2663,2056
17,-0.8369,-1.2087,0.2532,0.1906,-0.03,0.4,2045
17,-0.7346,-1.2454,0.3184,-0.0148,0.2742,0.4372,2040
17,-0.407,-1.2708,0.3174,-0.1566,0.4449,0.4128,2076
17,-0.1182,-1.2737,0.321,-0.2161,0.3113,0.2934,2047
17,0.0691,-1.1833,0.1685,-0.1352,-0.0393,0.0706,2022
17,0.0056,-1.0518,0.0503,-0.0269,-0.3918,-0.1816,2040
17,-0.197,-1.0154,-0.0156,-0.0206,-0.7893,-0.3751,2021
17,-0.5164,-1.073,-0.0042,-0.2286,-1.3094,-0.4755,2054
17,-0.7249,-1.0515,0.0425,-0.3665,-1.9611,-0.3749,2066
17,-0.9846,-1.0686,0.2256,0.0682,-3.0399,-0.3441,2046
17,-1.0771,-1.0312,0.2717,0.2176,-3.0451,0.0491,2113
17,-0.9153,-0.9409,0.3115,0.0728,-2.6737,0.191,2149
17,-0.8286,-0.9668,0.3472,-0.1149,-2.1612,0.2715,1995
17,-0.5618,-0.9939,0.2722,-0.249,-1.5342,0.3147,2015
17,-0.4189,-0.957,0.2048,-0.2786,-1.0796,0.3293,2018
17,-0.3291,-0.9038,0.1931,-0.2565,-0.8285,0.3393,1996
17,-0.3206,-0.8711,0.2424,-0.1736,-0.7337,0.3734,2008
17,-0.3359,-0.8599,0.2468,-0.1147,-0.6461,0.4382,2053
17,-0.3801,-0.8413,0.2134,-0.1115,-0.5843,0.4705,2030
17,-0.417,-0.8506,0.1511,-0.0988,-0.5855,0.4783,2031
17,-0.2417,-0.845,0.0376,-0.1012,-0.6396,0.5236,2041
17,-0.3188,-0.8623,0.0103,-0.1385,-0.6835,0.4601,2033
17,-0.3174,-0.8662,-0.0046,-0.1216,-0.7879,0.4442,2022
17,-0.4309,-0.8574,0.019,-0.0739,-0.8909,0.4951,2021
17,-0.3662,-0.8713,0.0505,-0.0654,-0.9509,0.4932,2008
17,-0.3884,-0.9326,0.0413,-0.0957,-0.8871,0.4412,2070
17,-0.4924,-0.9312,0.0303,-0.1494,-0.7829,0.4525,2070
17,-0.345,-0.9998,0.0051,-0.2184,-0.5817,0.3591,2063
17,-0.3057,-1.0049,-0.0688,-0.2815,-0.4629,0.3145,2066
17,-0.176,-0.9802,-0.116,-0.2924,-0.5235,0.3123,2058
17,-0.1458,-0.9766,-0.0708,-0.2828,-0.5537,0.2276,2034
17,-0.0398,-1.0198,-0.0503,-0.3044,-0.6331,0.3771,2035
17,-0.1812,-0.9419,-0.0383,-0.2703,-0.4573,0.2313,2113
17,-0.3953,-0.8447,0.0222,-0.2072,-0.1682,0.1814,2075
17,-0.3979,-0.8767,0.0295,-0.2302,0.1155,0.1483,2114
17,-0.416,-0.9648,0.0442,-0.2365,0.3338,0.1298,2037
17,-0.3921,-1.0327,0.0784,-0.234,0.4079,0.0963,2159
17,-0.4475,-1.2432,0.0046,-0.2743,0.4858,-0.0021,2063
17,-0.5398,-1.2073,-0.0098,-0.0939,-0.0096,0.0634,2106
17,-0.3862,-1.5193,0.0549,-0.0543,0.0984,-0.1469,2100
17,-0.4485,-1.551,-0.0964,-0.0059,0.0064,-0.2547,2041
17,-0.479,-1.5869,-0.0691,0.092,-0.2171,-0.4096,1987
17,-0.6375,-1.418,-0.0044,0.1169,-0.3603,-0.4573,2059
17,-0.8918,-1.2019,0.0493,0.0931,-0.4061,-0.3727,2001
17,-1.0503,-1.0393,0.0977,0.0057,-0.3542,-0.28,1973
17,-0.9619,-1.0281,0.1033,-0.0819,-0.1808,-0.2733,2094
17,-0.8596,-1.0886,-0.0046,-0.1007,-0.0443,-0.3484,2096
17,-0.9419,-1.0911,0.0237,-0.0819,-0.0738,-0.4244,2000
17,-0.6003,-1.0647,0.0364,-0.021,-0.0928,-0.3257,1991
17,-0.436,-1.0129,0.2136,0.0105,0.2237,-0.1754,2008
17,-0.6899,-0.9968,0.2244,0.068,0.1226,-0.233,1974
17,-0.7815,-0.9517,0.323,0.0469,0.4026,-0.2003,2009
17,-0.76,-0.8979,0.353,0.1509,0.8218,-0.1899,2033
17,-0.6914,-0.9065,0.3325,0.2842,1.1704,-0.0977,2043
17,-0.6719,-0.8989,0.2673,0.4046,1.4797,-0.0618,2038
17,-0.4783,-0.9561,0.1416,0.4984,1.6471,-0.0004,2043
17,-0.4602,-0.9976,0.0586,0.5434,1.578,0.0067,2127
17,-0.4768,-0.9724,-0.0322,0.6027,1.6944,0.0497,1998
17,-0.4556,-0.9495,-0.1477,0.542,1.6793,0.0333,2047
17,-0.4443,-0.9478,-0.2856,0.5408,1.5747,0.0819,2042
17,-0.5027,-0.9153,-0.3406,0.6146,1.3003,0.1425,2052
17,-0.5046,-0.9341,-0.3342,0.6735,1.1564,0.2067,2089
17,-0.4072,-0.9663,-0.3394,0.6448,0.8926,0.2839,2063
17,-0.3562,-0.9739,-0.3171,0.5311,0.6574,0.2878,2083
17,-0.3608,-0.9395,-0.2065,0.4614,0.5011,0.248,2027
17,-0.4033,-0.9106,-0.1138,0.4191,0.5502,0.1621,2031
17,-0.4243,-0.9148,-0.1064,0.391,0.6906,0.1505,2002
17,-0.4387,-0.9116,-0.0403,0.4633,0.7537,0.0202,2022
17,-0.4426,-0.9382,-0.0237,0.408,0.8329,-0.0221,2015
17,-0.4045,-0.9177,-0.0359,0.445,0.8449,-0.0899,1992
17,-0.3804,-0.9705,-0.0923,0.4307,0.9613,-0.0819,2121
17,-0.3489,-0.968,-0.1499,0.4344,0.9957,-0.0898,2002
17,-0.3245,-0.9417,-0.1848,0.4785,0.9737,-0.1305,2057
17,-0.321,-0.9526,-0.1531,0.5184,0.8901,-0.1888,2060
17,-0.3601,-0.9893,-0.1194,0.4627,0.785,-0.1639,2092
17,-0.3921,-0.9341,-0.1172,0.4769,0.6757,-0.157,1992
17,-0.3816,-0.9304,-0.0735,0.4856,0.6128,-0.126,2053
17,-0.3284,-0.9819,-0.0415,0.4888,0.6412,-0.1107,2012
17,-0.2698,-1.0237,-0.0435,0.4677,0.5908,-0.0823,2047
17,-0.2915,-1.0037,-0.0208,0.4196,0.4374,-0.1806,2040
17,-0.3125,-1.0049,-0.0046,0.3761,0.2317,-0.2946,2028
17,-0.2908,-1.0168,-0.0439,0.3248,-0.0764,-0.3111,2035
17,-0.3643,-1.019,-0.0132,0.2745,-0.3155,-0.3213,2047
17,-0.5654,-1.0854,0.031,0.2438,-0.3746,-0.3035,2033
17,-0.6956,-1.1514,0.0505,0.1167,-0.3168,-0.2204,2065
17,-0.7983,-1.217,0.0103,-0.0228,-0.1385,-0.1273,2042
17,-0.8169,-1.2036,0.0178,-0.1188,0.0088,0.0108,2030
17,-0.6721,-1.2363,0.082,-0.1258,-0.1176,0.1238,2070
18,-0.5066,-1.29,0.1873,-0.0433,-0.3685,0.135,2023
18,-0.4512,-1.3328,0.2998,0.0009,-0.5677,0.0811,2075
18,-0.6042,-1.3293,0.3547,0.0003,-0.7348,-0.0635,1995
18,-0.9795,-1.3005,0.4668,0.069,-0.8026,-0.1687,2047
18,-1.2017,-1.2837,0.5183,-0.0099,-0.6911,-0.1579,2029
18,-1.2466,-1.2183,0.4631,-0.2538,-0.3075,-0.1977,2068
18,-1.0728,-1.054,0.3179,-0.3353,-0.1023,-0.3345,2016
18,-0.7278,-1.0061,0.1091,-0.4562,0.0027,-0.5343,2007
18,-0.3235,-1.1067,-0.0613,-0.6584,-0.3172,-0.7833,2013
18,-0.1541,-1.1636,-0.1553,-0.6493,-1.0865,-0.7293,2022
18,-0.3032,-0.9578,-0.1914,-0.4241,-1.6932,-0.2461,2086
18,-0.543,-0.8328,-0.0122,-0.1606,-2.0485,0.2393,2124
18,-0.73,-0.8418,0.2043,-0.1206,-1.9367,0.5461,2123
18,-0.9092,-0.8926,0.3889,-0.1815,-1.2687,0.7209,2072
18,-0.9309,-0.8958,0.4604,-0.2824,-0.285,0.6811,2071
18,-0.7419,-0.8975,0.4067,-0.39,0.6296,0.5164,2042
18,-0.5427,-0.8608,0.2742,-0.4771,1.2009,0.3151,2000
18,-0.323,-0.7959,0.05,-0.5059,1.3483,0.1574,1990
18,-0.1101,-0.75,-0.1438,-0.4583,1.0957,0.1096,2037
18,0.0176,-0.718,-0.291,-0.3745,0.554,0.1433,2032
18,0.0249,-0.738,-0.3257,-0.2798,-0.169,0.2257,2035
18,-0.0479,-0.7466,-0.2595,-0.2362,-0.7971,0.3409,2024
18,-0.2451,-0.7761,-0.1526,-0.1601,-1.223,0.4164,2051
18,-0.4668,-0.8445,-0.0046,-0.1615,-1.3497,0.5301,2055
18,-0.5991,-0.863,0.1123,-0.1716,-1.0224,0.5402,2042
18,-0.6067,-0.8806,0.1365,-0.2357,-0.4891,0.4296,2069
18,-0.5298,-0.8689,0.0693,-0.2721,0.0878,0.3204,1991
18,-0.4138,-0.8801,0.0071,-0.293,0.3717,0.2107,2077
18,-0.2839,-0.915,-0.0725,-0.3092,0.4458,0.0939,2007
18,-0.1443,-0.9158,-0.1885,-0.3003,0.269,0.0525,2048
18,-0.2356,-0.9421,-0.2458,-0.2795,-0.0184,0.02,1975
18,-0.1311,-0.981,-0.2129,-0.251,-0.308,0.1143,2032
18,-0.3076,-1.0239,-0.1948,-0.2791,-0.4646,0.1366,2059
18,-0.4016,-1.0708,-0.0732,-0.2816,-0.4124,0.1329,2118
18,-0.4917,-1.1086,-0.1616,-0.2843,-0.2087,0.0993,2044
18,-0.7136,-1.2576,-0.1958,-0.271,-0.2707,0.096,2080
18,-0.6865,-1.4436,-0.1323,-0.2067,-0.3016,-0.0505,2050
18,-0.437,-1.4531,-0.2756,-0.1149,-0.5184,-0.2225,2020
18,-0.3215,-1.4062,-0.3145,0.0077,-1.1251,-0.3492,2070
18,-0.46,-1.334,-0.1946,0.0668,-1.7752,-0.3847,2023
18,-0.6536,-1.2356,-0.071,0.0727,-2.3261,-0.4137,2060
18,-0.9116,-1.2178,0.0337,0.1129,-2.5412,-0.3762,2055
18,-1.1062,-1.249,0.1326,0.1638,-2.0848,-0.3252,2008
18,-0.9932,-1.238,0.1287,0.0816,-1.1947,-0.2875,2027
18,-0.7373,-1.0916,-0.0527,-0.0529,-0.4442,-0.2428,1991
18,-0.6482,-1.0615,-0.0557,-0.0754,-0.1948,-0.176,2034
18,-0.6616,-1.0291,-0.1069,-0.0626,-0.0178,-0.1638,2025
18,-0.6736,-0.9939,-0.0906,0.034,-0.114,-0.0631,2042
18,-0.677,-0.98,-0.0452,0.1201,-0.2362,0.0044,2055
18,-0.6335,-0.9482,-0.0295,0.3133,-0.2099,-0.0929,2013
18,-0.6104,-0.9316,0.012,0.403,-0.3574,0.0907,2041
18,-0.5679,-0.9297,0.042,0.4572,-0.3409,0.1246,2060
18,-0.5188,-0.9504,0.0571,0.4677,-0.1189,0.1164,2050
18,-0.4968,-0.9856,0.0327,0.4899,0.2179,0.1168,2042
18,-0.4585,-0.9868,0.011,0.4982,0.5356,0.1128,2049
18,-0.4846,-0.9438,-0.0366,0.5164,0.7981,0.1017,2049
18,-0.4861,-0.9014,-0.0918,0.5532,0.9404,0.067,2064
18,-0.5737,-0.8865,-0.1477,0.538,1.019,0.0184,1986
18,-0.5537,-0.8794,-0.2341,0.5305,1.0009,0.0449,2039
18,-0.5366,-0.8464,-0.2893,0.5569,0.9028,0.1302,2037
18,-0.4785,-0.8408,-0.3228,0.5164,0.7863,0.1719,2050
18,-0.4246,-0.8696,-0.3269,0.4904,0.6048,0.1712,2025
18,-0.3726,-0.9099,-0.2874,0.4962,0.4224,0.1393,2045
18,-0.3179,-1.0051,-0.2466,0.4434,0.2577,0.11,2020
18,-0.2949,-1.0059,-0.2102,0.4287,0.1495,0.1091,2039
18,-0.363,-0.9805,-0.1401,0.4096,0.08,0.0229,2007
18,-0.3708,-0.9819,-0.1062,0.4111,0.0997,-0.0278,2054
18,-0.4636,-1.0261,-0.0376,0.4883,0.3309,-0.0783,2011
18,-0.4778,-0.9338,0.0081,0.5317,0.5167,-0.106,2120
18,-0.4417,-0.9968,-0.04,0.5031,0.7648,-0.1396,1962
18,-0.3301,-1.0122,-0.0835,0.5303,0.8492,-0.102,2146
18,-0.342,-1.0349,-0.0649,0.5386,0.8542,-0.0687,1976
18,-0.3337,-1.0266,-0.0618,0.4477,0.7558,-0.0282,2127
18,-0.2988,-1.0132,-0.0911,0.4199,0.6321,0.0003,2032
18,-0.3562,-1.0466,-0.0706,0.4698,0.5075,0.0764,2110
18,-0.4385,-1.0137,-0.0662,0.4622,0.4622,0.1132,2066
18,-0.437,-0.9858,-0.0562,0.4935,0.4225,0.1039,2010
18,-0.3835,-1.0886,-0.043,0.5422,0.3714,0.0965,2066
18,-0.3933,-1.1721,-0.031,0.4589,0.2077,0.0973,2030
18,-0.4221,-1.0962,-0.0972,0.4581,-0.0337,-0.0409,1985
18,-0.4612,-1.1953,-0.0776,0.3545,-0.2469,-0.0891,2114
18,-0.4873,-1.134,-0.0732,0.2725,-0.4437,-0.1228,2034
18,-0.6052,-1.0981,-0.0281,0.1731,-0.5441,-0.1167,2032
18,-0.6968,-1.1272,0.0566,0.1304,-0.5853,-0.019,2042
18,-0.7454,-1.1375,0.114,0.0756,-0.5382,0.1061,2039
18,-0.7668,-1.1438,0.1125,0.0088,-0.4528,0.1903,2049
18,-0.7004,-1.1384,0.1992,0.0005,-0.4946,0.2348,2039
18,-0.6743,-1.1494,0.313,0.0257,-0.4633,0.2025,2056
18,-0.6997,-1.144,0.3904,-0.0471,-0.2775,0.1779,2069
18,-0.6594,-1.0649,0.3362,-0.1348,0.0904,0.0854,2014
18,-0.6736,-1.05,0.2793,-0.1044,0.2878,0.0055,2073
18,-0.6663,-1.0698,0.1646,-0.1669,0.4056,-0.0141,2018
18,-0.6365,-1.0901,-0.0054,-0.2629,0.3103,-0.075,2015
18,-0.6272,-1.1321,-0.0918,-0.3819,-0.0783,-0.1406,2048
18,-0.6589,-1.1096,-0.1008,-0.4253,-0.6906,-0.2061,2018
18,-0.7102,-1.0864,-0.0515,-0.5351,-1.1319,-0.2816,2110
18,-0.7266,-0.9849,0.0415,-0.5456,-1.4808,-0.3205,2037
18,-0.7678,-0.9614,0.1138,-0.5537,-1.4416,-0.1602,2049
18,-0.7122,-0.8716,0.1641,-0.5525,-1.1236,0.0394,2030
18,-0.592,-0.8416,0.1311,-0.5269,-0.8428,0.1344,2096
18,-0.5183,-0.8433,0.1379,-0.4878,-0.4793,0.2531,2024
18,-0.4578,-0.8601,0.1353,-0.499,-0.2125,0.3135,2081
18,-0.3948,-0.8586,0.0952,-0.5204,-0.0453,0.2858,2019
18,-0.312,-0.8672,0.0491,-0.4803,-0.0731,0.265,2013
19,-0.2739,-0.8613,0.0095,-0.4181,-0.2083,0.2788,2046
19,-0.2495,-0.8462,-0.0352,-0.3597,-0.4468,0.3135,2017
19,-0.2246,-0.845,-0.0544,-0.3049,-0.8167,0.3422,2012
19,-0.2178,-0.8564,-0.0532,-0.2172,-1.144,0.399,2044
19,-0.2683,-0.8728,0.0029,-0.1281,-1.3412,0.4516,2069
19,-0.406,-0.8687,0.0793,-0.112,-1.3098,0.412,2022
19,-0.4836,-0.8774,0.1316,-0.1202,-1.0401,0.3263,2050
19,-0.5913,-0.8945,0.1372,-0.1661,-0.6823,0.3352,2073
19,-0.4187,-0.9111,0.0916,-0.2084,-0.3622,0.2649,2036
19,-0.3176,-0.9453,0.0176,-0.2397,-0.1854,0.2262,2033
19,-0.2349,-0.9795,-0.0737,-0.2165,-0.1807,0.1862,2043
19,0.041,-1.0457,-0.1426,-0.2806,-0.4425,0.3248,2008
19,0.115,-1.0881,-0.134,-0.183,-0.7114,0.2978,2090
19,-0.2175,-1.0991,-0.0752,-0.1382,-0.7568,0.1642,2022
19,-0.4373,-1.104,-0.0349,-0.1505,-0.7741,0.1416,2025
19,-0.7952,-1.136,0.0444,-0.1775,-0.5857,0.2393,2090
19,-0.6873,-1.2368,0.0208,-0.1328,-0.1001,0.1246,2017
19,-0.8228,-1.2935,-0.208,-0.1165,0.0792,0.0824,2136
19,-0.8267,-1.4368,-0.1509,-0.045,-0.1353,-0.0747,2032
19,-0.5757,-1.4602,-0.2979,0.0249,-0.3077,-0.2196,2146
19,-0.3816,-1.4048,-0.3049,0.0779,-0.9304,-0.3043,2040
19,-0.4114,-1.2986,-0.2041,0.0618,-1.5101,-0.3354,2034
19,-0.5854,-1.2078,-0.0864,0.0787,-1.8456,-0.2876,1982
19,-0.9717,-1.1992,0.1018,0.1493,-1.7253,-0.1296,1989
19,-1.0059,-1.1819,0.0962,0.09,-1.038,-0.0848,1991
19,-0.9009,-1.155,0.0005,-0.0233,-0.4412,-0.1011,2052
19,-0.7883,-1.1421,-0.0527,-0.087,-0.1145,-0.0997,2038
19,-0.7332,-1.074,-0.1274,-0.0679,-0.0467,-0.0649,2046
19,-0.729,-0.9668,-0.1582,-0.0085,0.0238,-0.0213,2046
19,-0.7375,-0.8989,-0.146,0.094,0.1349,-0.0249,2009
19,-0.7378,-0.8484,-0.0676,0.1368,0.2529,-0.0244,2038
19,-0.626,-0.8086,-0.0208,0.1673,0.3385,0.032,2035
19,-0.5513,-0.8044,-0.0415,0.2962,0.5885,-0.0868,2025
19,-0.4827,-0.8252,-0.0437,0.3437,0.5352,0.0202,2082
19,-0.4177,-0.8486,-0.0156,0.4139,0.4501,0.0783,2030
19,-0.4297,-0.9141,0.0251,0.439,0.503,0.089,2057
19,-0.4346,-0.915,0.0498,0.5107,0.7251,0.1169,2043
19,-0.4739,-0.9128,0.0383,0.6036,0.9525,0.1326,2105
19,-0.5232,-0.884,0.0315,0.6509,1.1774,0.1543,2045
19,-0.5696,-0.8352,-0.0447,0.6273,1.4805,0.124,2057
19,-0.5269,-0.8442,-0.1221,0.543,1.6355,0.0497,2039
19,-0.4714,-0.8518,-0.2109,0.5127,1.6271,0.0776,2032
19,-0.4038,-0.8425,-0.3208,0.3972,1.4641,0.1357,2039
19,-0.2588,-0.8098,-0.4048,0.3324,1.1778,0.1069,2028
19,-0.2126,-0.8589,-0.4109,0.3718,0.8722,0.1076,2022
19,-0.2627,-0.9031,-0.3235,0.4172,0.6058,0.1242,2152
19,-0.3157,-0.949,-0.2288,0.3886,0.3888,0.1121,2045
19,-0.3625,-0.968,-0.2043,0.3137,0.3055,0.0702,2040
19,-0.4167,-1.0061,-0.103,0.3501,0.3538,0.028,2050
19,-0.4629,-1.0239,-0.0459,0.4313,0.4259,0.0168,2062
19,-0.4304,-1.0071,-0.0142,0.4714,0.5019,-0.0392,1990
19,-0.3459,-1.0557,-0.0186,0.491,0.6144,-0.0854,2073
19,-0.2378,-1.0466,-0.063,0.522,0.6107,-0.0868,2027
19,-0.1904,-1.0142,-0.0867,0.541,0.5926,-0.1144,2012
19,-0.2163,-1.0283,-0.0608,0.5729,0.5148,-0.1264,2059
19,-0.2512,-1.0413,-0.0449,0.5267,0.4477,-0.0395,1994
19,-0.2822,-1.0408,-0.0374,0.532,0.3229,0.0439,2063
19,-0.3245,-1.092,-0.0027,0.5157,0.0738,0.0832,2006
19,-0.4087,-1.0237,-0.0337,0.5016,-0.1485,-0.0278,2077
19,-0.5259,-1.0493,-0.0425,0.5104,-0.3293,-0.1923,2030
19,-0.6064,-1.1418,-0.0745,0.4549,-0.4366,-0.2097,2128
19,-0.6575,-1.1519,-0.062,0.3727,-0.6032,-0.1719,2042
19,-0.7271,-1.0737,-0.0881,0.326,-0.8405,-0.0579,2030
19,-0.8721,-1.0452,-0.0583,0.2621,-1.0106,0.071,2064
19,-0.998,-1.1807,0.0444,0.1708,-1.0612,0.1177,2058
19,-0.804,-1.3276,0.0823,0.0498,-0.9989,0.186,2062
19,-0.5837,-1.3601,0.1013,-0.0073,-0.9946,0.1491,2036
19,-0.5183,-1.3767,0.1658,0.0611,-1.0828,-0.0698,2049
19,-0.512,-1.3323,0.2087,-0.1184,-1.016,-0.3,2012
19,-0.6221,-1.0303,0.3062,-0.1045,-1.1709,-0.5313,2013
19,-0.7241,-1.1609,0.3911,-0.2465,-1.2432,-0.7609,2040
19,-0.7336,-1.1616,0.283,-0.1361,-1.727,-0.7428,2043
19,-0.7278,-1.2041,0.2988,-0.1027,-2.1945,-0.6486,2090
19,-0.8325,-1.1182,0.2549,0.0385,-2.6208,-0.4015,2176
19,-0.9512,-1.0017,0.2578,0.1947,-2.7621,-0.08,2082
19,-0.9412,-0.8081,0.3291,0.2601,-2.5132,0.3009,1984
19,-0.8105,-0.7415,0.2249,0.0872,-1.6183,0.29,2016
19,-0.6526,-0.7371,0.1887,-0.0735,-0.8147,0.2908,2050
19,-0.5063,-0.7244,0.1521,-0.2585,-0.0481,0.2878,2041
19,-0.415,-0.7585,0.1128,-0.4193,0.5121,0.3093,2000
19,-0.4077,-0.7529,0.0693,-0.446,0.8211,0.3743,2139
19,-0.3462,-0.7781,0.0339,-0.5153,0.8885,0.4394,1986
19,-0.2642,-0.7729,-0.0823,-0.3619,0.6405,0.459,2019
19,-0.2781,-0.9138,-0.0476,-0.3735,0.3257,0.5184,2014
19,-0.2798,-0.8281,-0.0337,-0.145,-0.1693,0.5762,2058
19,-0.3967,-0.8142,-0.0027,-0.0927,-0.4914,0.5871,2117
19,-0.4519,-0.8877,0.0574,-0.085,-0.652,0.6348,2019
19,-0.3994,-0.8999,0.1003,-0.0828,-0.6743,0.704,2067
19,-0.4363,-0.9302,0.104,-0.0722,-0.3321,0.5959,2075
19,-0.3191,-0.9241,0.0916,-0.0795,-0.0783,0.5287,2002
19,-0.2261,-0.9768,0.0381,-0.1474,0.0523,0.4227,2072
19,-0.2073,-0.8801,-0.043,-0.1574,-0.07,0.4031,2010
19,-0.1948,-0.8652,-0.0049,-0.1338,-0.1852,0.432,2027
19,-0.5044,-1.2764,0.1426,-0.4177,0.0124,0.3011,2041
19,-0.4426,-0.9441,-0.0652,-0.163,0.0992,0.4039,2137
19,-0.0969,-1.5242,0.0872,-0.6907,0.2377,0.2008,2036
19,-0.4624,-1.0859,-0.0659,-0.2181,0.5185,0.2313,2125
19,-0.6267,-1.7495,0.0134,-0.666,0.2726,-0.0967,1996
19,-0.6663,-1.4111,-0.0723,-0.2047,0.1862,0.0165,2020
19,-0.6101,-1.4304,-0.2129,-0.1972,0.0898,-0.0957,2009
19,-0.5391,-1.3894,-0.2444,-0.1294,-0.2959,-0.2558,2043
20,-0.5913,-1.4014,-0.2363,-0.0732,-0.711,-0.3571,2040
20,-0.7776,-1.385,-0.248,-0.0398,-1.0905,-0.3304,2024
20,-0.9536,-1.2688,-0.1274,-0.0541,-1.4138,-0.2079,2093
20,-0.9463,-1.1572,-0.0647,-0.0838,-1.4191,-0.1064,2189
20,-0.8416,-1.1035,-0.0681,-0.1663,-1.3508,-0.0221,1973
20,-0.7607,-1.0398,-0.0718,-0.2133,-1.1722,0.0253,1895
20,-0.7043,-0.9897,-0.0354,-0.2264,-0.9479,0.065,1966
20,-0.6821,-0.9341,-0.0364,-0.2128,-0.703,0.0566,2071
20,-0.76,-0.9988,-0.062,-0.1475,-0.4406,0.0605,2078
20,-0.7854,-1.0857,-0.043,-0.0406,-0.1892,0.037,2053
20,-0.7612,-1.0867,-0.0168,0.1096,0.2453,-0.108,2071
20,-0.7056,-1.0374,-0.0085,0.1224,0.2578,0.0133,2038
20,-0.4639,-0.918,-0.0029,0.1542,0.3834,0.0409,2047
20,-0.8879,-0.8801,-0.0139,0.2131,0.8182,-0.087,2034
20,-0.6375,-0.8325,-0.0471,0.2983,0.8814,-0.0302,2015
20,-0.5115,-0.8594,-0.0593,0.3903,0.7626,0.0252,2043
20,-0.4946,-0.8467,-0.063,0.4654,0.6942,0.0158,2027
20,-0.4766,-0.8594,-0.071,0.4581,0.6664,0.049,2126
20,-0.4182,-0.8711,-0.0642,0.5104,0.6233,0.0908,2062
20,-0.4348,-0.8745,-0.1101,0.5566,0.6052,0.0639,2058
20,-0.4612,-0.9075,-0.1438,0.4958,0.6385,0.072,2018
20,-0.4946,-0.8433,-0.1233,0.4589,0.6316,0.0302,2060
20,-0.5273,-0.823,-0.1582,0.384,0.7474,0.0076,2004
20,-0.543,-0.8474,-0.1362,0.3693,0.7991,-0.0438,2032
20,-0.4854,-0.8774,-0.1758,0.3634,0.7949,-0.0294,2034
20,-0.4282,-0.8923,-0.2051,0.3163,0.7727,0.0092,2032
20,-0.3232,-0.8682,-0.2439,0.2465,0.6373,-0.0534,1999
20,-0.292,-0.8733,-0.2141,0.259,0.5602,-0.1453,2110
20,-0.3535,-0.907,-0.1506,0.3496,0.4907,-0.1728,2071
20,-0.4614,-0.979,-0.0681,0.295,0.6929,-0.1586,2044
20,-0.4272,-0.9387,-0.0908,0.2642,0.8885,-0.1766,1988
20,-0.3457,-0.9407,-0.1016,0.3035,0.8308,-0.2219,2018
20,-0.2693,-1.0095,-0.1118,0.399,0.6878,-0.2579,2026
20,-0.251,-1.0107,-0.0754,0.4197,0.547,-0.2448,2110
20,-0.2102,-1.0286,-0.0688,0.4131,0.5155,-0.2795,2049
20,-0.1565,-1.0603,-0.0632,0.4376,0.4549,-0.341,2043
20,-0.2036,-1.0901,-0.0374,0.4153,0.2907,-0.3919,2060
20,-0.3186,-1.0522,-0.0051,0.3774,-0.017,-0.4673,2045
20,-0.397,-0.9727,-0.0483,0.3846,-0.4145,-0.546,2044
20,-0.4648,-0.9878,-0.021,0.3639,-0.9974,-0.5782,2095
20,-0.4485,-1.0906,0.0474,0.3249,-1.6793,-0.5484,2068
20,-0.571,-1.115,0.0769,0.3597,-2.3317,-0.4852,2047
20,-0.9321,-1.134,0.0957,0.3382,-2.5361,-0.5129,2067
20,-1.4119,-1.1599,0.2124,0.3137,-2.1197,-0.5102,2067
20,-1.6504,-1.1755,0.3157,0.1534,-1.0965,-0.3382,2119
20,-1.3596,-1.0603,0.311,0.0758,-0.075,-0.0314,2069
20,-1.0378,-1.29,0.335,0.0301,0.7939,0.0674,2032
20,-0.6904,-1.4778,0.3994,-0.082,1.2027,0.0855,2047
20,-0.4614,-1.3555,0.4355,-0.1292,1.2544,0.0107,1960
20,-0.4915,-1.2668,0.4326,-0.1111,1.1093,-0.091,1975
20,-0.6294,-1.0466,0.2803,-0.22,1.1172,-0.1563,1998
20,-0.7498,-0.9153,0.178,-0.2284,1.0393,-0.1293,2004
20,-0.6912,-0.9482,-0.0078,-0.3027,1.1457,-0.2019,2041
20,-0.583,-0.9509,-0.1536,-0.3213,1.1184,-0.1839,2044
20,-0.519,-1.021,-0.2148,-0.3362,0.9537,-0.1385,2044
20,-0.4036,-1.2073,-0.1638,-0.3253,0.6441,-0.2764,2141
20,-0.2742,-1.4109,-0.1438,-0.4685,0.1276,-0.4548,2027
20,-0.2915,-1.3174,-0.0317,-0.7423,-0.6481,-0.7249,1965
20,-0.8489,-0.9146,0.5198,-0.4546,-2.5088,-1.4158,2062
20,-1.604,-0.8367,0.6411,-0.0529,-2.0276,-1.0029,2129
20,-1.5918,-0.687,0.5269,0.0107,-0.6727,0.0093,2149
20,-1.002,-0.3994,0.1677,-0.1069,0.3851,0.1626,2068
20,-0.6721,-0.6577,-0.1736,-0.3798,1.2592,0.0554,2048
20,-0.3169,-0.7612,-0.3455,-0.5016,1.4693,0.0357,2058
20,0.0071,-0.7856,-0.4648,-0.4104,1.0361,-0.0134,2064
20,0.094,-0.948,-0.3879,-0.3839,0.5091,-0.0688,2032
20,0.0093,-0.8518,-0.2986,-0.5008,-0.0222,0.0987,2039
20,-0.1755,-0.7231,-0.1987,-0.5486,-0.4249,0.194,2063
20,-0.2905,-0.6948,-0.0913,-0.5737,-0.6329,0.2553,2025
20,-0.3792,-0.7793,0.0186,-0.6195,-0.6853,0.3876,2109
20,-0.4658,-0.7324,0.0701,-0.5666,-0.5634,0.4032,2005
20,-0.5359,-0.8066,0.0471,-0.4918,-0.3236,0.463,1981
20,-0.4944,-0.8545,0.0188,-0.4141,-0.0767,0.3614,2008
20,-0.4858,-0.8381,-0.0269,-0.3731,0.1336,0.2385,2118
20,-0.3928,-0.9448,-0.0132,-0.4504,0.2474,0.1099,1992
20,-0.2852,-0.9841,-0.104,-0.5212,0.1708,0.0527,2044
20,-0.3079,-0.8779,-0.1707,-0.5355,-0.0514,0.0176,2052
20,-0.2271,-0.9172,-0.1663,-0.5165,-0.2638,-0.0625,2058
20,-0.2424,-0.9099,-0.1333,-0.4526,-0.473,-0.0995,2036
20,-0.2527,-0.9299,-0.0396,-0.2978,-0.5048,-0.1354,2025
20,-0.2803,-1.0022,0.0193,-0.28,-0.471,-0.1308,1992
20,-0.1069,-1.3809,0.1787,-0.6749,-0.5392,0.024,2018
20,-0.3318,-0.9138,0.0947,-0.2618,-0.2039,-0.181,2045
20,-0.1985,-1.1638,0.1492,-0.3099,-0.1206,-0.2157,1969
20,-0.1843,-1.156,0.1897,-0.2979,-0.0482,-0.2188,2090
20,-0.1138,-1.3857,0.2407,-0.649,-0.0538,-0.0645,2037
20,-0.2996,-1.1501,0.2837,-0.2441,0.18,-0.2273,2057
20,-0.1475,-1.2935,0.2212,-0.1854,0.3791,-0.2201,2004
20,-0.1409,-1.3699,0.1777,-0.1747,0.4293,-0.2318,2066
20,-0.2598,-1.1589,0.0139,-0.0317,0.6267,-0.1984,2051
20,-0.2971,-1.2649,0.0439,-0.0431,0.826,-0.2234,2008
20,-0.3516,-1.293,-0.0195,0.0154,1.0702,-0.2378,2123
20,-0.3953,-1.2742,-0.0811,0.0687,1.2981,-0.1962,2054
20,-0.4763,-1.2849,-0.1777,0.0775,1.4199,-0.178,2042
20,-0.5005,-1.3708,-0.269,0.1288,1.4202,-0.2197,2057
20,-0.468,-1.3179,-0.3933,0.2244,1.2535,-0.29,2049
20,-0.5254,-1.2036,-0.4541,0.4109,1.1591,-0.5129,2012
20,-0.5859,-1.1572,-0.4197,0.5695,0.8353,-0.6674,2009
20,-0.6943,-1.1382,-0.3201,0.6233,0.5967,-0.6436,1997
20,-0.7747,-1.1016,-0.1987,0.5197,0.4105,-0.4903,2060
20,-0.9683,-1.0054,-0.1707,0.3793,0.6745,-0.2029,2082
20,-1.0032,-0.9702,-0.1553,0.2321,0.9152,0.0124,1993
21,-1.0771,-0.9448,-0.269,0.1473,1.0871,0.149,1943
21,-1.1785,-0.8945,-0.377,0.2157,1.4113,0.2237,1948
21,-1.1431,-0.8918,-0.4624,0.3734,1.6978,0.1518,2105
21,-1.2209,-0.8682,-0.5537,0.5657,2.0598,0.0774,2096
21,-1.1582,-0.8777,-0.6133,0.6497,2.3942,0.0365,2104
21,-1.1152,-0.9722,-0.6707,0.539,2.7,-0.0256,2072
21,-0.9153,-1.0623,-0.7021,0.5076,2.4483,0.0189,2079
21,-0.762,-1.0244,-0.6372,0.3779,2.1043,0.082,1961
21,-0.5959,-1.0486,-0.5818,0.2852,1.5005,0.2646,2042
21,-0.2959,-1.1162,-0.4775,0.2535,0.7528,0.3434,2002
21,-0.1282,-1.1099,-0.4468,0.3286,0.2232,0.3297,1998
21,-0.2241,-0.9807,-0.4329,0.5179,-0.1866,0.2199,1988
21,-0.3708,-0.7971,-0.3831,0.6923,-0.3215,0.0294,2034
21,-0.5483,-0.7446,-0.3918,0.8281,-0.1679,-0.0872,2036
21,-0.7505,-0.8013,-0.4294,0.8431,0.1092,-0.1491,2046
21,-0.8411,-0.8186,-0.5789,0.8826,0.4998,-0.198,2033
21,-0.8286,-0.8159,-0.5938,0.9204,0.7572,-0.2537,2051
21,-0.6062,-0.8745,-0.5586,0.7981,0.758,-0.2791,2067
21,-0.3789,-0.9231,-0.677,0.6276,0.5241,-0.3285,2045
21,-0.2922,-0.8047,-0.6975,0.5951,0.1301,-0.3822,2034
21,-0.2878,-0.646,-0.6238,0.7143,-0.2948,-0.4354,2015
21,-0.3174,-0.5613,-0.5784,0.7994,-0.6598,-0.5172,2044
21,-0.3296,-0.5593,-0.5117,0.9158,-0.8882,-0.5767,2065
21,-0.3904,-0.5325,-0.4768,1.0376,-1.0415,-0.6026,2058
21,-0.4834,-0.5046,-0.5015,1.1608,-1.0319,-0.6392,2057
21,-0.5137,-0.5347,-0.4614,1.2055,-0.9903,-0.6815,2081
21,-0.4336,-0.6536,-0.4968,1.2375,-0.9023,-0.7247,2069
21,-0.3403,-0.7937,-0.4929,1.1955,-0.9186,-0.781,2044
21,-0.2134,-0.8127,-0.4766,1.2372,-0.822,-0.7625,2042
21,-0.2266,-0.7661,-0.4512,1.3097,-0.5952,-0.7885,2037
21,-0.2302,-0.7354,-0.335,1.3063,-0.3225,-0.912,2074
21,-0.1731,-0.7908,-0.2793,1.203,-0.1171,-0.9991,2053
21,-0.1467,-0.8486,-0.2483,1.1363,-0.0514,-1.0657,2065
21,-0.0891,-0.9397,-0.24,1.1488,-0.0756,-1.0971,2042
21,-0.0674,-1.0835,-0.2229,1.1766,-0.1902,-1.1033,2062
21,-0.0774,-1.2004,-0.177,1.1757,-0.3485,-1.0701,2071
21,-0.1418,-1.3484,-0.1272,1.0898,-0.3948,-1.0336,2049
21,-0.1072,-1.2344,-0.0986,0.8597,-0.2971,-0.9031,2044
21,-0.0818,-1.1741,-0.0481,0.7201,-0.2414,-0.8499,2042
21,-0.1343,-1.2034,0.0713,0.4167,-0.1459,-0.8295,2041
21,-0.0654,-1.1089,0.123,0.263,-0.096,-0.8352,2037
21,-0.0747,-1.0908,0.1162,0.1029,0.0305,-0.8871,2043
21,-0.0498,-1.0325,0.0837,0.0836,0.0511,-0.9275,2027
21,-0.0562,-1.011,0.1055,0.083,0.0716,-0.9742,2039
21,-0.0779,-0.9785,0.1079,0.1727,0.1796,-0.9604,2049
21,-0.1624,-1.0671,0.0803,0.2779,0.3449,-0.9688,2050
21,-0.2051,-1.1724,0.0754,0.2124,0.6012,-1.0123,2050
21,-0.1399,-1.2017,0.0386,0.3103,0.7325,-0.9704,2050
21,-0.1375,-1.2905,0.0527,0.3382,0.8859,-0.9206,2050
21,-0.1443,-1.3899,0.0776,0.3148,0.979,-0.8602,2052
21,-0.1152,-1.4958,0.1157,0.2306,1.0075,-0.7411,2050
21,-0.0977,-1.5632,0.145,0.182,1.0248,-0.6485,2047
21,-0.1042,-1.6182,0.1821,0.0382,1.1536,-0.6036,2029
21,-0.0725,-1.6162,0.2083,-0.0563,1.2243,-0.512,2032
21,-0.0759,-1.5955,0.2131,-0.1654,1.3431,-0.4245,2047
21,-0.0918,-1.5383,0.1914,-0.2123,1.5227,-0.4131,2062
21,-0.0383,-1.532,0.158,-0.297,1.6167,-0.3559,2040
21,-0.0396,-1.5156,0.1155,-0.3695,1.7338,-0.4087,2054
21,0.0002,-1.5181,0.0583,-0.3665,1.7266,-0.4833,2048
21,0.0,-1.5291,0.0337,-0.3657,1.7857,-0.5216,2040
21,0.0076,-1.5159,-0.0164,-0.2547,1.9614,-0.54,2027
21,-0.0835,-1.5117,-0.0669,-0.1938,2.1976,-0.5079,2052
21,-0.1255,-1.5151,-0.1218,-0.1087,2.3143,-0.4714,2047
21,-0.1211,-1.4832,-0.1335,0.1045,2.1683,-0.4735,2035
21,-0.1099,-1.46,-0.1279,0.2922,1.955,-0.414,2045
21,-0.1436,-1.4436,-0.1145,0.4445,1.8923,-0.3722,2048
21,-0.2009,-1.4221,-0.1431,0.6445,1.8096,-0.3312,2075
21,-0.1875,-1.4167,-0.1362,0.7801,1.5993,-0.3191,2077
21,-0.1777,-1.4224,-0.1404,0.8147,1.2616,-0.2485,2054
21,-0.2415,-1.3672,-0.1711,0.9166,1.0136,-0.2147,2050
21,-0.3484,-1.3738,-0.2188,0.7741,0.64,-0.1954,2048
21,-0.4165,-1.3335,-0.29,0.7753,0.4308,-0.1792,2011
21,-0.5222,-1.2908,-0.3181,0.755,0.406,-0.1294,2056
21,-0.7231,-1.2649,-0.3657,0.6232,0.4241,0.0342,2026
21,-0.9102,-1.1675,-0.4365,0.5881,0.3774,0.1947,2053
21,-0.9524,-1.135,-0.4834,0.454,0.3197,0.2697,2053
21,-0.8115,-1.1655,-0.5735,0.3911,0.2895,0.3199,2046
21,-0.7239,-1.2104,-0.6277,0.2948,0.246,0.3524,2043
21,-0.5994,-1.2341,-0.6279,0.1542,0.2605,0.3067,2053
