,timestamp,node,accx,accy,accz,gyrox,gyroy,gyroz,q0,q1,q2,q3,timestamp,node,accx,accy,accz,gyrox,gyroy,gyroz,q0,q1,q2,q3,timestamp,node,accx,accy,accz,gyrox,gyroy,gyroz,q0,q1,q2,q3,timestamp,node,accx,accy,accz,gyrox,gyroy,gyroz,q0,q1,q2,q3,timestamp,node,accx,accy,accz,gyrox,gyroy,gyroz,q0,q1,q2,q3,timestamp,node,accx,accy,accz,gyrox,gyroy,gyroz,q0,q1,q2,q3,timestamp,node,accx,accy,accz,gyrox,gyroy,gyroz,q0,q1,q2,q3,timestamp,node,accx,accy,accz,gyrox,gyroy,gyroz,q0,q1,q2,q3,timestamp,node,accx,accy,accz,gyrox,gyroy,gyroz,q0,q1,q2,q3
0,0.0639999999998508,0.0,-1.6541404746799692e-16,2.37524123800125e-17,1.0000000000000002,-0.0221245592378098,0.0060418361650068,0.0040007335970233,0.9999993224265477,-0.0011062272123397896,0.0003023128895796763,0.00020003678910440273,0.0639999999998508,1.0,3.494916356132469e-17,2.6542153468605565e-17,1.0,-0.0121704712073198,0.0253214455250609,-0.0118360371274518,0.9999988387230884,-0.000608522853701628,0.0012657106810380746,-0.0005918013882712774,0.0649999999995998,2.0,8.355395676276764e-17,4.820349461241521e-19,1.0,-0.0106074483048838,0.0276482079660236,-0.0124160436920444,0.9999987115831146,-0.0005303717319034147,0.0013820793612504593,-0.0006208015593784657,0.0649999999995998,3.0,-7.885201927528317e-18,2.149856066291206e-17,0.9999999999999998,-0.0310523021287324,0.0133678014114647,0.0089801820543243,0.9999984700527571,-0.0015526127310174177,0.0006690861852209097,0.0004490094981418006,0.0649999999995998,4.0,2.9841969070183707e-17,2.5499036011661057e-17,0.9999999999999998,-0.0303805917482531,0.0149860096699606,0.0224448255030322,0.9999979345609032,-0.001519026449949555,0.0007510036500436952,0.0011222415467418822,0.0,5.0,-2.190603825814164e-17,1.1232296786350528e-16,1.0,0.0044088237957393,0.00065420565327,0.0231654883805563,0.9999993043770249,0.0002204410364430143,3.245492869606103e-05,0.0011582736695910343,0.0,6.0,-3.7932185575324537e-17,1.759888218650008e-17,1.0,0.0016650950533448,0.0042371657066982,0.0063257093470041,0.9999999240796944,8.325474634651462e-05,0.00021183193698420886,0.00031628544553000197,0.0,7.0,-2.976872989847014e-17,-6.509164142458785e-18,1.0,-0.0046029032566297,-0.0158703773799655,-0.0065979760390525,0.9999996042038731,-0.0002301450717409213,-0.0007935944795100213,-0.0003298986888536325,0.0,8.0,1.850351006392594e-17,1.1305655913882509e-17,1.0,-0.0005524951940952,0.0021542552621723,-0.0012781508491948,0.9999999917755201,-2.762475947756016e-05,0.00010771099679224333,-6.39075419829033e-05
1,0.1539999999999963,0.0,0.0002769141740849,-0.0003605165089277,0.979237352916231,-0.0210930041636754,0.0103628920115241,-0.0009546415993965,0.9999975476143415,-0.0020687750205227854,0.0007757721631056997,0.00015202884126531318,0.1539999999999963,1.0,-0.0008195553168011,-0.0005660782857284,0.9798795884619992,-0.0140528083415072,0.0103695612328169,0.0091294866253146,0.9999977281425384,-0.00127828492959598,0.0017004517130501126,-0.00013476413598235615,0.1549999999997453,2.0,-0.001971167108884,0.0001603292967285,0.9802148176776077,-0.0159264573437171,0.0293848824318692,-0.0192501219658034,0.9999939897401231,-0.0012658295630092041,0.002812923062269258,-0.0015829159780813193,0.1549999999997453,3.0,-0.0013370260731658,-0.0024025409487083,0.9803991228873418,-0.021563873210683,0.0124674592508165,-0.0019916372816375,0.9999957272178067,-0.0025984449586290183,0.00129293713103577,0.00034920409769943566,0.1549999999997453,4.0,-0.0006774889334134,-0.0012317557275053,0.979218067534792,-0.026979535801415,0.0099179942994024,-0.0325139521100776,0.9999952866114675,-0.002780802239709842,0.0012002872845255723,-0.0005031939855348977,0.062,5.0,-0.036509778678948,0.0160454273573912,0.9741927839610252,-0.5451862894242528,-0.7294533685779107,0.1162288404439959,0.9990405850601638,-0.02617266412904255,-0.03441651936016511,0.006957316304811018,0.062,6.0,0.0037248542661796,0.000174126190457,0.978743630957957,-0.3543464256000252,-0.0917398896458948,0.9288708843467082,0.9987459018411272,-0.017600046340077134,-0.003769061844394715,0.04671890513693608,0.062,7.0,-0.0668865322082176,0.005010187849314,0.94007929975448,-0.3580941257030175,-0.7349208693153841,-1.2988495234759023,0.9971074002646785,-0.017754014854662572,-0.03496112419283762,-0.06511026869186964,0.062,8.0,-0.0015607704312,-0.0012259703551442,0.980137776535702,-0.1605105871804214,-0.7025105154543883,-0.9286237923267334,0.9982666621339855,-0.008106098058717552,-0.03526424762077906,-0.046415463865760384
2,0.1999999999998181,0.0,-0.0005167903014341,-0.0021347336252877,0.979708719895936,-0.0161515804280598,0.0096920500721872,-0.0040456076285562,0.9999954080488461,-0.002778654224852061,0.0012084683552151425,-5.0657230545691295e-05,0.1999999999998181,1.0,-0.0024586659504034,-0.0016982348571852,0.9800571773932958,-0.0139043944223549,0.0201388497430258,5.3439854590046726e-05,0.999994579154847,-0.0019321538316000597,0.0026628875178446275,-0.00013218380677275745,0.1999999999998181,2.0,-0.0031668184752326,-0.0017200754893735,0.9800290876300845,-0.0152041958810599,0.0276521707071665,0.0227740270647433,0.9999896174606554,-0.001981555002771368,0.0040793861561767555,-0.0004438685074546721,0.1999999999998181,3.0,-0.0013370260731658,-0.0024025409487083,0.9803991228873418,-0.0083890777068844,0.0010642924767641,-0.0030555064986266,0.9999950061849524,-0.002880820952001166,0.0012844162154219518,0.00019685219007845243,0.1999999999998181,4.0,-0.0004434121844786,-0.0021916627556847,0.9790638385723373,-0.0012282348301281,0.0007263032764268,-0.0063845649994924,0.9999954320891865,-0.0026764138099051884,0.0011384514585529061,-0.0008225193954236881,0.125,5.0,-0.0006234904160629,0.000730478800156,0.9793528871966548,-0.0005726414406508,0.0069193791249599,-0.0075120142440128,0.9992324862235864,-0.023540659834044155,-0.030611689528987986,0.006572691548284842,0.1239999999997962,6.0,-3.958721829332588e-17,2.027073188870545e-17,0.9805029321730764,-0.0012610482519455,0.0032613146076759,0.0061845525945441,0.9987617055068968,-0.015912313500703698,-0.003227428572643215,0.04702592473113598,0.125,7.0,-3.199464228046176e-17,9.663448302230709e-18,0.97961523058801,0.002935871896203,-0.0016861774648917,-0.0030615834594842,0.997242885753528,-0.015834750769757815,-0.03156569308826514,-0.06526480293307341,0.125,8.0,8.289572508638823e-18,5.064933849419363e-18,0.979890810243672,-0.0055843234534893,0.0038847351884783,0.0009536259262247,0.9983971123583442,-0.007567843812141226,-0.03153448045098344,-0.04638437578799296
3,0.2889999999997599,0.0,-0.0009136425391936,-0.0030218421834677,0.9799444033857884,-0.0068604321601473,0.0096782338239458,-0.0025230958444039,0.9999941811917922,-0.002998117982717149,0.0016177944501866175,-0.00017779830104085976,0.2889999999997599,1.0,-0.0032782212672045,-0.0022643131429136,0.980145971858944,-0.0116054068506704,0.0077475136842725,0.0032090632681322,0.9999926806353074,-0.0024342122627843367,0.0029516843962823385,2.908085775098915e-05,0.2899999999999636,2.0,-0.0042574359356279,-0.0026201955582425,0.9800107187242856,-0.0192605862944848,0.0211140248476138,-0.0145982466373166,0.9999829433313482,-0.00288250429545269,0.004942723383906592,-0.0011720498755772284,0.2899999999999636,3.0,-0.0013370260731658,-0.0024025409487083,0.9803991228873418,-0.0041607421704748,0.0054510056058306,-0.0175830575109288,0.9999943744164218,-0.0029244990764782093,0.001494074589609872,-0.000682775059331635,0.2899999999999636,4.0,-0.0004434121844786,-0.0021916627556847,0.9790638385723373,0.0004406382250964,0.006839090592527,-0.0136059064364445,0.999994783712197,-0.002499141445206735,0.0013875776680901124,-0.0015038180236690236,0.1939999999999599,5.0,-0.0006234904160629,0.000730478800156,0.9793528871966548,0.0081620191316654,0.0081278508269943,-0.0163711098773385,0.9994005061265111,-0.02072224734742497,-0.02713044595060094,0.005758100508593315,0.1939999999999599,6.0,-3.958721829332588e-17,2.027073188870545e-17,0.9805029321730764,-0.0035349307935925,-0.0005250917295204,-0.0033696057050057,0.9987920099226945,-0.01449619088715006,-0.0029417368345808575,0.04685859098119848,0.1949999999997089,7.0,-3.199464228046176e-17,9.663448302230709e-18,0.97961523058801,0.0027990921177896,-0.0045651583588642,0.0004822920405507,0.9973582014195297,-0.014129077273952672,-0.028648954808254704,-0.06523974727864855,0.1949999999997089,8.0,8.289572508638823e-18,5.064933849419363e-18,0.979890810243672,-0.0036794555652572,0.004799436793992,-0.007908825551393,0.9984839685701713,-0.0069718510261576,-0.02813849892396364,-0.046790839701126324
4,0.3339999999998326,0.0,-0.0017887578696365,-0.0027336300171833,0.9795556786687593,0.0052637433285931,0.0191175891107238,0.0023243679904724,0.999993550741746,-0.0025742794950478327,0.002503469162726885,-6.482397480642883e-05,0.3339999999998326,1.0,-0.0040977765840057,-0.002830391428642,0.9802347663245924,-0.0023285756471815,0.0038397919076218,-0.0088065317707421,0.9999922361321032,-0.0024529022863860575,0.0030564344850114804,-0.0004112835135246396,0.3339999999998326,2.0,-0.00524301949007,-0.0025400309098782,0.9801597109602106,-0.0098899595708805,0.0112503031897385,-0.0211040682976136,0.9999784124647022,-0.00322255533354952,0.0052757391423068215,-0.0022262790028342483,0.3339999999998326,3.0,-0.0013370260731658,-0.0024025409487083,0.9803991228873418,-0.0008831193574341,0.0087880848276517,0.0005807457547529,0.9999941543561802,-0.0027983439079785786,0.0018524517900384908,-0.0006549406126254245,0.3339999999998326,4.0,-0.0004434121844786,-0.0021916627556847,0.9790638385723373,0.0074276494432839,0.014424242366988,0.0063715516462895,0.9999953323733238,-0.0019882116120678232,0.001992916567645299,-0.0011876572340409621,0.2239999999997053,5.0,-0.0006234904160629,0.000730478800156,0.9793528871966548,0.0031075702867424,0.0010243226808611,-0.0005098990789859,0.9995169258958176,-0.018459336990328826,-0.02433651611435177,0.005736001139113671,0.2239999999997053,6.0,-3.958721829332588e-17,2.027073188870545e-17,0.9805029321730764,-0.0052541153113974,-0.000715657857496,-0.0013736527852894,0.9988124332263113,-0.013307363450256739,-0.0026965851841937636,0.0467906586711772,0.2239999999997053,7.0,-3.199464228046176e-17,9.663448302230709e-18,0.97961523058801,-0.0025669188167343,1.87325330370745e-05,-0.0175157351646188,0.9973958071824244,-0.012820352421880277,-0.025788641255305358,-0.0661225253669582,0.2239999999997053,8.0,8.289572508638823e-18,5.064933849419363e-18,0.979890810243672,-0.0065089642858812,0.0010216611693116,-0.0106220462712627,0.9985378770811731,-0.006582829611844322,-0.025263998529582405,-0.04733397053726559
5,0.4089999999996507,0.0,-0.0038159027046071,-0.0017966891756867,0.97966892917687,0.0198213528125816,0.0347665374768196,0.011685411497034,0.9999901008358884,-0.001415899809475771,0.004186948373002237,0.0005127585019378925,0.4089999999996507,1.0,-0.0040977765840057,-0.002830391428642,0.9802347663245924,0.0014124437909821,-0.0006452070794158,-0.0146637179666597,0.9999924572856774,-0.002283530116792733,0.002925904477498303,-0.0011445282640272997,0.4099999999998545,2.0,-0.00524301949007,-0.0025400309098782,0.9801597109602106,-0.0044217155588572,-0.0014724406261274,-0.0073717921728593,0.9999791383454505,-0.0032524669253920133,0.004941582836537789,-0.0025932782070173374,0.4099999999998545,3.0,-0.0013370260731658,-0.0024025409487083,0.9803991228873418,0.0055886139900847,0.0083131780446774,0.0250568634602866,0.999994720255891,-0.002358969045094521,0.002153902484756865,0.0005961790610820157,0.4099999999998545,4.0,-0.0015890546157618,-0.0015036044268313,0.9795265254597016,0.0164266491628723,0.0145148238583628,0.0613367468034446,0.9999943144746558,-0.0010377338837907894,0.002602763375445263,0.0018760995605129308,0.3019999999996798,5.0,-0.0006234904160629,0.000730478800156,0.9793528871966548,-0.003760487923638,-0.0002593670701367,0.0002180700463587,0.9996033687011194,-0.01676598221521134,-0.02188671527274517,0.005742718546388642,0.3019999999996798,6.0,-3.958721829332588e-17,2.027073188870545e-17,0.9805029321730764,0.0003318466900855,-0.0013507470829302,0.0011641426999861,0.9988272334498745,-0.011957264165453913,-0.0024929566505505376,0.046850471925965656,0.3019999999996798,7.0,-3.199464228046176e-17,9.663448302230709e-18,0.97961523058801,-0.0020478794136271,-0.0012150124886618,0.0056900483557697,0.9974905922942873,-0.011652717278367036,-0.02326207625540268,-0.06584533599815676,0.3029999999998836,8.0,8.289572508638823e-18,5.064933849419363e-18,0.979890810243672,-0.0056512766663955,0.0037609333772408,-8.407012274525444e-05,0.9986048646997696,-0.0061980974145011795,-0.02253792117642547,-0.04734923331417615
6,0.5039999999999054,0.0,-0.0058430475395779,-0.0008597483341902,0.979782179684981,0.0116045686240014,0.0201224426001021,0.0027132762637577,0.9999866524360909,-0.0007380642157931534,0.005072912225905833,0.0006448041738687287,0.5039999999999054,1.0,-0.0040977765840057,-0.002830391428642,0.9802347663245924,-0.0001048731205638,-0.0061870133597037,-0.0168241131548866,0.9999923899920594,-0.0022073678384056826,0.002531297017641545,-0.0019849485140058672,0.5049999999996544,2.0,-0.00524301949007,-0.0025400309098782,0.9801597109602106,-0.0060338698177672,-0.0100172688520321,-0.0345242958131517,0.9999761557836134,-0.003367610013538765,0.0042093261670160965,-0.004316090852024495,0.5049999999996544,3.0,-0.0013370260731658,-0.0024025409487083,0.9803991228873418,0.0066227412866534,0.0027607259440612,-0.0024368163126582,0.9999957549946995,-0.0019148503609422351,0.002144627103440714,0.000473196854539457,0.5049999999996544,4.0,-0.0015890546157618,-0.0015036044268313,0.9795265254597016,-0.0023045615559643,0.0024571270328034,-0.0255805088296013,0.9999959460316543,-0.0011296503092261994,0.0025446493309296365,0.000597135008005183,0.3789999999999054,5.0,-0.0006234904160629,0.000730478800156,0.9793528871966548,-0.0096038071096981,-0.008614922846641,0.0026628063013712,0.99966006485804,-0.015533937159770198,-0.02009884445256539,0.005872646422779555,0.3789999999999054,6.0,-3.958721829332588e-17,2.027073188870545e-17,0.9805029321730764,-0.000944587411275,-0.0056004717187911,0.0024060729167756,0.9988345570804419,-0.010796054185932904,-0.0025243062554160607,0.04697446831908443,0.3789999999999054,7.0,-3.199464228046176e-17,9.663448302230709e-18,0.97961523058801,-0.0060713667538427,-0.020566865297563,-0.0015391654740737,0.997524414534433,-0.010856924837221974,-0.02194397926903223,-0.06592140293300608,0.3789999999999054,8.0,8.289572508638823e-18,5.064933849419363e-18,0.979890810243672,-0.0067440517402248,-0.000421509940738,-0.009377915323433,0.9986320023704431,-0.0059057675117950206,-0.02029308819071201,-0.047827150483587155
7,0.5459999999998217,0.0,-0.0069950770441057,-0.0002110196589781,0.9802841549101212,0.0143184751178596,0.0167068680686802,-0.0144595882321578,0.9999834173284582,3.6454278223966855e-05,0.005758209891066724,-8.220726637225503e-05,0.5459999999998217,1.0,-0.0040977765840057,-0.002830391428642,0.9802347663245924,-0.0007297712881729,0.0016907679046323,0.0040432593982828,0.9999927552481734,-0.002166396625249842,0.0025725196859576745,-0.0017827841412965393,0.5459999999998217,2.0,-0.0043624698415812,-0.0036004802754757,0.9798433575825614,0.0020931086911162,-0.0013835695933854,0.0005332611506811,0.999978195127625,-0.003109145682063377,0.00394224776639123,-0.004289657908695811,0.5470000000000255,3.0,-0.0013370260731658,-0.0024025409487083,0.9803991228873418,0.0060024494832581,-0.0039530940690196,0.0109347656190942,0.9999966645407538,-0.0015445380407283849,0.0018016264869955105,0.0010195349967066047,0.5470000000000255,4.0,-0.0015890546157618,-0.0015036044268313,0.9795265254597016,0.0061511991678798,-0.0111192286868553,0.0434597865397533,0.9999942086609136,-0.0007800626891480525,0.0018171666067852026,0.0027698469916910386,0.4499999999998181,5.0,-2.7580967858181066e-17,8.515373615207312e-17,0.9796315633951368,-0.0036344227231119,-0.0028859376662821,0.0118399207523034,0.9997125058245125,-0.014174139099015211,-0.018227026022326422,0.006463358357484236,0.4489999999996144,6.0,-3.958721829332588e-17,2.027073188870545e-17,0.9805029321730764,0.0001606456051666,-0.0052448255649442,-0.0061313295567312,0.9988600138225763,-0.009695431098581148,-0.0025364372396454943,0.046671596161954605,0.4499999999998181,7.0,0.0020294937471761,-3.285666811955507e-05,0.9805533540178064,-0.0084177285317294,-0.0112662132572142,0.0006998312284016,0.9975657866307183,-0.010238037864756284,-0.020387633152016492,-0.06589406907283138,0.4499999999998181,8.0,8.289572508638823e-18,5.064933849419363e-18,0.979890810243672,-0.0049998969324177,0.0029428631289725,-2.849834669330657e-05,0.9986756141269101,-0.005558016322737272,-0.01810564976802176,-0.047836300539162886
8,0.6039999999998145,0.0,-0.0069950770441057,-0.0002110196589781,0.9802841549101212,0.0012855342265491,-0.0002036181061736,-0.0030450235683045,0.9999846837221841,8.547368477522827e-05,0.005528999608131048,-0.0002349013108439256,0.6050000000000182,1.0,-0.0040977765840057,-0.002830391428642,0.9802347663245924,-0.0121503776753641,0.0022465618509747,-0.0133033174016458,0.999989880004059,-0.002702779171408366,0.0026361544257560445,-0.002446541244681747,0.6050000000000182,2.0,-0.0053480533960232,-0.0035203156271114,0.9799923498184866,-0.0135683197121155,0.0019898370865498,-0.0615394766921966,0.9999585077366263,-0.0036667452085924887,0.0039127478499169374,-0.007363979153819675,0.6050000000000182,3.0,-0.000419879201984,-0.0021698336067469,0.9800755662312852,0.0022947469222492,0.0016532621842009,-0.0020158647118971,0.9999971289299042,-0.0013863321023470222,0.001725412387173333,0.0009182414414618102,0.6050000000000182,4.0,-0.001354977866827,-0.0024635114550107,0.9793722964972468,-0.0149033434844647,-0.0034352195980622,-0.0646109421223244,0.9999974851926682,-0.0015785727500201375,0.0015253424176904515,-0.0004593984340635472,0.5239999999998872,5.0,-2.7580967858181066e-17,8.515373615207312e-17,0.9796315633951368,-0.0008472229221812,-0.0009910671181725,-0.0007023138257731,0.9997620143196998,-0.012798765198988345,-0.016455424409781306,0.006428478847394674,0.5239999999998872,6.0,-3.958721829332588e-17,2.027073188870545e-17,0.9805029321730764,-0.0026403683133848,-0.0033231731486324,0.0075728016644511,0.9988502418924201,-0.00885106289442328,-0.0024515977052066403,0.04705148909210555,0.5239999999998872,7.0,0.0020294937471761,-3.285666811955507e-05,0.9805533540178064,-0.0021657364585538,-0.0023834912619128,0.0047878219452234,0.9976256289969291,-0.009343904029663855,-0.018562326367885865,-0.06566000202389786,0.5249999999996362,8.0,8.289572508638823e-18,5.064933849419363e-18,0.979890810243672,-0.004033383648697,-0.0008054501142398,-0.0040469433451163,0.9986982532441039,-0.005202063916557144,-0.016327288296854158,-0.04804328418265223
9,0.6649999999999636,0.0,-0.0078701923745485,7.719250730626285e-05,0.9798954301930918,0.005922461144575,0.0072135693624711,9.722706832130452e-05,0.999983437999777,0.000377189184447323,0.005738274020842925,-0.00023165864371391503,0.6649999999999636,1.0,-0.0040977765840057,-0.002830391428642,0.9802347663245924,-0.0038456120101258,0.0035057411569301,-0.0131446010335134,0.9999875502969484,-0.002769943561561023,0.0027558441071468156,-0.003103544269189059,0.6659999999997126,2.0,-0.0043624698415812,-0.0036004802754757,0.9798433575825614,-0.0082264079322641,0.0154657131129263,0.0251177757226634,0.9999635546332657,-0.0038828457773221834,0.0045265874689657945,-0.006109248706580108,0.6659999999997126,3.0,-0.000419879201984,-0.0021698336067469,0.9800755662312852,0.0075561099600411,-0.0056900409146805,0.0140894976960636,0.9999973717393953,-0.0009791338756961546,0.0012907255255344868,0.0016222942929375237,0.6659999999997126,4.0,-0.001354977866827,-0.0024635114550107,0.9793722964972468,0.0117388362390891,-0.0068345309023148,0.0603537929738425,0.999995664433192,-0.0009550603923639313,0.0011029220196401403,0.002557838439822981,0.6019999999998618,5.0,-2.7580967858181066e-17,8.515373615207312e-17,0.9796315633951368,0.0023696289330383,0.0065823200979015,-0.0074628415865006,0.9998118101481447,-0.011396858796416486,-0.014484903436132549,0.006053385029115042,0.6019999999998618,6.0,-3.958721829332588e-17,2.027073188870545e-17,0.9805029321730764,0.0002018869336838,-0.0026203857948431,-0.0041969658379622,0.9988678773739679,-0.007949249608026981,-0.002338518131092028,0.046843402033196375,0.6019999999998618,7.0,0.001033053200117,4.7154642034746666e-05,0.9805798950506408,0.0088063101304314,0.0174236786663431,-0.0046736183257209,0.9976681526150214,-0.007910055068731612,-0.015921010892855122,-0.0658954452044275,0.6029999999996107,8.0,8.289572508638823e-18,5.064933849419363e-18,0.979890810243672,-0.0065913068699294,0.0055356928006348,-0.0056952164719904,0.998714801984889,-0.004993188034650229,-0.014404139962736023,-0.048335629937638735
10,0.717,0.0,-0.0098973372095192,0.0010141333488028,0.980008680701203,0.0303283761396438,0.0338333996046937,-0.0252320268733617,0.9999699590781136,0.0019008500614162175,0.007363024695289528,-0.0015011920917312835,0.717,1.0,-0.0040977765840057,-0.002830391428642,0.9802347663245924,0.0146243210773008,0.0101935975458705,0.0348563232892055,0.999992145122912,-0.0018990712321194933,0.00320043516078031,-0.0013639779008468437,0.717,2.0,-0.0015107530842082,-0.0048212589378017,0.979229019733062,0.0203832528600653,0.0312824890564102,0.2023462464128438,0.9999720029003366,-0.0026655739262711016,0.005737163431849091,0.003996634445213917,0.718,3.0,-0.0013370260731658,-0.0024025409487083,0.9803991228873418,0.0121364575041091,-0.0224911976805458,0.0619187204574491,0.9999887859870019,-0.0003912170912229647,0.00010728357532443463,0.004718404355701469,0.718,4.0,-0.0015890546157618,-0.0015036044268313,0.9795265254597016,0.0675579612531941,-0.029674794160094,0.3766276552411761,0.9997682355248563,0.0024653340381424354,-0.0004478328560207003,0.021382161006995772,0.6779999999998836,5.0,-0.0015626804111869,-0.0011390899386912,0.9801419593630528,-0.008948810364772,0.007610325235931,-0.0145175144832888,0.9998487832220266,-0.010755249062988482,-0.01258754173670176,0.0053187498580251355,0.6779999999998836,6.0,-3.958721829332588e-17,2.027073188870545e-17,0.9805029321730764,0.0017037986683898,-0.0073204731155611,-0.0069385752974709,0.9988903408026202,-0.007051304934851843,-0.002468750097377817,0.04650023035316719,0.6789999999996326,7.0,-3.199464228046176e-17,9.663448302230709e-18,0.97961523058801,6.550649485279353e-05,0.0134246775132835,0.001444738144376,0.9977122780969792,-0.007072897978792149,-0.013659301159402547,-0.06583014309990742,0.6789999999996326,8.0,8.289572508638823e-18,5.064933849419363e-18,0.979890810243672,-0.0072503661795725,0.0006647975652114,-0.0071851456600499,0.9987181391655,-0.00484925019774696,-0.012915061170855256,-0.048700764565598714
11,0.7689999999997781,0.0,-0.0078701923745485,7.719250730626285e-05,0.9798954301930918,0.0068792253742875,0.0103780350971012,0.0002895443463194,0.9999682929731154,0.002060148489605395,0.007546636931679166,-0.0014889955190280956,0.7689999999997781,1.0,-0.0040977765840057,-0.002830391428642,0.9802347663245924,-0.004235065260823,-0.0074189929631889,-0.0018659415894357,0.9999931104783577,-0.002065806718673687,0.0027187553547441705,-0.0014559559543779186,0.7689999999997781,2.0,-0.0044675037475344,-0.0045807649927089,0.9796759964408374,-0.0129413511484789,0.0061744442311423,-0.0092724033081025,0.999972139155713,-0.003284654565800618,0.0056951258241066775,0.0035351801338264384,0.7699999999999818,3.0,-0.000419879201984,-0.0021698336067469,0.9800755662312852,-0.0055487970647301,-0.0003368773780867,0.0007512284809181,0.9999884112644943,-0.0007402453428321613,9.932843032563599e-05,0.0047559969941158116,0.7699999999999818,4.0,-0.001354977866827,-0.0024635114550107,0.9793722964972468,-0.0056415097286355,-0.0027607345913717,0.0018304261738039,0.9997676679908424,0.0018124857787432476,-0.0004807820813557415,0.02147309442174019,0.7619999999997162,5.0,-0.0015626804111869,-0.0011390899386912,0.9801419593630528,-0.0012941293415808,0.0162325591262526,0.0028570026661842,0.9998825439797097,-0.00980930199331443,-0.010437082052697718,0.00545372875136137,0.7619999999997162,6.0,-3.958721829332588e-17,2.027073188870545e-17,0.9805029321730764,-0.0006615372168081,-0.0133325815008916,-0.0046051277968411,0.9989043845363714,-0.006347674985168019,-0.0028907833673040557,0.046275057512863566,0.7619999999997162,7.0,-0.0009964405470591,8.00113101543109e-05,0.9796417716208444,0.0164765981858925,0.0352958214506758,0.018986307201082,0.9978224341664331,-0.0054330046838270375,-0.0105311186533528,-0.0648842652280844,0.7619999999997162,8.0,8.289572508638823e-18,5.064933849419363e-18,0.979890810243672,-0.0145945271666254,-0.0094690500165504,-0.0077919823299505,0.9987080444446441,-0.005111228823761018,-0.01206310189343284,-0.04909784999543962
12,0.8289999999997235,0.0,-0.0078701923745485,7.719250730626285e-05,0.9798954301930918,0.0057784784241123,0.0090697539773692,-0.0116720561305064,0.9999663045831889,0.002143862083047662,0.0076478424588457905,-0.0020746226969146127,0.8299999999999272,1.0,-0.0040977765840057,-0.002830391428642,0.9802347663245924,-0.0046683387990367,-0.0067234361231004,-0.025017689793481,0.9999911447295056,-0.0022405969873310677,0.0023174740520034566,-0.0027054577675467116,0.8299999999999272,2.0,-0.0054530873019765,-0.0045006003443446,0.9798249886767624,-0.0120818742432103,0.0076979027363308,-0.0114351922702672,0.9999716750800998,-0.0037955238996673015,0.005783644185979095,0.0029652142851298293,0.8299999999999272,3.0,-0.000419879201984,-0.0021698336067469,0.9800755662312852,-0.0108897630110599,-0.0119104021907558,-0.0124630532970162,0.9999904687831132,-0.0013187307342151882,-0.0004886362308477175,0.004133343297431398,0.8299999999999272,4.0,-0.001354977866827,-0.0024635114550107,0.9793722964972468,-0.0156062584788901,-0.013645549241481,-0.0372107030256612,0.9998068430839799,0.0007393803546799487,-0.0010637655737265543,0.0196111764547954,0.8099999999999454,5.0,-0.0021861708272498,-0.0004086111385353,0.9798632831645704,0.0058548068491196,0.0380102791596935,0.0514627493226473,0.999903894730173,-0.008594452129598865,-0.0073580272609535214,0.00801224880105478,0.8099999999999454,6.0,0.0022982906089987,-0.0001534979758641,0.9796696863222052,0.0024927503910802,-0.017838105387611,-0.0105750082054245,0.9989308962435781,-0.0055480059933104295,-0.0036073614468564693,0.04575227975622446,0.8099999999999454,7.0,-0.0067106735725204,0.0036531923745973,0.9804032951013972,0.0457228870337135,0.1005403642443641,0.0193960861790157,0.9979439068207439,-0.0020841292158122813,-0.004278069409175635,-0.06391645615091941,0.8109999999996944,8.0,-0.0007803852156,-0.0006129851775721,0.980014293389687,-0.0237072674051836,-0.0267510367846496,0.0255045953731747,0.9987648882726955,-0.005894400526130553,-0.012085806863357001,-0.04783186457299577
13,0.875,0.0,-0.0078701923745485,7.719250730626285e-05,0.9798954301930918,0.0066031406853276,0.0019385249535913,-0.013428019721562,0.9999664181261873,0.0022594664257696287,0.0073823857535536535,-0.0027491474932845464,0.875,1.0,-0.0035934617636049,-0.0036165600276292,0.9798775472099156,-0.0291485701504765,-0.0108992968476319,-0.0200957010528892,0.9999849420525886,-0.003661786091488336,0.001724889676360467,-0.003705637098522846,0.875,2.0,-0.0044398992887,-0.005741647335374,0.980483207801226,-0.0282981469092666,-0.0148255905802374,-0.0257589714950255,0.9999744744673935,-0.005129546779294511,0.004678749090011041,0.001687444947849461,0.875,3.0,0.0007459015037968,-0.0029056893971782,0.9797601750428896,-0.0113100995699888,-0.022958363606572,0.0150801501936652,0.9999849291506901,-0.0018961028924887188,-0.0016272587330659375,0.004888588173103674,0.875999999999749,4.0,-0.0002093354355437,-0.0031515697838641,0.9789096096098826,-0.0267128825462393,-0.0304312324344607,0.0074024587911189,0.9997969659475512,-0.0008016347272566082,-0.0024970044331966462,0.01997871949589379,0.9289999999996326,5.0,-0.0062151148124865,0.0017510685388092,0.9801848326243574,0.062452623047163,0.0599043890833197,0.0561272034760127,0.9999256938736688,-0.004570466724708538,-0.0032716654574559104,0.010817290340679067,0.9289999999996326,6.0,0.0027832785122714,0.0007207082277468,0.9796462289726704,-0.0071101726582311,-0.0221769604911692,0.0458460399664113,0.9988211378166701,-0.005262661340336727,-0.00449861278249228,0.04804582738659454,0.9289999999996326,7.0,-0.0173677894517233,0.0084879131213989,0.9801766755133506,0.091412311453857,0.1901615224815182,0.1493647937864002,0.9983794801289188,0.0037522292223335077,0.006179439612415605,-0.056445982668829664,0.9289999999996326,8.0,0.0003052950496638,-0.0035695689836937,0.9802969779470928,-0.1123611928213871,-0.0545043227442138,-0.0181274421022786,0.9986571008929116,-0.011217500673822918,-0.013347195978889845,-0.04878539611706262
14,0.9639999999999418,0.0,-0.0083484554672318,0.0012525132317706,0.97927102198621,-0.0243333001274544,-0.0240694752662043,-0.0160462057756429,0.9999760999289796,0.000872770959960855,0.005870800560532609,-0.003545637101776243,0.9639999999999418,1.0,-0.003215313115604,-0.0078933909950348,0.9786262596825042,-0.0781557909536379,-0.0265918111110646,-0.0063767997153814,0.9999629011221145,-0.0076113624637127895,0.0004006636566650098,-0.004012855532482631,0.9639999999999418,2.0,-0.0038744513580709,-0.0097429508526711,0.9796647709984044,-0.0780591161554247,-0.0282699569538138,-0.0325812945129579,0.99995487680135,-0.009022126433154361,0.0029730085963404623,8.25572948926096e-05,0.9639999999999418,3.0,0.0019116822095777,-0.0036415451876096,0.979444783854494,-0.0324160981038554,-0.0464746397881194,0.0057677316876187,0.9999728783674855,-0.003501773606388997,-0.0038936067614079133,0.005178796910769602,0.9649999999996908,4.0,0.0029920619216776,-0.0056243674720543,0.9797073104024469,-0.0484800611950114,-0.0527846855400286,-0.0200427031138611,0.9998013162813888,-0.003373686774477457,-0.005096207632120218,0.018973003645191198,0.974999999999909,5.0,-0.0128958702515055,0.0055326396472761,0.9799255514726564,0.076963644025088,0.1865896816612882,-0.0701446177794576,0.9999483811597414,-7.94989082428092e-05,0.0070869534865474725,0.007280369923016755,0.9739999999997052,6.0,0.0071419132713607,-0.0016849024831799,0.9801102765395568,-0.032722656841976,-0.0981989615518083,-0.1546948064428829,0.9991226419080048,-0.006168409179598955,-0.009448552736827476,0.040331402233757974,0.974999999999909,7.0,-0.0365372750467874,0.0199746301622455,0.979411068796977,0.1871622431985356,0.2669160610092904,0.4286282764243901,0.9990815677273125,0.014733552334991431,0.01985323282038049,-0.034997037156126364,0.974999999999909,8.0,0.0051307349925684,-0.0227714862182339,0.9802581981161128,-0.227565266168783,0.0189593003310951,-0.1779768060810373,0.9980154823929108,-0.02245784039357229,-0.010915180604212203,-0.05780658389214509
15,1.1059999999997672,0.0,-0.0017887578696365,-0.0027336300171833,0.9795556786687593,-0.0438151773001127,-0.078145266145654,0.1134356753539231,0.9999954566678969,-0.0015250442940058792,0.0014845252734307464,0.0021347290642951076,1.0090000000000146,1.0,0.0008986614256898,-0.0136023244277602,0.9802021062912508,-0.1090115255723268,-0.0760036997279742,-0.0047089418536261,0.9999004809644838,-0.013009421806370733,-0.003463459282229487,-0.004217530208349214,1.0090000000000146,2.0,-0.0012826274008889,-0.016226348352027,0.9801627724445104,-0.1207149850524604,-0.0503571908861441,0.0192754135768244,0.9998871859343108,-0.014979374455033438,0.0002373698891133614,0.001085081027538654,1.0090000000000146,3.0,0.0068862899167227,-0.0064970322841128,0.979129392666098,-0.0787579603931999,-0.1048806430474065,-0.0392165494469554,0.9999258133974817,-0.007384268757811979,-0.009136027513187985,0.0032207572984386743,1.0099999999997635,4.0,0.0084847441414654,-0.0094732818179513,0.979579637420282,-0.0939357458508867,-0.1043496524601425,-0.072509512721166,0.999795882263922,-0.008089775511367147,-0.010363427771217027,0.015341079007428562,1.0359999999996037,5.0,-0.0356532529448078,0.0118149616948115,0.9791293337627074,0.0432490707877982,0.3466613540300243,0.1154844804328137,0.9995857551930307,0.00259416858804883,0.025527125262156797,0.013036647589222499,1.0349999999998545,6.0,0.0142838265427215,-0.0033698049663598,0.9797176209060376,-0.0522777802913334,-0.1291410065027477,0.2446867752247014,0.9984614500838694,-0.008158813813476154,-0.01569091174420642,0.0525543693921738,1.0359999999996037,7.0,-0.0503721902894493,0.0229449207197689,0.9785321522865804,-0.0767413213744622,0.1784706854492938,-0.1311695381775033,0.9986498224630224,0.010870031182178247,0.029511257877888504,-0.041345618572433185,1.0359999999996037,8.0,0.0113700137056546,-0.035783679393514,0.9793897340065372,-0.2746912006408433,-0.2290711774695984,-0.0109570799595758,0.9974197728509635,-0.03642045444071822,-0.02094611558994764,-0.05821174680385658
16,1.1539999999999964,0.0,0.0016688198059617,0.0014860049500756,0.9800454105957253,-0.0664170844484282,-0.051466823241046,0.240221909303548,0.9998884746390949,-0.004593610218089638,-0.0012739664405580283,0.014153234209075419,1.1059999999997672,1.0,0.0051187632102623,-0.0233401083681907,0.9795968750483836,-0.2159390691069345,-0.0792479073520445,0.0923465625914789,0.9996926348735267,-0.02372600059503634,-0.007179143867924904,0.0004154139061391384,1.1059999999997672,2.0,0.0060270465165969,-0.0250711385276707,0.9795810904275424,-0.1808215951183407,-0.1910607692194737,0.0406021192953971,0.9996656065123947,-0.0237864017707459,-0.009606642255068507,0.0032549457122795617,1.1059999999997672,3.0,0.0107096543358782,-0.0137801226593321,0.9785476030952708,-0.1044685846488797,-0.0577059211970742,0.0766470384837411,0.9998283826166722,-0.012596175194943304,-0.011625016231186029,0.007028561887914383,1.1059999999997672,4.0,0.0138967733630256,-0.0196937227327286,0.980082158278082,-0.1380755515372461,-0.0685824144347061,0.0192519190753926,0.9996611277280641,-0.015132786196200558,-0.013570230510199567,0.016262759153823605,1.1089999999999236,5.0,-0.0507629921137652,0.0165621357881398,0.9787291833238614,-0.065858378081696,0.109470479529001,0.2307507126574661,0.9992147344373669,7.807404090879211e-05,0.03099903101674862,0.024677286393146786,1.1089999999999236,6.0,0.0198725272495364,-0.00990686060978,0.9795350615335702,-0.1162791830711784,-0.0708608832141618,0.0666357773520659,0.9981703771417701,-0.013463874737606022,-0.01895824772255226,0.05581404050054853,1.1099999999996726,7.0,-0.0528179593627426,0.0179073660168191,0.9772510370478484,-0.0389675552623475,0.0120960419736858,0.0196086367532223,0.9987004581572224,0.00891702159079139,0.029894821854270236,-0.040301131855131324,1.1099999999996726,8.0,0.0287531814228119,-0.0566177479368866,0.9777262833618732,-0.2914943387094903,-0.2101216762501233,0.0998856364720386,0.996848970205527,-0.05098954378924854,-0.02951613703315588,-0.053113036808155364
17,1.2339999999999236,0.0,0.0016688198059617,0.0014860049500756,0.9800454105957253,-0.1275797407724423,-0.1220265853465583,0.3255990280121972,0.9994564944566972,-0.010366635592775493,-0.0072499533585798125,0.030441529710499935,1.1539999999999964,1.0,0.0048232117737844,-0.0319216604494437,0.9784701038980884,-0.1905406485428829,-0.1183144662494374,0.3607576733109582,0.9992235242676433,-0.032625853640292204,-0.01203357883844051,0.018522829285283694,1.1539999999999964,2.0,0.0192003967724507,-0.0376989659960634,0.9795525165740776,-0.1688863918265979,-0.150818900475029,0.2009867332654994,0.999260946812917,-0.031835241796461286,-0.016873473302128905,0.013392664150031597,1.1549999999997451,3.0,0.0163072318110661,-0.0164597376253911,0.9801245590372496,-0.0120436171238105,-0.1133695903051916,0.4064826587529107,0.9994007801486652,-0.012965830507782739,-0.01670350191652368,0.02740366583520366,1.1549999999997451,4.0,0.019728926643367,-0.0222424943499682,0.9788616045685888,-0.0227265008992331,-0.1242513543003155,0.4208434641224861,0.998989896140778,-0.016055057194854845,-0.019122889738309445,0.0373595722026369,1.171,5.0,-0.9942074928974904,-1.276152020268332,0.694988836048134,-41.106291641975865,-35.184635649876206,28.17380443363989,0.13221487581265576,-0.26530957398292054,0.14142192866772868,0.9445262805548319,1.171,6.0,-0.7641229667732706,0.146059602142951,0.9845875706464398,14.190882689780905,9.87100876432436,51.43212744729519,0.24961503970086907,0.15270634608810782,-0.25565240601838674,0.9214200731026877,1.171,7.0,-0.2682178240837881,-0.3989506221007843,1.0043861806940373,1.6389112549467992,3.886293031799337,-2.0434931119157493,0.960512978469095,0.0745109400744182,0.229860764351615,-0.13793827247484833,1.171,8.0,0.135644431050492,-0.2173397241049661,0.97688537334273,-0.4700990746474465,-3.1992974936487664,-13.565030458480432,0.7917964537304415,-0.056195630401209076,-0.1907806323196021,-0.5774973396609204
18,1.3170000000000073,0.0,0.0101357241748533,-0.0046847042074827,0.979561800317846,-0.1635068515503815,-0.2174577739012846,0.4057664853457401,0.9983995689566251,-0.017529618519998253,-0.017796169464182447,0.05073765400736135,1.2349999999996726,1.0,0.0094847202271572,-0.0368165351367401,0.9790273657169845,-0.0768560732598012,-0.1333179626881818,0.6519925896601486,0.9979189024598423,-0.03532107627110816,-0.016915361521945824,0.05122651880595019,1.2349999999996726,2.0,0.0308449360726834,-0.0417823935535662,0.9782370988199164,0.0083779106985787,-0.266447003513284,0.4541507725069624,0.9984353342360378,-0.030540542397290194,-0.029385823598537558,0.03647782875236129,1.2349999999996726,3.0,0.0231161332605748,-0.0188498100379715,0.9791620545367408,-0.0874070479906677,-0.1643102840179119,0.271118127177644,0.9987198815172386,-0.0169634347699338,-0.02433207346446363,0.04097304411340569,1.2349999999996726,4.0,0.0295439073382684,-0.0251407879008652,0.9793774034165336,-0.1406516535521533,-0.1720644509388698,0.0369983892768299,0.9985991950840851,-0.02241107126166879,-0.02757640369704053,0.0392037424420129,1.23299999999972,5.0,-0.0542871467858059,0.0105533451255168,0.9780401487671748,-0.1358207966218291,0.024248669417034,-0.2037415615480336,0.14114095933061807,-0.24704595124458462,0.12029429293035535,0.951092430135619,1.23299999999972,6.0,0.0266214451019866,-0.0205099012905891,0.9797013027498392,-0.1879080268855253,-0.043809109069202,0.1518830636158216,0.24569291351663233,0.13735809834687646,-0.24378194316954252,0.9280830292871001,1.23299999999972,7.0,-0.0505120305330718,0.0087694903323716,0.9783381985850989,-0.1633848397675666,-0.0297310918452095,0.0383745541300851,0.9665061420826754,0.06049740209137747,0.20976364213948895,-0.13492648403124513,1.23299999999972,8.0,0.0420874914009507,-0.0755529886640041,0.9760975304607176,-0.2401187800968444,-0.1832352989903807,-0.0242923469507082,0.7921261190433567,-0.06966431753662604,-0.17231373259945904,-0.5813699957420473
19,1.3399999999996908,0.0,0.0259175034081086,-0.0163773938473872,0.9790965549872284,-0.2156602256450633,-0.2827411457128951,0.6180008885539414,0.9958151861594938,-0.027107389231403226,-0.031157868995075087,0.08152601831854357,1.3170000000000073,1.0,0.0237918181581433,-0.0327800549115929,0.979144737711807,0.1296107991013078,-0.2739955139614463,0.9354997467699212,0.9943867948039777,-0.027007770245005377,-0.02853057609684232,0.09824199149776768,1.3170000000000073,2.0,0.0340117545479161,-0.0400623180641926,0.9781248443955894,0.1107362852597683,-0.0412447699697422,0.9667395933771936,0.9956609005840286,-0.025265394364522287,-0.028856525104860455,0.08478403065836657,1.3170000000000073,3.0,0.0378687110146246,-0.0305546680666209,0.9785639340305924,-0.2803134018485093,-0.3322689665519176,0.3721846339344,0.9969452122642147,-0.030485186151127813,-0.04045512693711849,0.059449809699381934,1.3179999999997565,4.0,0.0443042169445539,-0.0349711785803714,0.9786726485549851,-0.1308882147846105,-0.2547099585422377,-0.0562118030879508,0.9981380347171573,-0.02781810249248096,-0.04019173506945679,0.03648617898321835,1.2899999999999636,5.0,-0.0597450776284986,5.170815437449961e-05,0.9770775419716856,-0.1632940211113954,0.1101235772526964,-0.2459794490566572,0.15141018459221134,-0.23486392615446602,0.09942249885018581,0.955002125084257,1.2899999999999636,6.0,0.0256168128724382,-0.0348267746857481,0.9795676978459664,-0.1554374081280294,0.0097103061560485,0.1243412985702473,0.24286248563521087,0.12144335433808373,-0.23095880656806514,0.9343058141887252,1.2899999999999636,7.0,-0.0475500039478472,-0.0045301589495234,0.9789261845432738,-0.2354184762822638,-0.1937385914565477,-0.2448334965824496,0.9712371762532629,0.039436455105664577,0.18443806321180964,-0.14534687582113182,1.2899999999999636,8.0,0.054094761672901,-0.0878438545799731,0.974770852032458,-0.1813548541757495,-0.2231842215712194,-0.1961022889219808,0.7868696306173399,-0.07997258712482765,-0.15959373670078822,-0.5907371741532542
20,1.4149999999999636,0.0,0.0400689900441528,-0.0262460340876152,0.9785088766748689,-0.1344147812388549,-0.32935907582827,0.7318869068671771,0.991440674042597,-0.03201336380512421,-0.04587344321720007,0.1179667817618171,1.3399999999996908,1.0,0.0355376139980817,-0.0251029393710958,0.978831405516933,0.1816049408613111,-0.1018440213208802,0.9168337399601644,0.988967995472113,-0.017210999642123692,-0.030937639260595205,0.14383653186924045,1.3399999999996908,2.0,0.0204734775859181,-0.0336773941500629,0.9790983964029356,0.0146287292483997,0.5682278560948195,0.2666341375392958,0.9949091430742848,-0.026414810018214975,0.0015360775575707615,0.09724039954993376,1.3399999999996908,3.0,0.0705306489204624,-0.0459329694221411,0.9766389250295748,-0.0910344633204274,-0.6344092882511335,1.1126933676770492,0.9902877728272106,-0.0343818547553647,-0.06983465991859118,0.11520041374300227,1.3409999999998945,4.0,0.0761175742073847,-0.0546395468672813,0.9743062325649576,-0.2918671768515584,-0.7293359769256883,1.1257709243765144,0.9919784911420141,-0.043030927433462145,-0.07435786181105605,0.09272497388900798,1.349999999999909,5.0,-0.0817773413298656,-0.0246714996655011,0.9759189431245168,-0.3311490690053796,0.4608937586218976,-1.186216959820969,0.2035806159535667,-0.24872765697146312,0.06257719624898402,0.9448669641674793,1.349999999999909,6.0,0.0475275405897934,-0.0390072759316771,0.9783662735958734,-0.1708139752048189,-0.4610560257007372,-4.486629640208217,0.45778897381084316,0.18803812892488017,-0.18869701162863375,0.8482124470497168,1.350999999999658,7.0,-0.0324028931940776,-0.0158239967019419,0.9788067498955196,-0.1139156255990238,-0.2119321923022482,0.0578096583943911,0.9766228037973308,0.02847487548790122,0.15850971267826156,-0.1423789013711082,1.350999999999658,8.0,0.0734307939349155,-0.0981874228814867,0.9727389929934857,-0.0922118948981377,-0.3160034245213126,0.0040207604890918,0.7867962266550393,-0.09135603479896155,-0.1537613867092561,-0.5907310797515646
21,1.5349999999998545,0.0,0.0537036863787628,-0.0382494079531309,0.9775018654000444,-0.1948956703244373,-0.2159417412800028,0.7051916660370456,0.9859597412485858,-0.040369624011627636,-0.05459067412348579,0.15255667927994696,1.4149999999999636,1.0,0.0304188507878193,-0.0017628310029051,0.9790253244649004,0.5642762887393518,0.2900793043996525,-0.0186419588751913,0.9895670400025781,0.010517217224956622,-0.010957087400433904,0.14327038674505743,1.4149999999999636,2.0,-0.0287485851352567,-0.0284851430021902,0.979577008448476,0.2323085239691042,1.0950630237005177,0.0549023880085021,0.993289593472058,-0.019096249820724588,0.05826099475855087,0.09806514789996568,1.4149999999999636,3.0,0.1106864697453491,-0.0511477562336826,0.9723591992918932,0.0497082341829628,-0.913099255180588,1.4530686326806377,0.9755782909826495,-0.030186934397591045,-0.11060813077432256,0.18735417946141134,1.4159999999997126,4.0,0.1321449157728447,-0.0814882058415895,0.96708913422916,-0.4235465006771209,-1.305849929884453,1.5367222791485378,0.9745084042241717,-0.06236444161324675,-0.13449149401383417,0.1683926499484258,1.4409999999998035,5.0,-0.1714863907949007,-0.0266856034031488,0.9632213122347058,0.462690692929912,2.096513488028129,-2.7733973897343667,0.3384947962030081,-0.3369303727690728,0.06616262458980016,0.8760831604114799,1.4409999999998035,6.0,0.0412284182615285,-0.0148961081642154,0.9793525021611028,0.638777989069492,1.0279566023125897,-2.5157346251039154,0.5733935647401441,0.1716229059554588,-0.09240482576908113,0.7957554563058802,1.4409999999998035,7.0,-0.0281040832702886,-0.0251218950066979,0.9798408293671016,-0.3471347354815506,-0.0081852762229938,-0.3492075873928646,0.9766232599138029,0.004858062776198171,0.14667966469940502,-0.15706203674048472,1.4409999999998035,8.0,0.095424708621021,-0.10390366620944,0.9699835839501773,-0.1793777977228666,-0.378733931132408,0.2272531192337669,0.7922797103010252,-0.1095853580459025,-0.14784551049465952,-0.5817435989968853
22,1.538000000000011,0.0,0.0647944475769683,-0.0514505746024378,0.9761887716708662,-0.1749277250534654,-0.2418204701276728,0.6325208430428042,0.9797871148239602,-0.04687104046090655,-0.06448521482166718,0.1834719931228067,1.5349999999998545,1.0,-0.0061868099000299,0.0318515430831162,0.979340697911858,0.2536335894294862,0.7763487595474479,-0.092401427508858,0.9896644336213712,0.018064888812425392,0.03100830990162096,0.13883966772551073,1.5349999999998545,2.0,-0.1006276169379179,-0.0057385450209235,0.9751052003811892,0.247766913499542,0.9300833049022328,0.3993826793907827,0.9876719446653454,-0.00912502091626202,0.10477737408354391,0.11594207861863505,1.5349999999998545,3.0,0.1678608083233339,-0.0757901717752036,0.962168695651299,-0.3086153193302578,-0.9277300126066428,2.0785535439796776,0.9456984247167411,-0.04662035508714722,-0.15009760989208842,0.28452019169912196,1.5359999999996037,4.0,0.2104040943478882,-0.1392986846658641,0.9464142821893616,-0.6464572244206062,-1.3388730163397449,0.9161980016478162,0.9532884113858859,-0.08691824328158226,-0.19784335534786782,0.21105551508291517,1.4779999999996107,5.0,-0.271904107915542,-0.0869076421203542,0.9367338030837437,-1.1541876387123318,0.2062042814825297,-1.1203245297837052,0.370912503117444,-0.35345743371353877,-0.006401424639440705,0.8587495440152367,1.4779999999996107,6.0,-0.0399506471939844,0.0186776754355314,0.978480500689261,1.048444189083147,1.7404981981834349,1.4899894457747374,0.5178236174844787,0.10559945058781414,-0.00415097536495703,0.8489347599282053,1.4789999999998145,7.0,0.0021775752353949,-0.0722330009034142,0.9777042762239414,-0.6223441082252602,-0.2954180293045066,-0.8591374383574961,0.9726003787374174,-0.03810048659619027,0.12147598731069262,-0.1945261954284247,1.4789999999998145,8.0,0.1256107665650698,-0.1121416024708145,0.965991302402984,-0.1648534075917559,-0.6118661217247902,-0.6615754036557665,0.7698276377016737,-0.12626781320867922,-0.15831448845691518,-0.6052754499587638
23,1.6169999999997344,0.0,0.087369954935731,-0.0621174403678276,0.9740523161394762,-0.0401841430009651,-0.3268122890757013,0.1736726521109209,0.9771269112765099,-0.044014999080831084,-0.07895688826491958,0.19248763313694447,1.538000000000011,1.0,-0.04847029062572,0.0398154535794267,0.9777025931145538,0.277421663669016,0.7044852709671717,-0.0105928479768387,0.9877450613036997,0.026713467624109297,0.0673520892488365,0.13823813002013177,1.538000000000011,2.0,-0.1788977511834909,0.0015668594879949,0.9635113593377272,0.0064682484999553,1.5008974007470786,-0.2376237691485843,0.9787762237410269,-0.01877751375271833,0.17641909438999948,0.10257100931127741,1.538000000000011,3.0,0.2074278688770391,-0.1400918788730409,0.9477209213090904,-0.6159482113519502,-0.9158660375229812,2.156675427280474,0.9029767685078229,-0.07658950563576275,-0.18861698298395704,0.3784053869749592,1.538000000000011,4.0,0.2815328903410126,-0.1984042083029506,0.9164938634731356,-0.595232684702284,-1.3596688245170394,1.5760331234630172,0.9179994255280494,-0.11346097327134458,-0.25366000508413666,0.2829492252952931,1.5509999999999309,5.0,-0.3196046491057642,-0.0389607720026967,0.9251253571894648,1.0722301839211978,0.6647490499684336,-0.6877760008443606,0.4217007190967881,-0.34130778249949323,0.04610576959722873,0.8387799229406828,1.5509999999999309,6.0,-0.108534842564143,0.0428279952295452,0.972079703920514,-0.9068286438243456,0.249124382852103,-0.7221043665410813,0.5550963383178122,0.05612761419948317,-0.02812490780177531,0.8294134889616713,1.55199999999968,7.0,0.1378064697874753,-0.1395721311550478,0.9601473830040635,-1.3048912246167654,-1.5006328657766763,-1.6829681418114468,0.9559521859637006,-0.1293304817511387,0.03336229153114056,-0.2613733003675627,1.5529999999998836,8.0,0.1778889699868442,-0.1069037447651962,0.957956733737071,-0.0734042319786562,-0.54867320919573,-0.6618051715759813,0.7473243209603618,-0.13765012478303718,-0.16962907904402466,-0.6275227310552378
24,1.668999999999869,0.0,0.096707618197643,-0.0598938237095217,0.9726871883930576,0.0900043801840523,-0.1050023398115732,-0.0029990811074494,0.9772176259947428,-0.03624944469388147,-0.08077631047082381,0.19289084185441663,1.6169999999997344,1.0,-0.0860343796574243,0.0792224315374985,0.9723147082391834,0.6755699705567723,0.5412700708181087,-0.0298222889868233,0.9844652351788404,0.05683134161105109,0.09687692928306917,0.13495651117171742,1.6169999999997344,2.0,-0.2487221176888522,0.0476286692413404,0.946662990740988,0.917509996998914,0.92095547795168,1.7010875751082772,0.9595271024375419,0.03842921754146039,0.2166987222868621,0.17570600071200637,1.6169999999997344,3.0,0.2357997744803686,-0.1990343560387601,0.9301192350829238,-0.5458694203811509,-0.8403322215277924,1.9074444674851043,0.8555578598984189,-0.09918126923253395,-0.2214030262034118,0.45734508217256753,1.6169999999997344,4.0,0.3185223511546267,-0.2670286247337804,0.8875202675926417,-0.3103531226332,-1.2828812310016864,2.7967965347977763,0.8563820701542411,-0.14061160084658578,-0.2866012445620439,0.40582983409451884,1.6349999999997635,5.0,-0.3602695865912429,0.001666606775187,0.910885309684612,0.8963420680006047,0.9424109831136284,0.7229111117694992,0.40560830069412557,-0.34506014506053667,0.11914165339488562,0.8379860793146615,1.6349999999997635,6.0,-0.1868046753907715,-0.0055660215747456,0.9607283865151368,-0.5153042516568919,0.6967804468394253,2.575444109398006,0.4534399605665968,-0.0014096762762672353,-0.027565339791439384,0.8908593418808279,1.6349999999997635,7.0,0.1863194438221897,-0.1920882393950834,0.9428977532796898,-0.6614986382493068,-0.4105755276781687,-2.0214304335790234,0.9214373560639857,-0.16725468990204206,-0.0035658889506731475,-0.35066558427021993,1.6349999999997635,8.0,0.2265370989427094,-0.1072608632747095,0.947796418020339,-0.2255901999373398,-0.6269166584373096,-1.1809075438052323,0.7057563512120792,-0.1530072273601855,-0.18281398871782273,-0.6671400202569477
25,1.7779999999997926,0.0,0.0946005516697632,-0.0507286325924853,0.9739360048068216,0.2090354422567718,-0.0229730467107398,-0.1876989922529217,0.9795147406399786,-0.023011287137813734,-0.07725885535280795,0.18453298567689896,1.668999999999869,1.0,-0.1083927093324525,0.1090635652929573,0.9674555076535352,0.3990891811967206,0.1617797653266418,0.2195955848799594,0.9812265298606313,0.07546859974849013,0.10324661833509595,0.14435762311714867,1.668999999999869,2.0,-0.2740910611181965,0.1253327829812824,0.9316800865776128,0.7157963475661936,0.3826940264471709,1.1542159754991506,0.9437908862899778,0.08124643272359232,0.22960351242061736,0.2234726095291872,1.668999999999869,3.0,0.2522624688281996,-0.2548442720906255,0.9119194283506084,-0.3820389045880196,-0.4348621731130769,1.196772882964411,0.8224383917238068,-0.11402346704879456,-0.23680368861495615,0.5044975260982768,1.668999999999869,4.0,0.3338776477742559,-0.3216943005119835,0.8620275478978823,-0.3195870017696774,-0.7843299524558329,1.433898962334151,0.8155520017738926,-0.1524527122512572,-0.30847599482905114,0.46526945262294955,1.6849999999999454,5.0,-0.3819366181850634,0.0718001506199631,0.8991880548919161,0.149344724896943,-0.0168881380504848,0.9837857783309164,0.3681114286272912,-0.3191548243450117,0.14136151553435258,0.8617720673920166,1.6849999999999454,6.0,-0.2356646001449457,-0.0130710011564959,0.9497564662413672,-0.407061831735181,0.7484759521398054,1.204287466781625,0.40145097459585277,-0.05566571790399942,-0.02053070731904633,0.9139567456413088,1.6849999999999454,7.0,0.2198907891436393,-0.1843621365173948,0.936631007103934,0.1796342670823088,-0.0899771016486088,-0.4220892729252053,0.9153759977642952,-0.15686383213230065,-0.02078479226680096,-0.37020063924339236,1.6859999999996944,8.0,0.3015646392898371,-0.0975315473043334,0.9276666241761709,-0.0764524718027714,-1.1965081030504527,-1.1578014405356332,0.6580920701443332,-0.18363575567836465,-0.2205277323437937,-0.6961036242664492
26,1.8049999999998363,0.0,0.0872442823212411,-0.0336683474848471,0.9748481305207962,0.2765887627963099,0.2926149832370714,-0.1731400400937981,0.9825536491033237,-0.010009464695350368,-0.05736846392972154,0.17662671541021072,1.7789999999999964,1.0,-0.1064383582024498,0.1115479687491297,0.9675463433712672,-0.2600290255556716,-0.0509361453765845,-0.4289406931181537,0.9858663462846479,0.05808524514500443,0.09597266433150832,0.12443029880585754,1.7839999999996508,2.0,-0.2703990731131974,0.1319542820568221,0.932404637861906,-0.1986307308001136,-0.2955084435166457,-0.3208919456866373,0.9534864677349264,0.06671864677975312,0.20652948041668706,0.2091835360086093,1.7839999999996508,3.0,0.2514945581652637,-0.2736800190213568,0.905467688215172,0.1130925949645584,-0.0327704323234218,-0.1275226824574059,0.8279771275521975,-0.10107464909544359,-0.23089445986280274,0.5009246849231025,1.7839999999996508,4.0,0.3498368256944063,-0.3495619520407764,0.8457272829189699,-0.1460535415281423,-0.1898450333863492,0.2107583857259517,0.8100921207307131,-0.14945031083752391,-0.3124282756794966,0.47307920380896007,1.734,5.0,-0.3044593565376939,0.2290917312175863,0.9192537619745604,3.2673537648641564,1.74891170329798,-1.8552717184501493,0.49196383939230126,-0.31024538002546137,0.29977118885487924,0.7562120200286262,1.734,6.0,-0.1902359706555055,0.0016066282591212,0.9439421032109936,-2.018694586217069,-1.6416305981285095,-7.166278227522247,0.7330902807805457,-0.04907659239366471,-0.18440613912683512,0.6528127634754555,1.734,7.0,0.298684867160559,-0.137837417386647,0.9287605700596137,0.2593129804552496,-1.1668539688427475,1.3571974176495707,0.9377698507386778,-0.16388036548715668,-0.07854757005743257,-0.29590743838475353,1.735,8.0,0.3737577251259967,-0.0685102093511219,0.904408930806914,0.2429604761364565,-1.5369007113544524,0.4473791581888716,0.6621301893188634,-0.2322097827381432,-0.2636995103989882,-0.6619099617082405
27,1.8979999999996835,0.0,0.077148574517153,-0.0195077679347168,0.9772049654193212,0.2371094821968984,0.1259456880185835,-0.3115523877130743,0.9856832976004413,0.0021794126784866023,-0.04733236594481032,0.161812651316154,1.8049999999998363,1.0,-0.0936156497899231,0.0848054673110131,0.971719683256736,-0.2802720826307854,-0.5010224241602043,-0.4011485842072062,0.9914092925754703,0.04322835967013066,0.06588596812346822,0.1043933078299041,1.8049999999998363,2.0,-0.2142360753472002,0.1046627703490648,0.9494601668962672,-0.425397175104259,-1.4377441737825984,-0.3125809798172044,0.9720837473390188,0.053801638993046276,0.12367230958883409,0.1919993011496567,1.8049999999998363,3.0,0.2526269687221085,-0.2268260422844366,0.9176505659649852,1.080140781020071,0.4443855182860157,-1.0181556189466556,0.8654183084252067,-0.046704709395611436,-0.1809184237380548,0.464906813796983,1.8049999999998363,4.0,0.3475476103268139,-0.3335854675674863,0.8530424341050701,0.5830719780994799,0.3502080079333438,-0.0578299155129235,0.8248915573818835,-0.12418597427839922,-0.27793057228770873,0.47632589614720966,1.7829999999999018,5.0,-0.34680708388235,0.0637684364174895,0.914367230977734,-0.3512748692670485,-0.6617498697920898,0.2174658996862332,0.49440297631029173,-0.2746661823968635,0.25740505684335063,0.7834965360322467,1.7829999999999018,6.0,-0.2032567258798521,0.0263517667630342,0.9574749541231192,0.5101698843321459,-1.294772432736291,2.517467844900516,0.6424729961938788,-0.016408840325355372,-0.18370858426016706,0.743781120485027,1.7829999999999018,7.0,0.2262343630449561,-0.1684351439189932,0.9383888401247272,0.3071287259188595,0.0491028847680085,0.4533737599131716,0.9473756085410052,-0.14575352116676188,-0.07801657936477155,-0.2741327794213435,1.7839999999996508,8.0,0.3994025009046512,-0.0809952917136879,0.8911247976525649,0.1571536293043361,-1.6687701371305352,0.0052474361995719,0.6471467353868986,-0.2769959801737033,-0.3091373065649666,-0.6394595026547395
28,1.9409999999998035,0.0,0.0718579772123522,-7.436931882309414e-05,0.9777987653807676,0.1870275595272163,-0.0105953120541988,-0.3588586985979998,0.9884055846449986,0.012729911307454671,-0.04498888122209081,0.14445881823920473,1.8979999999996835,1.0,-0.0362757560425138,0.0697043357753786,0.9767289158705488,-0.3925986487640844,-1.185720448190389,0.4004260773731488,0.9920302048388298,0.03016649840541783,-8.955238516036356e-05,0.12233579624033016,1.8979999999996835,2.0,-0.1044597192882653,0.0511662007444317,0.9728325585359472,-0.8834462752124203,-1.843429010169909,-1.0965653511663298,0.9905066582221539,0.016601580195833847,0.017331491439954886,0.13535348889869553,1.8989999999998872,3.0,0.2227444273800405,-0.1196458128661565,0.9471197387525688,1.3424005844747946,0.7416608736836071,-1.2509145983085177,0.9032190985789939,0.012947455049492409,-0.10982570141805163,0.41468776046312766,1.8989999999998872,4.0,0.3144044122446959,-0.2821651030201181,0.8847043122980207,1.5209022755411803,0.7011099185148125,0.3494154858380621,0.8368995309145307,-0.07419666400806109,-0.20430150981323536,0.5023494035958892,1.8289999999997235,5.0,-0.2596232010401811,0.0400126886879214,0.9441100456120636,-0.3832847017057097,-1.453527069192562,1.0319578791598982,0.47358255549349004,-0.19797475678699647,0.20375963251457874,0.8336711407772904,1.8289999999997235,6.0,-0.0977225724728711,0.0483331220605662,0.9744856120749874,-0.2798714945695846,-1.32952306401284,-0.1864472435936822,0.6394811348420517,0.025177099635855203,-0.21417795510102328,0.7379415934772832,1.8299999999999272,7.0,0.0881407488201104,-0.1112737886260953,0.9694489942035244,2.5005139063600144,3.8069153600305614,2.6283168413591502,0.9863902489445243,0.030659919964951696,0.08019165400543193,-0.14022676179237406,1.8299999999999272,8.0,0.4695585237528532,-0.1097391218087046,0.8516795864148061,0.2389512915036006,-1.4555987928055067,2.411486102864896,0.7112496798325568,-0.3462655013509492,-0.3090855769261822,-0.5279111683308761
29,1.9989999999997965,0.0,0.0882292447271206,0.0056703213482131,0.9760724603382116,0.0752611062106293,-0.2472525319384596,-0.3136897805721597,0.9898833213380837,0.018608812952447786,-0.05629994234481377,0.12889933556522226,1.9409999999998035,1.0,0.0038531261828723,0.0279667421667869,0.979669339497361,-0.8531874493723787,-0.348883391234405,-1.218430287848667,0.9978305180214616,-0.011942029909488778,-0.02343618446346034,0.06035222021149595,1.9409999999998035,2.0,-0.0077117516698859,-0.0084420075419808,0.9804281010838292,-0.4678952522061316,-0.9617942138770164,-0.322648287773099,0.9923540285317574,-0.002565148673554024,-0.035024297505502816,0.1183224435739922,1.9420000000000075,3.0,0.1790405865079927,-0.0646647270096744,0.961681829642028,-0.0977992409855991,1.060449715854494,-2.410133004798932,0.953054624846853,-0.0009584065152798721,-0.0593910373259491,0.2969152542398644,1.9420000000000075,4.0,0.2478446290185968,-0.1605618051644501,0.9345784860507796,1.7130512562174312,1.911547666923235,-1.6304460533020533,0.9003460860800139,-0.020608973022360855,-0.07069390301743968,0.42889925109228727,1.9039999999999964,5.0,-0.1607042226632463,0.0058398972489312,0.9669410780488764,-0.744637629540848,-1.495240643702711,1.3672056557232233,0.429587432158841,-0.12572305555461613,0.13558190383877403,0.8838924701481723,1.9039999999999964,6.0,-0.0119605104522608,0.0443101731641975,0.9777543427384408,0.3818171353738918,-1.4992873058879213,0.381732893530241,0.6125613894036015,0.0863141175495865,-0.22586016831724648,0.7525327911069859,1.9039999999999964,7.0,-0.2633678450678997,0.0568581488004907,0.9427027787692536,1.3328181733880105,4.628003375329842,2.50993775223637,0.9513559505868662,0.13590630908262585,0.2764830517306339,-0.002907325267909784,1.9039999999999964,8.0,0.4308645155963316,-0.223825384213819,0.8506315104564811,-2.291777093608833,-2.7563469177409106,-2.0803575786220283,0.5846696221536481,-0.44362977405129256,-0.3603182455019729,-0.5757819191884106
30,2.074999999999818,0.0,0.1000294322705137,0.0111541600729547,0.9741533233494128,-0.0040325098696774,-0.1383247046476486,-0.3934042238730846,0.9918733956830541,0.019768652908062904,-0.06215144502268986,0.10924085856473216,2.0,1.0,0.0448482739193722,-0.0102945261468304,0.9789814375450976,-0.9913831440370604,-0.2705578864674913,-1.1828261628608985,0.9973589266747367,-0.058340078559624496,-0.04326169999367326,-0.00017868836364495132,2.0,2.0,0.0608570554339861,-0.0214804552114021,0.9779146224736676,-0.3946081289189753,-1.0600791524161604,-0.2757984281157807,0.9904449551188912,-0.01582245342034525,-0.08972510499509327,0.10352703212648429,2.0,3.0,0.1137513262580819,-0.0338459225912241,0.9718560023473004,0.1879616898499534,1.4600639843002146,-3.7875707259237767,0.9945737514651268,-0.0016485340511074034,0.016617525068966032,0.10268492144735154,2.0,4.0,0.1025224249313228,-0.0481185766940213,0.9737955406362996,1.6745750909082922,2.244720428554081,-0.6300769700772342,0.9171369082657788,0.012870236621853095,0.0700917937695045,0.39214970222117934,2.010999999999968,5.0,-0.0929874631796605,0.0078141914023252,0.9749124422757868,0.1883618165303962,-0.8113941072662302,4.450532426417974,0.24569152587814302,-0.048936155643574654,0.13902425515563227,0.958077858663334,2.010999999999968,6.0,0.1032347184193445,0.0854618537803251,0.9710761373143248,0.2384886221125284,-1.3183950859284532,0.9976597916833356,0.5639408761128454,0.12919589302909273,-0.23990564792494684,0.7795667960907539,2.010999999999968,7.0,-0.4227303364796976,0.1190230069644013,0.876045995614907,0.4176936166786822,2.577293464416328,0.9678395078339838,0.9097264554868477,0.16106561783705545,0.37895773697361673,0.05335425499376198,2.010999999999968,8.0,0.4090303852214271,-0.3509024539962563,0.8187616330440844,0.1943013188072799,0.7794925843383887,1.7151327418219533,0.6705980134110058,-0.4333145582405098,-0.273580838908306,-0.5363677121231964
31,2.1349999999997635,0.0,0.1073443071348774,0.0056321795906085,0.9741716882966742,-0.2164446159578552,-0.0977445958510302,-0.3902368651473869,0.9937076927075463,0.009666101103961698,-0.06718656962011803,0.0890929447598056,2.076000000000022,1.0,0.0587815483749472,-0.0734458711007787,0.9752704412566248,-1.124821234583032,-0.1316026347860373,-1.3438074901637074,0.9900901934136456,-0.10883920345599588,-0.05559961595548695,-0.06916732901303033,2.076000000000022,2.0,0.1616910978140847,-0.0766963835596304,0.9631939854653112,-1.1330510142484782,-1.175488361934333,-2.1992304333371275,0.9856333855674054,-0.057157956573348316,-0.15851687608413534,-0.011497706372151095,2.076000000000022,3.0,-0.0020557837565454,-0.026339545241177,0.9796897478843156,0.4154272453889307,1.9548499660161176,-0.2446569634766465,0.9895214359504555,0.007545511178032889,0.11378607558483098,0.08856140275884207,2.076000000000022,4.0,0.0212476386131698,0.0732679048047005,0.9767504041355156,1.9766589491499875,1.026985691696097,0.9434982340164402,0.8905617578013763,0.0866432844653698,0.14372127082858205,0.42277286231520705,2.0409999999997126,5.0,-0.0279094144868868,0.0665382868129831,0.9760649163713406,0.653469315727094,-0.4363953168784398,4.741116642530539,0.02416638980708907,0.012284271476593426,0.16277394526307712,0.9862908926992452,2.0409999999997126,6.0,0.2072041459667495,0.04456159585378,0.956950733355252,-1.0482438470892714,-1.615005955676539,1.0034968815025933,0.5173230924020804,0.14988296333091383,-0.3124410318053783,0.7824912248805626,2.0409999999997126,7.0,-0.5191567443419578,0.0974653196909033,0.8248677386477233,-0.2102212586688197,0.6592279704410254,0.9245652442812218,0.9013811894039631,0.15591964092502555,0.39095213587670036,0.10177153047858711,2.0409999999997126,8.0,0.2094492381626291,-0.2779320853334151,0.9157755033714942,1.7645159058630444,3.449426288828952,2.101085138630737,0.8228453109655264,-0.27297739483807737,-0.12122928192226694,-0.4834381008299556
32,2.211999999999989,0.0,0.1095713117264318,-0.00228538645932,0.9735778883352276,-0.3212106010773388,-0.0659621534717838,-0.2152281421690396,0.9944747541815692,-0.0058724841035378466,-0.07081530872253218,0.07727010596921428,2.1349999999997635,1.0,0.09148548900806,-0.1094090127694851,0.9690170654976946,-0.4572238106073531,-0.4517069446447725,-1.9047490774404885,0.9755841036175795,-0.1220240155369636,-0.08615836100336413,-0.1610047615138528,2.1349999999997635,2.0,0.2310626746278089,-0.1037534714184898,0.94668646212062,-0.7748715196576123,-0.7238272576908671,-2.071335209152611,0.9704466394650403,-0.0782211303543653,-0.19626582984409746,-0.11659544910803073,2.135999999999968,3.0,-0.1135911623430606,0.0162060796389543,0.972291834183692,0.6633415279118747,1.5043800455810696,0.3530946658898957,0.9770214061771426,0.034855616689979114,0.18384845711065817,0.10204902094008808,2.135999999999968,4.0,-0.0276221880730617,0.204980448560476,0.9581346619520672,1.6951723863408938,0.8216179257280509,-0.3205803908519417,0.8825100489389149,0.14182783058999013,0.20915939689622304,0.3966273145939136,2.178999999999633,5.0,-0.0072020339673405,0.140789224934913,0.9700647013725217,0.8162170787647122,-0.5093175934805653,2.6357741673892696,-0.10297246039636236,0.05495022865459448,0.19112609006185946,0.9746014377520655,2.177999999999884,6.0,0.2115979731049263,0.0295220642598116,0.9562388537911052,1.8395526269929003,2.6752650893753067,-1.4013344610631933,0.6099320345418393,0.12061338185511535,-0.12576205095140688,0.7730583625429716,2.178999999999633,7.0,-0.4183282989653438,0.1237733730948535,0.8762828232925053,-0.3500198466358086,-3.3665851727479392,1.854550617287096,0.9526315262409849,0.17789215534574726,0.18955941549792862,0.1578441771947882,2.178999999999633,8.0,-0.0806891259136957,-0.1097272885038751,0.9699315373349146,3.52736027159855,4.373513833045056,0.487951541917465,0.8953301734614245,0.014375958269977073,0.011897174302029453,-0.4450119881047957
33,2.300999999999931,0.0,0.1023021877836489,-0.0169842485844146,0.9738992749122992,-0.2881173734134833,0.2338655299397389,0.0618807552692211,0.9949178484485821,-0.021199628236831827,-0.05841599636871123,0.07922513470682814,2.211999999999989,1.0,0.1306038579150929,-0.1210460475867545,0.96307293942947,-0.3527159378310941,-0.3002191174353049,-1.7060830334778716,0.955898018490543,-0.12867245887243098,-0.10542159959641939,-0.2420509510663159,2.211999999999989,2.0,0.2545691110528249,-0.1120777877719336,0.9388664107240836,-0.5518014097845764,-0.1272882648755876,-1.6195456400773725,0.9557165860392328,-0.08866565781270647,-0.1985551201466762,-0.19829289588306592,2.211999999999989,3.0,-0.1828414099112609,0.0427379519744845,0.9619737451108992,-0.1038555080206057,0.8301278114419655,-0.1558518522885691,0.9715570884914825,0.021897799059494502,0.21503744964813587,0.09672748031003854,2.212999999999738,4.0,-0.1072465910739911,0.3055006722586778,0.9248835104771324,1.5218047030982096,0.9010499378061754,-2.0535627541374675,0.8979641635523644,0.16786016033591342,0.28598049567656253,0.2893069021649701,2.1989999999996144,5.0,0.1249417924381493,0.1068706871124073,0.965876392059804,-0.8483947514096315,-1.6884269634897071,3.3670252112993744,-0.25401236122979814,0.18537404357501058,0.12936637611559165,0.9404140178888403,2.1989999999996144,6.0,0.2043043854447384,-0.0144114284246291,0.9586162051722312,-0.6476167837127359,-0.6447381872208189,3.2219500458214245,0.4885258101306659,0.10559753705300678,-0.1796839478978768,0.8472929669673579,2.1989999999996144,7.0,-0.2438094987617796,0.1259607539401671,0.9411858566618786,-0.3530489474249847,0.5569454404779786,2.2822388963690607,0.929970020904392,0.1648422423714092,0.18738466878104296,0.26994403356042,2.1989999999996144,8.0,-0.2827195281548153,0.044652078070134,0.9373013711309384,-1.2636902929775673,0.8014480283375123,-3.0720683391384007,0.821612793231305,-0.014812172698285352,0.08020998144526331,-0.5641802694309325
34,2.3449999999998,0.0,0.0732970118792028,-0.0394628704351999,0.9762255015653888,-0.3405630790513031,0.5997658153514648,0.2770309020977392,0.9946134835002307,-0.040895514580434306,-0.02738095714236142,0.09122422108577183,2.300999999999931,1.0,0.1446783125612017,-0.1312201972949817,0.9605438280975572,-0.3894327554164374,0.0762519525408022,-0.8851944959172796,0.9432531213153501,-0.13687459933439083,-0.09818733436781639,-0.2861785116944352,2.30199999999968,2.0,0.2714417393263217,-0.1202021468376913,0.9340384499832496,-0.4751702717455099,-0.0356881611741975,-1.2134583683368605,0.940940312939983,-0.09915754135232469,-0.1939895682286367,-0.259166272681914,2.30199999999968,3.0,-0.2070679445695416,0.0364752216034453,0.9567917351967068,-0.1466180346208166,0.1654529621300348,-0.0846118061815956,0.9726483514639883,0.011702290485199765,0.21185424754534274,0.09453051670642046,2.30199999999968,4.0,-0.1529704538189716,0.3466906398430602,0.9038664948451332,0.6141020886199495,0.1876863209594323,-0.1308628146040046,0.8957762804591186,0.1886695445637201,0.2897446820195664,0.27935045652786294,2.2549999999996544,5.0,0.2118765642179058,0.0255130061891389,0.9564279419017454,-0.4172203892533093,-0.4629307188646093,1.3483657577475237,-0.31237676734242326,0.21492616384285784,0.09342414566980445,0.9205973214855439,2.2539999999999054,6.0,0.2379313051345126,-0.1250207755032349,0.9421297679882306,-1.004939785891882,-1.0169265998831858,3.1687506824702387,0.35441427937932773,0.09978425219462025,-0.2526533341638022,0.8947624904531405,2.2549999999996544,7.0,-0.2936764832242745,0.1219147584000471,0.9274049357671548,-0.4311032596014884,0.1455823480749119,0.966751099235637,0.920985951795928,0.1379949242454591,0.1789713779763667,0.3173507890998207,2.2549999999996544,8.0,-0.3853716208686245,0.0244493686262895,0.9009228281061952,-0.8880708694553955,0.7899314635734741,-0.1193724497115879,0.8141463191064656,-0.015719197271837404,0.14510103278326644,-0.5620181208891327
35,2.4039999999999964,0.0,0.0378891144875722,-0.0595634906130668,0.976721355141442,-0.2729797264656011,0.3620498622199527,0.1677407325139992,0.9935771549364225,-0.05509222998784989,-0.009638223300507929,0.09836863339001635,2.3449999999998,1.0,0.1260369537894993,-0.1683565366196361,0.9571686177768808,-0.6673454690782136,0.4962888832049046,0.701713386636424,0.9510369583009737,-0.1612407204434521,-0.05313507478279301,-0.258276591746785,2.346000000000004,2.0,0.2698938351958574,-0.1360672999388546,0.9323352442177766,-0.5423793340805508,0.1939800503437466,-0.7050806007016169,0.9316602021482591,-0.11544432125530854,-0.17418890351632335,-0.2972206290195004,2.346000000000004,3.0,-0.1900120408915876,0.0223043545037282,0.9609489789194772,-0.4413043290256426,-0.5351823461763027,-0.0920040226966965,0.9805218287255347,-0.009360503312802785,0.17203955396443252,0.09429589727121332,2.346000000000004,4.0,-0.1520260068817499,0.310453869804623,0.9168666685810564,-1.3044973226846674,-0.4447483954012814,-0.7745973880002703,0.9284902743885831,0.11667559570272946,0.23880991759552986,0.25935003179341076,2.324999999999818,5.0,0.1931635479703263,0.0057059591545324,0.9607295591193404,0.0553840188967475,1.002787685006132,-0.3875799554825664,-0.30144833908451135,0.15446341371656477,0.07844088325918806,0.9376123828745722,2.324999999999818,6.0,0.2380269768449989,-0.2965591438291327,0.9031864882212102,-2.051062998690951,0.6513873187940062,3.260737180144006,0.23075080134431808,0.0015368254989876556,-0.33659262887205926,0.9129387208544378,2.324999999999818,7.0,-0.3044127770428396,0.0883049502719502,0.9270690896209056,-1.108982158520015,0.292340938381702,0.1420334915416192,0.9247770440110824,0.06911450915150277,0.17247620746418113,0.33205806924940784,2.324999999999818,8.0,-0.2838729016555638,-0.0652062054670026,0.9353450307101896,-0.8892686790991301,-1.803305460009432,-1.1189159808166167,0.7944491792935836,-0.10286480899152661,0.09208264416315723,-0.5914305700881629
36,2.4699999999998,0.0,0.0270010803213581,-0.068191308147236,0.976828484000466,0.0971743536214282,0.0968570348552039,0.130524133933384,0.9933168522863748,-0.04862711509015152,-0.004780703391036018,0.10456662716653073,2.4049999999997453,1.0,0.0725834162094939,-0.2151419884512804,0.9538760781656016,-0.344587440931773,0.2063739176219109,2.7051728226858227,0.9761454573238907,-0.17660475437083556,-0.00960412698991225,-0.12593080490614864,2.4049999999997453,2.0,0.2533022849485711,-0.1559926021515835,0.933979261286786,0.04454694790508,0.2317349198995804,1.2020176546585533,0.951691093038022,-0.12023199077465159,-0.1489201560219659,-0.24010647420853207,2.4049999999997453,3.0,-0.1180578269935473,-0.0210705697011796,0.9729991678198032,-0.6921698861247156,-1.4007224269277367,-0.5388066478305933,0.9926745738343693,-0.04244186188103685,0.08615818807063452,0.07329833184465634,2.4049999999997453,4.0,-0.0720664923833474,0.2071281996456506,0.9551195368052694,-1.7753787123759386,-1.8565719324577863,1.1303140107652363,0.9406452441969385,0.0667615078406746,0.10582170185781133,0.3154856463556434,2.44399999999996,5.0,-0.0184858445814205,0.0681959613977936,0.9772684300636864,2.198507817592403,4.535622819722336,-5.551277864907073,-0.08141561260377055,-0.11210014479433401,0.1431034117471146,0.9799624835205569,2.44399999999996,6.0,0.0376056378964819,-0.4134461202365169,0.8867632838924774,-1.04963936421355,0.1367494769037925,2.129769699051936,0.13670224125623304,-0.05236024542364208,-0.3690197593208593,0.9178209624787798,2.44399999999996,7.0,-0.2523551161668398,0.0813629379122597,0.9431876630229564,-0.2741536339652541,-0.1884315180620383,0.5470504814222393,0.9191806843515763,0.05719090247256037,0.15407327813764904,0.357907104083253,2.44399999999996,8.0,-0.1664899717613892,-0.1071027178102302,0.9590078712609994,-1.2707705013276849,-1.7585659987641695,-2.441404735911531,0.7239083647720729,-0.20162589779764264,0.04186741103225957,-0.658445743128296
37,2.53899999999976,0.0,0.027714863103968,-0.0581888407553362,0.977492682926414,0.0505796141317718,0.0006794195126553,-0.0603828173594797,0.9938412858640088,-0.04404865897597389,-0.005853941790135188,0.10151327755574557,2.4699999999998,1.0,0.0507389669760846,-0.1824975694131749,0.9603693010443866,1.2187465464034506,-0.3943137351315087,2.2131731011514155,0.9935550083668726,-0.1099885160157364,-0.024919887637020466,-0.011400477793407785,2.4699999999998,2.0,0.1736325164371632,-0.1365179384232426,0.9535615353632748,1.2286625267601332,1.4025397932658512,2.2046531684719426,0.9872325932669631,-0.054877135447744425,-0.07862456637326291,-0.12719467111106858,2.4699999999998,3.0,-0.0358319850904202,-0.0691053353973719,0.9768165239511954,-0.5499083681307648,-1.4173084905597548,0.1087403671486253,0.9944993548030795,-0.06341877913090682,0.0067026221679037205,0.0830913148643009,2.4699999999998,4.0,0.0401768229438616,0.0717195685172541,0.9762131562265672,-2.1999351871481667,-1.1480907032655123,-0.2955034809647824,0.9529124114946594,-0.024693131906433494,0.004326063624564904,0.30220766110342157,2.4739999999997053,5.0,-0.4367563223462471,0.1716657283026594,0.8601795118560418,1.4448291877252404,4.9039232361339415,-2.845157222416021,0.03491101714394868,-0.3987736018729465,0.16788499298138862,0.9008748328502082,2.4739999999997053,6.0,0.2924192656903296,-0.3124613538858334,0.8809244436278064,1.6262896123790025,-4.293043227221984,-3.787482025308086,0.2540316840725119,0.26489050352006277,-0.29437162419056634,0.8824093559701071,2.4739999999997053,7.0,-0.2934905931713805,0.0347063791795043,0.9335420392056052,0.7023363662448351,-0.3054960685326833,-5.755178270192975,0.9851862106660249,0.042445797960989025,0.15729926679307804,0.053510982193696655,2.4739999999997053,8.0,-0.0441875247899175,-0.1991684942906913,0.9590731846605448,-0.2708321044103725,-0.9269574383864202,0.3822216069972964,0.7385128586252375,-0.2275624530090676,0.02541650908743336,-0.6341672403171612
38,2.619999999999891,0.0,0.02143643611788,-0.0632457519974586,0.9775875684872636,-0.07011251638096,0.1806025019373454,0.0618625919707435,0.9934438903367274,-0.0471624809255819,0.0020771884936497593,0.10411830979003864,2.53899999999976,1.0,0.0193711191340708,-0.0690803686999323,0.9772096307362996,1.6594847943851767,0.7672672885689298,0.2574906764340036,0.9997168977965167,-0.018930529967187647,0.014402778756474227,-0.0005650304085020297,2.539999999999964,2.0,0.0190115141865638,-0.0729718155460462,0.9771461899144098,1.037600479461967,2.842670705111994,1.1756880189261254,0.9955557721857343,0.012441639353275644,0.06406725987146243,-0.06789179840328247,2.539999999999964,3.0,0.0500152223330435,-0.0945922388126287,0.973118587784341,-0.1258060159880166,-1.3309183219147591,2.5295416358337954,0.9744667869245198,-0.0609190410697115,-0.05455757162206956,0.20910959565465187,2.539999999999964,4.0,0.0912604084429511,-0.0900987054472285,0.9715965011914974,-3.786741096566467,-1.3869650104920337,-2.242375634940132,0.9563570693271454,-0.18576128455562516,-0.14494192014590088,0.17281707349870568,2.6019999999998618,5.0,-0.5520983707000731,0.2809089751289446,0.7586801280924198,5.438799048582689,3.0560929473614333,1.067548015328828,0.06958317869446788,-0.5085098515544209,0.45766091298384765,0.7260319557992373,2.6019999999998618,6.0,0.3572662960723444,-0.1822484853296459,0.892985600827806,0.8496213590882564,2.4206210166425604,-2.846764119952574,0.4116343674874538,0.2108981343581822,-0.16344221568574174,0.8714159549601885,2.6029999999996107,7.0,-0.128303280405316,-0.0572184502446236,0.9695000346512824,-2.3417634726988164,-4.965331300332365,-4.065893830848611,0.976409967157531,-0.09940234898881285,-0.1303204050823408,-0.14056792333284945,2.6029999999996107,8.0,0.0051829563056207,-0.2034253683123227,0.9584139275338864,0.3577955806150666,-0.494778178949169,-0.2557290234790526,0.7383042540319132,-0.21620359584395057,-0.003056418359060114,-0.6388689160769527
39,2.674999999999727,0.0,0.0097503410387246,-0.0649652486658392,0.9768958221404236,-0.0423924111723917,0.1099543415078696,0.014425398493847,0.9933237363686367,-0.04837317228530119,0.006304914454707931,0.10453821800388027,2.619999999999891,1.0,-0.068316685436692,-0.0109789904658712,0.9774903028978316,0.6979813333336214,1.9351160203195523,-1.5511391628137972,0.9902195816817192,0.01605814614565433,0.11333646453515007,-0.0797631606891226,2.619999999999891,2.0,-0.1424839260441089,-0.0459822771797805,0.9682137992222684,0.0818221571190803,3.1510284411267744,-1.4833139803024653,0.9663138066096763,0.0190895728884961,0.21754922938633162,-0.13618204050411734,2.62099999999964,3.0,0.1238875970884955,-0.1231976402344991,0.964140656091366,-0.4084039945420932,-1.2323664420087774,2.3690030227900745,0.9380366996984172,-0.07204027336043894,-0.10964459240731049,0.3207419716670856,2.62099999999964,4.0,0.1912124312337886,-0.2394464752716401,0.9311139520067624,-1.815548030442592,-1.521463917304996,1.1122965775929985,0.9163259230072309,-0.25532715509273896,-0.2129220289648676,0.22320182857377988,2.6099999999996726,5.0,-0.6540809532660019,0.2851555105653098,0.6714361037126881,0.3973048751092651,-0.0475607461349225,-3.8863757739122615,0.2311847377255888,-0.5852043542329494,0.33645695798463093,0.7006327113782769,2.6099999999996726,6.0,0.2029823270126507,-0.0022360514981176,0.9587273726113316,2.274036512938787,2.88342365565515,-3.261705519025952,0.5617218705401384,0.1663681690742523,0.05675668916586333,0.8084360523323403,2.6099999999996726,7.0,0.0431363929194863,-0.2284689779469212,0.9518451437717086,-2.5584855656154804,-0.3714484016101986,-5.62627035564412,0.8839930165684019,-0.1774449090437921,-0.1626246904425509,-0.40077781995914136,2.6109999999998763,8.0,0.1072744899421183,-0.1448656682788292,0.963005255417532,0.4570598022080924,-1.5561243817128685,-5.347931344433852,0.5744434203851205,-0.2413219839673367,-0.12734471423642443,-0.7717264933811431
40,2.7349999999996726,0.0,0.0056189969512817,-0.0697114756823504,0.9775324736454796,-0.0178202883355916,-0.2127101875655127,-0.4655579270753754,0.9955202020690723,-0.04694985621871313,-0.006760128621155795,0.08178960162771867,2.675999999999931,1.0,-0.1787296609526256,0.012395735674213,0.9633270753139116,0.3502748058994721,1.5910189994465895,-1.3521599613032829,0.9706811855731885,0.03142845933522784,0.18848946250393814,-0.14581498703157939,2.675999999999931,2.0,-0.3163344960156661,-0.0588890413261251,0.9258653073974662,0.2042397200872332,2.1197165082085805,0.5104253194683194,0.9434782830768345,0.046025441630483756,0.30910289635633204,-0.11038925468193989,2.675999999999931,3.0,0.1523396615221299,-0.1810525173488984,0.9506390553143446,-0.7997951658033549,-0.8407780356648167,2.8962337688140405,0.8778176359623671,-0.10813795221132959,-0.14230164656132072,0.4444014206445772,2.675999999999931,4.0,0.2300703670489331,-0.3449508835590716,0.8881269696038878,-0.6142174597918638,-1.5718774520832073,3.7800951291272615,0.8421999174546153,-0.2905912044785384,-0.22315749144702537,0.39554618558421467,2.686999999999898,5.0,-0.6901869694485988,0.2641278040398093,0.6432724542030902,1.5696067561362592,-0.748864416636682,-0.3747817023941812,0.30647470968607776,-0.5229436180464978,0.36238861559689206,0.708009686341254,2.686999999999898,6.0,-0.0513852569496042,0.0867039823347025,0.9752138097953325,0.4941872233838313,3.858631220467288,-2.5039048704317937,0.6542824064270586,0.0027247086903358342,0.20418986491310007,0.728157680498764,2.687999999999647,7.0,0.174254923314918,-0.285070254068739,0.9209707769227518,-0.5489398974964335,-0.7871551085586846,-1.8816628416206047,0.8357061387606834,-0.1997098523662293,-0.18993966516272312,-0.47500962948496195,2.687999999999647,8.0,0.2196995589881993,-0.1554188305035364,0.940864012971749,-0.4992990609567835,-1.054807936008849,-2.419970951248828,0.47350302828108076,-0.26911007959947497,-0.15556337334317435,-0.8241205519465598
41,2.8089999999997417,0.0,0.010387069403833,-0.0615828899734437,0.977970171555206,0.2382206390263223,0.1255138088283308,-0.5608687674072919,0.997995197380387,-0.03375468446977495,-0.0005762188224534381,0.053533870156165696,2.7349999999996726,1.0,-0.2486209414462369,0.0244937520429415,0.947207307607604,0.4253964582949945,0.8183797292166101,-0.90444139394643,0.9552165492320553,0.049110833710275706,0.22013077661871414,-0.1915513280317522,2.7349999999996726,2.0,-0.4349573279433878,-0.0075192984899384,0.8786766088946305,0.5407692430525981,1.717503376000531,0.6476166355825284,0.9195950656344621,0.08800101250095495,0.37360042785586206,-0.08380606997988177,2.7349999999996726,3.0,0.1606034133373987,-0.2648051956778589,0.9292802332807836,-0.9045528550996452,-0.4135199093674369,1.598487547813652,0.8336552873743801,-0.1456597798354364,-0.16710520183013025,0.5058437919875496,2.7349999999996726,4.0,0.2310245905658604,-0.4099349300163566,0.8596109536914716,-0.8322025735164769,-0.6563300893727886,1.379034843495709,0.8002233089767554,-0.31294948243662407,-0.24185892594758093,0.45078768522711854,2.7649999999998727,5.0,-0.5961871243105866,0.3001609256425201,0.7176003982187431,-1.4047226915563846,-3.721202747715019,0.5164798414879049,0.3233732492996013,-0.38435594202522216,0.2555665258625196,0.8260665846806079,2.7649999999998727,6.0,-0.230616413515742,0.0996072319930013,0.9477238359099284,0.2995077992963657,2.482064581882666,-1.0527395837015945,0.6699010840243989,-0.09411139181431699,0.2847693387196909,0.6791774490358593,2.7649999999998727,7.0,0.2296015100594366,-0.2796130638232011,0.9101553060427812,0.2554321229823276,-1.1691701884956696,0.0085016666387143,0.8310880927437004,-0.21552621923470885,-0.2295322517361273,-0.4584277220402076,2.7659999999996217,8.0,0.3189724193378331,-0.1602036418646271,0.9128282362170224,-0.2139742388935867,-1.64842737671143,0.1720740860221862,0.46983110736536665,-0.3357742265037354,-0.1688470163789976,-0.7987522046464486
42,2.857,0.0,-0.0230741745251644,0.034240696432658,0.9725678162358598,-0.2476131042398246,-0.0477922824023272,-1.1626012168865705,0.9991443945211171,-0.04084341291362355,-0.004662941016899785,-0.004533376188918463,2.8089999999997417,1.0,-0.2799750404153541,0.0261299013861894,0.9385330068772056,0.3092610031422841,0.2632221560220327,-0.8355089692450336,0.9445125161461662,0.056230394815830025,0.22382003628116134,-0.2337495259913776,2.8089999999997417,2.0,-0.5099924265336362,0.0075837363950857,0.8373047305614746,0.2015359872515024,1.2294613327608523,-0.6087113696547127,0.896563814159876,0.08532484059174106,0.4201058721840281,-0.11137349268828016,2.8089999999997417,3.0,0.1525100947597081,-0.2958606203362813,0.9210912899005264,0.0908617415520486,0.0515351300982674,-0.1164183248264943,0.8389909283239322,-0.13671782444356376,-0.16140873054908705,0.5013478636357168,2.809999999999945,4.0,0.2327899613238783,-0.4595697502559505,0.8340518440459863,-0.4396035275739054,-0.1560174878915342,0.4373770184993652,0.7879398677388415,-0.3174858472670185,-0.2492743280088888,0.46499011925906264,2.8489999999997053,5.0,-0.438561166874457,0.1014838481811752,0.870438470811151,-1.1640689489571583,-1.483557025407644,-2.0240139283666108,0.408624353003067,-0.35689919027306005,0.12860706885154155,0.830126091600953,2.8489999999997053,6.0,-0.4194509184619971,0.0733698550097133,0.8829540143049585,0.7065058397869899,0.6796943392417595,1.857851952841932,0.6042976551891915,-0.07210756409022391,0.32689580507454685,0.7230241875335037,2.849999999999909,7.0,0.295906773769364,-0.2390487525570341,0.903510860553614,0.9053120589276578,-0.9287946725505636,0.127450348540822,0.8372436616100751,-0.1970646430534516,-0.2731511107734978,-0.43078654602386796,2.849999999999909,8.0,0.4322833597690488,-0.1473629420268838,0.8666465601293091,-0.2149703650967774,-1.950825703638715,-1.0611603408346275,0.4129110659757307,-0.40010465975689585,-0.211526973996222,-0.7903651384693064
43,2.9049999999997453,0.0,-0.0100885951398798,-0.0365503183678975,0.9783129839040822,0.4125953074103542,0.3930582864245088,-0.5561618020282865,0.9991801297624303,-0.017758768611571236,0.015378374749865044,-0.032972716227001896,2.905999999999949,1.0,-0.2595992669438728,0.0416906697074448,0.9442505539641208,0.2488715167994067,-0.6202565566956191,-0.1338684389437008,0.9507389511625512,0.058929802450707065,0.18184649891671845,-0.244038062517274,2.905999999999949,2.0,-0.5185276128510826,0.0013861969483611,0.8311613520664795,0.3126188894831788,-0.6976899382317918,-0.7628217048823155,0.9109090103299469,0.07487317478969008,0.3745473365593896,-0.15605471884213173,2.905999999999949,3.0,0.170234078191223,-0.2385357514698831,0.935294100212913,1.0887699170797638,-0.0155464618117809,-2.143865351673562,0.8990531885708569,-0.06186051959406307,-0.13873597212029046,0.41064457901689816,2.905999999999949,4.0,0.2257597766100849,-0.4508470261453888,0.8404150654770677,0.6487614310719629,0.1047023924705466,-0.2747134904998709,0.8127790371396937,-0.27394309804959166,-0.23086792053437724,0.4593967991675569,2.9399999999996,5.0,-0.3428395530316825,-0.0191636540445913,0.9177623849563104,-0.5537790933671484,-1.4655877507255146,-1.7690836303482993,0.4859279987050739,-0.3033383198958146,0.03630564103676511,0.8188661332514465,2.9399999999996,6.0,-0.2611132721764666,0.086588676314382,0.9404122820483692,-1.1564691321536242,-2.830798635095764,3.262146967633897,0.5384762697999952,0.05397115687299076,0.18431423891081355,0.8204624808135966,2.9409999999998035,7.0,0.2525393541885156,-0.2338750975317875,0.9175643374393668,0.7433813331536394,0.8853089375935713,3.1317876848076804,0.9215518406779563,-0.18207586340967505,-0.19581018470339692,-0.28151191177837154,2.9409999999998035,8.0,0.5563081473503646,-0.2329718225869466,0.7719788695761831,-0.0345548671196834,-1.5008333115500714,2.64923338203914,0.5100107993261563,-0.48306705755903173,-0.16680979085918518,-0.691888499792755
44,2.94399999999996,0.0,-0.0391511021161587,-0.0065946626719006,0.9784843900785204,0.5160408353000804,0.4633330444858828,-0.5573440190733142,0.9973223945389251,0.009829425885278513,0.038359650175145095,-0.06148138723509012,2.94399999999996,1.0,-0.1748888917552082,0.0649606404398581,0.9622411292052938,0.3133319599222823,-1.8319321784581013,0.647944520674953,0.9714320579589212,0.05707671002895018,0.07594309158995145,-0.2174733380939527,2.94399999999996,2.0,-0.4140369810546517,-0.0041670076679777,0.8877375819273648,0.16918444743335,-2.6865087391440383,-0.3709661295292532,0.9554659604722567,0.050799749122371604,0.22643618367625862,-0.18229327631611553,2.94399999999996,3.0,0.1741320334963831,-0.1258526462844649,0.9563018071370628,1.90382645023194,0.5622378553013215,-1.966730592616253,0.9437807836511302,0.03465936442783282,-0.06589714453022594,0.3220778278787282,2.94399999999996,4.0,0.2377215127040228,-0.3761566934088259,0.873509945221833,1.311519157706542,0.5005852734496368,-1.5211520694389,0.8760105186184345,-0.19396526393112212,-0.19052803293702458,0.39834923913965203,2.9699999999998,5.0,-0.2860361451477292,0.0135111558680025,0.9373258624065258,-0.2191660413128176,-1.054733304987667,0.4500055350034123,0.46752284236754904,-0.2479304131540626,0.01256240494450177,0.8484073833246822,2.9699999999998,6.0,-0.1055738354535126,0.0171873729258302,0.9729690434333164,-1.0503375171284537,-2.2884008459263883,-1.0704512850676526,0.6111889902642531,0.09600674354752103,0.06277822522628362,0.7831280979575443,2.9699999999998,7.0,-0.0398570673588865,-0.1429514808613274,0.969161126078168,2.329207225834004,5.633879713744107,0.2244167044188328,0.9632997173146343,0.022478810964554573,0.07495655939310403,-0.2567681286357665,2.9699999999998,8.0,0.689706516387411,-0.2674093735661397,0.6423450382634759,-3.936148984918118,-5.142576479746187,-4.100454334473058,0.24294872782872753,-0.6893536305531612,-0.2328984288366312,-0.6415027743782619
45,3.019999999999982,0.0,-0.0475024248587981,0.0095062095349141,0.9783527746231484,0.1885303039955069,-0.2113296176354304,-0.4913166896045878,0.9957686264739222,0.017271969398300134,0.026224754231888192,-0.08636425110437451,3.019999999999982,1.0,-0.0840750036164342,0.0397398149924918,0.975192873677438,-0.4897859032825987,-1.2026513529824492,1.4730915021149769,0.989112886370112,0.022326623835233744,0.015847543685636838,-0.14458933309147595,3.019999999999982,2.0,-0.2049973973606372,-0.0322176622838923,0.9566985362758352,-0.1443559989712407,-3.909840293278975,-0.4912337956717123,0.9789747175478283,-0.0022536852089093417,0.019821672750555314,-0.203003755124133,3.019999999999982,3.0,0.1257563254289171,-0.0132173515430534,0.9712711507261008,0.602339705851655,0.905163494762622,-3.268301719168882,0.9854386281309773,0.05803902484630907,-0.0010604875424234715,0.15981569744051827,3.020999999999731,4.0,0.2011377821106697,-0.2227472917904985,0.9330178115168002,2.991504460619851,1.839478602480783,-1.4346918855539674,0.9431472947563264,-0.05959908160157426,-0.04183944861232876,0.32430015480398444,3.0459999999998217,5.0,-0.1875203275081181,-0.0427682162982752,0.96052642152411,-0.3256361022885249,-1.1405810508221896,0.8427195791509468,0.4305549808097736,-0.19186134247820247,-0.015887988787614358,0.8817931761896562,3.0459999999998217,6.0,0.0468517753913462,-0.0088647028196984,0.979350462391578,-0.1227155947642339,-2.480518863133653,1.1867283143901672,0.5750099059105146,0.18632300022326523,-0.03238830880524452,0.7959889101899087,3.0459999999998217,7.0,-0.4790485637504412,0.0626812755369861,0.8530706484610144,-0.2256811491581094,4.707715326258525,2.567138799766143,0.9439344813025708,0.08581278788301148,0.3019582415983446,-0.10220117795127237,3.047000000000025,8.0,0.6400259306789229,-0.4690095046880865,0.5747415876468436,-1.0765672168907274,-0.7386691528672412,1.4982970151072574,0.2684008984596581,-0.7284334203624312,-0.13007640076453944,-0.6167867052468631
46,3.0850000000000364,0.0,-0.0206312625407304,0.0056265332136422,0.9792955085825582,-0.0924036013194093,-0.4077844527108887,-0.408612246845452,0.994224808095695,0.009027524922968985,0.0049297844749109036,-0.10682336816387356,3.0850000000000364,1.0,-0.0584893537095457,-0.0215549084394513,0.9782476074209469,-1.3092409981134183,-0.2772641981337536,-0.2399716670365977,0.9867326280374702,-0.047386678893481256,0.012518227757711813,-0.15477893074808158,3.0909999999998945,2.0,0.029868899105663,-0.0294974523991754,0.97859427198823,-0.8973461933887725,-2.2788395063840854,-1.6723247795296723,0.9542271695199004,-0.07110503917260652,-0.08912992742065166,-0.27649672401728487,3.0909999999998945,3.0,0.0458791003989194,-0.0057814033823707,0.9789089250392584,-0.6573188137457957,1.9874977167760857,-4.5970239567563,0.9934322828518128,0.0027162346523727076,0.09101047618333591,-0.06929657049256895,3.0919999999996435,4.0,0.057852542425131,-0.0117045937600729,0.9776196017980924,2.98961901416764,2.6859812659776545,-3.282873264549868,0.9774913132425472,0.05958975313000104,0.14860132050055552,0.137395201527407,3.1679999999996653,5.0,-0.1505653342957978,0.0446495961639173,0.9670421364505236,-0.0643240087897523,-3.627782101434876,7.654115206942255,0.09678760543534194,-0.03173390452939516,-0.015323365191513578,0.9946810107851759,3.1679999999996653,6.0,0.1430603245742179,-0.0133474962620615,0.9683132694930155,-0.2325220061360063,-0.6442184367764503,-2.588593937810664,0.6809765666694425,0.1948475109893757,-0.03899172626211643,0.7048297726341047,3.1679999999996653,7.0,-0.6333139259936547,0.0262847960896982,0.7474179424104205,-0.2275363400000163,2.0892179770383583,-1.8531673459894105,0.8964654819423802,0.05498977853074219,0.40331384541571286,-0.17511055376231963,3.1679999999996653,8.0,0.5030267769563121,-0.491365832778087,0.683127133148173,1.0117061408430736,3.975684117261407,1.6520048072589422,0.40668914814446894,-0.5733405848601392,-0.014686695341381195,-0.7111039386149604
47,3.155999999999949,0.0,-0.0082714010497304,0.0078726219312749,0.9788608714973756,0.0271170419678265,-0.1135027944830583,-0.2430810261697876,0.9928583818229834,0.009249612605101806,-0.0008533193218750002,-0.11893674855416761,3.155999999999949,1.0,-0.047905240485641,-0.1282079822318347,0.9703673537511732,-1.0564490236260105,-0.2121697216323131,-1.3875508612712375,0.9700659074291691,-0.10229694418240848,0.0053876744809185865,-0.22017820831828858,3.156999999999698,2.0,0.1444693441310789,-0.1025033940757585,0.963833835683976,-1.224071398446572,-2.460187003607021,-1.6637913543492169,0.9069263065189563,-0.152167124743833,-0.1925616514892273,-0.34241765589236217,3.156999999999698,3.0,-0.1200323602525475,-0.0184855237111849,0.97235205450769,0.9869522196370496,2.625714209391452,0.0707740243602145,0.9731930512817836,0.05928409753033304,0.21153348023710308,-0.06807545413469762,3.156999999999698,4.0,-0.0575664540270814,0.2010006630765581,0.9569090013232876,3.225754103938225,1.0728230017957998,1.3510486469746892,0.9398227588790459,0.2167685922725042,0.19419352100078655,0.17897886941897034,3.230999999999767,5.0,-0.0687353136066764,0.1133415667300602,0.9711967596293593,-0.3651816410776167,-1.9171832467856404,6.293302531181036,-0.23055027420155383,0.06395395773007728,-0.025550962728033973,0.9706202195812317,3.230999999999767,6.0,0.1522404383133973,-0.0093060393813903,0.9676870602489094,0.5209073982292695,0.7456418901908033,1.7803504876163871,0.616220131923886,0.16814413855185165,-0.01501492092135378,0.7692690360544154,3.230999999999767,7.0,-0.667626407008998,-0.0286255835391414,0.7173928886121603,-0.4771715301853937,-0.0562749860750788,0.1745145331451519,0.9019161179954952,0.03638312340121359,0.40040814736971286,-0.15778751519515818,3.230999999999767,8.0,0.1650906477881642,-0.3950384902117821,0.8801327566135008,3.1313481134043544,5.731904064745408,1.9397900179012928,0.5993407734961289,-0.25242367263027643,0.08185033027495882,-0.75523072643715
48,3.2149999999996908,0.0,0.0025424459743899,-0.0049680282091042,0.9784384777103672,-0.292750492808183,-0.2126628332199744,-0.3121881031597906,0.990843930624436,-0.007697570022770671,-0.009781753105497705,-0.13443723392961351,3.2149999999996908,1.0,-0.0032934508229793,-0.1687719760495304,0.9658561866458244,-0.4432035839194349,-0.6248258059954799,-2.2519832611488897,0.9378042638706646,-0.12812850012686325,-0.03204564718420867,-0.32105969323131556,3.2149999999996908,2.0,0.2072845422404028,-0.1272193575870334,0.9496785527763216,-0.9643931387947812,-0.1334995486399486,-4.002270807900025,0.8223927515113785,-0.14905061655494994,-0.1989482429520355,-0.5117359402977587,3.2149999999996908,3.0,-0.2573059023295955,0.0575412956240584,0.943893358343122,1.337340493071855,1.698759556701669,1.5403269293323585,0.9528430488256446,0.1426111930250282,0.2678647921150865,-0.0007906160696629061,3.2149999999996908,4.0,-0.105684862658063,0.4014586430030499,0.8876326198169467,2.7874369977481983,0.8593673634029374,-0.3904189573944844,0.8996784606511012,0.3270877885523896,0.25287389039323327,0.14016790494889741,3.2549999999996544,5.0,0.0792766909804412,0.0882750441550167,0.9726513881379192,-0.966009450930518,-1.2465742034245877,2.565032885732969,-0.35615627496344976,0.13487773252162522,-0.06037125190731434,0.9226678801264994,3.2549999999996544,6.0,0.1292500451062073,-0.080055181920899,0.9677125573679692,-0.8961825723781911,-0.3060853296762132,4.103990175000449,0.469572884322831,0.14518689306463428,-0.09369306978233871,0.8658196585119429,3.2549999999996544,7.0,-0.512909668103488,-0.0029012448854303,0.8344868214322407,-0.625079172328359,-4.718081402587351,0.9023742873079248,0.9835749825250989,-0.013024764934344653,0.1495382583010525,-0.10024429436852818,3.255999999999858,8.0,-0.2461307546290459,-0.0471020046075255,0.9479056138602032,3.944858749993791,4.03786662097324,-1.3284144519457866,0.5950763789042383,0.04120597267083799,0.05533494807498131,-0.8007023258415131
49,3.2909999999997126,0.0,0.0083927172267977,-0.0276391768321067,0.9793291776525372,-0.4666684390299829,0.0648601025214023,-0.2595150717893936,0.9885919833439639,-0.030883223210137107,-0.0030949652729427646,-0.14738567834820382,3.2909999999997126,1.0,0.0481541348532812,-0.1876864666387785,0.959741616028597,-0.335263199663783,-0.1420195539151134,-1.7393883540540251,0.9055580064279461,-0.13961822918443345,-0.041362966064483093,-0.3984476780105455,3.2909999999997126,2.0,0.2602077890624804,-0.1244023569172822,0.9358151313719184,-0.541294490225316,-0.27554630007353,-2.152040918030394,0.7619512737523454,-0.15249929525701575,-0.20081442978110173,-0.5965297864859582,3.2909999999997126,3.0,-0.3209339466459667,0.0885145061893819,0.9217996442200947,0.4238851451612517,0.8601715589324221,-0.1147138538505813,0.9419445659598131,0.1518677345086827,0.29938058403730217,-0.006920388389634356,3.2909999999997126,4.0,-0.2317343011972326,0.5090901005724692,0.8045001449022514,1.6066755681274816,1.1276416007279062,-2.805426883682893,0.87189040861735,0.342682047964372,0.3496883278383799,0.009705809477421355,3.3339999999998327,5.0,0.1396573463664817,-0.0189619879117273,0.9691306767512357,-0.9033849699038008,-0.1432610039439973,1.0431535668340697,-0.39890481505790065,0.1497384806951557,-0.09963011695818554,0.8991813919992044,3.3339999999998327,6.0,0.1812848973941589,-0.174668603034353,0.9474474471393212,-1.6273675059440176,-1.184296788425381,1.272060864316506,0.4216825473069143,0.1469315976986942,-0.20242245003168835,0.8715618662020669,3.3339999999998327,7.0,-0.3107203960264612,0.1243620871748991,0.9206584093824712,1.2541736627618776,-0.0793902157462485,5.732288372815142,0.9734463006648375,0.09828184378386488,0.10580758692515616,0.17761681635887505,3.3350000000000364,8.0,-0.4903622686083413,-0.032032865286232,0.8478311984509859,-0.4972637258417429,2.8634627359066704,-1.904582447937716,0.5148203731870421,0.15422263463945735,0.17375538227621076,-0.8252178072766408
50,3.349999999999909,0.0,-0.0286084347153079,-0.0487715142534403,0.9775018654000444,-0.1064769291109127,0.8922284464175148,-0.1763415885578069,0.986232376849712,-0.02866920680165881,0.04355161370359226,-0.15693002382764282,3.350999999999658,1.0,0.0506718679834521,-0.2076761473712056,0.9569001931278523,-0.4036281680162514,0.4872307529292219,-0.8393828243042661,0.8871154444220585,-0.14286340654852947,-0.011845079767965467,-0.43872078754316357,3.350999999999658,2.0,0.2660565348840423,-0.1347663566281642,0.9330985743032012,-0.6190892576984292,0.3347017179710629,-0.8419192591410268,0.738537682796912,-0.15545617221636238,-0.16372362427126752,-0.635287371560529,3.350999999999658,3.0,-0.3539639941567297,0.0820012334443605,0.910027081220234,0.0664328107233923,0.308759740122589,-0.1322823036462066,0.9418892152373531,0.14293658482630842,0.3037061004501803,-0.013283203194248782,3.3519999999998618,4.0,-0.2890430501192296,0.5352854617886632,0.768451423042127,0.7756764890925397,0.1988758088730695,0.6252554335829921,0.8630375509617179,0.38138655914026093,0.32974898637618766,0.031242344998883103,3.414999999999964,5.0,0.1145828161133466,-0.0448328123627486,0.9717704446972965,-0.1464555709761388,0.999973278468697,-0.2684216005187359,-0.3814747053666646,0.10076631948351872,-0.11400984884615682,0.9117702300411208,3.414999999999964,6.0,0.1904180309739855,-0.378184696197015,0.8841166829340807,-3.151270136530097,0.6377424308409418,1.582367017074172,0.38421516602269884,0.030451295907631844,-0.33528791602617,0.859670540464499,3.414999999999964,7.0,-0.349438056749024,0.1215404313428229,0.9073174571474232,-0.6626747844901273,2.103227158113103,0.7922937569826228,0.9515775555611533,0.045290859184075306,0.20550778046951307,0.2240880317935854,3.4159999999997126,8.0,-0.3704087337613789,-0.1173964612175953,0.8987154393059449,-0.6435639014146478,-1.580239113846024,-1.435441774099168,0.4760505191905008,0.05918866844694711,0.16570238528131234,-0.861635261707653
51,3.4549999999999272,0.0,-0.0841751771544226,-0.0619042049528762,0.9745236831191808,-0.1688022049783288,0.921479332349996,-0.3703923931312798,0.9799127769088375,-0.03007384801113144,0.08979971881106141,-0.1755064779945987,3.4549999999999272,1.0,0.0175613580911531,-0.2365709992315209,0.9513520699638984,-0.5988193272760427,0.8306572841737699,0.0870079211179334,0.8851600126396045,-0.14815804596133153,0.04435351621896314,-0.43883221285565327,3.4549999999999272,2.0,0.2394945685989606,-0.1670750735805102,0.9358569716573496,-0.756902836345178,0.6442876245784249,0.1228342303312752,0.7443769660601305,-0.1632650130105659,-0.10242992861464792,-0.6393399546796473,3.4549999999999272,3.0,-0.33600464167746,0.0619053171272525,0.9186651253218312,-0.6580564638127704,-0.6180320236814295,-0.9040834357122152,0.9589535177569034,0.08660382622547465,0.2650184998111636,-0.051702251620295764,3.4549999999999272,4.0,-0.2781761586805137,0.513010815771749,0.7874185212724922,-1.2662190536816669,-0.7813850563276179,-0.7850169838182329,0.9094243373068183,0.3001098764840105,0.28783182552054554,0.005854653560793124,3.4729999999999563,5.0,-0.0160518342734663,-0.0846170215081253,0.9767508885522196,-0.3729356382281612,3.145157182792928,-2.9148993726834496,-0.23424566304141803,-0.029781516846169816,-0.16668457752544785,0.9573182763406278,3.4729999999999563,6.0,0.1739227659198751,-0.5919812379727942,0.7603914027545147,-5.491343636329978,-1.1211418308928014,0.6932580140569446,0.34686218906467536,-0.03393557926966972,-0.5975309061339164,0.7221439014986378,3.4729999999999563,7.0,-0.3644431582069295,0.1110224540503122,0.9031678687446788,0.1512685430157818,-0.96454250397234,1.1889092088269626,0.9460924162683796,0.07220795742651594,0.15608117203936694,0.27447006849302713,3.4729999999999563,8.0,-0.2124635626312669,-0.2120317591375743,0.9331172314725816,-2.04050985365605,-3.27088296334168,-1.7038807039741015,0.44132726267817896,-0.14371629067452807,0.17071226539392143,-0.8691566012266233
52,3.513999999999669,0.0,-0.1280202756296602,-0.0823389866199701,0.9680408567359656,-0.3734281353803056,0.2710662003394826,-0.7511554954786116,0.9709276593181061,-0.04915706219318252,0.10254595328534816,-0.21063568328371707,3.513999999999669,1.0,-0.0487781459221783,-0.2657336898455884,0.941472409877976,-0.28233664111522,0.3468507788803792,2.822975460011269,0.9376006137779901,-0.1428498050559234,0.09065362921945236,-0.30377778349965434,3.513999999999669,2.0,0.1663077474792702,-0.2062987509722327,0.9426534668029752,-0.1121139362357388,1.3777906027680868,1.1960962117007896,0.7898972099278139,-0.1272738906171545,-0.026029635257286413,-0.5993214601562339,3.513999999999669,3.0,-0.2672801495854303,-0.0028419332420487,0.9432768655347366,-0.6995147807145098,-1.5355385916714612,-1.4727307956221558,0.9763278874884722,0.02073350582960493,0.1790395737473327,-0.11957762700724696,3.5149999999998727,4.0,-0.2109560753671014,0.384886083417523,0.8763933118510371,-2.695959257485572,-2.0699303001821203,0.0855706409742113,0.9736402590676447,0.1562869281403016,0.1649712468613194,0.019583914934952186,3.5839999999998327,5.0,-0.2915209490473695,0.0334540304873799,0.9336928639069008,3.046846697983584,3.837319892384181,-4.51237327890275,0.016359798132135023,-0.19216210355621285,-0.04486150413951293,0.980200759236733,3.5839999999998327,6.0,0.2161490240845019,-0.5776315574142974,0.7614061880930905,2.0027102771849727,2.5937887689574373,-5.059966003875031,0.6356253099793444,0.09566927090656267,-0.40788497625600245,0.6484270984948958,3.5839999999998327,7.0,-0.4080462848837243,0.0477373596219709,0.8886846312888016,-0.3893493517212108,1.2535937455342805,-3.2718934335052805,0.9698948331066091,-0.000150339860037771,0.21514053189668592,0.11409882403531041,3.5839999999998327,8.0,-0.1452356753979428,-0.2530534814713481,0.935692008145273,-0.7517740358895648,-0.9923159061185371,-2.283441606254535,0.35003429155848337,-0.20679280662767277,0.1608200003677907,-0.8993606936829651
53,3.563999999999851,0.0,-0.135930484374974,-0.0917376694553114,0.9660176517126864,0.3222990701457297,0.2564280845058524,-0.958847471423428,0.9594118005521225,-0.03407874027500979,0.10726079321098464,-0.2585783414409511,3.563999999999851,1.0,-0.0994417134296495,-0.215735672840046,0.950270206359448,1.5387942481549346,0.2657406318034455,-0.1835345491354456,0.942802689252561,-0.061433605175309346,0.07820260516933798,-0.3181718935387469,3.563999999999851,2.0,-0.0167055890080342,-0.211469072494746,0.9563423836022884,0.4617524978242663,2.943399854726064,3.834740067046948,0.9002422412116988,-0.018574041422221327,0.10729437730652402,-0.421552877729222,3.563999999999851,3.0,-0.160823323965081,-0.062061839901349,0.96446523343088,-0.2334125399603504,-1.621195166395192,-1.1166613219535422,0.9808507078057154,-0.01456009101974023,0.08988946067791082,-0.17216206784759033,3.5649999999996,4.0,-0.0930732665779815,0.2173098115640959,0.9506417899747944,-3.152764851283785,-2.1533443802626486,-1.737383194114577,0.9974412724152223,-0.020985480693632708,0.037980705291595376,-0.05681534747154584,3.6149999999997817,5.0,-0.4883227123781162,0.005777388795106,0.8493182856587922,1.2334994148236282,0.7462564571519396,-6.15842709831714,0.34628029800809496,-0.20937496381004758,-0.027895065940011354,0.9140426385224972,3.6149999999997817,6.0,0.2859062962927305,-0.4360611550612828,0.8293233740747896,0.6310482603925632,2.975604264038796,-3.1484552607234013,0.795987858238588,0.07578785807786323,-0.24132501760091346,0.5499288735687862,3.6149999999997817,7.0,-0.1969223824370249,-0.1541376880286028,0.9461316760496518,-2.64415900270245,-3.354676146905802,-4.413144100045136,0.98213175206742,-0.16581308333726752,-0.023798509307201295,-0.0857722212019924,3.6159999999999854,8.0,-0.1065750426015406,-0.280098556498913,0.9323875583370386,-0.1087582224052062,-0.3096112409466638,-2.276570832981446,0.2545183587897,-0.22290842005027284,0.13525802312715354,-0.9312558770227564
54,3.6589999999996494,0.0,-0.1295706465339623,-0.0887431874958334,0.9667828578485712,0.1073074250521785,0.0137400033076965,-1.5078625497154377,0.9381461414762514,-0.03613999313440969,0.10047606151168904,-0.32936344544069474,3.6589999999996494,1.0,-0.1439193051070462,-0.124814523106289,0.9617195892978654,1.831018979449107,1.256695013563737,-0.0375847841317247,0.9382482067066787,0.04692341941722121,0.1090093284473586,-0.32496993958419096,3.6589999999996494,2.0,-0.2258764091007647,-0.1399697251976306,0.9436770230538856,0.8215029695491,3.4794347075759795,1.0365585104800157,0.894392882049037,0.0966694266439641,0.24243858850794234,-0.36323535799068535,3.659999999999856,3.0,-0.0746516191900663,-0.0501667920086221,0.9762102379773864,-0.2409577480048104,-1.9484732336483468,0.4978152609742504,0.9888634995293203,-0.041251802866551786,-0.008652080096829416,-0.14273195006333858,3.659999999999856,4.0,0.0319351323732261,0.0359724930253416,0.978707375606134,-5.553276170507421,-1.946400712242424,-0.3314616933109395,0.954824689562596,-0.2875155909719915,-0.05134283839540432,-0.05484988692077925,3.688999999999851,5.0,-0.5383495998990968,0.0305489520016141,0.8180504078723299,2.8000027543373056,0.9166322840848636,-0.5073848596279621,0.4006295541576364,-0.20222998345128512,0.12824974007601314,0.884393011222489,3.688999999999851,6.0,0.0922326867465818,-0.3516264892039448,0.9096372593433136,1.350364025099838,4.891135878096151,-2.3121906821362934,0.8957757217181154,0.010991381311214419,0.031119513142714186,0.44327939476025874,3.6899999999996,7.0,-0.0097446042235269,-0.3388952074469505,0.9195396027676108,-1.6339607697762568,-0.4936342035869587,-4.5787470094088665,0.9219394645605665,-0.23410860561216953,-0.08854511023188362,-0.29560200932694153,3.6899999999996,8.0,0.0071507503292743,-0.295684735377919,0.9339734493197428,-0.641248731551265,-1.4888308926463751,-3.652537448105016,0.09229264595394822,-0.3083475398089875,0.10339506836360149,-0.9411234361308033
55,3.694999999999709,0.0,-0.1204641465245545,-0.1063798969360404,0.9666481815686556,-0.202608150810368,-0.1335144725083739,-1.393925781009397,0.914126717703145,-0.05403312274901089,0.0913935361323623,-0.39127993454876686,3.694999999999709,1.0,-0.2581398805506937,-0.0684704343850757,0.9424062827063456,0.7375692038462568,0.9445214589355564,-1.2602154445511695,0.9079154621892331,0.0852580366294002,0.14780812758213308,-0.38284897561372044,3.694999999999709,2.0,-0.4684635211515,-0.0698267739220757,0.8583514146280493,0.8944975859936392,2.80558947982883,0.8569823727133059,0.8664174432456384,0.1923466626315813,0.33829754069031515,-0.3128551571847079,3.694999999999709,3.0,0.0607169716445525,-0.0649827913772568,0.9752987676497568,-0.5548734991652998,-1.972811175979871,0.6288755045353019,0.9858377060507334,-0.08225335541554478,-0.10105263364116722,-0.10557825574281904,3.694999999999709,4.0,0.148200768878453,-0.1153069859924015,0.9620394124385878,-2.0366666968365426,-1.5129615918990102,-0.1170324723910874,0.9227286072176534,-0.36357136836360476,-0.11977879339374725,-0.04517541567626888,3.753,5.0,-0.3280959944086543,0.1984239198441572,0.8881604396091258,11.017979452834329,5.215885464957262,6.406534333782019,0.20482438405772316,-0.2931211064173056,0.802242394170478,0.4780524340108398,3.753,6.0,-0.1547995700528141,-0.4840688746556147,0.9271323625573162,8.586092678505993,7.1710582488872046,-13.136399830808736,0.7451045640841595,0.19272136814530139,0.5317249601511707,-0.3534773395755292,3.754,7.0,-0.2967817198249873,-0.1487244606579513,0.7977948643477998,2.360060578757128,11.72367937162564,-5.724239601029429,0.78403914491988,0.07682088378740536,0.3963919984661822,-0.471438813208471,3.754,8.0,-0.065086030973748,-0.2302775642043935,0.9722062805784456,-1.084463784365607,-2.446768717438136,-7.78699600985253,-0.2903284412131105,-0.4469067855620241,0.016911167147217722,-0.8459892042260961
56,3.7839999999996494,0.0,-0.1001883417374252,-0.1244318433331545,0.9667859186731146,-0.1371310431835136,-0.2818858967331681,-1.5696220382565875,0.8828512183120344,-0.07115031608929855,0.07398841989741897,-0.45829801719670665,3.7839999999996494,1.0,-0.2952470646947073,-0.0622575081805591,0.9323337242984978,0.3146944046010926,0.7509259957018594,-1.3852290777221483,0.8727588516052494,0.0977135692278212,0.18162600972694473,-0.44244325955326075,3.7839999999996494,2.0,-0.576308155338023,0.0967391624615133,0.7869208629443813,2.521846205357169,0.5290279255049932,3.621831188944059,0.8809163125644469,0.3657515428409759,0.2454895511453094,-0.1730524182026296,3.7839999999996494,3.0,0.1603429852299807,-0.1242108981984439,0.9585748691971192,-0.9396533806963008,-1.2792548035643838,0.0305308375560075,0.9733916166339773,-0.1336454883483352,-0.155320843090676,-0.10258206379493849,3.7839999999996494,4.0,0.2255095497270866,-0.2331534268855286,0.9245484965719326,-1.7560403953693446,-0.6265410695502925,-1.4736813178708457,0.8876101884425791,-0.41134771269264675,-0.17281920237710646,-0.11434481153597488,3.817999999999756,5.0,-0.5046469723777086,0.0665291820073277,0.8369595576916771,2.832647534955381,-0.934799456724877,-2.37278614552564,0.37213870269391097,-0.32047433358374755,0.7883405667639257,0.3705781135815743,3.817999999999756,6.0,-0.1751061806172797,-0.1932200307796562,0.9447559712513792,3.0440463062596126,4.162004151198287,-4.653957174980659,0.5381583777586685,0.20487558372244083,0.6134298246439658,-0.5404770169765044,3.817999999999756,7.0,0.1108632609049335,-0.3901530990132106,0.8924034383124668,-0.6696057189552447,-0.5520579234831092,-2.885676034143624,0.7355105377970046,-0.04210474707246929,0.35943833439806167,-0.5727613140119288,3.817999999999756,8.0,0.2074684820674979,-0.3240208951889906,0.9012187794478838,-0.9730569471319628,-0.9972818369925326,-5.28816176191398,-0.5404871316665224,-0.43914550588600865,-0.02145559215767686,-0.7173315431013615
57,3.8469999999997526,0.0,-0.0835314471737272,-0.1364127451393434,0.9667093980595262,0.0077938826018303,-0.0169472366032153,-1.2814420761815646,0.8529557593392045,-0.07307784281961427,0.0679098173949729,-0.5123615502750906,3.8469999999997526,1.0,-0.3079983489420116,-0.081801084930913,0.926549836518857,0.4185176189136423,-0.0305797429270581,-1.723711060178641,0.8315938219062982,0.09264639752966056,0.17687947618553607,-0.5182489858131732,3.8469999999997526,2.0,-0.638549262051372,0.1745763085451098,0.7225980573101556,1.0628258803194843,1.0057715349181522,-1.3438638739701745,0.8375075845819451,0.3849442405534314,0.3104617402257049,-0.23240586328336293,3.8469999999997526,3.0,0.1961852396429578,-0.152273822836185,0.9472697792208348,-0.417275004656617,-0.53251521238423,-0.3790687869855269,0.9656358438192294,-0.1490743060021766,-0.17545723399369795,-0.12057788960159722,3.8469999999997526,4.0,0.2587240653739909,-0.2996452813286462,0.8960243095886581,-1.172358886345793,-0.3614268581614236,-0.7882202296223898,0.865340537503589,-0.43569764553682805,-0.19356982707332426,-0.15454461450813398,3.83199999999988,5.0,-0.3885790499706731,0.0386223879521877,0.8988501727611556,0.4294285412383372,-0.432936737900751,-2.5922568999763134,0.479550626264991,-0.40091041583239334,0.7066608979096143,0.33156056866209227,3.83199999999988,6.0,-0.3188190840778727,-0.1325221323506889,0.917619897378524,2.7841975836234414,4.523580587193482,1.5886767061087914,0.44159826345028197,0.43197206949538725,0.5846212251568312,-0.5259364296088389,3.832999999999629,7.0,0.1986055922986661,-0.3919267080988141,0.8762746568208639,-0.3151436704242151,-0.6294940360782545,-1.838860536551559,0.6958456095964517,-0.12142708469000271,0.30978363394514,-0.6364655928239744,3.832999999999629,8.0,0.3544964496792592,-0.305738241259438,0.8602856473267388,-0.6661237283858554,-1.466253175062692,-2.841133767855859,-0.6602210033950056,-0.4359576161070398,0.009603488303814382,-0.611520201339872
58,3.925999999999931,0.0,-0.0688231538654838,-0.1346707764116361,0.9683316350676018,0.2222675364842157,-0.080106824526899,-1.2920729479375752,0.8204674850031525,-0.06722109629318956,0.05425165372427929,-0.565129355399208,3.925999999999931,1.0,-0.287732543685642,-0.0782703038394433,0.9333931341300252,0.61484519922893,-0.3251532703496961,-1.4456205667301156,0.7936413776837725,0.09110340698714314,0.15167561759300607,-0.58208937448756,3.925999999999931,2.0,-0.6359466702354213,0.1568452828699668,0.7292190273559245,0.8376588412163234,-1.327347030332027,-2.4495577156156987,0.8125019303445407,0.34541299917630247,0.28588018618716105,-0.3725627361022852,3.92699999999968,3.0,0.2227059497879445,-0.1527395656762708,0.9417529851325526,-0.0639581024633998,-0.0078023059419673,-1.6498128243900765,0.9543825254505749,-0.13175945247314996,-0.17885590045477123,-0.19950942000585176,3.92699999999968,4.0,0.2706465736897188,-0.3230460464891225,0.8846992053787339,-0.292072772864104,0.4891201529700721,-1.1676459340673084,0.864964895768668,-0.4105701658600512,-0.18610737477755226,-0.220526445232664,3.899999999999636,5.0,-0.3629761574804117,-0.0974052335510067,0.9048483461761032,-0.0046187187830391,0.2606186183525257,-4.583038663631151,0.5817405247074844,-0.5560403555545942,0.5529622120359688,0.21593952155191337,3.899999999999636,6.0,-0.3608146808820264,-0.0419730728206285,0.9087183431724024,0.7926578639128268,-1.3035429322227805,-3.084877048991773,0.4064909804531108,0.30628049081786207,0.5615922866423861,-0.6523583733948803,3.899999999999636,7.0,0.2534479463568545,-0.3803304460882766,0.8656990760453575,-0.3536577099530247,1.0750043070360022,-1.886724859151497,0.6175857477322152,-0.13955834313150514,0.31957400372040634,-0.7049707576960477,3.90099999999984,8.0,0.509351634002069,-0.2807398343768352,0.7887807416091556,-0.7425016176940681,-2.0809724583079445,-1.1711710836574645,-0.7101739731631811,-0.4467799512418274,0.10513658815716813,-0.5338416439737926
59,3.966999999999644,0.0,-0.0683891525323665,-0.1094594335357644,0.970611949352538,0.6231193350715806,0.177091837507216,-1.2041460226514669,0.7877133615301267,-0.03691491670301883,0.041890604289317145,-0.6135064190894768,3.966999999999644,1.0,-0.2549677865267677,-0.0621772707344569,0.944232182695366,0.7543531545471938,-0.6764313542093822,-0.8996667210716583,0.7690517070604488,0.08972523206097192,0.10508330596244234,-0.6240723943638415,3.966999999999644,2.0,-0.5521274087387822,0.0870812535690653,0.8044141842336184,0.1342015819331873,-2.893548682311967,-2.1157444283464084,0.8097497318268007,0.24825300874103035,0.1854342499559825,-0.4982870201005769,3.966999999999644,3.0,0.2093897957334135,-0.120997690242536,0.9484711236504202,0.1059576776729842,0.8856872790701426,-1.4290889991525568,0.9478402561271808,-0.09998229864514571,-0.1361160704284869,-0.27032351764783624,3.966999999999644,4.0,0.2387311242248049,-0.2645736839719181,0.9132366703521536,0.9332200009177644,1.1827455865552468,-1.313096004551349,0.8880819475409951,-0.31950506753035995,-0.15449882440211196,-0.2921593392869352,3.980999999999767,5.0,-0.3468243446975816,-0.1047059951220006,0.910577030519991,1.2358901200523555,-0.0562801031219983,0.6491106138010857,0.6470390222124222,-0.473932062805897,0.5568920914250677,0.21587056790390433,3.980999999999767,6.0,-0.2072741828858762,-0.0813204905595595,0.9542276410396764,-0.6650658171015741,-2.1924627458190047,0.5227071924326145,0.5144440719314587,0.2202228021846514,0.48855241014795525,-0.6694518330628009,3.980999999999767,7.0,0.0867315068922858,-0.3249716554391776,0.9202429401377192,1.7813809764001802,4.512074879062116,-1.2576125741025632,0.5189659503661839,0.043365754597498814,0.36006275782630337,-0.7740468746240307,3.980999999999767,8.0,0.6866210195834764,-0.3053414018688117,0.6289047652633393,-3.08370166525068,-3.5143581425366355,-3.913784642077228,-0.8377776506733803,-0.39211430524517243,0.27727902939143306,-0.25979091499517887
