Timestamp,Ax,Ay,Az,Rx,Ry,Rz,EMG
0,0.1772,-0.8335,0.0298,3.1086,4.3634,-3.952,2006
0,-0.1726,-0.281,-0.5933,4.3634,2.6832,-4.3635,2019
0,0.3931,-1.0518,-0.6777,3.7467,3.1311,-1.4797,2093
0,1.9999,-1.238,0.7551,3.7205,3.6613,-2.0101,2104
0,1.9999,-1.2009,1.7529,2.1063,4.3634,-2.334,2188
0,1.6597,-0.9255,1.5686,1.2287,3.4724,-1.6773,1873
0,0.9307,-0.8337,1.1772,0.0884,0.9188,-0.9416,2018
0,0.916,-0.6814,0.489,-0.8994,-0.2193,0.6449,2142
0,0.5225,-0.3782,0.0322,-1.4105,-0.3663,1.1716,2085
0,0.1301,-0.248,-0.2744,-1.7932,-0.3067,1.1053,2038
0,-0.0227,-0.2063,-0.363,-1.8438,0.5197,1.3499,2060
0,-0.0723,-0.0437,-0.1724,-2.2851,1.5479,2.4192,2063
0,0.1804,-0.3147,-0.1709,-2.0992,2.06,2.2602,2083
0,0.2546,-0.4524,-0.0938,-1.8302,1.9507,2.3578,2063
0,0.4221,-0.4236,-0.0259,-1.3295,1.661,2.2469,2083
0,0.627,-0.4358,0.2375,-1.1437,1.1621,2.113,2116
0,0.7812,-0.3916,0.4878,-1.441,0.6566,2.3752,2093
0,0.8555,-0.3279,0.5242,-1.6688,-0.0417,2.597,2066
0,0.7966,-0.3071,0.4973,-1.8592,-0.7564,2.9984,2065
0,0.8477,-0.3076,0.5447,-2.5838,-1.5464,3.7845,2080
0,0.6929,-0.2361,0.5349,-3.2773,-2.0835,4.2672,2059
0,0.5649,-0.2019,0.4712,-3.8178,-2.5001,4.3634,2056
0,0.5176,-0.1433,0.3416,-4.2784,-2.7713,4.3634,2134
0,0.3662,-0.1199,0.1707,-4.3635,-2.7849,4.3634,2146
0,0.2327,-0.1772,0.0132,-4.2391,-2.6277,4.3634,2117
0,0.2129,-0.2739,0.0125,-3.8466,-2.4378,4.3634,2115
0,0.2249,-0.321,-0.0447,-3.5801,-1.994,4.3634,2142
0,0.2698,-0.4019,-0.0583,-3.2863,-1.4436,4.3634,2122
0,0.4053,-0.4312,0.0139,-3.2038,-0.8971,4.3634,2089
0,0.5359,-0.4875,0.1443,-3.4826,-0.547,4.3634,2140
0,0.6035,-0.6897,0.2046,-3.8813,-0.4217,4.3634,2141
0,0.6423,-0.8127,0.0894,-2.8855,-0.2887,4.3634,2147
0,0.9148,-1.282,0.5151,-3.0112,-1.1848,4.3634,2120
0,1.2449,-1.3462,0.6907,-3.081,-2.651,4.3634,2124
0,1.425,-1.5938,0.8442,-2.9019,-3.6103,4.3634,2114
0,0.6069,-2.0,0.7046,-3.798,-4.0144,4.3634,2123
0,-1.3022,-1.7627,0.1638,-4.271,-2.0829,4.3634,2052
0,0.3706,-2.0,-0.6096,-2.4191,-1.6178,4.3634,2164
0,0.8347,-1.907,-0.3062,-1.9746,-0.7166,4.3634,2097
0,-0.0278,-1.4209,-0.1262,-2.4035,-1.0002,4.2333,2069
0,-0.7881,-1.2532,0.0828,-2.5799,-0.5936,2.5478,2063
0,-0.0598,-0.7664,-0.0437,-1.7009,1.0894,1.7692,1994
0,0.6921,-0.4041,-0.1082,-0.8917,0.6831,0.5541,2020
0,0.2114,-0.8164,-0.2825,0.2107,0.6253,-0.6316,2071
0,0.0413,-0.7974,-0.1887,0.385,1.3643,-2.4163,2146
0,0.8718,-0.824,-0.0791,0.6525,1.1461,-3.0922,2059
0,0.7102,-1.313,0.3149,0.6731,0.9517,-3.9929,2080
0,-0.7207,-2.0,0.7297,2.8751,0.6946,-4.3635,2055
0,-1.5251,-2.0,0.8838,-0.1499,-2.9076,-4.3635,1999
0,1.4985,0.4734,-0.4189,3.2443,-0.7702,-3.7001,1994
0,-0.7751,0.1033,1.1521,1.1282,2.1541,0.3938,2112
0,-2.0,-2.0,1.6001,-0.1269,0.5363,-2.4245,2060
0,-0.1467,-0.127,-0.0225,0.7894,1.7106,-0.6232,2035
0,-0.2197,-1.2341,-0.2068,1.7824,-2.2483,-0.2507,2102
0,-0.5415,-1.7097,0.137,1.0994,0.2501,-0.8553,2171
0,0.249,-1.9443,0.7019,2.3677,-0.4069,-1.5725,2145
0,0.0496,-1.9255,1.4749,1.6989,-1.1539,-1.9278,2092
0,-0.1462,-1.7546,0.5237,0.5554,-0.726,-2.277,2040
0,0.3274,-1.2434,-0.3345,-0.281,-2.9612,-2.3525,2060
0,1.9999,-2.0,-0.6848,-1.1985,-4.2208,-2.7996,2204
0,1.3135,-0.342,-0.8293,0.0519,-2.8193,-2.2949,2038
0,0.6948,-0.7903,-0.4417,0.3922,-1.7872,-2.2429,2044
0,0.1523,-0.5525,-0.2732,-0.0467,-0.0386,-2.0955,2041
0,0.9944,-1.0964,-0.3235,0.0638,0.479,-2.0631,2071
0,0.594,-1.0088,0.0505,0.1862,1.0796,-1.6088,2107
0,0.3586,-0.7021,0.0383,0.4661,1.2428,-1.6467,2097
0,0.4084,-0.7173,0.0938,0.963,1.3256,-1.901,2113
0,0.3899,-0.8132,0.3491,1.2876,1.1047,-1.4764,2140
0,0.1301,-1.0068,0.6067,0.901,0.5974,-0.6087,2095
0,-0.0583,-1.1416,0.4065,0.5936,0.3565,-0.45,2050
0,-0.0112,-1.1838,0.2739,0.3448,-0.0248,-0.5265,2080
0,0.1162,-1.2649,0.27,-0.1598,-0.3697,-0.5554,2075
0,0.2798,-1.0823,0.217,-0.2687,-0.503,-0.4671,2097
0,0.3479,-1.0312,0.1794,-0.3927,-0.5569,-0.3396,2061
0,0.2964,-1.0017,0.0178,-0.4998,-0.5813,-0.1784,2043
0,0.2727,-0.988,-0.2188,-0.473,-0.5657,-0.0795,2062
0,0.2585,-0.9792,-0.3567,-0.248,-0.3121,-0.0744,2102
0,0.1819,-0.9919,-0.3921,-0.0286,0.1135,-0.1033,2089
0,0.1191,-0.9661,-0.4626,0.1308,0.4717,-0.134,2109
0,0.0779,-0.9712,-0.4189,0.3488,0.7586,-0.1724,2099
0,0.0315,-1.0032,-0.2866,0.4609,0.9343,-0.2023,2126
0,0.0212,-0.9814,-0.051,0.5396,0.8629,-0.2511,2061
0,0.0398,-0.9641,0.1367,0.4647,0.6942,-0.3208,2078
0,-0.0137,-0.9636,0.2122,0.3271,0.3631,-0.3575,2148
0,-0.0503,-1.0498,0.207,0.2458,-0.1175,-0.388,2089
0,-0.075,-1.1069,0.1667,0.1165,-0.2914,-0.3735,2089
0,-0.1252,-1.0679,-0.032,0.1068,-0.3594,-0.4038,2080
0,-0.105,-1.0527,-0.1035,0.1409,-0.5076,-0.448,2042
0,-0.0273,-0.9958,-0.2156,0.2088,-0.4673,-0.502,2107
0,-0.0325,-0.9673,-0.1602,0.1875,-0.5518,-0.6353,2077
0,-0.0979,-0.9851,-0.0803,0.218,-0.5129,-0.7628,2090
0,-0.0872,-0.9639,-0.1101,0.2731,-0.5849,-0.8443,2085
0,-0.1135,-0.9497,-0.092,0.3149,-0.4727,-0.8748,2090
0,-0.2261,-1.0068,-0.0505,0.2245,-0.3755,-0.7396,2088
0,-0.2136,-1.0254,-0.0532,0.2187,-0.2433,-0.6649,2020
0,-0.1409,-1.0173,-0.0693,0.2828,-0.2433,-0.7532,2154
0,-0.1355,-0.9419,-0.083,0.4866,-0.3063,-1.0449,2154
0,-0.156,-0.8757,-0.1462,0.6259,-0.1208,-1.3226,2071
0,-0.2336,-0.8362,-0.1528,0.7412,-0.0206,-1.5297,2019
0,-0.0786,-1.0645,-0.1389,0.7988,0.0716,-1.69,1987
0,0.0918,-1.2039,-0.1311,0.7934,0.2257,-1.7066,2080
0,-0.0425,-1.2024,-0.0571,0.7166,0.473,-1.5753,2111
0,0.009,-1.3953,0.0452,0.7026,0.5023,-1.6791,2086
0,0.165,-1.428,0.1338,0.5766,0.4556,-1.8666,2154
0,0.2961,-1.1433,0.1338,0.5699,0.1116,-1.81,2129
1,0.2935,-1.2161,0.1826,0.6231,-0.0764,-1.7998,2157
1,0.2322,-1.3362,0.1133,0.7272,-0.2246,-1.6817,2063
1,0.1064,-1.4346,0.0981,0.8592,-0.2987,-1.7522,2159
1,0.2102,-1.3997,0.0813,1.0415,-0.2262,-1.79,2107
1,0.158,-1.4834,-0.0117,1.0725,-0.2095,-1.8479,2080
1,0.2893,-1.3389,-0.0181,1.2404,-0.5729,-1.8184,2155
1,-0.0403,-1.5203,-0.0737,1.2967,-0.6906,-1.9126,2076
1,-0.4224,-1.6482,-0.3,1.3279,-1.076,-2.3,2094
1,-0.3354,-1.5625,-0.1941,1.3278,-1.1986,-2.3755,2040
1,-0.9678,-1.4148,-0.3647,1.4804,-0.9127,-2.4806,2071
1,-1.2859,-1.1948,-0.427,1.7181,-0.3978,-2.5048,2114
1,-0.5249,-1.801,-0.2886,1.6065,-0.4101,-2.459,2112
1,-0.8064,-1.7988,-0.1997,1.5631,0.8235,-3.1516,2088
1,-1.4558,-1.5989,-0.366,1.3691,0.3606,-3.4971,2058
1,-1.24,-2.0,-0.4377,1.2633,1.067,-3.4491,2112
1,-0.7097,-2.0,-0.199,1.2971,2.1454,-3.6494,2094
1,0.2383,-1.1562,-0.176,1.5348,0.6277,-4.2224,2101
1,0.7517,-2.0,-0.248,1.3119,0.2043,-4.3423,2191
1,-0.9014,-2.0,-0.6333,1.8923,2.0876,-4.3635,2121
1,0.0371,-1.0027,-0.4783,2.0442,3.0492,-4.3635,2036
1,-0.4182,0.9133,0.0234,4.2005,4.3634,-3.291,1890
1,-0.7715,-0.592,-1.0183,4.3634,2.7333,-4.3635,2082
1,1.9999,-1.282,-0.0549,4.3634,4.286,-1.8157,2085
1,1.9999,-1.1445,1.6858,2.393,4.3634,-2.3192,2327
1,1.9999,-0.9702,1.8423,0.8902,4.3634,-1.1577,2022
1,1.2681,-0.7871,1.7029,0.2445,2.5308,-1.0581,1864
1,0.7832,-0.5957,0.959,-0.4444,0.5888,-0.1344,1967
1,0.7974,-0.572,0.3079,-1.5308,-0.6348,0.7468,2138
1,0.5852,-0.291,-0.1829,-2.2529,-1.3965,1.3531,2101
1,0.2795,-0.1426,-0.3284,-2.5618,-0.8403,1.3581,2047
1,0.1665,-0.1028,-0.343,-2.6325,0.4177,1.708,2038
1,0.0859,-0.1057,-0.1157,-2.7087,1.0873,2.2941,2037
1,0.0886,-0.2812,-0.179,-2.319,1.266,2.3077,2039
1,0.2356,-0.3167,-0.0911,-1.8345,1.2856,2.442,2060
1,0.3474,-0.1938,0.0955,-1.5218,0.6849,2.3938,2086
1,0.5845,-0.3511,0.2827,-1.305,0.4825,2.3007,2078
1,0.7288,-0.4512,0.5105,-1.5998,-0.2245,2.3366,2124
1,0.8533,-0.3337,0.6331,-2.0141,-0.9023,2.901,2096
1,0.7888,-0.23,0.5967,-2.647,-1.493,3.3668,2034
1,0.7886,-0.2253,0.5718,-3.4244,-2.4306,4.0728,2060
1,0.6389,-0.1897,0.5103,-4.0805,-2.9773,4.3634,2097
1,0.4958,-0.1104,0.3699,-4.3635,-3.2448,4.3634,2113
1,0.4231,-0.0623,0.1992,-4.3635,-3.3611,4.3634,2098
1,0.3318,-0.074,0.0896,-4.3635,-3.3769,4.3634,2145
1,0.29,-0.1392,0.0022,-4.0816,-3.1172,4.3634,2166
1,0.2505,-0.2566,-0.0012,-3.7841,-2.6012,4.3634,2121
1,0.2463,-0.3049,0.0596,-3.6896,-2.128,4.3634,2118
1,0.2502,-0.3621,0.0103,-3.5976,-1.4655,4.3634,2135
1,0.2817,-0.3579,0.0771,-3.6372,-0.9662,4.3634,2146
1,0.3792,-0.5791,0.1138,-4.0306,-0.6672,4.3634,2153
1,0.4355,-0.5977,-0.1072,-3.3291,-0.2783,4.3634,2159
1,0.3535,-1.0066,0.2742,-2.9701,-0.3107,4.3634,2142
1,1.0117,-1.7734,0.6958,-3.5669,-1.1212,4.3634,2150
1,1.2905,-1.5693,0.7373,-3.8928,-2.8753,4.3634,2129
1,0.9143,-1.301,0.3801,-3.1467,-2.7121,4.3634,2071
1,-0.3594,-2.0,0.168,-3.7697,-1.8578,4.3634,2081
1,-0.0273,-1.9402,-0.5845,-2.55,-0.5112,4.3634,2127
1,0.5518,-1.9294,-0.2036,-1.3284,-0.777,4.3634,2161
1,-0.0259,-1.7161,0.3706,-2.2948,-0.3824,4.2797,2092
1,-0.1118,-1.2666,0.0801,-1.9941,-0.4581,3.1329,2061
1,-0.2556,-1.0181,0.1841,-1.2017,0.9475,1.488,2108
1,0.0481,-0.4631,0.1519,0.1474,1.3484,-0.0314,2034
1,0.313,-0.7041,0.29,0.1908,1.2505,-1.0364,2039
1,0.7056,-0.821,0.0125,0.2242,0.4795,-1.8251,2067
1,-0.5396,-2.0,-1.0293,1.3715,2.2501,-4.3635,2140
1,-1.1445,-1.364,-0.8191,1.3585,1.5599,-4.3635,2066
1,1.8091,-0.616,1.2576,3.1814,-0.2962,-2.8122,2029
1,0.1189,0.5452,1.0415,1.6141,-0.1491,-4.3635,1959
1,-2.0,-0.5046,0.011,1.0039,0.6548,0.2687,1896
1,-1.5947,-2.0,0.1509,0.8632,0.5601,-1.6114,2064
1,0.0728,-0.6465,-0.8955,1.3099,1.2091,-1.8182,2260
1,1.363,-1.2217,0.0134,2.3666,0.8666,-2.1317,2187
1,0.3408,-1.9482,1.0239,2.5714,0.5541,-2.3386,2098
1,0.134,-1.5073,1.0005,2.6606,-1.1258,-2.4583,2064
1,0.4075,-1.3384,1.2305,1.6482,-1.2717,-2.3308,2107
1,0.0371,-0.9189,0.0085,0.4882,-1.5147,-2.3451,2040
1,1.9999,-2.0,-0.6401,-1.2352,-4.0615,-2.9843,2175
1,1.731,-0.7317,-0.5098,-0.1043,-3.9198,-2.0054,2198
1,0.1978,-0.5813,-0.0596,0.6802,-1.9145,-2.5036,1938
1,0.8391,-0.791,-0.2344,-0.1445,-1.3904,-1.8996,2082
1,0.5957,-1.1665,-0.1968,0.253,0.0103,-1.8811,2071
1,0.4634,-0.9177,0.1658,0.3072,0.6409,-1.7711,2118
1,0.0613,-0.2451,-0.0022,0.6086,1.9383,-1.4821,2095
1,-0.0327,0.0493,0.2102,2.4376,2.4663,-0.1634,2020
1,0.408,-1.3584,0.8169,1.044,1.328,-0.365,2092
1,0.395,-1.291,0.4436,0.7821,0.8613,-0.1963,2112
1,0.3826,-1.5161,0.3271,0.6268,0.2368,-0.4358,2146
1,0.2009,-1.5728,0.3074,-0.0127,-0.5111,-0.4671,2124
1,0.1414,-1.2783,0.1162,-0.1264,-0.6509,-0.52,2046
1,0.2468,-1.0515,0.0208,-0.2266,-0.7939,-0.4709,2101
1,0.3376,-0.9468,-0.0259,-0.3333,-0.6923,-0.446,2079
1,0.3042,-0.9548,-0.2495,-0.3508,-0.717,-0.3634,2102
1,0.2368,-0.9565,-0.3206,-0.155,-0.6633,-0.3204,2111
1,0.2261,-0.9521,-0.4019,0.0724,-0.2952,-0.2558,2072
1,0.1614,-0.9714,-0.478,0.2585,-0.019,-0.2209,2154
1,0.04,-0.9888,-0.5232,0.4825,0.1533,-0.1864,2110
1,-0.009,-0.991,-0.3088,0.652,0.2939,-0.2553,2087
1,-0.0474,-0.9802,-0.0173,0.5926,0.2161,-0.3678,2080
1,0.0251,-1.0449,0.1826,0.4315,0.1205,-0.4157,2084
1,0.064,-1.0369,0.2507,0.3002,0.0099,-0.3321,2076
1,0.0017,-1.0161,0.1021,0.3171,-0.1529,-0.2772,2128
2,-0.0503,-1.074,0.0874,0.3301,-0.2855,-0.3027,2112
2,0.0022,-1.0725,0.0461,0.3188,-0.3213,-0.3731,2095
2,-0.011,-1.0176,-0.1621,0.3884,-0.2445,-0.4155,2090
2,0.0071,-0.9683,-0.1375,0.4079,-0.2686,-0.5136,2096
2,0.1282,-0.9617,-0.1843,0.3799,-0.1886,-0.5592,2161
2,-0.0024,-0.9841,-0.0842,0.3912,-0.1923,-0.6243,2067
2,-0.135,-1.0127,-0.0271,0.3911,-0.0844,-0.7477,2075
2,-0.1589,-1.0051,0.0137,0.3614,-0.0478,-0.8874,1960
2,-0.1328,-0.9785,0.0354,0.4217,0.1077,-1.0075,2085
2,0.021,-0.9924,0.0483,0.4731,0.0333,-1.0808,2196
2,0.0354,-1.0198,0.0203,0.5185,0.0441,-1.0987,2326
2,-0.0039,-1.0513,-0.0286,0.6143,0.1044,-1.1259,2106
2,-0.0129,-1.1299,-0.1982,0.6315,0.2152,-1.1857,2066
2,-0.0603,-1.2158,-0.1907,0.6261,0.3553,-1.2403,2082
2,-0.0679,-1.1567,-0.1799,0.6437,0.4261,-1.2826,2136
2,-0.0688,-1.1685,-0.1572,0.65,0.526,-1.3388,2054
2,-0.0039,-1.3284,-0.1133,0.6546,0.609,-1.5034,2216
2,0.0332,-1.3674,-0.0745,0.7321,0.5449,-1.6435,2061
2,0.0173,-1.3374,0.0713,0.763,0.6016,-1.6944,2032
2,-0.1265,-1.2004,0.1396,0.8232,0.4783,-1.8049,2059
2,-0.0659,-1.1672,0.1477,0.9112,0.3129,-1.917,2079
2,0.011,-1.0886,0.1311,1.0532,0.02,-1.978,2049
2,0.0239,-1.1301,0.0686,1.1688,-0.2634,-2.0431,2177
2,-0.0845,-1.2859,-0.021,1.3193,-0.5557,-2.0477,2063
2,-0.052,-1.3914,-0.103,1.4652,-0.7464,-2.0794,2107
2,-0.0369,-1.4697,-0.1604,1.5892,-1.0553,-2.1253,1994
2,-0.5034,-1.6575,-0.4346,1.6009,-1.009,-2.2776,2062
2,-0.7014,-1.6665,-0.3777,1.5901,-0.961,-2.5274,2021
2,-1.0073,-1.7385,-0.3821,1.6819,-0.7793,-2.779,2078
2,-0.6846,-1.6951,-0.3845,1.7869,-0.4669,-2.9975,2092
2,-0.4294,-2.0,-0.3428,1.6767,0.5508,-3.7308,2082
2,-1.929,-1.9106,-0.1721,1.5824,0.7988,-3.8162,2060
2,-1.0493,-2.0,-0.3069,1.2812,0.8517,-3.9017,1996
2,-0.354,-2.0,0.2969,1.5552,1.8851,-4.2198,2086
2,0.6243,-1.3442,0.1504,1.3399,0.3567,-4.123,2127
2,0.0928,-2.0,-0.8464,1.5482,0.0724,-4.3635,2106
2,-0.3677,-2.0,-0.7251,2.0865,0.6327,-4.3635,2090
2,-0.9233,-0.929,-0.2551,2.5224,3.9831,-4.3635,1955
2,-0.7849,-0.6392,-0.1321,3.6003,4.3634,-4.3635,1799
2,0.8582,0.3296,-1.2324,4.3634,4.3634,-3.5934,1947
2,1.9999,-1.0688,0.5781,4.3634,4.3634,-1.594,2168
2,1.9999,-1.1589,1.9387,2.098,4.3634,-2.5493,2258
2,1.9414,-1.0649,1.99,1.1784,3.5193,-1.218,2086
2,1.1345,-0.8303,1.6179,0.0748,1.4082,-0.9629,1833
2,0.937,-0.6804,0.7881,-1.3094,-0.395,0.0554,2078
2,0.7712,-0.3674,0.1003,-2.3047,-0.8943,0.9718,2121
2,0.3862,-0.0813,-0.2354,-2.4514,-0.7779,1.3228,2028
2,0.1484,-0.0417,-0.3037,-2.6705,-0.0827,1.356,2066
2,-0.0029,-0.0439,-0.1814,-2.7678,0.7596,1.8113,2075
2,-0.0667,-0.0542,-0.0505,-2.8859,1.1286,2.4888,1992
2,-0.0396,-0.1982,-0.1362,-2.5634,1.2945,2.3699,1991
2,0.198,-0.2393,-0.071,-2.0716,1.1808,2.2201,1993
2,0.4177,-0.281,0.0784,-1.4885,0.9616,1.951,2053
2,0.5396,-0.3394,0.2817,-1.3707,0.6893,1.9477,2154
2,0.5835,-0.3269,0.4932,-1.7076,0.0855,2.2453,2084
2,0.6633,-0.2585,0.5513,-2.2555,-0.3714,2.6964,1989
2,0.6895,-0.1858,0.5718,-2.8059,-0.8122,3.0906,2045
2,0.7131,-0.1204,0.6018,-3.3923,-1.4094,3.6315,2060
2,0.5977,-0.103,0.594,-4.0853,-1.9847,4.0162,2066
2,0.5081,-0.1316,0.5012,-4.3635,-2.4542,4.3522,2078
2,0.4299,-0.0049,0.3276,-4.3635,-2.7614,4.3634,2099
2,0.3459,-0.041,0.189,-4.3635,-2.8307,4.3634,2169
2,0.281,-0.0706,0.0835,-4.3635,-2.7149,4.3634,2121
2,0.2607,-0.1587,0.0186,-4.3635,-2.4725,4.3634,2164
2,0.2864,-0.219,0.0354,-4.3635,-1.945,4.3634,2162
2,0.3323,-0.3577,0.0505,-4.1632,-1.3719,4.3634,2171
2,0.4998,-0.5537,0.1389,-4.2013,-0.919,4.3634,2122
2,0.7278,-0.939,0.2839,-4.3635,-0.8227,4.3634,2142
2,1.0581,-1.0933,0.1321,-3.8233,-1.1203,4.3634,2146
2,0.8623,-1.0034,0.4314,-3.9439,-1.2877,4.3634,2157
2,0.8887,-1.6196,0.7131,-4.3635,-2.7,4.3634,2122
2,0.1938,-1.23,0.3647,-4.1667,-2.7849,4.3634,2125
2,0.0122,-2.0,-0.0244,-3.4362,-1.3296,4.3634,2121
2,-1.377,-2.0,-0.1453,-4.088,0.344,4.3634,2143
2,1.3711,-1.2769,-0.4546,-0.7455,0.8147,4.3634,2093
2,1.4729,-2.0,0.1692,-1.6483,0.5991,4.3634,2175
2,-0.5046,-1.4192,0.5598,-1.7807,-0.5743,2.9641,2096
2,-0.8542,-1.1912,0.1687,-1.517,0.4197,1.1842,2060
2,-0.0725,-0.5183,0.3547,-0.9772,0.9692,0.7328,2042
2,0.0498,-0.1411,0.5217,0.0647,0.4617,-0.1157,2104
2,0.4385,-0.7263,0.3682,0.2565,0.6605,-1.6633,2049
2,-0.8101,-2.0,-1.103,1.6355,2.7241,-4.3635,2087
2,-0.9514,-1.9922,-0.3999,1.5154,-0.4149,-4.3635,2088
2,1.9999,-0.4529,1.1455,4.2829,-1.5089,-2.1656,2093
2,-0.2449,-0.0703,0.8279,1.4195,-2.3474,-4.3635,2025
2,-2.0,-1.1121,-0.2112,0.1886,-0.4176,-0.441,1876
2,-1.3572,-2.0,-0.0383,1.3749,-1.2905,-1.0315,2074
2,0.0127,-0.2573,-0.8494,1.2876,0.2709,-1.5716,2223
2,0.9626,-1.2261,0.0864,2.1683,0.7276,-1.9644,2157
2,0.7017,-1.7876,0.6497,2.0965,0.0546,-2.3172,2082
2,0.438,-1.5027,1.271,2.2173,-0.7779,-2.2846,2065
2,-0.2791,-1.4602,0.8787,1.2335,-0.4803,-2.3623,2070
2,1.2102,-2.0,-0.4548,-0.7241,-2.5133,-2.6579,2113
2,1.9999,-1.4834,-0.6152,-0.9702,-4.3635,-2.1929,2200
2,0.3076,-0.1951,-0.4402,0.9786,-1.0127,-2.6485,2045
2,1.2502,-0.8501,-0.3872,0.4288,-2.012,-2.1545,2065
2,0.2461,-0.9473,-0.1843,0.3842,-0.0333,-1.9105,2142
3,0.5107,-1.0996,0.1724,0.6693,0.1096,-1.8839,2108
3,0.3398,-0.7849,0.2112,0.7179,1.2738,-1.7701,2153
3,0.1609,-0.1616,0.1721,1.8068,2.0056,-1.0419,2075
3,0.5176,-0.7463,0.6377,1.5338,1.64,-0.4601,2065
3,0.4207,-1.2856,0.6477,0.306,0.3052,-0.1918,2084
3,0.3054,-1.1846,0.312,0.4428,0.233,-0.171,2073
3,0.1587,-1.3389,0.1531,0.0466,-0.5249,-0.3907,2166
3,0.0991,-1.363,-0.0381,-0.4338,-0.9722,-0.5152,2103
3,0.2126,-1.1348,-0.0779,-0.1843,-0.6714,-0.5179,2173
3,0.2432,-1.0088,-0.0808,-0.0471,-0.4233,-0.4866,2032
3,0.1777,-1.0305,-0.0938,-0.2016,-0.4466,-0.448,2087
3,0.2231,-0.967,-0.249,-0.1724,-0.3726,-0.4168,2138
3,0.2344,-0.9351,-0.3254,-0.0225,-0.2365,-0.449,2105
3,0.1726,-0.9543,-0.373,0.0989,-0.0786,-0.3591,2096
3,0.104,-0.9944,-0.3618,0.2372,0.1621,-0.3302,2096
3,0.0603,-0.9934,-0.3242,0.3436,0.4232,-0.342,2071
3,0.0034,-0.9656,-0.1785,0.4638,0.3956,-0.396,2161
3,0.0051,-0.9675,-0.0049,0.4838,0.4458,-0.4072,2168
3,-0.0784,-1.0913,0.1267,0.2742,0.2432,-0.416,2054
3,0.0178,-1.0576,0.1416,0.1585,0.0221,-0.3296,2092
3,0.0723,-1.042,0.0137,0.1776,-0.0866,-0.3334,2168
3,-0.009,-1.0117,-0.1145,0.3037,-0.2529,-0.4147,2094
3,-0.033,-1.0166,-0.1057,0.3193,-0.2818,-0.5,2087
3,0.011,-0.9988,-0.1589,0.3259,-0.2951,-0.4557,2059
3,-0.0122,-1.0076,-0.175,0.2787,-0.1432,-0.3535,2120
3,-0.105,-1.0471,-0.1482,0.1786,-0.0615,-0.3361,2042
3,0.0808,-1.0764,-0.0151,-0.145,0.2306,-0.1422,2022
3,0.0425,-1.0378,-0.0696,-0.0551,0.2354,-0.4707,2064
3,0.0203,-0.981,-0.0803,0.1246,0.0473,-0.6766,2182
3,-0.0112,-0.9758,-0.0146,0.1344,-0.0337,-0.8047,2064
3,0.0063,-0.968,-0.0164,0.1642,-0.1261,-0.8863,2308
3,0.0366,-0.9778,-0.0669,0.2277,-0.2025,-0.969,2040
3,-0.0281,-1.0586,-0.1006,0.3528,-0.1412,-1.0941,2054
3,-0.0332,-1.0376,-0.1599,0.5172,-0.2429,-1.1978,2067
3,-0.0601,-1.0359,-0.2002,0.6223,-0.0647,-1.2829,2159
3,-0.0125,-0.9888,-0.1858,0.7236,-0.0402,-1.332,2116
3,0.0171,-0.9941,-0.1423,0.742,0.0513,-1.3861,2111
3,-0.0178,-1.1052,-0.1677,0.726,0.0976,-1.4733,2150
3,-0.0967,-1.3091,-0.1174,0.6581,0.1826,-1.4917,2115
3,-0.1086,-1.2844,-0.0686,0.72,0.2723,-1.585,2114
3,0.0227,-1.2817,0.0278,0.7055,0.3284,-1.7209,1981
3,-0.0537,-1.3057,0.02,0.5582,0.3563,-1.7532,2117
3,0.2122,-1.1562,-0.0447,0.7002,0.0791,-1.7628,2008
3,0.3223,-1.2495,0.0972,0.7931,0.0123,-1.7737,2014
3,0.1294,-1.2671,-0.0562,0.8653,-0.1198,-1.7539,2144
3,0.0701,-1.3237,-0.0676,0.9449,-0.1197,-1.8319,2184
3,0.229,-1.4189,-0.0889,1.0387,-0.1898,-1.8108,2052
3,0.1416,-1.4702,-0.1003,1.1254,-0.2959,-1.8229,2071
3,-0.0066,-1.4265,-0.1252,1.2192,-0.518,-1.9873,2069
3,-0.1206,-1.4697,-0.2383,1.187,-0.8194,-2.2362,2081
3,-0.6121,-1.6343,-0.4497,1.2355,-0.5629,-2.1338,2050
3,-1.0957,-1.4507,-0.271,1.3617,-0.4741,-2.434,2090
3,-1.0095,-1.4897,-0.4011,1.6317,0.0591,-2.6417,2032
3,-0.667,-1.6348,-0.2112,1.4609,0.7783,-2.6482,2043
3,-0.7881,-1.5503,-0.2444,1.7357,0.7558,-3.209,2031
3,-0.8232,-1.7888,-0.2012,1.5997,0.7835,-2.8765,2069
3,-1.2839,-2.0,-0.3118,1.3256,1.0095,-3.6505,2089
3,-1.1538,-2.0,-0.0295,1.2844,2.0586,-3.7673,2088
3,0.6013,-1.1704,0.2351,0.9238,1.6588,-2.9096,2100
3,0.1833,-2.0,-0.7112,1.2834,0.5895,-4.3635,2189
3,-1.3071,-2.0,-0.3772,2.2281,2.4128,-4.3635,2042
3,0.2773,-1.2725,-0.1968,2.3772,3.6523,-4.3635,2029
3,0.5027,0.3059,0.179,4.2523,4.3634,-3.6254,1947
3,-1.0093,-0.1873,-0.9399,4.3634,2.9714,-4.3635,2092
3,1.9999,-1.4021,-0.3127,4.1313,3.3876,-1.6957,2045
3,1.9999,-1.4092,1.5718,1.975,4.3634,-2.4924,2113
3,1.801,-1.2915,1.6646,0.9328,4.3634,-1.6319,2063
3,0.8462,-0.7986,1.582,0.2581,3.5299,-1.6169,1908
3,0.627,-0.5088,1.0154,-0.6046,1.2862,-0.481,2139
3,0.8921,-0.5457,0.3176,-1.4518,0.2902,0.6389,2144
3,0.7029,-0.4243,-0.0601,-2.106,-0.7557,1.0757,2093
3,0.2478,-0.2622,-0.2051,-2.9751,-0.5578,1.1832,2040
3,0.1057,-0.1477,-0.2251,-3.2447,0.5161,1.5494,2027
3,-0.0027,-0.1575,-0.1189,-3.3075,1.3161,2.1992,2070
3,-0.0144,-0.2783,-0.2024,-2.9088,1.7578,2.2378,1994
3,0.1624,-0.248,-0.0701,-2.4205,1.6882,2.2862,2049
3,0.3594,-0.26,0.0471,-1.7705,1.2019,2.213,2063
3,0.5686,-0.4106,0.2849,-1.4893,0.9218,2.1238,2111
3,0.7358,-0.4712,0.6052,-1.8908,0.1824,2.3764,2084
3,0.7288,-0.3279,0.7053,-2.5243,-0.4698,2.7837,2086
3,0.6968,-0.2327,0.6357,-3.0998,-1.1142,3.2545,2060
3,0.6787,-0.1948,0.6123,-3.8362,-1.8201,3.8925,2074
3,0.5266,-0.1353,0.5486,-4.3635,-2.2383,4.2599,2088
3,0.4067,-0.0776,0.3774,-4.3635,-2.4663,4.3634,2097
3,0.3193,-0.0952,0.2366,-4.3635,-2.6298,4.3634,2142
3,0.3386,-0.1582,0.137,-4.3635,-2.7099,4.3634,2140
3,0.3159,-0.2122,0.0803,-4.3635,-2.6754,4.3634,2173
3,0.3123,-0.3167,0.0146,-4.2809,-2.2137,4.3634,2132
3,0.3452,-0.3904,0.0889,-4.0917,-1.7109,4.3634,2134
3,0.4612,-0.5022,0.155,-4.2037,-1.2271,4.3634,2157
3,0.5239,-0.6692,0.1562,-4.3635,-1.0957,4.3634,2145
3,0.5518,-0.6108,-0.1128,-3.4093,-1.3761,4.3634,2169
3,0.636,-1.043,0.4182,-3.2055,-1.5581,4.3634,2185
3,1.0164,-1.6584,0.8662,-4.0933,-2.4545,4.3634,2130
3,0.9187,-1.3979,0.7373,-4.361,-3.4737,4.3634,2146
3,-0.5261,-1.3274,0.2263,-4.3531,-2.1242,4.3634,2039
3,0.0962,-2.0,-0.3164,-2.9576,-2.1122,4.3634,2155
3,0.9302,-2.0,-0.2319,-2.0656,-0.6746,4.3634,2195
3,0.5828,-1.7705,-0.1792,-1.7687,0.0947,4.3634,2149
3,-0.0515,-1.4033,0.0627,-1.5725,-0.5043,3.9634,2139
3,-0.2944,-1.3413,0.1038,-1.4099,-0.002,2.5325,2096
3,-0.2922,-1.2515,0.344,-1.3408,1.0561,0.83,2063
3,0.0229,-0.4463,0.2527,-0.2258,0.9692,0.2816,2067
4,0.2686,-0.5176,0.3452,-0.0031,1.2629,-0.9806,2012
4,0.8445,-0.6831,-0.0388,0.0642,0.7102,-2.0333,2047
4,-0.7053,-2.0,-0.8149,1.9881,2.2675,-4.3635,2090
4,0.1248,-1.5227,-1.0615,1.9659,1.3849,-4.3635,2084
4,1.937,-0.9062,0.699,2.9381,-1.7725,-2.6143,2086
4,0.1587,1.0991,1.085,1.591,-0.1916,-4.3635,1948
4,-2.0,-0.7026,-0.2153,0.267,2.9484,0.9204,1958
4,-0.8301,-1.8606,0.1709,1.2633,-0.5687,-1.0292,2077
4,0.2136,-0.595,-0.6196,0.9796,1.9469,-1.3559,2191
4,0.7615,-1.668,0.2273,1.8025,1.2537,-1.5542,2097
4,0.406,-1.8142,0.4773,1.9805,0.2456,-2.3137,2097
4,0.4121,-1.9048,1.3254,2.1043,-0.634,-2.4806,2030
4,0.0879,-1.4932,0.6807,1.0315,-0.3421,-2.1347,2009
4,1.8274,-2.0,-0.7302,-0.8733,-2.9452,-2.7872,2135
4,1.4937,-0.7881,-0.5984,-0.5344,-4.1242,-2.2924,2163
4,0.3281,-0.1667,-0.2961,0.702,-0.8094,-2.7307,2002
4,0.4163,-1.0154,-0.3076,0.3804,-1.6607,-2.1345,2100
4,0.7195,-0.9307,-0.3513,-0.0156,0.2432,-2.2088,2091
4,0.5037,-0.9514,0.0217,0.2808,0.8308,-2.0941,2115
4,0.4058,-0.4956,0.0374,0.7216,1.5158,-1.984,2097
4,0.3472,-0.1001,0.1787,2.0503,1.9445,-0.7237,2083
4,0.4695,-0.9519,0.7749,1.1242,1.0913,-0.4568,2065
4,0.415,-1.1497,0.3926,0.5582,0.8144,0.0202,2079
4,0.2129,-1.3105,0.2185,0.8472,0.349,-0.1265,2091
4,0.1206,-1.5691,0.2761,0.1224,-0.7196,-0.3707,2105
4,0.0989,-1.3555,0.1074,-0.1386,-0.7241,-0.5946,2064
4,0.1438,-1.1167,0.0208,-0.031,-0.5156,-0.7087,2083
4,0.2471,-1.0176,-0.0146,-0.1401,-0.5167,-0.7062,2100
4,0.3293,-0.9326,-0.1089,-0.157,-0.5908,-0.6163,2046
4,0.312,-0.9717,-0.2151,-0.1388,-0.7232,-0.5047,2101
4,0.365,-0.9417,-0.2998,0.0754,-0.4871,-0.3926,2052
4,0.2839,-0.9792,-0.3701,0.1776,-0.0991,-0.318,2106
4,0.2107,-0.9788,-0.3962,0.3208,0.2139,-0.2646,2143
4,0.1794,-0.9705,-0.3472,0.4196,0.3393,-0.1719,2110
4,0.2043,-0.9099,-0.2095,0.5525,0.6205,-0.1021,2091
4,0.1804,-0.9553,-0.0984,0.4697,0.4646,-0.1208,2112
4,0.1118,-0.9875,0.0859,0.3421,0.1922,-0.1681,2106
4,0.1155,-1.0684,0.188,0.1976,0.1238,-0.0533,2102
4,0.0337,-1.0891,0.0342,0.1145,-0.0824,0.0341,2164
4,-0.1011,-1.0596,-0.1101,0.1907,-0.1309,-0.1025,2038
4,-0.2588,-1.0691,-0.1821,0.3918,0.0445,-0.3268,2148
4,-0.1328,-1.0503,-0.104,0.3625,-0.1782,-0.3763,2101
4,-0.0574,-1.0901,-0.1638,0.2201,0.1164,-0.4787,2142
4,-0.3257,-1.0769,-0.1836,0.1186,0.4385,-0.6413,2106
4,-0.2908,-0.9956,-0.158,0.1493,0.1349,-0.7846,2117
4,-0.2039,-0.8628,-0.1553,0.14,0.2871,-0.7967,2143
4,0.124,-0.8501,-0.2502,0.0575,0.1364,-0.551,2091
4,0.0601,-0.9712,-0.0713,0.1392,0.0916,-0.8273,2111
4,-0.0515,-1.0095,-0.1538,0.2791,-0.1163,-1.0794,2167
4,-0.0969,-1.0017,-0.155,0.3892,0.028,-1.2207,2127
4,-0.1089,-1.0156,-0.1565,0.502,0.1449,-1.4071,2040
4,-0.1704,-1.0391,-0.1755,0.6066,0.3701,-1.6175,2039
4,-0.1379,-1.0403,-0.1311,0.5795,0.5152,-1.7358,2121
4,0.075,-0.8767,-0.1318,0.7841,0.3766,-1.6237,2196
4,0.1016,-1.0295,-0.0381,0.726,0.206,-1.5653,1998
4,0.1179,-1.1462,0.0588,0.6755,0.2221,-1.5809,2053
4,0.0073,-1.2041,0.0984,0.6837,0.1087,-1.6081,2023
4,0.2383,-1.1716,0.0684,0.7613,-0.033,-1.606,2147
4,0.1333,-1.2141,0.1125,0.726,-0.1931,-1.6621,2085
4,0.1978,-1.1711,-0.0559,0.7917,-0.3657,-1.7542,2022
4,0.1196,-1.2529,-0.1917,0.8421,-0.3847,-1.8394,2095
4,0.2314,-1.3335,-0.0786,0.9108,-0.4658,-1.9409,2075
4,0.2068,-1.395,-0.0757,0.9395,-0.2939,-1.8832,2066
4,0.1875,-1.3909,-0.0601,0.9704,-0.1981,-1.9805,2076
4,0.1533,-1.4885,-0.0825,0.9812,0.0294,-2.058,2141
4,0.0959,-1.4871,-0.1353,1.03,-0.0882,-2.0956,2051
4,0.0093,-1.5386,-0.22,1.0561,-0.3469,-2.1759,2054
4,-0.1584,-1.3735,-0.0828,1.1158,-0.5659,-1.5984,2013
4,-0.575,-1.5005,-0.1379,1.2615,-0.559,-2.0454,2102
4,-0.9683,-1.3242,-0.3401,1.5299,-0.5185,-2.602,2018
4,-1.2236,-1.0693,-0.2891,1.7138,0.0282,-2.9552,2126
4,-1.2117,-1.6299,-0.301,1.6462,0.4807,-3.2126,2136
4,-1.05,-1.7485,-0.1992,1.8692,1.2105,-3.3571,2052
4,-0.8401,-1.7905,-0.2041,1.6675,0.7335,-3.3702,2060
4,-1.3474,-2.0,-0.1582,1.6353,0.9417,-4.2225,2038
4,-1.2471,-2.0,-0.0847,1.5097,1.7157,-4.3222,2041
4,0.9592,0.5212,0.136,3.1096,0.0474,-3.2384,2103
4,0.2188,-2.0,-0.8738,0.8163,1.6878,-4.3635,2133
4,0.6089,-2.0,-0.5479,2.9287,2.184,-4.3635,2045
4,0.7046,-1.9839,0.4768,2.5774,2.8488,-4.3635,1956
4,0.2314,-0.3489,-0.1648,4.0919,2.6798,-4.3635,1927
4,-2.0,0.3655,-1.1589,4.3634,0.7247,-4.3635,1974
4,1.9999,-2.0,-0.4565,4.1976,2.7247,-1.6346,2060
4,1.9999,-1.262,1.8093,1.7369,4.3634,-1.7917,2187
4,1.9999,-1.0735,1.9114,0.6983,4.3634,-1.2553,2076
4,0.8938,-0.4937,1.583,0.9413,3.9399,-1.5279,1807
4,1.072,-0.7908,1.1177,-0.4223,0.7645,0.055,2052
4,1.3916,-0.7678,0.3132,-2.0506,-0.2341,1.7781,2100
4,1.0469,-0.3738,-0.1658,-3.0095,-1.3322,2.3162,2097
4,0.4998,-0.0823,-0.3672,-3.5276,-0.8712,2.3258,2062
4,0.301,0.0461,-0.3098,-3.2278,0.5496,2.903,2039
4,0.2568,0.0405,-0.1267,-3.1083,1.4502,3.6411,2057
4,0.3921,-0.1189,-0.0461,-3.1001,1.6242,3.862,2101
4,0.418,-0.0039,0.1184,-2.7117,0.8548,4.2999,2061
4,0.4629,-0.0776,0.3132,-2.2814,0.3832,4.1707,2084
4,0.4121,-0.2571,0.4683,-2.3579,-0.0863,3.8426,2075
4,0.3862,-0.3564,0.4646,-2.6337,-0.6809,3.8757,2062
4,0.3906,-0.2461,0.4482,-3.0767,-0.9794,4.3061,2065
5,0.5667,-0.0906,0.397,-3.8115,-1.2565,4.3634,2082
5,0.407,0.0789,0.3164,-4.1686,-1.5205,4.3634,2139
5,0.2532,0.04,0.2478,-4.3635,-1.5735,4.3634,2136
5,0.2163,-0.1453,0.1309,-4.3635,-1.8825,4.3634,2150
5,0.3169,-0.1951,0.0796,-4.3635,-1.8507,4.3634,2146
5,0.408,-0.1594,0.0142,-4.2599,-1.5894,4.3634,2181
5,0.4541,-0.2354,-0.0059,-3.9779,-1.3114,4.3634,2129
5,0.438,-0.3535,0.0186,-3.8246,-0.9115,4.3634,2137
5,0.49,-0.6299,0.1208,-3.7358,-0.6839,4.3634,2161
5,0.6472,-0.8647,0.1179,-3.403,-1.0381,4.3634,2168
5,0.8115,-1.0525,0.4517,-2.9795,-1.8706,4.3634,2221
5,1.2109,-1.5686,0.9224,-3.6407,-3.0705,4.3634,2125
5,0.8628,-1.1729,0.6699,-3.7932,-3.9428,4.3634,2129
5,0.3499,-1.2898,0.1096,-3.0385,-4.3438,4.3634,2083
5,-0.407,-1.9766,-0.0522,-3.0367,-3.4172,4.3634,2139
5,-0.3572,-2.0,-0.061,-2.5685,-1.3045,4.3634,2119
5,0.6042,-1.8994,-0.2539,-2.0644,-0.8036,4.3634,2157
5,0.009,-1.2529,-0.1411,-2.2141,-0.5107,4.3634,2074
5,-0.2371,-1.1692,0.4485,-2.6956,0.0236,3.6033,2138
5,0.1199,-0.79,0.2678,-1.2344,0.6851,2.0995,2051
5,-0.1038,-0.7773,-0.3069,-0.9248,-0.038,1.1623,2041
5,-0.532,-0.8215,-0.624,0.0449,0.9228,-0.5976,2006
5,0.3579,-0.6929,-0.4121,0.7874,1.8422,-2.1019,2108
5,0.8972,-0.6704,-0.0837,1.4402,2.5056,-3.3444,2095
5,1.0164,-0.9077,0.3745,1.5616,2.3233,-4.1769,2088
5,0.3638,-0.6938,-0.6292,4.3634,2.706,-4.3635,2092
5,-2.0,-2.0,1.0593,1.7856,-0.4631,-4.3635,1990
5,1.7883,-1.3149,1.9999,0.5458,1.4191,-4.3635,2030
5,-2.0,1.4185,0.688,-1.2427,1.1013,2.8359,1879
5,-2.0,-2.0,-0.3538,1.9137,0.9489,-2.1129,2064
5,1.5535,-2.0,-0.5344,3.646,-0.8127,0.1794,2309
5,0.6133,-2.0,0.3301,3.4886,-0.7003,-1.5416,2168
5,-0.0732,-1.8501,1.9092,3.3846,-3.3564,-3.3312,2053
5,-0.48,-2.0,1.9999,1.6633,-2.1599,-3.6593,1995
5,-0.8555,-0.9365,-0.0173,0.7509,-1.8335,-3.2894,1988
5,1.9999,-2.0,-0.9919,-3.3455,-4.3635,-4.1863,2318
5,1.9999,0.6995,-1.5322,-0.4093,-3.9719,-3.3202,2098
5,1.2983,-0.127,-1.0852,-0.2104,-3.4409,-2.7003,1931
5,-0.5369,-0.5601,-0.2095,0.1521,-1.1567,-2.0984,1992
5,1.7188,-0.895,-0.7615,-0.2115,1.6992,-2.6805,2090
5,1.1296,-1.2588,-0.1025,-0.2835,2.6272,-2.0001,2171
5,0.2861,-0.5051,0.0122,-0.0988,3.0949,-2.0482,2063
5,0.0935,-0.2512,0.0239,1.5392,2.5021,-2.4639,2107
5,0.6887,0.3943,0.3418,2.7197,2.1762,-0.8388,2125
5,0.3958,-1.2126,0.9087,0.4223,1.344,0.6911,2098
5,-0.0266,-1.4814,0.5947,1.0804,0.5352,0.3414,1995
5,0.1033,-1.8928,0.384,0.1583,-0.477,0.0226,2072
5,0.1194,-1.3899,0.3406,-0.2129,-0.8962,-0.3476,2119
5,0.4429,-1.0845,0.2661,-0.5148,-0.9572,-0.51,2088
5,0.4702,-0.9683,0.0598,-0.6078,-1.1093,-0.2498,2089
5,0.4167,-1.0393,-0.281,-0.4213,-0.9341,-0.045,2063
5,0.2661,-1.0032,-0.3743,-0.0642,-0.6731,-0.051,2134
5,0.2351,-0.9678,-0.3357,0.1722,-0.19,0.0224,2099
5,0.0815,-0.9102,-0.6807,0.4318,0.5755,0.0963,2075
5,-0.0625,-0.9731,-0.7393,0.7224,0.6609,-0.0241,2092
5,-0.0396,-0.9897,-0.209,0.677,0.3121,-0.1163,2137
5,0.0168,-1.0439,0.1248,0.6146,0.575,-0.1147,2088
5,-0.0066,-0.9636,0.0281,0.4165,0.2111,-0.1706,2125
5,0.0312,-1.0042,0.1658,0.3907,-0.0655,-0.1658,2194
5,-0.0696,-1.033,0.1699,0.4275,0.0146,-0.1562,2061
5,-0.1477,-1.0925,0.0833,0.4701,-0.2526,-0.2161,2157
5,-0.1504,-1.0872,-0.0374,0.4757,-0.202,-0.3354,2083
5,-0.1321,-1.0273,-0.2222,0.4398,-0.1642,-0.4607,2056
5,-0.1125,-1.0071,-0.1111,0.448,-0.0136,-0.5493,2066
5,0.0281,-0.98,0.0491,0.3638,-0.0836,-0.5955,2078
5,-0.0029,-1.0137,0.1575,0.2822,-0.1306,-0.6723,2085
5,0.0039,-1.04,0.271,0.2272,-0.1754,-0.7492,2075
5,-0.0718,-1.0479,0.2195,0.2597,-0.1176,-0.8738,2065
5,-0.0771,-1.0393,0.1062,0.306,-0.2679,-0.9969,2076
5,-0.113,-1.0259,-0.0706,0.3757,-0.2416,-1.0694,2017
5,-0.1316,-0.9497,-0.1892,0.4826,-0.3225,-1.14,2173
5,-0.2261,-0.8923,-0.2551,0.5335,-0.2863,-1.2475,2075
5,-0.406,-0.8723,-0.3235,0.6387,-0.1958,-1.3889,2196
5,-0.335,-1.0381,-0.2986,0.7859,0.0289,-1.6006,1961
5,-0.2864,-1.2405,-0.207,0.8425,0.3962,-1.7868,2041
5,-0.2319,-1.3528,-0.1558,0.8926,0.7445,-1.9634,2186
5,-0.1301,-1.3374,-0.0923,0.8658,0.9155,-1.9281,2029
5,-0.0605,-1.3606,-0.0271,0.87,0.8649,-1.8269,2001
5,0.0857,-1.3315,0.0989,1.0882,0.5944,-1.8892,2051
5,0.2168,-1.4426,0.1191,1.2375,0.4405,-1.917,2119
5,-0.0034,-1.4082,0.0977,1.3609,0.1413,-1.9785,2088
5,-0.0359,-1.3831,-0.0337,1.5049,-0.0142,-1.9638,2089
5,-0.1313,-1.4612,-0.0488,1.6743,-0.1539,-1.9911,2068
5,-0.2202,-1.4617,-0.1843,1.7599,-0.231,-2.1373,2066
5,-0.3088,-1.5105,-0.2153,1.8664,-0.4959,-2.3113,2107
5,-0.5105,-1.5237,-0.29,1.9366,-0.7504,-2.4677,2076
5,-0.5168,-1.4771,-0.2139,1.9853,-1.3169,-2.6326,2065
5,-0.9351,-1.7722,-0.1641,1.9349,-1.1551,-2.9197,2064
5,-0.5518,-1.5503,-0.2148,2.2651,-1.5149,-3.2433,2101
5,-0.4778,-2.0,0.0017,2.0679,-0.0545,-3.9161,2147
5,-2.0,-2.0,-0.1274,1.7255,0.1017,-4.2417,2015
5,-0.9338,-1.9819,-0.3174,1.2383,0.3469,-4.2892,2015
5,-0.5923,-1.7222,0.0125,1.4435,0.6343,-4.3635,2060
5,-0.3193,-2.0,-0.7346,1.5258,0.034,-4.3635,2040
5,0.2834,-2.0,-0.969,1.9644,0.5647,-4.3635,2140
5,0.2688,-1.9395,-0.3967,2.3719,1.4988,-4.2278,2099
5,-1.6995,-1.1934,-0.0808,3.1978,4.3634,-4.1394,2013
5,-1.3882,-0.2593,-0.7937,2.423,2.1145,-4.3635,1980
5,1.9999,-0.7769,-0.4094,4.3634,3.5155,-2.9349,1828
5,1.9999,-1.0183,0.8159,4.3634,4.3634,-2.0612,2267
5,1.8489,-1.3269,1.9758,1.9108,4.3634,-2.7775,2105
5,1.8513,-0.7803,1.9999,0.8783,1.8409,-0.9917,1951
5,0.8677,-0.8215,1.1121,-1.1792,0.1238,-0.2557,1871
5,0.6643,-0.6299,0.1262,-1.6334,-1.3102,0.4091,2156
5,0.5239,-0.282,-0.2119,-2.2808,-1.4375,1.1523,2056
5,0.1917,-0.1245,-0.3669,-2.5127,-0.3842,1.1669,2058
5,0.0098,0.0652,-0.2151,-2.9897,0.5682,2.229,2082
5,-0.0344,-0.0183,-0.1311,-2.9022,1.4998,2.4852,2107
6,0.1628,-0.208,0.033,-3.0845,1.5118,2.8869,2066
6,0.1985,-0.3889,0.0264,-2.7301,1.3451,2.5136,2075
6,0.2878,-0.3472,0.1162,-1.9556,1.3636,2.2186,2104
6,0.4258,-0.1001,0.2893,-2.0678,0.8315,2.2868,2072
6,0.6345,-0.093,0.3882,-1.9937,0.2033,2.1814,2083
6,0.6082,-0.3596,0.5386,-2.2047,-0.2352,2.3631,2164
6,0.5759,-0.3418,0.541,-2.8782,-0.7048,2.7876,2072
6,0.5469,-0.2817,0.5437,-3.7767,-1.133,3.3576,2066
6,0.5244,-0.1311,0.4763,-4.3635,-1.4759,3.9261,2091
6,0.436,-0.0276,0.3938,-4.3635,-1.6808,4.272,2072
6,0.3604,-0.0508,0.281,-4.3635,-1.8801,4.3634,2152
6,0.3206,-0.0913,0.1831,-4.3635,-1.862,4.3634,2149
6,0.2998,-0.1328,0.134,-4.3635,-1.7325,4.3634,2137
6,0.3213,-0.2053,0.1272,-4.3635,-1.5122,4.3634,2162
6,0.3779,-0.3047,0.1494,-4.3635,-1.1513,4.3634,2172
6,0.4607,-0.3965,0.2036,-4.3635,-0.9604,4.3634,2170
6,0.5515,-0.6335,0.2974,-4.3635,-0.8841,4.3634,2164
6,0.7915,-0.9314,0.3408,-4.3635,-1.0369,4.3634,2166
6,0.7854,-0.8752,0.2737,-4.1977,-1.5166,4.3634,2182
6,1.0066,-1.3262,0.5481,-4.3635,-1.9837,4.3634,2200
6,1.2087,-1.7153,0.8308,-4.3635,-3.0348,4.3634,2175
6,0.3845,-1.1609,0.5737,-4.3635,-3.6786,4.3634,2040
6,0.0837,-2.0,-0.0564,-4.2482,-2.3646,4.3634,2116
6,-0.9636,-0.2148,-1.1355,-3.2191,-0.0676,4.3634,2097
6,1.9999,-1.7319,-0.1543,-0.844,-0.7874,4.3634,2175
6,1.5549,-2.0,-0.0635,-1.8518,-1.4199,4.3634,2202
6,-1.0061,-1.532,0.0203,-2.551,-1.1877,2.3362,2060
6,-0.6055,-1.0847,0.0615,-2.0467,0.5799,1.4388,2033
6,0.3049,-0.4485,0.4131,-0.6963,-0.8809,0.7606,2073
6,-0.4077,-0.1785,0.5396,-0.7275,0.7235,-0.8122,2059
6,0.187,-0.7339,-0.5024,0.2,0.345,-2.0276,2033
6,-0.0586,-2.0,0.1897,0.0031,0.9188,-4.0346,2079
6,0.2827,-0.6858,0.1914,2.8096,1.4442,-4.3635,2136
6,0.6155,-2.0,0.0427,1.3715,-0.3835,-4.3635,2117
6,1.9104,-0.804,1.9999,1.1852,-3.6162,-4.3635,2033
6,-2.0,0.4087,0.6511,0.2816,-3.1232,-0.711,1895
6,-2.0,-2.0,-0.1099,0.9902,-0.6741,-0.7295,2049
6,-0.635,-0.4417,-0.7424,0.8142,-0.2185,-0.7733,2210
6,0.959,-1.4175,-0.3535,1.4272,0.8477,-1.4528,2142
6,0.2974,-2.0,0.3738,2.335,-0.744,-2.7346,2123
6,-0.1023,-2.0,1.4734,2.3553,-0.9487,-2.6231,2092
6,-0.6633,-1.1467,0.5813,1.5414,0.0208,-2.7474,1984
6,1.7603,-2.0,-0.4924,-0.6825,-3.0737,-3.4669,2098
6,1.9999,-1.1379,-0.7517,-0.4133,-4.2092,-2.5587,2236
6,0.1685,0.3247,-0.7073,0.9862,-1.1002,-2.9313,1953
6,0.0786,-0.9558,-0.3911,1.1564,-2.1142,-2.5502,2027
6,1.011,-0.9663,-0.3135,0.4689,0.4428,-2.6125,2120
6,0.7041,-1.0139,0.3391,0.5444,0.993,-2.726,2197
6,0.3406,-0.5476,0.3708,0.2759,1.9719,-2.3997,2048
6,0.584,0.0728,0.1067,1.8427,1.7452,-1.3913,2113
6,0.7031,-0.541,0.8889,1.3717,1.2125,-0.1045,2028
6,0.5044,-1.1648,0.4836,0.0802,0.1836,0.3454,2098
6,0.3486,-1.4375,0.0803,0.6027,-0.3252,-0.0228,2059
6,0.1814,-1.6821,0.2324,0.2497,-1.024,-0.4763,2175
6,0.0186,-1.3188,0.05,0.1269,-0.5823,-0.4992,2064
6,0.1177,-1.1394,-0.0486,0.0368,-0.3994,-0.5115,2096
6,0.3804,-0.9863,-0.075,0.0017,-0.3807,-0.5446,2164
6,0.4807,-0.9524,-0.0352,-0.0985,-0.6383,-0.5378,2060
6,0.3616,-0.8708,-0.2021,-0.0951,-0.4457,-0.241,2079
6,0.167,-0.9934,-0.2974,0.0912,-0.4067,-0.1806,2144
6,0.1467,-0.9778,-0.5012,0.2332,-0.0004,-0.133,2140
6,-0.0571,-0.9536,-0.5952,0.5364,0.4806,-0.2875,2088
6,-0.0676,-0.9558,-0.249,0.5815,0.4565,-0.5192,2057
6,0.1375,-1.0286,0.0305,0.4113,0.418,-0.4665,2122
6,0.1792,-1.0417,0.0906,0.2333,0.0969,-0.2691,2081
6,0.0908,-1.0178,0.03,0.2808,-0.0754,-0.1723,2109
6,-0.061,-1.0352,-0.0088,0.2884,-0.1931,-0.2414,2105
6,-0.0359,-1.0417,-0.0605,0.3179,-0.3156,-0.3535,2089
6,-0.02,-1.0659,-0.0813,0.3617,-0.1828,-0.3674,2057
6,-0.0171,-1.0325,-0.1748,0.3453,-0.2249,-0.4063,2107
6,0.0015,-0.9497,-0.1699,0.3542,-0.3025,-0.4179,2106
6,-0.1243,-1.0002,-0.0779,0.2964,-0.2474,-0.5048,2102
6,-0.145,-1.0386,-0.0349,0.1643,-0.0198,-0.5036,2053
6,-0.1851,-1.0593,0.0715,0.0969,0.1918,-0.4749,2082
6,-0.022,-1.0459,0.0566,0.0862,0.3388,-0.4695,2309
6,0.0605,-1.0388,0.0327,0.2257,0.1838,-0.6907,2191
6,-0.0308,-1.0237,-0.0613,0.3465,-0.0268,-0.9499,2180
6,-0.1465,-0.9822,-0.1355,0.4595,-0.1414,-1.1109,2087
6,-0.1514,-0.989,-0.2002,0.5493,-0.2298,-1.2607,2013
6,-0.2039,-1.0049,-0.3027,0.6331,-0.1458,-1.4206,2041
6,-0.1797,-1.0703,-0.2092,0.6379,0.0372,-1.5418,2179
6,-0.1011,-1.2256,-0.1511,0.6626,0.1429,-1.7125,2025
6,0.0833,-1.3406,-0.0181,0.6564,0.2183,-1.7638,2091
6,0.0029,-1.3867,-0.0002,0.6505,0.1911,-1.7448,2071
6,-0.0376,-1.4119,-0.0259,0.6505,0.273,-1.7851,2167
6,0.019,-1.2056,-0.0286,0.6719,0.1727,-1.845,2077
6,0.0698,-1.1367,0.0693,0.7648,0.1288,-1.8985,2094
6,0.0137,-1.1191,-0.043,0.85,-0.1414,-1.8968,2128
6,-0.0037,-1.2476,-0.0862,0.9471,-0.3983,-2.0503,2082
6,0.147,-1.3608,-0.0747,1.0488,-0.5803,-2.1068,2098
6,-0.019,-1.502,-0.1218,1.0551,-0.6629,-2.2606,2041
6,-0.124,-1.4885,-0.2595,1.0415,-0.6028,-2.4262,2031
6,-0.2349,-1.4714,-0.2795,1.1391,-0.4944,-2.2222,2016
6,-0.7136,-1.4868,-0.3735,1.2509,-0.6189,-2.4462,2148
6,-0.918,-1.4719,-0.311,1.3625,-0.2127,-2.7103,2109
6,-1.0337,-1.4968,-0.3115,1.4862,0.4141,-3.1604,2163
6,-0.8838,-1.3892,-0.1382,1.5466,0.5871,-3.2172,2034
6,-0.561,-1.6738,-0.1814,1.6349,0.7,-3.0754,2035
6,-0.5024,-1.8962,-0.1299,1.6331,0.6763,-3.2981,2028
6,-1.1843,-2.0,-0.1628,1.7133,0.9088,-4.0411,2032
6,-1.4431,-2.0,-0.2534,1.0115,1.3018,-4.0543,2109
6,1.4404,-0.0444,0.4617,2.7687,0.2699,-3.8663,2039
6,-0.9514,-2.0,-1.3369,1.0435,0.4958,-4.3635,2117
6,-0.8289,-1.8591,-0.6313,2.6306,1.9459,-4.3635,2080
7,0.6677,-1.8262,0.4292,2.4084,4.0334,-4.3635,2048
7,-0.2153,0.2886,-0.0139,4.3634,4.3634,-3.7833,1937
7,-1.6267,-0.1619,-1.146,4.3634,2.4385,-4.3635,2085
7,1.9999,-1.4712,-0.5481,4.3634,3.4093,-1.605,1884
7,1.9999,-1.2715,1.75,1.9108,4.3634,-2.1565,2235
7,1.8215,-1.1218,1.812,0.7098,4.3634,-1.6029,2130
7,0.8384,-0.6516,1.7244,0.7774,3.3194,-1.6624,1951
7,0.7283,-0.6553,1.1208,-0.7966,0.9027,-0.3032,1994
7,0.8513,-0.5723,0.2629,-1.8584,0.1093,1.1982,2144
7,0.5544,-0.3274,-0.1531,-2.2675,-0.5851,1.6103,2110
7,0.1904,-0.1958,-0.2053,-3.0907,-0.3998,1.6008,2066
7,-0.0857,-0.0266,-0.1919,-3.5645,0.7729,2.5449,2072
7,-0.1162,-0.3142,-0.0242,-3.6407,1.5201,2.5759,2048
7,0.0959,-0.4524,-0.0061,-3.7716,1.7648,2.8514,2065
7,0.2314,-0.2844,-0.0518,-3.0196,1.5299,2.7497,2043
7,0.4277,-0.1826,0.0679,-1.994,1.0929,2.634,2076
7,0.5061,-0.2605,0.3989,-1.8371,0.6052,2.637,2101
7,0.4592,-0.4099,0.5801,-2.1076,0.1763,2.6958,2088
7,0.4131,-0.4563,0.6479,-2.6109,-0.3844,2.8552,2072
7,0.4727,-0.3406,0.6592,-3.4856,-0.8214,3.4995,2061
7,0.5015,-0.1118,0.5479,-4.2025,-1.1037,4.2714,2081
7,0.3975,-0.0652,0.4497,-4.3635,-1.2009,4.3634,2105
7,0.3035,-0.0583,0.3262,-4.3635,-1.1937,4.3634,2131
7,0.2805,-0.1157,0.2666,-4.3635,-1.2729,4.3634,2136
7,0.2944,-0.1887,0.1992,-4.3635,-1.3235,4.3634,2154
7,0.3123,-0.3228,0.1907,-4.3635,-1.1721,4.3634,2160
7,0.4272,-0.46,0.2271,-4.3635,-0.8629,4.3634,2138
7,0.5208,-0.4556,0.231,-4.3635,-0.6157,4.3634,2154
7,0.6519,-0.636,0.3455,-4.3635,-0.507,4.3634,2183
7,0.7417,-0.6545,0.2307,-4.0833,-1.0106,4.3634,2155
7,0.8538,-0.8679,0.438,-3.4218,-1.572,4.3634,2121
7,1.2085,-1.4946,0.8345,-4.3635,-2.5481,4.3634,2165
7,1.1416,-1.3499,0.8367,-4.3635,-3.6797,4.3634,2191
7,0.521,-1.0745,0.5237,-4.1769,-3.6507,4.3634,2124
7,-0.3469,-1.9175,-0.0071,-3.9177,-2.4541,4.3634,2086
7,-0.1177,-2.0,-0.4504,-2.4027,-1.1814,4.3634,2161
7,0.8684,-2.0,-0.1257,-1.7825,-0.4392,4.3634,2141
7,0.4341,-1.6914,-0.2114,-1.7554,-1.1459,4.3634,2164
7,-0.397,-1.4204,0.0911,-1.4376,0.0664,2.7637,2166
7,-0.342,-1.0325,0.4102,-1.1662,2.1944,1.1704,2017
7,0.4189,-0.1201,0.3228,-0.483,1.3323,0.3565,1994
7,0.4363,-0.634,-0.0181,0.3473,1.1632,-1.4978,2073
7,0.7932,-0.7207,0.0195,1.0979,0.9046,-2.9275,2028
7,-1.4041,-2.0,-0.8523,1.5436,4.3634,-4.3635,2114
7,0.1353,-0.8672,-0.7012,2.2509,0.6698,-4.3635,2083
7,1.8606,-1.0662,1.2637,2.5505,-1.3127,-2.27,2054
7,-1.123,1.1167,0.5469,0.0807,-1.5482,-3.4531,1954
7,-2.0,-1.4097,-0.3413,0.4914,1.4434,1.2603,2043
7,-1.3083,-1.3757,-0.0532,0.7019,0.0634,-0.8372,2113
7,1.9999,-1.2922,-0.207,1.6321,0.864,-2.4056,2241
7,0.335,-2.0,0.9219,1.5141,0.928,-2.3855,2106
7,0.2563,-1.7388,1.0203,2.6951,-0.3237,-2.8197,2057
7,-0.5505,-1.5127,1.7244,1.651,-0.4031,-2.6502,2034
7,-0.2063,-1.1426,-0.229,0.0517,-0.7111,-2.6462,2018
7,1.4431,-1.9236,-0.9104,-0.6815,-2.5574,-3.0364,2106
7,1.9999,-1.1287,-0.9675,-0.5083,-3.4427,-2.5759,2247
7,0.5581,0.189,-0.5166,1.2604,-0.1389,-2.8516,1968
7,0.239,-1.0198,-0.0015,0.8192,-1.2593,-2.5412,2048
7,0.9026,-0.9465,-0.3225,0.422,0.4871,-2.6828,2085
7,0.5569,-1.012,0.4258,0.8164,0.9128,-2.6284,2116
7,0.3052,-0.4023,0.0972,0.5908,1.6847,-1.6321,2095
7,0.4143,-0.366,0.1938,1.4829,1.0511,-0.6019,2014
7,0.6543,-1.0076,0.5891,0.469,0.1035,-0.4602,2116
7,0.417,-1.1094,0.3569,0.3928,0.202,-0.2185,2049
7,0.1709,-1.2456,0.2148,0.6355,-0.3105,-0.3385,2102
7,0.1428,-1.4685,0.2935,0.1695,-0.769,-0.4582,2116
7,0.3169,-1.303,0.0425,-0.0384,-0.5793,-0.4657,2105
7,0.3621,-1.0588,-0.0168,-0.1192,-0.6022,-0.4842,2103
7,0.3147,-1.0125,-0.0815,-0.1497,-0.4601,-0.4173,2059
7,0.2424,-0.959,-0.2085,-0.1408,-0.4598,-0.2618,2078
7,0.2222,-0.9619,-0.3416,0.02,-0.2246,-0.2278,2109
7,0.1907,-0.9109,-0.5391,0.2282,0.2031,-0.2477,2098
7,0.0762,-0.9382,-0.4851,0.4357,0.3722,-0.3814,2156
7,0.0435,-0.9971,-0.1914,0.3689,0.3041,-0.4292,2148
7,0.0837,-1.0178,-0.1045,0.2333,0.3006,-0.3442,2160
7,0.1326,-1.01,-0.0664,0.2135,0.1691,-0.2892,2134
7,0.0359,-1.0205,-0.0269,0.2464,0.1414,-0.2396,2083
7,-0.0427,-1.0627,0.0273,0.2364,-0.0707,-0.3185,2153
7,0.0403,-1.0684,-0.095,0.2153,-0.1972,-0.3557,2048
7,0.0315,-1.0032,-0.1489,0.2322,-0.1458,-0.3848,2054
7,-0.1013,-1.0183,-0.2175,0.3064,-0.0491,-0.4774,2143
7,-0.0532,-0.9758,-0.1499,0.2555,-0.1653,-0.5948,2090
7,-0.0886,-0.8989,-0.1162,0.2326,-0.0936,-0.5845,2046
7,-0.3813,-1.0095,-0.0283,0.0828,0.2337,-0.6237,2101
7,-0.364,-1.1069,0.05,-0.0682,0.5594,-0.5631,2139
7,0.5784,-0.9624,0.2246,-0.2484,0.4065,-0.163,2230
7,0.2271,-1.1035,0.0298,0.1036,0.2804,-0.889,2098
7,0.0083,-1.0662,-0.0581,0.3413,0.0509,-1.1005,2168
7,-0.1375,-1.0132,-0.2129,0.3328,0.0398,-1.3162,2213
7,-0.1235,-1.0334,-0.2771,0.3956,-0.0358,-1.4061,2233
7,-0.0723,-1.0554,-0.2075,0.6184,-0.1169,-1.4621,1960
7,-0.0583,-1.1514,-0.1758,0.6781,0.0068,-1.568,2085
7,0.0259,-1.2239,-0.1196,0.7391,0.0458,-1.6032,2054
7,0.0583,-1.2998,-0.0386,0.7795,0.0511,-1.6211,2194
7,-0.0447,-1.3418,-0.1191,0.7902,0.0964,-1.6596,2124
7,-0.1318,-1.3347,-0.1479,0.7889,0.2529,-1.741,2102
7,-0.1052,-1.2634,-0.1846,0.802,0.2124,-1.9329,2143
7,0.0029,-1.2046,-0.0491,0.8674,0.2172,-1.971,2008
7,-0.1602,-1.2649,-0.0874,0.8656,-0.0915,-2.0764,2081
7,-0.0645,-1.3154,-0.0947,0.9427,-0.247,-2.259,2090
7,-0.0371,-1.3286,-0.0811,1.0447,-0.3818,-2.3073,2051
8,-0.1318,-1.4753,-0.1191,1.0472,-0.4337,-2.4019,2032
8,-0.3792,-1.5916,-0.2544,0.9552,-0.1059,-2.4966,2048
8,-0.603,-1.4666,-0.3921,1.1117,0.1076,-2.1113,2000
8,-0.6436,-1.2739,-0.3149,1.485,-0.0839,-2.6891,2074
8,-0.9746,-1.5383,-0.375,1.6406,-0.0613,-3.2083,2088
8,-1.1384,-1.6597,-0.281,1.7166,0.6327,-3.4146,2131
8,-0.9116,-1.7021,-0.2971,1.7981,0.7047,-3.3007,2073
8,-0.6638,-1.8052,-0.0247,1.737,1.1374,-3.1275,2072
8,-0.9265,-2.0,-0.1934,1.6713,1.0561,-3.8038,2038
8,-1.4822,-2.0,-0.2219,1.2017,1.7467,-4.3582,2127
8,1.5752,0.0688,0.7097,3.2492,-0.1533,-3.8821,2002
8,-0.7405,-2.0,-1.6853,1.2134,0.636,-4.3635,2157
8,-0.2158,-1.9292,-0.5747,2.6573,1.2802,-4.3635,2098
8,0.6396,-1.7048,0.3,2.7781,3.3572,-4.3635,2020
8,-0.9453,0.4521,-0.1006,4.3634,4.3634,-4.3635,1868
8,-2.0,-0.9336,-1.1475,3.8892,2.7112,-4.3635,2003
8,1.9999,-1.2849,-0.4604,4.3634,4.1825,-1.609,1948
8,1.9999,-1.083,1.7134,2.0608,4.3634,-1.5589,2199
8,1.8682,-0.9951,1.7954,0.2968,4.3634,-2.0497,2079
8,0.6956,-0.7522,1.502,0.7408,3.5299,-2.1463,1936
8,0.8752,-0.8853,1.0649,-0.7007,0.9062,-0.6733,2092
8,0.9375,-0.6428,0.1538,-1.9642,0.1726,0.74,2137
8,0.6821,-0.2891,-0.2534,-2.4369,-0.749,1.2319,2144
8,0.321,-0.1174,-0.3098,-2.8962,-0.2887,1.354,2074
8,0.1252,0.0398,-0.1594,-3.3713,0.6111,2.4024,2012
8,0.177,-0.2219,0.0032,-3.6296,1.1483,2.4814,2087
8,0.1882,-0.3108,-0.0774,-3.8447,1.2585,2.7779,2059
8,0.311,-0.5227,-0.1499,-2.7596,0.872,2.8588,2184
8,0.4241,-0.0701,0.043,-2.2684,0.9118,3.1544,2087
8,0.6882,0.168,0.2795,-1.9433,-0.0092,2.777,2085
8,0.7458,-0.283,0.4231,-1.7752,-0.675,2.9175,2114
8,0.2458,-0.551,0.4924,-2.1606,-1.1066,2.8319,2065
8,0.1821,-0.4727,0.45,-3.0424,-0.9445,2.7161,2021
8,0.4634,-0.1677,0.4131,-3.7099,-1.0343,3.9305,2084
8,0.6575,-0.0698,0.3811,-4.0086,-1.4462,4.3634,2086
8,0.5623,-0.062,0.321,-4.2089,-1.5683,4.3634,2152
8,0.4089,-0.0452,0.3096,-4.3635,-1.6382,4.3634,2127
8,0.3491,-0.1106,0.2078,-4.3635,-1.7692,4.3634,2129
8,0.3328,-0.2437,0.1201,-4.1045,-1.6954,4.3634,2166
8,0.3899,-0.385,0.0986,-3.9998,-1.456,4.3634,2112
8,0.5056,-0.5415,0.1326,-3.9442,-1.0812,4.3634,2150
8,0.6125,-0.5928,0.2317,-3.9045,-0.8078,4.3634,2159
8,0.7524,-0.7195,0.3054,-3.9428,-0.7843,4.3634,2159
8,0.9502,-0.686,0.2576,-3.0345,-1.334,4.3634,2134
8,1.3184,-1.3818,0.9285,-3.6343,-2.2427,4.3634,2156
8,1.301,-1.4565,1.0183,-4.3635,-3.9065,4.3634,2169
8,0.4673,-0.8831,0.5374,-4.3635,-4.097,4.3634,2139
8,0.1628,-1.9023,0.376,-3.6472,-3.7031,4.3634,2130
8,-1.1489,-2.0,-0.0798,-3.6945,-2.9376,4.3634,2179
8,1.324,-1.8318,0.0251,-1.3455,-1.9387,4.3634,2155
8,1.3562,-1.9709,-0.168,-2.6235,-0.9403,4.3634,2174
8,-0.5439,-1.4084,0.0876,-1.742,-2.17,2.3803,2133
8,-0.7312,-1.3838,-0.0881,-1.0935,0.8119,0.964,2110
8,0.5698,-0.4495,0.2517,-0.9664,0.7042,0.9521,2046
8,0.5103,-0.4646,0.0364,0.079,0.4352,-0.6674,2054
8,-1.7268,-2.0,0.1316,-0.4787,1.4478,-3.6978,2140
8,-0.2378,-1.2456,-0.6489,2.5346,0.3563,-4.3635,2105
8,1.9999,1.2881,-0.9775,4.1317,2.4923,-1.1449,2243
8,1.9999,-1.2957,1.2224,-0.9907,-1.548,-4.3635,2000
8,-2.0,0.8396,0.2668,-2.0311,-2.8165,-2.3507,1868
8,-2.0,-2.0,-1.207,1.0911,-0.5986,0.6782,2197
8,-0.1946,0.0957,-1.0601,2.9568,-0.4382,-0.8803,2265
8,1.8752,-1.6357,0.8342,2.4667,1.9237,-2.1077,2046
8,-0.176,-1.4377,1.2629,2.673,0.8331,-2.9843,1991
8,-0.3462,-2.0,1.9999,2.2668,-1.7311,-3.5086,2047
8,-1.5134,-1.2615,0.4497,0.3582,-0.8416,-3.1629,1947
8,0.8948,-1.3047,-0.8435,-0.4561,-3.0886,-3.666,2086
8,1.9999,-2.0,-1.3091,-1.7911,-4.3635,-3.2962,2272
8,0.8481,0.7673,-1.198,0.4593,-2.257,-3.3991,2000
8,0.8289,-0.6777,-0.3479,0.9311,-2.2052,-2.7924,2032
8,0.2888,-1.1023,0.1101,0.1563,0.0959,-2.9561,2001
8,1.2791,-1.1108,-0.3853,0.3986,1.1497,-3.1387,2131
8,0.5154,-0.7739,0.5686,-0.0486,2.1434,-2.4073,2171
8,0.1687,-0.2009,-0.1606,0.5914,1.949,-2.3354,2058
8,0.6787,0.3872,0.1775,2.0575,1.2994,-0.2926,2107
8,0.6755,-1.0557,0.8037,0.3352,1.4299,0.3553,2067
8,0.2485,-1.1829,0.4607,0.694,0.6303,0.3804,2054
8,0.3418,-1.7009,0.438,0.3033,-0.1681,0.2041,2074
8,0.1755,-1.8296,0.1123,-0.0965,-0.7259,-0.4087,2142
8,0.228,-1.21,0.0933,-0.1682,-0.9058,-0.5593,2085
8,0.3059,-0.9783,0.0874,-0.247,-0.6846,-0.5641,2058
8,0.3989,-0.9707,-0.115,-0.1926,-0.6641,-0.4404,2105
8,0.2427,-1.0,-0.2124,-0.0236,-0.4035,-0.2642,2069
8,0.1321,-0.9189,-0.6311,0.3277,0.2091,-0.2346,2064
8,0.0437,-0.9707,-0.4626,0.4103,0.1783,-0.3032,2161
8,0.1277,-0.9583,-0.2407,0.2602,0.1404,-0.3662,2131
8,0.1206,-0.9807,-0.2629,0.2128,0.0309,-0.3104,2084
8,0.1067,-0.9873,-0.1499,0.2964,0.0238,-0.2686,2118
8,0.0273,-0.978,0.1072,0.2947,0.0213,-0.2788,2134
8,-0.0015,-1.0557,0.1177,0.2302,-0.2245,-0.3048,2153
8,-0.0173,-1.0581,-0.031,0.3237,-0.2968,-0.3099,2074
8,-0.1069,-1.1016,-0.166,0.4027,-0.1421,-0.4032,2109
8,-0.1838,-1.0447,-0.1211,0.4159,0.0164,-0.5466,2063
8,-0.1055,-1.0188,-0.0681,0.3669,-0.0206,-0.6795,2171
8,0.0327,-1.0327,-0.0886,0.3773,-0.1148,-0.7396,2059
8,0.0471,-1.0134,0.0022,0.3369,-0.0846,-0.7927,2085
8,-0.0532,-1.0327,0.1389,0.2325,-0.0208,-0.9074,2161
8,-0.0149,-0.9971,0.1331,0.1752,0.0482,-1.0158,2109
8,0.0535,-0.9973,0.1548,0.1566,-0.0202,-1.0234,2111
8,0.0608,-0.9895,0.0583,0.269,-0.0132,-1.019,2179
8,-0.0266,-1.0422,-0.0503,0.3626,-0.0585,-1.0591,2086
8,-0.1428,-1.0999,-0.1382,0.4598,0.0008,-1.1271,2172
9,-0.1135,-1.1357,-0.2107,0.5028,0.0229,-1.2629,2028
9,-0.0923,-1.1436,-0.1494,0.5147,0.1561,-1.3752,2227
9,-0.0061,-1.1467,-0.1077,0.5268,0.2181,-1.4596,2131
9,0.0576,-1.3015,-0.0908,0.5465,0.1818,-1.5146,2034
9,0.0471,-1.3618,-0.1038,0.5738,0.2043,-1.602,2104
9,-0.0601,-1.3743,-0.0537,0.6469,0.2988,-1.6508,2154
9,-0.0669,-1.2471,-0.0942,0.6831,0.114,-1.7198,2130
9,-0.1523,-1.1748,-0.0911,0.7188,0.0063,-1.8811,2123
9,-0.1372,-1.145,-0.125,0.7859,-0.1714,-1.9989,2022
9,-0.1687,-1.2114,-0.1274,0.8468,-0.39,-2.1708,2074
9,-0.1384,-1.2722,-0.1362,0.8957,-0.5137,-2.3731,2049
9,-0.2527,-1.4189,-0.1465,0.981,-0.2517,-2.27,2087
9,-0.5249,-1.5667,-0.2493,0.9481,-0.0514,-2.3715,2054
9,-0.7173,-1.5803,-0.2971,1.024,0.2569,-2.3109,2054
9,-0.7095,-1.3528,-0.3081,1.3135,0.3345,-2.6725,2109
9,-0.6196,-1.4919,-0.3113,1.4202,0.1686,-3.0441,2123
9,-0.7781,-1.6731,-0.3088,1.5803,0.3497,-3.2071,2148
9,-0.8164,-1.7422,-0.1377,1.6123,0.505,-3.2315,2093
9,-0.9185,-1.874,-0.0564,1.4531,0.8778,-3.5894,2104
9,-1.3376,-2.0,-0.24,1.3873,1.0116,-3.8835,2095
9,-1.2322,-1.8005,0.0164,1.4854,2.3657,-4.3635,2039
9,0.9631,-2.0,0.4983,2.0899,-0.5117,-4.0767,2054
9,-0.5481,-2.0,-1.4517,1.6928,0.0921,-4.3635,2121
9,-0.3096,-1.5376,-0.6409,2.3657,1.7185,-4.3635,2060
9,0.3281,-1.7385,0.136,2.8393,3.2915,-4.3635,2013
9,-0.7493,0.1831,-0.1523,4.3634,4.3634,-3.776,1950
9,-1.2817,-0.7192,-1.2573,4.0627,2.602,-4.266,2178
9,1.9999,-1.4124,-0.5945,4.3634,4.3634,-1.6403,1858
9,1.9999,-1.209,1.7373,2.6793,4.3634,-1.9639,2220
9,1.9419,-0.9819,1.9434,0.8099,4.3634,-1.8563,2149
9,0.9797,-0.8989,1.4092,0.5445,2.8216,-2.1647,1864
9,0.9343,-0.686,0.8911,-0.7576,0.9497,-0.487,1977
9,1.1392,-0.5391,0.2178,-2.1078,0.2847,1.4209,2237
9,0.7263,-0.2668,-0.2795,-1.9888,-0.0346,1.534,2102
9,0.2805,-0.1318,-0.2576,-2.3807,-0.2372,1.3984,1971
9,0.0696,0.0071,-0.2209,-2.8112,0.4805,2.2999,1991
9,0.03,-0.1135,-0.1047,-2.9753,1.1725,2.6858,2080
9,0.2637,-0.2595,-0.0906,-3.2495,1.3339,2.9634,2041
9,0.439,-0.2043,-0.145,-2.4513,1.0223,3.1729,2069
9,0.6208,-0.113,0.0059,-1.588,0.7883,3.0194,2068
9,0.5452,-0.2207,0.3279,-1.4263,0.2505,2.6129,2110
9,0.3518,-0.4001,0.4651,-1.7133,-0.1455,2.5111,2088
9,0.4895,-0.4143,0.5171,-2.4236,-0.5931,2.8035,2052
9,0.698,-0.2515,0.5117,-3.1636,-1.1109,3.5423,2077
9,0.7673,-0.1038,0.4307,-3.6749,-1.603,4.2297,2101
9,0.6958,-0.0522,0.3955,-4.0562,-2.102,4.3634,2061
9,0.5247,-0.0217,0.3489,-4.3635,-2.3804,4.3634,2134
9,0.3625,-0.0115,0.2415,-4.3635,-2.538,4.3634,2125
9,0.3799,-0.0703,0.0854,-4.3635,-2.7469,4.3634,2136
9,0.3921,-0.1956,-0.03,-4.155,-2.5421,4.3634,2172
9,0.3914,-0.3752,0.0601,-3.9825,-2.2772,4.3634,2123
9,0.5298,-0.4663,0.1021,-4.0247,-1.902,4.3634,2124
9,0.5515,-0.4731,0.1577,-4.0969,-1.6218,4.3634,2166
9,0.6013,-0.6143,0.1753,-4.2816,-1.5684,4.3634,2174
9,0.7273,-0.6624,-0.0767,-3.217,-1.8066,4.3634,2165
9,1.1194,-1.4587,0.4348,-3.1621,-1.8018,4.3634,2167
9,1.533,-1.9199,0.9854,-4.2987,-2.8396,4.3634,2127
9,0.8215,-0.9534,0.7419,-4.3635,-4.2667,4.3634,2132
9,0.0168,-1.6375,0.0005,-4.0851,-3.2621,4.3634,2105
9,-0.4124,-2.0,-0.2292,-3.5713,-2.4234,4.3634,2200
9,0.76,-2.0,-0.521,-2.2598,-0.6421,4.3634,2177
9,0.7744,-1.8259,-0.5247,-2.1987,-0.3255,4.3634,2116
9,0.1282,-1.6318,-0.1692,-2.3181,-1.0752,3.9708,2197
9,-0.3694,-1.3105,0.1543,-1.692,0.8724,2.0551,2089
9,0.0583,-0.4883,0.1128,-1.0387,1.8002,1.0563,2059
9,-0.0769,-0.4932,0.3347,-0.3288,1.6458,-0.4424,2058
9,0.7869,-0.7478,0.0923,0.123,1.1838,-1.5673,2069
9,0.8438,-0.6296,-0.0823,0.6377,1.12,-2.6775,2088
9,-1.2878,-2.0,-0.0588,0.595,2.5117,-4.3635,2107
9,0.2991,-0.4905,-0.2856,2.5397,2.6946,-4.3635,2040
9,-0.168,-2.0,-0.0569,2.1201,-2.5918,-4.3635,2069
9,0.031,-0.7761,0.5801,0.5992,-2.0486,-3.9904,1930
9,-2.0,-0.2788,0.7598,0.8212,0.8962,1.8972,1996
9,-1.603,-1.895,0.8813,1.7318,-1.4287,-1.5948,2113
9,0.4399,-0.6401,-0.5828,0.6636,0.2578,-1.4881,2147
9,0.2388,-1.8403,0.1394,1.4973,-0.9218,-1.2814,2159
9,0.2139,-1.9788,0.2993,2.1438,-2.0105,-2.2518,2111
9,-0.0549,-2.0,1.4739,2.2019,-1.6024,-2.236,2066
9,-0.355,-1.4536,0.4761,0.7943,-0.4051,-2.257,2009
9,0.9229,-2.0,-0.657,-1.126,-3.0471,-2.9108,2160
9,1.9999,-1.6504,-0.9473,-0.9508,-4.3635,-2.6429,2207
9,0.8354,0.1833,-0.6467,0.6424,-1.5906,-2.8689,2028
9,0.4111,-0.7327,-0.3979,0.8553,-1.5573,-2.0848,2054
9,0.5146,-0.8838,-0.4224,0.1332,0.7903,-2.4526,2099
9,0.908,-1.2898,-0.0276,0.5052,0.9324,-2.391,2146
9,0.2888,-0.8186,0.5,0.4169,2.0065,-2.2683,2112
9,0.4661,-0.0647,0.0957,1.2488,2.3727,-1.9511,2088
9,0.6956,-0.2817,0.509,2.0244,1.9892,-0.1637,2035
9,0.4631,-1.2446,0.7668,0.3473,0.5962,0.1775,2102
9,0.2253,-1.2769,0.3403,0.7572,0.5457,0.0671,2103
9,0.1504,-1.4993,0.3525,0.3959,-0.4697,-0.3438,2104
9,-0.0117,-1.3943,0.1528,-0.2683,-0.7982,-0.4867,2165
9,0.1147,-1.2017,0.0276,-0.145,-0.5251,-0.5662,2070
9,0.1609,-1.0898,0.0913,-0.2647,-0.5143,-0.508,2061
9,0.2988,-0.9348,-0.0374,-0.3742,-0.6095,-0.3874,2083
9,0.2793,-0.9565,-0.2424,-0.3449,-0.6497,-0.3513,2072
9,0.144,-0.9788,-0.396,-0.1309,-0.544,-0.3888,2104
9,0.1167,-0.9417,-0.4612,0.1137,-0.2495,-0.3755,2083
9,0.1309,-0.9292,-0.4814,0.2811,0.2209,-0.3926,2137
9,0.0649,-0.936,-0.5566,0.4272,0.4321,-0.4469,2156
9,-0.0088,-0.9172,-0.4629,0.6324,0.5201,-0.5217,2189
9,-0.0244,-0.9182,-0.1882,0.6613,0.5366,-0.612,2091
9,0.0093,-0.9673,0.0771,0.5817,0.4978,-0.5651,2050
10,0.0105,-1.0122,0.2048,0.4289,0.1378,-0.3872,2150
10,0.0271,-1.0735,0.1777,0.2658,-0.1582,-0.306,2105
10,-0.0571,-1.1001,0.0532,0.3195,-0.3448,-0.3428,2047
10,-0.0393,-1.0566,0.0293,0.3252,-0.3826,-0.4177,2072
10,0.0303,-1.0383,-0.0049,0.2987,-0.444,-0.4609,2153
10,-0.0444,-1.0356,-0.0974,0.2337,-0.2542,-0.3856,2104
10,-0.1409,-0.9973,-0.1602,0.1964,-0.1378,-0.4064,2108
10,-0.2322,-0.9802,-0.1548,0.072,0.0582,-0.4233,2056
10,-0.1782,-1.0242,-0.074,-0.0268,-0.0029,-0.6181,2169
10,-0.1194,-0.9937,-0.0151,0.0784,-0.059,-0.9812,2024
10,-0.0706,-1.032,0.0369,0.2425,-0.2657,-1.2218,2200
10,0.0217,-1.0364,0.0667,0.4188,-0.4196,-1.3609,2262
10,-0.0083,-1.0823,0.0,0.5486,-0.3661,-1.4356,2059
10,0.001,-1.0186,-0.0437,0.6377,-0.2711,-1.4704,2143
10,0.0178,-1.0093,-0.1304,0.6898,-0.135,-1.5046,2053
10,0.0681,-1.1084,-0.1738,0.7112,-0.0822,-1.5426,2226
10,0.043,-1.311,-0.186,0.6641,0.0124,-1.5528,1972
10,0.0227,-1.4075,-0.1179,0.6718,0.0419,-1.5781,2184
10,-0.0554,-1.3105,-0.021,0.74,0.1173,-1.6069,2266
10,-0.0283,-1.3149,0.0681,0.6979,0.1117,-1.7466,2213
10,0.0842,-1.2378,-0.0442,0.7741,0.0121,-1.7889,2053
10,0.0911,-1.2769,-0.009,0.9106,-0.1838,-1.8172,2165
10,0.0256,-1.3171,-0.1179,0.9748,-0.2987,-1.9315,2067
10,0.0203,-1.3606,-0.1501,1.0392,-0.4065,-2.0837,2104
10,0.0686,-1.3696,-0.1174,1.1308,-0.4308,-2.1848,2111
10,-0.0605,-1.4624,-0.2537,1.2001,-0.4863,-2.2716,2191
10,-0.1714,-1.4248,-0.3406,1.3089,-0.5826,-2.5563,2079
10,-0.5103,-1.6162,-0.3313,1.3737,-0.5197,-2.6277,2016
10,-1.031,-1.6245,-0.3198,1.4242,-0.5493,-2.736,2082
10,-1.2158,-1.4854,-0.3032,1.6158,0.0081,-2.8946,2102
10,-1.0078,-1.699,-0.209,1.556,0.5613,-3.155,2084
10,-1.2017,-1.8513,-0.1914,1.778,1.4522,-3.7664,2149
10,-1.1201,-1.9832,-0.1436,1.6322,1.0877,-3.8061,2038
10,-0.9624,-2.0,-0.3044,1.1657,0.917,-3.9546,2050
10,-0.7046,-2.0,0.0183,1.2896,1.7752,-4.0202,2208
10,0.1709,-1.3604,-0.0417,1.4249,2.4541,-4.3635,2083
10,1.1953,-2.0,-0.3381,2.0586,0.2834,-4.3635,2113
10,-0.6907,-2.0,-0.7036,2.0442,1.0971,-4.3635,2077
10,-0.2048,-1.1611,-0.2903,2.2895,2.3506,-4.3635,2036
10,-0.5054,-0.2471,0.3113,3.943,4.3634,-3.8632,1849
10,-2.0,-0.5466,-1.4094,4.3634,4.3634,-4.3635,2070
10,1.9999,-1.2256,-0.2722,4.3634,3.2572,-1.3857,1998
10,1.9999,-0.7063,1.9999,1.7696,4.3634,-2.3161,2332
10,1.3237,-0.9333,1.7449,0.4028,4.3634,-2.1606,2004
10,0.6184,-0.6462,1.7065,0.3687,3.2275,-1.1539,1912
10,1.0942,-0.9106,0.894,-0.9274,0.5991,-0.053,2134
10,0.9944,-0.5876,0.1492,-2.0222,-0.2442,0.9444,2124
10,0.553,-0.1716,-0.2554,-2.8321,-0.7891,1.3476,2077
10,0.2585,-0.0129,-0.3079,-3.1553,0.008,1.4733,2050
10,0.1248,0.0261,-0.0566,-3.6034,0.8622,2.1971,2058
10,0.1052,-0.134,-0.0471,-3.6009,1.2749,2.3582,2065
10,0.1677,-0.1545,-0.0266,-3.379,1.3524,2.5864,2025
10,0.2253,-0.1555,-0.0369,-2.4851,0.8204,2.7947,2128
10,0.3035,-0.1875,0.1245,-1.8053,0.5823,2.5982,2168
10,0.2671,-0.4521,0.3005,-1.7781,0.4434,2.1252,2156
10,0.4199,-0.4634,0.4863,-2.2308,0.0955,2.266,2089
10,0.6477,-0.3069,0.5906,-2.8556,-0.2826,2.9002,2105
10,0.7422,-0.1787,0.6265,-3.4519,-0.7111,3.4588,2045
10,0.6794,-0.0354,0.6318,-4.0542,-1.3683,3.9797,2086
10,0.5256,-0.0137,0.5596,-4.3635,-1.9106,4.3634,2073
10,0.3689,-0.0161,0.3979,-4.3635,-2.2569,4.3634,2160
10,0.2715,-0.0144,0.2385,-4.3635,-2.3471,4.3634,2099
10,0.2424,-0.0811,0.1155,-4.3635,-2.2831,4.3634,2158
10,0.2778,-0.251,0.0334,-4.3635,-2.0833,4.3634,2146
10,0.3794,-0.3743,0.0283,-4.3635,-1.6496,4.3634,2170
10,0.5024,-0.4587,0.104,-4.3425,-1.1967,4.3634,2167
10,0.6362,-0.7039,0.2869,-4.3635,-1.0002,4.3634,2159
10,0.8313,-0.7776,0.0833,-4.1443,-1.4665,4.3634,2162
10,0.9407,-0.8101,0.3127,-3.6777,-1.7309,4.3634,2188
10,1.2366,-1.3706,0.696,-4.3635,-2.5136,4.3634,2150
10,0.8745,-1.3057,0.7637,-4.3635,-3.1548,4.3634,2135
10,0.0947,-1.3511,0.2507,-4.3635,-2.9874,4.3634,2076
10,0.0972,-2.0,-0.0615,-3.7685,-1.5685,4.3634,2217
10,0.4668,-2.0,-0.3257,-2.8686,-0.5711,4.3634,2181
10,0.3901,-2.0,-0.4841,-2.1883,0.9239,4.3634,2117
10,-0.0894,-1.6465,-0.2935,-2.0632,0.2898,4.2807,2081
10,-0.3174,-1.5913,0.4448,-1.8875,0.6375,2.7272,2103
10,-0.1284,-1.0027,0.4561,-1.4773,2.4069,1.4018,2006
10,0.2734,-0.5793,0.0894,-0.6176,2.0109,-0.1242,1999
10,0.5227,-0.2087,0.3821,0.0674,1.3595,-1.2358,2070
10,0.7251,-0.6714,0.3247,0.6561,0.8018,-2.3684,2081
10,-0.0713,-1.8643,0.2942,1.0737,0.8893,-3.7846,2097
10,-0.824,-1.9561,-0.3921,2.2743,2.0044,-4.3635,2132
10,0.8857,-2.0,0.2039,3.2347,-3.4354,-4.3635,2099
10,0.1504,0.2849,0.3484,2.0787,-1.1283,-3.585,1939
10,-2.0,-1.4351,0.6704,0.3539,0.2883,0.7154,1977
10,-1.8799,-1.5374,0.4934,1.4122,-0.7793,-1.434,2197
10,0.3604,-0.3503,-0.4839,0.917,1.4239,-1.4235,2093
10,0.7644,-1.532,-0.1321,1.4047,0.0185,-1.8313,2173
10,-0.0439,-1.9221,0.4236,1.6058,0.4016,-2.063,2061
10,0.2627,-1.7549,0.6985,2.3786,0.0678,-2.4047,2087
10,0.2764,-1.5684,0.8389,1.507,0.5217,-2.0873,2057
10,1.8167,-2.0,-0.4949,-0.465,-1.2627,-2.7339,2128
10,1.9999,-1.1719,-0.4514,-0.3874,-4.1528,-2.1853,2223
10,0.4192,0.0435,-0.2693,1.3077,-0.0619,-2.4364,2004
10,0.427,-1.3657,0.0017,0.7232,-2.0487,-1.9663,2060
10,0.2136,-1.1279,-0.0476,0.1566,0.1037,-2.0708,2117
10,0.449,-1.0642,0.2065,0.6948,0.4998,-2.0044,2095
10,0.3235,-0.7402,0.3721,0.7878,0.7581,-1.8439,2065
10,0.3093,-0.3452,0.6045,1.4631,1.2788,-0.8493,2073
11,0.6204,-0.9551,0.8198,0.393,0.2655,-0.4369,2036
11,0.4785,-1.0935,0.1873,0.0943,-0.3119,-0.2678,2116
11,0.3547,-1.2073,0.0039,0.2208,-1.0483,-0.5066,2098
11,0.3293,-1.3289,-0.0225,-0.0474,-1.2215,-0.5177,2101
11,0.207,-1.1494,-0.1943,-0.1189,-1.0038,-0.4803,2069
11,0.1567,-1.0859,-0.2632,-0.0766,-0.7135,-0.4843,2084
11,0.2034,-0.978,-0.3596,0.0357,-0.3864,-0.4382,2265
11,0.2366,-0.9722,-0.3818,0.2531,-0.0297,-0.3804,2161
11,0.177,-0.9165,-0.3977,0.4508,0.2731,-0.3994,2094
11,0.1509,-0.925,-0.2683,0.4634,0.2831,-0.3932,2073
11,0.1816,-1.0061,-0.1626,0.4004,0.2422,-0.3448,2144
11,0.1887,-0.9639,-0.1733,0.3606,0.1567,-0.2296,2099
11,0.0999,-1.0312,-0.0603,0.3976,0.227,-0.194,2075
11,0.083,-1.0518,0.0378,0.3691,0.0345,-0.1558,2174
11,0.1074,-1.0161,-0.0354,0.333,0.025,-0.1418,2141
11,0.0312,-1.0552,-0.1172,0.3181,-0.1035,-0.2087,2131
11,0.0122,-1.0154,-0.1763,0.3473,0.1402,-0.2646,2109
11,0.0276,-1.0186,-0.1721,0.3092,0.142,-0.2935,2099
11,-0.0149,-0.99,-0.2014,0.3209,0.2465,-0.2752,2097
11,-0.0715,-0.967,-0.1514,0.3553,0.2412,-0.2352,2150
11,-0.1577,-0.9873,-0.1377,0.3928,0.2982,-0.2911,2067
11,-0.2412,-1.0269,-0.0981,0.3087,0.384,-0.3501,2142
11,-0.2651,-0.9744,-0.0703,0.1527,0.4125,-0.2741,2149
11,-0.2188,-0.9258,-0.073,0.2208,0.2469,-0.2665,2159
11,0.0349,-1.0647,-0.1489,0.2019,0.4546,-0.3406,2091
11,0.2222,-1.1152,0.031,0.1627,0.1944,-0.5822,2052
11,0.2004,-1.074,0.0161,0.2836,-0.0764,-0.8122,2183
11,0.1262,-1.0754,0.0029,0.3144,-0.3364,-1.0059,2119
11,0.1155,-1.0569,-0.0354,0.4188,-0.249,-1.0606,2171
11,0.0876,-1.0874,-0.0688,0.4794,-0.1928,-1.0801,2041
11,0.0254,-1.0098,-0.1406,0.6529,-0.2727,-1.1111,2077
11,0.0273,-0.9536,-0.0786,0.6701,-0.2767,-1.1837,2158
11,-0.0479,-0.8958,-0.1724,0.7719,-0.2252,-1.2493,2046
11,-0.0652,-0.9658,-0.1301,0.7869,-0.3011,-1.3167,2103
11,-0.0784,-1.147,-0.1858,0.8099,-0.1498,-1.4536,2074
11,0.0081,-1.3381,-0.0791,0.7114,-0.1148,-1.5383,2109
11,-0.0637,-1.4951,-0.1792,0.662,0.0154,-1.6419,2090
11,-0.002,-1.3611,-0.1548,0.7179,0.0186,-1.7511,2118
11,0.0007,-1.196,-0.0498,0.7275,0.0253,-1.7857,2069
11,-0.1201,-1.1152,-0.0654,0.7261,-0.1522,-1.8618,2151
11,-0.115,-1.1362,-0.0542,0.7521,-0.233,-1.9611,2069
11,-0.082,-1.1497,-0.0803,0.8922,-0.3508,-2.0714,2086
11,-0.1101,-1.3203,-0.0972,1.014,-0.4318,-2.208,2102
11,-0.092,-1.4905,-0.2048,1.0926,-0.4504,-2.2866,2065
11,-0.3601,-1.6248,-0.4006,1.1533,-0.4534,-2.4486,2064
11,-0.6145,-1.606,-0.5269,1.2957,-0.3532,-2.2547,2040
11,-1.0869,-1.499,-0.4673,1.5629,-0.2163,-2.893,2073
11,-1.293,-1.7573,-0.4019,1.531,0.5062,-3.1712,2065
11,-1.6807,-1.8071,-0.1638,1.6307,1.4869,-3.6015,2095
11,-1.3396,-1.8252,0.0078,1.5432,1.6186,-3.5155,2020
11,-1.0664,-2.0,0.208,1.5633,1.8225,-3.3971,2090
11,-0.9766,-2.0,0.2556,1.0371,1.7949,-3.6207,2149
11,-0.3147,-1.5845,-0.2786,2.2824,2.1454,-4.3635,2141
11,0.5571,-2.0,-0.5417,1.9339,0.0513,-4.3635,2149
11,0.2649,-1.7747,-1.1208,3.2031,0.5376,-4.3635,2082
11,1.082,-2.0,0.6555,3.3126,1.8594,-4.3635,1984
11,0.2917,-1.6968,0.394,3.089,3.203,-3.801,1998
11,0.6243,-0.4282,-0.9004,4.3634,1.6717,-4.3635,2064
11,-1.5962,-0.1267,-1.3506,4.0945,3.4671,-2.8255,2049
11,1.9999,-1.2651,0.3411,4.3634,3.4399,-0.6253,2080
11,1.9999,-1.105,1.877,1.3595,4.3634,-1.2387,2165
11,1.2957,-0.6775,1.4048,0.6449,4.2454,-1.6033,1979
11,0.6687,-0.6973,0.9485,0.4188,1.1182,-0.8799,1889
11,1.1692,-0.7844,0.2561,-1.2034,-0.9817,1.0584,2109
11,1.1465,-0.4656,-0.4976,-1.929,-1.7345,1.9564,2122
11,0.5798,-0.1807,-0.5498,-2.1423,-1.8005,1.8953,2080
11,0.105,-0.0171,-0.5354,-2.0157,-0.689,1.9591,2054
11,0.3474,0.123,-0.4016,-1.9365,0.3212,2.9842,2091
11,0.4341,-0.0237,-0.2117,-2.0295,0.7204,3.4532,2034
11,0.5808,-0.2644,-0.2021,-1.5558,0.5023,4.154,2047
11,0.7231,-0.0317,-0.1475,-1.3382,0.4256,4.3634,2101
11,0.7668,0.1101,0.0232,-0.925,-0.357,3.8544,2128
11,0.6211,-0.3621,0.1614,-1.0383,-0.6392,3.2304,2080
11,0.4629,-0.4587,0.2195,-1.6255,-0.7681,3.9116,2081
11,0.6558,-0.2739,0.2639,-2.4534,-1.0114,4.3634,2125
11,0.7173,-0.1777,0.1082,-2.7783,-1.1607,4.3634,2098
11,0.7346,-0.0767,0.0962,-3.0678,-1.4222,4.3634,2168
11,0.5498,-0.0706,0.1123,-3.4009,-1.6873,4.3634,2119
11,0.4666,-0.1558,-0.0459,-3.4932,-1.9085,4.3634,2130
11,0.4521,-0.2517,-0.0483,-3.3962,-1.9784,4.3634,2139
11,0.4397,-0.3215,0.0305,-3.5159,-1.6801,4.3634,2124
11,0.4426,-0.3376,-0.0354,-3.6643,-1.3612,4.3634,2164
11,0.5059,-0.4172,-0.0867,-3.6528,-1.0348,4.3634,2104
11,0.5386,-0.6184,-0.075,-3.77,-0.752,4.3634,2162
11,0.7087,-0.76,-0.0505,-3.5083,-0.9038,4.3634,2263
11,0.8242,-0.9858,0.1182,-2.8911,-1.393,4.3634,2161
11,1.2629,-1.8909,0.6113,-3.3218,-1.6171,4.3634,2170
11,1.5212,-1.6233,0.9246,-3.97,-3.1641,4.3634,2095
11,0.8699,-0.5002,0.355,-3.1086,-3.67,4.3634,2069
11,0.5027,-2.0,0.3967,-3.4107,-4.0679,4.3634,2153
11,-0.2971,-2.0,-0.0769,-3.1148,-2.2603,4.3634,2178
11,0.1665,-1.8567,-0.3955,-2.2999,-2.1939,4.3634,2151
11,0.1101,-1.8469,-0.1433,-3.3519,-1.8359,4.3634,2080
11,-0.1646,-1.4695,-0.1426,-3.0949,-0.9531,3.6456,2042
11,-0.1038,-0.9399,0.0417,-2.2423,0.0667,2.1864,2083
11,-0.1892,-0.616,-0.1768,-1.1468,0.2422,0.6478,1963
11,0.0796,-0.4783,-0.1963,-0.1563,0.3828,-0.8678,2002
11,0.6431,-0.6589,-0.0266,0.2823,0.2392,-2.0687,2086
12,1.0789,-0.8687,0.0271,0.5875,0.3267,-2.9907,2102
12,0.604,-1.7896,0.5142,0.6123,0.3502,-3.991,2101
12,-0.8855,-1.7876,-1.1216,2.6413,1.8624,-4.3635,2177
12,-1.5881,-1.425,0.3472,1.7562,-4.3635,-4.3635,1974
12,1.7979,-0.9795,0.5537,1.5165,-0.6492,-4.3635,1964
12,-1.1528,1.9999,0.6409,1.5468,0.1514,1.7921,1919
12,-2.0,-2.0,1.0959,-0.2223,0.6171,-1.8458,2047
12,0.4678,-0.8618,-0.5186,2.2169,0.3586,0.385,2223
12,0.5483,-1.4563,-0.0776,1.8476,-0.3882,-1.134,2185
12,0.2324,-2.0,1.2363,3.336,-0.871,-1.7716,2143
12,-0.4751,-2.0,1.989,1.8899,-2.3756,-2.604,2046
12,-0.6689,-1.605,1.1238,1.0926,-1.1734,-2.4365,1999
12,0.2537,-1.1333,-0.7319,-0.4132,-3.9676,-2.4687,2075
12,1.9999,-2.0,-0.8394,-1.7214,-4.3635,-3.7825,2229
12,1.7136,-0.116,-0.918,0.0403,-3.3463,-2.7516,2080
12,0.9717,-0.6382,-0.46,0.265,-1.9904,-2.8971,1963
12,0.2834,-0.5645,-0.0452,0.1499,-0.2057,-2.2103,1993
12,0.0603,-1.0215,-0.1633,0.2998,0.8452,-2.5717,2092
12,1.4451,-0.9407,-0.2246,0.0892,1.2383,-2.2521,2127
12,0.2756,-0.8115,-0.0525,0.1202,1.5913,-2.1831,2118
12,0.0774,-0.2798,0.1243,0.5324,1.0926,-2.6441,2175
12,0.6543,-0.0447,0.4961,1.4163,1.5158,-1.4813,2049
12,0.4138,-0.9822,1.0356,0.7668,1.2151,0.6008,2060
12,0.248,-1.5,0.5168,0.2597,-0.051,0.2472,2093
12,0.2976,-1.7012,0.2705,-0.3003,-0.6071,-0.3382,2103
12,0.2354,-1.3354,0.1829,-0.283,-0.6465,-0.4111,2028
12,0.3584,-1.0894,0.1191,-0.2179,-0.6054,-0.3253,2048
12,0.3655,-0.9814,-0.0173,-0.2019,-0.7291,-0.2264,2071
12,0.2776,-0.9666,-0.0349,-0.1507,-0.65,-0.1304,2104
12,0.1624,-0.9604,-0.1431,-0.1736,-0.4123,-0.0667,2081
12,0.1316,-0.9399,-0.4167,0.0233,0.0743,-0.0724,2186
12,0.053,-0.9985,-0.543,0.3594,0.4805,-0.1543,2081
12,-0.114,-1.0217,-0.2661,0.4345,0.4741,-0.3691,2152
12,-0.0969,-1.0708,0.0083,0.2689,0.4237,-0.4458,2071
12,0.0649,-1.0525,-0.0015,0.1338,0.2244,-0.4056,2083
12,0.1672,-0.9446,0.0408,0.179,0.0423,-0.3402,2073
12,0.009,-1.0022,0.0569,0.2044,-0.0579,-0.3429,2123
12,-0.0659,-1.0149,0.0396,0.2181,-0.1712,-0.3991,2084
12,0.0149,-1.0435,-0.083,0.2185,-0.2976,-0.4366,2108
12,0.0149,-1.0239,-0.189,0.235,-0.2986,-0.4846,2071
12,0.0095,-0.9956,-0.1201,0.2663,-0.1147,-0.5167,2019
12,-0.0239,-1.009,-0.0259,0.2392,-0.1487,-0.5826,2090
12,-0.0281,-0.9922,-0.0015,0.2364,-0.2119,-0.6313,2078
12,-0.0781,-1.001,0.0837,0.2168,-0.2021,-0.7289,2144
12,-0.0195,-0.9441,0.1284,0.2101,-0.2792,-0.7192,2138
12,-0.1748,-1.0278,0.0815,0.181,-0.3504,-0.7343,2088
12,-0.1792,-1.0093,0.0579,0.2029,-0.387,-0.8168,2086
12,-0.1321,-1.0273,0.0044,0.2278,-0.3999,-0.9641,2063
12,-0.0938,-0.9646,-0.0923,0.3494,-0.3053,-1.1505,2121
12,-0.0234,-0.9382,-0.1355,0.4818,-0.2286,-1.2858,2053
12,0.0713,-1.1013,-0.1018,0.553,-0.0449,-1.3507,2097
12,0.1145,-1.1917,-0.0854,0.5642,-0.002,-1.3583,2129
12,0.1694,-1.1775,-0.0405,0.5838,-0.0605,-1.3512,2070
12,0.1155,-1.2517,-0.0264,0.6134,-0.0566,-1.2952,2155
12,0.0132,-1.2927,-0.0193,0.6428,0.0238,-1.2599,2029
12,-0.1467,-1.4004,0.0242,0.6347,0.0964,-1.4352,2028
12,-0.0076,-1.2817,-0.0244,0.6513,0.0989,-1.6123,2174
12,-0.1135,-1.2004,0.0315,0.6581,0.0226,-1.709,2037
12,0.0933,-1.0544,0.001,0.8031,-0.185,-1.7307,2188
12,0.1138,-1.1477,0.0242,0.8574,-0.5216,-1.8148,2143
12,0.0925,-1.3318,-0.0369,0.9112,-0.7436,-1.9419,2055
12,-0.0815,-1.4895,-0.1277,0.9032,-0.8517,-2.1738,2073
12,0.0457,-1.4355,-0.167,1.0453,-0.9958,-2.1534,2058
12,-0.2126,-1.5308,-0.2671,1.1612,-1.0637,-2.1077,2162
12,-0.2773,-1.6267,-0.2676,1.2243,-1.1563,-2.2332,2101
12,-0.5354,-1.572,-0.3081,1.3033,-0.9897,-2.3613,2098
12,-1.0703,-1.4319,-0.366,1.4849,-0.4669,-2.6634,2123
12,-0.8667,-1.6748,-0.2864,1.6372,0.0919,-2.7159,2132
12,-1.365,-1.9365,-0.2986,1.4605,1.2117,-3.1459,2109
12,-1.4958,-1.7329,-0.1233,1.2949,1.1543,-3.2818,2080
12,-0.8467,-1.9348,-0.3164,1.1696,1.242,-3.4409,2153
12,-0.6038,-2.0,0.051,1.5251,1.6241,-3.8045,2168
12,0.3064,-1.1707,-0.0261,2.1755,0.3898,-4.3635,2004
12,-0.1594,-2.0,-0.8074,1.5086,0.3091,-4.3635,2070
12,-0.2588,-1.9814,-0.9548,2.5757,1.2738,-4.3635,2019
12,0.6436,-1.5649,-0.1553,2.1884,1.8438,-4.3635,2047
12,-0.6902,-0.1592,0.4854,3.4576,4.3634,-3.4279,1942
12,-0.6218,-0.6919,-0.71,4.3634,3.1364,-4.3635,2161
12,1.4744,-0.3911,-0.7063,4.1618,4.1745,-2.4771,1985
12,1.9999,-0.9854,1.1108,3.7304,4.3634,-1.5981,2132
12,1.9999,-0.9817,1.8357,0.8305,4.3634,-1.5858,2142
12,0.8774,-0.7136,1.697,0.6644,4.3315,-1.5331,1927
12,0.6931,-0.7073,1.1851,0.0884,1.4817,-0.8921,1974
12,0.9785,-0.7546,0.3977,-1.068,-0.0755,0.7584,2142
12,0.833,-0.4456,-0.1541,-2.0748,-1.1646,1.4114,2113
12,0.3237,-0.207,-0.355,-2.9782,-0.9521,1.3784,2068
12,0.1941,-0.01,-0.3428,-3.2541,0.3333,2.1748,2083
12,0.1982,-0.1377,-0.1909,-3.2664,1.2801,2.4665,2057
12,0.312,-0.3123,-0.1062,-3.3921,1.6187,2.4534,2060
12,0.2161,-0.4146,-0.1384,-2.4591,1.1856,2.6043,2069
12,0.4841,-0.0327,0.0071,-1.819,1.1504,2.9075,2081
12,0.6377,0.0249,0.2273,-1.3053,0.4361,2.6779,2052
12,0.5439,-0.3047,0.4578,-1.333,0.1049,2.693,2079
12,0.502,-0.4438,0.6023,-2.1241,-0.3132,2.6556,2128
12,0.6538,-0.1799,0.6504,-3.1776,-1.0043,3.3882,2101
12,0.7058,-0.0908,0.5049,-3.711,-1.5672,4.1442,2063
12,0.582,-0.0156,0.4541,-4.0516,-2.023,4.3634,2082
12,0.4514,0.0093,0.3816,-4.3635,-2.232,4.3634,2144
12,0.3633,0.0212,0.2456,-4.3635,-2.2955,4.3634,2150
12,0.4216,-0.0435,0.1555,-4.3635,-2.4212,4.3634,2132
12,0.4531,-0.1213,0.0811,-4.3635,-2.3763,4.3634,2148
12,0.4919,-0.2263,0.1028,-4.2979,-2.1366,4.3634,2160
12,0.5728,-0.3752,0.1135,-4.2524,-1.7881,4.3634,2148
12,0.6272,-0.5276,0.1941,-4.3635,-1.4645,4.3634,2172
12,0.6699,-0.6025,-0.1052,-3.5455,-1.5961,4.3634,2153
12,0.8765,-0.9387,0.3013,-3.3194,-1.7058,4.3634,2126
12,1.0981,-1.4663,0.6902,-4.208,-2.6366,4.3634,2158
