Timestamp,Ax,Ay,Az,Rx,Ry,Rz,EMG
0,-0.1631,-0.634,0.0542,0.8106,0.5992,0.4518,2045
0,-0.135,-0.6152,0.0479,0.765,0.5412,0.3835,2044
0,-0.1038,-0.6006,0.0208,0.7062,0.5078,0.3087,2046
0,-0.0793,-0.5903,-0.0151,0.6296,0.4742,0.2258,2046
0,-0.061,-0.5813,-0.0435,0.5456,0.4075,0.1625,2041
0,-0.032,-0.5762,-0.0828,0.5003,0.2998,0.1001,2045
0,-0.0181,-0.5276,-0.1099,0.4856,0.1942,0.0338,2045
0,-0.0388,-0.5317,-0.1504,0.4489,0.1535,-0.017,2044
0,-0.0454,-0.5398,-0.1685,0.442,0.0851,-0.0137,2047
0,-0.0447,-0.5283,-0.188,0.4228,0.0474,-0.0754,2049
0,-0.0579,-0.5264,-0.1931,0.4213,0.0298,-0.1145,2048
0,-0.0696,-0.5308,-0.2195,0.424,0.0256,-0.1446,2046
0,-0.0774,-0.5405,-0.219,0.4159,0.0477,-0.2085,2042
0,-0.1003,-0.5576,-0.2295,0.41,0.0899,-0.251,2045
0,-0.1128,-0.582,-0.2173,0.3669,0.1157,-0.3091,2045
0,-0.1157,-0.6008,-0.2102,0.3322,0.1356,-0.3738,2052
0,-0.1311,-0.6169,-0.2156,0.3272,0.1609,-0.4464,2045
0,-0.1377,-0.6389,-0.2217,0.3509,0.1802,-0.5292,2043
0,-0.1648,-0.6726,-0.2173,0.3785,0.1915,-0.5831,2046
0,-0.2095,-0.7168,-0.2065,0.4105,0.2341,-0.6588,2052
0,-0.2539,-0.7349,-0.1968,0.447,0.3247,-0.7293,2045
0,-0.3223,-0.7788,-0.1838,0.465,0.5066,-0.8082,2049
0,-0.3684,-0.8457,-0.166,0.4271,0.6911,-0.8713,2045
0,-0.4219,-0.8997,-0.157,0.4035,0.8969,-0.9549,2042
0,-0.4153,-0.9294,-0.1152,0.3394,1.0903,-0.9831,2049
0,-0.4675,-0.9639,-0.0767,0.3458,1.2214,-0.9577,2045
0,-0.5525,-1.0583,-0.0261,0.2907,1.3135,-0.9032,2044
0,-0.6226,-1.0471,0.0596,0.267,1.0235,-0.6971,2048
0,-0.8777,-1.0632,0.1487,0.5288,0.6153,-0.3183,2046
0,-1.2261,-1.125,0.2168,0.6576,0.4077,0.0736,2049
0,-1.5178,-1.2688,0.1816,0.5472,0.3089,0.4042,2052
0,-1.7029,-1.4304,0.1714,0.1884,0.5188,0.4143,2051
0,-1.6626,-1.5505,0.2234,-0.1165,1.0595,0.13,2046
0,-1.3628,-1.541,0.2588,-0.3346,1.36,-0.136,2044
0,-1.1885,-1.4448,0.1899,-0.3059,1.3985,-0.2559,2041
0,-0.9548,-1.4253,0.0464,-0.1582,1.2227,-0.2242,2045
0,-0.6924,-1.4868,-0.0471,-0.1234,1.0692,-0.0185,2048
0,-0.4131,-1.4778,-0.0828,-0.1294,0.9455,0.0202,2040
0,-0.113,-1.4895,-0.0615,-0.0964,0.5994,0.0321,2045
0,-0.0198,-1.4592,-0.0352,0.1549,-0.0317,0.1912,2044
0,-0.1165,-1.4004,-0.0518,0.5111,-0.6946,0.2526,2044
0,-0.115,-1.292,-0.1045,0.5618,-1.0327,0.3654,2041
0,0.0254,-1.3098,-0.2288,0.351,-1.0307,0.3875,2044
0,0.0713,-1.3088,-0.2715,0.2774,-0.8786,0.5136,2050
0,-0.0183,-1.2891,-0.2214,0.3164,-0.7447,0.5904,2043
0,-0.0845,-1.304,-0.1357,0.2871,-0.7922,0.6114,2046
0,-0.113,-1.2825,-0.0859,0.1466,-0.8905,0.5978,2054
0,-0.1389,-1.2253,-0.0835,0.025,-0.9313,0.5598,2049
0,-0.1724,-1.1279,-0.0916,-0.039,-0.8771,0.5649,2047
0,-0.2371,-1.0356,-0.0676,-0.0806,-0.7134,0.5165,2045
0,-0.2878,-0.9717,-0.0286,-0.1282,-0.5143,0.4633,2045
0,-0.3176,-0.9341,0.0068,-0.1851,-0.3144,0.4181,2046
0,-0.3252,-0.8811,-0.0015,-0.2947,-0.1977,0.3871,2047
0,-0.3513,-0.8608,-0.0269,-0.3585,-0.1164,0.3389,2040
0,-0.3606,-0.8279,-0.0593,-0.4003,-0.0567,0.2495,2044
0,-0.3687,-0.8032,-0.0969,-0.4947,-0.0497,0.1353,2042
0,-0.3083,-0.7654,-0.1001,-0.6136,-0.0649,-0.0065,2044
0,-0.2197,-0.6882,-0.1079,-0.7337,-0.1226,-0.1033,2046
0,-0.1582,-0.6404,-0.1194,-0.8415,-0.2101,-0.1926,2046
0,-0.0806,-0.5718,-0.1216,-0.978,-0.3962,-0.2233,2048
0,-0.0032,-0.5251,-0.1387,-1.1035,-0.6054,-0.2826,2045
0,0.0645,-0.4634,-0.1765,-1.1553,-0.8748,-0.3161,2045
0,0.1001,-0.4211,-0.1836,-1.1352,-1.223,-0.3369,2044
0,0.0837,-0.3594,-0.1929,-1.0894,-1.5902,-0.3589,2041
0,0.0579,-0.3423,-0.1995,-1.0644,-1.9294,-0.3722,2049
0,0.0095,-0.3293,-0.2244,-1.0649,-2.212,-0.3946,2044
0,-0.0281,-0.3083,-0.2664,-1.0676,-2.3746,-0.4063,2041
0,-0.0996,-0.292,-0.3103,-1.0576,-2.3823,-0.4183,2040
0,-0.1455,-0.3101,-0.3335,-1.0568,-2.2859,-0.4099,2046
0,-0.1819,-0.3374,-0.3328,-1.0645,-2.122,-0.4022,2043
0,-0.1985,-0.3462,-0.3376,-1.07,-1.9604,-0.3898,2045
0,-0.2131,-0.3674,-0.345,-1.065,-1.7744,-0.3686,2048
0,-0.2195,-0.4016,-0.3848,-1.0286,-1.5965,-0.3622,2045
0,-0.2327,-0.4402,-0.4285,-0.9372,-1.4117,-0.3737,2045
0,-0.2236,-0.5017,-0.4802,-0.8072,-1.2239,-0.3894,2043
0,-0.2256,-0.5923,-0.5105,-0.6497,-1.044,-0.384,2046
0,-0.2246,-0.6973,-0.499,-0.4573,-0.8299,-0.3484,2050
0,-0.2188,-0.832,-0.4509,-0.3265,-0.592,-0.2859,2051
0,-0.2231,-0.9744,-0.3865,-0.1906,-0.4026,-0.2571,2046
0,-0.2236,-1.116,-0.3118,-0.1254,-0.2802,-0.2607,2049
0,-0.238,-1.262,-0.2307,-0.134,-0.1959,-0.2601,2048
0,-0.2429,-1.4077,-0.1753,-0.2033,-0.1128,-0.2748,2046
0,-0.2583,-1.501,-0.1523,-0.1808,0.0127,-0.3231,2042
0,-0.2649,-1.6304,-0.082,-0.1784,0.1109,-0.4014,2045
0,-0.2595,-1.709,-0.0127,-0.2639,0.1663,-0.4703,2052
0,-0.2622,-1.7288,0.0813,-0.3846,0.1752,-0.5703,2048
0,-0.2939,-1.696,0.2173,-0.569,0.1715,-0.705,2050
0,-0.2788,-1.5698,0.3252,-0.8883,0.1951,-0.7973,2042
0,-0.283,-1.4612,0.353,-1.0788,0.1715,-0.853,2042
0,-0.2983,-1.4048,0.3359,-1.1889,0.0812,-0.8214,2049
0,-0.2913,-1.3789,0.2507,-1.121,0.0465,-0.7267,2043
0,-0.3489,-1.353,0.1609,-1.1457,-0.1755,-0.6042,2043
0,-0.4155,-1.2825,0.1101,-1.1636,-0.6086,-0.2673,2052
0,-0.5349,-1.2129,0.0381,-1.1234,-1.1407,0.1888,2043
0,-0.8162,-1.1897,-0.032,-0.8469,-1.5664,0.5781,2048
0,-1.1177,-1.2485,-0.0498,-0.3284,-1.8191,0.5734,2050
0,-1.2749,-1.2661,-0.1262,-0.1497,-1.742,0.4414,2048
0,-1.2229,-1.208,-0.1819,-0.3149,-1.5181,0.4665,2048
0,-0.7983,-1.113,-0.2717,-0.7138,-1.4039,0.5035,2044
0,-0.521,-0.9358,-0.2808,-0.6433,-1.1592,0.4489,2044
0,-0.3826,-0.8518,-0.1914,-0.4645,-0.5616,0.4035,2038
0,-0.2861,-0.7742,-0.1101,-0.2445,0.2333,0.4915,2045
1,-0.2136,-0.7927,-0.0757,0.1451,1.1515,0.5879,2044
1,-0.1511,-0.8635,-0.0881,0.5131,1.7703,0.766,2045
1,-0.0938,-0.9485,-0.0842,0.75,2.0016,0.9289,2046
1,-0.0647,-1.031,-0.0435,0.8208,1.9949,1.0531,2048
1,-0.0681,-1.1121,0.022,0.7633,1.9462,1.1676,2047
1,-0.1162,-1.1731,0.011,0.7677,2.0089,1.1901,2045
1,-0.1897,-1.2073,0.0,0.8044,2.0287,1.1411,2045
1,-0.2832,-1.2219,-0.022,0.85,1.8783,1.022,2045
1,-0.3279,-1.2144,-0.0261,0.7494,1.7101,0.8717,2044
1,-0.3167,-1.165,0.0242,0.5398,1.5573,0.7344,2048
1,-0.303,-1.0928,0.0566,0.3534,1.4043,0.5878,2049
1,-0.2786,-0.9587,0.1003,0.1768,1.2362,0.5068,2047
1,-0.272,-0.8396,0.1243,0.0406,1.1131,0.4484,2045
1,-0.2456,-0.7642,0.1033,-0.0437,0.926,0.3695,2042
1,-0.2175,-0.6626,0.0903,-0.1079,0.7079,0.3746,2041
1,-0.2153,-0.5154,0.0542,-0.2167,0.434,0.3952,2049
1,-0.2095,-0.396,-0.0034,-0.1304,0.2152,0.3517,2039
1,-0.2415,-0.3823,0.011,0.0393,0.0345,0.3044,2047
1,-0.2549,-0.3716,-0.0037,0.0413,-0.0176,0.2421,2049
1,-0.24,-0.3552,-0.0308,0.0222,-0.0522,0.1899,2048
1,-0.2434,-0.3464,-0.0713,0.019,-0.1028,0.1601,2043
1,-0.2549,-0.3223,-0.1067,0.0204,-0.1742,0.1105,2045
1,-0.2214,-0.3057,-0.1365,0.0635,-0.2466,0.0658,2040
1,-0.1809,-0.3071,-0.1782,0.0904,-0.2717,0.0049,2045
1,-0.167,-0.3008,-0.2102,0.134,-0.2991,-0.0285,2048
1,-0.1475,-0.3081,-0.2507,0.1887,-0.3697,-0.0198,2045
1,-0.1392,-0.3091,-0.2642,0.2629,-0.4839,-0.0415,2048
1,-0.1306,-0.342,-0.3035,0.3535,-0.5525,-0.129,2048
1,-0.1309,-0.3948,-0.3496,0.4785,-0.6279,-0.2177,2046
1,-0.1504,-0.4604,-0.3694,0.6096,-0.6504,-0.3045,2043
1,-0.1685,-0.5388,-0.3914,0.7401,-0.6593,-0.3754,2048
1,-0.1821,-0.5916,-0.3826,0.8925,-0.6456,-0.3936,2049
1,-0.2256,-0.6658,-0.3442,0.9728,-0.5633,-0.4345,2046
1,-0.2495,-0.7246,-0.2876,1.0216,-0.4341,-0.4235,2056
1,-0.2712,-0.7788,-0.2114,1.0376,-0.31,-0.4508,2046
1,-0.292,-0.8618,-0.1562,0.9933,-0.2087,-0.5062,2048
1,-0.3474,-0.9558,-0.1157,0.9108,-0.0894,-0.5589,2046
1,-0.4421,-1.0432,-0.1147,0.7833,0.0917,-0.6044,2041
1,-0.5166,-1.1423,-0.1267,0.6478,0.3093,-0.6349,2050
1,-0.6079,-1.2615,-0.1187,0.489,0.4974,-0.6253,2044
1,-0.7053,-1.3704,-0.0713,0.2139,0.5956,-0.6014,2040
1,-0.8171,-1.4373,-0.0635,-0.1129,0.6408,-0.4999,2046
1,-0.9475,-1.3965,-0.0195,-0.5112,0.6554,-0.2298,2044
1,-1.126,-1.3215,0.0386,-0.6909,0.4665,0.0884,2051
1,-1.2693,-1.1602,0.0876,-0.5528,0.3085,0.3129,2044
1,-1.2903,-1.0835,0.0757,-0.5337,0.2539,0.3611,2035
1,-1.2192,-1.0278,0.012,-0.7443,0.4482,0.1886,2041
1,-1.0498,-1.0061,-0.0476,-0.9837,0.6737,0.1167,2046
1,-0.9634,-1.0278,-0.1135,-0.9625,0.8803,0.0542,2044
1,-0.8904,-1.1089,-0.1909,-0.7806,0.8652,-0.0173,2045
1,-0.792,-1.2036,-0.301,-0.5882,0.6984,-0.0441,2049
1,-0.7,-1.2942,-0.366,-0.5578,0.5777,0.01,2044
1,-0.521,-1.2478,-0.3728,-0.6046,0.5248,0.0666,2046
1,-0.2981,-1.1536,-0.312,-0.7232,0.1233,0.1384,2039
1,-0.1936,-1.043,-0.3171,-0.7871,-0.3188,0.1527,2039
1,-0.1377,-0.9536,-0.2969,-0.5825,-0.7096,0.1633,2044
1,-0.1672,-0.9531,-0.3027,-0.318,-0.8923,0.1964,2045
1,-0.176,-0.9734,-0.3984,-0.0948,-1.0923,0.1634,2042
1,-0.208,-0.9875,-0.4578,0.2879,-1.3693,0.1417,2047
1,-0.1902,-1.0498,-0.488,0.6473,-1.5118,0.0136,2045
1,-0.1812,-1.116,-0.4834,0.8279,-1.4876,-0.026,2042
1,-0.1836,-1.2285,-0.5022,0.8657,-1.328,-0.006,2048
1,-0.2168,-1.3152,-0.49,0.8614,-1.0734,0.0411,2047
1,-0.2246,-1.3477,-0.4236,0.8364,-0.9214,0.2533,2050
1,-0.2832,-1.3628,-0.3142,0.8182,-0.7473,0.4385,2049
1,-0.2502,-1.3643,-0.2136,0.6245,-0.539,0.4974,2052
1,-0.2063,-1.3113,-0.157,0.4599,-0.4003,0.5038,2040
1,-0.1833,-1.1851,-0.0754,0.3442,-0.4022,0.4305,2048
1,-0.2119,-1.0876,0.0012,0.363,-0.4647,0.3441,2043
1,-0.187,-1.0142,0.0701,0.4039,-0.7139,0.2316,2042
1,-0.1497,-1.0073,0.092,0.4035,-0.801,0.0296,2042
1,-0.1506,-0.9829,0.0691,0.3352,-0.8431,-0.194,2042
1,-0.1892,-0.9443,0.0789,0.2012,-0.8967,-0.3819,2044
1,-0.1973,-0.9067,0.0696,0.0148,-0.8473,-0.4898,2043
1,-0.2449,-0.9045,0.064,-0.2585,-0.6975,-0.64,2051
1,-0.1589,-0.8047,0.032,-0.4871,-0.7006,-0.6424,2049
1,-0.0725,-0.7358,-0.0256,-0.6654,-0.7292,-0.6629,2044
1,-0.04,-0.6802,-0.0747,-0.8016,-0.7843,-0.6762,2041
1,-0.0144,-0.6301,-0.106,-0.9396,-0.8775,-0.7187,2050
1,0.0156,-0.5571,-0.1184,-1.0577,-1.0049,-0.7404,2047
1,0.0315,-0.4951,-0.1238,-1.1075,-1.1463,-0.7536,2052
1,0.011,-0.4241,-0.1528,-1.0887,-1.2689,-0.7271,2043
1,-0.0239,-0.3936,-0.1873,-1.0967,-1.3493,-0.7327,2047
1,-0.0518,-0.3706,-0.2136,-1.0676,-1.4275,-0.7313,2043
1,-0.1008,-0.3594,-0.2551,-1.0801,-1.4507,-0.7195,2051
1,-0.1597,-0.3489,-0.3071,-1.0347,-1.4069,-0.7255,2048
1,-0.2163,-0.3379,-0.3367,-0.9653,-1.2702,-0.7448,2043
1,-0.2476,-0.3652,-0.3652,-0.8963,-1.1162,-0.7407,2046
1,-0.2886,-0.3918,-0.408,-0.7943,-0.9159,-0.7758,2048
1,-0.3069,-0.4326,-0.4341,-0.7191,-0.7184,-0.7987,2049
1,-0.3071,-0.4705,-0.437,-0.6175,-0.5394,-0.8496,2052
1,-0.3086,-0.4858,-0.4509,-0.4424,-0.3533,-0.908,2050
1,-0.2913,-0.5691,-0.4419,-0.2874,-0.1545,-0.9403,2048
1,-0.292,-0.6511,-0.4329,-0.155,-0.0312,-0.9842,2048
1,-0.2949,-0.7253,-0.4309,-0.0092,-0.0044,-1.0443,2045
1,-0.2415,-0.7698,-0.4116,0.1192,-0.0855,-1.0605,2046
1,-0.2534,-0.866,-0.3857,0.1843,-0.1538,-1.1188,2048
1,-0.2678,-0.9893,-0.3308,0.2452,-0.2277,-1.2046,2046
1,-0.2703,-1.0857,-0.2681,0.29,-0.4742,-1.2045,2046
1,-0.293,-1.1826,-0.1951,0.3673,-0.7951,-1.1813,2047
1,-0.2952,-1.3477,-0.1465,0.3513,-1.123,-1.1983,2047
2,-0.3025,-1.4226,-0.093,0.507,-1.5729,-1.1484,2045
2,-0.3572,-1.5942,0.0208,0.5485,-1.7807,-1.1564,2048
2,-0.417,-1.6436,0.1172,0.4734,-1.9327,-1.0614,2045
2,-0.4944,-1.6353,0.2322,0.4117,-2.0021,-0.9594,2040
2,-0.5435,-1.6174,0.3533,0.2673,-1.9816,-0.7698,2044
2,-0.635,-1.6445,0.4319,-0.0475,-1.7044,-0.6723,2043
2,-0.679,-1.5356,0.4116,-0.1477,-1.2323,-0.2561,2044
2,-0.6614,-1.4917,0.2627,-0.1493,-0.5215,0.0225,2042
2,-0.6523,-1.4358,0.208,0.1502,0.0627,0.2084,2041
2,-0.6179,-1.5034,0.1348,0.171,1.0053,0.4034,2050
2,-0.7437,-1.3962,-0.0024,0.3771,2.026,0.4867,2050
2,-0.7109,-1.2607,0.0122,0.5172,2.1768,0.6514,2052
2,-0.6912,-1.1621,-0.0212,0.4999,1.8748,0.954,2045
2,-0.5569,-1.1218,-0.1592,0.3482,1.8108,1.2424,2045
2,-0.4087,-1.0107,-0.2881,0.2296,2.251,1.395,2041
2,-0.3008,-0.9341,-0.3052,0.3903,3.0305,1.3126,2045
2,-0.1389,-0.8833,-0.1965,0.6793,3.473,1.4608,2043
2,0.0205,-0.9099,-0.0547,0.8226,3.369,1.6415,2046
2,0.1399,-0.9692,-0.002,0.859,2.9646,1.8166,2041
2,0.2446,-1.0325,0.0039,0.9128,2.5942,1.8189,2044
2,0.2234,-1.1243,-0.022,0.9686,2.1262,1.6705,2045
2,0.1414,-1.1726,-0.0391,1.0279,1.7182,1.4479,2045
2,0.0535,-1.2153,-0.0239,0.9797,1.2745,1.2159,2048
2,-0.031,-1.2551,-0.0056,0.8553,0.8911,0.9846,2047
2,-0.0803,-1.2263,0.0144,0.7092,0.581,0.7644,2048
2,-0.1665,-1.1638,0.0125,0.5588,0.373,0.5774,2047
2,-0.2141,-1.0698,0.0125,0.4442,0.2485,0.446,2046
2,-0.2668,-0.9973,0.02,0.3286,0.2373,0.3235,2047
2,-0.3142,-0.8926,0.0278,0.276,0.2943,0.2236,2045
2,-0.324,-0.7893,0.0488,0.218,0.3942,0.1521,2039
2,-0.3105,-0.7148,0.0688,0.1099,0.4802,0.1188,2044
2,-0.2603,-0.6436,0.0339,0.0097,0.5288,0.1245,2043
2,-0.2449,-0.6011,0.0093,-0.0487,0.5558,0.1445,2046
2,-0.239,-0.5667,-0.0063,-0.0583,0.5492,0.1193,2040
2,-0.2117,-0.5415,-0.0022,-0.0795,0.5279,0.1111,2043
2,-0.1541,-0.4954,-0.0186,-0.1589,0.4813,0.0955,2055
2,-0.1135,-0.4797,-0.0752,-0.1683,0.404,0.0728,2041
2,-0.1084,-0.4402,-0.1194,-0.1658,0.2778,0.0878,2042
2,-0.0911,-0.4241,-0.1799,-0.1593,0.1165,0.0449,2045
2,-0.0679,-0.3953,-0.2104,-0.1095,-0.021,0.0806,2047
2,-0.0723,-0.3765,-0.2415,-0.0264,-0.1639,0.0874,2049
2,-0.0762,-0.3589,-0.25,0.038,-0.2951,0.0091,2045
2,-0.0723,-0.3892,-0.2656,0.1089,-0.4003,-0.091,2046
2,-0.0933,-0.4473,-0.2854,0.1794,-0.5072,-0.1685,2046
2,-0.1077,-0.4958,-0.3044,0.1875,-0.5639,-0.2035,2045
2,-0.1396,-0.5078,-0.2964,0.1835,-0.6285,-0.1975,2051
2,-0.1418,-0.5076,-0.3237,0.2495,-0.6232,-0.1916,2048
2,-0.1377,-0.5137,-0.292,0.3199,-0.7227,-0.1906,2045
2,-0.1475,-0.5686,-0.2607,0.3967,-0.7867,-0.2328,2048
2,-0.189,-0.6204,-0.2244,0.5265,-0.7857,-0.2402,2048
2,-0.2268,-0.6982,-0.1719,0.6143,-0.7086,-0.2349,2048
2,-0.3167,-0.7673,-0.1182,0.573,-0.5197,-0.2369,2045
2,-0.3831,-0.8337,-0.0911,0.4669,-0.3127,-0.2244,2045
2,-0.4202,-0.8779,-0.073,0.3694,-0.1353,-0.2175,2045
2,-0.4688,-0.9126,-0.0598,0.2574,0.0289,-0.2241,2048
2,-0.5063,-0.9365,-0.0408,0.139,0.1585,-0.1916,2044
2,-0.5908,-1.0476,-0.0413,0.0493,0.2245,-0.2349,2043
2,-0.6763,-1.1565,-0.0623,0.0475,0.2336,-0.2735,2051
2,-0.7903,-1.2214,-0.0513,-0.0329,0.1507,-0.0758,2044
2,-0.9836,-1.2378,-0.0344,-0.1151,0.1169,0.0864,2041
2,-1.1006,-1.2444,-0.0435,-0.1269,0.1514,0.1373,2055
2,-1.1877,-1.2141,-0.0459,-0.2541,0.3522,0.1139,2043
2,-1.1855,-1.1167,-0.0742,-0.412,0.6051,0.1096,2047
2,-1.1038,-1.0383,-0.0845,-0.5363,0.8015,0.1024,2047
2,-0.9851,-0.9863,-0.0891,-0.6221,0.8493,0.1521,2044
2,-0.947,-0.9609,-0.1387,-0.55,0.8895,0.1461,2045
2,-0.8975,-1.0251,-0.2124,-0.479,0.8184,0.0225,2043
2,-0.8042,-1.1021,-0.343,-0.3622,0.6794,-0.063,2047
2,-0.6873,-1.2161,-0.4736,-0.2304,0.5604,-0.0791,2043
2,-0.585,-1.3335,-0.5198,-0.1304,0.4405,-0.0216,2046
2,-0.4246,-1.3872,-0.4944,-0.3093,0.2832,-0.0282,2048
2,-0.2332,-1.3796,-0.4121,-0.5526,-0.0352,-0.0598,2047
2,-0.1104,-1.2324,-0.3401,-0.5721,-0.5175,-0.0431,2044
2,-0.0408,-1.0835,-0.2561,-0.4852,-0.9581,0.0422,2044
2,0.1392,-1.0332,-0.1748,-0.4024,-1.4093,0.1651,2043
2,0.1089,-1.2427,-0.2434,-0.0403,-1.9126,0.1743,2043
2,-0.1167,-1.3911,-0.2947,0.2462,-2.0136,0.0911,2045
2,-0.2244,-1.4431,-0.2542,0.2647,-2.1312,0.2212,2044
2,-0.303,-1.4294,-0.2244,0.1902,-2.2407,0.3924,2050
2,-0.313,-1.4302,-0.2004,0.0924,-1.9251,0.389,2047
2,-0.2966,-1.4307,-0.167,0.1437,-1.5464,0.4006,2045
2,-0.2356,-1.3999,-0.0867,0.0943,-1.3251,0.4354,2047
2,-0.2134,-1.3328,0.0469,-0.0993,-1.2557,0.4488,2044
2,-0.1775,-1.2273,0.0891,-0.2405,-1.1821,0.4714,2043
2,-0.175,-1.1187,0.0879,-0.2184,-1.0629,0.4895,2044
2,-0.2029,-1.0676,0.0972,-0.2424,-0.9524,0.4745,2042
2,-0.2463,-0.9783,0.0847,-0.3053,-0.7983,0.4189,2045
2,-0.2205,-0.905,0.0645,-0.4324,-0.7036,0.2964,2050
2,-0.1968,-0.8281,0.0225,-0.5454,-0.6252,0.1563,2049
2,-0.1714,-0.7896,0.0017,-0.7036,-0.534,0.0413,2041
2,-0.1228,-0.7058,-0.0293,-0.8018,-0.4967,-0.0798,2043
2,-0.0667,-0.6348,-0.0618,-0.8396,-0.5297,-0.1507,2054
2,-0.0588,-0.594,-0.0669,-0.924,-0.5781,-0.2008,2044
2,-0.0361,-0.5383,-0.0969,-0.993,-0.6811,-0.242,2045
2,-0.0242,-0.4778,-0.1282,-1.0509,-0.7851,-0.2834,2047
2,-0.042,-0.4373,-0.146,-1.1095,-0.8698,-0.3187,2042
2,-0.0544,-0.3687,-0.1577,-1.111,-0.9339,-0.3274,2044
2,-0.0657,-0.3225,-0.1694,-1.0934,-1.0087,-0.3517,2048
2,-0.0947,-0.3064,-0.1924,-1.08,-1.0437,-0.3713,2045
2,-0.1067,-0.2834,-0.2261,-1.0689,-1.0493,-0.4096,2044
2,-0.1326,-0.259,-0.2759,-1.0118,-1.0082,-0.448,2042
2,-0.1628,-0.262,-0.3096,-0.912,-0.919,-0.4995,2047
2,-0.2124,-0.2861,-0.3403,-0.8328,-0.8011,-0.5396,2046
3,-0.2461,-0.3062,-0.3684,-0.7657,-0.6618,-0.5734,2045
3,-0.2766,-0.3308,-0.3945,-0.6735,-0.5124,-0.6257,2049
3,-0.2788,-0.3711,-0.4241,-0.5719,-0.3686,-0.6806,2042
3,-0.2834,-0.45,-0.447,-0.45,-0.2107,-0.734,2046
3,-0.2717,-0.5203,-0.4575,-0.3285,-0.0664,-0.7823,2047
3,-0.2646,-0.5813,-0.4526,-0.1856,0.0204,-0.8361,2050
3,-0.2495,-0.6606,-0.4453,-0.041,0.0751,-0.8958,2043
3,-0.2317,-0.749,-0.4495,0.1261,0.1085,-0.9609,2052
3,-0.2256,-0.8474,-0.4409,0.2952,0.1007,-1.0218,2048
3,-0.2219,-0.9668,-0.4275,0.4809,0.0743,-1.0955,2047
3,-0.2266,-1.136,-0.3948,0.655,0.0345,-1.1644,2050
3,-0.2312,-1.3064,-0.3345,0.7831,-0.0065,-1.2106,2044
3,-0.2495,-1.4885,-0.2791,0.8401,-0.0521,-1.2769,2045
3,-0.2458,-1.5916,-0.1501,0.8991,-0.0585,-1.3103,2044
3,-0.2095,-1.6436,-0.0017,0.7128,-0.1053,-1.3655,2049
3,-0.2336,-1.6287,0.1238,0.5995,-0.1581,-1.4322,2041
3,-0.2764,-1.6401,0.2612,0.3172,-0.1786,-1.4665,2050
3,-0.4209,-1.5603,0.3047,0.0566,-0.2273,-1.5538,2043
3,-0.5229,-1.4585,0.3545,-0.2924,-0.1007,-1.3892,2044
3,-0.6685,-1.5173,0.3506,-0.5655,0.128,-0.7918,2040
3,-0.647,-1.2761,0.3586,-0.2545,0.1425,-0.1003,2041
3,-0.7102,-1.4697,0.2808,-0.0222,0.4478,0.0344,2051
3,-0.9382,-1.7671,0.1333,-0.1159,0.8572,0.2457,2057
3,-1.1719,-1.4739,-0.0471,-0.1289,1.3053,0.6891,2056
3,-1.0396,-1.4778,-0.1396,-0.1161,0.9569,0.8194,2049
3,-0.7087,-1.3638,-0.1609,0.0374,-0.2167,1.2074,2043
3,-0.6111,-1.2439,-0.2468,-0.0991,-0.6305,1.2901,2038
3,-0.4077,-1.1436,-0.3176,-0.1558,-0.1406,1.1443,2040
3,-0.2781,-1.0391,-0.2239,0.1531,0.6903,1.0757,2044
3,-0.2317,-0.9431,-0.1118,0.369,1.3077,1.3592,2044
3,-0.1523,-0.8953,-0.1038,0.5067,1.6368,1.5913,2047
3,-0.1064,-0.907,-0.1853,0.7407,1.7831,1.6905,2045
3,-0.0994,-0.9402,-0.2024,0.8324,1.8961,1.829,2047
3,-0.1343,-0.9902,-0.1765,0.7536,1.9527,2.0012,2049
3,-0.1465,-1.0796,-0.1494,0.7566,2.0052,2.157,2045
3,-0.1399,-1.1487,-0.1006,0.7815,2.1553,2.1284,2045
3,-0.1965,-1.1912,-0.0657,0.7847,2.2,2.0026,2046
3,-0.2188,-1.1624,-0.063,0.7901,1.963,1.752,2045
3,-0.2583,-1.1189,-0.0723,0.7363,1.6395,1.4551,2045
3,-0.2542,-1.0706,-0.0879,0.6501,1.4158,1.1926,2046
3,-0.2354,-0.9883,-0.0667,0.5967,1.2151,1.0021,2043
3,-0.229,-0.9038,-0.0356,0.5111,1.0431,0.8682,2046
3,-0.2388,-0.8323,0.01,0.4312,0.8508,0.8091,2042
3,-0.2449,-0.7522,0.043,0.3422,0.6541,0.6967,2047
3,-0.2441,-0.6841,0.0369,0.2898,0.4673,0.5572,2044
3,-0.2261,-0.593,0.0193,0.2956,0.2796,0.4326,2043
3,-0.2178,-0.5039,-0.0073,0.3368,0.1115,0.371,2045
3,-0.2283,-0.4373,-0.0242,0.3824,-0.0049,0.3321,2044
3,-0.2278,-0.4058,-0.0371,0.3931,-0.0554,0.3316,2049
3,-0.2292,-0.3857,-0.0422,0.3943,-0.0692,0.2784,2045
3,-0.2173,-0.3816,-0.061,0.3964,-0.0912,0.2081,2045
3,-0.2229,-0.3618,-0.0906,0.3769,-0.1358,0.1409,2045
3,-0.2112,-0.3354,-0.1421,0.3838,-0.178,0.0758,2046
3,-0.1887,-0.3237,-0.1831,0.4357,-0.2088,0.049,2044
3,-0.1516,-0.3188,-0.2261,0.5018,-0.2699,0.0257,2043
3,-0.1616,-0.3335,-0.2764,0.5999,-0.3243,-0.0165,2049
3,-0.1724,-0.374,-0.3086,0.7192,-0.3558,-0.0826,2048
3,-0.1677,-0.4141,-0.3059,0.8319,-0.4352,-0.1248,2048
3,-0.1934,-0.469,-0.303,0.9252,-0.5421,-0.2048,2044
3,-0.1997,-0.533,-0.2876,0.9845,-0.6612,-0.2661,2048
3,-0.207,-0.5938,-0.2375,0.9897,-0.7637,-0.3109,2046
3,-0.2078,-0.6147,-0.2107,0.9915,-0.8345,-0.3442,2049
3,-0.2124,-0.6433,-0.1833,0.9979,-0.8248,-0.3978,2041
3,-0.2163,-0.7156,-0.1489,0.9557,-0.8059,-0.3948,2045
3,-0.2673,-0.8044,-0.1484,0.9094,-0.8186,-0.3753,2048
3,-0.3379,-0.8264,-0.1157,0.9471,-0.6094,-0.4727,2046
3,-0.3811,-0.8616,-0.0676,0.9392,-0.4548,-0.5132,2048
3,-0.4255,-0.9402,-0.0312,0.8744,-0.2938,-0.5208,2043
3,-0.446,-1.0417,-0.0139,0.874,-0.0561,-0.6052,2046
3,-0.4932,-1.1257,-0.0049,0.8484,0.2819,-0.7423,2046
3,-0.5471,-1.1692,-0.0144,0.8208,0.6498,-0.8542,2044
3,-0.5391,-1.1912,0.0137,0.751,0.9058,-0.9031,2045
3,-0.5681,-1.2117,0.0322,0.62,1.0629,-0.9697,2047
3,-0.6135,-1.2058,0.032,0.428,1.2334,-1.0593,2043
3,-0.7419,-1.1453,0.0024,0.104,1.5121,-1.0411,2049
3,-0.9443,-1.0657,-0.1042,-0.0952,1.694,-0.6084,2043
3,-1.1675,-0.9607,-0.1516,-0.1261,1.4487,-0.0165,2046
3,-1.4058,-1.0227,-0.2883,-0.4396,0.9762,0.7094,2052
3,-1.4011,-1.3337,-0.5195,-0.8937,0.6903,0.7197,2049
3,-0.897,-1.2678,-0.5388,-0.7171,0.7905,0.0352,2040
3,-0.6624,-1.0872,-0.3635,-0.3504,0.8409,-0.5044,2043
3,-0.6731,-1.1062,-0.229,-0.0874,0.3137,-0.4473,2049
3,-0.7275,-1.2844,-0.2734,0.0633,-0.2613,-0.2017,2044
3,-0.6213,-1.4861,-0.3345,-0.1883,-0.6532,-0.0402,2047
3,-0.3765,-1.4514,-0.2847,-0.602,-0.819,-0.1005,2044
3,-0.1616,-1.3042,-0.1924,-0.8103,-1.1007,-0.189,2047
3,-0.041,-1.1833,-0.0442,-0.7991,-1.5492,-0.1638,2050
3,-0.0952,-1.1572,0.0229,-0.5536,-2.051,-0.0983,2044
3,-0.2666,-1.196,0.0237,-0.2754,-2.2758,-0.1201,2042
3,-0.342,-1.2747,-0.0522,-0.1469,-2.3441,-0.0121,2046
3,-0.3555,-1.3582,-0.1147,-0.1685,-2.1815,0.1188,2043
3,-0.3665,-1.4253,-0.1584,-0.3928,-1.9016,0.1329,2046
3,-0.3472,-1.4353,-0.1616,-0.5112,-1.644,0.167,2053
3,-0.3362,-1.3474,-0.1091,-0.4798,-1.2657,0.2203,2051
3,-0.219,-1.2146,0.0061,-0.5406,-0.9858,0.3599,2045
3,-0.2021,-1.1448,0.0454,-0.5733,-0.7969,0.4128,2046
3,-0.1895,-1.0974,0.0774,-0.5172,-0.6359,0.3915,2046
3,-0.1646,-1.0405,0.0908,-0.4918,-0.6628,0.3551,2046
3,-0.1375,-1.01,0.0813,-0.4165,-0.6919,0.2446,2042
3,-0.1384,-0.9666,0.0715,-0.4438,-0.6827,0.1806,2047
3,-0.1584,-0.9346,0.0588,-0.5369,-0.6352,0.0984,2045
3,-0.1787,-0.8728,0.0415,-0.6482,-0.661,0.0356,2044
4,-0.1782,-0.8115,0.0452,-0.7672,-0.6903,-0.0429,2048
4,-0.1638,-0.7393,0.0496,-0.8822,-0.7255,-0.1217,2044
4,-0.1445,-0.658,0.0476,-1.0023,-0.7428,-0.1654,2046
4,-0.1221,-0.5879,0.0371,-1.0917,-0.7823,-0.2005,2048
4,-0.1257,-0.5186,0.0283,-1.1696,-0.8497,-0.2197,2047
4,-0.1226,-0.4507,-0.0068,-1.1927,-0.9313,-0.2389,2048
4,-0.1255,-0.428,-0.0193,-1.2207,-0.9737,-0.2633,2045
4,-0.124,-0.3879,-0.0425,-1.224,-1.0042,-0.2727,2045
4,-0.1399,-0.3496,-0.0691,-1.1758,-1.0247,-0.2884,2047
4,-0.1489,-0.3345,-0.0854,-1.1224,-1.0405,-0.3097,2045
4,-0.1494,-0.3213,-0.1123,-1.0909,-1.0528,-0.3432,2048
4,-0.1672,-0.3105,-0.1387,-1.0389,-1.0318,-0.3492,2044
4,-0.1826,-0.3069,-0.1675,-0.9582,-1.001,-0.3498,2045
4,-0.2087,-0.2957,-0.197,-0.8762,-0.9565,-0.3695,2044
4,-0.2314,-0.3013,-0.2322,-0.75,-0.8799,-0.4124,2043
4,-0.2517,-0.3162,-0.2708,-0.6119,-0.7875,-0.4713,2044
4,-0.2856,-0.3447,-0.3157,-0.4538,-0.6795,-0.5363,2045
4,-0.2905,-0.3948,-0.3591,-0.2876,-0.5657,-0.6087,2047
4,-0.2971,-0.4426,-0.3799,-0.1316,-0.4597,-0.6806,2045
4,-0.27,-0.4954,-0.4106,0.0208,-0.3561,-0.7291,2046
4,-0.2712,-0.5684,-0.4153,0.1888,-0.2136,-0.7861,2047
4,-0.29,-0.6584,-0.4438,0.3787,-0.0618,-0.8658,2045
4,-0.3162,-0.7561,-0.4819,0.6075,0.068,-0.9694,2045
4,-0.3335,-0.8958,-0.5408,0.9255,0.1553,-1.099,2043
4,-0.3474,-1.1091,-0.5779,1.2437,0.2112,-1.201,2049
4,-0.3286,-1.3198,-0.532,1.5567,0.2622,-1.2155,2046
4,-0.291,-1.5024,-0.4126,1.7567,0.2939,-1.1919,2049
4,-0.2761,-1.5935,-0.231,1.7464,0.3558,-1.203,2048
4,-0.2375,-1.6135,-0.0322,1.597,0.4111,-1.1974,2047
4,-0.2412,-1.5222,0.1226,1.4189,0.575,-1.1774,2040
4,-0.2729,-1.4924,0.2593,1.2095,0.7324,-1.1244,2040
4,-0.3308,-1.4995,0.3235,1.0299,0.8773,-1.0513,2044
4,-0.3855,-1.3762,0.3745,1.0355,0.9843,-0.9316,2039
4,-0.3892,-1.4563,0.4104,0.6703,1.1921,-0.6127,2043
4,-0.5903,-1.5693,0.3228,0.0021,1.0069,-0.2133,2046
4,-0.8015,-1.5881,0.2617,0.22,-0.0794,0.5345,2051
4,-1.3232,-1.4734,0.2146,0.1069,-1.1243,1.0625,2053
4,-1.5149,-1.6328,0.0439,-0.2341,-1.4339,1.0508,2049
4,-1.2173,-1.7344,0.0281,-0.5216,-1.0457,0.5094,2042
4,-0.6658,-1.3611,0.24,-0.6055,-0.4846,0.4653,2039
4,-0.5923,-1.252,0.3787,-0.5155,0.3116,0.3,2041
4,-0.407,-1.208,0.321,-0.6244,0.4878,0.3316,2045
4,-0.1501,-1.127,0.175,-0.8857,0.4448,0.5378,2040
4,0.2197,-1.1355,0.0222,-1.2086,0.4681,0.7898,2042
4,0.5186,-1.1511,-0.1069,-1.1172,0.497,1.0832,2044
4,0.5986,-1.0669,-0.1531,-0.7525,0.4348,1.3806,2040
4,0.3364,-0.981,-0.23,-0.2579,0.4601,1.4328,2051
4,0.0547,-0.9993,-0.2021,-0.0095,0.3948,1.566,2052
4,-0.1536,-1.0232,-0.1611,-0.0282,0.2874,1.6791,2048
4,-0.2803,-1.0093,-0.1509,-0.1587,0.3569,1.7446,2045
4,-0.3835,-1.0305,-0.166,-0.3085,0.6193,1.7215,2049
4,-0.4058,-1.0171,-0.21,-0.3091,1.0569,1.6544,2047
4,-0.3784,-0.9382,-0.1907,-0.3239,1.5037,1.5143,2046
4,-0.397,-0.8875,-0.1726,-0.4452,1.8138,1.4074,2046
4,-0.3962,-0.8416,-0.124,-0.5094,2.01,1.334,2049
4,-0.3818,-0.8015,-0.0344,-0.6399,2.1122,1.266,2048
4,-0.3191,-0.7251,0.0308,-0.7897,2.0602,1.1876,2044
4,-0.2583,-0.6379,0.0493,-0.8749,1.9294,1.0921,2045
4,-0.2131,-0.5547,0.051,-0.8656,1.754,0.9665,2044
4,-0.2043,-0.4746,0.0603,-0.8465,1.5857,0.8032,2042
4,-0.1765,-0.4351,0.0525,-0.8337,1.3042,0.6632,2045
4,-0.1543,-0.395,0.0525,-0.7871,0.9788,0.4958,2045
4,-0.0996,-0.3579,0.0464,-0.7739,0.6522,0.3257,2042
4,-0.1008,-0.3271,0.0088,-0.7088,0.3281,0.248,2044
4,-0.0918,-0.3105,-0.0254,-0.6524,0.0411,0.1997,2046
4,-0.1233,-0.3137,-0.0757,-0.5866,-0.1494,0.1381,2049
4,-0.1633,-0.322,-0.1392,-0.4995,-0.2457,0.0182,2042
4,-0.231,-0.3218,-0.1753,-0.4405,-0.3241,-0.1557,2043
4,-0.2405,-0.301,-0.2087,-0.3496,-0.3324,-0.2348,2041
4,-0.2634,-0.335,-0.2542,-0.2464,-0.3416,-0.2906,2045
4,-0.2385,-0.3948,-0.2751,-0.1376,-0.3723,-0.3988,2048
4,-0.1868,-0.4224,-0.261,-0.0253,-0.4509,-0.4578,2043
4,-0.1812,-0.4436,-0.2556,0.098,-0.5581,-0.5006,2046
4,-0.176,-0.5264,-0.2407,0.1911,-0.5774,-0.6046,2037
4,-0.1633,-0.6375,-0.2083,0.2883,-0.5799,-0.6309,2043
4,-0.2068,-0.7961,-0.1338,0.23,-0.4833,-0.6066,2051
4,-0.2373,-0.9119,-0.0808,-0.0109,-0.3121,-0.5755,2040
4,-0.2588,-1.012,-0.1086,-0.139,-0.1965,-0.5098,2051
4,-0.3445,-1.0439,-0.0835,-0.2733,0.232,-0.3912,2028
4,-0.4944,-1.0967,-0.0493,-0.4854,0.8554,-0.3393,2040
4,-0.6326,-1.1091,-0.1267,-0.6297,1.218,-0.4034,2064
4,-0.7285,-1.1528,-0.2302,-0.6719,1.4676,-0.2737,2045
4,-0.7532,-1.2729,-0.2847,-0.7708,1.8552,-0.206,2049
4,-0.6362,-1.3452,-0.3225,-0.9714,2.0253,0.0895,2054
4,-0.5913,-1.3074,-0.4124,-1.3154,2.0509,0.5658,2056
4,-0.8311,-1.1763,-0.5623,-1.2983,1.7614,0.981,1992
4,-1.083,-1.114,-0.5962,-1.1427,1.2316,1.3035,1996
4,-1.2471,-1.1052,-0.5884,-1.0127,0.8869,1.5233,2060
4,-1.2896,-1.1182,-0.6389,-0.9797,0.8198,1.5649,2013
4,-1.2654,-1.095,-0.7568,-1.0042,0.5978,1.6022,2090
4,-1.3347,-1.0505,-0.8936,-0.9139,0.3739,1.6117,2065
4,-1.2952,-0.9817,-0.9614,-0.8267,0.2515,1.7411,2063
4,-1.2285,-1.01,-0.9692,-1.0318,0.3598,1.9816,2072
4,-1.0815,-1.1057,-0.9524,-1.3149,0.5153,2.1655,2100
4,-1.0146,-1.2058,-0.9727,-1.6811,0.5028,2.5456,2149
4,-1.134,-1.0867,-0.9915,-2.0599,0.5012,2.9391,2029
4,-1.1125,-0.925,-0.9524,-2.4553,0.4136,3.1359,2030
4,-1.0793,-0.8501,-1.0166,-2.8486,0.2594,3.2352,2050
4,-1.0537,-0.6992,-1.0715,-2.8711,0.1412,3.3619,2015
4,-1.02,-0.5566,-1.0505,-2.8596,0.1678,3.4495,2180
4,-0.8191,-0.5957,-1.0029,-3.1104,-0.3418,3.7053,2009
4,-0.9087,-0.5195,-1.0544,-3.32,-0.447,3.7462,1996
4,-0.8823,-0.4136,-1.072,-3.4561,-0.8131,3.7949,2230
5,-0.8962,-0.3481,-1.0598,-3.6588,-1.0622,3.888,2002
5,-0.8687,-0.4055,-0.9966,-3.9189,-1.3255,3.8195,2091
5,-0.8113,-0.3943,-0.9336,-4.0499,-1.6198,3.6708,1977
5,-0.7837,-0.2905,-0.8628,-4.2868,-1.7213,3.5981,2052
5,-0.8142,-0.1216,-0.9382,-4.3635,-1.6676,3.5198,2036
5,-0.8757,0.0237,-0.9641,-4.3635,-1.466,3.4403,2077
5,-0.7419,0.0781,-0.937,-4.3635,-1.2167,3.2333,2057
5,-0.7261,-0.019,-0.908,-4.3635,-0.9428,3.2584,2076
5,-0.6606,-0.0166,-0.8713,-4.3635,-0.726,3.1319,2035
5,-0.5383,0.0142,-0.8601,-4.3635,-0.5111,3.0018,2057
5,-0.3721,0.0508,-0.7673,-4.3635,-0.2807,2.8909,2010
5,-0.3533,0.0183,-0.6389,-4.3635,0.0533,2.8102,2054
5,-0.2241,0.0315,-0.5544,-4.3635,0.2284,2.7104,2036
5,-0.1543,0.0737,-0.5117,-4.3635,0.2547,2.5361,2060
5,-0.0591,0.1208,-0.4827,-4.3635,0.094,2.3185,2037
5,-0.0815,0.0781,-0.4893,-4.3635,0.0001,2.1349,2051
5,0.0049,0.0896,-0.4966,-4.3635,0.1619,1.8655,2059
5,-0.0349,-0.134,-0.3542,-4.3635,0.3021,1.6801,2050
5,-0.0508,-0.075,-0.3049,-4.3635,0.1357,1.3997,2054
5,-0.0339,-0.1504,-0.2686,-4.3635,0.1258,1.2881,2052
5,0.0256,-0.145,-0.2451,-4.3635,0.1667,1.099,2044
5,-0.0098,-0.0127,-0.1792,-4.3635,0.2774,0.9246,2043
5,0.032,0.0828,-0.2126,-4.1602,0.3569,0.8148,2038
5,0.0002,0.1438,-0.2092,-3.6391,0.3007,0.6783,2042
5,0.0027,0.1187,-0.1641,-3.1507,0.2661,0.5018,2015
5,0.085,0.1794,-0.1653,-2.7128,0.1567,0.2582,2015
5,0.051,0.1428,-0.2271,-2.281,-0.0266,0.0329,2022
5,-0.0959,0.1562,-0.2456,-1.8747,-0.2065,-0.2148,1988
5,-0.1746,0.1226,-0.2188,-1.5918,-0.2208,-0.3128,2001
5,-0.2083,0.0676,-0.2471,-1.3374,-0.1666,-0.4129,2074
5,-0.3145,0.2302,-0.2107,-1.1274,-0.0747,-0.5364,2107
5,-0.4929,0.3406,-0.2073,-0.785,0.2948,-0.6316,2065
5,-0.5361,0.2981,-0.1667,0.1401,0.7265,-0.6263,2126
5,-0.541,0.4263,-0.166,1.0022,0.907,-0.4834,1960
5,-0.6394,0.4265,-0.4707,0.9328,0.6786,-0.3117,2075
5,-0.7322,0.5173,-0.8972,0.1868,0.7455,-0.2566,2084
5,-0.7488,0.7246,-0.8459,-0.1928,1.0922,-0.2639,2060
5,-0.8701,0.8618,-0.3186,-0.2418,0.9866,-0.3458,2019
5,-0.9187,0.9072,-0.1104,-0.1892,0.736,-0.4859,2064
5,-0.9797,0.9304,-0.0796,0.0641,0.5915,-0.556,2000
5,-1.1541,0.8564,-0.1196,0.1615,0.4064,-0.4012,2083
5,-1.1899,0.7036,-0.2827,-0.0601,0.2121,-0.1521,2047
5,-1.1309,0.7329,-0.2976,-0.1523,0.063,-0.068,2067
5,-1.1199,0.8035,-0.354,-0.296,0.082,-0.2052,2090
5,-1.0581,0.8455,-0.2463,-0.3473,-0.2177,-0.2787,2083
5,-0.9915,0.9153,-0.2329,-0.157,-0.4478,-0.2702,2073
5,-1.0151,0.864,-0.3054,-0.0236,-0.6023,-0.276,2058
5,-1.0764,0.77,-0.2847,0.0646,-0.6026,-0.2655,2045
5,-1.053,0.7214,-0.4207,0.1213,-0.562,-0.224,2004
5,-1.071,0.7004,-0.4526,0.0876,-0.4617,-0.239,1985
5,-1.0107,0.6375,-0.4509,0.1033,-0.4318,-0.1209,2052
5,-0.9185,0.5872,-0.4199,0.1065,-0.5098,-0.004,2013
5,-0.8049,0.5474,-0.4729,0.2156,-0.7626,0.1597,1905
5,-0.8206,0.5127,-0.5264,0.2495,-0.8668,0.2,2123
5,-0.8608,0.5251,-0.5779,0.3228,-0.7897,0.275,2050
5,-0.9036,0.5503,-0.5701,0.363,-0.5271,0.3342,2141
5,-0.8313,0.6094,-0.5979,0.336,-0.2256,0.3633,2069
5,-0.7952,0.5896,-0.5298,0.3546,0.0286,0.4015,2009
5,-0.7551,0.5989,-0.4595,0.3879,0.1416,0.4769,2095
5,-0.7656,0.6006,-0.4165,0.3597,0.1876,0.5426,2050
5,-0.7095,0.6233,-0.4226,0.3345,0.2409,0.5943,2041
5,-0.7456,0.666,-0.3389,0.2803,0.2968,0.5429,2062
5,-0.7302,0.6523,-0.2656,0.2286,0.3413,0.4813,2085
5,-0.7275,0.6628,-0.208,0.1952,0.3557,0.4841,2094
5,-0.7283,0.7031,-0.2236,0.1293,0.3931,0.4353,2072
5,-0.6885,0.6548,-0.2009,0.035,0.3657,0.3958,2093
5,-0.5576,0.6694,-0.188,-0.0099,0.3236,0.4661,2061
5,-0.512,0.666,-0.1191,-0.0108,0.2242,0.5167,1893
5,-0.4729,0.666,-0.0295,0.0431,0.0807,0.5441,1920
5,-0.4785,0.6423,0.0159,0.0795,-0.0422,0.5862,2043
5,-0.4553,0.6082,0.0271,0.0758,-0.1409,0.6359,2070
5,-0.4287,0.5569,0.0173,0.0097,-0.2276,0.6718,2077
5,-0.4211,0.5374,0.0061,-0.0602,-0.3328,0.7139,2032
5,-0.4043,0.5254,0.0146,-0.0748,-0.3935,0.7311,2045
5,-0.4172,0.5012,0.0007,-0.061,-0.4509,0.7293,2042
5,-0.4238,0.4407,-0.0415,-0.0569,-0.4908,0.7023,2043
5,-0.4421,0.4165,-0.0696,-0.059,-0.4758,0.5926,2045
5,-0.4575,0.4048,-0.1099,-0.0919,-0.4337,0.4244,2041
5,-0.447,0.3879,-0.1462,-0.1095,-0.3777,0.2253,2036
5,-0.4441,0.3574,-0.1736,-0.1296,-0.3333,0.0125,2033
5,-0.4458,0.406,-0.1863,-0.1131,-0.2719,-0.179,2054
5,-0.4419,0.4163,-0.1943,-0.0824,-0.1968,-0.3353,2069
5,-0.4385,0.4036,-0.1714,-0.0609,-0.1482,-0.4301,2052
5,-0.457,0.3955,-0.1602,-0.0513,-0.0969,-0.4735,2043
5,-0.4465,0.3999,-0.1414,-0.019,-0.1043,-0.4007,2057
5,-0.4746,0.425,-0.1235,0.0551,-0.1607,-0.2737,2040
5,-0.5032,0.4644,-0.1223,0.1063,-0.1679,-0.1979,2049
5,-0.5376,0.4739,-0.134,0.1703,-0.1691,-0.1535,2047
5,-0.5679,0.4761,-0.1396,0.1936,-0.0631,-0.1024,2000
5,-0.6206,0.5042,-0.1658,0.1975,0.0691,-0.0419,2032
5,-0.644,0.5813,-0.1921,0.2216,0.2095,0.0377,2046
5,-0.6519,0.6675,-0.2117,0.2346,0.3685,0.1647,2053
5,-0.6863,0.7529,-0.2195,0.2834,0.5132,0.2617,2050
5,-0.7424,0.8071,-0.2212,0.2892,0.602,0.3326,2062
5,-0.7808,0.8621,-0.2056,0.3156,0.6142,0.3454,2008
5,-0.8384,0.9065,-0.1895,0.3132,0.6225,0.3928,2072
5,-0.8604,0.9607,-0.1675,0.3155,0.5659,0.4295,1949
5,-0.885,1.0,-0.166,0.271,0.5229,0.4661,2080
5,-0.8701,1.0193,-0.1506,0.1561,0.4831,0.4685,2031
5,-0.8606,1.0254,-0.1638,0.0567,0.3653,0.4176,2058
5,-0.7837,0.9971,-0.2463,-0.0972,0.2607,0.3306,2041
5,-0.7588,0.9875,-0.3091,-0.2305,0.2088,0.2491,2039
6,-0.7712,0.9741,-0.376,-0.291,0.1455,0.1714,2028
6,-0.7842,0.8882,-0.4451,-0.3862,0.1863,0.0698,2028
6,-0.8923,0.8679,-0.5505,-0.4256,0.3211,-0.1298,2044
6,-0.8503,0.8398,-0.5867,-0.4354,0.4679,-0.3486,2049
6,-0.7686,0.8228,-0.5774,-0.381,0.5359,-0.4552,2062
6,-0.7385,0.7859,-0.5388,-0.248,0.4528,-0.5147,2047
6,-0.6455,0.6741,-0.4849,-0.0325,0.31,-0.5394,2006
6,-0.5251,0.5986,-0.5127,0.1574,0.088,-0.5651,1969
6,-0.5999,0.5479,-0.5183,0.3124,-0.0119,-0.6795,2015
6,-0.5647,0.5015,-0.5669,0.3922,-0.0574,-0.7733,2049
6,-0.479,0.4539,-0.6245,0.4508,-0.0386,-0.9604,2070
6,-0.5132,0.498,-0.666,0.5123,0.0847,-1.1648,2029
6,-0.5234,0.6514,-0.7283,0.5558,0.278,-1.4218,2107
6,-0.5703,0.8022,-0.7866,0.6717,0.6087,-1.546,2044
6,-0.6218,0.9065,-0.7939,0.7779,1.0487,-1.586,2048
6,-0.7854,1.0022,-0.6726,0.9138,1.1588,-1.6904,2042
6,-0.5068,0.8262,-0.6067,0.7048,1.619,-1.7347,2037
6,-0.4939,0.8821,-0.5457,0.4077,1.6898,-1.5937,1978
6,-0.6013,0.9307,-0.4231,0.0884,1.4588,-1.458,2043
6,-0.5762,0.9282,-0.4807,-0.0997,1.7847,-1.3892,2024
6,-0.4678,0.9329,-0.416,-0.0546,1.6855,-1.0457,2090
6,-0.5955,0.8401,-0.2964,-0.3039,1.627,-1.2689,2037
6,-0.6558,0.8296,-0.249,-0.5014,1.5255,-1.1364,2006
6,-0.6514,0.7812,-0.2192,-0.9315,1.5177,-0.9955,2037
6,-0.7717,0.7124,-0.1562,-1.1901,1.4958,-0.7042,2038
6,-0.7415,0.6243,-0.1082,-1.3344,1.3479,-0.3438,2019
6,-0.6194,0.5444,-0.0874,-1.3661,1.0705,-0.0437,2029
6,-0.5989,0.4841,-0.105,-1.3021,0.6819,0.1417,2038
6,-0.5925,0.4265,-0.0662,-1.2139,0.3378,0.1265,2045
6,-0.5217,0.417,-0.1055,-1.08,0.2442,-0.0085,2046
6,-0.4592,0.3665,-0.0544,-0.7043,0.1337,-0.2084,2051
6,-0.4275,0.4382,-0.0972,-0.3161,0.0776,-0.3517,2048
6,-0.3489,0.4509,-0.1147,0.1342,-0.1352,-0.4046,2042
6,-0.344,0.4099,-0.2117,0.3286,-0.3472,-0.4129,2004
6,-0.3606,0.4292,-0.282,0.4028,-0.3549,-0.3474,2038
6,-0.4236,0.4531,-0.3149,0.4145,-0.2507,-0.2205,2039
6,-0.3518,0.47,-0.3301,0.418,-0.2421,-0.1712,2038
6,-0.3452,0.4592,-0.3301,0.3011,-0.1599,-0.1667,1999
6,-0.3721,0.4268,-0.2676,0.2357,-0.0694,-0.1637,2087
6,-0.3325,0.4167,-0.2588,0.1818,0.0308,-0.2629,2047
6,-0.5378,0.5322,-0.2341,0.2518,0.428,-0.2151,2059
6,-0.4727,0.5647,-0.2502,0.2055,0.2759,-0.1354,2049
6,-0.5293,0.5432,-0.1914,0.3699,0.1876,-0.1196,2039
6,-0.5488,0.6284,-0.2881,0.4707,0.2726,-0.2337,2067
6,-0.6206,0.6597,-0.4089,0.4714,0.2358,-0.2955,2042
6,-0.6467,0.5544,-0.5186,0.3577,-0.0831,-0.3278,1970
6,-0.7021,0.562,-0.6257,0.2476,-0.035,-0.3806,2115
6,-0.804,0.5947,-0.6245,0.2245,0.1835,-0.4223,1960
6,-0.8821,0.5938,-0.5701,0.2073,0.2755,-0.3777,2058
6,-0.8574,0.5833,-0.5117,0.3109,0.2844,-0.3438,2049
6,-0.8708,0.6294,-0.5186,0.4018,0.2812,-0.2922,2071
6,-0.9243,0.6865,-0.5,0.4273,0.1807,-0.2795,2084
6,-0.9072,0.6829,-0.4595,0.3968,0.0128,-0.3184,2045
6,-0.8777,0.6541,-0.4111,0.3622,-0.1466,-0.3516,2051
6,-0.9021,0.6885,-0.4043,0.3496,-0.3417,-0.3412,2062
6,-0.9468,0.7446,-0.4246,0.3928,-0.4707,-0.2718,2018
6,-1.0413,0.7991,-0.4795,0.3713,-0.5144,-0.2368,2025
6,-1.0081,0.8328,-0.5935,0.2405,-0.5229,-0.1827,2036
6,-0.9624,0.7903,-0.6133,0.1992,-0.5975,-0.1312,2091
6,-0.9663,0.6987,-0.5742,0.12,-0.5782,-0.0964,2031
6,-0.9761,0.6448,-0.5112,0.1461,-0.616,-0.0522,2048
6,-1.0273,0.6116,-0.5015,0.2333,-0.6478,0.0392,2014
6,-1.0276,0.5818,-0.5564,0.3404,-0.7424,0.0565,2078
6,-1.0081,0.5652,-0.6172,0.3851,-0.7391,0.0744,2113
6,-0.9883,0.5161,-0.6455,0.3103,-0.7626,0.1031,2046
6,-0.9363,0.4382,-0.6021,0.245,-0.9013,0.1285,2108
6,-0.7593,0.3728,-0.6042,0.2538,-1.0433,0.106,2042
6,-0.7471,0.3047,-0.6152,0.3545,-1.1098,0.1274,2052
6,-0.7527,0.2898,-0.6592,0.4959,-1.1334,0.1703,2053
6,-0.7234,0.269,-0.7126,0.6568,-1.0946,0.2097,1956
6,-0.7656,0.2593,-0.7603,0.7195,-0.9266,0.3167,2075
6,-0.7808,0.2764,-0.7827,0.7135,-0.6228,0.4378,2084
6,-0.7656,0.2637,-0.7368,0.6646,-0.3392,0.5875,2074
6,-0.7449,0.2583,-0.6616,0.5975,-0.1376,0.6232,2049
6,-0.7686,0.3306,-0.5764,0.5597,0.0708,0.6103,2042
6,-0.7397,0.3264,-0.4961,0.5557,0.1578,0.4963,2056
6,-0.73,0.335,-0.4841,0.5666,0.1906,0.3923,2040
6,-0.7168,0.3857,-0.4509,0.5753,0.2052,0.3144,2043
6,-0.7122,0.4636,-0.4419,0.5496,0.2834,0.2828,2043
6,-0.6873,0.4739,-0.3738,0.5711,0.3025,0.3243,2065
6,-0.6616,0.4631,-0.3381,0.5361,0.3068,0.3931,2045
6,-0.5271,0.4851,-0.3005,0.5345,0.1732,0.4299,2042
6,-0.5623,0.4612,-0.2139,0.4914,0.0609,0.322,2051
6,-0.533,0.4272,-0.1631,0.5086,-0.043,0.2538,2044
6,-0.4727,0.3923,-0.1399,0.5429,-0.2012,0.149,2052
6,-0.5017,0.3613,-0.1099,0.5291,-0.2847,0.0276,2048
6,-0.4683,0.3193,-0.1167,0.5697,-0.331,-0.0144,2036
6,-0.4656,0.2793,-0.0996,0.5678,-0.3559,-0.0964,2047
6,-0.4456,0.2466,-0.1094,0.5496,-0.398,-0.1234,2046
6,-0.3999,0.26,-0.1172,0.5311,-0.4071,-0.0999,2037
6,-0.418,0.2788,-0.1345,0.4755,-0.3638,-0.1212,2045
6,-0.4731,0.3206,-0.137,0.442,-0.3281,-0.0486,2038
6,-0.4241,0.3794,-0.1895,0.4036,-0.2984,-0.0653,2034
6,-0.3621,0.4106,-0.2395,0.4353,-0.2887,0.0292,2042
6,-0.4292,0.4482,-0.2837,0.4831,-0.2045,-0.0373,2033
6,-0.4275,0.4255,-0.3037,0.5895,-0.1537,0.0353,2041
6,-0.448,0.3945,-0.2988,0.6538,-0.0622,0.0467,2054
6,-0.4714,0.3542,-0.292,0.6878,0.0181,0.0358,2029
6,-0.5242,0.3076,-0.2581,0.7,0.0541,0.0511,2047
6,-0.5176,0.2698,-0.2451,0.6391,0.0779,0.0637,2059
6,-0.5845,0.2842,-0.2461,0.5817,0.0911,0.0786,2046
6,-0.5947,0.3484,-0.2974,0.5513,0.1063,0.1268,2047
6,-0.6375,0.4153,-0.3521,0.5597,0.1611,0.1547,2058
7,-0.7039,0.4978,-0.3762,0.562,0.2033,0.1702,2050
7,-0.7717,0.551,-0.3936,0.524,0.2237,0.2016,2110
7,-0.8574,0.6179,-0.4282,0.495,0.2044,0.2103,2036
7,-0.866,0.5723,-0.438,0.381,0.1214,0.208,2073
7,-0.9587,0.5984,-0.5066,0.2128,0.2577,0.2545,2054
7,-0.9973,0.6011,-0.4951,0.0959,0.3417,0.2535,2052
7,-0.9746,0.5862,-0.4626,-0.0309,0.3862,0.2726,2067
7,-1.0486,0.5986,-0.4182,-0.1766,0.4304,0.2766,2056
7,-1.0007,0.6323,-0.3845,-0.2731,0.3232,0.3024,2052
7,-0.9509,0.6733,-0.3684,-0.3356,0.171,0.4026,2044
7,-0.9985,0.7039,-0.353,-0.3824,0.0788,0.3617,2052
7,-0.9966,0.7705,-0.3955,-0.3621,0.0031,0.4176,2053
7,-0.9678,0.7913,-0.4248,-0.3219,-0.0487,0.3924,2069
7,-0.9724,0.8689,-0.5142,-0.2533,0.0193,0.3289,2052
7,-0.9812,0.8835,-0.5957,-0.1457,0.0698,0.2878,2003
7,-0.9417,0.8562,-0.676,-0.047,0.0679,0.2549,2063
7,-0.8521,0.8123,-0.7188,0.0571,-0.0173,0.1788,2044
7,-0.9192,0.7573,-0.7085,0.1574,-0.0786,0.1009,2027
7,-0.8323,0.7549,-0.7446,0.2646,-0.177,0.1579,2037
7,-0.8057,0.7175,-0.739,0.2816,-0.1923,0.0494,2026
7,-0.812,0.6567,-0.731,0.2974,-0.1372,-0.0248,2059
7,-0.7539,0.6294,-0.7439,0.2396,-0.0099,-0.0896,2052
7,-0.8215,0.5938,-0.7241,0.218,0.1198,-0.1031,2033
7,-0.7441,0.5811,-0.7451,0.2108,0.1469,-0.132,2046
7,-0.717,0.5586,-0.7764,0.1294,0.1848,-0.2207,2045
7,-0.7026,0.5969,-0.7791,0.0483,0.2029,-0.2412,2045
7,-0.6814,0.5969,-0.7795,0.0104,0.2204,-0.3546,2052
7,-0.7234,0.5784,-0.7444,0.0007,0.2103,-0.4256,2045
7,-0.6726,0.5559,-0.7048,0.0079,0.1732,-0.561,2048
7,-0.6494,0.5103,-0.6523,0.0077,0.1475,-0.5978,2042
7,-0.6138,0.5078,-0.5886,-0.0302,0.1362,-0.6472,2049
7,-0.5583,0.4641,-0.5342,-0.0649,0.1234,-0.7228,2049
7,-0.54,0.4551,-0.5127,-0.0317,0.1425,-0.7849,2049
7,-0.5227,0.4309,-0.5117,0.0643,0.1914,-0.7537,2050
7,-0.5225,0.4194,-0.5081,0.1205,0.2599,-0.83,2037
7,-0.4912,0.3918,-0.4905,0.1788,0.3353,-0.8909,2045
7,-0.51,0.3467,-0.4553,0.2386,0.4059,-0.965,2045
7,-0.4897,0.3018,-0.4111,0.2932,0.4486,-1.0334,2048
7,-0.4246,0.2698,-0.3625,0.3512,0.4992,-1.0966,2044
7,-0.4099,0.2339,-0.3105,0.3983,0.5635,-1.1464,2050
7,-0.3909,0.1948,-0.2988,0.4392,0.6048,-1.1832,2048
7,-0.3816,0.1838,-0.2793,0.4448,0.6313,-1.2226,2052
7,-0.375,0.1658,-0.2695,0.4681,0.6525,-1.2545,2039
7,-0.3657,0.1995,-0.2922,0.5102,0.6665,-1.2734,2045
7,-0.343,0.1885,-0.2944,0.5263,0.7179,-1.2821,2042
7,-0.3245,0.2031,-0.2974,0.5441,0.7388,-1.2603,2044
7,-0.3293,0.2595,-0.3284,0.5392,0.767,-1.2315,2043
7,-0.2822,0.3113,-0.3315,0.569,0.7704,-1.1416,2041
7,-0.313,0.3286,-0.3474,0.5939,0.7693,-0.9963,2052
7,-0.2935,0.3315,-0.3547,0.6324,0.7002,-0.9399,2050
7,-0.3064,0.3552,-0.3689,0.6661,0.6694,-0.8749,2053
7,-0.3237,0.4077,-0.3628,0.7195,0.6693,-0.8399,2048
7,-0.3765,0.4419,-0.3447,0.7721,0.6638,-0.8167,2041
7,-0.4751,0.4778,-0.3523,0.8099,0.6903,-0.7706,2055
7,-0.5715,0.4775,-0.3584,0.9098,0.7103,-0.7036,2048
7,-0.478,0.4558,-0.3254,0.971,0.5729,-0.8207,2045
7,-0.519,0.4592,-0.3787,0.9891,0.4075,-0.8393,2042
7,-0.5845,0.4197,-0.4326,0.9549,0.1976,-0.8425,2026
7,-0.6465,0.4241,-0.4844,1.1405,0.0253,-0.9026,2059
7,-0.6973,0.3689,-0.5237,1.1447,-0.1032,-0.9419,2055
7,-0.7693,0.3333,-0.5906,1.1947,-0.1378,-1.0637,2058
7,-0.7983,0.333,-0.6211,1.268,-0.2027,-1.1833,2080
7,-0.8838,0.3743,-0.6653,1.5125,-0.2766,-1.3019,2052
7,-0.8972,0.3171,-0.6875,1.6314,-0.4179,-1.4621,2046
7,-0.9514,0.2092,-0.741,1.7684,-0.5468,-1.6094,2046
7,-0.9324,0.1157,-0.8098,1.9334,-0.8172,-1.7745,2043
7,-0.9844,-0.0298,-0.8013,2.0409,-0.9898,-1.915,2068
7,-0.98,-0.1267,-0.7473,2.1198,-1.0314,-2.0358,2053
7,-0.9983,-0.1282,-0.636,2.1932,-0.9986,-2.1198,2096
7,-0.9707,-0.1731,-0.5303,2.2755,-0.9472,-2.1588,2037
7,-0.9639,-0.1638,-0.4612,2.3513,-0.9132,-2.1869,2017
7,-0.9424,-0.103,-0.4351,2.4354,-0.9681,-2.333,2025
7,-0.8979,-0.1682,-0.48,2.4666,-0.9962,-2.4727,2035
7,-0.8618,-0.3352,-0.5972,2.6506,-1.0858,-2.593,2038
7,-0.825,-0.5295,-0.6892,2.9941,-1.074,-2.7225,2035
7,-0.7678,-0.6973,-0.6626,3.211,-1.1218,-2.6884,2042
7,-0.6626,-0.813,-0.5774,3.2345,-1.1768,-2.6191,2043
7,-0.8528,-0.811,-0.4612,3.1428,-1.034,-2.6209,2049
7,-0.9036,-0.8047,-0.4319,3.1162,-0.9275,-2.7141,2050
7,-0.9211,-0.7317,-0.4211,3.1012,-0.6833,-2.7195,2050
7,-0.8457,-0.6851,-0.4795,3.1119,-0.4052,-2.745,2042
7,-0.8413,-0.6934,-0.5535,3.3065,-0.1165,-2.7332,2043
7,-0.739,-0.8704,-0.54,3.5721,0.0384,-2.7044,2040
7,-0.6772,-1.0591,-0.4883,3.6363,0.102,-2.5622,2041
7,-0.53,-1.1501,-0.4646,3.4415,0.2211,-2.2067,2045
7,-0.5696,-1.1711,-0.4937,3.185,0.5006,-1.7755,2051
7,-0.593,-1.0637,-0.5427,3.1299,0.6317,-1.5041,2044
7,-0.6226,-0.9368,-0.5588,3.2144,0.8166,-1.382,2047
7,-0.6753,-0.8191,-0.5454,3.4484,1.0608,-1.3607,2047
7,-0.7019,-0.7444,-0.4983,3.6676,1.3195,-1.3653,2050
7,-0.7554,-0.7368,-0.4248,3.8135,1.6422,-1.3544,2045
7,-0.7073,-0.7761,-0.4229,3.8466,2.0658,-1.3095,2050
7,-0.667,-0.8938,-0.4128,3.802,2.4589,-1.1521,2038
7,-0.6382,-0.9976,-0.428,3.6894,2.8959,-1.0519,2043
7,-0.603,-1.0088,-0.4026,3.6174,3.2132,-0.9003,2044
7,-0.6021,-0.9429,-0.3606,3.5286,3.4487,-0.7775,2044
7,-0.5144,-0.9045,-0.3418,3.4487,3.5423,-0.5783,2052
7,-0.5217,-0.8428,-0.2942,3.3079,3.5613,-0.4723,2053
7,-0.5103,-0.7581,-0.2815,3.2228,3.5519,-0.4046,2043
7,-0.4321,-0.6365,-0.2454,3.268,3.4125,-0.3148,2044
7,-0.4209,-0.5652,-0.2019,3.191,3.2005,-0.2788,2046
8,-0.4568,-0.5312,-0.1672,3.1493,3.0867,-0.2811,2045
8,-0.4312,-0.5337,-0.209,3.0301,2.983,-0.3272,2049
8,-0.3948,-0.4714,-0.2112,3.003,2.7336,-0.282,2047
8,-0.4358,-0.4434,-0.239,2.82,2.5402,-0.1722,2047
8,-0.6169,-0.5256,-0.4053,2.3816,2.5611,0.1711,2048
8,-0.7493,-0.6086,-0.5376,1.6808,2.7983,0.5295,2048
8,-0.9326,-0.5325,-0.637,1.0782,2.7577,0.8035,2048
8,-0.8757,-0.4392,-0.5713,1.3279,2.1664,1.23,2055
8,-0.5049,-0.3359,-0.4231,1.8064,1.5021,1.1583,2041
8,-0.2686,-0.3503,-0.2417,1.9877,1.0694,0.7689,2037
8,-0.0874,-0.3774,-0.1455,1.7238,1.1888,0.0354,2040
8,0.0,-0.3794,-0.0723,1.3095,0.7324,-0.0618,2048
8,-0.1035,-0.3604,-0.1353,1.3531,0.0242,0.0136,2045
8,-0.1465,-0.4392,-0.1794,1.5716,-0.4867,-0.0991,2044
8,-0.1816,-0.5693,-0.2571,1.5226,-0.8629,-0.2233,2046
8,-0.2542,-0.6643,-0.2876,1.3822,-1.1748,-0.2932,2050
8,-0.3186,-0.7253,-0.2705,1.1138,-1.2833,-0.2288,2049
8,-0.4321,-0.75,-0.2383,0.799,-1.1491,-0.1123,2045
8,-0.5076,-0.7471,-0.2102,0.5449,-0.8983,-0.0317,2047
8,-0.5142,-0.7295,-0.2043,0.3791,-0.6847,0.0053,2048
8,-0.5425,-0.7336,-0.2129,0.3039,-0.5031,0.01,2044
8,-0.5393,-0.7422,-0.2346,0.3263,-0.3389,-0.0302,2047
8,-0.5369,-0.793,-0.2466,0.3996,-0.1542,-0.1108,2039
8,-0.5498,-0.8474,-0.2451,0.4968,0.1117,-0.2056,2039
8,-0.5659,-0.9146,-0.2539,0.5534,0.4376,-0.3028,2045
8,-0.5725,-0.9834,-0.2576,0.5152,0.7224,-0.3962,2047
8,-0.5728,-1.0332,-0.2537,0.4256,0.934,-0.4892,2045
8,-0.5398,-1.0381,-0.2534,0.3263,1.0583,-0.5689,2042
8,-0.5164,-1.0195,-0.2397,0.2124,1.1025,-0.6213,2043
8,-0.4976,-0.9839,-0.2449,0.1305,1.1326,-0.6703,2044
8,-0.4778,-0.9353,-0.251,0.1003,1.1124,-0.732,2049
8,-0.4841,-0.9221,-0.2654,0.1037,1.0087,-0.8054,2049
8,-0.4951,-0.9067,-0.2717,0.1546,0.8204,-0.8741,2047
8,-0.5403,-0.9392,-0.3455,0.2068,0.6051,-0.895,2046
8,-0.6499,-0.9675,-0.4119,0.3679,0.4662,-0.9548,2049
8,-0.7542,-1.0613,-0.4626,0.4829,0.3867,-0.961,2048
8,-0.8413,-1.1467,-0.4451,0.6066,0.3846,-0.872,2047
8,-0.9207,-1.1992,-0.345,0.589,0.4027,-0.6494,2044
8,-0.9817,-1.2449,-0.2566,0.52,0.4006,-0.3496,2048
8,-0.8953,-1.3064,-0.1924,0.3458,0.4185,-0.1017,2050
8,-0.7842,-1.2908,-0.1646,0.3983,0.3318,0.1053,2049
8,-0.6824,-1.3005,-0.0945,0.613,0.3137,0.1052,2042
8,-0.6211,-1.2576,0.0239,0.6196,0.0101,0.1763,2045
8,-0.543,-1.2695,0.106,0.5153,-0.656,0.1198,2047
8,-0.4092,-1.3853,0.1016,0.399,-1.3354,-0.183,2038
8,-0.2195,-1.4753,-0.0112,0.3247,-1.7161,-0.4773,2038
8,-0.1262,-1.5061,-0.1038,0.1891,-1.8366,-0.6383,2037
8,-0.0923,-1.4521,-0.1472,-0.03,-1.92,-0.5974,2039
8,-0.1143,-1.3811,-0.0874,-0.2421,-2.0482,-0.5011,2042
8,-0.1067,-1.2666,0.032,-0.3288,-2.2218,-0.3486,2049
8,-0.1196,-1.1438,0.136,-0.2987,-2.3738,-0.1981,2045
8,-0.0513,-1.0764,0.1895,-0.1996,-2.4822,-0.0131,2045
8,-0.1533,-1.0269,0.1372,-0.1069,-2.3634,-0.021,2045
8,-0.1819,-1.0166,0.1179,-0.088,-2.2746,0.0419,2050
8,-0.2549,-0.9814,0.1138,-0.1151,-2.1128,0.0073,2050
8,-0.3062,-0.95,0.1121,-0.2438,-1.8595,0.0393,2054
8,-0.2761,-0.8894,0.1123,-0.2814,-1.5998,0.0949,2050
8,-0.2805,-0.811,0.1292,-0.3151,-1.3275,0.1558,2049
8,-0.2793,-0.7964,0.093,-0.4157,-0.9993,0.1891,2066
8,-0.2993,-0.7537,0.0798,-0.5452,-0.6259,0.1832,2061
8,-0.2727,-0.7092,0.0662,-0.8119,-0.3059,0.2211,2044
8,-0.2322,-0.6406,0.0498,-1.0306,-0.1501,0.3489,2048
8,-0.2126,-0.5732,0.0417,-1.1653,-0.0352,0.4183,2046
8,-0.1584,-0.5447,0.031,-1.2637,0.004,0.45,2043
8,-0.1338,-0.5149,0.0059,-1.2904,0.055,0.4368,2045
8,-0.1191,-0.4939,-0.0291,-1.3001,0.0541,0.454,2044
8,-0.1025,-0.4727,-0.0601,-1.3159,0.0065,0.4394,2044
8,-0.0916,-0.4453,-0.0935,-1.3089,-0.0927,0.4309,2043
8,-0.103,-0.4338,-0.1165,-1.2726,-0.1786,0.4143,2047
8,-0.1042,-0.4397,-0.1331,-1.228,-0.2216,0.394,2043
8,-0.1235,-0.4546,-0.1526,-1.1766,-0.2795,0.3822,2047
8,-0.145,-0.4639,-0.1721,-1.1176,-0.3006,0.3643,2043
8,-0.1809,-0.4915,-0.1846,-1.0721,-0.2703,0.3128,2044
8,-0.217,-0.5208,-0.2063,-1.0167,-0.2289,0.2444,2043
8,-0.2568,-0.561,-0.2336,-0.9369,-0.194,0.1618,2044
8,-0.2864,-0.6235,-0.2549,-0.8175,-0.1515,0.0784,2042
8,-0.3142,-0.6819,-0.283,-0.6586,-0.0842,-0.0041,2037
8,-0.3442,-0.7795,-0.2876,-0.4999,-0.0248,-0.0684,2042
8,-0.3679,-0.8711,-0.2859,-0.3333,0.0402,-0.1463,2043
8,-0.4053,-0.9536,-0.2803,-0.1726,0.1408,-0.2147,2042
8,-0.4382,-1.0095,-0.2722,-0.0162,0.263,-0.3043,2048
8,-0.4612,-1.0884,-0.2432,0.1051,0.3462,-0.4052,2049
8,-0.4688,-1.1577,-0.2395,0.2116,0.3695,-0.5064,2045
8,-0.49,-1.2136,-0.238,0.3393,0.3681,-0.5956,2041
8,-0.5015,-1.2566,-0.2253,0.4505,0.3635,-0.7389,2041
8,-0.4995,-1.2808,-0.2,0.5589,0.3816,-0.855,2049
8,-0.4834,-1.2625,-0.1104,0.6086,0.3828,-0.9694,2045
8,-0.4578,-1.2253,-0.0171,0.5814,0.3611,-1.0756,2044
8,-0.446,-1.1802,0.0273,0.5777,0.3679,-1.1463,2045
8,-0.4158,-1.1169,0.0571,0.6193,0.3581,-1.1472,2044
8,-0.4514,-1.1047,0.0198,0.7992,0.396,-1.1006,2043
8,-0.4524,-1.0754,0.0071,0.9344,0.4318,-1.0391,2041
8,-0.4963,-1.1782,-0.0979,1.1773,0.5448,-0.8155,2048
8,-0.644,-1.1963,-0.1577,1.3414,0.6516,-0.5821,2063
8,-0.8196,-1.1992,-0.2156,1.3434,0.8497,-0.2687,2047
8,-0.9717,-1.1499,-0.2461,1.4549,0.8646,0.3288,2047
8,-1.134,-1.1633,-0.239,1.2581,0.5593,0.8915,2047
8,-1.1975,-1.3823,-0.2505,0.6404,0.2257,1.1058,2053
8,-0.9304,-1.5593,-0.1638,0.1792,0.1558,0.9357,2044
8,-0.7117,-1.4233,0.0415,0.0747,0.5458,0.6797,2049
8,-0.5068,-1.3357,0.2761,-0.0421,0.9527,0.5333,2041
8,-0.2832,-1.2671,0.3628,-0.1473,1.2432,0.6312,2041
8,-0.073,-1.2197,0.2935,-0.2045,1.5783,0.8242,2041
8,0.1152,-1.1921,0.1448,-0.2149,1.811,0.97,2052
9,0.2222,-1.1467,0.0579,-0.1372,1.8812,1.0613,2039
9,0.2039,-1.0896,-0.0071,0.0621,1.7723,1.1564,2042
9,0.082,-1.0427,-0.0039,0.2682,1.4872,1.1877,2051
9,-0.1248,-1.0532,-0.0027,0.3671,1.2798,1.1617,2053
9,-0.2163,-1.0327,-0.0193,0.3654,1.2151,1.1821,2049
9,-0.2715,-0.9929,-0.0542,0.3619,1.2643,1.1336,2044
9,-0.3298,-0.9087,-0.1147,0.3884,1.4398,1.0516,2046
9,-0.4041,-0.8943,-0.1685,0.4061,1.6476,0.9833,2047
9,-0.4236,-0.804,-0.1895,0.4269,1.8438,0.8839,2046
9,-0.4392,-0.7134,-0.1516,0.4578,1.9887,0.771,2049
9,-0.396,-0.6106,-0.0835,0.4787,2.0283,0.6578,2049
9,-0.3552,-0.5442,-0.0244,0.4823,1.9461,0.5635,2045
9,-0.2927,-0.5007,0.0127,0.4822,1.8056,0.4781,2045
9,-0.2581,-0.4622,0.0173,0.5125,1.629,0.4063,2045
9,-0.2441,-0.3921,0.0139,0.5506,1.3876,0.3816,2044
9,-0.2573,-0.3235,-0.0024,0.5984,1.1395,0.3806,2045
9,-0.28,-0.2842,-0.0159,0.6348,0.9103,0.3996,2041
9,-0.2822,-0.239,-0.042,0.7249,0.6964,0.4322,2045
9,-0.2925,-0.2124,-0.0676,0.7564,0.522,0.4516,2046
9,-0.3281,-0.1809,-0.1052,0.8028,0.3751,0.4277,2044
9,-0.334,-0.1448,-0.1245,0.8336,0.2329,0.3747,2047
9,-0.3391,-0.1514,-0.1287,0.82,0.1306,0.3049,2045
9,-0.3269,-0.156,-0.1326,0.8195,0.0811,0.1691,2045
9,-0.2949,-0.1902,-0.1394,0.919,0.0075,0.0245,2047
9,-0.28,-0.23,-0.1736,1.0697,-0.1389,-0.1033,2046
9,-0.283,-0.2883,-0.2424,1.1742,-0.2566,-0.193,2046
9,-0.2844,-0.3965,-0.2825,1.3065,-0.2944,-0.2382,2043
9,-0.3064,-0.531,-0.2756,1.4306,-0.3373,-0.2414,2045
9,-0.334,-0.6931,-0.229,1.4976,-0.3996,-0.2274,2042
9,-0.3455,-0.8145,-0.1887,1.5066,-0.4424,-0.2503,2044
9,-0.3352,-0.9287,-0.1262,1.5211,-0.5208,-0.3113,2046
9,-0.304,-1.0073,-0.0371,1.454,-0.498,-0.3822,2045
9,-0.3064,-1.05,0.0247,1.3591,-0.3782,-0.4393,2042
9,-0.366,-1.0254,0.0847,1.2259,-0.253,-0.5276,2050
9,-0.4478,-0.9932,0.0771,1.1568,-0.1934,-0.6706,2042
9,-0.5088,-1.0239,0.0466,1.1876,0.0431,-0.8071,2047
9,-0.5603,-1.0913,0.0012,1.2789,0.3639,-0.8765,2042
9,-0.6121,-1.1689,-0.0513,1.3521,0.6305,-0.9231,2044
9,-0.667,-1.2542,-0.072,1.2174,0.936,-1.0147,2046
9,-0.7068,-1.2993,-0.0935,1.0435,1.2512,-1.0661,2047
9,-0.7839,-1.2737,-0.094,0.9162,1.5262,-1.0326,2045
9,-0.8721,-1.2002,-0.0906,0.8384,1.8046,-0.9903,2048
9,-0.9417,-1.1748,-0.1111,0.8296,1.95,-0.7833,2049
9,-1.0525,-1.2366,-0.2146,0.7722,2.1244,-0.4807,2047
9,-1.1323,-1.2812,-0.3125,0.666,2.2065,-0.3143,2045
9,-1.1028,-1.3545,-0.3552,0.6095,2.3302,-0.3707,2043
9,-0.887,-1.4045,-0.2908,0.5862,2.4222,-0.4079,2041
9,-0.7212,-1.397,-0.2661,0.6251,2.2241,-0.4143,2041
9,-0.5945,-1.4236,-0.1689,0.524,1.7936,-0.3089,2050
9,-0.5039,-1.4519,-0.0496,0.3826,1.1802,-0.1361,2046
9,-0.3687,-1.437,0.0754,0.2631,0.4177,0.328,2044
9,-0.4888,-1.2979,0.0828,0.2171,-0.2647,0.5625,2044
9,-0.5718,-1.0789,0.1472,0.2406,-0.7814,0.6159,2045
9,-0.5044,-1.0884,0.1887,0.1238,-1.4771,0.4582,2044
9,-0.3218,-1.2871,0.1096,0.0462,-1.9181,0.1217,2034
9,-0.2527,-1.3857,-0.0413,0.0529,-1.9374,-0.2156,2045
9,-0.311,-1.3477,-0.1267,0.0388,-1.8302,-0.3902,2046
9,-0.3528,-1.2603,-0.1384,-0.0423,-1.9303,-0.4089,2047
9,-0.3184,-1.1758,-0.0815,-0.0587,-1.9943,-0.3318,2044
9,-0.2849,-1.1565,-0.0242,-0.0166,-1.9636,-0.1768,2048
9,-0.2542,-1.125,0.019,0.047,-1.811,-0.0003,2046
9,-0.3,-1.0823,0.0435,0.0148,-1.5037,0.1079,2049
9,-0.3357,-1.0208,0.0576,-0.0284,-1.1857,0.0941,2047
9,-0.3303,-0.9299,0.0801,-0.0792,-1.0431,0.0734,2051
9,-0.3267,-0.8623,0.1052,-0.1577,-0.9985,0.0956,2046
9,-0.3435,-0.7915,0.1265,-0.2212,-0.8481,0.0743,2041
9,-0.2781,-0.7087,0.1279,-0.334,-0.7188,0.1039,2046
9,-0.2207,-0.6475,0.1104,-0.4826,-0.5713,0.0838,2043
9,-0.179,-0.5918,0.0957,-0.6146,-0.5641,0.104,2043
9,-0.1462,-0.5137,0.0691,-0.6853,-0.6476,0.1377,2048
9,-0.1448,-0.4546,0.0398,-0.7112,-0.7609,0.1892,2047
9,-0.1184,-0.3989,0.0044,-0.7087,-0.8963,0.2899,2046
9,-0.1604,-0.3877,-0.0017,-0.7075,-0.9279,0.3294,2052
9,-0.1604,-0.3601,-0.0183,-0.7012,-0.9652,0.3947,2050
9,-0.1704,-0.3545,-0.0317,-0.7044,-1.0019,0.4458,2045
9,-0.1965,-0.3567,-0.0642,-0.7365,-1.0404,0.4817,2045
9,-0.1858,-0.366,-0.0803,-0.7462,-1.0567,0.5275,2045
9,-0.2075,-0.4033,-0.0823,-0.763,-1.0435,0.5273,2046
9,-0.1929,-0.4272,-0.0769,-0.7698,-1.0468,0.5353,2044
9,-0.1919,-0.4727,-0.0671,-0.7593,-1.0588,0.5373,2045
9,-0.1743,-0.5122,-0.0654,-0.7492,-1.0551,0.5026,2050
9,-0.1775,-0.5793,-0.0608,-0.7589,-1.0503,0.4689,2048
9,-0.1958,-0.6562,-0.0488,-0.7693,-1.0632,0.4422,2045
9,-0.176,-0.7222,-0.0078,-0.7462,-1.1264,0.4247,2043
9,-0.1943,-0.7722,0.042,-0.7279,-1.2306,0.4026,2043
9,-0.2153,-0.8154,0.0601,-0.655,-1.2659,0.3571,2045
9,-0.2517,-0.8535,0.0637,-0.6087,-1.2788,0.2942,2049
9,-0.3164,-0.9312,0.0247,-0.5689,-1.2826,0.2039,2042
9,-0.3782,-1.0188,-0.0342,-0.504,-1.268,0.157,2044
9,-0.4263,-1.1448,-0.1458,-0.3884,-1.2137,0.1353,2048
9,-0.4707,-1.2676,-0.2173,-0.2211,-1.0393,0.1003,2040
9,-0.5054,-1.3323,-0.2698,-0.0266,-0.7365,-0.0036,2036
9,-0.4985,-1.3745,-0.2471,0.1119,-0.4155,-0.0778,2048
9,-0.4836,-1.3721,-0.1731,0.2011,-0.1811,-0.1209,2049
9,-0.4597,-1.3264,-0.0825,0.2554,0.1336,-0.1485,2046
9,-0.4238,-1.29,0.0225,0.3104,0.581,-0.1764,2045
9,-0.3979,-1.3093,0.0771,0.4007,1.0316,-0.2353,2042
9,-0.3616,-1.3647,0.1096,0.53,1.4194,-0.3416,2042
9,-0.3511,-1.387,0.1272,0.6955,1.6707,-0.537,2046
9,-0.397,-1.3572,0.1277,0.8307,1.7904,-0.8549,2046
9,-0.4607,-1.3027,0.179,0.8261,1.9153,-1.0577,2041
10,-0.4202,-1.26,0.2695,0.6885,1.7647,-1.1002,2049
10,-0.2751,-1.2903,0.3176,0.4054,1.3754,-0.9716,2045
10,-0.1936,-1.3369,0.2195,0.3221,0.9541,-0.8853,2043
10,-0.2256,-1.3376,0.1453,0.4729,0.6827,-0.863,2052
10,-0.2361,-1.3044,0.2378,0.5614,0.2037,-0.8244,2045
10,-0.2214,-1.2871,0.3628,0.412,-0.2575,-0.6827,2047
10,-0.248,-1.2593,0.4253,0.1955,-0.5237,-0.6212,2045
10,-0.3003,-1.1304,0.4194,0.1876,-0.6261,-0.7052,2047
10,-0.3777,-1.0137,0.3733,0.3378,-0.5733,-0.7381,2043
10,-0.5181,-0.9922,0.2798,0.3232,-0.4823,-0.6581,2047
10,-0.6609,-0.9829,0.1399,0.2472,-0.1775,-0.6072,2045
10,-0.7302,-0.9604,0.052,0.2338,0.3642,-0.6156,2049
10,-0.79,-0.9302,0.0386,0.2274,0.9843,-0.6064,2045
10,-0.7683,-0.9263,0.0796,0.1498,1.5753,-0.3975,2045
10,-0.5549,-0.8337,0.1345,0.0324,1.7813,-0.0021,2049
10,-0.499,-0.7815,0.1309,0.1499,2.0238,0.1755,2045
10,-0.5225,-0.7004,0.1824,0.3181,2.3032,0.3859,2049
10,-0.4963,-0.6304,0.2729,0.4657,2.213,0.6532,2045
10,-0.3931,-0.5981,0.2754,0.5014,1.8996,0.8497,2041
10,-0.3306,-0.5745,0.2136,0.3225,1.6189,0.9377,2045
10,-0.2336,-0.5354,0.1086,0.0609,1.3745,0.9813,2044
10,-0.1814,-0.4604,0.0388,-0.0985,1.1894,0.9359,2046
10,-0.1538,-0.354,0.0178,-0.1553,1.0143,0.8862,2044
10,-0.1621,-0.2966,0.0051,-0.2304,0.7963,0.8206,2045
10,-0.1384,-0.2546,-0.0186,-0.2661,0.5247,0.7424,2048
10,-0.1042,-0.2437,-0.0449,-0.322,0.2549,0.7124,2045
10,-0.0879,-0.2385,-0.0947,-0.3477,-0.0031,0.6585,2044
10,-0.1182,-0.2593,-0.1113,-0.2958,-0.1916,0.6026,2049
10,-0.1868,-0.2578,-0.0911,-0.23,-0.3306,0.6012,2045
10,-0.2383,-0.2776,-0.1375,-0.1969,-0.4478,0.6191,2046
10,-0.3008,-0.2878,-0.1924,-0.0937,-0.5538,0.5393,2046
10,-0.3359,-0.3357,-0.2156,0.0767,-0.6469,0.3785,2044
10,-0.3665,-0.4302,-0.2332,0.2759,-0.7008,0.235,2048
10,-0.4077,-0.563,-0.2112,0.4283,-0.6995,0.125,2045
10,-0.4167,-0.6826,-0.1726,0.5445,-0.7086,0.0273,2045
10,-0.4126,-0.7886,-0.1221,0.5553,-0.803,-0.0506,2044
10,-0.3884,-0.865,-0.0581,0.4979,-0.8937,-0.1024,2050
10,-0.364,-0.906,-0.0066,0.465,-0.8578,-0.1171,2043
10,-0.3655,-0.9299,0.0618,0.4132,-0.8164,-0.1313,2048
10,-0.4102,-0.9653,0.1086,0.3534,-0.8415,-0.1253,2044
10,-0.4712,-1.0039,0.1223,0.3117,-0.8399,-0.1634,2046
10,-0.5247,-1.0503,0.1045,0.2996,-0.6927,-0.2357,2043
10,-0.5488,-1.0762,0.0901,0.3357,-0.4341,-0.2987,2046
10,-0.5613,-1.0891,0.0625,0.3711,-0.0977,-0.3741,2045
10,-0.5981,-1.1294,0.0417,0.4011,0.293,-0.453,2042
10,-0.635,-1.1318,-0.0039,0.3991,0.6929,-0.526,2042
10,-0.6375,-1.0896,-0.0166,0.3892,1.0371,-0.5994,2051
10,-0.6084,-1.0332,0.0015,0.3939,1.2826,-0.6574,2043
10,-0.6191,-1.0471,-0.012,0.387,1.4906,-0.7024,2048
10,-0.6172,-1.0842,-0.0605,0.4513,1.547,-0.7356,2046
10,-0.6479,-1.2078,-0.1829,0.557,1.4946,-0.7712,2044
10,-0.6206,-1.3547,-0.2937,0.7596,1.3869,-0.7839,2045
10,-0.6084,-1.5137,-0.3796,0.9608,1.137,-0.7582,2045
10,-0.5254,-1.5259,-0.3162,1.1005,0.8814,-0.7738,2045
10,-0.4678,-1.5222,-0.124,1.0516,0.6268,-0.6276,2050
10,-0.4202,-1.4656,0.0251,0.9551,0.4763,-0.4079,2043
10,-0.4526,-1.4236,0.1553,0.9304,0.4715,-0.2599,2043
10,-0.5112,-1.3855,0.2158,0.8091,0.5352,-0.0882,2045
10,-0.5305,-1.3347,0.1599,0.7586,0.3844,0.1213,2044
10,-0.5266,-1.3345,0.1152,0.7432,0.2213,0.1635,2045
10,-0.4707,-1.3584,0.0706,0.769,0.1791,0.1514,2045
10,-0.3921,-1.3923,0.0513,0.8006,0.1614,0.1048,2044
10,-0.3604,-1.385,0.0649,0.7782,0.226,0.0341,2044
10,-0.3518,-1.4119,0.1001,0.7155,0.3255,-0.0491,2043
10,-0.3159,-1.4475,0.1731,0.505,0.3434,-0.0796,2044
10,-0.2473,-1.4336,0.22,0.1441,0.2609,-0.0691,2047
10,-0.1887,-1.3567,0.2373,-0.1096,0.125,-0.0273,2044
10,-0.1423,-1.2849,0.2646,-0.35,-0.1806,0.0282,2045
10,-0.0979,-1.1238,0.271,-0.4954,-0.5883,0.1013,2043
10,-0.0967,-0.9844,0.3054,-0.6624,-0.9268,0.1714,2050
10,-0.178,-0.8674,0.3308,-0.8128,-1.2283,0.2009,2048
10,-0.1953,-0.7571,0.3379,-0.9427,-1.4712,0.2442,2050
10,-0.2654,-0.6614,0.3296,-1.0155,-1.5937,0.2923,2047
10,-0.3137,-0.5925,0.303,-1.1382,-1.4641,0.2733,2046
10,-0.3062,-0.5085,0.282,-1.2632,-1.3557,0.3501,2046
10,-0.2617,-0.4697,0.2368,-1.4202,-1.248,0.3872,2044
10,-0.2598,-0.3953,0.1611,-1.5034,-1.2034,0.4709,2049
10,-0.218,-0.3711,0.1011,-1.5546,-1.1086,0.545,2054
10,-0.2512,-0.3979,0.0652,-1.5143,-1.0011,0.6006,2049
10,-0.2754,-0.3801,0.0371,-1.4804,-0.8676,0.6532,2043
10,-0.2778,-0.3953,-0.0144,-1.5379,-0.7219,0.7277,2043
10,-0.2251,-0.3879,-0.0696,-1.6223,-0.7091,0.7727,2047
10,-0.2058,-0.4019,-0.1345,-1.6289,-0.6047,0.8396,2049
10,-0.1836,-0.4065,-0.1477,-1.6346,-0.5598,0.8959,2048
10,-0.1587,-0.3987,-0.1738,-1.5456,-0.5891,0.9123,2047
10,-0.1638,-0.4431,-0.1716,-1.4203,-0.5714,0.8919,2045
10,-0.157,-0.5117,-0.1682,-1.3552,-0.671,0.867,2046
10,-0.1479,-0.5442,-0.1477,-1.2517,-0.8969,0.8696,2043
10,-0.1426,-0.593,-0.1243,-1.175,-1.1151,0.8483,2045
10,-0.1797,-0.6475,-0.1038,-1.0705,-1.211,0.8321,2042
10,-0.2261,-0.7449,-0.0784,-0.9497,-1.2909,0.7829,2048
10,-0.2732,-0.8701,-0.0444,-0.8428,-1.4403,0.7135,2049
10,-0.3059,-1.0317,-0.0237,-0.7352,-1.6944,0.6779,2049
10,-0.3789,-1.1633,-0.0154,-0.6012,-1.8419,0.6442,2045
10,-0.4597,-1.2517,-0.062,-0.4287,-1.7155,0.5343,2048
10,-0.5667,-1.313,-0.1257,-0.2799,-1.4759,0.4619,2046
10,-0.6492,-1.355,-0.1587,-0.151,-1.1404,0.2866,2047
10,-0.679,-1.3425,-0.1465,-0.0306,-0.8023,0.1469,2046
10,-0.6414,-1.2786,-0.0657,0.1036,-0.4366,0.0629,2048
10,-0.5925,-1.2332,0.0293,0.1503,-0.0579,0.0158,2047
10,-0.5161,-1.2007,0.115,0.1695,0.2906,-0.0256,2042
10,-0.459,-1.1797,0.1597,0.2655,0.5883,-0.0937,2043
10,-0.4321,-1.1699,0.1448,0.4714,0.8031,-0.2288,2042
10,-0.4316,-1.1831,0.0945,0.7525,1.0017,-0.4374,2043
11,-0.4141,-1.1772,0.0562,1.0598,1.2163,-0.6179,2042
11,-0.4153,-1.0969,0.0876,1.3118,1.3651,-0.7449,2048
11,-0.4182,-1.0291,0.1328,1.4932,1.4242,-0.8016,2048
11,-0.3884,-1.0229,0.1814,1.5816,1.4135,-0.7528,2046
11,-0.3899,-1.0938,0.2134,1.611,1.372,-0.6669,2045
11,-0.4185,-1.2092,0.2341,1.6,1.3294,-0.6573,2046
11,-0.4116,-1.2717,0.2769,1.5214,1.2709,-0.7094,2045
11,-0.3772,-1.2927,0.3215,1.3904,1.1456,-0.7505,2043
11,-0.3459,-1.311,0.3455,1.1942,0.9247,-0.7368,2043
11,-0.2742,-1.2952,0.293,1.0757,0.7027,-0.714,2048
11,-0.2805,-1.2354,0.2781,0.9674,0.4856,-0.7335,2042
11,-0.303,-1.177,0.2334,0.8451,0.4711,-0.7702,2058
11,-0.3281,-1.0874,0.2041,0.8293,0.5372,-0.8039,2047
11,-0.384,-1.0061,0.1587,0.9122,0.6549,-0.8144,2047
11,-0.4314,-0.9736,0.0764,1.0411,0.738,-0.821,2040
11,-0.4685,-0.9741,0.0029,1.0714,0.7863,-0.8357,2050
11,-0.4973,-0.9634,-0.0288,0.9942,0.8858,-0.8869,2048
11,-0.5159,-0.8984,-0.0151,0.8878,1.0911,-0.9048,2042
11,-0.5027,-0.8142,0.021,0.791,1.4133,-0.8887,2045
11,-0.4692,-0.7556,0.0598,0.6548,1.6949,-0.7767,2044
11,-0.4705,-0.6733,0.125,0.5841,1.9358,-0.6697,2044
11,-0.468,-0.5645,0.1772,0.7264,2.2321,-0.4928,2038
11,-0.5522,-0.4524,0.1848,0.8734,2.4976,-0.0956,2045
11,-0.5925,-0.3931,0.1494,0.799,2.72,0.3374,2045
11,-0.4688,-0.3352,0.0693,0.6267,2.8557,0.4947,2042
11,-0.2222,-0.3022,0.0449,0.5152,2.8098,0.386,2043
11,-0.04,-0.292,0.0151,0.494,2.6026,0.2794,2044
11,0.0254,-0.2834,-0.0295,0.5718,2.19,0.1774,2043
11,0.0161,-0.2871,-0.0742,0.6636,1.6086,0.1213,2046
11,-0.1033,-0.2878,-0.116,0.7315,1.0058,0.0417,2046
11,-0.186,-0.2944,-0.1433,0.7249,0.6225,0.041,2046
11,-0.2366,-0.3228,-0.1797,0.6813,0.4145,0.0694,2045
11,-0.2878,-0.3469,-0.1895,0.6576,0.3345,0.0708,2048
11,-0.3438,-0.3735,-0.1812,0.6323,0.2386,0.0674,2050
11,-0.3694,-0.4221,-0.1658,0.5888,0.094,0.0519,2048
11,-0.3608,-0.4802,-0.1516,0.5667,-0.0137,0.0132,2024
11,-0.3506,-0.5288,-0.1113,0.5817,-0.0423,-0.0234,2047
11,-0.3503,-0.5962,-0.0376,0.5947,-0.1549,-0.0362,2054
11,-0.3408,-0.6724,-0.0029,0.6244,-0.288,-0.1024,2044
11,-0.322,-0.752,0.0293,0.6461,-0.3124,-0.1463,2047
11,-0.3491,-0.8301,0.0132,0.5801,-0.49,-0.1658,2035
11,-0.4204,-0.908,-0.0015,0.5477,-0.6252,-0.2067,2040
11,-0.4622,-0.9797,0.0022,0.5992,-0.6799,-0.2116,2045
11,-0.5024,-1.0583,0.0112,0.6285,-0.5038,-0.2258,2043
11,-0.5847,-1.136,0.0359,0.6273,-0.1768,-0.2567,2045
11,-0.6492,-1.2095,0.0408,0.6428,0.1101,-0.2802,2043
11,-0.7827,-1.2969,0.0669,0.6138,0.4911,-0.4019,2041
11,-0.8335,-1.3044,0.0813,0.5267,0.9087,-0.4135,2047
11,-0.8325,-1.2424,0.0833,0.4312,1.2537,-0.4369,2046
11,-0.825,-1.176,0.0681,0.3004,1.5816,-0.4646,2043
11,-0.8369,-1.1577,0.0752,0.1521,1.8728,-0.5137,2042
11,-0.751,-1.085,0.0398,0.1027,2.0229,-0.5425,2048
11,-0.6799,-1.0916,-0.0054,0.2073,1.9375,-0.5135,2040
11,-0.636,-1.2136,-0.0942,0.2567,1.7266,-0.5335,2044
11,-0.5781,-1.3003,-0.1931,0.4087,1.3708,-0.548,2041
11,-0.5188,-1.3237,-0.2363,0.5693,1.0069,-0.5589,2048
11,-0.4875,-1.3228,-0.2263,0.7142,0.7517,-0.526,2045
11,-0.447,-1.3662,-0.1394,0.7528,0.569,-0.4425,2047
11,-0.4163,-1.408,-0.0159,0.6079,0.3089,-0.4075,2042
11,-0.3643,-1.3528,0.0684,0.3868,-0.0443,-0.3697,2053
11,-0.4324,-1.3157,0.0928,0.241,-0.3337,-0.379,2042
11,-0.3975,-1.2749,0.0842,0.2089,-0.62,-0.3444,2051
11,-0.3867,-1.3274,0.0618,0.1924,-0.8632,-0.3225,2043
11,-0.3633,-1.4097,-0.0015,0.1896,-1.056,-0.2635,2047
11,-0.3584,-1.5022,-0.0186,0.2004,-1.219,-0.1364,2045
11,-0.3298,-1.5383,0.0146,0.153,-1.3853,0.0193,2048
11,-0.3462,-1.4971,0.1074,0.0649,-1.4351,0.1246,2047
11,-0.3721,-1.3967,0.197,-0.0844,-1.4211,0.2176,2043
11,-0.3799,-1.3247,0.2581,-0.3004,-1.4732,0.3199,2047
11,-0.395,-1.252,0.2866,-0.4907,-1.517,0.4369,2046
11,-0.4014,-1.1301,0.2913,-0.5825,-1.5741,0.4899,2043
11,-0.3635,-1.0562,0.3008,-0.6367,-1.6195,0.5998,2042
11,-0.2781,-1.0574,0.311,-0.8357,-1.7158,0.7078,2051
11,-0.3823,-0.9771,0.2954,-0.9492,-1.727,0.6087,2048
11,-0.3245,-0.8137,0.3215,-0.9321,-1.7642,0.7148,2043
11,-0.2871,-0.8657,0.3137,-1.1974,-1.8441,0.94,2048
11,-0.28,-0.7676,0.27,-1.3155,-1.9331,0.7552,2042
11,-0.2683,-0.6538,0.2773,-1.34,-1.963,0.8991,2048
11,-0.2747,-0.6233,0.1841,-1.4938,-2.0349,0.9797,2047
11,-0.2493,-0.5945,0.1509,-1.6641,-2.073,1.0203,2045
11,-0.28,-0.5354,0.0544,-1.6351,-2.062,1.0312,2044
11,-0.2688,-0.4854,-0.0173,-1.6455,-2.0812,1.08,2045
11,-0.2334,-0.4534,-0.1492,-1.5772,-2.1567,1.0591,2050
11,-0.2439,-0.4324,-0.2104,-1.4804,-2.1682,1.0049,2051
11,-0.3008,-0.3716,-0.2083,-1.4006,-1.9927,1.028,2046
11,-0.2871,-0.3662,-0.147,-1.3553,-1.8985,1.1251,2046
11,-0.2908,-0.3699,-0.177,-1.3181,-1.6475,1.1054,2046
11,-0.2932,-0.3115,-0.1455,-1.3153,-1.507,1.2033,2045
11,-0.3464,-0.3262,-0.1543,-1.2814,-1.3428,1.2539,2051
11,-0.2627,-0.3547,-0.1611,-1.276,-1.2957,1.285,2045
11,-0.1711,-0.3794,-0.1882,-1.2633,-1.2818,1.2704,2041
11,-0.2063,-0.4485,-0.2134,-1.1195,-1.1938,1.2166,2040
11,-0.187,-0.5188,-0.2148,-1.0035,-1.2085,1.1631,2043
11,-0.196,-0.6228,-0.2163,-0.8934,-1.1147,1.0728,2046
11,-0.1699,-0.7444,-0.1787,-0.8032,-1.0933,0.9966,2045
11,-0.1833,-0.8606,-0.1455,-0.7388,-1.077,0.9327,2051
11,-0.2175,-0.9299,-0.0916,-0.6633,-0.9757,0.8063,2044
11,-0.1865,-1.0503,-0.0088,-0.6642,-0.9606,0.807,2043
11,-0.2129,-1.1404,0.0457,-0.6693,-0.8907,0.7562,2044
11,-0.2405,-1.2642,0.0869,-0.6956,-0.8534,0.7321,2040
11,-0.2654,-1.3567,0.0881,-0.7151,-0.7958,0.7156,2042
11,-0.2961,-1.4175,0.0571,-0.7369,-0.7196,0.6982,2043
11,-0.3201,-1.4272,0.0022,-0.7176,-0.5879,0.5922,2049
12,-0.3838,-1.3826,0.0115,-0.6589,-0.3412,0.418,2046
12,-0.4355,-1.3113,0.0505,-0.5741,-0.0405,0.2752,2049
12,-0.4905,-1.2327,0.1125,-0.5023,0.2306,0.2703,2047
12,-0.4841,-1.1855,0.1404,-0.51,0.4642,0.3207,2053
12,-0.4861,-1.1755,0.0859,-0.5285,0.8356,0.3404,2042
12,-0.5034,-1.2002,0.0383,-0.4765,1.3117,0.2681,2043
12,-0.4934,-1.1978,-0.019,-0.2884,1.7507,0.1498,2047
12,-0.5085,-1.1919,-0.0212,-0.0747,2.0108,-0.008,2044
12,-0.5183,-1.1665,-0.0071,0.1266,2.0928,-0.2495,2047
12,-0.5596,-1.1604,0.0347,0.3401,2.1859,-0.4356,2043
12,-0.5496,-1.1411,0.0789,0.4579,2.0606,-0.5359,2046
12,-0.5439,-1.0862,0.1011,0.4662,1.7895,-0.5946,2044
12,-0.5559,-1.0117,0.1135,0.4541,1.4834,-0.6723,2046
12,-0.574,-0.9507,0.0896,0.54,1.3085,-0.7111,2048
12,-0.6108,-0.9089,0.0793,0.6954,1.2058,-0.694,2046
12,-0.6379,-0.9202,0.0576,0.9071,1.179,-0.6153,2047
12,-0.6108,-1.0029,0.0593,1.0479,1.2207,-0.5291,2046
12,-0.5815,-1.1023,0.1155,1.0344,1.227,-0.4365,2038
12,-0.5,-1.1094,0.1655,1.0065,1.276,-0.3235,2044
12,-0.4077,-1.0903,0.218,0.9405,1.2038,-0.3264,2048
12,-0.3586,-1.0315,0.249,0.8673,0.9957,-0.384,2050
12,-0.3362,-0.9504,0.21,0.9606,0.656,-0.5232,2044
12,-0.4102,-0.9331,0.1514,1.1861,0.3362,-0.7199,2046
12,-0.449,-0.9136,0.0732,1.3573,0.2274,-0.8572,2047
12,-0.4753,-0.884,0.0447,1.3845,0.1497,-0.8857,2057
12,-0.5422,-0.8296,-0.0039,1.347,0.2461,-0.8941,2045
12,-0.5872,-0.759,-0.0193,1.2998,0.4766,-0.8815,2044
12,-0.5967,-0.6885,-0.0012,1.2358,0.7878,-0.8288,2044
12,-0.5625,-0.5991,-0.002,1.2054,1.0682,-0.7465,2050
12,-0.4409,-0.5388,0.0046,1.1995,1.2118,-0.6173,2044
12,-0.3757,-0.4851,0.0474,1.1682,1.3629,-0.5782,2042
12,-0.3235,-0.4556,-0.0598,1.3058,1.4735,-0.4972,2052
12,-0.2668,-0.3594,-0.0166,1.3515,1.443,-0.5558,2044
12,-0.2146,-0.3049,-0.0537,1.4005,1.3697,-0.5228,2046
12,-0.2173,-0.344,-0.0676,1.46,1.3497,-0.5333,2048
12,-0.2036,-0.3215,-0.0962,1.4832,1.2872,-0.5634,2051
12,-0.2378,-0.291,-0.1033,1.5086,1.2445,-0.5783,2048
12,-0.2568,-0.281,-0.1455,1.5752,1.1836,-0.5366,2042
12,-0.2646,-0.3083,-0.1335,1.6341,1.1676,-0.5273,2046
12,-0.262,-0.3967,-0.1079,1.6606,1.0893,-0.5335,2045
12,-0.2573,-0.4578,-0.0918,1.6729,0.9272,-0.5364,2043
12,-0.272,-0.5198,-0.0867,1.6824,0.7919,-0.524,2042
12,-0.3064,-0.5911,-0.071,1.7109,0.6894,-0.4931,2045
12,-0.3408,-0.6697,-0.0454,1.7346,0.6131,-0.3959,2045
12,-0.3633,-0.7458,0.0134,1.7249,0.562,-0.3239,2044
12,-0.4294,-0.8396,0.0862,1.6309,0.5092,-0.2766,2049
12,-0.4683,-0.9463,0.165,1.4319,0.5229,-0.2485,2042
12,-0.5012,-0.968,0.2329,1.2123,0.6379,-0.2361,2049
12,-0.5264,-0.9331,0.2598,1.0228,0.7154,-0.2181,2043
12,-0.5525,-0.8857,0.2561,0.9524,0.7443,-0.1796,2049
12,-0.5938,-0.8804,0.2446,0.9258,0.7584,-0.1511,2049
12,-0.6555,-0.9294,0.2021,0.9448,0.7585,-0.0807,2047
12,-0.7366,-1.009,0.175,0.9608,0.7979,-0.0684,2039
12,-0.7979,-1.1062,0.1277,0.9251,0.8863,-0.0696,2043
12,-0.8235,-1.1621,0.1045,0.7927,0.9492,-0.0353,2044
12,-0.8669,-1.1772,0.0793,0.6122,1.0923,0.014,2041
12,-0.8264,-1.1309,0.053,0.4775,1.2368,0.0884,2047
12,-0.8179,-1.0764,0.0566,0.383,1.3074,0.1505,2048
12,-0.8069,-1.0383,0.0491,0.3747,1.2659,0.2238,2051
12,-0.7791,-1.0566,0.0339,0.4421,1.1654,0.3193,2043
12,-0.7832,-1.0518,0.021,0.4477,1.0788,0.3638,2048
12,-0.7783,-1.0654,-0.0186,0.4594,1.02,0.4382,2045
12,-0.7852,-1.1943,-0.0728,0.4619,0.8991,0.5147,2053
12,-0.7786,-1.3469,-0.082,0.3187,0.7899,0.567,2042
12,-0.6885,-1.3777,-0.1111,0.1336,0.6011,0.6899,2042
12,-0.6812,-1.4023,-0.0967,0.0216,0.5374,0.8056,2051
12,-0.6453,-1.4268,-0.0361,-0.1724,0.4309,0.906,2040
12,-0.6582,-1.4338,0.0063,-0.3955,0.3228,1.0001,2048
12,-0.6323,-1.3999,0.0532,-0.6761,0.1637,1.0204,2050
12,-0.6021,-1.3213,0.0532,-0.8851,-0.0252,1.0588,2045
12,-0.5735,-1.2554,0.0322,-0.9893,-0.2072,1.0887,2040
12,-0.5237,-1.2068,0.011,-1.046,-0.4185,1.1346,2042
12,-0.5681,-1.2068,-0.0242,-1.0842,-0.5054,1.1216,2042
12,-0.593,-1.2102,-0.0459,-1.1688,-0.6019,1.1015,2042
12,-0.6025,-1.218,-0.0671,-1.3174,-0.7083,1.0682,2039
12,-0.5815,-1.188,-0.0767,-1.4936,-0.8058,1.0307,2041
12,-0.5535,-1.1421,-0.0986,-1.6741,-0.8917,0.9894,2043
12,-0.5166,-1.054,-0.0916,-1.841,-0.981,0.9424,2047
12,-0.4607,-0.9968,-0.1138,-1.967,-1.1231,0.9048,2037
12,-0.4294,-0.9468,-0.1443,-2.0362,-1.2973,0.8453,2044
12,-0.3979,-0.9233,-0.1746,-2.0779,-1.4964,0.7713,2041
12,-0.3728,-0.895,-0.2031,-2.1045,-1.6832,0.6926,2048
12,-0.3306,-0.8479,-0.1978,-2.1383,-1.8278,0.6179,2046
12,-0.2949,-0.7903,-0.1687,-2.1803,-1.9435,0.5613,2052
12,-0.2761,-0.7578,-0.1228,-2.2928,-2.0339,0.4607,2043
12,-0.2346,-0.6726,-0.1079,-2.3141,-2.1125,0.5034,2049
12,-0.2288,-0.6265,-0.0813,-2.374,-2.2092,0.5128,2048
12,-0.197,-0.5874,-0.0862,-2.4912,-2.2724,0.4365,2042
12,-0.1758,-0.5369,-0.0735,-2.526,-2.3024,0.4651,2046
12,-0.1614,-0.4941,-0.0767,-2.5224,-2.3111,0.4926,2043
12,-0.1484,-0.47,-0.0759,-2.5494,-2.2843,0.4806,2045
12,-0.1458,-0.4526,-0.0903,-2.5706,-2.2383,0.4842,2044
12,-0.1289,-0.4343,-0.1089,-2.6096,-2.184,0.4631,2049
12,-0.1174,-0.4189,-0.1257,-2.5469,-2.1374,0.4923,2044
12,-0.1208,-0.4204,-0.1482,-2.5504,-2.0551,0.4826,2049
12,-0.1167,-0.4336,-0.1819,-2.5068,-1.9973,0.5008,2047
12,-0.1191,-0.4272,-0.1995,-2.4336,-1.9196,0.5135,2044
12,-0.1245,-0.4263,-0.2283,-2.3603,-1.818,0.4907,2045
12,-0.1326,-0.4028,-0.2539,-2.2554,-1.6836,0.4434,2042
12,-0.1697,-0.4036,-0.2715,-2.113,-1.5165,0.3898,2050
12,-0.2056,-0.4373,-0.2932,-1.99,-1.3489,0.3131,2053
