Timestamp,Ax,Ay,Az,Rx,Ry,Rz,EMG
0,-0.0317,-0.905,0.0864,0.0501,-0.0156,0.1871,2050
0,0.0112,-0.9983,0.0879,0.0455,0.0008,0.2334,2070
0,0.1228,-1.0349,0.073,0.0554,-0.0121,0.3263,2057
0,0.1692,-0.9961,0.063,0.0348,-0.0643,0.361,1975
0,0.1814,-1.0129,0.1064,0.0015,-0.1646,0.4348,2037
0,0.1367,-1.0271,0.04,-0.027,-0.318,0.4606,2081
0,0.1055,-1.0537,0.0359,-0.151,-0.1531,0.5024,2042
0,0.1333,-1.0854,-0.0322,-0.1306,-0.1927,0.6501,1974
0,0.2627,-0.9758,0.0193,-0.0634,-0.3345,0.7112,2004
0,0.3525,-0.9426,-0.0076,-0.068,-0.3229,0.8088,2025
0,0.3088,-0.9756,-0.0112,-0.11,-0.2053,1.0128,2032
0,0.259,-0.9514,0.0535,-0.229,0.0206,1.0461,2057
0,0.189,-1.0044,0.0178,-0.3063,0.1369,1.101,2056
0,0.1008,-1.0303,0.1099,-0.3004,0.2293,1.1413,2021
0,-0.0247,-1.0549,0.0859,-0.2172,0.195,1.2424,2170
0,-0.1143,-1.1353,0.0383,-0.137,0.1958,1.2303,2060
0,-0.0208,-1.0786,0.0203,-0.0457,0.2073,1.29,2119
0,0.083,-0.9988,-0.0059,-0.0104,0.2286,1.3661,2149
0,0.1169,-0.9819,-0.0115,0.0192,0.2204,1.4107,2071
0,0.1055,-1.0059,-0.0354,0.066,0.2553,1.4549,2132
0,0.1602,-0.8276,0.0405,0.1831,0.2807,1.7472,2100
0,-0.0991,-0.9224,-0.0061,0.2205,0.6461,2.2522,2156
0,0.4104,-1.0835,0.02,0.306,0.5176,2.0575,2035
0,0.2461,-1.0686,-0.0388,0.3942,0.4245,2.5249,2023
0,0.187,-1.1953,-0.1162,0.4337,0.3741,2.345,2030
0,0.2085,-1.2205,-0.0999,0.5426,0.2729,2.4421,2173
0,0.2009,-1.2783,0.0146,0.5837,0.2598,2.5778,2078
0,0.1885,-1.2622,0.0535,0.6131,0.2555,2.6582,2021
0,0.1802,-1.2375,0.1069,0.6709,0.2594,2.7404,2052
0,0.1812,-1.3108,0.1353,0.6854,0.3666,2.8663,2032
0,0.1646,-1.395,0.165,0.7219,0.5516,2.9313,2022
0,0.1099,-1.5198,0.1282,0.732,0.7461,3.0232,2044
0,0.2842,-1.7058,0.0593,0.653,0.8682,2.9826,2039
0,0.5066,-1.8015,-0.043,0.5398,0.5971,3.2606,2011
0,0.5737,-1.8176,-0.0828,0.4489,0.2068,3.7675,2043
0,0.7373,-1.8618,-0.166,0.1495,-0.1934,4.0391,2035
0,0.8032,-1.8525,-0.0095,-0.1228,-0.8423,4.3634,2059
0,1.2659,-1.9192,0.2034,-0.2586,-2.1547,4.3634,2062
0,0.9666,-1.8936,0.0449,-0.3631,-1.706,3.9526,2084
0,-0.1555,-2.0,0.2305,-0.1092,-2.5079,3.7913,2070
0,-0.134,-2.0,0.6633,-0.2932,-3.6017,3.2412,1994
0,0.741,-0.8591,-0.0105,0.4747,-3.3797,2.3396,2049
0,0.0684,0.2251,-0.3379,1.2965,-3.3199,4.3634,2077
0,-0.8926,-0.5442,0.3586,2.6521,-3.1626,4.3634,2084
0,-0.7043,-1.792,-0.0444,0.5264,-4.3635,2.6434,2046
0,1.9999,0.8613,-1.218,3.0345,-1.8997,4.3634,2072
0,-2.0,0.0112,1.9999,-1.0195,-1.7386,-0.6653,1988
0,-2.0,-0.9768,0.0396,0.1208,-4.3635,1.2798,2096
0,-1.2742,-0.4844,1.9999,-0.0258,-4.3635,1.8363,2079
0,-1.1926,0.2642,0.9932,-0.0149,-4.3635,0.041,2028
0,-0.7715,-0.0742,0.1277,-1.3272,-4.3635,-1.293,2010
0,-0.1323,-0.4866,-0.2241,-1.6178,-3.3176,-2.0809,2029
0,-0.0664,-0.4011,0.0051,-3.2822,-1.3047,-3.4343,2047
0,-0.0898,-0.1472,0.021,-3.2396,-0.8965,-3.3692,2047
0,0.3325,-0.0657,0.2219,-2.1361,-1.803,-2.7992,2049
0,0.2693,-0.4309,0.2747,-1.3533,-1.6669,-2.3603,2054
0,-0.1182,-0.8086,0.251,-1.5707,-0.8558,-2.3831,2053
0,-0.4783,-0.6633,0.3101,-1.9441,-0.652,-2.8954,2051
0,-0.6362,-0.3125,0.3425,-1.9833,-0.189,-3.3443,2046
0,-0.6609,-0.2563,0.4126,-1.5665,0.1286,-3.6552,2040
0,-0.696,-0.4429,0.5271,-1.6703,0.8265,-3.8974,2036
0,-1.0581,-0.7185,0.7651,-3.0136,0.549,-4.3635,2032
0,-0.7336,-0.4092,0.5815,-2.8771,1.3368,-4.3635,2036
0,-0.509,-0.3811,0.5442,-3.1678,1.0766,-4.3635,2042
0,-0.2817,-0.3701,0.4292,-3.2062,1.2509,-4.3635,2040
0,-0.1064,-0.355,0.2791,-3.4973,1.4731,-4.3635,2041
0,0.0229,-0.3401,0.1267,-3.6379,1.1429,-4.3635,2045
0,0.123,-0.4001,0.0205,-3.301,0.6899,-4.3635,2035
0,0.1396,-0.5447,-0.0483,-3.0276,0.5325,-4.3635,2048
0,-0.0229,-0.6836,-0.0093,-2.743,0.4899,-4.3635,2050
0,-0.1733,-0.8767,0.083,-2.3975,0.4639,-4.3635,2042
0,-0.2373,-1.0242,0.1936,-2.1614,0.3674,-4.3635,2054
0,-0.3589,-1.22,0.2729,-2.0108,0.2442,-4.3635,2047
0,-0.5054,-1.4253,0.3369,-2.0591,0.0505,-4.3635,2043
0,-0.5891,-1.8127,0.4978,-2.2997,-0.0394,-4.3635,2061
0,-0.7036,-1.3088,0.3765,-2.8104,0.3538,-4.3635,2055
0,-0.5073,-0.9363,0.208,-3.4933,0.9183,-4.3635,2038
0,-0.3921,-1.4089,0.1245,-2.4926,0.2725,-4.3635,2050
0,0.168,-1.7019,0.5728,-1.8157,-1.409,-4.3635,2031
0,0.0361,-1.894,-0.2275,-1.6033,-2.9059,-3.5011,2047
0,-0.7595,-1.8708,-0.0498,-1.7486,-1.6952,-2.8248,2060
0,-0.9216,-1.1023,0.4072,-1.5,-0.8986,-1.7451,2045
0,-0.9624,-0.5005,0.5579,-1.1592,-1.3937,-0.3956,2048
0,-0.7239,-0.5544,0.5554,-0.1262,-1.6512,1.0781,2034
0,-0.9993,-0.7517,0.5513,0.5608,-0.504,2.3254,2049
0,-1.2861,-0.6421,0.8943,0.5663,-0.2772,3.0139,2053
0,-0.8269,-1.1243,0.6914,1.3862,2.5212,0.6509,2034
0,1.9648,-1.2498,-0.1909,-1.1529,2.0744,-0.9035,2021
0,1.9999,-0.2751,1.9041,3.8619,4.3634,2.8163,2120
0,1.9999,-1.1035,0.991,-1.5735,2.9517,0.4361,2049
0,-1.1143,-2.0,0.325,1.7021,2.6951,2.7803,2021
0,-0.4128,-0.3752,0.1948,-2.5493,4.3634,2.6004,1981
0,0.8391,-1.4277,0.4712,0.2567,3.2548,-1.5689,2071
0,0.4739,-2.0,0.6965,0.9405,0.9167,2.8209,2049
0,1.1807,-1.3479,0.5911,0.8762,-0.0461,3.7544,2054
0,0.1765,-1.304,0.124,0.6233,0.6669,4.1499,2048
0,-0.7356,-1.3975,-0.0103,-0.6622,0.3441,3.9082,2034
0,-1.8098,-1.949,-0.4868,-1.4584,0.7815,3.3071,2036
0,-1.6758,-1.1646,-0.7361,-1.4451,1.7418,2.3953,2026
0,-0.6548,-0.1006,-0.6431,-1.5171,0.5624,2.8934,2028
0,-0.0518,-0.1387,-0.3308,0.2196,0.4256,2.9349,2062
1,-0.8994,-1.0564,0.0903,0.8909,-0.6988,2.4276,2009
1,-0.4297,-0.9507,0.4524,0.7961,-2.5812,1.0532,2029
1,-0.5149,-1.3228,0.1709,-0.8781,-0.331,0.7207,2033
1,-0.4526,-1.0769,-0.3438,0.026,-0.2361,0.9813,2015
1,-0.0994,-0.7939,0.342,0.3634,0.1599,1.2262,2005
1,-0.1169,-1.1033,0.5732,-0.3217,-0.2987,0.6203,2052
1,-0.562,-1.3154,0.4297,-0.286,0.1377,0.4276,2052
1,-0.6753,-1.2881,0.2744,-0.6763,0.6185,0.5339,2027
1,-0.4563,-0.9741,0.0967,-0.3077,0.5749,0.6225,2028
1,-0.3284,-1.0244,0.1089,-0.343,0.6445,0.4979,2041
1,-0.1311,-0.9878,0.0759,-0.2847,0.3452,0.2955,2043
1,-0.1182,-0.9927,0.0073,-0.1851,0.1744,-0.039,2050
1,-0.103,-1.0039,-0.0547,-0.069,-0.0004,-0.1248,2058
1,-0.0374,-1.0474,-0.0989,0.078,-0.129,0.0479,2042
1,0.042,-0.97,-0.1035,0.1585,-0.2445,0.1016,2025
1,0.0503,-0.9517,-0.1118,0.2306,-0.3545,0.0461,2064
1,0.0825,-0.9575,-0.0796,0.2356,-0.3919,-0.0623,2044
1,0.0845,-0.9521,-0.0337,0.2603,-0.465,-0.108,2028
1,0.0793,-0.9492,-0.0083,0.2412,-0.3528,-0.1194,2020
1,0.1157,-0.9675,0.0383,0.1839,-0.3534,-0.1107,2027
1,0.2253,-1.061,-0.009,0.189,-0.4428,0.0104,2023
1,0.3418,-1.0273,0.0239,0.0858,-0.3264,0.1497,2075
1,0.3323,-0.9949,0.0139,0.0237,-0.4659,0.2244,2067
1,0.2676,-1.0103,-0.0264,-0.008,-0.4603,0.3336,2054
1,0.3264,-0.9927,-0.0088,0.041,-0.5637,0.4573,2024
1,0.5042,-0.95,0.0864,-0.0027,-0.4806,0.719,2085
1,0.5405,-0.9377,0.1094,-0.1029,-0.393,0.9889,1966
1,0.5063,-0.856,0.145,-0.1538,-0.4501,1.1971,1962
1,0.4265,-0.9026,0.1252,-0.2092,-0.4374,1.3197,2057
1,0.3472,-1.0134,0.1409,-0.336,-0.3184,1.2797,1953
1,0.1221,-1.0269,0.0989,-0.1424,-0.1362,1.1565,2112
1,0.0442,-0.969,-0.0186,-0.0772,-0.1714,1.1431,2001
1,0.188,-0.998,-0.0237,-0.09,-0.0232,1.2864,2002
1,0.2627,-1.0107,-0.0769,-0.0557,0.0156,1.3905,1947
1,0.3704,-0.9146,-0.0017,-0.0678,-0.1032,1.5123,1946
1,0.4016,-0.8413,-0.0208,-0.0208,-0.1538,1.803,2039
1,0.0745,-0.9365,0.0093,0.0666,0.1324,1.9206,1987
1,-0.1355,-1.0249,-0.0618,0.2049,0.5046,1.9603,2063
1,-0.2815,-1.0063,-0.1824,0.3276,0.7416,2.9931,2019
1,0.4136,-1.3262,-0.1448,0.4028,0.6917,2.463,1994
1,0.1589,-1.1824,-0.1238,0.5444,0.51,3.1922,2082
1,0.1997,-1.3118,-0.0388,0.5397,0.2713,2.3814,2001
1,0.1086,-1.0979,0.1301,0.6195,0.0425,2.7822,2159
1,0.0303,-1.2432,0.1396,0.5671,0.072,2.795,1991
1,-0.0269,-1.2122,0.1638,0.5577,0.1526,2.42,2047
1,0.0386,-1.3796,0.1479,0.6215,0.1204,2.3393,2056
1,-0.0115,-1.4309,0.2297,0.6172,0.1105,2.4497,2054
1,-0.0752,-1.3792,0.2229,0.6618,0.151,2.4244,2062
1,-0.126,-1.2471,0.1538,0.7147,0.2928,2.8291,2062
1,-0.0305,-1.4155,0.0544,0.6841,0.6052,2.7121,2034
1,0.3274,-1.4626,0.0747,0.705,0.715,2.9407,2032
1,0.4272,-1.521,0.0449,0.6727,0.7232,3.0237,2041
1,0.7173,-1.5852,-0.0981,0.5063,0.6019,3.2464,2032
1,1.1248,-1.7861,-0.0867,0.2843,0.2597,3.4689,2025
1,-0.4519,-1.1345,-0.1553,0.0142,-1.0979,4.3634,2137
1,0.7278,-2.0,0.2712,-0.0228,-0.9011,3.6747,2082
1,1.0659,-1.656,0.0156,0.0003,-2.3188,4.3634,2022
1,1.1841,-2.0,0.2715,-0.1112,-1.8456,3.9218,2046
1,0.271,-2.0,0.2332,-0.3542,-2.8512,4.3634,2011
1,-0.5974,-1.7437,-0.0649,0.1473,-3.7825,1.7496,1996
1,-0.0044,-0.478,-0.4946,0.5737,-3.439,2.6793,2022
1,0.0552,-0.0488,-0.3906,1.5889,-2.5856,4.3634,2078
1,-0.5393,-1.4495,0.6279,1.7475,-3.9285,3.9632,2082
1,1.9999,-0.2798,-0.6553,2.638,-4.3635,4.3634,2116
1,-2.0,0.2405,0.1833,-0.4557,1.2274,1.5655,1819
1,-2.0,-1.2388,-0.022,2.2688,-4.3635,2.4397,2163
1,-1.8125,-1.0083,1.5454,0.9107,-4.3635,1.8512,2085
1,-1.3127,-0.3306,1.3672,0.7705,-4.3635,1.6801,2043
1,-1.3694,-0.0042,0.3247,-0.8111,-3.2184,-0.0121,1997
1,-0.7432,-0.009,-0.23,-0.9569,-3.175,-1.7825,2003
1,-0.4944,-0.199,-0.0544,-1.9455,-1.3254,-3.2333,2040
1,-0.3586,-0.3391,-0.1404,-2.9257,0.8046,-3.6137,2060
1,-0.2568,-0.1733,-0.0581,-2.2979,0.6118,-3.0524,2037
1,0.1838,-0.2808,0.1919,-1.0945,-0.5665,-2.3878,2049
1,0.1577,-0.6599,0.2554,-1.0531,-0.2304,-2.0149,2056
1,-0.2563,-0.6406,0.2236,-1.7298,-0.0435,-2.4675,2063
1,-0.5947,-0.2505,0.1697,-2.0261,0.1072,-3.2138,2042
1,-0.6511,-0.0728,0.2744,-1.7764,0.3502,-3.6217,2049
1,-0.6113,-0.1946,0.3914,-1.6045,0.9732,-3.7121,2052
1,-0.542,-0.4375,0.4595,-1.901,1.6125,-3.809,2043
1,-0.4395,-0.5491,0.4067,-2.3911,1.9696,-4.2604,2043
1,-0.3525,-0.4709,0.3494,-2.7474,2.0286,-4.3635,2032
1,-0.3916,-0.3604,0.3491,-2.9448,1.9563,-4.3635,2044
1,-0.4189,-0.3667,0.3042,-3.0168,2.0378,-4.3635,2034
1,-0.3086,-0.4597,0.2698,-2.966,2.1497,-4.3635,2047
1,-0.3992,-0.5344,0.467,-3.0027,2.133,-4.3635,2044
1,-0.0649,-0.3748,-0.0574,-3.2102,2.1856,-4.3635,2045
1,-0.2424,-0.4944,0.2393,-3.1339,1.9807,-4.3635,2034
1,-0.0051,-0.5144,0.0742,-2.9817,1.9313,-4.3635,2041
1,0.085,-0.6902,-0.0017,-2.6755,1.8506,-4.3635,2045
1,0.0276,-0.8806,-0.0337,-2.3935,1.4848,-4.3635,2040
1,-0.0945,-1.0508,-0.0227,-2.1732,0.9971,-4.3635,2032
1,-0.209,-1.2471,0.0208,-2.1482,0.3928,-4.3635,2040
1,-0.3796,-1.4521,0.1206,-2.1,-0.0834,-4.3635,2051
1,-0.4565,-1.2917,0.0767,-2.3645,0.0113,-4.3635,2051
1,-0.4648,-1.4336,-0.1191,-1.8901,-0.5755,-4.3635,2042
1,-0.1399,-1.7644,0.0679,-1.0609,-1.0379,-4.3635,2043
1,0.3247,-1.4004,0.1448,-1.211,-1.8731,-4.3635,2047
1,0.0808,-0.8811,0.1082,-1.1393,-2.7858,-4.1903,2047
1,-1.2085,-1.5056,1.031,-1.1061,-3.2893,-3.9175,2046
1,-0.5344,-1.7798,0.6738,-1.8383,-2.3989,-2.5056,2031
1,-0.1072,-1.2329,-0.0396,-1.5058,-1.6574,-1.2125,2064
1,-0.3235,-0.6914,0.5803,-0.8026,-1.9048,0.4779,2052
2,-0.6951,-0.6655,1.0093,0.0479,-1.7705,1.5956,2050
2,-1.0618,-0.7461,0.8616,0.6466,-0.9576,2.6195,2061
2,-1.5229,-0.5464,0.3752,1.6784,4.3634,0.1188,2030
2,-1.3306,-1.3699,1.8162,0.0643,2.5016,0.0687,2044
2,1.1248,-1.1265,1.9999,2.1264,4.3634,2.7505,2059
2,1.9999,-1.5557,-0.2771,-1.2045,4.3634,1.1057,2040
2,1.9999,-2.0,1.0388,-1.0171,3.229,4.3634,2017
2,0.0383,-0.4062,0.0781,-2.4485,3.5467,-0.1035,2032
2,-0.4807,-0.6814,-0.2908,0.6413,2.649,-0.2063,2055
2,0.0222,-1.4465,1.0356,1.4109,1.4712,2.8849,2052
2,0.3772,-1.4939,0.7314,1.8467,0.3737,3.2176,2047
2,-0.0056,-1.7673,0.322,0.4168,0.0491,3.5102,2043
2,-1.2424,-2.0,-0.2227,-2.3226,0.4594,3.3943,2031
2,-1.7974,-1.8875,-1.1133,-2.6827,2.8542,2.9174,2020
2,-0.6333,0.5137,-0.7236,-1.033,0.7979,2.8453,2014
2,-0.2571,-0.4958,0.0361,0.9206,0.8544,4.3634,2086
2,-0.9902,-0.5388,0.947,0.9982,-3.1774,2.5679,2021
2,-0.8093,-1.3848,0.3496,0.4099,-1.6177,0.6718,2023
2,-0.3997,-1.5654,0.2981,-1.1081,0.8624,1.3287,2044
2,-0.7527,-0.9312,0.0771,-0.4569,0.7392,1.35,1973
2,-0.5134,-0.5989,0.1497,-0.5486,0.5335,1.3536,2058
2,-0.1553,-0.9133,0.1001,-0.4213,0.6147,1.0163,2032
2,-0.335,-1.3196,0.2087,-0.2667,0.3176,0.6357,2036
2,-0.4084,-1.2227,0.1414,-0.3493,0.4425,0.5308,2030
2,-0.2588,-1.0837,0.0859,-0.3485,0.4536,0.4825,2027
2,-0.186,-0.9639,-0.0662,-0.2605,0.3789,0.2991,2114
2,-0.0688,-0.9807,-0.085,-0.1759,0.0921,0.2694,2059
2,-0.0532,-1.0078,-0.1228,-0.0381,-0.1864,0.18,2066
2,-0.0515,-1.0442,-0.1514,0.1441,-0.3928,0.0864,2005
2,0.0774,-1.0347,-0.1208,0.1706,-0.3999,0.2016,2023
2,0.1843,-1.0046,-0.1299,0.2314,-0.3417,0.3104,2037
2,0.1428,-0.9648,-0.0815,0.0979,-0.3093,0.2485,2065
2,0.1272,-0.9304,-0.0598,0.0605,-0.3132,0.2177,2099
2,0.1968,-0.9746,-0.0156,0.1131,-0.4381,0.3201,2066
2,0.1484,-0.9785,0.0161,0.0923,-0.5036,0.3579,2076
2,0.0947,-0.9785,0.0098,0.038,-0.4536,0.3762,2075
2,0.1426,-0.9912,0.0107,0.0353,-0.4923,0.4316,2062
2,0.2793,-1.0059,0.0161,0.0626,-0.5212,0.5657,2077
2,0.3154,-0.9927,0.0154,0.0535,-0.4671,0.6955,2018
2,0.2583,-0.9426,0.0374,-0.0055,-0.3932,0.7265,2124
2,0.2527,-0.9443,-0.0037,-0.0694,-0.35,0.823,2055
2,0.301,-0.9443,0.0317,-0.0651,-0.3271,0.8769,2046
2,0.3167,-0.9365,0.0281,-0.0688,-0.3309,0.974,2016
2,0.2737,-0.9377,0.0579,-0.1647,-0.2232,1.0725,1992
2,0.175,-0.9949,0.0442,-0.1655,-0.1577,1.125,2099
2,0.0742,-1.0525,0.0532,-0.1422,-0.1453,1.2007,1927
2,-0.0732,-1.0913,0.0493,-0.127,0.0546,1.2394,2104
2,-0.0278,-1.0884,-0.0071,-0.1198,0.0446,1.3853,2070
2,0.1492,-0.9958,0.051,-0.0732,-0.1814,1.5692,2019
2,0.1353,-1.0015,-0.0447,-0.0778,-0.2269,1.5956,2101
2,0.0774,-0.9912,-0.012,-0.0212,-0.2662,1.4852,2166
2,0.1482,-0.8616,0.0349,0.0342,-0.1344,1.5114,2168
2,0.1199,-0.7964,0.0168,0.0995,0.1677,1.6751,2083
2,0.1104,-0.9722,-0.0239,0.1698,0.3173,1.9837,1964
2,0.1292,-1.1848,-0.0972,0.2758,0.3771,2.0985,1969
2,-0.0103,-1.1978,-0.1519,0.4108,0.4702,2.6801,2097
2,0.1365,-1.1987,-0.1406,0.4823,0.4063,2.6365,1941
2,0.3718,-1.3188,-0.0208,0.5,0.2193,2.6197,2033
2,0.4436,-1.2803,0.0625,0.4843,-0.0559,2.6526,2181
2,0.2117,-1.2756,0.0737,0.5168,-0.0956,2.8094,2092
2,0.1443,-1.3218,0.2119,0.5448,-0.0015,2.6559,2025
2,0.1489,-1.2571,0.1792,0.5687,0.0967,2.7381,2072
2,0.0771,-1.4229,0.1301,0.6155,0.1894,2.9922,2032
2,0.1562,-1.4692,0.094,0.6621,0.3461,2.9452,2022
2,0.3115,-1.512,0.0137,0.6464,0.5701,2.9645,2034
2,0.3728,-1.6514,-0.0452,0.6367,0.6271,3.2836,2056
2,0.6099,-1.8442,-0.1248,0.5922,0.4826,3.5528,2051
2,1.0859,-1.991,-0.1843,0.443,0.184,3.8566,2029
2,0.7031,-1.7175,-0.488,0.2225,-0.3617,4.3634,2061
2,0.9631,-1.9104,-0.0127,0.1144,-1.6552,4.3634,2057
2,1.4304,-1.7603,0.3081,0.1843,-2.8225,4.3634,2053
2,0.4106,-2.0,0.1113,0.1858,-1.8353,3.8929,2070
2,-0.2551,-2.0,0.365,0.1679,-2.3328,4.2817,2042
2,0.51,-2.0,-0.1003,0.3056,-2.9769,2.3535,2001
2,0.823,-0.0818,-0.1875,1.1298,-2.2654,3.7484,2061
2,-0.4897,0.0708,-0.1379,2.2348,-2.0803,4.3634,2073
2,-1.2261,-1.3506,0.6458,2.5262,-3.0389,3.9619,2085
2,1.9999,-1.4917,-0.7583,1.4094,-2.5285,4.3634,2117
2,-2.0,-1.4148,-0.4163,-0.0206,4.3634,0.9453,1815
2,-2.0,-0.73,0.1272,1.2073,-4.3635,1.8201,2126
2,-2.0,-0.885,1.2229,1.4226,-4.3635,1.1637,2087
2,-1.27,-0.0881,1.5347,0.9833,-3.8566,1.4067,2079
2,-1.2935,0.1028,0.2898,-0.3489,-2.7003,-0.5267,1989
2,-0.5415,-0.03,-0.2842,-0.7722,-2.7107,-2.3044,2017
2,-0.3206,-0.3696,-0.0432,-1.8205,-1.4842,-3.2055,2036
2,-0.1819,-0.2842,-0.2139,-2.9373,0.2201,-3.8438,2049
2,-0.0291,-0.0042,-0.1697,-2.1565,-0.2895,-3.536,2041
2,0.1558,-0.0925,0.1455,-1.3161,-0.8922,-2.8689,2056
2,-0.2031,-0.5286,-0.0859,-0.9044,-0.1621,-2.5378,2048
2,-0.5347,-0.7773,0.1096,-0.9319,-0.1075,-2.8434,2037
2,-0.6855,-0.2847,0.1885,-1.6744,-0.1689,-3.6113,2050
2,-0.6204,0.1184,0.2354,-1.8052,0.075,-4.2845,2048
2,-0.5427,-0.0383,0.2419,-1.7399,0.4261,-4.3635,2041
2,-0.6606,-0.438,0.229,-1.8359,1.0549,-4.3635,2035
2,-0.8999,-0.8909,0.8608,-2.5978,1.0087,-4.3635,2023
2,-0.5562,-0.2974,0.1831,-2.575,1.7701,-4.3635,2054
2,-0.4573,-0.3557,0.3069,-2.7806,1.4444,-4.3635,2045
2,-0.3037,-0.426,0.187,-2.7755,1.2982,-4.3635,2042
2,-0.1943,-0.4016,0.0872,-2.8404,1.4151,-4.3635,2042
2,-0.1992,-0.377,0.0759,-2.7874,1.4932,-4.3635,2052
2,-0.1772,-0.4534,0.0959,-2.6418,1.4255,-4.3635,2051
2,-0.0813,-0.5793,0.0679,-2.5197,1.2701,-4.3635,2042
3,-0.0327,-0.709,0.0007,-2.2814,1.0997,-4.3635,2054
3,-0.1248,-0.8877,0.053,-2.1146,0.9098,-4.3635,2043
3,-0.3145,-1.0247,0.1221,-2.1157,0.4956,-4.3635,2053
3,-0.5457,-1.2981,0.2078,-2.1478,0.0623,-4.3635,2046
3,-0.731,-1.5122,0.3096,-2.2734,-0.2342,-4.3635,2040
3,-0.9143,-1.2566,0.1609,-2.9192,0.3583,-4.3635,2041
3,-0.6477,-1.4539,-0.0388,-2.3266,0.2923,-4.3635,2032
3,-0.2517,-1.52,-0.2207,-1.5107,-0.0691,-4.3635,2059
3,0.4626,-1.3394,-0.1055,-1.5767,-1.9968,-4.3635,2042
3,0.5654,-1.8357,0.0254,-1.3708,-2.2937,-4.065,2038
3,-0.7415,-1.8604,0.3132,-0.6589,-2.5092,-3.3516,2058
3,-1.0466,-1.8809,0.4287,-1.1336,-2.8295,-2.1474,2080
3,-0.5823,-1.1702,0.1084,-1.3845,-1.9748,-0.5305,2058
3,-0.3831,-0.6521,0.6138,-0.9947,-1.5281,0.8154,2034
3,-1.1111,-0.2239,1.4304,-0.02,-1.8583,1.8295,2043
3,-1.3259,-0.5093,1.0125,0.9132,-2.4163,2.9252,2024
3,-2.0,-2.0,0.9631,-0.1057,0.4183,0.885,2002
3,-0.0085,-0.2488,1.9033,0.8347,1.9736,0.0417,2038
3,1.9999,0.2751,-0.2717,4.0327,4.3634,2.9781,2107
3,1.9999,-1.1462,1.428,-0.9399,4.3634,0.9143,2072
3,1.9999,-1.9033,0.7712,-1.4412,4.3634,3.3628,1996
3,1.9999,-2.0,1.9999,-2.4244,4.3634,4.3634,1984
3,0.1089,-1.1201,-1.2979,-0.2197,3.2311,-1.7179,2011
3,-0.3501,-2.0,-0.6343,1.4724,1.6998,0.0149,2068
3,-0.4077,-2.0,1.0112,0.5075,-0.1288,4.0528,2048
3,0.4268,-1.1909,0.7327,0.6441,-1.2784,4.3634,2060
3,-0.0466,-1.4421,0.0544,-0.6397,-0.607,4.3634,2051
3,-1.9858,-1.2402,-0.3745,-0.4958,-0.0525,2.9578,2037
3,-1.3682,-0.448,-0.3279,-1.0705,0.0834,2.4413,2018
3,-0.6189,-0.0259,0.4485,0.6253,0.0925,3.3116,2032
3,-1.2021,-0.8594,0.217,-0.0027,-0.51,2.7317,2025
3,-0.6787,-1.0444,0.3767,-0.3179,-0.549,1.613,2022
3,-0.5059,-1.1265,0.1206,0.369,-0.3209,0.6192,2046
3,-0.6135,-1.4136,-0.2744,-0.6554,1.1362,0.6917,2030
3,-0.4807,-1.093,0.1299,-0.5228,0.887,1.0006,2005
3,-0.2188,-0.7412,0.0542,-0.3325,0.4852,1.0272,2070
3,0.0615,-0.8611,0.1011,-0.4589,0.4662,0.7324,2049
3,-0.2847,-1.1838,0.1169,-0.2733,-0.0554,0.3785,2056
3,-0.5649,-1.3093,0.0835,-0.175,-0.0241,0.4629,2029
3,-0.4739,-1.1699,0.0679,-0.0984,0.1726,0.5938,2031
3,-0.2681,-1.042,0.009,-0.0688,0.1898,0.516,2039
3,-0.1516,-1.0508,0.0168,-0.0543,0.1312,0.3956,2059
3,-0.1252,-1.0586,-0.0527,-0.0041,0.0246,0.2582,2025
3,-0.0361,-1.0378,-0.0493,0.0349,-0.0065,0.3369,2068
3,0.0032,-0.9463,-0.1072,0.1438,-0.1329,0.2406,2017
3,0.0625,-0.9512,-0.0742,0.1775,-0.2191,0.2304,2019
3,0.1223,-0.9182,-0.1028,0.2794,-0.3852,0.1743,2101
3,0.1858,-0.9597,-0.0737,0.2183,-0.4637,0.1979,2038
3,0.1919,-0.98,-0.0134,0.1723,-0.532,0.2591,2073
3,0.1375,-1.0051,0.0547,0.0819,-0.4513,0.3392,2074
3,0.0598,-1.0068,0.0627,0.0334,-0.4137,0.3839,2043
3,0.0618,-0.9927,0.0696,0.0301,-0.2794,0.4614,2087
3,0.229,-1.0051,0.0754,-0.0119,-0.4842,0.5686,2035
3,0.344,-1.0198,0.0232,-0.0458,-0.5074,0.7359,1957
3,0.2366,-1.0,0.0513,-0.0888,-0.4694,0.783,2129
3,0.1736,-1.0186,0.0295,-0.129,-0.5639,0.8762,2019
3,0.209,-0.9751,0.095,-0.1565,-0.3846,0.9238,1998
3,0.1323,-0.894,0.0325,-0.2049,-0.1005,0.9178,2032
3,0.0535,-0.9456,0.0288,-0.2264,0.1806,1.0937,2041
3,0.0476,-0.9385,0.064,-0.3,0.4561,1.1535,2175
3,0.1619,-0.9604,0.0254,-0.3093,0.2318,1.1911,1952
3,0.1182,-1.063,0.0076,-0.2025,-0.0055,1.2436,2035
3,0.071,-1.0942,-0.0378,-0.0959,-0.0983,1.2785,2214
3,0.2163,-0.9648,-0.0007,-0.0266,-0.2361,1.4275,2059
3,0.314,-0.9187,-0.0283,-0.0075,-0.1675,1.4921,2006
3,0.2949,-0.9072,-0.0278,0.0257,-0.0871,1.5928,2013
3,0.0288,-0.6909,0.0459,0.2248,-0.2526,2.3641,2171
3,0.1257,-1.1689,-0.0522,0.1992,0.3866,2.435,1907
3,0.363,-1.23,-0.1008,0.3255,0.4103,2.3645,2009
3,0.1799,-1.1926,-0.1509,0.4261,0.4265,2.4317,2269
3,0.2329,-1.2803,-0.1328,0.4766,0.2657,2.6052,2138
3,0.3125,-1.2673,-0.0688,0.4835,0.1184,2.6983,2031
3,0.3108,-1.3784,-0.0925,0.4693,-0.1244,2.6771,2134
3,0.1436,-1.4077,0.1113,0.5968,-0.108,2.7052,1994
3,0.0647,-1.2432,0.1758,0.5991,-0.1107,2.6709,2001
3,-0.0085,-1.3154,0.1941,0.5745,-0.0012,2.7356,2117
3,-0.0894,-1.3821,0.1484,0.5938,0.2719,3.0644,2034
3,0.0979,-1.4966,0.0881,0.632,0.5869,3.0427,2050
3,0.3306,-1.6375,-0.0627,0.5855,0.9156,3.2146,2044
3,0.752,-1.8384,-0.064,0.5022,0.675,3.3416,2034
3,1.1211,-2.0,-0.1541,0.3793,0.2334,3.6704,2047
3,1.5483,-1.9954,-0.0132,0.1313,-0.6327,3.9586,2034
3,0.5957,-1.4102,-0.1897,-0.1969,-2.1426,3.4492,2031
3,0.9946,-1.7566,0.3279,-0.0589,-3.1062,4.3634,2123
3,0.4473,-1.949,0.3862,0.2745,-3.2688,4.3634,2043
3,-0.8022,-2.0,0.5464,-0.1763,-1.6673,3.4415,2046
3,0.4407,-2.0,-0.2412,-0.1408,-2.2969,3.1095,1985
3,1.4456,0.1133,-0.2722,1.3103,-1.9157,4.2,2101
3,-0.2603,0.04,-0.2224,2.3882,-1.6701,4.3634,2103
3,-1.4263,-1.3533,1.0403,2.17,-3.9466,3.4239,2036
3,-0.6431,-1.4209,-1.5334,0.9112,-2.5726,2.5398,2049
3,-2.0,-0.8435,-2.0,1.1175,4.3634,4.3634,1912
3,-2.0,-1.2949,1.2043,-0.2036,-4.3635,-0.3171,2104
3,-2.0,-0.9365,0.6121,0.823,-4.2797,2.2778,2098
3,-1.957,-0.1921,1.5742,0.6825,-4.3635,0.9357,2070
3,-1.2654,0.376,0.2783,0.2734,-3.9958,0.3453,2033
3,-0.7383,0.0305,-0.1165,-0.3609,-3.3115,-2.1555,2013
3,0.1387,-0.3369,-0.124,-0.4352,-3.2937,-3.0392,2038
3,-0.0337,-0.3906,0.0344,-2.7775,-0.4666,-3.499,2045
3,0.0618,-0.2354,-0.3184,-2.482,-0.87,-3.9697,2032
3,0.1152,-0.2979,-0.0376,-0.8289,-2.2752,-3.6351,2045
3,-0.2026,-0.613,0.1934,-0.8873,-1.3552,-3.0658,2049
3,-0.7363,-0.6521,0.2151,-1.3334,-0.8609,-3.2103,2053
4,-0.8286,-0.3022,0.2097,-1.5929,-0.3713,-3.785,2041
4,-0.5466,-0.0615,0.291,-1.5358,-0.2117,-4.3635,2045
4,-0.7881,-0.3491,0.9121,-2.283,-0.3211,-4.3635,2040
4,-0.3386,-0.2996,0.2371,-2.1229,0.9778,-4.3635,2043
4,-0.5403,-0.4875,0.363,-2.3115,1.0014,-4.3635,2038
4,-0.4492,-0.3425,0.415,-2.4691,0.9431,-4.3635,2036
4,-0.415,-0.3181,0.4006,-2.7016,1.101,-4.3635,2038
4,-0.2964,-0.364,0.282,-2.8153,1.2352,-4.3635,2047
4,-0.3325,-0.4741,0.1902,-2.5356,1.6082,-4.3635,2040
4,-0.2588,-0.4983,0.1577,-2.539,1.8508,-4.3635,2041
4,-0.1877,-0.4539,0.1536,-2.5504,1.6835,-4.3635,2040
4,-0.0999,-0.5457,0.0686,-2.4189,1.6106,-4.3635,2056
4,-0.0718,-0.658,0.0029,-2.2031,1.5073,-4.3635,2053
4,-0.1255,-0.8679,-0.0129,-1.7888,1.3352,-4.3635,2049
4,-0.2832,-1.0974,0.0225,-1.4635,0.9886,-4.3635,2053
4,-0.5798,-1.4543,0.1123,-1.2906,0.7462,-4.3635,2050
4,-0.9731,-1.7141,0.325,-1.2768,0.3879,-4.3635,2049
4,-1.104,-1.4612,0.3384,-1.9247,1.0432,-4.3635,2055
4,-0.4758,-0.9666,0.2715,-2.581,0.9902,-4.3635,2038
4,-0.0042,-1.521,0.0437,-1.8816,0.6024,-4.3635,2021
4,0.5005,-1.78,-0.3765,-2.0253,-0.9554,-4.3635,2024
4,0.5154,-1.9719,-0.0957,-1.8347,-2.0013,-3.9833,2073
4,-0.4587,-1.8333,0.1189,-1.4841,-2.347,-2.9411,2062
4,-1.0586,-1.4351,-0.01,-1.5797,-2.3365,-1.8418,2052
4,-0.7983,-0.9851,-0.127,-1.1316,-2.6237,-0.0453,2060
4,-0.5986,-0.7336,0.4375,-0.3621,-2.742,1.6988,2043
4,-1.9756,-0.4033,1.1799,0.1136,-1.9909,2.2237,2062
4,-1.0933,-1.8643,1.239,-0.6305,-2.1719,3.4141,2022
4,-0.2202,0.2109,1.241,0.9295,1.2933,-0.598,2061
4,1.9999,0.8672,-0.9832,3.15,4.3634,3.3166,2114
4,0.0513,-1.0664,1.9999,2.0726,4.3634,3.1729,2060
4,1.9999,-1.0029,0.6982,-0.7779,3.7897,1.4274,1996
4,1.9999,-2.0,1.9999,-2.5776,4.1001,4.3634,2035
4,1.0723,-0.8982,-0.2319,-1.5846,2.892,-2.732,2033
4,0.749,-1.9243,-1.429,2.7565,1.85,-0.546,2077
4,-0.4993,-2.0,0.8401,-0.7008,0.8253,3.8198,2046
4,0.6089,-1.4094,0.2351,0.6645,-0.5293,4.2048,2059
4,-0.5276,-1.6348,0.4861,-0.2282,0.4723,4.3634,2037
4,-1.9233,-2.0,-0.4084,-1.7948,1.3766,3.6552,2051
4,-1.3962,-0.2024,-0.6753,-1.2057,1.3668,3.2477,2036
4,-0.7336,0.2942,-0.3833,-0.1786,0.4946,3.1196,2032
4,-0.4824,-0.1089,-0.0103,0.51,-0.2012,3.1472,2053
4,-0.5405,-0.7888,0.2253,0.4185,-1.747,2.3626,2029
4,-0.2354,-1.0095,0.292,-0.1606,-1.733,1.2667,2047
4,-0.5769,-1.7175,0.0906,-0.8383,0.6244,1.0244,2125
4,-1.2351,-1.646,0.0791,-0.7353,0.54,1.1661,2074
4,-0.6379,-0.5823,0.0872,-0.1883,0.661,1.4488,2050
4,-0.1997,-0.6602,0.252,-0.4143,0.9621,0.8782,2026
4,-0.2302,-1.2827,0.1833,-0.4646,0.9196,0.5738,2063
4,-0.4072,-1.3237,0.1333,-0.3337,0.6625,0.6948,2058
4,-0.4031,-1.0432,0.1099,-0.1537,0.4653,0.2963,2032
4,-0.2488,-1.0825,0.0879,-0.0899,0.3785,0.4745,2038
4,-0.2808,-1.0774,0.0803,-0.0736,0.3159,0.2715,2036
4,-0.1028,-0.9922,0.0762,-0.0674,0.2525,0.2213,2072
4,-0.0667,-1.0208,0.0432,0.0402,0.0603,0.1421,2036
4,-0.0542,-1.0935,0.0303,0.0591,-0.1566,0.2452,2033
4,0.0469,-1.0242,-0.0144,0.2124,-0.2191,0.2755,2089
4,0.1177,-0.915,0.0181,0.2316,-0.3485,0.308,2143
4,0.124,-0.9639,-0.0044,0.2269,-0.4354,0.3255,2051
4,0.1472,-0.9976,-0.002,0.2236,-0.5109,0.3285,2080
4,0.1997,-0.9788,0.0417,0.1823,-0.4388,0.4561,2054
4,0.1123,-1.0527,-0.0034,0.124,-0.5683,0.4163,2079
4,0.1475,-0.9963,-0.0151,0.0902,-0.6197,0.3974,2014
4,0.2114,-1.0066,0.0171,0.0876,-0.6707,0.4898,2063
4,0.2952,-1.0439,0.0291,0.0161,-0.7513,0.626,2069
4,0.3181,-1.0278,0.0845,-0.0405,-0.7826,0.7625,2141
4,0.2705,-0.9922,0.063,-0.0667,-0.6432,0.8122,2078
4,0.2244,-0.9456,0.0447,-0.1135,-0.5047,0.84,1945
4,0.1936,-0.9458,0.0806,-0.1776,-0.2609,0.8985,2137
4,0.1638,-0.9341,0.0994,-0.1647,-0.1099,0.9981,2000
4,0.0938,-0.968,0.0818,-0.1625,-0.1396,1.0645,2092
4,0.0083,-1.0071,0.0896,-0.1306,-0.1699,1.0504,1990
4,0.0349,-1.0293,0.0574,-0.0411,-0.1177,1.0684,1999
4,0.0762,-0.9919,0.0203,0.0258,-0.0578,1.1511,2032
4,0.2253,-0.854,0.0205,0.1029,0.0634,1.2607,2054
4,0.3005,-0.8298,0.0347,0.1565,0.1623,1.3753,2083
4,0.4089,-0.8013,0.0771,0.216,0.269,1.6237,1976
4,0.0598,-0.8728,-0.0022,0.3682,0.3839,2.7448,2060
4,0.4521,-1.3052,-0.0088,0.4548,0.4911,2.3996,1939
4,0.2676,-1.2942,-0.0503,0.5208,0.5715,2.5749,2033
4,0.2747,-1.2466,-0.1355,0.5444,0.3791,2.4358,2062
4,0.27,-1.1917,-0.0552,0.6333,0.2159,2.65,1966
4,0.259,-1.2729,-0.0308,0.6059,0.1089,2.7738,2113
4,0.1682,-1.3992,0.1819,0.6572,0.3083,2.8022,2145
4,0.0811,-1.3896,0.2368,0.6821,0.3753,2.6577,2089
4,0.0874,-1.3206,0.3091,0.6943,0.5157,2.6875,2046
4,0.0637,-1.4314,0.2625,0.7388,0.6597,2.7666,2007
4,0.0703,-1.6277,0.0781,0.7929,0.909,2.6907,2023
4,0.2837,-1.5698,0.0667,0.8729,1.0613,3.0706,2049
4,0.3955,-1.6721,0.0732,0.8477,1.1978,3.1218,2050
4,0.6516,-1.8171,-0.1909,0.7429,1.1786,3.3547,2049
4,1.4128,-1.6267,-0.1758,0.9746,0.0407,4.3606,2057
4,0.7278,-2.0,-0.3279,0.4135,1.0236,4.3634,2072
4,1.019,-1.7876,-0.0066,0.1463,-1.3704,4.3634,2031
4,1.6733,-1.655,-0.0645,-0.1911,-0.7645,4.3634,2042
4,0.7263,-2.0,0.2725,-0.043,-2.0061,3.9314,2041
4,-0.0291,-2.0,0.3779,-0.4296,-2.8777,4.2499,1997
4,-0.041,-1.155,-0.4319,0.4241,-3.2843,1.5305,2048
4,0.3538,0.375,-0.8621,1.7058,-2.7706,4.3634,2108
4,-1.0952,-0.5312,0.0002,3.1484,-2.7438,4.3634,2106
4,0.6208,-2.0,0.5359,0.3053,-3.756,3.6407,2058
4,-0.6326,-0.1545,-1.1345,2.2779,-1.7439,4.3634,1979
4,-2.0,-0.24,1.9999,-1.1527,-3.6336,-0.8336,1968
5,-2.0,-1.4241,0.197,1.2366,-4.3635,1.623,2078
5,-1.615,-0.3916,1.9999,1.105,-4.3635,2.6887,2126
5,-1.3662,-0.0164,0.926,0.9028,-4.0969,1.5376,2056
5,-1.1733,-0.1072,0.0969,-0.6825,-3.0224,-1.3876,2007
5,-0.2966,-0.3577,-0.1816,-1.3595,-2.6063,-2.181,2026
5,-0.2593,-0.2747,-0.1895,-3.0646,0.2646,-3.7727,2037
5,-0.1599,-0.2219,-0.1943,-3.5087,0.9609,-3.3168,2032
5,0.2068,-0.1746,0.0083,-1.9666,-0.4653,-3.0171,2054
5,0.1924,-0.4517,0.1787,-1.2645,-0.7088,-2.3445,2058
5,-0.303,-0.7185,0.1199,-1.4806,0.2739,-2.4561,2055
5,-0.679,-0.5305,0.2017,-1.7677,0.3404,-3.0586,2039
5,-0.7112,-0.1707,0.2949,-1.8713,0.4846,-3.5748,2043
5,-0.6221,-0.0095,0.3547,-1.7183,0.7564,-4.0458,2046
5,-0.5488,-0.165,0.3948,-1.6773,1.3929,-4.2715,2042
5,-0.5757,-0.3767,0.3738,-1.9642,1.6816,-4.3635,2034
5,-0.5129,-0.4819,0.3694,-2.3643,1.7045,-4.3635,2049
5,-0.4243,-0.3787,0.4216,-2.7076,1.5273,-4.3635,2051
5,-0.4023,-0.0828,0.1846,-3.5314,1.1738,-4.3635,2040
5,-0.5515,-0.3779,0.4463,-3.1112,1.7223,-4.3635,2045
5,-0.2593,-0.2808,0.2795,-3.0737,2.0635,-4.3635,2045
5,-0.1465,-0.2456,0.2383,-3.1056,2.2952,-4.3635,2035
5,-0.0068,-0.3328,0.0718,-3.0613,2.2402,-4.3635,2039
5,-0.0239,-0.4631,-0.0535,-2.7707,2.0542,-4.3635,2042
5,-0.0376,-0.689,-0.0825,-2.3467,1.9654,-4.3635,2048
5,-0.1157,-0.9612,0.0193,-1.9041,1.6162,-4.3635,2059
5,-0.3113,-1.21,0.1211,-1.6235,1.1174,-4.3635,2052
5,-0.7473,-1.5544,0.2559,-1.6337,0.8516,-4.3635,2048
5,-1.0588,-1.772,0.4729,-1.7379,0.2832,-4.3635,2050
5,-0.8865,-1.1379,0.4067,-2.4934,1.07,-4.3635,2034
5,-0.2148,-1.323,0.1389,-2.5207,1.5569,-4.3635,2030
5,0.082,-1.7686,0.0806,-2.1011,0.8257,-4.3635,2032
5,0.5901,-1.9067,0.0208,-1.5391,-2.1122,-4.3635,2051
5,0.0989,-2.0,-0.0408,-1.5022,-2.3348,-3.6889,2070
5,-0.6565,-1.7808,-0.0891,-1.7443,-1.9422,-2.7261,2054
5,-0.7007,-1.1729,0.2837,-1.241,-1.377,-1.1248,2058
5,-0.7273,-0.6777,0.6587,-0.8929,-2.2732,0.3241,2042
5,-1.4116,-0.2798,0.6897,0.2699,-1.7735,1.2868,2041
5,-1.6733,-0.6172,0.9304,0.2083,-1.8699,2.2194,2031
5,-0.9976,-1.0005,0.634,0.585,-0.952,3.906,2022
5,-0.0459,-0.823,0.7036,0.9373,1.5363,-0.3096,2048
5,1.9999,-0.2937,-1.1248,1.1395,4.3634,3.2211,2111
5,1.8201,-0.4231,1.2229,2.7866,4.3634,2.2791,2078
5,1.2876,-0.6191,0.9231,-1.294,3.1837,1.2603,1987
5,-1.5872,-2.0,0.5454,0.9135,3.0305,1.8207,2006
5,-0.9934,-0.4304,-0.4839,-0.3625,4.0314,3.6503,1992
5,0.4946,-1.5889,-0.7893,0.4765,2.2763,-2.7319,2070
5,0.3787,-2.0,0.2324,1.073,0.6998,1.7619,2059
5,0.584,-1.6914,0.5422,0.4223,-0.4626,3.3649,2044
5,0.019,-1.6099,0.4226,0.3506,0.53,4.1667,2041
5,-0.9009,-1.8308,-0.2136,-1.1198,1.527,4.3007,2054
5,-1.2109,-0.9304,-0.0295,-1.018,1.0983,3.7575,2023
5,-0.6462,-0.1682,-0.1077,-0.579,-0.1015,2.8556,2040
5,-0.7249,-0.3298,0.1343,0.277,0.2185,3.1929,2043
5,-0.8728,-0.6335,0.2205,-0.3204,-1.0662,2.3711,2000
5,-0.5647,-0.9468,0.3042,-0.2266,-0.6071,1.2248,2024
5,-0.293,-1.4456,-0.0964,-1.0685,0.9279,1.2174,2066
5,-0.7183,-1.1853,-0.0352,-0.3878,0.6737,1.1913,2069
5,-0.6316,-0.7285,0.0288,-0.1579,0.4035,1.2077,2047
5,-0.2327,-0.9001,0.1677,-0.2659,0.2651,0.9495,1943
5,-0.1484,-1.0967,0.1196,-0.4329,0.339,0.5651,2047
5,-0.3735,-1.2014,0.0862,-0.3352,0.1052,0.467,2037
5,-0.5205,-1.2285,0.0554,-0.2292,0.1013,0.5335,2119
5,-0.4302,-1.1208,-0.0117,-0.1515,0.167,0.5283,2051
5,-0.2212,-1.0278,0.0293,-0.1008,0.1844,0.4569,2017
5,-0.0896,-1.0068,0.0208,-0.0826,0.1597,0.2952,2038
5,-0.033,-1.0447,-0.0481,-0.0071,0.0617,0.218,2117
5,-0.009,-1.0891,-0.0972,0.1274,-0.1595,0.3179,2061
5,0.0667,-0.9814,-0.0493,0.1868,-0.2976,0.4275,2027
5,0.1416,-0.8906,-0.0269,0.2199,-0.4444,0.3796,2060
5,0.1628,-0.9194,0.0005,0.1779,-0.5873,0.2812,2035
5,0.1392,-0.9541,0.0156,0.0898,-0.5661,0.3244,2062
5,0.0544,-1.0176,-0.0154,0.053,-0.4978,0.3842,2043
5,0.0586,-1.0398,0.0178,0.0866,-0.5754,0.4076,2039
5,0.1055,-1.0076,0.0442,0.028,-0.4275,0.4954,2075
5,0.0925,-0.9944,0.0762,-0.0518,-0.3496,0.5247,2046
5,0.1333,-0.9966,0.011,-0.1595,-0.2388,0.481,2108
5,0.2168,-0.9983,0.0591,-0.1875,-0.3907,0.4932,2118
5,0.2578,-0.9963,-0.0093,-0.1212,-0.4364,0.6787,2120
5,0.1411,-1.0264,0.0171,-0.0965,-0.3798,0.7918,2079
5,0.1133,-1.0159,0.0142,-0.1443,-0.2587,0.8508,1949
5,0.1562,-0.9778,0.0159,-0.1495,-0.2015,0.8734,2148
5,0.1392,-0.9592,0.0305,-0.1673,-0.1923,0.9551,2041
5,0.0359,-0.979,0.0056,-0.1525,-0.1959,1.0452,1824
5,-0.0142,-0.9565,0.0068,-0.1429,-0.1734,1.0206,2110
5,0.009,-0.9878,-0.0515,-0.0768,-0.163,1.022,2053
5,0.1121,-1.0547,-0.0669,-0.0032,-0.1904,1.1143,2071
5,0.2622,-0.9915,-0.0737,0.049,-0.2689,1.275,2197
5,0.3457,-0.9604,-0.072,0.1001,-0.3486,1.3376,2052
5,0.4265,-0.9465,-0.0549,0.1268,-0.3473,1.5028,2206
5,-0.062,-0.6147,-0.0557,0.3412,-0.6462,2.5338,2084
5,0.2349,-1.1265,-0.0659,0.3183,0.1127,2.3427,2050
5,0.3584,-1.1965,-0.0742,0.4167,0.2847,2.3642,2128
5,0.176,-1.2253,-0.0542,0.4856,0.3746,2.4778,1906
5,0.1379,-1.1992,-0.0359,0.5233,0.4035,2.6797,2016
5,0.6692,-1.3555,0.0649,0.5084,0.0559,2.469,2201
5,0.1743,-1.2332,0.092,0.553,-0.0136,2.8453,2005
5,0.0288,-1.3335,0.2659,0.5818,0.3545,2.812,2054
5,0.0754,-1.2959,0.2632,0.5757,0.558,2.7319,1881
5,0.0762,-1.4111,0.2261,0.6232,0.6833,2.8501,2059
5,0.1531,-1.4927,0.1768,0.6584,0.7734,2.9332,2036
5,0.2834,-1.5779,0.075,0.6734,0.8557,2.9104,2056
5,0.4043,-1.7495,-0.0464,0.6321,0.8798,2.904,2057
6,0.5947,-1.7207,-0.2415,0.5433,0.3903,3.5147,2035
6,0.8469,-1.9363,-0.2529,0.3882,0.1288,3.951,2047
6,0.772,-1.9624,-0.2676,0.1505,-0.4032,4.2759,2047
6,1.157,-1.8015,-0.0251,-0.0144,-1.3813,4.3289,2041
6,1.3748,-1.5969,0.1345,-0.0698,-1.5037,4.0662,2062
6,0.4141,-2.0,0.1978,0.1631,-2.0904,3.7257,2044
6,-0.4585,-2.0,0.3604,0.2653,-2.1106,3.8684,2042
6,0.2141,-2.0,0.1782,0.1577,-3.1281,2.3595,1993
6,1.127,-0.1152,-0.4619,1.1019,-2.1606,3.3905,2056
6,-0.3296,0.311,-0.2607,2.2399,-2.4428,4.3634,2111
6,-1.5388,-1.1667,0.72,2.546,-3.4595,4.0446,2047
6,1.9999,-1.5063,0.1313,-0.9412,-2.1076,4.3634,2085
6,-2.0,-2.0,-1.155,0.5125,4.3634,1.7329,1781
6,-2.0,-0.5366,0.3198,0.7279,-4.3635,1.1002,2156
6,-2.0,-0.949,0.8882,1.0385,-4.3635,1.1455,2120
6,-1.4683,0.189,1.4482,1.3125,-4.3138,1.4597,2107
6,-1.1821,0.0281,0.3025,0.2886,-2.7786,-0.6421,2010
6,-0.5295,-0.2573,-0.2539,-0.549,-2.3071,-2.0933,2016
6,-0.2588,-0.4038,-0.0051,-2.2798,-0.8624,-3.1144,2041
6,-0.0293,-0.2021,-0.3071,-2.8173,0.2329,-3.4475,2038
6,0.1587,0.0278,-0.0728,-1.9606,-0.2695,-2.9978,2038
6,0.2561,-0.1357,0.1809,-0.7745,-1.3386,-2.7285,2048
6,-0.1172,-0.6489,0.1665,-0.6574,-0.6011,-2.5079,2040
6,-0.6392,-0.6985,0.2585,-1.2668,-0.5175,-2.8404,2050
6,-0.7532,-0.2327,0.2449,-1.7602,-0.2092,-3.4929,2049
6,-0.5193,0.0212,0.2751,-1.6845,-0.0791,-4.0293,2053
6,-0.4121,-0.0769,0.2996,-1.5242,0.4353,-4.2438,2044
6,-0.575,-0.4165,0.5657,-1.8178,0.8736,-4.3635,2044
6,-0.4802,-0.4548,0.197,-2.3362,1.3481,-4.3635,2033
6,-0.6238,-0.2678,0.4492,-2.3759,1.2504,-4.3635,2044
6,-0.4753,-0.23,0.4968,-2.4951,1.1274,-4.3635,2049
6,-0.3901,-0.3804,0.405,-2.6389,1.3187,-4.3635,2046
6,-0.2302,-0.3721,0.26,-2.4728,1.5857,-4.3635,2047
6,-0.1653,-0.3306,0.2461,-2.2831,1.7065,-4.3635,2038
6,-0.0879,-0.3748,0.2212,-2.5293,1.6629,-4.3635,2052
6,0.0479,-0.46,0.1321,-2.4935,1.4532,-4.3635,2054
6,0.0796,-0.6079,0.0168,-2.2318,1.4198,-4.3635,2046
6,-0.0269,-0.7969,-0.0444,-1.8682,1.1893,-4.3635,2043
6,-0.1379,-0.9824,-0.0273,-1.4949,0.7504,-4.3635,2034
6,-0.4033,-1.2129,0.051,-1.1724,0.3261,-4.3635,2058
6,-0.7644,-1.6096,0.1365,-1.0859,0.2999,-4.3635,2065
6,-1.1326,-1.9355,0.4321,-1.0983,0.1523,-4.3635,2054
6,-0.8184,-1.1084,0.7083,-2.3192,1.0987,-4.3635,2053
6,0.3335,-2.0,0.7412,-3.1789,0.7201,-4.3635,2022
6,-0.186,-1.0815,-0.626,-0.6821,1.4035,-4.3635,2068
6,-1.1028,-1.8074,0.6094,-1.7578,-0.5597,-4.3635,2011
6,0.033,-1.5674,0.5938,-2.5297,-2.5916,-3.6936,2010
6,0.8499,-1.915,-0.3459,-1.6871,-1.0179,-2.033,2102
6,-0.4229,-1.1179,-0.3586,-0.7425,-0.822,-0.8696,2083
6,-0.9607,-0.7874,0.3088,-0.6851,-2.6092,0.3591,2047
6,-0.8611,-0.8088,0.4629,-0.1433,-2.4462,1.6768,2029
6,-1.5151,-0.7622,0.5386,0.2662,-0.8807,2.372,2025
6,-0.3562,-0.8657,0.218,0.7307,1.7711,1.0262,2017
6,0.1753,-0.1338,0.6965,1.6119,4.203,4.3634,2106
6,0.0686,-0.8137,1.9999,1.2776,2.2394,2.4143,2039
6,1.6892,-1.4814,-0.1252,-0.1863,4.3634,1.7595,2052
6,-0.7114,-0.9426,0.9668,0.2505,4.3634,3.5549,1969
6,0.365,1.3389,0.2917,0.3028,-0.0037,-0.7054,1996
6,0.2012,-1.7397,-0.1345,1.5736,2.3944,-0.5348,2071
6,0.3762,-2.0,0.4597,-0.1669,-0.5131,2.4358,2066
6,0.7935,-1.7905,-0.3774,-0.2678,-1.2688,2.9223,2048
6,0.021,-1.8713,-0.1292,0.2828,-0.1308,3.3247,2049
6,-1.1924,-2.0,0.2424,-0.8128,0.6477,3.641,2032
6,-1.4204,-1.6772,-0.2568,-1.1375,2.6581,2.9369,2038
6,-0.4338,-0.271,0.0447,-0.5899,1.6251,3.2316,2038
6,-0.0361,0.0881,0.1987,0.8425,0.0368,3.6326,2055
6,-0.4609,0.0076,0.4573,0.8869,-0.9871,2.1732,2035
6,-0.3831,-0.8857,0.3494,-0.3639,-0.4926,1.1216,2042
6,-0.3174,-1.4919,0.0713,-1.1532,-0.0812,1.437,2013
6,-0.928,-1.6074,0.0139,-0.958,0.5027,1.8327,2156
6,-0.7896,-0.8506,0.1665,-0.6363,0.8909,1.3561,2059
6,-0.4438,-0.5916,0.116,-0.4936,1.0274,1.0408,2041
6,-0.3103,-0.9551,0.1821,-0.4553,0.7498,0.7051,2037
6,-0.2917,-1.2246,0.0979,-0.4645,0.6942,0.6275,1982
6,-0.3018,-1.2246,0.0625,-0.4133,0.5136,0.6408,1953
6,-0.2507,-1.188,0.0029,-0.3361,0.4682,0.6859,1999
6,-0.1665,-1.0815,-0.0369,-0.245,0.2226,0.5458,2037
6,-0.062,-0.9622,0.0486,-0.1661,0.0055,0.4649,2055
6,-0.0906,-0.9661,0.0457,-0.1236,-0.1233,0.333,2035
6,-0.1199,-1.0178,0.0432,-0.1201,-0.1051,0.314,2032
6,-0.1086,-1.0813,0.0398,-0.0541,-0.0997,0.3405,1987
6,-0.0752,-1.0684,0.0056,0.0188,-0.0594,0.3992,2057
6,-0.0103,-0.981,-0.0007,0.0631,-0.0736,0.4065,2042
6,0.0471,-0.9329,0.0151,0.0345,-0.0993,0.3425,2082
6,0.1021,-0.9355,-0.0142,0.0892,-0.2413,0.3027,2088
6,0.1404,-0.9448,0.0027,0.1039,-0.2979,0.3317,2046
6,0.1541,-0.9817,-0.0063,0.165,-0.4155,0.4252,2016
6,0.0874,-0.9856,0.031,0.1565,-0.486,0.4525,2131
6,-0.0083,-1.0381,0.0288,0.1233,-0.4576,0.4046,2042
6,-0.0229,-1.0317,0.0161,0.1305,-0.3843,0.4296,2099
6,0.1069,-0.9902,0.0615,0.1535,-0.4814,0.5227,2027
6,0.2239,-1.0217,0.0945,0.102,-0.4974,0.5866,2043
6,0.2212,-1.0374,0.0554,0.0651,-0.5159,0.632,2069
6,0.2134,-0.9849,0.0789,0.0674,-0.5207,0.7086,2007
6,0.2151,-0.9294,0.0979,0.0605,-0.4552,0.8031,2038
6,0.1699,-0.9497,0.0913,-0.0623,-0.2846,0.8668,2014
6,0.1194,-0.9417,0.0679,-0.1197,-0.1093,0.9232,1931
6,0.0964,-0.9727,0.084,-0.1594,0.0161,0.9741,2095
6,0.0464,-1.0022,0.0959,-0.1328,0.0188,1.0371,2224
6,-0.0085,-1.0107,0.0454,-0.0874,0.0656,1.0629,2143
6,0.0459,-0.9446,0.1155,-0.0128,0.0057,1.1748,2018
7,-0.0981,-0.8743,0.0405,0.0727,0.1045,1.8375,2020
7,0.3293,-0.9097,0.0557,0.0959,-0.0188,1.7772,1983
7,0.4319,-0.9756,0.0049,0.1354,0.0914,1.9687,2044
7,0.3472,-1.1621,-0.0193,0.2646,0.2856,2.1202,2048
7,0.1768,-1.2075,-0.0544,0.3978,0.5027,2.245,2071
7,0.2236,-1.1926,-0.0974,0.4621,0.5414,2.2441,1812
7,0.2139,-1.2256,-0.0559,0.5008,0.5967,2.1719,2087
7,0.1599,-1.1472,0.0203,0.5642,0.3469,2.4658,2227
7,0.2344,-1.2512,0.05,0.5521,0.3203,2.557,2008
7,0.1931,-1.2759,0.1062,0.6185,0.3938,2.5521,2010
7,0.0989,-1.3625,0.2231,0.6621,0.543,2.5955,2118
7,0.0684,-1.333,0.229,0.6823,0.6413,2.7558,2062
7,0.0117,-1.324,0.175,0.7038,0.6594,2.8032,2120
7,0.0977,-1.4817,0.0732,0.7959,0.8681,2.7497,2032
7,0.1636,-1.6001,0.0183,0.8444,0.9179,2.8652,2052
7,0.3792,-1.7019,-0.0686,0.7745,0.7805,2.9865,2053
7,0.6992,-1.7922,-0.1785,0.693,0.4303,3.2614,2056
7,0.73,-1.7021,-0.0859,0.4942,0.0848,3.7807,2050
7,0.6753,-1.843,-0.1436,0.2131,0.0265,3.9097,2051
7,0.729,-1.7668,0.0461,0.0218,-0.1783,4.0241,2047
7,1.1721,-1.739,0.1902,0.0284,-1.0841,4.0532,2054
7,0.8149,-1.9761,0.1577,0.1198,-1.6594,3.8751,2038
7,-0.1169,-2.0,0.3901,0.3396,-2.2378,3.8796,2011
7,-0.1536,-2.0,0.0137,0.1447,-2.8984,3.1656,1996
7,0.0825,-1.2651,-0.3213,0.2931,-2.6397,1.7816,2056
7,0.5046,0.3271,-0.5452,1.0953,-2.3678,4.0104,2057
7,-0.686,-0.2795,0.5222,2.8319,-2.3792,4.3634,2106
7,1.9999,-1.5632,-0.4236,2.3031,-4.3635,4.3634,2087
7,-2.0,-1.9333,-0.9897,0.7397,-0.038,4.0227,1918
7,-2.0,-0.3518,1.5925,0.1783,-4.3635,0.3907,2047
7,-2.0,-0.9683,0.2224,2.0112,-4.3635,0.2742,2128
7,-1.1641,-0.2241,1.5659,2.0012,-3.2211,1.78,2108
7,-1.3464,-0.5701,1.0793,0.5919,-1.5069,0.3306,2027
7,-0.9773,-0.311,0.0061,-0.7673,-1.3111,-2.3734,2004
7,-0.4016,-0.1211,-0.1543,-1.7717,-0.5631,-2.8478,1997
7,-0.1111,-0.2278,-0.2686,-2.5193,0.9074,-3.7119,2042
7,0.1899,0.082,-0.0205,-2.3008,0.7018,-3.3978,2054
7,0.217,-0.0239,0.0972,-1.084,-0.3298,-2.8111,2048
7,-0.1543,-0.4524,0.1204,-0.7413,-0.0269,-2.4027,2049
7,-0.4995,-0.719,0.0391,-0.9363,0.0527,-2.7907,2037
7,-0.5664,-0.4819,0.1331,-1.2272,0.1943,-3.4559,2040
7,-0.5466,-0.0676,0.1531,-1.4338,0.1626,-3.8878,2052
7,-0.5613,0.0137,0.1663,-1.2627,0.4919,-4.1188,2049
7,-0.7107,-0.2305,0.2388,-1.3354,1.2146,-4.3153,2045
7,-0.8088,-0.4485,0.2534,-1.6159,1.7864,-4.3635,2032
7,-0.7383,-0.4634,0.3098,-1.9343,2.0117,-4.3635,2031
7,-1.0881,-0.1082,0.8,-3.2782,1.647,-4.3635,2048
7,-0.7024,-0.2827,0.2725,-2.728,2.4555,-4.3635,2036
7,-0.2793,-0.2959,0.2058,-2.4681,2.2174,-4.3635,2038
7,-0.1533,-0.3711,0.0452,-2.2007,2.514,-4.3635,2046
7,-0.0259,-0.4011,0.0647,-2.3778,2.3796,-4.3635,2043
7,-0.0762,-0.3784,-0.0359,-2.3639,2.2112,-4.3635,2054
7,0.0276,-0.511,-0.1343,-2.0474,1.9136,-4.3635,2056
7,0.0559,-0.7439,-0.1711,-1.8717,1.556,-4.3635,2047
7,-0.1091,-0.9658,-0.1299,-1.8347,0.9854,-4.3635,2048
7,-0.3354,-1.2673,-0.0366,-1.8739,0.3179,-4.3635,2051
7,-0.5977,-1.5754,0.0156,-1.91,0.0278,-4.3635,2040
7,-0.8135,-1.812,-0.0256,-2.0156,0.0646,-4.3635,2034
7,-0.8723,-1.6448,0.4004,-2.4819,-0.0623,-4.3635,2054
7,-0.2202,-1.1682,-0.4468,-2.9922,0.5565,-4.3635,2079
7,0.4604,-1.8662,-0.3374,-1.7671,-0.5907,-4.3635,2032
7,0.3406,-1.7739,0.1045,-1.9417,-2.7843,-4.3635,2019
7,0.0439,-1.8748,-0.2988,-1.6307,-3.7846,-3.9649,2043
7,-0.4534,-1.9199,-0.1885,-1.4359,-3.4188,-2.8725,2057
7,-0.7507,-1.5015,0.5439,-1.584,-2.6398,-1.9335,2072
7,-0.9146,-1.0286,0.6606,-1.2532,-2.2302,-0.6292,2041
7,-0.9531,-0.6504,0.8831,-0.9206,-2.528,0.2029,2020
7,-0.3892,-0.8318,0.9014,-0.3187,-2.0996,1.5941,2017
7,-1.1951,-0.6387,0.6416,0.6814,-0.3599,2.2302,2056
7,-0.8015,-0.876,0.9807,0.4846,-0.975,3.2746,2041
7,-1.6677,-2.0,1.2002,-0.1333,0.3337,0.4659,2002
7,1.0227,-0.1353,1.4165,1.8733,2.6385,2.0137,2050
7,1.9999,-0.8706,-1.0576,1.5677,4.3634,0.6327,2103
7,1.9999,-0.7412,0.9746,1.3319,3.7998,-0.4855,2034
7,-0.6211,-0.1458,1.1604,-0.7875,2.7151,2.279,2001
7,-2.0,-2.0,-0.2358,1.2529,4.3535,3.46,1992
7,1.0005,-0.6096,-0.6133,-2.1137,4.3634,4.3634,2057
7,1.1624,-1.7678,-0.698,0.0302,2.3523,-3.3019,2033
7,0.7849,-1.7649,0.1272,0.7593,-0.975,1.9556,2029
7,0.769,-1.3157,0.1377,0.8183,-1.3997,2.9753,2032
7,-0.2898,-1.4885,-0.0923,0.8516,0.797,3.2447,2057
7,-0.5564,-1.5049,0.3789,0.2111,0.8512,3.5427,2043
7,-0.5039,-1.3057,0.4121,-0.0944,0.0462,3.4802,2037
7,-0.9438,-1.0464,0.0593,-0.0505,0.7998,2.324,2036
7,-0.7769,-0.7935,0.0569,-0.8664,1.1545,2.6892,2020
7,-0.5933,-0.4968,0.3113,-0.1306,0.0148,3.0236,2059
7,-0.3442,-0.5645,0.2849,-0.4055,-1.4021,1.9266,2011
7,-0.1887,-0.9873,-0.0271,-0.7998,-0.0403,0.4838,2066
7,-0.5166,-1.4453,-0.2358,-1.3481,0.8978,0.7324,2004
7,-0.7266,-1.0947,-0.0359,-0.2143,0.7694,1.5028,2115
7,-0.3867,-0.6243,0.092,0.0133,0.3229,1.3645,2066
7,-0.1514,-0.8982,0.0852,-0.3794,0.475,0.7578,2017
7,-0.2083,-1.1926,0.0234,-0.257,-0.0178,0.6851,2007
7,-0.2688,-1.1787,0.0874,-0.1502,-0.1135,0.5557,2072
7,-0.3621,-1.0903,0.0991,-0.1325,-0.1562,0.524,2025
7,-0.3679,-1.136,0.0588,-0.0983,-0.0759,0.6147,2032
7,-0.228,-1.0918,0.0923,-0.1362,0.0189,0.6083,2045
7,-0.1262,-1.0256,0.0518,-0.0843,-0.0116,0.507,2065
7,-0.0872,-1.0701,0.019,-0.0515,-0.041,0.4871,2027
7,-0.0776,-1.0278,-0.0454,-0.0189,-0.0666,0.4686,2062
7,-0.072,-0.958,-0.0791,0.0603,-0.1329,0.3517,2114
7,-0.0334,-0.9417,-0.0771,0.0838,-0.1962,0.2432,2078
7,0.0906,-0.9766,-0.0618,0.142,-0.3015,0.3313,2017
7,0.125,-0.9626,-0.0637,0.1682,-0.4093,0.3802,2060
8,0.1404,-0.9377,-0.0308,0.1594,-0.5466,0.393,2117
8,0.127,-0.9971,0.02,0.0672,-0.4939,0.5108,2067
8,0.0085,-0.9705,0.0862,0.0209,-0.4128,0.4121,2023
8,-0.063,-1.0259,0.0974,-0.0221,-0.2305,0.3193,2018
8,0.0007,-1.0247,0.0969,0.002,-0.1859,0.3766,1987
8,0.1274,-1.0093,0.1121,0.0085,-0.1827,0.5887,1991
8,0.1162,-1.0312,0.1001,0.0265,-0.299,0.6092,2025
8,0.1533,-1.0024,0.1128,-0.0517,-0.2378,0.6783,2143
8,0.1301,-1.021,0.0803,-0.0469,-0.2975,0.7183,2079
8,0.196,-1.0034,0.0525,-0.0734,-0.33,0.8521,2013
8,0.1992,-0.9436,0.104,-0.1284,-0.1847,0.9441,2117
8,0.1355,-0.9001,0.0322,-0.1522,-0.1498,0.9548,2073
8,0.0667,-0.9639,0.0181,-0.1907,-0.1019,0.9927,2008
8,-0.0203,-1.0281,-0.0298,-0.1955,-0.0467,1.0364,2119
8,-0.0327,-1.0046,-0.0371,-0.1253,-0.1332,1.1127,2001
8,0.0601,-0.9851,-0.0376,-0.1121,-0.1537,1.13,2089
8,0.2134,-0.9341,-0.0015,-0.0955,-0.2421,1.2219,2118
8,0.2629,-0.9001,0.0027,-0.0923,-0.282,1.3318,2007
8,0.2366,-0.9529,-0.0054,-0.0537,-0.2565,1.4977,2064
8,-0.2007,-0.8691,-0.0874,0.0233,-0.1602,2.2421,2008
8,0.1948,-1.1633,-0.0662,0.1057,0.1884,2.0353,2041
8,0.1506,-1.1543,-0.1396,0.2249,0.3081,2.1718,1997
8,0.188,-1.2349,-0.1399,0.3055,0.3232,2.219,1998
8,0.2356,-1.2471,-0.1313,0.3603,0.2514,2.2996,2059
8,0.2661,-1.2488,-0.0486,0.4101,0.1381,2.3786,2229
8,0.2446,-1.2725,0.0742,0.3823,-0.0035,2.3852,2006
8,0.1465,-1.2732,0.0752,0.4032,-0.1031,2.4662,2054
8,0.0408,-1.3879,0.2703,0.5086,0.1172,2.4551,2045
8,-0.0271,-1.2468,0.2195,0.5291,0.229,2.4698,2057
8,-0.0432,-1.2617,0.1245,0.5414,0.3864,2.5606,2057
8,-0.001,-1.531,0.0269,0.5707,0.709,2.736,2022
8,0.2847,-1.6892,0.021,0.6237,0.8854,2.7596,2053
8,0.4944,-1.6753,-0.0747,0.5361,0.6952,3.0381,2039
8,0.8977,-1.8572,-0.2285,0.3679,0.3454,3.2677,2038
8,0.9783,-1.6152,-0.2341,0.1131,-0.4077,3.6905,2034
8,0.8721,-1.9705,-0.0288,-0.0662,-0.7758,3.9564,2057
8,0.7498,-1.6628,0.0044,-0.2135,-1.9265,4.3634,2046
8,0.9543,-1.6689,0.2253,-0.2942,-2.6906,4.2674,2103
8,0.2976,-2.0,0.2761,-0.0979,-1.8925,3.611,2033
8,-0.2383,-2.0,0.2454,0.1305,-2.0841,4.006,1995
8,0.2329,-2.0,0.1548,0.055,-3.0214,2.4139,2015
8,1.0391,-0.2236,-0.2407,0.9608,-2.0841,3.2539,2072
8,-0.0278,0.1655,-0.1516,1.4833,-2.1658,4.3634,2075
8,-1.3101,-0.9731,0.7681,3.0003,-3.0761,4.3634,2053
8,1.9999,-1.563,0.5349,-0.2886,-2.6864,3.5306,2072
8,-2.0,-1.4453,-1.7644,1.4651,4.3634,4.3634,1862
8,-2.0,-0.5371,0.7744,0.3769,-4.3635,0.3675,2117
8,-2.0,-0.7383,0.2158,0.9127,-4.3635,1.0957,2100
8,-1.5576,0.0952,1.4673,1.2359,-4.0951,0.6967,2061
8,-1.0632,0.0249,0.543,0.6317,-3.5443,-1.2094,2025
8,-0.5403,-0.3594,-0.2437,-0.0688,-2.5574,-1.8781,2033
8,-0.2134,-0.478,-0.1545,-1.7366,-1.0712,-3.1327,2030
8,-0.1021,-0.3325,-0.2952,-2.6703,-0.079,-3.683,2030
8,0.2715,0.0437,-0.0938,-2.0924,-0.8465,-3.4653,2042
8,0.1055,-0.085,0.0332,-0.6407,-1.3999,-3.0076,2042
8,-0.2439,-0.6104,0.0955,-0.3496,-0.9383,-2.8223,2046
8,-0.6411,-0.7432,0.1968,-0.9357,-0.9072,-3.2682,2049
8,-0.73,-0.2371,0.1658,-1.4732,-0.4157,-3.8807,2048
8,-0.552,-0.0137,0.1851,-1.2934,-0.3875,-4.3635,2048
8,-0.8472,-0.417,0.613,-2.0739,-0.4257,-4.3635,2041
8,-0.4849,-0.4067,0.2373,-1.9122,1.0062,-4.3635,2030
8,-0.5588,-0.3501,0.312,-2.2356,1.1832,-4.3635,2044
8,-0.749,-0.2458,0.3494,-2.3469,1.6696,-4.3635,2056
8,-0.6184,-0.397,0.3787,-2.3385,1.8756,-4.3635,2036
8,-0.4124,-0.4998,0.1943,-1.9482,2.2666,-4.3635,2048
8,-0.2341,-0.4431,0.2231,-1.9833,2.5344,-4.3635,2050
8,-0.2036,-0.47,0.1843,-2.2261,2.7227,-4.3635,2039
8,-0.0969,-0.4998,0.0481,-2.1148,2.5739,-4.3635,2040
8,-0.0181,-0.5684,-0.0359,-1.845,2.2871,-4.3635,2056
8,-0.062,-0.6794,-0.082,-1.7062,1.9976,-4.3635,2057
8,-0.1619,-0.928,-0.0732,-1.5207,1.6924,-4.3635,2051
8,-0.2769,-1.0896,0.0042,-1.4331,1.1575,-4.3635,2049
8,-0.4294,-1.2861,0.0054,-1.4031,0.6038,-4.3635,2044
8,-0.575,-1.5276,0.0312,-1.3723,0.2048,-4.3635,2044
8,-0.7271,-1.8464,0.2148,-1.4344,-0.4611,-4.3635,2046
8,-0.5713,-1.2288,0.0212,-2.3772,0.3918,-4.3635,2052
8,0.1233,-1.3044,-0.0425,-2.3719,-0.0872,-4.3635,2079
8,0.6428,-1.8535,-0.1665,-2.1413,-0.49,-4.3635,1993
8,0.3711,-2.0,-0.1699,-1.7375,-2.2256,-4.3635,2049
8,-0.1162,-1.884,0.0237,-1.5651,-3.5525,-3.0353,2066
8,-0.3931,-1.7368,-0.157,-1.6745,-2.4583,-1.9929,2051
8,-0.8826,-1.2944,0.2029,-1.3173,-2.1289,-1.0331,2054
8,-1.3105,-0.771,0.4939,-0.9015,-2.2916,0.3943,2024
8,-1.3459,-0.6274,0.9583,-0.3456,-1.7101,1.6793,2041
8,-0.863,-0.9053,0.8472,0.2843,-1.06,3.0433,2034
8,-2.0,-2.0,0.7458,-0.4974,1.8626,0.2662,2027
8,-0.2124,-0.0823,1.7104,0.7076,2.7291,1.2246,2058
8,1.0466,0.4463,0.5352,3.5881,4.3634,4.3634,2097
8,1.8035,-1.5037,1.5291,-0.7841,2.7331,0.624,1991
8,1.9999,-1.5291,1.0835,0.0265,4.3634,1.5936,1984
8,1.9999,-1.8262,1.8638,-2.2253,4.3634,4.3634,2032
8,-0.0251,-0.405,-0.6333,-0.7445,2.1776,-0.3037,1981
8,0.4592,-1.8604,-0.554,1.976,2.7782,1.2545,2042
8,1.0527,-2.0,0.688,0.7799,0.7441,2.789,2081
8,0.2219,-1.8953,0.4126,0.2079,-1.1376,4.135,2063
8,-0.4478,-1.1855,-0.1147,0.1369,-0.2855,4.0622,2054
8,-1.4932,-1.074,0.1179,-0.1261,0.7757,3.6283,2045
8,-1.5588,-1.3562,-0.1577,-0.6363,0.6707,2.9925,2011
8,-0.8882,-0.4438,-0.0867,-0.7269,0.9407,2.5108,2040
8,-0.5256,-0.3657,-0.124,-0.8255,0.4211,2.6333,2031
8,-0.7415,-0.7932,0.0349,-0.1028,-0.19,2.2856,2048
8,-0.6353,-0.9495,0.1665,0.0023,-0.7444,1.4964,2054
8,-0.4385,-1.0127,0.3945,-0.872,-1.0186,0.6165,2034
9,-0.5916,-1.1165,-0.3052,-0.4829,-0.3695,0.4107,2041
9,-0.5234,-1.1069,-0.2432,0.6474,0.1984,1.1714,2062
9,0.145,-1.1782,0.3076,0.0225,0.1848,1.0158,2090
9,-0.0198,-1.2551,0.6689,-0.5417,0.3863,0.6922,2062
9,-0.593,-1.1003,0.2671,-0.1623,0.0403,0.4883,2007
9,-0.999,-1.1575,0.0435,-0.2657,0.4726,0.5781,2060
9,-0.6934,-1.1296,0.1804,-0.1526,0.7136,0.5028,2051
9,-0.105,-1.0007,0.166,-0.2573,0.4191,0.6823,2018
9,-0.0789,-1.0498,0.0757,-0.1876,0.5915,0.3365,2040
9,-0.0857,-1.0483,0.0234,-0.0964,0.2397,0.1583,2062
9,-0.0193,-1.0215,-0.0454,-0.0083,0.0273,0.2397,2055
9,0.0896,-1.0105,-0.0493,0.1959,-0.2922,0.3064,2061
9,0.1646,-0.9692,-0.0476,0.3381,-0.6672,0.3514,2048
9,0.1897,-0.9363,0.0137,0.3011,-0.8803,0.3236,2014
9,0.1785,-0.9597,0.0713,0.2365,-0.8878,0.2076,2072
9,0.095,-1.0117,0.1155,0.1349,-0.7702,0.1814,2082
9,0.0737,-1.0032,0.179,-0.0457,-0.5,0.2774,2001
9,0.0962,-1.0325,0.217,-0.138,-0.3726,0.2942,2078
9,0.0994,-0.9919,0.1621,-0.2005,-0.3172,0.2711,2047
9,0.2478,-0.9795,0.1104,-0.2762,-0.1826,0.3883,2073
9,0.4438,-1.0024,0.0608,-0.2401,-0.3902,0.5797,2082
9,0.5759,-0.9158,-0.0457,-0.1751,-0.6458,0.7847,2048
9,0.5181,-0.8989,0.0442,-0.2498,-0.5217,0.932,2035
9,0.3105,-0.8896,-0.0215,-0.3031,-0.2573,1.0214,2070
9,0.321,-0.9216,0.0938,-0.3876,0.1296,1.2093,2114
9,0.2815,-0.9895,0.0627,-0.3072,0.1108,1.3406,2056
9,0.1636,-1.0859,0.1721,-0.2803,0.1044,1.3524,1925
9,0.0417,-1.0854,0.1816,-0.1965,0.0818,1.4681,1917
9,-0.0396,-1.1006,0.1296,-0.0988,0.1712,1.5569,2110
9,-0.1985,-0.811,0.0166,-0.0459,0.3478,2.2796,2074
9,0.552,-0.9866,0.1091,-0.0382,0.4135,2.0823,1893
9,0.5068,-0.8669,0.0308,0.0142,0.5916,2.3115,2115
9,0.3108,-0.9407,-0.064,0.0633,0.7304,2.3819,2139
9,0.1946,-1.1577,-0.0706,0.214,1.0361,2.4123,2022
9,0.1033,-1.2041,-0.1362,0.3671,0.8842,2.7947,2075
9,0.2881,-1.3062,-0.1484,0.5003,0.8289,2.9468,2008
9,0.3599,-1.3901,-0.0972,0.5955,0.583,3.0277,2121
9,0.4141,-1.3779,-0.0588,0.6721,0.5168,3.1236,1889
9,0.438,-1.4785,0.0388,0.6902,0.4699,3.1284,2023
9,0.2378,-1.439,0.1101,0.7988,0.6506,3.393,1993
9,0.2869,-1.4004,0.2534,0.83,0.718,3.4055,2027
9,0.2471,-1.6169,0.1621,0.8644,1.17,3.3439,2050
9,0.4897,-1.9663,0.0674,0.8907,1.2525,3.3206,2040
9,0.6104,-2.0,-0.1064,0.7629,0.8979,3.7024,2035
9,0.925,-2.0,-0.2625,0.62,0.4127,4.0844,2036
9,1.0962,-2.0,-0.1257,0.2796,-0.2767,4.3634,2052
9,1.3008,-2.0,-0.0828,0.0514,-0.9411,4.3634,2060
9,1.6658,-1.761,0.2075,0.1483,-2.5236,4.3634,2062
9,-0.4292,-2.0,0.1089,0.4241,-1.4241,3.6952,2072
9,-1.0071,-2.0,0.4324,-0.1189,-1.2848,4.3441,1992
9,0.678,-2.0,-0.6396,0.1895,-1.9417,2.6251,2021
9,1.2148,0.2964,-0.4685,1.101,-1.4695,3.8157,2079
9,0.0769,0.5547,-0.1448,2.6305,-0.9227,4.3634,2086
9,-0.8521,-1.4729,0.1362,1.3126,-3.5066,4.054,2086
9,1.9999,-1.4966,-1.0381,2.761,-4.278,4.3634,2075
9,-2.0,0.4812,1.6316,0.9152,0.0979,-0.2864,1905
9,-2.0,-0.5752,-0.3213,1.0107,-4.3635,1.3828,2124
9,-2.0,0.0078,1.251,2.1783,-4.3635,0.9176,2072
9,-1.3625,-0.6045,0.865,1.0147,-2.7714,-1.6902,2039
9,-0.6235,-0.5029,-0.1018,-0.8285,-0.5968,-2.3611,2025
9,0.1489,-0.0974,-0.3577,-1.9449,1.3912,-3.0116,2005
9,0.2673,-0.2627,-0.5078,-2.3712,1.195,-3.6215,2031
9,0.6248,-0.2104,0.075,-1.0684,-0.334,-3.8748,2064
9,0.3687,-0.3242,0.2749,-0.4486,-1.7753,-3.6306,2052
9,-0.0439,-0.5815,0.0107,-0.3338,-1.2147,-3.2597,2046
9,-1.3877,-0.9009,0.6074,-1.2431,-1.1288,-4.3635,2034
9,-0.4834,-0.2571,0.1741,-1.0636,-0.7636,-3.8504,2038
9,-0.5178,0.0049,0.4099,-1.8622,-0.9636,-4.3635,2044
9,-0.595,-0.3394,0.323,-1.917,0.275,-4.3635,2055
9,-0.4836,-0.3782,0.2427,-1.9052,1.0144,-4.3635,2052
9,-0.4077,-0.3792,0.3044,-2.0481,0.9036,-4.3635,2032
9,-0.499,-0.3208,0.3508,-2.353,1.1078,-4.3635,2043
9,-0.5159,-0.2358,0.3059,-2.2308,1.1387,-4.3635,2047
9,-0.3198,-0.4844,0.2275,-2.0719,1.3788,-4.3635,2046
9,-0.2244,-0.4009,0.1543,-2.0341,1.7889,-4.3635,2047
9,-0.1643,-0.4287,0.1792,-2.2515,1.774,-4.3635,2047
9,-0.04,-0.5063,0.0759,-2.2533,1.4616,-4.3635,2043
9,-0.0259,-0.6479,0.0098,-2.0301,1.273,-4.3635,2039
9,-0.0605,-0.8228,-0.0312,-1.8251,0.9662,-4.3635,2045
9,-0.1846,-1.0125,0.0464,-1.4719,0.5979,-4.3635,2047
9,-0.4233,-1.3193,0.0845,-1.1099,0.2288,-4.3635,2052
9,-0.7417,-1.5312,0.1418,-1.0294,-0.2207,-4.3635,2053
9,-0.9602,-1.5396,0.2139,-1.1083,-0.263,-4.3635,2062
9,-0.5537,-1.2793,0.2178,-2.2984,0.3088,-4.3635,2079
9,0.0767,-1.9146,-0.1565,-2.2325,0.7466,-4.3635,2006
9,-0.4185,-1.2488,-0.2051,-1.0772,0.4771,-4.3635,2057
9,-0.792,-1.7275,0.7598,-1.0649,-3.3637,-4.2964,2061
9,-0.4678,-2.0,-0.0549,-1.2133,-2.8132,-3.0971,2051
9,-1.0437,-1.7893,0.0325,-1.5904,-1.9454,-2.0411,2032
9,-1.3191,-0.7974,0.261,-1.0752,-2.174,-0.4452,2006
9,-0.9832,-0.5222,0.3989,-0.1494,-2.8336,1.3852,2070
9,-2.0,-2.0,0.1072,-0.7903,-0.502,-1.0745,2021
9,-0.781,0.2185,0.9807,1.4873,1.0151,3.05,2076
9,-2.0,-0.7712,1.9999,4.271,1.7263,4.3634,1992
9,1.165,-2.0,1.1946,-3.5355,4.3634,4.3634,2060
9,1.9999,-2.0,-0.3596,2.6554,-1.2119,-4.3635,2028
9,1.9999,0.1755,0.1606,-2.02,-0.638,0.5002,2103
9,-1.6096,-1.5076,-0.1565,3.3536,1.2717,2.9806,2050
9,-2.0,-2.0,1.3296,2.0433,2.8364,4.3634,2020
9,0.2947,-2.0,1.5774,-0.6664,1.0126,3.9693,2065
9,-0.1941,-2.0,0.1716,-2.3027,0.1084,4.3634,2043
9,-1.8193,-2.0,-1.8081,-2.8797,2.2053,3.4504,2072
10,-1.6313,0.2239,-1.5828,-2.0393,2.634,3.2713,2032
10,-0.197,0.9744,-0.7446,-0.0345,0.6915,3.2159,2023
10,-0.668,0.0083,0.1423,0.9118,-0.7608,3.2901,2126
10,-0.1169,-0.6694,0.7854,-0.0317,-2.4457,2.0595,2047
10,-0.762,-1.6963,0.1497,-0.6478,-0.0422,0.9788,2035
10,-1.6199,-1.9211,0.2778,-0.4962,-0.2413,1.2745,2048
10,-0.9033,-0.7485,0.0674,-0.0714,1.0038,1.5936,2046
10,-0.3733,-0.7734,0.189,-0.3044,0.8672,1.1487,2113
10,-0.3091,-1.2888,0.1936,-0.2497,0.6569,0.7999,2069
10,-0.4688,-1.4087,0.1414,-0.2342,0.3458,0.456,2021
10,-0.3887,-1.1418,0.1077,-0.1053,0.2958,0.5618,2021
10,-0.4185,-1.0396,0.0664,-0.0778,0.3948,0.6022,2018
10,-0.2312,-0.9968,0.0449,0.0116,0.2334,0.5248,2055
10,-0.0051,-0.9956,-0.0283,0.0791,-0.118,0.3896,2032
10,0.0911,-0.9861,-0.0305,0.2061,-0.544,0.2878,2056
10,0.092,-1.0669,-0.0684,0.3513,-0.8577,0.4119,2057
10,0.0352,-1.1201,-0.0103,0.3472,-1.067,0.5297,2024
10,0.0601,-1.0742,0.0281,0.2587,-1.0453,0.5775,2028
10,0.1074,-0.9761,0.0298,0.2346,-1.0067,0.5108,2100
10,0.1533,-0.9126,0.0825,0.1302,-0.8397,0.3717,2061
10,0.1807,-0.9377,0.0266,0.0473,-0.8488,0.3509,2031
10,0.2175,-1.0208,0.0142,0.0021,-0.9267,0.4755,2082
10,0.2654,-1.0049,0.0134,-0.0158,-0.9664,0.547,2112
10,0.2766,-0.9644,0.0022,-0.0866,-0.9195,0.65,2112
10,0.2434,-0.8999,-0.0063,-0.1377,-0.7022,0.699,2048
10,0.2314,-0.8889,-0.032,-0.1016,-0.6184,0.813,2055
10,0.2258,-0.9448,-0.0283,-0.0534,-0.4598,0.9469,1984
10,0.3186,-0.9717,-0.0586,-0.0286,-0.2609,1.124,2014
10,0.3384,-0.9468,-0.0149,-0.0229,-0.2388,1.2609,2081
10,0.2688,-0.9888,0.085,-0.0743,-0.0485,1.3683,2097
10,0.0247,-1.0325,0.0557,-0.059,-0.0127,1.3632,2022
10,-0.1599,-1.0378,0.0708,-0.0173,0.1385,1.4169,2041
10,-0.2471,-0.8816,0.1589,0.1778,-0.0016,1.7827,2047
10,-0.0271,-1.0808,0.0791,0.1566,0.4133,1.7128,2140
10,0.3721,-0.907,0.0676,0.2434,0.2397,1.9714,2028
10,0.3032,-0.7317,0.0447,0.2932,0.135,2.3099,2057
10,0.1638,-0.8481,-0.0327,0.3719,0.2662,2.3305,2138
10,0.2007,-1.144,-0.0327,0.4908,0.5131,2.4449,2087
10,0.3103,-1.4185,0.0117,0.5675,0.555,2.5545,2077
10,0.4639,-1.4805,0.0371,0.5525,0.4175,2.6259,2018
10,0.3977,-1.3274,0.0388,0.6038,0.1999,3.0384,2176
10,0.4189,-1.396,0.074,0.612,0.2232,3.1592,2022
10,0.4854,-1.3438,0.0842,0.614,0.3429,3.2082,2154
10,0.5361,-1.4097,0.1899,0.654,0.5034,3.332,1980
10,0.5654,-1.5801,0.2341,0.6913,0.7096,3.4208,2009
10,0.5554,-1.6177,0.1819,0.6921,0.7257,3.5019,2039
10,0.521,-1.6726,0.0815,0.7084,0.7786,3.8384,2061
10,0.5283,-2.0,-0.0798,0.6866,0.8554,4.1245,2066
10,0.6892,-2.0,-0.2546,0.5729,0.5212,4.3634,2059
10,1.5483,-2.0,-0.2117,0.3657,-0.6285,4.3634,2039
10,1.9999,-2.0,-0.1907,0.3751,-1.9919,4.3634,2032
10,0.1638,-1.0933,0.3782,0.1551,-1.0878,4.1506,2042
10,0.0752,-2.0,-0.0537,-0.2697,-1.9233,3.8178,1998
10,0.8865,-2.0,-0.0002,0.2959,-2.5816,3.0325,2017
10,1.0408,0.2551,-0.8159,1.7125,-1.7024,4.3634,2106
10,-1.4539,-0.1926,-0.0813,3.4103,-2.5244,4.3634,2114
10,-1.2124,-1.9741,0.9131,2.2463,-3.8277,3.5687,2061
10,1.9999,-1.0828,-1.8042,0.6444,-0.029,4.3634,1988
10,-2.0,-1.0886,1.9999,0.1875,0.6126,-0.0811,1868
10,-2.0,-1.3394,-0.5684,0.6457,-4.3635,1.2139,2126
10,-2.0,-0.6541,1.6821,1.3539,-4.3635,2.1409,2135
10,-1.687,-0.0693,0.8318,0.7906,-4.3635,1.7721,2123
10,-1.4167,0.0891,0.0474,-1.0978,-2.4129,-1.4073,2003
10,-0.1162,0.0251,-0.3469,-0.8016,-2.2554,-2.9513,2022
10,0.0156,-0.2239,-0.115,-2.4727,0.3297,-3.5893,2032
10,0.0347,-0.1992,-0.3174,-2.7896,0.7208,-3.7432,2032
10,0.1167,-0.2375,-0.0999,-1.7299,-0.2063,-3.7636,2038
10,0.2141,-0.4719,0.2812,-0.8801,-1.5515,-3.2741,2050
10,-0.1353,-0.7034,0.1853,-0.8136,-0.6717,-3.0666,2044
10,-2.0,-0.6162,0.9614,-2.7972,-0.8767,-4.3635,2032
10,-0.5645,-0.0618,0.2642,-1.4183,0.0419,-3.6513,2049
10,-0.593,0.1147,0.4443,-2.4253,-0.1139,-4.3635,2047
10,-0.4861,-0.2607,0.3965,-2.6204,0.6349,-4.3635,2040
10,-0.4246,-0.1875,0.3044,-2.5914,1.3869,-4.3635,2036
10,-0.5405,-0.1497,0.2788,-2.8393,1.2196,-4.3635,2055
10,-0.4358,-0.1926,0.3105,-2.9497,1.3637,-4.3635,2038
10,-0.2793,-0.2449,0.2893,-2.8096,1.5274,-4.3635,2052
10,-0.3311,-0.2917,0.2551,-2.6069,1.6812,-4.3635,2047
10,-0.2312,-0.3301,0.2888,-2.5273,1.7756,-4.3635,2040
10,-0.0925,-0.3484,0.2351,-2.4768,1.7377,-4.3635,2043
10,0.02,-0.3779,0.2026,-2.5971,1.5187,-4.3635,2040
10,0.1194,-0.5735,0.0496,-2.567,1.3753,-4.3635,2052
10,0.061,-0.9507,-0.0051,-2.1326,1.1303,-4.3635,2039
10,-0.2305,-1.1987,0.0991,-1.7134,0.4914,-4.3635,2052
10,-0.5183,-1.5256,0.3447,-1.2239,0.0076,-4.3635,2055
10,-0.7476,-1.5222,0.4028,-1.1728,-0.5059,-4.3635,2040
10,-0.4858,-1.2773,0.4187,-1.7805,-0.2984,-4.3635,2052
10,-0.0205,-1.8398,0.1013,-1.6828,0.4052,-4.3635,2038
10,-0.0093,-1.4897,-0.2073,-1.8785,0.1258,-4.3635,2048
10,-0.6467,-1.8276,0.5549,-1.2033,-0.9899,-4.3635,2043
10,-1.1306,-1.8953,1.0593,-1.2147,-1.6162,-4.3635,2068
10,-1.2285,-1.7041,0.3716,-1.7599,-0.8617,-3.4127,2077
10,-1.2427,-1.1487,0.0242,-1.4235,-0.096,-2.0145,2055
10,-0.5376,-0.7041,0.228,-0.8218,-0.7789,0.1529,2007
10,-0.9102,-0.6038,0.4431,0.2424,-0.5384,1.6138,2032
10,-1.2703,-1.0808,0.9263,-0.3657,-1.4069,2.3525,2018
10,0.0762,-0.3264,-0.1602,0.9644,1.9439,-1.2077,2043
10,0.4624,1.5095,-1.116,4.0074,4.3634,4.3634,2117
10,-0.832,-1.4187,1.9999,1.5147,1.9128,3.5472,2063
10,1.9999,-2.0,-1.1133,-1.4796,4.3634,4.3634,2023
10,1.8589,0.8303,0.2119,-0.3434,1.3796,-3.3793,2041
10,1.9999,-2.0,0.1326,2.298,3.3168,-0.6239,2069
10,0.3533,-2.0,1.1367,-0.6027,-1.3113,4.2949,2017
11,-0.5796,-1.7444,0.5173,1.0961,0.4418,4.3634,2029
11,-1.2078,-2.0,0.7151,0.0449,1.1881,4.3634,2024
11,-1.8923,-2.0,-0.1235,-2.3629,1.909,3.943,2060
11,-1.616,-0.511,-1.0361,-1.5386,2.8783,3.8824,2048
11,-0.3303,0.7727,-0.5972,-0.7542,1.0568,2.5513,2055
11,-0.6794,0.2861,-0.4473,0.1103,1.0291,3.1527,2028
11,-0.4243,-0.2378,-0.0234,0.5854,-1.1057,2.3376,2071
11,-0.5464,-0.7156,0.1438,0.1706,-1.2157,1.6697,2062
11,-0.6243,-1.7993,0.0977,0.0411,0.2344,1.7942,2075
11,-1.0002,-1.9119,0.5281,-0.5769,0.6919,1.6383,1987
11,-0.6582,-0.8274,0.344,0.0646,0.4027,0.9433,2034
11,-0.4641,-0.8149,0.4553,-0.345,0.9291,0.8646,2015
11,-0.3887,-1.0283,0.3127,-0.5506,0.8508,0.4201,1965
11,-0.6289,-1.3611,0.2097,-0.4192,1.0416,0.6281,2032
11,-0.655,-1.3367,0.1472,-0.3409,1.014,0.6722,1999
11,-0.2964,-1.0562,0.1343,-0.1908,0.9063,0.4304,2064
11,-0.1702,-0.9568,0.1233,-0.1992,0.6506,0.2778,2067
11,-0.0952,-0.9849,0.1013,-0.2012,0.365,0.2135,2070
11,-0.0198,-1.0486,0.0601,-0.1157,0.1767,0.2729,1997
11,-0.02,-1.1013,0.0125,0.0952,-0.1193,0.3145,2041
11,0.0535,-1.0242,-0.0305,0.224,-0.298,0.3758,2022
11,0.1724,-0.9392,-0.0239,0.2927,-0.5152,0.4609,2054
11,0.2778,-0.9873,0.0825,0.2025,-0.5931,0.4412,2046
11,0.2478,-1.0723,0.0896,0.0699,-0.6678,0.4336,2043
11,0.1279,-0.9487,0.0859,0.0357,-0.5217,0.4433,2051
11,0.1182,-0.8855,0.1079,-0.0156,-0.3631,0.5121,2053
11,0.1289,-0.946,0.1284,-0.0434,-0.2481,0.4847,2092
11,0.1013,-1.0237,0.0564,-0.0475,-0.2357,0.5737,2098
11,0.1377,-1.0613,0.0847,-0.07,-0.1995,0.6883,1985
11,0.2434,-1.0239,0.0552,-0.1033,-0.2998,0.7743,2036
11,0.3254,-1.0,0.0364,-0.0728,-0.363,0.9135,2110
11,0.2622,-1.0759,0.03,-0.1109,-0.3288,0.9918,1989
11,0.2546,-1.009,0.0134,-0.1884,-0.1615,0.8032,2159
11,-0.0044,-0.8259,0.134,-0.2003,-0.0089,1.1919,2136
11,-0.1455,-0.9006,0.1523,-0.1926,0.1768,1.3965,2007
11,0.0667,-1.0139,0.1951,-0.1405,0.2531,1.4324,1983
11,0.1299,-0.9866,0.2117,-0.0767,0.2003,1.5444,2102
11,0.1025,-0.8086,0.1404,-0.0021,0.2093,1.6811,2004
11,0.1699,-0.6748,0.0898,0.0719,0.2025,1.8698,1866
11,0.3469,-0.8193,0.0159,0.1522,0.2565,2.0148,2004
11,0.4341,-1.0632,-0.0322,0.3043,0.3313,2.2997,2126
11,0.3704,-1.2515,-0.0261,0.3713,0.4429,2.4964,2117
11,0.2639,-1.2256,-0.0107,0.4461,0.5524,2.6449,1997
11,0.1843,-1.2332,-0.0437,0.4762,0.5703,2.6597,1935
11,0.3076,-1.3525,-0.063,0.5044,0.5456,2.7512,1897
11,0.2612,-1.386,-0.064,0.5722,0.5039,2.9765,2067
11,0.4749,-1.4221,0.0229,0.587,0.3333,3.1214,2163
11,0.3381,-1.4722,0.1611,0.6175,0.3934,3.2445,1972
11,0.2012,-1.5505,0.1992,0.6545,0.4982,3.2949,1999
11,0.2551,-1.5024,0.3171,0.7469,0.6946,3.3026,2040
11,0.2449,-1.5918,0.2983,0.7779,0.9026,3.2508,2028
11,0.4001,-1.8086,0.1914,0.7743,0.9802,3.2794,2060
11,0.6316,-1.9875,-0.0217,0.722,0.7718,3.5415,2058
11,0.7178,-2.0,-0.1904,0.4705,0.6233,4.1663,2056
11,1.238,-2.0,-0.1802,0.2412,0.0843,4.3634,2060
11,1.4978,-2.0,0.0037,0.1787,-1.0328,4.3634,2063
11,1.6985,-1.71,-0.0603,0.1264,-1.2003,4.3634,2121
11,-0.0674,-2.0,-0.0234,0.2276,-2.2169,3.5986,2038
11,-0.1116,-2.0,0.8125,-0.178,-1.8674,4.2311,1987
11,0.5317,-1.8953,-0.3953,0.359,-2.3349,2.0873,2047
11,0.906,0.6414,-0.4978,1.2949,-3.0658,4.3634,2123
11,-1.4287,-0.29,0.3853,3.312,-3.0799,4.3634,2115
11,1.9999,-1.9226,0.5208,0.7929,-3.8303,4.3634,2055
11,-2.0,-0.824,-1.4434,2.2955,2.1233,4.3634,1906
11,-2.0,-0.4604,1.9999,-0.9822,-4.3635,-1.4637,1999
11,-2.0,-1.3735,0.2849,1.4876,-4.3635,1.5384,2175
11,-1.6353,-0.574,1.9999,0.858,-4.3635,1.5593,2125
11,-1.2087,0.0247,0.4106,0.6562,-3.8422,1.8358,2059
11,-1.3806,-0.0049,0.0146,-1.0361,-2.4928,-0.6388,2013
11,-0.4194,-0.0076,-0.156,-0.9792,-2.2644,-3.4592,2012
11,-0.3262,0.0151,-0.0703,-1.6643,-0.1747,-4.106,2042
11,-0.3311,-0.146,-0.1838,-2.2471,1.4019,-3.9512,2033
11,0.0681,-0.1714,-0.0066,-1.9881,0.4763,-3.5679,2043
11,0.3591,-0.2646,0.1982,-1.046,-0.8485,-3.1287,2051
11,0.0491,-0.4294,0.2,-1.1884,-0.0076,-2.9304,2036
11,-0.4563,-0.3828,0.1345,-1.4755,-0.019,-3.4597,2038
11,-0.5601,-0.1846,0.1733,-1.5122,0.0723,-4.0851,2051
11,-0.4824,-0.0703,0.2241,-1.5054,0.041,-4.3635,2054
11,-0.46,-0.1196,0.2649,-1.3841,0.4422,-4.3635,2052
11,-0.5569,-0.2822,0.3203,-1.4175,0.8307,-4.3635,2049
11,-0.9312,-0.5071,0.7773,-2.0686,0.7578,-4.3635,2034
11,-0.3848,-0.1687,0.2815,-2.651,1.1083,-4.3635,2032
11,-0.3994,-0.1882,0.4407,-2.8661,1.2916,-4.3635,2051
11,-0.248,-0.2114,0.2866,-2.7695,1.7263,-4.3635,2051
11,-0.2402,-0.2883,0.1804,-2.6536,1.9177,-4.3635,2049
11,-0.2012,-0.3386,0.1924,-2.6729,1.8484,-4.3635,2042
11,-0.1855,-0.3804,0.2349,-2.6705,1.7377,-4.3635,2045
11,-0.1877,-0.4102,0.2468,-2.6598,1.6151,-4.3635,2040
11,-0.1267,-0.5139,0.208,-2.6809,1.4749,-4.3635,2044
11,-0.0852,-0.8071,0.1992,-2.4397,1.2195,-4.3635,2043
11,-0.1475,-1.0947,0.1294,-2.0603,0.7842,-4.3635,2035
11,-0.3921,-1.385,0.189,-1.7808,0.1579,-4.3635,2057
11,-0.6868,-1.76,0.4485,-1.6177,-0.8271,-4.3635,2023
11,-0.6787,-1.553,0.2695,-2.2479,0.9013,-4.3635,2076
11,-0.0701,-1.6636,0.1484,-3.1786,1.1858,-4.3635,2020
11,0.1055,-1.5952,0.1196,-1.9082,-0.2874,-4.3635,2023
11,0.0815,-1.9834,-0.0522,-1.2098,-2.1249,-4.3635,2032
11,-0.5051,-2.0,0.0491,-1.6712,-2.9112,-4.1626,2104
11,-1.0256,-1.5659,0.127,-1.1086,-1.2296,-2.8891,2076
11,-1.3569,-0.8735,0.6956,-1.0935,-0.9841,-1.3484,2043
12,-0.9587,-0.4089,0.4968,-0.5213,-2.2621,0.1896,2026
12,-0.2224,-0.9121,0.1804,0.3822,-1.6779,2.1185,2032
12,-1.074,-0.8171,0.5234,0.9483,-0.8654,3.0336,2052
12,-0.0886,-0.54,0.2893,1.484,1.5925,0.8966,2045
12,-0.0288,0.0664,0.134,1.4557,4.106,4.3634,2064
12,0.613,-0.7808,1.9999,1.4563,2.7546,2.9966,2032
12,1.9999,-2.0,-1.3794,0.022,3.3013,4.3634,2001
12,0.8179,0.9717,0.7939,-0.2264,-1.0123,-0.9011,1986
12,1.0579,-2.0,-0.0249,2.1607,0.8744,-0.5148,2073
12,0.1934,-2.0,0.7944,-0.2607,0.0542,3.1738,2070
12,-0.2432,-1.74,0.1003,0.0848,0.3107,4.0551,2033
12,-0.2163,-1.8833,0.8105,0.5374,-0.0434,4.2478,2049
12,-1.165,-2.0,0.2976,-1.3748,0.5432,4.2586,2042
12,-1.7148,-1.5793,-0.8328,-1.5436,2.8504,3.1618,2035
12,-1.136,-0.2561,-0.6519,-1.0481,2.0201,2.9889,2030
12,-0.4304,-0.1626,-0.0664,0.1305,1.3812,3.4596,2038
12,-0.895,-0.02,0.1113,0.438,0.3494,3.6367,2044
12,-0.187,-0.6587,0.1023,0.1332,-0.9998,1.712,2053
12,0.0486,-1.5281,0.3936,-0.6177,0.2895,1.3707,2046
12,-0.8254,-1.4861,0.1682,-0.3309,-0.0898,1.2358,2105
12,-0.874,-0.9431,0.1731,-0.2816,0.4299,1.3528,2020
12,-0.5806,-0.813,0.2192,-0.3818,0.8075,1.0139,2073
12,-0.343,-0.9885,0.2065,-0.3643,0.7409,0.8553,2129
12,-0.2471,-1.158,0.2742,-0.3338,0.6532,0.7986,2031
12,-0.3943,-1.189,0.1726,-0.385,0.5629,0.6285,1959
12,-0.2979,-1.1179,0.0803,-0.3501,0.42,0.5356,2037
12,-0.2056,-0.9338,0.0498,-0.293,0.2362,0.3994,2027
12,-0.1677,-0.9263,0.0271,-0.2535,0.081,0.2894,2032
12,-0.1587,-0.9648,0.0046,-0.1878,-0.024,0.1997,2031
12,-0.1077,-1.0327,-0.0195,-0.0392,-0.1469,0.1276,2042
12,-0.043,-1.1531,-0.0085,0.0535,-0.1799,0.1955,2052
12,-0.0164,-1.1572,-0.0193,0.1479,-0.2344,0.2798,2045
12,0.0911,-0.9683,-0.0264,0.2048,-0.3051,0.2429,2055
12,0.1265,-0.9788,0.0071,0.2071,-0.3943,0.2547,2080
12,0.1846,-0.998,0.011,0.1823,-0.4472,0.3594,2062
12,0.1758,-0.9663,0.0288,0.1752,-0.4939,0.4556,2058
12,0.0984,-0.9534,0.0388,0.1337,-0.5449,0.4015,2044
12,0.1018,-0.9807,0.0139,0.108,-0.5899,0.383,2043
12,0.2112,-1.0496,0.0081,0.118,-0.7656,0.4958,2017
12,0.3413,-1.0444,0.0374,0.0606,-0.82,0.6695,2178
12,0.3035,-1.0,-0.009,0.0092,-0.9283,0.7899,1954
12,0.3093,-0.9395,0.01,0.0069,-0.9617,0.8206,2073
12,0.2944,-0.9797,0.0088,-0.089,-0.6617,0.9166,2015
12,0.2747,-0.9326,0.0103,-0.1005,-0.5645,0.9612,1985
12,0.2542,-0.9375,0.0803,-0.0778,-0.2826,1.0497,2121
12,0.1665,-0.9934,0.1138,-0.0719,-0.1649,1.1155,2031
12,-0.2029,-0.9219,0.1841,-0.127,0.1067,1.2103,2110
12,-0.3274,-0.9614,0.0457,-0.0806,0.4936,1.3717,2131
12,0.0454,-0.967,0.073,0.0097,0.5789,1.6295,2032
12,0.3137,-0.9148,0.0803,0.0756,0.2698,1.7539,2105
12,0.4614,-0.8572,0.0693,0.1649,0.1385,1.9528,2139
12,0.3669,-0.8423,0.0317,0.2613,-0.0454,2.1616,2121
12,0.2185,-0.9744,0.0283,0.3971,0.0401,2.3273,2044
12,0.0962,-1.2031,0.0281,0.516,0.2898,2.4501,2097
12,0.1086,-1.3562,0.0498,0.4982,0.4514,2.4625,2142
12,0.1553,-1.2585,-0.0088,0.4741,0.4039,2.5472,2059
12,0.2974,-1.1943,-0.0674,0.5337,0.2374,2.5967,2000
12,0.2363,-1.3225,-0.0137,0.5621,0.2938,2.6597,1914
12,0.2893,-1.3157,0.1101,0.6004,0.2148,2.7777,2081
12,0.2883,-1.2993,0.2373,0.6597,0.3607,2.9232,1984
12,0.1182,-1.395,0.2437,0.6992,0.602,2.9231,2107
12,0.2087,-1.4207,0.2227,0.7213,0.7783,2.8862,2075
12,0.1577,-1.4451,0.1565,0.8367,1.0395,2.9357,2044
12,0.2183,-1.6245,0.0779,0.8927,1.2709,2.7914,2041
12,0.4426,-1.7688,-0.0342,0.8436,1.1833,2.9524,2044
12,0.5759,-1.7832,-0.1484,0.7605,0.6975,3.4914,2051
12,0.7048,-1.9431,-0.3193,0.6424,0.4566,3.8321,2052
12,0.9497,-1.9448,-0.2793,0.4321,-0.2595,4.2586,2055
12,1.6853,-1.8582,-0.0496,0.0874,-1.3303,4.3634,2049
12,1.1699,-2.0,-0.053,0.2803,-1.3276,4.1917,2062
12,-0.2751,-2.0,0.1548,0.3738,-1.848,3.8783,2040
12,0.1392,-2.0,0.1296,-0.1019,-2.2911,4.3634,1994
12,0.5786,-1.4045,-0.1885,0.5241,-2.7296,2.0069,2020
12,0.6414,0.262,-0.6475,1.2311,-2.4108,3.6539,2083
12,-1.1294,-0.0449,-0.1445,3.5503,-2.5354,4.3634,2130
12,0.7632,-1.9612,0.7188,0.695,-3.6061,3.7161,2080
12,1.9999,-0.9309,-0.6738,2.5844,-4.1864,4.3634,1984
12,-2.0,-0.2727,1.439,0.1483,-3.6195,0.2441,1756
12,-2.0,-1.1885,-0.0723,1.4315,-4.3635,1.3504,2169
12,-1.9048,-0.3567,1.6033,1.3332,-4.3635,1.741,2158
12,-1.4062,-0.2463,0.906,1.0387,-3.1822,1.5878,2081
12,-1.251,-0.2537,0.0784,-0.9025,-1.8297,-1.7635,1993
12,-0.3411,-0.262,-0.2822,-1.3961,-1.2821,-2.5458,2007
12,-0.3208,-0.2053,-0.2119,-2.7874,1.3049,-3.9403,2022
12,-0.0513,-0.0496,-0.2039,-2.8099,1.4386,-3.6564,2032
12,0.3516,-0.0549,0.0972,-1.5419,0.0959,-3.0542,2050
12,0.303,-0.3792,0.3186,-1.0628,-0.6863,-2.6422,2043
12,-0.1467,-0.5637,0.1892,-1.4109,-0.1165,-2.775,2047
12,-0.625,-0.426,0.1257,-1.6141,-0.0811,-3.5081,2036
12,-0.5571,-0.1816,0.1934,-1.6399,0.09,-3.9988,2037
12,-0.4766,-0.0676,0.2202,-1.5407,0.3117,-4.3558,2055
12,-0.4666,-0.1357,0.2793,-1.3637,0.6691,-4.3635,2051
12,-1.1873,-0.397,0.4238,-2.7638,0.7023,-4.3635,2023
12,-0.6611,-0.323,0.5312,-2.7777,1.3668,-4.3635,2037
12,-0.4609,-0.1516,0.3701,-2.8787,1.4635,-4.3635,2048
12,-0.583,-0.0979,0.3596,-2.7915,1.9112,-4.3635,2053
12,-0.2847,-0.3555,0.283,-2.7147,2.145,-4.3635,2037
12,-0.2117,-0.2969,0.1719,-2.5043,2.3607,-4.3635,2041
12,-0.2969,-0.4182,0.2346,-2.4394,2.3388,-4.3635,2051
12,-0.1711,-0.4443,0.21,-2.539,2.0551,-4.3635,2047
12,-0.032,-0.4365,0.1287,-2.6203,1.8456,-4.3635,2044
12,0.0107,-0.6768,-0.0579,-2.2847,1.7588,-4.3635,2041
12,-0.2129,-0.8948,-0.0315,-1.8841,1.4282,-4.3635,2052
