Timestamp,Ax,Ay,Az,Rx,Ry,Rz,HR_value
0,-0.6816,-0.002,0.0286,-1.1196,-0.2376,0.0774,159
0,-0.703,-0.0173,-0.0061,-1.1425,-0.2562,0.0795,159
0,-0.7163,-0.0286,-0.0193,-1.1425,-0.2562,0.0795,159
0,-0.7357,-0.051,-0.0255,-1.1556,-0.2768,0.074,159
0,-0.7357,-0.051,-0.0255,-1.1796,-0.2987,0.0675,159
0,-0.7469,-0.0796,-0.0326,-1.1993,-0.3281,0.0566,159
0,-0.7632,-0.1296,-0.0469,-1.2025,-0.351,0.0392,159
0,-0.7724,-0.1439,-0.0541,-1.1818,-0.3739,0.024,159
0,-0.7959,-0.1703,-0.0632,-1.1579,-0.3924,0.0087,159
0,-0.8428,-0.2388,-0.0877,-1.1306,-0.4044,-0.0152,159
0,-0.8602,-0.2816,-0.0857,-1.0816,-0.4208,-0.0392,159
0,-0.8857,-0.299,-0.0857,-1.0292,-0.4328,-0.0337,159
0,-0.8867,-0.3184,-0.0755,-1.0292,-0.4328,-0.0337,159
0,-0.8867,-0.3184,-0.0755,-0.967,-0.4328,-0.0294,159
0,-0.903,-0.3571,-0.0765,-0.8809,-0.4109,-0.0076,159
0,-0.9173,-0.3602,-0.0959,-0.821,-0.3968,0.0261,159
0,-0.9061,-0.3632,-0.1061,-0.7588,-0.3891,0.0511,159
0,-0.8826,-0.3602,-0.1102,-0.677,-0.3979,0.0795,159
0,-0.8724,-0.3439,-0.1061,-0.5625,-0.4077,0.1352,159
0,-0.8734,-0.2928,-0.1143,-0.3739,-0.3958,0.2136,159
0,-0.8796,-0.2531,-0.1082,-0.218,-0.3783,0.2802,159
0,-0.9081,-0.2101,-0.0714,-0.1253,-0.3674,0.338,159
0,-0.9316,-0.204,-0.0551,-0.1253,-0.3674,0.338,159
0,-0.9316,-0.204,-0.0551,-0.0523,-0.3401,0.3891,159
0,-0.9612,-0.2296,0.1387,0.0566,-0.2365,0.4414,159
0,-1.0122,-0.1428,-0.0193,0.1776,-0.0631,0.4992,159
0,-1.1091,-0.2122,0.0388,-0.0294,0.0152,0.4633,159
0,-1.1898,-0.1847,0.0071,-0.1318,0.0894,0.4502,159
0,-1.1622,-0.203,0.0132,-0.0763,0.1384,0.4763,159
0,-1.2071,-0.1346,0.0112,0.0196,0.2081,0.4938,159
0,-1.2765,-0.1316,0.0673,0.0675,0.2605,0.5026,159
0,-1.3582,-0.15,0.0948,0.0675,0.2605,0.5026,159
0,-1.403,-0.1949,0.1132,0.0621,0.3063,0.5167,159
0,-1.403,-0.1949,0.1132,0.073,0.3434,0.5265,159
0,-1.3877,-0.2561,0.0602,0.1329,0.338,0.5244,159
0,-1.3296,-0.2836,0.0377,0.2365,0.3073,0.4862,159
0,-1.2612,-0.2367,0.0979,0.4372,0.2703,0.4252,159
0,-1.2326,-0.1377,0.3102,0.556,0.2442,0.3456,159
0,-1.1877,-0.1602,0.3224,0.5418,0.1919,0.2802,159
0,-1.1826,-0.1898,0.3326,0.5865,0.1744,0.1984,159
0,-1.1041,-0.1173,0.4724,0.6781,0.193,0.1024,159
0,-1.1183,-0.0643,0.3908,0.6781,0.193,0.1024,159
0,-1.1938,-0.0224,0.3489,0.6835,0.2027,0.0316,159
0,-1.1938,-0.0224,0.3489,0.7108,0.2224,-0.0349,159
0,-1.2142,0.05,0.3582,0.7413,0.255,-0.0948,159
0,-1.2755,-0.0673,0.3489,0.6585,0.2617,-0.1657,159
0,-1.2602,-0.1928,0.2847,0.5614,0.2213,-0.1995,159
0,-1.2724,-0.25,0.2153,0.6323,0.2159,-0.1984,159
0,-1.2275,-0.1612,0.2265,0.8187,0.23,-0.2016,159
0,-1.1551,-0.0836,0.1377,0.8853,0.1972,-0.1701,159
0,-1.0836,-0.052,0.1357,0.9179,0.1198,-0.1482,159
0,-1.0326,-0.0102,0.1418,0.9179,0.1198,-0.1482,159
0,-1.0326,-0.0102,0.1418,0.9725,0.0763,-0.1428,159
0,-0.9592,0.0438,0.151,1.016,0.0392,-0.1232,159
0,-0.8785,0.1112,0.1694,1.015,0.036,-0.1341,159
0,-0.852,0.1469,0.1724,0.9801,0.0162,-0.1318,159
0,-0.8143,0.1602,0.1867,0.8885,-0.0097,-0.1373,159
0,-0.7693,0.105,0.1357,0.8275,-0.0043,-0.1602,159
0,-0.7745,0.1153,0.15,0.846,0.0162,-0.1722,159
0,-0.7643,0.0959,0.1346,0.8166,0.0152,-0.193,159
0,-0.7551,0.05,0.1173,0.7729,-0.0021,-0.2049,159
0,-0.7194,0.0183,0.0969,0.7729,-0.0021,-0.2049,159
0,-0.7194,0.0183,0.0969,0.822,-0.0131,-0.2125,159
0,-0.7245,0.0377,0.1061,0.8918,-0.0097,-0.218,159
0,-0.7163,0.0275,0.0908,0.9168,-0.0402,-0.2049,159
0,-0.701,0.0459,0.0969,0.9561,-0.073,-0.1951,159
0,-0.7204,0.0928,0.1112,1.003,-0.1057,-0.1732,159
0,-0.751,0.1449,0.1082,1.0171,-0.169,-0.1471,159
0,-0.7918,0.2142,0.1337,1.003,-0.194,-0.1417,159
0,-0.7745,0.2469,0.1735,0.9822,-0.2115,-0.1253,159
0,-0.7959,0.2765,0.1765,0.9212,-0.1984,-0.0883,159
0,-0.8296,0.3541,0.1867,0.8166,-0.1919,-0.0228,159
0,-0.8418,0.3132,0.1735,0.6869,-0.2005,0.0021,159
0,-0.7928,0.2775,0.1744,0.5952,-0.1919,0.0,159
0,-0.9285,0.6683,0.101,0.5898,-0.1373,0.0228,159
0,-0.9153,0.501,0.2275,0.5887,-0.1242,-0.1428,159
0,-0.9071,0.3265,0.1653,0.5887,-0.1242,-0.1428,159
0,-0.9071,0.3265,0.1653,0.2703,-0.1384,-0.3456,159
0,-0.7306,0.2969,0.1775,0.0915,-0.2213,-0.3619,159
0,-0.853,0.2388,0.2224,0.0818,-0.1701,-0.2617,159
0,-0.8489,0.2336,0.2918,0.0763,-0.0719,-0.2638,159
0,-0.8286,0.1949,0.2704,0.0589,0.0011,-0.2289,159
0,-0.8541,0.1857,0.2428,0.0621,0.0937,-0.1984,159
0,-0.9316,0.2714,0.2224,0.0795,0.194,-0.1755,159
0,-0.9642,0.2745,0.1816,0.024,0.2573,-0.1373,159
0,-0.9857,0.2683,0.1387,-0.0654,0.3325,-0.1133,159
0,-1.0081,0.2806,0.1275,-0.0654,0.3325,-0.1133,159
0,-1.0561,0.2938,0.1367,-0.0992,0.4065,-0.0784,159
0,-1.0561,0.2938,0.1367,-0.1798,0.4906,-0.0589,159
0,-1.0622,0.2438,0.1173,-0.3008,0.5429,-0.0435,159
0,-1.0786,0.1744,0.0939,-0.3771,0.5963,-0.0305,159
0,-1.1949,0.0939,0.1408,-0.3739,0.6737,-0.0174,159
0,-1.2531,0.1091,0.15,-0.3292,0.7468,0.0162,159
0,-1.3622,0.1,0.1632,-0.338,0.7915,0.049,159
0,-1.3275,0.1306,0.1714,-0.4414,0.7588,0.0904,159
0,-1.2673,-0.0857,0.2683,-0.4414,0.7588,0.0904,159
0,-1.4642,-0.1306,0.2153,-0.6791,0.7064,0.036,159
0,-1.4142,-0.1857,0.3193,-0.7554,0.6923,0.1198,159
0,-1.4142,-0.1857,0.3193,-0.6213,0.6726,0.1144,159
0,-1.552,-0.249,0.3826,-0.7205,0.6421,0.1221,159
0,-1.5541,-0.3163,0.3949,-0.846,0.483,0.1613,159
0,-1.602,-0.403,0.3734,-0.9179,0.3674,0.1352,159
0,-1.6898,-0.5551,0.2632,-0.8351,0.2268,0.0839,159
0,-1.7336,-0.4285,0.1153,-0.6682,0.1003,0.1951,159
0,-1.6367,-0.4102,0.1744,-0.3903,-0.0381,0.2039,159
0,-1.6367,-0.2449,0.1296,-0.3903,-0.0381,0.2039,159
0,-1.6367,-0.2449,0.1296,-0.2659,-0.1962,0.2245,159
0,-1.2571,0.0867,0.1337,-0.2344,-0.3466,0.2376,159
0,-1.2571,0.0867,0.1337,-0.231,-0.4164,0.2867,159
0,-1.1306,0.2112,0.1326,-0.1875,-0.4513,0.2922,159
0,-1.0214,0.2938,0.1724,-0.2998,-0.4536,0.2016,159
1,-0.8714,0.2234,0.1887,-0.5047,-0.4742,0.11,159
1,-0.7734,0.2285,0.1541,-0.6629,-0.4938,0.0806,159
1,-0.7377,0.202,0.1377,-0.7512,-0.4437,0.0545,159
1,-0.6703,0.2163,0.1602,-0.809,-0.3826,0.0294,159
1,-0.6061,0.2204,0.103,-0.8994,-0.3412,0.0206,159
1,-0.6061,0.2204,0.103,-0.8994,-0.3412,0.0206,159
1,-0.5877,0.1918,0.0684,-0.9954,-0.3063,-0.0011,159
1,-0.5541,0.1735,0.0734,-1.0694,-0.2812,-0.0228,159
1,-0.5245,0.1316,0.0418,-1.16,-0.2758,-0.0305,159
1,-0.5234,0.0969,0.0183,-1.2483,-0.2714,-0.0469,159
1,-0.5265,0.0602,-0.0193,-1.293,-0.2583,-0.0664,159
1,-0.549,0.0357,-0.0193,-1.3137,-0.2659,-0.0795,159
1,-0.5663,0.002,-0.0398,-1.305,-0.242,-0.098,159
1,-0.6194,0.004,-0.0673,-1.3017,-0.193,-0.1221,159
1,-0.6214,0.0061,-0.0786,-1.3017,-0.193,-0.1221,159
1,-0.7194,-0.0734,-0.0989,-1.3137,-0.1732,-0.1711,159
1,-0.7194,-0.0734,-0.0989,-1.3497,-0.1308,-0.2605,159
1,-0.7459,-0.2061,-0.0979,-1.3737,-0.1013,-0.3554,159
1,-0.7418,-0.3775,-0.1632,-1.5078,-0.1013,-0.3619,159
1,-0.8877,-0.2653,-0.2653,-1.7138,-0.242,-0.1732,159
1,-0.9979,-0.299,-0.2092,-1.5591,-0.4197,-0.1373,159
1,-1.0132,-0.4224,-0.0948,-1.1959,-0.5505,-0.1362,159
1,-0.9663,-0.4877,-0.0092,-0.8645,-0.6148,0.0131,159
1,-1.0898,-0.2673,-0.0591,-0.6486,-0.5374,0.182,159
1,-1.0336,-0.2418,-0.0438,-0.6486,-0.5374,0.182,159
1,-1.0928,-0.2214,-0.0663,-0.532,-0.4851,0.1678,159
1,-1.0928,-0.2214,-0.0663,-0.5942,-0.4284,0.1766,159
1,-1.0224,-0.199,-0.0806,-0.5757,-0.3521,0.1035,159
1,-1.0112,-0.1969,-0.1316,-0.6715,-0.2878,0.0555,159
1,-0.9918,-0.2571,-0.1541,-0.7075,-0.2583,0.0076,159
1,-0.9765,-0.2806,-0.203,-0.7174,-0.2812,0.0294,159
1,-0.9714,-0.2806,-0.2061,-0.5963,-0.3456,0.085,159
1,-0.9244,-0.3459,-0.0693,-0.3848,-0.3717,0.1602,159
1,-0.95,-0.3,-0.0652,-0.1602,-0.3237,0.2802,159
1,-0.9235,-0.2693,-0.049,-0.1602,-0.3237,0.2802,159
1,-0.9745,-0.2479,-0.0306,-0.0414,-0.2485,0.3586,159
1,-0.9745,-0.2479,-0.0306,-0.0435,-0.157,0.3968,159
1,-1.0173,-0.2418,-0.0357,0.0228,-0.0282,0.4317,159
1,-1.0591,-0.2255,-0.0428,0.0784,0.0774,0.4818,159
1,-1.1326,-0.2561,-0.049,0.1646,0.1547,0.5004,159
1,-1.3163,-0.452,0.0581,0.4109,0.182,0.5494,159
1,-1.4438,-0.4306,0.0367,0.9834,0.1907,0.7512,159
1,-1.5867,0.2969,0.6,1.1884,0.3412,0.7882,159
1,-1.4949,-0.1194,0.0755,0.5854,0.4099,0.4044,159
1,-1.2867,-0.0367,0.1714,0.5854,0.4099,0.4044,159
1,-1.2867,-0.0367,0.1714,0.5679,0.2747,0.3542,159
1,-1.3796,-0.0102,0.1296,0.6803,0.2703,0.2649,159
1,-1.3296,0.0918,0.3163,0.701,0.2147,0.1852,159
1,-1.2826,0.0449,0.3357,0.5026,0.1253,0.0883,159
1,-1.1183,-0.1102,0.3632,0.3586,-0.0108,-0.0108,159
1,-1.0806,-0.2306,0.3316,0.4698,0.0621,-0.1047,159
1,-1.1285,-0.0204,0.4683,0.714,0.1362,-0.1503,159
1,-1.1938,-0.0581,0.4041,0.6857,0.1623,-0.1864,159
1,-1.1173,-0.1428,0.4183,0.5647,0.1373,-0.2333,159
1,-1.1602,-0.2255,0.3204,0.5647,0.1373,-0.2333,159
1,-1.1602,-0.2255,0.3204,0.5877,0.1428,-0.2224,159
1,-1.2133,-0.153,0.2714,0.7043,0.1755,-0.2224,159
1,-1.1744,-0.1703,0.2306,0.7327,0.1787,-0.2136,159
1,-1.1703,-0.2081,0.1489,0.8035,0.157,-0.1984,159
1,-1.0948,-0.153,0.1571,0.9561,0.1341,-0.181,159
1,-1.0336,-0.004,0.1418,1.0499,0.1144,-0.1732,159
1,-0.999,0.0163,0.1255,1.0935,0.0925,-0.1842,159
1,-0.9826,0.0418,0.1275,1.1545,0.1003,-0.182,159
1,-0.95,0.1949,0.1041,1.172,0.0959,-0.1286,159
1,-0.9,0.2734,0.1091,1.172,0.0959,-0.1286,159
1,-0.8846,0.1602,0.1265,1.0902,0.0708,-0.1133,159
1,-0.8316,0.1082,0.0724,0.9311,-0.0141,-0.2278,159
1,-0.8255,0.0826,0.0734,0.9311,-0.0141,-0.2278,159
1,-0.8316,0.0622,0.0693,0.954,-0.0217,-0.2474,159
1,-0.8316,0.0622,0.0693,0.9551,-0.0523,-0.2649,159
1,-0.7979,0.0295,0.0479,0.9769,-0.1003,-0.2714,159
1,-0.7959,0.0428,0.05,1.0455,-0.1526,-0.2682,159
1,-0.7867,0.0663,0.0663,1.1066,-0.1951,-0.2627,159
1,-0.7734,0.0816,0.0622,1.1371,-0.2388,-0.2627,159
1,-0.7693,0.1204,0.0928,1.16,-0.2791,-0.2659,159
1,-0.7571,0.1418,0.1296,1.1665,-0.3292,-0.2703,159
1,-0.7561,0.1663,0.1316,1.1469,-0.3685,-0.2703,159
1,-0.7347,0.201,0.1796,1.1469,-0.3685,-0.2703,159
1,-0.7551,0.2336,0.1959,1.1436,-0.3968,-0.2703,159
1,-0.7551,0.2336,0.1959,1.1513,-0.3903,-0.2605,159
1,-0.7183,0.3051,0.2622,1.1327,-0.3685,-0.2474,159
1,-0.7765,0.3122,0.2408,1.0238,-0.326,-0.2245,159
1,-0.7643,0.4071,0.2357,0.9071,-0.3151,-0.2333,159
1,-0.7775,0.4092,0.2051,0.7991,-0.2714,-0.2856,159
1,-0.752,0.4071,0.2306,0.6934,-0.2594,-0.2693,159
1,-0.7755,0.3898,0.1744,0.6106,-0.2289,-0.2507,159
1,-0.7275,0.4592,0.201,0.532,-0.193,-0.2485,159
1,-0.7653,0.3969,0.2245,0.532,-0.193,-0.2485,159
1,-0.7653,0.3969,0.2245,0.4065,-0.1198,-0.3041,159
1,-0.7357,0.3857,0.2531,0.314,-0.0872,-0.2899,159
1,-0.7377,0.3632,0.2959,0.2289,-0.0282,-0.2388,159
1,-0.7469,0.3469,0.3306,0.1341,0.0806,-0.2201,159
1,-0.7775,0.3296,0.3143,0.0511,0.1919,-0.181,159
1,-0.8071,0.3061,0.2816,-0.0228,0.3096,-0.1438,159
1,-0.95,0.3296,0.2101,-0.0937,0.4164,-0.1079,159
1,-1.0031,0.3224,0.1755,-0.1852,0.496,-0.0872,159
1,-1.0806,0.2888,0.151,-0.2703,0.556,-0.073,159
1,-1.2183,0.203,0.2367,-0.2703,0.556,-0.073,159
1,-1.2183,0.203,0.2367,-0.338,0.5887,-0.0511,159
1,-1.3193,0.1612,0.2724,-0.4099,0.6301,-0.0349,159
1,-1.4112,0.1408,0.3102,-0.4611,0.6835,-0.0152,159
1,-1.4979,0.1316,0.2877,-0.52,0.713,0.0272,159
1,-1.4387,-0.0183,0.2531,-0.664,0.7217,-0.0043,159
1,-1.5714,0.004,0.2581,-0.7882,0.7075,0.0425,159
1,-1.499,-0.0877,0.2469,-0.8046,0.6203,0.012,159
1,-1.5367,-0.302,0.2663,-0.9834,0.5919,-0.1013,159
1,-1.4041,-0.4653,0.2918,-0.9834,0.5919,-0.1013,159
1,-1.4337,-0.8653,0.3152,-0.9431,0.4012,-0.1177,159
1,-1.4337,-0.8653,0.3152,-0.9179,0.3445,-0.0828,159
2,-1.502,-0.801,0.2918,-0.9059,0.2234,0.1755,159
2,-1.6112,-0.6694,0.2275,-0.3924,0.1329,0.2147,159
2,-1.4969,-0.4581,0.2214,-0.0294,-0.0087,0.098,159
2,-1.4918,-0.2877,0.2643,0.1591,-0.1406,0.1297,159
2,-1.4306,-0.1449,0.2632,0.2104,-0.3031,0.2201,159
2,-1.2479,0.0245,0.3132,0.1526,-0.3575,0.2474,159
2,-1.2112,0.2092,0.2612,0.0992,-0.3794,0.3434,159
2,-1.0428,0.4418,0.2908,0.0992,-0.3794,0.3434,159
2,-0.9561,0.4959,0.2571,0.0435,-0.3794,0.2844,159
2,-0.9561,0.4959,0.2571,-0.0904,-0.3706,0.0654,159
2,-0.8091,0.5224,0.2928,-0.2987,-0.3739,-0.0457,159
2,-0.799,0.4601,0.2101,-0.5778,-0.3466,-0.0087,159
2,-0.8051,0.5347,0.2561,-0.9017,-0.3489,0.085,159
2,-0.7081,0.3163,0.0847,-1.2428,-0.3357,0.0294,159
2,-0.6102,0.2663,0.0775,-1.3901,-0.3117,0.0087,159
2,-0.5969,0.2326,0.0541,-1.4292,-0.2464,-0.0043,159
2,-0.5652,0.1918,0.0541,-1.4849,-0.2125,-0.024,159
2,-0.5877,0.1245,0.0092,-1.4849,-0.2125,-0.024,159
2,-0.5877,0.1245,0.0092,-1.5874,-0.2027,-0.0326,159
2,-0.5418,0.0816,-0.0031,-1.6692,-0.2049,-0.0414,159
2,-0.553,0.05,-0.0071,-1.6986,-0.1962,-0.0523,159
2,-0.5765,0.0,-0.0255,-1.6921,-0.1701,-0.0763,159
2,-0.6306,-0.0418,-0.0326,-1.6888,-0.1515,-0.1112,159
2,-0.7316,-0.0081,-0.0652,-1.6648,-0.169,-0.1449,159
2,-0.6428,-0.1439,-0.001,-1.7531,-0.2169,-0.2191,159
2,-0.7806,-0.4081,-0.004,-1.7651,-0.0141,-0.3706,159
2,-0.7643,-0.3234,-0.103,-1.7847,0.0818,-0.3729,159
2,-0.8193,-0.2408,-0.1806,-1.7847,0.0818,-0.3729,159
2,-0.8193,-0.2408,-0.1806,-1.9777,0.0108,-0.3706,159
2,-0.8469,-0.3837,-0.2898,-2.0463,-0.085,-0.5505,159
2,-0.9306,-0.4122,-0.2367,-2.0169,-0.2594,-0.5877,159
2,-0.9469,-0.6806,-0.2071,-1.7096,-0.3292,-0.5822,159
2,-0.8193,-0.5663,-0.2755,-0.9702,-0.3456,-0.1362,159
2,-0.9132,-0.4051,-0.2714,-0.4862,-0.4927,0.0206,159
2,-0.9235,-0.4347,-0.2397,-0.1493,-0.665,0.0555,159
2,-0.9601,-0.3714,-0.2377,0.2878,-0.7926,0.0795,159
2,-0.8479,-0.1755,0.0775,0.4971,-0.8176,0.1068,160
2,-0.9633,-0.2071,0.254,0.4971,-0.8176,0.1068,160
2,-0.853,-0.4836,-0.0479,0.0349,-0.5799,0.0937,160
2,-0.853,-0.4836,-0.0479,-0.6051,-0.3193,0.0643,160
2,-0.8745,-0.3816,-0.1204,-0.2954,-0.1744,0.1471,160
2,-0.8326,-0.3387,-0.0143,-0.2344,-0.1264,0.182,160
2,-0.902,-0.3071,0.0,-0.1362,-0.0479,0.2442,160
2,-0.8969,-0.3336,-0.0602,-0.1373,0.0337,0.3292,160
2,-0.9316,-0.2612,-0.053,-0.0806,0.1221,0.3838,160
2,-0.9785,-0.2397,-0.0081,0.0,0.2039,0.4492,160
2,-1.0275,-0.199,-0.0449,0.0,0.2039,0.4492,160
2,-1.0571,-0.2816,-0.0438,0.1089,0.3237,0.5015,160
2,-1.2602,-0.2857,0.0734,0.0643,0.3695,0.5276,160
2,-1.2602,-0.2857,0.0734,0.0555,0.3968,0.5494,160
2,-1.3775,-0.2928,0.2683,0.1133,0.4698,0.556,160
2,-1.5051,-0.2755,0.1041,0.363,0.5635,0.5473,160
2,-1.5989,-0.2663,0.2051,0.4448,0.5112,0.5189,160
2,-1.653,-0.203,0.2153,0.5494,0.4753,0.4328,160
2,-1.6735,-0.1234,0.2428,0.6028,0.375,0.3597,160
2,-1.5959,-0.0877,0.2959,0.557,0.2147,0.2365,160
2,-1.3979,-0.199,0.351,0.557,0.2147,0.2365,160
2,-1.3979,-0.199,0.351,0.4536,0.0599,0.098,160
2,-1.3316,-0.2888,0.3796,0.4687,-0.0087,0.0196,160
2,-1.3316,-0.2888,0.3796,0.5898,0.0294,-0.0479,160
2,-1.252,-0.3489,0.3724,0.6944,0.0719,-0.1035,160
2,-1.1785,-0.3734,0.3255,0.7533,0.0818,-0.1112,160
2,-1.1143,-0.3622,0.2959,0.8416,0.0904,-0.1035,160
2,-1.0948,-0.3163,0.2408,0.9692,0.1384,-0.1079,160
2,-1.0602,-0.1632,0.1796,1.1186,0.194,-0.1035,160
2,-1.0438,-0.0816,0.1877,1.2167,0.2159,-0.0948,160
2,-1.0438,-0.0347,0.1796,1.2069,0.2115,-0.0992,160
2,-1.0459,0.0255,0.1622,1.2461,0.2136,-0.1123,160
2,-1.0561,0.0571,0.1479,1.2777,0.2071,-0.1221,160
2,-1.0367,0.0898,0.151,1.2777,0.2071,-0.1221,160
2,-0.951,0.0693,0.1163,1.2581,0.1646,-0.1329,160
2,-0.951,0.0693,0.1163,1.185,0.098,-0.1373,160
2,-0.8979,0.0541,0.1082,1.1469,0.0469,-0.1461,160
2,-0.8775,0.0561,0.0908,1.1676,0.024,-0.1581,160
2,-0.85,0.0652,0.0928,1.1982,-0.0053,-0.1711,160
2,-0.8041,0.0673,0.0918,1.197,-0.0425,-0.1852,160
2,-0.7857,0.0704,0.0928,1.184,-0.098,-0.1951,160
2,-0.7663,0.0684,0.0847,1.1862,-0.1503,-0.2039,160
2,-0.749,0.0908,0.0847,1.1862,-0.1503,-0.2039,160
2,-0.7296,0.103,0.0939,1.2058,-0.1831,-0.2147,160
2,-0.7296,0.103,0.0939,1.2418,-0.2213,-0.218,160
2,-0.7408,0.1112,0.101,1.2527,-0.2627,-0.2278,160
2,-0.7296,0.1296,0.1265,1.2516,-0.3172,-0.2256,160
2,-0.7163,0.1785,0.1541,1.2418,-0.3575,-0.2256,160
2,-0.6979,0.203,0.1694,1.2276,-0.3838,-0.2201,160
2,-0.6847,0.2245,0.2071,1.197,-0.3859,-0.2005,160
2,-0.6765,0.2938,0.2428,1.1436,-0.3674,-0.1428,160
2,-0.6938,0.2928,0.2081,1.0324,-0.3412,-0.061,160
2,-0.7255,0.3286,0.2469,1.0324,-0.3412,-0.061,160
2,-0.7255,0.3286,0.2469,0.9124,-0.3107,0.0545,160
2,-0.6602,0.3663,0.2265,0.7762,-0.2594,0.1537,160
2,-0.751,0.6224,0.0745,0.6225,-0.2159,0.2594,160
2,-0.6387,0.4633,0.2112,0.6562,-0.1678,0.2027,160
2,-0.7224,0.3837,0.2775,0.4448,-0.1253,-0.0534,160
2,-0.6785,0.3112,0.0939,0.339,-0.1558,-0.1657,160
2,-0.6642,0.2775,0.252,0.3346,-0.1253,-0.0795,160
2,-0.7173,0.2898,0.3112,0.3706,0.0425,-0.0784,160
2,-0.7377,0.3541,0.351,0.3542,0.1657,-0.0446,160
2,-0.8122,0.3734,0.3265,0.3542,0.1657,-0.0446,160
2,-0.8122,0.3734,0.3265,0.2191,0.255,-0.0087,160
2,-0.852,0.3632,0.2786,0.0566,0.3325,0.0097,160
2,-0.8918,0.3785,0.2357,-0.0511,0.4328,0.037,160
2,-0.9601,0.3908,0.201,-0.1057,0.5669,0.0294,160
2,-1.0704,0.4061,0.1551,-0.1537,0.6715,0.0196,160
2,-1.1551,0.3683,0.1867,-0.2388,0.738,0.0011,160
2,-1.2561,0.3387,0.2234,-0.4088,0.7512,-0.0185,160
2,-1.4459,0.2133,0.2551,-0.5538,0.7642,-0.024,160
2,-1.502,0.201,0.2928,-0.6138,0.8002,0.0021,160
2,-1.5265,0.1632,0.3479,-0.6138,0.8002,0.0021,160
2,-1.552,0.0857,0.3286,-0.7031,0.8264,0.0381,160
3,-1.552,0.0857,0.3286,-0.8558,0.8439,0.0621,160
3,-1.6459,0.0684,0.3316,-1.0618,0.7795,0.0774,160
3,-1.449,-0.2908,0.1969,-1.3922,0.6028,0.0435,160
3,-1.5652,-0.3602,0.2877,-1.4107,0.4753,0.1766,160
3,-1.6224,-0.7602,0.2326,-1.2766,0.4143,0.0675,160
3,-1.5663,-1.1867,0.2367,-1.1567,0.2093,-0.012,160
3,-1.7153,-0.8326,0.1622,-0.8285,0.0818,0.2321,160
3,-1.7673,-0.6908,0.1581,-0.2583,-0.024,0.1667,160
3,-1.4816,-0.299,0.1837,-0.2583,-0.024,0.1667,160
3,-1.3918,-0.1377,0.1775,0.0196,-0.1951,0.1438,160
3,-1.3918,-0.1377,0.1775,0.1362,-0.3248,0.2016,160
3,-1.2602,-0.0316,0.2204,0.1242,-0.4143,0.2703,160
3,-1.1265,0.0541,0.252,0.025,-0.4132,0.3368,160
3,-0.9836,0.2836,0.2234,-0.0675,-0.4,0.3771,160
3,-0.8867,0.6622,0.1877,-0.1057,-0.3521,0.2768,160
3,-0.9306,0.3734,0.2653,-0.2289,-0.3172,0.0217,160
3,-0.7071,0.5551,0.2173,-0.5145,-0.3117,0.0141,160
3,-0.8296,0.4347,0.1867,-0.5145,-0.3117,0.0141,160
3,-0.8296,0.4347,0.1867,-0.81,-0.2638,0.0992,160
3,-0.7122,0.2795,0.1071,-1.099,-0.2779,0.1057,160
3,-0.7122,0.2795,0.1071,-1.2821,-0.2844,0.0774,160
3,-0.6541,0.2285,0.0122,-1.3519,-0.2289,0.0479,160
3,-0.6551,0.1908,0.0245,-1.437,-0.2125,0.0021,160
3,-0.6143,0.1622,0.0275,-1.499,-0.2256,0.0076,160
3,-0.6041,0.0234,-0.0286,-1.5753,-0.2268,-0.0043,160
3,-0.5939,-0.0051,-0.0398,-1.5711,-0.2201,0.0032,160
3,-0.6173,-0.0286,-0.0541,-1.5078,-0.1962,0.0,160
3,-0.6418,-0.0286,-0.0571,-1.4849,-0.1886,-0.0294,160
3,-0.6418,-0.0286,-0.0571,-1.4849,-0.1886,-0.0294,160
3,-0.7499,-0.0693,-0.0765,-1.487,-0.2191,-0.0763,160
3,-0.6041,-0.0479,-0.053,-1.4969,-0.2899,-0.0763,160
3,-0.6602,-0.1439,-0.0255,-1.5372,-0.1886,-0.2093,160
3,-0.749,-0.2326,-0.102,-1.5514,-0.1242,-0.2529,160
3,-0.8326,-0.2142,-0.1541,-1.7052,-0.2016,-0.1471,160
3,-0.8357,-0.2693,-0.1724,-1.8033,-0.2365,-0.2333,160
3,-0.8959,-0.3653,-0.1612,-1.7859,-0.2693,-0.3674,160
3,-0.9194,-0.4265,-0.2051,-1.5874,-0.339,-0.3946,160
3,-0.952,-0.4357,-0.2275,-1.4456,-0.4044,-0.338,160
3,-0.9418,-0.5826,-0.2204,-1.4456,-0.4044,-0.338,160
3,-0.9418,-0.5826,-0.2204,-1.2079,-0.4536,-0.2485,160
3,-0.9775,-0.3898,-0.2765,-0.664,-0.5473,0.0087,160
3,-0.9734,-0.3408,-0.2112,-0.2768,-0.7075,0.0698,160
3,-0.9316,-0.35,-0.15,-0.0479,-0.8035,0.1068,160
3,-0.9387,-0.3326,-0.102,0.0545,-0.7958,0.2224,160
3,-0.954,-0.2377,-0.0541,0.1123,-0.713,0.3161,160
3,-0.9438,-0.2571,-0.0326,0.1428,-0.6138,0.3271,160
3,-0.9418,-0.2153,-0.0316,0.0479,-0.5091,0.3456,160
3,-0.9398,-0.251,-0.0163,0.0479,-0.5091,0.3456,160
3,-0.9867,-0.2388,-0.0245,-0.036,-0.387,0.326,160
3,-0.9867,-0.2388,-0.0245,-0.098,-0.2573,0.3336,160
3,-1.0071,-0.2245,-0.0193,-0.0959,-0.1613,0.3489,160
3,-1.049,-0.2612,-0.0071,-0.1024,-0.0818,0.3761,160
3,-1.1132,-0.2397,0.0224,-0.049,0.012,0.4088,160
3,-1.1744,-0.3255,0.2285,-0.0621,0.073,0.4252,160
3,-1.2816,-0.2745,0.201,0.0969,0.2333,0.4786,160
3,-1.4571,-0.299,0.2153,0.2081,0.3422,0.5026,160
3,-1.6061,-0.2357,0.1898,0.2987,0.3815,0.471,160
3,-1.5643,-0.1755,0.2,0.2987,0.3815,0.471,160
3,-1.5224,-0.1479,0.2092,0.363,0.2932,0.4252,160
3,-1.5224,-0.1479,0.2092,0.495,0.2104,0.3586,160
3,-1.4694,0.0336,0.3081,0.6203,0.1787,0.2802,160
3,-1.4122,0.0602,0.3622,0.5919,0.086,0.1852,160
3,-1.303,-0.001,0.3837,0.4132,-0.0883,0.0751,160
3,-1.1847,-0.1082,0.4734,0.3096,-0.1732,-0.0337,160
3,-1.1122,-0.1622,0.4612,0.4469,-0.1329,-0.0664,160
3,-1.1642,-0.1377,0.4612,0.6465,-0.0196,-0.1155,160
3,-1.201,-0.0836,0.4601,0.6552,-0.0011,-0.1428,160
3,-1.0561,-0.2224,0.3163,0.7217,0.0621,-0.1591,160
3,-1.0612,-0.0847,0.3316,0.9027,0.1242,-0.157,160
3,-1.0857,-0.0265,0.2867,0.9027,0.1242,-0.157,160
3,-0.9897,-0.0775,0.1867,0.8874,0.1188,-0.1602,160
3,-0.9897,-0.0775,0.1867,0.8242,0.0925,-0.1886,160
3,-0.9592,-0.053,0.1847,0.9158,0.0925,-0.1852,160
3,-0.9347,-0.0071,0.1877,1.0095,0.1123,-0.2027,160
3,-0.9163,0.0,0.1826,1.0379,0.1232,-0.2093,160
3,-0.8541,0.0204,0.1489,1.0673,0.1089,-0.2147,160
3,-0.8255,0.0571,0.1316,1.0891,0.085,-0.218,160
3,-0.7928,0.0632,0.1337,1.0728,0.0577,-0.2169,160
3,-0.6867,0.0336,0.0908,1.0728,0.0577,-0.2169,160
3,-0.704,0.0428,0.0948,1.0826,0.0446,-0.2268,160
3,-0.6663,0.0652,0.1041,1.135,0.0675,-0.2529,160
3,-0.6663,0.0652,0.1041,1.173,0.0589,-0.2779,160
3,-0.6622,0.0673,0.0887,1.173,0.0402,-0.2976,160
3,-0.6367,0.0622,0.0561,1.2058,0.0282,-0.3237,160
3,-0.6541,0.0826,0.0663,1.2592,0.0174,-0.3422,160
3,-0.6541,0.103,0.0652,1.2886,0.0021,-0.363,160
3,-0.6653,0.1214,0.0796,1.3071,-0.0185,-0.3761,160
3,-0.6877,0.1469,0.0786,1.317,-0.0446,-0.3815,160
3,-0.703,0.1755,0.0887,1.3214,-0.0698,-0.3968,160
3,-0.7214,0.204,0.1122,1.3214,-0.0698,-0.3968,160
3,-0.7734,0.2479,0.1541,1.3246,-0.0937,-0.4187,160
3,-0.7734,0.2479,0.1541,1.3246,-0.1089,-0.4481,160
3,-0.8081,0.2683,0.1898,1.3006,-0.1089,-0.4513,160
3,-0.853,0.301,0.202,1.2331,-0.1112,-0.4065,160
3,-0.8918,0.3561,0.2428,1.1284,-0.1079,-0.339,160
3,-0.8857,0.3724,0.2734,0.9866,-0.098,-0.2659,160
3,-0.9367,0.5663,0.2428,0.8885,-0.0959,-0.2354,160
3,-0.8959,0.3918,0.1908,0.8775,-0.0774,-0.3706,160
3,-0.9122,0.4183,0.3347,0.7522,-0.0282,-0.4012,160
3,-0.8867,0.3377,0.2449,0.7522,-0.0282,-0.4012,160
3,-0.8867,0.3377,0.2449,0.5635,-0.0294,-0.4687,160
3,-0.8673,0.3602,0.2908,0.5461,-0.0162,-0.3401,160
3,-0.8724,0.3806,0.3071,0.5102,0.0654,-0.3107,160
3,-0.8591,0.3908,0.3571,0.4458,0.1264,-0.2693,160
3,-0.9163,0.3796,0.2795,0.3685,0.2169,-0.2256,160
3,-0.9041,0.4163,0.2673,0.3031,0.3117,-0.1831,160
3,-0.9826,0.4653,0.2285,0.1995,0.4012,-0.1308,160
3,-1.0051,0.4408,0.2214,0.0392,0.4721,-0.1003,160
3,-1.0541,0.4,0.1755,-0.1047,0.5353,-0.061,160
3,-1.0541,0.401,0.1877,-0.1047,0.5353,-0.061,160
4,-1.0541,0.401,0.1877,-0.2191,0.5996,-0.0152,160
4,-1.1755,0.3081,0.2602,-0.3466,0.6749,-0.0032,160
4,-1.301,0.25,0.2734,-0.4481,0.7392,0.0196,160
4,-1.3683,0.254,0.2643,-0.5102,0.7861,0.049,160
4,-1.4,0.2683,0.2734,-0.6388,0.8067,0.0643,160
4,-1.3704,0.1428,0.2888,-0.8897,0.7718,0.061,160
4,-1.4,-0.001,0.2857,-1.123,0.7054,0.073,160
4,-1.449,-0.152,0.2795,-1.2527,0.6541,0.037,160
4,-1.2816,-0.4704,0.3184,-1.4042,0.4906,-0.085,160
4,-1.3081,-0.952,0.4275,-1.4042,0.4906,-0.085,160
4,-1.549,-0.6918,0.3245,-1.3432,0.3771,0.1013,160
4,-1.549,-0.6918,0.3245,-1.1295,0.4153,0.4426,160
4,-1.7653,-0.751,0.2551,-0.8416,0.3031,0.3903,160
4,-1.6194,-0.7775,0.1918,-0.5734,0.0751,0.1547,160
4,-1.6979,-0.5684,0.2153,-0.218,-0.0643,0.1406,160
4,-1.603,-0.403,0.2153,0.0087,-0.2289,0.2093,160
4,-1.4765,-0.0622,0.2163,0.0664,-0.363,0.2027,160
4,-1.3755,0.0632,0.2755,0.0457,-0.4382,0.182,160
4,-1.299,0.2051,0.2704,-0.0566,-0.496,0.1776,160
4,-1.1561,0.2357,0.2949,-0.0566,-0.496,0.1776,160
4,-0.9601,0.3448,0.2571,-0.2201,-0.5036,0.1003,160
4,-0.9601,0.3448,0.2571,-0.3946,-0.4633,0.0883,160
4,-0.8765,0.4826,0.2602,-0.6062,-0.4219,0.1198,160
4,-0.8806,0.3296,0.2459,-0.8929,-0.4414,0.061,160
4,-0.702,0.2101,0.1255,-1.1284,-0.4284,0.0349,160
4,-0.653,0.1602,0.0948,-1.173,-0.3542,0.0011,160
4,-0.6163,0.1755,0.0989,-1.1709,-0.2714,-0.0108,160
4,-0.6183,0.1694,0.0673,-1.2363,-0.2495,-0.0043,160
4,-0.551,0.0786,0.0275,-1.2363,-0.2495,-0.0043,160
4,-0.551,0.0786,0.0275,-1.3323,-0.2573,-0.0065,160
4,-0.4683,0.0398,-0.0245,-1.3639,-0.255,-0.0141,160
4,-0.4683,0.0398,-0.0245,-1.3595,-0.2333,-0.0282,160
4,-0.4908,0.002,-0.0051,-1.3311,-0.2464,-0.0097,160
4,-0.4785,-0.0051,0.0081,-1.3355,-0.2213,-0.0021,160
4,-0.5051,-0.0449,-0.0092,-1.3126,-0.1766,0.0217,160
4,-0.504,-0.1082,-0.0551,-1.2876,-0.1722,0.0708,160
4,-0.5704,-0.102,-0.0755,-1.4435,-0.2093,0.098,160
4,-0.6071,-0.1224,-0.0673,-1.4336,-0.2344,0.1133,160
4,-0.6377,-0.1183,-0.1112,-1.4336,-0.2344,0.1133,160
4,-0.6377,-0.1183,-0.1112,-1.2985,-0.2169,0.1384,160
4,-0.7428,-0.1377,-0.1163,-1.3159,-0.2562,0.1503,160
4,-0.7928,-0.1663,-0.1112,-1.3071,-0.2856,0.1428,160
4,-0.8469,-0.2061,-0.1,-1.2909,-0.3151,0.1396,160
4,-0.8949,-0.2336,-0.0857,-1.2636,-0.3281,0.1384,160
4,-1.0081,-0.3102,-0.0796,-1.2003,-0.3172,0.1406,160
4,-1.051,-0.3561,-0.0826,-1.135,-0.3183,0.1417,160
4,-1.051,-0.3979,-0.1061,-1.0837,-0.3073,0.1177,160
4,-1.0408,-0.4601,-0.1265,-0.9997,-0.2844,0.1112,160
4,-1.0214,-0.45,-0.2071,-0.9997,-0.2844,0.1112,160
4,-0.9949,-0.4337,-0.2367,-0.8525,-0.2932,0.1274,160
4,-0.9949,-0.4337,-0.2367,-0.7435,-0.3434,0.1177,160
4,-0.9653,-0.4347,-0.2214,-0.6726,-0.4361,0.1133,160
4,-0.9316,-0.3939,-0.0887,-0.6301,-0.4469,0.1221,160
4,-0.8939,-0.4265,-0.0449,-0.5179,-0.3336,0.1274,160
4,-0.8724,-0.402,-0.0867,-0.4426,-0.1701,0.2256,160
4,-0.8867,-0.3602,-0.1377,-0.3597,-0.0621,0.3281,160
4,-0.9316,-0.3643,-0.1194,-0.1962,0.0011,0.4077,160
4,-1.002,-0.3204,-0.101,-0.1962,0.0011,0.4077,160
4,-1.0316,-0.2765,-0.0765,0.0577,0.0599,0.5287,160
4,-1.1153,-0.2449,-0.05,0.3183,0.1112,0.6323,160
4,-1.1153,-0.2449,-0.05,0.483,0.181,0.6911,160
4,-1.2377,-0.4102,0.3408,0.6966,0.3031,0.7533,160
4,-1.3367,-0.0796,0.2061,1.1087,0.5898,0.8613,160
4,-1.5449,-0.1163,0.2224,0.496,0.6911,0.6629,160
4,-1.6,-0.2163,0.0561,0.5341,0.6552,0.5473,160
4,-1.5377,-0.1622,0.0347,0.6911,0.5635,0.471,160
4,-1.4561,-0.0459,0.0948,0.8361,0.4666,0.388,160
4,-1.3683,0.0031,0.4418,0.6508,0.2376,0.1286,160
4,-1.3459,-0.101,0.4561,0.5604,0.1373,0.049,160
4,-1.2847,-0.1479,0.5745,0.6062,0.1493,-0.0392,160
4,-1.2571,-0.052,0.4418,0.6062,0.1493,-0.0392,160
4,-1.2571,-0.052,0.4418,0.7751,0.1962,-0.0883,160
4,-1.2479,0.0806,0.4194,0.9387,0.2453,-0.1438,160
4,-1.3061,0.1592,0.3541,0.8918,0.2594,-0.2049,160
4,-1.2643,0.1908,0.3796,0.7086,0.1482,-0.2398,160
4,-1.1796,0.0163,0.2949,0.5156,0.0883,-0.2802,160
4,-1.1642,-0.0745,0.2275,0.483,0.0577,-0.2703,160
4,-1.0989,-0.0836,0.2285,0.5833,0.073,-0.2529,160
4,-1.1041,-0.0704,0.1744,0.6846,0.1068,-0.2409,160
4,-1.1,-0.0867,0.1428,0.7664,0.073,-0.218,160
4,-1.0887,-0.0652,0.1183,0.7664,0.073,-0.218,160
4,-1.0571,-0.0663,0.1112,0.8046,0.0196,-0.1962,160
4,-1.0571,-0.0663,0.1112,0.8634,-0.0217,-0.1732,160
4,-0.9775,-0.0102,0.0939,0.9702,-0.0425,-0.1515,160
4,-0.954,0.0541,0.0867,1.0433,-0.036,-0.1417,160
4,-0.9194,0.1102,0.105,1.0368,-0.0698,-0.1264,160
4,-0.8296,0.1255,0.0836,0.9637,-0.1144,-0.1177,160
4,-0.7959,0.101,0.0816,0.9158,-0.1461,-0.1373,160
4,-0.7581,0.0857,0.0877,0.9136,-0.1635,-0.1711,160
4,-0.7428,0.0745,0.0918,0.9136,-0.1635,-0.1711,160
4,-0.699,0.0551,0.0673,0.9288,-0.1657,-0.1984,160
4,-0.6949,0.051,0.0693,0.9551,-0.1711,-0.2201,160
4,-0.6949,0.051,0.0693,0.9899,-0.1831,-0.23,160
4,-0.6796,0.0652,0.0714,1.0063,-0.2115,-0.2224,160
4,-0.6775,0.0541,0.0755,1.0128,-0.2354,-0.2245,160
4,-0.6602,0.0591,0.0775,1.052,-0.2583,-0.2268,160
4,-0.6622,0.0826,0.0939,1.1033,-0.2779,-0.2256,160
4,-0.6673,0.1143,0.1041,1.1284,-0.3052,-0.2268,160
4,-0.6775,0.1541,0.1469,1.1415,-0.3205,-0.2224,160
4,-0.6612,0.204,0.1837,1.1415,-0.3205,-0.2224,160
4,-0.6612,0.204,0.1837,1.1392,-0.3128,-0.2136,160
4,-0.7173,0.3041,0.2428,1.1251,-0.2966,-0.1907,160
4,-0.7173,0.3041,0.2428,1.0575,-0.2474,-0.1417,160
4,-0.7051,0.3591,0.2979,0.9855,-0.2081,-0.0839,160
4,-0.803,0.4969,0.2214,0.9202,-0.1623,-0.0664,160
4,-0.7734,0.4612,0.2693,0.8264,-0.1373,-0.1972,160
4,-0.7847,0.4296,0.2204,0.7054,-0.0894,-0.3117,160
5,-0.7693,0.4561,0.2326,0.6672,-0.0392,-0.2998,160
5,-0.802,0.504,0.2704,0.5877,0.0141,-0.1831,160
5,-0.8265,0.5367,0.3122,0.35,0.037,-0.1732,160
5,-0.8265,0.5367,0.3122,0.35,0.037,-0.1732,160
5,-0.7928,0.4214,0.3051,0.1274,0.0435,-0.1907,160
5,-0.801,0.3979,0.3184,0.036,0.1318,-0.1896,160
5,-0.8428,0.4051,0.3051,-0.0108,0.2693,-0.1755,160
5,-0.9316,0.402,0.2245,-0.1112,0.3859,-0.1602,160
5,-0.9897,0.3775,0.1898,-0.2093,0.4763,-0.1396,160
5,-1.0224,0.3632,0.1673,-0.3216,0.5353,-0.1232,160
5,-1.051,0.302,0.1612,-0.4536,0.5625,-0.1013,160
5,-1.0847,0.1561,0.1194,-0.5145,0.5919,-0.074,160
5,-1.0928,0.1,0.1765,-0.5145,0.5919,-0.074,160
5,-1.1459,0.0428,0.2265,-0.5004,0.64,-0.0469,160
5,-1.1459,0.0428,0.2265,-0.4731,0.7064,-0.012,160
5,-1.2938,-0.0275,0.1806,-0.4916,0.7577,0.0326,160
5,-1.3275,0.0652,0.1632,-0.4524,0.7795,0.1461,160
5,-1.3377,0.0591,0.1194,-0.4469,0.81,0.1875,160
5,-1.3408,0.0714,0.2194,-0.5974,0.797,0.181,160
5,-1.3816,-0.1183,0.2153,-0.7217,0.7064,0.2147,160
5,-1.4428,-0.1898,0.2275,-0.7435,0.6552,0.1907,160
5,-1.4724,-0.2469,0.2898,-0.7272,0.5778,0.1526,160
5,-1.5765,-0.4203,0.3326,-0.7272,0.5778,0.1526,160
5,-1.6428,-0.5673,0.3173,-0.7195,0.4742,0.1308,160
5,-1.6428,-0.5673,0.3173,-0.665,0.3434,0.1253,160
5,-1.6694,-0.4694,0.2806,-0.5396,0.1995,0.1678,160
5,-1.7306,-0.4459,0.2214,-0.3489,0.0698,0.1613,160
5,-1.6979,-0.2479,0.1724,-0.1896,-0.061,0.157,160
5,-1.6296,-0.1245,0.1663,-0.0839,-0.1886,0.1547,160
5,-1.5357,-0.0051,0.1755,-0.0479,-0.3063,0.181,160
5,-1.4571,0.1091,0.2081,-0.0708,-0.3958,0.2256,160
5,-1.1877,0.2765,0.2214,-0.0708,-0.3958,0.2256,160
5,-1.0765,0.3347,0.1959,-0.2344,-0.483,0.1003,160
5,-0.9653,0.3071,0.2081,-0.4557,-0.5179,0.0479,160
5,-0.9653,0.3071,0.2081,-0.628,-0.5156,0.0326,160
5,-0.8204,0.3408,0.1775,-0.7915,-0.4851,0.0053,160
5,-0.7734,0.2704,0.1632,-0.9822,-0.4307,-0.0446,160
5,-0.7438,0.2408,0.1091,-1.1121,-0.4034,-0.0457,160
5,-0.6755,0.1928,0.0796,-1.1753,-0.3466,-0.0643,160
5,-0.6316,0.153,0.0275,-1.2199,-0.2779,-0.0751,160
5,-0.5959,0.1326,0.0112,-1.2636,-0.2376,-0.0915,160
5,-0.5765,0.1153,-0.0122,-1.3061,-0.2191,-0.0883,160
5,-0.5602,0.1071,-0.0173,-1.3061,-0.2191,-0.0883,160
5,-0.5602,0.1071,-0.0173,-1.3595,-0.2213,-0.0872,160
5,-0.553,0.0336,-0.05,-1.4271,-0.2245,-0.098,160
5,-0.5826,0.0132,-0.053,-1.437,-0.23,-0.086,160
5,-0.5857,-0.001,-0.0449,-1.3912,-0.2081,-0.1198,160
5,-0.6612,-0.0551,-0.0428,-1.3672,-0.1461,-0.1831,160
5,-0.6551,-0.0693,-0.0469,-1.3912,-0.1221,-0.2201,160
5,-0.6316,-0.1796,-0.052,-1.4969,-0.0698,-0.2442,160
5,-0.7531,-0.1694,-0.1479,-1.631,-0.0501,-0.2474,160
5,-0.751,-0.2571,-0.203,-1.5797,-0.1047,-0.3031,160
5,-0.8265,-0.251,-0.2367,-1.5797,-0.1047,-0.3031,160
5,-0.8265,-0.251,-0.2367,-1.5526,-0.2136,-0.2464,160
5,-0.8306,-0.3051,-0.2316,-1.366,-0.3477,-0.218,160
5,-0.9235,-0.3918,-0.1469,-1.184,-0.4077,-0.1449,160
5,-0.9326,-0.352,-0.1346,-0.9507,-0.4284,-0.074,160
5,-0.9367,-0.352,-0.1346,-0.8427,-0.4349,-0.0675,160
5,-0.9092,-0.3837,-0.1091,-0.8155,-0.4229,-0.0599,160
5,-0.9081,-0.355,-0.1337,-0.6726,-0.3674,-0.036,160
5,-0.9081,-0.3286,-0.1571,-0.5679,-0.3542,0.0,160
5,-0.902,-0.3296,-0.1377,-0.5047,-0.3641,0.0261,160
5,-0.8775,-0.3245,-0.1153,-0.5047,-0.3641,0.0261,160
5,-0.8846,-0.3245,-0.1112,-0.4208,-0.338,0.0566,160
5,-0.8846,-0.3245,-0.1112,-0.3172,-0.2888,0.1003,160
5,-0.8918,-0.3081,-0.103,-0.2333,-0.2365,0.1526,160
5,-0.901,-0.3193,-0.0867,-0.1297,-0.181,0.2268,160
5,-0.95,-0.254,-0.0887,-0.0381,-0.1198,0.3096,160
5,-1.0,-0.2296,-0.0734,0.0131,-0.0992,0.3968,160
5,-1.0367,-0.199,-0.051,0.0925,-0.0599,0.4797,160
5,-1.201,-0.2592,0.002,0.267,0.0457,0.6454,160
5,-1.3224,-0.0245,0.3775,0.5189,0.2867,0.689,160
5,-1.3714,-0.1357,-0.0755,0.1503,0.4589,0.483,160
5,-1.5306,-0.2234,0.1316,0.0654,0.3891,0.4088,160
5,-1.6632,-0.2153,0.1346,0.0654,0.3891,0.4088,160
5,-1.6632,-0.2153,0.1346,0.1864,0.3903,0.3903,160
5,-1.6796,-0.2163,0.1357,0.2932,0.3706,0.3161,160
5,-1.7551,-0.0948,0.1938,0.3554,0.2966,0.2071,160
5,-1.5979,-0.0898,0.1653,0.2932,0.0784,0.1177,160
5,-1.4112,-0.1806,0.1153,0.2224,-0.0959,0.0087,160
5,-1.2438,-0.2592,0.15,0.2823,-0.1776,-0.0784,160
5,-1.0663,-0.3622,0.2918,0.4077,-0.1864,-0.086,160
5,-0.953,-0.4306,0.3622,0.5408,-0.1264,-0.0414,160
5,-1.0469,-0.4601,0.3163,0.6944,-0.0402,0.0053,160
5,-0.9847,-0.3683,0.3122,0.6944,-0.0402,0.0053,160
5,-0.9847,-0.3683,0.3122,0.87,-0.0065,-0.0479,160
5,-0.9745,-0.2734,0.3387,1.0051,0.0872,-0.085,160
5,-1.0612,-0.1826,0.2367,1.1579,0.1667,-0.0414,160
5,-1.0459,-0.0632,0.2347,1.2232,0.2278,-0.0654,160
5,-1.1224,0.0734,0.201,1.2264,0.2539,-0.1068,160
5,-1.1,0.102,0.1969,1.1862,0.1896,-0.1242,160
5,-1.0847,0.0959,0.1826,1.1371,0.1558,-0.1493,160
5,-1.05,0.1122,0.1959,1.1131,0.1144,-0.1558,160
5,-0.999,0.1469,0.1867,1.1011,0.0698,-0.1547,160
5,-0.9642,0.1398,0.1826,1.1011,0.0698,-0.1547,160
5,-0.9642,0.1398,0.1826,1.0587,0.0392,-0.1787,160
5,-0.9285,0.1326,0.1714,1.0074,-0.0131,-0.1678,160
5,-0.8448,0.1153,0.1357,0.9594,-0.0469,-0.1591,160
5,-0.803,0.1102,0.1346,0.9408,-0.073,-0.1537,160
5,-0.7918,0.103,0.1102,0.9496,-0.0904,-0.1428,160
5,-0.7632,0.1153,0.1194,0.9485,-0.1068,-0.1428,160
5,-0.7397,0.1143,0.1112,0.9353,-0.1329,-0.1384,160
5,-0.7255,0.1143,0.1071,0.9353,-0.157,-0.1406,160
5,-0.7275,0.1132,0.1,0.9353,-0.157,-0.1406,160
5,-0.7347,0.1326,0.103,0.954,-0.1755,-0.1428,160
5,-0.7347,0.1326,0.103,0.9822,-0.1984,-0.1373,160
5,-0.7316,0.153,0.1224,0.991,-0.2224,-0.1286,160
5,-0.7306,0.1642,0.1234,0.9834,-0.2453,-0.1133,160
5,-0.7224,0.2142,0.151,0.967,-0.2714,-0.0925,160
5,-0.7234,0.2745,0.1908,0.9246,-0.2779,-0.0925,160
5,-0.701,0.3184,0.2081,0.8668,-0.2844,-0.0948,160
6,-0.704,0.3479,0.2101,0.7729,-0.255,-0.0959,160
6,-0.702,0.3857,0.2224,0.6617,-0.2321,-0.0937,160
6,-0.7092,0.3846,0.2092,0.6617,-0.2321,-0.0937,160
6,-0.7092,0.3846,0.2092,0.5287,-0.2125,-0.0992,160
6,-0.7377,0.3306,0.1918,0.3794,-0.1852,-0.1449,160
6,-0.7357,0.299,0.1296,0.3302,-0.1732,-0.1482,160
6,-0.7551,0.2979,0.1326,0.3193,-0.11,-0.1482,160
6,-0.7795,0.2949,0.1439,0.2659,-0.0828,-0.1264,160
6,-0.7592,0.2673,0.1622,0.1798,-0.0894,-0.1112,160
6,-0.7693,0.2133,0.1877,0.1396,-0.0599,-0.1013,160
6,-0.7938,0.2092,0.2714,0.1493,-0.0065,-0.0763,160
6,-0.8265,0.1959,0.2928,0.1396,0.0795,-0.0501,160
6,-0.8612,0.2173,0.3112,0.1396,0.0795,-0.0501,160
6,-0.8612,0.2173,0.3112,0.1057,0.1623,-0.0217,160
6,-0.9255,0.2388,0.2693,0.0654,0.2507,0.0087,160
6,-0.9806,0.2888,0.2296,0.0643,0.3685,0.0272,160
6,-1.0622,0.3459,0.1847,0.0435,0.4982,-0.0152,160
6,-1.1153,0.353,0.1194,0.0131,0.5658,-0.0523,160
6,-1.201,0.3683,0.1908,-0.1047,0.6345,-0.0828,160
6,-1.2643,0.2561,0.202,-0.3717,0.6323,-0.085,160
6,-1.3591,0.1571,0.2367,-0.52,0.6083,-0.0305,160
6,-1.4347,0.105,0.2673,-0.5156,0.6541,0.0021,160
6,-1.4633,0.001,0.3,-0.5156,0.6541,0.0021,160
6,-1.5541,-0.0367,0.2786,-0.5429,0.7152,0.0294,160
6,-1.5541,-0.0367,0.2786,-0.5822,0.7174,0.1198,160
6,-1.5581,-0.053,0.3112,-0.6356,0.7152,0.1155,160
6,-1.6439,-0.1612,0.2071,-0.7272,0.6028,0.1438,160
6,-1.5051,-0.2326,0.2133,-0.8166,0.399,0.1242,160
6,-1.5306,-0.3582,0.2071,-0.8775,0.2693,0.0065,160
6,-1.5541,-0.5867,0.2071,-0.785,0.1024,0.0959,160
6,-1.5153,-0.6663,0.1938,-0.4589,-0.0196,0.1984,160
6,-1.6337,-0.4724,0.2061,-0.0217,-0.0894,0.1591,160
6,-1.4326,-0.301,0.1898,-0.0217,-0.0894,0.1591,160
6,-1.4316,0.0908,0.249,0.2562,-0.1581,0.098,160
6,-1.4316,0.0908,0.249,0.3128,-0.267,0.1623,160
6,-1.2765,0.1306,0.2714,0.1744,-0.4229,0.1984,160
6,-1.1592,0.454,0.251,0.0381,-0.4633,0.1493,160
6,-1.15,0.2949,0.2581,-0.1396,-0.5091,0.0294,161
6,-0.8806,0.5306,0.2826,-0.2737,-0.4851,-0.0053,161
6,-0.8398,0.5255,0.2459,-0.4884,-0.4012,-0.0925,161
6,-0.7898,0.5357,0.2469,-0.7327,-0.35,-0.0828,161
6,-0.7898,0.4561,0.1857,-0.7327,-0.35,-0.0828,161
6,-0.7898,0.4561,0.1857,-1.0074,-0.3183,-0.0174,161
6,-0.6928,0.2765,0.0836,-1.2832,-0.3216,0.0021,161
6,-0.6928,0.2765,0.0836,-1.4828,-0.3073,-0.0162,161
6,-0.6735,0.2,0.0571,-1.5459,-0.2714,-0.0294,161
6,-0.6581,0.0969,0.0031,-1.5448,-0.2321,-0.0425,161
6,-0.6928,0.0755,-0.0092,-1.5536,-0.2213,-0.0425,161
6,-0.6949,0.0428,-0.0143,-1.6277,-0.2485,-0.0828,161
6,-0.6826,-0.051,-0.0388,-1.619,-0.2725,-0.0294,161
6,-0.6887,-0.0826,-0.0071,-1.5448,-0.2474,-0.0511,161
6,-0.6571,-0.1592,0.0173,-1.4773,-0.2245,-0.1449,161
6,-0.703,-0.2734,0.0,-1.4773,-0.2245,-0.1449,161
6,-0.703,-0.2734,0.0,-1.5297,-0.1864,-0.1297,161
6,-0.7194,-0.2673,-0.0673,-1.5601,-0.1678,-0.1089,161
6,-0.7428,-0.2888,-0.1275,-1.5013,-0.1613,-0.086,161
6,-0.7296,-0.3173,-0.1306,-1.28,-0.2354,-0.0664,161
6,-0.751,-0.3071,-0.1673,-1.1142,-0.2485,-0.0589,161
6,-0.7499,-0.2714,-0.1877,-1.0128,-0.2888,-0.0457,161
6,-0.7653,-0.2786,-0.1755,-0.9473,-0.3456,-0.0555,161
6,-0.7704,-0.2755,-0.151,-0.9321,-0.3729,-0.0621,161
6,-0.7938,-0.3,-0.1367,-0.8897,-0.3445,-0.0523,161
6,-0.8357,-0.2908,-0.1479,-0.8897,-0.3445,-0.0523,161
6,-0.8357,-0.2908,-0.1479,-0.7544,-0.3041,-0.0206,161
6,-0.8418,-0.3051,-0.1173,-0.6574,-0.2954,-0.0196,161
6,-0.85,-0.3336,-0.0918,-0.5593,-0.2649,-0.0272,161
6,-0.8632,-0.3061,-0.0867,-0.4502,-0.2518,-0.0185,161
6,-0.8663,-0.3245,-0.0643,-0.3946,-0.2289,-0.012,161
6,-0.8714,-0.3306,-0.0581,-0.3216,-0.1581,0.0131,161
6,-0.8826,-0.2857,-0.1,-0.1526,-0.0425,0.1123,161
6,-0.8837,-0.2734,-0.101,-0.0818,0.0,0.1667,161
6,-0.9092,-0.2347,-0.103,-0.0097,0.036,0.231,161
6,-0.9796,-0.1949,-0.0887,0.0719,0.0479,0.3052,161
6,-1.0132,-0.1938,-0.0622,0.0719,0.0479,0.3052,161
6,-1.0132,-0.1938,-0.0622,0.181,0.0337,0.3848,161
6,-1.2336,-0.1408,0.0918,0.3314,0.1123,0.4546,161
6,-1.2336,-0.1408,0.0918,0.1581,0.3717,0.4197,161
6,-1.3152,-0.1224,0.2367,0.0784,0.4382,0.4034,161
6,-1.4224,-0.1714,0.2357,0.0818,0.483,0.4252,161
6,-1.5092,-0.1428,0.2071,0.1438,0.5135,0.4034,161
6,-1.6775,-0.1234,0.2908,0.1798,0.5593,0.3248,161
6,-1.8796,-0.0704,0.3091,0.2747,0.5429,0.2659,161
6,-1.853,0.0183,0.3367,0.2966,0.4023,0.1657,161
6,-1.7499,0.0612,0.2122,0.2966,0.4023,0.1657,161
6,-1.7499,0.0612,0.2122,0.1907,0.1852,0.0534,161
6,-1.5591,0.0265,0.2449,0.1003,-0.0511,-0.0686,161
6,-1.4132,-0.0979,0.2704,0.1167,-0.1657,-0.2016,161
6,-1.2255,-0.1551,0.3694,0.1776,-0.2039,-0.2453,161
6,-1.0418,-0.3347,0.4102,0.1886,-0.2093,-0.2388,161
6,-0.9601,-0.3867,0.4061,0.2594,-0.1581,-0.182,161
6,-0.9214,-0.4112,0.3959,0.4023,-0.0349,-0.0959,161
6,-0.9449,-0.355,0.3316,0.5669,0.0784,-0.0839,161
6,-0.9306,-0.2377,0.2101,0.6869,0.2136,-0.1406,161
6,-1.0051,-0.1979,0.1663,0.6869,0.2136,-0.1406,161
6,-1.0224,-0.153,0.1439,0.8067,0.2954,-0.1318,161
6,-1.0224,-0.153,0.1439,0.8973,0.3063,-0.1188,161
6,-1.0847,-0.0928,0.1173,0.9136,0.2737,-0.1449,161
6,-1.0693,-0.1091,0.0857,0.9376,0.1951,-0.1461,161
6,-1.0408,-0.1,0.0724,1.0357,0.1537,-0.1417,161
6,-1.0255,-0.0632,0.0877,1.1371,0.1264,-0.1329,161
6,-0.9633,0.0408,0.105,1.1501,0.0545,-0.1068,161
6,-0.9071,0.0163,0.101,1.0935,-0.024,-0.1003,161
6,-0.8336,0.0234,0.0765,1.1131,-0.0828,-0.0828,161
6,-0.7612,0.0673,0.0724,1.1131,-0.0828,-0.0828,161
6,-0.7224,0.1061,0.0734,1.1611,-0.0969,-0.0894,161
6,-0.7224,0.1061,0.0734,1.1764,-0.1198,-0.1013,161
6,-0.7234,0.105,0.0581,1.1513,-0.1526,-0.1198,161
6,-0.6796,0.103,0.0704,1.1513,-0.1951,-0.1449,161
6,-0.6785,0.1439,0.0796,1.1611,-0.2191,-0.1657,161
6,-0.6735,0.15,0.0918,1.1556,-0.2529,-0.1907,161
7,-0.6755,0.1653,0.1091,1.1251,-0.2888,-0.2159,161
7,-0.6683,0.1469,0.1346,1.1196,-0.3085,-0.2442,161
7,-0.6785,0.1744,0.1581,1.1196,-0.3085,-0.2442,161
7,-0.6724,0.2153,0.2101,1.1316,-0.3041,-0.2583,161
7,-0.7051,0.2142,0.1898,1.123,-0.2888,-0.267,161
7,-0.7051,0.2142,0.1898,1.0772,-0.2867,-0.2638,161
7,-0.7071,0.252,0.2367,1.0215,-0.2682,-0.2518,161
7,-0.7133,0.2867,0.2551,0.9528,-0.231,-0.2268,161
7,-0.752,0.3387,0.2275,0.8929,-0.2049,-0.2115,161
7,-0.7561,0.3439,0.2397,0.8056,-0.1787,-0.2354,161
7,-0.7643,0.3265,0.2153,0.7337,-0.1711,-0.2354,161
7,-0.7561,0.3673,0.1938,0.7075,-0.1167,-0.2344,161
7,-0.7786,0.3582,0.2336,0.6367,-0.0599,-0.2376,161
7,-0.7683,0.3582,0.2571,0.6367,-0.0599,-0.2376,161
7,-0.7683,0.3582,0.2571,0.5658,-0.0316,-0.1864,161
7,-0.7755,0.3582,0.2745,0.4992,0.0272,-0.1515,161
7,-0.7806,0.3643,0.3061,0.412,0.0959,-0.1188,161
7,-0.8081,0.3612,0.3193,0.3151,0.1798,-0.0774,161
7,-0.8663,0.3632,0.2918,0.2256,0.2737,-0.037,161
7,-0.9142,0.3663,0.2571,0.1362,0.3729,-0.0087,161
7,-0.9765,0.3785,0.2449,0.0523,0.4731,0.0053,161
7,-1.1744,0.3704,0.2377,-0.0402,0.556,-0.0065,161
7,-1.299,0.3408,0.2653,-0.1613,0.6367,-0.0294,161
7,-1.5031,0.2836,0.2898,-0.1613,0.6367,-0.0294,161
7,-1.5031,0.2836,0.2898,-0.2911,0.6705,-0.0032,161
7,-1.6377,0.2479,0.2806,-0.4153,0.6585,0.0272,161
7,-1.7499,0.1918,0.2347,-0.5516,0.6345,0.0446,161
7,-1.7388,0.1326,0.2571,-0.7293,0.5789,0.0446,161
7,-1.7265,0.0286,0.2224,-0.9082,0.5026,0.0414,161
7,-1.6153,-0.2326,0.153,-1.04,0.4208,-0.0174,161
7,-1.5663,-0.3204,0.1887,-1.0608,0.2791,-0.0589,161
7,-1.3336,-0.7459,0.2602,-1.0509,0.1274,-0.0337,161
7,-1.1265,-0.7877,0.2224,-0.9246,0.1798,0.2115,161
7,-1.2693,-0.9459,0.2449,-0.9246,0.1798,0.2115,161
7,-1.204,-0.5816,0.3428,-0.4229,0.1744,0.2725,161
7,-1.204,-0.5816,0.3428,0.3826,0.0349,0.1547,161
7,-1.1163,-0.4601,0.2949,0.5102,0.0294,-0.0141,161
7,-1.2,-0.2326,0.4265,0.5778,-0.1232,0.085,161
7,-1.0816,0.051,0.3479,0.5179,-0.1602,0.098,161
7,-1.1541,0.1285,0.3071,0.3434,-0.1951,0.0643,161
7,-1.0367,0.1918,0.25,0.2976,-0.2344,0.0282,161
7,-0.9897,0.3306,0.2714,0.2539,-0.1711,0.0087,161
7,-0.9235,0.452,0.352,0.2539,-0.1711,0.0087,161
7,-0.9112,0.5551,0.3173,0.1581,-0.1449,0.0392,161
7,-0.7979,0.6632,0.3286,-0.0545,-0.1079,0.1003,161
7,-0.7979,0.6632,0.3286,-0.4633,-0.1112,0.1035,161
7,-0.8469,0.4734,0.2418,-0.9267,-0.1308,0.1167,161
7,-0.7347,0.3694,0.2101,-1.2472,-0.1581,0.0959,161
7,-0.7367,0.2847,0.1296,-1.3901,-0.1035,0.0664,161
7,-0.7285,0.1571,0.0867,-1.4358,-0.0555,0.0305,161
7,-0.7683,0.0928,0.0336,-1.4761,-0.0076,0.0152,161
7,-0.7765,0.0551,0.0092,-1.4805,-0.0228,0.0337,161
7,-0.7693,0.1285,0.0275,-1.4805,-0.0228,0.0337,161
7,-0.7693,0.1285,0.0275,-1.5285,-0.0435,0.0065,161
7,-0.6949,0.0071,-0.0214,-1.5339,-0.1167,0.086,161
7,-0.8448,-0.0836,-0.052,-1.5089,-0.1221,0.0621,161
7,-0.7847,-0.1061,-0.0388,-1.3792,-0.1198,-0.0076,161
7,-0.8837,-0.1449,-0.0428,-1.4183,-0.1864,0.0053,161
7,-0.8306,-0.1296,-0.0234,-1.4195,-0.2583,-0.0021,161
7,-0.8775,-0.1796,-0.0286,-1.3956,-0.2693,-0.0577,161
7,-0.85,-0.2847,-0.0092,-1.3912,-0.3008,-0.0381,161
7,-0.8714,-0.2194,-0.0622,-1.3966,-0.2594,0.0011,161
7,-0.8347,-0.2683,-0.0643,-1.3966,-0.2594,0.0011,161
7,-0.8347,-0.2683,-0.0643,-1.3105,-0.2464,-0.0381,161
7,-0.8224,-0.2622,-0.1408,-1.2712,-0.2485,-0.0206,161
7,-0.799,-0.2673,-0.1806,-1.099,-0.3008,0.024,161
7,-0.8112,-0.2704,-0.1928,-0.9561,-0.35,0.0631,161
7,-0.8143,-0.2602,-0.1816,-0.8809,-0.3979,0.1024,161
7,-0.8143,-0.2316,-0.1449,-0.7577,-0.4197,0.1526,161
7,-0.8816,-0.1612,-0.1173,-0.7489,-0.3085,0.193,161
7,-0.902,-0.1408,-0.1367,-0.6749,-0.2518,0.2093,161
7,-0.9183,-0.1245,-0.1418,-0.653,-0.2474,0.2104,161
7,-0.9428,-0.1489,-0.1143,-0.665,-0.2562,0.1919,161
7,-0.9653,-0.1837,-0.105,-0.6857,-0.2573,0.1766,161
7,-0.9775,-0.2408,-0.0826,-0.6857,-0.2573,0.1766,161
7,-0.9806,-0.3275,-0.0591,-0.6629,-0.2388,0.1678,161
7,-0.9622,-0.3694,-0.052,-0.6051,-0.1711,0.1701,161
7,-0.9622,-0.3694,-0.052,-0.5528,-0.0719,0.1907,161
7,-0.9857,-0.403,-0.0928,-0.5059,0.012,0.2495,161
7,-0.9949,-0.4122,-0.1204,-0.4153,0.0326,0.3205,161
7,-0.9694,-0.4224,-0.1449,-0.3031,0.0751,0.3794,161
7,-0.9796,-0.3816,-0.1479,-0.0948,0.1188,0.4143,161
7,-0.9724,-0.353,-0.1,0.1209,0.1341,0.4655,161
7,-1.105,-0.4071,-0.0326,0.2081,0.1264,0.5341,161
7,-1.1735,-0.5377,0.2745,0.4677,0.1297,0.6454,161
7,-1.3173,-0.1153,0.4235,0.4677,0.1297,0.6454,161
7,-1.4857,-0.1724,0.1112,0.8929,0.5625,0.7806,161
7,-1.4857,-0.1724,0.1112,0.6127,0.6988,0.64,161
7,-1.5847,-0.0286,0.3214,0.5702,0.6171,0.4775,161
7,-1.7499,-0.0204,0.2612,0.5984,0.5385,0.3783,161
7,-1.6765,0.204,0.3081,0.6476,0.4077,0.182,161
7,-1.5214,0.1561,0.4194,0.5221,0.23,-0.0174,161
7,-1.3561,0.0857,0.4092,0.3085,0.0818,-0.1449,161
7,-1.3387,-0.0132,0.3745,0.2365,0.0305,-0.2289,161
7,-1.1969,-0.1112,0.3949,0.2954,0.0686,-0.2617,161
7,-1.1969,-0.1112,0.3949,0.2954,0.0686,-0.2617,161
7,-1.1887,-0.1949,0.3755,0.3521,0.1232,-0.2562,161
7,-1.1612,-0.2693,0.3214,0.3729,0.157,-0.2562,161
7,-1.1561,-0.3051,0.2367,0.4721,0.1842,-0.2147,161
7,-1.1143,-0.3091,0.1806,0.6083,0.2201,-0.1776,161
7,-1.0989,-0.2092,0.102,0.7337,0.2388,-0.1591,161
7,-1.0857,-0.1847,0.0704,0.858,0.2321,-0.1591,161
7,-1.0847,-0.1173,0.0684,0.9626,0.2027,-0.1635,161
7,-1.051,-0.0173,0.0796,1.0041,0.1537,-0.1711,161
7,-1.0193,0.002,0.0826,0.9834,0.0937,-0.1755,161
7,-0.9704,-0.0031,0.0867,0.9834,0.0937,-0.1755,161
7,-0.9704,-0.0031,0.0867,0.9725,0.0457,-0.1766,161
7,-0.9367,0.0163,0.0847,0.9921,0.0261,-0.1667,161
7,-0.8796,0.0857,0.0908,0.9822,0.0,-0.1449,161
7,-0.8541,0.0836,0.0714,0.9387,-0.0316,-0.1471,161
8,-0.8245,0.0612,0.0438,0.9311,-0.0599,-0.1613,161
8,-0.7755,0.053,0.0275,0.9594,-0.086,-0.1581,161
8,-0.7347,0.0622,0.0265,0.979,-0.1242,-0.157,161
8,-0.704,0.0541,0.0214,0.9986,-0.1613,-0.1558,161
8,-0.6744,0.0622,0.0092,1.0467,-0.1919,-0.1493,161
8,-0.6408,0.1091,0.0224,1.0467,-0.1919,-0.1493,161
8,-0.6255,0.1265,0.0347,1.0816,-0.2213,-0.1471,161
8,-0.6255,0.1265,0.0347,1.0837,-0.2714,-0.1417,161
8,-0.6132,0.1234,0.0428,1.0641,-0.3117,-0.1428,161
8,-0.5948,0.1408,0.0765,1.0673,-0.3456,-0.1449,161
8,-0.602,0.1887,0.1091,1.0761,-0.3663,-0.1396,161
8,-0.6091,0.201,0.1469,1.0488,-0.3761,-0.1373,161
8,-0.6275,0.2194,0.1847,1.0063,-0.3717,-0.1362,161
8,-0.6551,0.3316,0.251,0.9561,-0.3456,-0.1384,161
8,-0.7438,0.3428,0.2296,0.8634,-0.3117,-0.1438,161
8,-0.7418,0.3857,0.2795,0.8634,-0.3117,-0.1438,161
8,-0.8489,0.4357,0.2459,0.7304,-0.2966,-0.1526,161
8,-0.8489,0.4357,0.2459,0.6323,-0.2758,-0.1373,161
8,-0.8837,0.4601,0.2428,0.5374,-0.2376,-0.1667,161
8,-0.9449,0.4428,0.2245,0.3979,-0.2115,-0.1864,161
8,-0.954,0.4398,0.2101,0.2954,-0.2234,-0.1972,161
8,-0.952,0.4132,0.2316,0.2278,-0.1657,-0.23,161
8,-0.9428,0.4194,0.2438,0.1449,-0.11,-0.1995,161
8,-0.9265,0.4132,0.2438,0.0131,-0.0631,-0.1537,161
8,-0.903,0.3785,0.25,0.0131,-0.0631,-0.1537,161
8,-0.903,0.3785,0.25,-0.1341,0.0108,-0.1449,161
8,-0.9132,0.2847,0.2449,-0.242,0.0925,-0.1232,161
8,-0.9418,0.2438,0.2153,-0.3161,0.1951,-0.1024,161
8,-0.9918,0.2153,0.1887,-0.3357,0.3008,-0.0937,161
8,-1.0898,0.1724,0.1449,-0.3357,0.3979,-0.0969,161
8,-1.1326,0.1551,0.1459,-0.338,0.4633,-0.1068,161
8,-1.1724,0.1194,0.1255,-0.339,0.4992,-0.1221,161
8,-1.1959,0.0887,0.1091,-0.3216,0.5221,-0.1318,161
8,-1.1857,0.0459,0.1357,-0.2539,0.556,-0.11,161
8,-1.2051,0.0377,0.1632,-0.2539,0.556,-0.11,161
8,-1.2051,0.0377,0.1632,-0.2104,0.6213,-0.098,161
8,-1.252,0.0398,0.151,-0.1842,0.653,-0.0294,161
8,-1.2888,0.1194,0.1714,-0.2016,0.6869,0.025,161
8,-1.299,0.1173,0.2204,-0.3292,0.6803,0.0675,161
8,-1.2836,0.0388,0.2714,-0.5255,0.6312,0.1133,161
8,-1.3286,-0.0418,0.2979,-0.6333,0.6138,0.1232,161
8,-1.3714,-0.1847,0.3316,-0.6476,0.6028,0.1537,161
8,-1.3439,-0.2214,0.3775,-0.6432,0.5549,0.1732,161
8,-1.3663,-0.2673,0.3571,-0.6791,0.4742,0.1253,161
8,-1.3887,-0.3857,0.3653,-0.6791,0.4742,0.1253,161
8,-1.4255,-0.5214,0.3132,-0.6978,0.3401,0.0806,161
8,-1.4255,-0.5214,0.3132,-0.6345,0.2125,0.0948,161
8,-1.4377,-0.403,0.249,-0.4536,0.1341,0.1678,161
8,-1.4337,-0.355,0.2234,-0.2104,0.0872,0.169,161
8,-1.4183,-0.0806,0.2061,-0.074,0.0043,0.1962,161
8,-1.4061,0.0163,0.1928,-0.1003,-0.0915,0.2278,161
8,-1.3245,0.1949,0.1979,-0.1776,-0.1842,0.2703,161
8,-1.1755,0.3306,0.1857,-0.3063,-0.2333,0.1701,161
8,-1.0652,0.3612,0.2122,-0.4971,-0.2256,0.1264,161
8,-0.9745,0.3704,0.2183,-0.4971,-0.2256,0.1264,161
8,-0.9653,0.3673,0.1602,-0.689,-0.2256,0.098,161
8,-0.9653,0.3673,0.1602,-0.8907,-0.206,0.0631,161
8,-0.8622,0.2877,0.1296,-1.1098,-0.1831,0.0076,161
8,-0.851,0.2,0.0724,-1.2613,-0.1678,-0.0206,161
8,-0.7581,0.1469,0.0643,-1.342,-0.1482,-0.0326,161
8,-0.7571,0.0806,0.0214,-1.3824,-0.1167,-0.0446,161
8,-0.6847,-0.0132,-0.05,-1.4227,-0.1112,-0.0806,161
8,-0.6796,-0.0541,-0.0377,-1.3639,-0.1089,-0.0501,161
8,-0.6877,-0.0408,-0.0459,-1.2319,-0.0894,-0.0763,161
8,-0.6694,-0.101,-0.0275,-1.2319,-0.0894,-0.0763,161
8,-0.6153,-0.1408,-0.0316,-1.2319,-0.0894,-0.0763,161
8,-0.6153,-0.1408,-0.0316,-1.1796,-0.0555,-0.1264,161
8,-0.5857,-0.1245,-0.0826,-1.3889,-0.036,-0.11,161
8,-0.6337,-0.1806,-0.1541,-1.3508,-0.086,-0.1068,161
8,-0.6796,-0.1887,-0.1642,-1.1862,-0.1329,-0.11,161
8,-0.65,-0.1337,-0.1857,-0.9507,-0.1308,-0.0937,161
8,-0.7153,-0.1837,-0.1622,-0.9267,-0.2529,-0.1112,161
8,-0.7224,-0.1867,-0.1744,-0.9267,-0.2529,-0.1112,161
8,-0.7826,-0.2153,-0.2214,-0.8874,-0.3041,-0.1242,161
8,-0.8071,-0.2347,-0.2163,-0.8874,-0.3041,-0.1242,161
8,-0.9367,-0.2531,-0.1612,-0.7947,-0.4012,-0.1024,161
8,-0.9112,-0.3143,-0.1091,-0.7947,-0.4012,-0.1024,161
8,-0.9836,-0.3591,-0.0836,-0.7184,-0.4982,-0.086,161
8,-0.9836,-0.3591,-0.0836,-0.6944,-0.4458,-0.0545,161
8,-0.9581,-0.3336,-0.103,-0.5124,-0.388,0.0305,161
8,-0.9428,-0.3336,-0.1387,-0.5124,-0.388,0.0305,161
8,-0.8877,-0.3439,-0.1439,-0.4643,-0.3685,0.073,161
8,-0.8602,-0.3316,-0.1377,-0.2507,-0.3542,0.1417,161
8,-0.8306,-0.2918,-0.101,-0.0959,-0.3008,0.1864,161
8,-0.8428,-0.2704,-0.0847,-0.0032,-0.242,0.2268,161
8,-0.8582,-0.2643,-0.0755,-0.0032,-0.242,0.2268,161
8,-0.8673,-0.2602,-0.0693,-0.0032,-0.242,0.2268,161
8,-0.9592,-0.2285,-0.0786,0.0206,-0.1864,0.2856,161
8,-0.9592,-0.2285,-0.0786,0.0969,-0.1024,0.3609,161
8,-1.0275,-0.1969,-0.0734,0.3302,0.0435,0.5341,161
8,-1.0867,-0.1724,-0.0724,0.4742,0.0719,0.6596,161
8,-1.1418,0.2469,0.1326,0.4742,0.0719,0.6596,161
8,-1.1816,0.0275,0.0602,0.4393,0.11,0.785,161
8,-1.2847,-0.0092,-0.0438,0.1329,0.3761,0.5341,161
8,-1.2602,0.001,0.052,0.1329,0.3761,0.5341,161
8,-1.5204,-0.1316,0.0948,0.1329,0.3761,0.5341,161
8,-1.5204,-0.1316,0.0948,0.2005,0.5385,0.4393,161
8,-1.5643,-0.1398,0.1694,0.2005,0.5385,0.4393,161
8,-1.6245,-0.1703,0.153,0.2966,0.556,0.3838,161
8,-1.5796,-0.0469,0.2153,0.483,0.4502,0.2693,161
8,-1.5571,0.0265,0.2408,0.483,0.4502,0.2693,161
8,-1.4653,0.0684,0.2551,0.4349,0.2398,0.1112,161
8,-1.3377,0.0306,0.2449,0.4349,0.2398,0.1112,161
8,-1.1571,-0.1143,0.2449,0.3063,0.0992,0.0152,161
8,-1.1561,-0.1255,0.2959,0.3248,0.0523,-0.086,161
8,-1.2133,-0.1082,0.3122,0.3248,0.0523,-0.086,161
8,-1.2133,-0.1082,0.3122,0.4818,0.0915,-0.1526,161
8,-1.2397,-0.204,0.3418,0.5713,0.1242,-0.242,161
8,-1.2908,-0.2857,0.2826,0.5713,0.1242,-0.242,161
8,-1.2551,-0.3132,0.2745,0.5713,0.1308,-0.2594,161
9,-1.2979,-0.3112,0.201,0.8252,0.1503,-0.231,161
9,-1.2347,-0.2663,0.1071,0.8252,0.1503,-0.231,161
9,-1.2163,-0.1816,0.0857,1.1459,0.1329,-0.1657,161
9,-1.1683,-0.0867,0.0786,1.1459,0.1329,-0.1657,161
9,-1.1214,-0.0275,0.0602,1.2352,0.0675,-0.1482,161
9,-1.0286,0.1357,0.0857,1.2352,0.0675,-0.1482,161
9,-0.9949,0.1735,0.101,1.2854,0.0097,-0.1438,161
9,-0.9949,0.1735,0.101,1.3137,-0.0457,-0.1537,161
9,-0.9551,0.2081,0.1143,1.2527,-0.0818,-0.1581,161
9,-0.8806,0.2367,0.1041,1.2527,-0.0818,-0.1581,161
9,-0.8489,0.2326,0.1,1.1524,-0.1188,-0.1591,161
9,-0.8163,0.2347,0.1061,1.0793,-0.1396,-0.1657,161
9,-0.7826,0.2204,0.1194,1.0183,-0.1428,-0.182,161
9,-0.7469,0.151,0.0908,0.9038,-0.1776,-0.2224,161
9,-0.7285,0.1306,0.0775,0.9038,-0.1776,-0.2224,161
9,-0.7224,0.1326,0.0693,0.9038,-0.1776,-0.2224,161
9,-0.6979,0.1469,0.0786,0.9212,-0.1875,-0.2344,161
9,-0.6979,0.1469,0.0786,0.9528,-0.1984,-0.2409,161
9,-0.6561,0.1439,0.0724,0.942,-0.2245,-0.2495,161
9,-0.6592,0.1306,0.0541,0.9605,-0.2899,-0.2398,161
9,-0.6183,0.1867,0.0969,0.9605,-0.2899,-0.2398,161
9,-0.6163,0.2081,0.1132,0.9681,-0.2867,-0.255,161
9,-0.601,0.1877,0.1041,0.9353,-0.3237,-0.2518,161
9,-0.5939,0.1928,0.1296,0.8973,-0.3314,-0.2539,161
9,-0.5969,0.2612,0.1724,0.8973,-0.3314,-0.2539,161
9,-0.5836,0.301,0.2071,0.9038,-0.2725,-0.2464,161
9,-0.6173,0.3122,0.1744,0.9038,-0.2725,-0.2464,161
9,-0.6173,0.3122,0.1744,0.8525,-0.2344,-0.2365,161
9,-0.6234,0.3459,0.2163,0.7861,-0.181,-0.2224,161
9,-0.6959,0.3877,0.2142,0.7086,-0.11,-0.2136,161
9,-0.751,0.3989,0.2142,0.4982,-0.0162,-0.1701,161
9,-0.8,0.4153,0.2112,0.4982,-0.0162,-0.1701,161
9,-0.8459,0.355,0.2285,0.3532,0.0206,-0.1896,161
9,-0.9408,0.3306,0.2479,0.2365,0.0577,-0.1962,161
9,-0.9785,0.3316,0.2449,0.2016,0.0708,-0.1417,161
9,-1.0275,0.3306,0.2551,0.2016,0.0708,-0.1417,161
9,-1.0275,0.3306,0.2551,0.1167,0.1537,-0.1057,161
9,-1.0591,0.3663,0.2316,0.1167,0.1537,-0.1057,161
9,-1.0622,0.3979,0.2306,0.085,0.2016,-0.0818,161
9,-1.0775,0.4255,0.203,0.0392,0.2562,-0.0621,161
9,-1.0663,0.4438,0.1592,-0.0534,0.2976,-0.0326,161
9,-1.0663,0.4438,0.1592,-0.0534,0.2976,-0.0326,161
9,-1.0826,0.3643,0.1306,-0.3445,0.4034,0.0457,161
9,-1.0948,0.2214,0.1561,-0.5385,0.4361,0.0654,161
9,-1.3163,0.1091,0.201,-0.6606,0.4731,0.0818,161
9,-1.401,0.1775,0.2234,-0.6606,0.4731,0.0818,161
9,-1.401,0.1775,0.2234,-0.6301,0.5789,0.1308,161
9,-1.4367,0.1,0.1857,-0.7403,0.6803,0.2442,161
9,-1.5255,0.0541,0.1316,-0.7403,0.6803,0.2442,161
9,-1.5031,-0.1255,0.1337,-0.8558,0.6257,0.2779,161
9,-1.5143,-0.2255,0.1653,-0.9582,0.6116,0.2539,161
9,-1.5286,-0.2898,0.1694,-0.9594,0.5287,0.2649,161
9,-1.5234,-0.4051,0.2571,-0.8798,0.4252,0.2638,161
9,-1.5214,-0.6642,0.2745,-0.8132,0.3434,0.1919,161
9,-1.5939,-0.4877,0.2734,-0.7435,0.2289,0.2354,161
9,-1.6887,-0.551,0.2204,-0.7435,0.2289,0.2354,161
9,-1.6367,-0.3336,0.2622,-0.6312,0.1297,0.3924,161
9,-1.6367,-0.3336,0.2622,-0.4393,-0.0162,0.3357,161
9,-1.6775,-0.1775,0.2245,-0.2376,-0.1188,0.2583,161
9,-1.605,-0.0643,0.2142,-0.1133,-0.231,0.2617,161
9,-1.4938,0.0306,0.2367,-0.0948,-0.3695,0.2333,161
9,-1.2153,0.3489,0.1703,-0.1711,-0.4666,0.2256,161
9,-1.0673,0.2959,0.2071,-0.2388,-0.5669,0.1558,161
9,-0.9714,0.3347,0.2224,-0.4153,-0.5822,0.025,161
9,-0.8091,0.2918,0.203,-0.4153,-0.5822,0.025,161
9,-0.7571,0.2724,0.1887,-0.5931,-0.5385,-0.012,161
9,-0.7571,0.2724,0.1887,-0.7544,-0.5276,-0.0206,161
9,-0.7397,0.2214,0.1449,-0.9082,-0.471,-0.0282,161
9,-0.6744,0.1928,0.1255,-1.0477,-0.4187,-0.0349,161
9,-0.5847,0.1163,0.0449,-1.1993,-0.35,-0.0152,161
9,-0.5398,0.0193,-0.0061,-1.2232,-0.2976,-0.0294,161
9,-0.5438,0.0336,-0.0336,-1.2079,-0.2682,-0.0108,161
9,-0.4918,0.0326,0.0,-1.1633,-0.2539,0.0152,161
9,-0.5612,0.0265,-0.0357,-1.1688,-0.218,-0.0108,161
9,-0.5092,0.0295,-0.0357,-1.1894,-0.2256,0.0097,161
9,-0.5367,0.0061,-0.0408,-1.1884,-0.2333,-0.0053,161
9,-0.5418,0.0214,-0.05,-1.1884,-0.2333,-0.0053,161
9,-0.5479,0.0316,-0.0663,-1.1491,-0.1787,-0.0282,161
9,-0.5479,0.0316,-0.0663,-1.1611,-0.1547,-0.0414,161
9,-0.6551,-0.0143,-0.1041,-1.2254,-0.1297,-0.086,161
9,-0.7071,-0.1183,-0.1112,-1.2712,-0.1221,-0.1635,161
9,-0.7898,-0.1173,-0.1489,-1.3029,-0.1167,-0.231,161
9,-0.8265,-0.1928,-0.1857,-1.3868,-0.1396,-0.2224,161
9,-0.9561,-0.303,-0.204,-1.292,-0.2027,-0.2409,161
9,-0.9908,-0.351,-0.153,-1.1415,-0.3271,-0.2289,161
9,-1.0367,-0.3857,-0.0989,-1.0564,-0.4404,-0.2147,161
9,-1.0459,-0.4255,-0.0591,-1.0564,-0.4404,-0.2147,161
9,-1.0734,-0.35,-0.051,-0.9246,-0.4971,-0.1798,161
9,-1.0734,-0.35,-0.051,-0.7327,-0.4938,-0.085,161
9,-1.0438,-0.3306,-0.0449,-0.5604,-0.4557,-0.0087,161
9,-1.0183,-0.2806,-0.0551,-0.4906,-0.3935,-0.0021,161
9,-0.9224,-0.1887,-0.0989,-0.4578,-0.338,-0.0108,161
9,-0.8949,-0.153,-0.1316,-0.4338,-0.2714,-0.0349,161
9,-0.8908,-0.1551,-0.1949,-0.4273,-0.2136,-0.049,161
9,-0.8826,-0.152,-0.1887,-0.3891,-0.2104,-0.0174,161
9,-0.8561,-0.1898,-0.102,-0.3891,-0.2104,-0.0174,161
9,-0.8541,-0.1877,-0.0724,-0.2562,-0.2802,0.0435,161
9,-0.8734,-0.2051,-0.0479,-0.1896,-0.3205,0.1112,161
9,-0.8734,-0.2051,-0.0479,-0.1678,-0.3151,0.2049,161
9,-0.9969,-0.2316,-0.0193,-0.0839,-0.2617,0.2823,161
9,-1.0632,-0.203,-0.0173,-0.0032,-0.1732,0.3609,161
9,-1.0775,-0.1703,0.2683,0.1057,-0.1035,0.4393,161
9,-1.1581,-0.2285,-0.0652,0.0217,0.1167,0.4492,161
9,-1.1653,-0.1622,-0.0786,0.073,0.2398,0.4698,161
9,-1.2806,-0.2397,0.0459,0.0631,0.2268,0.4611,161
9,-1.2918,-0.2101,0.049,0.0915,0.2867,0.3946,161
9,-1.4244,-0.1877,0.0234,0.0915,0.2867,0.3946,161
9,-1.4244,-0.1877,0.0234,0.2834,0.3914,0.4,161
9,-1.3796,-0.2265,0.0438,0.3248,0.399,0.3794,161
9,-1.3775,-0.2571,0.1,0.3794,0.3804,0.3227,161
10,-1.3857,-0.2296,0.1642,0.4807,0.3771,0.2703,161
10,-1.4775,-0.1703,0.3071,0.5919,0.3838,0.218,161
10,-1.5132,-0.1785,0.3112,0.6268,0.351,0.1503,161
10,-1.3898,-0.2122,0.3591,0.5931,0.2409,0.074,161
10,-1.3193,-0.2571,0.2663,0.581,0.11,-0.0087,161
10,-1.2071,-0.1265,0.3214,0.7621,0.0784,-0.0763,161
10,-1.153,-0.0051,0.3785,0.7621,0.0784,-0.0763,161
10,-1.153,-0.0051,0.3785,1.0019,0.1047,-0.1396,161
10,-1.1551,0.0316,0.3459,1.0532,0.098,-0.1831,161
10,-1.0255,-0.0826,0.2816,0.9288,0.0174,-0.2093,161
10,-0.9347,-0.101,0.2683,0.8078,-0.0196,-0.2278,161
10,-0.9163,-0.0775,0.2173,0.8405,0.0053,-0.2245,161
10,-0.9235,-0.0357,0.199,0.9408,0.1089,-0.2115,161
10,-0.9214,0.0265,0.1469,0.9997,0.169,-0.1842,161
10,-0.8959,0.0306,0.1346,0.9801,0.1896,-0.1613,161
10,-0.9081,0.0295,0.1102,0.9376,0.1776,-0.1461,161
10,-0.9244,0.0143,0.1112,0.9376,0.1776,-0.1461,161
10,-0.9592,0.0275,0.1132,0.942,0.1657,-0.1471,161
10,-0.9592,0.0275,0.1132,1.0128,0.1722,-0.169,161
10,-0.9755,0.053,0.1265,1.0782,0.1852,-0.1766,161
10,-0.9653,0.0765,0.1224,1.0881,0.1503,-0.1732,161
10,-0.9275,0.0734,0.0806,1.0467,0.0883,-0.1667,161
10,-0.8826,0.0581,0.0734,1.0238,0.0316,-0.1831,161
10,-0.8755,0.0714,0.0602,1.0717,0.0076,-0.2136,161
10,-0.8582,0.1755,0.0357,1.1404,0.0087,-0.2201,161
10,-0.8448,0.1346,0.0449,1.1556,-0.0174,-0.2278,161
10,-0.8224,0.1387,0.0286,1.1556,-0.0174,-0.2278,161
10,-0.803,0.1418,0.0388,1.1175,-0.0751,-0.2638,161
10,-0.803,0.1418,0.0388,1.1121,-0.1155,-0.2768,161
10,-0.752,0.1796,0.0724,1.1284,-0.1384,-0.2867,161
10,-0.7245,0.1735,0.0724,1.1272,-0.1646,-0.2911,161
10,-0.7081,0.1714,0.0775,1.0957,-0.1864,-0.3008,161
10,-0.6969,0.1969,0.0877,1.0816,-0.1907,-0.3063,161
10,-0.701,0.2296,0.1153,1.1033,-0.1831,-0.314,161
10,-0.7173,0.2459,0.1173,1.1066,-0.1711,-0.3216,161
10,-0.7296,0.2724,0.1326,1.1066,-0.1711,-0.3216,161
10,-0.7296,0.2724,0.1326,1.0728,-0.157,-0.3271,161
10,-0.7969,0.3255,0.1439,1.0292,-0.1406,-0.3336,161
10,-0.8214,0.3448,0.1703,0.9746,-0.1144,-0.3445,161
10,-0.8459,0.3255,0.1653,0.8918,-0.1079,-0.35,160
10,-0.8653,0.3582,0.1908,0.8024,-0.11,-0.3477,160
10,-0.8765,0.3377,0.2194,0.7163,-0.1003,-0.3542,160
10,-0.8898,0.3091,0.2275,0.6159,-0.0795,-0.3542,160
10,-0.8846,0.302,0.2408,0.5385,-0.074,-0.3172,160
10,-0.8867,0.2908,0.2561,0.483,-0.0272,-0.2899,160
10,-0.9102,0.2877,0.2388,0.483,-0.0272,-0.2899,160
10,-0.9102,0.2877,0.2388,0.4513,0.0131,-0.2485,160
10,-0.9071,0.2847,0.254,0.4099,0.0686,-0.2005,160
10,-0.901,0.3041,0.2479,0.3674,0.11,-0.1471,160
10,-0.9418,0.3439,0.2336,0.3073,0.1701,-0.0915,160
10,-0.9714,0.3377,0.204,0.2256,0.23,-0.0326,160
10,-0.9724,0.3439,0.1877,0.1155,0.2844,0.0316,160
10,-1.0939,0.3224,0.2265,0.0217,0.3542,0.0839,160
10,-1.2142,0.3112,0.254,-0.0599,0.4393,0.1188,160
10,-1.3704,0.3132,0.2693,-0.1547,0.5135,0.1438,160
10,-1.4551,0.3367,0.2316,-0.1547,0.5135,0.1438,160
10,-1.4051,0.3694,0.2357,-0.2354,0.5799,0.1329,160
10,-1.4051,0.3694,0.2357,-0.3183,0.6213,0.1047,160
10,-1.4653,0.2745,0.2255,-0.5015,0.6192,0.1286,160
10,-1.4694,0.05,0.1877,-0.8939,0.5658,0.1558,160
10,-1.55,-0.2408,0.1602,-1.2014,0.4536,0.1461,160
10,-1.4949,-0.3887,0.2224,-1.2483,0.424,0.0904,160
10,-1.5561,-0.6694,0.3143,-1.1382,0.3609,0.0414,160
10,-1.6091,-0.5132,0.3091,-0.9714,0.2932,0.2213,160
10,-1.7092,-0.6775,0.2336,-0.9082,0.1864,0.3891,160
10,-1.6541,-0.5867,0.1775,-0.9082,0.1864,0.3891,160
10,-1.6469,-0.4592,0.2428,-0.7773,0.0992,0.3706,160
10,-1.6469,-0.4592,0.2428,-0.4458,-0.0534,0.3019,160
10,-1.6837,-0.3051,0.2173,-0.206,-0.1493,0.2605,160
10,-1.4836,-0.0632,0.2092,-0.181,-0.471,0.1591,160
10,-1.3969,0.0193,0.2051,-0.1438,-0.557,0.1112,160
10,-1.1132,0.351,0.1785,-0.1177,-0.6333,0.0937,160
10,-1.0224,0.2173,0.2806,-0.2354,-0.6213,0.049,160
10,-0.9163,0.1979,0.1918,-0.4492,-0.6661,-0.0751,160
10,-0.8418,0.1673,0.1908,-0.64,-0.6759,-0.1024,160
10,-0.7653,0.1837,0.1642,-0.7031,-0.6268,-0.1253,160
10,-0.7112,0.1663,0.1449,-0.7413,-0.5494,-0.1232,160
10,-0.6612,0.1918,0.1173,-0.7413,-0.5494,-0.1232,160
10,-0.6612,0.1918,0.1173,-0.8144,-0.507,-0.1024,160
10,-0.6306,0.1775,0.0714,-0.8885,-0.4524,-0.0883,160
10,-0.5979,0.202,0.0602,-0.9431,-0.4023,-0.0795,160
10,-0.5836,0.1785,0.0326,-1.0194,-0.3891,-0.0643,160
10,-0.5673,0.152,0.001,-1.136,-0.3946,-0.0577,160
10,-0.5193,0.0989,-0.0092,-1.2178,-0.4034,-0.0523,160
10,-0.5071,0.0714,-0.0031,-1.2701,-0.3958,-0.0545,160
10,-0.4918,0.0306,-0.0143,-1.3203,-0.3903,-0.061,160
10,-0.5112,0.001,-0.0326,-1.3432,-0.3848,-0.0545,160
10,-0.5326,-0.0336,-0.0183,-1.3432,-0.3848,-0.0545,160
10,-0.5643,-0.0908,-0.0143,-1.3399,-0.3729,-0.0708,160
10,-0.5643,-0.0908,-0.0143,-1.2974,-0.3336,-0.1047,160
10,-0.5602,-0.1439,-0.0214,-1.305,-0.2747,-0.1177,160
10,-0.6826,-0.2531,-0.1346,-1.4402,-0.1984,-0.0839,160
10,-0.7275,-0.2224,-0.1755,-1.4838,-0.1864,-0.1123,160
10,-0.7755,-0.2888,-0.1744,-1.3988,-0.2649,-0.0501,160
10,-0.8806,-0.3132,-0.1367,-1.2298,-0.3401,-0.0282,160
10,-0.9255,-0.3561,-0.0908,-1.1121,-0.4197,-0.012,160
10,-0.9683,-0.4061,-0.0622,-1.1121,-0.4197,-0.012,160
10,-0.9918,-0.4418,-0.0602,-1.0804,-0.4906,-0.0108,160
10,-1.0081,-0.3653,-0.1398,-1.0215,-0.4731,-0.0021,160
10,-1.0081,-0.3653,-0.1398,-0.8798,-0.4044,0.0381,160
10,-0.9938,-0.3632,-0.1387,-0.7424,-0.3838,0.0599,160
10,-0.9796,-0.3785,-0.1459,-0.6268,-0.4273,0.073,160
10,-0.951,-0.3785,-0.1285,-0.5679,-0.471,0.0654,160
10,-0.9347,-0.3734,-0.0652,-0.4862,-0.4916,0.0654,160
10,-0.9203,-0.3765,-0.0469,-0.3663,-0.4731,0.086,160
10,-0.9173,-0.3755,-0.0459,-0.2954,-0.4109,0.1329,160
10,-0.9081,-0.3877,-0.0408,-0.2954,-0.4109,0.1329,160
10,-0.9081,-0.3877,-0.0408,-0.2354,-0.3434,0.193,160
10,-0.9377,-0.355,-0.0765,-0.2027,-0.2518,0.2398,160
10,-0.9377,-0.355,-0.0765,-0.1274,-0.1635,0.3117,160
11,-0.9714,-0.3408,-0.0898,-0.0469,-0.073,0.3958,160
11,-0.9888,-0.3571,-0.0591,0.0196,-0.0108,0.4557,160
11,-1.0469,-0.3887,-0.0459,0.1417,0.0555,0.5244,160
11,-1.1653,-0.5438,0.2408,0.2495,0.0719,0.5908,160
11,-1.6581,-0.3,0.2428,0.5494,0.2464,0.7031,160
11,-1.8632,-0.1673,0.3051,0.4437,0.6617,0.7293,160
11,-1.7357,-0.1806,0.2183,0.4927,0.6051,0.6759,160
11,-1.7357,-0.1806,0.2183,0.4927,0.6051,0.6759,160
11,-1.7898,-0.1,0.249,0.5974,0.5396,0.5036,160
11,-1.7081,0.4949,0.3204,0.8319,0.4469,0.4099,160
11,-1.5816,0.3448,0.5275,1.0248,0.2943,0.3838,160
11,-1.4337,0.2724,0.602,0.8122,0.0925,0.036,160
11,-1.0673,0.0132,0.4806,0.3237,-0.1558,-0.1286,160
11,-0.9061,-0.0551,0.551,0.086,-0.2932,-0.1852,160
11,-0.8612,-0.0643,0.504,0.1493,-0.1972,-0.2802,160
11,-0.8459,0.101,0.5,0.3826,-0.0763,-0.1602,160
11,-0.8959,0.0612,0.4745,0.3826,-0.0763,-0.1602,160
11,-0.8806,0.0388,0.4224,0.4153,0.0915,-0.1798,160
11,-0.8806,0.0388,0.4224,0.2529,0.2224,-0.2376,160
11,-0.9132,-0.0408,0.3184,0.1013,0.1995,-0.1842,160
11,-0.9714,-0.1245,0.2775,-0.0021,0.2768,-0.2093,160
11,-1.0367,-0.2092,0.1428,0.0349,0.3073,-0.1886,160
11,-1.0745,-0.2347,0.1571,0.1875,0.3597,-0.1798,160
11,-1.0928,-0.2194,0.1346,0.3205,0.3695,-0.194,160
11,-1.0398,-0.2245,0.101,0.4187,0.2844,-0.1667,160
11,-0.952,-0.2663,0.102,0.5189,0.2039,-0.2016,160
11,-0.953,-0.1,0.0775,0.5189,0.2039,-0.2016,160
11,-0.8939,-0.0632,0.0836,0.6345,0.1591,-0.1711,160
11,-0.8939,-0.0632,0.0836,0.785,0.1384,-0.11,160
11,-0.8184,0.0316,0.0959,0.8439,0.0872,-0.1167,160
11,-0.7377,0.0551,0.1091,0.7958,0.0217,-0.1003,160
11,-0.7326,0.0153,0.0969,0.7424,-0.0217,-0.1133,160
11,-0.6683,0.05,0.1071,0.7413,-0.0381,-0.1221,160
11,-0.6632,0.0581,0.0959,0.7751,-0.074,-0.1144,160
11,-0.6632,0.0775,0.1082,0.7915,-0.0806,-0.1167,160
11,-0.653,0.0887,0.1122,0.7991,-0.0894,-0.1112,160
11,-0.6551,0.1245,0.1153,0.7991,-0.0894,-0.1112,160
11,-0.652,0.1316,0.1234,0.7947,-0.1221,-0.0959,160
11,-0.652,0.1316,0.1234,0.7718,-0.1482,-0.086,160
11,-0.6592,0.1306,0.1357,0.7501,-0.1711,-0.086,160
11,-0.6581,0.1796,0.1724,0.7478,-0.1842,-0.0904,160
11,-0.6735,0.2,0.1826,0.7566,-0.1798,-0.0839,160
11,-0.6969,0.2816,0.201,0.7293,-0.1613,-0.0599,160
11,-0.7112,0.3204,0.199,0.677,-0.1602,-0.0402,160
11,-0.7214,0.3204,0.2081,0.6083,-0.1581,-0.1035,160
11,-0.7326,0.3479,0.2306,0.5287,-0.1297,-0.1341,160
11,-0.7326,0.3479,0.2306,0.5287,-0.1297,-0.1341,160
11,-0.7388,0.3663,0.2255,0.4536,-0.0751,-0.1449,160
11,-0.7683,0.403,0.2224,0.3641,-0.0349,-0.1177,160
11,-0.7857,0.2969,0.1938,0.2245,0.0076,-0.1329,160
11,-0.7693,0.299,0.2112,0.1167,0.0305,-0.1318,160
11,-0.8061,0.2847,0.2183,0.0992,0.0698,-0.1198,160
11,-0.8582,0.254,0.2653,0.0631,0.1286,-0.1177,160
11,-0.9092,0.2214,0.2765,-0.0032,0.1766,-0.0904,160
11,-0.951,0.2367,0.2795,-0.0566,0.2409,-0.0577,160
11,-1.0224,0.249,0.2592,-0.0904,0.3041,-0.024,160
11,-1.1122,0.2602,0.2071,-0.0904,0.3041,-0.024,160
11,-1.1122,0.2602,0.2071,-0.1482,0.3565,0.0043,160
11,-1.1367,0.2397,0.1714,-0.2201,0.3968,0.0162,160
11,-1.1673,0.2357,0.1622,-0.267,0.4349,0.0185,160
11,-1.2051,0.1979,0.1642,-0.2878,0.4753,0.0162,160
11,-1.2449,0.1041,0.2061,-0.3346,0.496,0.0043,160
11,-1.3081,0.0632,0.2459,-0.4012,0.5047,-0.0011,160
11,-1.3887,0.0357,0.2438,-0.4153,0.5299,0.0076,160
11,-1.4387,0.199,0.2724,-0.3761,0.5865,0.0349,160
11,-1.4571,0.1806,0.3255,-0.3597,0.6213,0.1155,160
11,-1.4796,0.049,0.3184,-0.3597,0.6213,0.1155,160
11,-1.4999,-0.1602,0.303,-0.6127,0.6333,0.0915,160
11,-1.4999,-0.1602,0.303,-0.8853,0.5582,0.1133,160
11,-1.4398,-0.6551,0.3398,-1.0051,0.4568,0.0719,160
11,-1.4398,-0.6551,0.3398,-0.9921,0.3422,0.0152,160
11,-1.4785,-0.6275,0.2816,-0.9168,0.2507,0.0675,160
11,-1.4653,-0.6204,0.2888,-0.7152,0.1438,0.2159,160
11,-1.4163,-0.5051,0.249,-0.4175,0.0261,0.2049,160
11,-1.4092,-0.3622,0.2602,-0.1396,-0.0206,0.1766,160
11,-1.3867,-0.004,0.249,0.037,-0.0806,0.2365,160
11,-1.3387,0.0847,0.2775,0.0425,-0.194,0.2867,160
11,-1.2775,0.1541,0.2949,-0.1188,-0.2954,0.2899,160
11,-1.2775,0.1541,0.2949,-0.1188,-0.2954,0.2899,160
11,-1.0745,0.3653,0.2857,-0.2573,-0.3717,0.3336,160
11,-1.0295,0.3867,0.2847,-0.3685,-0.3302,0.2539,160
11,-0.9428,0.402,0.3041,-0.5341,-0.2966,0.1341,160
11,-0.85,0.3561,0.3112,-0.8002,-0.2867,0.0719,160
11,-0.7816,0.202,0.202,-1.0913,-0.242,0.0621,160
11,-0.7571,0.0693,0.1296,-1.268,-0.2191,0.0206,160
11,-0.7592,0.0918,0.1265,-1.3235,-0.1482,-0.0152,160
11,-0.6714,-0.0449,0.0571,-1.3399,-0.1079,-0.0337,160
11,-0.7336,-0.0479,-0.0081,-1.3878,-0.0839,-0.0534,160
11,-0.6449,-0.0163,-0.0193,-1.3878,-0.0839,-0.0534,160
11,-0.6449,-0.0163,-0.0193,-1.3258,-0.0818,-0.0305,160
11,-0.7061,-0.0673,-0.0081,-1.2657,-0.036,-0.1068,160
11,-0.6418,-0.0541,-0.0245,-1.28,-0.0708,-0.0818,160
11,-0.6765,-0.1112,-0.0469,-1.2974,-0.1274,-0.0479,160
11,-0.702,-0.1143,-0.0643,-1.3191,-0.0969,-0.0774,160
11,-0.7061,-0.1541,-0.1041,-1.3956,-0.0959,-0.1167,160
11,-0.7183,-0.1898,-0.15,-1.3235,-0.0839,-0.1396,160
11,-0.7101,-0.2204,-0.1479,-1.317,-0.1613,-0.1123,160
11,-0.7101,-0.2306,-0.1663,-1.317,-0.1613,-0.1123,160
11,-0.7275,-0.2092,-0.1908,-1.1808,-0.2136,-0.1079,160
11,-0.7275,-0.2092,-0.1908,-1.0303,-0.2268,-0.1112,160
11,-0.7428,-0.2194,-0.1887,-0.966,-0.2737,-0.1221,160
11,-0.7377,-0.2479,-0.1785,-0.9452,-0.339,-0.1362,160
11,-0.752,-0.2693,-0.1796,-0.9017,-0.4023,-0.1384,160
11,-0.7888,-0.2755,-0.1551,-0.8319,-0.4219,-0.1253,160
11,-0.8152,-0.2449,-0.1357,-0.702,-0.4404,-0.0948,160
11,-0.8459,-0.2245,-0.1204,-0.5952,-0.4349,-0.0523,160
11,-0.9132,-0.2367,-0.0979,-0.5952,-0.4349,-0.0523,160
11,-0.9092,-0.249,-0.0887,-0.5702,-0.4295,-0.0185,160
11,-0.9194,-0.2449,-0.0836,-0.5614,-0.4622,0.024,160
12,-0.9194,-0.2377,-0.0836,-0.5299,-0.4557,0.049,160
12,-0.9194,-0.2377,-0.0836,-0.496,-0.4187,0.0654,160
12,-0.9398,-0.2551,-0.0867,-0.4601,-0.3794,0.0828,160
12,-0.9387,-0.2918,-0.0887,-0.4775,-0.3357,0.0883,160
12,-0.952,-0.3377,-0.0898,-0.5102,-0.2888,0.0925,160
12,-0.9561,-0.452,-0.0765,-0.5036,-0.2583,0.1177,160
12,-0.9642,-0.4479,-0.0673,-0.4143,-0.2201,0.1711,160
12,-1.0,-0.4275,-0.0704,-0.2191,-0.1493,0.2649,160
12,-1.0286,-0.3939,-0.0632,-0.2191,-0.1493,0.2649,160
12,-1.0286,-0.3939,-0.0632,-0.0446,-0.0566,0.3489,160
12,-1.1296,-0.3122,-0.0724,0.1547,0.0065,0.4328,160
12,-1.2081,-0.3459,-0.0265,0.3554,0.0261,0.5396,160
12,-1.3806,-0.1204,0.6398,0.5309,0.0021,0.6268,160
12,-1.8091,-0.049,0.3969,0.4895,0.3804,0.6007,160
12,-1.6765,0.0643,0.3061,0.4578,0.4807,0.6083,160
12,-1.6826,0.0357,0.2693,0.3761,0.375,0.5669,160
12,-1.6744,0.1326,0.1775,0.326,0.3227,0.4481,160
12,-1.453,0.3612,0.2816,0.4153,0.255,0.3346,160
12,-1.2765,0.3234,0.3755,0.4153,0.255,0.3346,160
12,-1.2765,0.3234,0.3755,0.3674,0.1646,0.1253,160
12,-1.1143,0.1439,0.3724,0.0032,-0.0043,-0.0326,160
12,-0.9765,-0.0469,0.453,-0.2878,-0.1329,-0.1177,160
12,-1.0245,-0.1061,0.499,-0.2409,-0.0751,-0.2016,160
12,-0.7714,-0.2632,0.553,-0.206,0.0631,-0.2562,160
12,-1.0336,-0.3796,0.3979,-0.169,0.157,-0.1635,160
12,-1.1541,-0.25,0.3469,0.0654,0.3161,-0.0174,160
12,-1.3163,-0.1816,0.2704,0.1984,0.4611,-0.0915,160
12,-1.2602,-0.1346,0.2306,0.2245,0.4023,-0.0326,160
12,-1.299,-0.2101,0.151,0.2245,0.4023,-0.0326,160
12,-1.2101,-0.1489,0.1418,0.182,0.338,-0.0664,160
12,-1.2101,-0.1489,0.1418,0.2518,0.2987,-0.1177,160
12,-1.1724,-0.0989,0.152,0.3826,0.2649,-0.1384,160
12,-1.0826,-0.0806,0.1489,0.4273,0.2093,-0.1755,160
12,-0.9714,-0.0571,0.1204,0.4328,0.1526,-0.1951,160
12,-0.9142,-0.0245,0.1204,0.4818,0.1024,-0.1852,160
12,-0.903,0.0,0.1275,0.5167,0.1057,-0.193,160
12,-0.851,0.0234,0.1132,0.5179,0.086,-0.1755,160
12,-0.801,0.0112,0.0918,0.495,0.0621,-0.1667,160
12,-0.7693,0.0245,0.0928,0.495,0.0621,-0.1667,160
12,-0.7592,0.0255,0.0836,0.5091,0.0511,-0.1526,160
12,-0.7592,0.0255,0.0836,0.5211,0.0392,-0.1352,160
12,-0.7245,0.0071,0.0663,0.5211,0.0152,-0.1133,160
12,-0.7204,0.0214,0.0673,0.5179,-0.0011,-0.0959,160
12,-0.7183,0.05,0.0806,0.5582,-0.0141,-0.0719,160
12,-0.7153,0.0714,0.0755,0.581,-0.0425,-0.0511,160
12,-0.7092,0.0877,0.0724,0.5778,-0.086,-0.0349,160
12,-0.7204,0.1041,0.0704,0.5745,-0.1274,-0.0217,160
12,-0.7112,0.1469,0.103,0.5931,-0.1547,-0.0065,160
12,-0.7316,0.1714,0.1082,0.5931,-0.1547,-0.0065,160
12,-0.7142,0.2112,0.151,0.5833,-0.1864,0.0131,160
12,-0.7142,0.2112,0.151,0.5374,-0.2201,0.0261,160
12,-0.701,0.2643,0.1735,0.4916,-0.2344,0.0402,160
12,-0.6979,0.3367,0.1969,0.4578,-0.2234,0.0511,160
12,-0.6765,0.3622,0.2142,0.387,-0.1962,0.0217,160
12,-0.6602,0.3837,0.204,0.2518,-0.1919,-0.0152,160
12,-0.7285,0.3724,0.1887,0.1198,-0.1264,-0.0261,160
12,-0.6908,0.3694,0.2071,-0.0152,-0.0925,-0.025,160
12,-0.703,0.2643,0.1439,-0.1766,-0.0751,-0.0435,160
12,-0.703,0.2643,0.1439,-0.1766,-0.0751,-0.0435,160
12,-0.7224,0.2245,0.1489,-0.2659,-0.0511,-0.0589,160
12,-0.7408,0.1928,0.1571,-0.2844,-0.0021,-0.0599,160
12,-0.7632,0.1255,0.2214,-0.2954,0.0392,-0.049,160
12,-0.7836,0.1204,0.2531,-0.3031,0.098,-0.024,160
12,-0.8377,0.1877,0.2673,-0.2768,0.1831,0.0065,160
12,-0.8826,0.1785,0.2367,-0.2737,0.2844,0.0228,160
12,-0.9979,0.3152,0.1959,-0.2714,0.3663,0.0698,160
12,-1.0939,0.3663,0.1857,-0.2932,0.4524,0.0631,160
12,-1.1143,0.3653,0.1234,-0.4055,0.5385,0.0097,160
12,-1.1898,0.3163,0.1489,-0.4055,0.5385,0.0097,160
12,-1.1898,0.3163,0.1489,-0.5244,0.5723,-0.0228,160
12,-1.2918,0.1,0.2224,-0.8329,0.6508,-0.036,160
12,-1.4357,-0.0745,0.2296,-0.8842,0.7054,-0.0294,160
12,-1.4357,-0.0745,0.2296,-0.8983,0.7958,-0.0381,160
12,-1.5724,-0.0663,0.2,-0.8897,0.8427,0.0664,160
12,-1.5775,-0.0989,0.2347,-0.8918,0.858,0.0894,160
12,-1.7133,-0.153,0.2306,-1.0106,0.8307,0.0894,160
12,-1.699,-0.2806,0.1785,-1.1339,0.6377,0.1547,160
12,-1.7979,-0.3785,0.1816,-1.2319,0.4721,0.074,160
12,-1.8673,-0.5826,0.1867,-1.2145,0.2856,-0.0141,160
12,-1.9755,-0.5755,0.1428,-1.2145,0.2856,-0.0141,160
12,-1.9755,-0.5755,0.1428,-1.1022,0.0621,-0.0162,160
12,-1.8439,-0.55,0.1326,-0.8775,-0.1198,0.0392,160
12,-1.7938,-0.3612,0.202,-0.5604,-0.2888,-0.0414,160
12,-1.6837,-0.1979,0.1765,-0.3729,-0.3891,-0.0402,160
12,-1.3357,0.05,0.1959,-0.339,-0.5221,-0.0097,160
12,-1.1398,0.1143,0.1928,-0.4065,-0.5942,-0.0152,160
12,-1.0336,0.2653,0.1837,-0.5167,-0.6007,0.012,160
12,-0.855,0.1898,0.153,-0.6966,-0.5767,-0.0316,160
12,-0.7949,0.153,0.1173,-0.8939,-0.5505,-0.11,160
12,-0.7194,0.1377,0.0877,-0.8939,-0.5505,-0.11,160
12,-0.7194,0.1377,0.0877,-1.0379,-0.5036,-0.1068,160
12,-0.6826,0.0948,0.0459,-1.1284,-0.4295,-0.1079,160
12,-0.6541,0.0245,-0.0306,-1.197,-0.363,-0.0969,160
12,-0.601,0.0122,-0.0449,-1.2418,-0.3325,-0.0894,160
12,-0.5898,-0.0561,-0.0193,-1.2396,-0.3008,-0.1318,160
12,-0.5204,-0.0652,-0.0449,-1.1915,-0.2245,-0.169,160
12,-0.55,-0.152,-0.101,-1.2974,-0.1123,-0.0828,160
12,-0.5275,-0.1296,-0.1439,-1.2941,-0.0664,-0.061,160
12,-0.5071,-0.1551,-0.1346,-1.1567,-0.1123,-0.0141,160
12,-0.5102,-0.2101,-0.1224,-1.1567,-0.1123,-0.0141,160
12,-0.501,-0.2122,-0.1316,-1.1011,-0.1667,0.0097,160
12,-0.501,-0.2122,-0.1316,-1.0597,-0.1722,0.012,160
12,-0.5163,-0.2,-0.1489,-0.9473,-0.1471,0.0196,160
12,-0.5234,-0.2438,-0.1673,-0.8787,-0.1547,0.0174,160
12,-0.5459,-0.2531,-0.2,-0.8678,-0.1732,-0.0076,160
12,-0.5898,-0.2847,-0.1857,-0.8722,-0.2201,-0.0206,160
12,-0.6153,-0.2326,-0.2173,-0.7686,-0.3073,-0.0402,160
12,-0.7112,-0.3571,-0.0908,-0.7184,-0.375,-0.1047,160
12,-0.8112,-0.4326,-0.0306,-0.7184,-0.375,-0.1047,160
12,-0.8683,-0.5561,-0.0183,-0.6192,-0.4219,-0.1526,160
13,-0.8826,-0.5571,-0.0306,-0.3783,-0.3761,-0.2278,160
13,-0.8826,-0.5571,-0.0306,-0.2388,-0.339,-0.2245,160
13,-1.0102,-0.4663,-0.0438,-0.1984,-0.3597,-0.0457,160
13,-0.9592,-0.449,-0.0102,-0.0282,-0.3968,0.1057,160
13,-1.0051,-0.2806,-0.0347,0.2768,-0.375,0.2005,160
13,-0.9888,-0.105,-0.0479,0.4307,-0.3031,0.2802,160
13,-1.0051,-0.103,-0.1122,0.2409,-0.1886,0.2245,160
13,-0.8816,0.0092,-0.1387,0.2464,-0.1352,0.2027,160
13,-0.8714,-0.0347,-0.1581,0.2464,-0.1352,0.2027,160
13,-0.8714,-0.0347,-0.1581,0.1242,-0.0937,0.1547,160
13,-0.7806,-0.0449,-0.2153,0.0435,-0.0011,0.0589,160
13,-0.7806,-0.0449,-0.2153,0.0719,0.012,0.0675,160
13,-0.7551,-0.0796,-0.1806,0.1155,-0.0469,0.1515,160
13,-0.7836,-0.0622,-0.1143,0.1711,-0.086,0.2398,160
13,-0.8357,-0.0847,-0.0775,0.2562,-0.037,0.3532,160
13,-0.8224,-0.0622,-0.051,0.326,0.0,0.4546,160
13,-0.9561,-0.0948,-0.0479,0.2922,0.0959,0.5233,160
13,-1.1091,-0.1694,-0.0632,0.1842,0.2802,0.5287,160
13,-1.2296,-0.0948,-0.0561,0.0566,0.4851,0.5026,160
13,-1.2296,-0.0948,-0.0561,0.0566,0.4851,0.5026,160
13,-1.353,-0.1214,-0.0143,0.2354,0.5745,0.5091,160
13,-1.8347,-0.3724,0.3,0.0555,0.5745,0.3838,160
13,1.8878,-0.3846,0.1724,0.1461,0.6508,0.3292,160
13,1.8388,-0.3214,0.2316,0.3641,0.5996,0.3401,160
13,1.9531,-0.299,0.2153,0.5276,0.3739,0.2659,160
13,-1.9163,-0.0081,0.2388,0.6934,0.2321,0.1907,160
13,-1.7194,0.251,0.3336,0.8548,0.1341,0.1318,160
13,-1.5388,0.3051,0.2867,0.7893,-0.0446,0.1461,160
13,-1.1694,0.3122,0.2296,0.5582,-0.2159,0.0469,160
13,-1.0745,0.0092,0.3408,0.5582,-0.2159,0.0469,160
13,-1.0745,0.0092,0.3408,0.3761,-0.2224,-0.0534,160
13,-1.0255,-0.0122,0.5286,0.3456,-0.1831,-0.1133,160
13,-1.1275,-0.2061,0.5347,0.2485,-0.0937,-0.1602,160
13,-1.2183,-0.4633,0.4337,0.2507,-0.0425,-0.1188,160
13,-1.2775,-0.5102,0.4265,0.3771,0.024,-0.1133,160
13,-1.3193,-0.4897,0.3,0.5679,0.0806,-0.1428,160
13,-1.2786,-0.4306,0.2265,0.7751,0.0555,-0.1515,160
13,-1.1724,-0.2806,0.1041,1.0215,0.0479,-0.2016,160
13,-1.1265,-0.1898,0.1245,1.2777,0.0217,-0.2354,160
13,-1.0887,-0.0245,0.1234,1.2777,0.0217,-0.2354,160
13,-0.9418,0.0836,0.1551,1.4261,-0.024,-0.1896,160
13,-0.9418,0.0836,0.1551,1.4479,-0.086,-0.1613,160
13,-0.9275,0.1214,0.1663,1.4217,-0.11,-0.1493,160
13,-0.8541,0.1541,0.1571,1.3933,-0.1133,-0.1221,160
13,-0.8122,0.1938,0.153,1.3683,-0.11,-0.1013,160
13,-0.7326,0.2275,0.1285,1.3323,-0.0959,-0.085,160
13,-0.7173,0.25,0.1296,1.2603,-0.0686,-0.086,160
13,-0.6847,0.2347,0.1132,1.1753,-0.0686,-0.0818,160
13,-0.6449,0.199,0.0969,1.1753,-0.0686,-0.0818,160
13,-0.6194,0.1408,0.1071,1.1011,-0.0774,-0.0925,160
13,-0.6194,0.1408,0.1071,1.0499,-0.085,-0.1341,160
13,-0.6337,0.1837,0.1,1.0389,-0.0937,-0.1711,160
13,-0.6112,0.1683,0.103,1.0477,-0.1112,-0.1919,160
13,-0.6224,0.1418,0.103,1.0423,-0.1406,-0.2518,160
13,-0.6285,0.15,0.1112,1.0477,-0.1722,-0.2758,160
13,-0.6367,0.1683,0.1357,1.0629,-0.1919,-0.2987,160
13,-0.6592,0.1765,0.1387,1.0641,-0.2213,-0.3205,160
13,-0.6673,0.1908,0.1459,1.0587,-0.2485,-0.3302,160
13,-0.6969,0.2092,0.1551,1.0587,-0.2485,-0.3302,160
13,-0.6969,0.2092,0.1551,1.052,-0.2539,-0.3422,160
13,-0.6877,0.249,0.1796,1.0357,-0.2659,-0.3412,160
13,-0.7112,0.2786,0.1908,0.9736,-0.2747,-0.3281,160
13,-0.7357,0.2908,0.202,0.9071,-0.267,-0.3073,160
13,-0.7479,0.2898,0.199,0.8275,-0.2442,-0.2867,160
13,-0.7531,0.2745,0.2316,0.7522,-0.2081,-0.242,160
13,-0.8336,0.3357,0.2112,0.6541,-0.1461,-0.1515,160
13,-0.8837,0.4153,0.201,0.5865,-0.0925,-0.098,160
13,-0.9,0.3969,0.1744,0.5549,-0.0446,-0.1013,160
13,-0.9642,0.3969,0.1837,0.5549,-0.0446,-0.1013,160
13,-0.9642,0.3969,0.1837,0.5255,-0.0043,-0.2409,160
13,-0.9979,0.3489,0.1581,0.3794,0.0501,-0.2081,160
13,-0.9633,0.3184,0.2071,0.314,0.036,-0.1678,160
13,-0.9633,0.3184,0.2071,0.2562,0.0282,-0.157,160
13,-0.9387,0.2847,0.2163,0.1864,0.0337,-0.169,160
13,-0.9326,0.2367,0.2296,0.1264,0.061,-0.1732,160
13,-0.9387,0.2408,0.2826,0.1177,0.1242,-0.181,160
13,-0.9377,0.254,0.2847,0.1155,0.2081,-0.1744,160
13,-0.9551,0.2622,0.2571,0.074,0.2922,-0.1667,160
13,-0.9765,0.301,0.2214,0.0511,0.3979,-0.1667,160
13,-1.0775,0.3591,0.2153,0.0511,0.3979,-0.1667,160
13,-1.0775,0.3591,0.2153,0.0337,0.5124,-0.1657,160
13,-1.1857,0.3132,0.2438,-0.049,0.6083,-0.169,160
13,-1.1857,0.3132,0.2438,-0.1907,0.677,-0.1591,160
13,-1.4102,0.1806,0.301,-0.3412,0.7392,-0.1308,160
13,-1.4235,0.1346,0.3143,-0.4731,0.8024,-0.0839,160
13,-1.3857,0.0867,0.3041,-0.581,0.8395,-0.0053,160
13,-1.3152,0.0367,0.2571,-0.7031,0.8427,0.0795,160
13,-1.1816,-0.2653,0.1744,-0.9353,0.81,0.0915,160
13,-1.2183,-0.3234,0.2071,-1.2058,0.6138,0.0349,160
13,-1.2765,-0.6867,0.0652,-1.0629,0.545,0.1079,160
13,-1.2765,-0.6867,0.0652,-1.0629,0.545,0.1079,160
13,-1.2071,-0.8091,0.2867,-1.0467,0.4229,0.1581,160
13,-1.504,-1.0438,0.2112,-1.1284,0.3412,0.242,160
13,-1.5143,-0.9683,0.2418,-0.4742,0.3161,0.3216,160
13,-1.4959,-0.9275,0.203,0.0621,0.1362,0.2954,160
13,-1.5449,-0.3591,0.1806,0.3695,0.0469,0.3085,160
13,-1.504,-0.1132,0.1306,0.6911,-0.0872,0.3848,160
13,-1.4745,0.0316,0.1408,0.846,-0.1984,0.3609,160
13,-1.4224,0.2275,0.2347,0.8983,-0.2245,0.1951,160
13,-1.1857,0.4469,0.251,0.859,-0.2856,-0.0011,160
13,-1.1082,0.4306,0.3347,0.859,-0.2856,-0.0011,160
13,-1.1082,0.4306,0.3347,0.7501,-0.3107,-0.1123,160
13,-1.1,0.4734,0.3184,0.5865,-0.2278,-0.0599,160
13,-1.0591,0.3612,0.2938,0.1384,-0.231,0.1995,160
13,-0.8898,0.7683,0.1234,-0.424,-0.2812,0.5408,160
13,-0.8,0.0979,0.1541,-0.6236,-0.314,0.3958,160
13,-0.8591,0.2643,0.1744,-0.7119,-0.2495,0.1591,160
13,-0.8081,0.0806,0.0826,-0.7795,-0.1886,0.0534,160
13,-0.6826,0.0132,0.0989,-0.834,-0.2354,0.0643,160
13,-0.6938,-0.0275,0.0449,-0.8384,-0.206,0.0774,160
14,-0.7347,0.0071,0.0224,-0.8384,-0.206,0.0774,160
14,-0.4847,-0.0275,-0.0224,-0.7697,-0.1547,0.0631,160
14,-0.4847,-0.0275,-0.0224,-0.7729,-0.1406,0.0053,160
14,-0.6296,-0.1071,-0.0132,-0.7861,-0.2039,0.025,160
14,-0.5652,-0.0724,-0.0122,-0.6857,-0.1493,0.036,160
14,-0.605,-0.0591,-0.0367,-0.6213,-0.1635,0.0643,160
14,-0.549,-0.0632,-0.0286,-0.6192,-0.1242,-0.0087,160
14,-0.5939,-0.0806,-0.052,-0.6749,-0.0937,-0.0511,160
14,-0.5908,-0.0989,-0.0765,-0.6791,-0.0555,-0.0904,160
14,-0.6275,-0.1959,-0.1275,-0.6791,-0.0555,-0.0904,160
14,-0.6428,-0.1969,-0.1642,-0.6803,-0.0643,-0.1232,160
14,-0.6428,-0.1969,-0.1642,-0.6825,-0.085,-0.1362,160
14,-0.6632,-0.202,-0.1673,-0.556,-0.1461,-0.061,160
14,-0.754,-0.2683,-0.0877,-0.3914,-0.2453,-0.0131,160
14,-0.7806,-0.3234,-0.0336,-0.4229,-0.3325,-0.0043,160
14,-0.8081,-0.3989,-0.0112,-0.4044,-0.3761,0.0097,160
14,-0.852,-0.4183,-0.0163,-0.3357,-0.3336,0.0654,160
14,-0.9112,-0.4296,-0.0796,-0.2573,-0.2409,0.1079,160
14,-0.9173,-0.3612,-0.1439,-0.074,-0.1461,0.1144,160
14,-0.9092,-0.2898,-0.152,-0.074,-0.1461,0.1144,160
14,-0.9092,-0.2898,-0.152,0.1537,-0.086,0.1428,160
14,-0.8306,-0.1183,-0.1296,0.3815,-0.1112,0.2093,160
14,-0.7643,-0.0816,-0.1122,0.5418,-0.1155,0.2333,160
14,-0.7581,-0.0438,-0.1041,0.5635,-0.1047,0.2485,160
14,-0.7612,-0.0449,-0.0887,0.6116,-0.0894,0.2802,160
14,-0.7836,-0.0388,-0.0652,0.7184,-0.0631,0.3456,160
14,-0.8908,0.2428,0.3061,0.7773,-0.0501,0.5004,160
14,-0.8969,0.2071,0.0336,0.7239,0.1177,0.5582,160
14,-1.0745,0.1153,0.153,0.5364,0.3117,0.3597,160
14,-1.2275,0.1153,0.0591,0.5364,0.3117,0.3597,160
14,-1.2275,0.1153,0.0591,0.3859,0.3008,0.3903,160
14,-1.3265,0.0969,0.0714,0.3368,0.3489,0.4295,160
14,-1.3643,0.1469,0.0714,0.3041,0.3619,0.4175,160
14,-1.4612,0.1489,0.0877,0.2878,0.3609,0.4023,160
14,-1.4918,0.1224,0.1612,0.2605,0.3271,0.387,160
14,-1.5724,0.0602,0.153,0.1842,0.3248,0.3412,160
14,-1.5265,-0.002,0.0684,0.1286,0.3085,0.3052,159
14,-1.4102,-0.0031,0.0347,0.1144,0.2758,0.2703,159
14,-1.3102,0.0479,0.0551,0.1995,0.2409,0.2583,159
14,-1.2459,0.0541,0.1469,0.1995,0.2409,0.2583,159
14,-1.2275,-0.0132,0.3,0.2888,0.2627,0.1984,159
14,-1.2275,-0.0132,0.3,0.2617,0.2495,0.1417,159
14,-1.2388,-0.0652,0.3255,0.1766,0.2224,0.1089,159
14,-1.2928,-0.0979,0.302,0.1798,0.2409,0.0566,159
14,-1.1949,-0.1163,0.2806,0.2737,0.2737,0.0,159
14,-1.201,-0.0428,0.2285,0.4175,0.2834,-0.0457,159
14,-1.3132,-0.0092,0.1837,0.5538,0.2844,-0.1329,159
14,-1.3184,0.0234,0.2755,0.6465,0.2583,-0.1962,159
14,-1.4306,-0.0836,0.2795,0.6225,0.182,-0.2529,159
14,-1.4255,-0.1602,0.2632,0.6225,0.182,-0.2529,159
14,-1.4296,-0.203,0.2275,0.5505,0.086,-0.2878,159
14,-1.4296,-0.203,0.2275,0.569,0.0174,-0.2966,159
14,-1.4265,-0.1959,0.1959,0.6988,0.0043,-0.3019,159
14,-1.3612,-0.0612,0.1296,0.8569,-0.0196,-0.2779,159
14,-1.2938,0.0051,0.1285,0.9551,-0.073,-0.2573,159
14,-1.1959,0.0255,0.102,0.9801,-0.1701,-0.2464,159
14,-1.0275,0.0939,0.1265,0.9997,-0.2495,-0.2289,159
14,-0.9765,0.1418,0.1449,1.0433,-0.2768,-0.2224,159
14,-0.9255,0.1694,0.1663,1.0837,-0.2878,-0.2049,159
14,-0.8663,0.2112,0.153,1.0837,-0.2878,-0.2049,159
14,-0.7612,0.2765,0.1959,1.0772,-0.3031,-0.1864,159
14,-0.7612,0.2765,0.1959,1.0477,-0.2954,-0.1787,159
14,-0.7979,0.25,0.103,0.9845,-0.2802,-0.1701,159
14,-0.7224,0.2683,0.1459,0.8907,-0.2747,-0.1591,159
14,-0.6928,0.2214,0.0969,0.8012,-0.2867,-0.1678,159
14,-0.6561,0.2296,0.1122,0.7468,-0.2844,-0.1711,159
14,-0.6663,0.1816,0.0898,0.7098,-0.2888,-0.1896,159
14,-0.652,0.1755,0.101,0.6705,-0.2856,-0.2201,159
14,-0.6439,0.1561,0.101,0.6682,-0.3107,-0.2224,159
14,-0.6439,0.1561,0.101,0.6682,-0.3107,-0.2224,159
14,-0.6489,0.153,0.1204,0.6857,-0.3597,-0.2768,159
14,-0.6612,0.1714,0.1408,0.6857,-0.3597,-0.2768,159
14,-0.6673,0.201,0.1561,0.7043,-0.3609,-0.2966,159
14,-0.6673,0.201,0.1561,0.7174,-0.3597,-0.3031,159
14,-0.6724,0.2133,0.1479,0.7205,-0.3445,-0.3107,159
14,-0.701,0.2867,0.1806,0.7054,-0.314,-0.314,159
14,-0.7092,0.3091,0.1887,0.6596,-0.2911,-0.3085,159
14,-0.7265,0.3224,0.1877,0.5833,-0.2605,-0.3041,159
14,-0.7459,0.3112,0.1969,0.5221,-0.2159,-0.3008,159
14,-0.7816,0.3867,0.202,0.4546,-0.1657,-0.2899,159
14,-0.8408,0.3673,0.1857,0.388,-0.1079,-0.3096,159
14,-0.8612,0.353,0.1735,0.388,-0.1079,-0.3096,159
14,-0.901,0.3061,0.1949,0.2856,-0.0675,-0.3248,159
14,-0.901,0.3061,0.1949,0.2147,-0.0577,-0.3271,159
14,-0.902,0.2908,0.2153,0.1515,-0.0228,-0.35,159
14,-0.9357,0.2724,0.2245,0.1253,0.0011,-0.3434,159
14,-0.9653,0.2602,0.2632,0.1144,0.049,-0.339,159
14,-1.004,0.2653,0.2734,0.0925,0.0795,-0.3205,159
14,-1.0224,0.2673,0.2673,0.0316,0.1079,-0.2954,159
14,-1.052,0.2714,0.2479,-0.0326,0.1406,-0.2737,159
14,-1.0867,0.2755,0.202,-0.0326,0.1406,-0.2737,159
14,-1.0867,0.2755,0.202,-0.0948,0.1776,-0.2539,159
14,-1.1143,0.2622,0.1602,-0.1701,0.2049,-0.2398,159
14,-1.1245,0.2428,0.1346,-0.2464,0.23,-0.23,159
14,-1.1439,0.1949,0.1285,-0.3052,0.2539,-0.2278,159
14,-1.1163,0.1214,0.1724,-0.3368,0.2562,-0.2289,159
14,-1.1071,0.1439,0.2051,-0.3292,0.3063,-0.231,159
14,-1.1041,0.153,0.2592,-0.2878,0.3729,-0.2039,159
14,-1.152,0.105,0.2683,-0.3489,0.4611,-0.1602,159
14,-1.2704,0.1346,0.1143,-0.3979,0.507,-0.061,159
14,-1.3245,0.1755,0.0816,-0.3979,0.507,-0.061,159
14,-1.3245,0.1755,0.0816,-0.4492,0.5833,0.0261,159
14,-1.2714,0.1938,0.0622,-0.5385,0.5473,0.1373,159
14,-1.1969,-0.001,0.1183,-0.7359,0.4884,0.1842,159
14,-1.2347,-0.0847,0.1887,-0.8722,0.4143,0.2005,159
14,-1.2469,-0.2336,0.2643,-0.8819,0.3935,0.1635,159
14,-1.2581,-0.3755,0.355,-0.8155,0.363,0.1024,159
14,-1.1949,-0.3377,0.4714,-0.6901,0.3151,0.231,159
14,-1.3265,-0.4551,0.25,-0.6333,0.2932,0.3477,159
14,-1.2745,-0.3887,0.3245,-0.5778,0.2922,0.3063,159
15,-1.4571,-0.2734,0.2765,-0.5778,0.2922,0.3063,159
15,-1.4479,-0.2643,0.2531,-0.4404,0.2376,0.3019,159
15,-1.4479,-0.2643,0.2531,-0.3434,0.1471,0.3193,159
15,-1.502,-0.2673,0.1775,-0.375,0.0011,0.2802,159
15,-1.4816,-0.2367,0.1744,-0.3489,-0.1188,0.2539,159
15,-1.453,-0.0092,0.1561,-0.1907,-0.2005,0.2495,159
15,-1.4102,0.1132,0.1857,-0.098,-0.2354,0.2234,159
15,-1.3286,0.2704,0.199,-0.1678,-0.3096,0.218,159
15,-1.0918,0.2173,0.2133,-0.3357,-0.4143,0.1635,159
15,-1.0306,0.1898,0.2101,-0.3357,-0.4143,0.1635,159
15,-0.9418,0.1428,0.1847,-0.5767,-0.4666,0.0784,159
15,-0.8622,0.1428,0.2275,-0.7588,-0.4775,0.0469,159
15,-0.8622,0.1428,0.2275,-0.8733,-0.4643,0.0162,159
15,-0.7571,0.0652,0.1173,-0.966,-0.4143,-0.0162,159
15,-0.7101,0.0989,0.0734,-0.9822,-0.3891,0.0065,159
15,-0.6867,0.1173,0.052,-0.9626,-0.3031,-0.0065,159
15,-0.6908,0.1234,0.0204,-0.9986,-0.2442,-0.0349,159
15,-0.605,0.0673,-0.0143,-1.0858,-0.255,-0.024,159
15,-0.5775,0.0377,-0.0092,-1.1491,-0.2529,-0.0337,159
15,-0.5704,0.0143,-0.0306,-1.1469,-0.2115,-0.0534,159
15,-0.5847,0.001,-0.0295,-1.1469,-0.2115,-0.0534,159
15,-0.5847,0.0071,-0.0193,-1.1087,-0.1766,-0.0545,159
15,-0.5847,0.0071,-0.0193,-1.0891,-0.1613,-0.049,159
15,-0.6255,-0.0234,-0.0336,-1.1175,-0.1537,-0.0511,159
15,-0.6153,-0.0398,-0.0286,-1.1043,-0.1623,-0.0577,159
15,-0.6694,-0.1346,-0.0265,-1.0433,-0.1274,-0.0925,159
15,-0.7469,-0.0541,-0.0602,-1.0608,-0.0959,-0.0511,159
15,-0.7612,-0.0806,-0.0734,-1.0618,-0.0992,-0.0152,159
15,-0.7938,-0.1091,-0.0714,-1.0238,-0.1352,-0.0294,159
15,-0.8,-0.1622,-0.0684,-1.0564,-0.1646,-0.0087,159
15,-0.7918,-0.1663,-0.0673,-1.0564,-0.1646,-0.0087,159
15,-0.7918,-0.1663,-0.0673,-1.0423,-0.1646,-0.024,159
15,-0.8143,-0.1765,-0.0765,-1.0106,-0.1384,-0.0053,159
15,-0.7918,-0.1877,-0.1,-0.9517,-0.1155,0.0053,159
15,-0.8051,-0.2092,-0.1306,-0.9496,-0.1047,0.0217,159
15,-0.7888,-0.199,-0.1592,-0.9452,-0.1035,0.0446,159
15,-0.8081,-0.2122,-0.1387,-0.8351,-0.1198,0.0818,159
15,-0.8152,-0.2214,-0.1173,-0.6705,-0.1341,0.1167,159
15,-0.8234,-0.2306,-0.0918,-0.6051,-0.1417,0.1406,159
15,-0.8265,-0.2469,-0.0673,-0.5614,-0.1438,0.1852,159
15,-0.85,-0.2592,-0.0377,-0.5614,-0.1438,0.1852,159
15,-0.85,-0.2592,-0.0377,-0.4841,-0.1155,0.2376,159
15,-0.8775,-0.2765,-0.0316,-0.4536,-0.0511,0.2779,159
15,-0.9112,-0.2877,-0.0418,-0.4492,0.0414,0.3128,159
15,-0.9571,-0.2898,-0.0684,-0.4458,0.1482,0.3434,159
15,-1.0755,-0.2979,-0.151,-0.4492,0.2365,0.3695,159
15,-1.1377,-0.2938,-0.15,-0.412,0.23,0.412,159
15,-1.1867,-0.3724,-0.1265,-0.2398,0.1722,0.4797,159
15,-1.3336,-0.4122,-0.2081,-0.1384,0.1896,0.5091,159
15,-1.4785,-0.4581,-0.1387,-0.1352,0.2594,0.5059,159
15,-1.5786,-0.6857,0.2724,-0.1352,0.2594,0.5059,159
15,-1.6673,-0.1398,0.301,0.1449,0.1646,0.5396,159
15,-1.6673,-0.1398,0.301,0.9485,0.2823,0.7642,159
15,-1.8122,-0.103,0.1143,0.8416,0.4797,0.7184,159
15,-1.7438,-0.0602,0.1489,0.6236,0.3739,0.532,159
15,-1.8459,0.0469,0.1132,0.6715,0.3314,0.3663,159
15,-1.5602,0.2112,0.2673,0.7108,0.2201,0.2856,159
15,-1.3928,0.1663,0.2081,0.5593,0.0774,0.1396,159
15,-1.1744,0.101,0.2101,0.3172,-0.0457,0.0185,159
15,-1.1112,0.0051,0.1755,0.3172,-0.0457,0.0185,159
15,-1.0336,-0.0877,0.2765,0.23,-0.0654,-0.0774,159
15,-1.0336,-0.0877,0.2765,0.2779,-0.0294,-0.1657,159
15,-0.9469,-0.2377,0.2367,0.2147,-0.0108,-0.2703,159
15,-1.0051,-0.4173,0.201,0.2823,-0.012,-0.2768,159
15,-1.1367,-0.3571,0.1653,0.4884,0.0883,-0.2617,159
15,-1.2255,-0.2479,0.1469,0.7533,0.2376,-0.2201,159
15,-1.2316,-0.1857,0.1326,0.9365,0.2464,-0.169,159
15,-1.301,-0.1724,0.0806,0.9299,0.2049,-0.1732,159
15,-1.1816,-0.1357,0.0602,0.9321,0.0883,-0.1711,159
15,-1.1377,-0.0989,0.0479,0.9321,0.0883,-0.1711,159
15,-0.9387,0.0775,0.102,1.2222,-0.0337,-0.2049,159
15,-0.8663,0.1224,0.105,1.2222,-0.0337,-0.2049,159
15,-0.8091,0.1918,0.1245,1.2298,-0.0566,-0.1787,159
15,-0.8091,0.1918,0.1245,1.1915,-0.0839,-0.1232,159
15,-0.7836,0.2531,0.0786,1.1033,-0.1035,-0.0948,159
15,-0.7275,0.1887,0.101,1.015,-0.1144,-0.1428,159
15,-0.7071,0.1622,0.0836,0.9365,-0.1274,-0.1406,159
15,-0.6938,0.1428,0.0847,0.8929,-0.1329,-0.1396,159
15,-0.6949,0.1214,0.0836,0.8809,-0.1297,-0.1503,159
15,-0.6612,0.0704,0.0775,0.8819,-0.1417,-0.157,159
15,-0.6663,0.0632,0.0898,0.8973,-0.1602,-0.169,159
15,-0.652,0.0969,0.0786,0.8973,-0.1602,-0.169,159
15,-0.6612,0.1183,0.1082,0.9561,-0.1798,-0.1428,159
15,-0.6612,0.1183,0.1082,0.9899,-0.1852,-0.1438,159
15,-0.6377,0.1326,0.1183,0.9855,-0.2104,-0.1155,159
15,-0.6561,0.1316,0.1418,0.9714,-0.218,-0.1024,159
15,-0.6561,0.1755,0.1622,0.9725,-0.2104,-0.0839,159
15,-0.6785,0.2347,0.201,0.9637,-0.2005,-0.0545,159
15,-0.7101,0.2765,0.2112,0.9256,-0.1591,-0.0425,159
15,-0.7275,0.3091,0.1755,0.8645,-0.1253,-0.0272,159
15,-0.7918,0.3296,0.1541,0.8645,-0.1253,-0.0272,159
15,-0.8286,0.3459,0.1439,0.7915,-0.086,-0.0316,159
15,-0.8826,0.3846,0.1245,0.7403,-0.0435,-0.036,159
15,-0.8826,0.3846,0.1245,0.7064,-0.0261,-0.0282,159
15,-0.8857,0.3765,0.1132,0.6486,-0.0174,-0.1024,159
15,-0.8949,0.3918,0.1306,0.5984,0.0021,-0.1787,159
15,-0.8969,0.4041,0.1642,0.5494,0.012,-0.1482,159
15,-0.9203,0.3846,0.1979,0.4252,0.0032,-0.0675,159
15,-0.8316,0.2438,0.2316,0.2485,-0.0402,-0.0435,159
15,-0.8265,0.2397,0.2561,0.1613,-0.0414,-0.0457,159
15,-0.8439,0.2612,0.2693,0.1984,0.0131,-0.0217,159
15,-0.8632,0.301,0.3041,0.1984,0.0131,-0.0217,159
15,-0.8632,0.301,0.3041,0.2093,0.0818,-0.0141,159
15,-0.8949,0.3152,0.2408,0.1581,0.1362,-0.0076,159
15,-0.9877,0.352,0.1744,0.157,0.2115,-0.0053,159
15,-1.0102,0.4438,0.199,0.1701,0.3052,-0.012,159
15,-1.101,0.4653,0.153,0.0589,0.3456,0.0053,159
15,-1.1245,0.3306,0.1061,-0.1635,0.3609,-0.0206,159
15,-1.1224,0.2663,0.1041,-0.3172,0.363,0.0021,159
15,-1.1398,0.1969,0.1439,-0.3619,0.4023,0.0174,159
16,-1.2663,0.1194,0.2061,-0.3695,0.4633,0.036,159
16,-1.299,0.1163,0.1837,-0.3695,0.4633,0.036,159
16,-1.299,0.1163,0.1837,-0.3914,0.496,0.1013,159
16,-1.2867,0.1102,0.1703,-0.4328,0.5429,0.1635,159
16,-1.3347,0.105,0.1694,-0.4655,0.5778,0.2507,159
16,-1.4132,0.0081,0.2142,-0.5647,0.5833,0.2954,159
16,-1.4581,-0.1122,0.2153,-0.7119,0.5549,0.3205,159
16,-1.504,-0.1551,0.2092,-0.7403,0.5015,0.3477,159
16,-1.5112,-0.2163,0.2418,-0.6661,0.4536,0.3445,159
16,-1.5306,-0.2663,0.25,-0.628,0.3826,0.3128,159
16,-1.5449,-0.3418,0.2469,-0.5963,0.2376,0.2714,159
16,-1.5632,-0.3745,0.2612,-0.5963,0.2376,0.2714,159
16,-1.5591,-0.2265,0.249,-0.5124,0.0969,0.2071,159
16,-1.5591,-0.2265,0.249,-0.3826,-0.0402,0.2169,159
16,-1.5438,-0.1408,0.2234,-0.2779,-0.1503,0.2136,159
16,-1.501,-0.0295,0.203,-0.2278,-0.2507,0.2005,159
16,-1.3459,0.2438,0.1551,-0.2365,-0.351,0.2005,159
16,-1.2397,0.25,0.1959,-0.2856,-0.4153,0.1678,159
16,-1.1173,0.2775,0.1703,-0.4197,-0.4655,0.0948,159
16,-0.9928,0.2704,0.1775,-0.5635,-0.4677,0.0566,159
16,-0.8439,0.2928,0.1765,-0.5635,-0.4677,0.0566,159
16,-0.7755,0.251,0.1551,-0.6955,-0.4164,0.0141,159
16,-0.7755,0.251,0.1551,-0.8449,-0.351,-0.0217,159
16,-0.7438,0.1785,0.1234,-1.0095,-0.2899,-0.0654,159
16,-0.6928,0.1581,0.0673,-1.0728,-0.2136,-0.0751,159
16,-0.7,0.15,0.05,-1.0923,-0.1177,-0.0894,159
16,-0.6928,0.1143,0.0245,-1.148,-0.061,-0.1003,159
16,-0.6755,0.0806,0.0061,-1.2222,-0.049,-0.1024,159
16,-0.6703,-0.0031,-0.0173,-1.256,-0.0402,-0.1188,159
16,-0.6683,-0.0051,-0.0214,-1.2276,-0.024,-0.1167,159
16,-0.6622,-0.0173,-0.0071,-1.2276,-0.024,-0.1167,159
16,-0.6622,-0.0173,-0.0071,-1.1927,-0.025,-0.1274,159
16,-0.6928,-0.0347,-0.0286,-1.1894,-0.0272,-0.1417,159
16,-0.7183,-0.0755,-0.0357,-1.1688,-0.0402,-0.1581,159
16,-0.7245,-0.1234,-0.0347,-1.1121,-0.036,-0.1907,159
16,-0.7133,-0.1153,-0.0388,-1.0673,-0.036,-0.181,159
16,-0.7551,-0.1296,-0.0836,-1.1284,-0.024,-0.1417,159
16,-0.7765,-0.1346,-0.1275,-1.099,-0.0011,-0.2039,159
16,-0.8,-0.1326,-0.1847,-1.1098,-0.0065,-0.1776,159
16,-0.7775,-0.152,-0.1938,-1.027,-0.0566,-0.1526,159
16,-0.7836,-0.1581,-0.1837,-1.027,-0.0566,-0.1526,159
16,-0.7836,-0.1581,-0.1837,-0.9234,-0.1123,-0.1232,159
16,-0.7693,-0.1653,-0.1377,-0.8504,-0.1722,-0.086,159
16,-0.7806,-0.1296,-0.1163,-0.7457,-0.1972,-0.0501,159
16,-0.8214,-0.1571,-0.1,-0.7327,-0.1776,-0.0305,159
16,-0.8418,-0.1377,-0.1479,-0.7447,-0.1144,-0.0141,159
16,-0.8571,-0.1316,-0.1806,-0.701,-0.0577,0.0076,159
16,-0.8387,-0.1612,-0.1724,-0.6759,-0.0621,0.0206,159
16,-0.8541,-0.1724,-0.1908,-0.6116,-0.0621,0.037,159
16,-0.853,-0.1806,-0.2,-0.5647,-0.0545,0.0545,159
16,-0.8724,-0.199,-0.201,-0.5647,-0.0545,0.0545,159
16,-0.9061,-0.2959,-0.1785,-0.5265,-0.0643,0.0839,159
16,-0.9061,-0.2959,-0.1785,-0.5299,-0.0828,0.11,159
16,-0.9163,-0.3336,-0.1714,-0.544,-0.0925,0.1417,159
16,-0.8898,-0.3632,-0.1592,-0.4938,-0.0555,0.1886,159
16,-1.0031,-0.3796,-0.1918,-0.4393,0.0392,0.2812,159
16,-1.0377,-0.402,-0.1938,-0.2812,0.0818,0.3729,159
16,-1.0806,-0.3653,-0.2265,-0.11,0.1112,0.4012,159
16,-1.1377,-0.3755,-0.203,-0.0032,0.1384,0.4034,159
16,-1.2316,-0.3969,-0.1387,0.1798,0.1221,0.4077,159
16,-1.5031,-0.5959,0.0622,0.1798,0.1221,0.4077,159
16,-1.5877,-0.1673,0.3663,0.3489,0.0784,0.4448,159
16,-1.5877,-0.1673,0.3663,0.9485,0.1438,0.6051,159
16,-1.7183,-0.1826,-0.0836,1.2865,0.4481,0.6257,159
16,-1.6796,0.0836,0.0622,0.8601,0.4,0.4862,159
16,-1.7765,0.1102,0.1255,0.954,0.35,0.35,159
16,-1.6183,0.1796,0.1969,0.8613,0.2485,0.2278,159
16,-1.5765,0.1694,0.1622,0.6966,0.1297,0.1253,159
16,-1.2336,0.0081,0.1949,0.5374,-0.0032,0.0162,159
16,-1.199,-0.0398,0.2224,0.4753,-0.0534,-0.0915,159
16,-1.1622,-0.3041,0.2194,0.5374,-0.0511,-0.2725,159
16,-1.1703,-0.4275,0.2551,0.7283,-0.0097,-0.2388,159
16,-1.1694,-0.3439,0.1969,0.7283,-0.0097,-0.2388,159
16,-1.1694,-0.3439,0.1969,0.9158,0.0435,-0.2802,159
16,-1.2316,-0.2418,0.1632,1.0946,0.0959,-0.2039,159
16,-1.2306,-0.1224,0.0908,1.2298,0.0937,-0.1744,159
16,-1.1571,-0.0948,0.0989,1.2865,0.0795,-0.1635,159
16,-1.1377,-0.0469,0.0786,1.3246,0.025,-0.1613,159
16,-1.0561,0.0,0.0786,1.3813,-0.0185,-0.1515,159
16,-1.001,0.0602,0.0734,1.45,-0.049,-0.1493,159
16,-1.0071,0.202,0.0684,1.5089,-0.0589,-0.098,159
16,-0.9418,0.2183,0.0928,1.5263,-0.073,-0.1003,159
16,-0.903,0.2194,0.0969,1.5263,-0.073,-0.1003,159
16,-0.8316,0.2224,0.0939,1.4685,-0.1133,-0.1503,159
16,-0.8316,0.2224,0.0939,1.3639,-0.1667,-0.1384,159
16,-0.8357,0.202,0.0857,1.3017,-0.1972,-0.1352,159
16,-0.801,0.2204,0.0857,1.2842,-0.2027,-0.1428,159
16,-0.7693,0.2306,0.0724,1.2527,-0.2256,-0.1471,159
16,-0.754,0.2071,0.0663,1.185,-0.2573,-0.1678,159
16,-0.7499,0.1857,0.0551,1.1556,-0.2802,-0.1842,159
16,-0.7326,0.1806,0.0734,1.1654,-0.3041,-0.2081,159
16,-0.6735,0.1663,0.1071,1.1654,-0.3041,-0.2081,159
16,-0.6918,0.1581,0.0755,1.1556,-0.338,-0.2344,159
16,-0.6938,0.1857,0.1061,1.1567,-0.3695,-0.2627,159
16,-0.6938,0.1857,0.1061,1.2025,-0.3477,-0.2682,159
16,-0.6806,0.1796,0.1714,1.2178,-0.3456,-0.2649,159
16,-0.6949,0.1714,0.1367,1.1764,-0.3554,-0.2659,159
16,-0.6632,0.204,0.1653,1.1753,-0.3434,-0.2573,159
16,-0.699,0.2857,0.1969,1.2003,-0.2943,-0.2529,159
16,-0.6959,0.2918,0.1703,1.1688,-0.2627,-0.2485,159
16,-0.7092,0.2877,0.1694,1.099,-0.23,-0.2507,159
16,-0.7163,0.3081,0.1581,1.099,-0.23,-0.2507,159
16,-0.7163,0.3081,0.1581,1.0641,-0.182,-0.255,159
16,-0.7693,0.3837,0.1377,1.0488,-0.1329,-0.2442,159
16,-0.803,0.3745,0.1377,0.9986,-0.086,-0.2638,159
16,-0.8152,0.3745,0.1439,0.9048,-0.0675,-0.2802,159
16,-0.8469,0.3734,0.1703,0.8427,-0.0686,-0.2779,159
16,-0.8582,0.3663,0.1959,0.7741,-0.0349,-0.2966,159
16,-0.8949,0.3643,0.2,0.7283,-0.0065,-0.2812,159
16,-0.9061,0.3775,0.2683,0.7043,0.0261,-0.2495,159
17,-0.9928,0.4071,0.3418,0.6596,0.0763,-0.2256,159
17,-1.0388,0.4122,0.3336,0.6596,0.0763,-0.2256,159
17,-1.0388,0.4122,0.3336,0.5757,0.1123,-0.2115,159
17,-1.0765,0.452,0.3143,0.495,0.1526,-0.194,159
17,-1.1082,0.4765,0.3041,0.4263,0.1951,-0.1732,159
17,-1.15,0.5408,0.2296,0.3434,0.2344,-0.1701,159
17,-1.1439,0.5602,0.201,0.231,0.2703,-0.182,159
17,-1.1326,0.5602,0.1785,0.074,0.3172,-0.1886,159
17,-1.1612,0.3939,0.1663,-0.1591,0.339,-0.1428,159
17,-1.1275,0.252,0.1877,-0.4426,0.3128,-0.098,159
17,-1.1908,0.1612,0.202,-0.5713,0.3357,-0.074,159
17,-1.2663,0.1581,0.1898,-0.5713,0.3357,-0.074,159
17,-1.2449,0.1,0.1837,-0.544,0.4273,-0.0141,159
17,-1.2449,0.1,0.1837,-0.5789,0.4862,0.0523,159
17,-1.2673,0.0245,0.1541,-0.7031,0.5145,0.1428,159
17,-1.2438,-0.0306,0.1938,-0.7632,0.5233,0.181,159
17,-1.3643,-0.2204,0.1979,-0.8242,0.545,0.1678,159
17,-1.4122,-0.3193,0.1612,-0.8569,0.4524,0.1995,159
17,-1.3887,-0.5031,0.2101,-0.8285,0.363,0.2125,159
17,-1.3418,-0.552,0.1796,-0.738,0.2878,0.3041,159
17,-1.5031,-0.5622,0.1979,-0.738,0.2878,0.3041,159
17,-1.5388,-0.4979,0.1755,-0.5679,0.2278,0.4797,159
17,-1.4847,-0.4428,0.1877,-0.3565,0.0806,0.4382,159
17,-1.4847,-0.4428,0.1877,-0.1188,-0.0589,0.2725,159
17,-1.5418,-0.1041,0.2357,0.1318,-0.1133,0.1951,159
17,-1.5153,0.0,0.2377,0.2888,-0.2344,0.2245,159
17,-1.4367,0.0755,0.2775,0.2268,-0.3401,0.1744,159
17,-1.3347,0.3846,0.1837,0.1297,-0.4601,0.1798,159
17,-1.101,0.3132,0.2388,0.0097,-0.5549,0.0272,159
17,-0.9847,0.3612,0.2857,-0.1144,-0.5549,-0.0872,159
17,-0.9561,0.4203,0.3255,-0.1144,-0.5549,-0.0872,159
17,-0.9561,0.4203,0.3255,-0.2376,-0.5135,-0.1068,159
17,-0.8102,0.2551,0.2204,-0.4906,-0.4786,-0.1503,159
17,-0.8102,0.2551,0.2204,-0.7609,-0.4677,-0.1329,159
17,-0.751,0.2255,0.1714,-0.9027,-0.4372,-0.1253,159
17,-0.7408,0.2214,0.1459,-0.9834,-0.3663,-0.1503,159
17,-0.6765,0.1683,0.0602,-1.0608,-0.3227,-0.1471,158
17,-0.6581,0.1255,0.0255,-1.135,-0.2966,-0.1613,158
17,-0.6561,0.1214,0.0092,-1.173,-0.2638,-0.169,158
17,-0.6337,0.1214,0.0204,-1.2167,-0.2507,-0.182,158
17,-0.5887,0.0398,-0.0071,-1.2821,-0.2529,-0.1995,158
17,-0.5887,0.0398,-0.0071,-1.2821,-0.2529,-0.1995,158
17,-0.5887,-0.001,-0.0234,-1.2886,-0.2518,-0.1831,158
17,-0.5734,0.0193,-0.0102,-1.2636,-0.2245,-0.2039,158
17,-0.6112,-0.0591,-0.0193,-1.2865,-0.1995,-0.231,158
17,-0.5898,-0.1183,-0.004,-1.2613,-0.2081,-0.2388,158
17,-0.6102,-0.203,-0.0092,-1.2451,-0.157,-0.2594,158
17,-0.6694,-0.1346,-0.0428,-1.3781,-0.1123,-0.1907,158
17,-0.704,-0.2938,-0.0857,-1.3378,-0.0675,-0.2093,158
17,-0.751,-0.2877,-0.1459,-1.2581,-0.0479,-0.1766,158
17,-0.7499,-0.3081,-0.1653,-1.1459,-0.1123,-0.1047,158
17,-0.8163,-0.3367,-0.1143,-1.1459,-0.1123,-0.1047,158
17,-0.8163,-0.3367,-0.1143,-1.0248,-0.2005,-0.0698,158
17,-0.8234,-0.3173,-0.0714,-0.9397,-0.2638,-0.0261,158
17,-0.853,-0.2969,-0.0684,-0.8122,-0.2617,0.049,158
17,-0.8867,-0.2449,-0.0948,-0.7174,-0.2136,0.1329,158
17,-0.9092,-0.2622,-0.1428,-0.6955,-0.1711,0.1482,158
17,-0.902,-0.2367,-0.1694,-0.6781,-0.1547,0.1623,158
17,-0.8898,-0.2051,-0.1612,-0.5713,-0.1776,0.1852,158
17,-0.8979,-0.1826,-0.1387,-0.4578,-0.1995,0.1995,158
17,-0.9081,-0.1949,-0.1061,-0.4164,-0.218,0.2081,158
17,-0.9173,-0.2245,-0.0887,-0.4164,-0.218,0.2081,158
17,-0.9183,-0.2643,-0.0581,-0.3935,-0.2289,0.2474,158
17,-0.9183,-0.2643,-0.0581,-0.3729,-0.2191,0.2693,158
17,-0.9673,-0.3061,-0.0367,-0.3434,-0.181,0.3151,158
17,-0.9857,-0.3041,-0.0418,-0.2856,-0.1232,0.3663,158
17,-1.0214,-0.3091,-0.0591,-0.2474,-0.0392,0.4044,158
17,-1.0347,-0.3234,-0.0652,-0.2321,0.012,0.4273,158
17,-1.0969,-0.3122,-0.0979,-0.1732,0.0511,0.4546,158
17,-1.1346,-0.3245,-0.1,-0.0534,0.0589,0.483,158
17,-1.3928,-0.0612,0.2296,0.3695,-0.0305,0.5833,158
17,-1.5541,-0.1765,0.1387,0.665,0.2617,0.6257,158
17,-1.5898,-0.049,0.2051,0.5004,0.3466,0.5221,158
17,-1.5898,-0.049,0.2051,0.5004,0.3466,0.5221,158
17,-1.5836,-0.0092,0.1908,0.495,0.2932,0.4426,158
17,-1.5061,0.0887,0.1806,0.4524,0.2485,0.412,158
17,-1.4673,0.2867,0.1724,0.4851,0.255,0.3761,158
17,-1.45,0.2581,0.2806,0.5156,0.2409,0.2518,158
17,-1.2734,0.2133,0.2643,0.3597,0.182,0.1503,158
17,-1.1469,0.0928,0.2581,0.1253,0.0806,0.0698,158
17,-1.0377,0.0,0.2408,0.0076,0.0261,-0.0152,158
17,-1.0183,-0.0173,0.3112,0.0272,0.0469,-0.0937,158
17,-0.9877,-0.2908,0.301,0.0272,0.0469,-0.0937,158
17,-1.0347,-0.454,0.302,0.0011,0.0631,-0.1907,158
17,-1.0347,-0.454,0.302,0.1798,0.1221,-0.1657,158
17,-1.0979,-0.3479,0.3102,0.388,0.218,-0.1232,158
17,-1.1561,-0.3653,0.249,0.5647,0.2768,-0.1515,158
17,-1.2051,-0.2388,0.2092,0.714,0.2725,-0.1547,158
17,-1.2204,-0.1887,0.15,0.7958,0.2464,-0.1417,158
17,-1.1837,-0.1408,0.15,0.8809,0.2005,-0.1744,158
17,-1.1663,-0.0234,0.1296,0.9626,0.1657,-0.1919,158
17,-1.1703,-0.0081,0.1275,1.0379,0.1024,-0.2016,158
17,-1.1163,0.0602,0.1377,1.0379,0.1024,-0.2016,158
17,-1.0602,0.0959,0.1296,1.0488,0.0654,-0.2289,158
17,-1.0602,0.0959,0.1296,1.0433,-0.012,-0.2071,158
17,-0.9581,0.1469,0.153,1.04,-0.0479,-0.206,158
17,-0.9367,0.1622,0.1163,1.0063,-0.061,-0.1852,158
17,-0.8765,0.2153,0.1132,0.9387,-0.0828,-0.1461,158
17,-0.7898,0.1479,0.0989,0.8754,-0.1079,-0.1732,158
17,-0.7602,0.1398,0.1163,0.8427,-0.1242,-0.1852,158
17,-0.754,0.1326,0.0939,0.8199,-0.1221,-0.1831,158
17,-0.7316,0.1061,0.0836,0.8199,-0.1221,-0.1831,158
17,-0.7224,0.0857,0.0652,0.7981,-0.1308,-0.1831,158
17,-0.7265,0.0806,0.0693,0.8056,-0.1341,-0.1852,158
17,-0.7265,0.0806,0.0693,0.8329,-0.1449,-0.1919,158
17,-0.7173,0.0847,0.0724,0.8493,-0.1744,-0.2005,158
17,-0.6938,0.0663,0.0663,0.8656,-0.2169,-0.2049,158
17,-0.6938,0.0724,0.0673,0.8962,-0.2495,-0.2159,158
17,-0.6877,0.0908,0.0765,0.9431,-0.2703,-0.218,158
17,-0.6938,0.1173,0.0877,0.979,-0.2834,-0.2268,158
18,-0.7101,0.1683,0.1265,0.9943,-0.2922,-0.2333,158
18,-0.7296,0.2,0.1326,0.9954,-0.2966,-0.2344,158
18,-0.7408,0.2418,0.1602,0.9954,-0.2966,-0.2344,158
18,-0.7408,0.2418,0.1602,0.9812,-0.2856,-0.2376,158
18,-0.7581,0.2602,0.1642,0.9376,-0.2693,-0.2518,158
18,-0.7755,0.2918,0.1765,0.8765,-0.255,-0.2617,158
18,-0.8204,0.2969,0.1755,0.8199,-0.218,-0.2758,158
18,-0.8367,0.3112,0.199,0.7697,-0.1875,-0.2856,158
18,-0.8918,0.3479,0.2092,0.7075,-0.1547,-0.2856,158
18,-0.951,0.3041,0.2122,0.6367,-0.1308,-0.2966,158
18,-0.9459,0.302,0.2377,0.5647,-0.1068,-0.2998,158
18,-0.9714,0.2969,0.2581,0.5287,-0.0969,-0.2747,158
18,-0.9683,0.3204,0.3275,0.5287,-0.0969,-0.2747,158
18,-0.9683,0.3204,0.3275,0.507,-0.0545,-0.2638,158
18,-0.9796,0.3439,0.3541,0.4797,-0.0053,-0.2354,158
18,-0.9663,0.3694,0.3775,0.4088,0.0469,-0.2016,158
18,-0.9663,0.3755,0.3336,0.2888,0.1112,-0.1755,158
18,-0.9612,0.3908,0.3061,0.1755,0.1732,-0.1831,158
18,-0.9806,0.4194,0.2714,0.0818,0.2725,-0.1744,158
18,-1.004,0.4296,0.201,-0.0349,0.3597,-0.1297,158
18,-1.102,0.3561,0.1602,-0.2081,0.4328,-0.085,158
18,-1.1398,0.2724,0.1602,-0.387,0.4589,-0.0457,158
18,-1.2438,0.2224,0.1541,-0.387,0.4589,-0.0457,158
18,-1.3673,0.2275,0.1928,-0.4862,0.52,-0.0272,158
18,-1.3673,0.2275,0.1928,-0.495,0.5942,0.0131,158
18,-1.3591,0.1918,0.1898,-0.5593,0.6268,0.0698,158
18,-1.3275,0.0979,0.2,-0.7293,0.6159,0.1133,158
18,-1.3184,-0.004,0.2367,-0.8765,0.6051,0.1438,158
18,-1.3418,-0.1581,0.3152,-0.9408,0.5919,0.1449,158
18,-1.3653,-0.2653,0.2795,-0.9594,0.5538,0.1221,158
18,-1.3367,-0.3887,0.3357,-0.9561,0.5059,0.1286,158
18,-1.3714,-0.4877,0.2795,-0.9561,0.5059,0.1286,158
18,-1.3643,-0.553,0.2643,-0.8787,0.4317,0.1864,158
18,-1.3704,-0.4888,0.2306,-0.7522,0.3565,0.3193,158
18,-1.3704,-0.4888,0.2306,-0.5429,0.2365,0.2976,158
18,-1.3234,-0.401,0.2306,-0.2518,0.1701,0.2278,158
18,-1.3816,-0.052,0.2867,0.0087,0.1318,0.2159,158
18,-1.3949,0.0602,0.2918,0.074,0.0,0.2562,158
18,-1.3224,0.1653,0.302,-0.0959,-0.1493,0.2485,158
18,-1.2397,0.2133,0.3357,-0.2737,-0.2737,0.242,158
18,-1.0765,0.353,0.2949,-0.3445,-0.314,0.2016,158
18,-0.9847,0.4153,0.2786,-0.3848,-0.3107,0.0751,158
18,-0.9847,0.4153,0.2786,-0.3848,-0.3107,0.0751,158
18,-0.8091,0.4755,0.2112,-0.4851,-0.2703,-0.0065,158
18,-0.8091,0.4755,0.2112,-0.6999,-0.2104,-0.0828,158
18,-0.7918,0.4765,0.2112,-0.9997,-0.1635,-0.0806,158
18,-0.7888,0.4326,0.1571,-1.281,-0.1613,0.0228,158
18,-0.7551,0.3,0.0969,-1.5841,-0.1449,0.0097,158
18,-0.7255,0.1285,0.0061,-1.7291,-0.1035,-0.0043,158
18,-0.7255,0.1091,-0.0153,-1.7432,-0.0435,0.0,158
18,-0.7683,0.1153,0.0,-1.7498,-0.0087,0.0011,158
18,-0.7153,-0.0581,-0.0449,-1.8153,-0.024,-0.0305,158
18,-0.7153,-0.0581,-0.0449,-1.8153,-0.024,-0.0305,158
18,-0.7265,-0.0418,-0.0612,-1.8044,-0.0566,0.0316,158
18,-0.7479,-0.0908,-0.0459,-1.7182,-0.0087,0.0021,158
18,-0.7479,-0.1326,-0.0459,-1.6092,0.0228,-0.0828,158
18,-0.7643,-0.1541,-0.1255,-1.6735,0.0294,-0.0828,158
18,-0.8255,-0.2469,-0.1928,-1.7705,0.0272,-0.0425,158
18,-0.802,-0.2581,-0.1785,-1.68,-0.0654,-0.012,158
18,-0.8439,-0.2786,-0.1724,-1.4587,-0.1503,0.0381,158
18,-0.8275,-0.2592,-0.1755,-1.3105,-0.1962,0.0545,158
18,-0.8184,-0.2734,-0.1826,-1.3105,-0.1962,0.0545,158
18,-0.8224,-0.2704,-0.1887,-1.2603,-0.242,0.024,158
18,-0.8224,-0.2704,-0.1887,-1.1949,-0.255,-0.0097,158
18,-0.8377,-0.2449,-0.2,-1.1121,-0.2747,0.0065,158
18,-0.8234,-0.2479,-0.204,-1.0509,-0.2834,0.0206,158
18,-0.8571,-0.2643,-0.2051,-1.0084,-0.2922,0.0381,158
18,-0.8877,-0.2632,-0.204,-0.9376,-0.3063,0.0708,158
18,-0.9265,-0.2275,-0.2,-0.8242,-0.314,0.0959,158
18,-0.951,-0.2234,-0.1908,-0.7741,-0.3227,0.1123,158
18,-0.9908,-0.2704,-0.2224,-0.6803,-0.2802,0.0992,158
18,-1.0112,-0.3193,-0.2214,-0.6585,-0.3019,0.0937,158
18,-1.0132,-0.3653,-0.1969,-0.652,-0.3532,0.0839,158
18,-1.0031,-0.4296,-0.1398,-0.652,-0.3532,0.0839,158
18,-1.0031,-0.4296,-0.1398,-0.6247,-0.388,0.0925,158
18,-0.9959,-0.4367,-0.1163,-0.4992,-0.3161,0.1428,158
18,-0.9836,-0.4367,-0.1326,-0.3532,-0.2224,0.1907,158
18,-0.9601,-0.3775,-0.1561,-0.169,-0.1362,0.2039,158
18,-1.0163,-0.2867,-0.1091,0.0065,-0.0795,0.231,158
18,-1.0163,-0.2214,-0.0887,0.1886,-0.074,0.2998,158
18,-1.05,-0.1581,-0.0948,0.3575,-0.0446,0.3848,158
18,-1.0561,-0.1622,-0.0796,0.5047,-0.012,0.4263,158
18,-1.2101,0.0561,0.4694,0.5908,-0.025,0.4992,158
18,-1.2928,-0.1245,0.0428,0.5908,-0.025,0.4992,158
18,-1.2928,-0.1245,0.0428,0.4568,0.267,0.4536,158
18,-1.501,0.0122,0.1959,0.3085,0.4349,0.3761,158
18,-1.4847,0.0061,0.1194,0.2278,0.3761,0.3729,158
18,-1.4622,-0.0132,0.1408,0.255,0.3521,0.2878,158
18,-1.4908,0.0898,0.1877,0.3477,0.363,0.1667,158
18,-1.5051,0.1102,0.2367,0.3532,0.2976,0.085,158
18,-1.3286,-0.0336,0.2714,0.1919,0.1417,-0.0217,158
18,-1.201,-0.2183,0.251,0.073,-0.0108,-0.1253,158
18,-1.1642,-0.2928,0.2786,0.1493,-0.0501,-0.1995,158
18,-1.1632,-0.2765,0.302,0.1493,-0.0501,-0.1995,158
18,-1.2561,-0.2836,0.3428,0.3826,-0.0021,-0.1962,158
18,-1.2561,-0.2836,0.3428,0.5461,0.0751,-0.2169,158
18,-1.1938,-0.3091,0.3489,0.6127,0.0654,-0.2125,158
18,-1.2612,-0.353,0.2704,0.6672,0.0555,-0.231,158
18,-1.2153,-0.2612,0.1755,0.7762,0.0523,-0.2169,158
18,-1.1938,-0.2336,0.1337,0.9202,0.0806,-0.1875,158
18,-1.1908,-0.1796,0.1041,1.0652,0.1003,-0.1907,158
18,-1.1959,-0.1102,0.1153,1.1884,0.0915,-0.1852,158
18,-1.1418,-0.0295,0.1132,1.2254,0.024,-0.1842,158
18,-1.0714,-0.004,0.1153,1.2254,0.024,-0.1842,158
18,-1.0245,0.0224,0.0948,1.2396,-0.0446,-0.1842,158
18,-1.0245,0.0224,0.0948,1.2974,-0.073,-0.1732,158
18,-0.9306,0.1541,0.1469,1.3584,-0.074,-0.1591,158
19,-0.8928,0.25,0.1061,1.329,-0.0948,-0.1308,158
19,-0.8184,0.201,0.1367,1.2363,-0.1362,-0.1264,158
19,-0.7908,0.1724,0.1082,1.1316,-0.1722,-0.1613,158
19,-0.7285,0.1632,0.102,1.1043,-0.1831,-0.1701,158
19,-0.7122,0.1581,0.0959,1.0772,-0.181,-0.1919,158
19,-0.702,0.1153,0.0643,1.0772,-0.181,-0.1919,158
19,-0.702,0.1153,0.0643,1.052,-0.1919,-0.2159,158
19,-0.6826,0.1,0.0704,1.0673,-0.206,-0.23,158
19,-0.6826,0.1,0.0704,1.0935,-0.2071,-0.255,158
19,-0.6653,0.0948,0.0714,1.1207,-0.231,-0.2529,158
19,-0.6581,0.0775,0.0745,1.1295,-0.2539,-0.2693,158
19,-0.653,0.102,0.0857,1.1741,-0.2693,-0.2714,158
19,-0.6683,0.1245,0.1061,1.2308,-0.2703,-0.2693,158
19,-0.6694,0.1479,0.1316,1.2483,-0.2682,-0.2703,158
19,-0.6703,0.1632,0.1449,1.2451,-0.2747,-0.2583,158
19,-0.6938,0.1979,0.1938,1.2374,-0.2659,-0.2464,158
19,-0.702,0.2408,0.2408,1.2374,-0.2659,-0.2464,158
19,-0.702,0.2408,0.2408,1.2342,-0.2321,-0.2354,158
19,-0.7326,0.2745,0.2357,1.2058,-0.1896,-0.2268,158
19,-0.7357,0.3755,0.2724,1.1633,-0.1449,-0.2169,158
19,-0.7795,0.3826,0.2469,1.0848,-0.0894,-0.2201,158
19,-0.7704,0.4092,0.2592,0.9877,-0.0566,-0.2159,158
19,-0.8081,0.4244,0.252,0.8874,-0.0261,-0.2049,158
19,-0.8152,0.3775,0.2775,0.7544,-0.0011,-0.2453,158
19,-0.8152,0.3591,0.2765,0.6454,0.0108,-0.2409,158
19,-0.8081,0.3653,0.3112,0.6127,0.049,-0.2278,158
19,-0.8622,0.3826,0.3479,0.6127,0.049,-0.2278,158
19,-0.8622,0.3826,0.3479,0.5854,0.1286,-0.2268,158
19,-0.8796,0.3959,0.3224,0.5374,0.194,-0.2049,158
19,-0.9142,0.4214,0.3152,0.4775,0.2605,-0.1875,158
19,-0.9601,0.4418,0.2918,0.4164,0.3292,-0.2115,158
19,-1.004,0.4897,0.2357,0.3542,0.3826,-0.2365,158
19,-1.0652,0.4918,0.2224,0.2779,0.4469,-0.2125,158
19,-1.1612,0.4785,0.2581,0.1438,0.5047,-0.1329,158
19,-1.353,0.4275,0.2612,-0.0904,0.5091,-0.0282,158
19,-1.402,0.4347,0.2612,-0.0904,0.5091,-0.0282,158
19,-1.4387,0.4224,0.2357,-0.3151,0.5004,0.0294,158
19,-1.4387,0.4224,0.2357,-0.483,0.5233,0.0664,158
19,-1.4479,0.3489,0.1979,-0.7304,0.5265,0.085,158
19,-1.4153,0.0796,0.1806,-0.9877,0.5135,0.0872,158
19,-1.5122,-0.0102,0.1938,-1.1316,0.5353,0.085,158
19,-1.5071,-0.1826,0.2163,-1.2014,0.5145,0.0545,158
19,-1.4326,-0.2979,0.2051,-1.2493,0.4393,0.0402,158
19,-1.3877,-0.6602,0.2898,-1.1862,0.3695,0.1329,158
19,-1.4265,-0.7081,0.2357,-1.1121,0.3073,0.4187,158
19,-1.3357,-0.8204,0.1816,-1.1121,0.3073,0.4187,158
19,-1.4785,-0.6387,0.2643,-0.9517,0.2529,0.5221,158
19,-1.4785,-0.6387,0.2643,-0.4655,0.2398,0.4797,158
19,-1.3245,-0.3,0.3122,0.243,0.1068,0.2518,158
19,-1.4092,-0.1592,0.4061,0.3761,0.0523,0.1133,158
19,-1.4112,-0.0357,0.3214,0.3205,-0.1123,0.1602,158
19,-1.3898,0.1326,0.3,0.1242,-0.2115,0.1308,158
19,-1.2918,0.1439,0.2724,-0.024,-0.2844,0.0402,158
19,-1.2092,0.3224,0.2255,-0.0414,-0.3161,-0.0294,158
19,-1.0265,0.3745,0.2326,-0.0228,-0.326,-0.169,158
19,-0.8816,0.4704,0.2296,-0.0228,-0.326,-0.169,158
19,-0.8816,0.4704,0.2296,-0.1133,-0.338,-0.2998,158
19,-0.8265,0.4734,0.2826,-0.3434,-0.3073,-0.3172,158
19,-0.8428,0.4183,0.2765,-0.7369,-0.2922,-0.2289,158
19,-0.6653,0.1928,0.1877,-1.1621,-0.3838,-0.1471,158
19,-0.6275,0.0877,0.1224,-1.3901,-0.3685,-0.1613,158
19,-0.6663,0.0847,0.1061,-1.3388,-0.2474,-0.1373,158
19,-0.6785,0.1214,0.0673,-1.2756,-0.1635,-0.1188,158
19,-0.6265,0.0245,0.0102,-1.3966,-0.1493,-0.1177,158
19,-0.6612,-0.0163,-0.0143,-1.4641,-0.1732,-0.0784,158
19,-0.6112,-0.0132,-0.0398,-1.4641,-0.1732,-0.0784,158
19,-0.6112,-0.0132,-0.0398,-1.3944,-0.1558,-0.1013,158
19,-0.6928,-0.1357,-0.0193,-1.3258,-0.1297,-0.1428,158
19,-0.5959,-0.0295,-0.0031,-1.4053,-0.2005,-0.0751,158
19,-0.6541,-0.0908,-0.0295,-1.4336,-0.1995,-0.0501,158
19,-0.6622,-0.1377,-0.0265,-1.4696,-0.193,-0.073,158
19,-0.7275,-0.1683,-0.0286,-1.3769,-0.1842,-0.0392,158
19,-0.749,-0.1959,-0.0102,-1.3399,-0.1667,-0.0174,158
19,-0.8112,-0.2469,-0.0418,-1.3311,-0.1362,0.0108,158
19,-0.855,-0.25,-0.0541,-1.3126,-0.0992,0.0261,158
19,-0.8694,-0.2775,-0.0693,-1.2701,-0.0686,0.0316,158
19,-0.8765,-0.3255,-0.1204,-1.2232,-0.0282,0.0349,158
19,-0.8989,-0.2734,-0.2224,-1.2232,-0.0282,0.0349,158
19,-0.8898,-0.3173,-0.2092,-1.2069,-0.037,0.0883,158
19,-0.8898,-0.3173,-0.2092,-1.1077,-0.0969,0.0915,158
19,-0.9153,-0.303,-0.2112,-1.04,-0.1449,0.1112,158
19,-0.8979,-0.3041,-0.1877,-0.9605,-0.1732,0.1362,158
19,-0.8918,-0.3,-0.1826,-0.834,-0.181,0.1613,158
19,-0.8683,-0.3102,-0.1877,-0.7043,-0.1613,0.1732,158
19,-0.8704,-0.3163,-0.204,-0.6127,-0.1286,0.1657,158
19,-0.8541,-0.3408,-0.1837,-0.5244,-0.1242,0.169,158
19,-0.8571,-0.3326,-0.1796,-0.4208,-0.1198,0.1852,158
19,-0.8653,-0.3357,-0.1673,-0.4208,-0.1198,0.1852,158
19,-0.8653,-0.3357,-0.1673,-0.3216,-0.085,0.2147,158
19,-0.9132,-0.3398,-0.1735,-0.2333,-0.0294,0.2474,158
19,-0.9163,-0.351,-0.1735,-0.1798,0.0316,0.2812,158
19,-0.9612,-0.3408,-0.1663,-0.1253,0.0698,0.3096,158
19,-1.0306,-0.3326,-0.1469,-0.0751,0.0883,0.326,158
19,-1.1173,-0.3489,-0.0908,-0.0131,0.0925,0.3183,158
19,-1.1622,-0.3214,-0.0989,0.1787,0.1341,0.3227,158
19,-1.2347,-0.303,-0.0989,0.4109,0.1623,0.3227,158
19,-1.352,-0.2469,0.3152,0.5822,0.1188,0.3314,158
19,-1.4306,0.0408,0.0193,0.5822,0.1188,0.3314,158
19,-1.4306,0.0408,0.0193,1.0074,0.2966,0.4,158
19,-1.454,-0.0571,0.0367,0.5484,0.3924,0.3117,158
19,-1.2888,0.0622,0.0643,0.4132,0.2768,0.2191,158
19,-1.3132,-0.0643,0.2122,0.4187,0.2464,0.1133,158
19,-1.4285,-0.0459,0.3663,0.4448,0.2954,0.0839,158
19,-1.5806,-0.0245,0.3775,0.424,0.3586,0.0828,158
19,-1.6041,-0.0438,0.3489,0.3128,0.2922,0.086,158
19,-1.4694,-0.152,0.0704,0.2245,0.1831,0.0511,158
19,-1.303,-0.0836,0.1194,0.375,0.1406,-0.012,158
19,-1.3193,-0.0836,0.0989,0.375,0.1406,-0.012,158
19,-1.1775,-0.199,0.1816,0.5484,0.085,-0.0795,158
19,-1.1775,-0.199,0.1816,0.5658,-0.0141,-0.1286,158
