Timestamp,Ax,Ay,Az,Rx,Ry,Rz,EMG
0,-0.6731,-0.8987,0.0051,-3.8339,-4.2393,-3.4423,2027
0,-0.6499,-0.313,0.5398,-2.3442,-3.7767,-3.8374,2037
0,-0.4619,-0.4607,1.1558,-0.925,-3.897,-1.7912,2070
0,-0.9299,-1.2876,1.3591,1.5651,-4.1875,-1.2222,2038
0,-0.4998,-1.6252,1.4304,0.037,-3.4111,-1.1443,2006
0,-1.0762,-1.4883,0.5212,-2.2554,-2.1755,-0.9601,2022
0,-2.0,-0.5515,1.5166,-1.7239,-0.1581,-1.6978,2030
0,-0.9446,-0.8833,1.29,-0.7377,-0.4486,-0.1808,2123
0,-1.3748,-0.2617,0.7415,0.9899,1.4355,0.1655,2034
0,-1.2427,-1.3323,0.7959,-0.0916,1.7588,1.1801,2032
0,-1.022,-0.3035,0.8499,1.7888,2.1727,1.9106,2069
0,-0.5352,-0.4685,1.3403,4.2819,3.5306,1.4352,1964
0,1.054,-2.0,1.2854,0.4631,3.9033,2.2816,2071
0,1.365,-2.0,-0.4275,-2.0936,4.3634,-0.3537,2132
0,1.917,-1.7034,-0.6909,-0.9951,4.3634,-0.6697,1944
0,1.1418,-0.981,-0.7136,-1.4684,1.8688,0.5613,2048
0,-0.05,-1.5518,-0.4094,0.1898,0.2155,1.7843,2113
0,-0.8083,-1.1665,-0.1208,1.5581,-0.1836,1.7684,2079
0,-0.8499,-0.6721,-0.3579,1.6571,1.3042,1.6141,2069
0,-0.594,-0.9507,0.3306,0.6513,1.1128,0.9949,2048
0,-0.6479,-0.9219,1.0374,0.9224,0.1409,1.2912,2045
0,-0.5063,-0.9878,0.5869,0.901,-0.0979,0.7383,2073
0,-0.1877,-0.5291,0.4419,0.3709,0.3115,0.1722,2027
0,-0.5977,-1.2917,0.4695,0.0535,-0.4368,0.4554,2012
0,-0.2817,-1.106,0.385,0.0502,-0.608,0.3641,2054
0,-0.1177,-0.9983,0.3171,-0.0241,0.0808,0.0417,2026
0,0.063,-1.0059,0.2273,0.0824,0.1132,0.0748,2029
0,0.2451,-1.1514,-0.0042,-0.0943,0.0466,0.3006,2048
0,0.0986,-1.0972,-0.0586,-0.1483,0.4101,0.3916,2026
0,-0.0601,-1.0234,-0.2119,-0.0839,0.548,0.4626,2037
0,-0.1018,-1.0444,-0.2041,-0.1176,0.6359,0.4318,2058
0,-0.084,-1.0225,-0.1055,-0.159,0.6664,0.3414,2060
0,-0.0828,-0.9768,-0.1555,-0.1216,0.5896,0.2309,2071
0,-0.0547,-0.9355,-0.3015,-0.0031,0.5159,0.1551,2044
0,0.0186,-1.0027,-0.4065,0.1205,0.3148,0.1131,1998
0,0.103,-1.0308,-0.2585,0.2666,0.1035,0.1478,2097
0,0.1338,-0.9993,-0.1282,0.4621,-0.1149,0.2358,2052
0,0.0747,-0.9919,0.0913,0.5125,0.0032,0.2864,2011
0,-0.0015,-1.0071,0.179,0.5028,-0.0059,0.3691,2055
0,-0.0981,-1.1162,0.092,0.2356,0.2333,0.3931,2036
0,-0.0132,-1.0845,-0.05,0.1369,0.5123,0.2687,2059
0,0.2498,-1.0422,-0.1462,0.1605,0.4398,0.3278,2058
0,0.3157,-0.9646,-0.2043,0.2434,0.3061,0.5078,2041
0,0.2222,-0.9414,-0.2625,0.3807,0.1147,0.6375,2043
0,0.0444,-0.9807,-0.2815,0.5105,0.1056,0.6675,2028
0,-0.1113,-0.9707,-0.1677,0.5635,0.1297,0.638,2084
0,-0.1804,-0.9558,0.0024,0.5841,0.0984,0.6457,2047
0,-0.1948,-0.9551,0.1465,0.5597,-0.031,0.6231,2047
0,-0.2107,-1.0005,0.1887,0.4829,-0.186,0.54,2035
0,-0.199,-1.02,0.1187,0.4031,-0.1341,0.436,2051
0,-0.1711,-1.0183,0.0522,0.3516,0.0188,0.3699,2047
0,-0.1216,-1.0273,0.0356,0.3512,0.1284,0.3378,2064
0,-0.0674,-1.031,-0.0017,0.3465,0.1701,0.3364,2059
0,-0.0493,-1.0117,-0.0149,0.3498,0.1667,0.3606,2054
0,-0.094,-0.9988,0.0278,0.3432,0.1378,0.3727,2042
0,-0.0718,-1.0247,0.0601,0.3191,0.1969,0.3819,2027
0,-0.0122,-1.0049,0.0627,0.3274,0.2698,0.4285,2047
0,0.02,-1.0073,0.0457,0.3322,0.247,0.4452,2056
0,0.0286,-1.0066,0.0173,0.3532,0.2181,0.5205,2034
0,0.012,-0.9907,-0.0498,0.4104,0.1507,0.5819,2058
0,0.0261,-0.9851,-0.0728,0.4533,0.2159,0.6633,2059
0,0.0559,-0.97,-0.0688,0.4714,0.2232,0.7811,2027
0,0.0388,-0.9836,-0.095,0.4976,0.236,0.8337,2045
0,0.062,-0.9829,-0.1265,0.5256,0.2653,0.9666,2036
0,0.0056,-0.9922,-0.0645,0.5325,0.2064,1.1034,2061
0,0.0146,-0.9829,-0.0427,0.5725,0.1393,1.295,2058
0,-0.0291,-0.9683,-0.0994,0.7042,0.0658,1.3675,2067
0,-0.0767,-1.0874,0.0063,0.7047,0.0238,1.4275,2045
0,-0.1072,-1.1672,0.0613,0.6636,0.0831,1.6161,2046
0,-0.1814,-1.0576,0.1501,0.6204,0.0043,1.6827,2050
0,-0.1633,-0.9297,0.1306,0.622,-0.027,1.6788,1991
0,-0.1787,-0.8865,0.1028,0.7494,-0.077,1.6072,2035
0,-0.1875,-0.9587,0.0317,0.8067,-0.1807,1.5985,2072
0,-0.2075,-0.9792,0.0017,0.8744,-0.1728,1.5347,2045
0,-0.2222,-1.02,-0.0635,0.8803,-0.19,1.5032,2041
0,-0.199,-1.1096,-0.0762,0.8648,-0.2004,1.4635,2075
0,-0.197,-1.1074,-0.0647,0.8492,-0.3032,1.4736,2084
0,-0.2854,-1.0137,-0.0271,0.8803,-0.4264,1.4027,2079
0,-0.377,-1.1917,0.1587,0.7878,-0.3502,1.3079,2052
0,-0.2241,-0.9639,0.2546,0.8685,-0.4611,1.2419,2123
0,-0.3484,-1.0061,0.2764,0.9243,-0.3075,1.3665,2056
0,-0.2151,-1.0149,0.3254,0.9551,-0.4493,1.3114,2066
0,-0.2825,-1.0535,0.293,0.9682,-0.4754,1.2226,2060
0,-0.3479,-1.0229,0.3328,1.0096,-0.3003,1.2884,2055
0,-0.3054,-1.0227,0.2749,1.0416,-0.2939,1.2529,2062
0,-0.2766,-1.0432,0.2288,1.0822,-0.2531,1.254,2039
0,-0.2126,-1.0308,0.1821,1.1049,-0.3163,1.3216,2047
0,-0.2407,-1.0125,0.1296,1.1524,-0.3466,1.3966,2017
0,-0.2761,-0.99,0.188,1.1427,-0.2874,1.4157,2036
0,-0.2678,-1.0112,0.1741,1.1401,-0.2984,1.3938,2046
0,-0.3096,-0.9109,0.2102,1.1395,-0.428,1.4306,2037
0,-0.2861,-0.9734,0.2695,1.1922,-0.606,1.478,2065
0,-0.3921,-1.0186,0.282,1.2414,-0.5681,1.4721,2070
0,-0.3137,-1.1482,0.3127,1.2248,-0.3895,1.346,2071
0,-0.2852,-1.1785,0.3408,1.2203,-0.1364,1.2912,2062
0,-0.2292,-1.1685,0.4314,1.183,0.0537,1.0975,2047
0,-0.2329,-0.9644,0.3936,1.334,0.1406,0.9405,2015
0,-0.085,-1.4004,0.53,0.9883,-0.0495,0.7849,2044
0,0.0012,-0.9622,0.4758,1.0103,-0.8942,0.757,1960
0,-0.0432,-0.7036,0.4875,1.0527,-1.1174,1.0925,2079
0,-0.1877,-0.853,0.3115,1.1595,-1.2938,1.1567,2073
0,-0.386,-1.2505,0.5288,0.9736,-1.5641,0.8047,2058
1,-0.8337,-1.0706,0.6523,0.8925,-1.2834,0.8564,2044
1,-1.0625,-0.8088,0.5244,0.742,-0.8859,1.0732,2053
1,-1.1262,-0.603,0.3867,0.4964,-0.5299,0.9444,2026
1,-1.1233,-0.7959,0.384,-0.2167,0.0577,0.1839,2053
1,-0.8098,-0.6016,0.3289,-0.8887,-0.1523,-0.5189,2064
1,-0.3904,-0.4282,0.302,-0.9982,-0.6454,-0.0019,2091
1,0.052,-0.2783,0.3413,-1.223,-1.2105,0.8568,2070
1,0.1277,-0.2107,0.1948,-1.2473,-1.6259,1.0973,2069
1,-0.1038,-0.1328,0.0242,-1.0336,-2.0454,1.0334,2050
1,-0.438,-0.1279,0.1543,-0.7508,-2.4097,0.9501,2033
1,-0.5808,-0.3599,0.3088,-0.6022,-2.6755,1.2465,2050
1,-0.9167,-0.2493,0.3508,-0.3127,-2.7931,1.1657,2072
1,-1.1797,-0.0701,0.207,0.2934,-1.929,0.7954,2035
1,-0.4861,-0.1953,0.5598,0.3109,-2.0206,0.8132,2008
1,-0.1514,-0.541,0.7739,0.045,-2.4113,1.0226,2020
1,-0.2742,-0.4412,0.5774,-0.1225,-2.4274,1.0861,2008
1,-0.3413,-0.3455,0.3633,-0.1557,-2.1465,1.2431,1994
1,-0.2146,-0.3657,0.3352,-0.1007,-2.4444,0.8967,2037
1,-0.0979,-0.4392,0.3257,-0.1834,-2.8715,0.7811,2032
1,-0.0847,-0.6626,0.2942,-0.2838,-3.1883,0.8376,2010
1,0.073,-0.7456,0.3105,0.0252,-3.1507,0.868,2063
1,0.0439,-0.7993,0.3203,0.1823,-3.13,1.0395,2058
1,-0.0474,-0.7866,0.3984,0.1296,-3.1622,1.2564,2051
1,-0.2136,-0.8452,0.5881,0.0471,-3.0906,1.3906,2051
1,-0.4602,-0.8523,0.6846,-0.0538,-2.8497,1.5707,2066
1,-0.7817,-0.7617,0.8108,0.0601,-1.9622,1.2892,2053
1,-0.0205,-0.8237,0.6565,-0.2177,-2.2177,2.0783,2049
1,-0.6826,-0.719,0.7739,0.161,-1.2091,1.3508,2065
1,-0.3613,-0.7495,0.9202,0.0459,-1.1533,1.273,2030
1,-0.9949,-0.686,0.7998,0.2895,0.017,1.0642,2148
1,0.0659,-0.7815,0.8835,0.0756,-0.0234,1.3881,1991
1,-0.7893,-0.6902,0.8794,0.43,1.6514,0.6404,2062
1,0.1223,-0.9229,0.7393,0.2356,0.6628,1.4583,2009
1,-1.0266,-0.9407,0.8445,0.4199,2.2855,-0.0314,2065
1,-0.1191,-0.981,0.7825,-0.1826,1.4061,1.2027,2012
1,-0.5676,-0.8638,0.7549,0.6554,2.5121,0.5133,2039
1,-0.4592,-1.0054,0.8459,0.2155,2.5774,0.4669,2018
1,-1.0918,-1.0757,0.7314,-0.2522,3.1046,-0.3314,2043
1,-0.6497,-1.1655,0.6211,-0.9637,2.9221,0.1125,2025
1,-0.5911,-1.0742,0.6716,-0.9427,2.9763,-0.0458,2021
1,-0.6838,-1.0681,0.7324,-1.3625,3.0517,-0.4104,2049
1,-0.5386,-1.0503,0.467,-1.8927,2.9419,-0.3738,2093
1,-0.4819,-0.8628,0.4438,-2.0274,2.9015,-0.6189,2054
1,-0.1545,-0.5913,0.2463,-2.1647,2.9767,-0.9797,2039
1,-0.2705,0.1289,0.1125,-1.5518,3.1005,-1.9283,2028
1,0.1599,-0.4255,0.1262,-0.9341,3.4206,-2.4974,2059
1,0.6975,-0.9043,0.0386,-1.7406,3.0537,-0.9461,2075
1,0.4775,-1.043,-0.0684,-1.4213,2.9561,-1.5348,2021
1,0.7898,-0.9124,-0.0581,-1.6442,1.725,-1.3984,2038
1,0.0315,-0.7622,-0.0425,-1.519,0.4432,-1.6644,2062
1,-0.0325,-0.5693,0.0405,-1.1734,-0.337,-2.0566,2036
1,0.4641,-0.8638,0.5435,-1.5832,-0.9424,-1.2716,2056
1,-0.1738,-0.9717,0.1431,-1.7214,-2.1531,-1.7599,2024
1,-0.438,-0.7039,0.385,-1.0107,-2.485,-1.9445,2030
1,-0.3281,-0.7014,0.4524,-1.5386,-2.5211,-2.1202,2091
1,-0.0283,-0.4792,0.332,-1.8628,-1.856,-2.3011,2094
1,-0.1475,-0.4827,0.2551,-1.9799,-1.3865,-2.3835,2055
1,-0.165,-0.5232,0.1196,-1.7833,-1.3838,-2.7149,2020
1,-0.1733,-0.7808,0.0725,-1.7053,-0.8593,-2.9853,2038
1,-0.2737,-0.9182,-0.0139,-1.8707,-0.7774,-3.2794,2038
1,-0.1265,-0.7031,-0.0176,-2.0574,-0.8536,-3.4461,2053
1,0.0459,-0.5505,0.1946,-2.0751,-0.7664,-3.4694,2052
1,-0.012,-0.5759,0.2991,-2.0295,-1.219,-3.5966,2033
1,-0.2358,-0.6653,0.2136,-2.1648,-1.4584,-3.753,2040
1,-0.5178,-0.7212,0.2473,-2.2963,-1.0311,-3.9554,2058
1,-0.5957,-0.7212,0.3687,-2.4008,-0.4164,-4.1508,2055
1,-0.5122,-0.6877,0.4993,-2.4946,0.1188,-4.2193,2054
1,-0.3918,-0.7227,0.5371,-2.4979,0.4089,-4.2297,2049
1,-0.4565,-0.835,0.5269,-2.4071,0.5907,-4.1025,2042
1,-0.2034,-2.0,-0.7336,-4.119,1.7431,0.4597,2141
1,-2.0,0.8494,0.2314,-1.0395,0.434,-3.486,2033
1,-1.9048,-1.0608,1.2349,-2.3438,-0.2266,-3.22,2021
1,-1.9385,-2.0,1.9999,4.3634,2.4587,3.0986,2062
1,-0.8628,-2.0,1.9999,2.9606,-0.9028,0.1396,2411
1,-2.0,0.9153,1.9999,4.3634,0.8058,4.0903,1272
1,-0.2998,-0.355,0.7058,1.2311,-2.847,1.6555,1723
1,0.7468,-0.908,0.7107,-4.3635,0.334,0.0502,2275
1,0.0154,-1.8313,-2.0,-3.0016,4.3634,-0.7938,2275
1,-0.7507,-0.8608,-1.3665,-0.414,4.3294,0.5032,1994
1,-0.4944,-1.3765,-0.7239,1.0182,2.6445,0.6407,2081
1,0.0674,-1.0227,0.196,0.5536,2.5111,0.0366,2047
1,0.3984,-1.0464,1.1858,0.2746,1.0099,0.0382,2042
1,0.2739,-0.9431,0.7502,0.2356,-0.0041,0.6042,2027
1,-0.3867,-1.0586,0.333,0.6778,-0.2019,0.7158,2035
1,-0.3806,-1.0073,0.1287,0.6861,-0.7228,0.39,2040
1,-0.1731,-0.9995,0.4038,0.3298,-0.4129,0.3084,2045
1,-0.1445,-1.0757,0.469,0.2297,-0.8015,0.2986,2059
1,-0.3325,-1.0361,0.2644,-0.0511,-0.7237,0.1482,2053
1,-0.3823,-1.0107,0.0713,-0.1293,-0.6106,0.1027,2039
1,-0.2024,-1.0049,0.0063,-0.1811,-0.3,0.0554,2064
1,-0.1162,-1.0154,0.1089,-0.2389,0.1004,-0.024,2043
1,-0.1023,-1.0059,0.1421,-0.2598,0.1868,-0.0296,2046
1,-0.1479,-0.9927,0.1501,-0.2651,0.2569,-0.0498,2049
1,-0.1379,-0.9941,0.1514,-0.263,0.1814,-0.1155,2053
1,-0.062,-0.9731,0.0371,-0.2257,0.0656,-0.1193,2051
1,-0.0103,-0.9553,-0.04,-0.1257,0.0526,-0.0947,2054
1,0.0317,-0.9512,-0.0796,-0.0088,0.0087,-0.0739,2047
1,0.0154,-0.9622,-0.0735,0.1471,-0.189,-0.043,2047
1,-0.009,-0.9895,-0.0459,0.3107,-0.2521,0.0001,2042
1,-0.0366,-1.0085,0.063,0.2912,-0.1574,0.0206,2031
1,-0.0896,-0.9949,0.1514,0.2406,-0.0601,0.0107,2028
2,-0.0867,-0.9912,0.1738,0.161,0.0328,-0.004,2062
2,-0.054,-0.9836,0.1514,0.1324,0.1896,-0.0053,2062
2,-0.019,-0.97,0.0605,0.1844,0.3083,-0.0005,2036
2,-0.0408,-1.0007,0.0649,0.2309,0.3153,0.0497,2037
2,0.0034,-1.0149,0.1038,0.2964,0.1834,0.0633,2060
2,0.0356,-0.9604,0.0986,0.3863,0.1682,0.0704,2041
2,0.0857,-0.9875,0.0823,0.3848,0.0832,0.1229,2034
2,0.1013,-0.9788,-0.0017,0.5084,-0.0056,0.1944,2067
2,0.0271,-0.9968,0.0266,0.5115,0.012,0.2655,2045
2,-0.0676,-0.9644,-0.0037,0.595,-0.0061,0.2886,2019
2,-0.0894,-0.9871,0.0415,0.6584,0.0658,0.3236,2026
2,-0.0784,-0.99,0.1272,0.7058,0.171,0.3305,2086
2,-0.106,-1.0,0.1599,0.7068,0.2424,0.3237,2052
2,-0.1096,-1.0293,0.2302,0.7219,0.223,0.3223,2064
2,-0.054,-1.0122,0.2019,0.7375,0.1389,0.3261,2065
2,-0.0664,-1.0166,0.2749,0.6966,0.176,0.3625,2032
2,-0.1104,-0.9836,0.2627,0.7075,0.1513,0.3971,2046
2,-0.0791,-0.981,0.2827,0.6825,0.2242,0.4674,2037
2,-0.0571,-0.9744,0.272,0.7135,0.23,0.5778,2044
2,-0.0391,-0.9727,0.1738,0.7585,0.2297,0.6132,2046
2,-0.072,-0.9902,0.1514,0.7431,0.3131,0.6863,2032
2,-0.114,-1.0518,0.1267,0.7424,0.3562,0.8363,2043
2,-0.0862,-1.0093,0.1587,0.752,0.4007,1.0202,2060
2,-0.0942,-0.97,0.2131,0.7781,0.3139,1.0684,2021
2,-0.0684,-0.9395,0.24,0.8339,0.2517,1.0369,1986
2,-0.0769,-0.9351,0.199,0.9457,0.2051,1.0444,2006
2,-0.0532,-0.9299,0.1636,1.0417,0.1848,1.0407,1944
2,-0.001,-1.0305,0.1685,1.0806,0.2495,0.9959,2033
2,-0.0261,-1.1501,0.1138,1.115,0.1763,0.9785,2016
2,-0.0747,-1.116,0.2065,1.26,0.1104,1.0557,2039
2,0.0139,-1.1926,0.1682,1.445,-0.1324,0.9511,2062
2,-0.1162,-1.2808,0.2607,1.4238,-0.0671,1.0766,2120
2,-0.0691,-1.2314,0.2737,1.4588,0.0144,1.1435,2079
2,0.0061,-1.1897,0.2312,1.6205,-0.0109,1.0722,1990
2,-0.0859,-1.2888,0.2871,1.6695,0.0711,1.0989,2073
2,-0.0347,-1.2512,0.2744,1.7796,0.2735,1.1009,2066
2,0.0442,-1.282,0.2319,1.9901,0.4081,1.0612,2066
2,0.1235,-1.3804,0.1477,2.1007,0.5528,1.0737,2052
2,0.1772,-1.384,0.0764,2.1514,0.7163,1.1299,2033
2,0.2681,-1.2966,0.0525,2.3445,0.8368,1.3306,2028
2,0.313,-1.4844,0.1396,2.3787,0.9702,1.3444,2034
2,0.3809,-1.6074,0.0605,2.3736,0.8118,1.4756,2146
2,0.4702,-1.4727,0.0615,2.5025,0.2995,1.6625,2017
2,0.5217,-1.4192,-0.1531,2.4533,0.0378,1.9539,1990
2,0.0618,-1.5979,-0.2058,2.5237,-0.0503,1.8624,2098
2,-0.4187,-1.9268,0.0117,2.4031,0.553,1.8779,2231
2,-0.927,-1.533,0.1084,2.4875,1.4724,1.6359,2048
2,-0.9617,-2.0,0.3601,1.9572,2.4687,1.4608,2008
2,-0.0718,-2.0,0.3472,1.1383,2.1229,2.0764,1846
2,0.5994,-1.8838,0.1648,0.5121,1.5452,1.9447,1948
2,1.4075,-0.5444,-0.0847,0.5546,-0.029,1.2471,2160
2,0.5051,-0.3823,-0.3645,0.6678,2.4209,1.1545,2218
2,1.5393,-0.2126,0.3696,0.9115,-1.9675,3.289,1976
2,-2.0,-0.3723,-0.9067,2.9609,1.956,2.0997,2042
2,-2.0,-0.8901,0.7014,4.3634,0.3223,1.1432,2019
2,-0.6536,-1.0713,1.6016,2.0782,-1.1432,0.5835,2181
2,0.281,-0.8362,1.7634,0.5999,-0.5781,-0.1563,2049
2,-1.0247,-0.9377,0.9685,-0.2657,2.459,-0.8782,1948
2,-1.0122,-0.0186,0.5354,-1.4146,0.2792,-1.3746,1882
2,-0.3486,-1.0193,-0.5007,-2.4475,1.1355,-1.3153,2129
2,-0.2727,-0.8967,-0.2905,-2.9586,2.0307,-2.0318,2088
2,0.0417,-0.4358,-0.1682,-2.2806,2.4177,-2.1324,2034
2,0.3215,-0.425,-0.0393,-1.7495,2.394,-2.1549,2050
2,0.5884,-0.3164,-0.0667,-1.8417,1.4197,-1.8652,2057
2,0.3462,-0.4402,0.0461,-1.9218,0.653,-1.6837,2051
2,0.0889,-0.4832,0.2312,-2.1308,0.4778,-2.0401,2042
2,-0.1365,-0.5229,0.2202,-1.8686,0.1493,-2.3083,2046
2,-0.2859,-0.4722,0.2751,-1.9868,-0.0975,-2.7026,2039
2,-0.2354,-0.4663,0.3608,-1.9682,-0.3804,-2.9177,2019
2,-0.1108,-0.436,0.3616,-2.1916,-0.336,-3.279,2073
2,-0.0579,-0.4204,0.3748,-2.3621,-0.1724,-3.47,2056
2,-0.27,-0.4468,0.3403,-2.6674,-0.1171,-3.7522,2037
2,-0.3203,-0.4341,0.3064,-3.0064,-0.0686,-4.1018,2033
2,-0.3091,-0.4292,0.2595,-3.2082,0.0895,-4.3635,2051
2,-0.2397,-0.45,0.2048,-3.3552,0.1872,-4.3635,2048
2,-0.1772,-0.4744,0.0984,-3.4348,0.1482,-4.3635,2042
2,-0.1414,-0.522,0.0034,-3.4086,0.0617,-4.3635,2045
2,-0.1267,-0.6377,-0.0396,-3.2274,-0.1004,-4.3635,2041
2,-0.1877,-0.8176,0.009,-3.0376,-0.4007,-4.3635,2050
2,-0.2571,-0.9714,0.1077,-2.851,-0.787,-4.3635,2048
2,-0.2957,-1.0796,0.2454,-2.8056,-0.9961,-4.3635,2060
2,-0.3279,-1.2192,0.3743,-2.8208,-1.2078,-4.3635,2063
2,-0.3887,-1.5017,0.4619,-2.6076,-1.4929,-4.3635,2087
2,0.4126,-2.0,0.0222,-4.3635,-2.4752,-3.4854,2209
2,-2.0,-0.6082,0.429,-4.3635,-4.3635,-4.3635,1928
2,-0.2625,0.9104,0.2773,-1.1674,-4.3635,-2.9975,1988
2,-2.0,-1.3406,0.2654,1.9512,-0.123,-4.3635,2090
2,-0.7571,-2.0,1.3572,-1.4872,-3.3985,-3.0708,2080
2,-0.0977,-2.0,1.5974,-1.6623,-1.7325,-2.9542,2025
2,-1.6746,-0.2651,0.749,-1.2922,0.5217,-2.8014,1977
2,-1.2827,-0.7002,1.4673,-3.6181,0.7407,-1.8349,1993
2,-0.4675,-1.2502,1.1299,-2.9666,1.5633,0.4493,2063
2,-0.324,-0.2476,0.6873,-1.6036,1.513,-0.6926,1992
2,-1.2859,-2.0,0.0664,-4.3635,1.957,1.1829,2138
2,-0.5525,-1.0732,0.0569,-1.1732,3.2597,0.4805,2092
2,-0.262,0.6409,0.7822,2.3945,2.0771,0.6288,1990
2,1.9999,1.0156,1.1467,3.7456,0.8016,0.0174,2010
2,1.9999,-2.0,0.8723,0.169,4.3634,-0.556,2089
2,1.9999,-2.0,-0.812,-0.0987,4.3634,-0.3848,2014
2,1.7437,-2.0,-0.6892,-0.021,0.6686,0.9602,2006
2,0.3523,-1.0715,0.3921,1.3423,-1.23,1.2613,2056
2,0.3198,-0.7761,0.9531,1.3652,-0.7576,1.99,2058
2,0.1912,-1.5647,0.8843,0.4448,-0.108,2.3886,2043
2,-0.9341,-2.0,0.4958,-1.7387,1.189,2.0883,2072
2,-1.6167,-1.4075,0.0085,-1.8229,2.4113,1.7008,2001
3,-0.7971,0.2793,-0.5408,-1.3462,1.0186,1.3487,2075
3,-0.3069,-0.4287,-0.1992,0.2494,2.9889,0.5978,2031
3,0.0266,-1.4324,-0.0891,-0.5923,2.1334,0.6822,2029
3,0.6592,-1.4575,-0.448,-0.5248,0.2999,1.0678,2081
3,-0.0981,-1.1418,-0.613,-0.4659,-0.9588,1.4772,2049
3,0.0818,-0.896,-0.4819,-0.3719,-1.8303,1.0993,2071
3,0.1704,-0.8,-0.2007,-0.3532,-1.9863,1.011,2079
3,0.2883,-0.4839,0.0312,0.5066,-1.3278,0.5755,2055
3,-0.0032,-0.8906,0.1299,0.4303,-1.1419,0.6628,1980
3,-0.1746,-1.1655,-0.0591,0.0961,-0.604,0.6715,2029
3,-0.0471,-0.9817,0.0195,0.1028,-0.3063,0.5927,2040
3,0.0393,-0.9758,0.0642,0.1301,-0.0515,0.5667,2046
3,0.1418,-1.1235,0.0298,-0.0953,0.1157,0.5518,2043
3,0.2837,-1.1028,-0.2261,-0.1502,0.2875,0.5923,2050
3,0.3877,-1.0259,-0.3904,-0.0226,0.2481,0.6699,2044
3,0.3772,-0.9451,-0.4912,0.2076,-0.0333,0.7982,2046
3,0.3044,-0.9717,-0.4521,0.2972,-0.3155,0.87,2055
3,0.1807,-0.8689,-0.4661,0.5078,-0.3123,0.7899,2041
3,0.1848,-0.8579,-0.3828,0.7452,-0.3465,0.8151,2041
3,0.1199,-1.0278,-0.3081,0.8806,-0.1784,0.8661,2046
3,0.176,-1.0908,-0.2468,0.6895,-0.1381,0.8472,2038
3,0.2156,-1.0803,-0.2451,0.5277,-0.0365,0.8252,2048
3,0.3062,-1.0349,-0.2234,0.412,-0.0581,0.8144,2053
3,0.2593,-0.9609,-0.1941,0.6014,-0.1257,0.9114,2048
3,0.1638,-1.0007,-0.144,0.6497,-0.1332,0.9545,2043
3,0.0403,-0.9783,-0.0859,0.7126,-0.0768,0.9393,2043
3,-0.0642,-0.9756,-0.0356,0.7127,0.092,0.9167,2041
3,-0.0845,-1.0312,-0.0203,0.4976,0.3177,0.8598,2049
3,-0.0247,-1.0315,-0.0674,0.3317,0.4054,0.8488,2046
3,0.0239,-0.9905,-0.0708,0.3007,0.369,0.867,2051
3,-0.0137,-0.97,-0.0315,0.4199,0.3366,0.8716,2058
3,-0.042,-0.9658,-0.0271,0.4722,0.3337,0.809,2053
3,-0.0547,-0.9766,0.0056,0.4786,0.4328,0.7457,2054
3,-0.0769,-0.9656,0.0063,0.4646,0.4271,0.6747,2032
3,-0.0408,-0.9988,-0.0527,0.3626,0.5497,0.6124,2038
3,-0.0461,-1.0386,-0.0173,0.387,0.6409,0.5686,2055
3,-0.1631,-1.0474,0.0061,0.4428,0.6497,0.4481,2048
3,-0.145,-0.8582,-0.04,0.6758,0.8144,0.5943,2016
3,0.2224,-1.1133,0.0249,0.541,0.8383,0.5786,2049
3,0.0237,-0.9287,-0.0691,0.4227,0.8733,0.49,2063
3,0.1558,-0.9497,0.012,0.3253,0.5247,0.7825,2054
3,0.0703,-1.0364,-0.0769,0.3747,0.3742,0.7304,2048
3,0.0161,-0.9688,-0.1101,0.4089,0.4848,0.816,2053
3,-0.0225,-1.0095,-0.0396,0.4775,0.6181,0.7998,2053
3,-0.0142,-1.0312,-0.0149,0.4666,0.6913,0.8541,2056
3,0.0105,-1.0156,-0.019,0.4711,0.6308,0.9042,2075
3,0.0496,-1.0007,-0.0427,0.4743,0.6054,0.9861,2036
3,0.0959,-1.0154,-0.0833,0.4765,0.6793,1.0618,2027
3,0.0986,-1.0557,-0.0542,0.459,0.8147,1.1709,2012
3,0.0776,-1.0886,-0.0645,0.424,0.9252,1.2693,2061
3,0.0234,-1.073,-0.0757,0.435,0.873,1.3609,1975
3,-0.0657,-1.0552,-0.0815,0.4593,0.7476,1.4346,2042
3,-0.0562,-1.0632,-0.1479,0.49,0.7316,1.4122,1942
3,-0.1333,-1.1641,-0.0818,0.589,0.7289,1.5053,2062
3,-0.0593,-1.1416,-0.1274,0.5494,0.6008,1.6747,2027
3,-0.0281,-1.2258,-0.0828,0.5016,0.4183,1.7458,2082
3,-0.0776,-1.1699,-0.103,0.4894,0.1491,1.764,2030
3,-0.1028,-0.9841,-0.0474,0.5758,0.0198,1.7735,2033
3,-0.1152,-0.9856,-0.0571,0.6889,0.0196,1.8307,2036
3,-0.1895,-1.0842,-0.1404,0.8444,0.119,1.8731,1937
3,-0.1577,-1.3115,-0.1814,0.7931,0.1436,1.8479,2112
3,-0.2422,-1.3381,-0.063,0.7532,0.2285,1.9612,2033
3,-0.0308,-1.3296,0.0603,0.7289,-0.0173,1.9694,1990
3,0.1069,-1.2703,0.1055,0.8307,-0.2153,1.998,2036
3,0.0063,-1.4275,0.259,0.7076,-0.3846,2.0537,2063
3,-0.1062,-1.0813,0.1921,0.8058,-0.3701,2.2069,1975
3,-0.137,-1.2983,0.2458,0.8003,-0.0245,2.2411,2087
3,-0.0835,-1.3328,0.24,0.8383,0.3161,2.2226,2035
3,0.0425,-1.3552,0.2236,0.7353,0.606,2.2458,2130
3,0.1775,-1.3584,0.2158,0.6524,0.4099,2.3268,2105
3,0.2546,-1.3267,0.1831,0.6726,0.0475,2.43,2032
3,0.3994,-1.4282,0.1926,0.7486,-0.2446,2.5912,2044
3,0.5898,-1.6201,0.1152,0.8558,-0.5272,2.7653,2032
3,0.647,-1.8621,0.1038,0.7412,-0.891,2.808,2090
3,0.9082,-1.874,-0.0437,0.7805,-1.1471,2.8143,2058
3,0.9121,-1.6577,-0.1621,0.9818,-1.6093,2.2399,2023
3,1.4199,-1.3313,0.1042,1.5075,-3.6717,3.1628,1999
3,-0.0061,-1.27,0.4612,1.3331,-3.3342,3.8986,2044
3,-1.1548,-1.3291,0.3628,1.5359,-2.669,4.1676,2038
3,-1.3376,-1.3206,0.3928,1.3314,-1.2079,3.6957,2024
3,-1.0339,-2.0,0.1895,0.8604,-1.8941,2.2727,2030
3,-0.0276,-2.0,0.1101,0.2575,-2.6544,3.4664,2086
3,-0.4309,-0.9524,-0.0671,0.1701,-0.8376,4.2724,2018
3,0.4531,-1.6677,0.5166,-0.4324,-0.3133,4.3634,2071
3,0.0535,-0.0461,0.1248,0.387,-1.4898,4.3634,2084
3,0.1501,0.5532,-0.3992,1.9626,-2.0158,1.5499,2048
3,1.9999,0.4509,-0.717,1.3123,-1.2184,3.164,1971
3,-1.8723,-0.0405,-1.5154,3.3657,1.0728,1.5548,2017
3,-1.47,-0.418,1.9999,0.6395,-4.3635,0.652,2526
3,-1.7405,-1.4307,1.9999,-0.1053,-4.3635,0.136,2110
3,-0.8828,-0.5459,1.4985,-0.4329,-2.6868,0.8479,1674
3,-0.9756,-0.0115,0.1367,-0.8883,-1.7179,0.1388,1885
3,-0.585,-0.2698,-0.2173,-2.3057,-0.1963,-1.0268,2101
3,-0.5767,-0.1118,-0.1357,-3.1176,0.3259,-2.2854,2123
3,-0.4097,-0.2681,0.1233,-3.0556,-0.4442,-3.0833,2114
3,-0.0315,-0.2227,0.0649,-2.0208,-0.298,-3.162,2084
3,0.1279,-0.3176,0.0645,-2.1224,0.3231,-3.254,2067
3,0.1199,-0.3235,0.1653,-2.196,0.6204,-3.2047,2051
3,0.1157,-0.3013,0.1924,-2.2981,0.5283,-3.4268,2052
3,0.0007,-0.3264,0.2383,-2.3035,0.8822,-3.6338,2068
4,-0.1697,-0.1428,0.5195,-2.5678,1.0961,-3.9859,2065
4,0.009,0.2947,0.043,-1.5347,0.5505,-4.0944,2017
4,-0.1587,-0.5081,0.2922,-2.2035,0.8003,-4.3635,2032
4,-0.2512,-0.502,0.2412,-2.2306,1.1358,-4.3635,2033
4,-0.2454,-0.2515,0.3477,-2.4545,0.9031,-4.3635,2029
4,-0.2007,-0.1526,0.2559,-2.6964,0.6087,-4.3635,2034
4,-0.1147,-0.2527,0.0974,-2.7022,0.6958,-4.3635,2046
4,0.0022,-0.3572,0.0132,-2.6823,0.708,-4.3635,2049
4,0.0625,-0.4556,-0.041,-2.5918,0.4432,-4.3635,2047
4,0.0515,-0.533,-0.0122,-2.4591,0.0984,-4.3635,2046
4,-0.0122,-0.7043,0.0427,-2.3439,-0.3428,-4.3635,2045
4,-0.1055,-0.9355,0.0828,-2.2718,-0.7809,-4.3635,2050
4,-0.2463,-1.0698,0.0396,-2.0367,-1.0702,-4.3635,2047
4,-0.3533,-1.3862,0.1399,-1.6576,-1.3042,-4.3635,2049
4,-0.4644,-2.0,0.386,-1.6046,-1.593,-4.3635,2069
4,-0.1738,-2.0,1.198,-3.5343,0.8255,-4.3635,2105
4,-0.3076,-1.075,1.0967,-4.1168,-4.3635,-4.3635,2005
4,-2.0,1.1079,-0.2478,1.0595,-0.5468,-4.3635,1986
4,-1.196,-2.0,0.2734,1.4141,-0.1151,-4.0595,2069
4,-1.3159,-2.0,1.4521,-1.507,-0.6279,-3.112,2119
4,-0.3884,-1.8237,1.2124,-2.6982,-2.4655,-2.7268,1996
4,-0.7483,-0.6262,-0.1021,-3.3431,-1.6143,-2.0455,2002
4,-1.5251,-0.3667,0.7986,-3.0439,0.8428,-1.2504,2064
4,-1.2009,-1.8918,1.4021,-3.3758,-0.448,0.3911,1938
4,-0.4358,-1.175,-0.1099,-1.956,3.1549,0.002,2197
4,0.27,-1.4143,0.051,-0.4991,1.4186,1.3062,2133
4,-0.5112,0.4534,-0.5815,1.9401,0.3345,1.3629,2016
4,1.7744,0.3792,0.2124,3.2214,-0.8008,-0.0843,1999
4,1.4067,-1.0056,0.6538,2.2224,4.1108,0.1312,2031
4,1.9999,-2.0,0.3013,-0.4292,2.3923,0.436,2045
4,1.0586,-2.0,-0.5591,-1.0222,-0.7269,2.0294,2059
4,-0.3965,-0.7668,0.1079,0.6139,-1.8683,2.1278,2053
4,0.0923,-1.2227,0.2532,0.7383,-1.5322,2.0539,2068
4,-0.105,-1.7729,0.3816,-0.077,-0.6839,2.1316,2050
4,-0.6426,-2.0,-0.0215,-0.6641,1.4042,1.845,2052
4,-2.0,-2.0,0.156,-0.8198,2.6773,1.5791,2013
4,-1.5537,-0.2402,0.1641,-0.1361,2.6418,1.3703,2046
4,0.2505,-0.5088,0.5771,0.0656,2.8807,0.6444,2056
4,0.6262,-1.5747,0.3777,-0.7271,2.6972,0.8732,2043
4,0.8748,-1.3857,0.1699,-0.8475,1.4615,1.5053,2036
4,-0.0872,-1.0544,-0.2939,-0.6231,-0.1775,1.6633,2037
4,0.157,-0.8657,-0.3035,-0.5922,-1.118,1.3098,2063
4,0.2712,-0.8955,-0.3386,-0.4979,-1.2776,1.2063,2064
4,0.1089,-0.8496,-0.3037,-0.4713,-1.3861,1.0931,2059
4,-0.1326,-0.8643,-0.2598,-0.3738,-0.8304,0.9307,2059
4,-0.3433,-0.7461,-0.4126,0.0808,0.1908,0.9051,2051
4,-0.1138,-0.6921,-0.1592,0.5046,0.2594,0.9539,2022
4,0.0452,-1.1479,0.21,0.2717,-0.0579,0.767,2031
4,0.3154,-1.053,0.0269,0.1061,-0.2899,0.6843,2049
4,0.4602,-1.0132,-0.1963,0.3912,-0.159,0.7316,2041
4,0.5132,-1.1252,-0.2034,0.465,-0.1096,0.8684,2036
4,0.3806,-1.0425,-0.2627,0.2994,-0.122,0.8893,2038
4,0.3137,-0.9729,-0.4136,-0.0659,-0.3735,0.7887,2051
4,0.2207,-0.8738,-0.4141,0.2224,-0.0641,0.8431,2053
4,0.2844,-0.9033,-0.3413,0.5823,-0.0855,1.0116,2039
4,0.2773,-1.0181,-0.1865,0.7674,-0.0787,1.1126,2040
4,0.2329,-1.0771,-0.0847,0.666,-0.2539,1.1712,2037
4,0.22,-1.054,-0.05,0.5518,-0.382,1.1549,2052
4,0.105,-1.0676,-0.0264,0.4701,-0.335,1.1646,2047
4,-0.0383,-1.0308,-0.0122,0.3297,-0.2444,1.0678,2055
4,-0.1599,-0.946,-0.0742,0.4521,0.0222,0.9661,2053
4,-0.0818,-0.9128,-0.1609,0.6841,0.3827,1.0196,2040
4,0.3794,-1.2051,0.1082,0.5012,0.2008,1.0914,2029
4,0.0886,-0.9529,-0.2031,0.3502,0.569,0.9355,2056
4,-0.0867,-0.9663,-0.0925,0.6229,0.3345,0.8605,2040
4,-0.0242,-0.9741,-0.146,0.6453,0.2045,0.9264,2045
4,-0.0757,-0.9277,-0.1531,0.8044,0.2603,0.856,2036
4,0.01,-0.8911,-0.1909,1.1147,0.4334,0.6885,2020
4,-0.0608,-1.0154,-0.2397,0.8676,0.6644,0.838,2047
4,0.0166,-0.8704,-0.1223,1.3572,0.514,0.7529,2001
4,0.0908,-0.9507,-0.0686,1.3964,0.6763,0.8509,2065
4,0.0408,-1.0181,0.0498,1.1391,0.509,0.8823,2091
4,-0.033,-0.9922,0.061,1.1262,0.5191,0.8335,2035
4,-0.0627,-0.9585,-0.0571,1.1946,0.612,0.8324,2058
4,-0.0632,-1.0322,-0.0134,1.1355,0.7986,0.8821,2048
4,-0.0081,-0.9817,-0.0312,1.0634,0.8552,0.9553,1979
4,0.125,-1.0017,0.0872,0.926,0.6466,1.1078,2109
4,0.1514,-0.9719,-0.0129,0.897,0.3546,1.2347,2077
4,0.0115,-0.9663,-0.0247,1.07,0.3199,1.3432,2018
4,-0.033,-1.0107,0.1519,1.1772,0.1073,1.4181,2009
4,-0.0859,-1.0383,0.1511,1.1508,0.034,1.5002,1992
4,-0.0764,-1.02,0.1279,1.2174,0.0724,1.6142,2063
4,0.0352,-1.0325,0.1501,1.2384,0.0096,1.8148,2026
4,-0.0034,-0.9727,0.0916,1.3138,0.0008,1.9813,2013
4,-0.0381,-1.125,0.1101,1.3876,-0.1194,2.2462,2080
4,-0.1729,-1.1423,0.1516,1.3733,-0.1895,2.5252,2006
4,-0.2319,-1.1526,0.1956,1.3306,-0.1439,2.4806,2055
4,-0.2644,-1.1958,0.1843,1.431,0.0731,2.1056,2083
4,-0.1433,-1.3655,0.1914,1.5348,-0.1774,2.013,2139
4,0.0774,-1.3716,0.3137,1.595,-0.1804,2.2666,2043
4,0.1875,-1.4082,0.2097,1.6876,-0.4931,2.2172,2041
4,-0.1597,-1.5134,0.2358,1.7042,-0.2499,2.285,1977
4,-0.1541,-1.3535,0.3374,1.8367,-0.0818,2.1387,2041
4,0.0728,-1.4702,0.2551,1.8678,0.1923,2.115,2139
4,0.2415,-1.467,0.2058,1.7796,0.4542,2.3521,2056
4,0.2141,-1.3521,0.209,1.9053,0.6237,2.5229,2025
4,0.2263,-1.5059,0.1252,2.049,0.8084,2.6586,2024
4,0.3049,-1.6321,0.0312,2.076,1.0613,2.911,2023
4,0.4177,-1.7456,0.1499,1.9558,1.1556,3.0725,2075
4,0.8225,-1.7944,-0.0247,1.8687,0.5512,2.3535,2168
4,1.0674,-1.708,-0.0613,1.894,-0.8989,2.6938,1975
4,0.7522,-1.8486,-0.0806,1.6801,-2.3943,2.8854,2040
4,0.1372,-1.6553,0.3062,2.0827,-2.7799,2.0022,2053
5,-0.6633,-1.5615,0.231,2.2272,-2.6265,1.7592,2063
5,-1.1497,-1.9167,0.3738,2.1085,-1.3902,2.8641,2186
5,-1.4128,-1.9307,0.1948,2.3678,-0.2438,2.5771,2010
5,-1.9341,-1.7734,0.3374,1.6993,1.2266,2.3787,1926
5,-0.7849,-2.0,0.6531,0.3043,2.049,2.1198,1924
5,1.3762,-0.6348,0.1992,-0.4349,2.0915,2.0924,2004
5,1.9999,1.627,0.0571,-1.3647,2.6095,4.3634,2125
5,1.0364,0.218,-1.1616,0.4755,-0.6794,2.6116,1978
5,-2.0,-0.166,-0.8958,3.866,-0.7039,1.9869,2044
5,-2.0,-1.2378,1.4202,0.4292,-2.7622,0.7522,2230
5,-0.6375,-0.5322,1.5674,0.1537,-2.2639,-0.4204,2039
5,-0.2139,-0.1467,1.0105,-0.3939,-1.0035,-0.5209,1929
5,-0.6641,-0.2532,0.2441,-1.0291,0.2534,-1.448,1953
5,-0.7092,-0.4177,-0.0273,-2.1253,0.2698,-1.6901,2024
5,-0.499,-0.6841,-0.2612,-2.1331,1.3216,-1.9381,2094
5,0.1506,-0.3584,-0.1006,-2.1031,1.3035,-1.7823,2061
5,0.458,-0.186,-0.0596,-1.9548,1.1664,-1.4067,2054
5,0.4534,0.0298,-0.0337,-1.6633,0.6267,-1.1488,2030
5,0.2561,-0.1099,0.0793,-1.5888,0.3209,-2.0283,2035
5,-0.2278,-0.4919,0.1909,-1.7884,0.3285,-2.7617,2039
5,-0.4871,-0.5762,0.26,-2.0186,0.281,-2.9195,2005
5,-0.447,-0.5032,0.4434,-2.2558,0.1682,-3.1212,2090
5,-0.2283,-0.2578,0.4395,-2.5754,0.2414,-3.5548,2062
5,-0.2275,-0.2666,0.3579,-2.6103,0.4595,-3.8617,2045
5,-0.2878,-0.2314,0.2971,-2.6995,0.5842,-4.207,2037
5,-0.2542,-0.1624,0.2585,-2.9295,0.5743,-4.3635,2035
5,-0.2761,-0.1863,0.231,-3.1357,0.7004,-4.3635,2039
5,-0.1907,-0.1804,0.1863,-3.1802,0.7512,-4.3635,2038
5,-0.0657,-0.1912,0.0945,-3.1287,0.6441,-4.3635,2040
5,-0.0396,-0.2925,0.0493,-2.9907,0.5655,-4.3635,2049
5,-0.0776,-0.4229,0.0654,-2.8873,0.4065,-4.3635,2047
5,-0.1082,-0.5305,0.0828,-2.7786,0.0819,-4.3635,2054
5,-0.0693,-0.6714,0.1196,-2.7066,-0.3389,-4.3635,2055
5,-0.0691,-0.8672,0.1765,-2.5682,-0.8412,-4.3635,2052
5,-0.1487,-1.0823,0.2727,-2.5065,-1.2952,-4.3635,2061
5,-0.1721,-1.6121,0.5137,-2.5445,-1.963,-4.3635,2074
5,-0.2764,-2.0,0.7317,-2.6441,-2.5072,-4.3635,2071
5,0.5793,-2.0,0.7856,-4.3635,-2.5971,-4.3635,2229
5,-1.8088,-1.2087,0.5017,-4.3635,-4.2558,-4.3635,1875
5,1.1594,-1.3879,1.5574,-1.556,-3.5074,-0.609,1968
5,-2.0,-2.0,0.021,2.5164,-0.7887,-4.3635,2139
5,-1.0244,-1.7422,0.8796,-0.5903,-1.1754,-4.3635,1953
5,-1.4697,-2.0,1.9999,-4.3635,-0.8285,-2.3396,1993
5,-0.0632,0.8914,0.5227,-3.1795,-1.4107,-3.1336,1969
5,-0.646,-0.469,1.4412,-2.5691,1.7138,-0.8705,2053
5,-0.7642,-1.8489,0.8584,-1.5624,2.6027,0.7704,2125
5,-0.6157,-2.0,0.2415,-3.5224,2.5665,1.7317,2151
5,-0.7131,-1.075,-0.6948,-0.5938,0.5878,2.1614,2123
5,1.3591,1.9999,0.1233,3.6778,-0.8977,0.9854,2249
5,1.6497,0.3052,0.7717,3.0486,2.8107,1.8158,1876
5,1.9999,-1.6833,-0.3582,0.6407,4.3634,-0.5926,1888
5,1.8008,-2.0,-1.2173,-1.0638,2.7378,0.6118,2033
5,0.4434,-2.0,-0.4709,-0.4975,-1.0495,2.0642,2113
5,0.5952,-0.3674,-0.4312,0.717,-2.1783,1.7519,2116
5,-0.9709,-1.115,-0.0647,3.4641,1.0556,2.1823,1969
5,-0.8696,-2.0,0.6741,0.2413,0.4442,2.1704,2116
5,-2.0,-2.0,-0.0979,-0.9516,3.0397,1.5287,2081
5,-0.9248,0.1135,0.8809,-2.336,1.4809,1.8479,2063
5,0.437,0.6099,0.3037,0.2715,0.8508,1.2308,1993
5,0.5701,-1.8875,0.5483,0.7204,1.7151,1.2126,2024
5,-0.3584,-2.0,-0.1384,-1.6353,0.3726,1.7377,2060
5,-0.2395,-0.7773,-0.4158,-1.5219,-1.2231,1.805,2112
5,0.2231,0.0979,-0.3005,0.2402,-1.3347,1.6253,2088
5,-0.0437,-0.8516,0.1221,1.5163,-0.9352,1.4688,1966
5,-0.3699,-1.5347,0.127,0.3396,-0.363,1.06,2000
5,-0.3335,-1.1472,0.1206,-0.5962,0.0561,0.6585,2070
5,-0.5854,-0.8489,-0.031,-0.5176,0.0929,0.4537,2057
5,-0.5471,-1.0083,-0.0283,-0.3448,0.3894,0.2437,2055
5,-0.137,-1.0198,-0.0178,-0.2245,0.4675,0.1169,2047
5,0.3982,-0.9138,-0.3577,0.106,0.3705,0.2115,2039
5,0.7461,-1.0835,-0.6384,0.3406,-0.0137,0.5574,2019
5,0.8613,-0.9863,-0.886,0.505,-0.4219,0.7733,2037
5,0.8459,-0.7505,-0.9805,0.8666,-0.8716,0.9315,2040
5,0.7615,-0.9307,-0.7229,0.9214,-1.0529,0.997,2022
5,0.5942,-1.3179,-0.5369,0.6142,-1.0844,1.2019,2044
5,0.219,-0.8418,-0.3711,0.6562,-0.5894,1.2449,2066
5,0.0381,-0.7959,-0.1077,0.9889,-0.4991,1.2965,2044
5,0.0442,-1.0713,0.0403,0.9736,-0.0374,1.3435,2051
5,0.0762,-0.8555,0.1799,1.1998,0.1117,1.3982,2052
5,0.0908,-1.0161,0.3301,1.0966,-0.114,1.4316,2043
5,-0.0474,-1.189,0.2188,0.5935,-0.0634,1.2986,2048
5,-0.3171,-0.8938,-0.0051,0.6525,0.1814,1.2206,2026
5,-0.3582,-0.8767,-0.1318,0.9963,0.5706,1.1467,2014
5,-0.1184,-0.9119,-0.2966,0.9776,0.9485,0.9479,2033
5,-0.0532,-0.947,-0.2349,1.0676,0.8889,0.863,2051
5,-0.0952,-0.9397,-0.1697,1.2094,0.9974,0.8403,2069
5,0.0161,-0.9956,-0.1426,1.3087,1.0368,0.8046,2035
5,0.071,-1.0518,0.0342,1.1188,0.9485,0.8967,2083
5,0.072,-0.9885,0.1748,1.0124,0.5256,0.9328,2034
5,0.0264,-0.9272,0.0552,0.9455,0.173,0.9834,2046
5,-0.0745,-0.9858,-0.0176,0.9955,0.3143,1.0103,2079
5,-0.1328,-1.05,-0.0239,0.985,0.6199,0.9991,2048
5,-0.0725,-1.075,0.0137,0.9017,0.972,1.0396,2030
5,-0.0564,-1.032,0.0142,0.8548,0.9712,1.0633,2081
5,0.0093,-0.9399,0.0657,0.9251,0.7739,1.235,2073
5,0.0679,-0.9961,-0.0168,0.9449,0.4843,1.3916,2038
5,0.0356,-1.0723,-0.0474,1.0182,0.4646,1.4577,2009
5,-0.0701,-1.0149,-0.0156,1.0593,0.3267,1.5467,2025
5,-0.0146,-0.9487,-0.0676,1.2311,0.4165,1.7378,2029
5,0.0183,-0.9976,-0.0381,1.2901,0.3144,1.9329,2055
5,0.1753,-1.0605,-0.0608,1.3475,0.2501,2.2835,2063
5,0.157,-1.1414,-0.0657,1.393,0.0196,2.6227,2130
6,0.0691,-1.0696,-0.0208,1.5111,-0.3316,2.7152,2071
6,-0.3503,-1.3191,0.0959,1.5402,-0.1665,2.6184,2050
6,-0.1707,-1.3855,0.2124,1.4398,-0.2055,2.7148,1940
6,0.0132,-1.0864,0.2112,1.6868,-0.2603,2.7875,1992
6,0.0347,-1.491,0.1941,1.5936,-0.4312,2.5775,2088
6,-0.1406,-1.5244,0.3442,1.544,-0.2983,2.7687,2115
6,-0.0205,-1.3311,0.3179,1.6986,-0.2365,2.7719,2062
6,-0.0366,-1.5103,0.2915,1.8603,-0.045,2.7782,2042
6,0.1301,-1.7136,0.2166,1.7767,0.2192,2.7384,2069
6,0.2856,-1.7627,0.2913,1.6708,0.5091,2.9444,2058
6,0.3523,-1.7991,0.2126,1.6753,0.6229,3.1104,2117
6,0.0378,-1.8823,0.4736,2.1927,0.907,3.7222,2079
6,0.8596,-2.0,0.1746,1.6202,1.066,3.4421,2094
6,0.9302,-2.0,-0.2239,1.3648,0.3197,3.1768,2030
6,0.833,-1.6074,0.1082,1.4717,-1.5157,2.074,1968
6,0.6133,-1.2356,0.4021,1.9803,-3.0889,1.2018,1985
6,0.2393,-1.0066,0.2351,2.423,-4.2089,1.2212,2048
6,-1.3335,-1.9048,0.3062,2.5745,-2.96,2.7345,2187
6,-2.0,-2.0,0.1738,1.4447,-1.674,2.9392,2208
6,-1.95,-1.6289,-0.0557,2.4635,-0.2043,2.8289,1828
6,-1.4421,-2.0,0.9116,0.8253,1.758,2.1126,1975
6,1.2166,-2.0,1.1255,-2.8541,0.6506,2.1561,2092
6,1.2759,1.9999,-0.2424,-0.1526,1.4551,3.8672,2159
6,1.8618,0.5095,-0.8318,-0.8191,1.0724,4.3634,1971
6,-2.0,-0.4104,-1.4475,4.3634,0.8588,2.1461,2064
6,-2.0,-0.8618,1.8672,1.484,-2.09,0.7501,2188
6,-1.0217,-0.3704,1.9246,-0.2469,-4.3635,-1.2348,1959
6,-0.3345,0.0027,0.6816,-0.1843,-2.495,-0.7172,2014
6,-0.6992,-0.0168,0.0618,-0.5733,-0.4268,-0.7648,1987
6,-0.6287,-0.2705,-0.2041,-2.5103,-0.463,-1.3138,2019
6,-0.4939,-0.5071,-0.4614,-2.0568,0.7058,-2.0273,2111
6,-0.1096,-0.3711,-0.3333,-1.9299,1.2657,-2.1256,2054
6,0.1636,-0.1907,-0.2886,-1.6847,1.0902,-2.2272,2058
6,0.2402,-0.0171,-0.1174,-1.523,0.8027,-2.3059,2052
6,0.1003,-0.1121,0.0847,-1.7068,0.773,-2.3377,2048
6,-0.1775,-0.2966,0.1521,-1.7389,0.548,-2.3174,2046
6,-0.3469,-0.2922,0.2842,-1.8544,0.4709,-2.6337,1987
6,-0.2839,-0.1711,0.3137,-1.9692,0.507,-3.0501,2065
6,-0.2864,-0.2412,0.3171,-2.0582,0.6027,-3.42,2070
6,-0.219,-0.2632,0.252,-2.1306,0.8372,-3.6426,2036
6,-0.2483,-0.2593,0.2693,-2.2202,0.9961,-3.9392,2036
6,-0.3025,-0.218,0.2297,-2.4261,1.038,-4.2483,2034
6,-0.2385,-0.2109,0.2322,-2.6248,0.9489,-4.3635,2035
6,-0.2805,-0.3716,0.26,-2.973,0.9946,-4.3635,2045
6,-0.2153,-0.2446,0.2097,-3.0811,0.8264,-4.3635,2032
6,-0.2205,-0.3083,0.1406,-3.1461,0.8855,-4.3635,2035
6,-0.2173,-0.334,0.1169,-3.1658,0.7999,-4.3635,2046
6,-0.2312,-0.3989,0.0674,-3.0243,0.6084,-4.3635,2042
6,-0.2666,-0.6147,0.073,-2.9473,0.4711,-4.3635,2043
6,-0.1611,-0.8586,0.0664,-2.8683,0.004,-4.3635,2048
6,-0.1206,-0.9954,0.1794,-2.6295,-0.2962,-4.3635,2062
6,-0.2017,-1.7214,0.291,-2.8485,-0.593,-4.3635,2067
6,1.6238,-2.0,1.323,-4.3635,-2.2699,-4.3635,2168
6,-1.1936,-1.3987,-0.4597,-2.6647,-2.5452,-4.3635,2046
6,-1.9243,-0.9629,0.9661,-3.5203,-3.7957,-4.3635,2012
6,1.9999,-2.0,1.9999,1.1532,-2.391,1.5085,2008
6,-2.0,-2.0,0.2922,1.7125,-4.3635,-4.3635,2046
6,-1.197,-2.0,0.5486,-3.0526,-0.5304,-4.1065,2066
6,-1.1189,-2.0,0.5476,-4.1737,-2.4015,-2.2575,1979
6,-1.5071,0.5198,0.4365,-1.0596,-2.0112,-3.3439,1959
6,-0.9033,-1.9731,1.7605,-2.775,-1.2882,-0.3372,2152
6,-1.4316,-1.3369,1.3926,-1.7683,1.0641,1.4063,2082
6,-0.5801,-1.4246,1.0999,-2.7795,1.9784,0.5384,2050
6,-0.99,-1.533,-0.1182,-2.2774,2.7259,2.0482,2090
6,0.2747,0.3091,0.3811,2.0377,0.0276,1.6434,2045
6,1.9999,0.6384,0.1589,3.7957,2.0181,1.3163,2021
6,1.7292,-2.0,-0.3875,0.2669,4.3634,-1.5253,2040
6,1.9999,-2.0,-1.3235,-1.1355,2.6313,0.7514,2087
6,0.5457,-1.6968,-0.7954,-0.2904,-0.5273,1.5059,2046
6,-1.0869,0.0737,-0.3115,2.6302,-0.0189,2.1784,1982
6,-0.4683,-1.9507,0.7576,1.6965,0.4163,2.3121,2070
6,-1.1511,-2.0,0.5037,-1.4372,1.2416,2.1359,2084
6,-0.624,-0.9458,0.2129,-2.3673,1.3817,1.7483,2067
6,-0.0176,0.4399,0.2188,-0.7624,1.3776,1.0833,1996
6,-0.553,-0.9133,0.3347,0.2975,2.2575,1.2022,2016
6,0.0088,-1.7146,-0.2451,-0.5304,0.6188,1.2555,2081
6,-0.0063,-1.5352,-0.4583,-0.6921,-0.5221,1.4524,2074
6,-0.0168,-0.8562,-0.0659,-0.2063,-1.1978,1.3307,2068
6,-0.1289,-0.749,0.4124,-0.0364,-0.8242,1.0164,2081
6,-0.2607,-0.8843,0.3623,-0.2164,-0.4711,0.6911,2047
6,-0.3772,-1.0352,0.168,-0.343,-0.1104,0.638,2016
6,-0.3567,-1.0193,-0.0398,-0.4621,0.2095,0.5311,2018
6,-0.3044,-0.9702,-0.1121,-0.3518,0.4895,0.3679,2034
6,0.0684,-1.0161,-0.0552,-0.1999,0.4361,0.3368,2042
6,0.3435,-0.9797,-0.3081,-0.0583,0.2952,0.5337,2040
6,0.5022,-0.9839,-0.6316,0.1651,0.0414,0.7866,2029
6,0.6272,-1.0342,-0.8828,0.3858,-0.2746,0.8481,2047
6,0.5613,-0.8691,-0.8987,0.6711,-0.6327,0.9479,2046
6,0.4294,-1.0332,-0.7363,0.6209,-0.6954,0.9055,2047
6,0.2747,-0.8562,-0.6084,0.6604,-0.5261,0.7849,2052
6,0.196,-0.8235,-0.4287,0.9379,-0.3781,0.8327,2037
6,0.1943,-0.9844,-0.2632,1.1203,-0.2517,0.8656,2037
6,0.1887,-0.9976,-0.1094,1.3111,-0.1642,0.9732,2035
6,0.1426,-1.0259,0.0813,1.4083,-0.2452,1.0219,2038
6,0.0459,-1.0522,0.197,1.2258,-0.2175,0.9927,2036
6,-0.0576,-1.0413,0.1946,0.8854,-0.073,0.932,2043
6,-0.3401,-1.0486,0.0669,0.6146,0.3338,0.7162,2047
6,-0.0183,-0.6406,0.0015,0.8155,0.8938,1.0315,2031
6,0.3342,-1.2156,-0.0017,0.7359,0.685,1.0951,2058
6,0.0891,-1.0996,-0.175,0.204,0.9172,0.9104,2057
6,-0.1157,-0.8496,-0.0737,0.4236,0.3517,1.0672,2022
7,-0.0198,-0.9294,-0.1609,0.6167,0.2087,0.9379,2043
7,-0.0964,-0.9485,-0.1626,0.6927,0.5168,0.8821,2059
7,-0.0796,-0.9934,-0.1843,0.7677,0.5863,0.8504,2035
7,0.009,-1.0286,-0.1663,0.8665,0.8837,0.8287,2071
7,0.0515,-1.1067,-0.0315,0.7922,0.9613,0.9126,2049
7,0.0312,-0.991,0.0244,0.7428,0.8192,1.0091,2019
7,0.0168,-0.9739,-0.022,0.7144,0.8512,1.0451,2047
7,0.0742,-1.0491,-0.0249,0.5926,0.9355,1.1274,2057
7,0.0332,-1.0063,-0.0688,0.6546,0.7678,1.1889,2043
7,0.041,-1.0312,-0.0835,0.7355,0.8288,1.3121,2047
7,0.0479,-0.9775,-0.0859,0.7323,0.7175,1.4424,2073
7,0.0618,-0.9976,-0.1211,0.7468,0.7188,1.615,2065
7,0.0605,-1.084,-0.1074,0.7708,0.5874,1.798,2121
7,0.072,-1.0962,-0.1614,0.8291,0.5229,1.9912,2050
7,0.0391,-1.0728,-0.1399,0.8313,0.5113,2.2317,2084
7,-0.0156,-1.0742,-0.0864,0.7352,0.3547,2.1996,2013
7,-0.1228,-1.0928,-0.0603,0.7215,-0.0358,2.2606,2074
7,-0.1313,-0.9639,0.02,0.8365,-0.0972,2.2483,1996
7,-0.1489,-0.8936,-0.0259,1.0616,-0.3598,2.2214,2073
7,-0.314,-1.0574,-0.0454,1.2276,-0.3093,2.2688,2055
7,-0.2734,-1.2375,0.0024,1.1706,-0.4193,2.2258,2008
7,-0.4026,-1.2537,0.0747,1.1754,-0.1151,2.2117,2076
7,-0.2717,-1.3596,0.0896,1.0396,0.0561,2.0879,1992
7,-0.0034,-1.2097,0.0981,1.2215,-0.034,2.1381,2012
7,-0.0979,-1.4268,0.2029,1.1368,-0.3119,2.2122,2114
7,-0.146,-1.4871,0.2439,1.0509,-0.1671,2.2361,2073
7,-0.0178,-1.354,0.2483,1.1167,-0.01,2.2578,2080
7,0.0688,-1.4072,0.2603,1.1166,-0.1254,2.3976,2026
7,0.0532,-1.4517,0.2031,1.2238,-0.2216,2.5043,2039
7,0.1443,-1.5161,0.2327,1.1999,-0.1627,2.4601,2026
7,0.23,-1.5212,0.1833,1.3318,-0.2234,2.5633,2043
7,0.2444,-2.0,0.0234,1.2258,0.1767,2.9578,2031
7,0.6003,-2.0,0.1675,1.0754,0.1088,2.8406,2117
7,0.9285,-2.0,0.0249,0.9347,-0.2964,2.663,2065
7,0.9148,-1.804,-0.0735,1.052,-0.9508,1.7673,2007
7,1.1399,-1.7324,-0.0417,1.015,-2.2192,1.4532,2150
7,0.5422,-0.7891,0.3889,1.9696,-3.9781,2.4843,2029
7,-0.3862,-1.3,0.5466,2.0779,-4.2393,4.335,1991
7,-1.2239,-1.749,0.5393,2.0707,-3.5182,4.3506,2026
7,-1.7395,-1.6477,-0.1375,1.4406,-1.4612,3.8466,2030
7,-2.0,-2.0,1.6116,1.1636,1.5515,3.6119,2024
7,-0.8569,-2.0,0.3113,-2.0291,-1.1407,2.6958,2154
7,1.2585,0.3198,0.4397,-2.1945,-1.2714,3.1312,2175
7,1.7236,1.9999,-0.5688,1.7767,-2.1698,3.4663,1963
7,1.0117,0.5579,-0.584,0.4809,-1.0287,2.5622,2004
7,1.9999,-1.7766,-0.1877,-0.1182,-0.8544,4.3634,2066
7,-2.0,-0.189,0.7957,4.3634,-0.6111,2.2036,2153
7,-1.2083,-0.7078,1.9999,-0.1169,-4.3635,-0.1313,2234
7,-0.4529,-0.6362,1.7986,-0.9914,-3.9543,-0.4572,1915
7,-0.811,-0.1101,0.6929,-0.6173,-1.9884,0.491,1628
7,-1.1787,-0.4429,-0.0798,-1.3866,-0.2217,-0.4344,2015
7,-0.572,-0.2043,-0.2261,-3.4785,-1.37,-1.4557,1999
7,-0.4741,-0.5513,-0.3503,-2.9903,0.494,-1.913,2159
7,-0.1333,-0.1965,-0.1858,-2.9092,0.7004,-2.1158,2091
7,0.2217,-0.0847,-0.0789,-2.4807,0.4509,-2.318,2073
7,0.1755,-0.1272,0.2068,-2.6061,0.6088,-2.5457,2059
7,0.1387,-0.0444,-0.001,-2.6975,0.3891,-2.7293,2055
7,-0.1121,-0.313,0.207,-2.5187,0.386,-3.2116,2093
7,-0.2224,-0.5588,0.2585,-2.2991,0.6247,-3.2629,2040
7,-0.2559,-0.5515,0.3323,-2.3281,0.8428,-3.2863,2023
7,-0.332,-0.4878,0.3545,-2.4898,0.9749,-3.5617,2031
7,-0.252,-0.3079,0.354,-2.4615,0.9255,-3.9143,2026
7,-0.2959,-0.2803,0.3525,-2.7581,1.1184,-4.2523,2032
7,-0.313,-0.2732,0.3325,-3.0114,1.2192,-4.3635,2032
7,-0.2163,-0.2793,0.3074,-2.6771,1.4744,-4.3635,2029
7,-0.1389,-0.51,0.2229,-3.1782,1.5395,-4.3635,2057
7,-0.0598,-0.271,0.2222,-3.0264,1.3057,-4.3635,2086
7,0.0178,-0.3652,0.1812,-3.0553,1.0456,-4.3635,2057
7,0.0596,-0.3777,0.1145,-3.0332,0.6626,-4.3635,2056
7,0.0103,-0.5269,0.0037,-2.8537,0.3063,-4.3635,2052
7,-0.053,-0.7144,-0.0225,-2.6797,0.0193,-4.3635,2053
7,-0.0898,-0.8916,0.0537,-2.4717,-0.2975,-4.3635,2053
7,-0.1104,-1.0889,0.1213,-2.1827,-0.5936,-4.3635,2062
7,-0.1519,-1.4207,0.2844,-1.5791,-0.9569,-4.3635,2056
7,0.5894,-2.0,0.4863,-4.3635,-1.8551,-4.3635,2293
7,-1.5015,-0.8418,0.2385,-3.2417,-2.3677,-4.3635,1913
7,-1.5583,-1.5713,0.4753,-0.7373,-3.0002,-4.3635,1975
7,-2.0,-0.8721,1.9999,2.2602,-1.1065,-4.3635,1969
7,-0.9248,-2.0,0.4524,0.8489,-2.7398,-4.3635,2125
7,-1.1887,-2.0,1.3167,-2.2348,-1.1816,-2.5549,2075
7,-1.2964,-0.7397,0.7229,-3.6822,-2.7103,-2.3481,1894
7,-0.1946,-0.3054,0.4155,-2.3868,-2.4951,-1.4751,2055
7,-0.571,-1.2151,1.3572,-2.6947,1.016,-0.4236,2031
7,-1.0356,-1.511,1.345,-1.6868,1.6894,-0.1942,2068
7,-0.6624,-1.7046,0.3206,-3.4258,1.5732,1.328,2157
7,-0.207,-0.958,-0.1545,-1.126,0.0392,2.0104,2186
7,1.0803,0.9443,0.1169,3.5011,-1.0043,1.1128,1997
7,1.7913,-0.1282,0.2783,3.0989,3.7183,1.1745,1874
7,1.521,-1.4194,-0.1055,0.6532,4.3634,-0.394,1916
7,1.2581,-2.0,-0.8889,-1.095,2.4426,1.2063,2127
7,0.9561,-1.5999,-0.8445,-0.2563,-0.6991,1.0334,2147
7,-0.2844,-0.3474,-0.3774,1.5368,0.2361,1.7008,1992
7,-0.4307,-1.4807,0.3367,1.9142,0.9239,1.9825,2013
7,-0.0576,-2.0,0.2505,-0.1169,0.3413,1.7238,2126
7,-1.3828,-2.0,0.1836,-1.4736,1.6894,1.5215,2050
7,-0.4561,-0.4355,0.085,-1.7213,0.4038,1.4884,2050
7,0.0623,-0.0107,0.0896,0.0629,1.4053,1.0025,1998
7,-0.2192,-1.5767,0.4492,0.3191,1.4857,1.0753,2059
7,0.2429,-1.6074,-0.2307,-0.7967,0.505,1.2873,2087
7,0.1375,-1.0823,-0.2476,-0.5703,-0.2172,1.4901,2054
7,0.1094,-0.7893,-0.0403,-0.2717,-0.6175,1.347,2048
7,-0.0146,-0.8457,0.0859,-0.2364,-0.5494,1.129,2052
8,-0.1589,-0.9382,-0.0127,-0.2434,-0.0261,0.9624,2057
8,-0.1919,-0.9082,0.0193,-0.3404,0.1975,0.8188,2032
8,-0.0022,-0.9417,-0.0142,-0.2764,0.0908,0.7307,2053
8,-0.1973,-0.9919,-0.0911,-0.2683,0.1493,0.726,2029
8,-0.0266,-1.0713,-0.0449,-0.2679,0.2653,0.5995,2043
8,0.1868,-0.9355,-0.1914,-0.0656,0.1886,0.6293,2049
8,0.3318,-1.0203,-0.4312,0.0776,0.0571,0.7062,2029
8,0.4631,-1.0256,-0.6064,0.1328,-0.2219,0.7502,2042
8,0.4797,-0.9492,-0.6802,0.3184,-0.4718,0.8345,2044
8,0.3928,-0.8232,-0.6409,0.6131,-0.6568,0.9515,2035
8,0.3562,-0.9385,-0.4905,0.5954,-0.6958,0.9806,2040
8,0.2732,-1.0247,-0.4351,0.5172,-0.6408,0.9995,2048
8,0.1626,-0.9651,-0.2273,0.6842,-0.4618,1.0319,2061
8,0.155,-1.0129,-0.083,0.7889,-0.3907,0.9786,2042
8,0.1738,-1.0405,-0.0635,0.8123,-0.2699,0.9698,2042
8,0.1353,-1.063,-0.0317,0.7465,-0.1426,1.0119,2045
8,0.02,-1.1155,0.0181,0.5311,-0.0196,1.0021,2049
8,-0.0266,-0.9883,-0.0288,0.5774,0.1209,1.0733,2040
8,-0.0771,-0.957,-0.124,0.5773,0.2792,1.0082,2049
8,-0.063,-0.98,-0.1472,0.6689,0.38,0.9859,2038
8,-0.062,-0.9541,-0.1975,0.728,0.4894,0.9267,2038
8,-0.0774,-0.9504,-0.166,0.8148,0.5082,0.9021,2038
8,-0.082,-0.9321,-0.1514,0.8851,0.4394,0.8858,2037
8,-0.072,-0.9092,-0.1313,0.9447,0.4137,0.8127,2042
8,-0.0549,-0.9727,-0.1174,0.9349,0.3988,0.7955,2033
8,-0.0664,-0.9312,-0.1155,1.0332,0.3534,0.7289,2050
8,0.0256,-0.9756,-0.1494,1.1118,0.4104,0.7239,2037
8,0.0215,-1.04,-0.042,1.07,0.5956,0.7476,2032
8,0.0515,-1.0417,0.0107,0.9813,0.7978,0.7718,2082
8,-0.01,-1.0117,0.0032,0.9716,0.8818,0.8124,2078
8,0.0532,-1.0417,-0.0396,0.9383,0.9174,0.8626,2037
8,0.0815,-1.0449,-0.0137,0.856,0.9565,0.9248,2063
8,0.0818,-0.9963,-0.1328,0.7973,0.7383,1.0122,2060
8,0.0581,-1.011,0.0488,0.7686,0.7461,1.1274,2044
8,0.0076,-0.9653,-0.0439,0.8436,0.4779,1.2536,2042
8,0.0283,-0.9709,-0.0642,0.8753,0.4422,1.342,2020
8,0.0146,-1.0012,-0.0378,0.9311,0.3934,1.4826,2055
8,0.0144,-0.9929,-0.0894,1.0001,0.3141,1.5968,2052
8,0.0186,-1.0601,-0.0396,1.0441,0.4147,1.7086,1958
8,0.0232,-1.0808,0.0144,1.0254,0.3409,1.8721,2059
8,0.021,-0.9685,-0.0156,1.0829,0.2092,2.0893,2049
8,-0.0142,-1.186,0.0249,1.0745,-0.022,2.3497,2071
8,-0.2666,-1.0376,-0.0022,1.2725,-0.0903,2.595,2067
8,-0.2546,-1.186,0.0471,1.2563,-0.0285,2.5144,2084
8,-0.2312,-1.1658,0.0664,1.2897,-0.0197,2.4157,2074
8,-0.3276,-1.2625,0.1311,1.3303,0.0282,2.2134,2052
8,-0.0859,-1.29,0.1592,1.2328,0.0533,2.1351,2087
8,-0.0127,-1.1384,0.0933,1.4411,-0.1056,2.2122,2041
8,-0.0671,-1.564,0.1177,1.3576,-0.2482,2.1378,1994
8,-0.1182,-1.4182,0.1814,1.3657,-0.0972,2.2888,2128
8,-0.0115,-1.356,0.2593,1.392,-0.1213,2.4341,2052
8,0.0203,-1.3738,0.2422,1.4442,-0.1321,2.5193,1951
8,-0.0081,-1.4719,0.2107,1.4371,0.1043,2.4806,2074
8,0.0669,-1.6201,0.2876,1.43,0.2207,2.5421,2060
8,0.1418,-1.6904,0.2388,1.4792,0.1924,2.584,2036
8,0.3611,-1.6917,0.1189,1.5573,0.2212,2.71,2054
8,0.251,-2.0,0.0059,1.4197,0.848,2.9751,2065
8,0.873,-2.0,0.2258,1.2029,0.4324,2.0061,2099
8,0.9233,-1.6399,0.0127,1.1167,-0.4243,2.1469,2035
8,0.947,-1.4622,0.1345,1.3125,-2.4312,1.606,2001
8,0.5166,-0.9873,0.3235,1.8326,-3.5372,1.3194,2043
8,-0.3137,-1.033,0.2476,2.3995,-3.7177,3.3108,2062
8,-1.3494,-2.0,0.4915,1.9849,-3.0863,3.5713,2026
8,-1.4773,-1.8323,0.1641,1.3848,-1.7484,3.008,2052
8,-1.5007,-1.4932,-0.1748,1.8486,-0.0924,2.9332,2025
8,-1.614,-2.0,0.8643,0.9674,2.0268,1.9835,2016
8,1.031,-1.9526,0.595,-2.809,-0.4915,3.2146,2194
8,0.9258,1.9999,-0.2542,-0.922,-1.0713,3.8841,2194
8,1.0671,1.322,-0.7041,0.263,-0.6392,2.75,1895
8,-2.0,-0.8298,-2.0,1.9387,0.9833,3.6579,2086
8,-2.0,-0.3008,1.1841,4.3213,-0.6814,1.3259,2110
8,-1.5537,-0.5906,1.9999,0.3642,-4.3635,-0.6589,2106
8,-0.2749,-0.4783,1.3145,-0.2485,-3.6804,-0.562,1881
8,-0.6692,-0.1777,0.394,-0.5212,-0.7901,-0.5735,1981
8,-0.5642,-0.3582,0.0146,-2.8071,-0.7451,-1.4487,1991
8,-0.4622,-0.7114,-0.4131,-2.4051,0.3506,-1.7293,2087
8,-0.155,-0.5095,-0.3796,-2.3104,1.0356,-1.9323,2065
8,-0.033,-0.2927,-0.2834,-2.2077,1.1601,-2.1398,2083
8,0.0422,-0.0713,-0.0449,-2.3056,0.9174,-2.2614,2079
8,0.1829,-0.104,-0.0239,-2.4627,0.7602,-2.2706,2053
8,-0.0295,-0.1689,0.1956,-2.1021,0.6834,-2.4689,2066
8,-0.304,-0.3909,0.1697,-1.9359,0.5003,-2.9971,2019
8,-0.3274,-0.5056,0.2454,-1.8538,0.4332,-3.1477,2021
8,-0.2998,-0.5701,0.2676,-2.0522,0.4393,-3.3014,2013
8,-0.292,-0.3911,0.2864,-2.0807,0.7889,-3.5346,2073
8,-0.2937,-0.3093,0.3337,-2.1081,1.1014,-3.8246,2043
8,-0.2715,-0.3457,0.3345,-2.3423,1.1547,-4.0331,2024
8,-0.2805,-0.3845,0.283,-2.5774,1.176,-4.3635,2031
8,-0.2317,-0.387,0.2456,-2.7722,1.144,-4.3635,2038
8,-0.1489,-0.4089,0.1536,-2.9283,1.0967,-4.3635,2035
8,-0.0911,-0.4453,0.0779,-2.9415,0.9857,-4.3635,2039
8,-0.0522,-0.5122,0.0349,-2.8762,0.826,-4.3635,2058
8,-0.0391,-0.6262,0.0168,-2.7891,0.5705,-4.3635,2052
8,-0.0137,-0.7473,0.022,-2.7104,0.2839,-4.3635,2052
8,-0.0039,-0.8816,0.0535,-2.6426,-0.106,-4.3635,2058
8,0.0146,-1.0259,0.0906,-2.5019,-0.5658,-4.3635,2058
8,-0.0256,-1.1951,0.1731,-2.3297,-0.909,-4.3635,2051
8,-0.082,-2.0,0.3306,-2.6765,-1.2006,-4.3635,2092
8,-0.3303,-2.0,-0.3462,-4.3635,-1.9644,-2.822,2139
8,-2.0,-0.1572,0.8076,-3.3073,-3.5991,-4.3635,1877
8,-1.5679,-1.6042,0.377,1.1114,-1.8189,-3.1886,2003
8,1.9999,-2.0,1.9999,0.0314,-4.3635,2.0085,2012
8,-1.5549,-2.0,0.3953,-1.3414,-4.2544,-4.3635,2122
9,-0.5088,-1.6162,0.1572,-3.2416,-1.5881,-2.2525,2026
9,-1.1174,-1.3472,0.3931,-1.8033,-1.9414,-2.7643,2012
9,-1.3521,0.3054,0.8171,-0.9159,-2.6757,-2.29,1997
9,0.0051,-1.4966,1.8721,-2.0752,-1.4431,0.9737,2081
9,-1.438,-0.3611,0.7605,-1.507,0.8811,-0.791,2019
9,0.0876,-2.0,1.3696,-2.7127,-0.536,1.1045,2091
9,-1.1667,-0.7439,-0.2998,-2.5525,1.0706,-0.6119,2138
9,-1.4202,-0.6006,0.301,0.1936,0.1918,1.4825,2061
9,-0.0186,0.4673,0.7688,2.257,-0.7782,1.0661,1965
9,0.0725,-0.4983,0.9077,2.272,3.7858,1.3853,1975
9,1.9999,-2.0,0.2502,-1.0433,4.3634,-2.0612,2160
9,1.9999,-2.0,-1.2473,-0.8885,3.2041,0.124,2012
9,0.5928,-1.9309,-0.9919,-0.5645,0.2302,1.0705,2024
9,-0.4607,-0.7222,-0.0024,1.6885,0.085,1.4235,2029
9,-0.9253,-2.0,0.9988,0.5631,0.5932,1.6416,2099
9,-0.637,-1.655,0.2654,-0.9198,1.0323,1.5593,2067
9,-0.0144,-0.6509,-0.1565,-1.1789,1.3608,1.4159,2059
9,-0.2964,-0.5732,0.6973,-0.2617,2.0291,1.4422,1967
9,-0.3062,-1.3667,-0.0029,-0.8321,1.4452,0.7889,2040
9,-0.0481,-1.1443,-0.9487,-1.2188,1.1613,0.9756,2080
9,0.3323,-0.8757,-0.8069,-0.49,0.1754,0.9786,2066
9,0.2913,-0.9146,-0.5125,-0.0706,-0.6765,1.1354,2051
9,0.3511,-0.8826,-0.436,-0.1168,-0.6991,1.0782,2073
9,0.2026,-0.8948,-0.2644,-0.0506,-0.2522,1.107,2074
9,-0.0332,-0.8767,-0.1487,-0.1137,-0.1493,1.1477,2054
9,-0.1685,-0.9456,-0.0801,-0.0854,-0.223,1.0187,2054
9,-0.0974,-0.8564,-0.0271,0.1834,-0.19,0.8084,2043
9,-0.0334,-0.9822,0.0098,0.1732,-0.0875,0.746,2021
9,-0.0234,-1.0571,0.0833,0.1132,-0.1637,0.6633,2021
9,0.0474,-1.0627,0.0144,0.0832,-0.2763,0.5811,2027
9,0.1306,-1.0178,-0.2251,0.1599,-0.2621,0.6169,2024
9,0.1179,-1.0308,-0.427,0.2396,-0.1866,0.66,2032
9,0.1184,-0.9858,-0.5054,0.2847,-0.2075,0.5954,2048
9,0.1704,-0.9387,-0.4556,0.4079,-0.3012,0.5573,2052
9,0.2244,-0.9565,-0.3921,0.5987,-0.3683,0.5505,2039
9,0.2539,-1.0627,-0.3506,0.6309,-0.2894,0.6151,2037
9,0.2349,-1.0417,-0.3513,0.6196,-0.191,0.6505,2044
9,0.2334,-0.9895,-0.3218,0.6661,-0.1689,0.713,2048
9,0.2451,-1.0212,-0.2783,0.7147,-0.1461,0.7377,2046
9,0.2195,-1.0002,-0.2168,0.842,-0.108,0.7517,2024
9,0.1013,-1.0474,-0.1931,0.744,0.0021,0.7086,2045
9,0.0852,-1.0415,-0.1602,0.6734,0.0999,0.7011,2052
9,0.0959,-1.0044,-0.1531,0.5877,0.1623,0.7833,2050
9,0.063,-1.0142,-0.1594,0.5705,0.1341,0.8118,2041
9,0.0347,-0.9663,-0.1875,0.6039,0.2132,0.8292,2045
9,0.0022,-0.9656,-0.1992,0.6251,0.2639,0.854,2031
9,0.0093,-0.969,-0.2461,0.6837,0.3569,0.8348,2039
9,-0.0005,-0.9551,-0.2056,0.7622,0.4661,0.7769,2032
9,-0.0686,-0.9641,-0.0618,0.9313,0.498,0.7561,2019
9,-0.0764,-0.9658,0.0078,0.927,0.4643,0.7708,2066
9,-0.0278,-0.9583,0.0249,0.9335,0.3577,0.7898,2021
9,-0.0239,-0.981,0.0039,0.8937,0.3783,0.8118,2049
9,-0.0383,-1.0022,0.0312,0.7682,0.3008,0.8395,2038
9,-0.0527,-0.9915,-0.0381,0.747,0.332,0.8449,2055
9,-0.0952,-1.0012,0.011,0.7347,0.3908,0.8452,2048
9,-0.0723,-0.9968,-0.0071,0.6998,0.4785,0.8708,2071
9,-0.0847,-1.0261,0.0027,0.6062,0.5533,0.8737,2021
9,-0.0491,-1.0054,-0.0112,0.5191,0.5858,0.8921,2048
9,-0.0459,-1.0696,0.0303,0.4898,0.6002,0.9268,2065
9,-0.0249,-1.041,0.0454,0.4635,0.5789,1.0041,2072
9,-0.0408,-0.9785,0.0391,0.4794,0.5578,1.1266,2042
9,0.0022,-1.0115,0.0083,0.4565,0.5377,1.2091,2019
9,0.0439,-1.0349,-0.0593,0.4356,0.5147,1.2913,2052
9,0.0283,-1.0613,-0.1238,0.3986,0.5076,1.3649,2060
9,0.0264,-0.9822,-0.1077,0.4365,0.4324,1.4033,2058
9,0.0635,-1.0007,-0.0979,0.524,0.5147,1.5443,2041
9,0.02,-1.0054,-0.0215,0.5502,0.3444,1.786,2003
9,-0.0601,-1.0034,-0.0549,0.569,0.063,1.922,1995
9,-0.1104,-1.1516,-0.012,0.5216,-0.1408,1.9077,1998
9,-0.2004,-1.0417,-0.0649,0.6191,-0.3581,1.8792,2056
9,-0.2935,-0.9761,-0.1514,0.7439,-0.1602,1.8333,2064
9,-0.2566,-1.0676,-0.115,0.7312,-0.1248,1.8528,2140
9,-0.2429,-0.9426,-0.0984,0.8238,-0.149,1.8086,2065
9,-0.2664,-1.02,-0.0564,0.8724,-0.1198,1.7515,2043
9,-0.2368,-1.0742,0.0029,0.8879,-0.1422,1.7094,2036
9,-0.2371,-1.1777,0.0388,0.9228,-0.1744,1.6989,2134
9,-0.3071,-1.3059,0.1238,0.8565,-0.0674,1.7723,2013
9,-0.0859,-1.2271,0.2144,0.8492,-0.2416,1.674,1978
9,-0.1919,-1.3877,0.2131,0.9134,-0.4971,1.7422,2042
9,-0.3391,-1.4185,0.3503,0.8179,-0.4109,1.7464,2083
9,-0.2622,-1.2534,0.3,0.7598,-0.2139,1.692,2112
9,-0.2087,-1.1851,0.4104,0.7917,-0.0093,1.654,2073
9,-0.2188,-1.1292,0.2668,0.8721,0.2422,1.572,2027
9,-0.2261,-1.1902,0.2,0.8533,0.4794,1.5258,2067
9,-0.2332,-1.2354,0.1116,0.9202,0.5365,1.6317,2016
9,-0.0979,-1.1606,0.0095,0.9465,0.7008,1.6368,1973
9,0.0076,-1.1599,-0.0872,1.0451,0.663,1.6952,2030
9,-0.3164,-1.0105,-0.0989,1.6901,0.5952,2.3143,1998
9,0.4402,-1.5591,-0.0195,0.9855,0.4418,2.194,2063
9,0.5317,-1.4719,-0.0652,0.7982,-0.2674,2.5765,2087
9,0.6885,-1.3818,0.0178,0.7552,-1.0108,2.0742,2050
9,0.8677,-1.5444,0.0117,0.7485,-1.8318,1.4261,2076
9,0.9829,-1.3274,0.0474,1.1493,-3.4432,0.9481,2027
9,0.3503,-1.1978,0.3518,1.654,-4.153,2.4298,1986
9,-0.1748,-1.5334,0.5137,1.8706,-3.9179,3.1733,2066
9,-0.5029,-1.8157,0.3887,1.5852,-3.0095,3.4512,2046
9,-0.74,-1.615,0.3,1.7596,-2.2044,3.1046,2022
9,-0.6553,-1.8445,0.1545,1.4266,-1.9957,2.8951,2007
9,-1.2971,-1.623,0.2056,1.6203,-0.8862,3.5452,2022
9,-0.6416,-2.0,1.2102,-1.2577,-1.3516,3.8093,2097
9,0.3333,-0.666,0.2603,-1.2227,-1.3235,3.02,2287
9,1.0645,1.165,0.1562,1.0621,-2.2686,3.4698,1912
