Timestamp,Ax,Ay,Az,Rx,Ry,Rz,EMG
0,-0.4722,-1.0046,-0.582,-0.3713,0.9612,-3.4235,2712
0,-0.8027,-1.146,-0.4094,-0.3956,1.8717,-3.225,2838
0,-0.4761,-1.2227,-0.071,-0.1317,1.7801,-2.6518,2009
0,-0.5132,-1.3691,0.0198,-0.4152,1.3886,-2.2369,1426
0,-0.6543,-1.3245,-0.1394,-0.6662,1.432,-1.6305,1886
0,-0.7241,-1.2754,-0.1396,-1.3485,1.3467,-0.9056,2040
0,-0.6289,-1.2783,-0.0908,-1.7885,1.8907,-0.0927,1373
0,-1.3945,-0.9194,0.239,-1.2139,2.5585,0.7712,1737
0,-0.397,-0.051,1.4053,-0.0977,3.2786,0.9829,1695
0,1.3425,-0.5071,1.9999,0.5251,2.5418,0.7566,72
0,1.9999,-1.3032,1.9094,-0.4328,2.4417,-0.31,1458
0,1.9999,0.4033,0.8755,-0.2057,1.5141,-0.385,2463
0,0.8264,-0.4126,0.3396,-2.0283,-1.5848,-0.3413,2714
0,-0.2493,-2.0,1.3335,-0.6729,1.4968,0.3137,3434
0,-0.8047,-0.448,-0.3999,-0.664,-0.2065,1.2557,1792
0,-1.3662,-2.0,-0.4468,-2.9987,2.7508,1.0786,3103
0,-1.1648,-2.0,-0.5657,-2.2009,3.5836,0.9175,2775
0,0.1233,-1.7019,-0.1375,-1.7832,0.8031,1.1164,1330
0,1.9072,-0.2754,-0.2954,-2.035,0.9991,0.4003,1229
0,0.9905,-0.4783,0.5024,-1.6205,1.497,0.4859,2029
0,-0.0415,-1.2437,-0.0825,-1.6502,0.0585,0.8823,2622
0,-0.3076,-1.124,-0.1238,-1.4078,-0.4998,0.9887,2514
0,-0.2427,-0.7439,0.1355,-1.3757,-0.1675,0.6384,2241
0,-0.165,-0.7039,0.1433,-1.2628,0.0559,0.3701,1942
0,-0.293,-0.9285,0.2107,-1.2579,0.1051,0.1831,2237
0,-0.21,-0.9377,0.2383,-1.2378,0.2758,0.0816,3064
0,-0.0579,-0.8804,0.1584,-1.1097,0.4932,-0.025,1413
0,0.0271,-0.9985,0.1245,-1.0073,0.4469,-0.1674,1892
0,0.0786,-0.9893,0.1116,-0.9075,0.3357,-0.1711,1910
0,0.031,-0.896,0.0356,-0.8154,0.2938,-0.1394,1774
0,0.0791,-0.8804,-0.0237,-0.7685,0.4024,-0.1654,2301
0,0.0874,-0.9189,-0.0769,-0.7456,0.4607,-0.2294,1532
0,0.1714,-0.9795,-0.0461,-0.6962,0.5003,-0.1519,2113
0,0.3672,-0.9907,0.0283,-0.6863,0.5742,-0.0577,2287
0,0.3892,-1.0273,0.0242,-0.6505,0.3685,-0.0069,2102
0,0.2896,-0.9927,0.0667,-0.5956,0.0924,0.0401,1182
0,0.2202,-0.9663,0.0305,-0.5613,0.0695,0.0547,2574
0,0.1438,-0.9856,0.0842,-0.5181,0.1357,0.1016,2155
0,0.1584,-0.9651,0.0811,-0.4663,0.1671,0.1241,1994
0,0.1152,-0.9321,0.0894,-0.4597,0.2432,0.1642,1659
0,0.0864,-0.9382,0.0757,-0.4442,0.2906,0.1907,2101
0,0.1782,-0.9602,0.0527,-0.42,0.3289,0.2685,2055
0,0.2014,-1.0012,0.0164,-0.4023,0.496,0.3016,1686
0,0.1887,-0.9893,-0.0007,-0.42,0.4468,0.2798,1908
0,0.1304,-0.9409,-0.0527,-0.4007,0.3682,0.3088,2002
0,0.0635,-0.9517,-0.0479,-0.3534,0.2601,0.2948,2126
0,0.0315,-0.9683,-0.0237,-0.3092,0.245,0.2396,1852
0,0.0562,-0.9102,0.0149,-0.2364,0.2816,0.1903,2138
0,0.0696,-0.9536,-0.0007,-0.2602,0.3072,0.0434,2135
0,0.0273,-0.9761,0.1082,-0.2703,0.4657,0.0009,2369
0,0.1326,-0.9402,0.0547,-0.1934,0.2085,0.0776,1990
0,0.1755,-1.0879,0.0815,-0.1563,0.1409,0.194,1874
0,0.1619,-1.0061,0.0837,-0.2188,0.1242,0.1498,1990
0,0.0486,-0.9705,0.0999,-0.2211,0.0794,0.1264,2064
0,-0.0042,-0.959,0.0752,-0.1874,0.055,0.1321,2161
0,-0.0735,-0.9658,0.0017,-0.1526,0.0069,0.1095,2137
0,-0.0706,-0.9229,-0.0007,-0.1434,0.0494,0.0366,1995
0,-0.0322,-0.9993,-0.0137,-0.1261,0.0867,0.0131,2117
0,-0.1621,-0.8699,0.0859,0.029,0.4959,0.0073,1930
0,0.3494,-0.9067,0.0667,-0.0525,-0.1111,-0.2111,2174
0,0.0828,-1.1619,0.0669,-0.0344,-0.2087,-0.1763,1935
0,0.0024,-0.9231,-0.0674,-0.0724,-0.1623,-0.1919,2218
0,0.0469,-0.8943,0.0579,0.0818,-0.2465,-0.1019,2105
0,0.0547,-1.0085,0.0708,0.0001,-0.0471,-0.2354,2000
0,0.1721,-0.9771,0.1104,0.0515,-0.0763,-0.2282,2020
0,0.0698,-1.0457,0.1011,0.0629,-0.0788,-0.2923,2150
0,0.2283,-0.8833,0.0718,0.087,-0.1478,-0.1939,2040
0,0.1462,-0.9446,0.0535,0.0521,-0.1232,-0.1815,2113
0,0.1194,-1.0339,0.0063,0.0764,-0.1685,-0.1281,2022
0,0.2463,-1.0042,0.041,0.027,-0.0599,-0.1253,2122
0,0.3369,-0.8826,0.0388,0.0916,-0.1523,-0.1012,2077
0,0.2109,-1.0906,-0.0088,0.0386,-0.0305,-0.096,1832
0,0.2585,-0.9141,-0.0125,0.1152,0.0206,-0.0751,2314
0,0.1714,-0.948,0.0203,0.1388,0.0188,-0.0328,2120
0,0.1248,-0.9368,0.0317,0.0979,0.1787,-0.0242,2162
0,0.1121,-0.8801,0.083,0.1722,0.0884,0.028,2038
0,0.0984,-1.0063,0.1135,0.108,0.1794,0.0234,2152
0,0.176,-0.9897,0.0811,0.0823,0.1454,0.019,1946
0,0.0742,-0.9299,0.1501,0.151,0.0871,0.0356,2060
0,0.1299,-0.9729,0.1123,0.0961,0.1662,0.032,1763
0,0.3113,-0.7561,0.0823,0.1559,0.0284,0.1324,2193
0,0.0676,-1.0276,0.1113,0.0553,0.1831,0.0969,2063
0,0.1426,-1.0032,0.1382,0.0313,0.2049,0.0409,1989
0,0.1731,-1.002,0.1248,0.0334,0.1202,0.0393,2019
0,0.1284,-1.0212,0.1089,0.0161,0.0951,0.0606,2077
0,0.2505,-0.7507,0.0642,0.0835,0.0192,0.1071,2076
0,-0.0835,-1.1577,0.1714,0.0198,0.012,0.0479,2032
0,0.1567,-1.001,0.1045,-0.0228,0.0543,0.0438,2047
0,0.1477,-0.9807,0.0962,-0.0253,0.0419,0.0539,2107
0,0.0479,-1.1853,0.1404,-0.0943,0.0603,0.0228,2047
0,0.0815,-0.9622,0.0784,-0.0381,0.0127,0.0682,2042
0,0.0513,-0.9233,0.1326,-0.0133,-0.0691,0.0675,2105
0,0.0781,-0.9343,0.1431,-0.0342,-0.0445,0.0639,2062
0,0.1113,-0.9587,0.1338,-0.0535,-0.0011,0.0731,2042
0,0.1294,-0.9861,0.1479,-0.0546,0.0453,0.0795,2040
0,0.1199,-1.0095,0.1621,-0.0505,0.0527,0.0831,1980
0,0.1389,-1.0022,0.1543,-0.0614,0.0384,0.0842,2013
0,0.1133,-0.9922,0.1333,-0.0566,-0.0084,0.0835,2027
0,0.0884,-0.9834,0.1135,-0.0597,-0.0431,0.0731,2145
0,0.0964,-0.9741,0.1123,-0.0671,-0.0527,0.0682,2081
0,0.1116,-0.9888,0.0972,-0.0638,-0.0591,0.0501,2042
0,0.1086,-0.9841,0.0967,-0.0606,-0.065,0.0378,2029
0,0.0886,-0.9666,0.1042,-0.0658,-0.0348,0.0346,2027
1,0.072,-0.9575,0.1155,-0.0641,0.0154,0.0338,2059
1,0.0723,-0.9622,0.1162,-0.0633,0.0296,0.0182,2058
1,0.0706,-0.9773,0.1116,-0.0573,0.0092,0.0138,2006
1,0.0903,-0.9829,0.1221,-0.0605,0.0035,-0.0048,2045
1,0.1067,-0.9844,0.1155,-0.0642,-0.0334,-0.0152,2049
1,0.1138,-0.9812,0.126,-0.0635,-0.0615,-0.02,2048
1,0.1279,-0.978,0.1221,-0.0618,-0.0647,-0.0202,2006
1,0.1248,-0.9849,0.1348,-0.0563,-0.0715,-0.0204,2051
1,0.1316,-0.9795,0.1328,-0.0614,-0.0479,-0.0083,1946
1,0.126,-0.9812,0.1323,-0.0561,-0.0449,-0.0055,2059
1,0.1079,-0.9905,0.1299,-0.0384,-0.0634,-0.0071,2034
1,0.1006,-0.9756,0.1189,-0.0021,-0.1156,-0.0079,2033
1,0.1289,-0.9868,0.127,-0.0181,-0.0686,-0.006,2044
1,0.1382,-0.9905,0.1147,-0.0198,-0.0537,-0.0033,1968
1,0.1277,-0.9719,0.126,-0.0344,-0.0762,-0.0047,2096
1,0.1162,-0.9695,0.1155,-0.0407,-0.0928,-0.0063,2108
1,0.1055,-0.9666,0.1216,-0.0502,-0.135,-0.0028,2075
1,0.1001,-0.9607,0.1357,-0.0585,-0.1438,0.0039,2036
1,0.1216,-0.9817,0.1335,-0.0534,-0.0983,0.0056,2076
1,0.1216,-1.0054,0.1189,-0.0399,-0.0763,0.0055,2001
1,0.1191,-0.9875,0.1157,-0.0442,-0.055,-0.0012,2055
1,0.1125,-0.9751,0.125,-0.0414,-0.0688,-0.0087,1932
1,0.1106,-0.9702,0.1189,-0.0438,-0.0736,-0.0076,2098
1,0.0981,-0.9736,0.1204,-0.0186,-0.0984,-0.0121,2106
1,0.1057,-0.9792,0.1038,-0.0168,-0.0489,-0.0177,2025
1,0.0996,-0.9851,0.1165,-0.0064,-0.0735,-0.0341,2018
1,0.0945,-0.9741,0.1079,-0.0008,-0.0949,-0.0429,2092
1,0.0684,-0.958,0.1223,-0.0011,-0.1225,-0.0565,2057
1,0.0535,-0.9512,0.1208,-0.0019,-0.145,-0.07,2075
1,0.061,-0.9556,0.1382,0.0011,-0.1349,-0.078,2081
1,0.085,-0.9746,0.1238,0.0127,-0.063,-0.0903,2035
1,0.0996,-1.0027,0.1365,0.031,-0.021,-0.1067,2043
1,0.1113,-0.9939,0.1245,0.043,-0.0352,-0.1238,2022
1,0.1135,-0.9678,0.137,0.039,-0.0786,-0.1348,2009
1,0.094,-0.9607,0.1545,0.0333,-0.0924,-0.1405,1999
1,0.0935,-0.9592,0.1714,0.0276,-0.07,-0.1503,2048
1,0.1057,-0.9724,0.1509,0.016,-0.0345,-0.1714,2069
1,0.1016,-0.9763,0.1604,0.0124,-0.069,-0.1951,2043
1,0.0864,-0.9634,0.1113,0.0064,-0.0826,-0.2052,2029
1,0.0911,-0.9241,0.1321,0.0497,-0.1261,-0.2274,2066
1,0.0901,-0.9482,0.147,0.0294,-0.1724,-0.2215,2026
1,0.1096,-0.9602,0.1511,0.0254,-0.2277,-0.2309,2015
1,0.1467,-0.9614,0.1614,0.0285,-0.231,-0.241,2014
1,0.1526,-0.9792,0.165,0.0304,-0.2248,-0.2497,2075
1,0.1699,-1.002,0.1135,0.0784,-0.2172,-0.3109,1984
1,0.1411,-1.0645,0.1631,0.002,-0.2032,-0.2863,2060
1,0.2253,-1.0852,0.1809,0.0655,-0.4737,-0.3537,2079
1,0.2368,-0.8179,0.0547,0.1436,-0.4414,-0.2847,2000
1,0.3887,-0.6812,0.0786,0.0924,-0.5794,-0.2995,1924
1,0.061,-1.0925,0.2205,0.0803,-0.6926,-0.3241,2070
1,0.0881,-0.9822,0.1489,0.0281,-0.613,-0.3662,2075
1,0.0723,-0.9382,0.1858,0.0758,-0.3916,-0.3526,2116
1,0.1318,-0.9863,0.2092,0.0007,-0.1047,-0.3292,2089
1,0.1028,-0.8687,0.1875,0.0687,0.0522,-0.3285,2036
1,0.1353,-0.8713,0.1536,0.0715,0.0662,-0.3524,1962
1,0.1431,-0.9631,0.1499,0.0617,0.1447,-0.3316,2064
1,0.283,-1.0347,0.1455,0.0301,0.0385,-0.3388,2047
1,0.3567,-0.9971,0.0972,-0.0013,-0.1308,-0.32,2061
1,0.3181,-0.9778,0.1194,0.0133,-0.1314,-0.3093,1989
1,0.2661,-0.9756,0.1812,0.0088,-0.1374,-0.2643,2063
1,0.2109,-0.8433,0.1941,0.0784,-0.3514,-0.2043,2046
1,0.2468,-0.9683,0.1724,-0.0265,-0.2582,-0.1863,2225
1,0.157,-0.8562,0.2197,0.1175,-0.167,-0.2028,2021
1,0.2988,-0.9661,0.2014,-0.0417,-0.1007,-0.1654,2058
1,0.3049,-0.9395,0.217,-0.0968,-0.0509,-0.1417,2054
1,0.2871,-0.9551,0.175,-0.1202,0.0216,-0.1266,2013
1,0.269,-0.9348,0.2197,-0.1242,0.055,-0.2084,2032
1,0.241,-0.3025,0.1763,0.2304,0.0607,-0.2689,1944
1,0.3064,-0.6653,0.1687,0.1182,-0.6505,-0.4829,2005
1,0.2932,-1.7969,0.012,-0.467,0.1535,-0.3265,2439
1,0.0447,-0.9006,0.0378,0.1377,0.5556,0.0649,1932
1,0.3191,-0.7651,0.301,-0.0929,0.0461,0.0342,2108
1,0.3713,-1.0483,0.3196,-0.1001,0.3944,0.0322,2065
1,0.3694,-1.0261,0.2258,-0.2226,0.0972,0.0229,2045
1,0.1897,-0.9373,0.188,-0.1871,0.0603,0.078,2083
1,0.1897,-0.9224,0.2415,-0.2262,0.1264,0.0989,2137
1,0.2039,-0.9585,0.2139,-0.2137,0.1474,0.1027,2060
1,0.1958,-0.9404,0.2148,-0.2245,0.1736,0.0917,1994
1,0.2439,-0.9526,0.165,-0.2458,0.1863,0.0862,2033
1,0.1301,-0.9565,0.1489,-0.2009,0.1954,0.089,2027
1,0.1489,-0.9524,0.134,-0.172,0.1551,0.0754,2088
1,0.1768,-0.9651,0.1292,-0.1746,0.1357,0.0551,2037
1,0.2234,-0.957,0.0916,-0.1697,0.0738,0.0131,2056
1,0.2163,-0.9666,0.0757,-0.1527,0.0791,-0.0298,2020
1,0.1648,-0.9788,0.1011,-0.1377,0.0149,-0.0498,2022
1,0.1494,-0.9661,0.145,-0.1258,-0.0202,-0.0663,2061
1,0.1284,-0.9702,0.1912,-0.1248,-0.0185,-0.1071,2075
1,0.1028,-0.9639,0.2031,-0.1175,-0.0032,-0.1491,2055
1,0.1091,-0.9702,0.2129,-0.1087,0.0278,-0.1583,2026
1,0.189,-0.8467,0.2144,-0.0513,0.0422,-0.1096,2002
1,0.1687,-0.9407,0.2595,-0.1188,0.1306,-0.2032,2038
1,0.2153,-0.9495,0.2239,-0.1128,0.1302,-0.1955,2024
1,0.2939,-1.0195,0.2102,-0.1746,0.1398,-0.1559,1988
1,0.2346,-0.9517,0.1892,-0.0851,0.14,-0.1678,2043
1,0.2449,-0.9397,0.1643,-0.0961,0.0818,-0.1682,2080
1,0.2749,-0.9478,0.1633,-0.0823,0.02,-0.1511,2068
1,0.2832,-0.9578,0.1604,-0.0904,-0.074,-0.1487,2069
1,0.2861,-0.9324,0.157,-0.0788,-0.1716,-0.1388,2029
1,0.2822,-0.9541,0.1636,-0.1198,-0.1246,-0.1302,1981
1,0.2476,-0.9585,0.1738,-0.1238,-0.0019,-0.1394,2071
2,0.2102,-0.9639,0.1511,-0.1264,0.0021,-0.1398,2099
2,0.2158,-0.9397,0.1177,-0.127,0.0278,-0.1566,2040
2,0.2373,-0.9529,0.1106,-0.1229,0.0746,-0.1779,2102
2,0.2253,-0.9575,0.1123,-0.1041,0.0723,-0.1908,2045
2,0.2178,-0.9626,0.1558,-0.0965,0.0269,-0.1946,2032
2,0.2419,-0.9507,0.1726,-0.0791,-0.0274,-0.1989,2043
2,0.2395,-0.9465,0.1873,-0.0795,-0.0401,-0.1944,2028
2,0.2473,-0.9497,0.2122,-0.0767,-0.0477,-0.1784,2032
2,0.2546,-0.9485,0.2197,-0.0756,-0.0003,-0.1779,2001
2,0.2454,-0.9446,0.2197,-0.0595,0.0463,-0.1795,2047
2,0.2222,-0.9336,0.2217,-0.0658,0.0402,-0.178,2022
2,0.2615,-0.9641,0.1631,-0.0602,0.0804,-0.1643,2070
2,0.301,-0.959,0.1387,-0.0599,0.078,-0.1486,2070
2,0.3452,-0.9526,0.1465,-0.0537,0.0313,-0.1031,2025
2,0.325,-0.9448,0.1809,-0.1071,0.0365,-0.1346,2038
2,0.2961,-0.9219,0.1787,-0.0925,-0.0649,-0.1229,2073
2,0.3228,-1.0928,0.1255,-0.2246,-0.0776,-0.119,2044
2,0.3132,-0.9355,0.177,-0.1198,-0.0633,-0.0969,2033
2,0.2964,-0.9421,0.1716,-0.1562,-0.1244,-0.1023,2070
2,0.272,-0.9451,0.2131,-0.151,-0.0561,-0.0786,2049
2,0.2827,-0.9302,0.1924,-0.1442,-0.0124,-0.0625,2044
2,0.3098,-0.9441,0.1755,-0.1577,0.0233,-0.0549,2037
2,0.321,-0.9568,0.1516,-0.1441,-0.0521,-0.0418,2035
2,0.2959,-0.9521,0.1704,-0.1702,-0.0799,-0.0269,2029
2,0.2573,-0.9434,0.1516,-0.1473,-0.1123,-0.0047,2034
2,0.3186,-0.9351,0.2078,-0.1659,-0.0815,0.0029,2106
2,0.3396,-0.9346,0.189,-0.1316,-0.0494,0.0341,2036
2,0.3652,-0.9736,0.1467,-0.1473,0.018,0.0559,2033
2,0.2944,-0.9473,0.1436,-0.1517,-0.0328,0.065,2066
2,0.239,-0.8525,0.2188,-0.0232,-0.0001,0.114,1916
2,0.2827,-1.0171,0.1602,-0.1409,0.0473,0.11,2123
2,0.2947,-0.9543,0.1882,-0.176,-0.0248,0.112,2033
2,0.2815,-0.9463,0.1716,-0.1519,0.0192,0.129,2053
2,0.2861,-0.9495,0.1536,-0.1633,0.0952,0.1273,2064
2,0.2451,-0.9487,0.1787,-0.171,0.0655,0.132,2043
2,0.2251,-0.9385,0.1865,-0.1578,0.0336,0.1394,1985
2,0.2402,-0.9387,0.1665,-0.1471,0.021,0.1293,1967
2,0.2156,-0.9412,0.1487,-0.1413,-0.0055,0.1254,2030
2,0.2202,-0.9436,0.1689,-0.1349,-0.0208,0.1222,2080
2,0.1931,-0.9453,0.1541,-0.114,-0.0403,0.1055,2050
2,0.1963,-0.9363,0.1733,-0.1045,-0.0514,0.0887,2028
2,0.2039,-0.937,0.1956,-0.1205,-0.0354,0.071,2031
2,0.2234,-0.9441,0.1873,-0.1304,-0.0579,0.0386,2030
2,0.2461,-0.9688,0.1648,-0.1284,-0.0152,0.022,2081
2,0.1787,-0.9624,0.1897,-0.1356,-0.0421,-0.0008,2079
2,0.1692,-0.9287,0.1633,-0.1192,-0.0281,-0.0125,1981
2,0.2305,-0.9578,0.1572,-0.1305,0.0071,-0.0423,2027
2,0.2542,-0.9587,0.1577,-0.1342,0.0084,-0.0405,1980
2,0.2319,-0.949,0.1589,-0.1433,-0.0065,-0.0513,2016
2,0.2295,-0.9546,0.1621,-0.1358,-0.0261,-0.0601,2015
2,0.218,-0.948,0.1489,-0.1224,-0.0658,-0.0639,2011
2,0.2795,-0.9399,0.1921,-0.1515,-0.03,-0.0687,2057
2,0.2915,-0.9585,0.1587,-0.1412,0.006,-0.0656,2031
2,0.2588,-0.9438,0.1548,-0.1254,-0.0397,-0.0538,2027
2,0.2405,-0.9407,0.1538,-0.1233,-0.0336,-0.0443,2076
2,0.2634,-0.9446,0.1584,-0.1168,-0.0507,-0.0382,2058
2,0.2825,-0.9521,0.157,-0.1333,-0.0509,-0.0334,2067
2,0.2847,-0.9482,0.1504,-0.1308,-0.0346,-0.0186,2033
2,0.3027,-0.96,0.1482,-0.1268,-0.0101,-0.0069,2050
2,0.2639,-0.9688,0.1511,-0.1298,0.01,0.0051,2034
2,0.2466,-0.9417,0.1621,-0.1121,-0.017,0.0188,1977
2,0.2295,-0.9436,0.1619,-0.1185,-0.0397,0.0128,2080
2,0.2351,-0.9463,0.1655,-0.1071,-0.0574,0.0112,2079
2,0.2488,-0.9597,0.1663,-0.1071,-0.0541,0.0064,2002
2,0.25,-0.9626,0.1609,-0.0903,-0.0549,0.0072,1996
2,0.2271,-0.9543,0.1511,-0.0718,-0.0791,0.0076,2051
2,0.2068,-0.9534,0.1667,-0.0676,-0.0653,0.0008,2082
2,0.1809,-0.946,0.166,-0.0417,-0.0639,-0.0048,2053
2,0.1819,-0.9519,0.178,-0.0254,-0.1192,-0.0138,2140
2,0.2002,-0.9534,0.1726,-0.012,-0.193,-0.0325,2026
2,0.2324,-0.9702,0.1892,-0.028,-0.2462,-0.0527,2032
2,0.2368,-0.959,0.199,-0.0413,-0.2421,-0.0545,2006
2,0.2205,-0.9551,0.2007,-0.0482,-0.2183,-0.0591,2059
2,0.2273,-0.9548,0.2095,-0.0654,-0.2168,-0.073,1993
2,0.2556,-0.9531,0.2114,-0.098,-0.2115,-0.084,2070
2,0.2766,-0.9551,0.1875,-0.126,-0.2318,-0.0972,2006
2,0.2891,-0.9548,0.1624,-0.1312,-0.2219,-0.0884,2086
2,0.2844,-0.9514,0.1455,-0.1374,-0.1999,-0.0808,2017
2,0.2786,-0.9524,0.1245,-0.1386,-0.1629,-0.0779,2051
2,0.2671,-0.946,0.1121,-0.1236,-0.1304,-0.0663,2047
2,0.2788,-0.9543,0.1248,-0.1049,-0.1378,-0.0586,2072
2,0.2917,-0.9397,0.1228,-0.1084,-0.1473,-0.0618,2037
2,0.292,-0.937,0.1169,-0.1209,-0.1246,-0.0716,2069
2,0.2808,-0.9463,0.1272,-0.1214,-0.0967,-0.0613,2025
2,0.28,-0.9458,0.1343,-0.1293,-0.0751,-0.0587,2037
2,0.2261,-0.9697,0.1523,-0.1117,-0.0256,-0.0282,2059
2,0.2297,-0.9539,0.2051,-0.0699,-0.0433,-0.0021,2050
2,0.2693,-0.9548,0.2139,-0.0617,-0.0708,-0.0064,2032
2,0.2639,-0.9583,0.2041,-0.0843,-0.0898,-0.0164,2054
2,0.2629,-0.9497,0.178,-0.0917,-0.0594,-0.0249,2025
2,0.2681,-0.9431,0.1594,-0.1089,-0.0414,-0.0253,2066
2,0.2891,-0.9429,0.1597,-0.1242,-0.0569,-0.0305,2038
2,0.3,-0.9526,0.1689,-0.1226,-0.0683,-0.0306,2025
2,0.3018,-0.9343,0.1643,-0.1139,-0.0752,-0.0386,2050
2,0.2776,-0.9307,0.1482,-0.1186,-0.0566,-0.0509,2055
2,0.2771,-0.9253,0.1423,-0.1242,-0.0382,-0.0671,2053
2,0.2966,-0.9253,0.137,-0.1365,-0.032,-0.0832,2026
2,0.2883,-0.9458,0.1226,-0.1491,-0.0093,-0.0882,2062
2,0.2803,-0.9446,0.1382,-0.1322,0.0107,-0.0625,2032
2,0.29,-0.9404,0.1611,-0.1189,0.0285,-0.0551,2010
2,0.2791,-0.9429,0.1621,-0.1116,0.0317,-0.0515,2047
2,0.2874,-0.9382,0.1587,-0.1095,0.0513,-0.0507,2039
2,0.2876,-0.9316,0.1404,-0.1145,0.0806,-0.0638,2058
2,0.2886,-0.9338,0.124,-0.1324,0.1135,-0.0625,2042
2,0.2781,-0.9536,0.1448,-0.1262,0.1338,-0.0366,2045
3,0.2966,-0.9448,0.1594,-0.0943,0.1056,-0.0109,2018
3,0.3098,-0.9485,0.1824,-0.0846,0.0617,-0.0198,2068
3,0.2954,-0.9497,0.1692,-0.0925,0.0571,-0.0173,2016
3,0.2798,-0.9417,0.1423,-0.0996,0.066,-0.0192,2047
3,0.283,-0.9353,0.1357,-0.1003,0.0874,-0.0248,2046
3,0.3044,-0.9463,0.1462,-0.1028,0.0883,-0.023,2054
3,0.2939,-0.9443,0.1492,-0.1032,0.089,-0.0252,2033
3,0.283,-0.9468,0.1494,-0.0975,0.0842,-0.02,2056
3,0.2815,-0.9419,0.1533,-0.0927,0.0754,-0.0218,2042
3,0.2827,-0.9341,0.1628,-0.085,0.0645,-0.0237,2046
3,0.2935,-0.9456,0.1577,-0.0888,0.0679,-0.0362,1981
3,0.2988,-0.9304,0.135,-0.0899,0.0759,-0.0346,2041
3,0.3015,-0.9419,0.1331,-0.0943,0.1056,-0.0409,2043
3,0.2756,-0.9512,0.1304,-0.1,0.1333,-0.028,2068
3,0.271,-0.9502,0.1597,-0.0907,0.1269,-0.0064,2045
3,0.2705,-0.9543,0.1829,-0.0754,0.1131,0.0059,2068
3,0.2783,-0.9553,0.1895,-0.0676,0.0908,0.0115,2031
3,0.293,-0.9468,0.1782,-0.0778,0.063,0.0145,2006
3,0.3013,-0.9419,0.1685,-0.0888,0.0577,0.0153,2078
3,0.2888,-0.9392,0.1711,-0.0928,0.0549,0.0182,2063
3,0.2844,-0.9426,0.1782,-0.0921,0.0575,0.022,2043
3,0.269,-0.946,0.1858,-0.0921,0.059,0.0217,2087
3,0.2671,-0.9453,0.1743,-0.1012,0.0639,0.0119,2043
3,0.2629,-0.9539,0.155,-0.1041,0.0579,0.0033,2015
3,0.2578,-0.9404,0.1477,-0.1081,0.0567,0.0019,2034
3,0.2717,-0.9407,0.1667,-0.0968,0.0501,-0.0065,2032
3,0.2725,-0.946,0.1543,-0.0886,0.0397,-0.0142,2073
3,0.2671,-0.9536,0.1328,-0.114,0.0607,-0.0188,2009
3,0.2275,-0.9578,0.1394,-0.1065,0.1024,0.0013,2075
3,0.2473,-0.9517,0.1802,-0.085,0.0855,0.0185,2065
3,0.2742,-0.9487,0.2039,-0.0803,0.0421,0.0129,2028
3,0.2502,-0.9543,0.2034,-0.083,0.0386,0.0125,1983
3,0.2463,-0.9531,0.1931,-0.0808,0.0692,0.0132,2040
3,0.2644,-0.9387,0.175,-0.0859,0.0804,0.0067,2065
3,0.2793,-0.9487,0.1648,-0.0826,0.0768,0.0019,2041
3,0.2776,-0.9441,0.1609,-0.0894,0.0811,0.0009,2047
3,0.2644,-0.9392,0.1633,-0.0883,0.084,-0.0013,2065
3,0.2781,-0.9412,0.1602,-0.085,0.0719,-0.006,2057
3,0.2712,-0.948,0.1541,-0.0846,0.063,-0.0039,2058
3,0.2539,-0.9636,0.1504,-0.0755,0.0707,0.0131,2056
3,0.2661,-0.9553,0.1736,-0.0619,0.0571,0.025,2054
3,0.2732,-0.9458,0.1819,-0.0573,0.0208,0.0129,2044
3,0.2617,-0.9341,0.1951,-0.0574,0.0112,-0.0032,1980
3,0.2534,-0.9434,0.1829,-0.0664,0.0427,-0.0016,2044
3,0.2395,-0.949,0.1775,-0.0695,0.082,0.0028,2063
3,0.2673,-0.9399,0.1826,-0.0579,0.0908,0.0061,2021
3,0.2837,-0.9272,0.1953,-0.0554,0.0597,0.0025,2031
3,0.2993,-0.9297,0.1938,-0.057,0.0365,-0.0068,2057
3,0.2854,-0.949,0.1873,-0.0774,0.0281,-0.0073,2091
3,0.2712,-0.9407,0.1719,-0.0794,0.0274,-0.0088,1886
3,0.2952,-0.9331,0.1692,-0.0767,0.0152,-0.0214,2100
3,0.2979,-0.9431,0.1794,-0.0875,0.0087,-0.0258,2033
3,0.2952,-0.9312,0.1616,-0.0959,0.0197,-0.0364,1996
3,0.2876,-0.9302,0.1584,-0.0996,0.0226,-0.0423,2074
3,0.2864,-0.9377,0.1548,-0.0912,0.0202,-0.0555,2035
3,0.2986,-0.9414,0.1494,-0.0995,0.0174,-0.049,2064
3,0.2927,-0.9436,0.1562,-0.0972,0.0261,-0.0443,2044
3,0.2991,-0.9368,0.1641,-0.0921,0.0341,-0.0414,2034
3,0.3081,-0.9309,0.1626,-0.0921,0.0313,-0.0447,2068
3,0.3096,-0.9329,0.1682,-0.0963,0.0216,-0.0479,2005
3,0.3198,-0.9272,0.1577,-0.1039,0.0154,-0.0573,2031
3,0.3123,-0.9329,0.1721,-0.1236,0.0036,-0.0603,2059
3,0.2935,-0.9363,0.1692,-0.1384,0.0273,-0.0489,2076
3,0.2698,-0.9602,0.1699,-0.1445,0.0727,-0.0288,2050
3,0.2649,-0.9612,0.196,-0.1253,0.0952,0.0131,2069
3,0.2798,-0.949,0.2161,-0.1113,0.0611,0.0269,2021
3,0.2825,-0.9397,0.2168,-0.1068,0.0288,0.0286,2035
3,0.2913,-0.9312,0.2224,-0.1314,0.0606,0.0289,2068
3,0.3167,-0.9326,0.2244,-0.163,0.1206,0.0373,2077
3,0.3242,-0.9321,0.1917,-0.1591,0.0807,0.0458,2023
3,0.3169,-0.9351,0.1846,-0.1541,0.0245,0.0485,2030
3,0.3218,-0.9351,0.1748,-0.1607,0.0051,0.0557,2051
3,0.3169,-0.9277,0.1487,-0.1626,-0.0201,0.0439,2043
3,0.2944,-0.9287,0.137,-0.1779,-0.0244,0.0278,2098
3,0.2776,-0.929,0.1096,-0.1732,0.0005,0.0297,2045
3,0.2896,-0.947,0.1162,-0.1715,0.0264,0.0294,2029
3,0.2891,-0.9517,0.1436,-0.1594,0.0021,0.0357,2031
3,0.2588,-0.9373,0.1611,-0.1482,0.0762,0.0285,2023
3,0.2151,-0.9189,0.1821,-0.1502,0.0924,0.0166,2045
3,0.2266,-0.9348,0.1924,-0.1401,0.1591,-0.0003,2201
3,0.2598,-0.928,0.1902,-0.1369,0.2337,-0.0141,1998
3,0.2986,-0.9282,0.208,-0.2048,0.2862,-0.0221,1994
3,0.3027,-0.9514,0.1831,-0.2052,0.3433,-0.02,2022
3,0.2393,-0.9541,0.156,-0.1887,0.2878,-0.0085,2005
3,0.2317,-0.9587,0.1738,-0.2112,0.263,0.0254,2033
3,0.2197,-0.9741,0.1521,-0.1691,0.2189,0.0162,2076
3,0.2505,-0.9482,0.1958,-0.1815,0.1493,0.0186,2054
3,0.2688,-0.9417,0.2256,-0.202,0.1854,0.0181,2001
3,0.2485,-0.9446,0.218,-0.1831,0.1675,0.0268,2071
3,0.261,-0.9587,0.2034,-0.1663,0.1991,0.038,2004
3,0.2253,-0.9478,0.2019,-0.1602,0.1522,0.0438,2113
3,0.231,-0.9485,0.1902,-0.1463,0.1029,0.0457,2045
3,0.2639,-0.9478,0.1853,-0.1433,0.1027,0.0561,2046
3,0.3037,-0.9541,0.1814,-0.1345,0.1041,0.0691,2055
3,0.2708,-0.9519,0.1797,-0.1566,0.082,0.0639,2065
3,0.2461,-0.9519,0.1592,-0.137,0.0796,0.0631,2107
3,0.228,-0.9504,0.1577,-0.129,0.059,0.07,2033
3,0.2358,-0.9473,0.1675,-0.1137,0.0618,0.0708,2068
3,0.2671,-0.9509,0.1731,-0.0963,0.0722,0.0708,2041
3,0.2485,-0.9548,0.1702,-0.0941,0.0925,0.0735,2028
4,0.2263,-0.9407,0.1614,-0.0863,0.0664,0.0727,2040
4,0.2317,-0.9392,0.1917,-0.0855,0.0526,0.0645,2022
4,0.2341,-0.9473,0.1902,-0.0932,0.0393,0.0499,2030
4,0.2507,-0.9448,0.1858,-0.1057,0.0828,0.0441,2065
4,0.2661,-0.947,0.1987,-0.1181,0.08,0.0394,2068
4,0.2441,-0.9565,0.1704,-0.1148,0.0706,0.0365,2044
4,0.2249,-0.9458,0.1794,-0.1039,0.0348,0.035,2030
4,0.2307,-0.9487,0.1885,-0.1099,0.0515,0.0326,2057
4,0.248,-0.948,0.179,-0.1079,0.0481,0.0289,2073
4,0.2695,-0.9587,0.1875,-0.1144,0.0302,0.0258,2032
4,0.2595,-0.9446,0.1643,-0.1217,0.0495,0.0264,2011
4,0.2471,-0.9502,0.1685,-0.1133,0.0273,0.0261,2070
4,0.2205,-0.939,0.1794,-0.1053,0.0268,0.0194,2031
4,0.229,-0.9451,0.1829,-0.0992,0.0463,0.0228,2012
4,0.2319,-0.9434,0.1855,-0.1037,0.0539,0.0156,2122
4,0.2544,-0.9446,0.1819,-0.1171,0.0535,0.0116,1966
4,0.2727,-0.9458,0.1794,-0.1402,0.0675,-0.0043,2044
4,0.249,-0.9524,0.1658,-0.1284,0.0591,-0.0005,2064
4,0.2297,-0.9387,0.1692,-0.1221,0.0599,0.0009,2039
4,0.2339,-0.9431,0.175,-0.1097,0.0348,-0.0048,2037
4,0.2368,-0.9438,0.1653,-0.1007,0.0348,-0.0111,2057
4,0.2551,-0.9478,0.1782,-0.1192,0.0256,-0.0146,2044
4,0.2861,-0.9526,0.1826,-0.1165,0.0518,-0.0136,2003
4,0.2612,-0.9548,0.1707,-0.1213,0.0306,-0.0146,2062
4,0.2273,-0.9473,0.1787,-0.1128,0.019,-0.0176,2035
4,0.217,-0.9395,0.1753,-0.1028,0.0206,-0.017,2063
4,0.2432,-0.9451,0.1885,-0.1096,0.0332,-0.0188,2035
4,0.2524,-0.9485,0.1807,-0.1107,0.03,-0.0265,2039
4,0.2644,-0.9468,0.1704,-0.1254,0.0278,-0.0314,2053
4,0.2483,-0.9497,0.1743,-0.1222,0.026,-0.0337,2072
4,0.2463,-0.9451,0.1775,-0.11,0.0292,-0.0329,2045
4,0.2527,-0.9456,0.1826,-0.1105,0.0137,-0.0288,2082
4,0.249,-0.9504,0.1743,-0.114,0.0222,-0.0325,2002
4,0.2434,-0.9487,0.1689,-0.1085,0.0354,-0.0282,1996
4,0.2478,-0.9485,0.1733,-0.1097,0.0178,-0.0321,2042
4,0.2595,-0.949,0.1765,-0.0965,0.037,-0.0252,2073
4,0.259,-0.9514,0.1609,-0.0993,0.0308,-0.0296,2103
4,0.2522,-0.9536,0.188,-0.1052,0.028,-0.0285,2031
4,0.2415,-0.9353,0.1851,-0.1029,0.021,-0.0353,2035
4,0.2515,-0.9438,0.208,-0.1226,0.0269,-0.047,1999
4,0.248,-0.9434,0.1716,-0.1147,0.0346,-0.0482,2020
4,0.2454,-0.9417,0.1802,-0.1164,0.0561,-0.0454,2027
4,0.2627,-0.9492,0.1843,-0.1085,0.0513,-0.0423,2064
4,0.2544,-0.9465,0.1802,-0.1075,0.0341,-0.039,2059
4,0.2551,-0.9438,0.1587,-0.1029,0.027,-0.0394,2034
4,0.2622,-0.9487,0.1646,-0.0939,0.0121,-0.0312,2042
4,0.2593,-0.949,0.176,-0.0927,-0.0115,-0.0324,2025
4,0.2578,-0.9468,0.1836,-0.0878,-0.0123,-0.0282,2011
4,0.2595,-0.9465,0.1736,-0.08,0.0015,-0.0245,2002
4,0.2549,-0.9392,0.177,-0.0762,0.0158,-0.024,1934
4,0.2607,-0.9392,0.175,-0.0766,0.0276,-0.0244,2116
4,0.2556,-0.9521,0.1782,-0.0654,0.0268,-0.0202,2116
4,0.2598,-0.9421,0.1777,-0.0591,0.0364,-0.0161,2082
4,0.2534,-0.9443,0.1921,-0.0784,-0.0096,-0.021,2011
4,0.2722,-0.9482,0.178,-0.0831,0.0127,-0.0245,2063
4,0.2661,-0.9431,0.1968,-0.1115,0.0206,-0.0294,2056
4,0.2625,-0.9514,0.1912,-0.1069,0.0334,-0.029,2114
4,0.2522,-0.9426,0.1938,-0.1035,0.0245,-0.0233,2052
4,0.248,-0.9407,0.1733,-0.0972,0.0228,-0.0246,2020
4,0.2573,-0.9436,0.1802,-0.0953,0.0399,-0.0214,2043
4,0.2729,-0.9478,0.1819,-0.0951,0.0309,-0.0222,2038
4,0.2673,-0.9468,0.1782,-0.0895,0.0197,-0.0228,2067
4,0.2642,-0.9475,0.1765,-0.0868,0.0083,-0.0145,2031
4,0.2637,-0.9478,0.1902,-0.0866,0.0132,-0.0149,2032
4,0.2544,-0.9451,0.1921,-0.0811,0.0168,-0.0103,2040
4,0.2524,-0.9441,0.2004,-0.0723,0.0115,-0.0063,2060
4,0.2688,-0.9399,0.1963,-0.0919,0.0252,-0.0189,2045
4,0.271,-0.9465,0.1831,-0.0917,0.0384,-0.0125,2021
4,0.2808,-0.9485,0.1873,-0.1051,0.0586,-0.0119,2094
4,0.252,-0.9475,0.177,-0.0967,0.0284,-0.01,2047
4,0.2466,-0.9363,0.1838,-0.098,0.0144,-0.0068,2085
4,0.2539,-0.9453,0.1853,-0.0953,0.0115,-0.0108,2047
4,0.2781,-0.9485,0.1843,-0.1151,0.0272,-0.012,1997
4,0.2654,-0.9504,0.1907,-0.1072,0.0368,-0.0149,2041
4,0.2727,-0.9446,0.187,-0.1186,0.0419,-0.0097,2042
4,0.2617,-0.9443,0.1885,-0.1145,0.034,-0.0065,2058
4,0.2571,-0.9421,0.1855,-0.1194,0.0354,-0.0061,2025
4,0.2542,-0.95,0.1924,-0.1209,0.0218,-0.0077,2032
4,0.259,-0.9404,0.1934,-0.1151,0.0253,-0.0019,2196
4,0.2593,-0.9463,0.1794,-0.1145,0.0244,-0.0104,1936
4,0.2605,-0.9409,0.1768,-0.1105,0.0142,-0.0116,1984
4,0.2578,-0.9431,0.1899,-0.1241,0.0156,-0.0194,1980
4,0.272,-0.939,0.1936,-0.116,0.029,-0.0137,2009
4,0.2659,-0.9426,0.1826,-0.1193,0.0281,-0.012,2099
4,0.2529,-0.9434,0.1816,-0.1149,0.024,-0.0138,2079
4,0.2412,-0.9451,0.1875,-0.0992,0.015,-0.0177,2011
4,0.2512,-0.9495,0.1946,-0.0976,0.0144,-0.0127,2100
4,0.2502,-0.9456,0.1963,-0.1061,0.0132,-0.0186,2083
4,0.2656,-0.9421,0.1985,-0.1091,0.0169,-0.0265,2025
4,0.2512,-0.9443,0.1885,-0.1009,0.0185,-0.02,2039
4,0.2437,-0.9436,0.1814,-0.0983,0.0201,-0.0245,2054
4,0.2512,-0.949,0.1838,-0.0957,0.0052,-0.0308,2032
4,0.248,-0.938,0.1855,-0.0912,0.0037,-0.0336,2022
4,0.2534,-0.9536,0.187,-0.092,0.0089,-0.0329,2023
4,0.2544,-0.9446,0.189,-0.087,0.0079,-0.0395,2071
4,0.2556,-0.946,0.1926,-0.0784,0.0053,-0.0344,2049
4,0.2349,-0.9438,0.1941,-0.069,0.0121,-0.0333,2068
5,0.2485,-0.9575,0.197,-0.0703,0.0182,-0.0324,2043
5,0.2585,-0.9443,0.199,-0.0655,0.0079,-0.0305,2058
5,0.2668,-0.9548,0.1992,-0.0674,0.0127,-0.028,2025
5,0.3228,-0.8677,0.168,-0.0473,0.0024,0.0015,2076
5,0.2949,-0.9341,0.2021,-0.1226,-0.0345,-0.0356,2043
5,0.3149,-0.9397,0.2129,-0.1499,-0.0382,-0.041,2051
5,0.2686,-0.9456,0.1895,-0.1417,0.0378,-0.0384,1990
5,0.2522,-0.9375,0.1777,-0.1313,0.0329,-0.027,2049
5,0.2686,-0.9463,0.1858,-0.1334,0.0537,-0.0336,2033
5,0.2642,-0.9409,0.1777,-0.1254,0.0322,-0.0269,2025
5,0.2649,-0.9329,0.1851,-0.129,0.0571,-0.0395,2038
5,0.2683,-0.9436,0.1807,-0.1348,0.0422,-0.0392,2044
5,0.2693,-0.9434,0.1907,-0.1293,0.0346,-0.0332,1999
5,0.2632,-0.9341,0.1904,-0.1238,0.0222,-0.0341,2050
5,0.2727,-0.9397,0.2129,-0.1306,0.0433,-0.0332,2050
5,0.2661,-0.9297,0.1875,-0.1173,0.0667,-0.0326,2071
5,0.2834,-0.9417,0.1887,-0.1178,0.0996,-0.0304,2022
5,0.293,-0.9475,0.188,-0.1237,0.1104,-0.0201,2049
5,0.2588,-0.9412,0.1924,-0.123,0.1056,-0.0145,2023
5,0.2451,-0.9465,0.2112,-0.116,0.0622,-0.0111,2034
5,0.2761,-0.9497,0.2012,-0.1024,0.0546,-0.0043,2013
5,0.2891,-0.9473,0.1846,-0.1072,0.041,0.0009,2044
5,0.2869,-0.9443,0.197,-0.1157,0.0394,0.0095,2029
5,0.2632,-0.9407,0.1909,-0.1151,0.0124,0.0039,2034
5,0.2576,-0.9353,0.2021,-0.1261,-0.0101,0.0037,2077
5,0.2673,-0.938,0.186,-0.1236,-0.0169,0.0048,2018
5,0.269,-0.9458,0.1885,-0.123,-0.0012,0.0065,2067
5,0.2622,-0.949,0.1838,-0.1201,-0.008,0.0067,2037
5,0.2549,-0.9434,0.1895,-0.1077,-0.0112,0.0141,2047
5,0.259,-0.9407,0.1902,-0.0992,-0.0248,0.0165,2027
5,0.249,-0.9426,0.2034,-0.1028,-0.0003,0.0221,2034
5,0.2642,-0.9453,0.1873,-0.1021,0.0127,0.0189,2047
5,0.2642,-0.9399,0.1716,-0.0933,0.02,0.0198,2041
5,0.261,-0.948,0.1819,-0.0957,0.0013,0.0173,2087
5,0.2463,-0.9482,0.1792,-0.0852,0.0113,0.025,2056
5,0.2563,-0.9417,0.1914,-0.0755,-0.0056,0.0294,2008
5,0.2769,-0.9409,0.1921,-0.0766,-0.0206,0.0322,2045
5,0.2832,-0.949,0.1863,-0.0695,-0.039,0.0357,2064
5,0.2661,-0.9485,0.177,-0.0684,-0.0349,0.0429,2005
5,0.2505,-0.9443,0.1902,-0.0651,-0.0451,0.0462,2040
5,0.2515,-0.9419,0.2002,-0.0658,-0.0675,0.0427,2042
5,0.2361,-0.9517,0.1985,-0.0752,-0.0752,0.0394,2039
5,0.2505,-0.9417,0.2041,-0.0786,-0.0887,0.0348,2073
5,0.2522,-0.9456,0.2134,-0.0932,-0.0908,0.0312,2102
5,0.2568,-0.9373,0.2029,-0.0952,-0.0704,0.0205,2022
5,0.2744,-0.9385,0.2036,-0.1041,-0.0511,0.0182,2075
5,0.2722,-0.9277,0.1816,-0.1079,-0.0209,0.0109,2033
5,0.2715,-0.9402,0.1921,-0.1163,0.0422,0.0166,2065
5,0.2598,-0.949,0.1787,-0.1075,0.0326,0.0157,2026
5,0.262,-0.9421,0.1704,-0.1003,-0.0015,0.0174,2022
5,0.2534,-0.957,0.1792,-0.1064,0.0221,0.0229,2059
5,0.2642,-0.9343,0.2131,-0.1117,0.0276,0.0216,2106
5,0.269,-0.9463,0.1819,-0.0985,0.0409,0.0127,2067
5,0.271,-0.925,0.1748,-0.1175,0.0505,0.0033,2086
5,0.2815,-0.9456,0.1887,-0.13,0.087,0.0079,2061
5,0.259,-0.9387,0.196,-0.1188,0.1161,0.0186,2014
5,0.2358,-0.9385,0.1853,-0.1024,0.0949,0.0154,2006
5,0.2244,-0.9448,0.1812,-0.1008,0.0543,0.0142,2036
5,0.2415,-0.947,0.2095,-0.0976,0.0372,0.014,2102
5,0.2678,-0.9458,0.1968,-0.0949,0.0465,0.0137,2019
5,0.2512,-0.9441,0.1958,-0.1004,0.0816,0.0084,1969
5,0.2383,-0.9429,0.1943,-0.1019,0.0626,0.0015,2004
5,0.2402,-0.9453,0.2056,-0.0951,0.0473,-0.0043,2046
5,0.2419,-0.9414,0.1978,-0.0979,0.0386,-0.0107,2074
5,0.2515,-0.9426,0.2002,-0.1003,0.0526,-0.0131,2057
5,0.2676,-0.9436,0.1902,-0.0971,0.0569,-0.0201,2031
5,0.2708,-0.9397,0.1985,-0.1141,0.0527,-0.0248,2066
5,0.2715,-0.936,0.1748,-0.1193,0.0515,-0.0297,2056
5,0.2756,-0.9434,0.2029,-0.1301,0.0529,-0.0241,2071
5,0.2695,-0.9358,0.2131,-0.1221,0.0999,-0.0173,2032
5,0.2727,-0.936,0.1941,-0.1163,0.1189,-0.0119,2018
5,0.2781,-0.9509,0.1892,-0.1242,0.1052,-0.0007,2048
5,0.2942,-0.9429,0.1975,-0.1147,0.0649,0.0105,2049
5,0.2776,-0.9412,0.1904,-0.1141,0.0637,0.0124,2069
5,0.2639,-0.9319,0.1904,-0.1185,0.0509,0.0154,2014
5,0.2637,-0.9312,0.2063,-0.1289,0.0422,0.0188,2052
5,0.2686,-0.9365,0.2051,-0.1397,0.0702,0.0286,2077
5,0.2512,-0.9399,0.1929,-0.1352,0.077,0.0281,2027
5,0.2827,-0.9404,0.2095,-0.1467,0.0591,0.0332,2049
5,0.2891,-0.9475,0.2039,-0.1579,0.1051,0.0377,2041
5,0.271,-0.9375,0.1892,-0.1517,0.0868,0.0465,2011
5,0.2612,-0.949,0.1968,-0.1613,0.0945,0.0535,2046
5,0.2524,-0.9507,0.1768,-0.1525,0.0626,0.0509,2048
5,0.2493,-0.9509,0.1951,-0.1541,0.0607,0.0553,2066
5,0.2388,-0.9504,0.1885,-0.138,0.0388,0.0631,2019
5,0.2578,-0.9426,0.2241,-0.1666,0.0603,0.0641,2032
5,0.2505,-0.9541,0.1887,-0.155,0.0384,0.049,2048
5,0.2764,-0.9539,0.1985,-0.1615,0.0198,0.0642,2032
5,0.2556,-0.9346,0.2021,-0.1726,0.0597,0.0586,2047
5,0.2351,-0.9397,0.187,-0.1591,0.0392,0.0553,2037
5,0.2275,-0.9504,0.1865,-0.1534,0.0164,0.0578,2010
5,0.2363,-0.9543,0.1882,-0.1507,0.023,0.0626,2015
5,0.2373,-0.9482,0.1777,-0.131,0.0232,0.0601,2040
5,0.2554,-0.9517,0.175,-0.1213,0.0141,0.0716,2033
5,0.2561,-0.948,0.1741,-0.1217,0.0196,0.0686,2048
5,0.2661,-0.9495,0.1926,-0.1436,0.0109,0.0645,2107
5,0.2346,-0.9382,0.1924,-0.1426,0.0056,0.0525,2032
5,0.2061,-0.9443,0.1919,-0.1305,-0.0043,0.0509,2055
5,0.2173,-0.9451,0.21,-0.1292,0.014,0.0493,1982
5,0.2068,-0.9485,0.2009,-0.1262,0.0218,0.0427,2044
5,0.2153,-0.947,0.1992,-0.1172,0.0305,0.039,2049
5,0.2373,-0.9424,0.189,-0.1111,0.0336,0.0409,2101
5,0.2632,-0.9502,0.1873,-0.1246,0.0613,0.0366,2076
5,0.2253,-0.9536,0.1858,-0.1159,0.0197,0.0312,2029
5,0.1978,-0.9441,0.1873,-0.1008,0.0168,0.0296,2017
5,0.2124,-0.9397,0.1951,-0.0925,0.0157,0.0244,2037
6,0.2275,-0.9514,0.2092,-0.0936,0.0384,0.022,2051
6,0.2539,-0.9458,0.2056,-0.1012,0.0618,0.0254,2020
6,0.2625,-0.9551,0.1907,-0.1198,0.0642,0.022,2051
6,0.2393,-0.9536,0.1816,-0.1266,0.0405,0.0184,2057
6,0.2222,-0.9502,0.1829,-0.1196,0.0256,0.0161,2069
6,0.2068,-0.949,0.2007,-0.1125,0.0064,0.0136,2054
6,0.2151,-0.9492,0.1858,-0.1194,0.0119,-0.0037,2044
6,0.2246,-0.9519,0.1963,-0.1258,-0.0212,-0.0129,2037
6,0.2275,-0.9509,0.1895,-0.1356,-0.0461,-0.0285,2026
6,0.249,-0.949,0.1897,-0.1378,0.0049,-0.0193,2050
6,0.2505,-0.9536,0.1787,-0.1346,0.0325,-0.0216,2070
6,0.228,-0.937,0.1904,-0.1289,0.025,-0.0214,2051
6,0.2219,-0.9468,0.1912,-0.1261,0.0326,-0.0262,2023
6,0.2388,-0.9441,0.1885,-0.1305,0.0245,-0.0282,2046
6,0.2537,-0.9539,0.1904,-0.1441,0.0521,-0.0293,2056
6,0.2488,-0.9534,0.1653,-0.1301,0.0403,-0.0281,2030
6,0.2458,-0.9458,0.1851,-0.1381,0.0233,-0.0262,2050
6,0.2285,-0.9424,0.1863,-0.1314,0.015,-0.0285,2057
6,0.2183,-0.9456,0.1919,-0.1133,0.0068,-0.0365,2052
6,0.2251,-0.9478,0.1953,-0.1212,0.0244,-0.0382,1990
6,0.2332,-0.9465,0.2019,-0.1277,0.0305,-0.0417,2011
6,0.2488,-0.9497,0.1853,-0.1345,0.0566,-0.0465,2053
6,0.2505,-0.9519,0.1865,-0.1417,0.063,-0.0505,2039
6,0.2412,-0.9412,0.1814,-0.14,0.0384,-0.053,2032
6,0.2439,-0.9475,0.1882,-0.132,0.0233,-0.049,2052
6,0.2329,-0.9465,0.1853,-0.1265,0.029,-0.0474,2028
6,0.228,-0.9519,0.1909,-0.1208,0.0306,-0.0482,2064
6,0.2461,-0.9468,0.1775,-0.1095,0.0361,-0.0429,2035
6,0.2529,-0.9497,0.1892,-0.1037,0.0289,-0.0402,2053
6,0.2505,-0.9553,0.1985,-0.1037,0.022,-0.0365,2035
6,0.2703,-0.947,0.187,-0.106,0.0369,-0.0286,2068
6,0.2627,-0.937,0.2031,-0.126,0.0358,-0.0309,2082
6,0.2627,-0.9504,0.1975,-0.1257,0.0358,-0.0266,2044
6,0.2285,-0.9412,0.1848,-0.1182,0.0469,-0.029,2005
6,0.2207,-0.9478,0.1816,-0.1103,0.0344,-0.0285,2045
6,0.2441,-0.947,0.1814,-0.1072,0.0308,-0.0329,2025
6,0.2417,-0.947,0.2029,-0.1079,0.0189,-0.0321,2064
6,0.2505,-0.9482,0.1848,-0.1137,0.0222,-0.0282,2033
6,0.2349,-0.9465,0.186,-0.1013,0.0168,-0.0308,2080
6,0.2451,-0.9458,0.1763,-0.104,0.0278,-0.0285,2037
6,0.2627,-0.9475,0.1943,-0.1041,0.0166,-0.024,2054
6,0.2542,-0.9404,0.1931,-0.1131,0.0478,-0.0244,2031
6,0.2461,-0.9441,0.1833,-0.1071,0.0531,-0.0157,2078
6,0.2559,-0.9485,0.1719,-0.1059,0.0471,-0.0193,2063
6,0.2539,-0.9478,0.1873,-0.1032,0.027,-0.014,2033
6,0.2527,-0.9504,0.1829,-0.0997,0.0358,-0.0092,2002
6,0.2554,-0.9424,0.1902,-0.1039,0.0174,-0.0105,2052
6,0.252,-0.9443,0.2026,-0.0987,0.0253,-0.0029,2048
6,0.2468,-0.9412,0.1877,-0.1013,0.0177,-0.0045,2051
6,0.2488,-0.9539,0.1785,-0.1037,0.0169,-0.0003,2069
6,0.2515,-0.9451,0.1904,-0.0979,0.0149,0.0005,2007
6,0.2358,-0.9519,0.187,-0.1053,0.004,-0.0005,2040
6,0.2415,-0.948,0.1965,-0.1016,-0.0061,-0.0009,2042
6,0.2432,-0.9504,0.1914,-0.1103,0.0001,-0.0021,2019
6,0.2478,-0.9446,0.1956,-0.1089,0.0065,-0.0036,2023
6,0.2483,-0.9526,0.1956,-0.1159,0.0245,-0.0021,2047
6,0.2319,-0.9546,0.1841,-0.1125,0.0237,-0.0043,2069
6,0.2375,-0.9509,0.1997,-0.1152,0.028,-0.0065,2023
6,0.2405,-0.9473,0.1877,-0.1144,0.0265,-0.016,2051
6,0.2615,-0.9478,0.1904,-0.1163,0.0205,-0.0138,2032
6,0.2485,-0.9446,0.1838,-0.112,0.0357,-0.0104,2057
6,0.2375,-0.9468,0.188,-0.114,0.02,-0.0095,2065
6,0.2456,-0.9421,0.1943,-0.1125,0.0197,-0.0112,2037
6,0.261,-0.9497,0.1958,-0.1141,0.0081,-0.0181,2063
6,0.2366,-0.9451,0.1978,-0.1169,0.0123,-0.0202,2036
6,0.2334,-0.9495,0.1973,-0.1149,0.0256,-0.0188,1997
6,0.2388,-0.9453,0.1963,-0.1149,0.0178,-0.0177,2032
6,0.2461,-0.9431,0.1902,-0.1085,0.0188,-0.0218,2013
6,0.25,-0.9465,0.1873,-0.1317,0.0288,-0.0329,2034
6,0.2437,-0.9485,0.1919,-0.1173,0.0249,-0.0297,2052
6,0.2385,-0.9407,0.1968,-0.1164,0.0206,-0.0289,2052
6,0.2534,-0.9541,0.1853,-0.1147,0.0288,-0.0209,2058
6,0.2607,-0.9463,0.1892,-0.1111,0.032,-0.0252,2063
6,0.2422,-0.947,0.1992,-0.1061,0.0045,-0.0258,1993
6,0.24,-0.9543,0.1868,-0.1049,0.0079,-0.0198,2043
6,0.2502,-0.9412,0.1765,-0.1056,0.0232,-0.0185,2025
6,0.2522,-0.9426,0.1912,-0.1109,0.0218,-0.0245,2084
6,0.2456,-0.9487,0.1985,-0.1212,0.032,-0.0301,2042
6,0.2346,-0.9468,0.1873,-0.1141,0.0242,-0.0304,2107
6,0.2463,-0.9478,0.1721,-0.1032,0.0252,-0.032,2148
6,0.2529,-0.946,0.1833,-0.1081,0.0099,-0.0348,2028
6,0.2534,-0.9458,0.1897,-0.1015,0.0144,-0.0345,2157
6,0.2493,-0.9392,0.2002,-0.11,0.0254,-0.0366,2042
6,0.238,-0.9458,0.2002,-0.1096,0.029,-0.0365,1982
6,0.2468,-0.9441,0.1924,-0.108,0.0241,-0.0354,2018
6,0.2686,-0.9421,0.2034,-0.1196,0.0499,-0.0399,2065
6,0.2681,-0.9473,0.1533,-0.1601,0.0489,-0.0256,2029
6,0.2427,-0.9458,0.1921,-0.1092,0.0093,-0.0453,2006
6,0.2468,-0.9399,0.2021,-0.1159,0.0257,-0.0357,2049
6,0.2031,-0.9656,0.196,-0.1121,0.0342,-0.0607,2053
6,0.179,-1.0583,0.2336,-0.1341,0.0344,-0.0533,2076
6,0.2654,-0.9685,0.2034,-0.1384,0.0298,-0.0562,2067
6,0.2522,-0.9443,0.1997,-0.1408,-0.0013,-0.0599,2012
6,0.2439,-0.9314,0.1838,-0.126,0.0352,-0.0562,2052
6,0.2466,-0.9436,0.1978,-0.1373,0.0638,-0.0615,1988
6,0.2444,-0.9451,0.2034,-0.1282,0.0542,-0.061,2050
6,0.2163,-1.1064,0.2686,-0.191,0.074,-0.0743,2045
6,0.2825,-0.9548,0.1968,-0.1337,0.1436,-0.057,2041
6,0.2864,-0.9458,0.2083,-0.1483,0.13,-0.057,2068
6,0.2495,-0.9429,0.2021,-0.134,0.1165,-0.0473,2066
6,0.22,-0.9451,0.1956,-0.1352,0.0534,-0.0401,2054
6,0.2444,-0.9453,0.1765,-0.1234,0.0198,-0.0382,2035
6,0.2854,-0.9497,0.1479,-0.1198,-0.0257,-0.0434,2065
7,0.3044,-0.9451,0.1799,-0.1554,-0.0506,-0.0466,2056
7,0.2402,-0.9819,0.2197,-0.1029,-0.0244,-0.0455,1962
7,0.2678,-0.9717,0.1689,-0.1213,0.0041,-0.0205,2092
7,0.2397,-0.9236,0.2117,-0.1384,-0.0277,-0.0382,2034
7,0.2349,-0.9314,0.2,-0.1095,0.0134,-0.0358,2045
7,0.2424,-0.9358,0.1934,-0.1135,0.0587,-0.0378,2030
7,0.2717,-0.9509,0.1816,-0.1061,0.0337,-0.0336,2030
7,0.2852,-0.9534,0.1658,-0.1031,0.015,-0.0337,2070
7,0.2803,-0.9524,0.1694,-0.1011,0.0161,-0.0252,2061
7,0.2605,-0.9431,0.1743,-0.1009,0.0446,-0.0214,2044
7,0.2585,-0.947,0.1875,-0.0967,0.0172,-0.0268,2032
7,0.2656,-0.9341,0.1924,-0.0952,0.018,-0.0174,2070
7,0.1853,-0.9568,0.261,-0.0085,-0.0133,-0.035,1952
7,0.2944,-0.9937,0.1824,-0.0842,0.0434,-0.0084,2114
7,0.2725,-0.9404,0.2078,-0.1177,-0.0478,-0.0246,2038
7,0.2451,-0.927,0.2056,-0.0977,-0.031,-0.0174,2046
7,0.2463,-0.9421,0.2034,-0.1005,0.0121,-0.0242,2028
7,0.262,-0.9436,0.2,-0.0984,-0.0057,-0.02,1993
7,0.2649,-0.9504,0.1995,-0.1024,-0.0087,-0.0256,2059
7,0.2727,-0.936,0.1926,-0.1059,0.0019,-0.018,2069
7,0.2585,-0.9399,0.1851,-0.1004,0.0121,-0.0198,2032
7,0.2625,-0.9424,0.1833,-0.1079,-0.0023,-0.0205,2042
7,0.2612,-0.9426,0.1926,-0.1083,-0.0055,-0.0193,2061
7,0.2544,-0.9436,0.2021,-0.1129,-0.0071,-0.0237,2038
7,0.2512,-0.9429,0.196,-0.106,0.0013,-0.0238,2049
7,0.2434,-0.9468,0.1863,-0.0975,0.0107,-0.026,2059
7,0.2534,-0.9419,0.1968,-0.0964,0.0152,-0.0229,2031
7,0.269,-0.9421,0.1965,-0.1009,0.0148,-0.0285,2024
7,0.2678,-0.9409,0.2024,-0.1043,0.0131,-0.0286,2045
7,0.2646,-0.9436,0.1995,-0.0984,0.0132,-0.0258,2053
7,0.2646,-0.9426,0.1853,-0.106,0.02,-0.03,2058
7,0.27,-0.9373,0.2043,-0.1013,0.024,-0.0198,2008
7,0.2104,-0.9724,0.2866,0.0831,-0.0221,-0.0277,1964
7,0.3162,-1.0144,0.2122,-0.1067,0.0579,-0.0103,2105
7,0.2588,-0.9348,0.1936,-0.129,-0.0365,-0.0268,2031
7,0.2529,-0.9292,0.2058,-0.1148,-0.0109,-0.0217,2023
7,0.2551,-0.9385,0.1958,-0.1139,0.0294,-0.0261,2078
7,0.2744,-0.9438,0.1946,-0.1132,0.0256,-0.0254,2072
7,0.2695,-0.9412,0.1924,-0.1156,0.0093,-0.0233,2021
7,0.2744,-0.9397,0.1921,-0.1193,0.0233,-0.0221,2014
7,0.26,-0.9407,0.189,-0.1298,0.0205,-0.0324,2057
7,0.2639,-0.9458,0.1965,-0.1262,0.0057,-0.0249,2076
7,0.2737,-0.936,0.1963,-0.1265,0.0033,-0.0186,2032
7,0.2769,-0.9451,0.2,-0.13,0.0196,-0.0116,2022
7,0.2585,-0.9377,0.2031,-0.1161,0.035,-0.0012,2052
7,0.2661,-0.9373,0.1951,-0.1123,0.0144,-0.0081,2004
7,0.2888,-0.9397,0.189,-0.1304,0.0216,-0.0052,2049
7,0.291,-0.938,0.1875,-0.1302,0.0294,0.0025,2077
7,0.2842,-0.9409,0.1875,-0.1439,0.0228,0.0012,2050
7,0.2742,-0.9333,0.1733,-0.1377,0.0125,0.0061,2052
7,0.2839,-0.9385,0.189,-0.1446,0.0055,0.0005,2042
7,0.2664,-0.9412,0.1843,-0.1389,0.0186,0.0015,2016
7,0.2571,-0.9436,0.1875,-0.1344,0.0149,0.0061,2039
7,0.2573,-0.9397,0.1907,-0.1282,0.0019,0.0057,2045
7,0.2668,-0.936,0.2009,-0.1356,-0.0041,0.0028,2051
7,0.2698,-0.9417,0.2104,-0.1509,0.0172,0.0068,2034
7,0.2783,-0.9395,0.2217,-0.1764,0.025,-0.0039,2021
7,0.271,-0.9412,0.1973,-0.1677,0.0284,-0.0053,2029
7,0.2534,-0.9426,0.1863,-0.1663,0.0229,-0.0036,2048
7,0.2708,-0.9468,0.1853,-0.159,0.0067,0.0008,2084
7,0.2632,-0.9414,0.1802,-0.1555,0.0403,-0.0023,2016
7,0.2456,-0.947,0.1743,-0.1348,0.0368,0.0072,2061
7,0.2671,-0.9397,0.1941,-0.1272,0.0185,0.0104,2027
7,0.2908,-0.9392,0.1821,-0.1289,0.0246,0.0057,2043
7,0.2764,-0.9458,0.187,-0.1292,0.0249,0.0137,2058
7,0.2612,-0.9402,0.1851,-0.1298,0.0276,0.0189,2103
7,0.2625,-0.9409,0.1899,-0.1281,0.0217,0.0194,2023
7,0.2581,-0.9529,0.186,-0.1353,0.0218,0.02,2037
7,0.2661,-0.9404,0.2021,-0.1437,0.0362,0.0176,2032
7,0.272,-0.9414,0.1853,-0.1416,0.0316,0.0115,2037
7,0.2742,-0.9353,0.1875,-0.1534,0.0213,0.0115,2042
7,0.271,-0.9404,0.1841,-0.1569,0.015,0.0127,2043
7,0.2747,-0.9475,0.1807,-0.1561,0.0388,0.0176,2057
7,0.2522,-0.9424,0.1726,-0.1514,0.024,0.0157,2012
7,0.259,-0.9463,0.1716,-0.1436,0.0305,0.0112,2038
7,0.2563,-0.9421,0.1809,-0.1404,0.0232,0.0059,2031
7,0.2539,-0.948,0.1777,-0.1306,0.0164,0.0134,2059
7,0.2588,-0.9431,0.1973,-0.1409,0.0214,0.01,2040
7,0.2786,-0.9463,0.1868,-0.1357,-0.0003,0.0056,2024
7,0.2578,-0.9529,0.1765,-0.1341,0.0222,0.0032,2056
7,0.2268,-0.9431,0.1917,-0.1175,0.0208,0.0068,2023
7,0.2336,-0.9368,0.1895,-0.1147,0.0364,0.0025,2023
7,0.2637,-0.9431,0.2073,-0.1384,0.0079,-0.0016,2041
7,0.2759,-0.9475,0.1772,-0.1433,0.0607,-0.0037,2019
7,0.2634,-0.9482,0.179,-0.142,0.0426,-0.0035,2018
7,0.2659,-0.9463,0.1746,-0.1341,0.0429,-0.0023,2069
7,0.2505,-0.9358,0.1677,-0.1248,0.0174,-0.0013,2062
7,0.2607,-0.9387,0.1775,-0.121,0.0233,0.0003,2045
7,0.2598,-0.9392,0.1787,-0.1218,0.0312,-0.0051,2041
7,0.2639,-0.9441,0.1799,-0.1175,0.0232,-0.0015,2009
7,0.2629,-0.9504,0.1794,-0.1072,0.0145,0.004,2067
7,0.2607,-0.9482,0.1917,-0.1113,0.0142,0.0083,2037
7,0.26,-0.9392,0.187,-0.1157,0.0161,-0.0001,2021
7,0.2681,-0.9446,0.1887,-0.1309,0.0001,-0.0068,2055
7,0.2527,-0.9453,0.1772,-0.1131,0.0119,-0.0028,2045
7,0.2463,-0.9365,0.1741,-0.106,0.0121,0.0045,2073
7,0.2534,-0.9475,0.1729,-0.0937,0.0004,-0.0005,2030
7,0.2617,-0.9497,0.1648,-0.0984,0.0124,0.0063,2052
7,0.2661,-0.9438,0.1638,-0.0844,0.0105,0.0068,2062
7,0.2847,-0.9504,0.1724,-0.0879,0.0154,0.0083,2034
7,0.2666,-0.9497,0.1738,-0.0894,0.0152,0.0124,2071
7,0.2537,-0.9443,0.176,-0.0762,0.0032,0.0064,2064
7,0.2666,-0.9526,0.1936,-0.1127,-0.0004,-0.0096,2045
7,0.2375,-0.9414,0.1841,-0.1039,0.0201,-0.006,2031
7,0.2305,-0.9414,0.1853,-0.0925,0.025,-0.0051,2043
8,0.2612,-0.9441,0.1887,-0.0944,0.0288,-0.0063,2043
8,0.2681,-0.9368,0.1833,-0.088,0.0266,-0.0073,2038
8,0.2556,-0.9475,0.1807,-0.0863,0.0256,-0.0068,2046
8,0.2708,-0.9458,0.1875,-0.0943,0.0252,-0.002,2041
8,0.2844,-0.9397,0.1936,-0.0969,0.0,-0.0017,2065
8,0.2769,-0.9429,0.1863,-0.1029,0.0047,-0.0011,2056
8,0.2437,-0.9377,0.1875,-0.0984,0.0081,-0.0005,2039
8,0.2383,-0.9441,0.1946,-0.0959,0.0013,-0.0083,2052
8,0.2493,-0.9387,0.1936,-0.0911,-0.002,-0.0085,2050
8,0.26,-0.9412,0.1912,-0.091,0.0015,-0.0103,2004
8,0.2766,-0.9458,0.1755,-0.0927,-0.0088,-0.008,2044
8,0.2593,-0.9514,0.1836,-0.0919,-0.0169,-0.0075,2083
8,0.248,-0.9448,0.1912,-0.0903,-0.0172,-0.0059,2046
8,0.2478,-0.9387,0.1768,-0.0891,0.0005,-0.0044,2054
8,0.2764,-0.9429,0.1904,-0.11,0.0127,-0.0099,2029
8,0.2698,-0.9387,0.1926,-0.1117,0.0321,-0.0101,1991
8,0.2693,-0.9441,0.1797,-0.104,0.0328,-0.0101,2044
8,0.2588,-0.9426,0.1794,-0.1025,0.0309,-0.0037,2048
8,0.2625,-0.9355,0.1997,-0.0979,0.0296,-0.0065,2035
8,0.2573,-0.9377,0.1968,-0.0944,0.0257,-0.0101,2028
8,0.2471,-0.9438,0.1848,-0.0919,0.0328,-0.0075,2044
8,0.2617,-0.9468,0.1902,-0.0914,0.0389,-0.0109,2041
8,0.2617,-0.9465,0.1965,-0.0955,0.0398,0.0,2028
8,0.2656,-0.9421,0.198,-0.0911,0.0329,-0.0017,2035
8,0.2617,-0.9453,0.1853,-0.0975,0.0372,-0.0039,2056
8,0.2563,-0.9451,0.1843,-0.0923,0.0304,-0.0028,2041
8,0.2585,-0.9424,0.1914,-0.083,0.0253,0.0048,2049
8,0.2617,-0.9475,0.1978,-0.0858,0.0213,0.0104,2060
8,0.2639,-0.9431,0.196,-0.0791,0.0419,0.0108,2009
8,0.2456,-0.9478,0.1953,-0.0712,0.0515,0.0197,2071
8,0.2549,-0.946,0.2068,-0.0599,0.0214,0.0238,2031
8,0.2578,-0.9456,0.1985,-0.0687,-0.0157,0.0212,2031
8,0.2485,-0.9607,0.1963,-0.0724,-0.0429,0.0198,2064
8,0.2397,-0.948,0.1973,-0.07,-0.0782,0.0205,2003
8,0.251,-0.9485,0.2068,-0.0791,-0.1068,0.0196,2024
8,0.2615,-0.9434,0.1924,-0.0872,-0.134,0.0149,2102
8,0.2517,-0.9478,0.1968,-0.0991,-0.1409,0.0065,2045
8,0.2649,-0.9495,0.1997,-0.1085,-0.138,0.0083,2021
8,0.2585,-0.9282,0.1882,-0.1064,-0.1341,0.0043,2013
8,0.2637,-0.9431,0.2051,-0.12,-0.125,0.0016,2008
8,0.2549,-0.9397,0.186,-0.1181,-0.0961,-0.0001,2059
8,0.2615,-0.9331,0.1975,-0.1099,-0.1068,-0.0028,2032
8,0.262,-0.9424,0.1824,-0.1216,-0.0902,-0.0097,2058
8,0.2661,-0.9375,0.1895,-0.1192,-0.0778,-0.0109,2069
8,0.2676,-0.9316,0.1851,-0.1182,-0.0692,-0.0128,2047
8,0.2739,-0.9414,0.186,-0.1317,-0.0515,-0.0138,2043
8,0.2825,-0.9355,0.1863,-0.128,-0.0597,-0.0133,2025
8,0.2856,-0.938,0.1882,-0.1249,-0.0541,-0.0085,2063
8,0.272,-0.9358,0.1838,-0.1257,-0.027,-0.0057,2075
8,0.2683,-0.9424,0.187,-0.1269,-0.0184,-0.0005,2015
8,0.2727,-0.9382,0.1785,-0.125,0.0095,-0.0001,2041
8,0.2925,-0.9353,0.1895,-0.1328,0.0559,0.0055,2057
8,0.2959,-0.9436,0.1838,-0.1529,0.0868,0.0099,2022
8,0.2749,-0.9426,0.1775,-0.1356,0.0931,0.0209,2059
8,0.261,-0.9463,0.175,-0.1317,0.0712,0.0218,2025
8,0.2654,-0.9509,0.1865,-0.1447,0.0499,0.0174,2045
8,0.2534,-0.9438,0.1858,-0.1412,0.0482,0.0178,1995
8,0.2559,-0.9377,0.1958,-0.1416,0.0779,0.0226,2021
8,0.2583,-0.9458,0.1875,-0.1509,0.088,0.0148,2119
8,0.2644,-0.9441,0.1968,-0.1499,0.0684,0.0141,2027
8,0.2659,-0.9399,0.1826,-0.1428,0.0796,0.0201,2063
8,0.2568,-0.9431,0.1814,-0.1485,0.0743,0.0229,2041
8,0.2517,-0.9453,0.1733,-0.1442,0.0457,0.0249,2016
8,0.2661,-0.9475,0.1858,-0.1374,0.018,0.026,2069
8,0.2583,-0.9419,0.1963,-0.1473,0.0204,0.0238,2011
8,0.2612,-0.9441,0.197,-0.145,0.0138,0.0272,2042
8,0.2507,-0.9451,0.1953,-0.1445,0.0302,0.0272,2053
8,0.2539,-0.9458,0.1938,-0.1494,0.0342,0.0292,2051
8,0.2578,-0.9407,0.1887,-0.1489,0.0591,0.0286,2046
8,0.2502,-0.9497,0.1746,-0.1479,0.0626,0.023,2047
8,0.2507,-0.9497,0.1675,-0.1433,0.0518,0.0282,2043
8,0.2603,-0.9431,0.1794,-0.1398,0.0393,0.0326,2037
8,0.2551,-0.947,0.168,-0.143,0.0245,0.0282,2053
8,0.2554,-0.9478,0.1824,-0.141,0.0193,0.0272,2059
8,0.2422,-0.9502,0.188,-0.1373,0.0177,0.0352,2044
8,0.2495,-0.9485,0.1895,-0.1368,0.0302,0.0236,2024
8,0.2451,-0.947,0.1917,-0.139,0.0438,0.0278,2012
8,0.249,-0.9429,0.1802,-0.1426,0.071,0.0272,2032
8,0.2554,-0.9475,0.1768,-0.138,0.0752,0.028,2048
8,0.2615,-0.9446,0.1782,-0.1333,0.0682,0.0322,2049
8,0.2747,-0.9446,0.1753,-0.1297,0.0611,0.0361,2010
8,0.2822,-0.9443,0.1665,-0.1334,0.0461,0.0446,2032
8,0.281,-0.9458,0.1716,-0.1332,0.0438,0.0557,2074
8,0.2881,-0.9536,0.1736,-0.1301,0.0357,0.0662,2060
8,0.2693,-0.9509,0.1667,-0.1326,0.0261,0.0802,2047
8,0.2612,-0.948,0.1689,-0.1298,0.0234,0.086,2036
8,0.2478,-0.9517,0.1824,-0.1317,0.0142,0.0899,2054
8,0.2571,-0.9485,0.1877,-0.1405,0.0016,0.0927,2041
8,0.25,-0.9561,0.1782,-0.141,0.0137,0.0936,2048
8,0.2461,-0.95,0.1692,-0.126,0.0394,0.0937,2014
8,0.2351,-1.0073,0.1643,-0.1457,0.0808,0.0802,2056
8,0.2695,-0.925,0.135,-0.1116,0.0696,0.104,2031
8,0.2334,-0.9182,0.1462,-0.1234,0.0397,0.0715,2070
8,0.1973,-0.9497,0.1736,-0.1065,0.063,0.055,2056
8,0.1763,-0.9546,0.2144,-0.1269,0.0364,0.0293,1994
8,0.1941,-0.9541,0.2329,-0.1262,0.0009,0.0258,2021
8,0.2188,-0.9534,0.2451,-0.1254,0.0177,0.0274,2046
8,0.2776,-0.9402,0.23,-0.137,0.0708,0.0427,2077
8,0.3167,-0.9414,0.2249,-0.1523,0.0931,0.0684,2073
8,0.334,-0.9519,0.1982,-0.1734,0.1003,0.0859,2114
8,0.3293,-0.9626,0.1711,-0.179,0.1012,0.1197,2000
8,0.3203,-0.9717,0.1599,-0.1856,0.055,0.1659,2044
