Timestamp,Ax,Ay,Az,Rx,Ry,Rz,EMG
0,1.3489,-0.6609,0.2893,-1.0443,-1.6652,-3.0098,2110
0,1.0154,-0.3662,0.2563,-0.7918,-2.712,-2.7577,1987
0,0.3286,0.0112,-0.0066,-0.3465,-2.7409,-2.5591,2065
0,0.6814,-0.3574,0.3877,-0.4854,-1.7407,-1.9935,2106
0,-0.4829,0.0405,0.3152,-0.793,-0.5584,-1.1412,1843
0,-0.9243,0.2261,-0.1812,-0.7778,0.3971,-0.4638,2058
0,-0.6848,0.2297,-0.0356,0.4155,0.4887,0.1938,2049
0,-0.9172,0.1221,0.5925,1.3548,0.6367,0.7035,2025
0,-1.2026,-0.6321,1.3848,1.2402,0.0963,1.7725,2063
0,-0.6621,-1.6331,1.4001,0.7725,-0.5625,2.4665,2069
0,-0.2136,-1.9543,0.666,-0.518,-0.0747,2.0415,2063
0,0.1665,-1.5183,0.4548,-0.4159,1.0898,1.2497,2029
0,-0.4927,-0.8801,0.6255,0.2011,1.1003,1.1612,2034
0,-0.4993,-0.843,0.4072,0.3926,0.713,1.1583,2072
0,-0.1179,-1.0889,0.4292,0.2673,0.6245,1.0152,2134
0,-0.0452,-1.0029,0.4534,-0.0451,0.9112,0.9163,1898
0,-0.5181,-0.9829,0.6187,-0.2505,0.6907,0.7709,2110
0,-0.7727,-1.0447,0.5591,-0.1613,0.4797,0.6524,2012
0,-0.5369,-1.0186,0.6208,-0.1645,0.495,0.5047,1954
0,-0.3518,-1.0549,0.5361,-0.196,0.4805,0.3541,2076
0,-0.2471,-1.1238,0.5454,-0.2642,0.3781,0.2591,1926
0,-0.3374,-1.0059,0.5813,-0.2364,0.2302,0.1316,2251
0,-0.3811,-1.0413,0.606,-0.1985,0.1076,-0.0097,2221
0,-0.2856,-0.9907,0.562,-0.1502,0.1009,-0.1651,2186
0,-0.1396,-1.0173,0.6001,-0.1497,0.1542,-0.3044,2102
0,-0.0999,-1.0916,0.4719,-0.2188,0.0329,-0.3207,2211
0,-0.1206,-1.0488,0.4072,-0.171,-0.0706,-0.361,2201
0,-0.1865,-1.0986,0.385,-0.0804,-0.1021,-0.4409,1874
0,-0.1924,-1.0774,0.3926,-0.0551,-0.0502,-0.5177,1936
0,-0.1863,-1.0464,0.3823,-0.0418,0.0117,-0.573,2003
0,-0.2283,-1.0342,0.3521,-0.1115,0.0238,-0.6114,2051
0,-0.0957,-0.9912,0.3513,-0.1836,-0.0541,-0.5513,2030
0,0.1279,-0.9016,0.2986,-0.2357,-0.0324,-0.5642,2096
0,0.2859,-0.7776,0.2368,-0.1834,0.0051,-0.5964,1610
0,0.2703,-0.7998,0.2031,-0.186,-0.0356,-0.6299,2233
0,0.1265,-0.9023,0.2915,-0.2176,-0.1615,-0.5946,1940
0,0.0039,-0.9255,0.2852,-0.2245,-0.3988,-0.5747,2136
0,-0.1394,-0.9521,0.3606,-0.2482,-0.4573,-0.6268,2113
0,-0.0005,-0.8831,0.4126,-0.3814,-0.3934,-0.5976,2027
0,0.2559,-0.697,0.4006,-0.4761,-0.1874,-0.6139,2051
0,0.5918,-0.7085,0.4592,-0.4978,0.0249,-0.6119,2035
0,0.5569,-0.6726,0.3154,-0.4627,0.0039,-0.5538,1811
0,0.489,-0.7256,0.1355,-0.4043,-0.0575,-0.4381,2006
0,0.3323,-0.8281,0.043,-0.4036,0.0671,-0.381,2178
0,0.2058,-0.9365,0.0581,-0.2737,0.1687,-0.3216,1865
0,0.2019,-1.0115,0.094,-0.1932,0.2875,-0.2726,2043
0,0.2595,-0.9961,0.0828,-0.0498,0.3025,-0.1759,2032
0,0.4788,-0.9622,0.0898,0.0727,0.3305,-0.0834,2046
0,0.405,-0.8657,0.0728,0.2019,0.2867,0.0237,2122
0,0.4292,-0.7893,0.0579,0.3362,0.2332,0.1151,2067
0,0.3894,-0.7671,0.0444,0.42,0.2364,0.2005,2058
0,0.5178,-0.8,-0.0515,0.55,0.142,0.3314,2134
0,0.5625,-0.7991,-0.0547,0.7076,0.1369,0.448,2063
0,0.5264,-0.7725,-0.0762,0.8733,0.1301,0.606,2051
0,0.5503,-0.74,-0.0908,1.0011,0.1578,0.7456,1950
0,0.4954,-0.8118,0.0728,1.1115,0.2798,0.9013,2058
0,0.3979,-0.7961,0.335,1.1334,0.3083,0.9785,2053
0,0.311,-0.907,0.6106,1.201,0.2926,1.0781,2086
0,0.2021,-0.8296,0.7832,1.39,0.288,1.0188,2106
0,0.116,-1.0276,0.8486,1.5119,0.2814,1.0577,2075
0,-0.136,-0.9861,0.8281,1.7206,0.2966,1.1066,2052
0,-0.064,-1.0261,0.7231,1.978,0.4914,1.0084,2078
0,-0.1606,-1.0205,0.7053,2.1818,0.6429,0.9473,2200
0,-0.2275,-1.1265,0.6562,2.1566,0.6809,0.826,2049
0,-0.2896,-1.3352,0.6143,1.9789,0.6879,0.6493,1962
0,-0.2483,-1.5327,0.6104,1.338,0.4561,0.4618,2023
0,-0.2312,-1.5769,0.4021,0.3165,0.1446,-0.304,1995
0,-0.5713,-1.5164,0.4207,-0.3807,0.2714,-0.7075,2016
0,-0.6721,-1.5332,0.3149,-1.0618,0.5003,-1.1717,2061
0,0.3447,-1.5693,0.2585,-2.071,0.8652,-1.8789,2062
0,1.2686,-1.4124,0.2239,-2.8947,0.9841,-2.659,2065
0,1.1665,-1.2234,-0.0198,-3.4893,0.2779,-2.5036,2079
0,1.1895,-1.5879,0.2161,-3.1946,-1.6574,-1.6194,2077
0,-0.3687,-0.1362,0.1914,-3.2106,-2.8958,-1.6165,2055
0,1.0708,1.9999,1.3359,-1.3382,-4.3635,0.4172,1994
0,-2.0,0.8713,1.9999,0.8516,0.1137,0.3139,2036
0,-1.6423,-0.698,-0.7976,-1.6894,-3.9092,2.4907,2025
0,1.9999,-1.2842,-0.2173,-1.9855,-4.3635,0.9664,2076
0,1.9999,-0.5774,-0.666,-1.6652,-2.991,1.1324,2105
0,0.0134,-0.5481,0.2512,-0.8998,2.2217,0.2506,1954
0,-1.1548,-0.4082,0.6133,-0.3932,2.1509,0.2934,2027
0,0.2153,-0.2029,0.144,-0.4839,2.3521,0.4412,2032
0,0.1384,-1.4622,0.4014,-0.5015,1.4354,0.1111,2054
0,0.0388,-1.3606,0.5881,-0.8151,0.5887,0.4272,2074
0,-0.0752,-1.5552,0.5906,-0.7472,0.9204,0.8577,2034
0,-0.3779,-1.2,0.1887,-0.4068,0.1208,0.7108,2062
0,-0.1299,-1.0537,0.2903,-0.1569,-0.3832,0.4203,2050
0,-0.2717,-0.9685,0.3228,-0.0912,-0.342,0.2193,2031
0,-0.0554,-0.7939,0.2849,0.024,-0.2843,0.1807,2060
0,0.0605,-0.8616,0.3474,-0.0715,-0.2197,0.2036,2057
0,0.0166,-0.9756,0.2803,-0.1671,-0.3088,0.1384,2053
0,0.0688,-0.9753,0.2722,-0.1954,-0.3931,0.0782,2059
0,0.1313,-0.9434,0.2832,-0.1634,-0.2187,0.1175,2054
0,0.1655,-0.9673,0.2185,-0.1479,-0.0522,0.165,2054
0,0.1699,-0.9766,0.1277,-0.1178,-0.0148,0.2025,2054
0,0.1602,-0.9995,0.2021,-0.1175,-0.0593,0.2465,2051
0,0.0542,-0.9993,0.2012,-0.1249,-0.1095,0.2437,2052
0,-0.0193,-0.9756,0.1956,-0.0326,-0.2635,0.2052,2055
1,-0.0032,-0.988,0.2842,0.0145,-0.3518,0.1659,2052
1,-0.0652,-0.9805,0.3699,0.0205,-0.3396,0.1056,2054
1,-0.0757,-1.0198,0.4436,-0.0174,-0.2402,-0.0105,2057
1,-0.1045,-1.0273,0.4888,-0.1064,-0.0826,-0.1591,2055
1,-0.1497,-1.031,0.4749,-0.1995,0.068,-0.3263,2061
1,-0.0828,-1.0378,0.3796,-0.242,0.0956,-0.4576,2055
1,-0.0117,-0.9807,0.2966,-0.2609,0.0633,-0.5011,2050
1,-0.0225,-0.9617,0.2129,-0.2043,0.0008,-0.5004,2048
1,0.0691,-0.9712,0.061,-0.0928,-0.1589,-0.4747,2048
1,0.22,-0.9919,0.0068,0.0001,-0.2409,-0.4474,2050
1,0.2969,-0.9724,0.062,0.0971,-0.247,-0.3397,2049
1,0.2373,-0.8716,0.158,0.1482,-0.1589,-0.2312,2047
1,0.189,-0.8862,0.2886,0.1405,-0.0935,-0.1565,2052
1,0.125,-0.9365,0.4143,0.0563,0.0214,-0.1558,2049
1,0.2029,-0.979,0.4138,-0.0441,0.0177,-0.0921,2050
1,0.2458,-0.9985,0.3538,-0.1583,0.0228,-0.0289,2052
1,0.2119,-0.9529,0.2744,-0.1826,0.0945,0.0308,2056
1,0.1489,-0.9397,0.2278,-0.1872,0.251,0.0696,2050
1,0.1489,-0.959,0.1638,-0.1649,0.3314,0.0812,2056
1,0.0552,-0.9626,0.155,-0.1325,0.3143,0.1128,2057
1,0.0171,-0.9629,0.1638,-0.0537,0.2401,0.1137,2051
1,0.0515,-0.9548,0.1758,0.0419,0.0824,0.083,2049
1,0.1111,-0.9526,0.2068,0.0626,-0.0031,0.0688,2051
1,0.1421,-0.9548,0.2222,0.0734,0.0037,0.094,2053
1,0.1106,-0.9468,0.2312,0.0802,0.0342,0.1269,2058
1,0.0857,-0.9551,0.2356,0.0883,0.0467,0.1482,2065
1,0.0798,-0.9644,0.2625,0.1072,0.0202,0.1424,2053
1,0.0791,-0.9553,0.2773,0.1068,0.0254,0.1434,2058
1,0.0894,-0.9392,0.2764,0.0921,0.0692,0.142,2052
1,0.0657,-0.9929,0.3157,0.0435,0.1466,0.1332,2049
1,0.0708,-0.9819,0.3179,0.0606,0.235,0.1048,2054
1,0.074,-0.9736,0.3677,-0.0101,0.353,0.0646,2050
1,0.0564,-0.9451,0.4214,-0.0906,0.4193,0.0499,2049
1,0.0002,-0.9663,0.3833,-0.1332,0.4448,0.0153,2044
1,0.0242,-0.957,0.2969,-0.1613,0.3172,0.0204,2053
1,0.0281,-0.9836,0.1689,-0.1421,0.1803,-0.0013,2051
1,0.0378,-1.0054,0.179,-0.0703,0.1471,-0.0372,2070
1,-0.011,-1.0125,0.0737,0.102,0.1967,-0.0862,2119
1,0.0024,-0.9504,0.2866,0.1895,0.1887,-0.0734,2087
1,0.0137,-0.9792,0.188,0.2213,0.2193,-0.0518,1995
1,0.0996,-0.9709,0.1797,0.2264,0.1593,-0.0297,2061
1,0.0952,-0.9722,0.2986,0.196,0.1631,-0.0144,2044
1,0.1543,-0.9702,0.3088,0.1358,0.1362,0.0814,2059
1,0.1487,-0.9656,0.27,0.1218,0.2328,0.1236,2057
1,0.0813,-0.9768,0.2266,0.1814,0.3035,0.1378,2118
1,0.1489,-0.9216,0.2407,0.2381,0.4112,0.1605,2053
1,0.1179,-0.9514,0.3044,0.2109,0.4223,0.1959,2051
1,0.1365,-0.9575,0.2903,0.3211,0.5461,0.2428,2085
1,0.1309,-0.9207,0.3284,0.2852,0.6854,0.2826,2064
1,0.1179,-0.9897,0.2742,0.2923,0.7612,0.3594,2060
1,0.1228,-0.9575,0.176,0.3334,0.7585,0.4097,2101
1,0.1184,-0.9277,0.1543,0.4556,0.8206,0.3943,2127
1,0.0715,-0.9529,0.1201,0.6046,0.8529,0.3625,1862
1,0.0112,-0.9641,0.2407,0.5573,0.7068,0.3561,2057
1,0.0227,-0.988,0.2517,0.6024,0.622,0.3465,2100
1,-0.0315,-0.9702,0.2571,0.5682,0.5137,0.3004,2032
1,-0.0298,-0.9358,0.2329,0.5861,0.4155,0.3011,2082
1,0.0952,-0.8975,0.2817,0.5269,0.4144,0.2513,2038
1,0.0635,-0.9092,0.269,0.4263,0.4553,0.2428,2053
1,0.0303,-0.9429,0.3435,0.3437,0.3465,0.189,1985
1,0.002,-0.9587,0.3286,0.2948,0.3169,0.1755,2056
1,-0.0569,-0.957,0.2878,0.332,0.1866,0.1706,2197
1,0.5115,-0.0671,0.5513,0.8457,-0.6508,0.6099,1987
1,-0.0068,-0.3794,-0.7634,0.3296,1.6346,0.3241,2131
1,-0.0601,-1.481,0.2117,0.3388,-0.4199,0.2859,2087
1,-1.1104,0.2534,-0.3572,1.8502,-0.5203,0.8781,1754
1,-0.3206,-1.364,0.2268,-0.061,0.2151,-0.1708,2063
1,0.1968,-1.0022,0.4736,0.3924,-0.22,-0.278,2047
1,0.0869,-0.7756,0.3171,1.1042,-0.7537,0.1926,2049
1,-0.0977,-0.9041,0.571,1.1006,-0.44,0.2947,2048
1,-0.1919,-0.9902,0.387,0.9606,0.067,0.1876,2054
1,-0.3181,-0.8452,0.4099,0.9581,0.0601,0.3059,2122
1,-0.3208,-1.0989,0.6262,0.7215,-0.1141,0.2611,1857
1,-0.2974,-1.0496,0.6287,0.4801,-0.072,0.1474,2070
1,-0.3311,-1.0605,0.5911,0.2487,-0.0265,-0.0182,2206
1,-0.2034,-0.957,0.5454,0.2108,-0.133,-0.0585,2084
1,-0.2451,-1.0034,0.5212,0.0824,-0.1173,-0.0559,2187
1,-0.177,-0.9802,0.3496,-0.0124,-0.2048,-0.0205,1966
1,-0.2109,-0.9241,0.3596,-0.0111,-0.1509,-0.0755,1915
1,-0.1489,-0.9153,0.4031,-0.0449,-0.0332,-0.1965,2167
1,-0.1746,-0.894,0.4551,-0.0859,-0.055,-0.2328,1969
1,-0.095,-0.9221,0.467,-0.1479,-0.1073,-0.2257,2074
1,0.0571,-0.9622,0.447,-0.1366,-0.1802,-0.2309,2060
1,0.0679,-0.9231,0.448,-0.1617,-0.2735,-0.2875,2053
1,-0.0173,-0.8562,0.4048,-0.1685,-0.3631,-0.336,1891
1,-0.0613,-0.9106,0.4177,-0.1691,-0.4429,-0.386,1859
1,-0.2126,-0.9546,0.4578,-0.2358,-0.489,-0.4525,2085
1,-0.2991,-1.0017,0.4717,-0.3559,-0.4176,-0.5116,2044
1,-0.3206,-0.9333,0.5212,-0.5569,-0.2324,-0.601,2029
1,-0.0823,-0.8936,0.5293,-0.6998,0.0142,-0.6971,2056
1,0.123,-0.8442,0.5422,-0.9094,0.157,-0.7849,2065
1,0.2156,-0.76,0.5654,-0.8357,-0.0324,-0.7886,1640
1,0.1418,-0.7627,0.624,-0.815,-0.4081,-0.7761,2067
1,0.052,-0.8694,0.4756,-0.8086,-0.6407,-0.7375,1781
1,-0.1589,-0.9993,0.4216,-0.7243,-0.832,-0.7678,2080
1,-0.1736,-1.1719,0.4541,-0.7268,-0.8566,-0.7713,2078
1,-0.1692,-1.1594,0.3596,-0.8304,-0.7341,-0.8182,1861
1,-0.1472,-1.0107,0.2861,-0.9612,-0.44,-0.871,2079
1,-0.0078,-0.7776,0.2844,-1.091,-0.2265,-0.8846,1974
1,0.186,-0.7078,0.2817,-1.1668,-0.0217,-0.8915,2116
1,0.2627,-0.6204,0.2803,-1.2754,0.1173,-0.8508,2045
1,0.4299,-0.4919,0.1523,-1.3383,0.1442,-0.7264,1814
1,0.8757,-0.5288,0.1614,-1.3063,0.0168,-0.5729,2011
2,1.0562,-0.5769,0.1982,-1.138,-0.159,-0.3831,2119
2,0.8877,-0.6301,0.0178,-0.8661,-0.3561,-0.1683,2032
2,0.6394,-0.8005,0.1179,-0.6614,-0.404,0.0217,2061
2,0.5237,-1.0652,0.21,-0.5592,-0.3546,0.1942,2070
2,0.3518,-1.1362,0.2539,-0.4152,-0.2806,0.2875,2110
2,0.218,-1.053,0.2751,-0.287,-0.3294,0.3671,2031
2,0.1562,-1.0422,0.2502,-0.134,-0.2402,0.4225,2065
2,0.0842,-1.1045,0.2573,-0.0252,-0.0894,0.4087,2040
2,0.1255,-1.0732,0.2041,0.0358,-0.1011,0.4209,2031
2,0.0098,-1.0964,0.1875,0.0863,-0.0455,0.4183,2060
2,-0.0112,-0.9602,0.0916,0.1952,0.0771,0.3474,2082
2,0.1084,-0.8708,0.1074,0.2643,0.1955,0.2654,2138
2,0.1375,-0.8586,0.1638,0.2567,0.1209,0.2461,2016
2,0.2881,-0.7827,0.2007,0.275,0.0277,0.2571,2022
2,0.458,-0.655,0.2695,0.3393,0.0321,0.2638,2047
2,0.6006,-0.5872,0.3271,0.3987,0.0602,0.3176,2051
2,0.6206,-0.5713,0.3518,0.5006,0.0704,0.3677,2038
2,0.5264,-0.688,0.3433,0.5074,0.021,0.4936,1940
2,0.2712,-1.0359,0.2957,0.5103,-0.206,0.6448,2011
2,-0.0203,-1.1665,0.2136,0.5635,-0.0835,0.7232,2085
2,-0.1465,-1.2517,0.0542,0.7363,0.0565,0.7806,2080
2,0.0464,-1.3213,0.0139,0.8285,0.3272,0.8596,2111
2,0.1304,-1.1079,0.0256,0.9469,0.7134,0.9075,1963
2,0.2085,-1.0457,0.1504,1.1202,0.8831,1.0079,2079
2,0.293,-0.9937,0.2339,1.2962,0.7751,1.1106,2008
2,0.2988,-0.8408,0.4058,1.494,0.7263,1.1625,2069
2,0.2703,-0.8528,0.6013,1.6435,0.6825,1.1678,2064
2,0.1829,-1.051,0.7646,1.7789,0.8677,1.1308,2111
2,0.1321,-0.9668,0.8684,1.7647,0.8497,1.1954,2058
2,0.0193,-1.1631,0.782,1.862,0.3432,1.276,2032
2,-0.0195,-1.2715,0.7644,1.7773,0.0684,0.9508,2032
2,-0.158,-1.3162,0.6094,1.3448,-0.4618,0.2342,2062
2,-0.303,-1.5588,0.501,0.66,-0.6489,-0.3105,2074
2,-0.7029,-1.7429,0.1882,-0.6376,-0.1123,-0.7176,1987
2,0.2373,-1.8291,-0.1294,-1.6516,-1.1022,-0.8472,2014
2,0.3218,-1.4146,-0.3259,-2.0872,-1.7693,-0.9847,1987
2,-0.1226,-1.1165,0.2612,-1.7484,-1.8347,-1.5378,2066
2,0.9282,-0.2834,-0.1072,-1.6586,-4.3635,-1.9009,2008
2,-1.4792,0.6318,0.9839,-0.5227,-2.5208,-2.02,2044
2,-2.0,0.3027,1.9999,2.1427,1.818,-0.2417,1775
2,-2.0,-0.9609,-0.1404,-3.484,-2.3281,1.7443,2142
2,1.2603,0.1145,0.1072,0.8267,-1.6221,-0.0768,2130
2,-0.0867,-1.2585,0.6926,0.133,0.7915,-0.2269,1911
2,0.6885,-0.9373,-0.3757,-1.103,0.4292,0.0551,2096
2,1.6538,-0.6252,0.3271,-0.2059,1.3772,-0.4742,1965
2,0.353,-0.7422,0.8005,-0.3847,1.0166,-0.0968,1709
2,1.3459,-0.5598,0.4189,-0.6411,0.501,0.3938,2136
2,0.8469,-1.0417,-0.0908,-0.8459,0.4771,0.0927,2084
2,-0.1155,-1.2769,-0.2415,-0.5545,-0.0465,0.2072,2091
2,-0.5425,-1.3206,-0.2388,-0.3135,0.255,0.2735,2103
2,0.0442,-1.1548,0.0596,-0.369,0.441,0.707,2043
2,0.355,-1.0713,0.251,-0.3109,0.1386,0.9483,2014
2,0.1235,-0.9104,0.446,0.085,0.0573,1.1235,2135
2,-0.1296,-1.3396,0.6667,0.1454,0.1661,0.6416,2116
2,-0.4456,-1.1213,0.6194,0.2308,0.4932,0.5384,2217
2,-0.1497,-0.9287,0.5352,0.2024,0.6159,0.5241,2017
2,-0.0525,-1.0068,0.4285,0.2032,0.5822,0.4943,2062
2,0.0271,-0.9946,0.3164,0.2176,0.5686,0.3983,2046
2,0.0742,-0.9148,0.2493,0.2464,0.6457,0.3229,2086
2,-0.0693,-0.8911,0.2148,0.2461,0.6275,0.308,2065
2,-0.021,-0.8762,0.1943,0.2782,0.5088,0.336,2063
2,-0.009,-0.8406,0.1868,0.3886,0.3749,0.4227,2069
2,-0.0498,-0.8911,0.1836,0.479,0.159,0.4639,2092
2,-0.0017,-0.9485,0.2295,0.5136,-0.0851,0.4859,1972
2,-0.0208,-0.9355,0.2717,0.351,-0.302,0.4763,2146
2,-0.0691,-0.9038,0.3418,0.2722,-0.6614,0.4674,1782
2,0.342,-0.0574,1.3804,1.9538,-2.2417,1.3504,1815
2,-2.0,0.4849,-0.8,4.0479,-0.1264,2.1455,2191
2,-2.0,-2.0,1.3486,4.3634,-4.3635,1.7267,1765
2,-2.0,-1.2371,0.7698,2.7421,-2.5705,1.5724,1966
2,1.9463,-2.0,1.4954,-1.5803,0.7609,-1.817,2108
2,-0.4934,-0.4746,-0.5195,-0.4657,0.4734,-1.8686,2005
2,-0.0916,-0.377,0.1824,1.1632,-0.6265,0.4593,2042
2,-0.53,-1.4395,0.3579,1.2379,0.7288,0.1067,2037
2,-0.3188,-1.5051,0.8311,0.3398,1.4263,0.5745,2043
2,0.3892,-0.564,0.5103,0.2111,1.3567,0.098,1954
2,0.6196,-0.7722,0.6062,0.5248,0.6189,0.2932,2050
2,0.3845,-0.833,0.6079,0.3442,0.1946,0.21,2217
2,0.019,-0.6819,0.5476,0.1926,0.2226,0.1136,2050
2,-0.3809,-0.9045,0.4548,0.2557,0.1774,0.1087,2048
2,-0.4404,-0.9868,0.4739,0.2537,0.1225,0.0547,2127
2,-0.2837,-1.0408,0.3992,0.2196,0.2053,-0.0346,2070
2,-0.2954,-1.0413,0.3982,0.1514,0.31,-0.1148,1700
2,-0.3726,-1.0449,0.3823,0.2333,0.3689,-0.1965,1916
2,-0.3738,-1.1023,0.3801,0.1538,0.3737,-0.2409,2037
2,-0.3101,-1.0872,0.3582,0.0656,0.3309,-0.2779,2018
2,-0.2622,-1.0386,0.3784,-0.0722,0.2772,-0.2923,2047
2,-0.1648,-0.9954,0.4167,-0.0811,0.1738,-0.3132,2138
2,-0.0369,-0.937,0.4751,-0.1342,0.1871,-0.3496,1976
2,0.0005,-0.7942,0.5208,-0.2348,0.1257,-0.3952,2409
2,0.1904,-0.6868,0.5359,-0.2248,-0.0012,-0.3346,1921
2,0.4414,-0.6208,0.4419,-0.2452,-0.0634,-0.3191,2138
3,0.4248,-0.6863,0.3799,-0.2348,-0.2033,-0.2733,1627
3,0.2612,-0.8289,0.3906,-0.2112,-0.441,-0.1811,2155
3,0.0291,-0.887,0.3145,-0.1952,-0.4747,-0.1479,2065
3,-0.1372,-1.0266,0.363,-0.1056,-0.4361,-0.1217,2115
3,-0.1028,-1.0461,0.4248,-0.1815,-0.3079,-0.1653,2167
3,-0.1404,-1.0066,0.428,-0.2035,-0.2107,-0.2041,2057
3,-0.1387,-0.9841,0.4629,-0.1449,-0.1445,-0.2389,1886
3,-0.0791,-0.9795,0.542,-0.2176,-0.019,-0.2984,2004
3,-0.1462,-0.9294,0.5464,-0.2184,-0.0266,-0.3521,2159
3,-0.1628,-0.9714,0.5605,-0.2557,-0.0555,-0.4023,2076
3,-0.1394,-0.947,0.5793,-0.4277,-0.0312,-0.4557,2075
3,-0.1819,-0.9546,0.5352,-0.5986,-0.0712,-0.5252,2079
3,-0.2727,-0.9487,0.3516,-0.7379,-0.0507,-0.6417,2133
3,-0.2568,-0.95,0.2786,-0.9399,-0.0197,-0.7163,2233
3,-0.1621,-0.8855,0.3389,-1.2166,0.151,-0.7731,1992
3,0.1633,-0.8662,0.3311,-1.1724,0.3357,-0.773,2086
3,0.1777,-0.8804,0.4902,-1.1097,0.2487,-0.7873,1785
3,0.2185,-0.7747,0.5259,-0.9375,0.134,-0.7541,2103
3,0.2083,-0.9041,0.5911,-0.8781,-0.2092,-0.6424,1955
3,0.168,-0.9392,0.5627,-0.7797,-0.3565,-0.5992,2052
3,0.1851,-0.8875,0.511,-0.7758,-0.3055,-0.5654,2086
3,0.1292,-0.9089,0.4106,-0.7835,-0.1601,-0.5458,2079
3,0.2312,-0.8545,0.3374,-0.8052,0.0442,-0.55,2258
3,0.1455,-0.8513,0.3335,-0.8332,0.0872,-0.557,2041
3,0.1226,-0.8323,0.3003,-0.8006,0.0633,-0.5388,2070
3,0.1553,-0.8989,0.3816,-0.77,-0.0092,-0.5006,2060
3,0.2422,-0.8713,0.21,-0.7851,-0.0969,-0.4485,2139
3,0.335,-0.8018,0.2017,-0.6809,-0.3496,-0.3846,2137
3,0.4246,-0.7776,0.1472,-0.56,-0.4618,-0.3333,2108
3,0.4004,-0.8191,0.0728,-0.4741,-0.5039,-0.2802,2166
3,0.3669,-0.8601,0.1274,-0.3835,-0.5436,-0.216,2144
3,0.4353,-0.856,0.1104,-0.2794,-0.52,-0.129,2080
3,0.3921,-0.8237,0.0554,-0.1943,-0.5454,-0.0573,2050
3,0.4587,-0.8198,0.0295,-0.1246,-0.5545,0.0649,2046
3,0.5195,-0.7837,-0.0112,-0.0455,-0.4326,0.1914,2061
3,0.4585,-0.7927,0.0007,0.1693,-0.3555,0.2806,2081
3,0.5559,-0.7593,-0.0486,0.3302,-0.1718,0.437,1925
3,0.448,-0.7854,-0.0376,0.4552,-0.0301,0.4782,2040
3,0.3394,-0.8687,0.0105,0.5361,0.1794,0.6096,2032
3,0.3296,-0.8958,0.0337,0.5918,0.3633,0.7166,2015
3,0.2581,-0.8875,0.0601,0.6801,0.5167,0.781,1973
3,0.241,-0.8401,0.1394,0.7212,0.6155,0.8367,2041
3,0.4653,-0.7708,0.2488,0.7682,0.742,0.9553,2051
3,0.3855,-0.6646,0.2827,0.8127,0.6939,1.0726,2073
3,0.5188,-0.6311,0.4937,1.3547,0.6375,1.1419,2066
3,0.8042,-0.7454,0.6042,1.729,0.496,1.2565,2172
3,0.6975,-0.8779,0.5208,1.8387,0.4598,1.394,1928
3,0.1357,-0.7009,0.5842,1.9957,0.3297,1.7566,2020
3,0.4495,-0.7976,0.5525,2.0245,0.7847,1.7424,2116
3,0.241,-1.1558,0.4685,1.9188,1.0612,1.7701,2001
3,-0.0603,-1.5229,0.3655,1.9836,1.4402,1.7118,2054
3,-0.0762,-1.9075,0.334,2.2434,1.814,2.0686,2172
3,-0.3633,-1.8142,0.5569,1.4161,0.7962,1.9097,2110
3,-0.7778,-1.6152,0.2844,0.475,-0.1108,0.7885,1998
3,-0.8845,-1.3516,0.2207,0.0876,-0.0349,0.0088,2038
3,-0.4312,-1.3833,0.5222,-0.0513,-0.2519,-0.4994,2032
3,0.4578,-1.3616,0.303,-0.8608,-0.8994,-0.8652,2032
3,0.8303,-1.0269,0.2925,-0.9296,-1.564,-1.4672,1972
3,-0.157,-1.3345,0.3779,-1.7713,-1.7544,-1.8823,2028
3,-0.7693,-1.0298,0.7368,-2.1154,-1.9379,-1.4661,2063
3,-0.7041,-0.5034,0.408,-2.2771,-1.7423,-1.7435,2031
3,-0.4331,-0.9634,0.5388,-1.8097,-1.961,-1.7635,2036
3,-0.3,0.8179,0.1731,0.4311,-3.4424,-1.776,2032
3,-1.6323,-0.2578,1.9999,1.2235,-0.4446,-0.3693,2036
3,-1.6174,-0.7251,1.5759,-0.4741,0.6311,-0.5068,2048
3,-0.6094,-0.7866,-1.1904,-1.9486,-3.6873,1.2849,2178
3,1.2466,-0.8989,1.0208,0.036,-1.9772,0.3173,2059
3,0.6138,-0.6433,-0.4375,-0.0594,-0.908,0.4846,2038
3,0.5713,-1.0903,-0.1677,-0.9126,-0.9732,0.347,2045
3,0.6523,-0.5649,-0.3286,-0.975,0.0312,-0.0906,2037
3,1.1995,-0.4702,0.0796,-0.6827,0.5865,0.1265,2021
3,1.0925,-0.2603,0.2715,-0.9214,0.3105,0.4488,2060
3,0.4072,-0.4905,0.3306,-0.5665,0.804,1.4255,2050
3,-1.1438,-2.0,1.2224,-0.6336,1.737,0.7992,2054
3,-0.7825,-1.5627,1.0615,-0.5592,1.7402,0.9235,2044
3,-0.1089,-1.4353,0.3389,-0.7854,0.9379,0.7556,2061
3,0.3003,-1.0845,-0.0178,-0.5606,0.6644,0.6695,2073
3,-0.0383,-0.8921,0.3538,-0.4219,0.7775,0.7419,2059
3,-0.4124,-0.9121,0.4551,-0.4786,0.8389,0.551,2050
3,-0.4182,-0.9329,0.3459,-0.4999,0.3286,0.2888,2059
3,-0.3557,-0.8672,0.2073,-0.3328,-0.2266,0.0734,2047
3,-0.2168,-0.9573,0.3232,-0.1972,-0.4421,-0.0912,2118
3,-0.1548,-0.9885,0.2766,-0.2055,-0.2831,-0.2023,1952
3,-0.2261,-0.9814,0.2073,-0.1229,-0.2509,-0.4002,2108
3,-1.5137,0.6404,1.5356,2.2996,-2.0929,0.5199,1804
3,-0.2432,-1.019,-0.1853,2.7967,-1.8849,0.2464,2088
3,-1.6099,-1.7297,0.0405,1.1167,-3.7419,-0.5842,2188
3,-0.7681,-0.9058,0.3042,0.2666,-0.4444,-0.5394,2226
3,0.0154,-0.8738,0.0481,1.3645,0.3496,-1.9511,2011
3,-0.4856,-0.9275,-0.1687,1.1662,-0.2153,-0.1004,2051
3,0.0093,-1.4417,-0.0154,0.646,0.5954,-0.1816,2076
3,0.626,-1.0959,0.4966,0.2394,0.7907,0.1229,2082
3,0.7048,-0.7717,0.1606,0.1784,0.8143,0.2087,2061
3,0.6562,-0.6846,0.511,0.4518,0.1144,0.2936,2062
3,0.4199,-0.7153,0.5986,0.4156,0.0455,0.3824,2222
3,0.0151,-0.8601,0.637,0.3854,0.2582,0.4104,1750
3,-0.3103,-0.9463,0.7971,0.2983,0.2792,0.3008,2183
3,-0.3953,-1.0322,0.6665,0.2219,0.2294,0.1935,2104
3,-0.3979,-1.073,0.5208,0.1228,0.1756,0.0659,1977
3,-0.5725,-1.1384,0.406,0.0047,0.1836,-0.0868,2107
3,-0.6072,-1.2263,0.2974,-0.0565,0.1354,-0.2276,2123
3,-0.4482,-1.2708,0.1223,-0.0928,0.1979,-0.3689,2050
3,-0.3691,-1.1416,0.1519,-0.2083,0.2219,-0.4595,2045
3,-0.1943,-1.0361,0.2239,-0.2948,0.1655,-0.4852,2061
4,-0.0073,-0.9636,0.3181,-0.2951,0.1477,-0.5094,1986
4,0.0837,-0.8708,0.458,-0.286,0.0546,-0.5782,1926
4,0.1328,-0.8518,0.5266,-0.3533,-0.1189,-0.598,2103
4,0.1365,-0.7229,0.5586,-0.4474,-0.1538,-0.609,2075
4,0.2346,-0.7075,0.478,-0.4884,-0.0482,-0.5895,2065
4,0.3618,-0.7993,0.4707,-0.5685,0.0138,-0.5509,2151
4,0.2441,-0.8418,0.3298,-0.575,-0.0874,-0.583,2157
4,0.1357,-0.9675,0.2764,-0.5924,-0.2049,-0.5722,2048
4,-0.0037,-1.0474,0.2302,-0.6525,-0.2631,-0.5883,2003
4,-0.1326,-1.1011,0.2097,-0.7304,-0.2952,-0.6259,2092
4,-0.2446,-1.1199,0.3486,-0.7661,-0.2011,-0.6933,2052
4,-0.2681,-1.0991,0.406,-0.8819,-0.2321,-0.7369,1994
4,-0.1904,-1.0669,0.3647,-0.9411,-0.2679,-0.716,2039
4,0.009,-1.0867,0.3418,-0.9609,-0.1434,-0.7328,2031
4,0.1438,-0.9722,0.283,-1.0393,0.0361,-0.7455,2051
4,0.3396,-0.6809,0.4155,-1.0533,0.0237,-0.7215,2243
4,0.6367,-0.5461,0.1382,-1.028,-0.0633,-0.6251,2148
4,0.731,-0.6016,0.1321,-0.9586,-0.1759,-0.4591,2158
4,0.7,-0.5935,0.0906,-0.8444,-0.253,-0.3749,2242
4,0.5493,-0.7146,0.2385,-0.7739,-0.2076,-0.2987,2034
4,0.5076,-0.7749,0.1892,-0.7524,-0.3753,-0.1155,2077
4,0.6787,-0.7048,0.2224,-0.7098,-0.3203,-0.0128,2072
4,0.6128,-0.6458,0.1123,-0.5936,-0.344,0.0372,2083
4,0.5718,-0.6951,0.0923,-0.501,-0.3551,0.1461,2056
4,0.4995,-0.8047,0.0239,-0.4235,-0.3757,0.2245,2110
4,0.2998,-0.8501,0.0264,-0.1627,-0.337,0.2884,2041
4,0.0933,-1.2512,0.0581,0.0546,-0.4855,0.251,2056
4,-0.0708,-1.3635,-0.0347,0.1257,-0.5119,0.31,2048
4,-0.2192,-1.2527,-0.0969,0.1818,-0.3522,0.2892,2069
4,0.0293,-1.0759,-0.0247,0.3052,-0.0539,0.2221,2051
4,0.2048,-0.8899,0.082,0.4445,0.0972,0.1567,2076
4,0.3147,-0.8965,0.1594,0.5056,0.0249,0.1763,2109
4,0.4368,-0.8428,0.2634,0.6465,-0.0111,0.186,2032
4,0.3584,-0.7905,0.2358,0.7769,-0.0537,0.1677,2037
4,0.5513,-0.8123,0.166,0.7268,-0.227,0.2859,2028
4,0.5042,-0.6785,0.1211,0.6725,-0.1318,0.3389,2087
4,0.3298,-0.752,0.2617,0.6496,-0.1064,0.4338,2044
4,0.1863,-0.9272,0.4624,0.5232,-0.151,0.5267,1963
4,0.0557,-1.2029,0.3528,0.4821,-0.0212,0.6586,2011
4,-0.0586,-1.3032,0.1636,0.4749,0.0732,0.6574,1994
4,-0.1843,-1.1062,0.188,0.3695,0.2963,0.6211,2040
4,-0.0134,-0.948,0.1316,0.4689,0.481,0.5831,2069
4,0.0913,-0.9482,0.082,0.5485,0.6092,0.5255,2117
4,0.1494,-0.9717,-0.0205,0.6606,0.6831,0.5815,1865
4,0.0205,-1.0327,0.002,0.6735,0.6873,0.6355,2059
4,0.0869,-1.0864,0.0261,0.7393,0.6557,0.7676,2062
4,0.3513,-0.95,0.0652,0.8632,0.6682,0.8272,2070
4,0.4995,-0.8235,0.156,0.9826,0.7909,0.946,2083
4,0.489,-0.8298,0.1946,1.1294,0.7977,1.1342,2025
4,0.5295,-0.8564,0.2329,1.3304,0.7568,1.3497,2035
4,0.5591,-0.9221,0.252,1.6353,0.9188,1.5656,2074
4,0.2473,-0.9619,0.4263,1.8185,1.4046,1.8763,2070
4,0.0381,-1.0686,0.5232,2.1422,1.6548,1.8554,2053
4,0.1836,-1.0845,0.5425,2.5599,1.6375,1.829,2059
4,0.2356,-1.0068,0.6631,2.3245,1.1708,1.7495,2076
4,-0.0083,-1.0837,0.6125,1.8528,0.5777,1.1712,2079
4,-0.3662,-1.5044,0.5684,1.4422,-0.0823,0.3341,2073
4,-0.7148,-1.6353,0.5383,0.9044,-0.278,-0.4686,2075
4,-0.843,-1.7886,0.2622,-0.2575,-0.1735,-0.9737,2041
4,-0.8083,-1.8223,0.1338,-0.8521,-0.2145,-1.2551,2034
4,-0.5833,-1.5439,0.0674,-1.4322,-0.2982,-1.7036,1952
4,-0.2302,-1.4312,0.1575,-1.7829,0.2659,-2.3013,2029
4,-0.0227,-1.2678,0.0586,-2.2117,0.6561,-2.6963,2070
4,0.2415,-1.0881,0.0527,-2.533,1.0385,-3.2304,2064
4,0.5393,-0.7715,0.4307,-2.3831,0.7801,-3.3571,2055
4,0.2744,-0.6179,0.6328,-2.202,0.4967,-2.3341,2069
4,0.7268,-0.0991,0.4595,-1.9823,-1.2623,-3.3252,2032
4,-2.0,1.9999,1.9999,4.3634,0.7291,-1.751,1969
4,-2.0,-2.0,1.9999,-1.0435,4.3634,-0.4382,2084
4,-1.8696,0.0378,-1.2905,-1.9366,-4.3635,4.3634,2047
4,1.9999,0.2954,-0.1274,0.1816,-2.3633,-0.0209,1999
4,0.9275,-0.5869,0.8931,1.2226,-0.7782,1.7422,2127
4,0.7034,-2.0,-0.8708,-1.1246,1.6604,1.072,2094
4,0.5544,-1.1492,-0.5532,-1.1664,0.4902,0.3382,2124
4,1.823,-0.8481,0.0796,1.3071,0.8304,0.0372,1984
4,0.47,-1.0771,0.2397,0.4311,0.2187,-0.1739,2000
4,-0.3552,-1.6204,0.2979,-0.9694,-0.4462,-0.3413,2011
4,-0.5012,-1.228,0.3245,-0.2739,0.4707,0.8285,2034
4,-0.6921,-1.5774,0.3206,-0.4328,0.7026,0.8835,2087
4,-1.2212,-0.9956,0.7461,0.2693,0.5241,0.4991,2101
4,-0.624,-1.3972,0.7493,0.1867,0.0192,0.1426,2147
4,0.3975,-1.0791,0.6208,0.029,0.5536,0.4557,2016
4,0.2615,-0.9373,0.3257,-0.3065,1.0488,0.4297,2032
4,-0.0281,-0.8894,-0.0103,0.0325,0.6702,0.5016,2107
4,-0.0112,-0.8477,0.0144,0.2884,0.4057,0.5225,2057
4,0.2244,-0.8977,0.0034,0.4797,0.2828,0.5825,2041
4,0.384,-1.021,0.1443,0.3301,0.4084,0.438,2058
4,0.1873,-1.0847,0.2632,0.275,0.3963,0.4354,2055
4,0.0537,-1.0295,0.4602,0.1579,0.4884,0.5851,2063
4,-0.2795,-0.563,0.3542,0.3462,0.5353,1.2101,2064
4,-0.238,-1.123,0.3369,0.3088,0.3081,0.9541,2057
4,-0.291,-0.8352,0.4575,-0.1139,0.4902,0.9873,2063
4,-0.4675,-0.9128,0.4656,-0.3392,0.3963,0.6466,1993
4,-0.4065,-0.9641,0.4573,-0.4729,0.4638,0.402,2012
4,1.9999,0.6155,0.2903,-1.0634,0.1992,-1.91,2569
4,-2.0,-2.0,1.3621,4.3634,-4.3635,3.2682,2441
4,0.3684,1.9999,-0.0688,-0.5754,-1.549,0.514,2076
4,0.7705,-0.8809,-0.5732,-1.7239,0.9794,-1.3535,2180
4,-0.4954,-1.2048,0.5969,0.3412,-0.4148,-1.4145,1994
4,-1.5493,-2.0,-0.3279,0.8325,-1.2453,0.2982,2040
4,-0.5205,-0.6621,0.303,1.4864,-1.6004,0.9444,2069
4,-0.5325,-1.5732,0.5874,0.0292,0.021,0.1734,2032
4,-0.3496,-0.804,0.0327,0.0927,0.4156,-0.2112,2047
4,0.5376,-0.8386,0.4663,0.4219,0.0217,0.045,2047
4,0.6494,-0.738,0.5544,0.1443,-0.2177,0.1831,2044
4,0.1609,-0.6917,0.6108,-0.0635,-0.1455,-0.0963,2150
4,0.1223,-0.7703,0.5969,-0.1053,-0.3045,-0.0734,2051
4,-0.1348,-0.9082,0.6321,-0.1598,-0.2499,-0.119,2218
4,-0.3723,-1.052,0.6423,-0.1354,-0.3649,-0.2049,2004
4,-0.5239,-0.9851,0.3816,-0.1475,-0.2711,-0.3133,2311
4,-0.6333,-1.0295,0.4307,-0.139,-0.0012,-0.4212,1412
4,-0.6067,-1.1033,0.2256,-0.455,-0.1119,-0.4691,2144
4,-0.5498,-1.1079,0.1526,-0.3727,-0.0591,-0.5368,2074
4,-0.4993,-1.1296,0.3333,-0.3683,-0.1232,-0.6462,1744
5,-0.1755,-1.0083,0.4673,-0.5044,0.1017,-0.705,2154
5,-0.2373,-0.9282,0.3779,-0.6205,0.0021,-0.7151,2129
5,-0.0327,-0.8921,0.3997,-0.5643,-0.2298,-0.6822,2162
5,0.0913,-0.8491,0.3855,-0.6799,-0.1517,-0.7966,2081
5,0.0842,-0.811,0.3926,-0.7933,-0.1654,-0.8038,1887
5,0.165,-0.8655,0.3811,-0.9283,-0.2495,-0.7536,2010
5,0.1287,-0.8047,0.3542,-1.0889,-0.3705,-0.7364,2103
5,0.1006,-0.7126,0.355,-1.2055,-0.3107,-0.7231,2130
5,0.2522,-0.7498,0.2983,-1.3876,-0.2844,-0.7312,1998
5,0.4443,-0.8325,0.3892,-1.3335,-0.4289,-0.5931,2137
5,0.2395,-0.8816,0.1687,-1.2286,-0.6502,-0.5663,1973
5,0.1443,-0.8896,0.3054,-1.0529,-0.7217,-0.477,2076
5,0.0439,-1.0042,0.1841,-0.9684,-0.6711,-0.4135,2072
5,0.2517,-1.0471,0.2676,-0.8425,-0.5695,-0.3509,1943
5,0.2102,-0.9622,0.2493,-0.732,-0.363,-0.3117,2152
5,0.0859,-0.9739,0.2927,-0.6167,-0.2321,-0.2814,2082
5,0.2861,-1.0315,0.3333,-0.5493,-0.237,-0.2052,2033
5,0.2705,-0.9146,0.1765,-0.4117,-0.2314,-0.1767,2111
5,0.0317,-0.9507,0.0852,-0.2385,-0.2859,-0.1776,2047
5,-0.0691,-1.1128,-0.012,-0.2008,-0.3654,-0.1832,2057
5,-0.1956,-1.093,-0.0981,-0.1559,-0.3675,-0.1965,2075
5,-0.1099,-1.0029,-0.0688,-0.0884,-0.2326,-0.239,2076
5,0.0068,-0.9038,-0.011,-0.0768,-0.1481,-0.2617,2064
5,0.1743,-0.8977,0.0869,0.0051,-0.0786,-0.2577,2080
5,0.2236,-0.8977,0.1455,0.096,-0.0344,-0.2192,2064
5,0.2485,-0.9358,0.2151,0.1386,-0.0455,-0.1682,1963
5,0.1667,-0.9285,0.2788,0.1072,-0.065,-0.1461,2066
5,0.1348,-0.9473,0.3235,0.0811,-0.153,-0.1384,2068
5,0.2471,-0.9023,0.292,0.0301,-0.1012,-0.1202,2140
5,0.1331,-0.895,0.2544,0.08,-0.0687,-0.1416,1988
5,0.0737,-0.9902,0.3411,0.1099,-0.1252,-0.1494,2007
5,0.032,-1.0308,0.2351,0.233,-0.1667,-0.1942,2044
5,-0.0317,-1.1738,0.0669,0.3004,-0.2256,-0.1678,2038
5,-0.1445,-1.0198,0.0332,0.2534,-0.1714,-0.1839,2048
5,0.0342,-0.9014,0.1221,0.3457,0.0847,-0.2306,2027
5,0.2192,-0.9666,0.1731,0.3606,0.0075,-0.1915,2026
5,0.3076,-0.9187,0.1399,0.4172,-0.1272,-0.1064,2064
5,0.2476,-0.9072,0.189,0.5377,-0.1561,-0.0385,2071
5,0.2612,-0.9536,0.0903,0.5919,-0.0871,0.0679,2057
5,0.45,-0.8374,0.1631,0.6952,0.0087,0.1951,2078
5,0.7009,-0.7458,0.1511,0.7963,0.1421,0.336,2046
5,0.8247,-0.6675,0.1785,0.9748,0.3165,0.5577,2016
5,0.8638,-0.7874,0.1677,1.1059,0.4457,0.8789,2013
5,0.822,-0.7815,0.1909,1.2704,0.5996,1.2155,2076
5,0.7637,-0.8118,0.2097,1.4793,0.8152,1.5436,2079
5,0.6963,-0.8665,0.2634,1.7498,1.0523,1.8471,2075
5,0.5999,-0.9111,0.3718,1.9437,1.2797,2.0824,2078
5,0.54,-1.0901,0.5381,1.9303,1.7202,2.1169,2091
5,0.4824,-1.0791,0.6399,1.668,2.0716,2.3888,2039
5,0.0962,-1.239,0.7468,1.3768,1.03,2.4891,2027
5,-0.0134,-1.2258,0.7148,1.1184,-0.1182,1.6295,2037
5,-0.0518,-1.2607,0.5552,1.111,-0.3649,0.644,2041
5,-0.2568,-1.6094,0.5239,0.2767,-0.2859,-0.0443,2067
5,-0.5583,-1.8489,0.1252,-0.5597,-0.3378,-0.4149,2055
5,-0.8655,-1.3457,0.0244,-1.1536,-0.5778,-0.8416,2023
5,-0.5771,-1.2358,0.054,-0.7967,-0.7564,-1.4511,2027
5,-0.3401,-1.3938,0.1074,-1.011,-0.7063,-1.9929,2028
5,-0.3047,-0.781,0.064,-0.8953,-0.3376,-2.4416,2031
5,-0.0679,-1.2896,0.6094,-1.5119,-0.2352,-2.8594,2036
5,0.4509,-0.7466,0.0674,-1.5954,-1.0535,-3.068,2040
5,0.9338,-0.9995,0.5842,-1.5201,-1.3239,-3.1693,2019
5,-0.8511,-1.0078,0.1995,-1.9578,-0.4517,-3.0455,2032
5,0.3721,0.2454,-0.0884,-1.3729,-2.2309,-3.428,2044
5,-2.0,0.761,1.9999,2.5147,4.3634,-0.8799,2005
5,-2.0,-0.2649,1.0259,-1.9333,-0.2517,4.1327,2105
5,0.1406,0.5527,-2.0,1.0914,-4.3635,3.7304,2112
5,1.7812,-1.4934,1.4192,1.0634,-1.0416,0.2393,2130
5,0.8103,-2.0,0.3118,-0.2992,1.3366,0.8874,2014
5,0.2468,-1.8022,-1.2664,-1.7002,0.8869,0.2778,2120
5,1.8101,0.2456,-0.3418,0.9537,-0.2514,-0.0941,1374
5,1.4109,-1.2734,0.4512,0.1489,1.4648,-0.047,2128
5,-0.2593,-0.7334,-0.3669,-0.452,-0.9026,0.8886,2031
5,0.4109,-1.1602,0.6453,-0.2787,-0.2978,0.9235,2032
5,0.0823,-1.0164,0.1377,0.145,-0.1025,0.9339,2007
5,-0.2178,-1.1917,0.5588,0.2711,0.123,0.6449,2068
5,-0.397,-0.9822,0.8569,0.4271,0.182,0.5702,1998
5,-0.0569,-1.1199,0.8328,0.4513,0.5366,0.502,2192
5,-0.0308,-0.9819,0.7371,0.1586,1.4189,0.6918,2072
5,-0.1497,-0.8069,0.3171,0.2694,1.183,0.8461,2077
5,0.0298,-1.0127,0.1812,0.3115,0.9079,0.6482,2060
5,-0.0515,-1.0566,0.187,0.2677,0.7532,0.5418,2054
5,-0.0779,-0.9546,0.2805,0.2631,0.4958,0.5831,1981
5,-0.1223,-0.8521,0.3398,0.2258,0.3902,0.5869,2062
5,-0.0537,-0.968,0.342,0.1224,0.3448,0.4259,2052
5,-0.0986,-1.0332,0.2544,0.0256,0.3838,0.2626,2050
5,-0.0806,-0.9912,0.2954,0.0649,0.4449,0.3413,2057
5,-0.0137,-0.6265,0.1521,0.3285,0.3091,0.597,2051
5,-0.0354,-0.8853,0.2852,0.2292,0.2926,0.6645,2055
5,-0.0994,-0.9214,0.4167,0.0937,0.2297,0.6645,2050
5,-0.1187,-0.9646,0.6499,-0.1021,0.2177,0.5561,2060
5,-0.2446,-0.9204,0.6233,-0.3621,0.3033,0.3393,2370
5,-0.2537,-0.9548,0.5408,-0.2486,0.4697,0.2035,2025
5,-0.4709,-0.9265,0.4778,-0.3875,0.4758,-0.0523,2058
5,1.9999,-0.4329,0.4275,1.6121,-1.3553,-2.4214,2239
5,-2.0,-1.2122,-0.2261,2.6602,-4.2382,-1.588,2049
5,-1.4272,-2.0,1.1411,-0.2946,-3.3661,0.4052,1973
5,-0.3682,-0.5872,0.1843,0.5847,-1.0018,0.4228,1996
5,-1.1567,-1.5935,-0.0212,-0.0012,0.4482,-0.2309,2068
5,-0.1375,-1.0071,0.2002,-0.1103,0.6978,-0.4477,2046
5,0.0667,-0.9343,0.3833,-0.0007,0.4068,-0.191,2051
5,0.3979,-0.8059,0.3486,-0.1522,0.2883,-0.1874,2051
6,0.2415,-0.8191,0.4131,-0.0131,0.2012,-0.2136,2065
6,0.1868,-0.8232,0.478,-0.02,0.0742,-0.1691,2055
6,0.0979,-0.8159,0.5,-0.0816,-0.083,-0.2064,2062
6,0.019,-0.856,0.5454,-0.1421,-0.1016,-0.2884,2146
6,-0.1445,-0.9385,0.5991,-0.1168,-0.1727,-0.3481,2110
6,-0.3276,-1.0876,0.7563,-0.595,-0.2452,-0.396,2044
6,-0.4236,-1.0027,0.5166,-0.6942,-0.3513,-0.4859,2518
6,-0.5681,-0.9514,0.4082,-0.6632,-0.405,-0.6661,2346
6,-0.5208,-0.9883,0.4126,-0.7188,-0.2366,-0.7237,2063
6,-0.4229,-1.0444,0.2292,-0.6982,-0.3047,-0.7289,2030
6,-0.229,-1.1167,0.1653,-0.7086,-0.5135,-0.7853,1994
6,-0.1052,-1.0671,0.1584,-0.7533,-0.3534,-0.8886,2067
6,-0.3,-1.0344,0.2271,-0.7279,-0.3348,-0.9732,2156
6,-0.3215,-1.0898,0.2866,-0.8506,-0.3334,-0.9826,2119
6,-0.0181,-1.0632,0.2961,-1.0174,-0.2814,-1.0311,2075
6,0.1436,-0.9072,0.3652,-1.1774,-0.0867,-1.064,2052
6,0.2893,-0.7639,0.3608,-1.2163,-0.0321,-1.0234,2056
6,0.5764,-0.7019,0.3848,-1.2916,0.1119,-0.9564,2063
6,0.4346,-0.6152,0.4062,-1.4588,-0.0674,-0.8344,2044
6,0.3735,-0.5403,0.2363,-1.3391,-0.1527,-0.7307,2056
6,0.4163,-0.644,0.2324,-1.2429,-0.2076,-0.6598,2051
6,0.554,-0.731,0.1797,-1.2862,-0.5777,-0.6775,2052
6,0.78,-0.7253,0.1707,-1.2529,-0.8564,-0.4669,2047
6,0.8181,-0.7144,0.0637,-1.1657,-1.1087,-0.2354,2040
6,0.6904,-0.7659,0.1138,-0.8625,-1.169,-0.0403,2064
6,0.2771,-1.1245,0.23,-0.6429,-1.0384,0.1264,2062
6,0.0022,-1.4822,0.217,-0.5448,-0.8072,0.271,2061
6,0.0022,-1.2739,0.1233,-0.4837,-0.4442,0.2393,2064
6,0.2686,-0.8621,-0.001,-0.294,-0.1473,0.1914,2075
6,0.425,-0.8501,-0.0525,-0.1669,-0.0019,0.2553,2007
6,0.3364,-0.9558,-0.1101,-0.0578,0.0338,0.3598,1956
6,0.1248,-0.9746,-0.0793,0.1004,0.0479,0.3509,2060
6,0.1199,-0.9944,-0.0562,0.2221,0.0762,0.3606,2056
6,0.1699,-1.0742,0.0254,0.2452,0.1992,0.3828,2055
6,0.1489,-0.979,0.0442,0.2737,0.2513,0.3966,2066
6,0.1821,-0.9221,0.1028,0.3328,0.2826,0.4055,2056
6,0.1167,-0.9585,0.1389,0.3755,0.2321,0.3988,2047
6,0.1091,-1.0017,0.1848,0.3635,0.1679,0.3884,2059
6,0.0762,-0.9763,0.1831,0.3137,0.1043,0.3725,2056
6,0.1086,-0.9661,0.1951,0.3008,0.0811,0.3453,2021
6,0.0352,-0.9543,0.1995,0.3095,0.0855,0.3141,2059
6,0.0432,-0.9739,0.2175,0.3099,0.0724,0.2962,2055
6,-0.0173,-0.9773,0.2185,0.3087,0.1334,0.2382,2064
6,-0.0703,-0.9922,0.2578,0.2879,0.1085,0.1838,2064
6,-0.1055,-1.0249,0.3079,0.2428,0.0397,0.0782,2063
6,-0.2212,-1.0317,0.3398,0.2109,-0.1389,0.0131,2057
6,-0.1765,-1.1025,0.2371,0.1519,-0.271,-0.0277,2048
6,-0.0613,-1.0684,0.2378,0.038,-0.2491,-0.1213,2065
6,-0.1104,-0.9468,0.217,0.0792,-0.2497,-0.1803,2041
6,0.0122,-1.0393,0.114,0.0879,-0.1896,-0.253,2034
6,0.0071,-1.0002,0.0859,0.0848,-0.1719,-0.2858,2053
6,-0.0305,-0.9702,0.0762,0.112,-0.1605,-0.2998,2058
6,0.0291,-0.9836,0.0747,0.2332,-0.0687,-0.3522,2060
6,0.1067,-0.9419,0.0591,0.2336,-0.0423,-0.3237,2048
6,0.4036,-0.8496,0.0618,0.2875,-0.1043,-0.2755,2050
6,0.564,-0.7766,0.1045,0.392,-0.0963,-0.1567,2052
6,0.5962,-0.8105,0.1104,0.461,-0.0036,0.045,2049
6,0.6736,-0.8303,0.1409,0.5761,0.1091,0.2437,2059
6,0.6362,-0.8625,0.136,0.6897,0.3099,0.463,2060
6,0.5776,-0.9004,0.1484,0.807,0.4349,0.6229,2056
6,0.5181,-0.979,0.1746,0.854,0.5264,0.8188,2074
6,0.416,-0.9521,0.2266,0.8963,0.6096,0.9768,2057
6,0.3525,-0.8765,0.2554,1.0057,0.7183,1.0573,2062
6,0.3845,-0.9197,0.2778,1.128,0.8031,1.1384,2052
6,0.3904,-0.9497,0.2058,1.2934,0.8501,1.2339,2022
6,0.3645,-1.0154,0.1233,1.5143,0.9465,1.3304,2056
6,0.2368,-1.1638,0.1985,1.5853,1.1334,1.3569,2308
6,0.0059,-1.2681,0.2888,1.8631,1.1336,1.2135,2153
6,-0.0867,-1.2644,0.562,1.8341,0.968,1.0267,2065
6,-0.0994,-1.354,0.457,1.884,0.834,1.0298,2033
6,-0.3965,-1.3948,0.5625,1.5977,0.5168,0.7265,2031
6,-0.3945,-1.4163,0.6948,1.0029,0.563,0.4829,2031
6,-0.5288,-1.459,0.5918,0.3818,0.7259,-0.0864,2051
6,-0.5933,-1.4866,0.6133,-0.1992,0.2906,-0.5703,2051
6,-0.0278,-1.4482,0.4248,-0.8469,-0.3437,-1.0179,2032
6,0.4314,-0.99,0.2461,-0.4574,-0.6241,-1.6267,2050
6,0.5449,-0.7793,0.3384,-0.3766,-0.5156,-2.1182,2031
6,0.282,-0.9939,0.3628,-1.2936,-0.8284,-2.6723,2060
6,0.6016,-0.3745,-0.0984,-1.0324,-1.5518,-2.7015,2072
6,0.8728,-1.1421,0.0798,-1.3523,-2.0429,-2.6799,2053
6,0.7134,-0.6528,0.198,-1.7741,-2.3013,-2.6526,2005
6,0.0542,0.0811,-0.2847,-1.3802,-1.689,-2.8126,2082
6,0.5447,-0.3843,-0.0007,-1.638,-0.7104,-2.3985,1669
6,-0.9695,1.9999,-0.6028,0.1807,0.7504,-0.5586,1991
6,-2.0,1.3137,1.9999,0.157,2.1102,2.4728,2131
6,-2.0,-1.1592,-0.6362,0.8182,-2.6793,4.3634,2177
6,1.9999,-2.0,1.1235,0.4629,0.8806,1.169,2151
6,1.9999,-0.8489,0.4397,-1.5403,2.2238,-2.9136,2058
6,-2.0,-0.4419,-0.1765,-1.5372,0.4602,1.0793,2119
6,-0.3699,-1.2861,-0.1143,0.1987,0.6177,0.6834,1798
6,0.728,-1.1897,0.3279,0.1051,-0.712,0.7751,2181
6,0.2876,-1.2512,0.4727,0.0312,1.3161,0.6131,2055
6,-1.0896,-1.3123,0.6138,0.068,-0.601,0.5948,2065
7,0.2524,-0.7041,0.7358,0.3013,0.0546,0.8026,1970
7,-0.4231,-1.0891,0.3069,0.118,0.0674,0.1603,2123
7,-0.1184,-0.958,0.1331,0.1537,-0.1674,0.3029,2041
7,-0.2007,-1.0146,0.3403,0.0747,-0.1751,0.2748,2062
7,-0.2668,-0.9766,0.4275,0.2775,-0.5851,0.1314,2068
7,0.0222,-0.9846,0.5281,0.2296,-0.361,0.0381,2059
7,0.0442,-0.9619,0.4487,0.0848,-0.3448,-0.0288,2050
7,0.137,-0.8755,0.3135,-0.0246,-0.1654,-0.0629,2070
7,0.1807,-0.7512,0.1921,-0.1298,-0.0475,-0.0049,2009
7,0.3384,-0.7595,0.0962,-0.2506,0.0939,0.1027,2169
7,0.4192,-0.71,-0.0059,-0.2123,0.1426,0.2334,1871
7,0.2244,-0.7754,0.0796,-0.3023,0.1039,0.3583,2119
7,0.1392,-0.8542,0.1265,-0.329,0.0254,0.3954,2070
7,-0.1184,-1.0081,0.0728,-0.2128,-0.1278,0.377,2103
7,1.9999,1.5632,1.9999,0.3273,1.1915,-2.8862,2029
7,-1.0896,-1.7964,1.4717,0.8204,0.0727,1.4173,2217
7,0.0061,-1.3091,0.957,0.8777,-1.2451,0.7449,2113
7,-0.5496,-1.4792,1.3342,0.663,0.4131,0.2952,2086
7,-0.4182,-1.4124,0.6487,0.3828,-0.2317,0.5412,2034
7,-0.0396,-0.8574,0.4541,0.5228,0.0639,0.4172,2056
7,0.1033,-0.894,0.4009,0.3044,0.7,0.3818,2062
7,0.0217,-0.8625,0.2737,0.4172,0.6843,0.3867,2048
7,0.2439,-0.9099,0.325,0.5489,0.4735,0.448,2063
7,0.1079,-0.9023,0.2085,0.501,0.5233,0.4207,2108
7,0.0566,-0.8359,0.1392,0.4751,0.5506,0.4243,2066
7,-0.0103,-0.7112,0.2498,0.3918,0.5225,0.3233,2105
7,-0.1206,-0.792,0.3928,0.3302,0.3348,0.227,2134
7,-0.2744,-0.8306,0.5317,0.206,0.2529,0.1369,2052
7,-0.448,-0.9487,0.6438,0.0554,0.1052,0.0218,1921
7,-0.4231,-1.0291,0.5884,-0.0776,0.0045,-0.0884,2048
7,-0.3391,-1.1584,0.5867,-0.1405,-0.2376,-0.1807,1984
7,-0.3594,-1.1943,0.4346,-0.1768,-0.4141,-0.2759,2052
7,-0.4504,-1.1265,0.3108,-0.1911,-0.3422,-0.4084,2030
7,-0.4365,-1.1226,0.3259,-0.2389,-0.2172,-0.5635,2045
7,-0.2625,-1.0471,0.3896,-0.3413,-0.0973,-0.6534,2050
7,-0.1606,-0.9958,0.4128,-0.4191,-0.0562,-0.7028,2049
7,-0.0117,-0.9158,0.4673,-0.4978,-0.1687,-0.7212,2056
7,0.1406,-0.8467,0.4844,-0.5887,-0.2129,-0.7265,2063
7,0.1624,-0.8015,0.3931,-0.6862,-0.3228,-0.7259,1998
7,0.1235,-0.8108,0.3213,-0.7494,-0.3844,-0.707,2059
7,0.1316,-0.8604,0.2742,-0.8732,-0.3996,-0.6933,2063
7,0.1482,-0.876,0.2126,-1.0927,-0.397,-0.6769,2064
7,0.1855,-0.8486,0.197,-1.3495,-0.4326,-0.6424,2049
7,0.3025,-0.6731,0.1226,-1.288,-0.3478,-0.5689,2041
7,0.3611,-0.6528,0.2839,-1.2153,-0.1521,-0.5285,1915
7,0.322,-0.8169,0.3435,-1.058,-0.3334,-0.4468,2044
7,0.5422,-0.8965,0.3599,-0.9124,-0.5393,-0.3173,2055
7,0.5374,-0.8621,0.355,-0.8339,-0.4425,-0.2139,2069
7,0.4829,-0.7173,0.1829,-0.8095,-0.4517,-0.0586,2070
7,0.5989,-0.7393,0.1907,-0.8307,-0.3662,0.1079,2066
7,0.4438,-0.8625,0.2485,-0.8341,-0.2373,0.2396,2062
7,0.3569,-0.9507,0.2886,-0.7276,-0.1771,0.3473,2062
7,0.3569,-1.0405,0.3438,-0.5429,-0.2003,0.4556,2050
7,0.0796,-1.1516,0.2043,-0.3689,-0.1956,0.469,2064
7,-0.1716,-1.2029,0.1125,-0.243,-0.4051,0.5109,2221
7,-0.1785,-1.1306,-0.1338,-0.0531,-0.1701,0.4152,1713
7,-0.1755,-1.0903,-0.0842,0.084,-0.0352,0.3541,2105
7,0.0071,-1.0522,-0.1001,0.187,-0.0262,0.3649,2052
7,0.1797,-1.0322,-0.0403,0.2589,0.1071,0.3802,2048
7,0.1257,-0.9568,0.0591,0.3027,0.0779,0.3919,2047
7,0.1079,-0.9561,0.0608,0.3675,0.1186,0.4035,2041
7,0.1602,-0.9851,0.1448,0.4372,0.116,0.3928,2056
7,0.1045,-0.959,0.2339,0.4646,0.1386,0.394,2217
7,0.0518,-0.8977,0.2671,0.5265,0.1461,0.3711,2110
7,-0.0291,-0.9729,0.3262,0.4912,0.0806,0.352,2062
7,-0.1101,-1.0039,0.3984,0.4253,0.0501,0.2868,2073
7,-0.1704,-0.9866,0.386,0.3898,-0.0097,0.2004,2059
7,-0.1433,-1.0015,0.2883,0.3233,-0.0811,0.1181,2051
7,-0.0581,-0.9746,0.2598,0.257,-0.0711,0.0252,2062
7,-0.0952,-0.9097,0.301,0.1924,-0.0032,-0.022,2059
7,0.0061,-0.9475,0.4006,0.1847,0.0951,-0.0972,2057
7,0.0654,-1.0005,0.3062,0.1666,0.0615,-0.1697,2020
7,-0.178,-0.8762,0.3792,0.1252,-0.0133,-0.2285,2047
7,-0.0957,-1.0237,0.4348,0.2448,-0.2131,-0.3406,2046
7,-0.1418,-1.0833,0.2153,0.1646,-0.3593,-0.3903,2065
7,-0.0046,-1.0605,0.0354,0.1128,-0.4859,-0.3373,2047
7,0.146,-1.0244,-0.1531,0.2213,-0.4039,-0.2349,2029
7,0.416,-0.9802,-0.1494,0.4838,-0.1177,-0.0744,2039
7,0.7258,-0.8225,-0.0732,0.7162,0.183,0.1462,2073
7,0.9124,-0.782,0.019,0.9006,0.4141,0.4418,2069
7,1.0222,-0.7793,0.1716,1.0396,0.6297,0.8284,2068
7,1.0037,-0.6802,0.2893,1.2411,0.8071,1.2187,2111
7,0.8767,-0.8181,0.4128,1.403,0.9544,1.5459,2084
7,0.574,-1.0962,0.5042,1.6093,1.2689,1.7923,2014
7,0.3232,-1.1379,0.5935,1.5348,1.6519,2.0306,2032
7,0.072,-1.0942,0.7314,1.3936,1.1681,2.3016,1976
7,0.0217,-1.2161,0.7925,0.9813,0.4727,1.8956,2077
7,0.187,-1.1692,0.5869,0.9357,-0.0839,1.1812,2036
7,-0.0498,-1.1624,0.3979,0.9874,-0.2354,0.492,2049
7,-0.2903,-1.2529,0.3442,0.763,-0.5032,-0.1352,2059
7,-0.6575,-1.698,0.355,-0.0931,-0.2456,-0.599,2077
7,-0.7634,-1.2878,0.2188,-0.5076,0.0353,-0.7681,2031
7,-0.302,-0.9958,0.1589,-0.4943,-0.1546,-1.415,2040
7,-0.0337,-0.6077,0.2266,-0.059,-0.2972,-1.982,2039
7,0.3289,-1.5879,0.6304,-0.9138,-0.4345,-2.4673,2047
7,0.363,-1.1663,0.0547,-1.5685,-0.8966,-2.5124,2057
7,0.4487,-0.7007,0.3503,-1.4352,-0.6526,-2.8936,2039
7,0.6348,-0.6882,0.4346,-1.2151,-0.9629,-3.0488,2044
7,-0.9502,-0.999,0.4565,-1.454,-0.0237,-3.0938,2084
7,-1.1335,1.9277,0.124,0.0812,1.1342,-3.2501,2070
7,-2.0,-1.6479,1.9999,-0.7532,4.3634,-1.0808,2156
7,-2.0,1.2009,-1.2649,1.2995,-2.8304,4.3634,1949
7,1.7148,-1.2126,-1.3906,1.8005,-2.7572,0.8865,2220
7,1.9999,-2.0,0.875,0.4,-0.5711,-0.1735,2246
7,0.874,-0.9419,0.2883,-0.9127,1.3704,-0.7661,2224
7,0.032,-0.6484,0.7368,0.6968,0.6353,-0.2832,2043
7,-0.2905,-0.8496,-0.897,-0.0365,0.0326,0.7136,2128
7,-0.2122,-1.0886,0.2622,0.5604,-0.7372,0.4055,2193
7,1.1633,-1.1414,0.2637,0.0138,-0.6562,0.7291,2079
7,-0.2776,-1.1289,-0.6157,-0.0099,0.5163,0.2196,2133
7,-0.2725,-0.7825,0.3779,0.0212,-0.6146,0.6705,2239
7,0.4846,-0.7922,0.2109,-0.1589,0.076,0.6967,2144
8,0.0059,-0.9414,0.3713,-0.2498,-0.0015,0.279,2176
8,-0.1509,-1.0195,0.6187,0.0044,-0.3464,0.1786,2149
8,0.0825,-1.1611,0.6313,-0.0811,-0.2092,0.2244,2087
8,-0.1323,-1.1917,0.5757,-0.0696,0.0232,0.2952,2057
8,-0.083,-1.0581,0.5127,-0.0394,0.0037,0.2661,2109
8,-0.0615,-0.6621,0.446,0.1262,0.2595,0.3398,2118
8,-0.0999,-1.0864,0.5381,0.0055,0.1365,0.2017,2183
8,-0.0632,-0.8362,0.5403,-0.0192,0.1894,0.2149,2039
8,0.0569,-0.8713,0.4214,-0.1013,0.2237,0.1629,2086
8,0.0566,-0.8728,0.356,-0.1553,0.2507,0.0617,2056
8,0.0657,-0.886,0.3074,-0.3067,0.298,0.0174,2063
8,-0.0906,-0.9983,0.3262,-0.4962,0.2448,-0.015,1680
8,-0.0825,-0.8357,0.3472,-0.5938,0.1975,-0.0405,2067
8,-0.0222,-0.8545,0.3811,-0.6227,0.0585,-0.0848,1937
8,-0.0771,-0.9973,0.4082,-0.6799,-0.1009,-0.2706,2086
8,-0.1389,-1.0139,0.4204,-0.6577,-0.114,-0.3553,2051
8,1.9999,1.9999,1.8386,3.0562,-0.7067,-1.9137,2190
8,-1.8325,-2.0,0.4153,1.5747,-2.614,-0.0262,2149
8,-0.2041,-1.426,0.7739,-0.0049,-0.6841,-0.0293,2088
8,0.179,-0.8655,0.5396,-0.5677,-0.3365,-0.2527,1972
8,-0.2261,-1.2112,0.2861,-0.6584,-0.1589,-0.1911,1989
8,0.3599,-0.8672,0.2971,-0.4919,-0.1153,-0.0719,2084
8,0.4556,-0.8528,0.3035,-0.3727,0.1196,-0.0258,2064
8,0.2988,-0.9243,0.3149,-0.2045,0.1198,0.1073,2122
8,0.2661,-0.9292,0.2393,-0.0863,0.1724,0.1771,2053
8,0.25,-0.8943,0.2578,-0.0682,0.2081,0.236,2038
8,0.2356,-0.8162,0.3147,-0.0586,0.1502,0.2625,2032
8,0.1516,-0.8425,0.3313,-0.0417,0.1436,0.2737,2068
8,-0.0642,-0.9021,0.4854,-0.1408,0.081,0.2408,2069
8,-0.1418,-0.9927,0.4768,-0.2478,0.1264,0.1701,2038
8,-0.2058,-1.0142,0.4663,-0.2904,0.0493,0.0619,2182
8,-0.394,-1.0657,0.3979,-0.3489,-0.0659,-0.0728,2223
8,-0.4451,-1.0769,0.3096,-0.4137,-0.0963,-0.2123,2164
8,-0.4866,-1.082,0.2683,-0.5353,-0.1461,-0.3815,1915
8,-0.2981,-1.0789,0.2847,-0.6763,-0.2597,-0.4534,2050
8,-0.2637,-1.0242,0.2734,-0.7783,-0.1657,-0.5643,2038
8,-0.1035,-0.96,0.3088,-0.8654,-0.1196,-0.6353,2029
8,0.043,-0.9712,0.2817,-0.9353,-0.0373,-0.6568,2046
8,-0.0222,-0.9678,0.311,-0.9556,-0.1425,-0.6645,2160
8,0.0425,-0.9785,0.3313,-0.9175,-0.1898,-0.6954,2056
8,0.0471,-0.9128,0.2996,-0.9032,-0.2318,-0.666,2062
8,0.2083,-0.9517,0.2659,-0.8923,-0.2261,-0.6269,2010
8,0.2971,-0.8335,0.1479,-0.9102,-0.1288,-0.6062,2062
8,0.3726,-0.7085,0.1108,-0.9076,-0.1071,-0.544,2054
8,0.5554,-0.6907,0.0811,-0.8786,-0.2088,-0.4199,2055
8,0.696,-0.7271,0.105,-0.8231,-0.3437,-0.2282,2080
8,0.6367,-0.7883,0.1562,-0.7253,-0.4912,-0.037,2060
8,0.5098,-0.8953,0.1467,-0.6665,-0.4653,0.1011,2050
8,0.4004,-0.9817,0.2058,-0.6172,-0.4156,0.2192,2064
8,0.385,-0.9883,0.2517,-0.6401,-0.3276,0.3195,2069
8,0.3701,-0.9514,0.1528,-0.4573,-0.2324,0.3699,2051
8,0.3398,-0.9878,0.1458,-0.2763,-0.081,0.4695,2150
8,0.1001,-1.0806,-0.0063,-0.2065,-0.0707,0.5304,2086
8,-0.0288,-1.0447,-0.0454,-0.0154,0.036,0.5092,2029
8,-0.0349,-1.0198,0.1172,0.1027,0.1535,0.4316,2030
8,-0.0186,-1.0874,0.1365,0.1316,0.1818,0.4007,2063
8,-0.0308,-1.0273,0.072,0.1748,0.2017,0.3336,2059
8,0.0254,-1.0105,0.0356,0.2188,0.1715,0.2891,2059
8,0.0425,-0.9851,0.011,0.2745,0.0807,0.2814,2050
8,0.0393,-0.9861,0.0679,0.3406,0.0262,0.2517,2052
8,0.0171,-0.9963,0.1497,0.3563,0.0752,0.2063,2054
8,-0.0356,-0.9783,0.2532,0.3175,0.0727,0.1665,2054
8,0.0342,-0.9727,0.2983,0.2649,0.0023,0.1353,2050
8,0.158,-0.9363,0.2869,0.2169,-0.0985,0.1139,2059
8,0.2271,-0.8972,0.2361,0.2121,-0.1025,0.1001,2061
8,0.1953,-0.9211,0.2268,0.2173,-0.0502,0.1083,2056
8,0.1008,-0.9604,0.2712,0.2048,-0.0194,0.1229,2065
8,-0.0305,-0.9839,0.3184,0.1866,-0.0261,0.0647,2053
8,-0.1602,-1.0486,0.323,0.133,-0.1139,0.0023,2078
8,-0.3604,-1.0168,0.2627,0.0867,-0.2665,-0.0957,2077
8,-0.3311,-1.1279,0.3223,0.0594,-0.4405,-0.1948,2055
8,-0.2617,-1.1748,0.1401,-0.0755,-0.4572,-0.2842,2320
8,-0.2891,-0.9565,-0.2153,0.1161,-0.3341,-0.4239,2187
8,-0.3311,-1.155,0.0408,0.0718,-0.2161,-0.4694,2064
8,-0.1023,-1.0364,-0.0984,0.2004,-0.2113,-0.5042,2021
8,0.4092,-0.8928,-0.0388,0.4068,-0.1701,-0.4729,2061
8,0.7124,-0.866,0.1038,0.5633,0.0902,-0.2987,2070
8,0.8796,-0.8096,0.2236,0.6818,0.3362,-0.0148,2060
8,0.9722,-0.8206,0.2588,0.7443,0.6088,0.2962,2035
8,1.0557,-0.7991,0.2534,0.8509,0.7285,0.6143,2067
8,0.9126,-0.7473,0.2607,1.0291,0.7677,0.9287,2053
8,0.7778,-0.7937,0.2029,1.239,0.7686,1.199,2059
8,0.5215,-0.96,0.2192,1.4011,0.8396,1.474,2056
8,0.218,-0.9495,0.3455,1.5231,0.9758,1.737,2058
8,0.1731,-1.0835,0.4026,1.6476,1.2683,1.7247,2066
8,0.012,-1.0308,0.6042,1.7664,1.3653,1.7875,2130
8,0.0405,-1.1409,0.647,1.8393,1.4645,2.3511,2035
8,0.3269,-1.418,0.5657,1.8725,0.9031,2.3814,2045
8,0.4026,-0.9912,0.6182,1.3731,0.0001,1.5101,2050
8,0.0613,-0.9941,0.4248,1.4913,-0.8207,0.7132,1960
8,-0.4302,-1.2544,0.3479,1.3974,-0.8473,0.0891,2087
8,-0.6155,-1.6023,0.4341,0.7321,-0.5694,-0.2226,2067
8,0.3181,-1.5703,-0.2117,-0.2562,-0.9754,-0.8351,2053
8,0.6982,-1.3811,-0.3943,-0.6794,-1.1893,-1.6052,2047
8,0.8015,-1.2717,-0.0564,-1.1954,-1.7124,-1.9363,2036
8,0.564,-0.897,0.0139,-1.1848,-2.4389,-2.0556,2017
8,0.4629,-0.7991,0.4236,-1.4792,-3.1344,-2.0029,2034
8,-0.3843,-0.7434,-0.0969,-1.3877,-2.6416,-2.4305,2030
8,0.1772,-0.4668,-0.364,-1.9618,-2.2707,-2.3049,2033
8,-1.7983,-0.5046,0.9158,-2.2995,0.5765,-2.6691,2028
8,-2.0,1.9999,1.9999,2.6201,1.1407,0.7056,1902
8,-2.0,0.564,1.9999,1.8398,2.4294,0.0695,2171
9,-0.8762,-1.5647,-1.1775,0.43,-2.3507,4.3634,2172
9,1.9999,-2.0,-0.1885,-2.2704,0.3113,-1.1994,1525
9,1.519,-0.2034,0.1587,0.1726,1.2585,-0.9044,2089
9,-0.8677,-1.0681,0.3701,-0.8495,1.3933,-1.0239,1997
9,-0.2705,-0.5264,0.1982,-0.838,0.4646,1.1187,1875
9,-0.2932,-0.7202,-0.7415,0.0782,0.6733,0.249,2076
9,0.7791,-1.5227,0.0723,-0.0477,-1.4202,0.1951,2066
9,0.9788,-0.5132,0.051,0.1045,-0.1345,0.5317,2031
9,-0.5037,-1.0012,0.1636,-0.3213,0.1389,0.3935,2091
9,-0.2251,-0.8982,0.3391,-0.2405,-0.4132,0.5087,1797
9,0.134,-0.835,0.8264,-0.1551,0.1149,0.4614,2090
9,-0.2083,-1.293,0.8386,-0.3714,0.6418,0.0232,1982
9,-0.6423,-1.3438,0.8123,-0.496,0.4384,-0.1979,2079
9,-0.2969,-1.1567,0.5652,-0.4006,0.3055,0.0308,2074
9,-0.2292,-1.1343,0.3872,-0.2673,0.2741,-0.0113,2065
9,-0.1812,-1.0544,0.2539,-0.2369,-0.0603,-0.0856,2170
9,0.0391,-0.9768,0.2493,-0.2543,-0.1159,-0.1422,2088
9,0.0388,-0.9429,0.2634,-0.3153,-0.1711,-0.153,2058
9,0.1951,-0.8875,0.2192,-0.2982,-0.191,-0.1012,2068
9,0.22,-0.9138,0.1853,-0.3446,-0.0659,-0.0561,2059
9,0.1868,-0.9702,0.1641,-0.2272,-0.0573,0.0194,2055
9,0.2,-0.9988,0.2275,-0.2073,-0.092,0.0386,2058
9,0.2131,-0.9663,0.2808,-0.3545,-0.0399,0.0803,2053
9,0.1392,-0.9285,0.3335,-0.5105,0.0842,0.1386,2056
9,0.0483,-0.9434,0.3179,-0.5939,0.234,0.1647,2045
9,-0.0247,-0.98,0.1646,-0.3352,0.2756,0.2073,1812
9,-0.1008,-1.0437,0.4062,-0.2145,0.1545,0.1848,2084
9,-0.1257,-1.0398,0.3591,-0.079,-0.0864,0.0863,2055
9,1.0977,1.9999,-0.3521,2.1036,-0.1192,0.4807,2032
9,-1.9304,-2.0,-0.467,-2.8663,2.0491,-1.0798,2129
9,-0.9109,-0.4688,0.8423,0.6714,-3.1059,0.3838,1919
9,-0.4937,-1.7385,0.1323,0.9544,-1.0838,0.0686,2037
9,-0.4802,-1.1619,0.2705,-0.142,0.6457,0.1378,2011
9,0.2053,-1.1096,0.0676,-0.1891,0.6799,0.043,2037
9,0.4478,-0.6929,0.238,0.1591,0.4244,0.2954,2049
9,0.4321,-0.814,0.3806,0.3412,0.5332,0.247,2061
9,0.3333,-0.905,0.3696,0.3183,0.2844,0.3723,2061
9,0.2681,-0.8718,0.3811,0.23,0.345,0.4307,2041
9,0.1497,-0.9302,0.321,0.2519,0.3256,0.3599,2064
9,0.0154,-0.8955,0.3525,0.3529,0.1145,0.3011,2065
9,-0.1099,-0.9846,0.3696,0.3492,-0.0563,0.3205,2070
9,-0.146,-1.0078,0.4214,0.2421,0.0085,0.2828,2052
9,-0.1321,-1.0449,0.4473,-0.0252,0.1216,0.1756,2152
9,-0.2239,-1.0127,0.3762,-0.0197,0.2037,0.0301,2104
9,-0.4731,-1.0681,0.4626,-0.1959,0.1416,-0.0668,1827
9,-0.6384,-1.0259,0.4111,-0.2654,-0.1906,-0.1629,2103
9,-0.4722,-1.0293,0.2825,-0.2601,-0.2983,-0.2253,2048
9,-0.2991,-1.1421,0.2615,-0.3267,-0.3396,-0.3543,2032
9,-0.2847,-1.1038,0.2595,-0.4316,-0.4545,-0.5038,2117
9,-0.3501,-1.0667,0.2461,-0.4542,-0.3437,-0.6417,1947
9,-0.3369,-1.0815,0.3564,-0.5927,-0.3024,-0.711,2081
9,-0.1868,-1.0081,0.3635,-0.7577,-0.2723,-0.7496,2053
9,0.1294,-0.9836,0.3701,-0.8845,-0.0336,-0.8156,2058
9,0.3652,-0.8301,0.3503,-0.9172,0.1248,-0.824,2049
9,0.4021,-0.7617,0.2693,-0.93,0.0807,-0.7629,2046
9,0.4026,-0.7773,0.2361,-0.9854,-0.0236,-0.671,2169
9,0.3218,-0.7651,0.1853,-0.871,-0.1075,-0.5924,2107
9,0.2261,-0.7661,0.2498,-0.9163,-0.1352,-0.5263,2066
9,0.2297,-0.8069,0.2024,-0.948,-0.2224,-0.4902,2050
9,0.3853,-0.7776,0.0481,-0.9638,-0.4042,-0.4437,2039
9,0.6257,-0.8262,0.1096,-0.9776,-0.5548,-0.2745,2002
9,0.636,-0.8037,0.095,-0.9443,-0.6271,-0.1141,2047
9,0.51,-0.7703,0.1711,-0.8325,-0.5753,0.0473,2030
9,0.4155,-0.9297,0.2705,-0.7637,-0.4541,0.173,2058
9,0.354,-1.0532,0.3213,-0.7577,-0.3782,0.2915,2057
9,0.3311,-1.0642,0.3037,-0.7349,-0.3485,0.3832,2058
9,0.2947,-1.043,0.2021,-0.6424,-0.3468,0.4067,2053
9,0.1614,-1.0398,0.0811,-0.5904,-0.3404,0.4557,2055
9,0.0654,-1.0137,-0.061,-0.4697,-0.3151,0.4856,2054
9,0.0701,-1.0215,-0.0818,-0.3516,-0.2121,0.447,2054
9,0.0117,-0.9995,-0.0386,-0.2116,-0.0482,0.4144,2061
9,-0.0027,-1.0881,-0.011,-0.1598,0.0073,0.4081,2055
9,0.0544,-1.0496,-0.0374,-0.0382,0.038,0.3681,2055
9,0.054,-1.0232,0.0405,-0.0049,0.1559,0.351,2058
9,0.0781,-0.9851,0.0532,0.032,0.2376,0.3438,2056
9,0.1409,-0.959,0.0847,0.0884,0.235,0.3125,2051
9,0.1304,-0.9761,0.1353,0.1563,0.2526,0.3167,2035
9,0.1206,-0.9651,0.1147,0.1728,0.1754,0.3197,2061
9,0.0928,-0.9863,0.1245,0.1852,0.1093,0.3079,2052
9,0.0354,-1.0251,0.1899,0.185,0.1206,0.2654,2047
9,-0.0242,-1.0205,0.1765,0.1559,0.129,0.2422,2064
10,-0.0764,-0.9912,0.1506,0.1382,0.1374,0.2173,2040
10,-0.0779,-0.9963,0.1755,0.1288,0.1858,0.1471,2058
10,-0.0654,-0.9917,0.2043,0.1755,0.2887,0.069,2048
10,-0.1169,-0.9897,0.1936,0.2056,0.408,0.0111,2048
10,-0.2668,-0.9375,0.2007,0.2535,0.6596,-0.0569,2047
10,-0.1047,-1.0134,0.1577,0.2148,0.8564,-0.1936,2035
10,0.1477,-1.105,0.0752,0.1374,0.6634,-0.2562,2041
10,0.1304,-1.0928,0.0759,-0.0933,0.1277,-0.0598,2036
10,-0.2754,-1.0168,0.0732,0.0538,-0.2964,-0.0796,2013
10,-0.4561,-1.0178,0.0271,0.196,-0.2978,-0.3047,2034
10,-0.4287,-1.0615,0.2905,0.1561,-0.1143,-0.3723,2108
10,-0.3154,-0.9878,-0.106,0.278,-0.2766,-0.4524,1988
10,0.0703,-1.054,0.1021,0.3629,-0.1217,-0.5726,2077
10,0.1304,-1.1562,0.0283,0.3581,-0.0558,-0.6352,2070
10,0.4675,-0.9124,0.1277,0.4472,0.128,-0.5172,2064
10,0.6204,-0.8625,0.0354,0.5038,0.248,-0.3554,2066
10,0.8079,-0.9077,0.1038,0.5584,0.2023,-0.1148,2068
10,0.8132,-0.8149,0.1001,0.5753,0.4378,0.1202,2071
10,0.7551,-0.8108,0.2043,0.695,0.5456,0.3484,2062
10,0.8589,-0.7485,0.1606,0.8744,0.5928,0.5747,2048
10,0.8152,-0.7634,0.0911,1.0345,0.6022,0.8204,2015
10,0.6306,-0.7825,0.1006,1.219,0.7825,1.0252,2054
10,0.4431,-0.9082,0.1594,1.3528,0.9084,1.3515,2050
10,0.3577,-0.7798,0.123,1.6824,0.9957,1.6825,1764
10,0.2954,-0.8057,0.3491,2.0981,1.2854,2.0909,2035
10,0.1204,-0.9729,0.5278,2.646,1.4715,2.7738,2045
10,0.0344,-1.2117,0.7402,3.1425,1.4426,2.4266,2046
10,0.2617,-1.1326,0.9155,3.5082,1.3993,2.0029,2082
10,0.2566,-1.04,0.6833,3.7167,1.1628,2.0654,2026
10,0.2458,-1.4382,0.7937,3.3931,0.2871,2.0033,2037
10,0.2864,-1.4978,0.6604,2.0379,-0.8087,1.0933,2068
10,0.1243,-1.1008,0.5002,1.2376,-1.1621,0.7257,2066
10,0.2039,-1.3708,0.541,0.7799,-2.0149,0.2613,2054
10,0.1455,-1.571,0.397,-0.0141,-2.9292,-0.1173,2047
10,0.7478,-1.5771,-0.0513,-0.308,-3.7934,-0.4614,2053
10,0.5681,-1.4592,-0.4299,-0.8176,-4.3417,-1.0834,1982
10,0.1895,-1.6697,-0.3718,-1.3984,-4.3635,-1.5342,2003
10,0.1199,-1.5168,-0.2385,-1.2398,-4.3635,-1.6246,1776
10,-1.0713,-0.8633,-0.2961,-1.2252,-3.907,-1.6552,2033
10,-2.0,-0.5291,0.7607,-1.5797,-0.5381,-1.5596,1855
10,-0.5051,0.3518,1.0845,-2.5328,-0.4468,-1.1166,2040
10,-2.0,1.3662,1.9999,1.1512,-0.3404,-0.5867,2037
10,-2.0,0.145,1.9999,0.1828,2.745,-0.0129,2125
10,1.3252,-1.5471,-0.2134,-2.5139,-0.8536,2.728,2190
10,1.9999,-0.8718,-0.8203,-1.7317,1.3692,-0.6136,1996
10,-0.7439,-0.7842,0.2141,-1.1459,2.4542,0.2947,1994
10,-0.7393,-0.6978,0.6228,-1.4213,1.4383,-0.2298,2064
10,0.4084,-1.4421,-0.0576,-1.9342,0.3666,-0.1989,2071
10,0.4719,-0.9111,-0.0496,-1.7899,0.0109,0.4413,2032
10,-0.4502,-0.7939,0.147,-1.4099,-0.7134,0.7841,2107
10,-0.5288,-0.8655,0.4128,-0.9291,-0.9827,0.9361,2079
10,-0.4221,-1.2539,0.9817,-0.5462,-0.7315,0.6376,2083
10,-0.3669,-1.4087,0.9817,-0.4802,-0.3314,0.1875,2104
10,0.3757,-1.9851,1.9999,-0.6151,-1.7626,-0.4016,2050
10,1.135,0.0854,-0.9333,-0.6552,1.1033,-0.8698,2062
10,-2.0,-0.593,0.7766,0.4811,-2.029,0.1233,1694
10,-1.5029,-1.5818,0.0474,-1.642,0.5433,-0.8151,2060
10,0.2534,-1.1782,0.3132,0.3938,0.5373,-1.2663,2089
10,-0.3665,-1.9468,-1.2668,0.0438,0.6899,-0.6683,2118
10,0.4165,-1.2791,0.1069,-0.2955,-0.1834,-0.6112,2049
10,0.1992,-0.6555,0.0823,-0.3779,0.3767,-0.34,2048
10,0.3191,-1.0088,-0.0183,-0.2116,0.0563,-0.2719,2053
10,0.5391,-1.0613,0.3018,-0.334,0.2461,-0.2238,2057
10,0.6511,-0.8279,0.5061,-0.3923,0.4038,-0.0641,2051
10,0.6262,-0.7363,0.5005,-0.3605,0.3223,-0.0453,2056
10,0.4561,-0.8013,0.5674,-0.3782,0.2842,0.0049,2060
10,0.2354,-0.9629,0.5645,-0.4713,0.2304,0.0437,2061
10,0.0906,-1.0225,0.5063,-0.6188,0.1093,0.0,2052
10,-0.1165,-1.0408,0.4219,-0.7159,0.0427,-0.0883,2065
10,-0.2778,-1.0701,0.4143,-0.7706,0.0257,-0.2084,2055
10,-0.4309,-1.0439,0.2903,-0.8212,0.1306,-0.3542,2066
10,-0.4797,-0.9412,0.2036,-0.8509,0.1904,-0.4733,2072
10,-0.2961,-0.937,0.0376,-0.7605,0.1117,-0.5256,1720
10,0.0068,-1.0906,0.2549,-0.7891,-0.2738,-0.4726,2114
10,0.002,-1.0898,0.0459,-0.7652,-0.5163,-0.3625,2055
10,-0.1711,-0.9854,-0.082,-0.7237,-0.6189,-0.4405,2014
10,0.1167,-1.0525,0.1052,-0.7158,-0.285,-0.5012,2046
10,0.1814,-0.9163,0.2222,-0.7815,-0.1527,-0.4241,2061
10,0.418,-0.8337,0.1609,-0.7241,-0.1362,-0.3381,2063
10,0.5171,-0.8865,0.1392,-0.7726,-0.241,-0.2952,2060
10,0.5139,-0.7905,0.1431,-0.7323,-0.302,-0.2141,2028
10,0.5225,-0.7046,0.1533,-0.5767,-0.3223,-0.1382,2056
10,0.5693,-0.8938,0.1409,-0.5011,-0.4165,-0.1,2056
10,0.5193,-0.9839,0.0222,-0.475,-0.5584,0.0035,2053
10,0.3843,-0.9536,-0.052,-0.4324,-0.5164,0.0767,2046
10,0.179,-0.998,-0.0386,-0.3585,-0.3947,0.1345,2051
10,0.0635,-1.0815,-0.0012,-0.3369,-0.2828,0.1523,2058
10,0.0632,-1.0117,-0.0081,-0.2667,-0.1474,0.1454,2057
10,0.2246,-0.9346,-0.0071,-0.1441,-0.0965,0.1522,2060
10,0.3123,-0.9304,0.0505,-0.0059,-0.1589,0.1828,2058
10,0.2759,-0.9846,-0.0205,0.0976,-0.1523,0.231,2057
10,0.2151,-1.0093,-0.0525,0.1547,-0.0787,0.2461,2043
10,0.1323,-1.021,-0.0308,0.1899,0.0498,0.2697,2056
10,0.072,-1.0146,0.0159,0.2575,0.0995,0.3215,2045
10,0.1853,-1.0024,0.1062,0.2657,0.1458,0.265,2045
10,0.1248,-0.9973,0.1936,0.2617,0.1792,0.2609,2058
10,0.1589,-1.0034,0.1416,0.2085,0.132,0.2484,2052
10,0.1633,-0.9883,0.1663,0.2083,0.0686,0.2301,2051
10,0.085,-0.979,0.1667,0.1772,0.0047,0.2151,2042
10,0.1082,-0.9856,0.0955,0.1637,-0.0526,0.1814,2051
10,0.1128,-0.9929,0.1125,0.1806,-0.084,0.1551,2055
10,0.071,-0.9861,0.1289,0.1948,-0.0712,0.1308,2055
10,0.1335,-0.9988,0.0994,0.2055,-0.074,0.124,2057
10,0.1558,-0.9924,0.1194,0.2353,-0.045,0.0992,2055
10,0.1072,-1.0098,0.1545,0.2503,-0.027,0.0984,2058
10,0.062,-0.9834,0.1592,0.2237,-0.065,0.0891,2062
10,-0.0256,-0.9482,0.1807,0.2581,-0.1245,0.0633,2053
10,-0.0129,-0.9846,0.1426,0.3059,-0.1699,0.0304,2050
10,0.0266,-1.033,0.156,0.3229,-0.2193,0.0212,2062
10,0.1262,-1.0276,0.085,0.2706,-0.1204,0.0157,2052
10,0.1572,-0.9844,0.1165,0.2984,0.0415,0.07,2041
10,0.2402,-0.9639,-0.0437,0.4405,0.0491,0.1197,2048
10,0.4766,-0.9333,-0.0696,0.5797,0.0739,0.1911,2030
10,0.5791,-0.9133,0.0046,0.7241,0.2876,0.357,2055
10,0.5513,-0.9023,0.009,0.8957,0.4982,0.5384,2050
10,0.635,-0.907,0.0576,1.0182,0.7072,0.7321,2053
10,0.6819,-0.8423,0.1545,1.1384,0.9411,0.9479,2054
10,0.5635,-0.8198,0.2896,1.2207,1.087,1.126,2068
10,0.4424,-0.8357,0.3479,1.3379,1.0565,1.2439,2078
10,0.2913,-0.9783,0.4956,1.3725,1.024,1.3179,2034
10,-0.0286,-1.1914,0.5808,1.2794,0.9883,1.3203,2008
10,-0.1082,-1.1467,0.4751,1.2788,0.9383,1.1929,1944
10,-0.0288,-1.1694,0.6533,1.0753,0.8178,0.8986,2069
11,-0.106,-1.0752,0.5466,0.9166,0.316,0.6745,2048
11,-0.2576,-1.1316,0.4727,0.8006,0.0337,0.3984,2056
11,-0.5562,-1.231,0.3486,0.6255,0.08,0.0229,2058
11,-0.8406,-1.207,0.1641,0.5565,0.4212,-0.3271,2059
11,-0.7297,-1.5518,0.3113,0.0312,0.693,-0.5928,2067
11,-0.5635,-1.4661,0.1182,-0.6094,0.6082,-0.8821,2054
11,-0.0452,-1.0896,-0.1433,-0.757,0.667,-1.4793,2052
11,0.5776,-1.1729,0.2166,-0.719,1.0082,-1.8422,2032
11,0.9216,-0.6853,0.1309,-0.715,0.5051,-2.1253,2049
11,1.115,-0.7776,0.6091,-0.5746,-0.0241,-2.4115,2002
11,0.991,-0.0725,0.3552,-0.348,-0.7122,-2.7458,2031
11,1.2234,-0.4436,0.3499,-0.2316,-0.7458,-2.6548,2026
11,-0.3164,-1.0786,0.6392,-1.2665,0.2361,-1.6704,1947
11,-2.0,-0.4246,-0.5938,-1.1786,-0.2131,0.5422,1990
11,-0.8975,1.28,1.2224,1.3395,-0.7348,1.5235,2006
11,-0.8242,-0.0835,0.7056,0.8271,-0.8929,2.1094,2203
11,0.8894,-2.0,-0.5642,-0.2514,-0.3703,1.3707,2282
11,1.6831,-1.7881,-0.6824,-0.4743,1.3655,0.0204,2053
11,-0.6924,0.1702,0.1155,-0.2159,0.9497,0.3208,2079
11,-0.436,-0.9475,0.0227,-0.0919,0.3016,0.6586,2067
11,0.4924,-1.4648,0.1626,-0.3139,0.3369,0.4211,2068
11,0.2942,-1.0627,0.3254,-0.174,0.1545,0.8894,2060
11,-0.4844,-1.0642,0.6018,-0.1627,0.4085,0.7371,2048
11,-0.3748,-1.1653,0.8025,-0.0703,0.4827,0.6237,2075
11,-0.1082,-1.0532,0.6282,-0.1826,0.8176,0.5522,2072
11,-0.1428,-1.0027,0.3186,-0.2838,0.6777,0.488,2175
11,-0.1826,-0.9685,0.2566,-0.151,0.5478,0.4413,2106
11,-0.156,-1.082,0.1895,-0.0607,0.4404,0.3717,2080
11,-0.0071,-1.1882,0.2007,-0.1075,0.4516,0.2762,2059
11,0.0476,-0.9905,0.1572,-0.0264,0.3799,0.3939,2051
11,0.0645,-0.7732,0.0601,0.0646,0.3516,0.3629,2053
11,0.0134,-0.9587,0.0718,0.1167,0.2499,0.3827,2062
11,0.1179,-0.9451,0.0977,0.1408,0.2071,0.3844,2056
11,0.0925,-0.8728,0.1672,0.0077,0.2466,0.2842,2041
11,0.1482,-1.114,0.2185,-0.2207,0.3188,0.2727,2050
11,0.0986,-0.9304,0.2417,-0.2742,0.4875,0.3819,2056
11,0.031,-0.8545,0.2422,-0.2991,0.5951,0.4227,2056
11,-0.0918,-0.9338,0.2866,-0.3199,0.7118,0.4267,2064
11,-0.248,-0.9915,0.3083,-0.2207,0.6309,0.3962,2070
11,-0.3323,-1.0012,0.2773,-0.0189,0.5232,0.4132,2027
11,-0.303,-1.009,0.312,-0.0511,0.3655,0.3285,2110
11,1.6917,-1.0283,1.2075,0.72,-1.8391,0.0285,1906
11,0.2605,-0.3679,-0.2407,0.8232,3.3115,-0.1686,2104
11,-2.0,-1.3328,0.8901,0.9773,-3.0862,0.9493,2047
11,-0.4714,-1.4517,0.0315,0.6283,-1.3129,-0.936,1986
11,0.1929,-1.052,0.5037,1.2926,-1.5235,-0.7211,1957
11,-0.5647,-1.5562,-0.3279,0.4769,0.2906,-0.072,2061
11,0.1943,-0.7664,0.2874,0.666,0.2274,-0.2063,2039
11,-0.105,-1.0474,0.4851,0.4077,0.4223,-0.0268,2067
11,0.1199,-0.9697,0.5208,0.2197,0.4968,0.0205,2063
11,0.3281,-0.8691,0.3164,0.0835,0.1256,0.0578,2049
11,0.187,-0.9131,0.3567,0.0027,-0.0985,0.0695,2045
11,0.1035,-0.9294,0.4343,-0.14,-0.1293,-0.0041,2058
11,-0.0137,-0.8567,0.426,-0.18,-0.1205,-0.0778,2047
11,-0.2104,-0.9336,0.4688,-0.2718,0.0182,-0.1329,2055
11,-0.2351,-1.0161,0.4922,-0.4264,-0.0475,-0.1738,2056
11,-0.1802,-1.0732,0.4717,-0.5938,-0.2188,-0.2324,2049
11,-0.2217,-1.0044,0.4297,-0.7608,-0.2699,-0.3394,2056
11,-0.4084,-0.9583,0.4333,-0.8268,-0.1256,-0.4755,2059
11,-0.5178,-0.9626,0.4233,-0.8,0.0218,-0.6209,2160
11,-0.5588,-0.9636,0.2461,-0.6901,0.2531,-0.803,1915
11,-0.5125,-0.9971,0.4114,-0.8973,0.2,-0.8513,2121
11,-0.2996,-0.989,0.1677,-0.8694,-0.0944,-0.844,1891
11,-0.0952,-1.0032,0.1609,-0.8191,-0.6505,-0.7441,2080
11,-0.2776,-1.1091,-0.0645,-0.8633,-0.5906,-0.813,2035
11,-0.0188,-1.0513,-0.0432,-0.9657,-0.3831,-0.8922,2041
11,0.2131,-0.8682,0.125,-0.9584,-0.2366,-0.8853,2066
11,0.4363,-0.6985,0.127,-0.9068,-0.0365,-0.7341,2079
11,0.7656,-0.6831,0.1514,-0.8993,-0.1474,-0.5733,2057
11,1.1184,-0.6289,0.2368,-0.8304,-0.4313,-0.3591,2053
11,1.0386,-0.6714,0.2957,-0.7297,-0.4767,-0.1196,2056
11,0.7886,-0.8901,0.2439,-0.5818,-0.5576,-0.014,2060
11,0.46,-1.1016,0.2446,-0.5047,-0.6015,0.1938,2063
11,0.1655,-1.1379,0.2136,-0.5349,-0.4931,0.2886,2049
11,0.0496,-1.1011,0.2129,-0.5405,-0.2643,0.2919,2058
11,0.0659,-1.0403,0.1641,-0.504,-0.034,0.2826,2061
11,0.0698,-1.0151,0.0405,-0.3456,-0.0268,0.2627,2075
11,0.0071,-1.0422,-0.0183,-0.232,-0.163,0.302,2054
11,0.0234,-1.0142,0.0408,-0.0574,-0.2017,0.3735,2053
11,0.084,-0.9663,-0.2378,0.1822,-0.0317,0.2609,2047
11,0.0159,-0.9792,-0.1472,0.3133,0.0356,0.2931,2166
11,-0.052,-0.9988,-0.1345,0.4267,-0.0023,0.2878,2082
11,-0.1035,-1.105,-0.042,0.4974,0.1228,0.2422,2122
11,-0.1555,-1.0491,0.2791,0.3858,0.3139,0.2072,2036
11,-0.1853,-1.0513,0.3765,0.3402,0.3599,0.0888,2057
11,-0.1077,-1.0776,0.4141,0.293,0.2061,-0.0494,2106
11,-0.0232,-1.0088,0.3472,0.2139,-0.057,-0.053,2034
11,0.1174,-0.9868,0.1768,0.1699,-0.1269,-0.0622,2053
11,0.0352,-0.938,0.2104,0.1708,-0.0939,-0.1253,2058
11,-0.0396,-0.981,0.1731,0.2011,-0.0068,-0.1707,2015
11,-0.0444,-1.0391,0.2256,0.1401,0.0502,-0.2045,2036
11,-0.0608,-0.9978,0.2678,0.1097,-0.0573,-0.2621,2057
11,-0.1316,-1.0276,0.1804,0.0956,-0.1226,-0.3647,2051
11,-0.1218,-1.0227,0.1453,0.0899,-0.2116,-0.4579,2044
11,-0.1335,-1.0164,0.1841,0.0052,-0.3508,-0.5437,2056
11,-0.1353,-0.9851,0.1348,-0.0056,-0.433,-0.6312,2013
11,-0.0771,-1.0264,0.179,-0.0184,-0.4602,-0.7192,2057
11,-0.0574,-1.0386,0.1777,-0.0226,-0.3785,-0.7726,2059
11,-0.0327,-1.0244,0.1326,0.0306,-0.2322,-0.8661,2062
11,0.0598,-1.0361,0.126,0.0842,-0.1611,-0.8829,2058
12,0.3679,-0.9131,-0.0364,0.1482,-0.2782,-0.7439,2065
12,0.9607,-0.7273,-0.1816,0.2167,-0.3192,-0.4283,2028
12,1.2722,-0.5295,-0.1941,0.3775,-0.0186,-0.0582,2051
12,1.3174,-0.5422,-0.1038,0.5505,0.3798,0.334,2059
12,1.2043,-0.7168,0.05,0.7058,0.6434,0.6927,2059
12,0.9749,-0.8274,0.1611,0.8303,0.7236,1.0496,2039
12,0.7705,-0.8386,0.2542,0.9092,0.7283,1.3704,2046
12,0.5012,-0.823,0.3352,0.9895,0.7949,1.5759,2057
12,0.2935,-0.8677,0.3401,1.1571,0.8793,1.6592,2037
12,0.2805,-0.9648,0.3435,1.3738,0.8589,1.7239,2101
12,0.2419,-1.0916,0.3289,1.7389,0.7871,1.9678,2080
12,0.0952,-1.2869,0.4846,1.8134,1.0049,2.2779,2109
12,-0.0684,-1.0691,0.5552,2.0178,0.9678,2.1921,1995
12,0.1294,-1.0381,0.5972,1.7552,1.0086,1.9761,2035
12,0.2058,-1.2539,0.5239,1.704,0.3954,1.5896,2069
12,0.1667,-1.2227,0.4299,1.2596,-0.5086,1.0364,2049
12,-0.1018,-1.1733,0.2439,0.9909,-0.8261,0.534,2045
12,-0.4141,-1.4888,0.2202,0.2294,-0.6794,0.1835,2066
12,-0.364,-1.8315,-0.25,-0.9561,-0.7766,-0.0445,2056
12,0.0032,-1.1184,-0.4924,-0.7779,-1.0537,-0.6707,2007
12,0.0815,-1.053,-0.1265,-0.3737,-1.0765,-1.2647,2032
12,0.0098,-1.123,-0.0227,-0.7589,-0.6343,-1.904,1948
12,-0.301,-0.7493,-0.073,-1.4355,-0.3428,-2.5286,2038
12,-0.094,-0.9614,0.4939,-0.928,0.0129,-2.8659,2024
12,-0.2002,0.1292,-0.2102,-0.732,0.8585,-3.2431,1958
12,0.2458,-2.0,1.1436,-1.6996,1.5314,-1.8451,2135
12,-2.0,1.1421,0.75,-1.0682,1.0372,-1.5605,1958
12,-2.0,0.4971,1.9999,1.0858,1.7092,0.4934,2156
12,-1.4585,-0.8628,0.3254,-0.8008,-0.5336,1.5195,2146
12,1.7976,-2.0,-0.0115,-0.8325,-0.6766,1.0508,2066
12,0.989,-0.9131,-0.0903,-0.869,0.5653,-1.1148,1761
12,-0.4766,-0.8076,0.5,-0.0137,1.444,-0.0353,2008
12,-0.0701,-0.8291,0.125,-0.3402,1.3306,0.3104,2063
12,-0.0496,-1.1348,-0.1755,0.206,0.3753,0.0252,2059
12,0.2427,-0.9634,0.3796,0.0891,-0.1077,0.143,2066
12,0.2363,-0.9563,0.4617,-0.2432,0.5898,0.2748,2026
12,-0.429,-1.2173,0.395,-0.1186,0.2623,0.2338,2050
12,-0.2463,-1.0471,0.564,0.0477,0.2818,0.1832,1904
12,0.0803,-1.1511,0.3376,-0.0455,0.7815,0.0928,1812
12,-0.1304,-1.0444,0.2415,-0.0253,0.3742,0.1517,2126
12,-0.0061,-1.0239,0.22,0.0491,0.1414,0.1693,2068
12,0.1487,-0.8882,0.1758,0.0762,0.2212,0.1798,2054
12,0.2163,-0.8596,0.134,0.0562,0.3004,0.185,2059
12,0.2612,-0.8198,0.1194,-0.0388,0.5064,0.2751,2062
12,0.2771,-0.7979,0.0608,-0.0906,0.5655,0.3794,2059
12,0.3547,-1.0476,0.1165,-0.24,0.5931,0.2719,2051
12,0.144,-0.9751,0.1343,-0.1792,0.6104,0.1681,2054
12,-0.0264,-1.0015,0.261,-0.2756,0.3812,0.1157,2037
12,-0.0913,-1.0361,0.3474,-0.4943,0.2151,0.1645,2047
12,0.2517,-0.6633,0.3679,-0.4044,0.0513,0.3501,2189
12,1.9999,-0.5669,-0.5452,0.5024,2.956,-0.5062,2148
12,-1.6907,-2.0,1.2124,-0.0356,-0.4315,0.1266,2141
12,-0.813,-1.093,0.9319,0.8975,-1.0065,-0.1892,2028
12,0.5132,-0.3467,0.7864,1.3107,-1.1842,0.0884,2066
12,-0.2612,-0.9348,-0.0959,0.6115,-0.5859,0.3502,2074
12,-0.687,-1.407,-0.3047,0.4093,0.3414,0.078,2060
12,-0.1812,-0.9265,0.3152,0.2123,0.4299,0.0056,2036
12,0.019,-0.9519,0.0464,0.0983,0.7506,0.2139,2042
12,0.167,-1.021,-0.0034,0.1084,0.4954,0.1312,2046
12,0.1277,-0.95,0.0815,0.187,-0.2413,0.2108,2039
12,0.0527,-0.8318,0.2278,0.2125,-0.3386,0.2196,2049
12,-0.0859,-0.8899,0.4268,0.0847,-0.2923,0.1449,2053
12,-0.0254,-0.9001,0.5078,0.0397,-0.3828,0.0678,2065
12,-0.0828,-0.9949,0.6003,-0.0281,-0.3986,0.0389,2070
12,-0.2781,-1.0266,0.6858,-0.1711,-0.3673,-0.0225,2048
12,-0.373,-1.0469,0.6187,-0.2702,-0.3087,-0.1385,2079
12,-0.2488,-1.0452,0.6111,-0.1638,-0.0226,-0.2966,2157
12,-0.3308,-1.0068,0.5999,-0.4364,0.1956,-0.4287,2187
12,-0.448,-1.0415,0.4705,-0.4787,0.0479,-0.5044,1869
12,-0.397,-1.0583,0.3757,-0.4524,-0.0557,-0.6601,1842
12,-0.4348,-1.0737,0.3376,-0.4895,-0.0208,-0.8293,2066
12,-0.6663,-1.084,0.3298,-0.6067,-0.2135,-0.9983,2152
12,-0.7161,-1.2161,0.3132,-0.7148,-0.4516,-1.1629,2300
12,-0.7178,-1.2263,0.4612,-0.9003,-0.4657,-1.3291,2246
12,-0.9001,-1.1077,0.4822,-0.9814,-0.3217,-1.568,1949
12,-0.8584,-1.2168,0.6975,-1.0629,-0.289,-1.7484,2123
12,-0.6709,-1.3628,0.7634,-1.1227,-0.2884,-1.8679,2075
12,-0.2952,-1.635,0.957,-0.9023,-0.4394,-2.0277,2074
12,-0.1855,-1.5574,1.1489,-0.612,-0.5502,-2.1043,2118
12,-0.1565,-1.3345,1.2949,-0.2764,-0.5618,-2.0449,2058
12,-0.1731,-1.3455,1.4641,-0.1433,-0.5343,-1.9004,2072
12,0.071,-0.9417,1.3608,-0.124,-0.8171,-1.7937,2086
12,0.5066,-0.7146,0.9561,0.0,-1.387,-1.919,2109
12,0.835,-0.5078,0.6184,-0.0964,-2.1357,-2.2362,2044
12,0.7288,-0.2922,0.1794,-0.1944,-2.461,-2.1331,2015
12,1.0576,-0.3308,-0.0237,0.0153,-3.1887,-1.8287,2030
12,1.0801,-0.228,0.1472,0.577,-3.4424,-1.9213,2042
12,1.0779,-0.2234,0.0173,0.6393,-4.3635,-1.3873,2064
12,1.0444,0.1392,-0.2927,0.9015,-4.3635,-0.8801,2064
12,0.2297,0.0039,-0.2783,1.0749,-4.3635,-0.5637,2044
12,-0.6523,0.5391,0.1362,1.0356,-4.0841,-0.314,2000
12,-0.8271,0.908,0.4072,1.7048,-2.3378,-0.0382,2022
12,-0.4932,0.9209,0.3257,2.5875,-1.0978,0.3385,2053
12,-0.0645,0.7136,0.1616,3.0618,-1.2235,0.9032,2034
12,0.1157,0.2842,0.126,3.8396,-1.9325,1.4319,2055
12,0.4624,-0.1204,0.3789,3.9056,-2.0061,1.9313,2058
12,0.7473,-0.4075,0.3555,3.8607,-1.8566,2.5133,2050
12,0.8948,-0.5137,0.1448,3.2143,-2.2253,2.9476,2054
12,0.9368,-0.7439,-0.3459,2.3911,-2.2911,3.2524,2053
12,0.6489,-2.0,-1.1309,0.7806,-1.9875,2.2409,2064
12,1.9999,-2.0,-2.0,-1.6743,-4.3635,1.3375,2111
12,1.9999,-2.0,0.2798,1.4167,-2.7771,-0.2764,1923
12,0.0859,-0.0347,-1.374,-2.6193,-0.3879,-0.1384,2111
