,Unnamed: 0,timestamp,node,accx,accy,accz,gyrox,gyroy,gyroz,q0,q1,q2,q3,timestamp.1,node.1,accx.1,accy.1,accz.1,gyrox.1,gyroy.1,gyroz.1,q0.1,q1.1,q2.1,q3.1,timestamp.2,node.2,accx.2,accy.2,accz.2,gyrox.2,gyroy.2,gyroz.2,q0.2,q1.2,q2.2,q3.2,timestamp.3,node.3,accx.3,accy.3,accz.3,gyrox.3,gyroy.3,gyroz.3,q0.3,q1.3,q2.3,q3.3,timestamp.4,node.4,accx.4,accy.4,accz.4,gyrox.4,gyroy.4,gyroz.4,q0.4,q1.4,q2.4,q3.4,timestamp.5,node.5,accx.5,accy.5,accz.5,gyrox.5,gyroy.5,gyroz.5,q0.5,q1.5,q2.5,q3.5,timestamp.6,node.6,accx.6,accy.6,accz.6,gyrox.6,gyroy.6,gyroz.6,q0.6,q1.6,q2.6,q3.6,timestamp.7,node.7,accx.7,accy.7,accz.7,gyrox.7,gyroy.7,gyroz.7,q0.7,q1.7,q2.7,q3.7,timestamp.8,node.8,accx.8,accy.8,accz.8,gyrox.8,gyroy.8,gyroz.8,q0.8,q1.8,q2.8,q3.8
0,0,0.0450000000000727,0.0,-5.4851473022436077e-17,8.532515355306648e-18,1.0,-0.0104427997191171,0.0001828277374011,-0.0206421135756034,0.9999993310272308,-0.0005221396366584,8.602477470607484e-06,-0.0010321052697125,0.0450000000000727,1.0,-7.37508936121129e-17,-4.1070019304202646e-17,1.0,0.0015676867852737,-0.004690712522825,-0.030344149811284,0.999998818495148,7.83842466522058e-05,-0.0002344164238701,-0.001517205707298,0.0459999999998217,2.0,1.12158290139081e-16,1.34090952209e-17,1.0,0.004282039276642,-0.0013031007794557,-0.0184017014987404,0.9999995516923909,0.0002141018678485,-6.495801783016726e-05,-0.0009200847046322,0.0459999999998217,3.0,4.451844095291361e-17,-1.9426080330223818e-17,1.0,-0.0063145740743996,0.0015454081598922,-0.0185536101636213,0.999999516899626,-0.0003157285511913,7.697747544242834e-05,-0.0009276801524936,0.0459999999998217,4.0,-2.5551923237204186e-18,3.092629891180673e-17,1.0,0.0013623556459606,-0.0035846564437246,-0.0237013128429365,0.9999992794427308,6.811773321526837e-05,-0.0001791519690534,-0.0011850647937379,0.0,5.0,2.155093066274426e-17,5.820152297272005e-17,1.0,0.0266769649657487,0.0099492250156566,0.0012826821146658,0.999998984678076,0.001333846894002,0.0004973752006217,6.413415472067845e-05,0.0630000000001018,6.0,1.4783128361499113e-18,-3.6262445655140814e-18,1.0000000000000002,0.0082250118800946,-0.0026847334884633,-0.0203834257743611,0.9999993871282372,0.0004112503419608,-0.0001338174576122,-0.001019170836466,0.0,7.0,8.928944755526854e-17,2.7243853501793602e-17,1.0,0.0180996883266279,0.025679192674424,-0.015112027967011,0.9999984798834796,0.0009049830406496,0.0012846414884039,-0.0007556008685825,0.0,8.0,2.856798081016652e-17,-5.692416374261086e-17,1.0,0.0107435712814055,0.0083502868550545,-0.0036226874138998,0.9999997521151048,0.0005371784309118,0.0004176115407342,-0.0001811343780627
1,1,0.1430000000000291,0.0,-9.458836912014304e-17,-3.0229153849458226e-17,0.9796433024320635,-0.004405092238222,0.0031487496116324,-0.0241912323153184,0.9999972356791108,-0.0006900273172718,0.0001645719657595,-0.002241743184778,0.1430000000000291,1.0,0.000227530520151,-0.0009094395790896,0.9793529093996268,-0.0001913737310102,0.0065776773855005,-0.0263373966062961,0.999995978342004,1.5336754534359662e-05,0.0001063967454565,-0.0028340332275374,0.143999999999778,2.0,9.638046328351104e-17,-1.0456788506300028e-17,0.97957031396424,-0.0001012677194727,0.0141609759834388,-0.0372228221040653,0.9999959038738984,0.0001884003288576,0.0006499390863146,-0.0027810645308858,0.143999999999778,3.0,3.3718416741303365e-17,-2.682656964371496e-17,0.9797152647580828,-0.0054330458181539,0.0081198667072886,-0.0375613159633285,0.9999957967147344,-0.0005555743123098,0.0004744798429432,-0.0028058437100741,0.143999999999778,4.0,-0.0009957476621711,-0.0009998270635639,0.9790148154305104,-0.0034118475831767,0.0085280807507004,-0.0605630089243376,0.9999910619829512,-0.0001592394841392,0.000315798675626,-0.0042131779208833,0.0630000000001018,5.0,-0.0011086252801061,0.0027073542937042,0.9794388399398488,0.0167171622589874,0.0089222391995128,-0.0228040686158374,0.999996604249038,0.0021739256454553,0.0009528834810902,-0.0010758953258722,0.1390000000001237,6.0,2.841085320415157e-18,-5.238806230011416e-18,0.9803111750867682,-0.0025094283243594,-0.0034255427270064,-0.0141727380688801,0.9999984348221704,0.0002445742880362,-0.0002914113670713,-0.001727893527452,0.0630000000001018,7.0,-0.0018879636072847,0.0011934463601423,0.9791450409817756,0.0088714864501325,-0.0032126615756453,-0.039330946934062,0.999994827923644,0.0013164233678243,0.0010941587683129,-0.0027228610077858,0.0630000000001018,8.0,9.666799413174346e-18,-8.937424145554631e-17,0.9798872384106244,0.0067070242701454,0.0078080040200271,-0.0162970170760409,0.9999988750366592,0.0008185416875619,0.0007668562695699,-0.0009959148473181
2,2,0.1739999999999781,0.0,-0.0008171175146338,0.000385372182415,0.9792145749565048,0.0037456527180267,0.0114982329115641,-0.0322207103776754,0.999992199741454,-0.0004129481267197,0.0007636153028369,-0.0038531573756806,0.1739999999999781,1.0,-0.0007092914034004,-0.0012114041471402,0.9795294938927042,-0.0040712811595543,0.0171122544015661,-0.0348370721282016,0.9999890117982934,-0.0002492519279888,0.0009878835388866,-0.0045758324119763,0.1750000000001819,2.0,-0.0009525464099125,-0.0001525971759788,0.979833694751022,-0.0039313176324337,0.0133154641628464,-0.0270459399758211,0.9999906133124068,-3.3682839602366026e-05,0.0012998415929128,-0.0041331058994579,0.1750000000001819,3.0,-7.689663284987459e-05,-0.0009954573559401,0.9797714035179638,0.0018274935447192,0.0069495727821402,-0.0297141371975591,0.99999038244498,-0.0004591616997775,0.0007776350385123,-0.0042917912138115,0.1750000000001819,4.0,-0.001895652242059,-5.270287652835394e-05,0.9795562279547736,0.0113470295409897,0.0082898194763381,-0.0478647563569395,0.9999777716734928,0.0004227317288638,0.0007940911410964,-0.0066065782414957,0.1390000000001237,5.0,-0.00103817913258,0.0032734234864146,0.9786174977399328,0.0108303268408429,-0.0143391382870818,-0.0076786412306526,0.999995363658895,0.0026642122869092,0.0001939443936383,-0.0014618547044535,0.2190000000000509,6.0,2.841085320415157e-18,-5.238806230011416e-18,0.9803111750867682,0.0025520319952289,-0.00067107372871,-0.0118057190044273,0.9999972088357634,0.0003478321313249,-0.0002958389722494,-0.0023181485702524,0.1390000000001237,7.0,-0.0018011687092778,0.0021413980100271,0.9788386844653432,0.0083382074085545,0.0007683358006742,-0.0163393266092976,0.99999164864872,0.0017105325664975,0.0011151281587876,-0.0035402260299575,0.1390000000001237,8.0,-0.0001054655547367,0.0009888518773162,0.9797821242750764,0.0044897352874311,0.0020301776407849,-0.0053309914104932,0.9999983737663732,0.0010115387716329,0.000797057288781,-0.0012625187525565
3,3,0.2629999999999199,0.0,-0.0008171175146338,0.000385372182415,0.9792145749565048,-0.0036455682143876,-0.0027433893642762,-0.028492541171949,0.9999857551981062,-0.0005357073044577,0.000591671858802,-0.0052775319012321,0.2629999999999199,1.0,-0.0016461133269519,-0.0015133687151908,0.979706078385781,-0.0068079778780253,0.012833060788226,-0.031963882154877,0.9999794314233238,-0.0006402109060509,0.001615631020479,-0.0061738639997422,0.2629999999999199,2.0,-0.0019050928198251,-0.0003051943519577,0.9800970755378036,-0.0106506966287118,0.0094811731666323,-0.0370022440012822,0.9999804194860152,-0.0005784520259301,0.0017422877796618,-0.0059825137792859,0.2640000000001237,3.0,3.3718416741303365e-17,-2.682656964371496e-17,0.9797152647580828,0.0050653065475348,0.0072193092076553,-0.020496120487623,0.999985290921675,-0.0001592316573037,0.001059581526552,-0.0053169420309985,0.2640000000001237,4.0,-0.001895652242059,-5.270287652835394e-05,0.9795562279547736,0.0073860818395547,0.008479913428068,-0.0525243956657058,0.99995633398342,0.000748410882687,0.0012349579504674,-0.0092328157379204,0.2190000000000509,5.0,-4.92067405563565e-05,0.0033413211748905,0.9787491165520932,-0.0010193480709434,-0.0099503312328163,-0.0031202493423816,0.999995470838116,0.0025167622686902,-0.0003202329472793,-0.0016191546549753,0.2750000000000909,6.0,2.841085320415157e-18,-5.238806230011416e-18,0.9803111750867682,0.0078139495392013,-0.0050793214713845,-0.0215953324138293,0.9999938443593251,0.000703474587282,-0.0005203655979878,-0.0033978797222891,0.2199999999997999,7.0,-0.0018011687092778,0.0021413980100271,0.9788386844653432,0.0099311656641642,0.009311641530386,-0.0111014740825014,0.9999880935856972,0.0021467699915435,0.0015602425522876,-0.0040950834697455,0.2199999999997999,8.0,-0.0001054655547367,0.0009888518773162,0.9797821242750764,-0.0035973689186038,0.0079218742604238,-0.0048869499274876,0.9999979340568088,0.0007812916901902,0.001119180866734,-0.0015062866913706
4,4,0.3380000000001928,0.0,-9.458836912014304e-17,-3.0229153849458226e-17,0.9796433024320635,-0.0022320633216105,-0.0070215527105691,-0.0146773279019094,0.9999817388928356,-0.0005960247930745,0.0001815850992285,-0.0060111281935217,0.3380000000001928,1.0,-0.0023554047303523,-0.002724772862331,0.97953459749077,-0.0009676033314354,-0.0012029916792834,-0.0190510951486461,0.9999731672686468,-0.000764817505469,0.001514576447714,-0.0071264195132162,0.3380000000001928,2.0,-0.0017862848770551,-0.0012882124724907,0.9799572182983112,-0.0078279375867802,-0.0038055660491179,-0.0185875358777411,0.9999745561220084,-0.0009799323743008,0.0014707483371711,-0.0069111316340386,0.3380000000001928,3.0,-7.689663284987459e-05,-0.0009954573559401,0.9797714035179638,-0.000926980928846,0.0088501826840157,-0.0184390619117566,0.9999795284956472,-0.0002390592780594,0.0014003439530603,-0.0062389483967781,0.3389999999999418,4.0,-0.001895652242059,-5.270287652835394e-05,0.9795562279547736,0.0018035298348476,0.0105934459515616,-0.0074748566298076,0.9999520552424526,0.0007663744261264,0.0017373441751495,-0.0096063271780085,0.2750000000000909,5.0,-0.0001794793321236,0.0041628779732701,0.97930416022508,-0.0034633510323087,0.0009749402312469,-0.0314997024269227,0.99999221633451,0.0023050558841284,-0.000226732772826,-0.0031941477761122,0.34900000000016,6.0,0.0006521411430237,0.0007580419798744,0.9803203558451118,0.0143909838302807,-0.0092526656989797,-0.0301335146834014,0.9999865409942864,0.0013904276092472,-0.0009646982917336,-0.0049044773984497,0.2750000000000909,7.0,-0.0027885479619237,0.002264145365156,0.9789387609273776,0.0028715425137774,0.0037450909953054,-0.0303260040640522,0.9999803506855032,0.0021902914609457,0.0017361522003891,-0.00561129590658,0.2759999999998399,8.0,-0.0001054655547367,0.0009888518773162,0.9797821242750764,0.0065141602044964,0.0010555382918557,-0.0065685366266679,0.9999971669009724,0.001079052416874,0.0010652094955623,-0.0018349835532071
5,5,0.4020000000000436,0.0,-9.458836912014304e-17,-3.0229153849458226e-17,0.9796433024320635,-0.0247881667799981,-0.0124293545596128,-0.004637852468865,0.9999788308153998,-0.0017795818865272,-0.0004509905283235,-0.0062424047384367,0.4020000000000436,1.0,-0.0004817608832492,-0.0021208437262298,0.979181428504616,0.011365250465925,-0.0217812685695941,0.0111881247956804,0.9999783645317666,-0.0002351172525861,0.000295530385519,-0.00656717976319,0.4029999999997926,2.0,-0.0017862848770551,-0.0012882124724907,0.9799572182983112,-0.0043422937894531,-0.0087995339807187,-0.0042360617073252,0.9999734785548392,-0.0011674966267087,0.0009765544347234,-0.0071221822496498,0.4029999999997926,3.0,-7.689663284987459e-05,-0.0009954573559401,0.9797714035179638,-0.0023743882462309,0.0107408363395107,0.0131035717976837,0.99998271340025,-0.0003803776627603,0.0018025724864033,-0.0055838110586169,0.4029999999997926,4.0,-0.002795556821947,0.0008944213105072,0.9800976404790364,-0.0014892794808583,0.0060996700964319,0.0268274699364857,0.9999636030625572,0.0006675318530395,0.0020105709251176,-0.0082646570363666,0.34900000000016,5.0,-0.0012987243157146,0.0049165370831738,0.9797275850859062,0.009160931239536,0.0027118960527781,-0.0370822099394396,0.9999833817502772,0.0027845598659682,7.09556265871332e-07,-0.0050480143748432,0.4229999999997744,6.0,0.0013042822860474,0.0015160839597488,0.9803295366034556,0.0158347614060893,-0.0060821843900312,-0.0332682348539783,0.9999754178567304,0.0021202129686956,-0.0012395861981665,-0.0065674808931696,0.34900000000016,7.0,-0.0027017530639168,0.0032120970150407,0.9786324044109448,0.0084752506839584,-0.0025092378182956,-0.0441030818668566,0.9999649345451348,0.0025553552860441,0.0015774459986765,-0.0078173847051233,0.34900000000016,8.0,-0.0001054655547367,0.0009888518773162,0.9797821242750764,-0.0007310419797235,0.0012067884852865,-0.0178012009203982,0.9999952775511473,0.0009842302723959,0.0010252602025156,-0.0027248867301293
6,6,0.4299999999998363,0.0,0.0019168656644457,-0.0036498795336671,0.979706590773694,-0.0601801241683964,-0.0320582544600021,0.0097549544437705,0.9999697214043954,-0.0048076339498039,-0.0020842878146892,-0.0057531447510161,0.43100000000004,1.0,-0.0004817608832492,-0.0021208437262298,0.979181428504616,-0.0221140162435032,0.0066674175054229,-0.0258596005058213,0.9999678988422692,-0.0014235950482759,0.0006300685327978,-0.0078598775919047,0.43100000000004,2.0,-0.0026200233441977,-0.0024238277690026,0.9800807418456003,-0.0256845278851665,-0.0035751913188603,-0.0041774428092512,0.9999697593350122,-0.0024591094502375,0.0008433170315222,-0.0073295301741567,0.43100000000004,3.0,-7.689663284987459e-05,-0.0009954573559401,0.9797714035179638,-0.0125070567433767,0.0172301793231498,-0.0007375268471539,0.999980590252365,-0.0010137141768254,0.0024914698320958,-0.0056199715457454,0.43100000000004,4.0,-0.0037913044841181,-0.0001054057530568,0.9801916215209842,-0.0192911228140719,0.0251312065272691,-0.052172983801249,0.999935514169188,-0.0003623542278208,0.0032664429325877,-0.010870444019582,0.4229999999997744,5.0,-0.0024777957433468,0.0070578221841674,0.979884711419803,0.0507628799052832,0.0254029506147884,-0.0219127977587081,0.9999655422162312,0.0054113176724599,0.0013884676132273,-0.0061403728660157,0.5520000000001346,6.0,0.0019564234290712,0.0022741259396232,0.980338717361799,0.0108129674519971,-0.0018256226145136,-0.0280109421910053,0.9999641144234118,0.0025652847942382,-0.0013074045704706,-0.0079674257207305,0.4229999999997744,7.0,-0.0044572445717827,0.0046993473171063,0.9794728424543584,0.038301636485319,0.0421818733866836,-0.0540351823809522,0.999927676365215,0.0044686287778418,0.0037513771165272,-0.0105166803430138,0.4239999999999781,8.0,-0.0002109311094735,0.0019777037546326,0.9796770101395286,-0.0061052014674427,-0.0053087962810605,-0.01392897394866,0.9999936926345976,0.0006800767664876,0.0006690917404988,-0.0034211844230539
7,7,0.5030000000001564,0.0,0.0032680956124508,-0.0073453028903032,0.9784745096713134,-0.0464467613027829,-0.0194175512851141,-0.0026146712827697,0.999953475591528,-0.0070306914894092,-0.0029990778584304,-0.005884008973709,0.5039999999999054,1.0,-0.0014185828068008,-0.0024228082942804,0.9793580129976928,-0.0040794579326242,0.0236255654160815,-0.0553707247519226,0.999940567332411,-0.0016007703286503,0.0018188318396698,-0.0106297313244452,0.5039999999999054,2.0,-0.004406308221253,-0.0037120402414933,0.9804676461796712,-0.0142236199404071,0.0344005923548098,-0.0354863486067113,0.9999500650934718,-0.0031008720490584,0.0027047165967668,-0.0091069435173375,0.5039999999999054,3.0,-0.0010172927950032,-0.0009043364755108,0.9800990497347236,-0.0153095923463728,0.0178205583894242,-0.0158703663539998,0.9999728761537212,-0.0017206135359847,0.0031884194878639,-0.0064125211176278,0.5039999999999054,4.0,-0.0047870521462894,-0.0011052328166207,0.9802856025629316,-0.0196558521921373,0.0149801193907169,-0.0024623791273529,0.9999309046156342,-0.0013548180549481,0.0039440297193558,-0.0109906820611972,0.5520000000001346,5.0,-0.0038469662065874,0.0114082900746307,0.9803305828997576,0.06482788079471,0.0335170315518777,0.0008230677126177,0.9999387411670508,0.0087047111998697,0.0030977176179456,-0.0060947569057372,0.5599999999999454,6.0,0.0019564234290712,0.0022741259396232,0.980338717361799,0.0077102229314817,-0.0050429138717795,-0.0172333943108513,0.9999559079132712,0.0028085562990964,-0.0015301535821066,-0.0088290923018759,0.5520000000001346,7.0,-0.0062584132810606,0.0068407453271335,0.9790602823455624,0.0227882022112832,0.0182346392961522,-0.0259948126167378,0.9999043778159242,0.0055184573150805,0.0045989797853226,-0.0118165662671271,0.5520000000001346,8.0,-0.0002109311094735,0.0019777037546326,0.9796770101395286,-0.0034760639707267,-0.007004934641477,0.0089871645038175,0.99999540451438,0.0005383416227887,0.000262709964598,-0.0029718886071133
8,8,0.6100000000001273,0.0,0.0030477626512427,-0.009362606048372,0.9794136269987284,-0.0248201959257563,-0.0173760560352816,0.0088889202992118,0.999945905212592,-0.0080538673696523,-0.0037098156070962,-0.0054368315334989,0.6100000000001273,1.0,-0.0030646961337527,-0.0039361770094711,0.9793631165957588,-0.0337373939552919,0.0194983581837005,-0.0043033715895108,0.9999318219486656,-0.0033167520924732,0.0027876033349172,-0.0108434255485344,0.6100000000001273,2.0,-0.0055202965941891,-0.0047457267560689,0.9796366695888168,-0.0214786544393819,0.0061551292645949,-0.0078474490783358,0.999941882552413,-0.0041025508522525,0.0030340927488502,-0.0094970982532738,0.6109999999998763,3.0,-0.0023658588398526,-0.0018362707345268,0.979539703545364,-0.003768659793207,0.0255793404481096,-0.0179304534217506,0.9999624976050614,-0.0018245894334038,0.0042694312066178,-0.007310691760641,0.6149999999997817,4.0,-0.0058307213496022,-0.0030785355054846,0.9801558678637214,-0.0290610175086779,0.0296368954563856,-0.0501823630672764,0.9998906946918864,-0.0028195916209569,0.0053393296566906,-0.0134959301452301,0.5599999999999454,5.0,-0.0060748364702846,0.0148693034782385,0.9800897918945648,0.0198244291313573,0.0037108477314813,0.0148827096672493,0.9999343654257205,0.0095891952038661,0.0032655477585216,-0.0053524175697286,0.6350000000002183,6.0,0.0011986986748406,0.0029262783254135,0.9803152554238098,0.011181426122021,0.004665581824124,-0.0008205784782296,0.9999546980344648,0.0032375750303555,-0.0012111267587205,-0.0088686616069659,0.5599999999999454,7.0,-0.0061716183830537,0.0077886969770183,0.9787539258291298,0.0092152506757934,0.0137621036991396,-0.000951575290614,0.9998994319429708,0.0058368115579938,0.0051324960945744,-0.011862340190707,0.5599999999999454,8.0,-0.0002109311094735,0.0019777037546326,0.9796770101395286,0.0037564306383989,-0.0014165508573735,0.0028298961419952,0.9999956799934312,0.0007731227621391,0.000175409458542,-0.0028304605971404
9,9,0.650000000000091,0.0,0.0046819976805104,-0.0101333504132022,0.9802710819498464,-0.0098909841322994,0.0050394078900699,0.0083186312029903,0.999947749431658,-0.0082613108521138,-0.0033167397691297,-0.0050247772956081,0.650000000000091,1.0,-0.0037739875371531,-0.0051475811566113,0.9791916357007476,-0.0073724647300356,0.0100008041107174,-0.0279412736728785,0.999913417229551,-0.0036128775052362,0.0032033335387418,-0.0122410708148307,0.650000000000091,2.0,-0.0051212387456256,-0.0058306736585382,0.9804513124874676,-0.0140769080311449,-0.0007418822853105,-0.0142313856071881,0.9999325173091076,-0.0046934508561884,0.002960909021068,-0.0102061434783558,0.650000000000091,3.0,-0.0033062550020059,-0.0017451498540974,0.979867349762124,0.0089750010835242,0.0059215116155306,0.0209167245663985,0.9999702764178346,-0.0012745771070856,0.0043059598519967,-0.0062674112511029,0.650000000000091,4.0,-0.0060979651145916,-0.0018777917375679,0.9794581607805674,0.0146002250530275,-0.0021626633121062,0.0499718012144486,0.9999251849947304,-0.0018874281138026,0.0050046639839458,-0.0110006984677004,0.6350000000002183,5.0,-0.0071236353063495,0.0161890317808526,0.9796918745554752,0.0394665337890028,0.0338436827739503,0.0082228417779827,0.99990999995924,0.0114418639747038,0.0049748374488151,-0.0049322127544387,0.713,6.0,0.00044097392061,0.0035784307112037,0.9802917934858206,0.0386925045232855,0.0440491772163889,-0.0549666514376698,0.9999192747158118,0.0050534386039308,0.0010848947021652,-0.0116073172424265,0.6359999999999673,7.0,-0.0090469612429844,0.0091048906922895,0.978747798698801,0.0266900516339299,0.0334809487692345,-0.0061983393672379,0.9998782203999036,0.0070762787915209,0.0067360337035322,-0.0121694904713295,0.6359999999999673,8.0,-0.0002109311094735,0.0019777037546326,0.9796770101395286,-0.0012889579696849,0.0008173580405984,-0.0009799904691123,0.999995564334025,0.000732436379285,0.0002094341344011,-0.0028794073294052
10,10,0.7150000000001455,0.0,0.0049334794787036,-0.0105642664185863,0.979404439981395,-0.012201384859326,-0.0048162750472472,0.0063056051179525,0.999946012435023,-0.0085880279349092,-0.0034692284842293,-0.0047098243289963,0.7150000000001455,1.0,-0.0037739875371531,-0.0051475811566113,0.9791916357007476,0.0096711681789324,-0.0091385418701709,-0.0008894988552089,0.9999165039374716,-0.0030342719253489,0.0026159659651111,-0.0122855634553913,0.7179999999998472,2.0,-0.0055202965941891,-0.0047457267560689,0.9796366695888168,0.0153392835077832,-0.0051155286015222,0.0028126380698984,0.9999388889646352,-0.0036987076768242,0.0026859499867267,-0.0100659609755438,0.7179999999998472,3.0,-0.0033062550020059,-0.0017451498540974,0.979867349762124,0.0071552087237043,0.00192812725993,0.0066831690026525,0.9999734378873936,-0.0008753160606714,0.0041390823572896,-0.0059350938240607,0.7179999999998472,4.0,-0.0061458866557332,-0.0028512673628676,0.9792344450394096,-0.0026747528903721,-0.0045808030236452,-0.0083598939180692,0.9999223171503924,-0.0019791469563823,0.0045912079141519,-0.0114176815424342,0.79300000000012,5.0,-0.0083027067339817,0.0183303168818463,0.979849000889372,0.01734289594519,0.0117561558701117,0.0121398035708731,0.9999023758974488,0.0121079505378782,0.0054724636723663,-0.0043230024015422,0.7899999999999636,6.0,0.0011986986748406,0.0029262783254135,0.9803152554238098,-0.000725644640936,0.0020970633965213,-0.0075420580374838,0.999916812092989,0.0046611622548978,0.0010205656036187,-0.0119833595488268,0.79300000000012,7.0,-0.0100343404956303,0.0092276380474183,0.9788478751608356,0.0086883343193097,0.0158063493808001,0.0018063711500979,0.999873451852588,0.0072907642461934,0.0073534513300678,-0.0120769114691388,0.793999999999869,8.0,-0.0002109311094735,0.0019777037546326,0.9796770101395286,-0.00190650042518,0.004650101025761,0.0041479494810413,0.9999961160983836,0.000665547926471,0.0004316059578218,-0.0026718065802931
11,11,0.8249999999998181,0.0,0.0046819976805104,-0.0101333504132022,0.9802710819498464,0.017630834875445,0.0178287182651447,-0.0049571145933351,0.999957538136931,-0.0073606143906492,-0.0024732420551625,-0.0049624946001944,0.8249999999998181,1.0,-0.0040015180573042,-0.0042381415775217,0.9795397010888356,0.0167420783361502,0.0112409317962729,-0.0214350874739828,0.9999036862801228,-0.0021035228757117,0.0031107153578212,-0.0133610181085192,0.8249999999998181,2.0,-0.0056391045369592,-0.0037627086355359,0.9797765268283096,0.0248124286332495,0.016032302914085,-0.0454349911956459,0.9999151371416496,-0.0022754546458986,0.0034909196017227,-0.0123431884650986,0.8260000000000218,3.0,-0.003229358369156,-0.0007496924981573,0.979811211002243,0.0162630725413574,-0.0019884265994301,0.0243250249624733,0.9999816837434218,-7.478684090173226e-06,0.0037859512142839,-0.0047221494198445,0.8260000000000218,4.0,-0.0060979651145916,-0.0018777917375679,0.9794581607805674,0.0034026326063372,-0.0073498569954211,0.0265723352951677,0.9999393444733636,-0.0017015008037895,0.0040772901151651,-0.0100890026519481,0.8279999999999745,5.0,-0.0083027067339817,0.0183303168818463,0.979849000889372,-0.0361008994260563,-0.0330254345125237,-0.000782822515073,0.99993336925826,0.0100218700868897,0.0037017888181035,-0.0043721760408155,0.8279999999999745,6.0,0.0011986986748406,0.0029262783254135,0.9803152554238098,-0.0101058022419125,-0.0054475428764561,-0.0110193238778619,0.9999139118340498,0.0038344845705962,0.0005914037332426,-0.0125345877646796,0.8279999999999745,7.0,-0.0100343404956303,0.0092276380474183,0.9788478751608356,-0.0193951417656711,-0.019960450234601,0.0284524398282525,0.999906035502397,0.0060678834930456,0.0061300266696172,-0.0106547514670149,0.8279999999999745,8.0,-0.0002109311094735,0.0019777037546326,0.9796770101395286,5.44001116686485e-05,0.0062284454889372,-0.0028963331548958,0.9999955341997832,0.0007034473961557,0.0007104564911392,-0.002816379559884
12,12,0.8479999999999563,0.0,0.0022306451366089,-0.0089772338659568,0.9789848995231696,0.0355821866215256,0.037708201772598,-0.0033894876774799,0.9999726605395332,-0.005294727820334,-0.0004619235074048,-0.0051410755167726,0.8479999999999563,1.0,-0.0042290485774553,-0.0033287019984321,0.979887766476924,0.0293299211651502,-0.0002562455490227,0.013825267105646,0.999915044370002,-0.0005917674744585,0.0029856831646914,-0.012674365855266,0.8490000000001601,2.0,-0.0058767204224992,-0.0017966723944698,0.980056241307295,0.0357623243750118,0.0025488871858145,0.0274397021786892,0.9999333919187272,-0.000341494849719,0.0035485686850883,-0.010977375253835,0.8490000000001601,3.0,-0.0018807923243065,0.0001822417608587,0.9803705571916026,0.0509233225989316,-0.02375738827973,-0.0033122793886796,0.9999821212330212,0.0025429008596154,0.002303768960596,-0.0048972970199674,0.8490000000001601,4.0,-0.0070937127767628,-0.0028776188011319,0.9795521418225148,-0.0006779497957769,0.0360565579167169,0.1108420057970607,0.9999711747599592,-0.0016676534509048,0.0058453957940479,-0.0045497174819981,0.8580000000001746,5.0,-0.0061346629143258,0.0162569294693285,0.9798234933676356,-0.0465801002188011,-0.0341258924599853,0.0122222528030111,0.999962764252596,0.0075163623943339,0.0019403314061337,-0.0037695515248447,0.8580000000001746,6.0,0.0011986986748406,0.0029262783254135,0.9803152554238098,-0.0095872660069624,-0.0019523057790311,0.0247544438301249,0.9999312537721176,0.0031196817607436,0.0003737966983201,-0.0112967071069905,0.8589999999999236,7.0,-0.0091337561409913,0.0081569390424047,0.9790541552152338,-0.0250843034851278,-0.0332993341303023,0.032282267482254,0.999939101243269,0.0046205783085153,0.0043200008514039,-0.0090433209354867,0.8589999999999236,8.0,-0.0002109311094735,0.0019777037546326,0.9796770101395286,0.0044227378822065,0.0044198183650922,-0.0043688124729896,0.9999945596021004,0.0009556717560382,0.0008704675880285,-0.0030347559826399
13,13,0.9229999999997744,0.0,-0.0028608696293327,-0.0053267089323449,0.9803078300191804,0.0621176069665877,0.0974144987465442,0.0273872385937054,0.9999804541814254,-0.0019058562503191,0.0045888514479398,-0.003794918899321,0.9239999999999782,1.0,-0.0056590973627831,-0.002435330062563,0.9794917272670172,-0.0065725531225682,0.0232842564140389,-0.1057509565274848,0.9998296369232548,-0.0009828220275507,0.0041404820762182,-0.0179607237869638,0.9239999999999782,2.0,-0.0069480747751818,-0.0009662514499157,0.9804594793335694,-0.0204811870043458,0.0267032739426117,-0.1202289635063137,0.9998428554559116,-0.0013832932903768,0.0048863625103248,-0.0169845328125122,0.9239999999999782,3.0,-0.0037852713670597,0.0043187151619728,0.979858163419598,0.0380003580517495,0.0432516906657802,0.1598954641698192,0.9999757411890156,0.0044388143665764,0.0043831197690085,0.0030987451635069,0.9239999999999782,4.0,-0.0101085918225576,0.0001910219025918,0.980254956570992,0.0751905549250465,0.017895244641156,0.3834791331170314,0.9998687308067746,0.0023866584848381,0.0066070599190305,0.0146004032599337,0.9720000000002074,5.0,0.0003096421006006,0.0114243932228657,0.9794806722754966,-0.0804859932947705,-0.1075852863226256,0.0224350949463126,0.9999843262448818,0.0033052937703036,-0.0036394575025972,-0.0026789264171274,0.9720000000002074,6.0,0.0027141481833018,0.0016219735538329,0.9803621792997882,-0.0193468427210604,-0.0217435330052325,-0.0241971839826832,0.9999195532135966,0.0019088679690763,-0.0008767822016991,-0.0125089798612276,0.9729999999999565,7.0,-0.0073325874317134,0.0060155410323775,0.9794667153240296,-0.0134522146569839,0.0022344353369124,0.0703279907001486,0.9999679530781111,0.0038125441667775,0.0043638738149645,-0.005523941443922,0.9729999999999565,8.0,-0.0002109311094735,0.0019777037546326,0.9796770101395286,-0.0017220394753801,0.0051802621438926,0.0205732095846651,0.9999970507105655,0.0008766523935508,0.001052251119236,-0.0020056964708634
14,14,0.9899999999997816,0.0,-0.0074494207988882,-0.0025380160095011,0.979897476578288,0.0348175949577803,0.0583091461488972,0.0137357540582573,0.9999676003654993,-8.827974533498622e-05,0.0074193487198546,-0.0031214885111512,0.9899999999997816,1.0,-0.0065959192863346,-0.0027372946306135,0.9796683117600942,0.0040592601262958,0.0398434941628445,-0.0763793230892402,0.9997441292742336,-0.0007952813809058,0.0060504741103634,-0.0217815351219675,0.9899999999997816,2.0,-0.0091334175008007,-0.0011695170199371,0.9800317407689896,0.0027491669408963,0.0294659444839368,-0.010094566228821,0.9998262990203518,-0.0011367167350615,0.0063347597732562,-0.0174914402193021,0.9899999999997816,3.0,-0.0077243359998193,0.0066465156120654,0.9801133396008752,0.0281553028267172,0.0661065440191086,0.0853309654828079,0.9999272222534938,0.0057488252373735,0.0076247505096312,0.0073732207662654,0.9899999999997816,4.0,-0.0124908100534539,0.0035132821871967,0.9797186517120524,0.0214942180823322,0.0666455046134958,0.1344800252803412,0.9997177873947594,0.0033880814649683,0.0099103901509052,0.0213225382534652,0.994000000000142,5.0,0.0076724733600247,0.0060936854721683,0.9800908121954344,-0.1142590413933376,-0.1324084448286456,0.0317548854715314,0.9999436301790232,-0.0024516963661114,-0.0102684492283492,-0.0011334018572201,0.994000000000142,6.0,0.0034718729375324,0.0009698211680426,0.9803856412377774,-0.0252763858966998,-0.0187785523317662,0.0191095618100016,0.9999313196877776,0.0004889036661497,-0.0018902942059804,-0.0115561095737262,0.994000000000142,7.0,-0.0055770959238475,0.0045282907303119,0.9786262772806162,-0.0450886965447092,-0.0592177435687151,0.0637753281117567,0.999995488369992,0.0014072985248556,0.0012581759480038,-0.0023366094681937,0.9949999999998907,8.0,-0.0002109311094735,0.0019777037546326,0.9796770101395286,-0.013256197176195,-0.0046205107413569,0.0113438082509688,0.9999986755558424,0.0002272690584659,0.0007277638335272,-0.0014379134669899
15,15,1.0889999999999418,0.0,-0.0112208544538098,-0.0001346952690724,0.9799158506129548,0.0343510674737427,0.0431686533172993,-0.0014270589380611,0.9999493087334228,0.0016391375023331,0.0094030036618759,-0.0032057314194036,1.0889999999999418,1.0,-0.010836433842317,-0.002749816398896,0.9798020260294186,0.0107132437195533,0.0681148042606434,-0.0115128907506265,0.9997057524308092,-0.0002377817128808,0.0093942167441002,-0.0223629315692744,1.0889999999999418,2.0,-0.0123901145791022,-0.0005423616454044,0.9800072402306844,0.0260537924573977,0.0709609849663549,-0.0011689926755735,0.9997971364557112,0.0003244627890216,0.0098582921621553,-0.0175611712167545,1.0889999999999418,3.0,-0.0132663432944248,0.0090102413755767,0.978809899666911,0.0199374555183543,0.070299442550436,0.070699430456129,0.9998574532342928,0.0066268602421905,0.0110415649480524,0.0109197883982503,1.0900000000001455,4.0,-0.0156015321815319,0.0046349716403207,0.9799740349782142,0.0317177504932019,0.0169057575327242,0.03120433947507,0.9996705970813978,0.0048515139250986,0.0105913904748843,0.0228688126356537,1.119000000000142,5.0,0.0132474588710099,-0.0015820004449507,0.9801489693449936,-0.1524875001703061,-0.113497266600004,0.0281223112028838,0.9998294591491296,-0.0099318557237243,-0.0155681650148157,0.0002075994061003,1.119000000000142,6.0,0.004229597691763,0.0003176687822524,0.9804091031757668,-0.0175804633483298,-0.0095942861725365,0.0258502695045669,0.9999443680740118,-0.0004332418395426,-0.0023861090240896,-0.0102654538282069,1.119000000000142,7.0,8.67948980069715e-05,0.0009479516498847,0.9789448880577062,-0.0895145554408742,-0.134420925917462,0.0002254622106437,0.9999766603883816,-0.0031763835509363,-0.0055826230253967,-0.0023288594187991,1.119000000000142,8.0,0.0009843721597402,8.882409977528894e-05,0.9797351800980358,-0.0232538085275879,-0.0245214787931271,-0.0213857716566554,0.999996208647569,-0.0009562246247023,-0.0006206766640533,-0.0025066083526739
16,16,1.125,0.0,-0.0128862383200625,0.0030842682592106,0.978985920302873,0.0400776390331621,0.0400863049978334,0.0003575664530198,0.9999264198038452,0.0036451656808897,0.0111179482236823,-0.0032029631153518,1.125,1.0,-0.0143676569948989,-0.0015509340200384,0.980107221193754,0.0393633101589744,0.0625019694213374,0.0755348959765443,0.9997500746134522,0.0017963355593162,0.012262676324917,-0.0186061349641827,1.125,2.0,-0.0172360318014199,0.0029831796966847,0.9797111920594958,0.0698945420915779,0.0572543352957359,0.1249261367887624,0.9998489178590532,0.0040657010847984,0.0125244125766966,-0.0113468330550001,1.125,3.0,-0.0167972380444883,0.0123610969651147,0.979952068254308,0.0710542764246816,0.0571090893507714,0.0218560914903219,0.999783251805042,0.0101181284503507,0.0136836243460309,0.011992969255154,1.125,4.0,-0.0167686805264093,0.0067828395952731,0.9798177404193232,0.0266547504511647,0.0420965778400056,-0.2224351522257586,0.999834563344562,0.0058590540417115,0.0125949460684977,0.0117424341964091,1.1539999999999964,5.0,0.0189527169735624,-0.0100792431604494,0.979652082821566,-0.1498060167772715,-0.0962778882953599,-0.0420165204649533,0.9996585316891946,-0.0169066280213871,-0.0198275401203383,-0.0019633142200273,1.1539999999999964,6.0,0.004229597691763,0.0003176687822524,0.9804091031757668,-0.0125874667660999,-0.023509412866849,-0.0163398201337555,0.9999318189298216,-0.0010153803344572,-0.0035331142963959,-0.0110834831097101,1.1539999999999964,7.0,0.0075518544291394,-0.0047737854405696,0.979676058943592,-0.0832599463778469,-0.0900080084386873,-0.0030030140609768,0.9999214253440762,-0.0072755359728729,-0.0099005617501359,-0.0024876879245525,1.1539999999999964,8.0,0.0031640475886944,-0.0017112314553066,0.979641291743954,-0.0308268215305549,-0.0272295769684108,-0.0077157773775863,0.9999905506455312,-0.0024928437228727,-0.0020784412238722,-0.002892132759692
17,17,1.18,0.0,4.92015808325405e-05,0.0183844156373805,0.9797474219618424,0.3983021940673872,0.5466488389905506,-0.7082379487410374,0.9982433220438028,0.0237876931764347,0.0380520659162272,-0.0386840526290074,1.18,1.0,-0.0090415874362098,0.0257180698528983,0.9870379073671256,0.0809586837576844,0.4568004228291011,0.1184845254587426,0.9993078345514442,0.0074688718647313,0.034171865029345,-0.0126629932317615,1.18,2.0,-0.0194787936947487,0.0292902380152251,0.971654598380108,0.1039616327808773,0.6992633023409901,-1.304938630681402,0.995903150486364,0.0099186230184868,0.0476316974150302,-0.0762217631002761,1.18,3.0,-0.00985345479063,0.0158789944568149,0.9805910294122264,0.0628489325170458,0.2403943266387857,-1.0141678231239903,0.9988555488452656,0.0121982596259402,0.0254718325210278,-0.0386002687962425,1.18,4.0,-0.0084419425844036,0.014819507720353,0.983292995905253,-0.3325994465712072,0.5572422769140838,-2.245874830363737,0.9942249312142858,-0.0122823336559425,0.037822367601641,-0.0996764713506598,1.231999999999971,5.0,0.0256469474681386,-0.0185085881874722,0.9792868151102992,-0.0998018994468038,-0.0802733153341066,-0.0281848159123448,0.999502083739734,-0.0211307339986735,-0.0231834611106587,-0.0034064367802435,1.231999999999971,6.0,0.0057450472002242,-0.0009866359893281,0.9804560270517448,-0.0095558472265862,-0.0161180906899038,-0.0055049439242481,0.9999252903852504,-0.0014531175666133,-0.0042731494553107,-0.0113596782983824,1.2339999999999236,7.0,0.0179790517182094,-0.0108637645964104,0.9801070004433738,-0.0743166099784011,-0.1021940478916582,-0.0096909539757549,0.9998254856211384,-0.0108273654473733,-0.0149307997991608,-0.002972823116383,1.2339999999999236,8.0,0.0042538853031715,-0.0026112592328476,0.9795943475669132,-0.0235540313546298,-0.0168190433115361,0.0098650948968119,0.9999865169973808,-0.0035586098323997,-0.002923111043454,-0.0023994877235732
18,18,1.235000000000127,0.0,-0.0177262712878111,0.0063038771874385,0.9794422088304324,0.0722648497416119,0.0828608782544057,-0.0327168850521449,0.9980913628707594,0.0254728943161194,0.0391800876739137,-0.0403693416817031,1.235000000000127,1.0,-0.0181760424676331,0.0032500255137989,0.9794386498471328,0.0349564100594361,0.0569209155834095,-0.0255868541114041,0.9992690248860177,0.0086389284095989,0.0345151150031448,-0.0139818330558284,1.235000000000127,2.0,-0.021248210556595,0.0076443363352858,0.9792916203410174,0.0408880057006709,0.0736971095163481,-0.0864188659424002,0.9955492514743848,0.0115098823234447,0.0474893782514895,-0.0805851689269134,1.2359999999998763,3.0,-0.0187017170872415,0.0164975703662288,0.9794396744823032,0.0709892039202344,0.0108130072064879,-0.0219202242596396,0.998795571679276,0.0153948400935,0.0242663024063739,-0.0397687246449544,1.2359999999998763,4.0,-0.0181551510951344,0.011104926943442,0.9791874545184358,0.086711477834944,0.009634371586479,-0.1041858621462412,0.9938400155645852,-0.006240208124984,0.0349234342499489,-0.1049925569044359,1.293999999999869,5.0,0.0301731341430589,-0.0248645458019771,0.9789470549207688,-0.0404371770049262,-0.042027505571708,-0.0139463855580013,0.9994422967359488,-0.0223040806255642,-0.0245100084185769,-0.004108889137169,1.293999999999869,6.0,0.0057450472002242,-0.0009866359893281,0.9804560270517448,-0.008432809904987,-0.002761936607063,0.0095994685157701,0.9999300782370212,-0.0017866761400522,-0.0042706577975802,-0.0108815397463357,1.293999999999869,7.0,0.023510470440645,-0.0147379076187608,0.9794789695846872,-0.0407307483468317,-0.0914973496756724,-0.0280355575273073,0.99972727602349,-0.0125288932884939,-0.0192202631940753,-0.0043568211311528,1.293999999999869,8.0,0.0043593508579083,-0.0036001111101639,0.979699461702461,-0.0089610351073956,0.0055249576887355,0.0094937244627698,0.9999874739839464,-0.0038357867593471,-0.0025736990420425,-0.0019273526879435
19,19,1.2550000000001091,0.0,-0.0214977049427327,0.0087071979278671,0.9794605828650994,0.0362600042286239,0.0381407451909135,-0.0348246920803848,0.998061307167756,0.0252351600636451,0.0382186307442454,-0.0421443957743835,1.255999999999858,1.0,-0.0210361400382888,0.0050367693855373,0.9786465714273188,0.0412946381473701,0.0240016187158964,-0.0482540213135314,0.9992584384658042,0.0100444368717204,0.0333306280855626,-0.0164545335465419,1.255999999999858,2.0,-0.0236711691677539,0.0094071070063304,0.9791435962554232,0.0355011192177322,0.0350799585158697,-0.0454421181133449,0.9954342897016624,0.0127364244048914,0.0455437950899366,-0.0829103196733163,1.255999999999858,3.0,-0.0192576300851452,0.021565978026359,0.9794866268996584,0.0687950898940148,-0.0058032878568914,-0.0273253696870548,0.9987307453326602,0.018384815968036,0.0223768197190829,-0.0412089166121888,1.2570000000000618,4.0,-0.0192264563577284,0.015199746148994,0.9794785914418604,0.0555356778006825,0.0064685993134062,-0.2007554827775838,0.9928338568480312,-0.0023040025207828,0.0323349158465736,-0.1150220739068898,1.3550000000000182,5.0,0.03314005131913,-0.0246608527365491,0.97934191135725,0.0246316951685304,-0.0266045391879878,0.0275512211651588,0.9994795293462184,-0.0201473505778675,-0.0250515053605002,-0.0026789478768251,1.3539999999998145,6.0,0.0066083555656617,-0.0030489827407831,0.9804937701693796,-0.0142451540608173,-0.0089300896796693,-0.0187705769059987,0.9999163674802116,-0.0024801924532677,-0.0046199071804728,-0.0118221465147688,1.3550000000000182,7.0,0.0215357119353533,-0.0144924129085032,0.9796791225087566,0.0234451933587633,0.0290262946659724,-0.0100771805452924,0.9997858108664288,-0.0108322215709097,-0.0169534048266262,-0.0048556596648725,1.3550000000000182,8.0,0.0043593508579083,-0.0036001111101639,0.979699461702461,-0.0207012915019278,-0.0046689645063616,0.0067350744472095,0.9999839823893304,-0.00467273547516,-0.0027683314731672,-0.0015927488218284
20,20,1.3139999999998508,0.0,-0.0223459712943516,0.0115407892737351,0.9789593800305768,0.0014106880603631,0.0186730223680278,-0.0441185693042175,0.9980761783161974,0.0233762745825253,0.0364956365847104,-0.0443346430531825,1.3150000000000546,1.0,-0.0224280230021425,0.0065536839756659,0.9795192866965726,0.0003600546199051,0.0049209128760248,-0.1003737016815751,0.999232599524664,0.0092483217466446,0.0314295043416825,-0.021467809596901,1.3150000000000546,2.0,-0.0225998148150712,0.0085766860617763,0.9787403582291484,-0.0202836782341931,-0.0027453317862735,-0.1451911709198986,0.9949852836800988,0.010644964259127,0.0421332494376348,-0.0900875090552584,1.3150000000000546,3.0,-0.0179090640402958,0.0224979122853751,0.980045973089018,0.0282171114503751,-0.0147431633960468,-0.1077450120661941,0.9985254539552494,0.0189883012066761,0.0203129677134255,-0.0466234443539021,1.3150000000000546,4.0,-0.0191306132754452,0.0171466973995936,0.979926022924176,0.0069655976841171,0.0250737862683801,-0.1831524405647234,0.9917810963489976,-0.0009011646698142,0.0311683964825175,-0.1240885808111554,1.425,5.0,0.0180275726255379,-0.0148337977406378,0.973860855086506,-0.2098426454148151,-0.1931892890616514,1.3435611674525785,0.9969706836946104,-0.0310191482758905,-0.0309351628107085,0.0642672855783884,1.424,6.0,-0.004060614094035,0.0047293643450039,0.9871773622435188,-0.2160828661384241,0.1356461462466774,0.4609277797245841,0.9998502597944244,-0.0128182265956336,0.0032508010786756,0.0111616911044916,1.426,7.0,0.350193445250062,-0.2423045589311193,1.0043918815009842,-2.8499488546118874,-1.9052682922772253,-1.5834831297375265,0.9743316198023084,-0.1584935457786998,-0.1353233311935736,-0.0851192494949259,1.426,8.0,-0.0499478606558307,0.2004042351036867,0.9840530238602044,0.957871971958942,-0.3986959301602362,-2.5681770588428585,0.9901301608201404,0.0534381533661236,-0.0129792927963301,-0.128911467129999
21,21,1.393999999999778,0.0,-0.0233834217701935,0.0099088582980814,0.9794697698824326,-0.0058249718343186,0.0018765851028988,-0.035248533929779,0.9981267083373874,0.0212477112784123,0.0341622722963367,-0.046092819620331,1.393999999999778,1.0,-0.0210361400382888,0.0050367693855373,0.9786465714273188,-0.0223164921463166,-0.0205535506365587,-0.0922616787751181,0.9992306047002928,0.0073220143887907,0.028386886628329,-0.0260532417009489,1.393999999999778,2.0,-0.021129402613825,0.0066613182147528,0.9791517631015249,-0.0284782753815007,-0.0325163099503967,-0.0602064189914736,0.9949209172044996,0.0083271242526713,0.0375028074059178,-0.0930406736181137,1.393999999999778,3.0,-0.0193345267179951,0.0205705206704188,0.9795427656595392,-0.0493924791589681,0.0162260958250465,-0.0131049969703352,0.998557621614549,0.0157425604431763,0.0201540591042588,-0.0472087069067786,1.3949999999999818,4.0,-0.0203936047026058,0.0173476141039463,0.9793222968829692,0.0099575935656095,-0.0183911093000278,0.1754133564447458,0.992928353709766,0.0008513450513942,0.0279903239176643,-0.1153650786754888,1.4949999999998909,5.0,0.0340093708230712,-0.0218177030658931,0.978940933115552,0.0083959172808754,-0.0341965642304086,0.0447259482554074,0.9968875559986298,-0.0284597300640519,-0.0312603791153707,0.0665434681792543,1.4949999999998909,6.0,0.0080182214629161,-0.0029430931466989,0.9805264128657124,-0.0216807985855155,-0.0141240495740291,-0.0122696867879523,0.9998612722246214,-0.0127601215790845,0.0017892710712403,0.010555288327763,1.4960000000000946,7.0,-0.0011609690486595,-0.0017731559446407,0.9799640340690386,0.4493321044406,0.8156614600677939,0.272664016616687,0.9866502640540304,-0.1191075186456168,-0.0818828847840376,-0.0750323171949241,1.4960000000000946,8.0,0.0092803731949083,-0.0153500539246948,0.9783870657964936,-0.3924698455432604,-0.2364204420725921,0.5556918220877919,0.9942060703024412,0.0258196932687016,-0.021985764852693,-0.102001271350553
22,22,1.4780000000000657,0.0,-0.0225663042555597,0.0095234861156663,0.9798984973579916,-0.0370410693220424,-0.0226052542796847,-0.0107864989195975,0.9982796856532488,0.017742998092343,0.0308416004926413,-0.0466009754168123,1.4780000000000657,1.0,-0.019822155794585,0.0017366567986081,0.9794437534451984,-0.0834713078877128,-0.027685436115445,-0.1136041286755563,0.9991769497435012,0.0023374548877661,0.025296190683681,-0.0316237591506034,1.4780000000000657,2.0,-0.0197016244328323,0.0028818429085997,0.9783289533567724,-0.0676349685163261,-0.0167400209040137,-0.0720757659002806,0.9947341794588012,0.0041582750497483,0.0342406243075979,-0.0965101062690435,1.4780000000000657,3.0,-0.019488319983695,0.0185796059585385,0.9796550431793012,-0.056674017447742,0.0198489918671782,0.0411625491071009,0.9987023516674248,0.0124204268812178,0.0201865132253851,-0.045076051888394,1.4789999999998145,4.0,-0.0202701255610413,0.0132264434601302,0.97934885674265,-0.0646948533711808,0.0211991140598677,0.0284936007702496,0.993115091481457,-0.0014942490400726,0.0275698045092361,-0.1138423830166338,1.5070000000000618,5.0,0.0382151858708158,-0.0251429210925487,0.9794449617450656,0.0332343016058671,0.0229005643798691,-0.2204257961698503,0.9977204802872316,-0.0248352931736138,-0.0291829572273364,0.0555464349518834,1.5070000000000618,6.0,0.0110966652546028,-0.0055683907042566,0.9786208954672856,0.0155710307903708,-0.0609235541452201,-0.1059692803503272,0.9999238348284072,-0.0109612964389031,-0.0020553205596,0.0052867929624414,1.5070000000000618,7.0,-0.0913492477082973,0.0602520275916184,0.9733344790534376,1.2238286033208794,1.447828121369518,0.6963436913085055,0.998300464916082,-0.0396814403331519,0.0001133328689329,-0.0426796461686624,1.5070000000000618,8.0,0.0241840069811638,-0.0705545681141652,0.9768562774147276,-0.704910063004734,-0.1792423272794177,1.1995229396494944,0.9986240665432156,-0.0179733999001231,-0.0248775903158879,-0.0425210079466249
23,23,1.5239999999998872,0.0,-0.0204291056299057,0.0078909097400679,0.9790226683722068,-0.0465799355565987,-0.0681141958137258,-0.0436904516227992,0.998387382192238,0.0138689306014375,0.0255198064279836,-0.0487752736863737,1.5239999999998872,1.0,-0.0176713496273297,-0.0012614912202704,0.9800643509700012,-0.0724701213060954,-0.0714998066117316,0.0862915434585224,0.9994234882257712,-0.0015574492041855,0.0202173301259908,-0.0272309584330921,1.5239999999998872,2.0,-0.0165993580673163,-6.780344685062348e-05,0.980246120479161,-0.0051298398499583,-0.1171792387906616,0.1328979505809453,0.9956098152030924,0.0032274538336126,0.025827416042722,-0.0899089761568464,1.5239999999998872,3.0,-0.0176607375737917,0.0134476752014843,0.980223575711187,-0.0772278731874737,-0.096697278859858,0.0449453136173588,0.9989490747774916,0.0078738335780617,0.0143626971268251,-0.0428072619682816,1.525000000000091,4.0,-0.0172073249741048,0.0111312783817063,0.9788697577353306,-0.0329012029826097,-0.1007307474941977,0.3533087040437802,0.9951435912008928,-0.0024013339064515,0.0208313736134701,-0.0961744267497152,1.573,5.0,0.0477182034393994,-0.0417071327077877,0.9773666088739738,-0.1103281333146761,0.2832395697591786,-0.4124336748185682,0.9988350628655988,-0.0300294470854464,-0.0155867206418617,0.0344064476174168,1.572,6.0,0.0188983583450266,-0.0135418289638154,0.9738713831508644,-0.0071512598227321,-0.2146044391443066,-0.1177972541409943,0.9998483606363188,-0.0108430792931462,-0.0136175447994224,-0.0004958204753834,1.573,7.0,-0.3580102438780391,0.2464907364878426,0.9517925100062868,2.907350246551602,2.8587143686903453,1.426846778954996,0.9815461077321236,0.1257626163251203,0.1414698223356905,0.0271531231958131,1.573,8.0,0.0695273229107955,-0.2342210911710864,0.9709188595446498,-1.4889982382815967,-0.050870809665866,1.872187008348779,0.9931678135028442,-0.1042133746346191,-0.0148144371747115,0.050376574123703
24,24,1.6280000000001564,0.0,-0.0147408063105383,0.0018377094659721,0.9790675826791702,-0.1006983537845395,-0.0511565687535658,-0.0905833232720216,0.9983261968669348,0.0073459074883065,0.0214404590905291,-0.0532085426070184,1.6289999999999054,1.0,-0.0155472433030216,-0.0081993621235579,0.979469271435528,-0.1524813449059926,-0.0023911787226633,0.1071455083076922,0.9995373899379664,-0.0093138256674952,0.0191373461554654,-0.0217260385150961,1.6289999999999054,2.0,-0.0137011676850774,-0.0057626466000272,0.9798347156067846,-0.1699394120461577,-0.0347594311508299,-0.063527740812136,0.99539599933872,-0.0060212413823486,0.022982029202925,-0.092856747123741,1.6289999999999054,3.0,-0.0101670914725219,0.0038147875215983,0.9799939171480376,-0.2438298766976179,-0.1080813730730061,-0.0742276235015118,0.99887449071714,-0.0051599919472963,0.0085396628579452,-0.0463702537835446,1.6289999999999054,4.0,-0.0092363233019509,0.0053120196099719,0.980134415669364,-0.1794861436269434,-0.0750023122243196,-0.0198044030908147,0.9950934467933812,-0.0111577774267284,0.0163112368518975,-0.0969457565039616,1.6390000000001237,5.0,0.0134482874331936,-0.0182463160451354,0.979638818910263,0.2474048701064676,0.7339534067909615,-0.2657664631063389,0.9994140363639522,-0.0165981334198857,0.0221489171361235,0.0201373125164606,1.63799999999992,6.0,0.0177050208202646,-0.0086173734450397,0.9788034905498972,-0.2232064420454103,-0.1338944586285894,-0.0466152313342212,0.9995703720530466,-0.0213258845459728,-0.0198950618397258,-0.0029093773319222,1.6390000000001237,7.0,-0.1327023749505251,0.1005560656762286,0.9655560871012144,0.0593459288736641,0.147093043637436,-0.411083199010203,0.9824746213513924,0.1180464799687308,0.1440644727238826,0.0073535478661904,1.6390000000001237,8.0,0.0441154268250034,-0.1062296195932792,0.9732466784105226,-0.3938096334970278,-0.1971324800388128,-1.1804305808027795,0.9925234794837272,-0.1171003881446799,-0.0335103490778523,-0.007854824922385
25,25,1.6579999999999018,0.0,-0.0113635025455975,-0.0111744534160945,0.9795943050062856,-0.2844766463497584,-0.1506740482160715,0.3762187012671891,0.9992954771973532,-0.0081417850192534,0.013278708609647,-0.0341458121484092,1.6579999999999018,1.0,-0.0145416255083077,-0.0277944789364048,0.9796111514617571,-0.342782359922713,-0.0788794439589734,-0.168408695333777,0.9990866075396106,-0.0271521413045225,0.0141959503651969,-0.029785681976413,1.6579999999999018,2.0,-0.0080613005011376,-0.027491566027541,0.9800490953169556,-0.4475502465700262,-0.1177960031754572,-0.0514101989944623,0.9949019624215196,-0.0296439498248527,0.0173587555463168,-0.0948155842384258,1.6590000000001055,3.0,-0.0085762491116605,-0.0123858928147322,0.9799091986558536,-0.2632917854935399,-0.0604183208620566,0.2561735370820021,0.9992531773589648,-0.0184395173127182,0.005978260959569,-0.0334265184424977,1.6590000000001055,4.0,-0.0110490673661664,-0.0129450489498037,0.9795071943676704,-0.1244251793308789,-0.0303167579638037,0.4019812976193164,0.9968006778318288,-0.0166620147236002,0.014727335795343,-0.0767716843616749,1.7139999999999418,5.0,-0.1347268639997866,0.088866010473047,0.9664830594994344,1.772391300026284,2.484185981415715,-1.7695836510297238,0.9823626835113388,0.072296149128221,0.1565850738625463,-0.0722353065272922,1.7139999999999418,6.0,0.0320882845864633,-0.0394550291299784,0.97840259743556,-0.6191593166524407,-0.320603408234303,-0.9515074805583428,0.9966879297194304,-0.0511318226966539,-0.0378231201585207,-0.0506766123649488,1.7139999999999418,7.0,-0.1028656531909309,0.0837068386866566,0.970835631067736,-0.1987248223066654,-0.5064183651639939,-0.1745391196936199,0.9888460144151474,0.0995918913687812,0.1107124398154744,-0.0027875829982629,1.7150000000001455,8.0,0.0512525239773235,-0.1064771944292499,0.9732701504990428,0.0513377497008784,0.1076127319465349,-0.4289182458626466,0.9933099095993914,-0.1075411230740789,-0.0297058471675806,-0.0297975331809661
26,26,1.7519999999999527,0.0,0.0003891732392706,-0.0335046466234815,0.9791073930876149,-0.4281277228559547,-0.3785154252375727,0.4452044406658767,0.9994458093599686,-0.0307768563480896,-0.005520129755818,-0.0114187316986216,1.7519999999999527,1.0,0.0060204517393658,-0.0488403556230296,0.9790895637394316,-0.2724471277254859,-0.5005122696723568,0.7004300213337309,0.9990934260298328,-0.0407667254598939,-0.0106408713115314,0.0060968858428028,1.7519999999999527,2.0,0.0081397623645958,-0.0518304437412707,0.9789792384776252,-0.308106912929547,-0.4300361208124371,0.4833869345644305,0.9964843662631894,-0.0463007417615379,-0.0034012211903547,-0.0697393776843159,1.7530000000001564,3.0,0.0041989775167259,-0.0314970241971505,0.9791620427970736,-0.2641200554719683,-0.248542057626889,0.1463087588432753,0.9991407438540348,-0.0317722986379725,-0.0065238562002232,-0.0258018276551226,1.7530000000001564,4.0,-0.0132046127957941,-0.0249067274725468,0.9783794218642996,-0.4019115097208257,0.0683184419961463,0.4371205228623019,0.9976726007450478,-0.0356699048676898,0.0197475162992487,-0.0546541417401606,1.7739999999998872,5.0,-0.3378270533746149,0.1613231633783876,0.905251743420478,0.7809151494551947,3.0117512894077323,-0.8826444949193188,0.9409924505673584,0.1143808229327965,0.2998774932733268,-0.1073486113024279,1.7730000000001382,6.0,0.071634498301364,-0.1195464341323685,0.9700083240567304,-1.444983765964456,-0.9454094472439952,-0.7160945713320699,0.9848938610091242,-0.1242599294149095,-0.0845794391039503,-0.085964358714544,1.7739999999998872,7.0,-0.0926707647261287,0.0664790361431079,0.972643134514688,-0.5505017332374066,-0.3115106961499548,-1.137525471631155,0.9923124683317448,0.0592374781377434,0.0921569138415449,-0.0575672616027709,1.7739999999998872,8.0,0.0481939419433658,-0.1057548148512597,0.9736212113012612,-0.1273341550323109,-0.0832086784257458,-0.3644460230138379,0.9923711027535632,-0.1081724517455063,-0.0349404574812342,-0.0477229455717587
27,27,1.7970000000000257,0.0,0.0338129764495598,-0.0617543129358089,0.9763135190385552,-0.2906508040505975,-0.5067120807538689,0.5589095037681755,0.9983368221561372,-0.0458018225716231,-0.0305019982736458,0.0171875151670454,1.7970000000000257,1.0,0.0416213115638647,-0.0677474367967354,0.9770644560269174,-0.2746544946741702,-0.6276017548680347,0.570230940252722,0.9970455532508288,-0.0539015515079095,-0.0415434664426437,0.0356220140323044,1.7970000000000257,2.0,0.0478456240525743,-0.0769993740173638,0.9751101951369158,-0.3504704014918837,-0.7081886794774371,0.6328836546392194,0.9964754240716596,-0.0657452638075069,-0.0372045473281269,-0.0364706891379431,1.7970000000000257,3.0,0.0197184959987223,-0.0518769755767972,0.9774880870478948,-0.3775230068772088,-0.4321112820880913,0.9143451676809328,0.9981654511840512,-0.0509218682602965,-0.0255522490030418,0.0204884837483716,1.7979999999997744,4.0,-0.0042028768247669,-0.0489040004892643,0.978063768147324,-0.4181933250119918,-0.4993980408775011,1.5363341605158347,0.9981968749571608,-0.055180944970247,-0.0014927480942725,0.0235761286278285,1.8510000000001128,5.0,-0.4453375433494761,0.0918102893355093,0.8676026413373714,-1.475882630174293,0.0425834417416407,-2.0681488816784213,0.9358339759732832,0.0103085133640436,0.3021793921009353,-0.181096987704846,1.8510000000001128,6.0,0.1376150263723214,-0.1629590605332402,0.9569349241754472,-0.0665026284532986,0.2396028627082473,-1.048841725809383,0.9802019848979818,-0.1184328554212125,-0.0765077982622807,-0.1390118137565763,1.8510000000001128,7.0,0.0455740785576053,3.09992702817119e-05,0.9792022275315097,-1.5992872453576077,-2.784200107598114,-4.952062688438082,0.9537975303108904,-0.0548149562790192,-0.0646806578896255,-0.2882394911110212,1.8510000000001128,8.0,0.0939337016542871,-0.1002020210126039,0.9704524793510052,-0.6205331995142501,-1.1502917819144582,-0.8588341156106984,0.9825543266765494,-0.1342006080852696,-0.0966872925335668,-0.0850221111315466
28,28,1.8679999999999384,0.0,0.0620518183829522,-0.079008796824166,0.974625149408616,-0.2146359146209332,-0.5960517938307093,0.5474515210611182,0.9956398433676557,-0.0561747275043354,-0.0589839512565746,0.0454598260314061,1.8679999999999384,1.0,0.0788034190508943,-0.0897044147939189,0.9725498131779008,-0.3382155324539228,-0.601392031038869,0.4261014840499297,0.9934118296265358,-0.069528050342416,-0.0705385751424019,0.0576463042225652,1.8679999999999384,2.0,0.0891763286545845,-0.1017611811595627,0.9697598900844993,-0.3666986295737602,-0.6261122393131049,0.4315612362681183,0.994098506379654,-0.0846642813644252,-0.0664468998082008,-0.0135988448283284,1.8679999999999384,3.0,0.0655618089141384,-0.081737972592864,0.9739227654430892,-0.3038295695734378,-0.8009898240151628,1.0217622118906993,0.9931939853944672,-0.065407585369267,-0.0631188914453198,0.0728255497413569,1.8690000000001417,4.0,0.0484797986583387,-0.1058358159076668,0.973133849577336,-0.9371999278365528,-0.8493624174374748,1.356482424084388,0.989789272281858,-0.1002721080437684,-0.0402594165235772,0.0929617136534687,1.8910000000000764,5.0,-0.5163441780663593,0.0826724512833711,0.82842920975529,1.9920839278185145,2.0628847896999054,0.3441796005437091,0.901335916799902,0.1312224572942978,0.36845046979668,-0.186060428610525,1.8910000000000764,6.0,6.506391865814254e-05,-0.0567504754304349,0.9777854464580182,2.2359549033730577,3.930101434913311,-1.8836928215885225,0.9658262738057634,0.0353670801490684,0.1117099716553288,-0.2311918266309807,1.8910000000000764,7.0,0.1720970100289715,-0.0290644003466206,0.964188715849537,-0.266825537024304,-1.3251220087885591,-0.2346674851538419,0.9434830769743016,-0.0841272558227385,-0.1257490212870001,-0.2948719585450627,1.8919999999998247,8.0,0.1270863371788016,-0.1020955767636804,0.9669428918544092,0.3057318868927992,-0.1464388432386325,-0.0139884644642332,0.984950839061418,-0.1120851931435727,-0.1016246558167476,-0.0835534765303272
29,29,1.9760000000001128,0.0,0.099311644024446,-0.0954033849015894,0.9705114072026566,-0.2273774046650795,-0.6773396221383732,0.3765395668286684,0.9914955013789086,-0.0660061406227776,-0.091191754585381,0.0652987292457678,1.9760000000001128,1.0,0.1210865313745096,-0.1125939917632881,0.9651873626081616,-0.2219306320527608,-0.7507953713018585,0.5038703707423404,0.987711322576574,-0.0784955616636787,-0.1056846552541436,0.0842350502875821,1.976999999999861,2.0,0.1275662088541024,-0.1226922526077148,0.9635867752873304,-0.1959307983639461,-0.6441301119983925,0.5085921698715503,0.9908464164717776,-0.0943542932911069,-0.095574240780122,0.0136459078802176,1.976999999999861,3.0,0.1119905580234149,-0.1077634566326102,0.967918980249998,-0.4242883733971082,-1.0228010421346758,1.024299553650123,0.9824269481280504,-0.0841511826796608,-0.1102360385385295,0.1249155148600476,1.976999999999861,4.0,0.0983057009044049,-0.1677638155622325,0.9592665382247496,-1.110358858357339,-1.0493029486649528,0.215688080086419,0.9785535400919808,-0.1480081670870193,-0.096826969192621,0.1055987200962408,1.9540000000001785,5.0,-0.6079697211860153,0.1696538464333536,0.7502435541285022,0.2357607706390499,0.1323030635021637,-2.0054928075363736,0.878105512603763,0.1075299147786269,0.375803338116585,-0.2759345524268669,1.9529999999999743,6.0,-0.2154999998501454,0.0247477717608043,0.9559740048021508,-2.534960126038241,-0.5305909742833544,1.3375370442507064,0.9782665451067885,-0.0874061251658508,0.1187004096312395,-0.1458250621864964,1.9540000000001785,7.0,0.2322828227674164,-0.0473191363380461,0.9508683345150486,-0.0582998245827043,-0.3377254159372954,0.1878308744928015,0.944165134832693,-0.090521681318356,-0.138063150363852,-0.2851255686347135,1.9540000000001785,8.0,0.1532751900548472,-0.1233356175050806,0.9596624623107288,-0.3732063351548267,-0.4401094087053823,0.4466328827394265,0.9827872733990104,-0.1302761373078171,-0.1158944344705347,-0.0610391952097052
30,30,2.063000000000102,0.0,0.1301125888643739,-0.1119336363480023,0.9645908849211272,-0.1099741031703582,-0.6160342104360811,0.2127700336732316,0.987454285572777,-0.0690555502763536,-0.1191112635093914,0.0773166979712848,2.063000000000102,1.0,0.1652355894525937,-0.1209913760216984,0.958528187851891,-0.0407544175463731,-0.6468879540620278,0.1532455278871296,0.9833794068055052,-0.0761881512750602,-0.1354361317172585,0.0939008099092157,2.063000000000102,2.0,0.171393200475055,-0.1345890700778143,0.9557343527604872,-0.1173721778698866,-0.722464971697065,0.221167677049768,0.9863506151805892,-0.098027946773012,-0.1294664872830944,0.027228923131787,2.063000000000102,3.0,0.1749854279326654,-0.1395848601747911,0.9530850784799888,-0.2211840745675319,-1.1847327777771215,0.9960047102668814,0.9665539147530996,-0.0903442387901355,-0.1628986320200214,0.1762823986644565,2.063000000000102,4.0,0.1758378828841763,-0.2311018429003526,0.936660011504106,-0.8547695860019742,-1.3949284319518582,0.5578523389695699,0.9601485840953832,-0.1801476440482163,-0.1635537851481438,0.137519751916672,2.0300000000002,5.0,-0.6299421231214677,0.3061539079069948,0.6853748654499178,-2.4986675704229127,0.1802038710395066,0.2590198721586463,0.8887474239906971,0.0169258500970027,0.4094095457245112,-0.205488091669671,2.0300000000002,6.0,-0.3300925875340998,-0.0068628386219605,0.9225030000499144,1.955942663262992,2.7521871548045875,5.706391222638836,0.9653055759686212,0.0727887203118054,0.2162367624638647,0.1269984636064742,2.0300000000002,7.0,0.2672072330621677,-0.0516049614744531,0.9409730190342762,-0.3339719385930726,-0.9808109721949262,-0.5555902175530919,0.9271138416374708,-0.1135650055234061,-0.1804010477442363,-0.3082505087383661,2.030999999999949,8.0,0.1895215897804286,-0.1169630618385247,0.954703728479394,0.2372667586953384,-0.4873221502234796,-0.7860346455041756,0.9791398787745712,-0.1091366770641312,-0.1423846253167823,-0.0953986477163943
31,31,2.0790000000001783,0.0,0.1527900179286518,-0.1137729593138364,0.9617010575799187,0.1178059711774772,-0.5174712897455653,0.1066086072195454,0.9846298406877751,-0.0601748694388713,-0.1401523496316357,0.0850904272401609,2.0790000000001783,1.0,0.1970952329459791,-0.1246128442828366,0.9514678702876476,-0.030153664604715,-0.5788512447379931,0.0480943996483467,0.9793617626159952,-0.0730689631390113,-0.1608718119463403,0.0981413504725814,2.0790000000001783,2.0,0.2106901475494991,-0.1397567658863103,0.9467875728560072,-0.0163749094609474,-0.5860765063935666,0.0896013910408752,0.9825308493935148,-0.0957051155209431,-0.1558958607477869,0.0342073304262045,2.0799999999999272,3.0,0.2461657999658525,-0.1673042604281461,0.9331354046277328,0.0408625844106016,-1.1414061274386222,1.1501145079113335,0.9453602520192804,-0.0847696023724144,-0.208974250934687,0.2354524811123295,2.0799999999999272,4.0,0.2536286741602591,-0.2991414321955297,0.8986967782226198,-0.5999860970054642,-1.2771517274185649,1.1805190394296732,0.934402890404273,-0.204260785261064,-0.2137055618319391,0.1987428057836786,2.1399999999998727,5.0,-0.6215631868550362,0.4090685054965407,0.6377053885278358,-1.5101181853343864,1.8447307943625089,3.856518492308945,0.8768234455185084,0.0694807748834834,0.4753931010702624,0.0188272877877125,2.1399999999998727,6.0,-0.3583371226212959,0.1496330310523117,0.8995184614945865,0.3606795355311077,-0.1765879950740781,0.3667348420608477,0.9639657711193,0.0933163644929748,0.2061647080084264,0.1398504966025793,2.1399999999998727,7.0,0.3402564152671522,-0.0630845725272831,0.9163552305621424,-0.6887947367783992,-1.1402836282017177,-1.8115662271855888,0.8815906815122191,-0.142084622161522,-0.2299713821592402,-0.38694055590466,2.1410000000000764,8.0,0.2273136543872867,-0.1107713830011725,0.9464925795996,-0.1647561087201932,-0.811554259097049,-0.1850837215985973,0.9717871401104816,-0.1155893662055579,-0.1788947437206249,-0.1013189192856926
32,32,2.184999999999945,0.0,0.1821489518580168,-0.0943044784503737,0.9582324481467056,0.405800998502828,-0.3827583378992402,0.032570794124653,0.9833924394080986,-0.0368125131930686,-0.1528714020631863,0.0906337874009173,2.184999999999945,1.0,0.2130479054893017,-0.1155397237415678,0.9496816109646136,0.2851340326318878,-0.5703266656038193,0.2725411665619281,0.974877579494339,-0.0560702005255085,-0.1818691924354022,0.1157300067190127,2.184999999999945,2.0,0.2372852731045366,-0.1326369193792392,0.9407869826827382,0.239493904587888,-0.5827634510344034,0.4708644056485128,0.9783910893407282,-0.0834778070416882,-0.1788034371935613,0.0617386659877106,2.186000000000149,3.0,0.2916658258679957,-0.1675223190340505,0.9203408708984916,0.4485422217561606,-0.836472763639291,0.7609369112741841,0.9292567656075796,-0.0583479782998929,-0.2359149113738529,0.2782472490292078,2.186000000000149,4.0,0.2859796476977198,-0.3335032226879958,0.8759002463519515,-0.0127472624652797,-0.9549560768761656,1.5446031259453838,0.9079161897837116,-0.2051206838789657,-0.2376099485365186,0.2777682662402704,2.2229999999999563,5.0,-0.6010307309996217,0.3255793267041986,0.7012425845717736,0.2960291947092565,-2.256189266780139,-2.675573209742494,0.9273452196785952,0.0300281210102664,0.3572966478140729,-0.1070899666106829,2.2229999999999563,6.0,-0.3020999553294592,0.0718790714251418,0.9285133365121894,0.2297529101563827,-1.7159286479682212,-2.485556957879804,0.9885659267694568,0.0823255044085571,0.126220124606163,0.0053291555359231,2.2229999999999563,7.0,0.398522204096422,-0.0156796856608069,0.8934887801756147,0.4362413082200306,-0.7682288448119995,-0.7477881079235156,0.862092005402431,-0.1245430575266998,-0.2718474961487144,-0.4091275349824192,2.2229999999999563,8.0,0.3045133531123521,-0.100666114253222,0.926045328921554,0.0668762766638741,-1.193793506669819,-0.3505001281101497,0.959195947139474,-0.110521216219864,-0.2354135919248162,-0.1109442945515692
33,33,2.2590000000000146,0.0,0.1852020456060541,-0.0537497815729835,0.9608772883590232,0.8326147615290682,0.1669572464634149,0.2729819439180241,0.9847111571514392,0.003181756950385,-0.1351864524311429,0.1098109124052105,2.2590000000000146,1.0,0.2341091186409959,-0.0862550354830683,0.9472665883598717,0.6264536316110072,-0.3378348770281095,-0.2371614520317704,0.9755226747052476,-0.0187846205696828,-0.1891630989805671,0.1105439783526947,2.2590000000000146,2.0,0.2516629030292384,-0.1105862625408108,0.9410156543735876,0.4405883547573974,-0.428774083096448,0.2145106014001025,0.9763146709115076,-0.0590979570713214,-0.1930829171530425,0.0776922257154579,2.2590000000000146,3.0,0.3049150464779884,-0.128212209571837,0.9230192000971774,0.8068068335450346,0.1970517363598157,0.1503544677077358,0.9327779101220222,-0.0212701259476216,-0.2085645232324848,0.2932128779221187,2.2590000000000146,4.0,0.2896751090995547,-0.3353447681855386,0.8741820277372149,0.6992822694662446,-0.1774281148428338,0.69482291337959,0.9048612686850792,-0.1711826733766016,-0.2254735443842457,0.3179375057335542,2.2849999999998545,5.0,-0.5100530983532956,0.321450824618069,0.7719463739228047,-1.082108359834833,-2.0926299546099107,-1.1990947982025384,0.9573708502707794,-0.0385813686139838,0.2507112452857071,-0.1381897410626653,2.2849999999998545,6.0,-0.2698259398401013,0.0928197004943882,0.9371085664903176,-0.6303674627229103,-0.6693550150469858,-0.9401336824452552,0.9937086320399728,0.0416437092593764,0.0957649398296976,-0.0404726128113914,2.2849999999998545,7.0,0.4325859359728398,-0.0545438644349284,0.877543944683687,1.793391618379375,0.3965054278453365,5.665955538360509,0.9598577746767756,-0.100236067672108,-0.2412846930826457,-0.1020170574668491,2.2849999999998545,8.0,0.3867628475146619,-0.1732849302212648,0.8833894004008436,-1.3556072584761372,-1.5785176378349752,2.833899818070245,0.9397972853334988,-0.2148835443166285,-0.2647765302622369,0.0223498072474983
34,34,2.288000000000011,0.0,0.1840426653306693,-0.0206301844319448,0.9625350345978514,0.6228755035407565,-0.09564872451956,0.7468836312140064,0.9791563681684518,0.0288345186971329,-0.1333677942628085,0.1504473617586727,2.288000000000011,1.0,0.2237772153181341,-0.0584839383517597,0.9512688299630808,0.3393145527002336,0.4975748026769691,0.7424445457706675,0.9764680833938618,-0.011758144870847,-0.1552290564813506,0.1492506889974843,2.289000000000214,2.0,0.2665513874950357,-0.0891621690830639,0.9389320877618756,0.414681351864654,-0.0594776693473149,0.3884531837011858,0.9761246105288456,-0.0399646528459466,-0.1882867127514697,0.1006562717571918,2.289000000000214,3.0,0.2746751400573978,-0.0829211369124421,0.9365568068662986,0.8158953876218918,0.8164834652355352,-0.4155860458695425,0.9480268356415,0.0121123008973715,-0.1512283732423601,0.2796933860444416,2.289000000000214,4.0,0.2470524175559968,-0.2789092555703474,0.9059363830517748,1.7912646654914297,0.602961878480651,1.6243520459474463,0.8973489184979265,-0.109889287452851,-0.1539972163777226,0.3987155882601269,2.3150000000000546,5.0,-0.4381674702330144,0.2816009834322696,0.8297862099116731,-0.4097456995738373,-0.3312186765155391,1.7578537786303017,0.9708727934406532,-0.0181710701667763,0.2352115163881768,-0.0418494172493608,2.3150000000000546,6.0,-0.1668727906013347,0.0355716314396587,0.9650425538771044,-0.133913065666671,-1.5234786104880476,0.9358972613366692,0.99926755671913,0.0341830195470715,0.0168057590971884,0.0036657501813287,2.3150000000000546,7.0,0.209114828645812,0.0221392719831656,0.9568494349042008,2.6531717308663576,4.321055561313529,1.977240850034485,0.998755938689058,0.0442897263408821,-0.0197443700365228,0.0116256150740154,2.3150000000000546,8.0,0.4071898664849225,-0.3540208119396554,0.8179808538991473,-0.2764373554346989,-1.1100658373205528,5.804372582710812,0.8855603859867341,-0.2896467204820689,-0.2168843193341011,0.291288125593873
35,35,2.3710000000000946,0.0,0.1730605710279995,0.0078888724185274,0.9647838122851288,0.4067625241919149,0.2096632018914342,0.1382433504502442,0.9792436542854964,0.0451108645601829,-0.1156927624866718,0.1601938205687808,2.3710000000000946,1.0,0.2010276304904245,-0.0304127607958694,0.957861657944496,1.2284306645909668,0.1506095037042347,2.1174020539799536,0.9560021063203806,0.0307688785067338,-0.1360382909786218,0.258082994817654,2.3710000000000946,2.0,0.2154737082765873,-0.0588263586039865,0.9540254402136932,1.2737152251141193,1.0922433027388083,2.1791758877150667,0.969712386388418,-0.0014770262272603,-0.1195541812284071,0.2129847502268843,2.3710000000000946,3.0,0.2005258364225432,-0.0488369112182234,0.9584233641923088,-0.0916431437375622,1.2341844166516942,-0.4698983067389197,0.9626593650774272,-0.0066859641086764,-0.0883506783956122,0.2558053993560285,2.371999999999844,4.0,0.1811212633924495,-0.1357129317992751,0.9540393535329496,2.902210470250933,0.9826443842237396,0.114946268161239,0.9123101358217304,0.0115106756441949,-0.0463569265821659,0.4067047525921058,2.4340000000001965,5.0,-0.3807630318052497,0.2645298909862459,0.8631225002195688,-1.0418191723639745,-0.7007179716090656,0.8061780853561018,0.9783763939681364,-0.0454104015574928,0.2012953624679389,0.0140607327402993,2.4340000000001965,6.0,-0.0801108974670146,0.0294058994453949,0.9751597495717492,-0.7817172588810918,-1.383726771271822,1.1932551701781693,0.9968721223363102,-0.0056086080673846,-0.0496472693406479,0.0612344990284429,2.434999999999945,7.0,-0.1150392845931624,0.1573523440001688,0.9602459074830498,1.4032299079806754,5.6551957811806,2.2117349164286777,0.9542685317508552,0.1074386553017353,0.247482607893455,0.1287667016245887,2.434999999999945,8.0,0.352025993576664,-0.5249951276078887,0.749004549942348,-4.241021664144227,-0.965710272475021,2.828193715804072,0.7682921569651251,-0.4604896953919415,-0.2535790578503687,0.3652041393569246
36,36,2.423999999999978,0.0,0.1752781200714712,0.0221924925168567,0.9640845781880862,0.2452406658758171,-0.0125147798914294,-0.0031694604879036,0.9789894072148464,0.0553039411122938,-0.1114424801190817,0.1615604787176617,2.423999999999978,1.0,0.1643500535228501,0.0220651307315186,0.9662774911550184,1.0143422353206035,0.9237077081501734,2.025897865517744,0.9292930192774408,0.052326978986576,-0.0789330003471779,0.356995732535487,2.425000000000182,2.0,0.1194067240145307,0.0154582472170986,0.9723538845775712,1.387380376789888,1.4687301311682912,1.3379360814546906,0.958293190167732,0.043715973280719,-0.0305167136573882,0.2807700225198971,2.425000000000182,3.0,0.0954724110814142,-0.0277569675080275,0.9745607058962822,0.2633189066199637,1.863731145583576,-1.5268107987597637,0.9839708670715052,-0.0100724871095319,0.0103480359831945,0.1777436241030007,2.425000000000182,4.0,0.0825765187345707,0.0742624172646832,0.9733340700580072,2.798872242711552,1.3578021629709562,-0.2034412607208497,0.9101350365713848,0.1158932042608135,0.07576936321714,0.3904894160012977,2.463999999999942,5.0,-0.2888823961557775,0.1916195242584447,0.9169372492784138,-2.7355415425101737,-1.2379563911545524,2.098144731480278,0.967664415517114,-0.141879493948605,0.1469765818053532,0.147965105817637,2.463000000000193,6.0,-0.0291475704459488,0.0105739574092995,0.979529790543302,0.0688547236508337,0.0726088820944932,1.6989029636408028,0.9886404838903072,-0.0056136508486515,-0.0387885125428291,0.1450997306407005,2.463999999999942,7.0,-0.3285288759578476,0.2088415869001551,0.8991390155270196,0.0435455894787388,2.464791208207426,1.2868677188796196,0.9107506776467632,0.1066309520782545,0.3454616689178174,0.1995476848609444,2.463999999999942,8.0,0.1910996248409041,-0.6127817256652947,0.7410536350874539,1.8163350692957525,0.4808641250317355,3.4169172013755724,0.75460972345639,-0.4196535098359373,-0.1252117737683801,0.4886482463462088
37,37,2.4989999999997963,0.0,0.1694029277301935,0.0429350077716694,0.9636048117273416,0.2781099471320075,0.046653278203463,0.163234341513747,0.9774574776178888,0.0656690957629275,-0.1045159760651615,0.1712917396073148,2.4989999999997963,1.0,0.0909303585649765,0.0523927877190784,0.9740737475603518,0.3406812335029153,1.015456789628384,0.4492298794788018,0.9235327626871528,0.0470483923323796,-0.0224488836901636,0.3799601724436908,2.4989999999997963,2.0,0.0346619120124525,0.0841532670183907,0.9752367812514928,0.9101128250126465,1.5190904126969655,0.6721266015650573,0.945722189126762,0.064564908260178,0.0545162562225868,0.3137975325303125,2.4989999999997963,3.0,-0.0108120014042601,-0.0082770171971234,0.9784536737178476,0.1300554427398318,1.7326730434459052,1.3296654188509696,0.9661604444668144,-0.0178830333505115,0.095778365913776,0.2388319436104796,2.4989999999997963,4.0,0.0367650276759328,0.2435535746894503,0.948277907048339,3.116217677936924,0.6754981372118662,0.9960377948944796,0.8641469243190263,0.2410991746339408,0.1486185256060728,0.4159733345149382,2.541000000000168,5.0,-0.2543462626669382,0.1179837959910618,0.9385482419944648,-0.892912458107347,0.3348225026211863,1.96167629389982,0.9413937029303516,-0.1543705090386634,0.1701987601842643,0.2469413372725684,2.539999999999964,6.0,0.012754977325836,0.0101555265062232,0.9785290878838496,-0.5851828129975838,-1.3915669696195088,0.5792530954334737,0.9790250843305848,-0.0241422480376102,-0.1070625790985649,0.1716526733492534,2.541000000000168,7.0,-0.354421276899285,0.2441208805283434,0.8801929073624407,-0.0337863274350718,-1.0812260990359377,0.7643546790534226,0.9247518854081848,0.1265181537873268,0.2762058262425093,0.2292104900434239,2.541000000000168,8.0,0.0060339437236625,-0.3743568931836566,0.9054929641079604,4.935812572363229,2.712323717208627,1.1484154214279814,0.8426311060145186,-0.2514569651223793,0.1253954383785374,0.4593671711191885
38,38,2.568000000000211,0.0,0.173049766037175,0.050324563685052,0.9632965362568208,0.0378936501683324,-0.1267565875018335,0.1545784540598515,0.975677715924468,0.0653151893637778,-0.1087199323670088,0.1787928885411837,2.568000000000211,1.0,0.0567824794828595,0.0637741364966158,0.9766010493225415,0.209045860914343,0.206887578504923,0.3261815283295439,0.9169705567466544,0.0517395256739424,-0.0090370272610775,0.3954824290421115,2.568000000000211,2.0,-0.0300401944497311,0.1163918226308332,0.9725325343360474,0.4268622849981049,0.7429821003407795,1.1379818531088497,0.9230307848256452,0.0743625069016898,0.0890876514368258,0.3668075492583545,2.56899999999996,3.0,-0.0884226353447139,0.0507257925226193,0.9742994054866544,0.7675035348043049,0.6451942096267134,1.6105899293716637,0.9418255259337242,0.0214760354761083,0.1288142964854589,0.3096939386246514,2.56899999999996,4.0,0.0650643355813418,0.4298192597572466,0.8781833727514382,2.931129757805389,-0.2504631860637047,1.4075426927937675,0.7992387817932209,0.3709268283326424,0.1648925370561628,0.4432167741906395,2.6579999999999018,5.0,-0.1008319364108462,-0.1139725794509579,0.9683910221253264,-4.213772423174636,-2.794764806445609,0.4748979610059456,0.905803506346277,-0.2956680716083849,-0.0172565187660718,0.3029894583681838,2.6579999999999018,6.0,0.0562361463541243,-0.0021882677007625,0.9786657791747432,0.3961054838443457,0.136012809179322,1.0306734524381749,0.97069418638856,-0.0088047641021633,-0.0886997669354327,0.2231762173399234,2.6579999999999018,7.0,-0.1886456916864158,0.2736833146174926,0.9207085566606492,0.2858000533283729,-2.242567599886085,0.6226476694664329,0.944088622313785,0.1718112819558998,0.1519317229503454,0.2368423698827326,2.659000000000105,8.0,-0.200161879593974,0.0320435747639895,0.9589246223107172,5.537432443645348,2.6984689150465795,-0.1783212173927101,0.8728632922476836,-0.0416075634966813,0.3575239956411039,0.329476973773926
39,39,2.625,0.0,0.1858913849810307,0.0671655543929377,0.9609569091759128,-0.1554352350948124,-0.451161078196498,0.130488060116436,0.9726548031839692,0.059640288218682,-0.1302988405858834,0.1827782317627604,2.625,1.0,0.0538917518625157,0.086081504403511,0.976759260862582,0.1460755949428002,0.1757340314854287,0.9746603984194104,0.8966790897778102,0.0542787906801929,-0.0007939403841499,0.4393401785589386,2.625,2.0,-0.0485482534985864,0.1589853388178813,0.9720384401468908,0.2431428481338091,-0.0087625015488904,1.2864537224185264,0.8976183722982427,0.0902730790107091,0.083685976219109,0.4232359700011736,2.625,3.0,-0.1179890498670965,0.0902803983816084,0.976105032145372,1.4936487883376866,0.2296514370127363,-0.1432973690306446,0.9394661734945288,0.0874468347756085,0.1572821285636622,0.2915796494643594,2.625,4.0,0.0742398504336464,0.5432428318820072,0.85201271716824,2.8186346629422854,-0.3242252672769017,0.8218831739966974,0.734916571676764,0.4783960441758891,0.189457948857835,0.4417471484982264,2.7390000000000327,5.0,0.0104320303402898,-0.1995995127515397,0.9590981218062764,-1.2430341172929504,-1.8258718144435653,1.4146703357638717,0.8655831209067693,-0.3033690057661854,-0.0951257633681495,0.386890418962993,2.7390000000000327,6.0,0.0795671241992234,-0.0288288431243891,0.9764419954870716,-0.7824475518104578,-0.6092876129808306,2.754751742426467,0.9297882436441368,-0.0501777652544404,-0.1136786322126646,0.3464869152413686,2.7390000000000327,7.0,-0.1130091958807644,0.3689260313687924,0.9006350565155987,0.7616030570205861,-0.3464672192382455,-0.6500595967367898,0.9470386390850736,0.2067504637134937,0.1463270639055359,0.1973840221571443,2.7390000000000327,8.0,-0.3209091768914208,0.2290326088127777,0.897350190442552,4.767016624000374,1.410059713582407,1.425300311283928,0.8243699128924261,0.1662647271115271,0.4597802494684715,0.285258495815591
40,40,2.68100000000004,0.0,0.1825271773092273,0.0568968633107182,0.960471018036946,-0.2139111036535682,-0.0613591961394613,0.3093897628053517,0.970583831447138,0.0464322073960944,-0.1315987479995399,0.1961959372022602,2.68100000000004,1.0,0.0541269804753009,0.0712838012495637,0.9753547506748704,-0.0209850742497899,-0.0356999144668977,0.1547758293424161,0.8933409737541619,0.0531835436963385,-0.0040596423205332,0.4462027953701037,2.68100000000004,2.0,-0.0102275359713471,0.1394599913070711,0.9702264211680623,-0.1409997990489075,-0.3033087162851267,0.2500090657669022,0.8945562787869284,0.0886363212598535,0.0612012257643269,0.4337822917101928,2.681999999999789,3.0,-0.1095020113622525,0.0902818535827388,0.969943037719889,0.5317544213031108,0.3119528889583751,0.5674535124934327,0.927977719451694,0.1062004726712518,0.1676522276994251,0.3153910942830437,2.681999999999789,4.0,0.0876651581370248,0.5646389505119773,0.7962635716981804,2.005662278083653,-0.1689518988187726,-0.4886486275596744,0.70818476025554,0.5307010798564985,0.2335901161892145,0.4028229968604808,2.76299999999992,5.0,0.0887556527503903,-0.3140412817809849,0.9234681951438328,-1.9716883883930256,-1.6699825868376634,1.6867723901898797,0.7978182905495287,-0.3414177436862737,-0.1715015462595907,0.4663765851662919,2.76299999999992,6.0,0.1367789593737287,-0.1069249070466882,0.9644498849218122,-1.3773985889577252,-0.8610985576224139,1.3044468476866458,0.8967984082629074,-0.1021044364861393,-0.1663066268146092,0.3970760693677096,2.764000000000124,7.0,-0.1380421301641579,0.4015325266341207,0.8834545830740594,-0.0322361192540729,0.5568685752250665,-0.3261424053643975,0.946875123193801,0.1956474039802442,0.1723385854045309,0.188279065148732,2.764000000000124,8.0,-0.3205290166646134,0.3220966086253033,0.8686805651032458,0.1300384524550042,-0.1165644799297753,-0.4383467801197285,0.8435842275705164,0.1574156492585613,0.4378332547598723,0.2681193864477869
41,41,2.711999999999989,0.0,0.1754361553587093,0.0291062340018311,0.963000510142744,-0.4482724361084182,0.1416380510541024,0.5798803219306355,0.9669661054703504,0.018137983230346,-0.1249958966205174,0.2214127147746307,2.713000000000193,1.0,0.0542110102108832,0.0586426229832249,0.9768358148335692,-0.3171008410335446,0.0272108581889138,-0.4378436527950796,0.9037892971747168,0.0369052340411022,-0.0098231695200544,0.4262703547672333,2.713000000000193,2.0,0.005192279212468,0.0969333181908314,0.974777396158269,-0.5635341800387597,-0.479881161197556,-1.1690468401480625,0.9229264332503908,0.0648776916271206,0.0263298504139648,0.3785557064872046,2.713000000000193,3.0,-0.1357628984391337,0.1000736423749966,0.9650967316850714,-0.1530541333337737,0.5614611070614827,0.363400855182537,0.9202014024662823,0.0855409156351365,0.1810971314041084,0.3363271616277705,2.713000000000193,4.0,0.0672205481544638,0.6405734864497351,0.7384192619125294,0.6707154106926173,0.2590102847185661,-1.022639013356589,0.7197599585876655,0.5183992313942721,0.2745269760831481,0.3712718388274992,2.825,5.0,0.4733218950970714,-0.8343766227873723,0.9083044836219052,-12.508043416741614,-5.07127961025506,5.332521440674369,0.460344466794623,-0.5710318035566472,-0.4843004603288184,0.4769263206656889,2.825,6.0,0.4192984349865451,-0.4249314305259871,0.9448132629091168,0.3835735320427159,2.700145753585026,-0.6398388133392288,0.9272435418162523,-0.1321272031108661,-0.0462477608759344,0.3473081642750631,2.827,7.0,-0.6380300962427674,0.5123492088879759,0.8007158574927253,-5.013498897975279,-0.2261786332348759,-1.9875090942080864,0.984539043292389,-0.0712853948636754,0.1185366128605721,0.1074724900780667,2.827,8.0,-0.4573666930298329,0.1906592483347826,0.7018103441324944,-2.1413908295882425,-2.5372722277921054,-3.5407458189645302,0.9564231345420752,-0.0034286718609561,0.2655889713239347,0.1212663606820755
42,42,2.769999999999982,0.0,0.1582397887457281,-0.0004058004287854,0.9669152003064796,-0.327220389016777,0.3924402583091969,-0.0258602320820796,0.970228740976634,-0.0019504955919441,-0.1049470527004688,0.2182624609943868,2.769999999999982,1.0,0.0505210524093124,0.0408538635602748,0.9778075399052994,-0.2840709241239448,0.0724159202598985,-0.2841484763778984,0.9102861324572432,0.0218581564632379,-0.0127289377883632,0.4132061860558755,2.769999999999982,2.0,0.0518602381761046,0.0698478360800124,0.9759932353716688,-0.168279428415271,-1.0556558565197462,-0.6861188790834456,0.9364883685775248,0.0737210326895149,-0.0275463432618984,0.3417542155279074,2.769999999999982,3.0,-0.1825241622382832,0.0582798200243297,0.9615385550133416,-0.8432139713747554,0.5507128819285245,-0.3061976315895813,0.925278682958473,0.025611462995865,0.1843591846028882,0.3304770837416766,2.769999999999982,4.0,-0.0053343833884316,0.629987012861702,0.7508574485076743,-1.067562762687847,0.6464663573685503,-0.8344635761113275,0.7670620842469568,0.4334441930272249,0.2873018514948159,0.3757652679124872,2.88799999999992,5.0,0.1461037815976731,-0.4835683014980752,0.8383342905960163,-2.461946321519268,-1.5170926705285546,0.6929213325736918,0.367531036473385,-0.5765830390343485,-0.5387637327882632,0.4921448735471814,2.88799999999992,6.0,0.1609690918893658,-0.2408428380398153,0.9361333659373756,-1.7532222203525925,-0.7237113855616024,3.216056963325677,0.8507885749779358,-0.1962583261996576,-0.082135106045681,0.4805156547285287,2.889000000000124,7.0,-0.1810775709157664,0.3804597378808835,0.884397139956284,-1.0168648207392956,1.6615550039429483,1.32503374802019,0.9595361081456828,-0.096875435172126,0.1994079597128672,0.1736147252625763,2.889000000000124,8.0,-0.3218221293908676,0.1953260495138992,0.904632661037408,-1.0152214976896896,-0.3750865632141429,-1.5768255042938306,0.9698744704552382,-0.0633203017107033,0.2273411794165925,0.0604155533940506
43,43,2.842999999999847,0.0,0.1179583926392663,-0.0212103142315625,0.9713402803220706,-0.1931959474991917,0.9867177798169684,-0.1314162719850127,0.9759741410070814,-0.0209735613796277,-0.0545261459390158,0.2099082781063714,2.844000000000051,1.0,0.0352853693620242,0.0191038835912884,0.978708835323722,-0.5869314282935505,0.4609204742686899,-2.2584108709985493,0.9528718976850634,-0.0148360708967663,-0.0043919652671987,0.3029781316258711,2.844000000000051,2.0,0.0968110749349644,0.0400684175593608,0.9732348831007988,-0.9784565654510432,-0.5560820647150905,-1.173116310154174,0.956739141009769,0.0339733980965962,-0.0699116467807699,0.2803718707824671,2.844000000000051,3.0,-0.1980210217688777,0.0021380563915629,0.9601422309493924,-0.7649877610749025,0.0358322612079827,-1.1306377421627,0.9449427646838984,-0.0274780034550679,0.1626952685731631,0.2825922510996722,2.844000000000051,4.0,-0.0551073581173522,0.5094100492671687,0.8347314423136023,-3.0481344297080404,0.4408535735329818,-0.5047445746481043,0.8428442572205843,0.2667324018933805,0.2411516794037044,0.4003913727482683,2.918999999999869,5.0,0.1908389955041983,-0.5117186804361509,0.8130298087325167,0.8727036596684494,3.1390953770927164,-2.234749753425856,0.5702907949104908,-0.5403094359597871,-0.4820465742827095,0.3878984698029645,2.918999999999869,6.0,0.1409287042750673,-0.3340905099041821,0.9094265399158494,-0.376806068271487,1.0110056204629083,-2.777989834141365,0.9127982069399712,-0.216890327292316,-0.081603446266745,0.336301794362736,2.918999999999869,7.0,-0.1856431345344229,0.3621627508904976,0.8917711413068161,0.1062725237501429,1.9184847711588888,3.217602042058687,0.9038336742527862,-0.0522281495379969,0.2876686110727252,0.3124158764948322,2.918999999999869,8.0,-0.2547307304236673,0.1371215551030231,0.9366792055468902,-5.427106304951328,-0.6452537772411703,-0.810883513251517,0.9347481563492211,-0.3104049562800779,0.1543073636176863,0.077999261867367
44,44,2.9479999999998654,0.0,0.0542316515347254,-0.0214057172487097,0.97833057973309,-0.0924356350321962,0.7054816660229186,-0.3600850962417202,0.9809740499619052,-0.0302888279083183,-0.0188715110582336,0.190830726759756,2.9479999999998654,1.0,0.0174896830212868,-0.0110937901212383,0.979897973673056,-0.3604591930921731,0.0320969486403297,-2.030400229741195,0.9788250495698784,-0.0312103350323626,-0.0120127739086471,0.201948336424722,2.9479999999998654,2.0,0.1200420775278623,-0.0211011061297293,0.9724539284423178,-1.041270281495584,-0.2943643096427827,-1.9815617827956828,0.9792886419299286,-0.0089800949494267,-0.0984418995256424,0.1766983477554855,2.949000000000069,3.0,-0.173174524835756,-0.0659838523648973,0.9618906981435044,-0.4459804562842679,-0.9194673878825774,-1.60335414967339,0.971887996072849,-0.0522143094988956,0.0980615436198771,0.2075844951723088,2.949000000000069,4.0,-0.0960144949649501,0.2560241937002326,0.9403354874707066,-4.500974671236083,0.3834540128943523,-0.9088190104149207,0.9077728121908196,0.0223775325351629,0.1534380159022562,0.389749333239696,2.9890000000000327,5.0,-0.0723309762151682,-0.3574024820731616,0.9102053041417107,1.710818340863428,6.039223024215207,-2.586564722709052,0.8284746439128616,-0.4837549902191252,-0.2303786382815769,0.1629004507516083,2.987999999999829,6.0,0.290160724415056,-0.344589699913928,0.8700492472958983,-2.2248256961798014,-1.9652308192958725,-1.9285169877261736,0.901219712302638,-0.2647869012567264,-0.2433967727182763,0.2417621519393372,2.9890000000000327,7.0,-0.2390404402110315,0.2554987402981569,0.9154463728967258,-1.5948242931403096,-0.1302257106764788,-2.5388381650955107,0.938430183186858,-0.1479787116577419,0.2245660786532444,0.2168436498915742,2.9890000000000327,8.0,-0.1813915812071218,-0.0608568191064201,0.9604054049386792,-0.5667436143498754,-1.2197125323576794,-1.878030793754288,0.9455402962600906,-0.319982555297336,0.0576994196968421,0.0153456645478532
45,45,3.0230000000001382,0.0,0.0314111999325753,-0.0364099665905403,0.9780151588046432,-0.2876156050945357,0.2588835496069661,-0.1884195266150134,0.9824385480218322,-0.0451922753347531,-0.00936452226815,0.1807884491152889,3.0239999999998872,1.0,0.0019424397182652,-0.0192931522447963,0.979666270320868,-0.0430987198022618,0.1598547699078771,-1.962696237265236,0.9941421864082026,-0.0314306992148903,-0.0066197314168395,0.1031969161668637,3.0239999999998872,2.0,0.1203950982676478,-0.0655752728348639,0.9707439950397616,-0.5671536661710803,0.4309078376866304,-1.2879521568647347,0.990038653200656,-0.0358082059305286,-0.080914685608252,0.1095173557459553,3.0239999999998872,3.0,-0.0797948045067747,-0.0866251419412696,0.9731674439465084,-0.2252232217684161,-1.1831161157797043,-0.5571017709392242,0.981223993681528,-0.0535880564105842,0.0292053546762934,0.1829613120089617,3.0239999999998872,4.0,-0.0954634320388741,-0.0363751583730305,0.9743842060484644,-4.258288006228504,-0.2120600092865372,-4.801084099684895,0.9646848266597852,-0.2217266425236102,-0.0081008684645198,0.1419678031727899,3.09900000000016,5.0,-0.3460818753477109,-0.2300451866442693,0.8880566128674537,4.400244290051077,4.364917429757033,0.1238766768796365,0.9583753033233132,-0.2606464701609966,0.0517768093727458,0.1043999884278642,3.09900000000016,6.0,0.3673769959621562,-0.2842836612407838,0.8623792337419524,0.125269405423545,0.6425516653304177,-1.4797508255475622,0.93174403421937,-0.2319864930830744,-0.2265008648609083,0.1635013147986601,3.09900000000016,7.0,-0.2306661907733754,0.1196970790899536,0.9448024754896832,-0.7814171036344252,-1.5005997884457196,-4.583791287724687,0.9764690588842708,-0.1989364237209355,0.0824062953658046,0.011902892206287,3.09900000000016,8.0,-0.0946538454153266,-0.0919343354791418,0.9710709178572388,-0.3318935446236766,-1.459434575897076,0.3849339153620971,0.949695281356364,-0.3074962313078671,-0.0069680640055728,0.0589608886036299
46,46,3.05600000000004,0.0,0.026459667710024,-0.0466783349727873,0.9782223770844968,-0.0950968510242806,0.0621878233224497,-0.2208367471061322,0.9842972508525488,-0.0479075998949805,-0.008516819512714,0.1696798385837421,3.05600000000004,1.0,0.0247681938680748,-0.0110848142278937,0.978886440536412,0.1930070258677157,-0.4007426482650822,1.351757318660917,0.9849570626316516,-0.0175472353155118,-0.0248049220675538,0.1701070108667874,3.05600000000004,2.0,0.0881978111664384,-0.0396439486727278,0.9756328732874284,0.7868023244597262,0.5844938294043399,0.6621041953779385,0.9886253758810196,-0.0006597696268669,-0.0441616748802888,0.1437677896467757,3.056999999999789,3.0,-0.0350098939997807,-0.1061754094061309,0.9728530668911748,0.1351407881057382,-0.9840882101675296,0.9412184013442974,0.9723127894475402,-0.0368474480353289,-0.0178589037647352,0.2300677391690304,3.056999999999789,4.0,-0.0096817615742231,-0.2278186062016291,0.9531730934941288,-1.4415733225165828,-2.161499563354549,-0.3395212708168353,0.9455441085557552,-0.2627429877122754,-0.1252212770305285,0.1457123637937852,3.135999999999968,5.0,-0.5331911843447855,0.0671053480428323,0.8186904379562859,5.332696635421192,2.4778730003246285,-1.1604478336134296,0.976161456351046,0.0202957887548217,0.2160554344715005,-0.0041159845427086,3.135999999999968,6.0,0.2699307761543528,-0.2037800565448516,0.9194090844881212,1.4203188662229254,3.399933848213556,-1.764405030884339,0.9863609720232004,-0.1497236603576653,-0.0488372303344709,0.0478516805536439,3.135999999999968,7.0,0.1307486476746607,-0.1102698263521438,0.9655999982019032,-1.537210448456837,-0.7846081470602396,-4.219774795592078,0.9457302022765144,-0.2698910249353421,-0.0288864096652134,-0.1786583177409531,3.135999999999968,8.0,0.0095160461735198,-0.1467878956692097,0.9688982188807184,0.6209559338493278,-0.8320984015237252,-5.805884959859709,0.9429120377843768,-0.2397294120312626,-0.1140114691268384,-0.2011170875783523
47,47,3.1140000000000327,0.0,0.0184603728362298,-0.0475840973066624,0.9786592707976854,0.0305983693516388,0.1503744654452082,-0.4698790201595921,0.9882573112698184,-0.0448930395606507,-0.0023710552059971,0.1460358853774138,3.1140000000000327,1.0,0.0065577534648604,0.0021137519763539,0.978464883336176,0.2608126609930679,0.4602435612002557,0.4657428832615032,0.9812451575775948,-0.0073205878824057,0.0023390476819843,0.1926106917580605,3.1149999999997817,2.0,0.0312153665245388,-0.0053392040188367,0.979264057235424,0.2641068386008131,1.0845661459745997,-0.184440532071666,0.9907985697472512,0.0050758127701134,0.0143878527560767,0.1344820434280854,3.1149999999997817,3.0,0.0658870320134925,-0.0897927523208147,0.9740442293053772,-0.8534505731434608,-1.6886660437760248,0.5769916586102133,0.9584310635429582,-0.0587621059632573,-0.1092967554380312,0.2569263135402757,3.1149999999997817,4.0,0.1067987375612432,-0.2591171721690288,0.9392557270213744,0.0163126694009289,-1.592437347898039,1.011476025915948,0.9289922718981484,-0.2424946737355127,-0.181448696182523,0.2127112188322144,3.199000000000069,5.0,-0.5935863958591596,0.0715136000707819,0.7763703984927871,-1.1173591783532697,-0.6188691490839161,-4.768266853868609,0.9565191133510466,-0.0821561091393725,0.1720563360002647,-0.2207219444626457,3.199000000000069,6.0,0.006164140904068,-0.043529278169032,0.977820129322872,2.2100031751804625,3.990834053646049,-4.237394799993739,0.9709383774692792,-0.0214723395715365,0.1522089387875334,-0.183439485236471,3.199000000000069,7.0,0.252616735493855,-0.1625316986232443,0.9330751480406444,-1.1519995594607986,-0.8444460339064365,-5.0005197753198125,0.8623948460473382,-0.2982408035975508,-0.1367716199451107,-0.3855140419726177,3.199999999999818,8.0,0.0709755280967936,-0.1035923522135081,0.9711066362528132,-0.0599609053694112,-1.3639762991752769,-2.103167840827388,0.9130817897329876,-0.226093449139763,-0.1906138626935151,-0.2807663670441088
48,48,3.193000000000211,0.0,0.0213835401395326,-0.0471538267012231,0.978139693928496,-0.0637259628908588,-0.1976019285346029,-0.6464512851936828,0.9923494832972584,-0.0442384493210788,-0.0152688732064614,0.1142467684984367,3.193000000000211,1.0,-0.0182104404032143,0.0131985662042476,0.9792794175874796,0.1003756339763968,0.4840021308859457,0.2551627140633034,0.9784072407901844,-0.0058270013800487,0.027862724156429,0.204716843046286,3.193000000000211,2.0,-0.0359424758040862,0.0078817272403929,0.9794406652823748,0.2374076603338374,1.1623977124042926,-0.4347063450486738,0.990868423091248,0.0083595161578401,0.0741562948969707,0.1122975090437176,3.193000000000211,3.0,0.1563015610863605,-0.1398996737255237,0.9575363717861888,-0.4758169486026373,-1.42784680492305,0.2598020266527345,0.9439924108461024,-0.063207553678142,-0.1804154126083764,0.2689487168891815,3.19399999999996,4.0,0.18312235790376,-0.2561750462137697,0.9279841311860568,-0.0825578880709843,-1.362182506432134,0.405979476746888,0.913997608065758,-0.2223137361659007,-0.2339300947062059,0.2458895808137806,3.320000000000164,5.0,-0.6152511571251575,0.1282778345770156,0.7503231375963202,5.311956384973321,2.491004554130434,2.2427414524320994,0.9407268231376404,0.235401303230395,0.2109576248158437,-0.1229477580066088,3.320000000000164,6.0,-0.2684180863681454,-0.0219021150660795,0.9421008588607144,-1.531155825871528,3.5344630973754434,-3.0786081988201723,0.8966648884215808,-0.0776258537820022,0.3082420929092983,-0.3081446362593791,3.3209999999999127,7.0,0.3450408145787248,-0.1461342379760912,0.9055449302856248,0.226797598326853,-1.1375721522544344,0.0263311345072396,0.8610855172098347,-0.2955298641954281,-0.1890654619211989,-0.3680327193723772,3.3209999999999127,8.0,0.1653664360303186,-0.142852640011387,0.9541955067366474,-0.8992079923476534,-1.2675805202885873,-0.1052182387875748,0.8936588808861732,-0.2704702319078857,-0.2236357544259023,-0.2796546220024341
49,49,3.29300000000012,0.0,0.0425670911640178,-0.0563374844574433,0.9761604020829984,-0.1256775146512952,-0.2129448592027518,-0.5649656853513858,0.9947343124908364,-0.0470086840808019,-0.0288640699781498,0.0863753242464005,3.29300000000012,1.0,-0.0420455802336306,0.0140132616554836,0.9788078451261985,-0.0548244614579008,0.1743554382402097,-0.3504980006391264,0.9815833904441624,-0.009944315683313,0.0351388371799923,0.187511120500549,3.29300000000012,2.0,-0.0962801454182898,0.0164765875721494,0.97502546410861,0.1196312564859759,0.5776719144726504,-0.2385730354541925,0.989780472210241,0.0095987997620841,0.1010714350632371,0.1001351331384626,3.29300000000012,3.0,0.2229465734319701,-0.117499832921111,0.9472558337948912,0.4915824204775226,-0.8171064987156476,-0.935249243840049,0.9505455896281644,-0.016730636734233,-0.2077880588431898,0.2302331219331634,3.29300000000012,4.0,0.2498382935978865,-0.2674021133328382,0.908907001203769,-0.5524677527167207,-0.5918662549271592,-1.5089076323020405,0.9213597899888928,-0.2105278783496412,-0.2760556557074551,0.1748354219863609,3.3479999999999563,5.0,-0.6582985655977781,0.1948440963767786,0.697541953318239,-2.3031756492856177,-0.0222687059053464,0.66748601157325,0.9627993849723264,0.1233201917618288,0.2302942573912347,-0.0690943529773266,3.3479999999999563,6.0,-0.3775555056723189,-0.1937708142203389,0.8829216905778827,1.8550979397574567,3.408070855833311,-0.8878265669823725,0.830204220073204,0.042628065420602,0.4111731301943244,-0.3740059598687449,3.34900000000016,7.0,0.3724767927455779,-0.1873330516869022,0.8870267000556635,0.4448765221841785,-0.8274965094576163,4.031691724239149,0.9223132705954108,-0.3096411210320009,-0.164232932093632,-0.1627518081791125,3.34900000000016,8.0,0.2472630534354613,-0.2537616487453069,0.9131938501938324,-2.2365324228116275,-1.5585434136341756,1.2174664547074463,0.8649916343006367,-0.391190081026483,-0.2219382016856987,-0.2224932082759503
50,50,3.356999999999971,0.0,0.0513212058784757,-0.0509206559790778,0.9760072851274416,0.1725136501435336,-0.076695632931201,-0.6468781557574272,0.9973654620670388,-0.0347779499815084,-0.0330032718270426,0.0544372420278246,3.358000000000174,1.0,-0.0309090521141072,0.0065286404391008,0.9797867152352212,-0.0926356124963141,-0.172195418427537,-0.4034088415150777,0.9854495492717862,-0.012573425214724,0.0236143866294,0.1678495027175243,3.358000000000174,2.0,-0.1128054124308423,0.0055449164053932,0.97347172163775,-0.1871039684264009,-0.097360961291489,-0.7450194685795253,0.9938147546429856,-0.0042388135115709,0.0907177261056912,0.0639105631654813,3.358000000000174,3.0,0.2507570661208694,-0.0816661700411531,0.9438609698791784,-0.1037615991496214,-0.047269577350833,-0.8839391091610678,0.9608202710143448,-0.0113383384685483,-0.2043437949839263,0.1869210056153691,3.358000000000174,4.0,0.2976212464776644,-0.2395617312156123,0.9026858648400672,0.5110345379229946,-0.1936079994937975,-1.124551128416368,0.9380816676692408,-0.1577809700193368,-0.279236488760373,0.1309004722200477,3.423999999999978,5.0,-0.6065445062325108,0.1343971274633916,0.7577223595016506,0.347470747189504,-1.4659465438420825,-1.1345886915061016,0.967927614593693,0.1195252937741361,0.1732222488139286,-0.1372001806522688,3.423999999999978,6.0,-0.3596386329142037,-0.1539737183209578,0.8990206603755118,0.585224685929413,-1.734379781424573,-1.97378624958862,0.8309494597583622,-0.0093929846776408,0.3057466414041688,-0.4647082508802724,3.423999999999978,7.0,0.3520688394116346,-0.2144332283237949,0.8887862076483748,0.1100093448368038,0.8154881626280365,0.4112813918783733,0.9376744425548642,-0.2850157415803003,-0.1202467831487134,-0.1583457545160029,3.425000000000182,8.0,0.3644456277892802,-0.3523893721194285,0.8381617473987657,-1.0551009374520175,-1.7709927270220236,-1.8320193328413483,0.8079491188941488,-0.4166892828053193,-0.3117992826863718,-0.2763502672146728
51,51,3.413000000000011,0.0,0.0604540632874641,-0.0307689686970264,0.976714685462114,0.2668221658111051,-0.0937723226587316,-0.9030361259377492,0.9990904752083188,-0.0175899746015402,-0.0375870756817483,0.0097993307540625,3.413000000000011,1.0,-0.0150998803553534,0.0038700222931204,0.979829585458974,0.0535477024824311,-0.3452274847979385,-0.6640601536617243,0.9908165140157276,-0.0064726425294486,0.0051513909535833,0.1349600074972222,3.413000000000011,2.0,-0.0757824881560828,0.0034081087183681,0.9770406333842196,0.083497490990509,-0.7806069547438353,-0.377582496134947,0.9979020881215692,0.0010605171149077,0.0467502962694395,0.0447739614595382,3.414000000000214,3.0,0.2414771608960974,-0.0828921923961796,0.9450358010177788,-0.4093799033104759,0.462879958752746,-1.679792215957386,0.9785613066761644,-0.0191714111868896,-0.1788468701029162,0.1003196048822514,3.414000000000214,4.0,0.3077566320308469,-0.1676053946347618,0.9137112712068052,0.517869966991269,0.5681330882108103,-2.012809959538834,0.9634668607741232,-0.0986265755001326,-0.2462614131693356,0.0368744244567224,3.5,5.0,-0.5660755267993423,0.2088482372775035,0.7723269461471137,-1.074265214713736,-2.100542503127192,-0.9635410815821688,0.9774915174418638,0.0474685687800469,0.0904101821547105,-0.1846159994960575,3.4989999999997963,6.0,-0.2400274688376998,-0.1439063325775956,0.9387927256042377,1.214583387822708,-0.3030474054342921,1.1203196482539983,0.8652495787445141,0.0540185910178627,0.2449937729989015,-0.4340543854157546,3.5,7.0,0.1179655213852421,-0.0857546485451937,0.9692875094713632,3.5026623922030544,5.715794106158151,0.0150512511971848,0.9706521119156366,-0.0340584557106828,0.145093288477852,-0.1887390708544494,3.5,8.0,0.4690684783776657,-0.2875740854296864,0.8101789357800786,1.1108979288569223,-1.2611434421927166,-2.798711712454668,0.779584297158769,-0.3282186442800725,-0.4093963640840943,-0.3419290310066448
52,52,3.4899999999997817,0.0,0.0567475928549098,-0.0083034348206223,0.9783152680375344,0.2442188059182479,0.1651488252358167,-0.9199199613237894,0.9989494341628148,-0.0023632614903463,-0.028424730328052,-0.0358675018184723,3.4899999999997817,1.0,0.0108020359067357,0.0126983570893446,0.9794406912863588,0.095198948904708,-0.2847931472481873,-1.352837615287792,0.9976956722019326,0.0012329397526964,-0.0093254520701082,0.0671927188971239,3.4899999999997817,2.0,-0.0125900248268742,0.012745925837355,0.9793896224942388,0.1990881533268318,-1.4006228411805366,-0.2193601125483667,0.9989983004476026,0.0141317505708719,-0.0267457318071629,0.0329750687444867,3.4899999999997817,3.0,0.1907076547678219,-0.0570311350648309,0.959991166650076,0.1739968503368284,1.3687590942221644,-2.265038830858281,0.9949046237955184,0.0029602733610352,-0.1000884885625968,-0.0117609858932375,3.4899999999997817,4.0,0.2584379412249896,-0.1172449476340904,0.9375753051300298,0.2862836875450191,1.7710619430668604,-1.1514212099386505,0.9860246658754478,-0.0687339715293836,-0.1498431683130525,-0.0240421370288842,3.563,5.0,-0.6124941699420894,0.3158321849890272,0.7544176049854667,-0.5800264817407619,-1.6679807726906202,1.2790336916247012,0.9919212039429556,0.0259607295447772,0.0305881084903394,-0.1203442283985562,3.562,6.0,-0.2213036626184526,-0.1679857800017574,0.9434402294946188,1.1266195099577854,-0.9682270182611856,5.259428588337089,0.964716927568426,0.1415446017613488,0.1197466542131178,-0.1869414726055225,3.563,7.0,-0.1273340714860097,0.0788522301859634,0.9652027559189288,5.245084597858504,7.237183057939854,-0.9644323400125971,0.8492959484292235,0.2552584287558149,0.399731494902073,-0.2318496463533471,3.563,8.0,0.6361132108823054,-0.4929381997078919,0.6799190497476493,-2.203467320850646,-1.4760165130863725,0.0794068358720976,0.7229520369631298,-0.4369610076396479,-0.4057267254349471,-0.3489860374302098
53,53,3.518999999999778,0.0,0.0683625771987004,0.0024401025900881,0.9774976234948612,0.0849849997602495,-0.2099133489376443,-1.3020414487003225,0.9941626240189286,0.0035712561258753,-0.0393645392771456,-0.1003910164356347,3.518999999999778,1.0,0.0009368219235514,0.0003019645680505,0.9795243902946384,-0.0940326074307211,0.2759212594762754,-1.756700024614879,0.999763072824681,-0.0036844769083706,0.0047536536572401,-0.0209195034111797,3.518999999999778,2.0,0.0722741526917656,0.0020678861818723,0.9763811605615024,-0.46253362558669,-0.7668532891391463,-1.2887737123024836,0.9971843145008572,-0.0071788277744206,-0.0671265776372349,-0.0326485822043322,3.518999999999778,3.0,0.0843172497993055,-0.0570021122768184,0.9750935137627892,-0.9068120284903866,1.788214564897472,-2.214683027416064,0.991648696835948,-0.0332680425825531,-0.0077243198522763,-0.1243641197818378,3.518999999999778,4.0,0.1163923666001153,-0.0615894236446072,0.9716710142287612,1.319748759093189,2.4303036591085303,0.1906415604868478,0.9997341213916808,0.0030335099898302,-0.0192369165729259,-0.0123460675160975,3.626000000000204,5.0,-0.4438271937256975,0.2408294518899537,0.8401616494532206,-0.2286606041155451,-1.1945211195658358,3.510554035061737,0.9980417494950756,0.0250051588352764,-0.01410823811181,0.0555730682418366,3.625,6.0,-0.1409592612353001,-0.1199344232370739,0.9629554614803268,0.1385255540947421,-2.052291401959148,1.711661187496289,0.9858249644875328,0.1198502825540942,0.0023737847592531,-0.1173857500328505,3.626000000000204,7.0,-0.3025522474071515,0.1486803879578066,0.9194576008852164,2.274345034632592,3.8580943830748127,-1.5639901838751624,0.7324253441949974,0.3383717106182498,0.5175613415117111,-0.2849350073380187,3.626000000000204,8.0,0.5472657042916284,-0.4621578398776391,0.6685748873131734,-1.6378437132589714,0.8074491665298061,-0.8775736280162445,0.7008108571042085,-0.4541645331074897,-0.3483331548053711,-0.4257496126779889
54,54,3.6269999999999527,0.0,0.074271209479276,-0.0015957945259389,0.9766034204744096,-0.2612537561240652,0.031997556978534,-1.4245187375195072,0.9846084502476128,-0.0071530211686255,-0.036721128428535,-0.1707237321408199,3.6269999999999527,1.0,0.0125054791263229,-0.0023691753462124,0.9797009747877156,0.0713304177191093,-0.4434160642820203,-1.781355336664619,0.9938389859461256,-0.000775224149119,-0.0185480242598559,-0.1092677438091908,3.6269999999999527,2.0,0.0878427075589004,-0.0031865241078361,0.9764873295608252,-0.1898315687938864,0.0312010477702497,-1.4013763393520722,0.9925992707385194,-0.0114336481096043,-0.0636789380772635,-0.1027664938859791,3.6269999999999527,3.0,-0.0322237649762473,-0.0871513285092468,0.9755589551174388,-0.3456331518488253,2.0632313585877804,-1.0400594691236311,0.9788535522927952,-0.0376948856112553,0.0963990335675363,-0.1764427530100785,3.6269999999999527,4.0,-0.0282229679712482,0.0876922425261663,0.9743893137137876,2.732692884675928,1.70308694825011,1.3071795712796004,0.9866157071488336,0.1417300598566003,0.0574269156531171,0.0566055288714897,3.6790000000000873,5.0,-0.2436964720735382,0.1590525257014893,0.9361107432173228,-4.108598755972407,-1.864391869041814,5.189140979453654,0.9390608742712236,-0.1629727358532093,-0.0563185361792423,0.2973765025420009,3.6790000000000873,6.0,-0.0755108711780608,-0.0787553815275609,0.9741712879234218,1.0504885471924748,-0.1919248603153927,1.9283733108262109,0.9873539736415023,0.1550081617200694,-0.0241242880660891,-0.0228608674333309,3.6790000000000873,7.0,-0.4973675652605526,0.153460546380151,0.8300923838534452,-0.1040807382503412,2.6664165027304887,0.8474459696479635,0.6963130690205871,0.3805602665710187,0.5716467966730395,-0.2086670392562729,3.6790000000000873,8.0,0.4673986299486566,-0.3711875388822571,0.7768322416716826,1.3418869758160732,3.578599649384324,-0.7431681667273898,0.7887678798703135,-0.2960747236476373,-0.2239492987338217,-0.4899303024905637
55,55,3.6709999999998217,0.0,0.0725723856737253,-0.0150834491364414,0.9770474596455244,-0.3310450969174137,0.2061637467278292,-1.2570775117729962,0.9721782433497108,-0.0198378652413193,-0.0249005395382525,-0.2320687083405304,3.6709999999998217,1.0,0.0330331584384154,-0.0134665113423885,0.9790201548057362,-0.368382529153312,-0.1401184139662008,-1.9962853743882825,0.9779213882022576,-0.0184803324461621,-0.0248982088704126,-0.2066599017813899,3.6709999999998217,2.0,0.0639346851525868,-0.0173050089234893,0.9767609189052342,-0.5169799855222053,0.6373798320090381,-2.899978446299378,0.969087357889425,-0.0240528098993585,-0.029839633446575,-0.2437226936307179,3.6709999999998217,3.0,-0.1384674951944674,-0.0693348946945584,0.9678230340058376,0.1812012100770302,1.7228181583819833,0.9731497508944358,0.9755205011961988,-0.0073679174191235,0.1767512135231019,-0.1306310608428686,3.6720000000000255,4.0,-0.102056827991468,0.2267759711613566,0.948211507399137,2.25385260381997,0.9005389781994978,-0.0231635867225907,0.96233451052643,0.2439294618123816,0.1071898991589017,0.0540465820203543,3.76299999999992,5.0,-0.1255050819058556,-0.0120066178856107,0.9720212526188682,-2.3756433959207413,-1.4199324358014054,2.662336457424385,0.8702116321703718,-0.2391894569587824,-0.1097872165132909,0.416493560580958,3.76299999999992,6.0,-0.0725585426439794,-0.0430602759952105,0.9759441943679968,-0.0699904242602278,-0.3470671786477174,5.720746627993172,0.9584813612765728,0.1221509858246911,-0.0688704615730446,0.2482931257006108,3.76299999999992,7.0,-0.5412950258915353,0.1675190944437526,0.7991289307376044,0.0138835581064334,-0.3729024197080002,0.5734288233054211,0.7380428910110999,0.3772262338783114,0.5213806087235351,-0.2028677410261161,3.764000000000124,8.0,0.1929042692781417,-0.3105071905706214,0.9095791485616884,2.1550355478864,4.881987922478104,1.2580421924040337,0.8962631023582344,-0.0808666274171736,-0.0262111131618493,-0.4352999166875427
56,56,3.762000000000171,0.0,0.0605163609614342,-0.0356654070239321,0.9768596361800412,-0.4634529336114018,0.1073263178764761,-0.8977492377995513,0.9603278335125228,-0.0402085037336558,-0.0162434678552815,-0.2754811756920596,3.762000000000171,1.0,0.0352145946553589,-0.036985283396424,0.9786904623706848,-0.3897693544342476,-0.0101227351972766,-1.6037854979039918,0.9580980065144532,-0.035569029042799,-0.0230435828222752,-0.2832879231042096,3.762000000000171,2.0,0.0237054717169977,-0.0396099681081725,0.9778093377735478,-0.3397870866496125,0.4848496783851296,-1.684849134482718,0.9457457642824852,-0.0314906413166189,-0.0030897910605206,-0.3233631736026979,3.76299999999992,3.0,-0.2457884192915329,-0.0511275395672813,0.9477304614920667,0.0757254870810716,1.5942062176028562,0.0435229913111565,0.96021241889235,0.0068673800039655,0.2476523144964233,-0.1288925165451734,3.76299999999992,4.0,-0.1346183524956842,0.388726256477427,0.889680727394043,2.504024309156172,0.5138204320434324,-1.0706982853625,0.9255316668834742,0.3463895911660701,0.1528704636867795,-0.0060005049695267,3.7829999999999018,5.0,-0.0405283665848483,-0.1386987958010835,0.9686971123861644,-1.755879355193436,-1.137919632674795,-0.7144957857512717,0.8595589988161301,-0.2707451021061305,-0.1951467459307931,0.3870053808312948,3.7829999999999018,6.0,-0.0329270487257913,-0.0705733806137718,0.977116271183196,-0.6787297840629359,-0.7580014943190306,0.0621170252373352,0.9603337630563432,0.0828900316522806,-0.1064379943093224,0.244047658366426,3.7829999999999018,7.0,-0.3662488172399184,0.143145500466377,0.8973417239639485,-0.7315341256634316,-4.644391187540441,0.4619373145646188,0.8867909693566798,0.2828550812298815,0.2747474825485513,-0.2410572556948058,3.7840000000001055,8.0,-0.1497102158143405,-0.0395308491983772,0.9675113246068384,4.137552572782126,5.689593799883394,-1.943776184882488,0.8416176090826717,0.2265987035128857,0.1594324374472836,-0.4635883147123797
57,57,3.788000000000011,0.0,0.080078773049789,-0.067359174379608,0.9740637205715744,-0.6167589867824014,-0.4098541534950732,-1.1367980006142266,0.9412186725467202,-0.0742862674894345,-0.0325783325282291,-0.3279140331879047,3.788000000000011,1.0,0.0399331022086975,-0.0454240012466198,0.977966772164953,-0.0241359095448186,-0.0312622051131417,-0.3663333249415125,0.952751082530169,-0.0359821263402353,-0.0238470775769972,-0.3006692172681852,3.788000000000011,2.0,0.0485283348954559,-0.0366611373582339,0.978169699857788,0.254272702989721,-0.6509712057174473,0.3151535478590496,0.9505353434929182,-0.0293720032560537,-0.0391052843197318,-0.3067419484416818,3.789000000000215,3.0,-0.3270916738572157,-0.0523115507924937,0.922247547324995,-0.0697421137434595,0.8878346701071731,0.3950940227532926,0.952969691522257,0.0130719249674435,0.2825106332492061,-0.1089294905833709,3.789000000000215,4.0,-0.2255223147125028,0.5065561087067693,0.8076649022327086,2.153407241528316,0.6751596579571467,-1.7561559210068354,0.8781470025180739,0.4178629708014055,0.2140740649253207,-0.091764232290664,3.903999999999997,5.0,0.0414121508627703,-0.2451938678713313,0.94737690541791,-1.7441605959814328,-0.7673705332209789,-1.3331716738227084,0.8567675101320561,-0.3011206996585165,-0.2692281435626279,0.3206118596264086,3.903999999999997,6.0,0.0379664721265085,-0.1341190372883815,0.9703296505987564,-1.1704114520281694,-1.0278980228716637,-0.5767133792278009,0.9649265214324712,0.0275079264722814,-0.16214082434529,0.2046227633917005,3.9050000000002,7.0,-0.2727385285547431,0.2623656133215996,0.9042980592637444,0.5796099887606001,0.0085313467164861,2.493928053276248,0.9106863570400492,0.3306706792070759,0.2084756603475851,-0.1335857778975485,3.905999999999949,8.0,-0.4505921641146471,0.1462807208179969,0.8578476859882798,5.444766410965798,2.4737520117624348,2.502941255633983,0.7991862714622823,0.5102122187124806,0.0689418421949056,-0.3102125364608529
58,58,3.893999999999778,0.0,0.0907313262387609,-0.0922286743963856,0.9710585451238462,-0.3930059554123924,0.3130142588000892,-1.2212479991669356,0.9188786048060276,-0.083695901606722,-0.0164139932868055,-0.3852112232377795,3.893999999999778,1.0,0.0295898952281569,-0.0493691541494356,0.97864044710964,-0.1761900163218309,0.2517823831080327,-0.9420272097956732,0.9377255698067978,-0.0385664620951333,-0.0095152509647345,-0.3450983102408055,3.898000000000138,2.0,0.0682634992305514,-0.0442542133056259,0.976802773991506,-0.3333881113719971,-0.1932832607920878,0.2017682070731717,0.9526379417432472,-0.0488883999430208,-0.0414090387758104,-0.2972812940799746,3.8989999999998872,3.0,-0.3528682219750554,-0.0720092164256791,0.9117322472469224,-0.2989244038898618,0.2342871997102734,-0.4303814757511445,0.9499952727135684,-0.00871501993124,0.2855996828887521,-0.1259597212735692,3.8989999999998872,4.0,-0.2628490436134691,0.5657589043231234,0.7547239511573645,1.0113106345738625,-0.1440210199970075,-0.2772541550429402,0.8634741510124038,0.4482755110385114,0.1999623335193801,-0.1160884228080212,3.967999999999847,5.0,0.1732226235664607,-0.3488913572377137,0.8993890946245559,-2.067198661082788,-0.9299431458523084,-4.880741318364231,0.8704223194582805,-0.2879395285071909,-0.3921280683025584,0.0754413133583151,3.967000000000098,6.0,0.0787959800041003,-0.2099407216572795,0.9539277157757888,-1.131443646925755,-0.5515813060087216,-0.7358443588326146,0.9681079389602114,-0.0279493198003202,-0.1911661231266388,0.1595035028256166,3.967999999999847,7.0,-0.3469386160364934,0.2460389641679808,0.8817195840026631,-0.8612480610073905,0.5888165261380987,0.0010135996774156,0.923817256680888,0.2776310891796515,0.2361219360491249,-0.1171711820198624,3.967999999999847,8.0,-0.4466901814291582,0.0258302267647403,0.8719350212028806,-2.2773072116050423,-0.6366240067923554,-3.019972614019076,0.8131311323099217,0.3590742845407235,0.1407950481458737,-0.4359589135085474
59,59,3.923999999999978,0.0,0.0594240033618807,-0.111402870723371,0.9715076881934795,-0.5100662624227316,0.6597278387224259,-1.1241165954692585,0.8944259886204834,-0.0908655694582402,0.0188142443128682,-0.4374832835414814,3.923999999999978,1.0,0.0100298302101523,-0.0935229078846396,0.9749189034000504,-0.9221896559759666,0.4972664092334762,-1.911139864604016,0.8995768598378476,-0.0711919885640939,0.0239898781404322,-0.4302530182989707,3.923999999999978,2.0,0.0489148955375045,-0.0858465371021608,0.973851479981482,-1.0481352370018118,0.7531062129482957,-2.72947406726922,0.9035943458625628,-0.0791383300641572,0.0005264574016187,-0.4210155646558304,3.925000000000182,3.0,-0.3295828305338561,-0.1198022989746081,0.9155547864424556,-0.4280090018952609,-0.6617507637372272,-1.4204923845177262,0.9505749834539868,-0.0562673742283156,0.2414354647210917,-0.1869494578858527,3.925000000000182,4.0,-0.2630972521907007,0.527590528707211,0.7822941070391292,-1.5537017638343735,-0.8008455342659845,-0.7018274379452488,0.908389880517378,0.3500377730902941,0.1751355034462296,-0.1470678000659811,3.994999999999891,5.0,0.1840873808670064,-0.2443524621043661,0.9309735283395872,2.6019598924229093,3.606601557675236,-3.0217853708383062,0.9768830272935328,-0.0916064589112042,-0.182555241253388,-0.0630982690926608,3.994000000000142,6.0,0.158307621392428,-0.2517090517891057,0.93315982031831,-0.9535441167560909,0.1532169702831737,-3.717545070182679,0.9803971587182808,-0.0490002604780296,-0.1879532044258794,-0.0330753472582096,3.994999999999891,7.0,-0.2754794070991861,0.235889506948941,0.909729760300094,-0.3649677823301629,-1.083812425084692,0.6374567047392983,0.9492480405766706,0.2473276809711153,0.1675299312941031,-0.0984423577907157,3.994999999999891,8.0,-0.3423306368107862,-0.0921595064006945,0.913026483997426,-2.258239398758688,-0.4415312111711357,-2.6035146032086325,0.7997272091805683,0.2112555600084123,0.2009337626851426,-0.5248172084402173
60,60,4.01299999999992,0.0,0.0303004151430899,-0.1387838792514553,0.96974786398428,-0.486024851429354,0.3135636107169282,-1.1603045653266777,0.8657879668107807,-0.1040749995299119,0.0367741685923719,-0.4880852912379586,4.01299999999992,1.0,0.0140162767238847,-0.1315730996859505,0.9706420882209004,-0.5232023058524203,0.0019868407725753,-1.7226510844585272,0.8588606360073459,-0.094818971203018,0.0269393365002303,-0.502635099019145,4.014000000000124,2.0,0.0497340539303795,-0.1408281167873496,0.967739616530076,-0.8892921584710024,0.0675819489885203,-2.282473967362766,0.8486954032680476,-0.1149050586524151,0.0095687598399213,-0.5161602259017033,4.014000000000124,3.0,-0.2364217863399979,-0.1731004968124688,0.9352860294835376,0.5246406400352218,-1.6747575539971595,-2.729400163699521,0.9377261250896778,-0.0797186022529789,0.134201670658131,-0.3103297768047657,4.014000000000124,4.0,-0.1944491705454588,0.3767012165056712,0.8833032964714501,-2.950893886498944,-1.6678194760643836,-0.2483506629097345,0.9666940454805198,0.1745342826249587,0.1055391582728771,-0.1546023696200999,4.114999999999782,5.0,-0.105535535029773,-0.0128578469055604,0.97436488371602,3.083530767458493,3.818982334157367,-1.8102968325529527,0.9854795027593066,0.0996071018388183,0.0347027274560594,-0.1330574898743088,4.114999999999782,6.0,0.2117543560841772,-0.3630694183512513,0.8853443906963321,-1.9339712100118125,-0.2286390377820914,-2.0092477381360907,0.9594908917896086,-0.1366110507208821,-0.1994737385823148,-0.1446543362976461,4.114999999999782,7.0,-0.213769220455164,0.1497717563309775,0.9447238439837992,-0.4222822940452966,-1.2423567951293075,-4.615006307999561,0.9236391414398708,0.1632471900031524,0.1393917937211385,-0.3175075104615582,4.114999999999782,8.0,-0.259031319493393,-0.103761343551216,0.9391152001250744,0.5484044069570941,-1.5123360562722346,-2.3043788356057946,0.7491164254337795,0.1518452180671034,0.1416930377285273,-0.6290395011084222
