Timestamp,Ax,Ay,Az,Rx,Ry,Rz,EMG
0,0.3079,-0.9573,-1.0498,-0.2739,0.8989,-0.8395,2056
0,-0.3281,-2.0,-1.5354,-0.601,0.8732,-0.0109,1982
0,0.1528,-2.0,-0.8689,-0.8506,-1.3137,0.7901,2125
0,0.8298,-1.0505,-0.5955,-0.5051,-1.2178,-0.9689,2172
0,-0.6963,-0.0144,-0.6604,-0.5525,0.0762,-0.1004,1905
0,-0.6235,-0.499,-0.875,0.0637,-0.2053,0.4806,2073
0,-0.2056,-0.5798,-1.0776,-0.3618,0.4693,1.0563,2069
0,0.0293,-0.9617,-0.9353,-0.204,0.2068,0.928,2046
0,0.0837,-1.3674,-0.9019,-0.2649,-0.2016,0.6902,2053
0,-0.0149,-1.3391,-0.9353,-0.2922,-0.599,0.4325,2044
0,-0.0322,-1.137,-1.0347,-0.402,-0.6208,0.4366,2051
0,-0.0015,-1.033,-0.9238,-0.1923,-0.7044,0.4617,2013
0,0.0405,-1.3201,-0.9399,-0.2432,-0.7798,0.5368,2045
0,0.0286,-1.4604,-0.8542,-0.1557,-0.9376,0.483,2058
0,-0.0393,-1.4966,-0.8748,-0.2859,-0.8015,0.4362,2053
0,-0.0386,-1.5376,-0.925,-0.3617,-0.6481,0.3727,2097
0,0.1455,-1.6309,-0.9551,-0.5518,-0.5422,0.3072,2067
0,0.229,-1.4629,-0.9609,-0.6335,-0.8304,0.3048,2031
0,0.1921,-1.5125,-0.9424,-0.6834,-1.0914,0.4171,2063
0,0.2683,-1.3074,-0.8718,-0.6213,-1.2721,0.3346,2045
0,0.0952,-1.3145,-0.8943,-0.8281,-1.3364,0.3963,2037
0,0.1328,-1.3984,-0.9446,-0.8309,-1.8375,0.5564,2056
0,0.2131,-0.9844,-0.9001,-0.6384,-1.7085,0.4939,2054
0,0.0054,-0.7756,-0.72,-0.4147,-1.5636,0.7618,2043
0,-0.1392,-0.7473,-0.6633,-0.0634,-1.439,1.0231,2036
0,-0.2405,-0.9331,-0.6433,0.1139,-1.244,1.0798,2072
0,-0.1648,-0.9451,-0.7695,-0.0298,-1.2235,1.0684,2031
0,-0.0586,-0.8401,-0.7737,0.1119,-1.1868,0.907,2125
0,-0.1479,-0.8562,-0.7424,0.183,-1.2316,0.9549,2009
0,-0.0952,-0.7751,-0.7659,0.518,-1.3202,0.8842,2024
0,-0.0649,-0.9143,-0.7766,0.8187,-1.2545,0.6518,2169
0,0.0066,-1.0564,-0.7407,0.9886,-1.4992,0.3267,2004
0,-0.0569,-1.0745,-0.842,1.2632,-1.556,0.1264,2003
0,0.0156,-1.2292,-0.949,1.2898,-1.4539,-0.2562,2060
0,0.1245,-1.3091,-1.113,1.1501,-1.7506,-0.961,2019
0,0.0811,-1.0518,-0.8911,1.2661,-1.2967,-1.468,2032
0,-0.02,-0.8875,-0.7402,1.7912,-0.6565,-1.8318,2049
0,0.0898,-0.7766,-0.8467,1.9783,-0.2228,-2.0362,2045
0,0.3108,-0.7446,-0.8608,2.175,-0.155,-2.2065,2053
0,0.4434,-0.6777,-0.6924,2.3798,-0.0091,-2.4274,2052
0,0.4976,-0.5044,-0.4446,2.8456,-0.0382,-2.7064,2047
0,0.5002,-0.2922,-0.3694,3.4994,0.2836,-3.0321,2076
0,0.345,-0.1431,-0.3977,4.0285,0.4926,-3.1477,2023
0,0.3909,0.0034,-0.4746,4.117,0.6805,-2.6348,2016
0,0.4893,0.1414,-0.2827,4.3029,0.2706,-1.9225,2044
0,-0.0522,0.0916,-0.0278,4.3634,-0.1374,-1.6572,2032
0,-0.4473,0.0146,-0.5076,3.4845,0.5803,-0.6682,2043
0,-0.7197,0.3025,-0.824,3.0048,1.254,0.2485,2052
0,-0.7793,0.2705,-0.4988,3.5818,1.9375,0.7701,2026
0,-0.2278,0.0027,0.1841,3.3026,2.7623,1.0102,2060
0,0.4102,-0.0918,-0.0916,2.9456,3.1417,1.0604,2038
0,0.6404,-0.0435,-0.4839,3.552,2.5175,1.3404,2040
0,0.3831,-0.3171,-0.5652,3.533,0.8269,1.0784,2020
0,0.2581,-0.7239,-0.8789,2.8365,-0.2024,1.0243,2052
0,-0.1721,-0.4905,-1.0942,2.2112,-0.0835,1.2439,2046
0,-0.7344,-0.2739,-0.873,2.2361,0.016,1.5949,2062
0,-1.3662,-0.3811,-0.603,1.9343,0.012,2.2935,2045
0,-1.8389,-0.7554,-1.1201,0.6144,0.524,3.2581,2072
0,-2.0,-1.2788,-1.7737,-0.2702,1.2856,3.8519,2078
0,-1.6919,-1.7637,-0.8423,-0.3862,1.9748,3.6684,2100
0,-0.8862,-2.0,-0.0532,-1.2657,2.7964,3.1151,2095
0,-0.2976,-2.0,-0.1685,-1.595,3.2228,3.0351,2072
0,-0.1501,-2.0,-0.167,-1.5748,2.3041,2.7085,2036
0,-0.2004,-2.0,-0.137,-1.9548,1.3228,1.9556,1979
0,-0.4827,-2.0,-0.3997,-2.5017,0.7412,1.741,1984
0,-0.7515,-2.0,-0.396,-3.0624,0.3282,1.6765,1996
0,-0.8545,-1.9951,-0.3152,-3.5705,0.1061,1.4865,2049
0,-0.7104,-1.8894,-0.3418,-3.8877,0.0478,1.2683,2062
0,-0.4812,-1.7068,-0.4878,-4.2101,-0.1081,1.1306,2047
0,-0.3677,-1.4802,-0.5916,-4.3635,-0.3344,1.1178,2035
0,-0.3179,-1.2327,-0.6394,-4.3635,-0.4259,1.2527,2041
0,-0.3469,-1.1157,-0.6646,-4.3317,-0.5152,1.3307,2022
0,-0.3315,-1.0735,-0.6619,-4.3008,-0.4241,1.4139,2035
0,-0.3352,-1.0789,-0.5803,-4.116,-0.1788,1.4005,2049
0,-0.353,-1.1038,-0.5195,-3.9974,-0.0483,1.3396,2056
0,-0.2178,-1.041,-0.5486,-3.9126,0.1409,1.3619,2044
0,-0.208,-0.9519,-0.6602,-3.8492,0.3163,1.3392,2023
0,-0.2686,-0.8694,-0.7979,-3.7949,0.3518,1.366,2048
0,-0.3486,-0.7332,-0.8105,-3.4729,0.4778,1.5743,2047
0,-0.3652,-0.7256,-0.6433,-3.1891,0.6791,1.8403,2022
0,-0.1567,-0.4565,-0.4626,-2.7686,0.6729,2.3609,2038
0,-0.156,-0.792,-0.3743,-2.228,0.5421,2.2463,2099
0,-0.3074,-0.9509,-0.4048,-1.8904,0.6518,2.0821,2021
0,-0.3989,-0.9629,-0.5447,-1.6086,0.8335,1.7938,2048
0,-0.4226,-0.8635,-0.5959,-1.2668,0.9606,1.3653,2051
0,-0.3975,-0.9307,-0.4792,-0.6765,0.694,0.8483,2076
0,-0.4192,-0.8867,-0.5728,-0.4774,0.7722,0.5263,2047
0,-0.5298,-0.9812,-0.3696,-0.0208,0.5433,0.1409,2045
0,-0.5771,-1.105,-0.4766,0.275,0.4705,-0.3051,1992
0,-0.4197,-1.1255,-0.4924,0.4687,0.7056,-0.646,2119
0,-0.4954,-1.2729,-0.6401,0.9519,0.3312,-1.2557,2036
0,-0.188,-1.4509,-1.0586,0.9226,0.1362,-1.6977,2088
0,-0.2371,-1.345,-1.283,1.0577,-0.2065,-2.0859,2059
0,-0.5261,-1.4626,-1.1892,1.4483,-0.4227,-2.1771,2075
0,-0.5894,-1.5947,-1.248,1.5611,-0.1637,-2.2406,2077
0,-0.6704,-1.7471,-1.2771,1.7151,0.1992,-2.4044,2032
0,-0.7031,-1.7739,-1.241,1.829,0.3077,-2.6554,2094
0,-0.8464,-1.7175,-1.3945,1.7764,0.5147,-2.7922,2082
0,-0.906,-1.5818,-1.3555,1.8322,0.3923,-2.8376,2035
0,-0.9287,-1.6125,-1.2942,1.7915,0.0337,-3.167,2132
0,-0.9319,-1.4082,-1.3306,1.7307,-0.0064,-3.2664,2032
0,-1.0498,-1.3965,-1.2122,1.8298,-0.1754,-3.2569,2018
1,-1.0205,-1.4451,-1.104,2.0502,-0.3147,-3.3194,2044
1,-0.9856,-1.3833,-1.0986,2.1081,-0.4536,-3.4014,2059
1,-1.0134,-1.2661,-1.1731,2.2648,-0.6417,-3.365,2131
1,-0.9829,-0.9502,-1.2395,2.3079,-0.7224,-3.3868,2002
1,-0.9099,-0.9231,-0.9382,2.7084,-0.9299,-3.0581,2109
1,-0.7727,-1.1448,-0.9119,2.7131,-1.1029,-2.9921,2035
1,-0.7166,-1.1018,-1.072,2.469,-0.9596,-2.9185,2146
1,-0.5549,-0.8,-1.0249,2.2285,-0.9726,-2.7631,2059
1,-0.4373,-0.6956,-1.0171,2.0864,-0.9484,-2.5153,2068
1,-0.2957,-0.604,-1.0598,1.7178,-0.8977,-2.1643,2030
1,-0.1279,-0.5439,-1.1743,1.2343,-0.6189,-1.9181,2012
1,0.1743,-0.4873,-1.1829,0.8132,-0.4208,-1.6511,2034
1,0.4226,-0.4331,-1.2849,0.4325,-0.1803,-1.5042,2044
1,0.6772,-0.3445,-1.1323,0.285,-0.0035,-1.2212,2075
1,0.8203,-0.3586,-1.0559,0.1374,-0.0176,-0.9728,2069
1,1.2166,-0.1189,-0.928,-0.2208,-0.4512,-1.1733,2019
1,1.9999,-0.0437,1.3845,2.753,-2.6006,-4.3635,1992
1,1.9999,-1.5806,0.9211,3.8636,-1.971,-4.3635,2195
1,-1.0403,-2.0,-2.0,4.3634,-0.2442,-4.3635,1964
1,-2.0,-1.8298,-1.2344,3.0199,2.9865,-0.5771,1960
1,1.5635,-0.4509,-0.5696,2.0355,1.89,0.7267,2158
1,1.3862,-0.5413,-0.5503,2.0908,0.6838,1.4386,1979
1,0.8184,-0.7615,-0.3882,1.9451,-0.5288,1.5779,2011
1,0.2363,-0.5371,-0.4031,2.1876,-0.4821,1.4854,2015
1,-0.2478,-0.2451,-0.1838,2.3414,-0.1381,1.5559,2029
1,-0.3181,0.0857,0.1709,2.8432,0.2836,1.6516,2015
1,-0.2024,0.2019,0.4915,3.2933,0.4205,1.8849,1976
1,-0.0632,-0.0835,0.3381,3.1448,-0.0936,2.0518,2128
1,0.1262,-0.3982,-0.1555,2.4294,-0.2667,2.1992,2036
1,-0.3113,-0.0752,-0.1777,2.3173,-0.475,1.654,2097
1,-0.4768,0.104,0.2478,2.0949,-0.1625,2.2204,2067
1,-0.7825,0.1672,0.2329,2.5179,-0.3322,2.0997,2060
1,-0.5332,0.0242,0.2896,2.2272,-0.1454,2.0923,2038
1,-0.626,-0.0742,0.0889,1.8599,-0.3394,1.7462,2034
1,-0.7778,-0.1499,-0.2639,1.9092,-0.655,1.5683,2023
1,-0.9805,-0.2629,-0.6018,1.8606,-0.6677,1.3713,2037
1,-1.0208,-0.3936,-0.5273,1.7021,-0.5674,1.0837,2039
1,-1.0969,-0.6064,-0.5598,1.0051,-0.3273,1.0463,2072
1,-1.1045,-0.823,-0.6506,0.6372,-0.0876,1.1094,2054
1,-1.1055,-1.0332,-0.6743,0.3124,0.2559,1.1761,2051
1,-1.156,-1.3088,-0.6812,0.0113,0.5787,1.333,2041
1,-1.1243,-1.5264,-0.7097,-0.1739,1.1332,1.5443,2076
1,-1.1387,-1.666,-0.7114,-0.4586,1.8743,1.916,2079
1,-1.0391,-1.7607,-0.6533,-0.7232,2.1746,2.3631,2117
1,-0.9026,-1.8596,-0.5969,-1.1995,2.3731,2.6269,2077
1,-0.7039,-1.8247,-0.6062,-1.3444,2.6563,2.6753,2027
1,-0.5298,-1.8259,-0.4504,-1.4516,2.8488,2.8245,2009
1,-0.3948,-1.9299,-0.3328,-2.1125,2.4203,2.8457,2101
1,-0.134,-1.9736,-0.2849,-2.5782,1.5432,2.6187,2056
1,0.0352,-1.988,-0.3127,-3.017,0.8676,2.4458,2055
1,0.0369,-2.0,-0.3547,-3.0813,0.047,2.5404,1997
1,-0.1689,-2.0,-0.4004,-3.2802,-0.3064,2.369,2052
1,-0.3652,-1.9883,-0.4509,-3.5679,-0.5113,2.3057,2029
1,-0.5415,-1.8093,-0.6641,-3.8764,-0.3029,2.3673,2029
1,-0.5752,-1.8132,-0.7708,-4.0912,0.0867,2.3799,2047
1,-0.4731,-1.7681,-0.6763,-3.9968,-0.1141,2.5269,2051
1,-0.2122,-1.603,-0.5596,-4.0797,-0.3152,2.5366,2051
1,-0.1531,-1.3943,-0.5635,-4.1068,-0.1418,2.4631,2033
1,-0.1587,-1.2739,-0.4976,-4.0474,-0.3874,2.4016,2025
1,-0.1907,-1.2266,-0.5652,-4.0994,-0.5144,2.3533,2051
1,-0.2183,-1.1843,-0.6206,-4.0989,-0.4979,2.3611,2035
1,-0.2556,-1.1118,-0.6611,-4.1518,-0.2661,2.372,1983
1,-0.2266,-1.0266,-0.6785,-4.0844,-0.0582,2.3253,2046
1,-0.1428,-0.9397,-0.7085,-3.937,0.2534,2.2437,2041
1,-0.2839,-0.8762,-0.7571,-3.7419,0.5843,2.2232,2043
1,-0.4192,-0.8713,-0.7827,-3.3642,0.8614,2.3509,2042
1,-0.3887,-0.9026,-0.7109,-3.1577,1.199,2.457,2080
1,-0.1746,-0.7976,-0.5361,-2.9162,1.5135,2.4999,2062
1,-0.1226,-0.6702,-0.5261,-2.5782,1.7205,2.331,2004
1,-0.1194,-0.6985,-0.6702,-2.2405,1.6451,1.9832,2042
1,-0.0898,-0.717,-0.7112,-1.8572,1.3862,1.7419,2066
1,-0.1233,-0.6938,-0.7642,-1.5922,0.9883,1.6117,2055
1,-0.189,-0.655,-0.6541,-0.9761,0.6763,1.1608,2061
1,-0.3862,-0.5354,-0.7788,-0.6598,0.8439,0.9293,2059
1,-0.4158,-0.5793,-0.6165,-0.0222,0.8787,0.4412,2103
1,-0.5398,-0.7063,-0.5752,0.3983,0.8295,-0.0517,2055
1,-0.3982,-0.8083,-0.6533,0.8389,0.6203,-0.6537,2057
1,-0.4202,-1.0063,-0.8882,0.9158,0.7453,-1.0098,2065
1,-0.4695,-1.2129,-0.9231,1.217,0.4951,-1.3395,2076
1,-0.4573,-1.2446,-0.8992,1.4898,0.1926,-1.6542,1970
1,-0.6453,-1.302,-1.0979,1.6233,0.1999,-2.0132,2040
1,-0.7053,-1.4578,-1.2781,1.6516,0.2337,-2.4099,2020
1,-0.8223,-1.4355,-1.3159,1.7881,0.2683,-2.7683,2003
1,-0.8804,-1.6267,-1.4194,1.7137,0.0744,-2.9473,2107
1,-0.8926,-1.7146,-1.0957,1.8406,0.0603,-3.2126,2047
1,-1.05,-1.4597,-1.6118,1.9129,0.055,-3.3364,2073
1,-1.332,-1.8362,-1.3699,1.8353,0.5316,-3.185,2166
1,-1.1389,-1.6746,-1.3127,1.9908,0.3571,-3.364,2051
1,-1.311,-1.7146,-1.3545,2.0746,0.2127,-3.587,2074
1,-1.2761,-1.5527,-1.3374,2.0679,0.3177,-3.4664,2112
1,-1.1711,-1.3857,-1.303,2.3229,-0.3659,-3.556,2070
1,-1.2881,-1.3652,-1.4341,2.0556,0.0169,-3.365,2036
1,-1.2361,-1.1516,-1.3088,2.422,-0.3755,-3.3527,2109
1,-1.2358,-1.1292,-1.208,2.3638,-0.18,-3.2274,2067
1,-1.1431,-0.9517,-1.2576,2.6593,-0.3228,-3.1778,2045
1,-1.0752,-0.7322,-1.304,2.9215,-0.5536,-3.1396,2078
1,-0.8896,-0.6919,-1.1199,2.8494,-0.5514,-3.0239,2077
1,-0.8289,-0.5806,-1.0371,2.8484,-0.753,-2.9779,2092
1,-0.6228,-0.447,-1.0198,2.7046,-0.8497,-3.0235,2025
1,-0.4768,-0.3372,-0.9243,2.5799,-0.9264,-3.1223,2051
1,-0.3477,-0.2346,-0.9519,2.3538,-0.8231,-3.1729,2009
1,-0.1472,-0.2078,-0.9626,1.9379,-0.542,-3.2457,2039
1,0.0881,-0.1365,-0.8523,1.5761,-0.3056,-3.2489,2074
2,0.3225,-0.3196,-0.9355,1.0664,0.0491,-3.2865,2030
2,0.6494,-0.3167,-0.9885,0.8051,0.3862,-3.0918,2032
2,0.8176,-0.3059,-0.7969,0.602,0.6116,-2.9705,2053
2,0.6621,-0.3206,-0.7651,0.4834,0.8738,-2.5205,1975
2,0.7986,-0.6956,-1.0027,-0.053,1.2597,-2.1186,2006
2,1.9999,-0.3752,0.4316,0.0419,-0.975,-4.3635,2449
2,1.9999,-2.0,0.2808,2.3435,-3.8675,-4.3635,2288
2,1.9999,-0.6685,0.7988,4.3634,-2.1274,-4.3635,2292
2,-2.0,-1.1455,-2.0,3.3208,4.3634,-4.3635,1409
2,-2.0,-0.8516,-0.7166,3.6467,4.3634,-0.1712,1949
2,1.9999,0.1052,-0.2791,3.6507,4.3634,1.8387,2313
2,1.9999,-0.0845,-0.156,3.4367,2.069,1.1794,2053
2,1.3181,-0.7256,-0.2683,3.4288,-0.2478,1.6474,2052
2,0.324,-0.9534,-0.5505,3.1811,-1.0842,1.9952,1971
2,-0.3904,-0.4861,-0.5007,3.0544,-0.7355,2.3547,1903
2,-0.5552,-0.0366,-0.2312,2.9707,0.136,2.3924,2023
2,-0.438,0.134,-0.1536,2.8959,0.3574,2.1051,2097
2,-0.1992,-0.0359,-0.427,1.9971,0.5703,2.4751,2068
2,-0.3008,0.03,-0.6064,1.8793,0.5837,2.2968,2027
2,-0.3743,0.1746,-0.3147,1.8534,0.3706,2.5892,2040
2,-0.4155,0.1409,-0.092,1.6496,0.4183,2.8064,2058
2,-0.4841,0.0747,0.0215,1.5677,0.6372,2.7457,2040
2,-0.5186,-0.074,0.0579,1.6677,0.4377,2.6536,2063
2,-0.7371,-0.3213,-0.1028,1.324,0.2033,2.5396,2053
2,-0.8555,-0.5132,-0.2273,1.1451,0.1561,2.5633,2059
2,-0.9441,-0.4866,-0.3711,0.9531,0.1583,2.7034,2053
2,-0.967,-0.5046,-0.3186,0.9365,0.3492,2.6502,2061
2,-1.0156,-0.6174,-0.1963,0.785,0.5717,2.5352,2049
2,-1.1138,-0.7483,-0.1792,0.6898,0.491,2.4944,2054
2,-1.1809,-0.9021,-0.1665,0.4565,0.2831,2.6089,2053
2,-1.136,-1.1365,-0.3103,0.02,0.1152,2.634,2056
2,-1.0796,-1.2515,-0.5779,-0.5946,0.234,2.6318,2049
2,-1.2061,-1.175,-0.7493,-1.1322,0.5906,2.614,2060
2,-1.3833,-1.1836,-0.7297,-1.4013,0.8867,2.6888,2034
2,-1.4875,-1.3379,-0.708,-1.5157,1.099,2.4993,2036
2,-1.4185,-1.6184,-0.6912,-1.7817,1.0174,2.184,2047
2,-1.2371,-1.9021,-0.6619,-1.9795,0.887,2.3819,2066
2,-0.9919,-2.0,-0.6101,-2.1664,1.1228,2.9156,2053
2,-0.8547,-2.0,-0.4888,-2.4491,1.4917,3.1754,2081
2,-0.7617,-2.0,-0.3298,-2.7697,1.8438,2.9116,2037
2,-0.6377,-2.0,-0.1072,-2.926,1.814,2.4808,2037
2,-0.3521,-2.0,0.1035,-2.9988,1.5775,2.1403,2045
2,-0.052,-2.0,0.1917,-3.199,1.0349,1.9884,2041
2,0.0464,-2.0,0.1365,-3.478,0.3268,1.8675,2027
2,-0.2559,-2.0,0.0391,-3.5964,-0.2305,1.6886,2032
2,-0.4641,-2.0,-0.0542,-3.7125,-0.62,1.5781,2031
2,-0.5085,-2.0,-0.1499,-3.9021,-0.6907,1.6044,2037
2,-0.512,-2.0,-0.1885,-4.1349,-0.6699,1.7341,2043
2,-0.4385,-1.9185,-0.2393,-4.2061,-0.7609,1.8616,2036
2,-0.3081,-1.7856,-0.2026,-4.3013,-0.5554,1.8628,2054
2,-0.1833,-1.5396,-0.2976,-4.2329,-0.44,1.7515,2037
2,-0.0935,-1.4155,-0.4087,-4.1064,-0.4746,1.5877,2040
2,0.033,-1.3335,-0.5552,-3.9118,-0.4891,1.445,2063
2,0.0486,-1.2686,-0.7764,-3.6905,-0.467,1.4826,2030
2,-0.0198,-1.231,-0.8481,-3.3907,-0.5067,1.5591,2025
2,-0.1392,-1.2151,-0.9631,-3.2271,-0.4446,1.7644,2044
2,-0.2646,-1.1809,-0.9124,-3.0018,-0.4241,1.9334,2053
2,-0.2703,-1.0425,-0.8003,-2.739,-0.3414,2.1415,2052
2,-0.2791,-0.8806,-0.6919,-2.5898,0.0493,2.32,2056
2,-0.239,-0.8257,-0.614,-2.4193,0.4749,2.3625,2057
2,-0.1865,-0.843,-0.5598,-2.3349,0.5654,2.332,2062
2,-0.1895,-0.8467,-0.6091,-2.1587,0.8035,2.2116,2042
2,-0.1704,-0.7925,-0.676,-2.076,0.9831,2.078,2042
2,-0.1404,-0.6587,-0.8325,-1.9797,0.7981,1.8515,2022
2,-0.1438,-0.5371,-0.9036,-1.7595,0.6411,1.6307,2042
2,-0.2957,-0.4944,-0.9021,-1.4522,0.6163,1.4693,1994
2,-0.4238,-0.4363,-0.7864,-1.1276,0.6484,1.2203,2107
2,-0.4075,-0.3777,-0.7334,-0.9845,0.6761,0.9056,2042
2,-0.4114,-0.291,-0.6221,-0.6074,0.8734,0.4356,2050
2,-0.415,-0.1719,-0.6553,-0.5224,0.9833,0.126,2034
2,-0.3206,-0.2351,-0.4329,-0.29,0.7568,-0.3112,2017
2,-0.2375,-0.3723,-0.5,0.2337,0.4484,-0.5906,1927
2,-0.1626,-0.6091,-0.6157,0.6231,0.2207,-0.9321,2060
2,-0.2637,-0.8286,-0.6814,1.0142,-0.0366,-1.3186,2077
2,-0.4062,-0.9382,-0.7144,1.3426,-0.1498,-1.6696,2020
2,-0.5535,-0.9624,-0.8357,1.6147,-0.074,-2.0164,2076
2,-0.6597,-0.9963,-0.9282,1.9435,0.0943,-2.3549,2052
2,-0.7251,-1.0518,-1.0667,2.2892,0.1438,-2.6809,2079
2,-0.9058,-1.2979,-1.0857,2.2866,0.3851,-2.8104,2062
2,-0.9104,-1.3579,-1.1787,2.4776,0.3136,-3.1313,2087
2,-1.0166,-1.4675,-1.1975,2.624,0.1943,-3.4648,2129
2,-1.1355,-1.6707,-1.1196,2.7855,-0.0246,-3.8819,2032
2,-1.2041,-1.6555,-1.2842,2.7056,0.0695,-4.062,1975
2,-1.2188,-1.6431,-1.4299,2.6501,0.0855,-4.2414,2075
2,-1.1934,-1.4438,-1.6399,3.0347,-0.2642,-4.3635,2040
2,-1.2441,-1.644,-1.4919,2.73,0.2105,-4.2315,1997
2,-1.1436,-1.5173,-1.6589,2.6999,0.281,-4.0359,1904
2,-1.04,-1.3289,-1.396,2.9857,0.0318,-3.7893,1979
2,-1.1357,-1.4238,-1.1821,2.906,0.0087,-3.6278,1991
2,-1.0242,-1.1687,-1.425,2.8261,0.119,-3.3493,2063
2,-0.9224,-0.8926,-1.2554,2.7735,-0.1432,-3.0214,2053
2,-0.833,-0.7949,-1.0161,2.5207,-0.2486,-2.8,2113
2,-0.8477,-0.4902,-0.9763,2.5385,-0.3461,-2.4336,2042
2,-0.7507,-0.4146,-1.0535,1.9904,-0.1131,-2.2198,2027
2,-0.5938,-0.3938,-0.8767,1.7369,-0.3416,-2.3404,2045
2,-0.364,-0.2649,-0.8345,1.1729,-0.0812,-1.7733,2037
2,-0.2449,-0.0334,-0.6309,0.8452,-0.0904,-1.5269,2021
2,-0.0183,-0.106,-0.7822,0.4457,-0.0096,-1.3555,2012
2,0.354,-0.0754,-0.7637,0.1301,0.0495,-1.5159,2080
2,0.3806,-0.1477,-0.8416,-0.3802,0.0277,-1.0492,1992
2,1.9999,-0.1731,0.9683,1.444,-2.4111,-4.3635,2345
2,1.9999,-2.0,0.6873,2.2859,-3.6524,-4.3635,2037
3,1.9999,-1.2056,0.6509,4.3634,-1.574,-4.3635,2361
3,-2.0,-1.8726,-2.0,2.3945,4.3634,-3.0564,1552
3,0.9868,-0.2488,-1.1658,3.4202,2.7863,0.8672,2196
3,1.9999,-0.0408,-0.2007,3.6605,1.9742,1.7243,2002
3,1.3376,-0.7446,-0.4033,3.5979,-0.3563,2.143,2074
3,0.3845,-0.936,-0.5769,3.4987,-0.6131,2.1242,2044
3,-0.1143,-0.512,-0.3853,3.4035,-0.4522,2.0728,2138
3,-0.1519,-0.0569,-0.1296,3.4716,0.3181,1.8305,1919
3,0.1018,0.1682,-0.0442,3.2867,1.0029,1.9032,1995
3,0.1621,0.0671,-0.2957,2.9865,0.9574,1.7335,1939
3,0.1226,-0.0359,-0.3064,2.6456,0.7003,1.509,2082
3,0.0869,0.0813,-0.0623,2.4305,0.4883,1.3635,2068
3,-0.207,0.1946,0.0874,2.4179,0.3478,1.3162,2032
3,-0.4275,0.2805,0.2561,2.1643,0.6036,1.3782,2044
3,-0.5217,0.2769,0.2695,2.0784,0.6612,1.5912,2048
3,-0.5549,0.0637,0.1333,1.5107,0.4979,1.7166,2084
3,-0.5752,-0.1492,-0.0215,1.1561,0.5042,1.4186,2063
3,-0.6575,-0.2488,-0.0269,1.1927,0.6008,1.015,2042
3,-0.6333,-0.2966,0.0273,1.1714,0.6192,0.8218,2041
3,-0.6304,-0.3171,-0.0964,0.9188,0.2268,0.7267,2043
3,-0.6299,-0.4233,-0.2434,0.556,0.1305,0.919,2042
3,-0.7148,-0.49,-0.3098,0.5665,-0.037,1.0824,2044
3,-0.8357,-0.5769,-0.3447,0.5301,-0.2298,1.3941,2056
3,-1.0593,-0.7866,-0.4617,0.5738,-0.1943,1.5522,2042
3,-1.2202,-1.145,-0.4612,0.3859,-0.1509,1.7583,2063
3,-1.4033,-1.4888,-0.4617,-0.0575,0.2752,1.8666,2069
3,-1.5293,-1.6423,-0.5215,-0.7867,1.0256,1.9726,2058
3,-1.5247,-1.7104,-0.5205,-1.4438,1.6641,2.2266,2083
3,-1.3621,-1.7549,-0.4272,-1.7455,1.943,2.418,2039
3,-1.1301,-1.8113,-0.3262,-1.9185,2.2238,2.5373,2022
3,-0.9492,-1.8638,-0.2922,-2.2959,2.1925,2.5076,2017
3,-0.688,-2.0,-0.3225,-2.6613,1.799,2.5743,2060
3,-0.6367,-2.0,-0.3752,-2.9858,1.2802,2.7319,2031
3,-0.6138,-2.0,-0.4221,-3.0545,0.8227,2.6404,2035
3,-0.5056,-2.0,-0.2534,-3.11,0.3169,2.4493,2040
3,-0.4431,-2.0,-0.0757,-3.2822,0.1366,2.2718,2039
3,-0.4521,-2.0,-0.0554,-3.5446,-0.049,2.1149,2032
3,-0.5051,-1.9861,-0.2336,-3.8159,-0.2171,1.9528,2035
3,-0.5264,-1.8879,-0.3743,-4.0005,-0.3559,1.9784,2051
3,-0.5654,-1.8052,-0.4438,-4.0969,-0.3996,1.9718,2034
3,-0.5369,-1.7534,-0.4451,-4.157,-0.4599,1.9478,2033
3,-0.4268,-1.7056,-0.4543,-4.2615,-0.2962,1.8407,2043
3,-0.291,-1.6038,-0.4695,-4.2825,-0.4281,1.8418,2047
3,-0.2393,-1.4995,-0.4685,-4.2286,-0.689,1.7278,2027
3,-0.2,-1.4004,-0.5129,-4.1865,-0.8367,1.7243,2063
3,-0.2268,-1.2974,-0.5107,-4.0282,-0.9163,1.7992,2042
3,-0.262,-1.1833,-0.4966,-3.8873,-0.8397,1.9696,2066
3,-0.2781,-1.0674,-0.5366,-3.7968,-0.5996,2.1341,2055
3,-0.2422,-1.0254,-0.6111,-3.6098,-0.2457,2.1815,2044
3,-0.2144,-1.0186,-0.6685,-3.3818,0.2618,2.1293,2039
3,-0.0403,-1.0183,-0.6653,-3.177,0.5062,2.1375,2049
3,0.0457,-0.9924,-0.6921,-2.9292,0.6894,2.0458,2022
3,-0.0703,-0.9309,-0.7776,-2.6336,0.8999,1.9732,2034
3,-0.1865,-0.8984,-0.7734,-2.343,1.0356,2.0226,2068
3,-0.2527,-0.8352,-0.7651,-1.962,1.1118,2.0306,2026
3,-0.2495,-0.7341,-0.7695,-1.6849,1.3436,1.9567,2052
3,-0.2407,-0.6443,-0.7385,-1.5139,1.4017,1.7013,2043
3,-0.3394,-0.5632,-0.8284,-1.2749,1.1608,1.2681,2015
3,-0.3052,-0.5034,-0.8633,-1.0082,0.903,0.8265,2078
3,-0.3052,-0.531,-0.8003,-0.6496,0.7365,0.2444,1967
3,-0.4675,-0.4978,-0.7173,-0.3195,0.7146,-0.3745,2009
3,-0.5908,-0.6084,-0.6765,0.0803,0.638,-1.0448,2016
3,-0.5908,-0.7812,-0.8064,0.5914,0.5934,-1.58,2001
3,-0.5439,-0.8723,-0.8608,1.0593,0.5657,-2.005,2097
3,-0.5315,-0.9795,-0.7732,1.3876,0.3998,-2.2593,2053
3,-0.6191,-1.1653,-0.8945,1.5335,0.1995,-2.3538,2033
3,-0.6628,-1.2209,-0.9116,1.6074,-0.082,-2.4103,2030
3,-0.908,-1.5288,-0.9338,1.6072,-0.2764,-2.7312,2096
3,-1.1272,-1.6062,-1.0159,1.6661,-0.2723,-2.8429,2091
3,-1.3042,-1.7009,-1.0398,1.5885,-0.0925,-2.8609,2008
3,-1.3215,-1.6445,-1.1829,1.5897,0.0306,-3.123,2062
3,-1.3567,-1.5925,-1.1758,1.5358,0.0731,-3.3642,1964
3,-1.26,-1.4441,-1.3137,1.5994,-0.0712,-3.5745,1991
3,-1.4207,-1.5588,-1.2788,1.5436,0.0542,-3.7444,2123
3,-1.2817,-1.3538,-1.418,1.7974,-0.0975,-3.7926,1970
3,-1.1157,-1.1499,-1.5107,2.1755,-0.4157,-4.0018,2132
3,-1.2351,-1.2349,-1.3525,2.0884,-0.1269,-3.9691,2070
3,-1.1223,-1.1848,-1.3633,2.1429,-0.1758,-4.0094,2054
3,-1.0212,-1.0974,-1.2314,2.3035,-0.2927,-3.9904,2020
3,-0.9883,-1.0115,-1.2993,2.4794,-0.4591,-4.0105,2142
3,-0.9429,-0.9221,-1.2502,2.2984,-0.1924,-3.7154,2029
3,-0.8269,-0.8203,-1.1794,2.2767,-0.231,-3.4576,1940
3,-0.6462,-0.5173,-1.2661,2.4498,-0.5352,-3.5288,1953
3,-0.6067,-0.5994,-1.0605,2.0046,-0.0559,-3.1271,1978
3,-0.4954,-0.4224,-0.9937,1.8326,-0.1015,-2.9385,2023
3,-0.3037,-0.4133,-0.8501,1.5017,0.0599,-2.6647,2028
3,-0.166,-0.3076,-0.9209,1.0337,0.4116,-2.4491,2059
3,0.084,-0.155,-0.8594,0.7717,0.4353,-2.1883,2033
3,0.2996,-0.1384,-0.8804,0.4669,0.5121,-2.1506,2003
3,0.4814,-0.1711,-0.7896,0.2946,0.4987,-1.8626,2055
3,1.9999,0.3452,-0.7183,-2.0415,-1.4202,-2.9244,2105
3,1.9999,-0.4602,0.2598,2.1297,-2.4866,-4.3635,2169
3,1.9999,-2.0,1.6577,4.0406,-2.7024,-4.3635,2197
3,-0.813,-1.0828,-2.0,3.2899,3.8253,-4.3635,1913
3,-2.0,-1.1477,-0.6868,3.4581,2.4056,0.8268,1791
3,1.9999,-0.7688,-0.5403,2.9195,3.0051,1.177,2275
3,1.6885,-0.5803,-0.1987,3.2781,0.4999,2.2185,1961
3,0.9038,-0.78,-0.4856,3.368,-0.0356,2.2704,2031
3,0.0964,-0.4639,-0.741,3.4427,0.2163,2.5113,2194
3,-0.2419,-0.0854,-0.5894,3.4319,0.6159,2.5796,1956
3,-0.2351,0.1028,-0.458,3.2785,1.1627,2.5796,1929
3,-0.0283,-0.0432,-0.4104,3.0682,1.2335,2.7271,1923
3,0.0513,-0.1184,-0.3315,2.9441,0.7922,2.4388,2056
4,-0.0278,-0.1375,-0.2158,2.6554,0.4425,2.531,2082
4,-0.2617,-0.012,-0.0776,2.6137,0.2081,2.0102,2070
4,-0.2434,0.0752,0.1863,2.3718,0.2918,2.2152,2044
4,-0.6055,0.0867,0.2502,2.2664,0.1759,1.8371,2044
4,-0.7776,-0.0024,0.2131,1.8889,0.1968,1.7887,2032
4,-0.8743,-0.1887,0.0134,1.4033,0.2622,1.8161,2065
4,-0.8843,-0.2397,0.0022,1.2436,0.3341,1.3624,2049
4,-0.8911,-0.1653,0.0706,1.1444,0.5867,1.2416,2049
4,-0.9104,-0.1387,0.1145,1.275,0.4671,1.0813,2046
4,-0.8274,-0.1631,0.1216,1.3121,-0.0301,0.9957,2042
4,-0.7336,-0.3479,0.0762,0.9656,-0.4729,1.1549,2038
4,-0.8157,-0.4741,-0.3257,0.8914,-0.8662,1.2953,2052
4,-0.8489,-0.6792,-0.416,0.8862,-1.0074,1.4764,2050
4,-1.0581,-0.8677,-0.6506,0.577,-0.8182,1.7673,2037
4,-1.3662,-1.0732,-0.949,0.3253,-0.2104,2.0895,2074
4,-1.7786,-1.3572,-1.0183,0.0076,0.659,2.3451,2090
4,-2.0,-1.6472,-0.8164,-0.3537,1.3659,2.5257,2059
4,-1.9065,-1.8418,-0.5068,-0.5984,2.3044,2.5136,2070
4,-1.3684,-1.9839,-0.1545,-0.9211,2.9721,2.6826,2053
4,-0.9775,-2.0,-0.0281,-1.4359,3.1826,3.1014,2017
4,-0.7119,-2.0,-0.1494,-1.7849,2.962,3.2018,2061
4,-0.5447,-2.0,-0.1763,-2.0354,2.2466,3.0218,2002
4,-0.4824,-2.0,-0.0896,-2.5742,1.266,2.8015,2012
4,-0.4233,-2.0,-0.0051,-2.9767,0.3538,2.3645,2013
4,-0.5737,-2.0,-0.0955,-3.2881,0.0398,1.9751,2039
4,-0.6799,-2.0,-0.0093,-3.5953,-0.4783,1.7202,2026
4,-0.6174,-2.0,-0.0562,-3.9627,-0.6096,1.6275,2038
4,-0.5884,-1.9688,-0.2136,-4.3337,-0.3301,1.6145,2046
4,-0.5386,-1.9409,-0.3254,-4.3635,-0.1232,1.6354,2058
4,-0.4197,-1.8567,-0.3965,-4.3635,-0.0318,1.6119,2045
4,-0.2688,-1.7419,-0.4038,-4.3635,-0.0977,1.5342,2044
4,-0.1567,-1.647,-0.4524,-4.3635,-0.2654,1.4749,2039
4,-0.1467,-1.5222,-0.5361,-4.3635,-0.4549,1.4608,2037
4,-0.2192,-1.3872,-0.5356,-4.3635,-0.6573,1.4848,2044
4,-0.2949,-1.2766,-0.5383,-4.2698,-0.763,1.5651,2038
4,-0.2573,-1.134,-0.6143,-4.1504,-0.5775,1.7102,2040
4,-0.2192,-0.958,-0.6123,-3.9213,-0.4101,1.7938,2044
4,-0.1702,-0.8901,-0.5203,-3.6929,-0.1698,1.8781,2051
4,-0.1262,-0.8879,-0.4851,-3.4307,0.1791,1.9771,2045
4,-0.0266,-0.8613,-0.4441,-3.0469,0.4386,2.0434,2041
4,-0.0159,-0.8276,-0.5217,-2.7441,0.5723,2.0832,2037
4,-0.1504,-0.8215,-0.6013,-2.3427,0.6389,2.0825,2044
4,-0.3,-0.8154,-0.6602,-1.8885,0.6149,2.0988,2018
4,-0.3496,-0.8181,-0.6299,-1.5306,0.5819,1.9245,2044
4,-0.4089,-0.8223,-0.7683,-1.3459,0.8292,1.6672,2020
4,-0.5225,-0.7493,-0.7395,-1.0654,0.7702,1.4869,2033
4,-0.5325,-0.6384,-0.7712,-0.8273,0.7387,1.2726,2037
4,-0.4473,-0.5603,-0.7551,-0.8625,0.8373,1.0343,2072
4,-0.4602,-0.5515,-0.6763,-0.6779,0.6502,0.6231,2040
4,-0.4397,-0.5173,-0.7903,-0.4197,0.5637,0.2583,2089
4,-0.405,-0.5415,-0.8096,-0.3314,0.6902,-0.1931,2075
4,-0.4482,-0.5015,-0.845,0.0013,0.6669,-0.8412,2008
4,-0.4426,-0.5679,-0.9009,0.3282,0.514,-1.1665,2078
4,-0.4197,-0.7156,-0.9363,0.7698,0.4645,-1.3848,2107
4,-0.3853,-0.7903,-0.979,1.0437,0.4163,-1.4707,2056
4,-0.4343,-0.958,-1.0002,1.1977,0.1973,-1.4861,2043
4,-0.6072,-1.1982,-0.8838,1.3661,0.0968,-1.4841,2017
4,-0.7456,-1.3333,-0.9265,1.3153,0.1234,-1.6041,2101
4,-0.9084,-1.4126,-1.0195,1.1923,0.2009,-1.8358,2043
4,-1.1467,-1.4409,-1.0449,1.1583,0.3563,-2.1553,2061
4,-1.228,-1.3647,-1.0242,1.1686,0.1421,-2.4839,2051
4,-1.3503,-1.3708,-1.0762,0.9447,0.3492,-2.7173,2065
4,-1.3452,-1.3523,-1.0874,0.9858,0.2699,-3.1003,2034
4,-1.3098,-1.28,-1.1736,1.1151,0.1185,-3.385,2038
4,-1.3591,-1.3762,-1.2258,1.2223,0.1848,-3.6095,2093
4,-1.3608,-1.2556,-1.2625,1.5885,-0.0035,-3.8832,2133
4,-1.2144,-1.1626,-1.1667,1.9631,-0.3538,-4.1112,2159
4,-1.2073,-1.1323,-1.1409,2.2884,-0.2755,-3.9194,1988
4,-1.2104,-1.1443,-1.1304,2.5599,-0.4362,-3.8358,2034
4,-1.1897,-1.0806,-1.1187,2.7863,-0.4261,-3.7869,2041
4,-1.1472,-0.946,-1.1177,2.9779,-0.4541,-3.5884,1921
4,-1.0581,-0.7871,-1.022,3.0344,-0.6444,-3.3077,2015
4,-0.9607,-0.6182,-1.0405,2.9642,-0.8291,-3.1351,1964
4,-0.9219,-0.5059,-0.9502,2.8133,-0.975,-2.9564,2152
4,-0.897,-0.4336,-0.9404,2.5413,-1.0824,-2.8662,2105
4,-0.8132,-0.4331,-0.8918,2.0852,-0.8754,-2.8027,2082
4,-0.5759,-0.4126,-0.9219,1.5322,-0.6019,-2.8257,2098
4,-0.3625,-0.4827,-0.8562,0.9929,-0.3565,-2.9116,2167
4,-0.0227,-0.2988,-0.9641,0.4868,-0.0372,-2.8673,2028
4,0.2629,-0.1606,-0.9165,0.2068,-0.1312,-2.716,2048
4,0.3667,-0.4031,-0.7529,-0.1329,0.2721,-2.6152,2055
4,0.2358,-0.2771,-1.1646,-0.6026,0.6642,-2.0254,2093
4,1.9999,0.2119,1.2871,1.2183,-1.854,-4.3635,2494
4,1.8965,-2.0,-1.2119,0.9388,-1.7632,-4.3635,1823
4,1.9999,-0.7185,0.3442,4.3634,-0.489,-4.3635,2484
4,-2.0,-1.0691,-2.0,1.9173,4.3634,-4.3635,1156
4,0.3547,-0.99,-0.8232,3.2323,2.0495,3.2741,2434
4,1.9999,-1.2515,-0.4871,3.4515,2.9537,2.2437,2247
4,1.0784,-1.5085,-0.0586,3.4379,-0.7163,3.4417,1946
4,0.2605,-1.0696,-0.384,3.4785,-1.003,3.1527,2050
4,-0.291,-0.2866,-0.3301,3.7669,-0.6438,2.9003,2096
4,-0.3306,0.1631,-0.1658,3.8386,0.1638,2.6639,1868
4,-0.0515,0.1162,-0.2603,3.6973,0.6308,2.3104,1982
4,0.2432,-0.1401,-0.5181,3.4168,0.3959,1.9811,2038
4,0.3794,-0.209,-0.3699,2.7424,0.0643,1.7664,2103
4,0.2024,-0.0698,-0.1565,2.4919,-0.3603,1.3583,2079
4,0.0955,0.0957,0.0183,2.1666,-0.318,1.2485,2049
4,-0.0093,0.3066,0.1929,1.9489,0.0615,0.9918,2064
4,-0.252,0.2971,0.1189,1.7262,0.5288,1.0634,2043
4,-0.3523,0.1111,-0.0115,1.5446,0.7662,1.1449,2020
4,-0.1614,-0.2273,-0.1238,1.3366,0.7076,0.989,2068
4,-0.1033,-0.3081,-0.291,1.1411,0.9796,0.5582,2048
5,-0.3477,-0.1511,-0.3289,1.08,1.0472,0.2374,2022
5,-0.5422,0.0981,-0.2778,1.3439,0.8042,0.316,2034
5,-0.679,0.2217,-0.3152,1.3948,0.4782,0.5562,2047
5,-0.637,0.1284,-0.2593,1.2821,-0.1144,0.8255,2055
5,-0.9924,-0.1282,-0.5242,1.1082,-0.3872,1.0786,2053
5,-1.282,-0.4749,-0.6821,1.1182,-0.2978,1.5382,2067
5,-1.5269,-0.8901,-0.6487,0.9557,0.3731,1.7952,2067
5,-1.6663,-1.2764,-0.6411,0.465,1.2752,2.0802,2091
5,-1.8188,-1.6162,-0.5784,-0.1155,1.9377,2.3615,2061
5,-1.8613,-1.8784,-0.396,-0.5625,2.6085,2.7465,2048
5,-1.6365,-2.0,-0.3879,-0.8955,3.1052,2.824,2071
5,-1.4395,-2.0,-0.1279,-1.0497,3.2863,2.8183,2040
5,-1.2478,-2.0,-0.1501,-1.4339,3.167,2.918,2020
5,-0.9705,-2.0,-0.1763,-1.7946,2.6151,3.0435,2062
5,-0.7195,-2.0,-0.1995,-2.3605,1.7511,2.9316,2053
5,-0.6069,-2.0,-0.1726,-2.8311,0.7321,2.6749,2029
5,-0.7749,-2.0,-0.0703,-3.1242,0.1016,2.3647,2007
5,-0.9365,-2.0,-0.1167,-3.471,-0.0216,2.0837,2057
5,-1.0032,-2.0,-0.1045,-3.8087,-0.1868,1.8528,2027
5,-0.8052,-1.8755,-0.0396,-4.027,-0.1826,1.4893,2041
5,-0.5525,-1.812,-0.0713,-4.3635,-0.0525,1.2632,2041
5,-0.3015,-1.7271,-0.1704,-4.3635,-0.3489,1.1983,2019
5,-0.27,-1.6577,-0.3604,-4.3635,-0.5494,1.3034,2010
5,-0.3186,-1.563,-0.5098,-4.3635,-0.6404,1.4097,2022
5,-0.3706,-1.4084,-0.6614,-4.2655,-0.6031,1.5948,2029
5,-0.4797,-1.3579,-0.7507,-4.0462,-0.4513,1.737,2049
5,-0.6042,-1.3215,-0.6545,-3.6339,-0.3834,1.9116,2050
5,-0.5449,-1.2944,-0.5591,-3.3662,-0.1611,2.1459,2049
5,-0.4138,-1.2571,-0.4829,-3.2427,0.1603,2.4013,2047
5,-0.2979,-1.199,-0.3772,-2.9783,0.2389,2.5988,2048
5,-0.166,-1.229,-0.3438,-2.962,0.1258,2.5377,2049
5,-0.0859,-1.2766,-0.4019,-2.8915,0.0229,2.4346,2051
5,-0.0317,-1.2422,-0.4534,-2.6476,-0.1875,2.268,2023
5,-0.114,-1.1953,-0.4888,-2.3894,-0.2713,2.0859,2044
5,-0.3271,-1.1895,-0.5205,-2.2194,-0.0244,1.8261,2055
5,-0.4895,-1.2188,-0.5718,-2.1776,0.2312,1.4276,2077
5,-0.5569,-1.1348,-0.6567,-2.0535,0.4215,1.1374,2063
5,-0.4714,-1.0923,-0.7031,-2.0543,0.4695,1.024,2093
5,-0.4172,-1.0425,-0.7009,-1.9796,0.4324,0.9039,2057
5,-0.4272,-0.9829,-0.7249,-1.7753,0.4185,0.8558,2067
5,-0.4426,-0.9553,-0.6948,-1.5301,0.5757,0.8553,2049
5,-0.4333,-0.939,-0.6667,-1.3327,0.7024,0.6801,2044
5,-0.4529,-0.8789,-0.689,-1.0645,0.9333,0.4036,2046
5,-0.4814,-0.7725,-0.8003,-0.9437,1.1001,0.1457,2064
5,-0.4509,-0.7205,-0.8408,-0.6152,1.0272,-0.0345,2059
5,-0.3254,-0.6753,-0.8589,-0.4031,0.897,-0.24,2037
5,-0.3723,-0.6162,-0.7825,-0.1469,0.671,-0.4611,2057
5,-0.4783,-0.5176,-0.7476,0.1344,0.4673,-0.5478,2059
5,-0.5488,-0.4529,-0.668,0.4552,0.4896,-0.5614,2033
5,-0.6433,-0.4331,-0.8081,0.8087,0.4304,-0.6164,2030
5,-0.6755,-0.6216,-0.8613,0.9905,0.4344,-0.5881,2011
5,-0.6924,-0.7583,-0.8416,1.2812,0.3485,-0.8317,2060
5,-0.7676,-0.8896,-0.8586,1.3339,0.2157,-1.187,2119
5,-0.9009,-1.0508,-0.8738,1.3924,-0.0506,-1.4884,2059
5,-1.0283,-1.0825,-0.8357,1.5158,-0.0305,-1.8923,2043
5,-1.135,-1.084,-1.0171,1.2656,-0.0384,-2.5013,2118
5,-1.2341,-1.2249,-1.0435,1.0902,0.1017,-2.9397,2194
5,-1.219,-1.2024,-1.1646,0.9369,0.3368,-3.2347,2043
5,-1.2712,-1.0303,-1.2222,0.983,0.4296,-3.5339,1979
5,-1.2463,-0.969,-1.3711,0.7508,0.2975,-3.6809,2030
5,-1.3513,-0.8293,-1.5251,1.3311,-0.4135,-4.1081,2038
5,-1.2524,-1.0601,-1.0171,1.4978,-0.0914,-3.7669,2090
5,-1.2087,-1.1614,-1.1064,1.8741,-0.1047,-3.8619,2068
5,-1.2158,-1.0769,-1.1375,2.3955,-0.1181,-3.836,2073
5,-1.1274,-0.8799,-1.0813,2.8624,-0.3139,-3.7644,1986
5,-1.1235,-0.7183,-1.0869,3.2417,-0.4251,-3.6415,1973
5,-1.1562,-0.6772,-1.1316,3.4035,-0.4493,-3.4665,2012
5,-1.1248,-0.668,-1.0974,3.4738,-0.4737,-3.2676,2226
5,-1.0977,-0.6401,-1.0535,3.4023,-0.6441,-3.0951,2016
5,-0.9421,-0.7432,-1.1289,2.9933,-0.7347,-2.9834,2037
5,-0.7874,-0.5938,-1.0618,2.5425,-0.8766,-3.0565,2071
5,-0.7478,-0.4766,-1.011,2.0146,-0.7649,-3.0248,2149
5,-0.5212,-0.4482,-0.9622,1.6708,-0.6891,-2.9247,2120
5,-0.2991,-0.4148,-1.05,0.9549,-0.2721,-2.8738,2038
5,-0.1094,-0.2981,-1.0337,0.6542,-0.094,-2.6302,1979
5,0.1619,-0.2385,-0.9285,0.2735,0.2119,-2.5003,2024
5,0.4341,-0.4102,-0.7627,0.3484,0.4609,-2.371,2045
5,0.4766,-0.5974,-0.8423,0.3039,1.0913,-2.1435,2027
5,1.9999,-0.0713,-0.5134,-1.2388,-0.5052,-3.6199,2158
5,1.9999,-0.4478,0.7124,4.3634,-1.7114,-4.3635,2124
5,0.4111,-2.0,1.9999,4.3634,-0.8869,-4.3587,2019
5,1.8701,-1.2644,-1.5154,4.3634,3.5866,-4.3635,2493
5,-1.2463,-1.2061,-0.469,4.3634,3.9727,-1.9939,1569
5,1.5312,-0.9543,-0.2139,4.2206,2.5749,-0.7685,2159
5,1.2373,-0.4856,-0.1465,4.1285,1.4086,-0.0445,1991
5,0.4067,-0.7061,-0.6953,3.4869,0.0587,0.8606,1998
5,0.1821,-0.4155,-0.5559,3.0842,0.1653,1.101,2165
5,0.2087,-0.1587,-0.4268,2.9364,0.1673,1.1881,2030
5,0.2971,-0.0034,-0.2168,3.0612,0.6317,0.9368,1920
5,0.4614,-0.0427,-0.0876,3.2596,0.7407,0.8296,2029
5,0.4663,-0.241,-0.1909,3.1895,0.6679,0.7484,2070
5,0.3992,-0.4521,-0.3545,2.6665,0.3405,0.9058,2084
5,0.2673,-0.4709,-0.3767,2.3494,0.0792,0.9614,2062
5,0.0457,-0.4133,-0.1833,1.921,0.2121,1.1836,2046
5,-0.1809,-0.2517,-0.0527,1.8229,0.5461,1.0123,2041
5,-0.2678,-0.198,0.0603,1.5087,0.8742,1.0758,2036
5,-0.408,-0.2148,0.071,1.3214,1.1661,1.0047,2045
5,-0.3206,-0.3035,0.0986,1.1231,1.0427,1.0409,2064
5,-0.2937,-0.3794,0.083,0.9686,0.8677,0.9773,2067
5,-0.3186,-0.4531,0.0039,0.7317,0.5874,0.9721,2034
5,-0.3281,-0.5056,-0.0208,0.5799,0.3251,1.0401,2035
5,-0.4351,-0.5979,0.0393,0.3159,0.1962,1.0778,2035
5,-0.614,-0.6663,-0.0911,0.0454,-0.0008,1.2342,2051
6,-0.7751,-0.8015,-0.2251,-0.3072,-0.4733,1.3375,2031
6,-0.8149,-0.8152,-0.301,-0.6944,-0.3855,1.331,2057
6,-1.0811,-0.8721,-0.4146,-1.1101,0.3261,1.5177,2044
6,-1.3918,-0.9805,-0.5388,-1.2094,0.7966,1.692,2063
6,-1.4814,-1.1377,-0.6265,-1.3531,1.0461,1.8832,2051
6,-1.3699,-1.301,-0.7419,-1.9124,1.5753,2.0606,2065
6,-1.3047,-1.4204,-0.7876,-2.267,2.2715,2.3485,2039
6,-1.3308,-1.4341,-0.6277,-2.286,2.4808,2.7089,2049
6,-1.2905,-1.4211,-0.5942,-2.6328,2.6517,3.008,2034
6,-1.1162,-1.4385,-0.6606,-2.6778,2.4755,3.4017,2058
6,-0.8779,-1.4233,-0.5767,-2.2154,2.0343,3.6407,2047
6,-0.9812,-1.5132,-0.5752,-2.2003,1.7839,3.583,2106
6,-1.0378,-1.6553,-0.6226,-2.498,1.3732,3.2491,2049
6,-0.8206,-1.8337,-0.4458,-2.2403,0.7321,3.07,2076
6,-0.4985,-2.0,-0.0894,-1.9554,-0.0758,2.5013,2057
6,-0.3489,-2.0,-0.0759,-2.3509,-0.3255,1.8888,2061
6,-0.5044,-2.0,-0.4739,-2.9235,0.3109,1.6873,2019
6,-0.561,-2.0,-0.3081,-3.0072,0.3167,1.8161,2022
6,-0.5112,-2.0,-0.0208,-3.3983,-0.1895,1.8009,2025
6,-0.3726,-2.0,-0.0312,-3.7364,-0.14,1.7769,2050
6,-0.3035,-2.0,-0.1179,-3.9895,-0.0393,1.7302,2047
6,-0.3188,-2.0,-0.23,-4.2299,-0.2601,1.6651,2025
6,-0.3462,-1.8518,-0.373,-4.3635,-0.6138,1.5307,2032
6,-0.3301,-1.749,-0.4922,-4.3635,-0.6786,1.4619,2056
6,-0.3196,-1.5867,-0.5088,-4.3635,-0.8569,1.5021,2046
6,-0.1855,-1.4055,-0.6079,-4.3635,-0.9224,1.4814,2043
6,-0.1443,-1.2498,-0.6348,-4.3598,-0.9511,1.5382,2027
6,-0.2454,-1.1174,-0.76,-4.1441,-0.9032,1.5388,2026
6,-0.2249,-1.0474,-0.8628,-3.9399,-0.7809,1.7731,2049
6,-0.1321,-0.9375,-0.9014,-3.6677,-0.4506,2.0154,2076
6,-0.1248,-0.9023,-0.8113,-3.3022,-0.2866,2.2178,2064
6,-0.0779,-0.8799,-0.7126,-3.0343,-0.0312,2.5261,2047
6,-0.0994,-0.834,-0.7197,-2.8406,0.3682,2.7205,2039
6,-0.1755,-0.8745,-0.7026,-2.6212,0.7389,2.7635,2047
6,-0.1189,-0.8911,-0.6592,-2.4344,0.8765,2.6862,2062
6,-0.092,-0.7383,-0.6475,-2.1608,1.0766,2.4713,2042
6,-0.1799,-0.6211,-0.7617,-1.9413,1.3283,2.226,2040
6,-0.3076,-0.5574,-0.7932,-1.6378,1.3363,1.9028,2055
6,-0.3279,-0.5767,-0.8389,-1.4888,1.0124,1.5427,2061
6,-0.4106,-0.4604,-0.8423,-0.9473,0.8777,1.0918,2035
6,-0.5371,-0.4307,-0.8464,-0.49,0.8435,0.6457,2027
6,-0.5801,-0.3586,-0.8391,-0.1434,0.8095,0.2376,2016
6,-0.5186,-0.3667,-0.7407,0.2261,0.7689,-0.3015,2038
6,-0.4221,-0.5359,-0.6531,0.5968,0.3337,-0.8839,2052
6,-0.4358,-0.6587,-0.6821,1.0092,0.074,-1.5001,2054
6,-0.5222,-0.874,-0.8003,1.2307,-0.1537,-1.8852,2077
6,-0.6125,-1.0178,-0.803,1.3922,-0.3591,-2.0429,2091
6,-0.677,-1.0947,-0.8728,1.4764,-0.3505,-2.0747,2092
6,-0.7678,-1.1575,-0.9072,1.5761,-0.2503,-2.1126,2042
6,-0.8867,-1.2146,-0.9661,1.5945,-0.1316,-2.2525,2009
6,-0.9924,-1.3018,-1.0581,1.59,0.0599,-2.3981,2101
6,-1.033,-1.325,-1.134,1.6135,0.1357,-2.5787,2034
6,-1.1096,-1.2725,-1.1616,1.5989,0.1839,-2.8111,2084
6,-1.1089,-1.2495,-1.2188,1.7143,0.145,-3.049,2011
6,-1.114,-1.1743,-1.2527,1.9457,-0.0398,-3.5358,2018
6,-1.2336,-1.2476,-1.1641,2.0319,0.0372,-3.6438,2047
6,-1.1465,-1.2048,-1.1538,2.1659,-0.0161,-3.8548,1978
6,-1.1592,-1.1277,-1.2224,2.3766,-0.0698,-3.9688,2138
6,-1.1985,-1.0979,-1.3188,2.5493,-0.1032,-4.0479,2062
6,-1.0952,-0.9783,-1.3237,2.7727,-0.1763,-4.0933,2057
6,-1.0903,-0.9058,-1.2729,3.0907,-0.2328,-4.2125,2116
6,-1.0525,-0.8833,-1.1816,3.2938,-0.261,-4.3607,2039
6,-0.9531,-0.7756,-0.9983,3.5873,-0.3566,-4.3635,2056
6,-0.9214,-0.7754,-1.0557,3.5571,-0.3145,-4.3635,2009
6,-0.9019,-0.6743,-1.0081,3.3873,-0.2172,-4.3635,2005
6,-0.811,-0.5134,-0.9758,3.2409,-0.2167,-4.3635,2048
6,-0.8438,-0.5129,-1.1487,2.7638,0.0594,-4.3635,1938
6,-0.5725,-0.397,-0.991,2.4764,0.0527,-4.1929,2058
6,-0.3792,-0.4717,-0.947,2.1483,0.1286,-3.7968,2063
6,-0.2305,-0.6387,-0.9583,1.7289,0.2015,-3.3457,2056
6,-0.1372,-0.6389,-0.9602,1.3155,0.2669,-2.6739,2006
6,0.147,-0.6428,-0.9392,0.8493,0.3599,-2.0418,2051
6,-0.0366,-0.5979,-1.0005,0.2511,0.716,-1.136,2106
6,0.4983,-0.4639,-0.5889,-0.1155,0.2942,-0.4385,2013
6,1.9999,-0.1641,-1.1077,-3.358,-2.1134,-2.1704,2319
6,1.9999,0.3179,0.7183,2.9925,-4.2515,-4.3635,1974
6,0.3262,-2.0,0.9065,2.5505,-2.6221,-3.2031,1952
6,1.9675,-1.9497,-0.1111,3.1531,1.8287,-4.3635,2295
6,-1.5415,-1.0452,-1.2952,2.9902,4.3634,-2.7813,1570
6,1.6707,-0.8442,-0.0916,3.5592,2.9911,-0.5851,2206
6,1.9999,-0.3315,0.1311,3.5908,1.6944,0.2433,2010
6,1.554,-0.25,-0.2263,3.9349,0.0859,0.7325,1965
6,0.5818,-0.1438,-0.6252,3.7106,0.0815,1.3632,2205
6,0.0767,-0.0918,-0.7305,3.4609,0.5585,2.024,1964
6,-0.1597,0.0667,-0.4753,3.621,0.9408,2.1218,1969
6,0.615,0.1221,-0.021,3.4889,1.3346,2.4649,2032
6,0.1194,0.0093,-0.2466,3.5832,1.2741,2.2348,1957
6,0.2705,-0.0854,-0.1716,3.3561,0.9589,1.9841,2091
6,0.1235,-0.0793,-0.1167,3.1031,0.5243,1.8518,2079
6,-0.1604,-0.1545,-0.3992,2.4824,0.2752,1.6547,2051
6,-0.5876,-0.0737,-0.4233,1.978,0.5854,1.4705,2023
6,-0.8408,0.1182,-0.1892,1.6338,0.8998,1.4423,2045
6,-0.9829,0.2578,-0.0212,1.5174,1.2344,1.374,2067
6,-0.9084,0.1162,0.1287,1.4467,1.5422,1.5053,2091
6,-0.7817,-0.0686,0.238,1.5604,1.4475,1.2232,2075
6,-0.6841,-0.3286,0.3442,1.5772,1.1062,0.8661,2050
6,-0.7053,-0.5378,0.1931,1.28,0.4789,0.8138,2042
6,-0.8018,-0.6392,-0.053,1.13,-0.3963,0.9356,2037
6,-0.8577,-0.7725,-0.2695,0.7594,-0.9797,1.1378,2050
6,-1.0811,-1.0078,-0.5027,0.4558,-0.9393,1.2363,2057
6,-1.4639,-1.1746,-0.5188,0.1834,-0.6336,1.4832,2085
7,-1.9929,-1.5547,-0.4832,-0.1936,0.1353,1.4772,2049
7,-2.0,-1.8328,-0.1301,-0.7407,0.9853,1.5245,2052
7,-1.918,-1.9158,0.0742,-1.7744,1.5904,1.6736,2046
7,-1.3608,-1.7981,-0.1108,-2.4693,1.735,1.9711,2045
7,-0.7749,-1.7446,-0.3882,-2.5838,1.7791,2.4409,2059
7,-0.5369,-1.7815,-0.4478,-2.4265,1.607,2.5449,2062
7,-0.6672,-1.9937,-0.4915,-2.3678,1.2548,2.5521,2026
7,-0.7822,-2.0,-0.501,-2.3934,0.9471,2.8899,2016
7,-0.9055,-2.0,-0.4475,-2.6998,0.9501,3.0725,2031
7,-0.9802,-2.0,-0.5725,-3.4932,1.2203,3.176,2032
7,-0.9929,-2.0,-0.6824,-4.1117,1.4122,3.3222,2043
7,-0.8921,-1.9534,-0.7236,-4.3635,1.7566,3.2146,2021
7,-0.7505,-1.7656,-0.6909,-4.3635,1.6139,3.019,2027
7,-0.3271,-1.6411,-0.6091,-4.241,1.3061,2.8327,2031
7,-0.0649,-1.6343,-0.3606,-4.3635,0.7821,2.7051,2067
7,-0.084,-1.6929,-0.1689,-4.3635,-0.3344,2.6891,2039
7,-0.1357,-1.7358,-0.0916,-4.3338,-0.8791,2.706,2034
7,-0.1995,-1.7351,-0.0737,-4.0301,-0.7823,2.551,2040
7,-0.1843,-1.873,-0.0215,-3.8286,-0.9841,2.241,2081
7,-0.1797,-2.0,-0.1897,-3.8775,-1.1327,1.7419,2061
7,-0.1953,-1.9907,-0.4966,-4.0085,-0.8963,1.3905,2089
7,-0.1975,-1.8428,-0.7646,-4.2501,-0.695,1.5047,2047
7,-0.2517,-1.7886,-0.7629,-4.1795,-0.9724,1.7881,2018
7,-0.2664,-1.8645,-0.6658,-4.116,-1.28,2.1405,2047
7,-0.2356,-1.8862,-0.573,-4.2168,-0.8023,2.232,2064
7,-0.2925,-1.6626,-0.5322,-4.0795,-0.3021,2.1558,2042
7,-0.2666,-1.3931,-0.5164,-3.721,0.0579,2.1068,2039
7,-0.1257,-1.2451,-0.6106,-3.4725,0.3325,2.1831,2033
7,-0.1047,-1.1877,-0.6736,-3.2179,0.4129,2.2337,2058
7,-0.1108,-1.0959,-0.6506,-2.903,0.3967,2.4694,2031
7,-0.2319,-1.0967,-0.7151,-2.6389,0.461,2.5228,2065
7,-0.2756,-1.0208,-0.6953,-2.3995,0.5549,2.418,2030
7,-0.2695,-0.7971,-0.6853,-2.1152,0.756,2.323,2049
7,-0.2781,-0.5728,-0.698,-1.823,0.9661,2.1747,2049
7,-0.3787,-0.4412,-0.741,-1.493,1.0559,1.922,2047
7,-0.4744,-0.408,-0.7517,-1.1583,0.9686,1.7203,2041
7,-0.4763,-0.4343,-0.8174,-0.9636,1.0136,1.533,2073
7,-0.4102,-0.4351,-0.7219,-0.5862,0.907,1.1291,2052
7,-0.251,-0.3853,-0.6807,-0.4232,0.6859,0.5457,2007
7,-0.313,-0.3218,-0.615,0.1108,0.4044,-0.0842,2027
7,-0.4275,-0.4021,-0.6274,0.451,0.2519,-0.6201,1920
7,-0.4109,-0.3899,-0.5715,0.7301,-0.0445,-1.1499,2092
7,-0.4575,-0.3569,-0.7173,1.0837,-0.1752,-1.5894,2099
7,-0.4285,-0.5872,-0.7874,1.3925,-0.3341,-1.7961,2063
7,-0.4194,-0.9309,-0.8403,1.6307,-0.6112,-1.8619,2114
7,-0.5039,-1.1323,-0.8459,1.7346,-0.5634,-2.0025,2045
7,-0.708,-1.2405,-0.842,1.7466,-0.4392,-2.2305,2069
7,-0.9558,-1.3398,-0.9519,1.4427,0.024,-2.4806,2050
7,-1.0227,-1.3081,-1.1562,1.2869,0.5268,-2.771,2121
7,-1.0188,-1.3513,-1.29,1.2601,0.781,-2.9521,2098
7,-1.0049,-1.2493,-1.4031,1.2798,0.8797,-3.1718,2101
7,-1.1079,-1.155,-1.2356,1.3213,0.9166,-3.528,1966
7,-1.0291,-1.0764,-1.344,1.358,0.6979,-3.7024,2052
7,-1.167,-1.1091,-1.2974,1.4267,0.9847,-3.8611,2006
7,-1.147,-1.0383,-1.3035,1.7306,0.7395,-3.982,2073
7,-1.0894,-1.0581,-1.3284,1.9214,0.7871,-4.094,2041
7,-0.9902,-1.0115,-1.3721,2.2535,0.6311,-4.0872,2065
7,-0.9614,-0.9468,-1.3108,2.5709,0.5821,-3.9905,2036
7,-0.9255,-0.8467,-1.2957,2.9283,0.3374,-4.0183,2123
7,-0.9878,-0.9192,-1.1606,3.2195,0.4605,-3.6587,2016
7,-0.8784,-0.9219,-1.2178,3.3485,0.4538,-3.4912,2171
7,-0.8708,-0.7852,-1.1052,3.5575,0.3168,-3.4647,2155
7,-0.9097,-0.6912,-1.0342,3.595,0.2437,-3.3415,1938
7,-0.8574,-0.563,-0.9861,3.4499,0.1473,-3.1343,1933
7,-0.7827,-0.479,-0.9924,3.2066,0.0818,-3.0471,2052
7,-0.8821,-0.5959,-0.8105,2.5228,0.2959,-2.9208,1984
7,-0.5583,-0.4104,-0.7668,2.4297,-0.021,-2.9051,2007
7,-0.4358,-0.4365,-0.7441,1.9568,0.2478,-3.036,2013
7,-0.2812,-0.6531,-0.8237,1.3306,0.5801,-3.2072,1987
7,0.0857,-0.2888,-0.8589,0.961,0.49,-3.299,2050
7,0.176,-0.2915,-0.2808,1.4515,0.4614,-3.0814,2060
7,0.0461,-0.7959,-0.5767,1.3343,1.2284,-2.5798,2081
7,1.9999,-0.3679,-0.0884,-0.7215,-0.8842,-4.3635,2510
7,1.9999,-0.1079,-1.3179,2.374,-1.9891,-4.3635,1950
7,0.49,-2.0,1.9999,4.3634,-2.7875,-4.3635,2102
7,-0.78,-2.0,-1.9556,2.9582,4.3236,-4.3635,2132
7,-0.1138,-1.7332,-1.4182,3.1979,2.4172,-0.2595,1824
7,1.5977,-0.5444,-0.6372,2.6067,1.9283,1.4153,2159
7,1.4883,-0.3074,-0.5259,3.0974,-0.0827,2.3418,2016
7,0.9395,-0.0391,-0.3481,3.4509,-0.5651,2.2053,2020
7,0.2188,-0.0442,-0.312,3.9254,-0.2996,2.1023,2151
7,0.3433,-0.2192,-0.2397,3.8181,-0.0634,2.2959,2033
7,0.1982,-0.1313,-0.3596,3.5765,0.4529,2.1429,2001
7,0.262,-0.0166,-0.4573,3.101,0.4125,2.0242,2030
7,0.5537,0.0779,-0.2637,2.5563,0.1072,1.8377,2000
7,0.4326,0.2295,-0.1357,2.3756,-0.1076,1.2971,2016
7,0.1868,0.3242,-0.1494,1.9722,-0.0641,1.0776,2017
7,-0.0564,0.2966,-0.0776,1.7002,0.081,0.8979,2066
7,-0.1777,0.1177,-0.0906,1.2933,0.181,1.0605,2072
7,-0.2986,-0.0908,-0.0286,1.1523,0.6152,1.0551,2064
7,-0.4148,-0.1379,0.0999,1.1094,1.0057,1.1166,2061
7,-0.48,-0.0374,0.1382,1.2424,0.9115,1.1925,2039
7,-0.532,0.0195,0.136,1.3428,0.7131,1.23,2050
7,-0.6226,0.0989,-0.0093,1.5354,0.4329,1.1363,2033
7,-0.6582,-0.0151,-0.0444,1.4677,0.0366,1.3881,2038
7,-0.7993,-0.1143,-0.2485,1.5025,-0.3358,1.6084,2055
7,-0.9783,-0.3274,-0.3479,1.6376,-0.6201,1.5753,2061
7,-1.0996,-0.6548,-0.4136,1.3957,-0.7279,1.7683,2072
7,-1.2896,-0.9341,-0.467,0.973,-0.5066,2.0403,2075
7,-1.5483,-1.1523,-0.5837,0.6538,-0.0663,2.1486,2055
7,-1.7322,-1.2739,-0.7041,0.1654,0.4904,2.2049,2058
7,-1.9407,-1.3855,-0.7769,-0.1344,1.1856,2.3639,2035
8,-2.0,-1.7017,-0.7869,-0.4906,1.9037,2.2743,2038
8,-2.0,-2.0,-0.6914,-0.8524,2.6152,2.0252,2062
8,-1.7822,-2.0,-0.4885,-1.5392,3.2122,1.6711,2045
8,-1.4722,-1.9565,-0.2766,-2.1529,3.3716,1.7564,2050
8,-1.2952,-1.9636,-0.301,-2.5795,3.46,2.0816,2034
8,-1.135,-1.9712,-0.4382,-2.7007,3.362,2.3063,2056
8,-0.8665,-2.0,-0.6372,-2.3151,2.9581,2.6428,2034
8,-0.7183,-2.0,-0.4722,-2.2752,2.5348,2.7537,2060
8,-0.5864,-2.0,-0.0334,-2.5594,2.0776,2.5999,2075
8,-0.4609,-2.0,0.0764,-3.1435,1.884,2.4097,2042
8,-0.2595,-2.0,0.3057,-3.289,1.8536,2.0995,2031
8,0.0488,-2.0,0.8733,-3.2412,1.5182,1.8195,2011
8,0.3237,-2.0,0.7031,-3.8081,0.2337,1.7704,2009
8,0.2053,-2.0,0.5093,-3.9709,-0.5398,1.5639,2006
8,-0.1077,-2.0,0.3193,-4.3635,-0.9609,1.666,2022
8,-0.3816,-2.0,-0.0474,-4.3635,-1.3268,1.6807,2049
8,-0.4954,-2.0,-0.2854,-4.3635,-1.3973,1.5692,2051
8,-0.4744,-1.9771,-0.3831,-4.3635,-1.5422,1.5261,2053
8,-0.2366,-1.8376,-0.4475,-4.3635,-1.6205,1.656,2073
8,-0.145,-1.6204,-0.5452,-4.3635,-1.448,1.7527,2046
8,-0.0742,-1.437,-0.4773,-4.3635,-1.093,1.5872,2020
8,-0.0903,-1.2751,-0.603,-4.3635,-0.9756,1.5531,2036
8,-0.238,-1.2117,-0.7102,-4.3635,-0.5932,1.5948,2030
8,-0.3132,-1.1147,-0.6343,-4.3137,-0.9208,1.8849,2049
8,-0.2761,-1.0398,-0.6611,-4.3349,-0.8325,2.1157,2043
8,-0.251,-0.9768,-0.8191,-4.1414,-0.5687,2.2427,2062
8,-0.303,-1.0391,-0.7756,-3.9013,-0.22,2.3796,2065
8,-0.3081,-0.9875,-0.6431,-3.7323,0.1218,2.4721,2021
8,-0.177,-0.7837,-0.502,-3.7705,0.4549,2.5,2051
8,-0.0879,-0.6492,-0.6028,-3.4854,0.8166,2.4494,2044
8,-0.0359,-0.5317,-0.6794,-3.4091,1.1039,2.2518,2076
8,-0.0344,-0.4194,-0.814,-3.0662,1.1094,2.1787,2049
8,-0.2756,-0.3188,-0.8633,-2.6143,1.2384,1.9965,2042
8,-0.4294,-0.3516,-0.873,-2.131,1.2386,1.7833,2096
8,-0.459,-0.3481,-0.6855,-1.5426,1.0292,1.4792,2046
8,-0.3403,-0.2629,-0.7905,-1.3671,0.8331,1.1283,2055
8,-0.426,-0.2024,-0.6914,-0.861,0.7055,0.6173,2050
8,-0.5371,-0.1719,-0.636,-0.3963,0.5931,0.1405,1978
8,-0.4353,-0.2625,-0.5259,0.0767,0.0518,-0.4163,2076
8,-0.4153,-0.3652,-0.5708,0.7813,0.0113,-1.001,2027
8,-0.4844,-0.625,-0.6626,1.1981,-0.1316,-1.4567,2088
8,-0.4973,-0.8008,-0.676,1.6885,-0.2614,-1.7,2037
8,-0.448,-0.9402,-0.7446,1.9243,-0.3839,-1.9511,2056
8,-0.5447,-1.0044,-0.8398,2.1242,-0.3173,-2.2116,2117
8,-0.6814,-1.0557,-0.9004,2.2067,-0.3437,-2.4123,2041
8,-0.8013,-1.1411,-1.011,2.2522,-0.1726,-2.6353,1988
8,-0.8987,-1.1536,-1.1968,2.2344,-0.071,-2.8003,2062
8,-0.9504,-1.2288,-1.2688,2.2482,0.0119,-2.9865,1991
8,-0.9771,-1.2771,-1.2468,2.2595,0.0032,-3.2377,1989
8,-1.1484,-1.3425,-1.2864,2.2437,-0.032,-3.5625,2029
8,-1.2463,-1.3584,-1.3689,2.0941,0.0386,-3.7825,1977
8,-1.1714,-1.2068,-1.3955,2.1371,-0.0555,-3.9823,2130
8,-1.175,-1.0996,-1.4204,2.4097,-0.3392,-4.1615,2063
8,-1.2866,-1.2903,-1.5085,2.3253,-0.0233,-4.176,2005
8,-1.085,-1.0598,-1.5671,2.5734,-0.0361,-4.1698,2041
8,-1.1208,-0.9846,-1.572,2.9335,-0.0021,-4.098,1982
8,-1.1482,-1.033,-1.5393,3.3407,0.1031,-4.0363,2006
8,-1.0396,-1.0496,-1.5217,3.4999,0.1748,-3.8669,1991
8,-0.9429,-1.0015,-1.405,3.6463,0.2226,-3.7524,1894
8,-0.9514,-0.9294,-1.2627,3.6367,0.2605,-3.6107,1952
8,-0.9192,-0.7036,-1.2837,3.5181,0.1535,-3.32,1984
8,-0.6936,-0.4153,-1.2849,3.3062,0.0525,-3.299,2061
8,-0.8247,-0.3901,-1.1147,2.8434,0.2959,-3.0919,2064
8,-0.7449,-0.2983,-0.9705,2.3647,0.4923,-2.8963,1983
8,-0.7036,-0.2974,-0.7524,1.6902,0.6805,-2.8067,2017
8,-0.4497,-0.2395,-0.8306,1.2396,0.771,-3.0237,2111
8,-0.6321,-0.3276,-0.7856,0.6128,1.0231,-2.4238,2071
8,-0.0461,-0.2546,-0.2715,0.3651,0.4473,-1.6904,2076
8,0.4192,-0.0508,-0.4827,0.0635,0.5462,-2.3562,2088
8,1.9999,0.8262,0.0996,-0.2294,-1.7599,-3.2582,2122
8,1.9999,0.7332,1.5439,2.9446,-3.0545,-4.3635,2385
8,-2.0,-1.8997,-0.6865,1.5849,-0.1421,-3.9739,1180
8,1.9999,-2.0,0.3633,3.1734,1.0344,-4.3635,2608
8,0.2002,-1.7363,-1.0891,2.9693,3.9988,-2.9144,1845
8,1.6931,-1.4917,-0.387,3.446,2.1326,-1.0375,2013
8,1.6633,-0.5461,-0.6851,3.6483,2.1117,0.3718,1997
8,0.7317,-0.1021,-0.6169,3.8571,1.3916,1.6006,1961
8,0.4294,0.0115,-0.4592,4.0952,1.289,2.2001,1974
8,0.4111,-0.0903,-0.2888,4.0988,0.9628,2.3631,2122
8,0.1814,-0.1333,-0.2981,4.0359,0.9032,2.6441,1917
8,0.0774,-0.2144,-0.1567,4.2084,0.646,2.3784,1944
8,0.0422,-0.1379,-0.1213,3.8717,0.6325,2.4147,2050
8,0.1328,-0.0664,-0.0471,3.4959,0.3999,2.0028,2100
8,-0.0088,0.0869,-0.0073,2.8831,0.4474,1.4932,2044
8,-0.2781,0.2515,-0.0017,2.1699,0.6208,1.2977,2056
8,-0.6062,0.3254,0.1211,1.8373,0.8082,1.1146,2038
8,-0.3794,0.2449,0.2673,1.4027,1.0112,1.1026,2055
8,-0.2622,0.1558,0.2812,1.0614,1.1022,0.9616,2062
8,-0.137,0.094,0.2112,1.0977,0.9825,0.5739,2055
8,-0.0635,0.0273,0.1001,1.1449,0.6299,0.2719,2036
8,-0.0344,0.0127,-0.0498,1.1794,0.1655,0.1111,2045
8,-0.3391,0.1067,-0.1802,1.1682,0.076,0.0619,2031
8,-0.6836,0.1646,-0.3748,1.2059,-0.0533,0.3789,2028
8,-0.9475,0.1533,-0.4717,1.1511,-0.4091,0.9172,2071
8,-1.1045,0.0339,-0.5801,1.3364,-0.2228,1.3477,2082
8,-1.4146,-0.366,-0.5354,1.1119,0.2261,1.6856,2070
8,-1.7485,-0.8782,-0.5977,0.7167,0.8814,2.0454,2074
8,-1.9224,-1.4128,-0.7139,0.1041,1.3197,2.2216,2076
8,-1.8918,-1.6602,-0.6279,-0.147,1.5265,2.2842,2046
8,-1.8035,-1.9419,-0.4131,-0.7919,2.0033,1.9489,1957
8,-1.5488,-2.0,-0.4399,-1.336,2.2278,2.0144,2030
9,-1.4209,-1.906,-0.6101,-1.8129,2.4013,2.0297,2075
9,-1.3303,-1.8174,-0.7732,-1.7443,2.6298,2.22,2038
9,-1.3606,-1.8628,-0.6938,-1.6277,2.7667,2.4703,2030
9,-1.4778,-2.0,-0.4927,-2.1526,2.7711,2.4551,2015
9,-1.3682,-2.0,-1.011,-2.7139,2.0386,2.0919,2099
9,-1.0876,-2.0,-1.05,-2.8209,1.5407,1.8671,2118
9,-0.3867,-2.0,-0.4043,-2.165,0.4034,1.8215,2054
9,-0.3538,-2.0,0.0422,-2.7542,1.3466,2.0462,1996
9,-0.8181,-2.0,0.1931,-3.442,1.6993,2.3005,1984
9,-0.3376,-2.0,0.4011,-3.4005,0.286,2.1327,2037
9,0.0459,-2.0,0.3208,-4.1499,0.1968,1.8366,2043
9,-0.0325,-2.0,0.1211,-4.2851,-0.2848,1.7535,2032
9,-0.1804,-2.0,-0.0024,-4.3635,-0.5745,1.6679,2065
9,-0.0808,-2.0,-0.051,-4.3635,-0.6976,1.6771,2054
9,-0.0703,-2.0,-0.2078,-4.3635,-0.8127,1.7143,2029
9,-0.0359,-2.0,-0.3584,-4.3635,-0.9349,1.8536,2023
9,-0.0273,-1.7976,-0.4619,-4.3635,-0.9291,2.0141,2032
9,-0.1025,-1.5535,-0.5173,-4.3635,-0.8536,2.1786,2043
9,-0.1702,-1.4043,-0.5212,-4.2863,-0.789,2.3654,2044
9,-0.2471,-1.2966,-0.5781,-4.2584,-0.3505,2.4578,2038
9,-0.3979,-1.0945,-0.5054,-3.8876,-0.1381,2.5083,2060
9,-0.281,-1.0303,-0.4553,-3.7167,-0.1671,2.5298,2059
9,-0.166,-1.0791,-0.5908,-3.7374,-0.0561,2.3214,2051
9,-0.1792,-1.1201,-0.6973,-3.7105,0.1441,2.0582,2047
9,-0.2493,-1.1631,-0.636,-3.53,0.1009,1.843,2050
9,-0.3223,-1.1089,-0.5005,-3.2842,0.0501,1.721,2056
9,-0.3059,-1.1282,-0.3542,-3.0178,0.2542,1.8781,2044
9,-0.3606,-1.144,-0.4111,-3.1238,0.5018,1.7016,2057
9,-0.355,-1.0503,-0.5581,-3.0801,0.5791,1.4865,2082
9,-0.2429,-0.9238,-0.6111,-2.79,0.5408,1.3692,2043
9,-0.2422,-0.7571,-0.7776,-2.6982,0.4916,1.27,2024
9,-0.4104,-0.7163,-0.7822,-2.2541,0.3974,1.0565,2063
9,-0.4822,-0.7861,-0.7444,-2.0318,0.5501,1.0419,2075
9,-0.446,-0.7976,-0.7219,-1.8618,0.7886,0.9653,2111
9,-0.3374,-0.6985,-0.7031,-1.4925,0.7942,0.6996,2058
9,-0.343,-0.6223,-0.6914,-1.1966,0.8228,0.4089,2032
9,-0.3584,-0.635,-0.8435,-0.9393,0.6512,0.0411,1951
9,-0.4248,-0.6191,-0.9163,-0.4635,0.4771,-0.2882,2015
9,-0.4727,-0.5725,-0.9373,-0.0173,0.3163,-0.4659,2037
9,-0.5803,-0.5537,-0.8501,0.2515,0.202,-0.6357,2058
9,-0.6345,-0.5671,-0.7056,0.5735,0.2899,-0.8914,2069
9,-0.606,-0.5891,-0.8303,0.4984,0.5011,-1.1621,2085
9,-0.5876,-0.6169,-0.8396,0.8019,0.3432,-1.3559,2140
9,-0.6167,-0.6877,-0.9282,1.142,0.0654,-1.4756,2000
9,-0.6765,-0.8137,-0.9854,1.3916,-0.1506,-1.7167,1926
9,-0.8254,-0.9265,-1.0042,1.6588,-0.3698,-2.0314,2060
9,-0.9128,-0.9248,-0.9976,1.8395,-0.2631,-2.2799,2049
9,-1.0535,-0.9473,-1.0698,2.0857,-0.1673,-2.6228,1947
9,-1.1174,-1.0129,-1.1321,2.2605,-0.118,-2.8596,2067
9,-1.1672,-1.0247,-1.1499,2.4009,-0.3104,-3.1678,2025
9,-1.2227,-1.0337,-1.1479,2.3617,-0.53,-3.4465,1975
9,-1.2644,-1.0532,-1.2588,2.5111,-0.6648,-3.6145,2218
9,-1.2939,-1.0991,-1.3223,2.6342,-0.6939,-3.7912,1896
9,-1.2234,-1.1416,-1.3977,2.7332,-0.6553,-3.8233,2150
9,-1.1499,-1.0381,-1.5037,2.8321,-0.6389,-3.8444,2140
9,-1.1194,-0.916,-1.4546,3.0513,-0.7078,-3.7427,2105
9,-1.0305,-0.8264,-1.45,3.2532,-0.6984,-3.6984,2239
9,-0.9675,-0.7734,-1.4438,3.4647,-0.7448,-3.5809,2123
9,-0.897,-0.7163,-1.3972,3.6259,-0.8367,-3.4041,2021
9,-0.8813,-0.6523,-1.2842,3.6391,-0.9624,-3.2843,2026
9,-0.8315,-0.5186,-1.2129,3.4576,-0.9171,-3.1826,2105
9,-0.7532,-0.4797,-1.1968,3.1178,-0.7486,-3.1656,2067
9,-0.6223,-0.4062,-1.158,2.754,-0.5715,-3.1668,1991
9,-0.5317,-0.3169,-1.0183,2.4986,-0.4144,-3.1704,1978
9,-0.2566,-0.5566,-1.2314,1.6764,0.0385,-3.3488,2024
9,-0.2822,-0.2498,-1.1909,1.168,0.6263,-3.4631,2059
9,0.1001,0.0676,-0.6228,1.2824,0.3605,-3.2215,2119
9,-0.0098,-0.2192,-0.4211,1.4822,0.4709,-3.275,2054
9,-0.1943,-0.6899,-0.782,0.6509,1.2027,-3.163,2032
9,0.3127,-0.5757,-0.645,0.1971,1.3431,-2.9347,2076
9,1.9999,0.3313,-0.2402,-0.0357,-0.2149,-3.5366,2080
9,1.9999,0.4287,1.3667,4.3634,-2.6417,-4.3635,1991
9,-2.0,-2.0,-0.6714,1.4142,1.8298,-3.6829,1502
9,1.9999,-2.0,0.9678,4.2845,-1.3952,-3.3276,2574
9,0.0,-1.3838,-0.9551,3.6693,2.8219,-3.5729,1878
9,0.3137,-1.2886,0.0066,3.6536,1.6271,-1.5996,1801
9,1.4346,-0.3833,-0.0403,4.0142,2.3625,-0.7299,1934
9,0.6636,0.3018,-0.4707,4.2012,1.6958,0.5799,1963
9,0.3064,0.2285,-0.6062,3.9712,0.6846,1.8178,2138
9,0.4258,-0.0603,-0.668,3.6312,0.29,2.0326,1924
9,0.4778,-0.1277,-0.3191,3.4018,0.1807,2.3081,2080
9,0.3408,-0.2395,-0.187,3.4347,0.2476,2.2225,2022
9,0.2551,-0.3196,-0.1948,3.2762,0.5008,2.1525,2048
9,0.2976,-0.3425,-0.1409,2.9669,0.6723,2.1003,2066
9,0.2322,-0.2458,-0.0479,2.6109,0.8167,1.5535,2047
9,0.0989,-0.1587,-0.0637,2.1121,0.6906,1.3025,2041
9,-0.1987,-0.1335,-0.2712,1.3479,0.6794,0.9195,2028
9,-0.2908,0.0083,-0.219,0.6616,1.0692,0.8859,2050
9,-0.3474,0.1775,-0.0581,0.5574,1.4747,0.8348,2082
9,-0.3137,0.2612,0.1465,0.4971,1.7167,0.7,2056
9,-0.1743,0.1792,0.2,0.6602,1.4876,0.337,2066
9,-0.0483,-0.0264,0.1973,0.6444,0.7265,0.0427,2058
9,-0.2336,-0.127,-0.0442,0.3697,0.1266,0.0397,2050
9,-0.5144,-0.0479,-0.2903,0.2015,-0.1024,0.2325,2005
9,-0.6379,0.0239,-0.3135,0.2482,-0.2116,0.503,2049
9,-0.7827,0.1477,-0.2549,0.6148,-0.6425,0.7694,2053
9,-0.8682,0.1128,-0.1577,1.0094,-1.1488,1.0548,2069
9,-1.261,-0.1997,-0.3662,0.98,-1.0598,1.496,2062
9,-1.9297,-0.7573,-0.5906,0.8388,-0.3358,1.9856,2099
9,-2.0,-1.2,-0.7261,0.698,0.4111,2.1381,2081
9,-2.0,-1.5637,-0.7441,0.2944,1.8959,2.4768,2064
9,-2.0,-1.8745,-0.6526,-0.3919,2.6878,2.4667,2057
9,-1.9524,-2.0,-0.4451,-0.9397,2.8994,2.7512,2046
9,-1.4038,-2.0,-0.3469,-1.5004,3.4974,2.9187,2032
10,-1.2935,-2.0,-0.3406,-2.0576,3.9596,3.0241,2024
10,-1.3342,-1.8979,-0.4954,-2.4471,3.9048,2.7783,1983
10,-1.4019,-1.8342,-0.6018,-2.4376,3.5334,2.6842,2058
10,-1.2637,-1.9153,-0.6968,-2.5336,2.8678,2.5121,2067
10,-0.9185,-2.0,-0.7632,-2.865,2.1521,2.3767,2067
10,-0.6299,-2.0,-0.6646,-3.1259,1.2653,2.2217,2075
10,-0.4727,-2.0,-0.2603,-3.4268,1.0818,2.1559,2060
10,-0.5469,-2.0,-0.064,-3.4989,0.7791,2.3136,2025
10,-0.5605,-2.0,-0.0112,-3.8174,0.4727,2.3416,2016
10,-0.248,-2.0,0.1162,-3.7805,0.2687,2.265,2039
10,-0.0349,-2.0,0.1799,-4.0025,0.0629,2.0066,2018
10,0.0317,-2.0,0.0815,-4.1877,-0.2633,1.6908,2031
10,-0.0256,-2.0,0.0093,-4.2049,-0.3871,1.3089,2031
10,0.0,-2.0,0.0437,-4.2788,-0.4007,1.2383,2036
10,-0.1323,-2.0,-0.2256,-4.3635,-0.4841,1.4251,2057
10,-0.2161,-2.0,-0.3015,-4.3635,-0.7927,1.537,2037
10,-0.2661,-1.8914,-0.3523,-4.3635,-0.9401,1.6668,2023
10,-0.2512,-1.7998,-0.345,-4.3603,-1.0427,1.585,2049
10,-0.1973,-1.707,-0.3916,-4.2108,-0.9456,1.5675,2037
10,-0.1667,-1.625,-0.3105,-4.2001,-0.6023,1.5973,2043
10,-0.2063,-1.4839,-0.4448,-4.0841,-0.4574,1.4625,2056
10,-0.2209,-1.3076,-0.5933,-3.9619,-0.5301,1.1541,2066
10,-0.1313,-1.186,-0.6523,-3.693,-0.6172,1.1901,2047
10,-0.1641,-1.1123,-0.6897,-3.4156,-0.7082,1.1959,2065
10,-0.2197,-1.0361,-0.7561,-3.2481,-0.6775,1.222,2015
10,-0.3882,-1.0889,-0.7954,-3.1247,-0.5485,1.4527,2057
10,-0.4233,-1.033,-0.7354,-2.9339,-0.1245,1.4375,2054
10,-0.3682,-0.7917,-0.6509,-2.7839,0.5007,1.3661,2053
10,-0.292,-0.5552,-0.6321,-2.6509,0.767,1.3677,2011
10,-0.2234,-0.4709,-0.6553,-2.3254,0.9248,1.2517,2059
10,-0.1951,-0.46,-0.6885,-1.8797,0.9491,1.0102,2074
10,-0.1621,-0.4561,-0.7544,-1.5175,0.7927,0.7317,2043
10,-0.2686,-0.4043,-0.8232,-1.1235,0.5533,0.5245,2001
10,-0.3577,-0.3943,-0.7786,-0.7518,0.4706,0.4932,2060
10,-0.5134,-0.4397,-0.7844,-0.4986,0.45,0.3445,2070
10,-0.6182,-0.5693,-0.738,-0.3203,0.534,0.0863,2019
10,-0.6562,-0.7197,-0.7537,0.0425,0.243,-0.3735,1926
10,-0.6445,-0.9324,-0.7139,0.1457,0.2498,-0.6847,2062
10,-0.6411,-0.9167,-0.6924,0.2986,0.128,-0.9413,2121
10,-0.6907,-0.9331,-0.6814,0.4719,0.2693,-0.9946,2074
10,-0.687,-0.9573,-0.7534,0.6661,0.1846,-1.0666,2098
10,-0.6692,-1.0461,-0.731,0.9819,0.1085,-1.1083,2068
10,-0.6562,-1.1243,-0.8611,1.2207,0.085,-1.1778,2043
10,-0.6545,-1.1887,-0.9954,1.3794,-0.0314,-1.2475,2096
10,-0.7478,-1.2009,-1.1912,1.4676,-0.061,-1.5376,2048
10,-0.8518,-1.1294,-1.2275,1.7234,-0.2016,-1.7944,2033
10,-0.8879,-1.1389,-1.2393,1.8329,-0.2228,-2.0658,2038
10,-0.9868,-1.1599,-1.2332,1.9538,-0.0338,-2.4412,1858
10,-1.0237,-1.1792,-1.2593,2.0564,0.0774,-2.7605,2160
10,-1.0049,-0.937,-1.4707,2.1096,0.3253,-3.1074,2021
10,-1.0073,-0.7407,-1.4148,2.4695,0.2297,-3.2808,1929
10,-0.9434,-0.8472,-1.5708,2.3682,0.0411,-3.6246,2157
10,-0.9426,-0.7659,-1.4624,2.7123,-0.1844,-3.9339,2021
10,-0.9541,-0.7341,-1.3809,2.8252,-0.3972,-4.1117,2040
10,-1.0916,-0.8425,-1.3906,3.0947,-0.3353,-4.2418,1992
10,-1.1404,-0.7507,-1.3496,3.2102,-0.3559,-4.2078,2117
10,-1.2092,-0.7642,-1.4194,3.2022,-0.2693,-3.9968,2091
10,-1.2749,-0.678,-1.3501,3.0813,-0.1784,-3.6446,2015
10,-0.9458,-0.4893,-1.0974,2.8212,-0.3637,-3.6631,1991
10,-0.9502,-0.6277,-1.1631,2.3587,-0.4919,-3.8792,2090
10,-0.9238,-0.6521,-1.146,1.9114,-0.5137,-3.7589,2107
10,-0.7795,-0.3589,-1.0569,1.5633,-0.4268,-3.741,2192
10,-0.6953,-0.2366,-0.8962,1.1437,-0.4253,-3.6298,2001
10,-0.9939,-0.0422,-0.6968,0.8873,-0.1485,-2.8276,2033
10,-0.2861,0.1453,-0.0713,1.1796,-0.8146,-1.8441,2030
10,-0.2,0.0034,-0.574,0.9862,-0.6453,-2.5368,2063
10,-0.0173,-0.1702,-0.4414,0.6681,-0.3093,-2.9199,2041
10,0.4924,-0.2419,-0.2104,0.8485,-0.0718,-3.0939,2042
10,1.9999,0.0396,-0.856,-0.5321,-1.9485,-3.3838,2237
10,1.9999,0.7461,1.9999,3.8286,-4.3635,-4.3635,1775
10,-2.0,-2.0,-1.0769,1.4535,-0.0274,-2.7797,1804
10,1.9999,-2.0,-0.2185,3.1084,0.4398,-4.3635,2466
10,-0.3691,-1.6394,-1.6963,3.2524,3.3489,-2.8882,1911
10,0.9617,-1.4631,-0.7893,2.7771,2.4782,-0.5612,2004
10,1.5962,-0.2896,-0.5061,3.3122,1.6619,0.7078,1895
10,1.0012,0.1458,-0.4065,3.6796,0.932,1.538,2015
10,0.4775,-0.1382,-0.5549,3.6106,0.7461,2.1105,2209
10,0.2476,-0.1704,-0.6738,3.7315,0.8174,2.0658,2002
10,0.1292,-0.1453,-0.5139,3.7641,1.1923,1.9305,2066
10,-0.0261,-0.1462,-0.5278,3.7286,1.3376,1.6414,2080
10,0.3127,-0.2412,-0.3682,3.0907,1.0898,1.7519,2014
10,0.0508,-0.1685,-0.27,2.8034,1.3937,1.0543,2004
10,0.0576,0.0298,0.1033,2.5077,1.4472,0.9493,2026
10,-0.1833,0.1997,0.1582,1.9868,1.5149,0.6863,1981
10,-0.4639,0.2332,0.0933,1.2059,1.4561,0.6815,2065
10,-0.4478,0.2747,0.2075,0.7377,1.4748,0.5484,2078
10,-0.3669,0.3335,0.2693,0.6152,1.4765,0.2879,2081
10,-0.2283,0.2654,0.2693,0.3619,1.2003,-0.0069,2070
10,-0.2827,0.241,0.0259,0.3188,0.8313,-0.555,2039
10,-0.3621,0.189,-0.1294,0.3512,0.4362,-0.7252,2029
10,-0.5159,0.1936,-0.2803,0.4393,0.0782,-0.4281,2035
10,-0.6567,0.3108,-0.2874,0.6327,-0.377,0.0523,2035
10,-0.8887,0.2979,-0.3665,0.8368,-0.9303,0.6104,2067
10,-1.186,0.04,-0.4241,1.0914,-1.0925,0.9027,2064
10,-1.5564,-0.5032,-0.5276,1.1922,-0.4611,1.6085,2063
10,-1.9111,-1.0681,-0.6062,1.1207,0.1748,2.1204,2067
10,-2.0,-1.5449,-0.6057,0.9701,0.4478,2.4337,2073
10,-2.0,-2.0,-0.5667,0.5155,0.9997,2.6432,2054
10,-2.0,-2.0,-0.4871,-0.2017,1.6072,2.5107,2041
10,-1.8228,-2.0,-0.5754,-0.9476,2.1571,2.3205,2047
10,-1.4607,-2.0,-0.564,-1.3252,2.9496,2.3221,2068
11,-1.3513,-2.0,-0.541,-1.4676,3.674,2.599,2016
11,-1.3589,-2.0,-0.2849,-2.4217,3.5925,2.8542,2012
11,-1.0325,-2.0,-0.7334,-2.6822,2.751,3.2991,2036
11,-1.2795,-1.9065,-1.2605,-1.5816,2.1205,3.1706,2011
11,-0.8618,-1.7725,-0.6353,-1.429,1.7813,3.2883,2047
11,-0.9058,-2.0,-0.4131,-1.6008,2.0036,3.0729,2036
11,-0.9863,-2.0,-0.1951,-2.0877,2.3964,3.0383,2012
11,-1.0615,-2.0,-0.2319,-2.7377,2.3775,3.1353,2053
11,-0.5391,-2.0,-0.063,-2.6526,1.5109,3.0685,2055
11,-0.2844,-2.0,0.0435,-3.0257,1.4217,2.7265,2025
11,-0.293,-2.0,-0.0613,-3.5659,1.0059,2.5453,2022
11,-0.3062,-2.0,0.1506,-3.7781,0.0603,2.3642,2008
11,-0.1318,-2.0,0.1643,-4.2771,-0.4814,2.0817,2036
11,0.103,-2.0,0.1169,-4.3635,-0.94,1.7194,2061
11,0.0874,-2.0,0.1003,-4.3635,-1.2837,1.4282,2032
11,0.083,-1.9624,-0.0891,-4.3635,-1.7851,1.2122,2003
11,0.0139,-1.8826,-0.4233,-4.3635,-1.7618,1.1455,2026
11,-0.1277,-1.7756,-0.6399,-4.3635,-1.5713,1.1593,2028
11,-0.2393,-1.6836,-0.7644,-4.3635,-1.334,1.1392,2037
11,-0.271,-1.5547,-0.7856,-4.3635,-1.2749,1.0953,2050
11,-0.2471,-1.4448,-0.7268,-4.3635,-1.061,1.0092,2048
11,-0.1406,-1.3513,-0.7217,-4.3635,-0.7766,1.2082,2050
11,-0.116,-1.2234,-0.7256,-4.3635,-0.5305,1.1669,2042
11,-0.0291,-1.1035,-0.6963,-4.1488,-0.3023,1.26,2051
11,-0.0798,-0.9702,-0.6733,-3.8583,-0.0842,1.2165,2069
11,-0.1201,-0.8801,-0.7241,-3.6178,0.1804,1.2218,2049
11,-0.1741,-0.8384,-0.8157,-3.4176,0.45,1.2338,2022
11,-0.1917,-0.7524,-0.7976,-3.4045,0.6169,1.3893,2025
11,-0.2393,-0.5195,-0.7996,-3.1363,0.5462,1.7486,2039
11,-0.2256,-0.5935,-0.6187,-2.7774,0.4165,1.5982,2038
11,-0.2534,-0.4272,-0.5559,-2.5047,0.9078,1.6049,2061
11,-0.3596,-0.3674,-0.5874,-2.3807,0.8842,1.5908,2054
11,-0.3308,-0.3831,-0.5957,-1.9433,1.0272,1.4334,2056
11,-0.3521,-0.3459,-0.6306,-1.572,1.1114,1.1191,2020
11,-0.3025,-0.3123,-0.6799,-1.1147,0.9718,0.7716,2007
11,-0.3054,-0.2942,-0.8508,-0.7975,0.9014,0.369,2019
11,-0.4045,-0.2317,-0.825,-0.4573,0.5275,-0.0357,2016
11,-0.5107,-0.1499,-0.7502,-0.1177,0.2947,-0.2991,2058
11,-0.573,-0.1619,-0.5598,0.2655,0.1731,-0.6035,2066
11,-0.4529,-0.2883,-0.5588,0.6135,0.0566,-0.9642,2132
11,-0.4968,-0.4829,-0.6902,1.1917,-0.0463,-1.2175,2072
11,-0.4302,-0.7251,-0.7695,1.5384,-0.3047,-1.2607,2100
11,-0.5256,-0.9722,-0.8789,1.6759,-0.4538,-1.4166,2054
11,-0.6096,-1.0908,-0.918,1.7387,-0.5397,-1.5837,2047
11,-0.6931,-1.1318,-0.9761,1.7634,-0.4067,-1.7938,1997
11,-0.8025,-1.2178,-1.0767,1.7725,-0.2374,-2.0221,2104
11,-0.8994,-1.2273,-1.2729,1.8144,-0.2333,-2.1604,2089
11,-0.9668,-1.166,-1.3074,1.9531,-0.1859,-2.326,2002
11,-1.0999,-1.2925,-1.3345,1.8736,-0.1285,-2.5328,2022
11,-1.1926,-1.2402,-1.2373,1.9092,-0.1618,-2.9343,2064
11,-1.2856,-1.1387,-1.3398,1.8813,-0.0344,-3.197,2066
11,-1.2217,-1.1421,-1.4204,1.8647,-0.0996,-3.4684,2029
11,-1.1306,-1.05,-1.4299,1.9153,-0.1012,-3.7222,2068
11,-1.0559,-1.0222,-1.4238,2.0712,-0.3971,-3.8776,2041
11,-1.1489,-0.7139,-1.5134,2.2394,-0.0823,-3.9056,2100
11,-1.1384,-0.7788,-1.2827,2.6747,-0.4373,-3.7765,2141
11,-1.1082,-0.9346,-1.3611,2.9436,-0.2615,-3.7837,2027
11,-1.0876,-0.8486,-1.2358,3.2762,-0.3959,-3.7354,2044
11,-1.0466,-0.7458,-1.187,3.477,-0.4215,-3.7046,1963
11,-1.0239,-0.6602,-1.2854,3.4276,-0.4207,-3.5571,2003
11,-0.8965,-0.5447,-1.146,3.3931,-0.4176,-3.3907,2046
11,-0.7395,-0.532,-1.0415,3.2368,-0.3848,-3.2064,1939
11,-0.7192,-0.5122,-1.1572,2.9781,-0.2177,-3.173,1992
11,-0.5591,-0.2219,-0.9927,2.7285,-0.0222,-3.1887,1967
11,-0.2837,-0.1348,-0.9778,2.392,0.243,-3.532,2061
11,-0.157,-0.2825,-1.064,1.9249,0.4821,-3.6733,2076
11,0.0122,-0.2517,-1.0532,1.608,0.7327,-3.7862,1989
11,-0.4409,-0.5312,-0.5488,1.5301,0.9843,-2.8361,2036
11,0.1523,-0.8135,-0.7297,1.2075,0.9251,-2.4152,2079
11,0.0879,-0.3735,-0.7766,0.8809,1.1587,-2.9389,2055
11,1.9999,0.3616,-0.053,-0.0731,-1.9738,-4.3635,2575
11,-1.0889,1.1907,-1.0007,1.5581,0.1345,-4.3635,1792
11,0.3298,-2.0,0.1511,2.7409,-4.3635,-0.5896,2107
11,-0.3704,-2.0,-1.7358,2.3431,4.3634,-2.9821,2251
11,-0.2598,-1.0798,-0.979,2.1734,1.3122,0.191,1825
11,1.4534,-0.28,-0.3132,3.4007,1.9337,0.9416,2032
11,0.5833,-0.1602,-0.4172,3.5463,0.6785,2.1186,1920
11,0.6282,-0.2881,-0.3381,3.7848,0.1602,3.0423,2065
11,0.4014,-0.4797,-0.6553,3.573,-0.0413,3.112,2114
11,0.2637,-0.2903,-0.4062,3.4364,-0.4635,2.8948,2114
11,0.2371,-0.2632,-0.1926,3.4882,-0.3781,2.3409,2019
11,0.3257,-0.2769,-0.134,3.1488,-0.1728,1.907,2017
11,0.3374,-0.2451,-0.1057,2.8837,0.0107,1.2985,1974
11,0.1445,-0.1375,-0.207,2.3473,0.4421,0.8369,1935
11,0.1221,0.0737,0.0315,1.6669,0.6689,0.4819,2049
11,0.1108,0.2188,0.0935,1.2023,0.7803,0.4125,2049
11,0.009,0.2534,0.0859,0.8705,0.8392,0.2521,2042
11,0.0774,0.1875,0.2366,0.5793,0.9186,0.1471,2081
11,-0.0095,0.0769,0.1128,0.5124,0.8235,-0.0161,2071
11,0.0178,-0.0039,-0.0469,0.4433,0.7423,-0.291,2048
11,-0.0808,0.0293,-0.1887,0.3719,0.4818,-0.1878,2032
11,-0.386,0.2488,-0.3125,0.5028,0.5055,-0.3179,2028
11,-0.5574,0.3398,-0.3113,0.6789,0.5196,-0.0935,2049
11,-0.6506,0.3347,-0.3108,0.8143,0.2304,0.2309,2074
11,-0.7146,0.2871,-0.4216,1.2262,-0.0364,0.3661,2053
11,-0.8721,0.0212,-0.6113,1.3973,-0.3465,0.6476,2055
11,-1.1731,-0.5408,-0.7258,1.3372,-0.7114,1.2443,2067
11,-1.4421,-1.0435,-0.9402,1.0343,-0.5662,1.8331,2066
11,-1.9473,-1.5515,-1.0154,0.7917,-0.074,2.2535,2077
11,-2.0,-2.0,-0.6057,0.4275,0.2673,2.4571,2023
11,-2.0,-2.0,-0.3799,-0.759,1.4268,2.0414,2043
11,-2.0,-2.0,-0.3411,-1.9607,2.7911,2.5437,2069
11,-1.4099,-2.0,-0.4517,-2.5285,3.3006,2.7679,2070
11,-0.8376,-2.0,-0.3647,-2.5938,3.22,2.6593,2015
11,-0.8032,-2.0,-0.4424,-2.7116,2.8492,2.6149,2017
12,-1.0486,-2.0,-0.4314,-3.3938,2.1326,2.8457,2010
12,-1.877,-2.0,-1.0369,-3.4734,2.276,2.6986,2027
12,-1.0793,-1.7478,-0.4751,-3.6013,2.3322,3.0006,2037
12,-1.5342,-1.877,-1.1086,-4.1985,2.6928,3.0736,2020
12,-0.9453,-1.8413,-0.6406,-3.2014,2.5722,3.2271,2027
12,-0.636,-2.0,-0.4177,-4.0958,2.6645,2.8885,2057
12,-0.499,-1.8875,0.1387,-4.3635,0.9808,3.003,2126
12,0.0518,-1.573,0.6023,-3.1556,0.2155,2.6295,2014
12,0.0591,-1.7004,0.5132,-2.7462,-0.2446,2.2201,1984
12,-0.4573,-2.0,-0.7209,-4.2265,-0.543,2.123,2043
12,-0.6995,-2.0,-0.937,-3.8157,-1.5265,2.3831,2057
12,-1.0171,-1.9558,-0.7053,-4.1294,-1.9527,2.0196,2042
12,-0.7998,-1.8713,-0.6738,-4.3635,-1.3724,1.8755,2084
12,-0.438,-1.7893,-0.8459,-4.3559,-0.5544,1.5633,2057
12,-0.2427,-1.6021,-0.9004,-4.2378,-0.0237,1.3918,2004
12,-0.2263,-1.2656,-0.7385,-3.7394,-0.1704,1.4996,2014
12,-0.2625,-1.0801,-0.6807,-3.4818,-0.5384,1.6789,2031
12,-0.2539,-1.115,-0.762,-3.4175,-0.804,1.6918,2064
12,-0.2908,-1.0754,-0.7544,-3.3416,-0.795,1.5474,2105
12,-0.3706,-0.9192,-0.6589,-2.9251,-0.8236,1.4812,2047
12,-0.3862,-0.8718,-0.6606,-2.8323,-0.6656,1.6117,2041
12,-0.3303,-1.0322,-0.7468,-2.7293,-0.3161,1.5028,2102
12,-0.3125,-1.1567,-0.7786,-2.4065,0.1107,1.2535,2092
12,-0.321,-1.2302,-0.6792,-2.1015,0.3802,1.0962,1975
12,-0.2751,-1.3157,-0.6062,-2.0786,0.5232,1.0939,2084
12,-0.2339,-1.2446,-0.6096,-1.992,0.6494,1.1005,2035
12,-0.2073,-0.9905,-0.5383,-1.9137,0.6373,1.0194,2056
12,-0.2346,-0.856,-0.6248,-1.8279,0.6201,1.0218,1958
12,-0.2505,-0.9197,-0.7424,-1.6303,0.5424,0.9558,2069
12,-0.2827,-0.9248,-0.8562,-1.4797,0.5638,0.7273,2053
12,-0.3445,-0.7686,-0.8274,-1.2246,0.5004,0.4492,2022
12,-0.4976,-0.6406,-0.8555,-0.9742,0.5998,0.2482,2079
12,-0.5437,-0.6665,-0.8264,-0.5678,0.563,0.273,2045
12,-0.4502,-0.7222,-0.7361,-0.192,0.5968,0.2715,2037
12,-0.4141,-0.7019,-0.812,0.0049,0.7773,0.0043,2028
12,-0.4294,-0.6882,-0.8398,0.1872,0.6031,-0.337,2040
12,-0.3982,-0.6809,-0.9321,0.068,0.3044,-0.6787,2020
12,-0.394,-0.5938,-0.9087,0.1898,0.0289,-0.9126,1980
12,-0.5151,-0.501,-0.8394,0.3718,-0.1365,-1.0718,2109
12,-0.6396,-0.543,-0.8247,0.5349,-0.2119,-1.1198,2043
12,-0.6711,-0.6604,-0.8772,0.654,-0.1237,-1.128,1943
12,-0.6724,-0.6899,-0.9111,0.8646,-0.0233,-1.1957,2128
12,-0.6487,-0.6641,-1.0127,1.1347,-0.032,-1.3037,2051
12,-0.687,-0.7007,-0.989,1.4952,0.0694,-1.431,2075
12,-0.7251,-0.7749,-1.0493,1.5922,-0.1392,-1.6125,2108
12,-0.8523,-0.7559,-1.0203,1.7863,-0.3488,-1.8643,2149
12,-0.9626,-0.7249,-1.0125,1.9339,-0.5675,-2.1626,2024
12,-1.0627,-0.7185,-1.0317,2.0282,-0.6534,-2.5408,2097
12,-1.1396,-0.8218,-1.1113,2.1105,-0.5378,-3.0106,2048
12,-1.1196,-0.8877,-1.2417,2.2162,-0.4179,-3.2745,2025
12,-1.0332,-0.8887,-1.2495,2.4099,-0.4329,-3.5113,2059
12,-1.0251,-0.9282,-1.3738,2.5003,-0.3524,-3.6504,2016
12,-0.999,-0.9734,-1.3997,2.5519,-0.316,-3.7316,2083
12,-0.9573,-0.9141,-1.4583,2.5633,-0.3337,-3.7336,1989
12,-0.8777,-0.8767,-1.3987,2.6434,-0.4099,-3.67,2058
12,-0.8923,-0.8152,-1.4238,2.6606,-0.3169,-3.5037,2004
12,-0.9617,-0.7744,-1.4016,2.7478,-0.2049,-3.2843,2065
12,-0.9507,-0.6333,-1.26,2.8255,-0.0092,-3.206,2133
12,-0.8911,-0.4646,-1.2358,2.8112,0.1337,-3.2071,1979
12,-0.7112,-0.3792,-1.1873,2.6493,-0.0382,-3.1256,2093
12,-0.6738,-0.345,-1.1062,2.4728,-0.1217,-3.1708,2035
12,-0.6382,-0.0505,-0.8596,2.404,-0.1818,-3.053,1989
12,-0.9329,-0.2581,-0.9336,2.1599,0.269,-2.9681,2028
12,-0.73,-0.2393,-0.7166,1.9331,0.7423,-3.0514,2046
12,-0.4155,-0.2695,-0.8738,1.4681,0.8783,-3.532,2055
12,-0.6409,-0.4031,-0.6248,1.3455,0.7275,-3.2915,2000
12,-1.1975,-0.7905,-0.7332,0.7644,1.4588,-2.4157,2008
12,-0.0393,-0.4868,-0.3503,0.728,0.9247,-2.5574,1943
12,0.5486,0.1111,-0.791,1.1097,0.4204,-3.1568,2015
12,1.9999,0.3491,0.0039,1.2645,-2.7753,-4.3635,2448
12,-1.905,-0.7788,-1.9604,0.7391,-2.8719,-4.3635,1425
12,1.5674,-2.0,1.0532,4.1734,-4.3635,-2.582,2551
12,-0.6567,-2.0,-0.709,3.1532,2.1985,-2.1041,1946
12,-0.3765,-0.8804,-1.3259,2.2503,0.9128,0.0421,1803
12,1.2981,-0.5437,-0.3909,3.0395,0.6373,0.5117,2133
12,0.9795,-0.0354,-0.6252,3.2399,-0.6537,1.1681,1939
12,0.2896,-0.4465,-0.7471,2.9108,-1.0785,1.5916,1953
12,0.3127,-0.4458,-0.7571,2.8243,-1.1404,1.2764,2032
12,0.4199,-0.4836,-0.5601,2.955,-0.805,0.7618,2058
12,0.3708,-0.3987,-0.3137,3.1652,-0.3469,0.2738,2076
12,0.5161,-0.2915,-0.1804,3.2556,0.0349,0.1318,2028
12,0.8789,-0.2161,-0.0198,3.0521,0.349,0.0052,1905
12,0.6475,-0.1426,-0.2915,2.5956,0.6986,-0.1791,2023
12,0.5149,-0.0371,-0.3694,1.9021,0.7393,-0.1294,2066
12,0.2725,0.0962,-0.4031,1.5009,0.9612,-0.0767,2064
12,0.262,0.1956,-0.218,1.1776,1.3047,0.0254,2062
12,0.2522,0.217,-0.2234,0.8179,1.5071,0.2658,2062
12,0.2178,0.1033,-0.2766,0.8384,1.4482,-0.0125,2083
12,0.218,0.0146,-0.2551,1.064,1.0748,-0.2466,2025
12,0.0046,-0.1868,-0.3882,0.9547,0.6709,-0.3946,2008
12,-0.322,-0.2573,-0.5129,0.8195,0.642,-0.1611,2056
12,-0.6174,-0.1382,-0.4341,0.7461,0.577,0.2966,2040
12,-0.7629,-0.0264,-0.3005,0.8593,0.202,0.6855,2061
12,-0.9902,-0.0054,-0.2119,1.2463,-0.2301,0.8216,2058
12,-1.1172,-0.1665,-0.1316,1.5018,-0.744,1.0801,2049
12,-1.5483,-0.5325,-0.2637,1.6563,-0.4297,1.4929,2085
12,-2.0,-1.073,-0.3301,1.5668,-0.2674,1.7949,2080
12,-2.0,-1.4536,-0.4722,1.1627,0.1716,1.9536,2101
12,-2.0,-1.7422,-0.4888,0.8219,1.0625,2.0256,2055
12,-2.0,-2.0,-0.3459,-0.0329,1.9746,1.9305,2005
13,-1.9177,-2.0,-0.1919,-0.6585,2.8356,1.6271,2035
13,-1.5654,-2.0,-0.2317,-1.0692,3.0863,1.689,2015
13,-1.2883,-2.0,-0.3311,-1.324,3.242,1.869,2040
13,-1.1917,-2.0,-0.1328,-1.8022,3.1681,2.1345,2029
13,-1.0667,-2.0,-0.064,-2.2214,2.7593,2.131,2055
13,-0.9768,-2.0,-0.1719,-2.5742,2.2349,2.2778,2025
13,-0.8782,-2.0,-0.439,-2.4887,1.8294,2.6231,2048
13,-0.627,-2.0,-0.5042,-2.3859,1.8579,2.6243,2042
13,-0.4189,-2.0,-0.0928,-2.7642,1.7727,2.7276,2036
13,-0.2466,-2.0,0.2571,-3.2581,0.8421,2.6125,2080
13,-0.1062,-2.0,0.2361,-3.367,0.4121,2.3224,2015
13,-0.1648,-1.9373,0.1462,-3.5533,0.4657,2.021,2071
13,-0.2153,-1.7688,0.2407,-3.6707,0.1185,1.7218,2014
13,-0.2566,-1.7454,0.1052,-4.0656,-0.0502,1.7492,2011
13,-0.2297,-1.7471,-0.1357,-4.0221,-0.3274,1.6948,2065
13,-0.2969,-1.7148,-0.2529,-4.107,-0.6641,1.6375,2019
13,-0.3689,-1.6812,-0.4089,-4.064,-0.9741,1.672,2051
13,-0.4258,-1.6145,-0.5359,-4.0297,-1.177,1.7428,2032
13,-0.4585,-1.5276,-0.6321,-4.0017,-1.183,1.7908,2053
13,-0.4722,-1.3857,-0.6079,-3.7753,-1.1649,1.8845,2044
13,-0.4817,-1.3242,-0.5984,-3.7331,-0.874,1.9393,2039
13,-0.3755,-1.2732,-0.6079,-3.7253,-0.5248,1.8618,2044
13,-0.2251,-1.1809,-0.5984,-3.4722,-0.5489,1.6009,2055
13,-0.114,-1.0947,-0.6299,-3.2496,-0.5694,1.3248,2015
13,-0.1418,-1.0339,-0.6497,-2.9624,-0.7686,1.1979,2091
13,-0.2214,-0.9585,-0.717,-2.8044,-0.9507,1.4059,2008
13,-0.2629,-0.9006,-0.7444,-2.5553,-1.2123,1.4061,2063
13,-0.2578,-0.8987,-0.7529,-2.4041,-1.2227,1.46,2043
13,-0.259,-0.8755,-0.7395,-2.2124,-1.1234,1.4539,2034
13,-0.2705,-0.8767,-0.698,-2.1493,-0.8899,1.4177,2044
13,-0.2637,-0.8376,-0.6953,-2.0299,-0.6693,1.3881,2046
13,-0.228,-0.8052,-0.6987,-1.9747,-0.3376,1.341,2035
13,-0.1665,-0.7717,-0.7556,-1.9538,0.1289,1.2174,2029
13,-0.1221,-0.7146,-0.7961,-1.8052,0.3718,1.071,2067
13,-0.179,-0.676,-0.8096,-1.5913,0.4919,0.8733,2043
13,-0.2156,-0.6521,-0.8459,-1.3874,0.387,0.7367,2061
13,-0.3027,-0.6396,-0.9294,-1.2761,0.4645,0.6187,2044
13,-0.4456,-0.6138,-0.8994,-1.1528,0.3758,0.5287,2054
13,-0.53,-0.5349,-0.8384,-1.1184,0.4721,0.4717,2045
13,-0.5532,-0.4563,-0.8848,-1.1211,0.8312,0.3915,2066
13,-0.5474,-0.4575,-0.8669,-1.1447,1.0891,0.2967,2040
13,-0.4602,-0.4688,-0.7866,-1.0891,1.0371,0.2248,2052
13,-0.3472,-0.48,-0.8413,-0.918,0.7553,0.008,1982
13,-0.3357,-0.5002,-0.8643,-0.724,0.4232,-0.0878,2025
13,-0.4082,-0.4683,-0.7642,-0.491,0.4163,-0.0445,2016
13,-0.5405,-0.3645,-0.7791,-0.359,0.4542,-0.0999,2036
13,-0.6511,-0.4712,-0.6965,0.1256,0.0912,-0.2132,2070
13,-0.6663,-0.613,-0.6191,0.5414,0.3852,-0.2491,1975
13,-0.6589,-0.6692,-0.7146,0.7008,0.4769,-0.3683,2036
13,-0.7488,-0.7205,-0.6589,1.0191,0.3333,-0.7597,2160
13,-0.6885,-0.9753,-0.8389,1.2157,0.2041,-1.1656,2045
13,-0.8706,-1.0652,-0.8367,1.6575,0.0482,-1.8134,2012
13,-1.032,-1.0359,-0.8918,1.8359,0.1286,-2.4116,2132
13,-1.0867,-1.0586,-1.0479,2.135,0.2277,-3.0237,2006
13,-0.9678,-1.1311,-1.1687,2.3702,0.2045,-3.5005,1989
13,-0.9849,-1.1543,-1.2029,2.6659,0.1377,-3.9265,2124
13,-1.0354,-1.2192,-1.2166,2.8573,0.0435,-4.1796,2108
13,-1.0769,-1.2397,-1.2803,3.0372,-0.0257,-4.3559,2148
13,-1.1099,-1.2988,-1.323,3.2403,-0.1422,-4.3635,2086
13,-1.375,-1.1951,-1.2073,3.5701,-0.1111,-4.3635,2102
13,-1.1211,-0.9741,-1.3137,3.3777,-0.1915,-4.3635,2069
13,-1.1543,-0.8953,-1.2683,3.4339,-0.1613,-4.3635,2114
13,-1.0603,-0.7314,-1.2256,3.4034,-0.3606,-4.3635,1944
13,-1.04,-0.7866,-1.1294,3.2798,-0.3168,-4.3635,2142
13,-0.9978,-0.7026,-1.1487,3.1172,-0.2425,-4.3635,2200
13,-0.8042,-0.3125,-1.2068,3.1054,-0.545,-4.3635,2080
13,-1.0063,-0.5388,-1.0354,2.5325,-0.0702,-4.3635,2134
13,-0.8953,-0.6111,-1.1782,2.1343,-0.0369,-4.137,2025
13,-0.8953,-0.499,-1.0093,1.774,0.0961,-3.8201,2059
13,-0.9458,-0.4841,-0.9626,1.2836,0.4594,-3.4483,2195
13,-1.4346,-0.6179,-0.6821,0.8902,1.0511,-2.1691,2067
13,-0.1521,0.062,-0.6213,0.486,0.8471,-2.118,2159
13,-0.0125,0.1077,-0.5911,0.3135,0.8688,-2.9897,2000
13,1.0276,0.5664,-0.5544,0.5361,-0.0997,-3.2314,2174
13,1.9999,0.8157,1.9999,2.7087,-3.5909,-4.3635,2328
13,-2.0,-2.0,-2.0,-1.7956,1.3869,-4.3635,1484
13,1.9999,-2.0,0.2654,1.915,-3.4175,-4.1973,2446
13,-0.6545,-1.053,-0.7222,2.7341,1.5592,-3.7134,1980
13,0.0454,-1.4966,-0.6599,2.3931,2.4931,-1.1487,1948
13,1.74,-0.7131,-0.7864,3.207,2.3605,-0.1376,1971
13,1.0876,-0.1643,-0.6904,3.4207,1.1808,1.1833,1916
13,0.813,-0.4836,-1.0525,3.1343,0.4741,1.5938,2041
13,0.3706,-0.3865,-0.9697,3.0444,0.3059,1.3588,2000
13,0.2454,-0.2256,-0.6846,2.852,0.5171,0.9535,2064
13,0.2173,-0.1768,-0.5674,2.5856,0.8114,0.6967,1992
13,0.4456,-0.1338,-0.4119,2.3603,0.9384,0.3858,1972
13,0.5664,-0.0708,-0.2603,1.9646,0.874,0.2261,2033
13,0.6243,0.0146,-0.1353,1.6954,0.7171,0.0684,2105
13,0.3701,0.0869,-0.2249,1.2829,0.6192,0.1099,2058
13,0.2366,0.1028,-0.3608,0.8859,0.7272,0.4745,2072
13,0.1868,0.1145,-0.3088,0.6947,1.044,0.8416,2078
13,0.2063,0.1458,-0.2053,0.5858,1.3234,0.8657,2051
13,0.3201,0.0842,-0.2476,0.8175,1.3918,0.8122,2069
13,0.3901,-0.1599,-0.2173,1.0479,1.2745,0.5837,2025
13,0.1648,-0.2852,-0.2649,1.3744,1.1183,0.5352,2041
13,-0.1938,-0.2708,-0.2637,1.6367,0.6871,0.981,2064
13,-0.533,-0.2642,-0.2673,1.8575,0.2654,1.4416,2047
13,-0.811,-0.2019,-0.2935,2.2322,0.1357,1.7171,2028
13,-1.1484,-0.2852,-0.2412,2.4609,0.174,1.8405,2045
13,-1.4829,-0.4167,-0.1787,2.7866,0.1322,2.0716,2066
13,-2.0,-0.6411,-0.2556,2.6614,0.5546,2.2832,2089
13,-2.0,-1.0002,-0.2146,2.1867,1.0828,2.2899,2079
13,-2.0,-1.3423,-0.385,1.7695,1.7383,2.1639,2074
14,-1.9971,-1.8245,-0.2778,1.1821,2.2999,1.7626,2018
14,-1.6016,-2.0,-0.1262,0.4789,2.4808,1.5968,2020
14,-1.4333,-2.0,-0.1248,-0.3297,2.6618,1.8656,2063
14,-1.3105,-2.0,-0.2324,-1.0124,2.842,2.055,2078
14,-1.3091,-1.9358,-0.2075,-1.2998,2.698,2.4583,2009
14,-1.2952,-1.8896,-0.0896,-1.653,2.6695,2.843,2016
14,-1.2266,-1.8352,-0.1721,-1.9281,2.7847,2.8598,2015
14,-1.0098,-1.8171,-0.3623,-2.1973,2.3898,2.8132,2031
14,-0.6011,-1.8696,-0.5713,-2.2707,1.9286,2.8309,2044
14,-0.2769,-1.9446,-0.4573,-2.2997,1.1612,2.7446,2010
14,-0.3232,-1.9524,-0.3967,-2.5402,0.4634,2.673,2014
14,-0.5654,-1.9573,-0.3818,-2.6978,-0.0695,2.5547,2017
14,-0.6501,-1.9592,-0.3669,-3.0098,-0.0988,2.3637,2058
14,-0.4753,-1.9246,-0.1069,-3.2853,-0.237,2.1363,2031
14,-0.3423,-1.8694,-0.0671,-3.6985,-0.4203,1.89,2030
14,-0.2654,-1.7163,-0.1716,-4.0138,-0.5196,1.6776,2051
14,-0.1211,-1.718,-0.1152,-3.8597,-0.9143,1.5193,2031
14,0.0159,-1.7214,-0.2461,-4.1287,-0.9263,1.3435,2037
14,0.0288,-1.7085,-0.322,-4.2409,-1.1424,1.2597,2039
14,-0.0708,-1.6145,-0.4395,-4.3426,-1.2307,1.3275,2025
14,-0.1287,-1.5093,-0.4639,-4.2349,-1.1929,1.4482,2045
14,-0.1521,-1.4578,-0.5469,-4.3347,-0.8662,1.5625,2039
14,-0.2197,-1.3728,-0.5718,-4.0269,-0.6466,1.6333,2076
14,-0.248,-1.3091,-0.6362,-3.8858,-0.3274,1.7005,2042
14,-0.2197,-1.2546,-0.667,-3.7211,0.0967,1.8161,2037
14,-0.1873,-1.2085,-0.6807,-3.5515,0.4216,1.9646,2045
14,-0.1396,-1.1511,-0.5571,-3.258,0.4015,2.0627,2066
14,-0.114,-1.1401,-0.4966,-3.0922,0.1192,2.0861,2003
14,-0.0581,-1.1687,-0.4771,-2.9087,-0.0113,1.8831,2035
14,-0.002,-1.0986,-0.4968,-2.7474,0.0041,1.7759,2019
14,-0.0955,-1.0037,-0.5442,-2.5542,0.0039,1.5649,2065
14,-0.2441,-1.0061,-0.572,-2.5282,0.2276,1.4094,2132
14,-0.4714,-1.042,-0.7529,-2.3329,0.4325,1.109,2064
14,-0.5706,-1.093,-0.7698,-2.1007,0.4826,0.9183,2096
14,-0.5271,-1.1274,-0.7007,-1.9675,0.5785,0.9693,2061
14,-0.4182,-1.0769,-0.6331,-1.9217,0.6612,1.0541,2058
14,-0.3276,-1.0105,-0.5876,-1.7687,0.6332,0.9076,2077
14,-0.2893,-1.0024,-0.6548,-1.45,0.5606,0.664,2044
14,-0.3071,-1.0171,-0.6987,-1.2692,0.6488,0.457,1986
14,-0.3779,-0.9658,-0.8191,-1.0971,0.8024,0.2663,2137
14,-0.4924,-0.8042,-0.8071,-0.9432,0.8673,0.0792,1972
14,-0.5393,-0.6812,-0.9297,-0.6911,0.8576,-0.1076,2034
14,-0.5842,-0.6604,-0.9705,-0.5304,0.8851,-0.2967,2030
14,-0.5317,-0.5984,-0.8416,-0.2786,0.8403,-0.4671,2030
14,-0.5117,-0.5444,-0.9546,-0.3292,0.6617,-0.6778,2057
14,-0.5217,-0.4739,-0.9353,-0.1985,0.4338,-0.8339,2065
14,-0.6079,-0.4404,-0.8108,0.1973,0.3485,-0.8688,2075
14,-0.6204,-0.4307,-0.7388,0.5259,0.0509,-0.932,2077
14,-0.5918,-0.5886,-0.8779,0.7401,0.0361,-1.0243,2051
14,-0.74,-0.7483,-0.8132,1.022,-0.3485,-1.2698,2103
14,-0.8669,-0.8135,-0.9382,1.2283,-0.2706,-1.4561,2077
14,-0.8545,-0.8521,-0.9299,1.3492,-0.4838,-1.6419,2101
14,-0.8816,-0.9009,-0.9585,1.3972,-0.477,-1.9564,1999
14,-0.9629,-0.9348,-1.1445,1.4117,-0.6217,-2.3451,2021
14,-1.0667,-0.9009,-1.0422,1.6271,-0.764,-2.7494,2100
14,-1.0752,-0.9321,-1.1453,1.7014,-0.7648,-3.1184,2140
14,-1.1174,-1.0854,-1.2795,1.9547,-0.5558,-3.391,1967
14,-0.9656,-1.2156,-1.3442,2.1494,-0.5493,-3.6266,2232
14,-0.9343,-1.2827,-1.4045,2.5452,-0.3312,-3.8321,1997
14,-0.9299,-1.1587,-1.5664,2.7093,-0.2759,-3.8562,2149
14,-0.8953,-1.0574,-1.5967,3.0368,-0.0156,-3.8157,2165
14,-0.7788,-0.9309,-1.6663,3.0618,0.0112,-3.7462,2133
14,-0.7817,-0.8315,-1.5217,3.3327,0.0437,-3.6921,1996
14,-0.7627,-0.7634,-1.5232,3.3198,0.1024,-3.6917,1883
14,-0.8369,-0.6531,-1.4077,3.2913,0.1856,-3.7091,2127
14,-0.8118,-0.5261,-1.394,3.0212,0.3425,-3.7813,2101
14,-0.7512,-0.4082,-1.2549,2.618,0.4701,-3.6821,1949
14,-0.4919,-0.2207,-1.0474,2.4377,0.153,-3.8576,2068
14,-0.4595,-0.3503,-1.0168,2.1928,0.2531,-3.9576,2129
14,-0.665,-0.6851,-1.0103,1.7377,0.4119,-3.6989,2072
14,-0.7732,-0.7063,-0.8459,1.5107,0.8388,-3.1219,2018
14,-0.5571,-0.5193,-0.9583,1.0408,1.0801,-2.7501,2088
14,-0.4363,-0.3152,-0.4197,1.3287,0.7291,-2.0076,2046
14,0.1733,-0.1235,-0.2363,1.5579,0.28,-2.3714,2134
14,0.5032,0.3938,-0.3523,2.0194,0.0376,-2.5071,1999
14,1.9999,-0.6311,1.2209,1.3427,-1.7171,-4.3635,2676
14,-2.0,-0.4946,-2.0,2.3808,-0.2562,-4.3635,1495
14,1.2346,-2.0,-0.0674,3.6019,-2.4499,-0.6473,2533
14,0.0278,-0.9958,-0.7827,2.7133,2.0539,-0.4161,1958
14,0.5159,-1.6045,-0.5398,3.3409,0.4183,0.1779,2009
14,0.9673,-0.9614,-0.3904,3.485,0.2109,0.6018,1990
14,0.6147,-0.5938,-0.5417,3.2826,-0.3147,1.3216,1925
14,0.6692,-0.271,-0.4805,3.1511,-0.6905,1.7403,2000
14,0.6782,-0.019,-0.2239,3.3551,-1.1579,1.6625,2046
14,0.4036,-0.0215,-0.2029,3.3327,-1.3314,1.3994,2066
14,0.1951,-0.0742,-0.2634,3.2621,-0.8199,0.8158,2284
14,0.5137,-0.1672,-0.0906,3.0971,-0.4061,0.4799,2026
14,0.4937,-0.2151,-0.0244,2.8012,0.1614,0.142,1861
14,0.645,-0.1199,-0.0342,2.6737,0.5016,-0.2673,2012
14,0.73,0.1218,-0.0212,2.371,0.6556,-0.2911,2043
14,0.5918,0.2065,-0.082,1.9427,0.4429,-0.2784,2066
14,0.4705,0.1624,-0.0657,1.6761,0.1645,-0.1922,2060
14,0.0918,0.1367,-0.1228,1.439,0.1598,-0.0012,2019
14,-0.1863,0.1101,-0.1089,1.2986,0.3535,0.228,2066
14,-0.2815,0.01,-0.0828,1.2286,0.3488,0.3532,2056
14,-0.3174,-0.2234,-0.1228,1.1121,0.3918,0.1393,2048
14,-0.3628,-0.3782,-0.1941,0.9171,0.228,0.045,2045
14,-0.6243,-0.5093,-0.3113,0.5626,0.071,0.0318,2048
14,-0.8208,-0.5315,-0.4023,0.5103,0.0435,0.1308,2045
14,-0.8979,-0.5579,-0.447,0.5249,-0.0165,0.4967,2044
14,-1.0002,-0.7,-0.5359,0.392,-0.3037,0.9889,2032
14,-1.1975,-0.8875,-0.6382,0.3862,-0.3971,1.3998,2068
14,-1.438,-1.22,-0.7168,0.3501,-0.0565,1.541,2063
14,-1.5776,-1.595,-0.5566,0.1376,0.6992,1.8259,2062
15,-1.8789,-1.6729,-0.2385,-0.1927,1.2069,1.8106,2048
15,-2.0,-1.5847,-0.1157,-0.5849,1.4924,1.6961,2013
15,-1.968,-1.6106,0.0122,-1.2497,1.7949,1.7407,2052
15,-1.3713,-1.7146,-0.1587,-1.984,2.3024,2.0482,2063
15,-0.9263,-1.8113,-0.3813,-1.9756,2.7248,2.3304,2062
15,-0.8462,-1.8523,-0.4189,-1.8395,2.7569,2.5859,2034
15,-0.9973,-1.8806,-0.3179,-2.0108,2.5695,2.6936,2017
15,-1.0493,-1.9341,-0.3938,-2.2866,2.3361,2.7197,2017
15,-0.8379,-1.9578,-0.5483,-2.6306,1.8126,2.6337,2062
15,-0.375,-1.918,-0.4424,-2.635,0.9551,2.6911,2064
15,-0.1201,-1.8892,-0.2246,-2.6635,0.3156,2.5629,2060
15,-0.4126,-1.8892,-0.262,-2.9871,-0.0687,2.339,2012
15,-0.7373,-1.8953,-0.3237,-3.5873,-0.1574,2.4591,2047
15,-0.7729,-1.8303,-0.324,-3.7921,0.0112,2.1651,2047
15,-0.3757,-1.8027,-0.074,-3.513,0.002,2.0841,2050
15,0.074,-1.9531,-0.1106,-3.7411,-0.1796,2.2469,2002
15,0.179,-2.0,-0.783,-3.944,-0.3145,2.263,2062
15,0.0579,-2.0,-0.8696,-3.807,-0.5192,2.2897,2109
15,-0.1501,-1.979,-0.563,-3.7498,-0.92,2.2719,2025
15,-0.2554,-1.9094,-0.4446,-3.6735,-0.8015,2.3378,2046
15,-0.1887,-1.8066,-0.4675,-3.5865,-0.1842,2.4803,2056
15,-0.1719,-1.7214,-0.5737,-3.5699,0.016,2.4995,2045
15,-0.189,-1.6096,-0.6812,-3.6463,0.0229,2.5035,2036
15,-0.2214,-1.5115,-0.6665,-3.5335,-0.0578,2.447,2049
15,-0.2222,-1.4585,-0.6528,-3.4198,-0.0285,2.4183,2032
15,-0.2598,-1.4023,-0.6504,-3.3019,0.1915,2.2878,1993
15,-0.1775,-1.375,-0.7119,-3.1947,0.3494,2.2409,2075
15,-0.137,-1.3135,-0.6611,-2.995,0.1888,2.0623,2008
15,-0.1133,-1.2224,-0.7405,-2.871,0.102,2.003,2052
15,-0.208,-1.1304,-0.813,-2.8375,0.1513,1.9634,2034
15,-0.3433,-1.0894,-0.8235,-2.6995,0.1702,2.0052,1958
15,-0.5664,-1.0283,-0.665,-2.6444,0.2968,2.1108,2017
15,-0.5603,-0.9507,-0.647,-2.6192,0.552,2.177,2041
15,-0.4998,-0.844,-0.6538,-2.7288,0.8277,2.2533,2048
15,-0.3364,-0.686,-0.6882,-2.506,0.8669,1.9965,2013
15,-0.2478,-0.5225,-0.6345,-2.4645,0.8468,1.6571,2032
15,-0.3027,-0.3347,-0.7075,-2.2695,0.9819,1.3424,2053
15,-0.4272,-0.2886,-0.7786,-1.8639,0.9576,1.0559,2046
15,-0.5154,-0.2795,-0.7559,-1.3788,0.9447,0.8074,1944
15,-0.5493,-0.2104,-0.7644,-0.9887,1.0034,0.5725,1971
15,-0.4475,-0.1648,-0.6646,-0.5461,0.8104,0.2397,2052
15,-0.3511,-0.2053,-0.7053,-0.3963,0.5706,-0.0051,2080
15,-0.3125,-0.2046,-0.6567,-0.2168,0.1582,-0.1185,2039
15,-0.3987,-0.1055,-0.4548,0.43,-0.2147,-0.3682,1966
15,-0.4309,-0.3025,-0.5725,0.8359,-0.3743,-0.6127,2105
15,-0.5195,-0.7239,-0.6753,1.2318,-0.5027,-0.8477,2028
15,-0.5603,-0.9719,-0.8037,1.5458,-0.5779,-1.0453,2032
15,-0.5911,-1.0273,-0.8271,1.7912,-0.5902,-1.2481,2097
15,-0.6816,-1.01,-0.8752,1.8423,-0.5328,-1.464,2064
15,-0.8406,-1.0391,-0.9807,1.9379,-0.4073,-1.8676,2121
15,-0.907,-1.0393,-1.1387,1.8041,-0.3551,-2.3308,1899
15,-0.9414,-1.1265,-1.2551,1.8675,-0.2811,-2.7267,2059
15,-1.0063,-1.2017,-1.2266,1.986,-0.2468,-3.0364,2050
15,-1.0549,-1.292,-1.1924,2.0106,-0.192,-3.3114,1853
15,-1.1345,-1.2773,-1.2388,1.9993,-0.1939,-3.6712,2036
15,-1.1509,-1.2129,-1.2673,1.9917,-0.2491,-3.9106,2020
15,-1.1604,-1.1462,-1.3162,2.1477,-0.1599,-4.0223,1929
15,-1.123,-1.0022,-1.2996,2.3964,-0.3073,-4.059,1939
15,-1.1951,-1.0273,-1.3447,2.6794,-0.3413,-4.1018,2089
15,-1.1482,-0.9727,-1.3418,2.989,-0.4872,-4.1612,1990
15,-1.0823,-0.7988,-1.1792,3.4328,-0.795,-4.2827,2061
15,-1.1477,-0.7251,-1.0706,3.6548,-0.7669,-4.2654,2032
15,-1.1548,-0.6428,-1.114,3.9024,-0.8393,-4.2658,2051
15,-1.209,-0.6267,-1.0645,3.8274,-0.6365,-4.2566,2033
15,-1.2268,-0.6687,-0.9756,3.6319,-0.5685,-4.3196,1914
15,-1.137,-0.7324,-0.9448,3.3091,-0.5102,-4.1382,2126
15,-0.999,-0.6602,-1.0242,2.9373,-0.6526,-3.87,2128
15,-1.0334,-0.626,-1.0879,2.5254,-0.6295,-3.8085,2047
15,-0.8774,-0.7637,-1.2397,1.8941,-0.3904,-3.6772,2056
15,-0.9663,-0.7769,-1.2803,1.4059,-0.0158,-3.3517,2200
15,-0.9885,-0.8059,-1.0212,0.7782,0.5209,-1.8651,2042
15,0.9138,0.1179,-1.1035,0.4209,0.0397,-2.8136,2190
15,0.3867,-0.3772,-1.1836,-0.0475,-0.3729,-2.9396,1948
15,1.9999,0.7793,-1.2673,-1.7321,-2.7532,-3.6302,2267
15,1.9999,1.4236,1.8054,3.3757,-4.3635,-4.3635,1598
15,-1.8289,-1.3914,0.085,1.0548,-0.6271,-1.8836,2044
15,1.9999,-2.0,-0.7693,1.4593,1.529,-4.011,2398
15,-0.2612,-1.8884,-0.7727,2.4349,2.4647,-1.796,1983
15,1.6924,-1.9446,-0.2351,2.4843,2.0815,-0.2898,2025
15,1.4453,-1.1785,-0.4758,3.0143,1.1745,0.1831,1983
15,0.7791,-0.5581,-0.5081,3.4127,1.1081,0.6468,2022
15,0.4846,-0.0959,-0.5037,3.5347,1.1231,1.0915,2254
15,0.5569,0.0439,-0.395,3.8756,1.1918,1.2917,2027
15,0.3994,-0.0706,-0.3826,3.9242,1.1794,1.246,1927
15,0.3792,-0.1035,-0.3767,3.8391,0.9191,1.1714,1930
15,0.3555,-0.0276,-0.3552,3.6842,0.8243,1.1726,2067
15,0.4387,0.0312,-0.217,3.3575,0.9226,1.1709,2096
15,0.4302,0.0684,-0.1426,3.0321,1.1045,1.0412,2053
15,0.2566,-0.0193,-0.2415,2.6061,1.3532,0.9392,2043
15,0.0381,-0.1348,-0.3157,2.1184,1.5153,0.893,2062
15,-0.1094,-0.1477,-0.1709,1.7379,1.8546,0.7518,2055
15,-0.1609,-0.1338,0.0237,1.4727,2.0256,0.8038,2054
15,-0.2146,-0.1025,0.124,1.3336,2.0666,0.6067,2064
15,-0.1851,-0.0559,0.0898,1.2406,1.6692,0.3674,2050
15,-0.2979,-0.1226,-0.0339,0.9895,0.9612,-0.0103,2030
15,-0.4832,-0.2585,-0.3044,0.8,0.5635,-0.246,2039
15,-0.7673,-0.2593,-0.5488,0.7664,0.3032,-0.2891,2055
15,-0.9758,-0.1624,-0.4546,1.0033,-0.1654,-0.2799,2066
15,-1.0449,-0.1104,-0.3623,1.1714,-0.5457,0.3416,2058
15,-1.4541,-0.4824,-0.3787,1.1159,-0.5689,0.8815,2081
15,-2.0,-1.2024,-0.4927,0.6011,0.0883,1.0078,2115
16,-2.0,-1.668,-0.6841,-0.0228,0.9927,1.0722,2080
16,-2.0,-2.0,-0.3076,-0.5136,1.9527,1.439,2044
16,-1.6858,-2.0,-0.0015,-1.3754,2.8875,2.1,2051
16,-1.1565,-2.0,-0.0037,-1.8731,3.3328,2.5966,2051
16,-0.9922,-2.0,-0.1665,-2.0489,3.3954,3.0572,2004
16,-1.2949,-1.9556,-0.1626,-2.2257,3.1397,3.1276,2009
16,-1.2715,-1.9458,-0.4104,-2.6045,2.8797,3.1799,2043
16,-1.1973,-2.0,-0.52,-2.7939,3.1409,3.3887,2054
16,-0.8218,-2.0,-0.3611,-3.1227,2.6702,3.4595,2019
16,-0.0369,-2.0,-0.3018,-3.3816,1.0508,3.6021,2111
16,-0.2146,-1.7578,-0.0925,-3.1736,-0.769,2.6976,2036
16,-1.115,-1.9368,-0.5964,-3.5134,-0.2159,2.2285,2025
16,-0.9272,-1.4885,0.4648,-2.7891,0.0896,2.3964,2018
16,-0.9287,-1.812,0.4526,-3.0308,0.0116,2.3197,2114
16,-0.8115,-2.0,-0.1997,-4.109,-0.0603,2.1353,2023
16,-0.3347,-1.7158,-0.646,-3.9767,0.3645,2.1331,2049
16,-0.6091,-1.6523,-0.3572,-4.1358,-0.2972,2.198,2032
16,-0.5073,-1.7222,-0.2119,-4.2912,-1.451,2.1549,2027
16,-0.2239,-1.6697,-0.3892,-4.3635,-1.527,1.9473,2041
16,-0.3181,-1.51,-0.4756,-4.3635,-1.4412,1.7745,2032
16,-0.4094,-1.3323,-0.5222,-4.3635,-1.2934,1.7404,2013
16,-0.4116,-1.167,-0.6399,-4.3635,-0.9646,1.7626,2048
16,-0.4067,-1.0461,-0.7046,-4.1213,-0.7116,1.911,2032
16,-0.3516,-1.0249,-0.7307,-3.7892,-0.5457,2.0692,2032
16,-0.2463,-1.0696,-0.7559,-3.6307,-0.2799,2.1238,2038
16,-0.2126,-1.0754,-0.7314,-3.4844,-0.1063,2.1477,2044
16,-0.2156,-1.0266,-0.6707,-3.3208,-0.035,2.1826,2035
16,-0.1934,-0.9949,-0.5593,-3.0489,-0.0459,2.2021,2018
16,-0.0945,-0.9985,-0.532,-3.0509,0.1088,2.0807,2048
16,0.0,-1.0413,-0.585,-3.1292,0.1923,1.8943,2027
16,-0.0518,-1.0696,-0.6929,-3.1492,0.2603,1.6745,2005
16,-0.1594,-1.0442,-0.7144,-2.9942,0.1712,1.4181,2029
16,-0.1775,-0.9634,-0.7305,-2.9159,0.3183,1.2846,2035
16,-0.1489,-0.7864,-0.74,-2.4995,0.2647,1.0918,2052
16,-0.3447,-0.7942,-0.6877,-2.2802,0.4112,0.9195,2036
16,-0.2522,-0.9539,-0.6492,-2.0616,0.5472,0.7614,1992
16,-0.2144,-0.8965,-0.675,-1.9868,0.6618,0.6883,2017
16,-0.2324,-0.8628,-0.6523,-1.5613,0.691,0.5915,2009
16,-0.3103,-0.8938,-0.7612,-1.2596,0.7116,0.387,2059
16,-0.3528,-0.9502,-0.668,-0.6681,0.6838,0.2353,2039
16,-0.394,-0.9321,-0.7532,-0.5095,0.7267,0.0149,2126
16,-0.449,-0.8809,-0.7915,-0.2232,0.7843,-0.2024,2043
16,-0.5042,-0.8035,-0.9648,0.0495,0.5983,-0.299,2043
16,-0.5496,-0.6367,-0.8677,0.51,0.3059,-0.4497,2112
16,-0.5823,-0.6089,-0.9526,0.7657,0.2766,-0.5572,2090
16,-0.6853,-0.7126,-1.0012,1.0593,0.2764,-0.7284,2122
16,-0.7603,-0.7747,-1.033,1.2427,0.1887,-0.9917,2007
16,-0.7439,-0.8721,-1.0527,1.4218,-0.0907,-1.1569,1894
16,-0.7041,-0.9653,-0.9265,1.6177,-0.3156,-1.3061,2025
16,-0.8079,-1.0327,-0.8196,1.7096,-0.3453,-1.4876,2151
16,-0.9453,-0.9983,-0.9373,1.7472,-0.4392,-1.6985,1931
16,-0.969,-0.9629,-0.9629,1.8548,-0.597,-1.7355,2103
16,-1.0544,-0.7412,-1.1282,1.7598,-0.4311,-1.9164,2099
16,-1.0957,-0.7188,-0.8662,2.0185,-0.7455,-1.9346,2028
16,-0.9907,-0.8296,-1.0671,2.0189,-0.8308,-2.2373,1963
16,-1.0627,-1.0164,-1.0662,2.1349,-0.8548,-2.5197,1900
16,-1.0046,-1.0652,-1.1953,2.1233,-0.9802,-2.8307,2031
16,-1.116,-0.9185,-1.3215,2.2495,-0.7187,-3.1943,2027
16,-1.0105,-0.8579,-1.2039,2.4017,-0.9212,-3.261,2137
16,-1.0156,-0.9976,-1.2996,2.4711,-0.4863,-3.6304,2000
16,-0.9387,-1.0173,-1.3318,2.5322,-0.3281,-3.8408,2038
16,-0.8159,-0.9778,-1.4023,2.4984,-0.2293,-3.958,2047
16,-0.7498,-0.9517,-1.342,2.5009,-0.1396,-3.9884,2075
16,-0.6641,-0.9167,-1.3489,2.4432,-0.0069,-3.9918,2250
16,-0.5339,-0.8313,-1.2263,2.6039,0.1855,-3.9978,2037
16,-0.4756,-0.8623,-1.4177,2.3924,0.4868,-3.9801,2147
16,-0.554,-0.6641,-1.1421,2.4393,0.8822,-3.9574,2095
16,-0.3347,-0.6387,-1.0061,2.5372,1.0441,-4.1455,2156
16,-0.3027,-0.7112,-1.0701,2.6144,1.2061,-4.2711,1999
16,-0.2871,-0.7305,-0.8953,2.5842,1.1552,-4.1631,2111
16,-0.158,-0.6953,-0.929,2.4824,1.3841,-4.3635,2017
16,-1.001,-0.8025,-1.2493,2.1232,1.7455,-3.6934,2169
16,-0.1023,-0.6985,-0.3477,2.3688,1.799,-3.172,2188
16,-0.0933,-0.5557,-0.6321,2.319,2.3281,-3.8627,2071
16,-0.5691,-1.0051,-0.74,2.2325,2.34,-3.0251,2051
16,1.9999,-0.7505,-1.0315,1.3671,-1.4893,-4.3635,2732
16,1.3066,0.4258,1.1411,4.3634,-4.3635,-4.3635,1739
16,-2.0,-2.0,-0.0061,2.9458,0.0172,-2.2754,1649
16,1.0173,-2.0,0.5029,4.1289,3.0051,-3.0304,2396
16,-0.0813,-1.5872,0.1267,4.0835,2.8862,-0.3854,1872
16,0.9131,-1.301,0.0361,3.6142,1.6664,0.5671,2030
16,0.6099,-1.0024,-0.5442,3.427,0.3671,1.0218,1970
16,0.2012,-0.5371,-0.7703,2.7634,-0.136,1.1368,2011
16,0.2419,-0.04,-0.4773,2.6787,-0.0277,0.7241,2036
16,0.4424,-0.0459,-0.3257,2.8095,-0.0803,0.2798,2075
16,0.5898,-0.1648,-0.1421,2.8315,-0.1586,-0.035,2119
16,0.6726,-0.1206,0.021,2.7074,-0.3187,-0.3472,2002
16,0.9702,-0.0742,0.2136,2.5064,-0.3417,-0.3601,1945
16,0.9602,-0.083,0.0247,2.0835,-0.5518,-0.3453,2001
16,0.6433,-0.0911,-0.3999,1.4432,-0.382,-0.0368,2067
16,0.3633,0.094,-0.3474,1.25,-0.0502,0.249,2088
16,0.3289,0.3174,-0.1667,1.3472,0.4987,0.501,2059
16,0.3225,0.2842,-0.0454,1.3605,0.8321,0.4908,2066
16,0.2673,0.0781,-0.0474,1.3151,1.0065,0.3204,2045
16,0.0825,0.0439,-0.0554,1.4423,1.005,0.2093,2059
16,-0.2295,0.0225,-0.1516,1.6183,0.7805,0.2278,2035
16,-0.4319,-0.0945,-0.3184,1.4524,0.3037,0.5175,2033
16,-0.5691,-0.147,-0.4604,1.1923,0.0746,0.5809,2059
16,-0.5505,-0.1489,-0.3821,0.9934,-0.2285,0.9264,2069
16,-0.7817,-0.0703,-0.4163,1.1765,-0.5107,1.2894,2063
16,-1.062,-0.1411,-0.377,1.4972,-1.0011,1.5562,2051
16,-1.4731,-0.5793,-0.304,1.594,-0.8911,1.6018,2075
17,-2.0,-1.1199,-0.6045,1.6259,-0.0947,1.8361,2051
17,-2.0,-1.8196,-0.6384,0.9359,0.8176,1.6914,2089
17,-2.0,-2.0,-0.5339,-0.0686,2.1971,1.7603,2064
17,-2.0,-2.0,-0.28,-1.0882,3.7221,2.2871,2022
17,-1.6135,-2.0,-0.1838,-1.6234,4.3381,2.3993,2059
17,-1.1055,-2.0,-0.0518,-1.8783,4.3634,2.6216,2044
17,-0.9275,-2.0,-0.1487,-2.0386,3.9781,2.695,2045
17,-0.79,-2.0,-0.2515,-2.241,3.3501,2.6971,2053
17,-0.7783,-2.0,-0.3159,-2.3173,3.0632,2.9191,2069
17,-0.7822,-2.0,-0.3052,-2.6413,2.546,2.7912,2036
17,-0.551,-2.0,-0.2075,-2.9933,1.7189,2.6352,2050
17,-0.3071,-2.0,0.0317,-3.2357,1.3178,2.4778,2083
17,-0.2578,-2.0,0.2129,-3.8981,0.877,2.4533,2020
17,-0.2122,-2.0,0.0762,-3.9622,0.3165,2.3369,1993
17,-0.2917,-2.0,0.1902,-3.7727,0.1831,2.1983,2029
17,-0.3723,-2.0,0.2429,-4.217,-0.0499,2.1877,2045
17,-0.1948,-1.9983,0.1367,-4.3635,-0.5883,1.8888,2053
17,-0.3188,-1.9526,0.0344,-4.3635,-0.4175,1.8548,2020
17,-0.2854,-1.9573,-0.1921,-4.3635,-0.7733,1.8566,2036
17,-0.1487,-2.0,-0.2747,-4.3635,-1.1607,1.7937,2073
17,-0.1946,-2.0,-0.5322,-4.3635,-1.1666,1.8996,2037
17,-0.3313,-1.9155,-0.6562,-4.3635,-1.0307,1.9743,2027
17,-0.3953,-1.696,-0.5859,-4.3635,-0.8863,2.1029,2039
17,-0.2849,-1.5024,-0.4619,-4.3635,-0.7158,2.1775,2036
17,-0.1694,-1.3757,-0.4382,-4.1496,-0.4765,2.1574,2041
17,-0.0845,-1.3091,-0.5088,-3.9396,-0.1878,2.064,2013
17,-0.1506,-1.2686,-0.5239,-3.5575,-0.3412,2.1575,2063
17,-0.1482,-1.2732,-0.5798,-3.6759,-0.4645,2.3091,2047
17,-0.1814,-1.2576,-0.7131,-3.6019,-0.5598,2.2774,2040
17,-0.2351,-1.1941,-0.7747,-3.5102,-0.5088,2.3397,2038
17,-0.302,-1.135,-0.7356,-3.2861,-0.5766,2.3819,2063
17,-0.2795,-1.0332,-0.6721,-3.0713,-0.4438,2.4649,2054
17,-0.2786,-0.9211,-0.6365,-2.9297,-0.1629,2.4264,2100
17,-0.3479,-0.9038,-0.6206,-2.897,0.2041,2.3166,2053
17,-0.3206,-0.895,-0.6292,-3.0206,0.4477,2.1696,2058
17,-0.1638,-0.8413,-0.6907,-3.1898,0.4173,2.062,2060
17,-0.1411,-0.7256,-0.7336,-3.1022,0.226,1.7658,2024
17,-0.197,-0.5444,-0.731,-2.9529,0.363,1.5372,2052
17,-0.3835,-0.4766,-0.6877,-2.7738,0.7431,1.3129,2069
17,-0.4573,-0.5061,-0.6714,-2.5559,0.9355,1.1452,2048
17,-0.4158,-0.521,-0.594,-2.2206,1.2206,1.0243,2018
17,-0.2097,-0.4043,-0.6042,-1.8817,1.2308,0.6846,2155
17,-0.001,-0.3796,-0.7227,-1.558,0.9411,0.3293,2072
17,-0.0142,-0.5959,-0.6299,-1.2138,0.3791,-0.061,2048
17,-0.1575,-0.593,-0.5674,-0.6385,0.0896,-0.4357,2000
17,-0.3022,-0.3689,-0.5764,-0.1851,0.3269,-0.7284,2091
17,-0.4878,-0.2427,-0.6624,0.22,0.5585,-0.9835,2104
17,-0.4944,-0.1804,-0.6277,0.9353,0.4674,-1.123,2116
17,-0.3691,-0.1523,-0.6401,1.6004,0.4595,-1.2086,2062
17,-0.3394,-0.3223,-0.647,2.0751,0.286,-1.2463,2147
17,-0.4812,-0.5164,-0.7737,2.4553,0.0111,-1.2914,2031
17,-0.6211,-0.5703,-0.8525,2.5621,-0.2613,-1.3809,2044
17,-0.8066,-1.0679,-0.886,2.8625,-0.3543,-1.7096,1963
17,-0.9338,-1.4231,-0.9182,2.9134,-0.1458,-2.2395,2054
17,-1.0786,-1.4639,-1.0696,2.8697,0.2101,-2.5834,2081
17,-1.1006,-1.304,-1.2253,2.7227,0.0906,-2.9502,2023
17,-1.1421,-1.2146,-1.3418,2.6289,0.0232,-3.2653,2083
17,-1.2168,-1.2563,-1.3967,2.5374,-0.1581,-3.5776,1958
17,-1.2234,-1.3958,-1.4841,2.4655,-0.3466,-3.8597,2109
17,-1.2126,-1.4551,-1.5427,2.459,-0.4076,-3.966,2054
17,-1.291,-1.3667,-1.6055,2.4891,-0.4432,-3.9885,1921
17,-1.3018,-1.2683,-1.5759,2.5761,-0.4513,-3.9519,1948
17,-1.2769,-1.1853,-1.5759,2.7052,-0.3169,-3.8607,1942
17,-1.2419,-1.0242,-1.5151,2.8722,-0.2766,-3.6824,2022
17,-1.1348,-0.8403,-1.5774,2.9448,-0.2743,-3.5456,2000
17,-1.189,-0.8801,-1.4927,2.8412,-0.2634,-3.3782,1971
17,-1.0068,-0.7722,-1.428,2.7899,-0.2519,-3.3641,1994
17,-1.0166,-0.5264,-1.2729,2.732,-0.2868,-3.2726,2118
17,-0.9583,-0.5374,-1.1841,2.5244,-0.2262,-3.2172,1921
17,-0.8081,-0.4187,-1.0073,2.4151,-0.2804,-3.0275,2032
17,-0.5801,-0.1663,-0.7229,2.5645,-0.4802,-2.9395,2089
17,-0.7993,-0.3013,-0.8843,2.2434,-0.0349,-3.0222,2049
17,-1.1506,-0.7773,-0.9514,1.7681,0.6474,-2.6255,2008
17,-0.6006,-0.5496,-0.5786,1.7394,0.6023,-2.2589,2109
17,-0.0781,-0.3237,-0.741,1.2137,0.8127,-2.9423,2044
17,-0.4521,-0.5015,-0.4351,1.2151,0.6622,-2.7163,2029
17,1.9999,-0.3076,-0.052,1.6368,-3.323,-4.3635,2758
17,-0.7107,-0.1711,-0.676,2.1981,-1.2798,-4.3635,1723
17,-1.5723,-1.9497,-0.0574,2.8846,-2.2527,0.3421,1678
17,1.4509,-2.0,0.1072,2.5132,1.5567,-1.1259,2343
17,0.54,-2.0,-0.3396,3.1765,-0.1669,1.0026,2113
17,1.0903,-1.7544,-0.2224,3.0737,-0.5805,1.6954,2077
17,1.168,-0.9177,-0.1902,3.5596,-1.2142,1.7848,2041
17,0.698,-0.4092,-0.48,3.7463,-1.2086,1.9234,1972
17,0.6853,-0.2141,-0.7346,3.9888,-0.9532,1.6823,2018
17,0.6882,-0.1194,-0.5479,4.2599,-0.9834,1.278,2008
17,0.6255,-0.1643,-0.3689,4.3634,-0.9384,0.9084,2033
17,0.6382,-0.2859,-0.1038,4.3634,-0.6377,0.5441,2221
17,0.6387,-0.1025,-0.0696,4.2929,-0.2093,0.2978,2004
17,0.4888,-0.21,-0.1262,3.8279,0.2727,0.1128,1855
17,0.6101,-0.1934,-0.0471,3.3704,0.7321,-0.067,1975
17,0.6667,-0.1089,0.0178,3.0468,0.9488,-0.0565,2055
17,0.4465,-0.1631,0.0,2.6251,0.7955,-0.0768,2051
17,0.2622,-0.157,0.0605,2.4164,0.7701,-0.2623,2057
17,0.0933,-0.1104,0.0762,2.0936,0.7299,-0.1466,2045
17,-0.1567,-0.0186,-0.0754,1.8419,0.7078,-0.182,2057
17,-0.3699,0.01,-0.1184,1.837,0.7737,-0.4518,2029
17,-0.4563,-0.0281,-0.1641,1.4209,0.9297,-0.6062,2054
17,-0.5747,-0.053,-0.2925,1.3652,1.1571,-0.6693,2057
17,-0.6982,0.0127,-0.3086,1.5051,1.0942,-0.4912,2067
17,-0.7466,-0.03,-0.4109,1.4918,0.6413,-0.1538,2054
17,-0.7131,-0.2371,-0.4717,1.3742,-0.1218,0.0158,2060
17,-0.7522,-0.4402,-0.6143,1.232,-0.4239,0.3623,2065
18,-1.1914,-0.7964,-0.8306,1.0568,-0.1021,0.6741,2056
18,-1.9785,-1.2283,-0.7998,0.9891,0.1185,0.7464,2034
18,-2.0,-1.5469,-0.7839,0.1209,0.9788,0.4927,2110
18,-2.0,-1.6304,-0.7139,-0.6464,2.3264,0.8875,2099
18,-2.0,-1.6899,-0.3169,-1.5816,3.6593,1.4359,2036
18,-1.439,-1.7581,-0.1042,-1.9944,4.3634,1.693,2025
18,-0.9678,-1.8672,-0.0684,-2.5782,4.3634,2.0522,2022
18,-0.7283,-1.9409,-0.3428,-2.4852,3.8326,2.2907,2043
18,-0.7078,-2.0,-0.2917,-2.444,3.3637,2.4469,2039
18,-0.936,-2.0,-0.2427,-2.9552,3.0867,2.3345,2050
18,-0.8918,-2.0,-0.3442,-3.3832,2.4776,2.2044,2050
18,-0.6809,-2.0,-0.3655,-3.7624,1.9347,2.0584,2057
18,-0.4922,-2.0,-0.3501,-4.2218,1.3838,2.0711,2031
18,-0.4246,-2.0,-0.2341,-4.3635,0.6652,2.0788,2079
18,-0.5264,-1.9077,-0.219,-4.3635,0.3782,1.9253,2073
18,-0.5984,-1.7749,0.238,-4.3635,-0.2029,1.6954,2039
18,-0.3623,-1.7363,0.6516,-4.0957,-0.5795,1.441,2071
18,0.0232,-1.9326,0.2722,-4.0843,-0.6992,0.9662,2093
18,0.021,-2.0,-0.4646,-4.3635,-0.2477,0.7199,2020
18,-0.3694,-2.0,-0.5327,-4.3635,-0.4658,1.0905,2037
18,-0.5164,-2.0,-0.3665,-4.3635,-1.2387,1.3809,2058
18,-0.2693,-2.0,-0.4124,-4.3635,-0.9764,1.4001,2057
18,-0.2332,-1.9009,-0.428,-4.3635,-0.5132,1.396,2026
18,-0.2798,-1.6919,-0.5398,-4.3635,-0.6106,1.5218,2048
18,-0.3113,-1.5938,-0.5581,-4.3635,-0.5769,1.6008,2043
18,-0.3806,-1.5356,-0.4961,-4.3635,-0.4613,1.6934,2051
18,-0.2905,-1.4211,-0.5613,-4.2306,-0.4368,1.7572,2045
18,-0.1807,-1.3132,-0.6228,-3.9753,-0.4883,1.8715,2021
18,-0.135,-1.1863,-0.6592,-3.7394,-0.4213,1.8631,2062
18,-0.1509,-1.1099,-0.6042,-3.4682,-0.3211,1.8901,2008
18,-0.2603,-1.0586,-0.6201,-3.2624,-0.2507,1.8025,2029
18,-0.335,-0.9468,-0.6477,-3.0419,-0.1222,1.7978,2000
18,-0.3149,-0.8823,-0.7092,-2.8243,-0.1063,1.8278,2055
18,-0.271,-0.9089,-0.7874,-2.6151,-0.1253,1.8847,2075
18,-0.3765,-0.9248,-0.7715,-2.4116,0.0763,1.9719,2060
18,-0.4004,-0.895,-0.645,-2.2756,0.2915,2.0715,2041
18,-0.3467,-0.8435,-0.5198,-2.2278,0.3337,2.1153,2045
18,-0.3125,-0.811,-0.5027,-2.0819,0.4039,1.8997,2064
18,-0.3313,-0.7773,-0.4963,-1.9162,0.3402,1.5908,2047
18,-0.4028,-0.7307,-0.5564,-1.6414,0.2579,1.3209,2063
18,-0.4011,-0.6814,-0.5852,-1.3392,0.2974,1.1479,2022
18,-0.3989,-0.5615,-0.7769,-1.1501,0.4177,0.899,2034
18,-0.4299,-0.4053,-0.8145,-0.7887,0.2595,0.5799,2000
18,-0.3762,-0.3669,-0.8872,-0.6036,0.185,0.3109,2037
18,-0.3823,-0.3352,-0.729,-0.3918,-0.1213,-0.0084,2000
18,-0.3574,-0.1729,-0.6545,-0.1939,-0.0427,-0.2835,2134
18,-0.3535,-0.0725,-0.4954,0.3633,-0.5212,-0.7075,2077
18,-0.2942,-0.2974,-0.625,0.7433,-0.81,-0.9588,2058
18,-0.323,-0.7146,-0.7256,1.1728,-0.8899,-1.2031,2103
18,-0.375,-0.856,-0.7258,1.5179,-1.0367,-1.4965,2146
18,-0.447,-0.8616,-0.7771,1.617,-1.0444,-1.7158,2098
18,-0.5483,-0.9885,-0.8845,1.7976,-0.9879,-1.8598,1904
18,-0.5977,-1.0896,-0.9775,1.8741,-0.7287,-2.0279,2043
18,-0.7371,-1.0933,-1.1023,1.8831,-0.6008,-2.3638,2148
18,-0.8159,-1.1333,-1.1353,2.0214,-0.5245,-2.5999,2081
18,-0.9849,-1.0017,-1.1294,2.1333,-0.3325,-2.7906,1970
18,-1.0081,-1.1187,-1.103,2.253,-0.2795,-2.7999,2109
18,-1.084,-1.134,-1.2251,2.3348,-0.2069,-3.1283,1988
18,-1.1833,-1.2168,-1.3164,2.3977,-0.1421,-3.4287,2106
18,-1.1411,-1.2075,-1.251,2.4682,-0.1145,-3.7067,1999
18,-1.2017,-1.094,-1.3628,2.4843,-0.0369,-3.9082,1935
18,-1.0781,-1.1006,-1.3293,2.579,-0.2304,-3.9928,1999
18,-0.9783,-1.0762,-1.22,2.708,-0.4646,-4.0618,2098
18,-1.1597,-0.9873,-1.2273,2.8147,-0.3449,-4.1571,2021
18,-1.1697,-0.9917,-1.1243,2.9155,-0.4328,-4.1327,1914
18,-1.0066,-0.7913,-1.051,2.9409,-0.3461,-4.1315,2084
18,-1.0042,-0.7456,-0.9634,3.0059,-0.5267,-4.0801,2124
18,-1.0386,-0.7612,-0.9888,2.907,-0.5051,-4.0516,2011
18,-1.0471,-0.762,-1.0774,2.6251,-0.4517,-4.0435,2035
18,-0.9856,-0.6309,-1.0103,2.3466,-0.4366,-3.9683,1994
18,-1.0503,-0.585,-0.8506,2.2427,-0.412,-3.9435,2044
18,-1.0581,-0.5212,-0.8452,1.7748,0.3308,-3.7499,2107
18,-0.96,-0.5684,-0.7432,1.3022,0.4512,-2.9754,2105
18,-0.1318,-0.2749,-0.7141,0.8176,0.3866,-3.4633,2125
18,0.2014,-0.2668,-0.6445,0.4737,0.3651,-4.1038,1943
18,0.47,-0.7295,-0.8811,0.4105,-0.0085,-3.9086,2053
18,1.9999,-0.4368,-1.5981,-1.2204,-1.4633,-4.0385,2156
18,1.9999,1.1436,1.4585,3.8225,-3.821,-4.3635,1998
18,-2.0,-1.0525,-0.0317,0.8564,2.59,-2.1093,1881
18,1.4341,-2.0,-0.77,2.0893,0.6648,-0.1494,2463
18,0.5303,-1.1528,-0.291,2.4505,1.6455,-0.1128,2017
18,0.7717,-2.0,-0.3047,2.3989,1.1085,0.7221,1971
18,0.9314,-1.3047,-0.2271,2.9963,0.0035,1.6845,1988
18,0.895,-0.2515,-0.5889,3.2761,-0.1947,2.0648,1975
18,0.6504,-0.0186,-0.6506,3.5535,-0.1782,1.925,2004
18,0.4368,-0.2354,-0.7874,3.6014,-0.2432,1.9297,2022
18,0.4326,-0.3298,-0.7119,3.5545,-0.0154,1.6099,2108
18,0.71,-0.4067,-0.3835,3.437,-0.1093,1.3687,2112
18,0.7734,-0.4106,-0.2493,3.2403,0.0912,0.9689,1990
18,0.6914,-0.353,-0.2236,2.8646,0.2593,0.6201,1934
18,0.7537,-0.2085,-0.1821,2.6039,0.6067,0.3669,1902
18,0.6584,-0.0647,-0.2207,2.4956,0.8103,0.2197,2036
18,0.5288,-0.1123,-0.394,2.1751,0.9104,-0.0249,2050
18,0.3179,-0.2151,-0.6899,1.5821,1.3541,0.0541,2083
18,0.2046,-0.1035,-0.5205,1.4423,1.6317,0.075,2058
18,0.0752,0.0359,-0.3284,1.4286,2.108,0.0928,2060
18,-0.0103,0.1196,-0.2107,1.4459,2.1282,-0.0225,2035
18,-0.1614,0.1333,-0.269,1.5964,2.0592,-0.3381,2038
18,-0.3408,0.2185,-0.3054,1.8499,1.6362,-0.3796,2023
18,-0.6133,0.1868,-0.4558,1.9373,1.188,-0.3059,2051
18,-0.7988,0.0857,-0.6206,1.9267,0.6545,-0.2409,2060
19,-0.8718,-0.1069,-0.6733,1.901,0.1838,-0.2542,2069
19,-0.9971,-0.2915,-0.7236,2.0169,-0.2971,0.0399,2072
19,-1.3855,-0.6934,-0.8013,2.3089,-0.8509,0.2745,2073
19,-2.0,-1.4402,-0.8662,2.2698,-0.8634,0.3385,2004
19,-2.0,-2.0,-0.7202,1.5021,0.9244,0.3642,2032
19,-2.0,-2.0,-0.2334,-0.4149,3.2922,1.1098,2083
19,-2.0,-2.0,0.0908,-1.7495,4.3634,2.3097,2024
19,-1.5625,-2.0,0.3091,-2.3794,4.3634,2.6476,2032
19,-0.7876,-2.0,0.2251,-2.4302,4.3634,2.5389,2008
19,-0.3687,-2.0,0.105,-2.1369,4.3634,2.4464,2032
19,-0.55,-2.0,-0.051,-2.1478,3.5179,2.6164,2042
19,-1.0195,-2.0,0.0503,-2.7533,2.5767,2.7611,2005
19,-0.9475,-2.0,-0.1064,-3.1545,2.2423,3.0192,2056
19,-0.8047,-1.9902,-0.2056,-3.4061,1.0822,2.9428,1956
19,-0.2349,-1.9155,-0.137,-3.562,-0.0617,2.6705,2138
19,-0.0066,-1.9004,0.323,-3.5428,-1.3999,2.3782,2027
19,-1.1711,-1.345,-0.136,-3.5507,-0.5564,1.9262,1992
19,-1.4099,-1.2454,0.1387,-3.0777,0.92,1.3018,2073
19,-1.1523,-1.8596,0.3137,-4.1909,0.3689,1.4978,2029
19,-0.531,-1.8914,-0.1914,-4.3635,-0.1558,0.9632,2052
19,0.1284,-1.6284,-0.4678,-4.3635,0.3631,1.0524,2016
19,-0.1655,-1.4878,-0.4641,-4.3635,0.0037,1.2826,2028
19,-0.3562,-1.4438,-0.5425,-4.3635,-1.534,1.4669,2027
19,-0.2239,-1.4961,-0.6641,-4.3635,-2.0664,1.585,2055
19,-0.2295,-1.4822,-0.7222,-4.3635,-1.5994,1.6715,2047
19,-0.4294,-1.3464,-0.6165,-4.1957,-1.2938,1.7715,2034
19,-0.5789,-1.2454,-0.5327,-3.854,-1.0632,1.8258,2051
19,-0.4729,-1.2612,-0.5806,-3.6303,-0.628,1.8741,2041
19,-0.4148,-1.2947,-0.6135,-3.4696,-0.2081,1.8491,2017
19,-0.387,-1.3062,-0.5869,-3.2537,-0.0674,1.9606,2032
19,-0.2681,-1.3035,-0.6257,-3.0985,-0.3545,2.0714,2063
19,-0.1213,-1.2988,-0.6448,-2.9212,-0.7324,2.0053,2059
19,-0.0378,-1.2681,-0.5981,-2.8938,-0.9798,1.9421,1988
19,-0.1558,-1.2051,-0.5981,-2.7184,-1.0235,2.0092,2010
19,-0.2097,-1.22,-0.4351,-2.6745,-0.9471,2.2109,2026
19,-0.4314,-1.0667,-0.4937,-2.5606,-0.8317,1.96,2069
19,-0.3767,-1.1357,-0.6868,-2.6364,-0.218,1.7247,2018
19,-0.1399,-1.1553,-0.6936,-2.5851,-0.0629,1.5785,2023
19,-0.1299,-1.0715,-0.7168,-2.5092,0.0511,1.2991,2059
19,-0.1885,-0.8828,-0.7305,-2.3209,0.2986,1.1456,2008
19,-0.2351,-0.7485,-0.7654,-2.1164,0.4179,1.0939,1987
19,-0.323,-0.7305,-0.7461,-1.7158,0.2959,1.0194,2044
19,-0.3328,-0.7241,-0.7732,-1.5809,0.461,0.9689,2025
19,-0.3848,-0.623,-0.7795,-1.2921,0.5754,0.766,2036
19,-0.345,-0.5525,-0.7593,-1.2042,0.5894,0.5999,2013
19,-0.2334,-0.5015,-0.7151,-0.9689,0.5798,0.3754,1970
19,-0.2627,-0.4292,-0.7468,-0.7094,0.6301,0.0708,2118
19,-0.363,-0.3613,-0.6855,-0.2241,0.5842,-0.1598,1998
19,-0.4685,-0.3228,-0.6897,-0.0019,0.3836,-0.4156,1968
19,-0.4011,-0.3142,-0.5544,0.488,0.3505,-0.7412,2103
19,-0.4155,-0.3333,-0.5894,0.7431,0.3115,-1.1989,2043
19,-0.4407,-0.4189,-0.6113,1.1027,0.1802,-1.5472,2069
19,-0.3706,-0.5503,-0.7202,1.3996,-0.155,-1.79,2048
19,-0.3816,-0.6711,-0.7888,1.7823,-0.3421,-2.0675,2035
19,-0.499,-0.8391,-0.8191,2.0937,-0.4858,-2.2107,2061
19,-0.7141,-1.0525,-1.0073,2.2973,-0.241,-2.3466,1976
19,-0.9116,-1.3323,-1.0513,2.4024,0.0085,-2.4493,2043
19,-1.0061,-1.4807,-1.1394,2.3293,0.2115,-2.5645,2103
19,-1.043,-1.4497,-1.1899,2.2441,0.2768,-2.7554,2060
19,-1.1157,-1.4077,-1.2029,2.0507,0.1393,-2.9361,2039
19,-1.2102,-1.4316,-1.2739,1.9112,0.1308,-3.1268,1996
19,-1.2766,-1.3372,-1.3423,1.8241,0.0848,-3.3449,2081
19,-1.1965,-1.2112,-1.3225,1.7568,0.1085,-3.5272,2057
19,-1.1001,-1.1882,-1.4082,1.8406,0.0812,-3.6997,1948
19,-1.0227,-1.1594,-1.365,2.0335,-0.1593,-3.7933,1952
19,-1.0215,-1.0061,-1.3599,2.2391,-0.0724,-3.7916,2131
19,-0.8638,-0.9897,-1.28,2.4808,-0.2368,-3.6944,2177
19,-0.863,-1.1753,-1.2971,2.5643,-0.3385,-3.6045,2217
19,-0.8911,-0.866,-1.1946,2.9188,-0.3947,-3.6853,2083
19,-1.0525,-0.7561,-1.1125,2.9972,-0.3638,-3.4342,1811
19,-0.7588,-0.7417,-1.1428,2.9999,-0.2119,-3.5532,2052
19,-0.8606,-0.6011,-1.0508,3.0048,-0.3185,-3.7683,1861
19,-0.6472,-0.6846,-0.9731,2.6777,-0.587,-3.8491,2035
19,-1.0945,-0.3308,-1.0415,2.2595,0.402,-4.1618,1976
19,-1.1108,-0.54,-1.1431,1.8085,0.7673,-3.3947,1958
19,-0.3018,-0.4131,-0.7524,1.6428,0.3289,-3.1142,2079
19,-0.0344,-0.188,-0.6699,1.1207,0.2266,-3.7544,2291
19,-0.2778,-0.4797,-0.3999,1.1613,0.5565,-4.0032,1931
19,-0.2744,-0.8281,-0.5811,1.3131,1.2924,-3.4126,1900
19,1.9207,-0.4001,-1.1431,0.706,-0.4546,-3.9257,2145
19,1.9999,1.4277,1.9999,4.3634,-3.4529,-4.3635,2359
19,-2.0,-0.8096,-1.0601,0.0921,3.8763,-1.9064,1299
19,1.9999,-2.0,-0.7908,1.8799,-0.2562,-0.8951,2617
19,0.6309,-0.5869,-0.5964,1.7717,-0.2711,-0.9449,1956
19,-0.0215,-1.3369,-0.23,2.1628,0.8178,-0.2246,1885
19,1.1697,-0.6533,-0.4106,3.1243,0.6707,1.2491,2032
19,1.0552,-0.2417,-0.7173,3.2724,0.3474,1.3937,2021
19,0.8118,-0.1665,-0.634,3.7009,-0.006,1.1949,2143
19,0.5283,-0.3516,-0.7068,3.7374,-0.0197,0.9355,1952
19,0.3933,-0.2732,-0.5337,3.5488,0.1538,0.9328,2004
19,0.6765,-0.0869,-0.1638,3.3327,0.1919,1.0512,1933
19,0.811,-0.052,-0.1377,2.9494,0.3718,1.146,2042
19,0.655,0.0139,-0.1467,2.7522,0.5709,1.0115,2066
19,0.5535,0.0601,-0.1084,2.6163,0.7344,1.0363,2052
19,0.4541,0.0032,-0.0334,2.4289,0.8955,1.2354,2098
19,0.2644,-0.1387,-0.2078,2.0435,1.1637,1.2749,2019
19,0.1921,-0.2305,-0.2778,1.7825,1.3026,1.2328,2072
19,-0.0457,-0.1011,-0.2227,1.6522,1.4761,1.1256,2039
19,-0.1526,0.0076,-0.0952,1.5324,1.5294,1.1279,2015
19,-0.2949,0.1079,-0.0042,1.5302,1.5067,0.8853,2049
19,-0.3689,0.2139,0.0515,1.6831,1.5074,0.5794,2053
19,-0.4719,0.3076,-0.0022,2.0202,1.234,0.2818,2044
20,-0.583,0.3083,-0.1045,2.133,0.5529,0.2446,2058
20,-0.7642,0.1084,-0.4302,1.9647,-0.0154,0.308,2058
20,-0.9031,-0.1555,-0.6965,1.8584,-0.3793,0.3076,2070
20,-1.0266,-0.3247,-0.8062,1.7134,-0.4243,0.5512,2095
20,-1.2373,-0.4561,-0.7854,1.9247,-0.5757,0.7502,2069
20,-1.54,-0.7708,-0.6743,2.157,-0.7187,0.7634,2059
20,-2.0,-1.4106,-0.5159,2.0696,-0.151,0.8693,2057
20,-2.0,-2.0,-0.4224,0.8985,1.2837,0.9568,2049
20,-2.0,-2.0,-0.4011,-0.3932,2.7711,1.5952,2067
20,-2.0,-2.0,-0.2253,-1.126,3.7601,2.0947,2049
20,-1.647,-1.8223,-0.0308,-1.5986,3.9321,1.9305,2021
20,-1.0879,-1.7417,-0.0457,-1.7777,4.2933,1.6705,2006
20,-0.9099,-1.8743,0.0364,-1.9326,3.9218,1.6398,2009
20,-1.0134,-2.0,-0.0867,-2.3317,3.1991,1.852,2050
20,-0.9226,-2.0,-0.2449,-2.4939,2.5001,1.9884,2055
20,-0.7083,-2.0,-0.0959,-2.83,2.1578,2.2126,2096
20,-0.5669,-2.0,0.0671,-3.3649,1.6787,2.3589,2053
20,-0.3499,-2.0,0.1206,-3.7378,1.1419,2.2977,2061
20,-0.1509,-2.0,0.2029,-3.921,0.0947,2.1192,2016
20,0.0271,-1.9397,0.3105,-3.9863,-0.539,2.0188,2031
20,-0.0696,-1.988,0.2317,-4.1014,-0.8685,1.9061,2027
20,-0.2302,-2.0,0.0686,-4.249,-0.9987,1.8361,2054
20,-0.1982,-2.0,0.0476,-4.2909,-1.0893,1.7919,2103
20,-0.0859,-2.0,-0.1035,-4.3635,-1.0296,1.8239,2035
20,-0.1372,-2.0,-0.2598,-4.3635,-0.8352,1.8965,2042
20,-0.2454,-2.0,-0.3726,-4.3635,-0.5653,1.9438,2024
20,-0.3311,-1.8796,-0.2898,-4.3635,-0.6288,2.0537,2048
20,-0.2742,-1.6663,-0.3857,-4.3445,-0.6489,2.2356,2025
20,-0.2651,-1.5471,-0.4001,-4.1524,-0.4994,2.3384,2057
20,-0.2627,-1.4263,-0.4509,-3.956,-0.5454,2.2972,2036
20,-0.3096,-1.353,-0.4238,-3.8443,-0.544,2.2897,2064
20,-0.282,-1.2539,-0.5115,-3.6973,-0.4225,2.1078,2042
20,-0.2185,-1.1711,-0.5208,-3.4549,-0.455,1.9289,2047
20,-0.199,-1.155,-0.5923,-3.3857,-0.5171,1.7811,2072
20,-0.2437,-1.1738,-0.679,-3.3585,-0.7296,1.7279,2078
20,-0.3269,-1.1646,-0.7371,-3.2194,-0.9686,1.7536,2022
20,-0.3501,-1.0708,-0.7288,-3.0961,-0.9321,1.78,2062
20,-0.446,-1.0171,-0.6677,-3.036,-0.6806,1.8176,2046
20,-0.4397,-0.9885,-0.6541,-3.0311,-0.3836,1.8411,2111
20,-0.3516,-0.9309,-0.6313,-2.9035,-0.2366,1.7078,2074
20,-0.2366,-0.8638,-0.6768,-2.7882,0.1013,1.476,2043
20,-0.2249,-0.75,-0.7156,-2.7165,0.3079,1.2206,2034
20,-0.2773,-0.7214,-0.6665,-2.3534,0.2456,0.9461,2110
20,-0.3083,-0.6135,-0.6143,-2.0616,0.2803,0.8617,2043
20,-0.3801,-0.5059,-0.689,-1.6904,0.4992,0.8276,2080
20,-0.4241,-0.4902,-0.6912,-1.4181,0.4199,0.7992,2024
20,-0.3857,-0.45,-0.7263,-1.1415,0.4307,0.7014,2064
20,-0.4009,-0.3555,-0.7163,-0.6827,0.3566,0.4184,2106
20,-0.3845,-0.3889,-0.6765,-0.6175,0.3201,0.2242,1951
20,-0.4395,-0.3909,-0.4734,-0.125,0.057,-0.2832,2129
20,-0.48,-0.3772,-0.6943,0.2041,0.2025,-0.728,1970
20,-0.582,-0.4519,-0.5781,0.5529,0.0782,-1.2013,1956
20,-0.5525,-0.5352,-0.5786,0.8107,0.2024,-1.4019,2130
20,-0.4475,-0.6245,-0.8064,0.9395,0.076,-1.5601,2153
20,-0.2524,-0.8159,-0.8953,1.124,-0.3493,-1.7502,1804
20,-0.2996,-1.0667,-0.8979,1.281,-0.4141,-1.8915,2108
20,-0.6104,-1.1846,-0.9111,1.3581,-0.3484,-2.0631,2044
20,-0.8269,-1.1763,-1.0347,1.4284,-0.0916,-2.2676,2079
20,-0.907,-1.155,-1.1299,1.4637,0.1571,-2.4864,2073
20,-0.9404,-1.2117,-1.1479,1.3994,0.2418,-2.684,2013
20,-0.9751,-1.1965,-1.2568,1.4015,0.4104,-2.8738,2024
20,-0.9575,-1.1809,-1.2817,1.5238,0.3241,-3.0544,2172
20,-1.0361,-1.2637,-1.365,1.5488,0.2185,-3.267,1964
20,-1.1216,-1.2261,-1.3867,1.6876,0.1669,-3.4639,1929
20,-1.1978,-1.043,-1.3362,1.8433,0.0328,-3.5844,2032
20,-1.1731,-1.1401,-1.3606,2.056,0.028,-3.6557,2052
20,-1.1667,-1.1919,-1.3418,2.2356,-0.0138,-3.6882,1995
20,-1.1125,-1.2341,-1.3447,2.4771,0.0033,-3.6664,1899
20,-1.24,-1.2275,-1.3364,2.6745,0.1334,-3.5796,1832
20,-1.1287,-1.1597,-1.3901,2.8952,0.0969,-3.5387,2005
20,-1.0693,-0.9919,-1.2654,3.0099,0.0774,-3.4685,2071
20,-1.0894,-0.8154,-1.2236,3.0361,0.1165,-3.585,2099
20,-1.0107,-0.6299,-1.2451,3.0293,0.1392,-3.6541,2020
20,-1.0151,-0.7,-1.126,2.838,0.4647,-3.6197,2042
20,-1.0386,-0.4456,-1.1006,2.6582,0.8556,-3.5545,2010
20,-0.7917,-0.1616,-0.8179,2.3546,0.8504,-3.3389,2052
20,-0.729,-0.5217,-0.9758,1.5472,1.1818,-3.0713,2070
20,-0.2488,-0.3594,-0.3684,1.5435,0.9283,-2.9947,2105
20,-0.4177,-0.2542,-0.5725,1.7089,1.2889,-2.8564,2027
20,-0.1428,-0.6858,-0.6667,1.7183,1.0812,-2.4135,2037
20,1.7026,0.3074,-0.5271,1.0314,-0.3663,-3.389,2099
20,1.9999,0.2593,0.8657,2.4681,-1.5929,-4.3635,2371
20,-2.0,-0.4075,-1.9131,0.7417,1.7235,-4.3635,1530
20,1.0366,-2.0,-0.1184,2.2442,-0.0178,0.1362,2473
20,0.9609,-1.8,-0.6111,1.7191,1.5259,-0.2143,2117
20,0.3667,-1.3459,0.2251,2.7866,-0.9718,0.5775,1906
20,0.6018,-1.2888,-0.1638,3.2752,0.2212,0.7747,2001
20,0.4246,-0.5559,-0.2183,3.7965,-0.0952,1.3121,1992
20,0.7173,0.0786,-0.1077,4.3634,-0.1704,1.71,2021
20,0.8213,0.0769,0.1511,4.3634,-0.5071,1.2346,2162
20,0.2739,-0.1782,-0.189,4.3634,-0.6248,1.3519,1988
20,0.177,-0.342,-0.3545,3.7713,-0.534,1.2362,2119
20,0.1116,-0.1721,-0.0854,3.0985,-0.2816,1.4062,1910
20,0.2424,0.0232,0.3049,2.6306,0.2607,1.3988,1989
20,0.2285,0.0793,0.375,2.5097,0.6461,1.1599,1987
20,0.2856,0.0149,0.3748,2.3641,0.6654,1.0215,2061
20,0.2993,-0.1333,0.0864,2.0443,0.5381,1.0997,2082
20,0.2307,-0.2312,-0.2522,1.586,0.3445,0.9276,2074
20,0.0659,-0.1948,-0.355,1.1674,0.405,0.7843,2051
20,0.0332,-0.0425,-0.21,0.8596,0.6746,0.6859,2037
20,-0.2434,0.2241,-0.1045,1.119,0.9159,0.3101,2035
20,-0.2856,0.3594,-0.0073,1.3089,0.9032,0.0121,2044
20,-0.3618,0.3066,-0.1147,1.3719,0.6403,-0.2305,2053
21,-0.4785,0.1909,-0.3491,1.2384,0.5592,-0.1981,2046
21,-0.658,0.0247,-0.4934,1.1561,0.3904,-0.068,2063
21,-0.7617,-0.145,-0.5662,1.172,0.0852,0.0883,2063
21,-0.7935,-0.3296,-0.7046,1.3758,-0.0672,0.1513,2072
21,-0.928,-0.4907,-0.6548,1.5194,-0.3273,0.3267,2050
21,-1.1667,-0.7332,-0.7068,1.5372,-0.5295,0.5472,2032
21,-1.4187,-1.0681,-0.8218,1.4547,-0.0571,0.8869,2063
21,-2.0,-1.6855,-0.752,1.0099,0.9815,1.3127,2073
21,-2.0,-2.0,-0.5229,0.2398,1.7871,1.1809,2066
21,-2.0,-2.0,-0.4211,-0.9584,2.7329,1.4458,2078
21,-1.8267,-1.9587,-0.4224,-1.4857,3.6268,1.6026,2032
21,-1.3999,-1.8994,-0.1472,-1.8279,4.0675,1.5748,2057
21,-1.2522,-2.0,-0.0442,-2.5205,4.3032,1.6225,2068
21,-1.082,-2.0,-0.2449,-2.7168,3.8178,2.0011,2066
21,-0.6052,-2.0,-0.248,-2.5245,2.6357,2.1839,2027
21,-0.2095,-2.0,0.1367,-2.8883,1.702,2.0081,2054
21,-0.3125,-2.0,0.1814,-3.4544,1.0336,1.9742,2021
21,-0.2908,-2.0,0.1665,-3.8331,0.2535,1.9911,1990
21,-0.1401,-2.0,0.2881,-4.0704,-0.4303,2.0341,2021
21,-0.0261,-2.0,0.4138,-4.0988,-0.9115,1.898,2015
21,-0.1284,-2.0,0.2778,-4.1437,-0.7102,1.6512,2032
21,-0.1428,-2.0,0.1826,-4.1263,-0.6208,1.5815,2032
21,-0.1282,-2.0,0.022,-4.3546,-0.5911,1.5242,2025
21,-0.1958,-2.0,-0.2112,-4.3635,-0.4229,1.6013,2042
21,-0.2661,-2.0,-0.2471,-4.3635,-0.5028,1.6897,2035
21,-0.2749,-1.8638,-0.2795,-4.3635,-0.8198,1.7907,2043
21,-0.3062,-1.6384,-0.3643,-4.3426,-0.8602,1.8873,2124
21,-0.3735,-1.479,-0.384,-4.2389,-0.9103,1.8792,2078
21,-0.4102,-1.3157,-0.5286,-4.0054,-1.0139,1.7924,2039
21,-0.4216,-1.2375,-0.5852,-3.8785,-0.9468,1.7253,2073
21,-0.4365,-1.2268,-0.6309,-3.8637,-0.8108,1.6394,2041
21,-0.4382,-1.1721,-0.6323,-3.693,-0.871,1.5836,1968
21,-0.3657,-1.0676,-0.5862,-3.4762,-0.9938,1.7085,2023
21,-0.2808,-0.9585,-0.6851,-3.4834,-0.865,1.8209,2055
21,-0.2456,-0.8977,-0.7119,-3.3902,-0.801,1.7919,2027
21,-0.2805,-0.938,-0.7415,-3.3236,-0.6102,1.7321,2041
21,-0.2773,-0.9478,-0.679,-3.2459,-0.2301,1.6447,2095
21,-0.1843,-0.8262,-0.6521,-3.2399,0.1021,1.5581,2125
21,-0.1826,-0.6975,-0.7202,-2.934,0.2637,1.3841,2060
21,-0.1423,-0.6157,-0.8108,-2.7943,0.5654,1.2545,2071
21,-0.1899,-0.5962,-0.7632,-2.6136,0.6173,1.1864,2061
21,-0.2168,-0.5161,-0.7258,-2.3798,0.4361,1.1821,2005
21,-0.2637,-0.384,-0.6541,-1.9816,0.4815,1.1794,2019
21,-0.2998,-0.3096,-0.6128,-1.6563,0.5086,1.2346,2034
21,-0.3818,-0.2712,-0.5977,-1.2953,0.3878,1.172,2003
21,-0.2686,-0.3662,-0.5879,-1.1686,0.3434,0.976,2089
21,-0.365,-0.3994,-0.7183,-0.6899,0.035,0.3919,2034
21,-0.459,-0.4031,-0.7231,-0.2088,-0.0425,-0.0836,2082
21,-0.4966,-0.4163,-0.5542,0.1679,-0.21,-0.3532,2044
21,-0.4514,-0.4758,-0.426,0.5896,-0.1977,-0.6602,2114
21,-0.4851,-0.5715,-0.4521,1.0235,-0.3607,-1.1062,2055
21,-0.5996,-0.8193,-0.5488,1.4157,-0.4203,-1.566,2013
21,-0.6262,-1.0891,-0.6509,1.5263,-0.5947,-1.9202,2032
21,-0.6021,-1.2893,-0.8027,1.5396,-0.6079,-2.282,2174
21,-0.8333,-1.2683,-0.8728,1.5728,-0.5635,-2.7292,2110
21,-1.021,-1.324,-1.0112,1.4543,-0.4801,-3.1163,2082
21,-1.0569,-1.4238,-1.1895,1.495,-0.1792,-3.3358,2031
21,-1.1345,-1.4514,-1.217,1.5327,-0.0013,-3.4794,2061
21,-1.188,-1.4219,-1.2522,1.5282,0.0651,-3.7033,2035
21,-1.2356,-1.3643,-1.314,1.5308,0.1896,-3.8809,2099
21,-1.1924,-1.2009,-1.3271,1.6138,0.1738,-3.9472,1950
21,-1.093,-1.0979,-1.3064,1.6815,0.1638,-3.9819,2089
21,-1.1055,-1.1162,-1.2683,1.829,0.161,-3.9354,2104
21,-1.0542,-1.0886,-1.1833,1.9674,0.21,-3.8908,1980
21,-0.9587,-1.012,-1.1692,2.151,0.1571,-3.8231,2097
21,-0.946,-0.8767,-1.1292,2.2979,0.2835,-3.69,2057
21,-0.8672,-0.7932,-1.1279,2.4432,0.2494,-3.5644,2121
21,-0.9004,-0.6541,-1.1199,2.5211,0.261,-3.5523,1930
21,-0.9402,-0.4521,-0.9373,2.5019,0.267,-3.5252,1924
21,-0.8755,-0.4055,-0.8921,2.1635,0.3049,-3.4087,1923
21,-0.7036,-0.1606,-0.6646,2.0098,0.1228,-3.3093,2148
21,-0.8496,0.0908,-0.5295,1.7498,0.2674,-3.221,1998
21,-0.7024,-0.1604,-0.5718,1.3844,0.4771,-3.0818,2050
21,-0.4678,-0.4368,-0.6885,0.6114,0.8336,-2.8476,2050
21,-0.0623,-0.1155,-0.6252,0.1374,0.9019,-2.761,2135
21,0.1877,-0.0325,-0.4214,-0.1186,0.9873,-2.906,2085
21,0.2119,-0.0723,-0.3225,0.0622,0.8572,-2.4699,2073
21,1.9744,0.4092,-0.1277,-0.1565,-0.816,-3.2573,1967
21,1.9999,0.2754,1.0476,2.9534,-1.6528,-4.3635,2330
21,-2.0,-2.0,-2.0,-0.8877,3.0047,-1.411,1322
21,1.9999,-2.0,-0.3252,1.5676,-0.1685,-1.5151,2653
21,0.2769,-2.0,-1.3247,1.24,2.0871,-1.18,1867
21,0.3152,-1.5801,-0.7537,1.8813,-0.135,-0.0241,2025
21,0.7449,-0.4114,-0.4292,2.7468,0.775,0.5566,1995
21,0.5869,0.0054,-0.5803,2.8445,-0.1997,1.4703,1974
21,0.6101,-0.093,-0.5161,3.0116,-0.3473,1.8563,2032
21,0.5383,-0.2859,-0.4331,2.8666,-0.9224,1.8642,2014
21,0.3958,-0.439,-0.302,2.9424,-1.1981,1.9623,2045
21,0.395,-0.6692,-0.2917,2.81,-1.2769,1.8563,2046
21,0.4529,-0.8135,-0.3096,2.5699,-1.0507,1.6599,2060
21,0.3962,-0.8989,-0.3865,2.1672,-0.5596,1.4882,2100
21,0.6287,-0.8284,-0.428,1.695,-0.077,1.3888,2100
21,0.3916,-0.8418,-0.438,1.4131,0.4952,1.1444,2070
21,0.3721,-0.8467,-0.3398,1.2432,0.8409,1.1102,2014
21,0.3682,-0.8801,-0.3623,0.9605,1.1117,0.9769,2012
21,0.3237,-0.9348,-0.4338,0.662,1.3054,1.0468,2014
21,0.3306,-0.9875,-0.4343,0.4963,1.4723,0.9409,2024
21,0.2996,-1.0024,-0.4656,0.3276,1.6828,0.9919,2033
21,0.2908,-1.0154,-0.4612,0.2566,1.6683,0.9565,2030
