Timestamp,Ax,Ay,Az,Rx,Ry,Rz,EMG
0,1.0686,-0.2786,-0.3806,1.2484,-1.6788,1.2302,2036
0,1.0972,-0.3145,-0.3743,1.4085,-1.7367,1.1648,2036
0,1.2505,-0.3423,-0.3711,1.4611,-1.6483,1.1609,2045
0,1.3933,-0.3486,-0.4187,1.4213,-1.3242,1.2376,2018
0,1.4949,-0.3611,-0.5039,1.3667,-0.8839,1.3741,2046
0,1.5024,-0.4006,-0.616,1.4514,-0.4888,1.4197,2031
0,1.4338,-0.4314,-0.6284,1.5067,-0.3089,1.3154,2043
0,1.3887,-0.4653,-0.646,1.4864,-0.2294,1.128,2028
0,1.4036,-0.5056,-0.6675,1.3974,0.0036,0.889,2049
0,1.3931,-0.5093,-0.7395,1.3595,0.3906,0.5911,2040
0,1.384,-0.5552,-0.7986,1.3435,0.764,0.2638,2034
0,1.3818,-0.5911,-0.8152,1.3015,0.9207,-0.08,2032
0,1.4534,-0.6472,-0.7737,1.1696,0.7672,-0.3329,2047
0,1.5227,-0.6501,-0.7349,0.9537,0.5494,-0.595,2036
0,1.5574,-0.6223,-0.6941,0.7538,0.4589,-0.8931,2036
0,1.5393,-0.5986,-0.6753,0.5273,0.3738,-1.2274,2060
0,1.4683,-0.5352,-0.6677,0.3749,0.2491,-1.5745,2043
0,1.4185,-0.4856,-0.6704,0.1993,0.1712,-1.9033,2014
0,1.4023,-0.4597,-0.6802,0.043,0.1539,-2.2586,2037
0,1.3474,-0.439,-0.7354,-0.0945,0.1639,-2.5639,2044
0,1.2888,-0.4124,-0.7751,-0.2149,0.1784,-2.7818,2039
0,1.1895,-0.408,-0.8281,-0.2836,0.2603,-2.9737,2035
0,1.1714,-0.4114,-0.8628,-0.3553,0.3675,-3.1259,2014
0,1.116,-0.4441,-0.8601,-0.4598,0.3706,-3.3112,2023
0,1.0393,-0.4602,-0.8538,-0.6076,0.2875,-3.468,2034
0,0.9741,-0.4614,-0.8652,-0.7905,0.3321,-3.6255,2048
0,0.9971,-0.4075,-0.8745,-0.9461,0.4605,-3.7427,1968
0,0.99,-0.3406,-0.9102,-1.0417,0.5733,-3.8344,2048
0,0.9358,-0.3127,-0.8899,-1.1451,0.6209,-3.9396,2033
0,0.9126,-0.2749,-0.8567,-1.3291,0.6235,-3.9644,2034
0,0.8982,-0.2842,-0.8875,-1.5306,0.6476,-4.0299,2044
0,0.8516,-0.2612,-0.8606,-1.7514,0.5801,-4.0238,2059
0,0.7803,-0.2578,-0.8679,-2.0126,0.5217,-4.0586,2041
0,0.6938,-0.2236,-0.8762,-2.0988,0.4629,-4.1036,2018
0,0.6206,-0.2349,-0.8445,-2.1051,0.4207,-4.1246,2033
0,0.5972,-0.1782,-0.7795,-2.2236,0.3263,-4.1638,2056
0,0.5947,-0.1511,-0.7656,-2.3206,0.2685,-4.1128,2047
0,0.614,-0.157,-0.7842,-2.2936,0.2758,-3.8787,2052
0,0.5911,-0.0925,-0.741,-2.2977,0.3057,-3.6479,2037
0,0.6152,-0.0833,-0.7603,-2.2107,0.1691,-3.3356,2056
0,0.5413,-0.0513,-0.7112,-2.1363,-0.0559,-2.9628,2043
0,0.5269,-0.0044,-0.665,-2.1824,-0.1744,-2.6197,2049
0,0.4519,0.0996,-0.6355,-2.23,-0.1963,-2.373,2031
0,0.3853,0.239,-0.5747,-2.2663,-0.1065,-2.1562,2002
0,0.3301,0.4216,-0.5632,-2.2289,-0.0708,-1.9439,2072
0,0.3584,0.541,-0.5208,-2.2593,-0.0425,-1.7796,2058
0,0.3213,0.6458,-0.501,-2.2261,0.029,-1.6057,1994
0,0.3096,0.7537,-0.415,-2.1925,0.2029,-1.452,2054
0,0.3481,0.7734,-0.353,-2.2254,0.2686,-1.2979,2037
0,0.3628,0.7717,-0.3323,-2.3119,0.1621,-1.0931,2123
0,0.3577,0.7734,-0.3018,-2.3972,0.0968,-0.9218,2038
0,0.3645,0.7988,-0.2808,-2.4344,0.102,-0.6863,2081
0,0.4011,0.7686,-0.2288,-2.4687,0.163,-0.3739,1839
0,0.3464,0.7058,-0.1985,-2.5943,0.3561,-0.0539,2071
0,0.2014,0.6304,-0.2405,-2.5316,0.5337,0.1475,1979
0,0.1685,0.5862,-0.3018,-2.4041,0.6901,0.276,2113
0,0.156,0.5051,-0.3315,-2.3264,0.6489,0.4022,2119
0,0.1917,0.4465,-0.3147,-2.2856,0.512,0.5662,2067
0,0.1831,0.4243,-0.3022,-2.1912,0.2312,0.7462,2060
0,0.1909,0.3857,-0.2629,-2.031,-0.127,0.9263,2073
0,0.2058,0.3484,-0.1694,-2.023,-0.3337,1.1773,2082
0,0.1807,0.3311,-0.1726,-2.0232,-0.3831,1.4071,1814
0,0.1274,0.3245,-0.1631,-1.8732,-0.2888,1.5615,2139
0,0.123,0.2988,-0.1326,-1.7337,-0.3914,1.6293,2050
0,0.3418,0.2537,0.0386,-1.7916,-0.6229,1.6819,2063
0,0.6067,0.3677,0.0002,-1.8915,-1.3091,1.7171,2037
0,0.3923,0.4897,-0.1316,-1.6094,-2.0747,1.9813,2064
0,0.4885,0.4478,-0.1401,-1.1834,-2.6609,2.1326,2055
0,0.4294,0.4077,-0.1174,-0.9574,-2.4936,2.1403,1931
0,0.4395,0.5327,-0.1038,-0.6554,-1.9542,2.0132,2072
0,0.6094,0.5996,-0.0283,-0.657,-1.4506,1.9752,2101
0,0.4714,0.4231,-0.2935,-0.6052,-1.2387,1.9888,1873
0,0.4353,0.4683,-0.292,-0.5042,-1.3198,2.0,2061
0,0.4871,0.5117,-0.2046,-0.4568,-1.7016,2.1819,2146
0,1.0027,0.3906,0.0581,0.1185,-2.2917,2.4429,1929
0,1.4028,0.6343,0.0713,0.768,-2.7675,2.0477,2177
0,1.9999,1.2495,-0.3298,1.8924,-3.743,-1.4459,2004
0,1.9999,-0.1575,-0.312,1.4858,-1.9832,-4.3635,1919
0,0.3762,-0.0869,-0.2451,0.9102,1.0501,-4.3635,1947
0,0.2419,0.6958,-0.436,0.2856,-0.8851,-2.5924,1986
0,1.021,0.6541,-0.8401,0.1133,-2.4691,-1.4577,2041
0,0.8257,1.0647,-0.2024,0.512,-1.1194,-1.1752,2119
0,0.1741,0.9473,-0.2773,-0.173,-0.4721,-1.2147,2022
0,0.5718,1.1077,-0.5801,-0.0692,-1.0572,-1.2505,1955
0,0.7185,1.0227,-0.2827,-0.085,-0.5718,-1.4929,2037
0,0.7263,0.9824,-0.021,-0.2095,-0.1663,-1.5498,2082
0,0.6421,1.021,-0.0063,-0.242,-0.03,-1.2902,1998
0,0.8091,0.9946,-0.0979,-0.194,0.0113,-1.1065,1999
0,0.9431,0.9602,-0.2498,-0.1044,0.1697,-1.1399,2052
0,0.9885,0.958,-0.3164,0.0005,0.3031,-1.1069,2008
0,0.8784,0.8562,-0.3782,0.0633,0.4201,-0.9455,2067
0,0.6262,0.7759,-0.3691,0.0067,0.4827,-0.7536,2050
0,0.5767,0.8398,-0.3601,0.0228,0.4839,-0.6862,1946
0,0.5039,0.8804,-0.3857,0.0702,0.5986,-0.7357,1853
0,0.5037,0.8398,-0.4631,0.2032,0.4871,-0.7493,2024
0,0.5334,0.783,-0.4531,0.2489,0.2904,-0.8573,2016
0,0.5095,0.74,-0.4067,0.3059,0.326,-0.8881,2025
0,0.4412,0.6931,-0.3979,0.3153,0.2731,-0.8147,2060
0,0.4888,0.6541,-0.4417,0.3855,0.225,-0.7545,2064
0,0.4775,0.615,-0.4502,0.4225,0.1451,-0.7417,2064
0,0.3821,0.54,-0.4648,0.4384,0.119,-0.7187,2053
0,0.3506,0.5229,-0.4351,0.3723,0.1621,-0.6036,2041
0,0.5898,0.6909,-0.4707,0.4866,0.0838,-0.3103,1986
1,0.6396,0.7598,-0.4944,0.6135,0.0077,-0.1831,2103
1,0.6436,0.8098,-0.5083,0.6855,-0.1354,-0.1274,2019
1,0.6643,0.8203,-0.4954,0.7504,-0.2867,-0.0059,1970
1,0.6653,0.793,-0.4829,0.8203,-0.3566,0.0907,1918
1,0.613,0.9197,-0.4182,0.8833,-0.4978,0.2589,2031
1,0.7153,0.8931,-0.3796,0.9441,-0.5819,0.3368,2060
1,0.657,0.8618,-0.2927,0.963,-0.717,0.3895,2045
1,0.6663,0.7629,-0.2979,0.7309,-0.872,0.5092,1964
1,0.6758,0.8542,-0.4871,0.6064,-1.0696,0.632,2035
1,0.5752,0.8027,-0.5813,0.4757,-1.105,0.8003,2025
1,0.5569,0.8025,-0.6526,0.2444,-1.1021,1.0662,2015
1,0.5781,0.8691,-0.6582,0.3356,-1.1816,1.3632,2026
1,0.6633,0.8689,-0.5261,0.5133,-1.1242,1.489,2060
1,0.4482,0.6584,-0.5298,0.439,-0.9827,1.5858,2042
1,0.47,0.6523,-0.6155,0.3412,-1.0595,1.7636,2090
1,0.5381,0.6716,-0.5793,0.4036,-1.1263,1.8587,2062
1,0.3257,0.5081,-0.4717,0.502,-1.0662,1.8046,2059
1,0.2761,0.5234,-0.4429,0.7825,-1.1316,1.6965,2047
1,0.3994,0.5876,-0.4866,0.7818,-1.1929,1.711,2029
1,0.4365,0.5083,-0.5908,0.7312,-1.3495,1.6904,2019
1,0.5425,0.5176,-0.5408,0.6297,-1.2681,1.6552,2069
1,0.5374,0.561,-0.5303,0.5645,-1.2046,1.551,2014
1,0.519,0.53,-0.5435,0.4378,-1.2552,1.4134,2028
1,0.4814,0.4753,-0.605,0.393,-1.4085,1.2986,2023
1,0.5374,0.3743,-0.53,0.4437,-1.5287,1.1501,2056
1,0.4668,0.3081,-0.7336,0.2067,-1.6809,0.9927,2038
1,0.4326,0.3403,-0.8506,0.0093,-1.8656,0.8901,2056
1,0.5281,0.3875,-0.802,-0.0558,-1.9739,0.7336,2057
1,0.592,0.4143,-0.678,0.0595,-1.9963,0.4729,2038
1,0.571,0.3691,-0.6345,-0.0866,-1.8924,0.2553,2034
1,0.6106,0.3193,-0.6997,-0.0927,-2.0168,0.1236,2029
1,0.7146,0.2837,-0.6543,-0.2103,-2.0112,-0.0514,2057
1,0.6936,0.2805,-0.7395,-0.4891,-1.9896,-0.1386,1987
1,0.6594,0.3403,-0.6899,-0.6142,-1.9586,-0.1084,2051
1,0.6924,0.4067,-0.5957,-0.795,-1.7704,-0.1711,2052
1,0.6606,0.4412,-0.5994,-0.8046,-1.7058,-0.1992,2032
1,0.6619,0.4155,-0.6187,-0.8783,-1.5399,-0.2662,2035
1,0.6382,0.4321,-0.6902,-0.9633,-1.4119,-0.3048,2036
1,0.6223,0.4465,-0.7656,-1.2126,-1.2199,-0.3192,2034
1,0.6199,0.4863,-0.8083,-1.3838,-1.0834,-0.2705,2024
1,0.6421,0.4822,-0.7825,-1.3556,-1.003,-0.2594,2077
1,0.7134,0.5989,-0.6719,-1.1503,-0.9419,-0.3318,2005
1,0.614,0.6177,-0.7209,-1.0065,-0.909,-0.3017,1991
1,0.7319,0.5525,-0.8225,-0.8706,-1.0481,-0.2089,2095
1,0.6084,0.4099,-0.9219,-1.2067,-0.9709,-0.1244,2005
1,0.6892,0.5012,-0.8274,-0.9613,-1.1146,0.0354,2044
1,0.6992,0.5015,-0.7065,-0.9661,-0.9147,-0.0929,1888
1,0.4651,0.4509,-0.7908,-1.2103,-0.7733,0.0217,1920
1,0.6133,0.4934,-0.8574,-1.2332,-0.8276,0.1087,2000
1,0.6528,0.4946,-0.7937,-1.3852,-0.6899,0.1097,2033
1,0.6675,0.5701,-0.5947,-0.8424,-0.7857,0.1171,2065
1,0.6316,0.6104,-0.5344,-0.6846,-0.5725,-0.0631,2033
1,0.4558,0.4653,-0.7549,-0.8284,-0.5113,0.0968,2069
1,0.6431,0.4951,-0.8203,-0.8799,-0.4846,0.1398,2041
1,0.7288,0.6453,-0.8687,-0.9738,-0.4401,0.1346,2039
1,0.5522,0.6084,-0.6343,-0.8103,-0.4168,0.2017,2025
1,0.6211,0.6843,-0.624,-0.7727,-0.4337,0.1589,2063
1,0.5835,0.5947,-0.6987,-0.7477,-0.4187,0.1867,1916
1,0.6431,0.5793,-0.6951,-0.6107,-0.4249,0.2065,1994
1,0.6682,0.697,-0.6409,-0.7264,-0.3132,0.1875,2046
1,0.5696,0.5845,-0.7236,-0.7004,-0.3104,0.2352,2066
1,0.6946,0.6748,-0.6125,-0.4619,-0.4225,0.1875,2051
1,0.626,0.6404,-0.5623,-0.3441,-0.231,0.0706,2043
1,0.5481,0.6294,-0.6924,-0.4854,-0.2127,0.2164,2018
1,0.6396,0.6064,-0.7944,-0.4966,-0.2714,0.1739,2129
1,0.658,0.6985,-0.5549,-0.5287,-0.1033,0.1699,2048
1,0.5649,0.6511,-0.5557,-0.3864,-0.0691,0.1296,2064
1,0.6355,0.7297,-0.5764,-0.2163,-0.036,0.0876,2069
1,0.5076,0.5952,-0.5583,-0.1846,0.0614,0.0587,2069
1,0.5442,0.5513,-0.6685,-0.385,0.1538,0.068,2071
1,0.5088,0.5857,-0.667,-0.4243,0.1574,0.1541,2019
1,0.6362,0.7388,-0.6221,-0.285,0.1578,0.145,2056
1,0.6011,0.6936,-0.542,-0.0651,0.1836,0.0969,1970
1,0.4707,0.5671,-0.5674,-0.1948,0.3041,0.0684,1965
1,0.6064,0.6775,-0.635,-0.1176,0.1775,0.1726,2053
1,0.6213,0.6731,-0.6604,-0.2007,0.2033,0.1991,1997
1,0.6157,0.7102,-0.6121,-0.187,0.0754,0.2413,2056
1,1.0452,1.01,-0.7788,0.2956,-0.1888,0.344,2074
1,0.4373,0.6008,-0.6047,0.1681,0.2012,0.1308,2061
1,0.4897,0.6719,-0.7246,0.2372,0.0866,0.1554,1990
1,0.519,0.6694,-0.7808,0.1491,0.0758,0.1517,2046
1,0.5176,0.7258,-0.7737,0.1662,0.0162,0.1454,2087
1,0.4802,0.7559,-0.7703,0.2561,-0.0621,0.1792,2054
1,0.5173,0.7861,-0.7537,0.4014,-0.1425,0.1113,2043
1,0.5322,0.7852,-0.781,0.4093,-0.1674,0.0796,2030
1,0.5693,0.8188,-0.8508,0.3065,-0.2755,0.0675,2027
1,0.5691,0.8118,-0.8945,0.1826,-0.3156,0.0545,2062
1,0.5591,0.8264,-0.791,0.2396,-0.2545,0.0246,2042
1,0.552,0.8333,-0.7446,0.3522,-0.0816,-0.0297,2072
1,0.5178,0.8113,-0.8213,0.4002,0.0578,-0.0633,2030
1,0.635,0.8574,-0.9392,0.3396,0.0874,-0.0686,2062
1,0.4324,0.7173,-0.9504,0.3121,0.1394,-0.1523,2037
1,0.2778,0.7795,-0.928,0.2484,0.2293,-0.176,2030
1,0.3037,0.897,-0.9814,0.3271,0.2402,-0.2253,2047
1,0.2471,0.8176,-1.0474,0.2326,0.3356,-0.3192,1967
1,0.2056,0.7771,-1.0693,0.1245,0.2992,-0.3265,2082
1,0.304,0.8413,-0.9111,0.348,0.2055,-0.4562,2045
1,0.2146,0.8022,-0.8247,0.3705,0.3429,-0.61,1993
1,0.1848,0.7446,-0.9099,0.1992,0.3237,-0.6269,2047
1,0.23,0.7522,-0.8486,0.2458,0.1265,-0.7276,2032
1,0.2722,0.7957,-0.667,0.4581,0.276,-0.8004,2041
1,0.1384,0.7048,-0.6199,0.4243,0.4345,-0.7616,2138
1,0.2185,0.6572,-0.7195,0.3524,0.3207,-0.7512,2030
2,0.2537,0.6931,-0.6941,0.3691,0.3103,-0.7661,2041
2,0.2297,0.6965,-0.6597,0.348,0.3852,-0.726,2007
2,0.2773,0.7285,-0.6396,0.4434,0.2802,-0.6239,1998
2,0.3618,0.7476,-0.6577,0.5417,0.2426,-0.6426,2076
2,0.3198,0.6926,-0.7258,0.5124,0.184,-0.5863,2029
2,0.3208,0.6384,-0.7974,0.4099,-0.0357,-0.508,2069
2,0.3293,0.616,-0.7581,0.3815,-0.1635,-0.4384,2044
2,0.2812,0.6309,-0.6179,0.4067,-0.0784,-0.3589,2060
2,0.2866,0.6523,-0.5498,0.5252,0.0105,-0.2928,2013
2,0.3337,0.5618,-0.6772,0.3783,0.1095,-0.2979,2032
2,0.3071,0.5093,-0.7019,0.2301,0.0236,-0.1852,2003
2,0.2703,0.627,-0.5737,0.2715,-0.0615,-0.1385,2008
2,0.1677,0.595,-0.4922,0.2511,0.231,-0.0983,2069
2,0.2439,0.6321,-0.5146,0.2936,0.2446,-0.1302,2028
2,0.2163,0.6006,-0.5723,0.2729,0.2301,-0.1601,2108
2,0.2554,0.604,-0.4875,0.2982,0.2257,-0.1065,2009
2,0.301,0.5774,-0.4739,0.3635,0.1566,-0.1178,2006
2,0.2361,0.6062,-0.4504,0.3366,0.3209,-0.1052,2019
2,0.2407,0.5813,-0.4666,0.2627,0.2822,-0.0862,2033
2,0.3271,0.6665,-0.5271,0.3068,0.2233,-0.0782,1961
2,0.2329,0.5837,-0.4756,0.2599,0.4089,-0.0754,2040
2,0.2441,0.5886,-0.4551,0.2972,0.4412,-0.0376,2079
2,0.3174,0.6455,-0.5808,0.3779,0.4815,-0.0121,2043
2,0.314,0.6062,-0.5684,0.4892,0.5252,0.0485,1984
2,0.3091,0.6118,-0.5361,0.3276,0.5064,0.0406,2026
2,0.259,0.6079,-0.5498,0.3108,0.5263,0.0065,2020
2,0.2737,0.5864,-0.5554,0.2759,0.4968,-0.0618,1973
2,0.3127,0.5664,-0.5955,0.3364,0.4468,0.0768,2060
2,0.2856,0.5608,-0.5732,0.2699,0.4526,0.01,2055
2,0.3765,0.7124,-0.5039,0.4453,0.4108,0.1088,2033
2,0.3945,0.7036,-0.5776,0.5247,0.4203,0.1043,1944
2,0.4016,0.6541,-0.6252,0.4878,0.3052,0.1629,1986
2,0.416,0.6921,-0.5754,0.5501,0.1204,0.2039,1985
2,0.4033,0.6907,-0.5349,0.5695,0.1778,0.2052,2075
2,0.363,0.6892,-0.5432,0.5285,0.2099,0.2635,2026
2,0.3787,0.7317,-0.5837,0.5878,0.1201,0.2739,2061
2,0.3643,0.7678,-0.5986,0.4878,0.2735,0.2804,2147
2,0.3704,0.7896,-0.6338,0.4593,0.2739,0.2975,1972
2,0.3716,0.822,-0.655,0.5137,0.2145,0.2991,2075
2,0.3411,0.8479,-0.6929,0.4265,0.2906,0.299,2060
2,0.3667,0.8474,-0.7878,0.4326,0.1278,0.2892,2057
2,0.4031,0.8992,-0.8669,0.5227,0.0543,0.2526,2085
2,0.4321,0.9448,-1.0237,0.4309,0.0393,0.2396,2079
2,0.5071,0.9797,-1.1946,0.4914,-0.3324,0.2364,2056
2,0.5457,0.9878,-1.1797,0.6458,-0.4998,0.1662,2053
2,0.543,0.9929,-1.2249,0.5959,-0.453,0.1522,1989
2,0.4983,0.9175,-1.3115,0.4653,-0.6886,0.1119,1995
2,0.4937,0.8591,-1.2981,0.4213,-0.7055,-0.0072,2059
2,0.4763,0.8335,-1.1997,0.3354,-0.4554,-0.0936,2032
2,0.5022,0.7986,-1.1653,0.3007,-0.4526,-0.1143,2040
2,0.5691,0.7664,-1.0608,0.2771,-0.4111,-0.1053,2135
2,0.5811,0.7256,-0.9756,0.1486,-0.2975,-0.1392,2145
2,0.4546,0.5498,-1.0195,0.0894,-0.3657,-0.075,2060
2,0.3904,0.5459,-0.9885,-0.2147,-0.3714,-0.0823,1995
2,0.3914,0.5911,-0.9343,-0.1634,-0.5068,-0.0479,2036
2,0.3599,0.6836,-0.8589,-0.1438,-0.4285,-0.084,2057
2,0.3425,0.6519,-0.938,-0.2586,-0.4878,-0.0763,2030
2,0.3633,0.6924,-0.9373,-0.2037,-0.7074,-0.083,2020
2,0.3347,0.6812,-0.8333,-0.0843,-0.6494,-0.1099,2036
2,0.3315,0.7407,-0.9216,0.068,-0.5663,-0.0561,2058
2,0.2954,0.623,-0.9365,0.0613,-0.6219,-0.0867,2040
2,0.342,0.571,-0.9712,-0.072,-0.6036,-0.0699,2021
2,0.3623,0.5918,-0.9514,-0.0012,-0.6157,-0.0542,2034
2,0.3228,0.458,-0.8901,-0.0678,-0.5103,-0.0322,2046
2,0.3364,0.4402,-0.8127,0.0438,-0.5292,-0.0056,2045
2,0.3398,0.3604,-0.7202,-0.0033,-0.4303,-0.0083,2029
2,0.3137,0.3274,-0.7148,-0.0633,-0.4151,0.0505,2044
2,0.3484,0.3057,-0.688,-0.2481,-0.398,0.1019,2069
2,0.3079,0.342,-0.6919,-0.3701,-0.4316,0.1803,1935
2,0.4241,0.4858,-0.5195,-0.1601,-0.4801,0.1575,2085
2,0.2705,0.3972,-0.5151,-0.3396,-0.2907,0.1946,2054
2,0.2656,0.3667,-0.5691,-0.4221,-0.2966,0.2369,2021
2,0.3176,0.4722,-0.5986,-0.4197,-0.3585,0.247,2046
2,0.2983,0.4724,-0.5688,-0.4665,-0.2301,0.3256,2051
2,0.2812,0.5005,-0.5806,-0.4488,-0.2487,0.3954,2073
2,0.3015,0.4761,-0.606,-0.5541,-0.2273,0.4059,2045
2,0.3247,0.4978,-0.6042,-0.4522,-0.3468,0.5019,2055
2,0.363,0.4807,-0.5723,-0.4088,-0.3016,0.4542,2084
2,0.2856,0.4351,-0.4988,-0.3177,-0.29,0.4848,2037
2,0.2847,0.3271,-0.5593,-0.4841,-0.136,0.4825,2067
2,0.3354,0.345,-0.6443,-0.5609,-0.2792,0.4839,2046
2,0.3496,0.3323,-0.6626,-0.819,-0.2424,0.4838,2089
2,0.3579,0.3835,-0.6289,-0.9677,-0.3566,0.5329,2047
2,0.363,0.4902,-0.5842,-0.9742,-0.3927,0.4707,2086
2,0.2964,0.4641,-0.5278,-0.9646,-0.3452,0.3918,2024
2,0.2283,0.4412,-0.6172,-1.0082,-0.242,0.3277,2044
2,0.2595,0.4602,-0.7854,-1.1065,-0.3597,0.2928,2074
2,0.2874,0.5486,-0.8757,-1.1692,-0.4342,0.2232,2031
2,0.2876,0.5918,-0.8679,-1.2087,-0.5012,0.1677,2049
2,0.3,0.6824,-0.9424,-1.085,-0.569,0.1024,2083
2,0.3606,0.7581,-1.0879,-1.0764,-0.5681,0.1445,2049
2,0.4888,0.7903,-1.1458,-0.9961,-0.7604,0.1482,2059
2,0.5837,0.7915,-1.1411,-0.9626,-0.9488,0.1045,2115
2,0.5869,0.8601,-1.1355,-1.033,-1.0646,0.1332,2039
2,0.5798,0.9014,-1.1208,-0.9987,-1.2215,0.1641,1969
2,0.5859,1.0693,-1.1057,-0.9391,-1.1065,0.2077,2085
2,0.5676,1.1306,-1.106,-0.8594,-0.8536,0.271,2077
2,0.5264,1.1296,-1.137,-0.814,-0.5763,0.2898,2079
2,0.4888,1.179,-1.2195,-0.8014,-0.345,0.3121,2040
2,0.4766,1.158,-1.1868,-0.7891,-0.1626,0.3404,2083
2,0.4292,1.1274,-1.0911,-0.7355,-0.0549,0.3968,1935
2,0.4351,1.0483,-1.01,-0.7573,0.0356,0.4484,2034
3,0.3416,0.9885,-0.8896,-0.7209,0.2342,0.4544,2050
3,0.23,0.9114,-0.8167,-0.5397,0.4703,0.4404,2041
3,0.1689,0.9119,-0.8145,-0.4425,0.6414,0.4432,1991
3,0.1528,0.9038,-0.8435,-0.3647,0.6827,0.401,2043
3,0.115,0.8704,-0.8494,-0.2725,0.7416,0.3828,1980
3,0.0718,0.8765,-0.7676,-0.2341,0.8479,0.3457,2030
3,0.043,0.8884,-0.6821,-0.0916,0.8179,0.2866,1997
3,0.0488,0.8752,-0.6855,0.015,0.8309,0.2293,2052
3,0.0481,0.7927,-0.6643,0.0483,0.9264,0.178,2044
3,0.0947,0.7388,-0.6287,0.1932,0.8977,0.1068,2035
3,0.1145,0.7876,-0.6328,0.3088,1.0182,0.1189,2014
3,0.1594,0.7549,-0.6772,0.3244,0.9789,0.0921,2028
3,0.2046,0.6963,-0.7163,0.4332,0.7597,0.1073,2038
3,0.2178,0.615,-0.686,0.488,0.7138,0.073,2037
3,0.2195,0.5901,-0.6843,0.5826,0.6217,0.1252,2021
3,0.2625,0.4851,-0.7241,0.6321,0.4552,0.1891,2061
3,0.332,0.4792,-0.6824,0.916,0.2426,0.2264,1990
3,0.332,0.4365,-0.5745,0.9854,0.3562,0.2402,1967
3,0.2244,0.3582,-0.637,0.8999,0.5273,0.3577,2044
3,0.3013,0.2837,-0.7349,0.6831,0.5253,0.4309,2061
3,0.3027,0.2495,-0.6838,0.5999,0.4353,0.5201,2030
3,0.3142,0.3574,-0.4543,0.7098,0.4232,0.5715,2010
3,0.2637,0.4028,-0.2996,0.8079,0.6155,0.5923,2074
3,0.2517,0.4316,-0.2981,0.7758,0.7773,0.559,2039
3,0.2573,0.418,-0.4114,0.6272,0.8332,0.5703,2033
3,0.3455,0.4626,-0.4148,0.6088,0.7007,0.5529,2032
3,0.335,0.5652,-0.3193,0.6156,0.6638,0.4693,2025
3,0.2268,0.5977,-0.2419,0.6086,0.7376,0.4108,2045
3,0.1843,0.5693,-0.2424,0.5807,0.8026,0.3444,2001
3,0.2734,0.6233,-0.3525,0.6452,0.6996,0.3124,2032
3,0.2634,0.5725,-0.3914,0.5625,0.8091,0.2349,2022
3,0.2476,0.5183,-0.4292,0.5328,0.8986,0.2352,2042
3,0.2546,0.5911,-0.4177,0.5782,0.8979,0.1926,1990
3,0.2317,0.5117,-0.5044,0.455,1.0236,0.1699,2117
3,0.2773,0.5601,-0.554,0.5132,0.9568,0.1934,2046
3,0.3083,0.4951,-0.6172,0.4932,0.9696,0.184,1953
3,0.333,0.531,-0.6025,0.5498,0.8709,0.2096,2178
3,0.4055,0.5933,-0.572,0.6887,0.7716,0.2159,2079
3,0.3945,0.6062,-0.5715,0.6422,0.7978,0.1915,2044
3,0.4875,0.6375,-0.6165,0.6795,0.6257,0.2344,2050
3,0.5457,0.6465,-0.6221,0.7151,0.3426,0.2096,2038
3,0.5298,0.6821,-0.5867,0.687,0.2378,0.2485,2059
3,0.5298,0.7163,-0.5569,0.6753,0.1912,0.3079,2113
3,0.5398,0.7554,-0.6018,0.6801,0.1815,0.3832,1933
3,0.5559,0.762,-0.6765,0.6498,0.2261,0.4524,2046
3,0.6143,0.8049,-0.709,0.628,0.2424,0.5131,1998
3,0.6101,0.8523,-0.7383,0.7019,0.2248,0.528,1946
3,0.6226,0.9089,-0.7878,0.6054,0.377,0.5568,2123
3,0.6162,0.9023,-0.8965,0.5046,0.2971,0.612,2022
3,0.6956,0.9211,-0.9294,0.5821,0.1276,0.5813,2046
3,0.6917,0.9844,-0.9626,0.556,0.1352,0.547,2064
3,0.6746,0.9771,-1.0146,0.5622,0.0687,0.5143,2036
3,0.6921,0.9631,-1.1431,0.5569,0.0009,0.4453,1949
3,0.7383,0.9636,-1.2524,0.4843,-0.068,0.3609,1878
3,0.7485,0.9714,-1.2788,0.4758,-0.2041,0.2717,2024
3,0.7363,0.9019,-1.2112,0.5413,-0.2888,0.1915,2047
3,0.6943,0.8501,-1.1301,0.4682,-0.177,0.1103,2036
3,0.6584,0.7759,-1.0847,0.4109,-0.1888,0.0874,2048
3,0.7104,0.7312,-0.9541,0.3994,-0.2136,0.0298,1928
3,0.6882,0.6523,-0.8591,0.3024,-0.0626,-0.0346,2086
3,0.5959,0.6504,-0.8325,0.1336,0.0859,-0.0547,2034
3,0.5898,0.5938,-0.8542,0.0104,-0.0373,-0.0221,2081
3,0.5625,0.6038,-0.8201,0.0497,-0.039,-0.0696,2070
3,0.5371,0.6326,-0.7939,-0.0308,0.0302,-0.1128,2027
3,0.4692,0.5911,-0.8389,-0.068,-0.0329,-0.084,2049
3,0.4705,0.4612,-0.8789,-0.1876,-0.0995,-0.1277,2026
3,0.448,0.4519,-0.8145,-0.1579,-0.1802,-0.0951,1898
3,0.4619,0.4746,-0.7561,-0.0892,-0.1822,-0.1244,2032
3,0.4358,0.4414,-0.8513,-0.1738,-0.198,-0.0888,2046
3,0.4668,0.3528,-0.876,-0.1418,-0.3108,-0.0594,2034
3,0.5107,0.3931,-0.791,-0.1075,-0.3782,-0.0534,2037
3,0.3918,0.2776,-0.7268,-0.2068,-0.3004,-0.0381,2014
3,0.4216,0.3086,-0.6987,-0.2545,-0.3353,-0.0144,2044
3,0.4138,0.251,-0.6802,-0.3814,-0.3583,0.0059,2042
3,0.449,0.311,-0.624,-0.3693,-0.3683,0.0318,2089
3,0.4138,0.2935,-0.6023,-0.4529,-0.3473,0.0629,1994
3,0.4504,0.3152,-0.5955,-0.4729,-0.4221,0.1019,2033
3,0.4307,0.3484,-0.5791,-0.5144,-0.4385,0.1321,2042
3,0.4001,0.3479,-0.5527,-0.5449,-0.38,0.1675,2025
3,0.386,0.3704,-0.5361,-0.5861,-0.3765,0.1932,2040
3,0.3728,0.3672,-0.5146,-0.5538,-0.3575,0.2168,1974
3,0.3669,0.3975,-0.4944,-0.5541,-0.2811,0.2372,2074
3,0.3816,0.366,-0.5142,-0.5569,-0.2956,0.2762,2039
3,0.384,0.3787,-0.5344,-0.6134,-0.2667,0.3053,2049
3,0.3857,0.3748,-0.5339,-0.659,-0.3097,0.3436,2034
3,0.375,0.3914,-0.5037,-0.7046,-0.3655,0.3726,2081
3,0.3643,0.394,-0.4871,-0.7468,-0.3619,0.3707,1976
3,0.3411,0.415,-0.4983,-0.7843,-0.343,0.3866,2058
3,0.3696,0.3845,-0.5359,-0.866,-0.4113,0.3721,2115
3,0.3594,0.4099,-0.5869,-0.9204,-0.4426,0.3516,2018
3,0.3635,0.3896,-0.5686,-0.9796,-0.548,0.3112,1963
3,0.3589,0.4568,-0.5793,-1.0275,-0.6287,0.2594,2080
3,0.3545,0.4485,-0.5918,-1.0047,-0.7351,0.2101,2002
3,0.3772,0.4468,-0.6199,-1.0575,-0.7825,0.1514,2088
3,0.429,0.4531,-0.6636,-1.0866,-0.8845,0.1017,2033
3,0.4604,0.4976,-0.6809,-1.1591,-0.999,0.0535,2036
3,0.4678,0.5264,-0.6189,-1.1425,-1.1078,0.0154,1980
3,0.479,0.5957,-0.5559,-1.1326,-1.0915,-0.0534,2049
3,0.4949,0.6189,-0.5522,-1.1138,-1.0556,-0.0969,2046
3,0.543,0.6462,-0.606,-1.1057,-1.0219,-0.1437,2062
3,0.5925,0.6902,-0.6233,-1.1055,-1.031,-0.1582,2070
3,0.5994,0.6736,-0.6326,-1.0664,-0.9859,-0.1954,2065
3,0.593,0.7275,-0.7019,-1.1786,-0.8789,-0.1794,2045
4,0.6562,0.7563,-0.7874,-1.2011,-0.9642,-0.1268,2042
4,0.7109,0.7866,-0.7964,-1.1969,-1.0053,-0.131,2051
4,0.6824,0.8328,-0.7554,-1.1094,-0.9204,-0.0975,2010
4,0.6982,0.8606,-0.7747,-1.1103,-0.7685,-0.0988,2038
4,0.7634,0.8491,-0.8513,-1.0496,-0.7913,-0.0755,2041
4,0.8452,0.9082,-0.9331,-1.0246,-0.8047,-0.0597,2051
4,0.8657,0.9551,-1.0195,-1.2342,-0.8357,0.043,2063
4,0.8896,0.979,-1.0222,-1.4347,-1.0549,0.1702,2045
4,0.8865,1.103,-0.811,-1.1571,-1.2038,0.2274,2052
4,0.8086,1.1284,-0.637,-0.9706,-0.8734,0.1665,2077
4,0.6938,1.1282,-0.6792,-0.9025,-0.5046,0.1987,2070
4,0.7021,1.1079,-0.9224,-0.8428,-0.2944,0.1689,2062
4,0.7122,1.1643,-1.0232,-0.9022,-0.0993,0.1903,2039
4,0.6848,1.1743,-1.0232,-0.8946,-0.067,0.2244,2022
4,0.5049,1.1255,-0.9382,-0.8457,-0.0008,0.2217,2049
4,0.4028,1.001,-0.8118,-0.7247,0.1442,0.1412,2035
4,0.3396,0.9358,-0.7778,-0.5942,0.3919,0.0413,1961
4,0.2805,0.8682,-0.866,-0.5442,0.5674,-0.0277,2053
4,0.219,0.813,-0.9512,-0.5835,0.6136,-0.1069,2036
4,0.1782,0.823,-0.9609,-0.6536,0.5627,-0.1265,2051
4,0.1355,0.8562,-0.8206,-0.4982,0.4782,-0.1952,1933
4,0.1284,0.8225,-0.6716,-0.2041,0.4269,-0.3457,2046
4,0.0476,0.8081,-0.5916,-0.0265,0.536,-0.4358,2033
4,0.1216,0.8203,-0.6653,0.039,0.3774,-0.5098,2033
4,0.1677,0.79,-0.7534,0.0839,0.2242,-0.5323,2036
4,0.167,0.772,-0.6729,0.1349,0.1432,-0.481,2018
4,0.158,0.7681,-0.5222,0.2507,0.0795,-0.4168,2031
4,0.1814,0.7627,-0.4331,0.445,0.1012,-0.437,2045
4,0.1926,0.7429,-0.4849,0.5394,0.2181,-0.3766,2037
4,0.2563,0.6355,-0.5437,0.5898,0.2246,-0.3267,2023
4,0.3062,0.6118,-0.5598,0.6839,0.2236,-0.259,2037
4,0.2974,0.5659,-0.5559,0.7807,0.2538,-0.1876,1921
4,0.3047,0.5178,-0.595,0.7793,0.2815,-0.126,2039
4,0.342,0.4404,-0.6841,0.663,0.1919,-0.0409,2056
4,0.4016,0.4014,-0.6978,0.6337,0.0751,0.0754,2018
4,0.3972,0.3818,-0.5781,0.6934,0.0567,0.132,2051
4,0.3604,0.3936,-0.4651,0.765,0.1992,0.173,2034
4,0.3286,0.3921,-0.4314,0.8004,0.3233,0.1739,2002
4,0.3655,0.4016,-0.4443,0.7871,0.3581,0.176,2146
4,0.3818,0.4534,-0.4241,0.8008,0.3707,0.173,2041
4,0.3374,0.4724,-0.3557,0.7357,0.4613,0.1418,2048
4,0.2954,0.5105,-0.3145,0.7151,0.4263,0.1474,2033
4,0.2964,0.5315,-0.312,0.6617,0.3796,0.1063,2026
4,0.2891,0.5718,-0.3167,0.6213,0.298,0.0614,2058
4,0.2559,0.5791,-0.3032,0.6693,0.2894,0.0221,1998
4,0.2227,0.6262,-0.2603,0.7188,0.4128,-0.0372,2075
4,0.1636,0.6125,-0.3042,0.7,0.6622,-0.0894,2057
4,0.1919,0.5786,-0.4014,0.6253,0.7186,-0.1495,2030
4,0.2805,0.5713,-0.4915,0.565,0.6829,-0.1843,2052
4,0.2649,0.5757,-0.5063,0.5235,0.6522,-0.1976,2047
4,0.1897,0.5781,-0.5168,0.5175,0.64,-0.2071,2033
4,0.2559,0.512,-0.4761,0.5034,0.541,-0.2452,1922
4,0.1616,0.4385,-0.5569,0.5838,0.4548,-0.2948,2107
4,0.23,0.6406,-0.5691,0.5368,0.3017,-0.2605,2124
4,0.2683,0.6792,-0.6689,0.5534,0.0854,-0.3016,2054
4,0.2839,0.6738,-0.6321,0.6885,-0.0262,-0.3646,2037
4,0.2688,0.7371,-0.5564,0.8095,-0.0232,-0.3928,2041
4,0.3167,0.7222,-0.5701,0.8432,-0.1518,-0.3591,2007
4,0.4114,0.7883,-0.5417,1.0011,-0.3137,-0.3607,2149
4,0.4092,0.8208,-0.5095,1.0357,-0.2318,-0.3104,2046
4,0.4033,0.781,-0.5254,0.9545,-0.1658,-0.1843,2046
4,0.4658,0.8428,-0.5813,0.9942,-0.2927,-0.1052,2035
4,0.4492,0.8567,-0.5391,0.9519,-0.1318,-0.0125,1994
4,0.4387,0.8472,-0.4595,0.9782,-0.0409,0.0796,2057
4,0.4875,0.9119,-0.4744,1.0182,0.0688,0.1152,2064
4,0.4692,0.8796,-0.4871,0.95,0.3349,0.1787,1915
4,0.5002,0.9158,-0.5767,0.9299,0.2842,0.2409,2039
4,0.4863,0.9272,-0.5825,0.7787,0.448,0.243,2008
4,0.4351,0.9226,-0.6572,0.8332,0.4679,0.2643,2041
4,0.4148,0.9763,-0.7424,0.6806,0.4967,0.2649,2018
4,0.3933,0.9023,-0.8804,0.5414,0.4484,0.3077,2038
4,0.498,1.0342,-0.9189,0.6798,0.1975,0.1792,1906
4,0.429,1.0408,-0.947,0.685,0.4076,0.155,1959
4,0.4392,0.9763,-1.0745,0.6719,0.2924,0.1194,2036
4,0.6074,1.0435,-1.2417,0.6765,-0.1076,0.0202,2129
4,0.5903,1.0518,-1.2158,0.6512,-0.0306,0.0638,2037
4,0.543,0.9961,-1.1899,0.6915,-0.1273,0.0587,2047
4,0.5022,0.9941,-1.1479,0.7439,-0.0735,0.0119,2056
4,0.4797,0.9045,-1.1663,0.653,0.2052,-0.0048,2015
4,0.5906,0.9478,-1.2217,0.6606,0.0031,-0.0189,2031
4,0.5718,0.8628,-1.2429,0.5918,0.0656,-0.0136,2050
4,0.5137,0.7749,-1.0742,0.5301,0.2366,0.0341,1880
4,0.4617,0.7104,-0.9722,0.4631,0.14,0.0292,2055
4,0.4194,0.7246,-0.9253,0.3719,0.1394,0.0369,2164
4,0.417,0.6672,-0.9109,0.2108,0.163,0.0364,2055
4,0.3713,0.676,-0.9133,0.0064,0.1148,0.0598,2039
4,0.3647,0.7078,-0.9172,-0.069,-0.0115,0.0908,2060
4,0.3193,0.7354,-0.8459,-0.1398,0.0218,0.1204,2064
4,0.2756,0.7053,-0.8154,-0.1619,0.0822,0.1015,2037
4,0.3152,0.7351,-0.8994,-0.2023,0.0507,0.0794,2056
4,0.2949,0.6582,-0.9429,-0.3143,0.0312,0.1092,2039
4,0.2993,0.6465,-0.9119,-0.3348,-0.1085,0.0981,2062
4,0.2656,0.6367,-0.8079,-0.3434,-0.0847,0.1007,2046
4,0.2305,0.6104,-0.8044,-0.3733,-0.1189,0.1033,2079
4,0.2271,0.5391,-0.9048,-0.5392,-0.2685,0.1109,2047
4,0.2615,0.6128,-0.8613,-0.498,-0.4733,0.0972,2008
4,0.2307,0.6284,-0.6111,-0.2924,-0.43,0.0306,1970
4,0.187,0.5452,-0.5479,-0.3002,-0.2681,-0.0513,1996
4,0.2358,0.4778,-0.6614,-0.3095,-0.4389,-0.0899,2043
4,0.3333,0.4797,-0.7158,-0.3701,-0.5538,-0.1173,1861
4,0.2908,0.3796,-0.6685,-0.4839,-0.6267,-0.043,2018
4,0.3098,0.4443,-0.5762,-0.4465,-0.8656,-0.0314,1980
4,0.2314,0.4905,-0.4556,-0.4875,-0.6064,-0.0025,2059
5,0.2473,0.4163,-0.5186,-0.5954,-0.555,0.0194,2027
5,0.2874,0.4421,-0.5225,-0.5513,-0.4918,0.0631,2078
5,0.2585,0.5403,-0.5046,-0.5827,-0.2481,0.0968,2049
5,0.2783,0.4753,-0.5615,-0.7349,-0.3247,0.1194,2026
5,0.3152,0.4927,-0.5764,-0.6588,-0.5102,0.1222,2052
5,0.1919,0.4902,-0.4524,-0.6221,-0.3771,0.1131,2069
5,0.2146,0.4727,-0.4714,-0.5369,-0.4402,0.132,2063
5,0.2451,0.366,-0.592,-0.6757,-0.4414,0.0763,1997
5,0.2937,0.3796,-0.6272,-0.7532,-0.5891,0.1947,1995
5,0.2964,0.4021,-0.6018,-0.7737,-0.7002,0.2346,2008
5,0.2637,0.4636,-0.4485,-0.7645,-0.5807,0.3183,1994
5,0.28,0.4995,-0.4646,-0.7251,-0.5201,0.3143,2082
5,0.3689,0.5464,-0.4888,-0.6494,-0.4963,0.318,2053
5,0.3384,0.5,-0.5359,-0.6925,-0.4534,0.3617,2066
5,0.3931,0.4949,-0.6135,-0.8242,-0.6426,0.437,2032
5,0.415,0.6008,-0.5015,-0.7646,-0.7391,0.4763,2055
5,0.3108,0.7034,-0.3826,-0.6899,-0.5096,0.4345,1805
5,0.2971,0.6809,-0.5801,-0.6865,-0.5,0.414,2024
5,0.3633,0.6277,-0.7627,-0.7163,-0.6062,0.4003,2050
5,0.334,0.696,-0.8157,-0.7544,-0.7052,0.434,2086
5,0.3489,0.7522,-0.8049,-0.768,-0.8573,0.4639,2017
5,0.3547,0.8113,-0.8032,-0.8011,-0.9397,0.4848,2037
5,0.4614,0.8633,-0.8303,-0.7368,-1.0062,0.5305,2042
5,0.5608,0.8882,-0.8181,-0.7468,-1.0059,0.5827,2032
5,0.6213,0.8801,-0.7827,-0.5823,-1.133,0.6461,1914
5,0.6174,0.9385,-0.7507,-0.5829,-0.9501,0.6755,1957
5,0.6587,0.9197,-0.9009,-0.6843,-0.9785,0.7546,2002
5,0.6721,1.0168,-0.9229,-0.5711,-0.8389,0.7253,2049
5,0.5662,1.1226,-0.9482,-0.5898,-0.547,0.699,2028
5,0.6194,1.157,-1.0491,-0.5357,-0.4962,0.6854,2020
5,0.6272,1.1897,-1.0869,-0.5472,-0.273,0.604,2042
5,0.563,1.0581,-1.0984,-0.5123,-0.2187,0.5308,2082
5,0.5588,0.9583,-1.1025,-0.571,-0.1613,0.3903,2117
5,0.5254,1.0159,-1.092,-0.7473,-0.2151,0.3092,2024
5,0.5461,1.1992,-0.907,-0.6193,-0.3294,0.3025,2026
5,0.4285,1.1851,-0.6987,-0.5228,0.0039,0.2164,1993
5,0.3074,1.0261,-0.7563,-0.5355,0.212,0.0868,2046
5,0.3376,0.9836,-0.8127,-0.2975,0.3954,0.0278,2043
5,0.2637,0.925,-0.8625,-0.2075,0.7497,-0.0236,2059
5,0.2463,0.8914,-0.8445,-0.2067,0.7588,0.0345,1673
5,0.228,0.8872,-0.7593,-0.1898,0.8345,0.0766,2122
5,0.1487,0.8606,-0.8445,-0.3292,0.7746,0.118,2084
5,0.1838,0.8164,-0.8384,-0.2919,0.7542,0.2574,2078
5,0.032,0.7439,-0.6494,-0.0935,0.9084,0.2743,2076
5,0.0127,0.7314,-0.532,0.2265,1.1961,0.2842,2002
5,0.0549,0.7151,-0.6658,0.247,1.2049,0.2136,2046
5,0.1841,0.6323,-0.8882,0.3456,0.9943,0.234,2028
5,0.219,0.5708,-0.8767,0.3637,0.6235,0.3796,2051
5,0.146,0.6104,-0.7515,0.4476,0.3634,0.4376,2037
5,0.1804,0.627,-0.6436,0.708,0.3104,0.3757,2044
5,0.2349,0.6069,-0.6377,0.8252,0.2434,0.2831,2077
5,0.2817,0.5403,-0.6353,0.8584,0.126,0.2814,1937
5,0.3855,0.5444,-0.5493,1.0186,0.0668,0.2585,2059
5,0.373,0.5459,-0.3787,1.1254,0.0497,0.2611,2050
5,0.3965,0.4597,-0.3123,1.4077,0.1447,0.2834,2042
5,0.4204,0.3115,-0.2424,1.5946,0.2188,0.31,2046
5,0.4099,0.2207,-0.2734,1.7446,0.3104,0.3031,2036
5,0.4478,0.2253,-0.23,1.7751,0.381,0.3112,2039
5,0.4734,0.3096,-0.6184,1.474,0.3823,0.3802,2096
5,0.4875,0.4207,-1.0676,0.4175,0.6224,0.2456,2086
5,0.1396,0.6877,-1.1365,-0.4867,0.8323,0.4856,2042
5,0.3608,1.0239,-0.6667,-0.1779,0.2268,0.8034,2044
5,0.2944,1.1211,-0.1182,0.5193,0.4872,0.6376,2049
5,0.1687,0.9578,-0.0928,0.5751,1.1182,0.2236,2039
5,0.1672,0.479,-0.2346,0.6566,1.2029,0.085,2008
5,0.356,0.1243,-0.344,0.6709,1.1601,0.0132,2040
5,0.3389,0.1155,-0.376,0.5192,1.0487,0.1155,2039
5,0.2417,0.0759,-0.4885,0.2522,0.8168,0.2384,2038
5,0.2673,0.1846,-0.4517,0.2763,0.6656,0.4556,2012
5,0.1309,0.3169,-0.3892,0.3618,0.7694,0.5276,2052
5,0.1682,0.4788,-0.46,0.5409,0.6308,0.5347,2033
5,0.219,0.4612,-0.6155,0.5283,0.5347,0.4758,2030
5,0.292,0.4248,-0.6243,0.5526,0.3742,0.4398,2037
5,0.2969,0.4053,-0.644,0.6008,0.1465,0.388,2039
5,0.2969,0.4297,-0.6089,0.5944,0.07,0.3061,2037
5,0.3008,0.4241,-0.6162,0.4785,0.0625,0.2587,2038
5,0.3259,0.4363,-0.7163,0.345,-0.0818,0.2374,2040
5,0.3342,0.5061,-0.7241,0.2304,-0.1922,0.2976,2030
5,0.3921,0.6062,-0.6892,0.2075,-0.3023,0.3091,2032
5,0.4229,0.738,-0.6846,0.1742,-0.2671,0.2796,2037
5,0.5298,0.8806,-0.7087,0.2768,-0.2372,0.2836,2039
5,0.6123,0.9465,-0.6562,0.4888,-0.2092,0.2321,2039
5,0.6348,0.9678,-0.658,0.4681,-0.1866,0.1061,2038
5,0.5759,0.926,-0.8203,0.3871,-0.1204,0.1396,2038
5,0.605,0.8958,-0.918,0.3741,-0.1618,0.276,2032
5,0.644,0.8777,-0.999,0.2587,-0.2718,0.3729,2033
5,0.6472,0.8848,-1.0488,0.2607,-0.3854,0.6184,2035
5,0.6328,0.8982,-1.0449,0.2515,-0.4645,0.8269,2038
5,0.6433,0.9333,-1.1233,0.3027,-0.5401,0.9071,2032
5,0.6738,0.9736,-1.1514,0.1432,-0.3369,0.8781,2050
5,0.7258,1.0347,-1.2549,0.0836,-0.2843,0.8779,2040
5,0.7534,1.0688,-1.2893,0.1695,-0.5201,0.8688,2040
5,0.8669,1.156,-1.1155,0.2248,-0.5682,0.9592,2038
5,0.7742,0.9568,-1.0613,0.1561,-0.6801,0.9071,2033
5,0.678,0.8782,-1.0188,0.2073,-0.7826,0.8672,2046
5,0.5923,0.8113,-0.9834,0.2079,-0.7765,0.8172,2043
5,0.5903,0.7891,-0.9895,0.0305,-0.6365,0.7243,2034
5,0.6248,0.7939,-1.0085,-0.2272,-0.5577,0.6608,2037
5,0.5676,0.7356,-0.8994,-0.3575,-0.6297,0.7094,2032
5,0.6313,0.7444,-0.8203,-0.3276,-0.848,0.5336,2033
5,0.5173,0.6697,-0.6897,-0.1823,-0.8569,0.3654,2041
5,0.3108,0.5518,-0.8643,-0.159,-0.6686,0.0395,2026
6,0.3345,0.543,-0.8308,-0.2551,-0.5476,-0.0502,2031
6,0.1902,0.407,-0.9446,-0.1895,-0.5915,-0.1205,2036
6,0.4565,0.4963,-0.8645,-0.2555,-0.5706,-0.2397,2038
6,0.4277,0.4016,-0.8677,-0.2575,-0.5802,-0.3215,2029
6,0.5493,0.3779,-0.8838,-0.287,-0.6549,-0.4272,2035
6,0.6296,0.3684,-0.9163,-0.4087,-0.8593,-0.3991,2041
6,0.478,0.2812,-0.9609,-0.6027,-0.927,-0.5099,2016
6,0.4287,0.2917,-0.8455,-0.6485,-1.0222,-0.5003,2033
6,0.5295,0.4041,-0.7742,-0.7644,-0.7397,-0.5424,2031
6,0.4573,0.3513,-0.7058,-0.6966,-0.5769,-0.4538,2033
6,0.4795,0.3323,-0.6714,-0.7301,-0.4502,-0.4914,2031
6,0.5002,0.3328,-0.6665,-0.7279,-0.4482,-0.4895,2040
6,0.5332,0.3088,-0.6333,-0.9084,-0.2546,-0.5104,2039
6,0.4917,0.3547,-0.5371,-0.9387,-0.2434,-0.3654,2037
6,0.5251,0.376,-0.5498,-0.9292,-0.1931,-0.4548,2026
6,0.4929,0.4109,-0.5127,-0.9179,-0.0497,-0.4336,2045
6,0.46,0.4121,-0.4844,-0.8903,0.0312,-0.3832,2036
6,0.4299,0.4092,-0.5188,-0.8809,0.142,-0.4264,2048
6,0.3855,0.4771,-0.5146,-0.887,0.1987,-0.3944,2042
6,0.4167,0.4526,-0.4756,-0.6582,0.0727,-0.3942,2041
6,0.4436,0.4263,-0.4756,-0.5896,0.127,-0.5098,2033
6,0.3064,0.3677,-0.4673,-0.5534,0.2003,-0.4846,2049
6,0.2966,0.3301,-0.4929,-0.5163,0.179,-0.3855,2038
6,0.2749,0.3318,-0.4712,-0.5881,0.1851,-0.3368,2036
6,0.3333,0.3589,-0.5564,-0.6484,0.2236,-0.3039,2038
6,0.3728,0.386,-0.6089,-0.6573,0.2071,-0.24,2040
6,0.3896,0.4141,-0.625,-0.5971,0.0228,-0.2249,2039
6,0.4189,0.4331,-0.6602,-0.5638,-0.1876,-0.2342,2010
6,0.4033,0.47,-0.6221,-0.5614,-0.2281,-0.2562,2041
6,0.4099,0.4993,-0.6504,-0.528,-0.2333,-0.2111,2033
6,0.4426,0.5491,-0.6143,-0.4642,-0.2056,-0.1971,2027
6,0.4678,0.5725,-0.5334,-0.3537,-0.2412,-0.1858,2042
6,0.5627,0.5723,-0.5728,-0.3069,-0.1578,-0.2365,2027
6,0.521,0.5593,-0.5659,-0.4646,0.1804,-0.2646,2027
6,0.5105,0.6277,-0.5125,-0.3677,-0.0573,0.0036,2025
6,0.6067,0.6511,-0.4695,-0.3288,-0.2229,-0.1244,2041
6,0.5825,0.645,-0.415,-0.0906,-0.2039,-0.1871,2031
6,0.5874,0.7073,-0.4656,-0.0292,-0.0142,-0.1819,2042
6,0.5063,0.7612,-0.5254,-0.0927,0.3032,-0.1012,2029
6,0.5366,0.6968,-0.5964,-0.0635,0.1541,0.0302,2029
6,0.5876,0.7595,-0.6553,-0.1149,0.2129,-0.0454,2034
6,0.5544,0.7366,-0.6917,-0.0113,0.3272,0.0659,2021
6,0.5791,0.7837,-0.741,-0.025,0.3316,0.1204,2032
6,0.6123,0.7849,-0.7654,0.0423,0.2527,0.2244,2032
6,0.6753,0.7913,-0.7808,0.03,0.2499,0.1605,2038
6,0.6602,0.8345,-0.7849,0.094,0.2372,0.2887,2043
6,0.6973,0.8127,-0.7883,0.1487,0.0714,0.3914,2029
6,0.7366,0.8633,-0.6921,0.2065,-0.0461,0.4506,2035
6,0.6995,0.8447,-0.6648,0.2373,-0.094,0.4964,2032
6,0.6902,0.9409,-0.7036,0.235,0.1115,0.4803,2038
6,0.5554,0.9133,-0.7114,0.2011,0.3,0.5506,2043
6,0.5764,0.915,-0.7532,0.2012,0.4275,0.5139,2025
6,0.5791,0.959,-0.7869,0.22,0.5228,0.4923,2032
6,0.5808,0.9136,-0.8127,0.3745,0.434,0.4999,2045
6,0.5879,0.9014,-0.8975,0.4394,0.3569,0.486,2047
6,0.6018,0.9146,-0.9246,0.4042,0.3827,0.4611,2039
6,0.564,0.9438,-0.9832,0.4121,0.2354,0.493,2035
6,0.55,1.0007,-0.9741,0.5311,-0.0024,0.5169,2031
6,0.355,0.8162,-0.9563,0.5747,-0.1872,0.5107,2035
6,0.4397,0.9292,-0.8579,0.5773,-0.1011,0.4786,2026
6,0.2822,0.9031,-0.8755,0.5861,0.0832,0.4586,2042
6,-0.0125,0.7249,-0.825,0.4517,0.2567,0.469,2033
6,0.2852,0.9697,-0.7896,0.6462,0.1197,0.4408,2051
6,0.335,0.917,-0.8049,0.7339,0.1357,0.3759,2046
6,0.312,0.9216,-0.7964,0.7476,0.2135,0.2851,2023
6,0.155,0.7832,-0.7847,0.6889,0.2221,0.2687,2037
6,0.1526,0.7576,-0.7271,0.616,0.085,0.223,2038
6,0.1914,0.7212,-0.6599,0.5711,-0.0755,0.1943,2043
6,0.1719,0.7136,-0.5864,0.555,-0.1197,0.1242,2046
6,0.166,0.7383,-0.5435,0.4938,-0.106,0.07,2047
6,0.1233,0.7649,-0.5588,0.4621,-0.0732,0.0015,2039
6,0.1978,0.7698,-0.5554,0.3852,-0.1109,-0.0173,2034
6,0.2339,0.7302,-0.5979,0.3209,-0.229,-0.0515,2042
6,0.1504,0.5945,-0.6047,0.2329,-0.3059,-0.0804,2030
6,0.2117,0.6794,-0.6411,0.2456,-0.4888,-0.1161,2041
6,0.2502,0.6489,-0.6348,0.3175,-0.6585,-0.0935,2027
6,0.3149,0.6465,-0.6311,0.2025,-0.5526,-0.0842,2039
6,0.3594,0.6609,-0.6584,0.0621,-0.504,-0.0634,2016
6,0.4443,0.6204,-0.5969,-0.0699,-0.6996,0.1268,2036
6,0.3728,0.647,-0.5386,-0.1908,-0.7038,0.1349,2030
6,0.3408,0.5796,-0.511,-0.0221,-0.6775,0.1708,2035
6,0.4297,0.635,-0.415,-0.0798,-0.6212,0.2025,2044
6,0.3848,0.6028,-0.4417,-0.0816,-0.4167,0.1622,2046
6,0.3589,0.6079,-0.4778,-0.1131,-0.2028,0.0543,2037
6,0.3611,0.6006,-0.4219,-0.0627,-0.1795,0.1494,2036
6,0.4287,0.6008,-0.458,-0.0731,-0.0738,0.0862,2025
6,0.4321,0.582,-0.4258,-0.0674,-0.0711,0.1182,2034
6,0.4651,0.5779,-0.3865,-0.0875,0.0196,0.0963,2025
6,0.3967,0.542,-0.4153,-0.0224,0.1463,0.0953,2036
6,0.425,0.5564,-0.4014,-0.0423,0.3153,0.0967,2034
6,0.4541,0.5276,-0.4766,-0.1622,0.5398,0.1171,2042
6,0.4761,0.5869,-0.5803,-0.1752,0.7248,0.1703,2026
6,0.407,0.5596,-0.6421,-0.2436,0.7755,0.2208,2036
6,0.4404,0.5847,-0.6985,-0.2742,0.7509,0.3021,2033
6,0.4897,0.6018,-0.675,-0.176,0.643,0.4264,2034
6,0.562,0.6284,-0.6724,-0.2401,0.7243,0.4221,2032
6,0.5818,0.6785,-0.6956,-0.1899,0.7661,0.4831,2032
6,0.5425,0.7393,-0.7981,-0.1113,0.8572,0.4745,2026
6,0.4229,0.6909,-0.8398,-0.0382,0.9584,0.5127,2037
6,0.3701,0.7275,-0.7693,-0.0952,0.9098,0.6574,2038
6,0.4768,0.719,-0.7959,-0.3101,0.9092,0.7136,2041
6,0.55,0.7832,-0.8245,-0.1297,0.7557,0.7187,2036
6,0.5596,0.7729,-0.8213,-0.0891,0.7087,0.6806,2035
7,0.5332,0.7947,-0.8638,-0.202,0.62,0.6862,2028
7,0.4753,0.7561,-0.8555,-0.4741,0.5239,0.6363,2037
7,0.6577,0.9099,-0.8596,-0.418,0.2828,0.7761,2043
7,0.7625,1.0195,-0.9119,-0.4465,0.3778,0.6994,2039
7,0.6917,0.9768,-0.958,-0.3655,0.3927,0.7261,2037
7,0.6987,0.8599,-0.9973,-0.4308,0.2706,0.8139,2033
7,0.8047,0.8933,-1.0691,-0.4008,0.0872,0.8128,2008
7,0.8892,0.9038,-1.0686,-0.5039,0.2049,0.645,2045
7,0.8486,0.7883,-1.1421,-0.3428,0.0481,0.7336,2035
7,0.823,0.7983,-1.1082,-0.3806,0.0308,0.6913,2037
7,0.8416,0.8596,-1.1213,-0.4729,-0.1033,0.6807,2036
7,0.8228,0.7554,-0.9739,-0.6545,-0.132,0.7236,2034
7,0.5388,0.6592,-0.9226,-0.5659,0.1205,0.514,2057
7,0.4714,0.7322,-0.9155,-0.7336,0.365,0.1426,2033
7,0.4287,0.7253,-0.8455,-0.6819,0.4811,-0.1663,2033
7,0.5063,0.7495,-0.7368,-0.5287,0.5484,-0.3904,2034
7,0.5762,0.7607,-0.7036,-0.2618,0.5923,-0.5454,2040
7,0.551,0.7278,-0.7327,-0.2605,0.7498,-0.6215,2021
7,0.5781,0.6255,-0.7546,-0.2097,0.5859,-0.4809,2041
7,0.5569,0.5532,-0.7292,-0.1898,0.3486,-0.4372,2038
7,0.6082,0.5562,-0.7061,-0.0571,0.1116,-0.4345,2037
7,0.5144,0.5212,-0.6672,0.0173,0.0561,-0.4797,2036
7,0.4802,0.5046,-0.6899,-0.0161,0.0477,-0.5083,2039
7,0.4165,0.4771,-0.6941,-0.1342,0.0276,-0.5259,2026
7,0.4177,0.4236,-0.6624,-0.2189,-0.2035,-0.4991,2034
7,0.4863,0.4661,-0.6111,-0.2425,-0.4028,-0.4975,2034
7,0.4575,0.4324,-0.5142,-0.1266,-0.5228,-0.4906,2041
7,0.4629,0.407,-0.4331,0.0192,-0.5896,-0.4666,2039
7,0.4814,0.3872,-0.4065,0.0645,-0.4898,-0.5368,2031
7,0.4707,0.4114,-0.4167,-0.0257,-0.2645,-0.5774,2033
7,0.4302,0.3491,-0.4514,-0.1759,-0.1396,-0.5103,2035
7,0.468,0.3521,-0.4688,-0.2939,-0.1543,-0.401,2031
7,0.4883,0.3655,-0.4226,-0.3745,-0.2497,-0.3681,2032
7,0.4656,0.4048,-0.3552,-0.3103,-0.3882,-0.3065,2036
7,0.4519,0.3601,-0.3123,-0.3928,-0.2874,-0.2768,2035
7,0.4167,0.3967,-0.2573,-0.4295,-0.1028,-0.2735,2036
7,0.3914,0.4104,-0.2571,-0.4456,0.0542,-0.2545,2038
7,0.3699,0.4087,-0.3137,-0.5616,0.2521,-0.2976,2040
7,0.3674,0.4463,-0.3081,-0.4983,0.2742,-0.2613,2040
7,0.3748,0.4062,-0.3306,-0.5408,0.2968,-0.3332,2032
7,0.332,0.4192,-0.3311,-0.3891,0.2828,-0.2634,2036
7,0.3245,0.3755,-0.3716,-0.5168,0.404,-0.4432,2036
7,0.2681,0.3467,-0.4224,-0.6128,0.4417,-0.4077,2036
7,0.2705,0.3462,-0.4871,-0.6271,0.3071,-0.3727,2032
7,0.3386,0.408,-0.4958,-0.5586,0.0242,-0.3251,2046
7,0.2812,0.3472,-0.4463,-0.5308,-0.0499,-0.4541,2038
7,0.3025,0.3638,-0.4382,-0.5079,-0.1224,-0.4089,2035
7,0.3418,0.4028,-0.5039,-0.528,-0.171,-0.4153,2032
7,0.3398,0.4241,-0.5063,-0.5208,-0.2754,-0.3193,2039
7,0.4441,0.4795,-0.5227,-0.4846,-0.4793,-0.2816,2041
7,0.564,0.6128,-0.5222,-0.5151,-0.5524,-0.2523,2037
7,0.6213,0.6414,-0.5237,-0.4136,-0.6486,-0.0555,2037
7,0.6221,0.6375,-0.5581,-0.3952,-0.642,0.0123,2037
7,0.6201,0.6604,-0.5945,-0.2799,-0.6793,0.0658,2027
7,0.6436,0.6963,-0.6399,-0.224,-0.6605,0.0963,2039
7,0.6985,0.7705,-0.7019,-0.0878,-0.6264,0.1209,2042
7,0.7249,0.8486,-0.7512,-0.1782,-0.5144,0.1238,2035
7,0.7273,0.8313,-0.7463,-0.1292,-0.6232,0.2713,2036
7,0.7937,0.8865,-0.7495,-0.1096,-0.8126,0.3824,2033
7,0.8621,0.9507,-0.6887,-0.0766,-0.9733,0.3959,2035
7,0.8577,0.9995,-0.6262,-0.1561,-1.0605,0.507,2039
7,0.855,1.0647,-0.6296,-0.2742,-1.0481,0.5237,2030
7,0.8389,1.1355,-0.6309,-0.153,-1.0737,0.5277,2041
7,0.8704,1.2029,-0.6436,-0.0586,-1.0114,0.4201,2036
7,0.9048,1.3245,-0.7449,-0.027,-0.6883,0.3378,2030
7,0.7549,1.2781,-0.6724,0.139,-0.5986,0.3737,2022
7,0.6279,1.0837,-0.6858,0.1454,-0.3365,0.2422,2042
7,0.5183,1.0322,-0.7322,0.1639,0.0326,0.079,2035
7,0.4976,1.0181,-0.7329,0.0744,0.3987,-0.0265,2027
7,0.4832,1.0522,-0.7429,-0.1015,0.6634,-0.0314,2032
7,0.5144,1.1414,-0.7471,-0.1485,0.6498,0.0973,2035
7,0.5417,1.1609,-0.7483,-0.1453,0.6914,0.14,2041
7,0.405,1.0947,-0.7454,-0.1009,0.6886,0.2225,2022
7,0.3044,1.1013,-0.7415,0.0775,0.5996,0.2599,2042
7,0.2883,1.0659,-0.8574,0.3151,0.4393,0.208,2027
7,0.2649,1.0239,-0.7207,0.5533,0.3907,0.1091,2040
7,0.1809,0.925,-0.6589,0.7231,0.2764,0.0787,2028
7,0.1843,0.887,-0.6492,0.824,0.1563,0.0137,2035
7,0.0718,0.793,-0.6394,0.8801,0.0332,-0.0573,2029
7,0.1506,0.7622,-0.6177,0.9428,-0.0788,-0.1165,2040
7,0.3169,0.7595,-0.606,1.0696,-0.3501,-0.0634,2034
7,0.1211,0.6831,-0.5737,1.1794,-0.3306,-0.2545,2040
7,0.3164,0.7178,-0.5889,1.177,-0.4595,-0.1887,2034
7,0.3562,0.6672,-0.6216,1.2861,-0.6805,-0.1907,2034
7,0.3328,0.606,-0.6433,1.3845,-0.9107,-0.19,2033
7,0.3384,0.5518,-0.6365,1.4045,-1.0576,-0.1818,2023
7,0.3555,0.4954,-0.6243,1.3367,-1.1081,-0.1708,2032
7,0.3423,0.4673,-0.5645,1.2037,-1.0597,-0.135,2033
7,0.3469,0.4434,-0.5493,1.0764,-0.9468,-0.0792,2041
7,0.3679,0.4504,-0.4939,0.925,-0.8032,-0.051,2036
7,0.3733,0.448,-0.4343,0.7845,-0.63,-0.0822,2029
7,0.4817,0.5769,-0.3936,0.7461,-0.5811,-0.0752,2039
7,0.4204,0.4983,-0.2468,0.7148,-0.5062,-0.1021,2032
7,0.4592,0.5857,-0.2104,0.7497,-0.3076,-0.1517,2034
7,0.4678,0.5642,-0.1499,0.7289,-0.0206,-0.1964,2032
7,0.4263,0.5317,-0.1926,0.717,0.2436,-0.1716,2034
7,0.397,0.4924,-0.2415,0.5903,0.4305,-0.1728,2035
7,0.3403,0.4495,-0.2842,0.4576,0.5265,-0.1454,2039
7,0.3687,0.4629,-0.3499,0.3747,0.5452,-0.1169,2039
7,0.2979,0.4702,-0.4004,0.3482,0.6165,-0.0975,2025
7,0.3181,0.469,-0.4436,0.351,0.5927,-0.1124,2033
7,0.2654,0.4788,-0.468,0.3289,0.6576,-0.1184,2031
7,0.2693,0.4866,-0.5457,0.2658,0.7493,-0.116,2032
8,0.2085,0.4705,-0.5793,0.2199,0.7335,-0.0736,2032
8,0.2871,0.5056,-0.6428,0.2381,0.5974,-0.023,2033
8,0.2693,0.5286,-0.6357,0.2215,0.5626,-0.0465,2042
8,0.2585,0.5271,-0.6636,0.2205,0.4986,-0.0257,2033
8,0.1729,0.6099,-0.5459,0.0678,0.4701,-0.089,2038
8,0.2375,0.5674,-0.7192,0.238,0.3053,0.0411,2045
8,0.3047,0.7332,-0.6648,0.3486,0.0972,0.0515,2049
8,0.3657,0.7847,-0.687,0.3528,0.1293,0.0113,2027
8,0.4023,0.814,-0.6975,0.5861,0.0157,0.1205,2030
8,0.4272,0.8464,-0.6968,0.7138,-0.0091,0.0727,2042
8,0.4827,0.8386,-0.7695,0.8841,-0.0775,0.1567,2033
8,0.5227,0.832,-0.8237,0.8558,-0.0073,0.1719,2043
8,0.489,0.8635,-0.9097,0.7825,-0.0832,0.2967,2022
8,0.5264,0.8872,-0.9761,0.7032,-0.347,0.386,2037
8,0.5681,0.9175,-0.9351,0.6112,-0.4801,0.382,2017
8,0.5862,0.9624,-0.9487,0.6707,-0.5128,0.4583,2036
8,0.6299,1.0139,-0.9878,0.7271,-0.5215,0.4073,2048
8,0.6062,1.0764,-0.9958,0.704,-0.3934,0.4038,2030
8,0.6968,1.0361,-1.1038,0.7879,-0.5012,0.4252,2031
8,0.6765,1.0435,-1.0964,0.7024,-0.3932,0.3743,2047
8,0.6165,0.8887,-1.2561,0.6778,-0.2936,0.348,2055
8,0.5881,0.9004,-1.2502,0.4739,-0.1617,0.3317,2038
8,0.5405,0.7556,-1.3818,0.3935,-0.0498,0.2799,2043
8,0.5796,0.8379,-1.4048,0.2895,-0.0565,0.2233,2026
8,0.5854,0.7556,-1.3425,0.0807,-0.0586,0.2839,2038
8,0.5596,0.8293,-1.2153,0.1143,-0.0993,0.2786,2049
8,0.5178,0.811,-1.145,0.0762,-0.1266,0.1965,2039
8,0.3984,0.7234,-1.0347,0.0605,-0.106,0.0718,2039
8,0.3962,0.7048,-1.001,0.1261,-0.2029,-0.0084,2045
8,0.2791,0.6353,-0.9187,0.0393,-0.1043,-0.1194,2036
8,0.2664,0.5859,-0.8933,0.0269,-0.1952,-0.1447,2047
8,0.2256,0.4985,-0.7947,0.11,-0.3542,-0.2067,2042
8,0.2854,0.4839,-0.8357,0.3144,-0.5072,-0.2854,2042
8,0.2815,0.5115,-0.8933,0.1553,-0.2784,-0.3782,2032
8,0.2271,0.436,-0.9832,0.0523,-0.341,-0.2663,2032
8,0.3337,0.4592,-0.9854,0.0142,-0.6441,-0.2497,2032
8,0.436,0.45,-0.9202,-0.0268,-0.732,-0.2619,2040
8,0.3889,0.4346,-0.8279,-0.1061,-0.6454,-0.2149,2040
8,0.4041,0.4431,-0.8018,0.057,-0.768,-0.1732,2036
8,0.4573,0.501,-0.7754,0.1868,-0.7074,-0.2637,2043
8,0.3936,0.396,-0.7502,-0.0174,-0.4199,-0.2159,2036
8,0.4031,0.406,-0.7576,-0.1723,-0.377,-0.1433,2030
8,0.4062,0.3984,-0.6699,-0.228,-0.4469,-0.045,2034
8,0.4607,0.4272,-0.5781,-0.1276,-0.5172,0.0068,2038
8,0.4595,0.4519,-0.5486,-0.0826,-0.3368,0.0032,2046
8,0.406,0.425,-0.5811,-0.104,-0.1242,0.0771,2035
8,0.3499,0.3887,-0.5957,-0.2289,0.0148,0.1799,2036
8,0.3325,0.3357,-0.532,-0.3416,0.0413,0.3489,2033
8,0.4016,0.3796,-0.5356,-0.357,0.0352,0.3914,2046
8,0.387,0.4353,-0.5144,-0.3738,0.1973,0.4027,2038
8,0.3311,0.3965,-0.4683,-0.2591,0.1855,0.4542,2037
8,0.3335,0.4243,-0.5132,-0.2317,0.189,0.4161,2036
8,0.2646,0.3757,-0.5215,-0.3751,0.4481,0.4356,2042
8,0.2041,0.2864,-0.5552,-0.3769,0.3201,0.595,2031
8,0.2737,0.3157,-0.6533,-0.4444,0.2561,0.5409,2038
8,0.2634,0.3135,-0.6079,-0.448,0.2553,0.5865,2027
8,0.2874,0.2986,-0.6538,-0.3773,0.082,0.5771,2040
8,0.2522,0.3186,-0.6416,-0.4466,0.1433,0.5098,2034
8,0.2673,0.3281,-0.6418,-0.4087,0.0684,0.5582,2035
8,0.2664,0.3254,-0.6448,-0.4026,-0.0324,0.5259,2031
8,0.3418,0.3889,-0.687,-0.3874,-0.1764,0.507,2036
8,0.314,0.394,-0.7188,-0.507,-0.1265,0.4315,2037
8,0.3733,0.4521,-0.6548,-0.45,-0.3432,0.5248,2037
8,0.4404,0.4905,-0.634,-0.4425,-0.5442,0.4405,2036
8,0.4314,0.5471,-0.6497,-0.5669,-0.3681,0.2947,2029
8,0.4395,0.5698,-0.5745,-0.5388,-0.4707,0.347,2032
8,0.4451,0.6008,-0.5869,-0.5401,-0.5237,0.2529,2037
8,0.4985,0.6594,-0.5706,-0.5536,-0.3602,0.1479,2034
8,0.4885,0.6262,-0.5789,-0.4425,-0.2184,0.1218,2032
8,0.5117,0.687,-0.677,-0.4891,-0.0414,0.0399,2042
8,0.564,0.6758,-0.7288,-0.5508,-0.0009,0.0722,2029
8,0.5842,0.6555,-0.7817,-0.5063,-0.147,0.1225,2039
8,0.6179,0.7065,-0.7966,-0.5785,-0.1285,0.086,2049
8,0.6262,0.7261,-0.8081,-0.5386,-0.0957,0.0886,2041
8,0.6133,0.7017,-0.8433,-0.5159,-0.114,0.135,2018
8,0.6777,0.7585,-0.8816,-0.6252,-0.135,0.1341,2040
8,0.6965,0.7212,-0.7974,-0.594,-0.2733,0.2063,2039
8,0.7153,0.7383,-0.8076,-0.6159,-0.3063,0.2003,2038
8,0.739,0.8547,-0.8484,-0.7265,-0.1053,0.1341,2040
8,0.6582,0.7329,-0.7664,-0.5666,-0.2609,0.3184,2040
8,0.72,0.864,-0.9846,-0.5472,-0.1884,0.1451,2041
8,0.6104,1.0442,-1.0564,-0.6327,0.2184,0.0662,2032
8,0.5515,0.7927,-1.0137,-0.2723,-0.1747,0.1899,2029
8,0.6294,0.9343,-1.176,-0.4123,-0.1342,-0.0205,2041
8,0.562,1.0398,-1.0735,-0.4418,-0.0055,-0.0389,2032
8,0.509,0.7456,-1.0527,-0.2017,-0.4129,0.1198,2032
8,0.561,0.9507,-1.1138,-0.4525,-0.2171,-0.1175,2044
8,0.3794,0.8469,-1.0046,-0.4232,-0.1413,-0.0201,2028
8,0.364,0.8071,-1.0178,-0.344,-0.1075,-0.0438,2034
8,0.3025,0.885,-0.9636,-0.5082,0.0541,-0.0984,2035
8,0.2949,0.8594,-0.9875,-0.3314,-0.0136,-0.0699,2036
8,0.2979,0.9688,-1.0146,-0.3599,0.2876,-0.1968,2041
8,0.1877,0.9604,-0.9512,-0.236,0.2139,-0.1826,2033
8,0.2058,0.8782,-0.9795,-0.0581,0.1337,-0.2619,2038
8,0.1826,0.9343,-0.8687,-0.0096,0.237,-0.3004,2033
8,0.1917,0.7732,-0.8232,0.248,0.0061,-0.3124,2038
8,0.1987,0.7656,-0.7852,0.277,0.2076,-0.4003,2044
8,0.2036,0.7349,-0.7402,0.4119,0.1326,-0.3493,2039
8,0.2329,0.6992,-0.7563,0.3775,0.125,-0.3235,2034
8,0.2305,0.6189,-0.7466,0.401,-0.0426,-0.2618,2041
8,0.3193,0.5964,-0.7339,0.4779,-0.2216,-0.2622,2036
8,0.2869,0.5291,-0.7119,0.5055,-0.2615,-0.2465,2035
9,0.3237,0.551,-0.6965,0.5646,-0.2839,-0.2164,2042
9,0.2949,0.4636,-0.7112,0.5501,-0.2236,-0.1671,2035
9,0.3586,0.4553,-0.7148,0.5654,-0.2951,-0.1057,2043
9,0.3611,0.4146,-0.7227,0.4833,-0.2246,-0.0285,2036
9,0.3586,0.3562,-0.6821,0.4665,-0.2795,0.1064,2030
9,0.4106,0.3704,-0.6382,0.4192,-0.2979,0.2108,2031
9,0.4453,0.4141,-0.5945,0.4422,-0.3288,0.2844,2040
9,0.4619,0.4553,-0.5549,0.3777,-0.2216,0.3109,2032
9,0.4126,0.4578,-0.5034,0.3991,-0.1185,0.3603,2031
9,0.3933,0.4878,-0.4749,0.3333,0.0851,0.3477,2033
9,0.3672,0.5293,-0.437,0.383,0.1579,0.3812,2045
9,0.3281,0.5264,-0.4114,0.391,0.3169,0.3484,2033
9,0.3337,0.541,-0.4014,0.3904,0.4698,0.2723,2039
9,0.2842,0.4951,-0.4363,0.3563,0.6385,0.2646,2026
9,0.2881,0.5112,-0.4722,0.2879,0.754,0.2661,2034
9,0.2722,0.4878,-0.4775,0.192,0.7727,0.2282,2032
9,0.2354,0.4839,-0.4346,0.149,0.7068,0.2115,2036
9,0.2522,0.5293,-0.4507,0.1515,0.675,0.1354,2030
9,0.2256,0.5396,-0.4436,0.1727,0.7012,0.0288,2038
9,0.2156,0.5139,-0.4602,0.1884,0.8023,0.0633,2028
9,0.1658,0.5083,-0.5132,0.1863,0.8128,-0.0403,2042
9,0.2029,0.5278,-0.5459,0.2602,0.6891,-0.0533,2041
9,0.1782,0.4624,-0.584,0.2514,0.6573,-0.1336,2033
9,0.1689,0.4426,-0.6016,0.3155,0.4911,-0.0811,2043
9,0.1829,0.4746,-0.6077,0.3702,0.3157,-0.1161,2040
9,0.2185,0.4932,-0.6604,0.4404,0.2659,-0.1337,2038
9,0.2136,0.4956,-0.6687,0.5043,0.1467,-0.1109,2028
9,0.2571,0.5312,-0.6724,0.5819,-0.0842,-0.1044,2027
9,0.3152,0.5632,-0.6406,0.7027,-0.2562,-0.1626,2036
9,0.3765,0.5901,-0.5999,0.8043,-0.3089,-0.1547,2035
9,0.3982,0.5928,-0.6013,0.7988,-0.2764,-0.1198,2032
9,0.4226,0.6038,-0.5901,0.8296,-0.3493,-0.0617,2041
9,0.4714,0.6418,-0.5903,0.8437,-0.3721,-0.0197,2035
9,0.5029,0.6719,-0.6091,0.7996,-0.2667,0.0202,2037
9,0.5081,0.6892,-0.6208,0.7951,-0.2024,0.0859,2027
9,0.5449,0.7429,-0.6628,0.7549,-0.1429,0.1288,2036
9,0.5686,0.7566,-0.6694,0.7566,-0.0447,0.1322,2035
9,0.5701,0.7949,-0.7043,0.7565,0.1096,0.1245,2039
9,0.5718,0.8296,-0.7761,0.7039,0.2756,0.1189,2023
9,0.5842,0.8394,-0.8762,0.7027,0.3016,0.1381,2041
9,0.6069,0.8899,-1.0325,0.6644,0.3594,0.0973,2037
9,0.625,0.8708,-1.103,0.6879,0.2946,0.1224,2044
9,0.6672,0.8577,-1.2346,0.7098,0.0786,0.1405,2043
9,0.7122,0.8967,-1.2432,0.7074,-0.0678,0.1175,2035
9,0.7007,0.8804,-1.238,0.7485,-0.2855,0.1534,2039
9,0.6887,0.9285,-1.207,0.694,-0.1948,0.1429,2050
9,0.6799,0.9238,-1.2112,0.7031,-0.1639,0.1543,2031
9,0.6265,0.9307,-1.3228,0.618,-0.0204,0.0368,2032
9,0.5879,0.9043,-1.3376,0.667,0.026,0.0353,2039
9,0.4958,0.7395,-1.3787,0.5781,0.1233,-0.0017,2035
9,0.4814,0.7678,-1.325,0.5131,0.0142,-0.065,2036
9,0.4468,0.7275,-1.2717,0.4825,-0.1822,-0.1244,2035
9,0.4097,0.7754,-1.1724,0.4683,-0.2666,-0.2234,2032
9,0.3889,0.7751,-1.0696,0.4654,-0.3468,-0.3197,2035
9,0.303,0.7212,-0.9265,0.3373,-0.1615,-0.4449,2043
9,0.2358,0.5752,-0.8411,0.3165,-0.1782,-0.4039,2040
9,0.2976,0.5935,-0.873,0.2189,-0.2043,-0.509,2038
9,0.2878,0.531,-0.8171,0.1573,-0.2472,-0.5137,2032
9,0.3027,0.5134,-0.8865,0.1352,-0.357,-0.5323,2040
9,0.3013,0.5049,-0.8459,0.0882,-0.329,-0.5803,2036
9,0.3,0.4631,-0.8933,0.0732,-0.3434,-0.5693,2040
9,0.2852,0.4375,-0.8779,0.0386,-0.2767,-0.5468,2034
9,0.3113,0.3608,-0.9309,0.0739,-0.4097,-0.4963,2033
9,0.3362,0.3979,-0.9087,0.0274,-0.3819,-0.5215,2037
9,0.3164,0.3159,-0.8777,0.0762,-0.4936,-0.4243,2033
9,0.3352,0.3337,-0.8394,0.1065,-0.5633,-0.4065,2044
9,0.3408,0.334,-0.7676,0.0477,-0.5581,-0.3804,2037
9,0.3206,0.2869,-0.7285,0.0141,-0.5481,-0.3004,2033
9,0.3352,0.3337,-0.6572,-0.0523,-0.5272,-0.2417,2031
9,0.3225,0.2881,-0.6047,-0.0791,-0.5617,-0.1446,2035
9,0.3552,0.3816,-0.5603,-0.1245,-0.438,-0.0969,2039
9,0.3079,0.3557,-0.5034,-0.1067,-0.379,0.0091,2028
9,0.3289,0.4111,-0.5454,-0.1875,-0.1694,-0.01,2039
9,0.2778,0.3821,-0.4834,-0.187,-0.067,0.0975,2039
9,0.2717,0.3975,-0.5032,-0.2032,-0.0273,0.1269,2048
9,0.3057,0.4268,-0.5366,-0.2175,0.1465,0.0933,2034
9,0.2695,0.3772,-0.6172,-0.3332,0.387,0.0868,2033
9,0.2083,0.2903,-0.5967,-0.3654,0.2923,0.2673,2037
9,0.3171,0.3853,-0.6384,-0.388,0.0373,0.257,2041
9,0.3167,0.355,-0.5874,-0.4145,0.1155,0.2257,2029
9,0.2605,0.2932,-0.5769,-0.4143,0.1738,0.3329,2026
9,0.2793,0.3933,-0.5933,-0.5394,0.23,0.3103,2041
9,0.2664,0.2983,-0.6055,-0.5366,0.0874,0.3807,2031
9,0.3069,0.3806,-0.6299,-0.5549,0.0723,0.3547,2032
9,0.2639,0.3362,-0.5884,-0.6003,0.0393,0.3796,2043
9,0.2412,0.4072,-0.6562,-0.6341,0.1059,0.3496,2017
9,0.2668,0.4607,-0.6956,-0.6107,0.0045,0.3269,2034
9,0.2803,0.4946,-0.8074,-0.614,-0.0292,0.255,2036
9,0.2793,0.4734,-0.887,-0.5109,-0.1984,0.2523,2033
9,0.321,0.5654,-1.0146,-0.4999,-0.2326,0.1686,2040
9,0.373,0.5603,-1.0735,-0.4253,-0.3662,0.1784,2036
9,0.4346,0.6184,-1.1079,-0.448,-0.5133,0.1995,2038
9,0.5156,0.6147,-1.0852,-0.4304,-0.7831,0.2714,2037
9,0.5754,0.6594,-1.0696,-0.477,-0.98,0.3169,2038
9,0.5725,0.699,-1.0237,-0.5047,-1.0053,0.4197,2035
9,0.5637,0.7754,-0.9937,-0.4999,-0.8958,0.5445,2029
9,0.6448,0.8577,-1.0635,-0.4618,-0.7669,0.618,2032
9,0.6665,0.9778,-1.2297,-0.4914,-0.3751,0.5321,2039
9,0.6052,0.9661,-1.3662,-0.5129,-0.022,0.6407,2027
9,0.5659,0.9348,-1.4448,-0.4867,0.0218,0.7252,2037
9,0.4951,0.8818,-1.4243,-0.5612,0.128,0.6464,2036
9,0.4185,0.8757,-1.3042,-0.5745,0.1911,0.6169,2035
9,0.3394,0.8979,-1.2351,-0.6657,0.3172,0.5814,2033
10,0.2637,0.9656,-1.187,-0.7211,0.3032,0.5721,2033
10,0.2559,1.0276,-1.1782,-0.7032,0.0602,0.5621,2039
10,0.2065,1.031,-1.0664,-0.6261,-0.1973,0.5489,2031
10,0.145,0.9873,-1.0088,-0.6248,-0.259,0.4324,2033
10,0.106,1.0242,-0.9048,-0.6056,-0.1221,0.3689,2032
10,0.0872,1.0288,-0.9717,-0.522,-0.0907,0.3109,2040
10,0.0674,0.991,-0.9585,-0.3826,-0.0482,0.2551,2026
10,0.0962,0.8621,-0.9739,-0.2241,-0.1232,0.1864,2039
10,0.1348,0.8059,-0.9395,-0.1744,-0.0537,0.1051,2037
10,0.1497,0.7573,-0.9739,-0.0792,-0.1256,0.0983,2038
10,0.1658,0.7058,-0.9749,-0.0469,-0.2111,0.0719,2038
10,0.2144,0.592,-0.9727,0.0691,-0.4488,0.1004,2039
10,0.2449,0.5515,-0.9197,0.1108,-0.5826,0.1175,2025
10,0.3157,0.499,-0.9004,0.1766,-0.7325,0.1033,2038
10,0.3057,0.4055,-0.8528,0.1642,-0.7482,0.1424,2036
10,0.3035,0.3538,-0.8193,0.1907,-0.8379,0.2024,2037
10,0.3423,0.3508,-0.7703,0.1085,-0.762,0.2377,2039
10,0.3555,0.3215,-0.6975,0.1079,-0.6564,0.2863,2039
10,0.3752,0.3208,-0.6294,0.0824,-0.5283,0.3184,2038
10,0.3667,0.3872,-0.5959,-0.0316,-0.2573,0.2878,2032
10,0.3708,0.3796,-0.5476,-0.0517,-0.191,0.3215,2039
10,0.3757,0.4038,-0.4858,-0.1095,-0.1413,0.3308,2034
10,0.3806,0.4629,-0.4473,-0.1056,-0.1365,0.2831,2031
10,0.3569,0.5115,-0.4583,-0.1775,0.1111,0.1278,2045
10,0.2737,0.4626,-0.4312,-0.2176,0.2125,0.1117,2032
10,0.2852,0.4995,-0.4744,-0.2888,0.276,0.0641,2037
10,0.2512,0.4392,-0.428,-0.3583,0.2537,0.0133,2036
10,0.2556,0.4697,-0.436,-0.3505,0.2324,-0.0213,2039
10,0.2549,0.5056,-0.4268,-0.371,0.3292,-0.1175,2036
10,0.2156,0.4807,-0.447,-0.3573,0.459,-0.198,2023
10,0.207,0.4446,-0.4792,-0.3394,0.55,-0.2377,2044
10,0.2236,0.3921,-0.4519,-0.2919,0.5187,-0.2559,2040
10,0.23,0.3857,-0.4636,-0.2799,0.4746,-0.3021,2039
10,0.2495,0.3843,-0.4656,-0.265,0.5237,-0.3308,2037
10,0.2395,0.4097,-0.4907,-0.2657,0.581,-0.3377,2042
10,0.2136,0.3411,-0.5085,-0.2896,0.6469,-0.3509,2041
10,0.24,0.3447,-0.5488,-0.2627,0.6086,-0.3416,2030
10,0.2366,0.3579,-0.5774,-0.2292,0.665,-0.3543,2043
10,0.2776,0.3591,-0.5964,-0.2261,0.6578,-0.2674,2038
10,0.3015,0.4238,-0.6289,-0.1822,0.5729,-0.2067,2037
10,0.3601,0.4382,-0.6667,-0.067,0.4536,-0.1571,2034
10,0.3914,0.4807,-0.6833,0.0301,0.351,-0.1103,2034
10,0.4192,0.5693,-0.6853,0.1575,0.1619,-0.0473,2037
10,0.4238,0.606,-0.699,0.3131,-0.0051,-0.0165,2038
10,0.4431,0.636,-0.7087,0.4129,-0.0158,0.0288,2032
10,0.4827,0.6763,-0.7415,0.4783,0.0242,0.1313,2032
10,0.5134,0.709,-0.7417,0.5785,-0.0248,0.2252,2039
10,0.5349,0.7375,-0.7358,0.6401,-0.0663,0.2756,2035
10,0.5552,0.7346,-0.7114,0.6565,-0.0324,0.3228,2036
10,0.5645,0.7629,-0.698,0.661,0.0726,0.3689,2043
10,0.5667,0.7856,-0.7317,0.6525,0.2422,0.3735,2036
10,0.5686,0.8137,-0.7866,0.6312,0.4268,0.3737,2042
10,0.5886,0.8076,-0.8801,0.6064,0.5277,0.3625,2032
10,0.6143,0.8193,-0.959,0.5695,0.5802,0.3259,2029
10,0.6477,0.8159,-1.0176,0.5793,0.5063,0.3097,2033
10,0.6709,0.8269,-1.043,0.5843,0.4307,0.2776,2037
10,0.6829,0.8455,-1.1008,0.5706,0.3811,0.2188,2044
10,0.6594,0.8533,-1.1096,0.5675,0.3477,0.2105,2048
10,0.6255,0.855,-1.1528,0.5501,0.3868,0.1828,2032
10,0.5835,0.8792,-1.2439,0.5516,0.5866,0.139,2028
10,0.5303,0.8667,-1.3372,0.5582,0.7645,0.0826,2039
10,0.4792,0.7764,-1.4255,0.5529,0.7773,0.0662,2030
10,0.4485,0.6953,-1.3564,0.585,0.6422,0.0164,2043
10,0.449,0.7078,-1.2739,0.5653,0.465,-0.0672,2033
10,0.4004,0.7717,-1.1567,0.5489,0.3289,-0.1579,2034
10,0.3357,0.8003,-1.1138,0.5348,0.1991,-0.2337,2038
10,0.2495,0.7695,-1.0281,0.4786,0.2322,-0.3831,2039
10,0.1868,0.7246,-0.9463,0.4705,0.1888,-0.4486,2027
10,0.1689,0.6809,-0.8486,0.5066,0.1035,-0.5219,2045
10,0.2009,0.6514,-0.8577,0.5646,0.0388,-0.6272,2038
10,0.219,0.6182,-0.8765,0.5526,0.106,-0.6799,2039
10,0.2368,0.5935,-0.9307,0.5165,0.0647,-0.6753,2037
10,0.2412,0.561,-0.9709,0.4437,-0.0397,-0.6679,2028
10,0.2642,0.5312,-0.9756,0.4015,-0.1641,-0.6225,2031
10,0.2676,0.5066,-0.8904,0.4304,-0.2442,-0.5596,2032
10,0.3171,0.5281,-0.8521,0.4626,-0.2249,-0.5853,2049
10,0.323,0.5332,-0.8162,0.475,-0.092,-0.6363,2041
10,0.3208,0.4861,-0.7654,0.4896,-0.0257,-0.5908,2038
10,0.3413,0.4509,-0.75,0.448,-0.0358,-0.5625,2033
10,0.3784,0.4314,-0.6899,0.3806,-0.0531,-0.5493,2035
10,0.3809,0.3979,-0.6208,0.3963,-0.1475,-0.4821,2031
10,0.3962,0.4502,-0.5952,0.3308,-0.0165,-0.4915,2040
10,0.3513,0.4282,-0.5161,0.2671,0.1627,-0.4123,2032
10,0.3145,0.3472,-0.5071,0.2499,0.1161,-0.3041,2025
10,0.3906,0.4465,-0.4885,0.1665,0.2779,-0.2934,2041
10,0.3689,0.4431,-0.501,0.0388,0.4801,-0.2706,2035
10,0.3489,0.3396,-0.5073,-0.0031,0.4757,-0.1068,2032
10,0.3594,0.4302,-0.4717,-0.0433,0.4903,-0.0204,2046
10,0.3159,0.3674,-0.4973,-0.1147,0.5196,-0.012,2037
10,0.2876,0.3909,-0.509,-0.1557,0.751,0.0534,2032
10,0.2988,0.3672,-0.5217,-0.2396,0.7986,0.1076,2032
10,0.2957,0.4011,-0.5669,-0.2659,0.779,0.1268,2038
10,0.2805,0.3806,-0.594,-0.2911,0.8151,0.1571,2045
10,0.2708,0.3328,-0.6375,-0.3673,0.8039,0.2085,2036
10,0.2651,0.3628,-0.6682,-0.3734,0.6397,0.2659,2049
10,0.2932,0.4189,-0.7043,-0.4444,0.539,0.2589,2042
10,0.3049,0.4238,-0.6836,-0.4165,0.3991,0.2858,2041
10,0.3201,0.4314,-0.6594,-0.3867,0.1989,0.3271,2037
10,0.3579,0.4753,-0.6355,-0.4073,0.0827,0.2768,2039
10,0.3669,0.478,-0.6414,-0.454,0.0827,0.2366,2041
10,0.387,0.4927,-0.6548,-0.4988,-0.0072,0.2812,2042
10,0.4236,0.5579,-0.7034,-0.5705,-0.0742,0.2571,2034
10,0.4485,0.6335,-0.6987,-0.5927,-0.0963,0.2081,2040
10,0.4529,0.635,-0.666,-0.5159,-0.1788,0.2297,2031
11,0.4712,0.7227,-0.7063,-0.5268,-0.1308,0.1947,2038
11,0.5032,0.7507,-0.7285,-0.4524,-0.0848,0.1796,2035
11,0.522,0.7834,-0.8042,-0.4874,0.0091,0.1619,2034
11,0.5952,0.7659,-0.8145,-0.4621,-0.1226,0.2192,2041
11,0.6387,0.7681,-0.8391,-0.5272,-0.2369,0.2257,2039
11,0.644,0.7778,-0.8406,-0.6032,-0.2615,0.2726,2037
11,0.6489,0.8201,-0.8508,-0.6885,-0.2434,0.3368,2036
11,0.7153,0.9243,-0.8843,-0.6903,-0.1723,0.3626,2036
11,0.7461,0.9875,-0.9578,-0.7087,-0.1137,0.3437,2039
11,0.686,1.0146,-1.0815,-0.7538,0.0357,0.3562,2037
11,0.6533,1.0049,-1.1597,-0.7212,0.1939,0.3876,2029
11,0.6462,1.0269,-1.2637,-0.6602,0.2542,0.343,2036
11,0.6436,1.0505,-1.2773,-0.6012,0.2345,0.3112,2038
11,0.6304,1.0068,-1.186,-0.5922,0.0216,0.3255,2031
11,0.5942,0.988,-1.0469,-0.5976,-0.1615,0.3209,2042
11,0.5098,0.9744,-0.9199,-0.62,-0.2424,0.2992,2040
11,0.3765,1.0139,-0.8584,-0.6379,-0.0868,0.2774,2040
11,0.2791,1.0728,-0.8459,-0.6656,0.0937,0.2623,2032
11,0.2217,1.0408,-0.9028,-0.7349,0.2497,0.2565,2030
11,0.1982,1.0007,-0.9182,-0.7344,0.2201,0.2201,2039
11,0.1841,1.0149,-0.937,-0.7525,0.1934,0.1352,2038
11,0.1516,0.9805,-0.9131,-0.6952,0.1048,0.1055,2032
11,0.1436,0.9207,-0.9043,-0.6147,-0.0475,0.0585,2037
11,0.1311,0.8867,-0.842,-0.4994,-0.179,0.0001,2035
11,0.1138,0.8652,-0.7976,-0.387,-0.2433,-0.086,2037
11,0.0876,0.7998,-0.7495,-0.2593,-0.2538,-0.114,2038
11,0.0889,0.7317,-0.7581,-0.1701,-0.3312,-0.1711,2037
11,0.1487,0.6982,-0.7605,-0.0706,-0.4734,-0.198,2042
11,0.1753,0.6204,-0.7502,0.0638,-0.7307,-0.1848,2039
11,0.2131,0.5359,-0.741,0.153,-0.8862,-0.2081,2039
11,0.2568,0.5085,-0.6897,0.2373,-1.0029,-0.1607,2036
11,0.2773,0.4224,-0.6499,0.3117,-1.156,-0.0964,2035
11,0.3157,0.4246,-0.6274,0.3123,-1.1519,-0.0577,2039
11,0.3291,0.366,-0.5649,0.3444,-1.1403,-0.0016,2033
11,0.3452,0.3779,-0.5562,0.3131,-0.9965,0.0493,2037
11,0.3589,0.3306,-0.4897,0.2622,-0.9207,0.1349,2032
11,0.384,0.3318,-0.4536,0.2344,-0.8136,0.2092,2044
11,0.4233,0.3623,-0.436,0.1569,-0.6074,0.2293,2038
11,0.3679,0.3376,-0.3699,0.1479,-0.5084,0.2737,2035
11,0.3931,0.4133,-0.3394,0.0591,-0.3425,0.2852,2041
11,0.3882,0.4041,-0.313,0.0497,-0.2364,0.2844,2035
11,0.3538,0.4214,-0.3147,-0.0218,-0.0598,0.2739,2039
11,0.323,0.3984,-0.2837,-0.1433,0.1278,0.292,2038
11,0.3896,0.5586,-0.2888,-0.0896,0.1329,0.3559,2044
11,0.3479,0.4138,-0.3145,-0.2011,0.5882,0.2057,2033
11,0.1108,0.2283,-0.3232,0.0051,0.3449,0.3257,2028
11,0.241,0.4937,-0.3474,-0.2701,0.7556,0.1871,2042
11,0.1494,0.3503,-0.3948,-0.1936,0.7681,0.2952,2039
11,0.1731,0.4048,-0.4502,-0.2386,0.773,0.3651,2040
11,0.1104,0.3875,-0.4822,-0.2108,0.8075,0.3765,2038
11,0.1453,0.4219,-0.5522,-0.2282,0.9047,0.3123,2048
11,0.1626,0.4312,-0.613,-0.2064,0.7296,0.2598,2030
11,0.2349,0.4763,-0.6824,-0.1477,0.4257,0.1766,2036
11,0.2827,0.5024,-0.6995,0.0081,-0.0133,0.0936,2033
11,0.3284,0.5491,-0.6929,0.1935,-0.3754,0.0258,2037
11,0.3179,0.5981,-0.6833,0.3389,-0.6458,0.0048,2038
11,0.3384,0.6218,-0.6909,0.4321,-0.84,-0.0099,2037
11,0.3816,0.6113,-0.6794,0.3386,-0.8645,-0.0337,2035
11,0.4058,0.6858,-0.6187,0.3892,-0.9353,0.0286,2041
11,0.4761,0.7319,-0.5613,0.3264,-0.9718,0.1027,2040
11,0.4839,0.7427,-0.5503,0.331,-0.9305,0.1437,2038
11,0.5347,0.8135,-0.5598,0.2573,-0.8063,0.2381,2034
11,0.5405,0.8535,-0.5295,0.3231,-0.693,0.349,2044
11,0.5737,0.8767,-0.5151,0.3211,-0.4757,0.4473,2031
11,0.6494,0.9473,-0.5481,0.3524,-0.2498,0.4557,2035
11,0.6218,0.9438,-0.6221,0.3884,0.1188,0.4322,2032
11,0.6038,0.9675,-0.7366,0.3898,0.32,0.3555,2031
11,0.5583,0.9395,-0.8525,0.3444,0.4205,0.3318,2037
11,0.6064,0.927,-0.9431,0.3125,0.337,0.2904,2037
11,0.6189,0.9084,-0.9583,0.4059,0.0679,0.2369,2045
11,0.6409,0.9797,-1.0325,0.3979,0.0559,0.082,2036
11,0.6299,0.9468,-1.054,0.4757,0.0152,0.0306,2028
11,0.6392,0.9629,-1.0757,0.4345,0.014,-0.067,2040
11,0.6504,0.908,-1.0461,0.4223,-0.0703,-0.0933,2036
11,0.6519,0.9138,-1.0579,0.377,-0.0786,-0.1433,2041
11,0.6311,0.9526,-1.0828,0.3935,0.0507,-0.1783,2034
11,0.5603,0.9468,-1.1531,0.4014,0.1888,-0.2519,2030
11,0.5222,0.9131,-1.238,0.4185,0.3159,-0.3105,2040
11,0.5239,0.8499,-1.2761,0.3903,0.3651,-0.3449,2033
11,0.4983,0.812,-1.26,0.39,0.2723,-0.3321,2030
11,0.4646,0.8015,-1.2007,0.3831,0.2388,-0.3581,2033
11,0.3989,0.8008,-1.1897,0.3923,0.287,-0.4312,2041
11,0.3535,0.7415,-1.1628,0.4456,0.2763,-0.4662,2038
11,0.325,0.7087,-1.158,0.3992,0.2217,-0.5215,2037
11,0.303,0.6484,-1.1033,0.3753,0.1001,-0.5284,2041
11,0.2788,0.5742,-1.0583,0.3368,-0.0586,-0.5155,2037
11,0.2856,0.5962,-0.9895,0.2968,-0.129,-0.5245,2035
11,0.2791,0.5706,-0.9094,0.3637,-0.2657,-0.4892,2032
11,0.2949,0.5737,-0.8552,0.3729,-0.2234,-0.4914,2041
11,0.3008,0.5447,-0.866,0.3718,-0.1226,-0.5092,2033
11,0.3179,0.5005,-0.8293,0.4091,-0.0501,-0.4615,2038
11,0.3521,0.4749,-0.8188,0.414,-0.081,-0.4096,2042
11,0.3684,0.4448,-0.8416,0.3862,-0.0284,-0.3931,2033
11,0.3521,0.395,-0.8232,0.3434,0.0747,-0.3253,2032
11,0.3401,0.3762,-0.7646,0.3814,-0.0341,-0.1784,2034
11,0.3579,0.4001,-0.7327,0.3535,-0.1155,-0.1638,2028
11,0.3723,0.3882,-0.6692,0.4141,-0.0788,-0.1489,2036
11,0.3364,0.3796,-0.6292,0.3638,0.084,-0.1344,2039
11,0.324,0.3669,-0.6172,0.2657,0.0984,-0.1084,2037
11,0.3423,0.3872,-0.583,0.2317,0.0019,-0.0629,2034
11,0.3542,0.4053,-0.5347,0.1661,-0.0313,-0.0242,2032
12,0.3127,0.4231,-0.49,0.0802,0.1108,0.0,2041
12,0.2908,0.4341,-0.4373,0.0049,0.2297,0.0313,2031
12,0.2456,0.459,-0.4253,-0.0695,0.3111,0.0302,2039
12,0.262,0.4568,-0.4155,-0.0924,0.3641,0.0116,2038
12,0.2439,0.4456,-0.4355,-0.1305,0.4785,-0.0613,2035
12,0.219,0.4246,-0.4485,-0.1681,0.55,-0.0796,2038
12,0.1924,0.4192,-0.5232,-0.241,0.5715,-0.1092,2033
12,0.2073,0.4165,-0.5671,-0.2416,0.4405,-0.129,2035
12,0.207,0.4089,-0.6013,-0.2574,0.3301,-0.145,2035
12,0.209,0.3967,-0.5938,-0.2729,0.2171,-0.1312,2036
12,0.2095,0.406,-0.5808,-0.2807,0.1159,-0.1178,2034
12,0.2422,0.4197,-0.6135,-0.2788,0.0336,-0.1278,2041
12,0.2627,0.4355,-0.6216,-0.2418,-0.0461,-0.1352,2038
12,0.3132,0.4397,-0.6519,-0.2099,-0.1557,-0.1614,2036
12,0.325,0.4351,-0.6599,-0.1947,-0.2225,-0.1338,2042
12,0.3633,0.4724,-0.6736,-0.1906,-0.2766,-0.098,2035
12,0.374,0.4658,-0.6843,-0.2277,-0.2473,-0.0658,2035
12,0.4023,0.5156,-0.6741,-0.2019,-0.2678,-0.0197,2032
12,0.4351,0.5608,-0.7026,-0.2756,-0.2511,0.0019,2028
12,0.4731,0.635,-0.7571,-0.3264,-0.2694,0.0128,2039
12,0.4712,0.676,-0.7546,-0.3232,-0.3228,0.0479,2032
12,0.4897,0.7593,-0.7493,-0.355,-0.33,0.0679,2032
12,0.5193,0.811,-0.698,-0.2868,-0.3625,0.1144,2039
12,0.5613,0.8425,-0.7075,-0.2844,-0.177,0.1076,2039
12,0.554,0.8838,-0.7383,-0.2149,-0.0735,0.1409,2038
12,0.5696,0.8638,-0.8015,-0.1935,-0.0221,0.1806,2047
12,0.6182,0.8496,-0.8584,-0.2099,-0.0141,0.2758,2036
12,0.6616,0.8406,-0.9004,-0.1818,-0.1358,0.4157,2034
12,0.6699,0.822,-0.9189,-0.1816,-0.2127,0.518,2040
12,0.6855,0.8372,-0.9675,-0.1747,-0.2445,0.5962,2037
12,0.6919,0.8706,-0.9785,-0.1898,-0.1108,0.6811,2033
12,0.6421,0.9023,-1.0054,-0.1754,0.0027,0.7676,2032
12,0.6323,0.9436,-1.0798,-0.2079,0.1479,0.7573,2032
12,0.5801,0.9773,-1.1211,-0.1828,0.249,0.7606,2037
12,0.53,0.9565,-1.1077,-0.079,0.212,0.7898,2038
12,0.5164,0.9202,-1.0967,-0.0655,0.1081,0.7508,2032
12,0.4741,0.9143,-1.0549,-0.0878,0.0281,0.6967,2048
12,0.4165,0.8438,-0.9795,-0.0589,-0.1523,0.7239,2032
12,0.3826,0.8279,-0.9324,-0.1455,-0.2353,0.7521,2038
12,0.3547,0.8611,-0.947,-0.3296,-0.133,0.756,2044
12,0.2803,0.9268,-0.9167,-0.3947,-0.0035,0.7873,2042
12,0.2075,0.9141,-0.865,-0.3838,0.0019,0.8216,2033
12,0.1482,0.8762,-0.7991,-0.361,0.0774,0.7508,2046
12,0.0994,0.8408,-0.8291,-0.461,0.4179,0.6107,2051
12,0.0798,0.8474,-0.8625,-0.5307,0.5235,0.5885,2031
12,0.0627,0.8425,-0.9001,-0.5386,0.3286,0.5742,2038
12,0.05,0.7954,-0.8684,-0.4034,0.0169,0.5341,2032
12,0.0991,0.7974,-0.8228,-0.2966,-0.1525,0.4275,2039
12,0.0759,0.7688,-0.8259,-0.2563,-0.0923,0.3188,2036
12,0.0398,0.7292,-0.8533,-0.2044,-0.2004,0.3071,2040
12,0.1218,0.7266,-0.9263,-0.181,-0.4794,0.2775,2036
12,0.1885,0.6755,-0.9143,-0.1258,-0.7417,0.2192,2033
12,0.2185,0.6602,-0.884,0.0047,-0.9676,0.1971,2038
12,0.2578,0.6272,-0.8276,0.0571,-1.0188,0.1459,2035
12,0.261,0.5908,-0.7668,0.1912,-1.1742,0.1537,2032
12,0.3127,0.561,-0.7832,0.1498,-1.1714,0.0968,2038
12,0.3335,0.491,-0.7075,0.1537,-1.2122,0.1386,2036
12,0.3867,0.47,-0.6396,0.1535,-1.3053,0.2008,2023
12,0.4041,0.4851,-0.5916,0.1028,-1.2769,0.1924,2038
12,0.4014,0.4841,-0.5388,0.024,-1.0943,0.1772,2028
12,0.4021,0.4922,-0.4919,0.0095,-0.9529,0.2088,2039
12,0.4287,0.5054,-0.4683,-0.0674,-0.8223,0.1995,2028
12,0.4321,0.4927,-0.4126,-0.1044,-0.664,0.1566,2040
12,0.4458,0.5068,-0.3884,-0.1429,-0.4773,0.1125,2037
12,0.4226,0.502,-0.366,-0.2207,-0.2035,0.076,2030
12,0.4023,0.4656,-0.3745,-0.2513,-0.0197,0.0818,2036
12,0.4023,0.4417,-0.3784,-0.2719,0.0951,0.0466,2039
12,0.3672,0.4202,-0.4321,-0.384,0.3029,0.0276,2044
12,0.3145,0.4004,-0.4304,-0.4064,0.4348,0.0332,2032
12,0.2793,0.3818,-0.449,-0.4457,0.4916,0.0602,2037
12,0.2559,0.406,-0.4939,-0.492,0.5207,0.0533,2035
12,0.2415,0.3821,-0.5054,-0.5133,0.538,0.0015,2032
12,0.2104,0.3555,-0.5544,-0.4839,0.5016,-0.0091,2033
12,0.2422,0.4031,-0.6267,-0.5074,0.4309,-0.0607,2049
12,0.248,0.4287,-0.6492,-0.4299,0.3301,-0.0373,2035
12,0.2676,0.4392,-0.6687,-0.3364,0.1954,-0.0129,2038
12,0.313,0.4648,-0.7048,-0.2574,0.0884,-0.0406,2035
12,0.3423,0.5212,-0.6646,-0.1554,0.0453,-0.0268,2040
12,0.3584,0.5266,-0.6421,-0.0674,-0.0129,-0.0059,2032
12,0.3831,0.5732,-0.6494,0.0011,-0.0558,0.0165,2033
12,0.3838,0.6172,-0.6416,0.1232,-0.096,0.0214,2044
12,0.437,0.6738,-0.6162,0.1718,-0.0778,0.0646,2034
12,0.4556,0.6799,-0.5833,0.2428,-0.089,0.0963,2039
12,0.4573,0.6846,-0.5879,0.2954,-0.0896,0.1459,2025
12,0.5024,0.7083,-0.6184,0.2654,0.0008,0.1698,2039
12,0.5195,0.7385,-0.625,0.29,0.0324,0.2464,2036
12,0.5378,0.7964,-0.6377,0.314,0.051,0.2928,2040
12,0.5271,0.8286,-0.6396,0.3559,0.1218,0.2904,2041
12,0.5168,0.8516,-0.6729,0.3946,0.2962,0.279,2040
12,0.5291,0.8933,-0.6877,0.4903,0.4799,0.2689,2043
12,0.5364,0.8601,-0.7708,0.467,0.5907,0.232,2034
12,0.5491,0.8525,-0.8674,0.4689,0.5685,0.2208,2043
12,0.6182,0.9194,-0.8884,0.4771,0.4452,0.2033,2040
12,0.5776,0.874,-0.9255,0.4799,0.3357,0.189,2030
12,0.6082,0.895,-0.9963,0.4998,0.3442,0.132,2033
12,0.6619,0.9277,-1.0012,0.5181,0.2737,0.1724,2041
12,0.6938,0.9358,-1.0164,0.5602,0.0772,0.1972,2038
12,0.7354,0.9241,-0.9387,0.5561,0.057,0.189,2042
12,0.6882,0.9163,-0.863,0.537,0.1838,0.2316,2028
12,0.6409,0.9246,-0.8318,0.4898,0.414,0.2654,2032
12,0.6343,0.9531,-0.9104,0.4325,0.7256,0.2634,2034
12,0.5981,0.9185,-1.0542,0.4279,0.9548,0.277,2026
12,0.5576,0.8381,-1.134,0.3879,0.9842,0.2927,2032
13,0.5273,0.7559,-1.1538,0.3848,0.7978,0.3012,2035
13,0.4666,0.7349,-1.1328,0.348,0.7132,0.2808,2026
13,0.4329,0.7192,-1.1121,0.3233,0.6118,0.2474,2033
13,0.3901,0.7161,-1.0964,0.296,0.4564,0.1989,2033
13,0.3303,0.7073,-1.0369,0.246,0.297,0.1433,2038
13,0.3052,0.688,-0.9727,0.2224,0.187,0.0529,2036
13,0.2805,0.6492,-0.8813,0.2698,0.1092,-0.0232,2036
13,0.2788,0.6282,-0.8855,0.2547,0.091,-0.142,2037
13,0.2512,0.5884,-0.9031,0.2208,0.0803,-0.2348,2035
13,0.2612,0.5632,-0.9038,0.1651,-0.0128,-0.2842,2033
13,0.2654,0.5132,-0.8306,0.1378,-0.1687,-0.3011,2032
13,0.2893,0.5276,-0.7805,0.1605,-0.3096,-0.3518,2035
13,0.3186,0.5488,-0.7717,0.1422,-0.3109,-0.4236,2036
13,0.2988,0.5369,-0.7549,0.137,-0.28,-0.4425,2030
13,0.2998,0.522,-0.7881,0.0627,-0.3217,-0.4785,2036
13,0.3213,0.5022,-0.7419,-0.0218,-0.3767,-0.4798,2024
13,0.3428,0.4536,-0.647,0.0164,-0.5251,-0.4416,2040
13,0.3547,0.4768,-0.6348,-0.0485,-0.4448,-0.4894,2036
13,0.3616,0.4553,-0.5879,-0.0016,-0.3585,-0.4461,2029
13,0.3523,0.437,-0.5833,-0.0566,-0.2611,-0.4426,2040
13,0.3647,0.4304,-0.5718,-0.1072,-0.2589,-0.4085,2037
13,0.366,0.4158,-0.5283,-0.157,-0.2558,-0.3824,2031
13,0.3455,0.4246,-0.4929,-0.2294,-0.1904,-0.2972,2048
13,0.3372,0.4089,-0.449,-0.2495,-0.174,-0.2386,2026
13,0.3247,0.4341,-0.4124,-0.2819,-0.0878,-0.2201,2040
13,0.3127,0.4265,-0.4492,-0.3629,0.0919,-0.2309,2038
13,0.2559,0.4084,-0.4207,-0.3562,0.173,-0.1888,2027
13,0.2576,0.3997,-0.4819,-0.4163,0.1738,-0.2005,2031
13,0.2722,0.4138,-0.5347,-0.4801,0.2318,-0.1899,2036
13,0.2329,0.3857,-0.4866,-0.3769,0.0812,-0.1071,2038
13,0.2278,0.3877,-0.5642,-0.4245,0.0668,-0.1318,2033
13,0.2031,0.3735,-0.5723,-0.3609,0.083,-0.1449,2037
13,0.1921,0.3821,-0.584,-0.4128,0.0324,-0.0803,2043
13,0.2144,0.3774,-0.6592,-0.4155,-0.0944,-0.0538,2038
13,0.2703,0.4185,-0.6196,-0.2682,-0.2852,-0.074,2031
13,0.2744,0.4116,-0.6331,-0.3268,-0.2665,-0.0621,2036
13,0.3074,0.4268,-0.6296,-0.2625,-0.331,-0.0437,2052
13,0.3376,0.4407,-0.6614,-0.3512,-0.3687,-0.0138,2036
13,0.3904,0.47,-0.6367,-0.2996,-0.4963,0.0257,2034
13,0.4265,0.5083,-0.5977,-0.3135,-0.4783,0.0342,2044
13,0.4478,0.5591,-0.585,-0.2975,-0.438,0.0425,2040
13,0.4741,0.5991,-0.5974,-0.3111,-0.3446,0.0228,2032
13,0.4719,0.6289,-0.616,-0.3577,-0.3008,0.0192,2035
13,0.5066,0.6509,-0.6204,-0.3866,-0.3133,0.0277,2030
13,0.5278,0.7043,-0.6252,-0.3967,-0.2955,0.0301,2032
13,0.55,0.7625,-0.6304,-0.4133,-0.2605,0.0093,2033
13,0.5659,0.8044,-0.6489,-0.3785,-0.243,0.0236,2032
13,0.5818,0.8494,-0.72,-0.4269,-0.179,-0.0369,2032
13,0.6174,0.866,-0.7346,-0.4151,-0.247,0.0242,2034
13,0.6272,0.9084,-0.7681,-0.4794,-0.3047,0.0421,2044
13,0.6492,0.9509,-0.7742,-0.5223,-0.3434,0.0654,2031
13,0.6338,0.9724,-0.8252,-0.5413,-0.3274,0.0836,2041
13,0.6042,1.0217,-0.8306,-0.5831,-0.2614,0.1206,2040
13,0.5884,1.0234,-0.8477,-0.5898,-0.2429,0.208,2038
13,0.5605,1.0808,-0.8804,-0.561,-0.0887,0.2756,2037
13,0.4929,1.1465,-1.0132,-0.5018,0.1506,0.2776,2028
13,0.4253,1.168,-1.1504,-0.4386,0.2551,0.2169,2042
13,0.3738,1.1357,-1.1768,-0.3468,0.0417,0.1586,2041
13,0.3262,1.0376,-1.1536,-0.2579,-0.195,0.13,2039
13,0.2603,0.9966,-1.0935,-0.1726,-0.3803,0.0914,2047
13,0.2209,0.9919,-1.0605,-0.1112,-0.4843,0.0519,2046
13,0.1753,1.0122,-1.0068,-0.0802,-0.5378,0.0376,2037
13,0.1262,1.041,-0.9302,-0.0324,-0.5325,0.0049,2040
13,0.125,1.0115,-0.9319,-0.0553,-0.3915,-0.0878,2046
13,0.0986,0.9775,-0.9417,-0.0601,-0.2559,-0.1486,2032
13,0.093,0.9622,-0.905,-0.0397,-0.2682,-0.1349,2033
13,0.1128,0.9243,-0.877,0.0778,-0.3943,-0.1537,2043
13,0.1252,0.9268,-0.8359,0.1802,-0.3709,-0.2207,2038
13,0.0916,0.887,-0.8096,0.2318,-0.33,-0.1991,2033
13,0.0989,0.843,-0.8198,0.2348,-0.3164,-0.1944,2036
13,0.1152,0.7632,-0.7708,0.3133,-0.4103,-0.1353,2037
13,0.176,0.7412,-0.7737,0.3501,-0.4129,-0.1428,2038
13,0.2002,0.6882,-0.7681,0.4212,-0.3848,-0.0738,2032
13,0.2524,0.6765,-0.792,0.4711,-0.4112,-0.0111,2040
13,0.2668,0.6248,-0.8049,0.5474,-0.4589,0.0292,2040
13,0.2732,0.5691,-0.8059,0.569,-0.4537,0.0711,2029
13,0.2949,0.5254,-0.761,0.5943,-0.5681,0.1738,2043
13,0.3081,0.5046,-0.7605,0.5982,-0.6203,0.2266,2035
13,0.3279,0.4897,-0.7356,0.5699,-0.5837,0.2366,2040
13,0.3176,0.4614,-0.6631,0.5662,-0.5573,0.286,2042
13,0.3032,0.4712,-0.6123,0.5133,-0.5215,0.2951,2031
13,0.3167,0.4951,-0.5403,0.5332,-0.516,0.3377,2048
13,0.2822,0.5178,-0.5222,0.4633,-0.302,0.2269,2039
13,0.2734,0.5254,-0.4429,0.4184,-0.1736,0.1967,2041
13,0.2517,0.5383,-0.4424,0.3312,-0.1047,0.149,2023
13,0.2515,0.5686,-0.4333,0.296,-0.114,0.0727,2040
13,0.2197,0.5771,-0.4214,0.239,-0.0068,-0.0172,2040
13,0.186,0.5994,-0.4001,0.1513,0.1171,-0.0784,2033
13,0.1809,0.5818,-0.3931,0.0676,0.1029,-0.1436,2039
13,0.187,0.5938,-0.4497,-0.0103,0.1836,-0.2655,2044
13,0.1648,0.5808,-0.4636,-0.0172,0.2582,-0.2422,2034
13,0.1589,0.5564,-0.5039,-0.0527,0.2715,-0.2333,2043
13,0.1743,0.5486,-0.5171,-0.0511,0.1768,-0.198,2038
13,0.1548,0.4834,-0.5627,-0.0233,0.1204,-0.2115,2035
13,0.1631,0.5591,-0.5537,0.0055,0.1888,-0.1884,2042
13,0.1262,0.5237,-0.605,-0.039,0.2723,-0.1325,2017
13,0.1543,0.519,-0.6697,-0.0305,0.2499,-0.0828,2039
13,0.1951,0.5493,-0.6609,0.0294,0.1794,-0.0308,2035
13,0.2114,0.5403,-0.6616,0.0651,0.1659,0.0272,2041
13,0.21,0.5535,-0.6702,0.1104,0.1695,0.051,2025
13,0.25,0.615,-0.6489,0.1867,0.0738,0.0991,2039
13,0.2749,0.6099,-0.6885,0.2125,-0.0397,0.0899,2026
13,0.2993,0.6448,-0.6255,0.2555,-0.0903,0.133,2032
13,0.3091,0.698,-0.593,0.2623,-0.0992,0.1424,2027
14,0.3313,0.717,-0.5867,0.2541,-0.1479,0.1597,2039
14,0.3538,0.7463,-0.5493,0.2531,-0.1065,0.1553,2035
14,0.3718,0.7678,-0.5181,0.2433,-0.0599,0.1728,2037
14,0.3955,0.7908,-0.5066,0.2404,-0.0451,0.1792,2038
14,0.428,0.8159,-0.5283,0.2348,-0.0067,0.1515,2033
14,0.4143,0.8247,-0.533,0.2209,0.0318,0.1498,2036
14,0.4131,0.8364,-0.5649,0.1904,0.0798,0.1459,2043
14,0.4131,0.8586,-0.5574,0.1683,0.1119,0.1234,2015
14,0.4099,0.8513,-0.6292,0.1706,0.1582,0.0771,2039
14,0.4268,0.8701,-0.6611,0.1437,0.2811,0.0313,2040
14,0.4189,0.8555,-0.7314,0.1268,0.2898,0.0027,2040
14,0.4417,0.8884,-0.8088,0.1004,0.2416,-0.0567,2025
14,0.4421,0.8931,-0.8972,0.0863,0.1708,-0.0961,2041
14,0.4663,0.9497,-0.907,0.0651,0.1506,-0.0746,2038
14,0.4524,0.9861,-0.8933,0.143,0.0302,-0.098,2026
14,0.5,0.9812,-0.908,0.172,-0.028,-0.1806,2043
14,0.4756,0.9917,-0.8921,0.2542,0.0061,-0.2137,2032
14,0.4717,0.949,-0.8831,0.2353,0.0707,-0.2057,2035
14,0.425,0.9341,-0.9348,0.2265,0.0667,-0.1908,2033
14,0.4231,0.9377,-1.0295,0.2065,0.1935,-0.189,2041
14,0.3577,0.9172,-1.1238,0.2567,0.2607,-0.1794,2036
14,0.3311,0.887,-1.2769,0.2602,0.2883,-0.214,2035
14,0.3208,0.8489,-1.3335,0.2513,0.204,-0.1976,2037
14,0.2893,0.8335,-1.2856,0.2854,0.0129,-0.1248,2042
14,0.2815,0.8438,-1.1831,0.399,-0.1677,-0.1442,2032
14,0.231,0.804,-1.1257,0.3617,-0.1019,-0.2157,2035
14,0.1958,0.7852,-1.0891,0.3438,-0.0534,-0.2433,2044
14,0.189,0.7649,-1.0925,0.3224,-0.1077,-0.282,2036
14,0.1897,0.7283,-1.0439,0.3276,-0.1313,-0.3384,2037
14,0.1843,0.6685,-0.9805,0.3125,-0.129,-0.3253,2046
14,0.1858,0.6274,-1.0054,0.2358,-0.0866,-0.3501,2038
14,0.1675,0.6157,-0.9109,0.2637,-0.1429,-0.2984,2039
14,0.1755,0.575,-0.8286,0.2848,-0.1872,-0.3228,2038
14,0.176,0.5068,-0.8259,0.2811,-0.1558,-0.4249,2034
14,0.177,0.5198,-0.7502,0.269,-0.1033,-0.3486,2046
14,0.1633,0.5374,-0.8547,0.1677,-0.0205,-0.3271,2036
14,0.198,0.5283,-0.8833,0.1784,-0.0017,-0.3024,2041
14,0.1497,0.4939,-0.8115,0.1795,-0.021,-0.206,2027
14,0.1663,0.501,-0.8455,0.1939,-0.051,-0.2147,2038
14,0.1797,0.4463,-0.8716,0.1499,0.0675,-0.2374,2034
14,0.1692,0.4448,-0.8501,0.1336,0.0197,-0.141,2035
14,0.2056,0.4617,-0.8311,0.2318,-0.232,-0.1037,2048
14,0.2395,0.4302,-0.8,0.2321,-0.2494,-0.1281,2033
14,0.1968,0.4426,-0.6851,0.2342,-0.1799,-0.0395,2032
14,0.2146,0.4412,-0.7051,0.2032,-0.2224,-0.0386,2047
14,0.2234,0.4458,-0.6494,0.2286,-0.2226,0.0057,2042
14,0.2307,0.4407,-0.6096,0.1691,-0.1432,0.0597,2046
14,0.2339,0.4656,-0.5825,0.0988,-0.0917,0.1205,2033
14,0.2395,0.4756,-0.5398,0.0485,-0.0269,0.1775,2033
14,0.2219,0.4956,-0.5012,0.0132,0.0863,0.21,2037
14,0.2219,0.4868,-0.5269,-0.0815,0.2756,0.2195,2032
14,0.2048,0.5061,-0.5427,-0.1412,0.3586,0.2822,2038
14,0.2031,0.4817,-0.5852,-0.1694,0.3428,0.3037,2041
14,0.2061,0.4941,-0.6147,-0.1944,0.3743,0.357,2039
14,0.1931,0.5171,-0.6523,-0.2208,0.3751,0.4135,2051
14,0.2053,0.5308,-0.6528,-0.2123,0.2743,0.4489,2036
14,0.2195,0.5183,-0.6409,-0.1895,0.2461,0.4643,2039
14,0.2014,0.5061,-0.634,-0.1882,0.2826,0.4967,2032
14,0.2102,0.5049,-0.6914,-0.2816,0.2561,0.4938,2038
14,0.2339,0.5181,-0.6392,-0.2756,0.1005,0.5735,2035
14,0.2341,0.5156,-0.6765,-0.3121,0.0529,0.561,2035
14,0.2407,0.5364,-0.6353,-0.3598,0.1027,0.6183,2031
14,0.251,0.5581,-0.605,-0.3763,0.0206,0.6835,2042
14,0.2715,0.6113,-0.6763,-0.42,0.0575,0.5908,2040
14,0.2556,0.6555,-0.6667,-0.3922,0.1743,0.5469,2032
14,0.2427,0.6689,-0.749,-0.465,0.1593,0.4815,2024
14,0.2852,0.7261,-0.8,-0.452,0.0654,0.3979,2038
14,0.3135,0.7493,-0.8025,-0.369,-0.0322,0.3278,2038
14,0.356,0.8079,-0.8569,-0.3394,-0.1305,0.2573,2039
14,0.4102,0.8145,-0.8625,-0.2818,-0.3027,0.1887,2028
14,0.4473,0.8411,-0.8943,-0.3168,-0.4618,0.1458,2046
14,0.5027,0.8364,-0.8728,-0.3031,-0.6324,0.1631,2034
14,0.5251,0.8633,-0.8801,-0.3284,-0.7264,0.1993,2040
14,0.5886,0.885,-0.8765,-0.3325,-0.7312,0.2806,2042
14,0.5874,0.8728,-0.8933,-0.331,-0.6272,0.3362,2035
14,0.5801,0.9192,-0.9385,-0.3272,-0.3646,0.3794,2038
14,0.5801,0.957,-1.0344,-0.2959,-0.0421,0.4366,2043
14,0.5571,0.9937,-1.1819,-0.3422,0.2626,0.4316,2037
14,0.5256,1.0203,-1.2002,-0.2393,0.2609,0.4852,2035
14,0.4409,1.011,-1.2275,-0.2755,0.2939,0.4626,2034
14,0.3689,0.9763,-1.1055,-0.2112,0.1874,0.4556,2030
14,0.3215,0.9558,-1.0581,-0.1959,0.073,0.3976,2034
14,0.2698,0.9307,-1.0122,-0.2396,0.0382,0.3429,2047
14,0.1975,0.926,-0.9666,-0.2071,0.0079,0.348,2032
14,0.1995,0.9275,-0.9683,-0.2554,0.0987,0.2558,2033
14,0.144,0.9312,-0.9639,-0.2417,0.1325,0.265,2036
14,0.1443,0.9326,-0.979,-0.2045,0.1277,0.2686,2031
14,0.1431,0.905,-0.9639,-0.1571,0.1471,0.2647,2035
14,0.1228,0.875,-0.915,-0.0904,0.1312,0.2932,2043
14,0.1306,0.8438,-0.8811,0.0117,0.1112,0.3003,2034
14,0.1128,0.7764,-0.8496,0.0728,0.1337,0.2843,2038
14,0.0901,0.739,-0.8274,0.1218,0.1558,0.3053,2037
14,0.0947,0.6882,-0.8516,0.1116,0.1316,0.3247,2031
14,0.115,0.6331,-0.8113,0.1396,0.0258,0.3326,2032
14,0.1196,0.6328,-0.8608,0.1333,-0.0933,0.3215,2039
14,0.1121,0.6233,-0.8196,0.1674,-0.1976,0.3151,2036
14,0.1248,0.5706,-0.7622,0.2051,-0.3775,0.2948,2034
14,0.1575,0.5569,-0.7224,0.2622,-0.3892,0.2549,2037
14,0.1948,0.5,-0.6841,0.2875,-0.3635,0.2539,2040
14,0.2351,0.4946,-0.6438,0.2751,-0.3619,0.3188,2032
14,0.2798,0.4294,-0.6467,0.2372,-0.4263,0.3357,2035
15,0.2861,0.4243,-0.5513,0.2205,-0.4072,0.3859,2023
15,0.2737,0.4246,-0.5208,0.1308,-0.3888,0.4171,2028
15,0.283,0.45,-0.4722,0.0815,-0.3603,0.443,2037
15,0.2546,0.448,-0.4446,0.0274,-0.2906,0.3918,2037
15,0.2439,0.4675,-0.4316,-0.0465,-0.1958,0.3244,2041
15,0.2341,0.4683,-0.4053,-0.0838,-0.193,0.276,2046
15,0.2307,0.4844,-0.4233,-0.1775,-0.1666,0.2029,2038
15,0.2271,0.5103,-0.3862,-0.1772,-0.1979,0.1735,2041
15,0.2107,0.5137,-0.4114,-0.2731,-0.1324,0.0975,2032
15,0.1909,0.5269,-0.436,-0.3093,-0.0985,0.089,2044
15,0.1619,0.5251,-0.4541,-0.3425,-0.0803,0.0684,2034
15,0.1584,0.5273,-0.4861,-0.349,-0.0746,0.022,2039
15,0.137,0.509,-0.5024,-0.3352,-0.0293,0.0173,2032
15,0.1428,0.5122,-0.5383,-0.3259,-0.0439,0.0157,2032
15,0.1541,0.509,-0.5872,-0.3035,-0.089,0.0076,2040
15,0.1699,0.5085,-0.5796,-0.2225,-0.135,0.0146,2036
15,0.1714,0.48,-0.6069,-0.2433,-0.1352,0.0052,2032
15,0.1941,0.4954,-0.6152,-0.2248,-0.1434,0.0458,2041
15,0.2126,0.491,-0.6362,-0.2203,-0.1503,0.0736,2030
15,0.2471,0.5122,-0.624,-0.1718,-0.1993,0.1233,2030
15,0.2849,0.5295,-0.5947,-0.1258,-0.2354,0.1322,2038
15,0.3188,0.5586,-0.5627,-0.0602,-0.2502,0.1469,2048
15,0.3586,0.5715,-0.6282,-0.096,-0.2095,0.1059,2032
15,0.3416,0.636,-0.5637,-0.0182,-0.2575,0.2083,2033
15,0.3904,0.6816,-0.6272,-0.0965,-0.2498,0.1847,2040
15,0.3855,0.7102,-0.5659,0.0772,-0.2795,0.1543,2035
15,0.3948,0.7437,-0.6008,-0.0415,-0.1208,0.1631,2029
15,0.3979,0.7666,-0.6243,0.0609,-0.1788,0.1238,2033
15,0.4285,0.7961,-0.6577,0.0431,-0.1004,0.1233,2032
15,0.4324,0.812,-0.6484,0.1197,-0.076,0.1133,2043
15,0.4385,0.8474,-0.7085,0.1065,0.0322,0.0696,2038
15,0.4285,0.8733,-0.7654,0.123,0.0915,0.0392,2040
15,0.4412,0.8994,-0.8354,0.0384,0.1045,0.0329,2036
15,0.4573,0.8979,-0.8696,0.0654,-0.033,-0.0041,2041
15,0.4814,0.9438,-0.865,0.112,-0.0654,-0.0392,2028
15,0.5237,0.9917,-0.9453,0.1253,-0.0083,-0.1052,2036
15,0.55,1.0002,-0.9648,0.1517,0.0212,-0.1193,2038
15,0.6021,1.0176,-1.0249,0.1647,-0.118,-0.0842,2035
15,0.6338,0.9983,-0.9558,0.1838,-0.1924,-0.0521,2031
15,0.6433,1.0027,-0.9172,0.1742,-0.1465,0.0117,2048
15,0.5786,0.9749,-0.8677,0.0686,0.1369,0.1004,2042
15,0.5061,1.0178,-0.9158,-0.0377,0.4524,0.1562,2040
15,0.4529,0.9978,-1.0676,-0.0694,0.7114,0.159,2035
15,0.397,0.9546,-1.1531,-0.1333,0.8649,0.1658,2029
15,0.3455,0.8772,-1.166,-0.086,0.859,0.2169,2029
15,0.3118,0.7876,-1.2695,-0.083,0.8356,0.1792,2038
15,0.2712,0.7822,-1.2944,-0.0483,0.7071,0.1879,2030
15,0.2144,0.772,-1.3191,-0.0917,0.5035,0.1465,2034
15,0.158,0.7827,-1.2668,-0.0728,0.2424,0.0884,2048
15,0.1221,0.783,-1.1072,0.0333,0.0348,0.018,2037
15,0.1382,0.7476,-1.0459,0.0577,-0.0264,-0.1483,2041
15,0.1323,0.699,-1.0396,0.0944,-0.0964,-0.249,2042
15,0.1404,0.6562,-0.9983,0.0747,-0.2093,-0.2974,2041
15,0.1956,0.6106,-0.8918,0.089,-0.3521,-0.3413,2041
15,0.2207,0.5876,-0.8035,0.1139,-0.3095,-0.3581,2036
15,0.2192,0.5879,-0.7847,0.1365,-0.2553,-0.3758,2039
15,0.2329,0.5679,-0.8342,0.1392,-0.2125,-0.4072,2035
15,0.2427,0.5369,-0.8425,0.0505,-0.1987,-0.3927,2035
15,0.2434,0.5146,-0.8308,0.0104,-0.2711,-0.3272,2025
15,0.2676,0.5342,-0.7654,0.0474,-0.3143,-0.3009,2037
15,0.272,0.5105,-0.7463,0.0378,-0.2456,-0.3288,2032
15,0.282,0.4966,-0.7307,0.0589,-0.2581,-0.324,2037
15,0.3186,0.48,-0.7075,0.1003,-0.4056,-0.3232,2045
15,0.3455,0.4805,-0.6638,0.1521,-0.5133,-0.3613,2043
15,0.3435,0.4734,-0.5916,0.1428,-0.493,-0.3621,2036
15,0.3262,0.4697,-0.5596,0.0794,-0.4798,-0.3402,2026
15,0.3296,0.4834,-0.5144,0.0573,-0.5099,-0.3096,2030
15,0.3254,0.4998,-0.467,0.0529,-0.4373,-0.2942,2030
15,0.3049,0.488,-0.4353,0.0033,-0.2502,-0.2984,2035
15,0.2891,0.4871,-0.4229,-0.082,-0.0542,-0.2745,2032
15,0.2822,0.4622,-0.46,-0.1786,0.0166,-0.2393,2041
15,0.2622,0.4612,-0.4851,-0.2292,0.0626,-0.1842,2041
15,0.2444,0.479,-0.4756,-0.2472,0.1091,-0.0992,2044
15,0.2161,0.5215,-0.4851,-0.2659,0.186,-0.0953,2040
15,0.2034,0.5413,-0.4797,-0.2048,0.2465,-0.1298,2031
15,0.1792,0.5056,-0.5679,-0.2358,0.3613,-0.2175,2038
15,0.1973,0.5059,-0.5889,-0.1605,0.306,-0.1562,2026
15,0.2004,0.4902,-0.6731,-0.1748,0.1477,-0.1497,2041
15,0.2312,0.457,-0.6235,-0.092,-0.0097,-0.0992,2043
15,0.2063,0.4539,-0.6206,-0.0808,0.0477,-0.0221,2032
15,0.2222,0.4749,-0.6333,-0.0655,0.0011,0.0015,2027
15,0.2454,0.4248,-0.6733,-0.065,0.0249,0.0044,2042
15,0.2332,0.4148,-0.6968,-0.1704,0.0914,0.0827,2026
15,0.2515,0.5054,-0.6831,-0.2067,-0.0462,0.1928,2034
15,0.3364,0.5681,-0.6484,-0.1304,-0.1876,0.1851,2035
15,0.3296,0.5889,-0.6353,-0.129,-0.051,0.1286,2033
15,0.3284,0.6323,-0.6755,-0.1995,-0.0033,0.1224,2042
15,0.3799,0.688,-0.7815,-0.2826,-0.1016,0.08,2032
15,0.406,0.7585,-0.6868,-0.2001,-0.2537,0.174,2040
15,0.4253,0.814,-0.5913,-0.0867,-0.2898,0.1396,2044
15,0.4587,0.8291,-0.5684,0.0025,-0.1767,0.0724,2034
15,0.4771,0.8528,-0.6599,0.002,0.012,0.0037,2039
15,0.4993,0.8516,-0.6924,-0.0955,-0.0334,0.1202,2034
15,0.5474,0.8298,-0.6711,-0.1079,-0.2595,0.1907,2024
15,0.5662,0.885,-0.675,-0.1445,-0.2265,0.1911,2037
15,0.5105,0.8936,-0.6201,-0.0879,-0.0712,0.2288,2037
15,0.4656,0.9006,-0.7886,-0.1871,0.1518,0.2341,2039
15,0.4822,0.8938,-0.8479,-0.1836,0.2622,0.3037,2032
15,0.4875,0.925,-0.9392,-0.1756,0.3738,0.3741,2042
15,0.45,0.9602,-1.0994,-0.1627,0.4429,0.3907,2036
15,0.4062,1.0076,-1.1731,-0.1614,0.3771,0.4456,2037
15,0.3831,1.0532,-1.1646,-0.0956,0.0728,0.4831,2036
15,0.3936,1.0515,-1.0488,0.0527,-0.2378,0.4288,2030
15,0.3499,1.0149,-0.9468,0.2155,-0.3116,0.3562,2035
16,0.312,1.0159,-0.9382,0.2001,-0.2502,0.2798,2036
16,0.2983,0.9836,-0.9395,0.0726,-0.2421,0.2912,2042
16,0.2659,0.9934,-0.8945,0.0225,-0.3013,0.3426,2033
16,0.2224,0.9871,-0.8271,0.0252,-0.2139,0.3398,2034
16,0.1377,0.9932,-0.8369,0.0409,0.0823,0.3064,2035
16,0.0911,0.9583,-0.9771,-0.0617,0.292,0.2848,2048
16,0.0444,0.9617,-1.0051,-0.0828,0.2149,0.3532,2023
16,0.061,0.9631,-1.0195,-0.0682,0.0744,0.3581,2042
16,0.0435,0.9468,-0.9224,0.0655,0.0747,0.3639,2037
16,-0.0078,0.9084,-0.8994,0.0951,0.0656,0.3088,2044
16,-0.0161,0.905,-0.8989,0.1202,-0.0079,0.2437,2038
16,0.0205,0.863,-0.9028,0.0838,-0.1554,0.1812,2039
16,0.0312,0.8503,-0.8281,0.1876,-0.3442,0.1653,2033
16,0.0847,0.8188,-0.8325,0.2297,-0.4245,0.0796,2029
16,0.0891,0.7886,-0.792,0.3267,-0.5086,0.0478,2038
16,0.1079,0.7524,-0.8457,0.3502,-0.5915,-0.0426,2035
16,0.1414,0.7153,-0.8176,0.4421,-0.7638,-0.0618,2038
16,0.1794,0.6509,-0.7896,0.526,-0.8174,-0.1041,2033
16,0.2085,0.6309,-0.7441,0.5992,-0.8256,-0.098,2033
16,0.2141,0.5723,-0.7742,0.5584,-0.7954,-0.1326,2034
16,0.2549,0.5017,-0.7266,0.5215,-0.8858,-0.0742,2027
16,0.2598,0.4861,-0.6772,0.485,-0.9216,-0.0073,2041
16,0.27,0.468,-0.6321,0.4267,-0.8513,0.0261,2038
16,0.2585,0.4648,-0.5579,0.3916,-0.7432,0.0723,2032
16,0.2593,0.4607,-0.5352,0.2912,-0.6369,0.0724,2034
16,0.2549,0.4783,-0.4983,0.2012,-0.5528,0.1028,2029
16,0.2793,0.4805,-0.3918,0.2152,-0.6091,0.1438,2040
16,0.2444,0.4998,-0.4189,0.1123,-0.3625,0.032,2039
16,0.2134,0.4907,-0.3677,0.0462,-0.1971,0.0582,2029
16,0.1951,0.5034,-0.3938,-0.0622,-0.1144,0.038,2028
16,0.2124,0.522,-0.3943,-0.0891,-0.1035,0.0131,2042
16,0.1978,0.5095,-0.3525,-0.0692,-0.0001,0.0308,2035
16,0.1792,0.4629,-0.4316,-0.1486,0.2229,-0.0133,2035
16,0.1367,0.4629,-0.5159,-0.304,0.342,0.0545,2034
16,0.1614,0.478,-0.5317,-0.3496,0.2175,0.1451,2037
16,0.1704,0.4907,-0.5657,-0.3277,0.2033,0.19,2029
16,0.1543,0.5154,-0.5535,-0.2641,0.3318,0.2537,2040
16,0.1233,0.5371,-0.6211,-0.269,0.4171,0.3028,2037
16,0.1443,0.5083,-0.7656,-0.3199,0.4509,0.2924,2032
16,0.1448,0.5681,-0.6841,-0.2321,0.3416,0.4317,2029
16,0.1909,0.5532,-0.6326,-0.1204,0.1935,0.4528,2027
16,0.2075,0.5186,-0.6624,0.0067,0.1995,0.3478,2042
16,0.1707,0.6018,-0.6768,-0.0997,0.4509,0.4255,2036
16,0.2219,0.647,-0.6943,0.0401,0.125,0.4833,2056
16,0.355,0.6982,-0.7952,0.0352,0.0446,0.3223,2037
16,0.2791,0.729,-0.6375,0.1815,0.0573,0.3938,2038
16,0.3154,0.7783,-0.6836,0.1165,0.035,0.3605,2040
16,0.3572,0.8076,-0.7004,0.2127,-0.0639,0.3117,2032
16,0.3701,0.8376,-0.6685,0.2487,0.0204,0.2992,2040
16,0.4099,0.8679,-0.7058,0.2445,0.065,0.2934,2039
16,0.4343,0.8958,-0.7434,0.2731,0.0682,0.2879,2028
16,0.4475,0.9226,-0.7695,0.2733,0.1003,0.3052,2033
16,0.4561,0.9246,-0.7021,0.3555,0.0684,0.3701,2030
16,0.4993,0.946,-0.772,0.3513,0.2173,0.3485,2036
16,0.4741,0.9661,-0.8113,0.3649,0.4152,0.3583,2032
16,0.4963,0.9697,-0.8743,0.3687,0.4974,0.4304,2035
16,0.5342,0.9719,-0.9587,0.3374,0.5185,0.4176,2033
16,0.5486,0.97,-0.9316,0.392,0.5184,0.4908,2024
16,0.5859,0.9731,-1.0339,0.3597,0.5528,0.4617,2040
16,0.5544,0.9431,-0.9727,0.3516,0.5565,0.4996,2033
16,0.5349,0.917,-0.9756,0.3374,0.5566,0.5027,2046
16,0.5024,0.918,-1.0569,0.2358,0.787,0.4666,2030
16,0.426,0.8855,-1.0752,0.1774,0.868,0.5076,2029
16,0.3911,0.8643,-1.1682,0.0795,0.8465,0.4675,2040
16,0.3418,0.843,-1.1465,0.0557,0.7829,0.4265,2024
16,0.2983,0.8167,-1.1704,0.0695,0.6818,0.3827,2038
16,0.2703,0.8091,-1.1904,0.0493,0.5698,0.2855,2033
16,0.22,0.802,-1.1067,0.1643,0.3165,0.2522,2033
16,0.2295,0.7942,-1.1152,0.0744,0.3015,0.0883,2038
16,0.1218,0.7368,-0.9968,0.1919,0.1693,0.0763,2038
16,0.1682,0.7217,-1.0212,0.122,0.134,-0.0595,2032
16,0.1306,0.6526,-0.99,0.0844,0.0566,-0.1338,2031
16,0.1223,0.6279,-0.918,0.1329,-0.147,-0.1593,2038
16,0.1643,0.5803,-0.9294,0.0818,-0.1984,-0.2681,2020
16,0.1497,0.575,-0.8245,0.1301,-0.2768,-0.3059,2032
16,0.1475,0.5452,-0.7852,0.0908,-0.3621,-0.3623,2033
16,0.2217,0.5347,-0.8494,0.1216,-0.4344,-0.4583,2034
16,0.1855,0.5017,-0.8506,0.068,-0.41,-0.4839,2031
16,0.1848,0.4556,-0.7991,0.1344,-0.5899,-0.4464,2038
16,0.2334,0.4636,-0.832,0.1393,-0.6399,-0.4974,2039
16,0.2549,0.4568,-0.802,0.1385,-0.5891,-0.5304,2037
16,0.248,0.459,-0.8174,0.0691,-0.5924,-0.5104,2045
16,0.2959,0.4292,-0.7732,0.0988,-0.8214,-0.4693,2036
16,0.3428,0.4556,-0.7148,0.1382,-0.919,-0.488,2051
16,0.342,0.4863,-0.6426,0.1353,-0.8827,-0.4517,2032
16,0.3264,0.4863,-0.5947,0.1352,-0.8666,-0.3983,2038
16,0.3408,0.4729,-0.5547,0.1764,-0.8657,-0.3967,2038
16,0.3511,0.4773,-0.5042,0.1867,-0.7172,-0.3814,2026
16,0.3479,0.457,-0.4702,0.1997,-0.5679,-0.3083,2038
16,0.3591,0.4275,-0.4922,0.1633,-0.4244,-0.2473,2035
16,0.3557,0.4265,-0.488,0.155,-0.3007,-0.1563,2036
16,0.3438,0.4041,-0.4929,0.1095,-0.1583,-0.0613,2034
16,0.3259,0.4148,-0.522,0.0478,-0.0301,0.0024,2035
16,0.3113,0.4285,-0.4924,0.03,0.0241,0.0979,2031
16,0.3135,0.4536,-0.4883,0.027,0.1108,0.1629,2041
16,0.3015,0.4292,-0.5027,0.0056,0.2458,0.1763,2045
16,0.2925,0.4487,-0.5579,-0.0579,0.357,0.1985,2038
16,0.3198,0.4443,-0.5969,-0.0296,0.225,0.2437,2037
16,0.3098,0.4307,-0.644,0.0048,0.1501,0.265,2035
16,0.3044,0.4324,-0.6079,-0.0001,0.142,0.3124,2032
16,0.3157,0.4241,-0.6624,-0.0403,0.0509,0.3397,2029
16,0.2964,0.4492,-0.6606,-0.0282,-0.0068,0.3951,2032
16,0.3025,0.467,-0.6338,-0.1084,0.0075,0.4337,2033
17,0.323,0.498,-0.6235,-0.1087,-0.0377,0.4462,2039
17,0.3459,0.5127,-0.5913,-0.147,-0.0096,0.451,2051
17,0.3755,0.5266,-0.5647,-0.1161,-0.0553,0.4336,2031
17,0.3879,0.5671,-0.6267,-0.1567,-0.0345,0.3555,2034
17,0.3752,0.6289,-0.5745,-0.1892,-0.0298,0.3578,2038
17,0.364,0.6179,-0.5613,-0.0989,-0.0931,0.3164,2041
17,0.3821,0.7063,-0.6609,-0.096,0.1113,0.1768,2028
17,0.3184,0.6841,-0.7078,-0.0851,0.2954,0.1322,2046
17,0.3315,0.73,-0.8857,-0.1414,0.2442,0.0634,2055
17,0.374,0.7388,-0.9238,-0.1344,0.0498,0.0164,2029
17,0.4468,0.8281,-0.9072,-0.1506,-0.0566,-0.0308,2033
17,0.4683,0.8699,-0.9062,-0.2159,-0.2309,0.0129,2026
17,0.5186,0.8755,-0.9126,-0.2855,-0.4006,-0.0055,2037
17,0.5203,0.8965,-0.8833,-0.2563,-0.4653,0.0112,2033
17,0.4888,0.9133,-0.9692,-0.276,-0.2746,0.043,2046
17,0.4685,1.0142,-1.1577,-0.4034,0.1111,0.021,2037
17,0.4131,1.0623,-1.3384,-0.3908,0.2682,0.0964,2029
17,0.4592,1.1226,-1.4214,-0.3482,0.1768,0.1482,2022
17,0.427,1.0847,-1.2896,-0.1526,0.0392,0.1282,2033
17,0.4158,1.0464,-1.3059,-0.0531,0.0278,0.0627,2034
17,0.3628,1.0408,-1.3,-0.1103,-0.1523,0.0439,2036
17,0.3325,1.001,-1.1755,-0.0206,-0.4867,0.1294,2030
17,0.2878,1.0022,-1.0598,0.0053,-0.5259,0.1289,2035
17,0.1899,1.042,-0.9702,0.0051,-0.1663,0.1282,2034
17,0.1565,1.0073,-1.0017,-0.0116,0.138,0.126,2035
17,0.1541,0.959,-0.9812,0.0127,0.2662,0.1593,2029
17,0.1685,0.8962,-1.0037,0.0182,0.3441,0.1658,2039
17,0.1536,0.8259,-1.0393,0.0154,0.4101,0.2289,2035
17,0.0828,0.8433,-0.9629,0.1024,0.3666,0.3216,2023
17,0.0916,0.772,-1.0061,0.1486,0.2707,0.2819,2043
17,0.0435,0.8035,-0.9504,0.1691,0.3394,0.2711,2031
17,0.0464,0.7119,-0.8701,0.2571,0.1699,0.3273,2046
17,0.1492,0.7349,-0.9365,0.2518,0.1041,0.1728,2039
17,0.0964,0.6421,-0.8081,0.4002,-0.0423,0.2433,2041
17,0.1809,0.627,-0.8518,0.3831,-0.1001,0.1617,2043
17,0.1477,0.5388,-0.8491,0.3851,-0.2176,0.1838,2037
17,0.1765,0.5171,-0.7844,0.3461,-0.2645,0.222,2040
17,0.1787,0.4778,-0.7876,0.3025,-0.4047,0.2424,2034
17,0.2058,0.4707,-0.7405,0.2618,-0.3802,0.2561,2036
17,0.2141,0.4485,-0.6379,0.255,-0.3952,0.3317,2044
17,0.2417,0.4517,-0.6912,0.1565,-0.3346,0.3056,2038
17,0.2358,0.4402,-0.5945,0.1096,-0.3441,0.3826,2036
17,0.2483,0.4536,-0.4905,0.0993,-0.3651,0.4007,2029
17,0.2468,0.4446,-0.5181,0.0217,-0.2796,0.3143,2035
17,0.2319,0.4893,-0.3955,0.0326,-0.245,0.3249,2030
17,0.2288,0.4546,-0.4407,-0.0623,-0.2358,0.2184,2042
17,0.1982,0.4971,-0.4099,-0.1029,-0.1756,0.1569,2040
17,0.1982,0.4656,-0.3772,-0.1996,-0.1302,0.114,2041
17,0.1887,0.5193,-0.4216,-0.3127,-0.0903,0.0899,2035
17,0.1777,0.4983,-0.321,-0.2605,-0.1208,0.1116,2041
17,0.1763,0.5168,-0.3994,-0.3128,0.0345,0.0056,2031
17,0.1672,0.5132,-0.3997,-0.3449,0.1681,-0.0297,2032
17,0.1577,0.5029,-0.4163,-0.4132,0.2278,-0.0517,2033
17,0.187,0.4941,-0.5012,-0.4738,0.2103,-0.0907,2038
17,0.1624,0.5205,-0.5007,-0.5088,0.2938,-0.055,2034
17,0.1741,0.5005,-0.4651,-0.49,0.2726,0.0156,2035
17,0.1714,0.5217,-0.594,-0.5201,0.3526,-0.0634,2045
17,0.1399,0.5256,-0.5706,-0.5464,0.4336,-0.004,2032
17,0.2,0.5457,-0.5229,-0.5086,0.3372,0.0555,2031
17,0.2354,0.5439,-0.6011,-0.4524,0.3766,-0.017,2040
17,0.1973,0.5698,-0.6313,-0.4778,0.5661,0.0683,2032
17,0.2263,0.6191,-0.7515,-0.5203,0.3966,0.0878,2033
17,0.2864,0.6816,-0.7549,-0.3942,0.2013,0.0844,2040
17,0.3052,0.7095,-0.6858,-0.2814,0.2354,0.0852,2031
17,0.323,0.7559,-0.811,-0.3578,0.334,0.1035,2031
17,0.364,0.8232,-0.8762,-0.3468,0.1896,0.1589,2039
17,0.4067,0.8628,-0.8521,-0.2073,-0.069,0.1963,2032
17,0.4702,0.9348,-0.8799,-0.2047,-0.0081,0.1686,2037
17,0.4565,0.9561,-0.8076,-0.0081,0.0332,0.2481,2039
17,0.5159,1.0361,-0.9192,-0.065,0.1072,0.2457,2035
17,0.5547,1.0183,-0.8943,0.0554,0.0491,0.2778,2026
17,0.6321,1.0557,-0.8899,0.057,0.0409,0.3187,2028
17,0.6414,1.0488,-0.8792,0.0748,0.0843,0.3492,2027
17,0.6431,1.0674,-0.905,0.0887,0.2113,0.3697,2044
17,0.6311,1.0266,-0.9392,0.0354,0.394,0.3863,2039
17,0.6147,0.9668,-1.0071,-0.0336,0.5253,0.3842,2038
17,0.5793,0.9619,-1.011,-0.0969,0.6337,0.3938,2032
17,0.5085,0.9199,-1.0334,-0.1328,0.7127,0.3717,2039
17,0.4187,0.8953,-1.0493,-0.2573,0.887,0.3075,2039
17,0.3423,0.8604,-0.9819,-0.2177,0.7925,0.2619,2032
17,0.3313,0.8315,-1.0298,-0.276,0.7365,0.0945,2040
17,0.2747,0.7693,-1.1147,-0.3309,0.7,-0.0409,2029
17,0.2024,0.7356,-1.0649,-0.3183,0.5193,-0.031,2032
17,0.2273,0.6807,-1.1416,-0.3191,0.2389,-0.1637,2015
17,0.2136,0.6638,-1.1323,-0.3147,0.1566,-0.2234,2041
17,0.1992,0.6328,-1.0889,-0.1635,-0.0763,-0.2161,2040
17,0.2273,0.5811,-1.1399,-0.226,-0.1517,-0.3294,2040
17,0.1992,0.5605,-1.0596,-0.1229,-0.3516,-0.2868,2025
17,0.2534,0.585,-0.9451,-0.0775,-0.5115,-0.3055,2036
17,0.2915,0.5908,-0.9226,0.0146,-0.5859,-0.403,2041
17,0.3101,0.5869,-0.8474,0.0626,-0.5329,-0.3888,2037
17,0.3545,0.5623,-0.8364,0.0208,-0.6731,-0.4016,2048
17,0.3706,0.5542,-0.7888,0.0181,-0.7602,-0.3934,2039
17,0.3823,0.5637,-0.6726,0.0567,-0.7861,-0.3835,2036
17,0.3992,0.5391,-0.6648,0.0525,-0.7577,-0.4316,2040
17,0.3997,0.5227,-0.6401,0.0478,-0.7184,-0.4418,2033
17,0.4048,0.5264,-0.5786,0.0254,-0.7421,-0.3995,2030
17,0.4314,0.5115,-0.6184,-0.016,-0.7694,-0.4404,2031
17,0.3679,0.5239,-0.5703,-0.1412,-0.6477,-0.4004,2030
17,0.3557,0.5317,-0.4695,-0.1447,-0.6649,-0.3205,2037
17,0.3562,0.5674,-0.4519,-0.1486,-0.5251,-0.3932,2037
18,0.3123,0.5278,-0.4268,-0.1646,-0.2772,-0.4561,2036
18,0.2715,0.4773,-0.438,-0.2396,-0.0956,-0.4603,2038
18,0.2822,0.4385,-0.4812,-0.2902,-0.1278,-0.4658,2026
18,0.2654,0.4524,-0.5237,-0.3682,-0.1474,-0.5014,2040
18,0.2329,0.4446,-0.4807,-0.3775,-0.192,-0.4521,2027
18,0.2166,0.4382,-0.4668,-0.3687,-0.2863,-0.4492,2039
18,0.219,0.4749,-0.4756,-0.3281,-0.2847,-0.4797,2034
18,0.218,0.4878,-0.4438,-0.2631,-0.269,-0.4621,2033
18,0.2476,0.4336,-0.5232,-0.2642,-0.2647,-0.4958,2040
18,0.2502,0.4319,-0.5764,-0.2372,-0.2883,-0.4699,2043
18,0.2754,0.4314,-0.5298,-0.2065,-0.3808,-0.3408,2034
18,0.3137,0.4221,-0.5115,-0.1674,-0.4112,-0.2713,2059
18,0.3223,0.3835,-0.5281,-0.1639,-0.2252,-0.2096,2031
18,0.3342,0.3796,-0.5024,-0.1908,-0.1132,-0.0863,2032
18,0.3315,0.3474,-0.604,-0.2449,-0.0876,-0.0292,2023
18,0.3333,0.3413,-0.5798,-0.253,-0.0236,0.0992,2038
18,0.3611,0.4194,-0.5486,-0.233,-0.0266,0.236,2035
18,0.3787,0.4712,-0.5652,-0.2352,0.049,0.2549,2037
18,0.3755,0.5217,-0.6157,-0.2344,0.2183,0.2932,2037
18,0.3806,0.572,-0.6187,-0.2129,0.2156,0.3025,2028
18,0.4023,0.6077,-0.6907,-0.246,0.1499,0.2477,2046
18,0.4009,0.6533,-0.698,-0.2177,0.1305,0.2585,2034
18,0.4321,0.7307,-0.6958,-0.1844,0.0425,0.2476,2026
18,0.4482,0.8025,-0.7139,-0.1481,-0.0968,0.2037,2045
18,0.4465,0.8359,-0.708,-0.1107,-0.1537,0.187,2048
18,0.4465,0.8669,-0.7192,-0.0979,-0.1557,0.1337,2035
18,0.4502,0.884,-0.7275,-0.02,-0.1148,0.1289,2032
18,0.4346,0.9258,-0.7959,0.0294,-0.0061,0.1746,2029
18,0.4526,0.9653,-0.9194,-0.0186,0.147,0.2236,2019
18,0.4368,1.0244,-1.0073,-0.0362,0.2602,0.3092,2042
18,0.427,1.0667,-1.0586,0.0033,0.2549,0.3763,2040
18,0.418,1.0996,-1.1301,0.0535,0.2808,0.377,2030
18,0.3804,1.165,-1.2476,-0.0581,0.3667,0.3372,2029
18,0.3076,1.1423,-1.1375,0.1139,0.055,0.4311,2049
18,0.3059,1.1128,-1.1157,0.24,-0.2215,0.3336,2028
18,0.2446,1.1672,-1.0322,0.2669,-0.1693,0.2286,2039
18,0.1536,1.1392,-0.8706,0.4923,-0.2912,0.2875,2036
18,0.1421,1.082,-0.9846,0.5233,-0.2191,0.1823,2032
18,0.1016,1.1711,-0.9546,0.4231,-0.0851,0.1946,2049
18,0.0637,1.1106,-0.8682,0.563,-0.161,0.2779,2041
18,0.1011,1.0815,-0.9243,0.5104,0.0108,0.1715,2033
18,0.031,1.0559,-0.8196,0.5923,0.0619,0.2056,2033
18,0.0376,0.9534,-0.9099,0.5161,0.1358,0.1377,2047
18,0.0525,0.9475,-0.8149,0.5405,0.1016,0.1324,2031
18,0.0193,0.8474,-0.8347,0.4657,0.1334,0.1021,2032
18,0.0261,0.824,-0.7654,0.4701,0.118,0.1217,2030
18,0.0,0.7407,-0.8,0.487,0.089,0.0935,2035
18,0.0422,0.7693,-0.7583,0.503,0.0987,0.0807,2038
18,0.0447,0.7039,-0.8054,0.4683,0.0314,0.063,2032
18,0.0842,0.6975,-0.7729,0.5083,-0.0759,0.072,2036
18,0.1204,0.6719,-0.7415,0.6063,-0.2096,0.0465,2040
18,0.1399,0.6394,-0.7251,0.6793,-0.2111,0.0144,2033
18,0.1616,0.595,-0.8027,0.6372,-0.2308,-0.0499,2032
18,0.1704,0.5378,-0.74,0.5942,-0.3911,0.0337,2025
18,0.2144,0.5273,-0.7664,0.5862,-0.4982,0.0161,2042
18,0.2251,0.5181,-0.6548,0.6195,-0.44,0.0663,2049
18,0.2136,0.4973,-0.6633,0.5172,-0.3838,0.0874,2053
18,0.2393,0.5076,-0.6228,0.4791,-0.4324,0.1373,2038
18,0.2395,0.49,-0.6035,0.4789,-0.3755,0.131,2029
18,0.241,0.5181,-0.5513,0.4426,-0.3009,0.1609,2060
18,0.2432,0.5044,-0.5168,0.3777,-0.3253,0.1499,2036
18,0.2527,0.5388,-0.4868,0.3944,-0.3721,0.1317,2032
18,0.2349,0.5654,-0.4958,0.3474,-0.3372,0.0447,2036
18,0.2148,0.5857,-0.439,0.3466,-0.263,0.0049,2036
18,0.1997,0.5781,-0.4612,0.2566,-0.2297,-0.094,2038
18,0.2,0.5974,-0.468,0.1914,-0.1515,-0.1,2044
18,0.2031,0.6006,-0.4541,0.1603,-0.1084,-0.1111,2039
18,0.2114,0.6003,-0.4456,0.1125,-0.0439,-0.1553,2038
18,0.1824,0.6238,-0.4695,0.1129,0.1065,-0.1622,2031
18,0.187,0.605,-0.4958,0.0892,0.2084,-0.1756,2052
18,0.1921,0.5615,-0.5798,0.0481,0.2984,-0.1996,2030
18,0.218,0.5505,-0.6138,0.0015,0.3781,-0.1694,2036
18,0.2461,0.5845,-0.6272,0.0138,0.2741,-0.0755,2032
18,0.2456,0.5369,-0.6838,0.0815,0.2081,-0.0658,2036
18,0.2644,0.5972,-0.6482,0.0814,0.3064,0.0218,2039
18,0.262,0.5928,-0.6755,0.0684,0.2916,0.0523,2050
18,0.2915,0.615,-0.6858,0.1101,0.2859,0.0662,2041
18,0.3081,0.634,-0.6499,0.1095,0.3281,0.1025,2056
18,0.3291,0.6497,-0.6714,0.1076,0.2425,0.0936,2032
18,0.3386,0.6721,-0.6399,0.1393,0.2009,0.1064,2032
18,0.3481,0.7166,-0.5942,0.1433,0.236,0.1438,2024
18,0.3477,0.7229,-0.5977,0.1535,0.3003,0.1501,2041
18,0.3572,0.7429,-0.5894,0.181,0.4043,0.1605,2042
18,0.3506,0.7451,-0.6372,0.1744,0.4807,0.1558,2037
18,0.3713,0.7795,-0.6956,0.1639,0.487,0.1719,2029
18,0.3677,0.8203,-0.7102,0.1546,0.4999,0.1888,2052
18,0.3682,0.8608,-0.7544,0.2029,0.4775,0.1384,2029
18,0.3679,0.8994,-0.8042,0.1904,0.5244,0.0852,2040
18,0.3811,0.9355,-0.874,0.1976,0.5032,0.0153,2029
18,0.3867,0.9534,-0.9089,0.2111,0.4476,-0.022,2022
18,0.4448,0.9729,-0.9502,0.2583,0.3836,-0.0822,2032
18,0.4673,0.9846,-0.9905,0.298,0.3422,-0.1264,2025
18,0.5063,0.9868,-1.0527,0.2807,0.3259,-0.1368,2038
18,0.5076,0.9705,-1.0576,0.3272,0.2432,-0.1021,2033
18,0.5022,0.948,-1.0222,0.3077,0.2563,-0.0442,2025
18,0.4871,0.9561,-0.9741,0.2238,0.4356,0.0393,2019
18,0.3989,0.9043,-1.0054,0.0919,0.7116,0.1441,2033
18,0.3625,0.8936,-1.1074,0.0012,0.922,0.1597,2031
18,0.3242,0.8718,-1.1958,-0.0803,0.9638,0.1515,2027
18,0.2983,0.8403,-1.2354,-0.082,0.8538,0.1324,2023
18,0.2737,0.842,-1.2542,-0.0305,0.6098,0.0758,2034
18,0.2471,0.8447,-1.2026,0.0045,0.3948,0.0124,2037
18,0.1726,0.8298,-1.1689,-0.0052,0.2237,-0.0372,2039
18,0.1328,0.812,-1.0818,-0.0111,0.114,-0.1103,2025
19,0.1086,0.7966,-0.9958,-0.1044,0.1306,-0.1571,2026
19,0.0938,0.7629,-0.9639,-0.1486,0.0642,-0.2498,2037
19,0.084,0.7339,-0.8809,-0.1426,-0.0272,-0.2951,2037
19,0.0781,0.6809,-0.8203,-0.1069,-0.0882,-0.3486,2051
19,0.0955,0.6677,-0.759,-0.1075,-0.0545,-0.3665,2048
19,0.116,0.6331,-0.803,-0.1578,-0.082,-0.4245,2033
19,0.1179,0.6233,-0.8228,-0.1579,-0.1707,-0.4127,2033
19,0.1421,0.613,-0.8337,-0.1377,-0.2621,-0.4607,2048
19,0.1309,0.593,-0.8552,-0.145,-0.3043,-0.4649,2036
19,0.1597,0.5769,-0.8477,-0.1297,-0.3441,-0.4922,2032
19,0.1838,0.5491,-0.8621,-0.1377,-0.393,-0.5116,2035
19,0.2246,0.5378,-0.7847,-0.0792,-0.5028,-0.5048,2030
19,0.2515,0.5186,-0.7349,-0.0527,-0.559,-0.5088,2027
19,0.2854,0.4922,-0.6646,-0.016,-0.6275,-0.4968,2036
19,0.3059,0.4922,-0.6287,0.019,-0.6569,-0.4583,2033
19,0.3235,0.4746,-0.572,0.0288,-0.7212,-0.4024,2039
19,0.3333,0.4724,-0.5063,0.0177,-0.6886,-0.3587,2026
19,0.3289,0.4702,-0.4446,-0.0302,-0.5761,-0.275,2046
19,0.3135,0.4648,-0.4365,-0.1137,-0.405,-0.2249,2040
19,0.3093,0.4729,-0.3965,-0.1884,-0.2176,-0.1249,2032
19,0.3059,0.481,-0.4231,-0.2899,-0.0003,-0.0655,2048
19,0.2834,0.4954,-0.4717,-0.3803,0.2169,-0.018,2020
19,0.2573,0.512,-0.5027,-0.4454,0.3575,0.0242,2027
19,0.261,0.5239,-0.5356,-0.4673,0.3586,0.0511,2040
19,0.2661,0.5176,-0.5664,-0.4469,0.324,0.0814,2032
19,0.2339,0.489,-0.5605,-0.4332,0.2465,0.1413,2035
19,0.2234,0.5339,-0.6248,-0.404,0.1483,0.1863,2037
19,0.2444,0.53,-0.5811,-0.3758,0.0217,0.2169,2038
19,0.2527,0.5276,-0.5891,-0.397,0.0458,0.2567,2038
19,0.2478,0.5132,-0.5859,-0.3899,0.0003,0.3219,2039
19,0.2476,0.4868,-0.5903,-0.4065,-0.0097,0.3713,2020
19,0.2605,0.5032,-0.5676,-0.4245,0.0107,0.4611,2037
19,0.2278,0.5364,-0.571,-0.4819,0.0945,0.4554,2052
19,0.2258,0.5911,-0.5498,-0.5078,0.1679,0.4492,2030
19,0.23,0.6367,-0.5881,-0.5032,0.2195,0.3835,2033
19,0.2417,0.6838,-0.6667,-0.4789,0.2458,0.2904,2037
19,0.2495,0.7371,-0.7512,-0.4269,0.1651,0.2297,2041
19,0.3027,0.7947,-0.7986,-0.3674,0.0161,0.1369,2045
19,0.3638,0.8474,-0.8149,-0.2573,-0.121,0.045,2030
19,0.4019,0.8657,-0.8264,-0.2866,-0.1498,0.0313,2034
19,0.4705,0.8982,-0.8311,-0.1635,-0.448,0.0321,2030
19,0.5288,0.8887,-0.8044,-0.1372,-0.5795,0.0856,2033
19,0.5154,0.9067,-0.7764,-0.1506,-0.5488,0.1706,2027
19,0.4954,0.9607,-0.7964,-0.1542,-0.4203,0.3053,2033
19,0.4861,1.0447,-0.853,-0.1534,-0.2023,0.3995,2037
19,0.4355,1.0964,-0.9812,-0.1915,0.1589,0.4682,2032
19,0.3516,1.1626,-1.0032,-0.3077,0.4647,0.5458,2022
19,0.3621,1.1594,-1.051,-0.4119,0.5426,0.5317,2034
19,0.3088,1.1377,-1.0203,-0.349,0.4528,0.4432,2031
19,0.2649,1.116,-0.9771,-0.3188,0.2795,0.3517,2044
19,0.1851,1.0876,-0.9031,-0.3187,0.0658,0.2804,2038
19,0.1304,1.1023,-0.8718,-0.2566,-0.0904,0.2133,2046
19,0.0867,1.1318,-0.8755,-0.1959,-0.0794,0.0997,2043
19,0.0493,1.1255,-0.8369,-0.1089,-0.1436,0.0533,2020
19,0.04,1.0156,-0.9045,-0.0704,-0.1392,-0.0666,2035
19,-0.0039,0.9895,-0.9006,-0.0836,-0.1316,0.0206,2033
19,0.0,0.9773,-0.8691,-0.0111,-0.2253,0.0995,2018
19,0.0215,0.9407,-0.8953,0.0228,-0.2117,0.0919,2047
19,-0.0518,0.9509,-0.7812,0.0907,-0.2191,0.223,2030
19,-0.0234,0.8884,-0.8438,0.0629,-0.2366,0.1906,2046
19,-0.0342,0.8589,-0.8098,0.0984,-0.2583,0.2683,2031
19,0.0168,0.8352,-0.7642,0.1778,-0.3437,0.2896,2031
19,0.0513,0.7576,-0.834,0.2454,-0.469,0.2534,2035
19,0.0518,0.7395,-0.7485,0.4089,-0.603,0.2955,2040
19,0.0876,0.6392,-0.8052,0.4669,-0.7059,0.2169,2034
19,0.0913,0.5969,-0.7917,0.5477,-0.7634,0.226,2039
19,0.1379,0.5393,-0.7407,0.5755,-0.8321,0.2549,2016
19,0.1575,0.4697,-0.7483,0.5398,-0.8642,0.2734,2041
19,0.1653,0.436,-0.6687,0.5275,-0.8493,0.3165,2038
19,0.1934,0.4124,-0.6094,0.4506,-0.7818,0.3482,2042
19,0.2083,0.4177,-0.575,0.3477,-0.7391,0.3404,2042
19,0.2148,0.4517,-0.4856,0.2727,-0.6352,0.3204,2038
19,0.2,0.4727,-0.4382,0.1736,-0.5536,0.2727,2022
19,0.1941,0.5037,-0.3862,0.1101,-0.4944,0.2027,2035
19,0.2048,0.5254,-0.3647,0.0827,-0.4456,0.1127,2035
19,0.1946,0.5435,-0.3494,0.0393,-0.4054,0.0264,2037
19,0.1777,0.5298,-0.3601,-0.03,-0.3943,-0.0739,2036
19,0.1643,0.5403,-0.3528,-0.0988,-0.3935,-0.1194,2025
19,0.1807,0.5581,-0.293,-0.1111,-0.4201,-0.0917,2037
19,0.1765,0.5508,-0.344,-0.0961,-0.3055,-0.1233,2030
19,0.1597,0.5356,-0.3984,-0.1519,-0.0796,-0.0818,2036
19,0.1401,0.5632,-0.4155,-0.2032,-0.1176,0.0422,2019
19,0.2019,0.5505,-0.4292,-0.1392,-0.1778,0.0569,2037
19,0.1865,0.5286,-0.4775,-0.1392,0.0917,0.0724,2032
19,0.1528,0.5696,-0.5483,-0.231,0.174,0.2049,2044
19,0.1709,0.5537,-0.6382,-0.2171,0.0105,0.2392,2023
19,0.2065,0.5789,-0.5789,-0.1005,-0.0113,0.286,2029
19,0.1792,0.6101,-0.584,-0.1683,0.1535,0.3522,2031
19,0.1846,0.6379,-0.6523,-0.1971,0.1681,0.3563,2040
19,0.2263,0.6699,-0.667,-0.175,0.1585,0.3589,2036
19,0.2583,0.6973,-0.6482,-0.1587,0.2076,0.3746,2028
19,0.2693,0.7554,-0.7009,-0.1641,0.2264,0.4205,2040
19,0.271,0.7649,-0.7124,-0.0403,0.1175,0.437,2032
19,0.3254,0.8264,-0.7241,0.0322,0.1401,0.3785,2040
19,0.3171,0.896,-0.8108,-0.0258,0.3263,0.3923,2037
19,0.3489,0.9302,-0.9094,-0.0451,0.284,0.4617,2019
19,0.4207,0.9629,-0.8528,0.0723,0.0961,0.549,2037
19,0.4519,1.0125,-0.8599,0.1294,0.1414,0.5719,2039
19,0.4395,1.0552,-0.8513,0.1463,0.2555,0.6335,2043
19,0.4827,1.116,-0.9065,0.1372,0.2971,0.6674,2039
19,0.5122,1.124,-0.8948,0.1722,0.2964,0.6879,2037
19,0.5168,1.1443,-0.8496,0.2241,0.3966,0.6698,2037
19,0.4946,1.1357,-0.8921,0.1669,0.5051,0.608,2034
20,0.4856,1.1548,-0.9241,-0.0029,0.6139,0.6181,2026
20,0.4863,1.0813,-0.929,-0.0129,0.595,0.634,2028
20,0.4739,1.1196,-1.0667,-0.1313,0.8112,0.5083,2048
20,0.3889,1.0833,-1.1409,-0.2489,0.9444,0.5095,2032
20,0.3545,1.041,-1.2151,-0.3095,0.912,0.4721,2032
20,0.3174,0.9834,-1.2126,-0.3281,0.9152,0.3605,2013
20,0.2847,0.9368,-1.1445,-0.2987,0.9092,0.3239,2034
20,0.259,0.9067,-1.1868,-0.2924,0.7814,0.2473,2023
20,0.2073,0.8777,-1.1985,-0.2606,0.6628,0.1156,2030
20,0.1401,0.8813,-1.1414,-0.2681,0.5819,0.0334,2038
20,0.0989,0.8181,-1.1138,-0.2449,0.4188,-0.0244,2033
20,0.0964,0.7622,-1.0732,-0.1701,0.3402,-0.1218,2039
20,0.1208,0.6934,-1.0583,-0.1498,0.2425,-0.167,2038
20,0.1223,0.6338,-1.0347,-0.1748,0.0975,-0.1489,2044
20,0.1401,0.6113,-0.9834,-0.1912,-0.0344,-0.1581,2016
20,0.1472,0.5894,-0.8921,-0.185,-0.059,-0.1428,2045
20,0.1802,0.6121,-0.8196,-0.2037,-0.0834,-0.0843,2034
20,0.2048,0.5715,-0.8164,-0.1554,-0.1017,-0.0902,2029
20,0.2407,0.5691,-0.8032,-0.178,-0.0462,-0.0674,2030
20,0.2554,0.5215,-0.8455,-0.3117,-0.0289,-0.0138,2031
20,0.2529,0.5535,-0.8152,-0.3687,-0.0964,0.0598,2032
20,0.2983,0.5493,-0.7153,-0.2994,-0.1701,0.0798,2033
20,0.3125,0.512,-0.7856,-0.4432,-0.0816,0.0483,2019
20,0.3025,0.5554,-0.6455,-0.4004,-0.2265,0.1545,2033
20,0.3564,0.5247,-0.7009,-0.3745,-0.3574,0.0772,2030
20,0.3083,0.5427,-0.6167,-0.4289,-0.2803,0.0542,2035
20,0.2837,0.5608,-0.5742,-0.532,-0.2974,0.1374,2011
20,0.3201,0.6062,-0.5574,-0.4345,-0.4268,0.0798,2035
20,0.29,0.5715,-0.4714,-0.4392,-0.2003,0.0302,2036
20,0.2664,0.5413,-0.5349,-0.6416,-0.0465,0.0445,2042
20,0.2996,0.5889,-0.5515,-0.6909,-0.1972,0.0654,2051
20,0.2981,0.5898,-0.4746,-0.6399,-0.1682,0.0392,2022
20,0.2483,0.5867,-0.4504,-0.6585,0.0128,0.0368,2041
20,0.2349,0.5803,-0.5378,-0.6713,0.027,0.0103,2033
20,0.2432,0.575,-0.5696,-0.6321,-0.0081,-0.0228,2039
20,0.1965,0.5557,-0.5566,-0.6739,0.0057,-0.0121,2030
20,0.2151,0.5728,-0.5212,-0.6556,-0.0965,-0.0204,2036
20,0.1792,0.583,-0.5867,-0.6585,-0.0415,-0.0638,2042
20,0.167,0.5547,-0.5339,-0.665,-0.0863,-0.0373,2021
20,0.1936,0.5352,-0.6228,-0.7464,-0.1385,-0.0814,2032
20,0.1848,0.5803,-0.5889,-0.7614,-0.1859,-0.0201,2025
20,0.2009,0.5999,-0.5525,-0.7782,-0.1939,-0.021,2031
20,0.2012,0.6167,-0.595,-0.7564,-0.1571,-0.0716,2032
20,0.2168,0.6182,-0.5771,-0.8283,-0.0963,-0.0651,2027
20,0.2126,0.6396,-0.6152,-0.8367,-0.2013,-0.0486,2049
20,0.2639,0.626,-0.5249,-0.732,-0.3108,-0.0831,2037
20,0.2441,0.6592,-0.5994,-0.76,-0.1629,-0.1221,2040
20,0.2168,0.6821,-0.5833,-0.8043,-0.1952,-0.0864,2039
20,0.261,0.7065,-0.5981,-0.7601,-0.3547,-0.1208,2039
20,0.2896,0.7268,-0.5117,-0.6834,-0.3308,-0.1531,2039
20,0.2803,0.7683,-0.5864,-0.7297,-0.1666,-0.1458,2041
20,0.2859,0.7712,-0.5991,-0.6299,-0.3041,-0.1754,2037
20,0.3044,0.7456,-0.5769,-0.559,-0.2872,-0.2429,2036
20,0.3174,0.741,-0.5237,-0.5128,-0.2441,-0.2171,2017
20,0.3206,0.7261,-0.7114,-0.4874,-0.2546,-0.2525,2027
20,0.3472,0.7727,-0.6013,-0.4342,-0.3626,-0.1678,2029
20,0.3823,0.7695,-0.5415,-0.3406,-0.3919,-0.1818,2024
20,0.3979,0.7751,-0.5881,-0.3332,-0.241,-0.2037,2037
20,0.4006,0.7747,-0.5642,-0.3615,-0.1943,-0.1044,2031
20,0.45,0.8037,-0.5815,-0.2567,-0.2975,-0.1321,2015
20,0.4214,0.8,-0.4854,-0.2133,-0.1686,-0.124,2014
20,0.3975,0.7881,-0.5342,-0.2416,-0.1033,-0.1005,2054
20,0.4082,0.7734,-0.5093,-0.1562,-0.124,-0.1429,2034
20,0.3518,0.7771,-0.4927,-0.1555,0.0296,-0.1449,2039
20,0.303,0.7649,-0.541,-0.1422,0.0719,-0.1332,2036
20,0.2732,0.7581,-0.5518,-0.0614,0.0898,-0.21,2040
20,0.2329,0.77,-0.4775,-0.0326,0.1471,-0.2119,2018
20,0.2351,0.7532,-0.5742,0.0181,0.149,-0.2936,2018
20,0.2168,0.7588,-0.5552,0.0675,0.1336,-0.3208,2058
20,0.228,0.7329,-0.5874,0.0914,0.0682,-0.3512,2040
20,0.2078,0.7505,-0.5627,0.1274,0.0814,-0.3663,2042
20,0.2114,0.7524,-0.521,0.1352,0.0585,-0.3733,2044
20,0.2253,0.7388,-0.5627,0.1952,0.0672,-0.4229,2032
20,0.2136,0.7317,-0.5305,0.1884,0.0605,-0.3773,2030
20,0.2148,0.73,-0.5764,0.186,-0.0116,-0.3818,2042
20,0.2153,0.7354,-0.4436,0.2934,-0.0453,-0.3193,2024
20,0.2302,0.708,-0.5227,0.3659,0.0981,-0.3741,2047
20,0.2004,0.6782,-0.595,0.381,0.165,-0.3192,2035
20,0.1931,0.6587,-0.6643,0.3658,0.1268,-0.2675,2026
20,0.167,0.7048,-0.6011,0.3793,0.1374,-0.1854,2047
20,0.1804,0.7129,-0.6047,0.4083,0.1811,-0.2164,2032
20,0.1614,0.7302,-0.5442,0.4859,0.195,-0.2318,2037
20,0.2334,0.7241,-0.5901,0.5641,0.2141,-0.3629,2032
20,0.2021,0.7249,-0.6638,0.548,0.1736,-0.3911,2034
20,0.1387,0.7212,-0.8381,0.3236,0.0158,-0.4315,2026
20,0.157,0.8809,-0.5342,0.3529,-0.1976,-0.2682,2053
20,0.2539,0.9158,-0.437,0.4964,-0.0049,-0.4444,2052
20,0.2546,0.8438,-0.6392,0.4056,0.126,-0.5187,2032
20,0.2539,0.814,-0.6746,0.4228,0.0378,-0.4084,2024
20,0.2649,0.8523,-0.5784,0.4147,0.043,-0.3269,2015
20,0.231,0.9226,-0.4944,0.4425,0.0811,-0.2523,2032
20,0.2346,0.8748,-0.6138,0.4453,0.0914,-0.3543,2035
20,0.2295,0.874,-0.6211,0.4087,0.1523,-0.3165,2043
20,0.2263,0.8499,-0.6794,0.3377,0.1405,-0.2976,2017
20,0.2168,0.9314,-0.6445,0.3144,0.0874,-0.255,2046
20,0.2131,0.9268,-0.6843,0.2852,0.0447,-0.2654,2012
20,0.2546,0.9419,-0.6045,0.4008,0.0136,-0.3165,2029
20,0.209,0.8713,-0.7356,0.3195,0.0983,-0.3603,2020
20,0.1748,0.887,-0.6707,0.299,-0.0447,-0.2796,2037
20,0.2417,0.885,-0.6609,0.352,-0.0597,-0.3501,2051
20,0.147,0.8853,-0.6355,0.2546,0.0595,-0.314,2036
20,0.186,0.8652,-0.7869,0.2464,-0.0092,-0.3995,2038
20,0.1313,0.9136,-0.7268,0.1486,0.0426,-0.3035,2045
