,timestamp,node,accx,accy,accz,gyrox,gyroy,gyroz,q0,q1,q2,q3,timestamp,node,accx,accy,accz,gyrox,gyroy,gyroz,q0,q1,q2,q3,timestamp,node,accx,accy,accz,gyrox,gyroy,gyroz,q0,q1,q2,q3,timestamp,node,accx,accy,accz,gyrox,gyroy,gyroz,q0,q1,q2,q3,timestamp,node,accx,accy,accz,gyrox,gyroy,gyroz,q0,q1,q2,q3,timestamp,node,accx,accy,accz,gyrox,gyroy,gyroz,q0,q1,q2,q3,timestamp,node,accx,accy,accz,gyrox,gyroy,gyroz,q0,q1,q2,q3,timestamp,node,accx,accy,accz,gyrox,gyroy,gyroz,q0,q1,q2,q3,timestamp,node,accx,accy,accz,gyrox,gyroy,gyroz,q0,q1,q2,q3
0,0.069,0.0,-1.04e-16,6.77e-17,1.0,0.019892736,0.009022963,0.01101438,0.9999992521832951,0.0009946360561939893,0.00045060004764965115,0.0005507191329903332,0.069,1.0,-1.89e-17,-6.82e-17,1.0,0.025510747,-0.003598371,-0.012604477,0.9999989718710897,0.0012755360385831708,-0.00017911449178748668,-0.0006302242274189734,0.069,2.0,2.74e-17,1.46e-17,1.0,0.014009805,0.001337669,-0.014643034,0.9999994843626531,0.0007004898888010667,6.739628037531245e-05,-0.0007321516817320759,0.069,3.0,3.2e-17,-1.25e-16,1.0,0.019714615,0.010232301,0.011007686,0.9999992321090355,0.0009857299930662576,0.0005110721268232015,0.0005503844121536807,0.069,4.0,4.19e-17,-1.56e-16,1.0,0.031313264,0.002648603,0.02125444,0.9999982011125222,0.0015656603835480676,0.0001307660500389344,0.0010627226933297889,0.0,5.0,-1.16e-17,-7.65e-18,1.0,-0.006484904,-0.008249629,0.007360015,0.999999794699036,-0.0003242451334321483,-0.0004123620428648732,0.00036800071313882366,0.081,6.0,-8.5e-17,4.7e-17,1.0,0.00569039,-0.0062033,0.007168089,0.9999998471646796,0.0002845194565153734,-0.00031026692563515534,0.0003584044242364592,0.0,7.0,-8.28e-18,4.75e-17,1.0,0.02614178,0.023971677,-0.010515782,0.9999982884104167,0.0013070867628000857,0.0011992690504890027,-0.0005257890983643471,0.0,8.0,-2.94e-17,9.99e-18,1.0,-0.013911657,-0.011454883,0.008656788,0.9999995005620231,-0.0006955825025995081,-0.0005724427884367433,0.0004328393932465292
1,0.144,0.0,-0.000686875,0.001572138,0.979737239,0.018133519,-0.012506023,0.016152547,0.99999728920027,0.001882766572989593,-0.0001856828765535394,0.0013573150011314712,0.144,1.0,0.000752723,0.00064565,0.979470273,0.022039396,-0.011496867,0.003420643,0.9999969887014524,0.0022824903248899425,-0.0007755751878723932,-0.00045968366530908024,0.144,2.0,6.64e-17,7.28e-18,0.97976834,0.020141811,-0.005489212,0.015898543,0.9999986342405923,0.0016373822405033379,-0.00021584255935623548,6.25167027171639e-05,0.144,3.0,0.0007311,0.001141149,0.979627564,0.021768442,-0.002375357,0.021879845,0.9999965337995403,0.0020344633539451447,0.00030228733214465085,0.0016437670562026358,0.144,4.0,-0.000203321,0.000962499,0.980118887,0.016674648,-0.009181328,0.013660541,0.9999957948928994,0.002292489949132198,-0.0003316304522477577,0.0017449090505202028,0.081,5.0,2.99e-18,-2.46e-17,0.980133154,-0.004709767,-0.007363139,-0.026060992,0.9999991503493345,-0.0005266356908732815,-0.0007400550252206393,-0.0009350262122362731,0.148,6.0,-8.37e-17,5.51e-17,0.98020151,0.009233316,-0.00111566,0.01412144,0.9999991196476713,0.0007175337545882644,-0.0003353642729399338,0.0010646032115329076,0.081,7.0,4.78e-05,0.000954314,0.979489707,0.005882658,0.003154732,0.014709768,0.9999980619784758,0.0015201888170293463,0.001233339990480393,0.00020961326424816278,0.081,8.0,0.000742405,-0.000621874,0.979326841,-0.006066313,-0.003596804,0.009096206,0.9999988756948345,-0.0009612556567761726,-0.0007326501067884206,0.000887592502478218
2,0.184,0.0,-0.000686875,0.001572138,0.979737239,0.009851921,-0.005391623,0.041336088,0.9999914869977512,0.0022672454648438945,-0.0004055478732327276,0.0034236035037693985,0.184,1.0,0.000941778,0.002024302,0.979722417,0.005562284,-0.015203371,0.01458303,0.9999958628110565,0.002434726266512276,-0.0015081967831898147,0.0002679761955091662,0.184,2.0,0.000548707,-0.000785653,0.979482558,0.00084099,-0.016087028,0.004311092,0.9999983456972009,0.001475593700389689,-0.0010269363117236907,0.00027681745677530687,0.184,3.0,0.001462201,0.002282298,0.979223495,0.01656154,-0.010907474,0.036739954,0.9999900280579896,0.002777192422207362,-0.00035151948387941734,0.003479571939714185,0.184,4.0,0.000440722,0.002189876,0.979838257,0.024426703,-0.010938321,0.031852095,0.9999882849779261,0.0033967701123672344,-0.0008709495674596813,0.0033366609898021968,0.149,5.0,2.99e-18,-2.46e-17,0.980133154,0.00851663,0.011885421,0.003869297,0.9999997213024449,-4.772808193810528e-05,-7.21673230177426e-05,-0.0007415584540158736,0.208,6.0,0.000851028,-0.000516478,0.980296388,0.021588135,0.010056121,-0.004610461,0.9999981965321537,0.001698430226252476,0.00015908341232176372,0.0008348411073810704,0.149,7.0,-0.000950471,0.00101028,0.979509099,0.022110938,0.023265633,0.009032104,0.9999938985462944,0.0025255825533461035,0.0023208992127308104,0.0006616115127183757,0.149,8.0,0.00148481,-0.001243748,0.979576055,-0.015657419,-0.013097236,0.005557158,0.9999968905225649,-0.001711037112404331,-0.0013903085386190817,0.0011654781717094934
3,0.234,0.0,-0.000241546,0.002437537,0.979507529,0.004026516,-0.005035267,0.040502713,0.999982174293717,0.0023662636804852645,-0.0006080986396568118,0.00544812876580161,0.234,1.0,0.002598295,0.001722837,0.980128706,0.005349484,-0.021240139,0.034598216,0.9999915042586597,0.0025443210386947523,-0.002556226480599872,0.001995882545388404,0.235,2.0,0.001630143,-0.000314012,0.980262334,0.003571167,-0.025550585,0.03556967,0.9999941659775342,0.0014891229162882706,-0.002287513910850346,0.002053729277061798,0.235,3.0,0.002193301,0.003423447,0.978819426,0.005594483,-0.019292849,0.046775629,0.9999777375067589,0.002956982195371187,-0.001398356641830942,0.005815956143381108,0.235,4.0,0.001084765,0.003417254,0.979557628,0.008161265,-0.023276784,0.025141779,0.9999808196101484,0.0036425453366103083,-0.0020056755753630894,0.004590156944241562,0.209,5.0,0.016377531,-0.004494126,0.980894275,-0.047275,-0.080570708,0.022807642,0.999984318271948,-0.002639402028513638,-0.004923178700642609,0.00039884658784963275,0.268,6.0,-8.37e-17,5.51e-17,0.98020151,0.00826355,0.002842903,0.020454615,0.9999963488427196,0.0019418070820047997,0.0002836786799873048,0.001857744033093199,0.209,7.0,0.008121316,-0.013275534,0.972051338,0.085978208,0.162631378,-0.183565445,0.999898044561854,0.005862269340539903,0.009857996130309552,-0.008506126724563086,0.209,8.0,-0.003095212,0.0063664,0.97609625,-0.085481524,-0.09758813,-0.123331338,0.999954463160873,-0.005473600365462714,-0.0060102398727396806,-0.004998831899711365
4,0.309,0.0,-0.000241546,0.002437537,0.979507529,0.000384564,-9.05e-05,0.038394418,0.999970129589171,0.0022720768615785885,-0.0005430630288724102,0.007367677971944699,0.309,1.0,0.002598295,0.001722837,0.980128706,-0.00645937,-0.009399886,0.016783936,0.9999896568776586,0.0020538690057768025,-0.002905333435395458,0.0028331603270714623,0.309,2.0,0.002409785,0.000290269,0.98009801,-0.002295311,-0.007676255,0.020360339,0.9999912220882364,0.001238966289951782,-0.00256697321147317,0.003071051536433269,0.309,3.0,0.003658825,0.002676743,0.979362266,-0.009937948,-0.016664462,0.039917063,0.9999642440569572,0.0023041956026477305,-0.0022851948305736233,0.007808916365868623,0.309,4.0,0.00233877,0.001757136,0.978738189,-0.035265836,-0.021830018,-0.001648548,0.9999840049054353,0.0016105078482099966,-0.0030236120546956583,0.004500440856173328,0.269,5.0,-0.000725038,0.000665435,0.979955627,0.009146525,0.019471849,0.041531056,0.9999893069930211,-0.001894813862903141,-0.003416153296052868,0.0024749700402514553,0.285,6.0,-8.37e-17,5.51e-17,0.98020151,0.01076947,0.006062971,0.028382835,0.9999918621530682,0.002285934375671021,0.0005562130971106154,0.0032773096679928233,0.269,7.0,-0.003849658,0.003086805,0.97897735,0.030138747,0.041045196,-0.025042963,0.999866448390141,0.006947252075125181,0.011115404305768158,-0.00976057679696073,0.269,8.0,0.002227215,-0.001865622,0.97982527,-0.018546236,-0.015903049,-0.001942884,0.9999493604678364,-0.005952688070073673,-0.006313472403355512,-0.005097261119188841
5,0.384,0.0,-0.000241546,0.002437537,0.979507529,-0.004736984,-0.00589949,0.039252382,0.9999543108298383,0.0019334677144261512,-0.0007760113590542309,0.00932929588933548,0.384,1.0,0.003351018,0.002368486,0.980000082,-0.002372152,-0.006528655,0.037475447,0.9999823684600618,0.0018466789553295575,-0.0031156455961246334,0.004705879127285567,0.385,2.0,0.001861078,0.001075922,0.980383792,0.012158261,-0.013020567,0.055475047,0.9999766642530337,0.0017730075347652757,-0.00305907908890936,0.005845462238785779,0.385,3.0,0.004741754,0.001849259,0.978984727,-0.015193765,-0.005097794,0.060049855,0.999937306120471,0.0014055930475012437,-0.0025631190728504717,0.01080918856058942,0.385,4.0,0.003032637,0.000736023,0.979428028,-0.021019993,-0.011267129,0.042415732,0.9999720786552582,0.0004328773647920445,-0.003444878151376755,0.006617200434577989,0.285,5.0,-0.002862859,0.001310381,0.979838296,0.021232579,0.0321116,0.039548774,0.999989042788429,-0.0005879363113058282,-0.001318928318389407,0.004452983501708553,0.344,6.0,-8.37e-17,5.51e-17,0.98020151,0.016866152,0.013550142,0.038368695,0.9999816024069038,0.0028994782178790213,0.0011752873740742823,0.005196784907357971,0.285,7.0,-0.005680573,0.005694401,0.980336832,0.024758808,0.029441888,0.010508657,0.9998578836665016,0.00780377895267701,0.011746517544906581,-0.009237577039978354,0.285,8.0,0.003712025,-0.003109369,0.980323698,-0.013381182,-0.005305915,0.026622272,0.9999549491937465,-0.006195767069662963,-0.006124277493951269,-0.003768989059064924
6,0.444,0.0,-0.000241546,0.002437537,0.979507529,0.000963974,0.002139356,0.052477336,0.9999265665572096,0.0019095833438154861,-0.0005825210186719585,0.011953060437657387,0.444,1.0,0.004103742,0.003014136,0.979871458,0.006245292,-0.011573117,0.054442717,0.9999636952299159,0.0021232843423486074,-0.0035956903496823464,0.007427711400067847,0.444,2.0,0.00264072,0.001680204,0.980219467,0.001743864,-0.005121371,0.055292278,0.9999564280485054,0.0017624224824852712,-0.0031477806574274165,0.008609724060633286,0.445,3.0,0.004917668,0.000864943,0.978997992,-0.006617397,0.003967461,0.053223879,0.999906008710496,0.0009721150027842616,-0.002365270436738675,0.013469752515474187,0.445,4.0,0.004286642,-0.000924095,0.978608589,-0.003724194,0.001243763,0.043537798,0.9999560131689562,0.00014971451445951268,-0.0032590803856106664,0.008793617449630906,0.404,5.0,-0.004312935,0.002641252,0.979483243,0.017548741,0.030432225,0.042400219,0.9999781293512782,0.0004725478107238822,0.0005582059864017114,0.006573121310431373,0.404,6.0,-0.000851028,0.000516478,0.980106631,0.011216559,0.005587642,0.03282236,0.9999705609265501,0.00319694174366968,0.0013783517423291752,0.006837908320746614,0.404,7.0,-0.007629289,0.006760647,0.980080654,0.022588275,0.029683673,0.015081356,0.999850479208858,0.00852372536939372,0.012425044221917673,-0.008484315395327905,0.405,8.0,0.004584359,-0.00396252,0.979608739,-0.014146731,-0.008295194,0.021443565,0.9999563537537125,-0.006494765802954488,-0.006150194958483755,-0.0026988343257378575
7,0.534,0.0,-0.000524151,0.002816831,0.980388592,0.005695032,0.006344417,0.0486189,0.9998942305009589,0.0021414631406977097,-0.00018043803133100696,0.014384345262443102,0.534,1.0,0.004856465,0.003659785,0.979742834,0.013491864,-0.011218227,0.047068889,0.9999401369565908,0.002769812319822582,-0.004044945155992044,0.009782078594684244,0.534,2.0,0.003420361,0.002284485,0.980055142,0.005748597,-0.002555482,0.036995122,0.9999384031654174,0.00198691407869353,-0.0031354544268245963,0.010459970027495246,0.534,3.0,0.004741754,0.001849259,0.978984727,0.006155695,0.008349819,0.051132579,0.999868848410173,0.0012686743062308987,-0.001951277262964445,0.016027132041084736,0.534,4.0,0.004083321,3.84e-05,0.978788192,0.01541083,0.003598211,0.046751541,0.9999332423948276,0.0008998283523400679,-0.0029571583610884774,0.011133565337784123,0.439,5.0,-0.007175794,0.003951632,0.979188385,0.014070229,0.035131305,0.03194587,0.9999622953198792,0.0013174817804245463,0.002629119815571346,0.00817067373917604,0.439,6.0,-0.000851028,0.000516478,0.980106631,0.008333892,-6.78e-06,0.028225253,0.9999596415646957,0.003321926395192399,0.0012819337182586985,0.008248435777274058,0.439,7.0,-0.00857976,0.007770927,0.979805083,0.006029791,0.00255154,0.024024571,0.9998694499544091,0.008389079051829524,0.011731957452186144,-0.007284749471995868,0.439,8.0,0.003927128,-0.004710707,0.979699641,0.000199491,-0.003328218,0.008609014,0.9999615522117785,-0.006079378011149749,-0.005898777187052645,-0.002267088199751987
8,0.601,0.0,-0.001373749,0.003144276,0.979975115,0.01214941,0.004661554,0.036556609,0.9998649411631746,0.00269042141743247,0.00014686098675872067,0.016212325471959145,0.601,1.0,0.005609188,0.004305435,0.97961421,0.010444821,-0.002266082,0.025324763,0.9999255709803763,0.0032335552697041092,-0.004036857692973325,0.011049904970307917,0.601,2.0,0.003420361,0.002284485,0.980055142,0.009366226,-0.00327365,0.019654382,0.9999267199952807,0.002373497526178255,-0.003156282547299815,0.011443733195695237,0.601,3.0,0.004565839,0.002833576,0.978971462,0.016393292,0.00670653,0.043418116,0.9998308169081773,0.0021001574845464135,-0.00164313911017981,0.018199642664942926,0.602,4.0,0.004524043,0.00222828,0.978687165,0.022148796,-6.65e-05,0.031260606,0.9999131354184122,0.002029006827490264,-0.0028854487092420597,0.012699564353181243,0.509,5.0,-0.008625869,0.005282503,0.978833331,0.010442043,0.021961701,-0.002600722,0.9999580916786199,0.001964714292677177,0.003911557375944091,0.008040802391266763,0.509,6.0,-8.37e-17,5.51e-17,0.98020151,0.00385484,-0.004069345,0.011334651,0.9999556306791351,0.0031848768053719177,0.0009500688115951099,0.00881422725374955,0.509,7.0,-0.00857976,0.007770927,0.979805083,-0.0053759,-0.008476246,0.026734701,0.9998969372086565,0.0076937274458052825,0.01056160744045829,-0.005947601786542034,0.509,8.0,0.003927128,-0.004710707,0.979699641,0.002232111,-0.004205081,0.004567801,0.999965883566328,-0.005602539503787209,-0.005718008511219023,-0.0020365738845445507
9,0.64,0.0,-0.000928421,0.004009676,0.979745406,0.012536951,-0.004171872,0.01314673,0.9998524118315483,0.0032554446138237407,-1.7674139464546435e-05,0.016868797308258614,0.64,1.0,0.006361912,0.004951084,0.979485586,0.008646928,0.001009749,0.013606849,0.9999170975902197,0.003595511418938073,-0.003902294199108373,0.011732107413880732,0.64,2.0,0.003651296,0.003674419,0.9801766,0.013780402,-0.00016878,0.011654609,0.9999185349899639,0.003012922317001731,-0.0030270617033506153,0.012028407212921248,0.641,3.0,0.004389925,0.003817892,0.978958197,0.015155941,-0.002550546,0.017627613,0.9998122189191134,0.002847711729365862,-0.0018156697861384811,0.019081949092607662,0.641,4.0,0.004320723,0.003190779,0.978866768,0.020584683,-0.013510574,0.011162606,0.9999014540751197,0.0030279771717337902,-0.0034795938402677066,0.013259182456536954,0.628,5.0,-0.008625869,0.005282503,0.978833331,-0.008203342,-0.012814222,0.003167342,0.9999595455953567,0.0016301368949507358,0.003318917700506054,0.008199671440273679,0.628,6.0,-8.37e-17,5.51e-17,0.98020151,-0.001229292,-0.004704746,0.007490197,0.9999536571919172,0.002807360140829199,0.0006182434305856918,0.009188034208140404,0.629,7.0,-0.007581516,0.007714961,0.979785691,-0.007594017,-0.013100191,0.033900318,0.9999242162636753,0.006954670593991941,0.009225498897018358,-0.00425258233368161,0.629,8.0,0.003927128,-0.004710707,0.979699641,0.000887743,-0.002544718,0.008513822,0.9999700005320741,-0.00524142069389732,-0.005471240559082182,-0.0016096806322740975
10,0.714,0.0,-0.000483092,0.004875075,0.979515697,0.01135746,-0.004234475,-0.003052145,0.9998532386373353,0.0037496612270017365,-0.0001885941706916817,0.016715431772870045,0.714,1.0,0.005798243,0.005684087,0.979866354,0.009144236,-0.009370818,0.014616347,0.9999052581374288,0.003989260861717887,-0.004270551053477751,0.012462862456058429,0.714,2.0,0.003651296,0.003674419,0.9801766,0.011652615,-0.010021754,0.012059692,0.9999083389310174,0.0034880714051463823,-0.0034044801924078064,0.012631571901607165,0.714,3.0,0.004389925,0.003817892,0.978958197,0.006442351,-0.003471913,-0.014130478,0.9998243374893183,0.0030888337585532207,-0.002019787986721413,0.018375900700272646,0.714,4.0,0.006352499,0.002375931,0.979965816,-0.016582926,-0.00489195,-0.071270127,0.9999440952528585,0.0020372061126341366,-0.0037024028478946803,0.009692696907910647,0.695,5.0,-0.007900831,0.004617068,0.979010858,-0.004156166,-0.011570977,-0.008701599,0.9999647822197565,0.001495100200627878,0.002812861584278168,0.0077644578234722945,0.695,6.0,-8.37e-17,5.51e-17,0.98020151,-0.00073845,-0.002252759,0.005397835,0.9999520751821547,0.002490907655165757,0.00044277555700145707,0.00945762484781763,0.695,7.0,-0.006583271,0.007658995,0.979766299,-0.002142968,-0.012403641,0.033486513,0.9999431185121153,0.0065571345940850425,0.008006569287444717,-0.002580421366040455,0.696,8.0,0.003927128,-0.004710707,0.979699641,0.007942022,0.000758774,0.004146566,0.9999756803606002,-0.004561999360393326,-0.00508591322045305,-0.0014001199607350712
11,0.775,0.0,-0.000483092,0.004875075,0.979515697,0.000956804,-0.008717889,0.001682787,0.9998519756781012,0.0036782008723392945,-0.000576259299632421,0.016797782477461044,0.775,1.0,0.007114635,0.005596734,0.979356962,0.004631829,-0.020376113,0.008953998,0.9998945635124175,0.0041229177633248125,-0.005220781002150265,0.012907627712186953,0.775,2.0,0.004430938,0.004278701,0.980012275,0.005103009,-0.027265059,0.016352436,0.9998922068197904,0.0036299558002657246,-0.004650168511102765,0.013445225723498381,0.775,3.0,0.004389925,0.003817892,0.978958197,0.00396968,0.000765529,0.004161229,0.9998202488697622,0.003176358651570187,-0.001997142715916177,0.018584728050096602,0.775,4.0,0.006149179,0.003338429,0.980145419,0.018169511,-0.009491742,-0.00727794,0.999943754723041,0.00292118814797717,-0.004108868176632842,0.009331197806174292,0.719,5.0,-0.007900831,0.004617068,0.979010858,0.000719291,0.002441791,0.000316253,0.9999637512464499,0.0016133045880847672,0.003059230672941096,0.007780395177878966,0.719,6.0,-8.37e-17,5.51e-17,0.98020151,-0.005410438,-0.001563431,-0.005969401,0.9999560596257349,0.001971914172993554,0.00031835998342147435,0.009159094889199543,0.719,7.0,-0.006583271,0.007658995,0.979766299,0.008252994,-0.004330543,-0.012674231,0.9999455288589624,0.006700130573927903,0.0073275332128432,-0.0032178909672651843,0.719,8.0,0.003927128,-0.004710707,0.979699641,0.009885906,0.008975681,0.001351409,0.9999823239815727,-0.0038519211357134113,-0.004329065097168771,-0.0013317745161427197
12,0.879,0.0,-0.000483092,0.004875075,0.979515697,-0.001984243,-0.00508272,0.005117319,0.9998483195438617,0.003463705557317865,-0.0007464486094863668,0.017052374133863422,0.879,1.0,0.009149261,0.008052574,0.980267539,0.021716167,-0.023489223,0.017319152,0.9998714855612408,0.005223624294181931,-0.006324819383085914,0.013773988912504725,0.879,2.0,0.006538928,0.004701612,0.979397844,0.001398766,-0.020935012,-0.004497601,0.9998907225747115,0.003596496119331338,-0.00556059579219333,0.013216954986706018,0.88,3.0,0.004389925,0.003817892,0.978958197,-0.014174115,0.009130239,-0.029232609,0.9998493985860303,0.0023436798190067214,-0.0015712757574754114,0.017123621245332548,0.88,4.0,0.006352499,0.002375931,0.979965816,-0.033115515,0.007519398,-0.066124115,0.9999745818309802,0.0011076301438655279,-0.0036567427311948657,0.006019724247692138,0.794,5.0,-0.008625869,0.005282503,0.978833331,0.015319216,0.013169007,0.004493434,0.9999574442950208,0.002479854104439267,0.0038598178305781906,0.008003857126796106,0.794,6.0,-8.37e-17,5.51e-17,0.98020151,-0.000587916,0.01213148,-0.007788266,0.9999596224941877,0.0017396480570602223,0.0008934816316867502,0.00877090055199745,0.794,7.0,-0.006500484,0.008906827,0.980426648,0.015084373,-0.001464551,-0.002295256,0.9999447696255593,0.007238496899013855,0.006850008100820754,-0.0033375515199796668,0.794,8.0,0.00296962,-0.002487495,0.980074484,0.019088103,0.020987649,-0.000289855,0.9999911161145411,-0.002637972580920783,-0.002999420016950781,-0.001346206603173207
13,0.94,0.0,0.000366506,0.00454763,0.979929173,-0.003467693,-0.004794115,0.00332869,0.9998462742908937,0.003180262646336248,-0.0009297000762517357,0.017217705244536485,0.94,1.0,0.010654708,0.009343873,0.98001029,0.027892257,-0.030991564,0.023944676,0.9998360119895126,0.006593531499459655,-0.0077672749917891,0.014971436486678577,0.94,2.0,0.007620364,0.005173252,0.98017762,0.007484869,-0.025415509,0.00790162,0.9998776433653047,0.0038946415229328324,-0.006656937311630658,0.013609381002875993,0.94,3.0,0.003658825,0.002676743,0.979362266,-0.025873262,0.008283247,-0.029035821,0.9998760223762639,0.0009508263823465538,-0.001205232843870157,0.01567109504801323,0.941,4.0,0.005708457,0.001148553,0.980246446,-0.022501321,0.004286164,-0.048442478,0.9999878467524171,-6.028678400326552e-05,-0.003374479685134159,0.003593828017977597,0.869,5.0,-0.010075945,0.006613374,0.978478277,0.011888827,0.028921193,-0.056157956,0.9999667149419667,0.003137656795528993,0.005450933415588335,0.005197253400045716,0.869,6.0,-0.000851028,0.000516478,0.980106631,0.00103699,0.012369325,-0.033945195,0.9999725554882012,0.0016365522906014722,0.0014694577743979314,0.007074649167686694,0.869,7.0,-0.005454467,0.009805175,0.980112293,0.021610825,0.003368073,-0.022289012,0.999935467900538,0.008089155792969063,0.0066153946098708016,-0.004456696898493404,0.869,8.0,0.001569984,-0.002613808,0.979916171,0.011787968,0.017243707,0.012114726,0.999996047336959,-0.0019189094082272995,-0.0019168533947619844,-0.0007407902568536522
14,0.994,0.0,0.000366506,0.00454763,0.979929173,-0.014185817,-0.014667916,-0.016658417,0.9998616612258208,0.002398765972777845,-0.001594940059322182,0.01638171232676383,0.995,1.0,0.011407431,0.009989522,0.979881666,0.012851139,-0.030120149,1.07e-06,0.9998216086336129,0.007117506380377102,-0.0090609994767168,0.014966305512824258,0.995,2.0,0.009728354,0.005596163,0.979563189,-0.006128021,-0.029406713,-0.018256007,0.9998816630564396,0.003517257734444618,-0.007954964847269947,0.01268886581996024,0.995,3.0,0.004917668,0.000864943,0.978997992,-0.033172352,-0.007770992,-0.05777815,0.999916519162335,-0.0007450665933135701,-0.0017518015927756145,0.012780092849063,0.995,4.0,0.006115098,-0.000776444,0.97988724,-0.033818387,-0.014131107,-0.077224206,0.9999901227994505,-0.0017680880826874078,-0.0040686189003276,-0.0002729621141448507,0.939,5.0,-0.013553711,0.007826732,0.980331087,0.024068591,0.063964453,0.006773985,0.9999362044893146,0.0044079980307404724,0.008801862365526936,0.005539289102670047,0.939,6.0,-0.001702056,0.001032956,0.980011753,0.009918589,0.012691097,-0.019881445,0.9999773806762259,0.0020149492853304635,0.002049771927125414,0.006080834674525199,0.939,7.0,-0.007272623,0.013073566,0.980221501,0.056190276,0.029390477,-0.05438893,0.9998859855448008,0.010746391003139988,0.007807843635740409,-0.0071811259054607515,0.939,8.0,0.000827579,-0.001991935,0.979666957,-0.010455209,-0.00191317,0.004661567,0.9999953711968333,-0.0023519893089946446,-0.0018620534357503232,-0.0005084173484094171
15,1.074,0.0,0.001053381,0.002975492,0.979691297,-0.013066022,-0.014156345,-0.008001436,0.9998685047475147,0.0016706242965233078,-0.0022044687970520435,0.015978815530322384,1.074,1.0,0.013816672,0.010333707,0.980159331,-0.003675751,-0.036036789,0.001134929,0.9998075487023006,0.006786025041724418,-0.010656290284802828,0.015008627498738885,1.075,2.0,0.011056702,0.005414792,0.979113083,-0.011892509,-0.031620619,-0.000640937,0.9998725688748953,0.0028749358258500185,-0.009308789188442553,0.012646232615304506,1.075,3.0,0.005269497,-0.001103689,0.979024522,-0.031019532,-0.018218413,-0.045809318,0.9999385827407898,-0.00225870611943935,-0.002782291121526663,0.010487509195301304,1.075,4.0,0.00806297,-0.003457675,0.97975764,-0.036994562,-0.023856015,-0.077292242,0.9999709944980768,-0.003602100944250127,-0.00527931573569024,-0.004142928514658363,1.05,5.0,-0.018554392,0.009782057,0.979918898,0.021252631,0.073428723,0.016391045,0.9998858836108938,0.0055103348794021505,0.012543309204534695,0.006365638960730104,1.049,6.0,-0.002037921,0.002405603,0.979956662,0.010937116,0.011722091,-0.012217642,0.9999787428339072,0.0024775868473070027,0.002540449150144378,0.005470060497667606,1.05,7.0,-0.008044761,0.017240306,0.980016354,0.068606847,0.030867302,-0.040499291,0.9998195324366623,0.01397906822212492,0.00897785369660364,-0.009213379009763108,1.05,8.0,0.001569984,-0.002613808,0.979916171,-0.022974667,-0.008752975,0.024889203,0.9999915496583247,-0.0034014604352720235,-0.0021887142117352674,0.0007349890810030577
16,1.119,0.0,0.003035182,0.001941308,0.979637187,-0.013422633,-0.017451337,0.003207345,0.9998647906674275,0.0009476545796636605,-0.0030206553919717195,0.016136231759058758,1.12,1.0,0.016789581,0.009944889,0.980056228,-0.011610611,-0.044013868,-0.001213857,0.9997900972895978,0.006080767898392584,-0.012647943851081285,0.014926993661234959,1.12,2.0,0.013235552,0.004315127,0.979321296,-0.021973161,-0.045101479,0.001796689,0.9998535123692757,0.0017454435858325315,-0.011319549728335392,0.01271908107762041,1.12,3.0,0.007293529,-0.002753929,0.980501005,-0.026494161,-0.018438275,-0.030035435,0.9999462993971721,-0.0034801445628600144,-0.003818412360008656,0.008983687593176354,1.121,4.0,0.008960158,-0.005441286,0.980267876,-0.019622661,-0.022600875,-0.046860719,0.999948735083923,-0.0044946949635307105,-0.006343671267774986,-0.006487122327637392,1.08,5.0,-0.022830034,0.011071948,0.979684236,0.015744518,0.051528498,0.024633044,0.9998382685507047,0.0063029268534136665,0.015030642317143513,0.007601950153981484,1.079,6.0,-0.002888949,0.002922081,0.979861784,0.004305091,0.017019923,-0.014029028,0.9999798688660676,0.0025869375101015184,0.0032886028373200708,0.004770189545450607,1.08,7.0,-0.010813388,0.021518977,0.979849991,0.053740148,0.015668557,-0.032909537,0.9997627839130733,0.016362801205069093,0.009407011532209646,-0.01086935017090421,1.08,8.0,0.002397562,-0.004605743,0.980505502,-0.014851793,-0.004886131,0.019444706,0.9999876586359581,-0.00404061501866236,-0.0023331958245070062,0.00170651788446628
17,1.18,0.0,0.00388478,0.001613862,0.980050664,-0.01382544,-0.026954767,0.028167263,0.9998369749985293,0.0002647436843178831,-0.0042744701724955324,0.017540873447932318,1.18,1.0,0.019009767,0.008910421,0.980081748,-0.016286154,-0.049520486,0.045552147,0.9997290373084492,0.005135657335359635,-0.014845060174561837,0.017178509087489944,1.18,2.0,0.017044544,0.00290145,0.980023502,-0.020090074,-0.053151516,0.054414598,0.9997865660854595,0.0007286614187578887,-0.013726850310709743,0.01542286964638501,1.18,3.0,0.009459387,-0.004408896,0.979745927,-0.020822314,-0.018962546,0.013733339,0.9999317419984528,-0.004387928065422546,-0.004875695855862694,0.009668765234162432,1.18,4.0,0.010010843,-0.006138905,0.97962804,-0.007577219,-0.025422025,0.018821336,0.9999453389749925,-0.004754898490812382,-0.00748227773032923,-0.005543060751611357,1.199,5.0,-0.025692893,0.012382328,0.979389378,0.024671161,0.047200223,0.015209725,0.9997887145523922,0.007521344580821886,0.01720674252985808,0.00835964358589343,1.199,6.0,-0.003739977,0.003438559,0.979766905,0.00420149,0.016625845,-0.004207694,0.9999779923378994,0.002708220311016072,0.0039842819753934345,0.004561346265291496,1.2,7.0,-0.010717842,0.023427604,0.979260065,0.032617023,-0.001519225,0.00036749,0.999747137595157,0.017558078791552318,0.008906433360773545,-0.010865090162078416,1.2,8.0,0.001655157,-0.003983869,0.980256288,0.007022735,0.009530886,-0.001339822,0.9999911123065542,-0.0034891361210665594,-0.0017077417195881994,0.0016385527908741161
18,1.256,0.0,0.005299588,0.00052783,0.978702016,-0.008231465,-0.03136996,0.036814622,0.999795998535386,-0.00012186607389761347,-0.0056924196762609906,0.01937892720250232,1.256,1.0,0.022206221,0.008002712,0.978682196,-0.012511755,-0.047043736,0.063789754,0.9996410262828699,0.004417943747771019,-0.016863731892847185,0.020344898422414714,1.256,2.0,0.020551742,0.001620414,0.979781608,-0.004197862,-0.049496874,0.090148866,0.9996752371600042,0.0005210916781763782,-0.01588088417857051,0.01992350848267755,1.256,3.0,0.011100825,-0.006139916,0.980302032,-0.01875183,-0.026333319,0.018260363,0.9999108529068477,-0.005186021839955848,-0.00627815406117825,0.010581880653270601,1.256,4.0,0.012399437,-0.00663026,0.979397414,-0.0190063,-0.032028101,-0.001472757,0.9999285016319601,-0.005579944585843627,-0.008961554310009194,-0.00561661702724755,1.259,5.0,-0.029243497,0.013006783,0.979332243,0.016785377,0.057826809,0.013513246,0.9997275479125816,0.008246981451005189,0.019875947017217534,0.009042343269989726,1.259,6.0,-0.003739977,0.003438559,0.979766905,0.006243082,0.00818983,-0.01141638,0.9999789957694883,0.0029200078900091225,0.004190085150080874,0.003990583942569677,1.259,7.0,-0.010635055,0.024675437,0.979920414,0.01224018,-0.01066019,-0.014164144,0.9997446542676218,0.017666565212105897,0.0080176070405652,-0.011586056890191878,1.259,8.0,0.000170347,-0.002740122,0.979757859,0.033952552,0.025996681,-0.032071581,0.9999987181868691,-0.0015817960734305812,-0.0002458063694692451,3.354146025113966e-05
19,1.303,0.0,0.006149186,0.000200385,0.979115492,-0.00566149,-0.045373971,0.08249399,0.9996940348894474,-0.0003558685511366461,-0.007708924136177556,0.023500690472690006,1.303,1.0,0.023673684,0.006322595,0.978836341,-0.015527659,-0.057265072,0.110171093,0.9994744619438073,0.003512889232580449,-0.01927622869288799,0.02582414642840844,1.303,2.0,0.021720014,-0.001473466,0.980032688,-0.023344046,-0.045259216,0.092427772,0.9995425159565567,-0.0007790363765561457,-0.017683455235749785,0.024524422694238747,1.303,3.0,0.011100825,-0.006139916,0.980302032,-0.033656328,-0.012346886,0.016970642,0.999889156910597,-0.006655984123046892,-0.0068492074542781,0.01142191425363287,1.304,4.0,0.014684359,-0.010656096,0.981287327,-0.02228291,-0.005277229,-0.000831754,0.9999204887841214,-0.00668419722558889,-0.009068320944640435,-0.0056659661504577,1.289,5.0,-0.032106356,0.014317164,0.979037385,0.017817397,0.017784235,-0.048381077,0.9997286823637885,0.008972736705715799,0.020452475282404185,0.006614220286309225,1.289,6.0,-0.004255139,0.002582391,0.979727118,-0.011115619,0.011233855,0.011852801,0.9999767143102998,0.0022034038465645286,0.004546914268812861,0.004587092684725531,1.289,7.0,-0.010587282,0.02562975,0.979625452,0.010395089,-0.010010163,0.005983164,0.9997528294405222,0.017730068692137262,0.0072291832515196455,-0.011298831769610067,1.289,8.0,-0.000657231,-0.000748187,0.979168529,0.017716143,0.023240436,-0.003187335,0.9999993513672235,-0.0005760142193254422,0.0009742927252619728,-0.0001273830325871346
20,1.351,0.0,0.008293711,0.000410894,0.979712736,-0.00634306,-0.044969928,0.02722947,0.9996445536231192,-0.0005640703385962169,-0.009615068920152996,0.024859579359850482,1.351,1.0,0.023862738,0.007701248,0.979088485,0.015265976,-0.023770276,0.054148741,0.9993885167434473,0.004327399798565808,-0.019736217064408198,0.028536782374720675,1.351,2.0,0.022181884,0.001306402,0.980275603,0.007329469,-0.013617001,0.044179028,0.999485485874155,-0.00026290738463730247,-0.017715302159667084,0.026736912237638986,1.351,3.0,0.013090769,-0.006810566,0.979533689,-0.011806356,-0.030732365,0.007605116,0.999871368891528,-0.006905656970293431,-0.008376897361480838,0.011806149388606458,1.352,4.0,0.015278577,-0.007180228,0.980036229,-0.017815292,-0.034283155,-0.012333831,0.9998970254919812,-0.007281280173027903,-0.010652218255216986,-0.006281052266413854,1.41,5.0,-0.033519139,0.014296674,0.979097581,0.003108324,0.027605265,-0.007533634,0.9997092781969622,0.008932398943243396,0.02150712583763062,0.006246188776516992,1.409,6.0,-0.004255139,0.002582391,0.979727118,-0.001398115,-0.00695233,0.031720892,0.9999710052122758,0.0020527565101542944,0.003958796740596453,0.006172750912473026,1.41,7.0,-0.010587282,0.02562975,0.979625452,0.01159457,-0.003943643,-0.003780715,0.9997513078696286,0.01784684618221544,0.006831367114041248,-0.011495430295078995,1.41,8.0,-0.001399636,-0.000126313,0.978919315,-0.008556211,-0.000454401,-0.054082378,0.9999951102827428,-0.0009552993999821112,0.0009231008891112524,-0.002831024268711085
21,1.39,0.0,0.011570438,-8.53e-05,0.979842394,-0.007419689,-0.057144001,0.017267991,0.9995955245734732,-0.0008054494949402977,-0.012108445934840442,0.02572010965833948,1.39,1.0,0.024615461,0.008346897,0.97895986,0.011018196,-0.019543623,0.034223529,0.9993307090993749,0.004901171860815694,-0.019976098093428315,0.03025008876503809,1.39,2.0,0.022961526,0.001910684,0.980111278,0.001144694,-0.012931588,0.003548131,0.9994800574134232,-3.656654019278206e-05,-0.0177566351027758,0.026913108433913913,1.39,3.0,0.015463307,-0.007400437,0.979685725,-0.007117118,-0.029778604,0.016191502,0.9998481321086075,-0.006928426612486027,-0.009819999892390418,0.012620508140236956,1.39,4.0,0.017176625,-0.007612969,0.97893616,0.000927162,-0.028718676,0.027652003,0.9998933977229956,-0.006924848463115906,-0.011888204872440244,-0.004889810695428316,1.47,5.0,-0.036382872,0.017252867,0.979342445,0.066042571,0.122622437,0.159431796,0.9994511336094334,0.012340779104784582,0.027267160923859838,0.01419995186814289,1.469,6.0,-0.004255139,0.002582391,0.979727118,-0.001583094,0.018455505,0.171689601,0.9998782517301549,0.0019270011248786955,0.004686386404257807,0.014758257559209162,1.47,7.0,-0.010635055,0.024675437,0.979920414,0.013148298,-0.017114505,-0.056792492,0.9997185448859207,0.017954982167192737,0.005864139079282442,-0.014354842368067252,1.47,8.0,-0.002142041,0.000495561,0.978670101,0.027487342,-0.003542495,-0.129942741,0.9999560527627077,0.0005336823902134457,0.0007625929605861903,-0.009328782252122829
22,1.449,0.0,0.016828967,-0.001615749,0.979917943,-0.025393067,-0.095782489,0.097469441,0.9993930833474565,-0.0019899319044749306,-0.016567019039940185,0.030578407551892624,1.449,1.0,0.027739441,0.006365315,0.979520294,-0.044949726,-0.065208061,0.070447704,0.9991702040161428,0.002561155786552157,-0.0227181411030584,0.033708010208226294,1.449,2.0,0.025458147,-0.001364568,0.979912252,-0.066513945,-0.060137581,0.00708219,0.9994166294163367,-0.0033166490965351085,-0.02037439675789691,0.02720817233132247,1.45,3.0,0.020032469,-0.007595864,0.979976532,-0.038658663,-0.027008514,0.061107704,0.999777859077262,-0.008555618825691284,-0.0112130269218609,0.015662117118880964,1.45,4.0,0.018073813,-0.00959658,0.979446396,-0.003734251,-0.004046876,0.144761946,0.9999034754421691,-0.007000242966705723,-0.011769916147943458,0.0023463740002759486,1.499,5.0,-0.052798569,0.024744167,0.978705797,0.176002354,0.349312994,0.535485264,0.9979510477292202,0.021588025926278214,0.04421404348521953,0.04089965563969175,1.499,6.0,-0.00724587,0.005519489,0.980382085,0.091499344,0.054375379,0.027140879,0.9998217966406314,0.006550656252645158,0.0073682366424810295,0.01609884945392536,1.499,7.0,-0.007270897,0.031481253,0.978752811,0.127222867,-0.048523511,0.05592017,0.9996369095148007,0.02411216461024088,0.0030417482306804825,-0.011636168665342788,1.5,8.0,-4.9e-17,1.4e-17,0.979077627,-0.056110513,-0.044837393,0.160317797,0.9999952611744471,-0.002340021411889116,-0.0015106294854925998,-0.0013114598729427579
23,1.524,0.0,0.023665028,-0.002987502,0.979296197,-0.081828989,-0.129274185,0.260778375,0.9987772856107532,-0.006011082877396112,-0.022623421411749244,0.04354286892572907,1.524,1.0,0.033647275,0.002616263,0.97972548,-0.110521083,-0.167584083,0.21629671,0.998540230321181,-0.0029851658582197333,-0.030676283941900813,0.044356091108633706,1.524,2.0,0.033958586,-0.009196107,0.979272304,-0.127240401,-0.17113207,0.207228651,0.9988386137292988,-0.009739441444276315,-0.028698938707418572,0.03745581291006726,1.524,3.0,0.030368106,-0.013897338,0.978406174,-0.122702535,-0.051518941,0.185805139,0.9994830422929728,-0.014580938945953897,-0.014188313147378787,0.024894500562771895,1.525,4.0,0.018277134,-0.010559078,0.979266793,-0.014336135,-0.021966501,0.380388158,0.9996638036496285,-0.007773648047856326,-0.012476948077311057,0.021358273232204586,1.629,5.0,-0.071463964,0.036934495,0.976706069,0.093295116,0.199308777,0.538103792,0.9959478430950237,0.026584148023514702,0.05290016697104893,0.06769600610574678,1.628,6.0,-0.007223142,0.011349767,0.980296388,0.080821336,-0.006561055,0.630038139,0.9987917669607491,0.01073869370965042,0.006404823572254788,0.047525413663040895,1.629,7.0,0.001154511,0.038594278,0.979398871,0.119527216,-0.140533447,0.204321614,0.9995495984907126,0.029590064645179475,-0.004739760841225181,-0.0016009055305081967,1.629,8.0,-0.000657231,-0.000748187,0.979168529,0.027307648,0.056131339,0.263915286,0.9999280166633205,-0.0007949458294793108,0.0014892345225937676,0.01187904598118229
24,1.584,0.0,0.033128705,-0.009023821,0.97925536,-0.118722149,-0.159118049,0.447604278,0.9973136437653645,-0.011875094886684685,-0.029991787005894457,0.06576451013333041,1.584,1.0,0.04199884,-0.002686147,0.978659738,-0.140324233,-0.273947066,0.474107751,0.9967032504829524,-0.0098407153607026,-0.04347731808163965,0.06779021765959166,1.584,2.0,0.048924714,-0.018804065,0.978434351,-0.130764274,-0.287277906,0.473959135,0.9970965692634882,-0.016288806591227323,-0.04253110985412141,0.06102631430286653,1.585,3.0,0.040503708,-0.027321912,0.978630657,-0.211667917,-0.05267045,0.372318181,0.9985913072106711,-0.025229596842080856,-0.01729083824618156,0.04335776192578637,1.585,4.0,0.027372452,-0.025192609,0.978899423,0.027395941,-0.008765006,0.599826684,0.9985733326440549,-0.007244980455499646,-0.012839150054319851,0.05132217665130576,1.635,5.0,-0.072189002,0.03759993,0.976528542,-0.10290302,0.025709899,1.235308169,0.9900600826763981,0.023628750550140278,0.05079307464344301,0.12900689286432918,1.635,6.0,-0.000446979,0.016634665,0.979904632,0.094780227,-0.128658616,1.760666278,0.9907863532382646,0.01603378984063434,-0.001753346498993494,0.13447024055984197,1.635,7.0,0.015486597,0.044123674,0.97926823,0.099114923,-0.236199892,0.050669671,0.9992846191359859,0.033799901958623646,-0.016953879119916915,0.0006185213192392697,1.635,8.0,-0.006028752,0.002697424,0.979692492,0.065266269,0.106809617,0.35643429,0.999531550124548,0.002643495991592832,0.006978898268891092,0.02968142876468969
25,1.66,0.0,0.043520803,-0.019069816,0.978968478,-0.145496243,-0.189150968,0.60546803,0.9944774162984664,-0.019028197947815757,-0.03856711439128413,0.09573491443937772,1.661,1.0,0.06164039,-0.011782243,0.977973743,-0.052107524,-0.314033606,0.653449264,0.9932167526974065,-0.012183515265936789,-0.05766062119513661,0.10023620543682982,1.661,2.0,0.067240343,-0.024604961,0.977060557,-0.013377658,-0.331280232,0.70977146,0.9935208498534122,-0.01685779561084172,-0.05765278859956616,0.09647948797744818,1.661,3.0,0.047122313,-0.043427954,0.977292945,-0.194752662,-0.158138631,0.545211862,0.9965849978543068,-0.03464167888523562,-0.025411057957107457,0.07051648225233753,1.661,4.0,0.030454913,-0.026705076,0.979358636,-0.096503953,-0.105887944,0.512628372,0.9967941254982504,-0.012664882196240368,-0.018372256903459505,0.07683444740093408,1.712,5.0,-0.085551884,0.030440794,0.97610411,-0.281785171,0.412234157,-0.111790959,0.9898144915728357,0.005350662147340721,0.0688424925078998,0.12449640120217793,1.711,6.0,0.00885954,0.01453985,0.979883208,-0.066796123,0.069407326,1.125965863,0.9817977405877699,0.01136595963267425,0.00039618999369289644,0.18958864568287703,1.712,7.0,0.026515058,0.044462362,0.978759955,-0.124739138,-0.18145491,-0.614377444,0.9988630293688596,0.026968571759839004,-0.024838877178426592,-0.030469244785754534,1.712,8.0,-0.011785722,0.010484495,0.980160279,0.174052521,0.03153914,0.102959309,0.9992906890010216,0.011581210455955174,0.00867190621910427,0.03476769308949798
26,1.752,0.0,0.052659033,-0.02759552,0.977624935,-0.046698693,-0.137212154,0.570227324,0.9910870548498091,-0.0210228491621295,-0.04393389596570001,0.12399315427680986,1.755,1.0,0.078010383,-0.012435033,0.977200977,0.101429878,-0.275973276,0.581492657,0.9891803964773798,-0.006473660070282933,-0.06885134040776418,0.12938210028517286,1.755,2.0,0.083521222,-0.024350738,0.976128704,0.126676957,-0.280995646,0.56927985,0.9896640791034628,-0.01001115346367719,-0.06923820403884035,0.12518329936576053,1.755,3.0,0.057461272,-0.052758431,0.977073564,-0.035909032,-0.193211507,0.520186429,0.9940856731175339,-0.03541248164576201,-0.034782959341893724,0.09659076760005754,1.755,4.0,0.039331167,-0.034012745,0.97845858,-0.009047994,-0.159355513,0.576511915,0.9939789544683707,-0.013335755931474373,-0.02623154827088327,0.10554573209283673,1.77,5.0,-0.135712108,0.007347695,0.970477323,-0.416194631,0.654109535,-0.702116277,0.9907916292801717,-0.022778830631552602,0.09781867636639013,0.0907996628701284,1.77,6.0,0.032188091,0.012210443,0.979289453,0.05652174,-0.440459492,-0.053365648,0.9820227108619053,0.018098356946385664,-0.022181573165724017,0.18657926637000558,1.77,7.0,0.036319168,0.040746243,0.978495611,0.044060149,-0.079636508,0.02285334,0.9987641637189192,0.02834448957286419,-0.028347614737954864,-0.029379379169247162,1.77,8.0,-0.00729877,0.02515291,0.979320713,0.214110814,-0.114889347,-0.465102102,0.9996792769316193,0.02238936573384368,0.00336855830664506,0.011345148321893844
27,1.794,0.0,0.05475742,-0.038052408,0.977124679,0.103072613,-0.139982671,0.099463875,0.9902962146613946,-0.014748803706094358,-0.04877596529757263,0.12929340751114207,1.794,1.0,0.088888636,-0.003610052,0.976315921,0.181133931,-0.077961887,0.169327416,0.9879590857722175,0.003444422257033408,-0.06919710654042481,0.13833561089565014,1.794,2.0,0.093871522,-0.013062197,0.975465282,0.223144402,-0.091438261,0.119175745,0.988773955218198,0.0021187496593811197,-0.07028774436946376,0.13183781465685254,1.795,3.0,0.071165436,-0.050315707,0.976595008,0.127290567,-0.290509089,0.43831906,0.9913530756780454,-0.027119251101116612,-0.0483432072115227,0.11893931175140478,1.795,4.0,0.054306775,-0.035733494,0.976794191,-0.050122324,-0.352394445,0.41102379,0.9909442394197726,-0.014682822502698947,-0.04397335422416119,0.12601695601147864,1.889,5.0,-0.134223867,0.003019651,0.970707904,0.025506568,-0.366895249,0.05622865,0.992449038354474,-0.017769966965630924,0.07682478235008534,0.09395258038065005,1.889,6.0,0.002709652,-0.005150897,0.980556539,-0.423885395,0.897538837,-0.555768636,0.9870425173492204,-0.012642875195975522,0.01989560886267058,0.15871796180545017,1.889,7.0,0.041168797,0.056011159,0.97781485,0.400679453,0.042845356,0.539608029,0.9984890555355197,0.04759117104334074,-0.027414030663412966,-0.0017768897812590796,1.889,8.0,-0.003639398,0.041813259,0.977891817,0.16450088,-0.125842295,0.023028676,0.999451844560327,0.030579238787206912,-0.0029888167673662834,0.012328322452225544
28,1.854,0.0,0.055723604,-0.047802558,0.97709201,0.178159823,-0.133197471,-0.26050486,0.9917350795744961,-0.004992553979916073,-0.0525489257122723,0.11694108239883666,1.854,1.0,0.089342713,0.005090085,0.975997423,0.214278538,0.057372838,-0.340075899,0.9904408769755909,0.015380627472680541,-0.062157570115450284,0.12217504651814906,1.854,2.0,0.091288065,-0.006221424,0.976193005,0.115115464,0.12394165,-0.550877237,0.9925886639817705,0.009039924503294036,-0.06072665451860958,0.10487276734613328,1.855,3.0,0.08887693,-0.044135872,0.974122639,0.167743176,-0.3775698,0.020298414,0.990367409503584,-0.015601935688981026,-0.06596088095225326,0.1207399518797314,1.855,4.0,0.084764281,-0.04559697,0.975047144,-0.212720647,-0.484564239,0.01207344,0.9892931250390767,-0.022469833748673826,-0.06944600407769556,0.1263782886391703,1.92,5.0,-0.109870919,-0.008794265,0.973421821,-0.321406916,-0.276052907,-1.478950812,0.9974784163517855,-0.03731999242625128,0.05643019037822628,0.02143969896047195,1.92,6.0,-0.038570524,-0.038632689,0.978848727,-0.287516059,-0.315566957,-0.150638847,0.9881098191203292,-0.025485550514426268,0.001466944676135606,0.15161569887806398,1.921,7.0,0.035681041,0.083930503,0.975718471,0.444389156,-0.060511414,0.441874118,0.9969429408247046,0.06863348948636856,-0.031062982247713696,0.020719748902733672,1.921,8.0,0.007789058,0.050422255,0.977366833,0.048640769,-0.260036558,0.659411725,0.998316442711993,0.03257385406531543,-0.01707810848622152,0.04485044540175839
29,1.929,0.0,0.058845983,-0.033135609,0.97745444,0.202752239,0.03950069,-0.32201016,0.9937012609805732,0.004868562435518264,-0.047240438207590565,0.10150094592359625,1.929,1.0,0.084645174,0.023053882,0.976482316,0.26203158,0.053637486,-0.494587955,0.9931800685889831,0.029754782777804804,-0.055058983387848245,0.09836926658121052,1.929,2.0,0.08216806,0.003918343,0.976296091,0.142053079,0.129435272,-0.682207442,0.995999279339413,0.017236538636640545,-0.05098595559749175,0.07133561258591647,1.93,3.0,0.106884076,-0.027713704,0.973887953,0.231138337,-0.118306305,-0.423432951,0.9925114063400551,-0.0012018086976953613,-0.06943715213783343,0.10048953101556411,1.93,4.0,0.104652237,-0.057492673,0.972225541,-0.210721629,-0.082407518,-0.786186856,0.9929948442754566,-0.029654662552572875,-0.07470888739782303,0.08660497892750882,1.997,5.0,-0.079867712,-0.018880408,0.976434677,0.017302355,-0.514046001,-0.006647555,0.9987779248903842,-0.0332328540569027,0.02915937411033232,0.022089931289709916,1.997,6.0,-0.027046788,-0.040904291,0.979056847,0.371069243,-0.306591915,-0.479407305,0.9917037043051147,-0.00450682298459282,-0.010130572839268735,0.12806569762449133,1.998,7.0,0.042137204,0.110884736,0.972434076,0.378017132,-0.054308999,-0.121585514,0.9956285846671711,0.08653674085540737,-0.03177635352859794,0.01501256914040545,1.998,8.0,0.033055765,0.045773628,0.978775302,-0.087768276,-0.30465843,-0.166107588,0.9984391212728406,0.028163482687516245,-0.03211926779942602,0.03597904933230796
30,2.004,0.0,0.068600639,-0.02314335,0.977416665,0.135994532,-0.241112887,-0.264814107,0.9943442033837766,0.012173167241624924,-0.05725074001211603,0.088621509603793,2.004,1.0,0.084195458,0.032701132,0.975628905,-0.125778672,-0.060078427,-0.554580776,0.995620951472638,0.024412540355979093,-0.05657523087925613,0.07030072626257594,2.005,2.0,0.083873822,0.018082968,0.975622462,0.037713341,-0.16655179,-0.572678347,0.9972089651340942,0.02066691632864473,-0.05765178541679571,0.04270164006111767,2.005,3.0,0.109338943,-0.013068336,0.972668604,0.095985405,-0.042587957,-0.156957914,0.9932093766871184,0.0043424041553686635,-0.0697217638287213,0.0930330760297072,2.005,4.0,0.110242709,-0.062325376,0.971045876,-0.267607251,-0.049015401,-0.707877985,0.9948756516815278,-0.039809692681279894,-0.07808343246458777,0.0504044009430275,2.098,5.0,-0.072685918,0.021928137,0.9761439,0.5865893,-0.10830022,1.155479998,0.9965523144238065,0.0022074760524755837,0.025031296424692547,0.07906987963397602,2.098,6.0,-0.006563268,-0.020561933,0.97984036,0.335145496,-0.315797719,0.701438057,0.9863161471596962,0.013060400830066637,-0.022806594675969325,0.16275669885290997,2.099,7.0,0.034939598,0.144641894,0.968606704,0.553734356,0.270505217,-0.28482623,0.9934785115638167,0.11302087704079074,-0.01480115248685894,0.0027666403695165505,2.099,8.0,0.042455847,0.045447078,0.978046044,0.070576491,-0.157093328,-1.166715894,0.9985158694542418,0.03337119319843456,-0.03670432718212141,-0.022476972186223704
31,2.094,0.0,0.074837022,-0.010217323,0.9772574,0.206817762,-0.055160566,-0.115338987,0.9946365393073486,0.021637363104241438,-0.05707893153537838,0.08349835188418861,2.094,1.0,0.086188605,0.027316597,0.975813675,-0.00416962,-0.030959556,0.133641486,0.995141254993235,0.02319692531760105,-0.056920834339211974,0.07691426320538206,2.094,2.0,0.090888217,0.015520896,0.975138674,-0.014504383,-0.060386981,0.073426796,0.9969708403365477,0.018787826346160004,-0.05960337775810763,0.04629901143273985,2.094,3.0,0.106969727,-0.015507466,0.973867545,-0.109716431,0.158321945,-0.191104535,0.9946662140504601,-0.0018966117194171126,-0.06091196392811334,0.08321813588954315,2.095,4.0,0.108684303,-0.046395641,0.972999058,0.523550272,0.102855243,0.368970682,0.9950188162246412,-0.013548267451846212,-0.0692075438513896,0.07045790006823219,2.133,5.0,-0.047486561,0.043571628,0.976886657,0.306985192,-0.352592557,-0.215879651,0.9974457400686246,0.020447150569377095,0.008963156253474235,0.06784962404113033,2.133,6.0,0.005387245,-0.000885071,0.979760784,0.130562623,-0.026915786,-2.892269286,0.9994702698159172,0.0216185993803616,-0.017709299115594972,0.016679227792773053,2.133,7.0,0.012411661,0.172925622,0.964929365,0.341374115,0.393350827,-0.095732932,0.991819974044826,0.12749169914062222,0.006231136326604665,0.0004227008838858046,2.133,8.0,0.043571468,0.057744619,0.977320872,0.116250444,0.058292057,-1.294770121,0.9949518000616959,0.04108270092031359,-0.029824114700991194,-0.08656586753094388
32,2.143,0.0,0.087991584,0.005453439,0.974730599,0.141810463,-0.14981166,-0.18082193,0.9948392261367851,0.02832487842914263,-0.062433071551717394,0.07479790757872092,2.144,1.0,0.090141277,0.031923496,0.975422698,0.092036877,-0.057660468,0.393008467,0.9932347017423077,0.026527389974105173,-0.05871586067717287,0.09661041631713123,2.144,2.0,0.093140306,0.020899262,0.975174397,0.179880478,-0.060420474,0.717290798,0.9943612098313092,0.025132557290055486,-0.06179909628553438,0.08243185455373818,2.144,3.0,0.093620715,-0.022947823,0.975723608,-0.127510906,0.194379077,-0.003119052,0.9952476026353263,-0.00961872181582358,-0.05053573953049624,0.08267907032237008,2.144,4.0,0.097759098,-0.023099624,0.974982854,0.418425808,0.118064221,0.587291594,0.993065368080837,0.005319655394342892,-0.060127190445920686,0.10088407681114672,2.191,5.0,0.019848423,-0.048821848,0.980816735,0.254894897,-1.937026715,-11.6473066,0.8853578219219196,0.025929679782425854,-0.06408892815112177,-0.4597410011696755,2.191,6.0,-0.031456071,-0.023594798,0.965274987,1.326064473,1.105786401,-8.253447757,0.9240150532064038,0.08384028147729479,0.07355715886275424,-0.36572712919581774,2.191,7.0,-0.13572382,0.102660261,0.967871849,2.067910225,-1.942515759,7.806281071,0.9014836516442198,0.20607957138257224,-0.15639859004609077,0.34698403004831946,2.191,8.0,-0.375354714,-0.316515756,1.006493227,-3.595219843,3.850624163,9.877450192,0.8813231683847843,-0.13682520226947115,0.24327539698860662,0.38126817086161174
33,2.214,0.0,0.096168709,0.015287037,0.97539012,0.138670807,-0.081332927,-0.217647778,0.9952629660984772,0.034524980311523,-0.06417878448092787,0.06434856385266703,2.214,1.0,0.084422496,0.0370512,0.975469656,0.120704478,0.21894528,-0.128206301,0.9943372028712307,0.03149218785214151,-0.04527633441598389,0.09083954332973158,2.215,2.0,0.091727501,0.03264676,0.975158066,0.15569782,0.237596067,-0.365233615,0.9962439216873711,0.03256564272677161,-0.04706066482208073,0.06498323815618398,2.215,3.0,0.078657709,-0.023578747,0.976566438,0.048265855,0.302603912,-0.224307462,0.9968205704913984,-0.007800389892254984,-0.03437977943368423,0.07145582501674064,2.215,4.0,0.08147966,-0.017470266,0.976496213,-0.333638228,0.431298083,-0.557945448,0.9965571781903088,-0.012806120217746804,-0.038836485456702374,0.07212157291482894,2.249,5.0,-0.0171729,0.055914085,0.978207906,0.208187595,-0.298188168,0.76022286,0.9014058903843946,0.02632106113794467,-0.07734984527054037,-0.42519598299785577,2.249,6.0,0.010405027,0.017108356,0.980002571,0.188415322,-0.296205759,0.455743903,0.9334362470828188,0.08115605721389244,0.0462381791044362,-0.34637046323632226,2.249,7.0,-0.043225638,0.182152873,0.962039955,0.119329247,0.745308918,0.733647929,0.8980335540745238,0.180922237977148,-0.10766710291301085,0.38627797570135736,2.249,8.0,0.119612563,-0.009746743,0.971605288,-1.276357799,-1.616023518,1.962465888,0.8562445817953207,-0.12232350665518767,0.13377034966855122,0.48372271955665674
34,2.289,0.0,0.09936991,0.026271756,0.975093029,0.124108455,-0.13984252,-0.239126478,0.99542974057885,0.040134120199025194,-0.06881482265423856,0.052663119448429496,2.289,1.0,0.067715872,0.042787062,0.976463941,0.041879695,0.156548138,-0.156403485,0.9953436411413734,0.03255851886829094,-0.03575467398832009,0.08338214543009319,2.289,2.0,0.069125032,0.039124411,0.976938079,-0.028692177,0.227381953,-0.374832524,0.9978807223884529,0.030234456338794374,-0.03391401577038888,0.04658090885462299,2.289,3.0,0.061204457,-0.015507659,0.977680688,0.185119671,0.153169454,-0.128322438,0.9975315694351473,0.0013205188812087153,-0.025802727744673033,0.06529351768032196,2.289,4.0,0.057879782,-0.037304575,0.978122845,-0.044646063,0.144440171,-0.126870323,0.9972353197467984,-0.01571016105731726,-0.031092127694104604,0.0656367845381498,2.313,5.0,-0.010872187,0.059679146,0.977853872,-0.024736905,-0.144108893,-0.101929229,0.8990851236096598,0.022909661395096016,-0.07630513562249139,-0.4304632553380113,2.313,6.0,0.025323543,0.028017842,0.979353725,0.064011275,-0.124061087,0.336189746,0.9399844143750951,0.07559730121037113,0.031685528100477714,-0.3312255667828376,2.313,7.0,-0.06259672,0.175948993,0.962562519,-0.246711237,0.308399947,-0.206658731,0.9096098901785253,0.15437255121087456,-0.0800723698938052,0.3773160196726964,2.314,8.0,0.135086775,-0.057258086,0.967455464,-0.573841007,-0.056065735,0.729160533,0.8389788919204849,-0.12784737926164724,0.10269137875080572,0.5188679478037379
35,2.355,0.0,0.096096478,0.034566704,0.973877102,0.066895162,0.088201855,-0.325935951,0.9965264857469551,0.04236446834263094,-0.06147539047799807,0.03689161683157369,2.355,1.0,0.063389453,0.053770245,0.975178721,0.194159829,0.020859464,-0.234021015,0.9959599916441448,0.04230932221472136,-0.03283236931262632,0.07208087002280854,2.355,2.0,0.058921211,0.040791932,0.977256522,0.083588592,0.111573392,-0.008826329,0.9979798854052987,0.03335772384786878,-0.027653077857543413,0.04646200459645184,2.355,3.0,0.057983112,-0.007946796,0.978356176,0.013453056,0.0234611,-0.08217671,0.9978101876327868,0.0016778141021027927,-0.024980591615895713,0.061220784367577094,2.355,4.0,0.059914152,-0.021277823,0.978055494,0.250846753,-0.034949382,0.162244639,0.9967338330291666,-0.0026572624573178174,-0.03199823272167482,0.07409938025319758,2.339,5.0,0.003443854,0.049835617,0.978248716,-0.162292448,-0.324727465,-1.002687565,0.8760885682842589,0.012614407844584983,-0.080136022110862,-0.4752766722621838,2.339,6.0,0.029523894,0.029021896,0.97876303,0.031035774,-0.01312332,-0.338781027,0.9348362175705447,0.06969793782155825,0.0267203617677344,-0.3471447335749468,2.339,7.0,-0.07045384,0.160191179,0.964551731,-0.202515729,-0.14661366,-0.551527863,0.9234946495810405,0.14109948749660897,-0.07248772602852947,0.3492765328483982,2.339,8.0,0.083543045,-0.099797812,0.970713633,-0.678988988,0.935784974,-0.649583395,0.8492063692752483,-0.1740158187970886,0.10276385992582303,0.4878592279376045
36,2.445,0.0,0.091812508,0.04275484,0.974653009,-0.012202765,0.134920216,-0.303274809,0.9975475440410615,0.040555018360553356,-0.05260288025124487,0.02207090511725634,2.446,1.0,0.05914163,0.062086791,0.976517024,0.038655301,0.075165706,-0.370748545,0.9972109151655113,0.04371481032427961,-0.02762784472062864,0.053815501755240705,2.446,2.0,0.054014805,0.043776914,0.977125879,-0.107665941,0.094794636,-0.620003985,0.9992520171973508,0.027623578515788918,-0.0221819051916669,0.015501842441304672,2.446,3.0,0.055407217,-0.011451022,0.978648003,-0.071428319,0.023154185,-0.37397993,0.9987971459751369,-0.0020714522469866487,-0.024437010326705668,0.04245942538238213,2.446,4.0,0.059288446,-0.012026963,0.977882014,-0.063552168,0.011188148,-0.672206944,0.9986692373692589,-0.004918006780353385,-0.031686217085266276,0.04039246450065514,2.414,5.0,0.020509131,0.046027417,0.978772115,-0.0555903,-0.265085575,-0.545395428,0.862273503658855,0.006440636988023433,-0.08417912141017375,-0.4993563843605912,2.413,6.0,0.032099706,0.033302739,0.978961969,0.055151597,-0.108394672,-0.245914768,0.9309882633711969,0.06415779317888815,0.016754696553001693,-0.35897619863009694,2.414,7.0,-0.065524876,0.139888554,0.967468699,-0.136696272,-0.043523448,0.676093024,0.9144794072941642,0.12487157081860947,-0.06861069486313058,0.37871767451045313,2.414,8.0,0.056685756,-0.105382833,0.972582739,-0.062309527,-0.191295931,-0.129952189,0.8566474928779046,-0.15919228284547385,0.07701212736952813,0.48464628572441
37,2.484,0.0,0.085904867,0.040116917,0.975028711,-0.12558643,0.103834678,-0.255739636,0.9983458094552867,0.032932178081189374,-0.046211342826637566,0.00925354980838114,2.485,1.0,0.053006757,0.061485775,0.976471087,-0.100311496,0.060394843,-0.376143821,0.998377418531282,0.03796526993747333,-0.02393348197646388,0.03504792270406645,2.485,2.0,0.049336956,0.040151224,0.978111826,-0.033561806,-0.010746688,-0.42392439,0.999399837812448,0.025744840958733486,-0.022461499694970383,-0.005713875734966507,2.485,3.0,0.059066041,-0.008774279,0.977978637,0.072618133,-0.0913785,-0.599215949,0.9994869502239564,0.0023718685552109207,-0.02935575150592937,0.01258770928697848,2.485,4.0,0.063387511,-0.018351923,0.977443211,-0.176901174,-0.048523115,-0.735133703,0.9992989554850041,-0.012805202371729073,-0.03501884116749598,0.0033623090405510295,2.527,5.0,0.023984277,0.049751497,0.978538473,0.0738321,-0.030172322,0.003197792,0.8625766820833324,0.009793837576193634,-0.08126568188825355,-0.49926089093667037,2.526,6.0,0.038462488,0.037716451,0.977535732,0.056339127,-0.085141693,-0.129987122,0.9289460102238855,0.059848173783020764,0.008003630838064853,-0.36525805682745727,2.527,7.0,-0.067247486,0.145065573,0.966987981,0.094818158,0.007578857,0.475968959,0.9067022800754042,0.12070811477197367,-0.05683827342035814,0.4001124054673286,2.527,8.0,0.064470788,-0.081421282,0.973069932,0.172191969,-0.291545811,0.728873887,0.8441518425265521,-0.1286956532496975,0.06154512446004253,0.5167758636477314
38,2.574,0.0,0.07910657,0.035748196,0.975863831,-0.164037549,0.079089341,-0.162137184,0.9988563988729263,0.023646747015303695,-0.04154289374484219,0.0009559108266174929,2.574,1.0,0.052930788,0.055542943,0.977293872,-0.142039772,-0.044400876,-0.38514824,0.9990738009141287,0.03053197417428327,-0.02601329360551767,0.015577144661656217,2.575,2.0,0.05339286,0.038084536,0.97758415,-0.098828949,-0.096694136,-0.366700929,0.9991202002515223,0.02054227819248422,-0.027372901739092594,-0.024239729916036155,2.575,3.0,0.064424511,-0.000700732,0.978302096,0.103834415,-0.081917476,-0.54797901,0.9992978142879306,0.008183310168667333,-0.033499697386337,-0.014652032933073884,2.575,4.0,0.06469134,-0.022260532,0.977594241,0.009585275,-0.047757453,-0.649594981,0.9988120949050473,-0.011019912233410867,-0.037546336209232686,-0.0290384786623181,2.55,5.0,0.031773231,0.049188513,0.97841502,-0.084559285,-0.109946815,0.442491974,0.8734484204948061,0.001910717620289961,-0.07849303622527704,-0.4805445340001707,2.55,6.0,0.046144466,0.038898425,0.978303941,-0.112978234,-0.113497773,0.04051127,0.9303718331246648,0.04755470742249396,0.000979058802724381,-0.363518697420192,2.55,7.0,-0.060129216,0.146875957,0.967217623,0.057221938,-0.181802942,-1.029816304,0.9271897665434872,0.12355568514112016,-0.046106872003480806,0.35060987698636886,2.55,8.0,0.06727006,-0.081168656,0.973386556,-0.089607948,0.253313361,-1.525509846,0.882977578294268,-0.13274993136903035,0.04857317064628192,0.4476256237577051
39,2.619,0.0,0.077124769,0.03678238,0.97591794,-0.077601698,0.072232058,-0.068268522,0.9990988004400867,0.01942667852420099,-0.03765459123761408,-0.0025145336397121793,2.619,1.0,0.054920441,0.045289448,0.976341442,-0.199012552,-0.074397226,-0.282940711,0.9993499690883294,0.020314141764992924,-0.029762263805439976,0.001087465255633956,2.619,2.0,0.060263156,0.030567009,0.976450209,-0.144567071,-0.116195224,-0.263495695,0.9986535564612464,0.012974642890046333,-0.033204092152591264,-0.0376858205894727,2.62,3.0,0.067731507,0.003944643,0.9776062,0.009394497,-0.01730868,-0.264267444,0.9989865583346383,0.008415158078633704,-0.034367567054157354,-0.02781926878988014,2.62,4.0,0.066944775,-0.013559641,0.978059576,0.063977333,0.03933108,-0.44737377,0.9980337173781338,-0.0066172170270194395,-0.03545506210519237,-0.05126255930323476,2.624,5.0,0.044714656,0.036327321,0.978745588,-0.202742409,-0.154996155,-0.299584598,0.8658872016869525,-0.009067607736442797,-0.07555354749922838,-0.49441763106199876,2.624,6.0,0.050657956,0.032699555,0.977854033,-0.08949537,-0.03758275,0.024221614,0.9312331841536265,0.03857646026592461,-0.0023017765511687983,-0.3623690318848424,2.624,7.0,-0.052012701,0.148630375,0.967427874,0.036898182,-0.327012202,-0.360910095,0.933830171333802,0.1257956682130426,-0.04873590608627474,0.331302690033549,2.625,8.0,0.083628219,-0.101167872,0.971053749,-0.134653303,-0.169544825,0.161545492,0.8808620748610263,-0.12422349555623147,0.028332345909769165,0.4559032862335694
40,2.682,0.0,0.075788783,0.034186181,0.976607068,-0.075974697,-0.014134356,-0.015907363,0.9991351779263976,0.015452717532378356,-0.03844692201325895,-0.003456000369884162,2.682,1.0,0.057779398,0.035986382,0.977472517,-0.167338701,-0.066269358,-0.048640863,0.9993830795370194,0.011836818428685635,-0.03302443001674494,-0.0016544142948080702,2.682,2.0,0.0669574,0.022179918,0.977368793,-0.121906664,-0.104851062,-0.04841459,0.998428816805876,0.006476954430535486,-0.038330065130936175,-0.040357811387406045,2.682,3.0,0.068286693,0.006070108,0.977188867,0.009035511,-0.043908339,-0.088649891,0.9987757152039676,0.008329768636298278,-0.03659365471744733,-0.03222716412731814,2.682,4.0,0.069995748,-0.002345381,0.97709421,0.084048682,-0.053907137,-0.034795116,0.9978626729002025,-0.002141965383040888,-0.03838173593764478,-0.052842599890374986,2.685,5.0,0.03623883,0.034558567,0.97856704,0.003200438,0.244647241,-0.546168255,0.8534047149826826,0.0007110159427219496,-0.06016192259736052,-0.5177648404160377,2.685,6.0,0.048831391,0.02791725,0.978744667,-0.000514955,0.089605895,-0.276533123,0.9263262190816194,0.03679241109517389,-0.0002206546688864944,-0.37492133260095056,2.686,7.0,-0.041496984,0.139132408,0.968913914,-0.251893615,-0.054249452,0.519183189,0.9278408917122021,0.10730147710946725,-0.04917300096004827,0.35380741746522915,2.686,8.0,0.074426667,-0.088829413,0.973077082,0.358390386,0.302079965,0.421502457,0.8744697183377552,-0.10493662721985292,0.04382853236033313,0.4715613170406875
41,2.756,0.0,0.075381218,0.027580308,0.977050152,-0.141001493,-0.006190798,0.092340005,0.9992148908479992,0.008078537170472298,-0.03877565483310108,0.0008875455316199251,2.761,1.0,0.064023863,0.027154259,0.977456184,-0.103979429,-0.10027777,-0.018180949,0.999250732160255,0.006860219981331924,-0.03798773213894663,-0.002800690261633114,2.761,2.0,0.073898556,0.013139816,0.977057495,-0.165696989,-0.070544377,-0.010000607,0.9982879037100447,-0.0020466677841687654,-0.04148059456694551,-0.04118777405442352,2.762,3.0,0.068462608,0.005085792,0.977202132,-0.055535195,0.047337609,-0.184923242,0.9985474768339574,0.005286109821001054,-0.03393360807269151,-0.04151510321156237,2.762,4.0,0.067369753,-0.005006401,0.97724626,-0.14769934,0.092085458,-0.320573443,0.997020831346651,-0.00886876456442508,-0.03312110592404828,-0.06909268570768949,2.744,5.0,0.036322909,0.070032771,0.976003103,-0.414188057,0.577314898,5.616367338,0.9726341232476712,-0.019326780558073322,-0.011600986659193,-0.23124609176379005,2.744,6.0,0.081960535,0.043717559,0.988933388,-1.102501487,-0.380541374,1.697404511,0.956289897558725,-0.02639593727174442,-0.0003635458283407408,-0.2912262937255151,2.745,7.0,0.0293751,0.133469959,0.972243217,-1.24111309,0.051658625,-9.415468646,0.9868671461108913,0.05113139312205757,-0.030782025986732783,-0.15010424191372548,2.745,8.0,0.10844659,0.025064805,0.979381995,-0.056825802,3.530539518,-17.84708339,0.8647617136662434,-0.14332385418957333,0.043630677118193545,-0.47931390070753843
42,2.859,0.0,0.075052475,0.017292204,0.976833714,-0.152004049,-0.010433844,0.093014617,0.9992153183068829,0.0003826074960399023,-0.03925843031874862,0.005232295986162171,2.86,1.0,0.070306312,0.021293553,0.977028458,-0.11628038,-0.076148248,-0.062673176,0.999115407594239,0.0015502181524933993,-0.041564656233592484,-0.006195037018510132,2.86,2.0,0.077348491,0.003337804,0.975636751,-0.133931861,-0.074593221,-0.113157032,0.997849708961063,-0.008435970584800648,-0.04478280545579738,-0.04710937339980869,2.86,3.0,0.066414456,-0.001371382,0.977533754,-0.134337899,-0.000899,0.070144478,0.9986992241409555,-0.002281769386446525,-0.03368228176200405,-0.03821200235561591,2.86,4.0,0.065200223,-0.011840909,0.978009572,-0.074164172,0.006533282,0.068581619,0.9972251334252452,-0.01260366171574609,-0.03246125302737585,-0.06579854123192604,2.804,5.0,0.021385959,0.035019099,0.978991473,-0.03798957,0.117523166,-0.344204289,0.9685893022005551,-0.016203907164548094,-0.006065318827826309,-0.24806331643909266,2.804,6.0,0.043030765,0.027931135,0.978150911,-0.063050147,0.023168601,-0.147172588,0.9541061601467985,-0.025714749499298074,-0.0010057981019059097,-0.2983608137780469,2.804,7.0,-0.03130292,0.12361504,0.97121442,-0.192487306,-0.119139871,-0.006581159,0.9870948780644715,0.04212871315325463,-0.031515730233784026,-0.15124692385224933,2.804,8.0,0.065525392,-0.079462353,0.974816474,0.021066032,-0.056041986,0.747052572,0.8837786074682885,-0.13282841333480486,0.04035266889956505,-0.44683738396093603
43,2.892,0.0,0.076018659,0.007542054,0.976801045,-0.145685259,-0.05387006,0.122456621,0.9990379291291611,-0.006754321289396204,-0.041899065629301666,0.011048239888248275,2.894,1.0,0.070566973,0.01026765,0.977629724,-0.166951492,-0.061035934,0.047741294,0.9990015380958116,-0.006561071382226416,-0.04399360119510206,-0.004176395384326237,2.894,2.0,0.082643527,-0.003345341,0.976182799,-0.120416658,-0.088594434,0.038616702,0.9976815892396116,-0.014264857273010878,-0.04862084238553167,-0.04543098089437275,2.894,3.0,0.066152891,-0.012593304,0.977540896,-0.199111578,0.006204332,0.232602495,0.9990127402606377,-0.013150110759788305,-0.032817205693363403,-0.02690075081510123,2.895,4.0,0.0645221,-0.01718316,0.978032023,-0.099256445,0.020079233,0.271746791,0.9979904284316564,-0.017761693047315244,-0.0308699645465749,-0.05240870450397657,2.893,5.0,0.016461611,0.030980078,0.978330338,-0.071477707,0.115304262,-0.153815093,0.9666541797966484,-0.015244588682735295,-0.0003241145066799361,-0.25563097259007933,2.893,6.0,0.041977713,0.02038852,0.978157032,-0.075404355,-0.003711285,-0.066791059,0.9530584191116234,-0.026443211596680644,-0.0023999815151979,-0.3016200364856969,2.893,7.0,-0.025054059,0.109275849,0.973297531,-0.301552441,-0.181792707,0.302039493,0.9895437519365051,0.026857482004368823,-0.03507122542974421,-0.13730203134209398,2.894,8.0,0.044152668,-0.05229794,0.977866283,0.560505837,0.312559269,0.410021632,0.8967421531674261,-0.08993105583627453,0.038918218422162955,-0.4315684050109162
44,2.949,0.0,0.077834441,-0.002535541,0.977181851,-0.162750268,-0.048075502,0.196301113,0.998712069255616,-0.014676697504338851,-0.0440273799857969,0.02050334326683877,2.949,1.0,0.071429288,0.00148016,0.97743883,-0.154131516,-0.109340115,0.134039157,0.998720993564595,-0.013859902459477966,-0.04857453471156506,0.0021896791355932,2.949,2.0,0.087476693,-0.012808354,0.976485931,-0.152805374,-0.111198524,0.153386942,0.9976150755336843,-0.02194228372671679,-0.05321835926918768,-0.03808547609618691,2.95,3.0,0.066243154,-0.025783858,0.977574569,-0.180278241,-0.010252354,0.4063681,0.9991793882168163,-0.022925504380358664,-0.03267631629367948,-0.00687239150879729,2.95,4.0,0.062878628,-0.028771546,0.977027879,-0.145039213,-0.011357394,0.418512963,0.9987034550680789,-0.025535537740206025,-0.03055877696216644,-0.031709719298299216,2.939,5.0,0.008822699,0.024491805,0.979575067,-0.073148776,0.077345921,0.121678508,0.9681680722902773,-0.015178541916347547,0.003725098856209541,-0.24981256834181395,2.939,6.0,0.03599779,0.018173589,0.97757858,0.021539993,0.020481002,-0.311659378,0.9483412081015183,-0.022118364598709528,-0.003887412767210289,-0.3164563460984921,2.939,7.0,-0.003879307,0.093142855,0.975384724,-0.221162655,-0.287574951,0.128435121,0.9901316724219296,0.015761482401981997,-0.044850777311597124,-0.13183040132681906,2.94,8.0,0.035738277,-0.039442571,0.978834541,0.10795468,0.143328312,0.136205106,0.9004289773836782,-0.07533872508754554,0.03892109893699006,-0.42665780345319315
45,3.024,0.0,0.080215433,-0.013371723,0.975800534,-0.191398222,-0.097781157,0.40026493,0.997735208168666,-0.024135928540723037,-0.04831894929667016,0.04008978015618774,3.024,1.0,0.075790197,-0.011400566,0.977175457,-0.197470818,-0.175181127,0.339641704,0.9979763418473288,-0.02370548643808485,-0.055939461459784345,0.01876293360183297,3.024,2.0,0.09584901,-0.027638293,0.973844491,-0.222116509,-0.177944759,0.222734937,0.9972161555711044,-0.033352003322009965,-0.060811940952682914,-0.027376829253275562,3.025,3.0,0.065395638,-0.041180657,0.977105196,-0.179477335,0.0082347,0.451820527,0.9988576939081756,-0.03245069423985155,-0.031517309264756446,0.015392172702468789,3.025,4.0,0.061691622,-0.04453342,0.976634997,-0.364111941,0.026748668,0.233535426,0.9984289178377583,-0.04384145553751873,-0.02814912147786304,-0.020621584849349023,3.019,5.0,0.000498663,0.012380169,0.979438351,-0.231892353,0.14845498,0.096668845,0.9691333873557665,-0.022417331029830383,0.013368274575274517,-0.24515144302393374,3.019,6.0,0.041126685,0.020904998,0.978062154,0.034678614,-0.239624254,0.132096578,0.9503630751415557,-0.021722991892396015,-0.017622011720812118,-0.3098832066015195,3.019,7.0,0.009226704,0.076209757,0.976966704,-0.2432329,-0.294310977,-0.034210093,0.9894259393285725,0.004079232619202129,-0.05431002896256116,-0.1344250393308342,3.02,8.0,0.032553555,-0.035353738,0.978461741,0.029886494,-0.019787839,-0.090786113,0.8990659575126171,-0.06944129974706134,0.0324848142797325,-0.4310487753985284
46,3.114,0.0,0.084091839,-0.028165732,0.97546771,-0.133009688,-0.14746114,0.691761299,0.9952709173769997,-0.030971939032284894,-0.05434359166692363,0.07431900201741484,3.07,1.0,-0.083625252,-0.074283352,0.972541928,1.071746684,3.907714852,4.731619652,0.9601498354587902,0.011238736129301296,0.14184562975376766,0.24055311596076,3.07,2.0,0.014199837,-0.032234488,0.934687275,6.796655793,3.598146057,8.714260221,0.8770968670396816,0.25276748617165284,-0.007280053166223077,0.40835852457067107,3.07,3.0,-0.405460489,0.02933197,0.994979109,-0.596713506,2.245457499,10.62047225,0.8707217011065616,-0.06706525090504344,0.1243529952273575,0.47104384500927704,3.07,4.0,-0.469840026,-0.431543125,0.97900045,-16.04467206,7.950004366,7.269731417,0.6200799786458685,-0.535319695274673,0.4493357055347085,0.35641417994405933,3.053,5.0,0.000152663,-0.011988695,0.979635263,-0.527831234,-0.126693123,-0.291344736,0.9647481727188348,-0.0479796559057738,0.011830037356261805,-0.258493648028307,3.052,6.0,0.062158965,0.024597674,0.978147851,0.173390964,-0.35374558,0.76108453,0.9612557544165142,-0.01711035653672705,-0.038293344407536054,-0.2724485824415496,3.053,7.0,0.02982041,0.068060757,0.977668899,-0.045151667,-0.265055612,0.177730132,0.989984176845004,0.0024043545075766413,-0.0637009559501318,-0.12596720560114474,3.053,8.0,0.045381958,-0.049431505,0.977344363,-0.339631205,-0.266479528,0.066665935,0.8999211437994684,-0.0866970414876015,0.023861116517580765,-0.4266804484136674
47,3.176,0.0,0.094929265,-0.037346327,0.97495112,-0.038103792,-0.16052245,0.708016303,0.9915928912927997,-0.03262177021564346,-0.06079844957578549,0.10946646324223727,3.115,1.0,0.086547509,-0.021227751,0.975250179,-0.026457275,-0.173113122,0.680494236,0.9549488185347529,0.015834365363625966,0.11453693804457168,0.2733190748483993,3.115,2.0,0.104969016,-0.03777806,0.973741405,-0.049452646,-0.199552473,0.564186916,0.8704804593461656,0.23140426339841977,-0.02827942447034249,0.4334929191222727,3.115,3.0,0.066362151,-0.05626379,0.975854216,-0.10506817,-0.108470272,0.909952175,0.8513822749447993,-0.05766022143835785,0.10382264222368993,0.5109250235946454,3.116,4.0,0.05677695,-0.085661942,0.974334855,-0.417829053,-0.156887777,0.944020882,0.6269751962538704,-0.49896770053243633,0.43433642388941,0.4114428368446245,3.105,5.0,-0.081544163,-0.004503932,0.975207293,1.377780085,3.07231739,1.415905975,0.9701911260080933,0.0651468331362298,0.14143336486811314,-0.18569241354872712,3.105,6.0,0.116984226,0.015215471,0.972840779,-0.543797873,-1.057250405,0.651119875,0.9656566231082441,-0.0581202938353022,-0.08212840811528242,-0.23955008301424222,3.105,7.0,0.062595173,0.04531053,0.977176954,-0.945077083,-1.22804272,-3.47949923,0.9481829658864687,-0.03756335516750114,-0.11876522116880192,-0.2922890346763378,3.105,8.0,0.064953022,-0.058767525,0.975998198,0.07459507,-0.435121297,-0.367445392,0.8929793071301174,-0.08859015819373697,-0.0028563886750730765,-0.4412840150655367
48,3.249,0.0,0.10002507,-0.040121434,0.974375316,0.035561511,-0.087081621,0.62831894,0.9875771762762742,-0.03050954812184428,-0.06314139237664983,0.14061882142984825,3.176,1.0,0.095428252,-0.025365621,0.975352261,-0.010787336,-0.150253782,0.743108974,0.9466779684603271,0.0202186864968599,0.09044593398280179,0.30856370780464115,3.177,2.0,0.114178237,-0.043482742,0.97211449,0.023310586,-0.18498772,0.770729383,0.856496311290112,0.21420205452229976,-0.0473434972839808,0.46721530566729,3.177,3.0,0.079042884,-0.068233549,0.974893022,-0.292619113,-0.414249369,1.258998745,0.8213818051237078,-0.04771564217960199,0.06741989630867234,0.5643666408327437,3.177,4.0,0.075952703,-0.107014769,0.971277523,-0.317743288,-0.490486865,1.315525475,0.6315377847755067,-0.4449065422208535,0.4132836497014495,0.4820942023913783,3.179,5.0,-0.200597717,0.007317285,0.959348223,0.035784731,1.676722135,-1.743960683,0.9373600145047254,0.06561622316631464,0.22066388636872086,-0.2614539418669028,3.179,6.0,0.158633214,0.057122661,0.964405778,-0.241883715,-0.505127848,-0.856018044,0.9517885183704898,-0.06557078393511266,-0.10642105852628835,-0.28013148144110234,3.179,7.0,0.118104988,0.000443492,0.973226086,-0.421654974,-0.693437981,0.879280281,0.9557519175827506,-0.07101958848590165,-0.1363707689648319,-0.2507937468521275,3.18,8.0,0.106139786,-0.05930419,0.972342717,0.104356564,-0.256449489,-0.828246731,0.8747586022750229,-0.08588411178915961,-0.023121361911208848,-0.4763262639319882
49,3.294,0.0,0.104553883,-0.042948388,0.972504972,0.059418256,-0.266356516,0.474049018,0.983246411205978,-0.02558431861470281,-0.0744814185157837,0.16439116699951653,3.249,1.0,0.093544697,-0.029414224,0.975105222,0.130302938,-0.091210756,0.915316293,0.9331715560962418,0.029976408612303024,0.07309111726379057,0.35064219711375005,3.249,2.0,0.118003206,-0.046939364,0.971465357,0.049503626,0.012830098,0.693093746,0.84247738973801,0.19485053632065427,-0.05420694171683636,0.49932626983315226,3.249,3.0,0.105422425,-0.094070372,0.969454423,-0.226966275,-0.625471398,1.661556985,0.7762195477130464,-0.0293026399355266,0.026027127994877202,0.6292433214975751,3.249,4.0,0.104836329,-0.129047022,0.966147613,-0.192846232,-0.691008345,1.58404107,0.6289698244849434,-0.37693983619343524,0.38638750191354143,0.5594801320358559,3.311,5.0,-0.271999931,-0.003182331,0.941224155,0.061768208,0.473611277,-1.61615049,0.9105480530081501,0.05377441028690973,0.23706994812421622,-0.33437762433772916,3.311,6.0,0.078275245,0.010281906,0.976997067,-0.843923486,3.474653647,-1.004025547,0.9403297713137224,-0.04526999692609039,0.07441528787069465,-0.3289269120800484,3.311,7.0,0.147840509,-0.021404284,0.968381144,-0.359360014,-0.437795829,-0.701859033,0.9431059281184381,-0.08456436714023038,-0.1489352564884284,-0.28498836034609837,3.311,8.0,0.144872308,-0.061926096,0.966782381,-0.17215992,-0.56522201,-0.893356968,0.8514317214444934,-0.10340850562238293,-0.050336894549952514,-0.511700011461871
50,3.369,0.0,0.12009122,-0.037303373,0.971653517,0.179638475,-0.169655242,0.406600328,0.9793578888275185,-0.015224680921950317,-0.07990765436835125,0.1850435123301509,3.294,1.0,0.092829958,-0.027088457,0.974822453,0.110223467,-0.01338973,0.899419633,0.9174085326076328,0.03605826576016879,0.06080956780883301,0.39161662660308716,3.294,2.0,0.113787226,-0.047785186,0.972694219,0.083160933,0.020597095,0.67529181,0.8269813872227991,0.17823256278150587,-0.058267957615606734,0.5300375306208962,3.294,3.0,0.145268685,-0.120578979,0.961736304,-0.168493305,-0.88575467,1.544988248,0.728582455709888,-0.0025594530372920585,-0.022966227885956304,0.6845681900355797,3.294,4.0,0.155626537,-0.140584862,0.95741646,-0.118657839,-0.988927261,0.902209463,0.6422070964831723,-0.31211653821363844,0.33195833287270043,0.61640650307777,3.326,5.0,-0.290850801,-0.042161873,0.934065944,0.258482,-0.056313606,-0.763385394,0.8992294439546796,0.05316521216171237,0.22347653579926532,-0.37231452468029974,3.326,6.0,-0.136497577,-0.011975534,0.969431276,0.828660878,3.560144548,-3.308212906,0.8565696281448073,0.042130067742213555,0.21817874285234257,-0.4657376575919908,3.326,7.0,0.18567029,-0.041130366,0.961540866,-0.321419382,-0.69917558,0.322517595,0.941925098191563,-0.1083744913081331,-0.16914472718544923,-0.2691136196774104,3.327,8.0,0.182034846,-0.061934194,0.960383502,0.072587207,-0.47207056,-0.313598321,0.8424794839969293,-0.10886110273478541,-0.0750965232168734,-0.5222433260046238
51,3.429,0.0,0.115845012,-0.034855712,0.972642798,0.31119971,-0.288290049,0.277015561,0.9757416572828621,0.002386561312793832,-0.08926665894771627,0.19988493231933746,3.369,1.0,0.09347309,-0.017009669,0.974756099,0.313683199,-0.064308243,0.708250633,0.9033242843380712,0.0512290597183951,0.05160988576636906,0.42274961910883224,3.369,2.0,0.110671039,-0.042201706,0.972356384,0.17076513,0.04283188,0.477006701,0.8147182552134329,0.16674597046180492,-0.05621939252160299,0.5525118332318616,3.369,3.0,0.187860109,-0.138509673,0.95103767,0.07010965,-0.86109693,1.447241745,0.6779782309291179,0.029565065933647713,-0.0610701482731538,0.7319438928309039,3.369,4.0,0.209400988,-0.157948326,0.944308505,-0.071320714,-0.985297774,1.057818591,0.6422471986491874,-0.24395997321379337,0.27717623235232425,0.6716959159588264,3.39,5.0,-0.290280174,-0.027546989,0.935820808,0.003936118,0.219062854,-1.375541815,0.8717619461693366,0.041021321090707295,0.22783265086322294,-0.43178772982527014,3.389,6.0,-0.228682405,-0.111949529,0.946427842,-0.517590654,0.386130087,2.283653151,0.9042885404567076,0.04881578940351045,0.23208121125546607,-0.3549895289804832,3.39,7.0,0.238050305,-0.066907025,0.9476521,-0.475859409,-0.891473767,-0.439443837,0.9264283044439305,-0.13450829188955285,-0.20092818267255486,-0.2885584542965315,3.39,8.0,0.22972966,-0.063584548,0.95061206,-0.271872215,-0.938293526,-0.485860247,0.8242894799103968,-0.14083396707522067,-0.1108546689534853,-0.5370511050152641
52,3.474,0.0,0.119287759,-0.026308531,0.97233754,0.38592118,-0.318239386,0.270295281,0.9714560028698683,0.022772930563438074,-0.09847866527139375,0.21460796958178374,3.429,1.0,0.102172635,0.000690155,0.97457133,0.313442067,-0.201298529,0.298720493,0.8969919282887874,0.06752456712016232,0.03843765020354543,0.4351648658460692,3.429,2.0,0.115868022,-0.027275171,0.972792201,0.292448246,-0.211723467,0.27756014,0.8054945396355138,0.16956398406760445,-0.05920002647485813,0.5647317582621586,3.43,3.0,0.226763976,-0.141827732,0.942762427,0.316818162,-0.696920742,1.14785193,0.6331419518409657,0.06250582358434675,-0.08209363745940429,0.7671277113530306,3.43,4.0,0.248843875,-0.172363663,0.932584309,0.054496272,-0.853873145,0.969193829,0.635288082685895,-0.17944395136810412,0.22703436878875785,0.7160058070318783,3.464,5.0,-0.309854449,-0.012871857,0.929948136,-0.13805864,0.025460046,0.500011102,0.884337584000037,0.043505245087391314,0.22274805496303032,-0.4079676888983374,3.464,6.0,-0.265407366,-0.096487484,0.938415204,-0.133069043,0.826977362,-2.144829713,0.8558950471724868,0.028451446229469785,0.26403709330279973,-0.44375510903342463,3.464,7.0,0.283549378,-0.07300368,0.935296324,-0.106053937,-0.404759432,-0.358091303,0.9184058784297231,-0.1362178696496133,-0.21332359352312152,-0.304086137303613,3.464,8.0,0.305325846,-0.080665549,0.92755873,-0.315029853,-1.298083904,-0.086237386,0.8120469539478169,-0.1859401492737658,-0.15569857948744242,-0.5308144287957085
53,3.519,0.0,0.130864789,-0.01079643,0.970508034,0.427515741,-0.23239826,0.285311003,0.9667582542612106,0.04315625567566464,-0.10254439747317401,0.23021872634678714,3.519,1.0,0.119110659,0.017651749,0.972245888,0.259776063,-0.292257218,0.179401555,0.8929108854451793,0.08262777137830446,0.02145032421806082,0.4420663814875554,3.519,2.0,0.132917325,-0.008372508,0.971057097,0.375834185,-0.3805448,0.19150682,0.7971442722426829,0.18171557519640544,-0.06549382230412282,0.5720585793445624,3.519,3.0,0.248248679,-0.138054293,0.937846259,0.261183536,-0.461592,0.769733743,0.6004961743156431,0.08422557538459197,-0.094536765693298,0.7895398641079892,3.52,4.0,0.28002047,-0.182358828,0.92122136,0.223148392,-0.521252878,0.762367513,0.6251213790424767,-0.12686580433498873,0.1909149460813742,0.7461097858339714,3.585,5.0,-0.296761348,0.020204933,0.932863046,0.057715057,-0.595632226,1.224294857,0.9164266106015604,0.05064089753235915,0.18201273648586277,-0.3528018291270344,3.585,6.0,-0.270244864,-0.05974956,0.939376231,0.383524112,-0.873199116,2.475936253,0.9202379149398238,0.0603938705313269,0.19355034445213679,-0.334743221696736,3.585,7.0,0.296921497,-0.065435933,0.931434251,0.263370449,-0.13088097,-0.01511431,0.9207885863006101,-0.12042121335319236,-0.21569722861454432,-0.3018639035742335,3.585,8.0,0.41233799,-0.122907792,0.880548157,-0.728255026,-1.984037052,0.304282496,0.796768393363248,-0.26815675971717823,-0.21008675189389234,-0.4991148527483489
54,3.586,0.0,0.139248993,0.010138824,0.969859744,0.433599314,-0.191648123,0.313102115,0.9613345158177935,0.062440961386036435,-0.10429908006780486,0.2471007424828298,3.586,1.0,0.141465323,0.032671166,0.968546415,0.341151172,-0.454306351,0.11357089,0.8893802073070558,0.10448461834660697,0.00035295621595163843,0.4450681821938433,3.586,2.0,0.162845503,0.014457554,0.965756865,0.418652932,-0.498180389,0.101210279,0.7901782169275182,0.19982563953418905,-0.07409816299365873,0.5746281941559824,3.587,3.0,0.246757744,-0.123047213,0.940408421,0.321974632,-0.0787293,0.085075822,0.5949663610399201,0.09446353366782519,-0.08784855376133979,0.7933311424871358,3.587,4.0,0.291846617,-0.165145118,0.920310079,0.507043124,-0.152391773,0.346020852,0.622985938398721,-0.08588055917143024,0.17557876491744218,0.7574200600881477,3.614,5.0,-0.239326555,0.059979503,0.94877619,0.28548032,-0.828995545,1.723816443,0.9515671452736401,0.06742196685152844,0.12312613157332038,-0.2735218494845266,3.614,6.0,-0.207129811,0.014713897,0.95777959,0.557733292,-0.881977165,0.957531522,0.9429894142400778,0.07943455068493648,0.1287225212620048,-0.2964652244506763,3.614,7.0,0.253786801,-0.035758675,0.945879261,1.40638869,1.588766459,2.901775877,0.9776444680450467,-0.05084631156167249,-0.13804790373886816,-0.1502289019290065,3.615,8.0,0.604926117,-0.295262367,0.711371581,-2.694949006,-5.015982087,2.129781739,0.7488905301795877,-0.51419455950369,-0.2719985620537115,-0.31746450356670686
55,3.654,0.0,0.152528515,0.032794753,0.967770921,0.395092537,-0.310573947,0.369380155,0.9540418990264299,0.08052544049669061,-0.11243514210572807,0.26585343171477355,3.654,1.0,0.167432534,0.052511595,0.963540284,0.148275077,-0.30323964,0.02402396,0.8880641024334422,0.1136999596954805,-0.016400148394589774,0.44513537746057225,3.654,2.0,0.196054702,0.050617859,0.958103014,0.569457576,-0.462074118,0.352569148,0.7741187896062546,0.22227677998710896,-0.07889444018665806,0.5874596156032714,3.654,3.0,0.241782609,-0.089333402,0.944950111,0.571912842,0.273437583,-0.53063634,0.614279766956122,0.10127581756640941,-0.05642750388275597,0.7805251523750848,3.654,4.0,0.283780785,-0.144067168,0.926281878,0.240809458,0.397720699,-0.486648605,0.643217020735671,-0.08409706637025374,0.16537701574290034,0.7428660648648697,3.682,5.0,-0.181694819,0.073247518,0.960288912,-0.181303953,-0.708142037,0.487888588,0.9629022795469583,0.0513918770698838,0.08572939422403775,-0.2506562306835494,3.682,6.0,-0.117415385,0.033622112,0.972706112,0.164603863,-1.43943537,1.839186743,0.9738808107885412,0.07299984353242703,0.040817397370748736,-0.21109507169513272,3.682,7.0,0.033278388,0.058367514,0.97738006,1.382366062,3.758123752,1.425495833,0.9951486676988176,0.04479522518681176,0.05068480686416891,-0.07143925623123998,3.682,8.0,0.826645985,-0.441129798,0.288774855,-2.657593849,-3.820923714,-1.044698174,0.6065250030305142,-0.6363114759925377,-0.38559990217827983,-0.2802638786200135
56,3.699,0.0,0.177458811,0.0586714,0.961222678,0.322329493,-0.335062219,-0.07288407,0.9522420268275857,0.09802939154012266,-0.12046693721428646,0.26289366248689583,3.699,1.0,0.186658857,0.051165207,0.960452286,0.217488356,-0.354532905,0.205516492,0.8818769130840445,0.12639563812510915,-0.03417141559172915,0.45293439612018915,3.699,2.0,0.213682285,0.056648373,0.954374582,-0.361194954,0.070038431,-0.428005507,0.7927769471647175,0.19448623747532218,-0.08143871673614046,0.571880713867196,3.7,3.0,0.220356856,-0.044272436,0.954247771,0.425333896,0.449159804,-0.928486261,0.6494546442645879,0.09746588120461896,-0.02382676620750277,0.7537515189080933,3.7,4.0,0.251723638,-0.078338142,0.944199314,1.538092232,0.353540728,0.835833685,0.6196237058358202,-0.028090627069469343,0.20962363526492522,0.7558672577744365,3.735,5.0,-0.11443552,0.097764305,0.969013237,-0.280943755,-1.116498607,3.426472753,0.996013989788421,0.038533716223465325,0.02141690393377855,-0.07754096392005885,3.735,6.0,-0.041141285,0.045913282,0.977309247,0.240333957,-0.828371052,1.772964046,0.9891702789863163,0.07484015886321703,-0.012075356554757272,-0.12567933623128796,3.735,7.0,-0.233879356,0.110937135,0.944850464,0.298936005,4.858526405,0.808483966,0.9556369142811217,0.0786223441041816,0.2834007795020438,-0.01614352032407304,3.736,8.0,0.877047804,-0.374130108,0.22556332,0.426557726,-0.537046073,-0.593161142,0.6094147140164708,-0.6063888616482707,-0.4249070674649976,-0.2834788154826266
57,3.774,0.0,0.174711313,0.064959952,0.962174185,-0.116289556,0.089796531,-0.214623073,0.9569339499377659,0.08837361135221766,-0.11243269124512338,0.2526388929132868,3.774,1.0,0.197651929,0.082382864,0.956023942,0.327204138,0.086902533,-0.40485092,0.8890732916307518,0.13543638253051207,-0.023797884514392235,0.4366226392304331,3.774,2.0,0.201498596,0.064891383,0.957308949,0.296778394,0.156021648,-0.500361166,0.8061922776397753,0.19340703267128748,-0.060009655851621664,0.5559195736721714,3.774,3.0,0.177731344,-0.025362153,0.962701579,-0.27252789,0.902349484,-1.372597313,0.7035916587584331,0.05158693386985531,-0.0033010988008212263,0.7087218556854099,3.774,4.0,0.226399599,-0.000210131,0.953402946,1.472021726,0.539161307,-0.105435283,0.6225883923107295,0.007441932155816224,0.25602276219264486,0.7394461823858298,3.855,5.0,-0.018857972,0.030467822,0.979835236,-1.145202723,-0.954647618,0.576712353,0.9982729770840532,-0.024060509247834563,-0.022490683956282988,-0.04864487900750924,3.855,6.0,0.015537985,0.056164044,0.977927488,-0.081100154,-0.717294331,0.202033391,0.9899514139873377,0.06141719359672842,-0.047622467336654074,-0.11813647565397492,3.855,7.0,-0.362408622,0.120087705,0.902785098,0.328085483,0.671255303,1.001237204,0.947418668778854,0.1074735516187553,0.2999062993330163,0.030058499166296316,3.855,8.0,0.855716433,-0.417913767,0.228005414,0.765769996,0.709549243,1.717108986,0.6805911708729221,-0.5947186469659529,-0.35425073939615204,-0.24002458773652977
58,3.863,0.0,0.179240126,0.062132997,0.960303842,-0.107301962,-0.161223616,-0.445388893,0.9624910231620587,0.08432851779743046,-0.11646389351949267,0.23007801486631052,3.864,1.0,0.185351187,0.087947334,0.958617861,-0.243888146,0.098151574,-0.798882426,0.9080169027453944,0.11775621566749209,-0.02404753035451516,0.40132342852639563,3.864,2.0,0.1929137,0.084289049,0.95748246,-0.021763471,0.003012188,-1.187229382,0.84013905486738,0.18558416011175374,-0.048880660679377866,0.5072825337163779,3.864,3.0,0.123512641,-0.020706385,0.971793123,-0.095829241,0.963361431,-1.820048424,0.7680369095862415,0.012375989985062385,0.02643721866309528,0.6397399579942342,3.864,4.0,0.172614589,0.057199898,0.963465814,0.045782983,0.863909078,-2.1368015,0.6939578882232066,-0.04382270788993312,0.25541860322104953,0.6717613838072183,3.885,5.0,0.006533088,0.035479632,0.979415905,0.264599489,-0.744298531,1.045122507,0.9982639717284372,-0.009589749177880382,-0.05790853509838447,0.004866315077175624,3.885,6.0,0.06278524,0.010191825,0.978429425,-1.023179912,-0.865820799,1.120130005,0.9943628471193399,-0.0034387852443055335,-0.08274329501399982,-0.06621367045399314,3.885,7.0,-0.38673044,0.175774908,0.882379594,0.399647282,0.086029464,0.586850403,0.9458889665767479,0.13280686606489975,0.29133393460060963,0.05273459760460015,3.886,8.0,0.756683286,-0.470920893,0.40680329,1.798616713,2.830774514,1.539712919,0.8076315415915087,-0.4955690959700526,-0.2150747132723075,-0.236400998002933
59,3.912,0.0,0.184902924,0.059409739,0.961022576,-0.17390821,-0.112970135,-0.639662073,0.970006191048488,0.07760668980425177,-0.1182393161804703,0.19769839436476414,3.912,1.0,0.186402557,0.080538497,0.958679111,-0.195667329,-0.207372805,-0.787022868,0.9241939168097568,0.10959866508676093,-0.037871241274189095,0.3638949104169943,3.912,2.0,0.20391552,0.089183471,0.954653219,-0.311873797,-0.298024819,-0.737103722,0.8616056188809742,0.17218354258056087,-0.06481014199925733,0.47306260755969476,3.913,3.0,0.070691287,-0.014838142,0.976937854,-0.06701966,0.490564661,-0.773722939,0.7920813414643284,-0.006578958607049933,0.03746328590916978,0.6092293230111341,3.913,4.0,0.124300904,0.078144229,0.969133512,0.297785224,0.400046723,-0.956454986,0.7254475913510118,-0.04799969404620374,0.2519247307237249,0.638714139208038,3.945,5.0,0.088097227,0.058410741,0.974470658,0.232138821,-1.434427451,-0.548916063,0.9916035825030965,0.00780464391826138,-0.12729903207773463,-0.02136303191041674,3.945,6.0,0.100719722,-0.034616835,0.973939532,-0.283925949,0.177517102,0.812600331,0.997033446424197,-0.02212103609189926,-0.0687164101200496,-0.026702461570457022,3.945,7.0,-0.466466797,0.178952928,0.842454495,0.260490063,1.695348404,0.191213092,0.9186153004294813,0.13798495297603564,0.3640040476801851,0.06787588556694414,3.945,8.0,0.591184051,-0.361941174,0.690250682,3.942938174,4.21781776,0.323870347,0.9347243629961206,-0.23226912176279962,-0.05220080073502804,-0.26384938260237895
60,4.053,0.0,0.202216497,0.059907198,0.95728189,-0.303993863,-0.22911642,-0.445773418,0.9742556526848231,0.06499696499534711,-0.128618628654373,0.17337406413916545,4.054,1.0,0.22688284,0.070563642,0.95113929,-0.378208421,-0.374967121,-0.754785731,0.9382728632821992,0.09671400121751862,-0.0643579420833243,0.3258043757955392,4.054,2.0,0.249966385,0.076661277,0.944528377,-0.335466453,-0.444399983,-0.643828553,0.8782952932131639,0.16242751740653055,-0.08976470119319616,0.44063247489086604,4.054,3.0,0.055056679,-0.031850181,0.977324577,-0.156923308,0.05573639,-0.598630214,0.810261312980297,-0.014737787446164241,0.02744290151734398,0.5852403689638527,4.054,4.0,0.103809602,0.117800491,0.96726605,-0.273100309,0.06551338,-0.939151824,0.7575401829420069,-0.06036092507307935,0.21901281229848613,0.6119826942010866,4.02,5.0,0.155890015,0.085756061,0.963453788,0.091381821,-1.345256679,2.049220392,0.9789497021442878,0.00119975928295945,-0.1879538755618656,0.07955741266876355,4.02,6.0,0.087637103,-0.055991017,0.974934226,-1.256399148,-0.609587932,0.271050355,0.9916893620174437,-0.0868645687516018,-0.09345876262581952,-0.016498958921229673,4.02,7.0,-0.516268395,0.214917682,0.804966667,0.321039862,0.748293764,0.587218606,0.9040974147165554,0.1564911499553182,0.3864146332243875,0.09381959240246834,4.02,8.0,0.236028192,-0.150701576,0.939168636,2.603343683,5.418739413,0.522879151,0.9496282562656383,-0.020066617429935422,0.17123897609794309,-0.2616882091950874
61,4.104,0.0,0.206779777,0.043541051,0.95671119,-0.322078727,0.027729534,-0.149912209,0.9770778409074313,0.047547850178760696,-0.12686283392887965,0.16420693078729648,4.105,1.0,0.246026206,0.053536503,0.946599677,-0.583044107,-0.325730868,-0.874565589,0.9527199259501643,0.07402788806904506,-0.09063356497536998,0.28041071909862103,4.105,2.0,0.279560319,0.063015294,0.937387914,-0.532426236,-0.413122157,-0.7336101,0.896475509310738,0.1439810217068604,-0.11695700243312832,0.4023955593395118,4.105,3.0,0.085010135,-0.025509919,0.975181789,-0.141185166,-0.179837496,-0.380642599,0.8216494260176345,-0.01286958574928117,0.00858939568340823,0.5697831313485222,4.105,4.0,0.104313299,0.094536913,0.970014179,-0.501984203,-0.184693911,-0.440454358,0.7747582210602347,-0.06654899481098919,0.17322929398524226,0.6044109048442147,4.095,5.0,0.214090025,0.049157821,0.95471722,-0.673684837,-0.926941516,0.075188541,0.9704728366827724,-0.02533665080406608,-0.22749142201399888,0.07608009133126954,4.094,6.0,0.116883548,-0.105952838,0.967622464,-0.585037628,-0.3565859,0.938997265,0.9874860662630984,-0.11716512827558358,-0.10152508069779158,0.028918154189098343,4.095,7.0,-0.492431407,0.245470789,0.809360489,-0.037314992,-1.101459508,0.582959957,0.9265527363635395,0.16566064853316398,0.31867444803679806,0.11181758552772876,4.095,8.0,-0.303629576,0.25276487,0.897236313,2.688016575,5.545082022,2.174963465,0.9009677192200387,0.20682319903536986,0.35275823469864903,-0.14506192166282067
62,4.179,0.0,0.198034146,0.026667321,0.958900063,-0.316907909,0.224678167,0.203955621,0.9777600000725963,0.02719494859731225,-0.11583434753491978,0.1727084854892351,4.179,1.0,0.259222887,0.023808573,0.944575379,-0.783807095,-0.223186611,-0.822332508,0.964247811434357,0.04053007869193791,-0.11391910843867521,0.23580904901596783,4.179,2.0,0.296519912,0.036788295,0.933577829,-0.848442143,-0.315312945,-0.803716424,0.9157974801341966,0.10959667905539419,-0.14519784988817322,0.35807977841220806,4.179,3.0,0.104484096,-0.032202246,0.974193045,-0.239877819,-0.215838963,-0.177545724,0.8266667030936988,-0.01375299630847565,-0.013488813387342492,0.5623620444181264,4.179,4.0,0.113200111,0.04718268,0.97215921,-1.010365746,-0.083842502,-0.567174715,0.7916994650452327,-0.09733110405950948,0.1168933242204301,0.5916709930209074,4.169,5.0,0.26396862,-0.004489493,0.944224768,-0.833533049,-0.651649418,0.108252874,0.9629568415308449,-0.06096471003583704,-0.2525815109166377,0.07211106587933586,4.169,6.0,0.155016876,-0.159811915,0.954241542,-0.877390467,-0.783447391,0.420893816,0.9769498014829651,-0.15717307489211446,-0.13568009788512778,0.049564311245445025,4.17,7.0,-0.353392575,0.293697532,0.865861679,0.412804929,-2.243409908,0.219786848,0.9555013563944709,0.19656567429414007,0.19800688018850354,0.09577248569203976,4.17,8.0,-0.483741594,0.269259521,0.808853127,-0.127845954,0.502517293,-0.676297115,0.8933707000088035,0.1901969559936071,0.37121184106682015,-0.1670798591941237
63,4.24,0.0,0.186250037,5.36e-05,0.96203738,-0.386539513,0.246831551,0.636415705,0.973822845075545,0.0014956292454252208,-0.10494678666052047,0.20162589484429447,4.241,1.0,0.267672694,-0.019012282,0.942344874,-0.82942773,-0.080744288,-0.442143567,0.9692848439320606,0.00205304896160738,-0.129641463596862,0.20898748103660553,4.241,2.0,0.31007036,-0.009767347,0.930119869,-0.848451047,-0.168133958,-0.243409331,0.9228740315017161,0.06964071740136323,-0.16762226054168403,0.3396416791715775,4.241,3.0,0.120148728,-0.054847376,0.970755401,-0.383213683,-0.287195678,0.217690919,0.8199901530326088,-0.01903082378787393,-0.041095565503381504,0.5705831500942442,4.241,4.0,0.117480406,-0.013076354,0.971432634,-1.16819233,-0.137057072,-0.272141118,0.7969479467051345,-0.12907546241645604,0.05867180673390992,0.5871721334830418,4.244,5.0,0.30599241,-0.071329225,0.927628043,-1.344883927,-0.916806903,0.034790371,0.9474968780385473,-0.1182435154902352,-0.29119746146778874,0.058925169379749794,4.244,6.0,0.200260593,-0.234957381,0.929845538,-1.209471308,-0.791163191,0.333338321,0.9603856966966302,-0.21124223674521375,-0.17032234300698593,0.06345337239278606,4.244,7.0,-0.269407298,0.239476878,0.910846053,-0.819438596,-1.398858137,0.492899701,0.9739834446274765,0.158858595627506,0.11656211601400948,0.11195297806306174,4.244,8.0,-0.40836256,0.298913309,0.838864026,-0.870319688,-1.338041344,2.925648138,0.9453250291840484,0.1891967366735313,0.2644678039360341,-0.02493922034699069
64,4.314,0.0,0.158687046,-0.029767669,0.96603432,-0.318512911,0.493283365,0.533518367,0.9705923866000608,-0.021725800601089976,-0.08134701602843428,0.2255239935029293,4.314,1.0,0.266454543,-0.056443373,0.941689504,-0.625219908,0.14575753,0.32940668,0.9662027885869071,-0.03195930782900327,-0.12959788181501541,0.22053381373167485,4.314,2.0,0.314196629,-0.054051188,0.926816027,-0.429790048,0.056612516,0.465346571,0.9167401760860198,0.04121124399863182,-0.17264674945747105,0.35788571195233265,4.314,3.0,0.147435284,-0.080527366,0.964925997,-0.275209874,-0.695202703,1.153159874,0.784878780227302,-0.009552102571581702,-0.07990727631854794,0.6144012409465949,4.314,4.0,0.148511471,-0.081245675,0.965431242,-0.731371778,-0.771086589,1.215018025,0.7608864430952585,-0.11728462276628701,0.0016207969838749109,0.6381955115742767,4.309,5.0,0.337021331,-0.110143936,0.911710308,-1.478379761,-0.820728183,-0.583720501,0.9296977624239351,-0.16894780273291818,-0.3270074466463337,0.013595599784202814,4.309,6.0,0.239212512,-0.28290815,0.904395159,-1.478126785,-0.855555306,-0.257296427,0.9379875562177042,-0.2682029475231716,-0.2146368406621396,0.046664225603747285,4.31,7.0,-0.20708898,0.228452863,0.927650766,-0.781540778,-1.698308012,1.170431424,0.9786582596602639,0.1306553894073659,0.02105016818594961,0.15720709410486625,4.31,8.0,-0.335997434,0.295696194,0.868056298,-0.78141553,-0.972128984,3.022367187,0.9591776767224134,0.18437643617347552,0.1783891703372059,0.11899923599656015
65,4.404,0.0,0.124008684,-0.050039139,0.970447799,-0.321372997,0.629992851,-0.048823101,0.9729408370204555,-0.043134800428544694,-0.05300526244847175,0.22071692006435273,4.404,1.0,0.23235495,-0.08984767,0.947636836,0.010837789,0.760075943,0.979005382,0.9588875591917605,-0.04477007310637532,-0.09036042170143341,0.26526455392919845,4.404,2.0,0.282432683,-0.065350305,0.935382337,0.879336635,0.669494557,2.313292777,0.8747166886429687,0.04578699753102476,-0.1297180448369478,0.46470151098339774,4.404,3.0,0.194978465,-0.098572706,0.955438548,0.236423484,-0.913046448,1.228684957,0.7431524501503729,0.02544553178617691,-0.11091427631583153,0.6593746917018818,4.404,4.0,0.204097742,-0.152211739,0.946537214,-1.333190426,-1.015209509,0.075308855,0.752302369320215,-0.12310816326103075,-0.09151582158989985,0.6407108393436246,4.375,5.0,0.368050252,-0.148958646,0.895792573,-1.611875594,-0.724649462,-1.202231372,0.9064069482794855,-0.21241612322457704,-0.35959550969770454,-0.06322107330755677,4.375,6.0,0.278164431,-0.330858918,0.87894478,-1.746782262,-0.919947421,-0.847931175,0.9068813012027587,-0.32551292935245485,-0.26759557680808554,-0.0004956066213056974,4.376,7.0,-0.144770662,0.217428847,0.944455479,-0.74364296,-1.997757887,1.847963147,0.9635259690666711,0.10824255446887018,-0.0843958582048672,0.2297359254754248,4.376,8.0,-0.263632308,0.292479079,0.897248569,-0.692511372,-0.606216623,3.119086236,0.9419598831209977,0.17570467868634465,0.11383095208791816,0.26245372701709346
66,4.457,0.0,0.104941404,-0.076956976,0.971379908,-0.463598119,0.03607986,-0.031907027,0.9722332637442535,-0.06432163851123379,-0.057262286964185595,0.21759190743237236,4.457,1.0,0.164984016,-0.063914321,0.96343616,0.964615541,1.104190039,1.189900759,0.9468577127308928,-0.015377390195873183,-0.024043587137735637,0.32038400963583646,4.457,2.0,0.215327229,-0.044450352,0.955533019,0.322939592,1.64618448,-0.153873256,0.8866327161327662,0.0214369370957369,-0.046640716986072285,0.4596167185057701,4.457,3.0,0.226501861,-0.088975284,0.948011237,-0.181000108,-0.016643567,-0.058316692,0.7452348915969825,0.02132283020666242,-0.11812647517524213,0.6559088573278183,4.457,4.0,0.240697269,-0.205234248,0.92691355,-0.559034299,0.022182407,-1.18222945,0.7881236068654179,-0.12847183430311981,-0.12377028565655841,0.5890985354596716,4.379,5.0,0.306160036,-0.167577595,0.915412356,0.457090616,4.445986817,-2.473344559,0.9633069759470018,-0.1161567789020044,-0.13017306190612768,-0.2039662882952393,4.379,6.0,0.339527637,-0.423267512,0.816245427,-0.508295837,1.429643495,-2.661689603,0.9133549961857521,-0.3002142963732269,-0.23094773902834076,-0.1493893203457017,4.379,7.0,-0.055944476,0.226817036,0.951923446,0.130250799,0.41516413,0.898628301,0.9544665223801876,0.10577604977554642,-0.054292946157423375,0.27360073272361496,4.38,8.0,-0.153801742,0.244929118,0.936937965,-1.527421823,-1.209042824,0.496000181,0.952905164666262,0.11328007495984647,0.03247135673599789,0.2794369030052748
67,4.538,0.0,0.106760482,-0.079235853,0.970674446,0.254203287,0.103232356,0.321756602,0.9698612757277398,-0.050383029406216175,-0.04914223847282149,0.2332717226529907,4.538,1.0,0.072620378,-0.035606746,0.977061124,0.181517728,1.541683946,0.838574992,0.9327291175608825,-0.031504814608843926,0.05048027339154871,0.3556340561713322,4.539,2.0,0.10684607,-0.038745084,0.973005517,0.025349909,1.479594895,-0.644699464,0.9030507881693894,-0.011307062097536931,0.019378980616912848,0.4289474087153534,4.539,3.0,0.192839308,-0.133545906,0.951791727,-0.600759808,0.642641762,0.89249998,0.7202886688235278,-0.027370047639829358,-0.11361087638410382,0.6837599599449061,4.539,4.0,0.189071148,-0.173894238,0.945502456,1.215761187,0.776977781,1.609723044,0.753928712716138,-0.10434799689199854,-0.05064506705088153,0.6466359631742007,4.499,5.0,-0.10498561,-0.000112258,0.974747151,1.241302427,4.28769944,-3.713312481,0.926111071298352,0.02275764247068328,0.08229804890375081,-0.36746075229122255,4.498,6.0,0.369475511,-0.536630731,0.731546516,-1.148721073,0.143293799,-1.861186191,0.8805982214014909,-0.3284549390998258,-0.23855805820882667,-0.24444667784425853,4.499,7.0,-0.071794266,0.173002708,0.961711311,-1.132000394,-0.242255408,-2.44640722,0.985839622211237,0.056052744030135715,-0.06278588985346699,0.14503882652726605,4.499,8.0,-0.124954342,0.084351899,0.967934486,-1.018821997,-0.773817791,-2.695190425,0.9884242487493381,0.05906600666063731,-0.007986548458212759,0.13951676023043508
68,4.607,0.0,0.072992822,-0.057162062,0.975310487,0.380396445,0.537755952,0.451315889,0.9663482161900082,-0.03628969058571256,-0.01726141840029613,0.25407917438938626,4.607,1.0,0.017875441,0.000638508,0.978568884,0.764569043,0.84645384,0.370046208,0.9245796244753401,-0.006748266306245921,0.09745131196750989,0.3682529303382527,4.607,2.0,-0.010383243,-0.088591804,0.975936822,-1.282021906,2.012853538,-0.884487271,0.9146066112452178,-0.1169092473588515,0.07538252556903002,0.37966360029289153,4.608,3.0,0.157882533,-0.152957349,0.954988563,0.092304886,0.321561279,0.848379837,0.6934796492889951,-0.03744513703269224,-0.09760487176245536,0.7128514057942581,4.608,4.0,0.146579612,-0.119389684,0.961649375,1.322635058,0.228218088,2.296524695,0.6877852573814571,-0.06183748461219814,0.0032014795160456603,0.7232684949273451,4.533,5.0,-0.382673014,0.082615303,0.898047369,2.290980655,2.948321555,0.263340815,0.9033209400389742,0.1892098094452009,0.1787095013305969,-0.34098950340294076,4.533,6.0,0.428825365,-0.529029269,0.704328644,-0.808761099,0.289025446,0.194675669,0.8747133007488923,-0.36344970685198724,-0.20447472782930026,-0.24692314140500404,4.533,7.0,-0.043336528,0.049701569,0.977616847,-2.244068838,-2.792204668,-0.806800778,0.974194530598665,-0.03505526992799967,-0.2066097372953955,0.08383651386269125,4.533,8.0,-0.075930362,0.036990234,0.976567101,-1.37924873,-2.313813927,-0.181684887,0.9847446849958359,0.0022055477695550486,-0.12652321021599797,0.11943583301558329
69,4.674,0.0,0.06442488,-0.040785791,0.9768623,0.280635319,-0.084833042,0.110489837,0.9653233278135966,-0.019315126213089544,-0.019659627615640423,0.2595983392093838,4.674,1.0,-0.042779958,0.049242283,0.97642515,0.758008636,0.779022088,-0.082818425,0.9223030264431649,0.01566991538468837,0.14056977041528904,0.3596550024829464,4.674,2.0,-0.131688825,-0.115624876,0.964310604,0.171062503,1.455243082,1.14454047,0.8867977124944116,-0.12871404770238892,0.14689035607942544,0.4188624288828081,4.674,3.0,0.136396539,-0.134362997,0.961201628,0.617966586,0.236973682,0.507961683,0.6780545799066844,-0.023550853432316665,-0.06695269346349032,0.7315768454565543,4.674,4.0,0.129962586,-0.043491969,0.970390733,1.363248045,0.100970055,1.961310238,0.6222980658076589,-0.013583899641198004,0.0513146538185997,0.780978489630836,4.608,5.0,-0.50156323,0.092703515,0.83559463,1.487582449,2.000171904,-1.680839275,0.8357890510352143,0.26484099195555677,0.26316498084451656,-0.40256689382853883,4.607,6.0,0.344101315,-0.47139321,0.787279954,1.277911822,2.790972132,-0.79852109,0.91237355450422,-0.25224748720732176,-0.0920695962116022,-0.30898040664799364,4.609,7.0,0.080798609,-0.057993677,0.974752952,-2.010756607,-1.617716193,-4.849524503,0.9404441047256537,-0.0727160224274355,-0.28529507790645015,-0.16995288903531114,4.609,8.0,0.057082817,-0.081359015,0.975170889,-1.91460565,-1.616709605,-3.6657966,0.9714424855740417,-0.06275616284789681,-0.2152807376693126,-0.07755878567185537
70,4.72,0.0,0.060149284,-0.016189783,0.978522332,0.407096473,0.136760169,-0.076866702,0.966659915850181,0.0005960454201940994,-0.008972142513527055,0.25590574920680353,4.72,1.0,-0.078340051,0.076300775,0.974119104,0.16388703,0.379492501,-0.324757393,0.9262828865280188,0.01474389693420026,0.1524623219331511,0.3442932936019334,4.721,2.0,-0.203632141,-0.089899857,0.954909402,0.333734462,0.903027738,0.616383708,0.8703713485399174,-0.12429355062000365,0.18993405163117283,0.43695524364177785,4.721,3.0,0.116137334,-0.097262066,0.967453467,0.461810855,0.210633355,-0.191494728,0.686520628908112,-0.011441766818986315,-0.04396859134187622,0.7256895169637505,4.721,4.0,0.116667123,-0.00922636,0.972151046,0.297692979,0.02204058,-0.448717401,0.6402156264934765,-0.00043458711756592786,0.05432461611052313,0.7662718830885334,4.683,5.0,-0.568121528,0.031047754,0.797455934,-0.068652754,-0.023639728,-2.996532621,0.7743303711231977,0.2110464723796487,0.29408099438961327,-0.5190262340105106,4.683,6.0,0.133419611,-0.312208897,0.919145697,2.688280088,4.522937639,-1.250612307,0.9219314458986789,-0.03988286086759776,0.08358868097209868,-0.3761179321509835,4.684,7.0,0.178768066,-0.143181426,0.952324555,-1.382813292,-0.653441222,-2.308503032,0.9042705724331812,-0.1088998534079011,-0.2942535662896324,-0.28956932241682204,4.684,8.0,0.137449192,-0.124146586,0.96203812,-0.026352489,-0.02750629,-3.644472115,0.946737289451018,-0.025149431122098862,-0.203974788834475,-0.2478917029614048
71,4.794,0.0,0.062099913,0.004113944,0.97608231,0.284190159,-0.105493,-0.435326916,0.9718425714792646,0.016907844241251618,-0.012223057948739577,0.2347056410017996,4.795,1.0,-0.090159214,0.078929919,0.972571531,0.028710287,0.027395647,-0.279300744,0.932044583604728,0.014155364119773793,0.14496431803690174,0.3317798461869283,4.795,2.0,-0.228562132,-0.085926595,0.948607913,-0.108453646,0.139190066,-0.507216409,0.8817291221510175,-0.13375804412187228,0.1799120091904449,0.41508337684439295,4.795,3.0,0.114849757,-0.078160889,0.969571766,0.163586039,0.000756875,-0.468569983,0.7036798920269823,-0.0020320271048079944,-0.040666638745177265,0.7093494941958506,4.795,4.0,0.12090251,0.000908173,0.972744961,-0.102757565,-0.096985289,-1.102824694,0.683004459294575,0.001402702253089021,0.037486218354309174,0.7294502892203193,4.74,5.0,-0.554891372,0.02547961,0.807045447,0.843484148,-0.617149937,-0.129728903,0.7727239452254087,0.22213526030801908,0.24417546929916384,-0.5421549324646059,4.74,6.0,-0.159095531,-0.186627215,0.948643713,1.101890316,4.056448897,-0.746853049,0.8793315186436894,0.07952425243135992,0.24599391872279786,-0.3999236996558442,4.741,7.0,0.223897713,-0.156251796,0.941078206,0.068396582,-0.483915365,0.309324281,0.9083200287085187,-0.11768149918229347,-0.2957256569828858,-0.2713892518122342,4.741,8.0,0.23537096,-0.151449763,0.939259538,-0.796556269,-1.673478831,0.350555546,0.9324416508090502,-0.09418938199295904,-0.2595735030968128,-0.23302902103885353
72,4.872,0.0,0.060734538,0.023666092,0.977442189,0.288169557,0.173236845,-0.739854372,0.9796397991787108,0.029642444245848675,-0.0007736097169066613,0.1985613026050975,4.872,1.0,-0.076043897,0.081209139,0.973321839,0.076407553,-0.406498126,-0.296119422,0.940632140698791,0.023496155867902015,0.11799182908060814,0.31739098099040824,4.872,2.0,-0.216499612,-0.0945188,0.949900055,0.04720502,-0.337772547,-0.480713909,0.8970609937792996,-0.12473201945778176,0.15274660908414522,0.3954642463927357,4.872,3.0,0.122287144,-0.061580756,0.970457451,0.256341183,-0.116048382,-0.498013627,0.7211380204925779,0.014753751684987245,-0.03802695414862088,0.6915896420345252,4.873,4.0,0.135184251,0.000208537,0.970390733,-0.316601744,-0.257898085,-1.228891225,0.728408912299463,0.0017495812216234204,0.00783198115117707,0.6850956542845019,4.86,5.0,-0.396988069,0.034532154,0.89457029,-0.678174698,-1.33621924,-3.59661158,0.7005043480074798,0.10951728781250533,0.22734841779514034,-0.6675419979438408,4.86,6.0,-0.371927132,-0.142505298,0.895034328,0.320256141,3.888484856,0.486067928,0.8332797897359918,0.16897967889730742,0.39206915773123213,-0.35124412549283507,4.86,7.0,0.257261775,-0.165200596,0.931090297,-0.269790802,-0.599417071,0.154230522,0.9058597939511767,-0.1404738291322017,-0.2999480817803934,-0.2640384162729573,4.86,8.0,0.340577419,-0.202324317,0.896150597,-1.023990605,-1.871131974,-0.209586906,0.9004679398585735,-0.16356281888068153,-0.3220238320804684,-0.24229185941519452
73,4.914,0.0,0.041690598,0.045161434,0.977970009,0.223934934,0.086315982,-0.58932564,0.9847050520366899,0.03953667651201145,0.005306343330151606,0.16960145761244708,4.914,1.0,-0.044239565,0.074138747,0.976236297,-0.242376731,-0.663788975,-0.739351059,0.9562112999288686,0.018517697836582265,0.07445941523134572,0.2824408614888833,4.914,2.0,-0.159970201,-0.082764705,0.963138899,0.607450823,-1.290346749,-1.027122937,0.9300624530010704,-0.07323994940887199,0.09082672200605994,0.3483823329301467,4.915,3.0,0.130951319,-0.026494042,0.971381911,0.612056085,-0.084753008,-1.248433254,0.7634648974094853,0.04560216862638128,-0.0193356801702555,0.6439471438809625,4.915,4.0,0.144143247,-0.030884487,0.968990646,-0.838525873,0.017704554,-1.881804852,0.7921809263005258,-0.02923764258276707,-0.030623444333305255,0.6088158546876125,4.889,5.0,-0.343579759,-0.07966413,0.913084101,-0.201827626,-0.88969551,-0.618083146,0.6926905949741217,0.06412136749697939,0.19850704097360428,-0.6904079551602939,4.889,6.0,-0.429256275,0.023521502,0.879624232,0.283398711,-1.184736147,-0.161390714,0.858071253110018,0.15035805489168436,0.31868543201570254,-0.3735582623050354,4.889,7.0,0.265177702,-0.166235361,0.929024537,0.277149298,0.057697802,-0.408078721,0.9094211719840831,-0.1190769410675681,-0.2853125045836714,-0.2781556916212216,4.889,8.0,0.499156875,-0.302752056,0.787073444,-2.131009199,-3.645286685,0.884643849,0.8298058362174272,-0.31331058814114776,-0.4207962567425569,-0.19023474932198034
74,4.991,0.0,0.043355327,0.058045736,0.977497319,0.16238323,0.042439541,-0.811648836,0.9904774690326693,0.04631024701604675,0.008441031776197662,0.1293773293220393,4.991,1.0,0.003855297,0.055603772,0.978063575,-0.179230027,-0.674753303,-0.043550967,0.9592199840232325,0.020191256055978657,0.03274608588998533,0.2800304077921489,4.992,2.0,-0.014653611,-0.049263419,0.978590511,1.129754173,-2.726966569,-1.62811508,0.9639974895620674,0.02637193241269717,-0.02962303835499354,0.2629369447176836,4.992,3.0,0.142888403,0.014217636,0.96936565,0.463776732,-0.237820333,-1.101110671,0.7971246360481115,0.07345141092139848,-0.013118170474991189,0.5991870479593253,4.992,4.0,0.153594221,-0.070846263,0.965564924,-1.144740843,-0.390353015,-2.386545984,0.859188901562865,-0.058011827575926295,-0.09477582544394769,0.499446295615371,4.969,5.0,-0.325302897,-0.104997085,0.918103827,0.320253172,-0.428411899,-0.689938561,0.6730023605614729,0.054738448211430354,0.17098152388504315,-0.7175213191648303,4.968,6.0,-0.304158392,-0.049453429,0.930723928,0.25891789,-1.128263744,-2.704590236,0.8246805572997173,0.08610119925313583,0.2621688759399559,-0.49371656077893467,4.969,7.0,0.192721232,-0.143597672,0.94984748,0.480700171,2.219449351,-0.218865183,0.9413168565570605,-0.06027011570226056,-0.16602654691709828,-0.2876200174423804,4.969,8.0,0.699694689,-0.40428024,0.554269636,-4.175348434,-3.382365527,-2.996079158,0.6556467113328039,-0.4135307872357073,-0.5403107851841252,-0.327389574269568
75,5.078,0.0,0.098055482,0.071278303,0.972321205,-0.054276036,-0.713370911,-1.862000424,0.9979067639024347,0.046816223710752905,-0.028548421347658774,0.03428293152272629,5.079,1.0,0.040804256,0.0295318,0.977900243,-0.247550626,-0.620904672,-1.190761309,0.9751581962385057,0.014799183724964516,-0.005089849388353387,0.22095603613194706,5.079,2.0,0.12217957,0.08277888,0.969289332,1.875351101,-1.754617938,3.348077384,0.8977431942138775,0.13074366211830438,-0.10730200109836215,0.40675488026432566,5.079,3.0,0.176232474,0.018070721,0.963858685,-0.737108963,-0.464812012,-2.190255894,0.862501252538942,0.055365572621005846,-0.054612486076978016,0.5000437171904034,5.079,4.0,0.183971846,-0.074544659,0.958527753,-0.253191339,-0.083954708,-1.846332934,0.9024984319736055,-0.051091284287556944,-0.11016109490667796,0.41322003112626715,5.083,5.0,-0.333203082,0.010535897,0.921526831,0.500492817,-0.218754845,1.486336647,0.7284388867588237,0.08560679841853165,0.1333135997043764,-0.6665401326671605,5.083,6.0,-0.154929228,-0.07423788,0.96446393,-0.434539695,-2.482689,1.177400469,0.8871467222750985,0.013510103518671926,0.1425012296635319,-0.43872721570908424,5.084,7.0,-0.15482485,-0.00554692,0.967274779,1.940200142,5.132595935,-2.464387706,0.9192828744416175,0.12909325134751376,0.08819933237525666,-0.3612129662449068,5.084,8.0,0.862809663,-0.367966612,0.283358533,-0.593651494,-0.445043332,-1.548104987,0.6152862884666292,-0.3980332528954886,-0.5644112334529363,-0.3800424612678573
76,5.13,0.0,0.099705245,0.052157297,0.973136928,-0.673223075,0.178424742,-1.7437873,0.9982559787427517,0.013345329102107846,-0.021634333297697397,-0.05328094141690066,5.13,1.0,0.08032661,0.057253411,0.975162388,0.501677444,-0.814752403,-2.467407488,0.9934423519522814,0.05144677167011127,-0.036583298098330025,0.09532672937057943,5.13,2.0,0.162183447,0.096943022,0.961669164,-0.15789256,-0.346037657,-1.657324015,0.9294149398622673,0.13380995788917405,-0.10984607454888687,0.3259088900854284,5.13,3.0,0.172723412,-0.013036542,0.963701547,-1.025357408,0.302766858,-3.315793975,0.9393977282463892,0.0062555994218962945,-0.06678107317096908,0.33620390227885416,5.13,4.0,0.172738486,-0.079472363,0.961083014,-0.841115251,0.662871698,-3.259704423,0.9604158051689703,-0.08135301325941835,-0.10631382682265166,0.24429600619243616,5.144,5.0,-0.274704999,0.032545344,0.939735582,0.256167807,-0.723998922,0.074200071,0.7352587364905863,0.07360007831781173,0.09395550428152813,-0.6671956100732993,5.144,6.0,-0.031155677,-0.079178897,0.976198251,-0.250047927,-1.812181057,-1.137514718,0.8731580905067685,-0.049344547672271775,0.05476314567655222,-0.4818309480234758,5.144,7.0,-0.331255924,-0.080021025,0.918114997,-0.3158617,3.403568402,-0.377734135,0.8893329756759151,0.16319944178437626,0.2558996776100935,-0.34200607534916755,5.144,8.0,0.8826895,-0.294250887,0.307767221,-2.49685615,1.330650808,-1.532326073,0.5819116747186354,-0.4011764956572727,-0.4922749754184191,-0.5080369777241597
77,5.184,0.0,0.114823346,0.026989848,0.9729307,-0.50706139,-0.30550448,-2.394580464,0.9843241606279041,-0.010211000043151596,-0.040102181171715316,-0.17144531882662117,5.184,1.0,0.10787437,0.070849543,0.971385332,-0.321213565,-0.619686846,-3.158553661,0.9949581936908813,0.04240134027451825,-0.06322729728095237,-0.0652888047742424,5.184,2.0,0.148229594,0.058498611,0.967083709,-1.963387814,-0.02150407,-5.431635334,0.9911525038341381,0.051937898538642314,-0.1178132711098801,0.032236655985046575,5.185,3.0,0.15290888,-0.035830378,0.967419794,-0.834368981,0.420297929,-2.482374689,0.9751466069473184,-0.0329856963669315,-0.06514333936044962,0.20918265733872435,5.185,4.0,0.149866555,-0.096212912,0.963657663,-0.148180779,0.494454692,-1.524121985,0.9788659082852444,-0.08101141971587976,-0.08780109997494784,0.1659808733430162,5.22,5.0,-0.144602518,0.028672977,0.968429642,-0.801816587,-2.136489582,6.676625314,0.9434034566865308,-0.005845668607013955,0.012654479375726448,-0.33135420658590015,5.22,6.0,0.034842521,-0.102448207,0.974254773,0.193752021,0.714565254,-1.435207033,0.8358783105265634,-0.02847729262384487,0.07352267490824275,-0.5432227076166924,5.22,7.0,-0.396551995,-0.039712352,0.895562083,1.074027079,1.538630993,-0.391162051,0.85469972620715,0.22000384317535215,0.3021802873495346,-0.36024125381034705,5.22,8.0,0.784206614,-0.401377618,0.430131369,0.106572686,3.534096104,2.859406647,0.754133126290607,-0.38214790792490216,-0.2826929921814512,-0.4531345015238562
78,5.244,0.0,0.121854815,0.01251316,0.971203287,-0.525516556,-0.01709307,-2.170468282,0.9598503972013204,-0.030634998678960256,-0.04173343361291521,-0.2756937292853863,5.244,1.0,0.116073997,0.053661468,0.971965161,-0.730702866,-0.210607639,-2.976365027,0.974767630090734,0.013070170793583724,-0.06822736640739561,-0.21213737161526136,5.244,2.0,0.139860861,-0.009412004,0.969750666,-1.492843204,0.032561614,-4.062429457,0.9780912458610593,-0.004355700235942282,-0.11201816139450424,-0.17541514804374875,5.245,3.0,0.123781401,-0.079616837,0.969246266,-1.289042577,0.781653823,-1.782170303,0.9875588649129075,-0.0981242525909957,-0.04879225601152618,0.1127760397367019,5.245,4.0,0.116086325,-0.070369068,0.970657076,0.359642616,0.686370681,-0.082768285,0.9838712133913732,-0.0630471235557666,-0.04890941776941101,0.16009486101867218,5.25,5.0,-0.0256556,0.011030967,0.979804627,-0.770613348,-2.186032131,-0.291356845,0.9348489176411996,-0.07651237946677532,-0.07822005954145982,-0.337764680300857,5.25,6.0,0.011056672,-0.12073967,0.972097054,-0.144719037,-0.083218862,1.580889808,0.8776114413990944,-0.03385255481925908,0.07171397959930613,-0.472767667663138,5.251,7.0,-0.448773618,0.020185078,0.870698456,1.186909156,0.328750189,0.361195644,0.8469201369162279,0.27038825720095444,0.281249141594264,-0.36126914123146187,5.251,8.0,0.568461588,-0.454470703,0.655451603,1.203789199,4.594661573,2.241488573,0.8818801144750481,-0.2505497530576527,-0.06161836525397712,-0.394607985220336
79,5.319,0.0,0.119986304,-0.003674079,0.971897519,-0.540914247,-0.10282618,-1.763508018,0.9312139543152078,-0.05232272638913805,-0.04519898665724215,-0.3578546565255228,5.319,1.0,0.123290369,0.026608717,0.971695663,-0.823285537,-0.26810307,-2.238174909,0.9445521297238042,-0.02240738925947774,-0.07390501331096486,-0.31915079844535216,5.319,2.0,0.151362962,-0.039868975,0.967090853,-0.739854007,-0.321534364,-1.998047591,0.9537689828303479,-0.03412092498865807,-0.1198470128907635,-0.27349073726516426,5.319,3.0,0.073240839,-0.14456107,0.96661982,-0.970521011,1.084193652,-1.569073014,0.9890308797200036,-0.14496222181300503,-0.011410816192795981,0.02595508584318637,5.319,4.0,0.055421866,-0.070694706,0.976108434,-0.692242528,1.158723325,-1.612601413,0.9923749359040849,-0.09914321263942123,-0.0031417974475280953,0.07316241580003352,5.324,5.0,0.108366349,-0.025025829,0.973245315,-0.579961145,-1.56043998,-0.408179901,0.9179220130396014,-0.12315985859007098,-0.1394422136776458,-0.35043786361361884,5.324,6.0,0.03291879,-0.131482877,0.970474938,-0.387651302,-0.634376612,-0.574027259,0.8651121373478962,-0.07096051968212923,0.04598258461141828,-0.49439983451883424,5.325,7.0,-0.399550671,0.086959694,0.891295839,0.360338845,-1.476123342,0.596719024,0.877133608136914,0.2532245154069355,0.19092275227998537,-0.36064176260588054,5.325,8.0,-0.018881755,-0.175090766,0.963563025,2.317353171,5.436326047,-1.400115832,0.8747438481889946,-0.016928174278925873,0.14239473876531597,-0.46288267989097276
