,Unnamed: 0,timestamp,node,accx,accy,accz,gyrox,gyroy,gyroz,q0,q1,q2,q3,timestamp.1,node.1,accx.1,accy.1,accz.1,gyrox.1,gyroy.1,gyroz.1,q0.1,q1.1,q2.1,q3.1,timestamp.2,node.2,accx.2,accy.2,accz.2,gyrox.2,gyroy.2,gyroz.2,q0.2,q1.2,q2.2,q3.2,timestamp.3,node.3,accx.3,accy.3,accz.3,gyrox.3,gyroy.3,gyroz.3,q0.3,q1.3,q2.3,q3.3,timestamp.4,node.4,accx.4,accy.4,accz.4,gyrox.4,gyroy.4,gyroz.4,q0.4,q1.4,q2.4,q3.4,timestamp.5,node.5,accx.5,accy.5,accz.5,gyrox.5,gyroy.5,gyroz.5,q0.5,q1.5,q2.5,q3.5,timestamp.6,node.6,accx.6,accy.6,accz.6,gyrox.6,gyroy.6,gyroz.6,q0.6,q1.6,q2.6,q3.6,timestamp.7,node.7,accx.7,accy.7,accz.7,gyrox.7,gyroy.7,gyroz.7,q0.7,q1.7,q2.7,q3.7,timestamp.8,node.8,accx.8,accy.8,accz.8,gyrox.8,gyroy.8,gyroz.8,q0.8,q1.8,q2.8,q3.8
0,0,0.0380000000000109,0.0,7.984585549855054e-17,2.3621751829587738e-17,1.0000000000000002,-0.5408586433597881,-0.2960141256046004,0.6625034597515034,0.998989758375528,-0.0270156122722655,-0.01389085716079,0.0331159091932731,0.0389999999999872,1.0,-2.0846970955856768e-17,2.932814859031107e-17,1.0,-0.6564013076568764,-0.4948453935920238,0.5557215308278055,0.9987928037672292,-0.0327804451235543,-0.0238015609475898,0.0277824271214167,0.0389999999999872,2.0,-3.444655432871874e-17,3.42447370480322e-17,1.0,-0.8257965643431295,-0.5453176512883817,1.220062851075377,0.9969879878988404,-0.0411654627549116,-0.0246725348034565,0.0609230882996569,0.0389999999999872,3.0,2.81310631695784e-17,4.9826942414796936e-17,1.0,-0.3198753919322818,-0.1892545490664461,0.5235661867756737,0.99948876740097,-0.0159855930602149,-0.0090394139984782,0.0261716191391906,0.0389999999999872,4.0,-3.588432672817795e-17,-1.1064344966867992e-16,1.0,-0.2332734046894356,-0.2122663334216795,0.681223345067826,0.9993002913535156,-0.0116555090635589,-0.010208890198004,0.0340419648400795,0.0,5.0,-1.850350480120022e-17,-6.908959201537201e-17,1.0,0.0524040718755614,-0.1393050415379436,0.1958817058720845,0.9999241767359582,0.0026200049213891,-0.0069903845004195,0.0097934099099586,0.0,6.0,1.4130975845644225e-18,8.325925336798952e-17,1.0,0.5325504549025278,0.0608128040503846,-0.3232141820557212,0.9995090560108894,0.0266144501228897,0.0034692558048553,-0.0161642278206331,0.0,7.0,1.0283661691194388e-17,6.862267236991832e-17,1.0,0.0916835857512615,-0.1468657151994248,0.4442405051593143,0.999715202130868,0.0045828737230702,-0.0074429893147252,0.0222061659666068,0.0,8.0,5.824808483867763e-18,-3.4202014872932326e-17,0.9999999999999998,0.1426642310854514,0.1193427762175789,0.4819860479951131,0.9996675144346612,0.0071308398643962,0.0057933065571016,0.0240925155596114
1,1,0.1440000000000054,0.0,0.0182569770785642,-0.0302945384757611,0.9791587837151304,-0.3250932170698441,-0.2145949704763657,0.5578625793011016,0.9969749722592582,-0.0420542730777088,-0.0235400267100765,0.0609771264249597,0.1440000000000054,1.0,0.0330634616050522,-0.0307376717078636,0.978586226678401,-0.2525193566138894,-0.4244472717979127,0.2589665832728811,0.9972422943727892,-0.043326583335063,-0.0440992402358374,0.0410593533951392,0.1440000000000054,2.0,0.0285813987715528,-0.0436242942735531,0.9789816262797766,-0.5505475168926098,-0.4235244049685838,0.4249130858635692,0.993425940898729,-0.065741740580921,-0.0450987984164388,0.082152430738594,0.1440000000000054,3.0,0.011642792812143,-0.0166802766418821,0.979362656908402,-0.2190765214546318,-0.2000489039760574,0.5057276951339281,0.9981644802842972,-0.0261176806735151,-0.0183587935735651,0.0514634992352686,0.1440000000000054,4.0,0.0112250643077327,-0.0137106774688343,0.9798040698295924,-0.1482945112955768,-0.2097365350873576,0.6520064489048134,0.9974102345714756,-0.0185349911968181,-0.0198866277453757,0.0665867863042235,0.0180000000000291,5.0,0.0064265028397794,-0.0086837864593731,0.9796429410320776,-0.3117574007258196,-0.1097611428111542,-0.0987963132983431,0.9998205987518252,-0.0135790630770104,-0.0123292934318294,0.004729469416734,0.0180000000000291,6.0,-0.0115689953411218,0.0350304200689026,0.9793477564259762,0.4564629322311049,0.1560169765813392,0.2024753668406035,0.9987397109699716,0.0486976850220167,0.0106118577047049,-0.0059087800068113,0.0180000000000291,7.0,0.0096217668680407,0.0020065896313909,0.9805067032919196,-0.0341185167682475,-0.1285293763493095,0.4046753791411938,0.999004768806619,0.0025248848106012,-0.0136944808034301,0.0423740256979592,0.0190000000000054,8.0,-0.0101193415657134,0.0074227398110302,0.9802588953230538,0.1659348524630736,0.1036966321650257,0.3017555105379743,0.9990608809468758,0.0150343554324461,0.0108912018711272,0.0391497897846903
2,2,0.1900000000000545,0.0,0.030313561683464,-0.0506617534937783,0.9782558329552646,-0.1876807712787883,-0.1648178391727278,0.4209277975091368,0.9949218057720604,-0.0496581744528161,-0.0306093914719871,0.0820227484481657,0.1900000000000545,1.0,0.0528286386878976,-0.0397308097759359,0.9773774080102996,-0.0332876524831182,-0.2162451373730249,0.3820001342727553,0.99586497730045,-0.0429636346344896,-0.0524778743663117,0.0604412589822697,0.1900000000000545,2.0,0.0363721746382137,-0.04568798045706,0.978769468952645,-0.0688570987829471,-0.1714735809391709,0.2483431529580255,0.992099388045544,-0.0646233514008104,-0.0506231075502154,0.0948679486198769,0.1900000000000545,3.0,0.0226660809743639,-0.028402407281319,0.979081994540748,-0.1423104179845614,-0.1603526073975336,0.4449950634275377,0.99644449998343,-0.0319753305452773,-0.0253926203842087,0.073696346716212,0.1900000000000545,4.0,0.0253026855413438,-0.0196917567944844,0.9795866520215264,-0.0501702955641003,-0.2285701741167955,0.7009707024004267,0.9941749109979724,-0.0200190685533945,-0.0300690795181357,0.1015447373986483,0.1150000000000091,5.0,0.020394113966875,-0.0285299385008136,0.9794529711653572,-0.166455197551728,-0.1968183954404878,0.5935721976426142,0.9989307521433158,-0.0222978799108808,-0.0213455948828332,0.0344168934241179,0.1150000000000091,6.0,-0.0169944936302712,0.0611031848331251,0.9784674690501974,0.3366309841559839,0.1022712336685909,0.6369235674144356,0.9975176713438786,0.0640809829186443,0.0133538452429879,0.025957615493194,0.1150000000000091,7.0,0.0170347564678102,-0.0025765411930727,0.9803005551908875,0.0111922608909969,-0.054361443536845,0.3139940624698238,0.9981834219332314,0.0026367107655979,-0.015928135358582,0.0580447968210895,0.1159999999999854,8.0,-0.0108812200171866,0.0190386174123651,0.97903785937928,0.062968699412867,0.0255871830344537,0.0956340404721704,0.9988112107956094,0.0176271999651006,0.0117121416807065,0.0439121025191221
3,3,0.2340000000000373,0.0,0.0406795557252982,-0.0592886545383377,0.9767988683393456,-0.0682627009684454,-0.1669639395950902,0.3563177356964305,0.9929823462425124,-0.0507873689109388,-0.0375287587760973,0.0999914770095192,0.2340000000000373,1.0,0.0586442431834687,-0.0370536409609107,0.9772701164125394,0.1246972436049264,-0.0678812623579397,0.6308368884800492,0.9937356311037614,-0.0356157746657312,-0.0521854359470306,0.0921829287058466,0.2340000000000373,2.0,0.0240841572427568,-0.0068928298142674,0.979739476731982,0.3153534245421681,-0.0556097027182018,0.5974415782880492,0.990042609380423,-0.0440333985214508,-0.0467520726261167,0.1252634628733238,0.2340000000000373,3.0,0.0303829125964495,-0.0314604620415552,0.978767652688976,-0.0534212324051182,-0.1371664383045672,0.3622153421262385,0.9947498220038212,-0.0328748911072594,-0.0309394291816001,0.0918410849237316,0.2340000000000373,4.0,0.0308824742033216,-0.0075428902963521,0.9790660741712268,0.0871691960680359,-0.163535759409541,0.6881059257510356,0.9899855918325478,-0.0141261586347426,-0.0358234854295384,0.1358147911601154,0.1689999999999827,5.0,0.0232045495180316,-0.0219656615972883,0.979344708768194,0.1807920853039509,0.0589400913969116,0.240195586535937,0.998694117985228,-0.0124753072637026,-0.0170266724320375,0.0465243789456189,0.1700000000000727,6.0,-0.0140422686351145,0.0631210541240393,0.9780064147120148,-0.0066790390212429,-0.0496139053641859,0.0701876245706332,0.9976772301754632,0.0606565482794529,0.0101226514907987,0.0292994789549933,0.1700000000000727,7.0,0.0193121689297039,0.0019844639832586,0.980197481140372,0.1067390779255709,-0.0233816009408065,0.1503189801511573,0.9976820598278768,0.0078039230388013,-0.0162276877699894,0.0656221641859623,0.1700000000000727,8.0,-0.0132638652709964,0.0249803792220501,0.978901961654994,0.0746421169981145,0.0065515016539783,0.3686664716277406,0.9977733840097528,0.021031851298827,0.0113750399526538,0.0622618973269019
4,4,0.2930000000000063,0.0,0.0497782800657467,-0.0610582880295591,0.9765131890028907,0.0054733427382221,-0.1522846025545366,0.2769926085006015,0.9913564884585916,-0.0480448700859839,-0.0434704926959234,0.1140803204511841,0.2939999999999827,1.0,0.056163325004528,-0.0256687230262006,0.9777483303911289,0.3193725948402329,0.0589543200918484,0.8102741480905935,0.9899343976395052,-0.0196492424079129,-0.044716110232035,0.1328317173291874,0.2939999999999827,2.0,0.0252562540677254,0.0214323066167803,0.9782186758918224,0.4453786007282322,-0.0818647261930204,0.8166684508355214,0.9849318474570128,-0.017842970072634,-0.0437083091481658,0.1663744812022287,0.2939999999999827,3.0,0.0331307230629,-0.0248710395840403,0.978938091290424,0.0189043420943745,-0.0808115006283488,0.3485573044296737,0.99301081969484,-0.0299264332453178,-0.0330480529528749,0.1092782995759887,0.2939999999999827,4.0,0.0375125657589025,-0.0014602140913365,0.97885886377199,0.0715345371142198,-0.1207874034326717,0.4841910564557264,0.9863151557205778,-0.0090500410174224,-0.039396083922424,0.1598388529896687,0.2900000000000773,5.0,0.0175433192507221,-0.0154225537973825,0.9797164777546788,0.075588639350234,0.0564812563482108,0.0668464106985018,0.9986318500109892,-0.0083860557964513,-0.0132305351407054,0.0498904314643417,0.2900000000000773,6.0,-0.0151725628664352,0.0690307078618583,0.9771128669238548,0.1234354653464419,0.0375933661397716,-0.4120352244894388,0.9978234672302816,0.0639760537430521,0.0133604426956148,0.0087687720338965,0.2900000000000773,7.0,0.0215895813915975,0.00654546915959,0.980094407089856,0.0345873483775508,-0.0350411500499262,0.2482332713750138,0.996759371123785,0.0090660199213763,-0.0174265453487974,0.0780056336228885,0.2900000000000773,8.0,-0.0090332840897783,0.0312273281496888,0.979180909615371,0.0456655368936754,-0.0255062111879555,0.109507475779535,0.9973986504245294,0.0229096700420108,0.0095418376986696,0.067675937254139
5,5,0.3530000000000655,0.0,0.0574129563733864,-0.0602179486307121,0.9764387083187438,-0.0064204838594393,-0.1189905492397409,0.2161283130137133,0.9899300717021317,-0.0460719472996124,-0.0478145211975708,0.1250184001436638,0.3530000000000655,1.0,0.049117287461079,-0.0021148227510997,0.9785014152249334,0.4744570483911999,0.1247829299453075,0.8856088664778844,0.9836345655983978,0.0030793213868666,-0.0335484614275348,0.1769973442616944,0.3530000000000655,2.0,0.0285666516642663,0.0504621576451473,0.977662782895252,0.6096974589243831,0.0835461204790347,0.6949278447771395,0.97894624458211,0.014337852729867,-0.0316609028217903,0.201137424240715,0.3540000000000418,3.0,0.0342796718573917,-0.0186630722535604,0.978562514012982,0.0376172983306729,-0.0348612728658878,0.1699208732067038,0.9921543814479692,-0.0259169199277211,-0.0328919447518746,0.1177969295249117,0.3540000000000418,4.0,0.0433529767227611,0.0082795630722965,0.9786965659716026,0.081989545816407,-0.0913665587495436,0.1687603153891574,0.984861626624802,-0.0029427478402231,-0.0413941881135963,0.1683016275248533,0.3029999999999972,5.0,0.0132868345507274,-0.0113141396623998,0.9797736729833688,0.0767263821532503,0.0379944421340213,-0.137859068445909,0.9990085988998104,-0.0042608834585719,-0.0105529341983013,0.0430383523871106,0.3029999999999972,6.0,-0.0182322376136094,0.0740821833061412,0.9774606977409352,0.0455138296203685,0.0045726266870709,0.0634956879723865,0.9978151072797103,0.0636651414186216,0.0130341675318587,0.0119110003474929,0.3040000000000873,7.0,0.023221664701846,0.0079073495389591,0.9794004431853928,0.0447032926685884,-0.0195599081309912,0.2644289145274455,0.9956166245947916,0.0107251883757544,-0.0177744135806228,0.0911952706374795,0.3040000000000873,8.0,-0.0077162506629139,0.0351269785919731,0.9794220514419236,0.0560590246151908,0.0147330447768691,0.226390552986455,0.9965117900794316,0.025230635992778,0.0097398008101996,0.0789481065020882
6,6,0.4379999999999882,0.0,0.0652292054379094,-0.0622818918116495,0.9756347250432926,-0.0192946491777618,-0.10551515760353,0.1686066740165281,0.9886775089683508,-0.0449046399033025,-0.0516949272875565,0.1335215003960997,0.4390000000000782,1.0,0.0365811111656206,0.0258798020134992,0.978882555853168,0.4922282628861967,0.2367690075277506,0.9781912239278864,0.9738881855669984,0.0246192477922219,-0.0170865985623519,0.2250416468139492,0.4390000000000782,2.0,0.0296375611363531,0.0901167599818996,0.9753463920783496,0.6234748957232905,0.0134518190741232,1.1167818119187196,0.9654459816831128,0.0458334056455241,-0.0246708526500407,0.2553521184724793,0.4390000000000782,3.0,0.0397144342140552,-0.0157795796728009,0.9789482971947024,0.0506645486438127,-0.1017373488145099,0.0403481761020357,0.9918891251693932,-0.0208425273063532,-0.036415922386488,0.1199809694198252,0.4390000000000782,4.0,0.0476417840339019,0.0108442113761012,0.9788660089581706,0.0432705651593267,-0.080689183621143,0.0797098796263381,0.9840998612314088,0.0009471409005347,-0.0431701026712036,0.1722872841616415,0.4230000000000018,5.0,0.0149404166562962,-0.0054669504959669,0.9800494356931242,0.0189235036695848,-0.0113189640816737,-0.1741010682750649,0.9993467441285888,-0.0030186231483414,-0.0108217328523694,0.0343491340785945,0.4230000000000018,6.0,-0.0202515643419078,0.075040734004375,0.9774015359010798,0.012423759350664,0.0541840853333241,0.1588400734275453,0.9977748644765316,0.0618077025987961,0.0150288719349151,0.019981509619181,0.4230000000000018,7.0,0.0272338146075724,0.0087440709551844,0.9789503871826452,-0.0231612268017273,-0.0559988316668581,0.109015076119311,0.9950765297484866,0.00923034477336,-0.0202829944957762,0.0965717392064488,0.4230000000000018,8.0,-0.010359670616878,0.0337253660718938,0.9792033889381851,-0.0631123452545616,0.0242771087727798,-0.2259511342061204,0.997425063387448,0.0210258898442278,0.0106271269570424,0.0677363938768717
7,7,0.511000000000081,0.0,0.0724855306572425,-0.0627845644962876,0.9753296603232928,0.0252854666841658,-0.0925916440483989,0.1435637286540948,0.9876412547335836,-0.0416046915221276,-0.0547276268644298,0.1408498791245813,0.511000000000081,1.0,0.029331880393661,0.0423840440655532,0.9791247283166846,0.3422166575147609,0.1122083473893938,0.7273964522327214,0.9646877412618764,0.0392054376386266,-0.0085089390411965,0.2603230559804799,0.511000000000081,2.0,0.0519593606955266,0.1172376619234001,0.9703270353148196,0.3888161377722829,-0.1498136857581125,1.2293176465246354,0.9469434624891436,0.0664144910057468,-0.0294375158295523,0.3130824602166409,0.511000000000081,3.0,0.0456177821390507,-0.0120253260933865,0.9791850741739592,0.0530040947978191,-0.0823995121509742,0.1162017995401765,0.9911522323474002,-0.0161809030810653,-0.038830349857725,0.1258873886383101,0.511000000000081,4.0,0.054414986387665,0.0147776355032612,0.9780586029197652,0.1006876198283486,-0.11504155404766,0.1908236603199699,0.9822123554910877,0.0075944412419586,-0.0463155296742145,0.1818133243023423,0.4529999999999745,5.0,0.0154155491089884,-0.0076515146132054,0.9800055179282372,-0.0335862407346658,0.0047420668037636,0.0008472604921892,0.9993439785124706,-0.0047666491443049,-0.0103594383919547,0.0343740265753798,0.4529999999999745,6.0,-0.0203173629967287,0.0780027585800307,0.9769302812456804,0.0372285738373706,0.0056737572493849,0.2726779458573313,0.9974340437494452,0.0616406023219043,0.0141212999510957,0.0335611889347543,0.4529999999999745,7.0,0.0273353150937011,0.0128512964391505,0.9786034052304136,0.1136210682648199,0.0326097167205673,0.1994258330895081,0.9940427674117376,0.0143824372918142,-0.017554384639571,0.1066019025809904,0.4529999999999745,8.0,-0.0063898641358142,0.0326289406697681,0.9793995721191092,0.0320917762733876,-0.0266863430071198,0.4024897692320555,0.9958564004106708,0.0224611174459722,0.008329357243153,0.0877277024211593
8,8,0.5950000000000273,0.0,0.0792502335231408,-0.0600650787227161,0.9744114053132596,0.0774891701279544,-0.0449062342703898,0.153327295180279,0.9866866770939074,-0.0361953222595777,-0.0550885178237013,0.1486760071292484,0.5950000000000273,1.0,0.0312232709702545,0.0509273717072443,0.9779271497207296,0.1150617626636815,-0.0233026605325729,0.275773360760766,0.9608098848640536,0.0439246938553045,-0.0087473635448325,0.27356620779668,0.5950000000000273,2.0,0.0596095990054532,0.1321592393633031,0.9694212867259115,0.2161031498193826,-0.0145925246773317,0.5502960085567217,0.9373279165032165,0.0766592803564575,-0.026695488459953,0.3388614504113057,0.5950000000000273,3.0,0.0499222683920872,-0.0086525276410071,0.9788758352743264,0.0603724816142674,-0.0157817102440135,0.0976306730577249,0.9906123937465932,-0.0117818671896907,-0.0378746055639822,0.1308196744168943,0.5960000000000036,4.0,0.058443171396925,0.019751373141565,0.9778697658564214,0.0769302711867036,-0.0123957200645604,0.0769802210125071,0.981524740927984,0.0120772536554583,-0.0443918727785457,0.1857220625601835,0.5750000000000455,5.0,0.0151676569872614,-0.00449973321119,0.9799360665791136,0.0495682984482465,0.0187573599949495,0.028459431802964,0.9993150550802914,-0.0020630792770434,-0.0090793566377409,0.0358152157164498,0.5750000000000455,6.0,-0.020339295881669,0.0789901001052492,0.9767731963605472,0.0120612527389502,-0.011292098807497,-0.1137691531893985,0.9977157510870336,0.0600130125363673,0.013680355841841,0.0278310298621308,0.5750000000000455,7.0,0.0229137023010929,0.0231658419573847,0.978359497328698,0.0416503908987277,0.0553974917752946,0.03414021698677,0.993885443176085,0.0159900651926083,-0.0138890770063636,0.1083657565733967,0.5750000000000455,8.0,-0.0090332840897783,0.0312273281496888,0.979180909615371,-0.0230303290707957,0.014609800423689,-0.0786340264079773,0.9962293511891912,0.020517899433124,0.0088028524965896,0.0838367784444193
9,9,0.6560000000000628,0.0,0.0807636378763669,-0.0546930303887755,0.9753337414566706,0.0983226600417582,0.0086032787732707,0.1579349350034567,0.9857769597744308,-0.0303784572436657,-0.0526773049674215,0.1566717474682162,0.6560000000000628,1.0,0.0329517503860952,0.0579925326228499,0.9776175368243348,0.1038733098239084,0.0053438055104531,0.1189571865112806,0.9589800724588238,0.0476973711324106,-0.0072869296111208,0.2793368612818021,0.6560000000000628,2.0,0.0623754053255935,0.1378537213551687,0.9684604588309216,-0.0191161694119542,0.0051533846166135,0.0080301866452217,0.9373723824710178,0.075717784211098,-0.0247555036559245,0.3390973293517819,0.6570000000000391,3.0,0.0493027637421651,-0.0036943816385618,0.9790575003704802,0.0761636118256487,0.0206106743362455,0.1256964834483094,0.98990679049484,-0.0070662292633786,-0.0350429285578211,0.1371371856729374,0.6570000000000391,4.0,0.0545225259690401,0.0235475471575894,0.9783362444399248,0.0512675805306799,0.0844617802979642,0.0279014152072283,0.9814860879648072,0.0142361077930283,-0.037863153942144,0.1872131777947204,0.6320000000000618,5.0,0.0132455309692038,-0.003076142288815,0.9794080320571008,0.0240017034269812,0.0453502892308487,0.1856184988790706,0.9989610748781032,-0.0009560466944652,-0.0065354084242427,0.045090412393668,0.6320000000000618,6.0,-0.0183857678081914,0.0809935739826711,0.9763611035450032,-0.015492651398664,-0.0267491465252725,-0.0137488328928513,0.9979127914046234,0.0573760989712041,0.0120493816647223,0.0270713209758408,0.6330000000000382,7.0,0.0193427269272987,0.0265071839936307,0.9794004431853928,0.0728736672965116,0.056382084050385,0.2646805938281416,0.9923464967750948,0.0189678413362726,-0.0103930934099974,0.1215756346584714,0.6330000000000382,8.0,-0.0090332840897783,0.0312273281496888,0.979180909615371,0.0161923938308538,-0.0102792998121047,0.1566872139492544,0.9955427206863656,0.0209335642274953,0.0079078211154253,0.0916184672559474
10,10,0.6840000000000828,0.0,0.082905267566538,-0.0492213645892235,0.974645050199146,0.0854285620527681,0.1237947080127047,0.2507072475614991,0.9842377346798836,-0.0265869694946791,-0.0448892988756895,0.1689797784699362,0.6840000000000828,1.0,0.0322299242271046,0.0573139329950039,0.9774816341338384,-0.0533766985586001,0.0428403816579362,-0.02673044313094,0.9595512204880856,0.0430478727585211,-0.0059517277859552,0.2781598692247922,0.6850000000000591,2.0,0.0497128468633598,0.1320863910497708,0.96964262393739,-0.1365313267261573,0.2190264137708385,-0.6509243517126595,0.9488519124945052,0.0659513648832995,-0.0121266892140676,0.3085180854249152,0.6850000000000591,3.0,0.0473412053307882,-0.0027133750976667,0.9786217082577964,0.0047663923069019,0.0770846076956221,0.1000056354528459,0.9893816975721084,-0.0066342716646139,-0.0300724215540548,0.1420404604705582,0.6850000000000591,4.0,0.0486643293967781,0.0192673518600481,0.9789374608199763,-0.0487385864457459,0.1351215376837754,-0.0575457001585573,0.982339003448226,0.0106930013669445,-0.030118649884062,0.184359998251447,0.69500000000005,5.0,0.0123365696453431,-0.0069450114279228,0.9798615085131428,-0.0794669947375842,-0.0566543993686149,0.444257019360491,0.9976804959403826,-0.0051670790519687,-0.0094154865392473,0.0672181368936391,0.69500000000005,6.0,-0.0193625318449302,0.0799918370439602,0.9765671499527752,0.026160732515373,0.0166621569308581,-0.106695166099257,0.9980556416348382,0.0569136662084478,0.0131135081498773,0.0217671014052806,0.69500000000005,7.0,0.0173709695712467,0.0250744656457565,0.979156535283677,-0.0721007594155872,0.0161639942414613,0.2295963568175294,0.9909692278255046,0.0146586299903827,-0.0098837037595688,0.1329188717591361,0.69500000000005,8.0,-0.0095735396905572,0.0293359562191388,0.9795426223552,-0.0555166642021431,0.0514126995769773,0.1260814462291911,0.994989518406134,0.0173382708710712,0.0099346160345975,0.0979619621556021
11,11,0.8190000000000737,0.0,0.0754673695903214,-0.0458144093248011,0.9756796175104496,0.0360688933563868,0.2172045225804765,0.3598720735078557,0.9815702852043076,-0.0264537657007058,-0.0331461805939718,0.1863365347864393,0.8190000000000737,1.0,0.0332668335101198,0.048733375656954,0.9780283103700466,-0.1679279680487756,0.0080212644140656,0.0415098280692195,0.9593475687865748,0.0334259204411146,-0.0083137777786401,0.280117531056161,0.8190000000000737,2.0,0.0435312417293344,0.1157255301417871,0.9724904280592712,-0.4170941902072859,-0.037900762410688,0.2706129106189872,0.9458436260612344,0.0463477160274677,-0.0200588186028324,0.3206701857900596,0.8190000000000737,3.0,0.0412682656333377,-0.0073359948780807,0.9794881895310248,-0.0649297507431633,0.1608100208445761,0.1135856536842444,0.9887721257941624,-0.0105653245939415,-0.0216521722480949,0.1474762374271085,0.82000000000005,4.0,0.0327844541308918,0.0114526427493972,0.9798091735340072,-0.1066806660893162,0.2535504343793353,-0.1651044398889337,0.98421039840918,0.0031668679770992,-0.0171160815361297,0.1761445496270249,0.8179999999999836,5.0,0.0184729323653446,-0.0156726833450671,0.979445821761771,-0.0922994886272552,-0.1051750714831899,0.7835696054193554,0.9941977328038027,-0.0099838605045455,-0.014607974222836,0.1061027695506059,0.8179999999999836,6.0,-0.0194721962696315,0.084928544670053,0.9757817255271096,-0.0558045148780059,-0.030427858139335,0.6565122895363775,0.9970544538388249,0.0531906978157202,0.0095606010718141,0.0544220603541006,0.8179999999999836,7.0,0.017269469085118,0.0209672401617903,0.9795035172359088,-0.0676404732173006,0.0404498890725177,0.4308507388815211,0.98795415875435,0.0105448887240477,-0.0083036406907398,0.1541636632707627,0.8179999999999836,8.0,-0.0141971863349357,0.0252837122178776,0.9790940576863156,-0.0214791144855922,0.0488167629779549,0.2955560320230514,0.9934366874591412,0.0156577354056573,0.0118761768940534,0.1126824731471401
12,12,0.8690000000000282,0.0,0.0623846164385865,-0.0482494808265484,0.9766346027208842,-0.054015951163917,0.3224824340308809,0.613577714860376,0.9758046940808648,-0.0322811324100091,-0.0171794784923743,0.2155643593426516,0.8690000000000282,1.0,0.0239942701828675,0.0319258850107176,0.978754827760596,-0.2830977013702944,0.2131099057210279,0.1184508734000622,0.9581334363818006,0.0153920593195886,-0.0020463868671825,0.2859007081101659,0.8690000000000282,2.0,0.0338888638910706,0.0887340312582728,0.9752260335946884,-0.4730627055264574,0.1521015676176743,-0.0608457360841469,0.947888554630974,0.0217554015580492,-0.018546151927253,0.317316924779222,0.8690000000000282,3.0,0.0240689933120561,-0.0141299154854986,0.9796545457707612,-0.1355420451929093,0.3098822669056256,0.2063016348163874,0.987347118156508,-0.019238868776611,-0.0063077666218382,0.1572760193941826,0.8690000000000282,4.0,0.0162757946798689,-0.0003137993465837,0.9796866846280544,-0.1751076044096286,0.2142123273996503,-0.1275008181741188,0.985442453624962,-0.0074248374377404,-0.0072564855008541,0.1696920322254812,0.8440000000000509,5.0,0.0229782536035936,-0.0114992146486937,0.9799789630006313,0.1921198800147424,-0.0273130784832392,0.8340701098244073,0.9889694918229136,-0.0004022382625897,-0.0146781435740134,0.1473897369192603,0.8450000000000273,6.0,-0.0174067890987687,0.0841279480304865,0.9768272580417944,0.0926672036020082,0.0734818588765397,1.0455710757760703,0.9926359431336078,0.0569424462504042,0.0106331445398902,0.1063878679712422,0.8450000000000273,7.0,0.0144822468976696,0.0142568868125108,0.979953573238656,-0.1061652407279523,0.0235012729081946,0.47046199719892,0.9841260930154688,0.0047203651147167,-0.0078625058773801,0.1772335526942375,0.8450000000000273,8.0,-0.0164811464008222,0.0208586153873303,0.9801904355672104,-0.0932391894995074,0.0507757812753003,0.4089963415536894,0.9909691926443056,0.0103892809746575,0.0134195251476675,0.1330114221243191
13,13,0.8940000000000055,0.0,0.0382772327589929,-0.0564604232354552,0.9772784015112516,-0.1040909610879996,0.3979654288211988,0.8525504835261092,0.9658716794662154,-0.0414670718208624,0.0019000740492535,0.2556731712134127,0.8940000000000055,1.0,0.0130745047311789,0.0108730967380943,0.9799953229956552,-0.4222803445797845,0.1642387701253326,0.6124261024954056,0.9491486529781022,-0.00787580080275,-0.0003175866345725,0.3147295751121894,0.8940000000000055,2.0,0.0214778678894161,0.053238021994334,0.9778718802609347,-0.5349844137172154,0.216439734400756,0.7076894826207453,0.9367349042991217,-0.0066684102993292,-0.014982266825882,0.3496552345562032,0.8940000000000055,3.0,0.0043336881821517,-0.0230468132172612,0.9795728985365348,-0.1809887990915079,0.3436096645798352,0.5392518399333999,0.9825499669737132,-0.0301979671136502,0.0101946461219577,0.1832476858588007,0.8940000000000055,4.0,0.0045672152214249,-0.0053040228967864,0.9797693646395724,-0.0265999419803395,0.1762149305411731,0.5801980063520057,0.9801575352078432,-0.0099179277036044,0.0018927631837583,0.1979627700677129,0.914,5.0,0.7697559163793195,-0.2245266368781668,1.0298532024182934,7.460901374535151,-4.063934093648991,10.748451776159742,0.7285145183839076,0.2864138060623529,-0.2912301572916356,0.54992610747684,0.915,6.0,0.337819822247295,-1.2478420868574056,1.009290787614828,14.726389953735517,17.36140859463538,-111.94208857493724,0.1074303102172912,0.0681162212788056,0.4792266777029305,-0.8684242628019584,0.915,7.0,-0.1644590109111661,-0.65844275655432,1.0603850103011023,-30.436177698939385,-16.18957612631326,-34.8733106981114,0.1414808220915193,-0.2014856020558741,-0.4956004119533332,-0.8329267439674248,0.915,8.0,-0.9098031995489452,-0.605891258080758,0.9247891227040992,-25.25771510145137,4.779693551950968,-147.858608340542,0.0443508144350303,-0.0597707751187403,-0.4335037798505629,-0.8980728993550186
14,14,0.9540000000000646,0.0,0.008790073727059,-0.0646052097853519,0.977690595982422,-0.1032184779989786,0.3930787041716533,0.9454328452207976,0.9525591388623882,-0.0502059243435572,0.020230219117895,0.2995015698873657,0.9540000000000646,1.0,0.0049204845562905,-0.0158566478093252,0.9801761859747372,-0.3379581754172459,0.1076397448730212,0.849146475419479,0.9348908765047872,-0.0252735382409749,1.895372802060149e-05,0.3540343160396307,0.9540000000000646,2.0,0.0075392134060816,0.0276649927750339,0.978728669466658,-0.3642888625618676,0.2649602733126772,0.90987775460954,0.9201158870592102,-0.0266489507139474,-0.0063142066217061,0.3906874948111683,0.9550000000000408,3.0,-0.0179798356417481,-0.0376847672055392,0.9782175544483752,-0.2389325725389076,0.3120615223246007,0.7290468359414864,0.974627154079601,-0.0433516302362318,0.0243221189910281,0.2182452318249935,0.9550000000000408,4.0,-0.0054544634721992,-0.0088385367098961,0.9800398609735514,-0.0560460436553221,0.1666598178418586,1.058122712978539,0.9683916741936242,-0.0136773312028257,0.0101248102522225,0.2488533386977048,0.9840000000000372,5.0,0.0273793714715065,0.0018355832482702,0.9790771168053944,0.2414101329343487,-0.0268911195910984,1.1396842601111423,0.7048357000324647,0.2557508030348301,-0.2772439262594696,0.600777802568486,0.9840000000000372,6.0,-0.0095904621321744,0.0942744806492784,0.9758510876841812,0.1791184823342365,-0.0046029771109966,1.3137911724642275,0.1679490667297802,0.099796318687066,0.4266252361583292,-0.883076844693572,0.9840000000000372,7.0,0.012204834435776,0.0096958816361794,0.980056647289172,-0.0111872280213211,0.0834234221715623,0.6165154317781965,0.1734146425395725,-0.2006966454740627,-0.4526461953453235,-0.8513281623955206,0.9850000000000136,8.0,-0.0169877964265183,0.0197960228408709,0.979406724630914,-0.0166776169174199,0.0390153273616277,0.3170989657342584,0.0598059320593108,-0.0598716123565935,-0.3973609859254475,-0.9137520929599532
15,15,1.0310000000000628,0.0,-0.0193121577913168,-0.0699643547026668,0.976952931124362,-0.0532382438133248,0.3416703095032615,0.8933836992669248,0.9380098199217852,-0.0555639271871236,0.0358074413017291,0.3402470497642367,1.0310000000000628,1.0,-0.0055109039910834,-0.0283133760513399,0.9800494797069056,-0.1178692247590258,0.1529948594977185,0.8805082835328881,0.9185182664838836,-0.0323120488419352,0.0061423578058079,0.3940081180326913,1.032000000000039,2.0,-0.0057789612363975,0.0113057087682655,0.9787358093767056,-0.1507923868784118,0.1825748212840482,0.7693307960773649,0.90454664355862,-0.0342353145948749,0.0014493358069363,0.4249955438438657,1.032000000000039,3.0,-0.0360525761561524,-0.0475850662758523,0.9776174472768108,-0.1775463260734505,0.1534166844877008,0.784468443964315,0.9648881217175396,-0.0510576113472792,0.030621117148488,0.2558249012048814,1.032000000000039,4.0,-0.0140498637028843,-0.0085082514514136,0.9801398935800796,0.0076119653170622,0.0697925522951838,1.243663605586988,0.95134251411925,-0.0127734982509064,0.0139006280807136,0.30755654945174,1.0090000000000146,5.0,0.0214495972917083,0.0156494711369839,0.9791966139796217,0.2044425811609191,0.1388628280846769,0.6138413852684003,0.6955537588074715,0.2292370602849809,-0.2498910428659789,0.633411245160718,1.0090000000000146,6.0,-0.0058588690647414,0.1061801606058707,0.9737702229720282,-0.0401578502110384,-0.0347923770570385,-0.1164135977404734,0.1683518408573129,0.0890356409833,0.3914624298775382,-0.9002707805482861,1.0090000000000146,7.0,0.0082613197236721,0.0068304449404309,0.9795688314857404,-0.0463037444669093,0.0404423999556168,0.7986626704426388,0.2123805712306981,-0.2041688993605282,-0.4075758724247464,-0.8643445272082422,1.0090000000000146,8.0,-0.0184371206163889,0.0254344516547283,0.9790787308753058,0.1453251629883887,0.0138936827706586,0.6332602431783388,0.0899826324390515,-0.0662674875530979,-0.3693816189442038,-0.9225339915357578
16,16,1.0880000000000791,0.0,-0.0395487839247523,-0.0694054215769102,0.9765448177865697,-0.0066318769082565,0.2316057960625489,0.686670998065792,0.9256836009351364,-0.0570289352741773,0.0455124407739436,0.3711956212511822,1.0880000000000791,1.0,-0.0217881530601937,-0.0284801544825702,0.9790378732137356,0.138664449655249,0.1878600524406059,0.8849768222136511,0.9006720196731873,-0.0280387118725454,0.0184160567584392,0.4332027152128893,1.0880000000000791,2.0,-0.0178927145577683,0.0218397412928248,0.97819623617453,0.0985141610071388,0.1401545851091915,0.6920743407038875,0.8897406951649641,-0.028789621472035,0.0119378677592919,0.4554010763889619,1.0890000000000557,3.0,-0.0437665634109346,-0.0561872203154718,0.9769122192911794,-0.1419784439294595,0.06465069987658,0.6844743867426012,0.9553227969805994,-0.0558477046905434,0.0321742707612222,0.2884513888871851,1.0890000000000557,4.0,-0.0199002465890662,-0.0092182797040751,0.9796213572115462,-0.0829131539246586,0.1259082948243873,0.7213248484837588,0.9396224202325214,-0.0175826589305551,0.0186080517927967,0.3412540079028918,1.0690000000000737,5.0,0.0162221958955674,0.028246012193236,0.9791588242749516,0.1737399304277868,0.0140449515046672,0.6882249026638819,0.6800463400084905,0.2071974529922943,-0.2289520627900644,0.6649715361267257,1.07000000000005,6.0,-0.0069672304111219,0.1111024728184711,0.9730337600690012,0.0468110358636603,0.0382886137531254,-0.0569780418827909,0.1688915398099185,0.0842897023167487,0.3539080722812843,-0.9160349175867336,1.07000000000005,7.0,0.002346047655516,0.0025322898968082,0.9788371077805932,-0.0968494606199716,0.0734034972702722,0.4004189175355797,0.2347585608179836,-0.1949834328528643,-0.3660867473581268,-0.8791190888863287,1.07000000000005,8.0,-0.018986729317403,0.0299407680886678,0.979704064764502,0.0275482004440987,0.027392498303793,0.1187572054384686,0.0968290995393644,-0.0605327467070892,-0.339520546387408,-0.9336411037648712
17,17,1.1639999999999873,0.0,-0.055835531992779,-0.0654722274391401,0.97602345299754,0.0428808216827365,0.1012924163974826,0.3478857993382743,0.9192759842791978,-0.0546075178375637,0.0487923793417706,0.386741499507489,1.1639999999999873,1.0,-0.0339686075859253,-0.0083347550392578,0.9799319698617394,0.3944422291452077,0.1569992100093128,0.8042674091335857,0.883163601279667,-0.0116163167808864,0.0338978067692774,0.4676944015651763,1.1639999999999873,2.0,-0.0222719054750066,0.0416038125989942,0.9786480904818342,0.4588707713797085,0.040832341001036,0.6986048755733856,0.8740656963609978,-0.0050542232442829,0.0251375155643821,0.4851306201257671,1.1639999999999873,3.0,-0.0444469266370943,-0.0615244266472967,0.9771387903661578,-0.0517694099609295,-0.0703251427198382,0.4804151881065316,0.9483024019745544,-0.0545913015010201,0.0274643101499502,0.3114290543249023,1.1650000000000773,4.0,-0.0267909604465278,-0.0128918665745915,0.9794702875608712,-0.0685612104664728,0.1112611469805142,0.4448203362034758,0.931709619604743,-0.0215872089279771,0.0223055734286827,0.3618751698316738,1.1449999999999818,5.0,0.0146108617880494,0.0255944898865897,0.979769587609891,-0.0616896511298639,0.038491033050252,0.5018621764431557,0.6710925846140833,0.180648323190772,-0.2133677972036762,0.6866404512703884,1.1449999999999818,6.0,-0.0089207584845995,0.1090989989410492,0.9734458528845454,-0.145669010256491,0.044487669635998,0.403291680310299,0.1907027385281393,0.0872490318823673,0.3247599377930835,-0.9222532487110524,1.1449999999999818,7.0,0.0009181189649806,0.0001914708619301,0.9795310716850564,0.0177591739954392,0.0325862617808026,0.5051002292775132,0.2619419179643976,-0.1873167838181133,-0.3309248515362047,-0.8870104828855813,1.1449999999999818,8.0,-0.0204360535072735,0.0355791969025252,0.9793760710088945,0.0829125229120605,0.0271208224849147,0.1392317309057697,0.1046684145730016,-0.0549108998387219,-0.3142696699870253,-0.9419468618748736
18,18,1.254000000000019,0.0,-0.0600802540801997,-0.0613770353296744,0.976483600785901,0.0458236618319833,0.0218936060532494,0.1099004456607353,0.9174699082073858,-0.0512797640952383,0.0477137424185358,0.3915900306604923,1.254000000000019,1.0,-0.0409632672861908,0.0288445672985193,0.9786005322247692,0.571907808354562,0.115283942852452,0.4552569893071739,0.8723645515079459,0.0128826137218013,0.0511513687976168,0.4860017129662871,1.254000000000019,2.0,-0.019075344625561,0.0805670505739331,0.976271520423101,0.6087731042028703,-0.0923160683044501,0.2203711937267636,0.868668226296639,0.027511054251637,0.0359192726279929,0.4933238899247537,1.2549999999999957,3.0,-0.0422098876243485,-0.0594038443206072,0.9764325417900986,0.0608283510877996,-0.0336494756935128,0.1410629336800581,0.9464405744040884,-0.0490955696078923,0.0255273154868236,0.3181009593361393,1.2549999999999957,4.0,-0.0326413433327098,-0.013601894827253,0.9789517511923376,0.0508250870722156,0.0421555653185944,0.0336035548269184,0.931142586252508,-0.019038510426362,0.0242919904674508,0.3633468293337166,1.1739999999999782,5.0,0.0139075445878648,0.0153781724856797,0.9794059893703618,-0.1707166884606623,-0.0023394877283382,0.435317378358326,0.6630011480133061,0.154709622708643,-0.2031061904455491,0.7037345279131073,1.1739999999999782,6.0,-0.0028627782997042,0.1062233468463478,0.9736233384041114,0.0084474745900878,-0.0609693125291764,1.0455561213299756,0.2435380111030378,0.0971224118101005,0.2856862129613988,-0.9217591127816096,1.1750000000000682,7.0,-0.0009181189649808,-0.0001914708619299,0.9802250355895196,-0.0427028194111534,0.0144501754670342,0.3004019552963543,0.2790179951702765,-0.1766833938017221,-0.2975702426329149,-0.8957588332945722,1.1750000000000682,8.0,-0.0200187355692656,0.0406109597247276,0.978663885190643,0.0667389367948754,-0.0136749553777293,0.3176869380227175,0.1201635930950224,-0.0544253869079761,-0.2899146885952364,-0.9479177503829844
19,19,1.3350000000000364,0.0,-0.0601935253453281,-0.0568118647879796,0.9761009945317204,0.0949724816864395,-0.0483035734131152,-0.0917305852936717,0.9198324728130538,-0.0449340594024544,0.0440633653618995,0.3872306445740358,1.3350000000000364,1.0,-0.0480798429235626,0.0617940947024684,0.9769625471656258,0.5331246595916306,0.0929960353405094,0.1394024987279703,0.8682825600005455,0.0343963285364895,0.0664625113435815,0.4903927234044292,1.3350000000000364,2.0,-0.0095468035343925,0.1174919364040194,0.9717152378255212,0.5358429023617317,-0.1333717073803416,-0.0568678492217837,0.8692808066439778,0.0562155258498039,0.0432893847419063,0.4892000848553611,1.3350000000000364,3.0,-0.0411668276587707,-0.0554290996567124,0.9760957469489144,0.0941846072983672,-0.0010793558377606,-0.0615154982575458,0.947751845026073,-0.0431399865600085,0.0253804028392139,0.3150574819949461,1.3350000000000364,4.0,-0.0314835008577315,-0.0108981734660415,0.9795427601635598,0.0956806140801422,-0.0291973165488861,-0.0866565953507289,0.932865621465941,-0.0133478628919209,0.0234732331251937,0.3592110440532591,1.3519999999999754,5.0,0.0158080743986333,0.0066399160167257,0.979230318310814,-0.093369397014991,0.0040950863613069,0.3281124547765707,0.6565391253004608,0.1344212684641471,-0.1898658858696315,0.7175222957630901,1.3530000000000657,6.0,0.0102080132218848,0.1024611211208745,0.9736151781503384,-0.0100799357864665,-0.1084440913095326,0.7641889301751575,0.2838782980937011,0.0964017098792889,0.2505454114320365,-0.920514431725068,1.3530000000000657,7.0,-0.0052699429165107,-0.0010990302466604,0.979737219786088,0.0694195488666485,0.1002337154307433,-0.5059514503518417,0.2619619750598951,-0.1477368881923464,-0.2774433146115196,-0.9124554469492384,1.3530000000000657,8.0,-0.018569411379395,0.0349725309108702,0.9789918789462508,-0.2255358388839712,-0.026414097542884,0.2179171179504096,0.1301528105210635,-0.054466641974612,-0.2537670922465553,-0.9569200038238336
20,20,1.3590000000000373,0.0,-0.0543518918383865,-0.0467225433585403,0.9771406632597468,0.2147093081628227,-0.1089516717506106,-0.2377276819935143,0.9252375693532808,-0.0321941756938762,0.040008830207866,0.3758966198491587,1.3590000000000373,1.0,-0.0440532298961625,0.087340339853507,0.9751804848180616,0.2426139253518484,-0.1765603988015566,0.0013996284948367,0.8685118954688988,0.0486011664234043,0.0622462710454352,0.4893367100394605,1.3590000000000373,2.0,-0.0098110153891852,0.1458245364034277,0.9692264691803244,0.4701678528686662,0.0399453219506466,-0.1102607218692407,0.8703825739708427,0.0760839293247733,0.0567056849719484,0.4831458122743647,1.3590000000000373,3.0,-0.0412333749696153,-0.0424040343912713,0.9781797926025456,0.1667617965830232,-0.0015096368052611,-0.135649843435902,0.9502953296224778,-0.0337644151386896,0.0264785913510958,0.3083790443076674,1.3590000000000373,4.0,-0.0304609554948553,-0.0024750329820946,0.9796142120253654,0.1727572419227088,-0.0375580218437044,-0.1063850684767594,0.934922147243362,-0.004063028149569,0.0238530771926805,0.3540269779332609,1.3880000000000337,5.0,0.0186804653220753,0.0008471968598737,0.979670517303053,-0.1294512263276841,-0.0936076620440747,0.0287975873160469,0.6589628050925647,0.1211984996785575,-0.1802814812625544,0.7201232760395851,1.3880000000000337,6.0,0.0202169153236158,0.1016177337305798,0.9732826478090824,0.0030160057476801,-0.0629280823882959,0.7773447480687071,0.3237144234291587,0.0962234370120335,0.217623699271966,-0.915745569330643,1.38900000000001,7.0,-0.0100987113010893,0.0019800029591504,0.9801872757888358,0.0680292730740951,0.061968453269116,-0.2792441510412403,0.2531682011057729,-0.1262548332132563,-0.2568210473597259,-0.924125818637383,1.38900000000001,8.0,-0.0139270585345462,0.0262293981831526,0.978913201316401,-0.1863500893892665,-0.0337157913028861,0.3289784313245286,0.1455956249793009,-0.0560253733405755,-0.2215625658669575,-0.9625866719082422
21,21,1.4189999999999827,0.0,-0.0414013551231176,-0.0334011680529999,0.978048715436335,0.2126457558426016,-0.2205714650099204,-0.422131037017744,0.933840786110445,-0.0181158477993192,0.0306091129206667,0.3559161199796207,1.4189999999999827,1.0,-0.0118947355954265,0.0899516305402926,0.9752918637147844,-0.0501918404198739,-0.6772407311517161,-0.2841351066334617,0.8775275424634712,0.0608813015355718,0.0286912540929356,0.4747796239097989,1.4189999999999827,2.0,-0.0115143477669897,0.1713545715826376,0.964719145965929,0.3330093983547999,-0.0049777583618292,0.0622615398083078,0.8676019233340206,0.0906010164928227,0.0633579855753121,0.4848134941412152,1.4189999999999827,3.0,-0.036418117262874,-0.0345623958080665,0.9787472408804196,0.0922791531721561,-0.1135871969794696,-0.190861083905394,0.9535542021723457,-0.0267372673814126,0.020800049776801,0.2993106412771166,1.4189999999999827,4.0,-0.0165719881985568,0.0136420524132664,0.9801939928468754,0.3015885213957452,-0.3880730052155982,0.2879267849617722,0.9300765441959966,0.0179298894220744,0.0095359572689391,0.3668040437627559,1.4519999999999982,5.0,0.0203331030111169,-0.0047392782070648,0.9794253948943816,-0.0834573376780611,0.0586865172551566,-0.3686125045482732,0.6762622302612277,0.1086604111907545,-0.1625686020494522,0.7102350037766749,1.4519999999999982,6.0,0.0351995838214859,0.10396630204207,0.973220425874062,0.0075631678875755,-0.1215194552503282,0.852869151574817,0.3671348175048191,0.0923745930446817,0.1852328988446246,-0.9068449335587369,1.4519999999999982,7.0,-0.0143490347664906,0.0051796690583862,0.9793524780331726,-0.0528918922457246,0.0825707117882103,-0.584816486196479,0.2289507829946248,-0.1028090055651533,-0.233599462821302,-0.939384446491665,1.4519999999999982,8.0,-0.0052013146460979,0.0196471375261463,0.9796448010952648,-0.0477768620138635,-0.1507564908665624,0.3466397135857512,0.1611218446307311,-0.0620997694664207,-0.1991842557322294,-0.9646289452859091
22,22,1.4990000000000236,0.0,-0.0222801901330179,-0.0166294804585438,0.9790934855810836,0.4231085691318529,-0.3779148629392989,-0.6639652613093184,0.9459705362406456,0.0082243401962091,0.0181813589888976,0.3236379813591714,1.4990000000000236,1.0,0.0576988159100073,0.0673067789308997,0.9762656626925532,-0.485835230621905,-1.5739364417100026,-0.5484986773567442,0.892277572088109,0.0738473243031707,-0.054926041102389,0.4420072816715019,1.4990000000000236,2.0,-0.007458394010323,0.1884067968524347,0.9619315210858784,0.2160831567959152,-0.0988335734976239,0.2180886040937709,0.8617094400233379,0.1021808458172199,0.0619367203018359,0.4931325971794961,1.5,3.0,-0.0336703067964235,-0.0279729733505516,0.9789176794818676,0.1257714322705144,-0.0995594144621092,-0.2952181748709087,0.958163347722014,-0.0187266441256149,0.0167608422929122,0.285116442962464,1.5,4.0,0.0238807302229524,0.0467408459413858,0.9779473421635244,0.620089471143025,-0.6683822435846593,0.3367723886312002,0.922820153728362,0.0598052801960266,-0.012160568790133,0.3803661563548178,1.4700000000000273,5.0,0.0149620834961708,0.0481239178901058,0.9786287470661998,1.0953892272390753,0.0407795962566632,-1.3052317943114735,0.7198271817906406,0.1492725718129149,-0.0947672586378298,0.6712568020884203,1.4700000000000273,6.0,0.0246942264790182,0.0799538018297411,0.9765426691914556,-0.6841186963894376,0.3878758340118946,-1.2997302545237095,0.3105289678144492,0.0781532309475796,0.2070630281699472,-0.9244396870567808,1.4700000000000273,7.0,-0.0284229724247343,-0.0110350950651426,0.9792769584318044,-0.4245857339617457,0.2311241818440618,-1.0115142494410374,0.1837407553557201,-0.0725088587560101,-0.1938379388919703,-0.960941545396661,1.4700000000000273,8.0,0.0006108814879967,0.0107175783837856,0.9803385947403044,-0.1802928683657656,-0.0622673300785624,-0.3179125324858357,0.1453166852208106,-0.0569815303642886,-0.1735130653756635,-0.9723833515325734
23,23,1.59699999999998,0.0,0.0015519416461475,0.0204105720425102,0.980124992042354,0.5679386898373522,-0.3925641265055967,-0.584668447726316,0.9547599629369148,0.041330484859172,0.008246431317751,0.2943759510634802,1.59699999999998,1.0,0.1540548789207196,0.0417799370909633,0.9672163827900132,-0.3482022693333704,-1.364330184017087,-0.4960816271779781,0.8992023248916815,0.0875470494487526,-0.1222943877438557,0.4108707531189922,1.59699999999998,2.0,0.010167296849402,0.1920896271704592,0.9606004378555582,-0.1017003501265007,-0.6032958670610149,-0.1590072375192629,0.8679577785921823,0.1106957643258377,0.0323622908341843,0.4830615121013126,1.59800000000007,3.0,-0.0197774910152771,-0.012514976863933,0.9787176437580124,0.2650164448811226,-0.2639695024256238,-0.0801797849689518,0.9596402401029724,-0.0013395019895914,0.0069724785070498,0.2811408896852213,1.59800000000007,4.0,0.07568167990573,0.0820392077447587,0.9738623371499994,0.633557286468237,-0.9720856094663148,0.537402296747784,0.9088294019438508,0.106026617374264,-0.0478899587713304,0.4006170570750004,1.5930000000000746,5.0,-0.0081400808519937,0.0843371246595541,0.9766555116763956,0.3149650862177535,0.0658624611747896,-2.078223745544838,0.7892547946484972,0.1575147559668621,-0.0515680471502599,0.5912754918734303,1.5930000000000746,6.0,-0.0331346761676156,0.0052910464473954,0.9800485182187452,-5.057305521895559,0.3593788998215836,-4.020358094878507,0.1478406393206869,0.0087596650473507,0.4436536766497291,-0.8838765914021518,1.5930000000000746,7.0,-0.0457910373873709,-0.050410157517401,0.9778788252713416,-0.6456536489886198,0.2919938989210878,-1.3873259491777816,0.118822874658877,-0.039133905981979,-0.1440472725929495,-0.9816313183262476,1.5930000000000746,8.0,0.0096403587519172,0.0059097830761448,0.9797439144731276,-0.0691277279491511,-0.2086738342577571,-0.5796631004589687,0.1157225573415222,-0.0569809378691148,-0.1568907216144479,-0.9791561488920916
24,24,1.6310000000000855,0.0,0.0348009735061549,0.0560984843963796,0.9779170988848968,0.5177238623412027,-0.5841068441416872,-0.677953966775968,0.9628484189658952,0.0736334374802618,-0.0114659399893866,0.2595564894196941,1.6320000000000618,1.0,0.226895914443732,0.0364829295852132,0.952617572721406,-0.1333355519274392,-0.9952356330317024,-0.775675074885661,0.9089081472315308,0.1043331935910458,-0.1636286246463669,0.3690883875274016,1.6320000000000618,2.0,0.0803194159887408,0.1748946600077353,0.960715696403471,-0.3587598283730626,-1.5629238476921583,-1.1666763871961925,0.8980578228831667,0.1287164146904726,-0.0415431068904808,0.4185670813829763,1.6320000000000618,3.0,0.0008921408839875,0.009803651664995,0.9795208484247157,0.4069221456501635,-0.355311738106295,-0.5917236709170621,0.9674310156295534,0.0237600393679259,-0.0044066700798934,0.251978712962053,1.6320000000000618,4.0,0.1258725267071387,0.1102136153474025,0.9649135018292652,0.1496128274679961,-0.6616395949331426,-0.9260866566284448,0.9243088631560208,0.1254203893977005,-0.0684165153061532,0.3538955097877292,1.660000000000082,5.0,-0.0158680703052787,0.0748606113498882,0.9773438971074142,-0.6943075366544721,-0.205696453121369,-1.1067539382588203,0.8286335120020969,0.1245256429445736,-0.0652319095095327,0.5418529920726205,1.660000000000082,6.0,0.0099358897363593,-0.2259057823522982,0.9532165837809072,-2.336983959069072,-0.2941976813763131,-0.9473141339148532,0.1151076772935809,-0.0427514359787859,0.5166361821791748,-0.8473544669222881,1.660000000000082,7.0,-0.0539150867237981,-0.0612980330168783,0.9763123038105312,0.2195491484741394,0.0035320595660725,0.4319782194005627,0.1406447764069799,-0.0348026545532861,-0.1366375879854169,-0.9799683625786104,1.660000000000082,8.0,0.0267417397409713,-0.0106289422918892,0.9796284524968544,-0.2703489667955918,-0.2214691561489261,-0.9529040571250056,0.0672295903145027,-0.0564636724391501,-0.1319610263389616,-0.987359267646988
25,25,1.6929999999999836,0.0,0.068973074725119,0.0844165610943813,0.9737512819893804,0.3471491829180441,-0.6448087460130707,-0.867285315016299,0.9712315043521128,0.0969472653078743,-0.0351966912366204,0.2146433917670203,1.6929999999999836,1.0,0.2717565275007914,0.0517066725564391,0.9400174518453648,0.0546510513988797,-0.8354017854992699,-1.303393156951009,0.9249593144749194,0.1299976367065072,-0.1880239248547335,0.3036410458074329,1.6929999999999836,2.0,0.1868500319813191,0.1709281332739302,0.9472437061306184,-0.2473145129836598,-2.0641454455486583,-1.7358325106716586,0.9255044679154696,0.1620436097254181,-0.1287050437665104,0.3172039724289732,1.6929999999999836,3.0,0.0262926587192479,0.0327677605127871,0.978840114609352,0.3103979240645166,-0.4098635293049739,-1.0758413992129725,0.9789792889320916,0.0438834441751823,-0.0186372441368065,0.1983089718099636,1.6929999999999836,4.0,0.1419033264572872,0.1194492394250777,0.9623218407274808,-0.3292177632612531,-0.2052401748565552,-2.3744898012485978,0.9625566087804324,0.1161950542965067,-0.0675078396667777,0.2354276445825133,1.6829999999999927,5.0,0.0073955307028708,-0.0400392418473856,0.9786961557285844,-2.069065189605643,-0.6359721667599195,0.0103125844717296,0.8384289140224321,0.0408674306091699,-0.1425088695181807,0.5244597518925737,1.6829999999999927,6.0,0.0628843301249229,-0.2303954411806293,0.9494343061570518,-0.6500292907520319,-0.4183959782949769,1.0086325257475035,0.1681546161311399,-0.03855936065949,0.5107885342821007,-0.8422186616462874,1.6840000000000828,7.0,-0.0522911199256813,-0.0129481797776225,0.9784697151252892,1.0768747878170912,0.1188541666909337,-0.244349964854296,0.1314795720165657,-0.0142124463611889,-0.1746832110108249,-0.9757032870200442,1.6840000000000828,8.0,0.0479788235491781,-0.0369733929341002,0.9786506019544348,-0.3652319126452895,-0.4097774374941547,0.2126876064591228,0.0746253772039726,-0.076650446211337,-0.1000908882017061,-0.9892105823694776
26,26,1.7630000000000337,0.0,0.0902781462951089,0.1082257276918067,0.969254893290252,0.2108979999026035,-0.2960314000410621,-0.6231341824449423,0.9761402602154068,0.108164884470234,-0.0437834908966295,0.1831216974556652,1.7630000000000337,1.0,0.3015083861725103,0.0871130446673362,0.9289623299770744,-0.4050427299474951,-0.4893046404031593,-2.491932243188484,0.9555090096966024,0.1365012759473219,-0.1936247750819488,0.1757252984855509,1.7630000000000337,2.0,0.2583154762300597,0.1958713054489397,0.9250732654453728,-0.2657560046802228,-1.491619214048601,-3.1613079562621724,0.9564053092646432,0.1883293372434521,-0.1691399157793731,0.1456455767745493,1.7630000000000337,3.0,0.0463144322704388,0.072940196386119,0.9745617995358844,0.7818742528855273,-0.3958867355680478,-1.5894036380373384,0.9888623384085576,0.0874962239353446,-0.0231771760020131,0.1181461171041493,1.7630000000000337,4.0,0.1226119202087109,0.132242190528276,0.9618951710384118,0.1318209464283922,-0.0910807099953905,-2.8644066916586723,0.986207789445243,0.1286352158277577,-0.0490708635602155,0.0918652689318876,1.83400000000006,5.0,0.0114135127061581,-0.1360426412281098,0.9703773139843006,-0.9188943678498436,0.4678131051174194,-1.0251454440047394,0.8700613552293046,-0.0137038049357419,-0.1363671526752361,0.4735075960722044,1.83400000000006,6.0,0.0308845913758941,-0.2044350616365811,0.9579240301762928,0.7080656063848231,-0.0663656349493123,-0.9048737719564076,0.1358087725470646,-0.0609851958753635,0.4459926374732473,-0.8825686095159739,1.83400000000006,7.0,-0.0491475094643027,0.1286764070318307,0.9698329261201822,1.99224760034498,-0.1438121115513802,0.6872622516517631,0.1654043703250589,-0.0064892914388158,-0.2625973992798259,-0.9506008043681978,1.83400000000006,8.0,0.0660713836521018,-0.0457602041652914,0.976315817743955,0.5001702793572615,-0.6196076242054338,3.737442195711114,0.2633118284199464,-0.1196327140606194,-0.0996711117536228,-0.9520612187367112
27,27,1.8530000000000653,0.0,0.0947494109127864,0.0950001944989513,0.969559958010252,-0.4126723596409988,0.0090498901141782,-0.5768084819618621,0.9835198839602274,0.0838251102787849,-0.0441361248966324,0.1539934778512356,1.8530000000000653,1.0,0.3223222814696854,0.0692701601222245,0.9222233958129764,-1.121735641534092,-0.444514195316722,-1.5660911911664834,0.9688167910186256,0.0934186701959399,-0.2128738091190007,0.0857421651835433,1.8530000000000653,2.0,0.2398472557217894,0.2084615605886454,0.9257138173753664,-0.9002168912889741,0.2122157868668683,-2.443297330360191,0.9779055669977024,0.1552669283927517,-0.1384734493681403,0.0204447255415972,1.8530000000000653,3.0,0.037544011444525,0.1051403913542009,0.9740851838060872,0.2213560111676445,0.3425881058450216,-2.367809542054309,0.9954086209461956,0.095400423093669,0.0076920879941202,0.0011262334717101,1.8530000000000653,4.0,0.1158257684374884,0.2039082621362254,0.9518990555717816,1.1463891418659211,-0.4951827386513132,-2.565719293856932,0.9800980669768428,0.1901995605968719,-0.04329705402592,-0.0368411640653414,1.897000000000048,5.0,-2.890785708800081e-05,-0.286169783179027,0.9368078001167606,-3.7426207756056886,-1.2822182495389605,2.5731557839373216,0.7917633961694904,-0.1598730366957519,-0.2476571026334392,0.5349928000814994,1.897000000000048,6.0,0.0358758613116056,-0.2064957216782236,0.9570070216585352,-0.162065558980258,-0.0481716877704495,0.2198332060576363,0.1474956034200058,-0.0568161761366656,0.424057965642907,-0.8917352807171951,1.897000000000048,7.0,0.0544111756197103,0.2258653201837322,0.951641887006862,1.889670178859942,-2.4706452562123724,0.7384439893557246,0.1710428945351478,-0.1188793840123858,-0.3583975255585527,-0.9100347432704868,1.897000000000048,8.0,0.0787673261104195,-0.087027070751526,0.9730205533768664,-3.541242864801199,0.5223298429646377,-3.2151760334068182,0.0961741216590909,-0.0896450093059359,0.0707529656829866,-0.9887913472905712
28,28,1.8840000000000143,0.0,0.0824233599376645,0.0952511471641744,0.9709761112923918,0.0285687524963277,0.2147385507545257,-0.6640591057996302,0.9886739371237184,0.0820779402684833,-0.0295410516643503,0.1221244612685479,1.8840000000000143,1.0,0.3150415462611706,0.0408048112153737,0.9264322919194083,-0.6446790743387875,0.4499922261448638,-0.5398631764203922,0.9790878777208716,0.0598484920138824,-0.1863894705843351,0.0553538703163083,1.8840000000000143,2.0,0.2141982031082253,0.180446832444955,0.9397957599637218,-0.6597109142589926,0.3682061532245432,0.2864740780289659,0.9856858125153444,0.1142891675443921,-0.1194458104907126,0.0330781429979296,1.884999999999991,3.0,-0.0308712498286513,0.1445703546044243,0.969224111598328,0.9186974066228591,0.6833861605920651,-2.099000599888946,0.9838966452708652,0.1369458737580897,0.0564888821773187,-0.1000111257597253,1.884999999999991,4.0,0.1009247474190945,0.2656780331266663,0.9370850431376748,1.1672695526750645,0.3821757093576582,-1.7317065057243246,0.9628458182854884,0.2445331790725842,-0.0070083337439541,-0.1143780477230531,1.94500000000005,5.0,0.079331558946721,-0.2352610796696915,0.9480425771808638,1.7506455321483485,-1.809065600092881,1.5348017752470713,0.7420897155660031,-0.0576116257793729,-0.248868540073021,0.6197162289210675,1.94500000000005,6.0,0.0380132834715442,-0.2484878567986582,0.947410563221311,-0.6253843433721743,0.1547144129645368,0.2753428637572264,0.1557968437970631,-0.047270136513776,0.4272262585671577,-0.8893652802125517,1.9460000000000264,7.0,0.1699146774080603,0.2693619920573962,0.9267826711997728,0.0018481819718128,-1.725619807187711,-0.2622476939214134,0.1304311631382815,-0.1870183634992253,-0.3544378060018353,-0.9068548313115348,1.9460000000000264,8.0,-0.0541909074916504,-0.3707819032701058,0.9052392643675092,1.7215824142852263,-0.9428200931979424,-0.4526350491624012,0.0869148048922666,-0.1214019153680376,-0.0088544125299389,-0.9887512280721884
29,29,1.965000000000032,0.0,0.0690457627639179,0.1002855287839062,0.9722779928399496,-0.3353182575126072,0.2223783867703301,-0.7927019166402414,0.994421160268494,0.0624397570138145,-0.0179370533982095,0.0831029173357228,1.966000000000008,1.0,0.2542674703800415,-0.0135099152656079,0.946492755226394,-1.5606080913171374,1.1751197801686757,-1.4392215024342012,0.9915601500253104,-0.0138165127337346,-0.1261806671376543,-0.0263820412091107,1.966000000000008,2.0,0.1820773283880648,0.0858172237867976,0.958834840099478,-1.627205243949244,0.9190850270698842,-1.1124509087373562,0.996655319404728,0.0308307904278053,-0.070946375755342,-0.0263485944793617,1.966000000000008,3.0,-0.0410542639995442,0.182090992320744,0.961841160443398,0.4567916923391858,-0.0649578340868855,-0.2971474644307643,0.980027757921051,0.1539732387367824,0.0488545858125104,-0.1159787260760839,1.966000000000008,4.0,0.0680472556075983,0.3603779866108277,0.9083624154326292,1.2434314462855194,-0.5058858582507125,-0.9633393171456844,0.9411546850523388,0.2938964814963987,-0.0285220304846846,-0.164436038462073,1.969000000000051,5.0,0.1140164398910036,-0.2559056517096219,0.9384633977186616,-1.9135989708050776,0.1554058178456845,2.521303370512122,0.6632582238926624,-0.158556353527454,-0.2725193328682999,0.6787353124803842,1.969000000000051,6.0,-0.0050013398446413,-0.2950375344539096,0.9345704039092596,-0.7251147630643575,0.3947943487636131,1.4093904956194765,0.2105667697037059,-0.0036347263674895,0.4400439513583596,-0.8729316955717105,1.969000000000051,7.0,0.219797561995464,0.2746573405493139,0.9147138224730336,1.5439854525137593,0.718683972187491,2.9699625166090624,0.2975235576970296,-0.1808066193548601,-0.371631347088694,-0.8606270044995169,1.969000000000051,8.0,0.0889640161041448,-0.1663663012130695,0.960438263325292,4.850500449000251,-4.191106260656112,0.4199796710355256,0.1421413880405448,-0.3017332639411895,-0.2726435055121844,-0.9024513184318204
30,30,2.0289999999999964,0.0,0.044684118288642,0.0791099012652589,0.975124583371052,-0.3984729007496597,0.3291635001486854,-1.1452690780388644,0.9988467919698456,0.0400439514300393,-0.0009628705772762,0.0264696242071575,2.0289999999999964,1.0,0.2178480219647837,-0.097848260137736,0.9503225543540724,-1.792649761577309,0.4831808535599308,-1.960640899588662,0.9809545258309508,-0.0925708130802833,-0.1063653990258335,-0.1335861695966516,2.0289999999999964,2.0,0.110998352669311,-0.0139580453260461,0.973656273371345,-1.680163912254957,1.3011600820613738,-1.7373718612064026,0.992069236675242,-0.0489184477312041,-0.0063085474019189,-0.1156106281612968,2.0300000000000864,3.0,-0.0660437518937393,0.199312917483206,0.9570525501560146,0.2254792826168653,0.4769635699891312,-1.2252148309463098,0.968974911494869,0.1596016483456763,0.0776798112808269,-0.1719906441008609,2.0300000000000864,4.0,0.1161185788699465,0.4184292967447585,0.8785598438734329,0.6928854376538005,-0.743023929117846,-0.1669251624469126,0.9302153211271906,0.3116213190617529,-0.0725565316370283,-0.1797975516052858,2.1130000000000564,5.0,0.0252371899279312,-0.4092750043139672,0.8898106849708786,-1.8901663136790143,0.6253957350931239,1.3652453958523687,0.6130189810919581,-0.2552146963303251,-0.2900970060017778,0.6891421585614987,2.1130000000000564,6.0,-0.0723774803792642,-0.3443416300862024,0.9141850699522094,-0.5921501886672571,0.4232722326693113,1.8342559227416653,0.2847667709558518,0.0486663315335009,0.4454283462365401,-0.8474273200124184,2.1130000000000564,7.0,0.2387032136268383,0.290858229164733,0.9045105120071164,-0.6046967424930909,-0.6531266865362844,2.8271386992132403,0.4066172524400515,-0.2666778930120305,-0.3044070291299949,-0.8190736670245344,2.1130000000000564,8.0,0.3455315106989073,0.1777854201304853,0.8983197200903238,4.835725789235786,-0.728507108486077,0.983383206608852,0.2564044379304234,-0.2808042150361378,-0.4793127775507745,-0.7909898977256813
31,31,2.0930000000000746,0.0,0.0258496711767123,0.0541333913268615,0.9780293300527898,-0.643266620745706,0.0869632415111277,-1.2630704462624818,0.9993094525978466,0.0065407142104651,0.0018031144472861,-0.0365319830354062,2.0930000000000746,1.0,0.2047541783063083,-0.1581216968260768,0.9455618728877294,-1.4498442206708682,0.7277177052026131,-2.546955049220724,0.9507595070120476,-0.1424846202621548,-0.0779228043472244,-0.2639744862247525,2.0930000000000746,2.0,0.0444102913001654,-0.0929444369713291,0.9747425596857444,-1.533707085974612,1.1113749342211618,-3.012040800367456,0.957610387851634,-0.1144830214554023,0.0374528663440794,-0.2616739682882071,2.0930000000000746,3.0,-0.121748798963723,0.2094142043578304,0.948282616609662,0.281080564349286,0.6157262165111211,-1.1835419270761411,0.9532674272440316,0.1692142300269535,0.1110988091801887,-0.2242873405047068,2.0930000000000746,4.0,0.1151997696623552,0.443818411888398,0.8657321931975271,0.2412202923167071,0.2834225898225464,-0.2577478631810406,0.928086981320411,0.3172622142514026,-0.0602675847167705,-0.1853835503605188,2.1299999999999955,5.0,-0.0346654028316481,-0.4053919602680538,0.8910761294056442,0.8148310234013234,-0.1548063955301555,2.2369161883318243,0.5479015597355074,-0.2514337224888702,-0.2245733907050501,0.7656054834064505,2.1299999999999955,6.0,-0.1602211561795741,-0.3828753059790569,0.8879620944521923,-1.1306382861613156,0.7238840574707939,1.5900929010627145,0.3426914333267625,0.0938973830085776,0.478001718715519,-0.8032809097031993,2.1299999999999955,7.0,0.3196371372874734,0.2331661916960382,0.8966156520586932,-0.373881178980902,-1.439556515344659,0.7907010193019377,0.4145958763390489,-0.3300981813123088,-0.2949676580384932,-0.7950720286415871,2.1299999999999955,8.0,0.2942478133807346,0.2610475968252153,0.8976933644137268,1.08319599531335,0.5512013373771413,-2.6653318842479314,0.1868992404647275,-0.1703265900371632,-0.5208305882197978,-0.8153484071331957
32,32,2.197999999999979,0.0,0.0039498780654089,0.0033742610120135,0.9800066391743943,-0.6770106961331754,0.49961142019733,-0.4646240715331237,0.9975094878586228,-0.0268517103335389,0.0269437038485771,-0.0593956573085221,2.199000000000069,1.0,0.1881421506079326,-0.1942680983893055,0.9420294247595586,-0.897327887697419,0.7661830721435351,-2.486121858840652,0.9081291039825832,-0.1605878294124803,-0.0497016588555432,-0.3834616338714809,2.199000000000069,2.0,0.0192973710307722,-0.1735481739804914,0.9638623567602056,-1.1307756981245105,0.6264656107280094,-2.785327418349864,0.9061715058373744,-0.1593561888424325,0.0557347464522099,-0.3877530723591351,2.199000000000069,3.0,-0.1722495340257358,0.2112352652779446,0.94104663047634,-0.0277982139032937,0.7443049321442141,-0.5542958809597807,0.943791951984564,0.1688076991554581,0.1463045851172341,-0.2436302125120787,2.199000000000069,4.0,0.0354603018649527,0.4255796040275748,0.882040570284258,-0.8893131452317582,1.626400219856871,-1.063779601763618,0.9356474594018432,0.2821152930909075,0.0393176579372112,-0.208396052969916,2.1779999999999973,5.0,-0.0815977059751209,-0.3605189247532634,0.906398322634342,0.0747827921917627,0.3043261964728245,0.7449155959710511,0.5266907623713376,-0.2594438420752785,-0.194678697674057,0.7857391032103788,2.1779999999999973,6.0,-0.3256021195491775,-0.3622355830857857,0.8498027077454999,-0.4011292277413607,2.432628759145067,2.068721342186459,0.3786170282480353,0.2348984743375903,0.4977638097975149,-0.7441122511626604,2.1779999999999973,7.0,0.3178349182974738,0.2297258011122262,0.898594469721567,-0.3225693403588675,0.4274781101567422,0.9381551658562128,0.4553949729398185,-0.3133817550813372,-0.2466951078816188,-0.7959577991015347,2.179000000000088,8.0,0.2187738764017495,0.2953303753880968,0.9089350693956516,-1.4151174961056203,1.5544066843346176,4.144989382634528,0.3974117385727539,-0.2458006311341637,-0.3580217084797347,-0.8083726962459084
33,33,2.228000000000065,0.0,-0.0185328759292382,0.0314428583351416,0.9791822502320536,0.6050206228875253,0.0870215708265607,-0.8372865970440478,0.9943964707235582,0.0067229899789995,0.02787881169729,-0.1017508342797301,2.228000000000065,1.0,0.1555337785809178,-0.1790961583479774,0.9511676034145286,0.1749403986103334,0.8867366130091386,-0.9583358672490307,0.8926650294134069,-0.1287853570479091,-0.0184213347857699,-0.4315369410573265,2.228000000000065,2.0,0.0152245384137772,-0.2299586671604078,0.95294135434868,-0.5429797507927278,0.4231087321650306,-0.8237373222398945,0.8848373986089242,-0.1727242679163308,0.0761750696159667,-0.4259418552628541,2.228000000000065,3.0,-0.1961757517088159,0.1797221156885027,0.9433827619656452,-0.8828767585199984,-0.0295599288280742,0.6081193368331287,0.959388658416458,0.1248874491484038,0.144480894038266,-0.2076097261810654,2.229000000000042,4.0,-0.1094930752343979,0.3172437400123338,0.920522501571092,-2.4066094765208152,1.9742062173656127,0.74375750436004,0.9641266629337992,0.173272281200488,0.1502627228892114,-0.1336323632120431,2.2530000000000427,5.0,-0.0358423485990607,-0.295722986998494,0.933471071328722,0.9123408664482068,-0.523811575054883,-3.322219266378551,0.6722765291256484,-0.1597649134004656,-0.1974432527830013,0.6953672430905706,2.2530000000000427,6.0,-0.4506669857743948,-0.4507029551079727,0.7440988604950027,-2.061269791007415,3.2470328028537256,-2.794729257103352,0.2240047079988676,0.2531460936775636,0.6400703542692086,-0.6899629610608253,2.2530000000000427,7.0,0.2588031120390702,0.2245655023241166,0.9182316071475702,0.1099801885612529,1.473664736601222,-2.353941181349005,0.3856164748011723,-0.2023049238894879,-0.2421040161800906,-0.8670399630244593,2.2530000000000427,8.0,0.1648164185849474,0.1357543725209357,0.9560210763922928,-2.0175216644402214,0.9171913152854608,-0.0925110284262212,0.3920773469504882,-0.2297693947640295,-0.2382849696920129,-0.8583132600961694
34,34,2.3190000000000737,0.0,-0.0425290342771115,0.0541394073243294,0.9774355251463016,0.1976925692961104,0.3543847842557824,0.203982129257225,0.9946293364524948,0.020936968237102,0.0433686059011746,-0.0916149029978019,2.3190000000000737,1.0,0.1015943046380256,-0.1563565145757453,0.9622329435302246,0.6177009786591825,0.8643866216824664,1.191173198478649,0.921609453203273,-0.0790655350492507,0.0135569700728025,-0.3797378905194803,2.3190000000000737,2.0,-0.0152281374313046,-0.2125616590950232,0.95693868398824,0.8705381730297178,0.6210140298466723,0.2534260182833419,0.8958498506369008,-0.1115857821532542,0.0846231921036636,-0.4217114815762969,2.3190000000000737,3.0,-0.1716638410665308,0.1353392217812278,0.955724762009406,-0.6946438284529552,-0.3332413568826001,0.5967252886394505,0.9725602125994176,0.0879508893289117,0.1253729668870213,-0.1751367839968953,2.32000000000005,4.0,-0.1755799443923106,0.1787745434285588,0.9474261690227388,-2.3839173323128704,1.2807731837598966,0.8044618552967739,0.9721872744370764,0.0630476339557436,0.2168781949249563,-0.0619737673639696,2.313,5.0,0.0501671392928563,-0.3096991738306124,0.942528344329128,5.951330228242632,-3.171935996924135,3.649429735442839,0.5659217773593447,0.0881943014206959,-0.0896319931821282,0.8148131153249527,2.313,6.0,-0.4905178403067604,-0.4683892827715654,0.7021571961644557,7.743803528839419,-1.492167242302762,-9.186803040871077,-0.1626003240115042,-0.1948876102798501,0.3596960153431467,-0.8978857001517653,2.314,7.0,0.2415005386117847,0.3700982166572891,0.9412283462992986,3.350386182825756,1.6138644778244182,-2.843992662744561,0.3202454976919747,-0.0305194473758063,-0.370708934606911,-0.8712555711973977,2.314,8.0,0.0748976591103034,0.0788120463309344,0.9994858688410394,-1.3424199182789065,1.0900082971115208,-0.6278593512292997,0.3672355293873885,-0.1811897970940081,-0.1506287568929949,-0.8997884756882963
35,35,2.398000000000025,0.0,-0.0407613691282031,0.0724761407680106,0.976155069548978,0.3072688620562965,-0.1910111790504795,0.2866560979801915,0.99580628829328,0.0377602848477766,0.0292943954091806,-0.07801176501904,2.401000000000068,1.0,0.0519245624408577,-0.0912879160801137,0.9747227073342836,1.5736960761439154,0.2091425704085731,3.2471045797138087,0.9764074714819212,0.0076563885032982,-0.0091723063925346,-0.2156054223455643,2.401000000000068,2.0,-0.0580981130547503,-0.1056460256304347,0.9728198839086148,1.8275628372043864,-0.1179883829333311,2.921744281773208,0.9591515912030018,-0.0050172564698578,0.0372198399220479,-0.2803885442496585,2.401000000000068,3.0,-0.1602044722140641,0.101296838464217,0.9606031842544388,-0.9560300179229216,-0.0853865091250872,2.0360371102333694,0.9894416516604408,0.0497751445614022,0.1181615910171583,-0.0675684197805776,2.402000000000044,4.0,-0.2481102025708352,0.0783792768660048,0.9447518279094363,-0.8461600309135184,0.3587669316927956,0.9794539588540434,0.9736431569986268,0.0319347571353498,0.225801540506421,-0.0035830742918042,2.373000000000048,5.0,0.0524403139692011,-0.0549313301445018,0.977215207842862,5.176655063200638,-1.3107841325153824,-2.133876085734607,0.6283069158794321,0.3064826154683638,0.1190541022074269,0.7050708805654441,2.373000000000048,6.0,-0.4932485195695782,-0.5113074895515439,0.6746877419005898,1.0818868114599751,-0.072523650678787,-1.3913162672228605,-0.2007537712265338,-0.1957725336536661,0.2950385633630576,-0.9134129868431976,2.374000000000024,7.0,0.151187155028743,0.1561543772739244,0.9559771203394504,-1.3669773417564293,0.9427899401990518,-1.968556762336532,0.2564055217010219,0.0301149283319031,-0.2745593813235101,-0.9262647816148698,2.374000000000024,8.0,0.0891356298099079,0.0257403428204543,0.97547182135102,-0.8072230816749556,0.5804888913285418,-1.4205752893414358,0.3031960302442522,-0.1429097917286641,-0.1055700135822158,-0.9362178864476192
36,36,2.423000000000002,0.0,-0.0315514194560343,0.1016139986748837,0.973478866336404,0.4608432551788903,-0.0056706295905279,0.559075790899761,0.9964471855508212,0.0630215161326579,0.0237076601354184,-0.0505889490214221,2.423000000000002,1.0,0.03485263174978,0.0188146410978935,0.9791921687495624,2.292940789514361,0.1405707648705277,3.405054831129281,0.9908609429298652,0.1208419618405655,-0.0478263324755178,-0.0361172252063054,2.423000000000002,2.0,-0.0792702842958154,0.079507134878528,0.9726046666200344,3.007877284275365,0.3383866591526487,0.6170732376982453,0.957596481369578,0.1503996498969322,0.0056659234938423,-0.2456762534117728,2.423000000000002,3.0,-0.1276365464047832,0.055592622198705,0.9704243259414572,-1.295019269616704,-0.2126749223352264,3.6229658568345857,0.9874051305244764,0.0034810242937171,0.1035827143625083,0.1195391650008641,2.423999999999978,4.0,-0.2185157322232144,-0.0053175784488123,0.9549500500708888,-2.168546238767556,-0.6078905380617486,2.805173349152587,0.968867936716905,-0.0460437827608486,0.187891323773257,0.1545048275030017,2.4180000000000064,5.0,0.0540276424153605,0.1837617509524131,0.9615917183201722,2.392967940907244,0.4055969411941352,-3.8759655861790767,0.7237724590885845,0.3303248450362038,0.2750487407038185,0.5398028477638063,2.4180000000000064,6.0,-0.4835668237530641,-0.5398355421869815,0.659541290865902,-1.9566901785340487,0.0501230553294561,1.4071067380658753,-0.1463178164015887,-0.1199319986328561,0.3980068542486936,-0.8976624957513034,2.4180000000000064,7.0,0.1066866939847787,0.0774109603420417,0.9705779167823266,-2.746505805128361,-0.1461323009141379,0.8163097889109742,0.3025605200567783,-0.0371935456806288,-0.1285329290686353,-0.943691187840446,2.4180000000000064,8.0,0.0826155422884261,-0.0049535474152901,0.9766438114995626,-0.7804411201270529,0.3010627665754581,-0.3267902542000541,0.2852932811643462,-0.1283042370659769,-0.0578622817590478,-0.9480494305799858
37,37,2.5160000000000764,0.0,-0.024861450562343,0.1239371786987196,0.9712607703455018,0.1807239721145754,-0.0995642529242982,0.5626648529533319,0.996993809120243,0.072510771822104,0.0148183562819662,-0.0229335750107067,2.5160000000000764,1.0,0.0407029506585752,0.178011700336548,0.9626069313852752,2.727304047717811,0.3408121140568415,1.8562783356404504,0.9658656024051696,0.2441995048208419,-0.0559240391906068,0.065899482367938,2.5160000000000764,2.0,-0.1312310491400522,0.2274851307546471,0.9434054944864072,2.4910889497173008,0.5093167797290727,0.6109768968791971,0.939876994696514,0.2708840470403146,-0.00602969315605,-0.2078862927173252,2.5160000000000764,3.0,-0.1169232398583571,0.0157141474876281,0.9724073331427332,-0.9512802343044788,0.0049248871578224,3.61768956784442,0.9505322141899616,-0.0236336518571226,0.0966478610549479,0.2942603460212212,2.5170000000000528,4.0,-0.2069397852662942,-0.1028625733893362,0.9521266807886772,-2.232050333147867,-0.0967810062341697,1.7484211663735127,0.9426766698454814,-0.1359096663792045,0.1672915182175084,0.2547602925226134,2.5120000000000573,5.0,-0.0249255360055472,0.3626446520055747,0.9093489836287232,1.3529377546913253,0.2377665318139835,-0.4169687429191266,0.7174745864168292,0.3496363427732109,0.3133636088612779,0.5145754505411327,2.5120000000000573,6.0,-0.3987701850305291,-0.4177574686600734,0.7911447635606552,4.372958891890773,-2.0874648166393666,-0.7115610298438352,-0.1033550451657307,-0.224540679416077,0.199280782964775,-0.948254389637666,2.5120000000000573,7.0,0.0464814065997198,-0.0107367362119771,0.9787819988822974,-1.0400918377436013,0.6420832158097481,-1.0522513852246076,0.2567824317589746,-0.0116921682240504,-0.0598765011699557,-0.9645417982388388,2.5120000000000573,8.0,0.0353065703836054,-0.1356859775001998,0.9688404211208173,-1.594661745053442,0.3882878228791435,-0.9961060209865422,0.2316697344720057,-0.1167497586438068,0.0275676659038724,-0.965369696946665
38,38,2.564000000000078,0.0,-0.014627672956975,0.1261965814579536,0.9716668431166056,-0.0518617930954733,-0.1097019682178943,0.5862853508990484,0.997548652055189,0.0694161142534301,0.0064853519867762,0.0060025056799513,2.5650000000000546,1.0,0.074021299604455,0.3247339393452123,0.921285360701128,1.9579046932341049,-0.7450163242665779,0.6090779086419316,0.9357230007784272,0.328416360475029,-0.0913283942357213,0.0906878403804819,2.5650000000000546,2.0,-0.1235337491550235,0.3797619620017801,0.8949336651597491,2.0582744115082927,0.1420521365198632,0.870642385139669,0.9184419022760638,0.3592540600134643,-0.0338550436268737,-0.162033417937134,2.566000000000031,3.0,-0.0950677723645387,-0.0036355443944892,0.9750394358561092,-0.5109915755999997,-0.6436771916651332,1.930002778893411,0.9210526216478836,-0.0275840929771775,0.0568458256247267,0.3842782040127053,2.566000000000031,4.0,-0.2074985658333288,-0.2118649274792376,0.9341218323545002,-2.1102397000882074,-0.5142163053001073,2.467060894466483,0.8927031335755046,-0.2013369361741561,0.1320049261882346,0.3809452098379992,2.567999999999984,5.0,-0.0618082025247505,0.4150642920846996,0.8857089699991114,2.339241212915309,-0.9304758774511868,-1.2297459291601116,0.7284830708581427,0.4198979777779145,0.3489208109392968,0.4138264991812048,2.567999999999984,6.0,-0.2643205416358359,-0.2015825437862694,0.921581319965848,4.717610318134676,-1.5043185423316576,-1.5520032147430982,-0.1081267445927274,-0.3122840579599684,-0.0488360261679907,-0.9425509624396728,2.567999999999984,7.0,0.0162293981593612,-0.2325852514958772,0.9521164358532964,-2.580755762509268,1.3873008009684114,-5.170347263476088,0.011175913473076,0.0740830010729224,0.1047339187708414,-0.991674147171829,2.567999999999984,8.0,0.0876716272409335,-0.1966276644338764,0.9550922716451042,-1.4641720259811355,-0.0430463995152146,-4.076667252385351,0.0279738038562413,-0.1236370935370943,0.0802027272901407,-0.9886854190968608
39,39,2.6499999999999773,0.0,-0.0103721318420584,0.1150448868639275,0.9732574648506516,-0.2710805695902947,0.0691481529487766,0.5809780621148943,0.9978315375529742,0.0549563862412534,0.0081708672279005,0.0352881737231266,2.651000000000068,1.0,0.0950777380566418,0.4163603253661995,0.8817223503955114,1.6580337455756244,-0.2074107306134258,-0.4672059073951023,0.912002825675065,0.3963075580357338,-0.0779393733688768,0.0715305493011002,2.651000000000068,2.0,-0.1433406346927515,0.4903030551960759,0.8363303034754109,1.768332677637244,0.2269144756824189,0.0777691568352634,0.8890016655940393,0.4304294410083875,-0.0337521436077217,-0.1525363159582493,2.651000000000068,3.0,-0.0756846347358019,-0.026473069866537,0.976359059279295,-0.5322239830119078,-0.2104365029662117,1.4737451247272018,0.8908955565924263,-0.0429684793955664,0.037754240037796,0.4505923150492827,2.652000000000044,4.0,-0.2025589849788809,-0.3195352294849917,0.9043274267223674,-1.7431483654778648,-0.2382781452162613,-0.0238710623276631,0.8769411308627195,-0.272169430280513,0.0781076429579735,0.3883262163871312,2.649000000000001,5.0,-0.0011436751709662,0.4778559233408168,0.8550002389094397,-0.162644894882887,-0.5818780648462237,-0.431652749450599,0.7642202925326662,0.3999473555432649,0.31288399243854,0.3976343352264174,2.649000000000001,6.0,-0.1244218171138011,0.1549295493598376,0.9593367741107692,5.233491772245823,-1.7213542829945403,-4.592580361118734,-0.2561150927213808,-0.4240210430259726,-0.3861357855080452,-0.7781454680852222,2.649000000000001,7.0,0.0510355969553157,-0.320327372248574,0.923746579117746,-0.8115060125726157,-0.3239909658075295,-1.0308075250905706,-0.0368320458838102,0.0446589845742184,0.1548080704379963,-0.9862471479401484,2.649000000000001,8.0,0.1578301659891686,-0.2760124148902042,0.926775477410958,-1.3924915776708229,-0.6489799677087515,-1.6131598432713408,-0.0571278402599854,-0.1551919709649488,0.1451141792078997,-0.9754966617103626
40,40,2.705000000000041,0.0,-0.0060868265283083,0.0905155565232419,0.9746532124659018,-0.3225085660256391,-0.2062336693610504,0.4625347405941732,0.997572001975249,0.0385165084684476,-0.0039205039159715,0.0578896286008027,2.705000000000041,1.0,0.095770872093821,0.4997232454994805,0.8370553255107185,0.9882146121236124,-0.0825506531551621,0.7255322426689437,0.894302592810441,0.4254669473015794,-0.0890649198829618,0.1061517276950279,2.705000000000041,2.0,-0.105998758501147,0.567039710636767,0.791843563942517,1.050339245645895,-0.0024708925706653,1.9111247844135784,0.8817517633175785,0.459796633558021,-0.0821584896234434,-0.0659610963966361,2.705000000000041,3.0,-0.0644016942957734,-0.0534510936403447,0.9749873857442898,-0.4515775111902909,-0.2131851672642659,1.3376456896701123,0.859120722542878,-0.0546002716200661,0.0200331515641332,0.5084575373370198,2.7060000000000173,4.0,-0.1855908772045029,-0.3831481690832622,0.8829153452209374,-0.977046103240922,-0.7319780224598034,1.0217488806783748,0.8474763170364806,-0.2901310620151878,0.0363568062012487,0.4430418056561555,2.70900000000006,5.0,-0.1269266414838016,0.280526689967736,0.9304775139128236,-2.518563289786249,2.7027699102731724,-5.34068556719446,0.8818546046870562,0.1186739277021269,0.3930527933779846,0.2318586998448613,2.70900000000006,6.0,-0.145965274407193,0.378722322130803,0.8920636420049217,2.54180324037308,-0.5919473286296258,2.479812122193372,-0.1340362685924728,-0.4883079092788716,-0.4116878991751591,-0.7576956764494884,2.70900000000006,7.0,0.0992264768646789,-0.3572669792760081,0.9069506115594276,-0.2638952824115623,-0.4504771229897198,-0.4785561673769304,-0.0579025163383887,0.0109945279831168,0.1730236080431285,-0.9831527094077752,2.70900000000006,8.0,0.2091754426364809,-0.3963706483337108,0.8717522258860863,-1.9395000827396585,-0.8738444698979682,0.6334280569252118,-0.0332600479703389,-0.185883866407699,0.2553434779422326,-0.9482302809395512
41,41,2.768000000000029,0.0,0.0219254654433208,0.1083268184477676,0.9724014471246318,0.7594536794552795,-0.5280554185915431,0.0976361994809516,0.994508606286634,0.0794863760456828,-0.0287718014148503,0.061698715450854,2.769000000000005,1.0,0.1205818375481199,0.5140706050265128,0.8249487459843756,-0.0445289391089246,-0.3012020136419254,-0.4260351075838701,0.9029523026002942,0.4127653327808318,-0.0888008492633356,0.080101987823437,2.769000000000005,2.0,-0.0591971913101276,0.5966602326794689,0.7753136521949513,-0.0954708876586115,0.1289443589791047,-0.0479285075885964,0.8912683529076942,0.4431408097608987,-0.0672845277361554,-0.0688457562743232,2.769000000000005,3.0,-0.0377122964043488,-0.0582618737371576,0.9771163373767456,0.1917573614606928,-0.8852147650367164,0.2324012834341267,0.8542831014916518,-0.021742155532471,-0.0145060709181479,0.519150493677049,2.769000000000005,4.0,-0.179116852536625,-0.3948139787844472,0.8779157563762977,-0.1350940257563446,-0.7188976892069772,1.4661671258042226,0.8151977731639587,-0.2704932023239079,0.0194821987428454,0.5117679767797361,2.8110000000000355,5.0,-0.2901776242092132,0.1109225507900018,0.9292314750020774,-0.7696694093394935,1.0177431792428715,-0.7590213334016057,0.8844057702820555,0.0485809590001735,0.4090855697182415,0.2193520470903546,2.812000000000012,6.0,-0.0190246726967709,0.4274438489191021,0.8813726895303736,-2.6068335874570336,-1.5315447038177867,-0.131589512060645,-0.2514066371120618,-0.4827827021111516,-0.2922621081835339,-0.7863195441284513,2.812000000000012,7.0,0.1387366657102602,-0.3551563387706694,0.903144015436416,-0.0427344038598338,-0.0566932867649977,-1.0653584798462048,-0.1111602258771602,-0.0076734339163798,0.1773104324313397,-0.9778269443750672,2.812000000000012,8.0,0.2337572079207808,-0.5434272764882061,0.7809112388189143,-2.362888760665588,-1.2101457069482286,1.3615528227035034,0.0274029984700078,-0.2246864512508321,0.3880525866424512,-0.8934093486746503
42,42,2.8279999999999745,0.0,0.055871024132028,0.145775236229159,0.9674704177207548,0.6566206192463342,-0.4224038001161749,0.4079288219801578,0.98913217323588,0.1122771929640888,-0.0494195404307072,0.0810498910140398,2.8279999999999745,1.0,0.1304468221852549,0.4657153191302678,0.8521231531352502,-1.3193731525393035,0.1304252223349893,0.144484177414499,0.9352737048596784,0.3330789546838425,-0.0861076500638721,0.0831082399359278,2.8279999999999745,2.0,-0.0582696184730373,0.5565514050170126,0.8035876959838271,-1.412703613286474,-0.5751317812898752,0.463423552433304,0.9265265533640068,0.3588050990209449,-0.090770581727235,-0.0675880782452307,2.8279999999999745,3.0,0.0216838795850236,-0.0220817996109436,0.9793738834031078,0.8981282069733562,-0.9257863600820796,-0.4047377319082298,0.8641779664457887,0.0431857059479323,-0.0304184877476418,0.5004059878883811,2.8279999999999745,4.0,-0.1437797323739746,-0.3492311050539963,0.9047204119622996,1.386972608003373,-0.6621520412668476,-1.0107361814959848,0.8614931953549009,-0.1866632343274236,0.0117566223037269,0.4720678903925105,2.840000000000032,5.0,-0.1833353301314451,0.2241905855592612,0.9365851472622176,-0.7852567778459465,-0.9131078462342184,3.47065688030068,0.8655615158123574,0.097617043968957,0.3133818775065923,0.3782406296550122,2.840000000000032,6.0,-0.0209255531158958,0.1997904651262326,0.9594836586786858,-2.3421477590970365,-0.0364733162492157,-3.0265683909673284,-0.4488951532425272,-0.3571681665767617,-0.2494189606343014,-0.7802013998037093,2.840000000000032,7.0,0.0312461625830182,-0.1804208573912453,0.9629963611260656,4.41971981352177,1.6838996639049189,4.368561311690418,0.0939272108384926,0.142410833674762,-0.0725956908335543,-0.9826630649355657,2.840000000000032,8.0,0.1037113957088592,-0.8325855336248233,0.5067605702881672,-5.795761655205293,0.0093239971242,1.590683144651923,0.040704366357173,-0.1976338435333326,0.6822227824819102,-0.7027489548283539
43,43,2.8880000000000337,0.0,0.0908870741906978,0.1721190917939432,0.9604080164102562,0.2626813051539333,-0.4270748948273403,-0.1000213097337687,0.987027902352864,0.1251453147483358,-0.0677803214018275,0.0742993822592748,2.8880000000000337,1.0,0.1158125366140595,0.3587861662704931,0.9045540023989388,-1.6077389742145614,0.5486197224091967,2.0999256925563627,0.952620353991622,0.2285383351428573,-0.0857153840341125,0.1814870889922815,2.8880000000000337,2.0,-0.0038142487036989,0.4203800964523893,0.8849632907717166,-2.8418617230254943,-0.5598018550662442,0.5951985093927359,0.972369601830365,0.1983481440497881,-0.106500979778891,-0.0617487853677937,2.88900000000001,3.0,0.0700470864048886,0.0454133396987655,0.975578307602004,1.2453480958655967,-0.5527182136156672,-1.6188192920512807,0.8983321798785465,0.1147128928888768,-0.0136520202107511,0.4238559532953252,2.88900000000001,4.0,-0.0812524352990582,-0.2282724955218362,0.9496687367425578,2.709168493961684,-0.3714957411384916,-2.45629262105215,0.936168486307733,-0.044028654125819,0.0487159241016455,0.3453647370521197,2.9150000000000773,5.0,-0.0877500460802427,0.1988176854434661,0.955811936192376,-0.6606840174331451,-1.377460436747658,2.5298130531075635,0.8421729252021697,0.1324435165506763,0.2027216929709104,0.4817752527674281,2.9150000000000773,6.0,0.0370614505268272,-0.0044040773268745,0.9793355160453164,0.0134507116933964,-0.4540163665622616,-0.1478658243726166,-0.4680324284493954,-0.3451098995519401,-0.2209423721798926,-0.7829618581556403,2.9150000000000773,7.0,-0.1160177621839597,0.0605905564639655,0.9714719055769,2.601980921657108,2.8347043977769792,0.2345773983206885,0.0986577520966724,0.2896129990630857,-0.1879718241200999,-0.9333046405444896,2.9150000000000773,8.0,0.2587103169484113,-0.838521211256656,0.4362970893521098,1.6916288184966617,-0.6798371033668482,-1.3659621690280863,0.0312680292204499,-0.2644286265907969,0.5894896456969659,-0.7626281986682892
44,44,2.955000000000041,0.0,0.0938212504667491,0.2031071771760577,0.9529160758117312,0.6405232630985125,0.0179820365064066,0.0545804541697752,0.9828529423887366,0.1545813927202523,-0.0621862430179974,0.0789782111836972,2.955000000000041,1.0,0.1058294618886104,0.2608290054207394,0.9389884743316048,-1.9940528575932213,0.4383484228564436,-1.027932786507323,0.9823507640384748,0.1207603745313977,-0.0696884070072434,0.1246893510483333,2.955000000000041,2.0,0.0719896675680179,0.275679796744684,0.9376945864354,-2.4027182031847283,0.5191197947394753,3.093776628720605,0.992166013255364,0.0550395702471231,-0.0742203028904107,0.084074933760454,2.955000000000041,3.0,0.0811613522357968,0.1401086180154084,0.9666185442360752,1.2436462794290415,-0.4694728945571161,-3.107851600658635,0.9463846507880852,0.1808915362812602,0.0192323075333882,0.2669540469846089,2.9560000000000173,4.0,-0.0500758064185112,-0.0575192196927602,0.975443464777673,3.443434034608231,0.0861872994008846,-2.168400754057244,0.9625183966885464,0.1166069187829618,0.1193772814902613,0.2137995023194603,2.9880000000000564,5.0,0.0364691259752841,0.133076680318336,0.9702935638280048,-2.2458888635846965,-1.9143838167484275,6.750509735166896,0.7020668987801529,0.1588108537223049,0.0088019422287081,0.6941208167100403,2.9880000000000564,6.0,0.0637292089666737,-0.0579384379993292,0.976524308620466,-1.1301742287258645,-0.5617314247399524,4.230171644023591,-0.3368351420445626,-0.3749308591004327,-0.0649703290871998,-0.8612478123724504,2.9880000000000564,7.0,-0.2233044925500383,0.2966594021075094,0.907198601601758,2.7696985902618563,1.3531644496593236,4.432110602291638,0.2840163322390768,0.3381292236999638,-0.3754005686791168,-0.8149096662433927,2.9880000000000564,8.0,0.2252872057380004,-0.8671245317902541,0.3971595665451058,-0.6946293948717748,0.8838479624790239,1.605757134841273,0.0615820746911818,-0.1780376430592295,0.6284005814583341,-0.7547336980375738
45,45,3.0249999999999773,0.0,0.093470617643868,0.2238591912857029,0.9497174875267828,0.0190519560088445,-0.0276367648737225,-0.3577481963997961,0.9845853921023012,0.1531198203374928,-0.0583921602934029,0.0611251330864865,3.0249999999999773,1.0,0.0864835902367452,0.1102212009557029,0.9696483256725836,-2.626973204722874,-0.3402558576045835,-4.093577885980751,0.990651945466538,-0.0032861000157892,-0.0975060594146966,-0.0953440762054311,3.026000000000068,2.0,0.022385752859592,0.1098957584247901,0.9738623107755788,-3.2263452768122365,0.8482536054005804,-4.817431767589486,0.9794550938889034,-0.0915210852462755,-0.0578863109057923,-0.170119913649582,3.026000000000068,3.0,0.0539706331559129,0.2280115998732791,0.9518628478304936,1.246744494013482,-0.1421863241245221,-3.095926200719315,0.964642926691339,0.2314309328008345,0.0629905070854351,0.1092517429811681,3.026000000000068,4.0,-0.035299577527316,0.1637348927476141,0.9647532455106436,2.84470489335615,-0.5509422696479783,0.5682188277295929,0.9365317509331088,0.2543610637830736,0.1073381080376298,0.2160723473473885,3.062999999999988,5.0,0.0923131109285701,-0.10334332023985,0.9704743416044,-1.5540820945854177,-0.9038500170188242,2.7598661133475644,0.6204995998191466,0.1289478079024897,-0.0992290427041261,0.7671416469892924,3.062999999999988,6.0,0.0521591422058078,-0.1013170216657576,0.9728593346446004,-0.7863251394357246,-0.0084335752872749,1.001194647135725,-0.3117353442041869,-0.3361240104298092,-0.0027724268817846,-0.8887260761537628,3.062999999999988,7.0,-0.0674200303067413,0.4251909831216655,0.8804840528853829,-0.0263274695726084,-1.0039027983264244,4.500456048964933,0.4650038708025771,0.1914083675453666,-0.4338850248618288,-0.7475814485210881,3.062999999999988,8.0,0.1438090489146048,-0.779087245635847,0.5754563590211041,5.465986668720692,-0.2620749424706137,2.3486908841905803,0.2155606023354437,-0.0502503165656275,0.4225054607011613,-0.878918464980418
46,46,3.1380000000000337,0.0,0.0745489238688458,0.2035429266474936,0.955979986695208,-0.5251023175481051,0.3310482090589654,-0.4753949972276062,0.9909731594100134,0.1226817137013483,-0.037970201335729,0.0384663263486465,3.1380000000000337,1.0,0.141214001345604,-0.0535935690440164,0.9671377022849889,-2.712709026276988,-1.428414977941088,-3.156791624990208,0.9438514488861408,-0.125784252085872,-0.1669459398055571,-0.2558355283090481,3.1380000000000337,2.0,-0.0285933602747316,-0.0659083785470746,0.9768682129056586,-2.558941434903244,0.1342540219049538,-5.050371446004981,0.895212818383591,-0.1822030052938165,-0.067820177208256,-0.4009943867774834,3.1380000000000337,3.0,-0.0065373769882633,0.3061720812567263,0.929755838573245,1.2678170820420929,0.6358412627128929,-2.420983191971203,0.9538472579529754,0.2714159778284201,0.1283614868130696,-0.0056660549036021,3.1380000000000337,4.0,0.0203680483331426,0.3192405119929206,0.926008983816894,2.350139955845284,-1.0598040493918195,-0.4583531861985048,0.9141309788682824,0.3604048613532515,0.083863329127751,0.1656497250642757,3.1399999999999864,5.0,0.0890812263383489,-0.247261604810355,0.9445883939053368,-2.066917855802473,-0.0483354571103573,3.613274369023993,0.4986191643984026,0.0470910358893144,-0.1938435972761718,0.8435555838405335,3.1399999999999864,6.0,0.0246996570686233,-0.1690563735560968,0.9647133613155536,-1.3751518344385774,0.2351450496434165,2.586621761016901,-0.2222432381574764,-0.2837298075761127,0.1034577432516931,-0.92703928436036,3.1399999999999864,7.0,0.0203703231861923,0.4475854468691631,0.871520692631117,0.079031567030179,-0.2709183199750239,-0.0314225080200186,0.4624880571545632,0.1768647330283181,-0.4222711048339294,-0.7592830679150905,3.1410000000000764,8.0,0.0837648615109212,-0.4620600103627955,0.8607026169354833,6.191089623733876,-2.419293419907921,4.135573444248617,0.491426008180805,0.0789275157587733,0.0637046615035751,-0.8649928565267708
47,47,3.1580000000000155,0.0,0.0522372758736043,0.1782911305009717,0.9618568187594194,-0.5754835427957151,0.3151395692291631,-0.5982945964903571,0.995585745456362,0.0913922643075761,-0.019143072813172,0.0094878992460929,3.1580000000000155,1.0,0.2260646936596687,-0.1260221119560482,0.944345901446444,-1.5886628783767922,-0.9403830964264264,-3.31256574657719,0.8727654904464013,-0.1748122684969407,-0.2080101214191121,-0.4055278767927214,3.1580000000000155,2.0,0.0412502532096696,-0.1853696962100635,0.9611563308521288,-1.5380323049823252,-0.9050663799165096,-3.835985339448155,0.7946205239673217,-0.2384083501924904,-0.1107258427791573,-0.5472471737608512,3.1580000000000155,3.0,-0.0934301024933799,0.3658253199349303,0.904434990058756,0.9944333919897352,0.4996237089849383,-1.529124160484791,0.9363484306201892,0.2995338699061618,0.1662190099321953,-0.0768265448351528,3.1580000000000155,4.0,0.0381112487639977,0.435509628907714,0.8771042673743606,2.185805350148277,-0.8523206863922373,-1.1192574813027565,0.8872013234096904,0.4451883209788043,0.082506924700668,0.088734311180092,3.22199999999998,5.0,0.0426629109271005,-0.3419455215729909,0.916996802779269,-0.9487229953775124,0.2129083038125241,1.0586518958614282,0.4578009356131305,-0.0050698493713499,-0.2266819593599131,0.8596556806535073,3.22199999999998,6.0,-0.0611913482360546,-0.2616818666905975,0.9419921547159392,-1.5469541023886255,0.8720668398367172,2.677383498889643,-0.1240330116815284,-0.192510920208442,0.2025787454293052,-0.9521119732016804,3.22199999999998,7.0,0.0759283914011549,0.396859527086413,0.8925488194715075,-4.672636103463782,-2.944545149986768,0.6703017741630336,0.4811943785999287,-0.0703623885652042,-0.2965552890836619,-0.8219221768487169,3.22199999999998,8.0,0.3496574897156813,0.2843137851823591,0.8698823549429013,6.221828778753239,-1.997418442142232,3.6187532927859847,0.6363590577944426,0.1892560196510978,-0.3353634030211764,-0.668401598219849
48,48,3.2620000000000573,0.0,0.0210875968140487,0.1465090707432367,0.968228488245704,-0.2626974057935324,0.3332739843234645,-0.5639288153674349,0.9968804724743816,0.0769898477884179,0.0004291973759927,-0.0173695920039267,3.2620000000000573,1.0,0.3045716577605913,-0.1470355459212566,0.9192641913642688,-0.9363757574519328,-0.5709027527203868,-2.425502857275859,0.8085040026921414,-0.194387325273328,-0.2260282688218013,-0.5073914338036133,3.2630000000000337,2.0,0.1316954784175902,-0.2240440519261647,0.9444244616489282,-0.6521391064814762,-0.7755529732850133,-2.886636871156077,0.7058760431067445,-0.2562646983036231,-0.1467942602952996,-0.6438313919930236,3.2630000000000337,3.0,-0.142160229067384,0.4031191356734395,0.8818840239654009,0.5292943116558636,0.4752707939296878,-0.0161427260974906,0.92875551602826,0.317762266753738,0.1762471987716228,-0.0733297906703864,3.2630000000000337,4.0,0.0266208334187429,0.5426115347546634,0.8157352840102481,1.294682086548832,-0.1724578655007291,-1.4710387166406154,0.8701056188697276,0.4802447392565421,0.1096747167684891,0.0158952486453048,3.326999999999998,5.0,0.0053133291736092,-0.3695431506342587,0.9065862498143232,-0.1177850084489788,0.0862434829690749,0.8738022239343484,0.4204171396082973,-0.0291505243809028,-0.22381978651733,0.8788084995123981,3.3279999999999745,6.0,-0.1978380005317566,-0.4048130270815573,0.8699146732011496,-2.1508679729454654,2.1681015444925844,1.7692193927341666,-0.0783455993710116,-0.0353675908057393,0.305737076297882,-0.9482277894876407,3.3279999999999745,7.0,0.3100136194582781,0.2362668092477079,0.8988006178225987,-1.2935989847649558,-0.159594127929645,-0.2917289049150445,0.4652667324574685,-0.1031595864189295,-0.2383665458485614,-0.8462070415793356,3.3279999999999745,8.0,0.3037354998806424,0.4718941228702508,0.8034610649638054,0.559183355511334,1.4083343443876668,-0.6481655279430961,0.6383686311549689,0.253164585630729,-0.2974569729908686,-0.6632590237296905
49,49,3.326000000000022,0.0,-0.0127917063163116,0.1461942028635454,0.9692742786737972,0.0740759971815072,0.5752262760416035,-0.2368284131584594,0.9958902270073526,0.0809231752283158,0.0304440564302294,-0.0269676637898763,3.326000000000022,1.0,0.3285270721874785,-0.1373273918169089,0.9127919534574614,-0.2004589449693298,0.3685463072801856,-1.1197254453111554,0.7854672786653608,-0.1758132160317823,-0.2050276622133442,-0.5568613157168715,3.326000000000022,2.0,0.1915812245418723,-0.2171138928695293,0.9361982652868328,-0.0625598893863027,-0.1063839546090267,-1.695210354956193,0.6547227212139374,-0.2391440941520288,-0.1553995009289954,-0.6999994683351134,3.326999999999998,3.0,-0.1803358119547542,0.395460867811323,0.8781456012282556,-0.2024604573790306,0.3954314872655202,-0.2210512325187501,0.9327002898740304,0.2976900165550711,0.1894281826324615,-0.074617604738454,3.326999999999998,4.0,-0.0227372541005527,0.5572433724359392,0.8048868499063628,-0.5023872354562368,0.3588850921664711,-0.6956827682550322,0.8900647450479284,0.4361967865173803,0.1323508267999505,-0.0006096720812452,3.34800000000007,5.0,0.0158854159024389,-0.3363786683591397,0.9196379967327027,1.3633790940589177,-0.6103181291406016,-1.1856092369938895,0.4687012679856231,0.0394082058311023,-0.1700777558436859,0.8659328332318957,3.34800000000007,6.0,-0.4359280097357024,-0.4287804203984627,0.7652451381163992,-0.5967650803527377,3.160063103921329,-0.684833874090249,-0.1548589443352468,0.1360199253935797,0.309529760987498,-0.9282826155424436,3.34800000000007,7.0,0.3375588983889127,0.2195379734183455,0.8932866663875766,1.3278058510342825,0.4261367702817178,-0.2910739687588809,0.4664451418265536,-0.0503227645520087,-0.2804956849542814,-0.8373880341611516,3.34800000000007,8.0,0.2773893492289619,0.3162628191519458,0.8847677537955351,-1.3868257439743117,1.148587398851626,1.2208373400719286,0.724392562998981,0.2000787758118194,-0.2161232186128042,-0.6233094356079113
50,50,3.3559999999999945,0.0,-0.0381646660339011,0.1668404794426135,0.9643809997536656,0.608145941064129,0.0504322868507149,-0.4915455093591205,0.9919112103533824,0.1108451685891399,0.033514265443567,-0.0519835876744869,3.3559999999999945,1.0,0.2723992150608745,-0.1244082883549399,0.9330097777744956,0.7591599893818565,1.6642961339769522,1.0291521111784745,0.8394359343895679,-0.1039097535068156,-0.1376898036053128,-0.5153557927925099,3.3559999999999945,2.0,0.1570177912996335,-0.1928213221251624,0.9484146513784408,0.6654517341381753,1.1857434762278314,0.5092652938638954,0.6951947831240504,-0.1681974094616421,-0.1165070780382911,-0.6890863122530274,3.3559999999999945,3.0,-0.1931406964249014,0.34355629435838,0.8969591651748937,-1.075573503433501,-0.3562358696346929,0.1721935909145976,0.9561339355466548,0.2349935862674653,0.1640419494901199,-0.0606312668241486,3.3559999999999945,4.0,-0.0699938105230912,0.4938030344606238,0.842518504037708,-1.9760436647897104,0.9897428553514266,-0.0753978670242519,0.9299797823063805,0.3241798797785524,0.1703033443382926,0.0322766317222462,3.44500000000005,5.0,0.1152172730101943,-0.1585707681830088,0.959781897869482,4.339318267466233,-1.6626992224545836,0.0053821451800273,0.4532808420958268,0.2087168969924643,-0.0127598652013407,0.8664934627213172,3.44500000000005,6.0,-0.5704475274902354,-0.4137862399747535,0.680926255910163,3.026000497043316,1.3564862579953627,1.4793338642372296,-0.1221196766941376,0.2270826293604085,0.1365313261096411,-0.9564933146643656,3.4460000000000264,7.0,0.1918122621803529,0.2780147233027636,0.9203308479585716,-0.7170435779288176,1.5006956650540368,-3.1974015204966344,0.3569602349326741,0.0493791922949655,-0.2089278232128608,-0.9091150921267572,3.4460000000000264,8.0,0.1382324411215708,0.0526730472436551,0.9684623597825776,-0.4472069850020254,2.0661120552276,3.911129958731194,0.8738241907501044,0.1764360423259505,-0.1322863275458029,-0.4333612052003787
51,51,3.41700000000003,0.0,-0.0613168755420687,0.1875628072985836,0.959737690252932,-0.1243696395158669,0.3712594393344807,0.0800863894274844,0.9921649492441552,0.1044405560811529,0.0511202847010937,-0.0456902640491561,3.41700000000003,1.0,0.1153376534718467,-0.0652010518689498,0.9712219357730708,1.5559812635740908,2.3207571968778327,2.565319287927442,0.9211911489847832,0.0147766095543911,-0.0597253951064999,-0.3842152990466993,3.41700000000003,2.0,0.0396157992902595,-0.1247411118793071,0.9712807232997616,1.6415680666477148,2.0980796968134934,2.6097020666791244,0.8123909103634684,-0.0340723978058692,-0.0670195067949056,-0.5782460256461267,3.41700000000003,3.0,-0.1303993398662468,0.2927005544291604,0.9245855274658528,-0.5681165474310585,-1.0263559525345134,-0.3840305108452418,0.9714716617262116,0.1927569367900641,0.1089616681690387,-0.0849407361166874,3.41700000000003,4.0,-0.1307649044838422,0.3291518305508255,0.9127954930872372,-2.879450459679689,0.8961849289874503,-1.0279382684581508,0.9658731654350567,0.1558695295801459,0.2057285908671282,0.0216671396532381,3.498000000000048,5.0,0.2035569625620951,0.1378095233213573,0.9486543618591728,2.027584229620124,-0.0595172942594338,-4.81394569786472,0.6438162121923477,0.2717546415997693,0.143125085292984,0.7008318697427756,3.498000000000048,6.0,-0.5444774080752606,-0.420614550892285,0.6980413681676232,-1.6722601799296952,-0.9610599770585976,0.3381908817904175,-0.0803147399187616,0.2009255146598726,0.2241793901970278,-0.9502221219911352,3.498000000000048,7.0,0.0644066764534583,0.2422510534278793,0.946784139675619,-0.4824449135015484,0.994610230347314,2.4849674202015866,0.4856873595663966,0.0528404494170535,-0.162652733628962,-0.8572396187215401,3.498000000000048,8.0,0.0802367038604741,-0.0254313184476531,0.9765988528539344,-1.468803450356573,0.8254700673922372,-5.458806060271137,0.7635970851298396,0.1527434029142078,-0.0159765991593616,-0.6271632105972907
52,52,3.4920000000000755,0.0,-0.0454257300702965,0.2106076857740638,0.9555657516573486,0.4358087444316822,-0.4106853519310376,0.1017575218410531,0.990770147368672,0.1257620258632795,0.0258674611944321,-0.0434661061653615,3.4920000000000755,1.0,-0.0431489757477351,0.0623144971635621,0.9776073185769294,2.259877920935348,2.312403168474278,6.213016161774701,0.9874733869231356,0.1520665862602257,-0.0231687575210864,-0.035146438463116,3.4920000000000755,2.0,-0.103849845060157,0.0559948485091622,0.9727372649494916,3.373340280182352,2.387290953454701,2.696042417014598,0.8892664968827515,0.1841958880339116,-0.070106989851912,-0.4127492971855698,3.4920000000000755,3.0,-0.0884792236121557,0.2712382352623289,0.9377031762347652,-0.627554437843806,-0.2241719934978805,2.64567836101714,0.9821121958624796,0.168462843922227,0.0698370753126714,0.0468901681334814,3.493000000000052,4.0,-0.2254272025121544,0.1585353970900662,0.9397042642432986,-3.2606462345821283,-0.7317915695956131,-0.4632652177414206,0.9875958104102298,-0.0190051598523533,0.1538095518174144,0.0252178692373917,3.618000000000052,5.0,0.0604315395904845,0.3739959922696857,0.9038429215239432,1.5002644206978777,0.4769135066833766,-2.969307552255595,0.7239280343733833,0.2749831400152545,0.2512953141780282,0.5806575056156653,3.618000000000052,6.0,-0.5304165666910816,-0.3774196576784375,0.7320339252914007,2.1517694759436505,-2.829902034445087,0.974075649288634,-0.0210978141900251,0.0863470202163046,0.1203801968673667,-0.98874045256495,3.558,7.0,0.0475047291473984,0.3674370277334889,0.9999611649254244,-1.7742222429488426,0.807761377203643,3.6080261850748734,0.6568481324470018,0.0018142525885695,-0.0610740521698256,-0.7515432120244241,3.558,8.0,-0.0571766780039937,0.0805913573680904,1.016105240912572,-0.2410004441213218,-0.8114576235260701,0.0204706020853338,0.7664607272556527,0.107689641502204,-0.0384057202719674,-0.6320331441769917
53,53,3.59699999999998,0.0,-0.0294554640792734,0.2282569497268941,0.952332473738688,0.0011731515880427,0.0638702219049536,0.6955931694938309,0.9917279476886218,0.1259899886369063,0.0230658169657853,-0.008376671432454,3.59800000000007,1.0,-0.0581473068581503,0.2437809408068557,0.9458428746913878,2.649933252788309,-0.1819039974023868,5.2137604219942855,0.9346997142626564,0.2609123842074169,-0.0984758211284447,0.2203716964076569,3.59800000000007,2.0,-0.1532394540537793,0.2813986444794317,0.9258566155763202,2.8120627485804857,1.100583163369797,4.355238164600445,0.9260147863421788,0.3135098294732023,-0.1329713166968712,-0.162870596595067,3.59800000000007,3.0,-0.0012493106984689,0.2114579874582977,0.9566310463093204,-1.410937019054399,-0.1409369175660586,3.6706288031125496,0.9679769203693098,0.1039285918373586,0.0332243981394442,0.2260877457964547,3.59800000000007,4.0,-0.1397817373885193,0.0410383737281863,0.9693404550385754,-2.414969038460453,-1.1756932724911855,3.3437341741581537,0.96772695773809,-0.1051703859557547,0.1000141595995612,0.2060118760277955,3.634000000000015,5.0,-0.0544304903630596,0.4134450416242211,0.8866823102302105,-0.0017296811509898,1.3445330084776173,-4.851290401965847,0.8447120225955231,0.1595111483199608,0.3352839274177631,0.3854899226433135,3.634000000000015,6.0,-0.223791122554908,-0.1937007087404716,0.9336329947570688,3.54091717560584,-4.151664688760044,-3.3611645087631787,-0.1864414005173531,-0.1766543792225725,-0.0510932590562402,-0.9651022294832954,3.618000000000052,7.0,0.0277828551766105,-0.0248514057852041,0.979156535283677,-2.917073629812634,0.5626483253480307,-3.346388719946231,0.5377744833716993,-0.0463434174171001,0.062168057962329,-0.8395153514174705,3.618000000000052,8.0,0.0538101179725487,-0.0922865093325421,0.9745941059738638,-1.2839017315998291,-0.1915298569617114,-2.54566873424611,0.6930135003595187,0.047220005225667,0.0066072836346718,-0.7193461636993044
54,54,3.6230000000000473,0.0,-0.0179669294634053,0.2087156359827136,0.9562248546978834,-0.2746920911982905,-0.1591940529274343,0.7300132628929296,0.9933819804518296,0.1111459153827236,0.0097414376859296,0.0272750948513211,3.6230000000000473,1.0,0.050839226772318,0.4136932482204208,0.8871850254586301,2.417528609419027,-1.1289831843151876,3.0221868843876325,0.8542091569408324,0.3539493437146261,-0.161449885116969,0.3449355198847101,3.6230000000000473,2.0,-0.1680347229318872,0.4459258892431866,0.8561007143974809,2.6385545142000737,1.3231236599613434,1.7429978696427983,0.8987617237243938,0.4214724981506864,-0.1128647279980816,-0.043009887752645,3.6230000000000473,3.0,0.0248533181631608,0.1276423906042173,0.9717174140135192,-1.106345521324076,0.491140405701833,3.519832852089672,0.9198588079862112,0.0482787605891963,0.0315879898702337,0.3879834191587516,3.624000000000024,4.0,-0.0869447865510711,-0.0864943413772136,0.9721087043131084,-2.259466780521387,-0.622072765646599,3.208530737538166,0.911669759678224,-0.1793577206099933,0.0697554815380566,0.3630746894803202,3.708000000000084,5.0,-0.0823136355063363,0.4758362568141157,0.8514847750317449,0.3949408293875507,-0.4824861454552088,0.0129217474896497,0.8519607916199973,0.190323199709094,0.3045112200280003,0.3810679809060041,3.708000000000084,6.0,-0.0217752934073153,0.0447598811861643,0.9782665228010338,5.452730321546603,-1.0889605974810388,-5.877057436684116,-0.4363222845778807,-0.318839199585629,-0.3936980281883284,-0.7436170327453214,3.634000000000015,7.0,0.0187702892950611,-0.1922162922754531,0.9609420238618236,-2.62337511769054,0.3475519811373043,-4.649663757242742,0.3436590095749591,-0.0935178416526189,0.1624792495661179,-0.9201920407670482,3.634000000000015,8.0,0.1189625809132075,-0.1856110363356923,0.9543780422520516,-2.0287300664063337,0.0641944759357112,-5.438048337960015,0.5085329860811384,-0.0166018405629557,0.0814998589358919,-0.8570159589825341
55,55,3.6829999999999927,0.0,-0.0002627967993329,0.1863985760238433,0.9617486687249044,-0.4175756742472265,-0.058108604541555,0.8389337726330099,0.9936348654748746,0.0892009678987512,0.001843360169958,0.0687716763060043,3.6840000000000814,1.0,0.0842110519450669,0.5610136023249118,0.7984436340385781,2.342199843059389,-0.3463805563728085,-0.8065291431513634,0.8275810760342794,0.4574188822879414,-0.0955502119484761,0.3110429001166814,3.6840000000000814,2.0,-0.1540462388984932,0.6156104755772733,0.7467733917600115,2.635145644906798,0.0835990215871559,1.596595789208492,0.8452959826478496,0.5142178152278942,-0.139419675668963,0.0402106236959663,3.6840000000000814,3.0,0.0380466394456154,0.069795073411186,0.977160222765142,-0.6956583701247736,-0.201722575723911,2.006325231629081,0.8797312185834043,0.0238492444770724,0.003335548620302,0.4748611067491554,3.6840000000000814,4.0,-0.0933005931790772,-0.212585469318052,0.9522685637714056,-2.138286602753561,-0.2334390444454552,2.959788503056328,0.8333427043469803,-0.246706487093126,0.0515331503676857,0.4919554662273933,3.783999999999992,5.0,-0.0741726317218933,0.3020974421338213,0.9291671303698013,-4.279585598404779,3.504161473940694,-4.843002472379514,0.9124002122979296,-0.1537709435867328,0.3210157012690691,0.2020625374627035,3.783999999999992,6.0,-0.1065278541757606,0.4293906609260171,0.8739968401511679,3.634062526785134,-0.4035849232474539,0.642446386780495,-0.3752615498673505,-0.3964283466907162,-0.4962019098960589,-0.6751348011669394,3.708000000000084,7.0,0.0994829516938673,-0.3010301964996731,0.9271337352926188,-0.7317531201867475,-0.8835852669883991,-0.8428688126383499,0.3090012487822106,-0.1535810177241555,0.1730310134120841,-0.922491933646812,3.70900000000006,8.0,0.1910490345763037,-0.2503785579659501,0.9279638161579112,-0.727574549378934,-0.953160475181796,-0.2872598625177091,0.4991889520953035,-0.0900871995118937,0.0859108305287204,-0.8575045281442906
56,56,3.773000000000025,0.0,0.013858989860141,0.1691067696210053,0.9655655487166084,-0.2407913865665472,-0.2774809430749174,0.4732029181465117,0.9926825928066132,0.0779729064553517,-0.014893746857055,0.0909927035657423,3.773000000000025,1.0,0.0945867015459638,0.6336677310270021,0.7411049605459038,0.6584787629974773,-0.7359274789426139,0.8194052616145029,0.8042894379569785,0.4812791657424694,-0.1205636625798827,0.327037104742573,3.774000000000001,2.0,-0.0929371438121563,0.713692725929346,0.6651183204931121,1.1469432727206252,0.1569270699989802,1.282175743064035,0.8216151829142861,0.5415234339869235,-0.1485527408854334,0.0981475665676921,3.774000000000001,3.0,0.0503166217786276,0.0266999746949737,0.9786635524653376,-0.6763354639301813,0.003327347077883,1.544700443889978,0.8423740751033586,-0.0044337932201131,-0.0140943025030694,0.5386906437914014,3.774000000000001,4.0,-0.1163424022957449,-0.2960047086323975,0.927262453621144,-1.547809806360441,-0.2966651456376988,2.2853675698702336,0.7596375200057989,-0.2838059712389167,0.0278123338540327,0.5844925003575037,3.844000000000051,5.0,-0.3134704473894559,0.0807622217342307,0.9251328240604186,-0.7999441737246374,1.670968048670872,-3.050444910494348,0.9088916090943192,-0.2394614286114627,0.3359749215502692,0.060787492254468,3.844000000000051,6.0,-0.113431001087753,0.4253405269306962,0.8749679103501725,-2.584911608833669,-2.5734609598548936,-2.3292131947678327,-0.5999203321273049,-0.3239069172998176,-0.3599157977648263,-0.6368991462899772,3.783999999999992,7.0,0.1326384449005148,-0.3125029816734891,0.9191909101919752,-0.2097432266577097,0.0464723823287695,-0.4951349401654535,0.2846509948980024,-0.1552135773992924,0.1754269499536308,-0.9295740646793336,3.783999999999992,8.0,0.2205224855413707,-0.3959245674267136,0.8689157440618885,-2.5368356182768803,-0.7808201262645269,0.843356455848078,0.5279182453076099,-0.1989847383141324,0.1865457083920767,-0.8043059734142777
57,57,3.86200000000008,0.0,0.0526497777077884,0.1804645865654121,0.9615313483725298,0.6424905930742174,-0.7719533110700351,-0.3328074649603967,0.989585942474602,0.1150669709426784,-0.0485877318111268,0.0715436018954892,3.863000000000056,1.0,0.1529894309994429,0.635606530226093,0.7302715746463184,-0.3144973218042577,-0.9297489998231714,-0.1314653853025485,0.8178024043231951,0.4727808384597587,-0.1461226172723202,0.2938123329439657,3.863000000000056,2.0,-0.0484116109070195,0.7399057278079321,0.6405753896977322,0.1750177170589326,-0.3049174482131029,0.8973350830152387,0.820904684349233,0.5327430648776083,-0.1671121390600123,0.1198910297607191,3.863000000000056,3.0,0.0600270581085089,-0.015418907075654,0.9778225859528046,-0.3188166786235604,-0.4256994849672449,0.8576207770160454,0.8185161938171696,-0.0052017166107256,-0.0414163425178204,0.5729649807586864,3.863000000000056,4.0,-0.120741220309062,-0.3364242434240033,0.912670962699518,-0.3879040366296861,-0.6011263630066838,1.1568887167158577,0.7246563585988853,-0.2684705095765352,0.0027198659795206,0.6346568756099413,3.905,5.0,-0.2969298609886717,0.1379869329141753,0.9216699593662512,-0.1226673597504108,0.4048895989754879,-0.2654364801910533,0.9129849238164048,-0.224748860953854,0.3364423074019058,0.0524695356752888,3.905,6.0,-0.0472617074212511,0.2962983317508513,0.9204210338824784,-3.0569359136578944,-2.1558403510098425,0.07328230476663,-0.6993244099006721,-0.264774642549341,-0.1671860647696729,-0.6425640653870834,3.8450000000000273,7.0,0.0509874917812293,-0.1727285637907085,0.948868072459316,2.5689696930028534,0.6961206334137475,1.4222774890340988,0.3701557920011321,-0.0529334601862106,0.0642612212843765,-0.925231448816873,3.8450000000000273,8.0,0.1631180930524213,-0.6204260420669895,0.6764181502916903,-4.388153303641802,-0.6163886957847766,0.5033105206649606,0.5110549225199292,-0.3397775498344235,0.3638861272472468,-0.7006860703579496
58,58,3.896000000000072,0.0,0.0912157166885687,0.2229526960278458,0.9500235725301271,0.4627853438233641,-0.4343874347814101,0.7155453628846697,0.9822213319960889,0.137737483021011,-0.0721489425907189,0.1051863623570424,3.896000000000072,1.0,0.1513916862358919,0.581431012635109,0.7738084613680345,-2.057220947056886,-0.0213387447352241,-0.8294484164384375,0.8857438326189263,0.372033155003367,-0.1463141906814069,0.2358841922660805,3.896000000000072,2.0,-0.026738373453738,0.7032682281535481,0.6804497473398146,-1.933383940448972,-0.60478832488544,-0.748675691978347,0.8795772937221542,0.4418967897017083,-0.1700034076777969,0.0465816809236429,3.896000000000072,3.0,0.1133276294368867,0.0057137910123929,0.9736442887412644,0.8417377984512268,-1.0061571754177934,-0.5469050507116474,0.8316226589305417,0.0638391355876786,-0.0578340714093286,0.5486196661667667,3.896000000000072,4.0,-0.0648034138921985,-0.2996671724069599,0.9293406820588096,1.1200625669007005,-0.9091657446792798,-1.091592474983438,0.7781030321035073,-0.1834644576748016,-0.0150993289626708,0.6005568036966165,3.965000000000032,5.0,-0.2803892745878874,0.1952116440941199,0.9182070946720838,0.5546094542238157,-0.8611888507198961,2.5195719501122418,0.931400558071827,-0.1252855351200086,0.2947818637657904,0.1729167080069167,3.965000000000032,6.0,0.0189075862452508,0.1672561365710065,0.965874157414784,-3.52896021848212,-1.7382197421647911,2.4757778043010927,-0.6839591383009249,-0.201514989124063,0.0417094148933604,-0.699894228439011,3.965000000000032,7.0,-0.030663461338056,-0.0329541459079279,0.9785452347266572,5.347682612663416,1.3457688844987257,3.339689918233651,0.5495953016750165,0.1748699475648721,-0.1841523393402908,-0.7958978714200113,3.965000000000032,8.0,0.105713700563472,-0.8449275167072653,0.483920556521492,-6.239470989006724,-0.4519572653050263,0.1632645854818434,0.4190868860166779,-0.4840489154794136,0.57769099406718,-0.5062963013549684
59,59,3.952999999999975,0.0,0.1208584238753502,0.228098125239465,0.945141516726785,0.2451434488965098,-0.2224065944728517,0.249763460467283,0.978635184518492,0.1485444264367282,-0.0813408986381167,0.1165821049980854,3.952999999999975,1.0,0.1230242976330053,0.4643643441858174,0.8541433006473687,-2.477960390813664,0.7678509628113477,2.529681193875043,0.904646039824759,0.2173818156864816,-0.1538665940655629,0.3326946949815886,3.952999999999975,2.0,-0.076759614632971,0.5285172295018133,0.8215098901906936,-3.8568001983292826,-0.4721451338384945,-0.8034325641397637,0.954298777806442,0.2419172231063678,-0.1704227575933633,-0.0417849678222725,3.954000000000065,3.0,0.156378639283527,0.0773921920822008,0.964167086028425,1.336989644189088,-0.4733125615245399,-1.2109666597152786,0.8575634018049682,0.1388695941058233,-0.0317077140644382,0.4942619432915935,3.954000000000065,4.0,0.0055735007709638,-0.1828882318004136,0.9628036304242285,2.7098188155887954,-0.7992626334466297,-2.07849785670539,0.862662444431161,-0.0289080885090603,0.0235555694212901,0.5044035730801728,3.993000000000052,5.0,-0.1202985706091287,0.1977631930970783,0.9521402067791532,-1.77994234938252,-1.6277975036680332,2.4519613471709425,0.916887053990186,-0.1363048221433873,0.1987858406385584,0.318156117727255,3.993000000000052,6.0,0.0605148607719777,0.0303007947477101,0.9777514067816035,0.5461678292822603,0.1338466991740698,-2.365984575452556,-0.7629307060696181,-0.2052952586282398,-0.0109583159122395,-0.6129196601784328,3.993000000000052,7.0,-0.1349008084101033,0.1853633787356174,0.9528930631052032,2.936997251713445,1.6898954951796152,1.517446997509388,0.6004472407203951,0.3092492021177396,-0.2591317485729892,-0.6904192776728576,3.994000000000028,8.0,0.3010931706464465,-0.7956482610642813,0.486022373204624,-0.2008424716993754,-0.1119448662687459,1.0862373399140686,0.4509038465788266,-0.454249249229624,0.5842110910777246,-0.4990398198305577
60,60,4.028999999999996,0.0,0.1139138419159584,0.2502828734803149,0.9400809113381584,0.3038295906103387,0.3776731113533867,0.4709586636656805,0.9751428305822826,0.1578077719851872,-0.0610726349810667,0.1430499923855799,4.030000000000086,1.0,0.1401276362520424,0.3029258845304177,0.9218861936485864,-2.458446441273705,0.579641300563966,-0.3263978948842819,0.9387993649991264,0.0892231356216427,-0.1516580957394682,0.296133088903887,4.030000000000086,2.0,0.0324869703288619,0.3636355300663215,0.9081424987479868,-3.032431791610119,-1.5845163124546515,3.571275972536024,0.9670970116927302,0.0518252872157028,-0.2335085603024948,0.0866675362835303,4.030000000000086,3.0,0.1752714435437221,0.1658008176451955,0.9496420430595331,0.681819984863348,-0.7892599628117195,-3.844416983643972,0.9338961312403904,0.1919408599289579,-0.0149283074215979,0.301287019271475,4.030000000000086,4.0,0.0456665034364744,0.026286921750571,0.9780779969965409,3.473564143300317,-0.0183849985866412,-2.4462709864089027,0.9145650868941456,0.1333209968319599,0.1208214941687516,0.3622131695353809,4.059000000000083,5.0,0.0355619828518927,0.1057989368064775,0.9739132047293848,-3.097996271207208,-0.1290994714483721,-0.3648646291331085,0.9012232779792322,-0.2585420644150108,0.1201514156149891,0.3263682605311157,4.059000000000083,6.0,0.09166521729044,0.0154630675116937,0.9756307608323064,-0.373166464049631,-0.6810443600946992,0.985736200601836,-0.7387749310592859,-0.1967830743460331,0.0396392106554335,-0.6433636264725299,4.059000000000083,7.0,-0.1348076529303278,0.3886641851769167,0.889522932741017,1.117587155712377,-0.0509433035373937,5.362064371544491,0.7647530630762958,0.2638115148294285,-0.353982943586258,-0.4693104652666865,4.059000000000083,8.0,0.2403570249186574,-0.8277118888355297,0.4654057688217579,-0.2979771896070235,0.3613539347392276,-0.5937203997121634,0.4239484349611142,-0.4663266997787032,0.5642185338550885,-0.5333522097281864
