,Unnamed: 0,timestamp,node,accx,accy,accz,gyrox,gyroy,gyroz,q0,q1,q2,q3,timestamp.1,node.1,accx.1,accy.1,accz.1,gyrox.1,gyroy.1,gyroz.1,q0.1,q1.1,q2.1,q3.1,timestamp.2,node.2,accx.2,accy.2,accz.2,gyrox.2,gyroy.2,gyroz.2,q0.2,q1.2,q2.2,q3.2,timestamp.3,node.3,accx.3,accy.3,accz.3,gyrox.3,gyroy.3,gyroz.3,q0.3,q1.3,q2.3,q3.3,timestamp.4,node.4,accx.4,accy.4,accz.4,gyrox.4,gyroy.4,gyroz.4,q0.4,q1.4,q2.4,q3.4,timestamp.5,node.5,accx.5,accy.5,accz.5,gyrox.5,gyroy.5,gyroz.5,q0.5,q1.5,q2.5,q3.5,timestamp.6,node.6,accx.6,accy.6,accz.6,gyrox.6,gyroy.6,gyroz.6,q0.6,q1.6,q2.6,q3.6,timestamp.7,node.7,accx.7,accy.7,accz.7,gyrox.7,gyroy.7,gyroz.7,q0.7,q1.7,q2.7,q3.7,timestamp.8,node.8,accx.8,accy.8,accz.8,gyrox.8,gyroy.8,gyroz.8,q0.8,q1.8,q2.8,q3.8
0,0,0.055000000000291,0.0,4.3249755807911e-17,-2.1779179323121727e-16,1.0,0.0057921766727108,0.0367155124231997,0.014672671021319,0.9999980043141504,0.0002896082556672,0.0018355594911955,0.0007336321484959,0.055000000000291,1.0,-4.41442742375052e-17,-3.911513791479431e-17,1.0,0.0542339338153957,-0.0485728955503599,-0.0640174456148794,0.9999882725745538,0.002711664889549,-0.0024199366027878,-0.0032008582794476,0.055000000000291,2.0,6.401263616338488e-17,-7.530744096361028e-17,1.0,0.1388354143314012,0.0357555864441889,-0.2886345978410099,0.999870001614435,0.0069408682975839,0.0018877156502708,-0.0144305491388652,0.055000000000291,3.0,7.536601446702634e-17,6.586204399885951e-17,1.0,-0.1294738752327457,0.134894134155952,0.4505803598062075,0.9997016397705686,-0.0064717622688812,0.0068884968041414,0.0225232401077357,0.05600000000004,4.0,3.952011424611096e-17,1.9081156001709464e-17,1.0,-0.1312044409859104,-0.0370917826267898,0.76362834072686,0.9992490688078494,-0.0065552957739312,-0.001602905980771,0.0381543873804669,0.0600000000004001,5.0,-1.514205243598286e-17,-6.018785705439609e-17,1.0000000000000002,0.0134908453826596,0.0139689681482941,-0.0009461700103156,0.9999995274402724,0.0006745419503714,0.0006984799889243,-4.730849968538952e-05,0.0610000000001491,6.0,1.3354010108203249e-17,1.1033904770275691e-16,1.0,0.0277880850934324,0.0110744191708745,-0.0339823171061478,0.9999974366714084,0.0013894006931719,0.0005560802919221,-0.001699114779955,0.0610000000001491,7.0,-4.218579414635959e-17,1.2335595053121002e-16,1.0,-0.000628411335766,0.0010551376888647,0.0228154578670049,0.9999993474320784,-3.1420546284239864e-05,5.279269372328199e-05,0.0011407721500446,0.0,8.0,-4.682199915688206e-18,2.271650015401772e-18,1.0,0.0065992783144018,0.0101414734497585,0.0211062002416939,0.9999992603376506,0.0003299636716582,0.0005067250834582,0.0010553093464096
1,1,0.1180000000003929,0.0,-0.0022173330484306,7.611059037712885e-05,0.9794733674997655,0.0107035008183359,0.0447092839563434,-0.0021825700574654,0.9999914824948586,0.0007977793202143,0.0040011170484979,0.0006241380096885,0.1180000000003929,1.0,0.0012294489673572,0.003079640609605,0.9795988996874956,0.056682268513106,-0.0118127755110471,-0.026300382083994,0.999971053348839,0.0054327981403809,-0.0028337391532075,-0.0045107750099957,0.1180000000003929,2.0,-0.0021432968000969,0.0079539878299067,0.978717599901232,0.0905190970693071,-0.0265245475896495,-0.0542084855120339,0.9997904652401004,0.011155340179603,0.0004415184689843,-0.0171577697240211,0.1180000000003929,3.0,-0.0080116603726638,-0.0077964716855367,0.9801816302743738,-0.0973582730170358,0.1201159449450366,0.4173267927016201,0.9989172009312494,-0.0110841557272761,0.0127187595655931,0.0433566642006046,0.1180000000003929,4.0,0.0011268027083132,-0.0097328643591644,0.9797321070920472,-0.1354163601706282,-0.0406869741707278,0.5700096200387582,0.9976892409713786,-0.013114611453037,-0.0034325674566323,0.0665762938067758,0.12,5.0,0.0177186926832539,-0.2736867348518209,1.115763693214538,-74.72469566714571,25.727755959079406,3.579805284184386,0.1955618896382472,-0.7328391058464436,0.3827350001737034,0.5274621426276376,0.12,6.0,-0.0065576413152999,-0.0597713832349049,1.0564342758007077,49.60842467830544,-4.316879001882951,-27.461756332422173,0.093988894665263,0.2328780975651922,0.2991546293272935,-0.9205652541270872,0.12,7.0,-0.0755793068935765,-0.244224798557132,1.1028617393577558,-6.914832535216695,-7.0819303388720005,1.1038479252361375,0.8977763705009615,-0.3197459532266747,-0.2975778416869481,0.0566351666566211,0.0610000000001491,8.0,-2.063333344227864e-17,-3.934899927643221e-17,0.9797765051275724,0.008128125848761,0.0116498756844729,0.013541500371131,0.9999977130326978,0.0007031009653407,0.001038497733157,0.0017323685708031
2,2,0.1400000000003274,0.0,-0.0058181994460252,0.0020271525663471,0.9799500187293632,0.001676914968556,0.0468197780767495,-0.0281158204513364,0.9999798225748696,0.0008980006711013,0.0062401715283276,-0.0007799341151208,0.1400000000003274,1.0,0.0009120451639986,0.0074245502067016,0.9797438666446688,0.050367718822366,0.0209217375833223,0.1550230466755691,0.99996321231417,0.0077690676475972,-0.0016240562301076,0.0032523910550559,0.1410000000000764,2.0,-0.0016408851960522,0.0119205505217792,0.9797245571950468,0.0467967189585615,-0.024926423592227,0.1869829147544534,0.9998848187741268,0.0129712511857079,-0.0009369587315887,-0.0078241891620986,0.1410000000000764,3.0,-0.0104007643538196,-0.0078952169448655,0.9796501873884624,-0.0546254789175498,0.0470675739613789,0.1264767828726811,0.9985765801892978,-0.0131503581794264,0.0142745659300979,0.0496801604738445,0.1410000000000764,4.0,0.0053852592643614,-0.0149916251644001,0.9801914354643106,-0.118853878414106,0.0579065851335491,0.0192600766198679,0.9975459098007408,-0.0186718603928282,-0.0009036663343235,0.0674737197465718,0.1790000000000873,5.0,0.0004914060272301,-0.0013104424295884,0.979883687618462,-0.0280580476614071,0.0076205597337225,0.0208071888881207,0.2071922449704089,-0.7096269980130657,0.3700273319445498,0.5626550194649333,0.1790000000000873,6.0,-0.0008696980158361,0.0010757762805114,0.9798949363736684,0.0019625229978423,0.0149989579809696,0.0235647080024559,0.0962449137867643,0.2141847606622704,0.2732877908399619,-0.9328320257409892,0.1790000000000873,7.0,-2.3795961302221618e-17,1.255075959633369e-16,0.9797438440735414,-0.0248145548058672,0.0045659767437956,0.0079720051142404,0.9141155939515891,-0.2944870267492537,-0.2726930553169241,0.0575201664882718,0.1790000000000873,8.0,-0.0003641854950481,0.00156226930104,0.980429715320561,0.0300122917413823,0.0004189871476701,-0.030760785170455,0.999997055741781,0.0022114061740456,0.00098030637582,0.0001928468626201
3,3,0.2220000000002073,0.0,-0.0089602016379646,0.002384031831214,0.979928584734028,0.0029472582589057,0.0468259034625745,0.0056228078104668,0.9999638935000896,0.0010811299919756,0.0084140112379051,-0.0004972614709144,0.2220000000002073,1.0,-0.0014197015664482,0.0076911199720522,0.9804452208670495,-0.0063828636930303,0.0487002250188652,0.0578191109160467,0.9999556304631804,0.0070523498220568,0.0010255016907371,0.0061603419753088,0.2220000000002073,2.0,-0.0022103843880374,0.0131933937634868,0.9799602280510464,-0.0213089814978256,0.0355966007872502,0.0702573923682701,0.999926507197244,0.0112932574733118,0.0010125920823973,-0.0042915262129263,0.2220000000002073,3.0,-0.0098772689723009,-0.0086826630205057,0.9793247933757836,-0.00164790808107,-0.0074852596453313,-0.0279833079992142,0.998672818657101,-0.0123868319989138,0.012933592949959,0.0482896452867114,0.2220000000002073,4.0,0.0058924733602565,-0.0157565265648051,0.9797943716047316,-0.0158515636467674,0.0087863371092395,-0.0670649225661524,0.9977725028941028,-0.0184038181767722,-0.0008444012688399,0.0641141086770383,0.22400000000016,5.0,0.0007967586844144,0.001115674942525,0.9800276120829564,0.0150648891200653,0.0025725355263478,-0.0146933379346254,0.2212714402182834,-0.6842352247546578,0.3559672298032262,0.5967817341833499,0.22400000000016,6.0,-0.0018591333405679,0.0012157507045815,0.9799326842051176,0.0024834861169601,0.006332083664024,-0.0138677098453788,0.0967222126780121,0.1956471258223751,0.2493437789646008,-0.9435012960371414,0.2250000000003638,7.0,-0.0007940355309833,-0.001148911723542,0.97996635121285,-0.0194946316074009,0.0128324691449093,-0.0127207200106741,0.9283316626420344,-0.2700618901748794,-0.2489571060343401,0.0573346227549606,0.2250000000003638,8.0,-0.0018055250576318,0.0032528175357157,0.9801755757298514,0.0132418455744005,0.0069390584063377,-0.0158930664002202,0.999994973897982,0.0028174192448673,0.0013237265550831,-0.0006017271643407
4,4,0.305000000000291,0.0,-0.0102528655428868,0.0021793737471021,0.9793927348506472,0.0024139803201105,0.0175659265171434,0.0444672818923057,0.9999575162281008,0.0012243676624065,0.00897142478355,0.0017263256088079,0.305000000000291,1.0,-0.0046405583121479,0.003795806962474,0.9797724516784776,-0.0529470509695879,0.0704208951858366,-0.1485455045005794,0.9999807523070284,0.0038624817131281,0.0046942626038888,-0.0012410274335253,0.305000000000291,2.0,-0.0077231816581943,0.0075716152294068,0.9800285828014876,-0.0878715099558349,0.1148813283862117,-0.1433292328373009,0.9998907674351194,0.0061756543534738,0.0071101014059914,-0.0113912663611586,0.305000000000291,3.0,-0.008835174112273,-0.0083620698250146,0.9802254921632304,0.0322033893071582,-0.0277112582229868,-0.0988983179368597,0.9989527940947476,-0.0099842030759807,0.0107136938793057,0.0433456759399905,0.305000000000291,4.0,0.0084524892538666,-0.014225860966702,0.980115901465316,0.0484138624496236,-0.0450295341411234,-0.1010803510562331,0.9981378887289502,-0.0146945750950106,-0.00340312401808,0.0591036656511969,0.3030000000003383,5.0,0.0007967586844144,0.001115674942525,0.9800276120829564,-0.0209651105965624,0.0224140129640182,0.0389394121003066,0.2320776958623829,-0.6566946290181189,0.3419188950251893,0.6308593952115765,0.3040000000000873,6.0,-0.0018591333405679,0.0012157507045815,0.9799326842051176,-0.0073333965333285,0.0093540212168127,0.0042757673983344,0.0979190138242735,0.1786864074977581,0.2272706395220574,-0.9522767932268758,0.3040000000000873,7.0,-0.0019013943251157,-0.0003242926969232,0.980272553698137,-0.0143629660548655,0.0176919567707003,-0.0038293272091285,0.9404936306452236,-0.2469669956928462,-0.2262260634287077,0.0574526063792191,0.3040000000000873,8.0,-0.0018055250576318,0.0032528175357157,0.9801755757298514,-0.0292734203395453,0.0157737926881778,0.0477536598172926,0.999995484658,0.0012416208769501,0.0020699519818969,0.0017900670384568
5,5,0.3350000000000364,0.0,-0.0107117297485419,0.0037735364582053,0.97989082007558,0.0207848846118737,-0.0021327284682499,0.0851930914603421,0.9999431458926968,0.0023710918642855,0.0085061527900122,0.0059773129666356,0.3350000000000364,1.0,-0.0094082678285636,0.0011657629403872,0.979179312226945,-0.0574635402607666,0.0662727254040519,-0.0870803038687706,0.9999520767591163,0.0006469329497045,0.008024918125358,-0.0055701303368971,0.3360000000002401,2.0,-0.0135932825270279,0.0010519302119385,0.9798398420726572,-0.0916227635838731,0.0845366866766412,-0.1047756029574754,0.9997973889023376,0.0010502295507409,0.0113754150425753,-0.0165734152958156,0.3360000000002401,3.0,-0.0060646145353549,-0.0053122311914629,0.9803754386204836,0.0729612671187245,-0.0425134087605363,-0.1214084112052534,0.999258383891966,-0.0055969654434869,0.0079391465728772,0.0372602489408597,0.3360000000002401,4.0,0.0123168706163136,-0.0088483441237925,0.9797300656326148,0.0884878327662282,-0.045316111149681,-0.1126337960243832,0.9985090845208712,-0.0090671575470051,-0.005768834457419,0.0535174301729134,0.3650000000002364,5.0,-2.357013702593506e-05,0.0016145116323826,0.980307295084882,0.0423501684488496,0.0172433878756745,0.0354253463022504,0.2447196883199666,-0.6264928351364566,0.3285457859522229,0.6630811927692559,0.3650000000002364,6.0,-0.0029683059741954,0.0004199232722104,0.9803020008263212,-0.0945396843112304,0.0085986091515092,0.0885617854971137,0.1037594576605226,0.1635292695103714,0.2101888390812379,-0.9582863898047806,0.3650000000002364,7.0,-0.0042270919046841,0.0003365501889952,0.9798795938420188,0.0035619300842392,0.0300261245170366,0.0351880896116464,0.95094723139252,-0.2250104522193421,-0.2038199464794455,0.0593892996764941,0.3650000000002364,8.0,-0.0032617232332758,0.0025156561535074,0.979595851683574,-0.0333381252850977,0.0093524200210131,0.0191632769268484,0.9999930123343952,-0.0004201883667552,0.0024947012217787,0.0027523062933987
6,6,0.4450000000001637,0.0,-0.0097870606050333,0.0034927677837158,0.9796336121315572,0.0043650703408812,-0.023288392620579,0.0960781519232355,0.9999142507157278,0.0025752844040567,0.0069806231513189,0.0107763642413468,0.4450000000001637,1.0,-0.0129809311007408,-0.0032786416197536,0.9803972388460136,-0.0607114077689552,0.0568407914662213,-0.0835927940214066,0.9998916421042894,-0.0026342053987892,0.0107328172484573,-0.009724795412541,0.4450000000001637,2.0,-0.0159683678265226,-0.0047967521137111,0.9802295661721884,-0.0982059770614076,0.0369991846795709,-0.0898135865989644,0.9996863232455264,-0.0042150464381178,0.01296782111078,-0.0210077156065181,0.4460000000003674,3.0,-0.0053831405815019,-0.0010080936021218,0.9802754743156482,0.0746216086063773,0.0070668377784165,-0.0477711254178541,0.9993605805723398,-0.0014022319233693,0.0079063569799133,0.0348418320852284,0.4460000000003674,4.0,0.0068184724496583,-0.0037280952071325,0.9804721361362494,0.0814366564703256,0.1121445161391286,-0.2051928311656629,0.9990549051107304,-0.0045034842690182,0.0002248466801224,0.0432315237714224,0.425,5.0,-0.0005189324924263,-0.0021307480163981,0.9819588538334788,-1.0210231224670117,0.4457201357356452,0.0200486138732601,0.2172057149017601,-0.6209709743442209,0.2852216460671912,0.6970404142162249,0.425,6.0,-0.0049973754112245,-0.007250063204657,0.9820496234012452,0.561122485850591,-0.0580736032115119,-0.3023668931032297,0.086113144439841,0.144826866989636,0.1665772641216135,-0.9715254603099228,0.425,7.0,-0.0061848952431814,-0.0040953205644731,0.9814687847406584,-0.088736192584551,-0.0841872255698423,0.0722502265921073,0.9574175045737296,-0.209341221345909,-0.188408598369036,0.0634836596442802,0.425,8.0,-0.0034738051091947,0.0019344908634441,0.9808675702780484,-0.0843947757181224,0.085961523305892,0.4687748281019637,0.9996238406801782,-0.0044514984033861,0.0068110656650198,0.0261910421763121
7,7,0.5140000000001237,0.0,-0.0075697275566025,0.0034166571933384,0.9799122540709152,-0.0148409700438649,-0.0186528060535824,0.089828469803903,0.99986543646739,0.0017873445160204,0.0057220554546187,0.0152699848994892,0.5140000000001237,1.0,-0.0143633481825909,-0.0033701605728672,0.9801134302960544,-0.0121337234378674,0.0172624484634114,-0.0190299405670144,0.999874714802417,-0.0031439956613239,0.011259779070622,-0.0106718023476755,0.5140000000001237,2.0,-0.0168951706171845,-0.0044218153553918,0.9802081415489156,-0.0380826892897917,0.0171471429373484,-0.0320782268915763,0.999637240751328,-0.0059071626409145,0.013424879425293,-0.0225890448009938,0.5140000000001237,3.0,-0.0087377980880231,0.0020661024489347,0.979731790902614,0.0454495532679048,0.0564729932725446,0.1172141729772534,0.9991171065887228,0.0010462273645743,0.010459145033422,0.040675779221175,0.5150000000003274,4.0,0.0042022692977868,-0.0011572300260586,0.9797331278217634,0.0635689511837294,0.0055256249016404,0.2296795001570166,0.9985027615352208,-0.0009384433086258,0.0004097294705722,0.0546917420864905,0.4840000000003783,5.0,0.000686820655625,0.0192996372611766,0.9794519142249782,0.3983383491006075,-0.0280540418472905,-0.0920911493263794,0.2428134112814208,-0.583560330449606,0.2803850126812208,0.7224148618980496,0.4840000000003783,6.0,-0.0052669765742255,-0.022896060388829,0.9800173617729624,-0.4105416659045083,0.034203571007665,0.1488308218587196,0.0963022693384857,0.1322360945638858,0.1708101227736369,-0.9716292452230963,0.4840000000003783,7.0,-0.0062851478613742,0.0009990228671524,0.9804501511396037,0.0230713143424189,0.0261566705660814,0.066003698931701,0.9649810306516136,-0.1894182090594031,-0.1686203327268468,0.0670785804140562,0.4840000000003783,8.0,-0.0040198114494926,0.0007847755218199,0.9802511031584156,-0.0345133675673067,0.0091758506484552,0.0205334947812347,0.9995901560377788,-0.0057017215206558,0.0067552740509574,0.0272282316092411
8,8,0.5500000000001819,0.0,-0.0075697275566025,0.0034166571933384,0.9799122540709152,-0.0052677196389734,0.010254612565323,0.0716535683443069,0.9998028165434828,0.0015263471926164,0.0060418170173759,0.0188545682288254,0.5500000000001819,1.0,-0.0120201338777711,-0.0020053966223315,0.9788301664568512,0.039445974730418,-0.0481067761303421,0.053371212876924,0.9999327574856364,-0.0009488944182247,0.0083250128555359,-0.0080171233936849,0.5500000000001819,2.0,-0.0167309944976901,0.0012788340035084,0.9795184727235672,0.0505782986582098,-0.0270856578897098,0.1892685186910196,0.9998435116890764,-0.00260658333548,0.0115473622290835,-0.0131459606769969,0.5510000000003856,3.0,-0.0126973882137349,0.0043296954165268,0.9801765300547396,0.0385058250125441,0.03368603363402,0.0909219838255188,0.9989034810397532,0.0030381038213179,0.0118162533864166,0.045199354505818,0.5510000000003856,4.0,0.0034133545248134,0.0020408874641376,0.9801199843841808,0.041642683890413,0.0102046615223039,0.1377121042980909,0.9981021055161884,0.0013219253561246,0.0008146966503984,0.061561154528424,0.5540000000000873,5.0,0.0021507861868088,0.0463851631756301,0.9783423688852226,0.2699323581695688,-0.0432007476258188,-0.078508772827327,0.2629608192961927,-0.5452989379065126,0.2718479874815494,0.7480637322684048,0.5540000000000873,6.0,-0.0057760523550177,-0.0404136612858834,0.9786482377241896,-0.2085083881372149,0.0255089802094326,0.0161741278319121,0.0984142798238669,0.1200229756094467,0.1665861936444413,-0.9737341294930872,0.5540000000000873,7.0,-0.0087675070725172,0.0026466311281515,0.9800990389564744,0.0094323121852225,0.0400152052278601,-0.0240624475610829,0.9714773545150498,-0.1709187625623826,-0.1505160937394131,0.0660562774761956,0.555000000000291,8.0,-0.0040346700625528,-0.0016429340950639,0.9799255187028478,-0.005171379167835,-0.0030435777514299,-0.0939308209331657,0.9997122645285924,-0.0055069338000662,0.0060981034582871,0.0225360814128712
9,9,0.6520000000000437,0.0,-0.0097870606050333,0.0034927677837158,0.9796336121315572,0.0074057923094518,0.0256290803441202,0.0495398155510005,0.9997445620340104,0.0019035156533857,0.0072237898527472,0.0213308267946868,0.6530000000002474,1.0,-0.0078614150578476,-9.950604710410906e-05,0.979099682489906,0.0303001299235346,-0.0745255504077794,0.0763059599787049,0.9999822938339454,0.0006610182753398,0.0041529585110711,-0.0042104642316142,0.6530000000002474,2.0,-0.0120484362786039,0.0048741778581517,0.9799020755021632,0.06661536186503,-0.0417642952676952,0.0532818508216404,0.9999046606287946,0.0012446083170639,0.0088687494004091,-0.0105102753068103,0.6530000000002474,3.0,-0.0144864554787096,0.0069370385874343,0.9802081514164732,0.0152215184912195,0.038422794877378,-0.0384568864598126,0.9989670616710872,0.0037050687370115,0.0133493714594782,0.0432767425244254,0.6530000000002474,4.0,0.0005716379541251,0.0029434379558255,0.979788247226435,0.005296773016722,0.0792619701929234,-0.1459236157228264,0.9985138985862034,0.0013559480717598,0.0046966938001716,0.0542779587158099,0.5690000000004147,5.0,0.0013304573653685,0.0468839998654878,0.978622051887148,-0.1754741919722131,0.1015994375808902,-0.0525045077688185,0.2671753875650323,-0.5172211757121675,0.2497017166450647,0.7737884855559081,0.5700000000001637,6.0,-0.0058957896639133,-0.0413494631423247,0.9789798065139448,0.1494277035264015,-0.0073249826872971,-0.1572632341638428,0.0900921802659273,0.1074684822397518,0.146296449768886,-0.9792503628618352,0.5700000000001637,7.0,-0.0095615426035006,0.0014977194046093,0.980321546095783,-0.0203719686674465,0.0114346983114624,-0.062288560350273,0.9764904234945796,-0.1551373868639374,-0.1356834138555145,0.063157384563632,0.5700000000001637,8.0,-0.0044137141706612,-0.0025083744109077,0.9802531444402688,-0.0356373516808501,0.0364242617791938,0.0715005399177259,0.9996070599579492,-0.0068896485552015,0.0075154611191859,0.0261108458150493
10,10,0.680000000000291,0.0,-0.0107117297485419,0.0037735364582053,0.97989082007558,-0.0451034194533089,0.0208612119899923,0.0865068732244466,0.999637941279864,-0.000351381162136,0.0080479744265345,0.0256728064820254,0.680000000000291,1.0,-0.0026118660492075,-0.0031711595627188,0.979184416697268,-0.0887457396900536,-0.069386180607562,-0.1830701236470975,0.9999026204692332,-0.0040559398724421,0.0003840692582759,-0.0133473376115309,0.680000000000291,2.0,-0.0128786753296746,0.002847743178715,0.9803540330312008,0.0115443355514519,0.048797957356391,-0.3052721776961778,0.9996048476783064,0.0017393899589419,0.0110955387787795,-0.0257684310700021,0.68100000000004,3.0,-0.017094140580284,0.0070832982720924,0.9787321478542584,-0.0261032508644255,0.0485214119471191,-0.0355133177658208,0.9990180283761012,0.0022256424070307,0.0152735385104446,0.0415300435440794,0.68100000000004,4.0,-0.0022138913583017,-0.0002555423316636,0.9798739885225908,-0.0314565753028417,0.0194645673533715,-0.0148225147757976,0.998551612405,-0.0004256618618533,0.0052252346342551,0.0535461772526385,0.6590000000001055,5.0,-0.0145444262943444,0.0187950952184617,0.9785832637335964,-0.3646793985556584,0.1772236286690477,-0.0090925673105802,0.264233659720193,-0.4943670687578986,0.2218966597284987,0.7978368547516035,0.6590000000001055,6.0,-0.0028471583569427,-0.0200450576182377,0.9798898353153642,0.3505391602116519,-0.0315413387233637,-0.057708347944688,0.0858382473518074,0.096628556304553,0.1162091692549006,-0.9847792373822436,0.6590000000001055,7.0,-0.0092374919672407,0.005606927253393,0.9802245819754422,0.111701955598084,0.0181774107232394,-0.1397437219254617,0.98186046231072,-0.1335566047113556,-0.1218223858180218,0.0572011556051032,0.6600000000003092,8.0,-0.0130587778621853,-0.0117993771764274,0.9792835355600512,-0.2659080424287942,0.1738379333831672,0.3342847036288195,0.998748407037834,-0.0201985545521086,0.0160842685179491,0.0428361312403118
11,11,0.7900000000004184,0.0,-0.0099896216901116,-0.0010707235200257,0.9799990107187008,-0.1209278481446427,0.0316113984585342,0.1027865442856281,0.9994607738444607,-0.006426264709248,0.0092085723750368,0.0308555807420898,0.7900000000004184,1.0,0.000799243295583,-0.0100466071347981,0.9788801902660168,-0.1115235518387829,-0.012014111329226,-0.0598728093016145,0.9998190133619048,-0.0097482356186991,-0.0002436654136686,-0.0163356374077061,0.7900000000004184,2.0,-0.0123577204034664,-0.0038951277092327,0.9798418825129688,-0.1178428948117437,-0.0059168327953312,-0.0402649838401198,0.999550683309038,-0.004536431211802,0.0104682203201736,-0.0277176595625321,0.7900000000004184,3.0,-0.0205510700140646,0.0016248073959712,0.9802336525146456,-0.0848180457067721,0.0664488603056604,-0.0392644362115935,0.9990503578516604,-0.002362518372521,0.0179351050665667,0.0396375199736316,0.7900000000004184,4.0,-0.0034777783830432,-0.0057492268203681,0.9787685382400102,-0.0711182413157294,0.0324864569878467,-0.0052976745978208,0.9985495070646988,-0.0043249844898292,0.0062947647751832,0.0532968327992833,0.7260000000001128,5.0,-0.017244011332942,0.0079662509404043,0.979252869752805,0.142803504793045,-0.0582043468535529,0.019689279489753,0.2752895478770286,-0.4554019965473714,0.2115429455296945,0.8198013592126753,0.7260000000001128,6.0,-0.0040516740598615,-0.0071013278711014,0.9797949556309112,0.0328857327207275,0.0381764284091015,0.0869870182097747,0.089924857848643,0.0899319578630418,0.1033445348115228,-0.9864814595421504,0.7260000000001128,7.0,-0.0026175660964957,0.0147998508339693,0.9794080420146768,0.1073740411604399,-0.1241894637233379,0.2815852367991324,0.9840196307899436,-0.1159381409747871,-0.113998945842006,0.072580672594327,0.7270000000003165,8.0,-0.020504301093165,-0.028217512700454,0.9791886159538828,-0.1926030181706007,0.1204725110281652,0.4645790257953835,0.9971560311264588,-0.0291438517500694,0.0217265818056606,0.0660184908668867
12,12,0.8140000000003056,0.0,-0.0101991235073883,-0.0085417715714844,0.9796254468000012,-0.1403550551011322,0.0378170233651667,0.1876702067392923,0.9990448980367702,-0.0132180564014615,0.0105906415284086,0.0402791882202716,0.8140000000003056,1.0,0.0046663752223729,-0.0132097796035265,0.9786811159234196,-0.1715078205846655,0.0196301807305489,0.2184134781815805,0.9998226723722842,-0.0180116333531926,0.0008714835770076,-0.0054263607205093,0.8150000000000546,2.0,-0.0124548089350203,-0.014835183001713,0.9792889231885032,-0.2138648425142508,-0.042205238421148,0.3176772236177077,0.999776583462162,-0.0154044634931906,0.0085070533968936,-0.0117096416561684,0.8150000000000546,3.0,-0.0233981709256451,-0.0049185657434568,0.979195247797068,-0.0858318515862247,0.0716820874022769,0.0569333256880604,0.9988557720370724,-0.0068021249599186,0.0207542822880415,0.0425457110759924,0.8150000000000546,4.0,-0.005007657270697,-0.0112643927545605,0.979883175090036,-0.0587268580457965,0.0308784638152969,0.1072548845964649,0.998223482628173,-0.0074595436495865,0.0073145023752601,0.0586577530529727,0.7960000000002765,5.0,-0.0107663000511738,0.0347802434435402,0.979031368981207,0.4059069921683386,-0.0802741701397685,-0.0391569367816464,0.293272964734709,-0.4125913238865601,0.2111915973455409,0.8361563710334861,0.7960000000002765,6.0,-0.0066987697751334,-0.0044862548366008,0.9801877371203136,0.08043919831981,0.0460349881713934,0.0605411128445382,0.0924950570521339,0.0844025079304394,0.0894248710485914,-0.9880911261183948,0.7960000000002765,7.0,0.0031868694970441,0.0106783854931137,0.9788405467419448,-0.1276267581210617,-0.1654318273481154,0.1657910207967471,0.9843318421859856,-0.1107297147385837,-0.1107096738380362,0.0810747978803023,0.7960000000002765,8.0,-0.0389464194135987,-0.0518235487959089,0.9779066909501428,-0.4987364673986288,0.4475157975022339,0.1959974439783352,0.9947131330631058,-0.0550516694140054,0.04250229343067,0.0755556196430416
13,13,0.9090000000001056,0.0,-0.0095817663575964,-0.0171215555754447,0.979546855483772,-0.1823463658902422,0.0161779123831804,0.1281884033571502,0.9986111655857948,-0.0218578550554513,0.0105653119594443,0.0467584037682519,0.9100000000003092,1.0,0.0023375102534052,-0.0256198499110011,0.97993273204662,-0.1847086660490553,0.075517830857708,0.2794514040668518,0.9995952537436704,-0.0267145972323515,0.0048698452672472,0.0084819570214216,0.9100000000003092,2.0,-0.0117702026812805,-0.0292188312609968,0.9780075266727668,-0.2476748315829388,0.0235303570230904,0.2830760361327061,0.9995662031364771,-0.0275915452753287,0.0099853272369467,0.0025308924546465,0.9100000000003092,3.0,-0.0244611004752604,-0.0121737967070208,0.9796767085305618,-0.196957089980229,-0.0278419740565682,0.3201407793310367,0.9979739437096006,-0.0162308334002735,0.018348009273787,0.0587189771669161,0.9100000000003092,4.0,-0.003655341143567,-0.0193289424243389,0.9795167331219414,-0.2203566200192313,-0.0387963053897728,0.3725893363737955,0.9968273989068192,-0.0184400581738821,0.0044741914602521,0.0772986588110427,0.8720000000002983,5.0,-0.0078281164382994,0.0579344420692283,0.9785312059485666,0.1493660225872863,-0.0261858104353022,-0.3532786103965492,0.3165335146459379,-0.3800177866639401,0.1953053677572766,0.8469054429215369,0.8720000000002983,6.0,-0.0091063908726141,4.219107821473722e-07,0.9799173810302058,0.0551727257834724,0.0911197509190291,0.0402222701610444,0.0940215809628336,0.0815006031820671,0.078184000613164,-0.989143496183607,0.8720000000002983,7.0,0.0165493627153164,0.0026024905365801,0.9803317528452928,-0.1382978298491127,-0.1684673665210233,-0.0111131721536227,0.9850231567422184,-0.1057728292479671,-0.1096242601969655,0.0807713491947708,0.8720000000002983,8.0,-0.0679199107209942,-0.0477514952720708,0.9765084128807768,0.1782404306122762,0.2859950717901002,-0.0403624638716091,0.9947853483694564,-0.044538210775147,0.0563267526011013,0.0724275872290525
14,14,0.9790000000002692,0.0,-0.0058224070158651,-0.0260582188442719,0.979489698162878,-0.2249677358325248,0.0179287602741766,0.0619445875026498,0.998179413323636,-0.03225067953706,0.0102119658663632,0.049934639674519,0.9790000000002692,1.0,0.0002074836964221,-0.0344927070114215,0.9790751810323556,-0.1545948508649736,0.0773162901770002,0.1783111239785109,0.9992523957401672,-0.0335156655033893,0.0084534410337711,0.0173173066060948,0.9790000000002692,2.0,-0.0136914206425075,-0.0365709785410144,0.9791277284038804,-0.1774214212231606,0.0657276814325165,0.1738385553751001,0.999219424453508,-0.035484655912373,0.0132500278341587,0.0112168512504483,0.9790000000002692,3.0,-0.0265820636714817,-0.0285797439809205,0.9790881431847442,-0.2702870934628552,0.0750675642601932,0.1708962919706437,0.9970634864897916,-0.0296796585775758,0.0209824216803636,0.0674037072865213,0.9790000000002692,4.0,-0.0028828995705306,-0.0381468001853505,0.978976767102103,-0.2785040676000591,-0.0138553619401248,0.2282870723849962,0.9955304595347916,-0.0323039926361516,0.0026255638864892,0.0887054824263307,0.930000000000291,5.0,0.0039240607033471,0.0809525085405663,0.9755220618256596,0.5496878021058981,-0.2422543060378082,-0.0305770934947318,0.3350814089816294,-0.3287301899192035,0.2008669183405654,0.8598310256712856,0.930000000000291,6.0,-0.0252327617792852,-0.0066805607773271,0.9793654465217212,-0.2090451781381617,0.2849470720172561,0.5150156756568831,0.1194404505062152,0.0897351232889224,0.0804713994924947,-0.9854978134399454,0.930000000000291,7.0,0.0196933227199173,-0.0110500783660854,0.9794815306111456,-0.1894213156515246,0.0663713136760075,0.0197177573255304,0.986365071799582,-0.1055791176974628,-0.0972861045064907,0.0804512828361549,0.930000000000291,8.0,-0.0796627090975827,-0.0348082746847288,0.9757470147495744,0.4289645945853603,0.0197159514195482,-0.0738494339151177,0.995862618457112,-0.0210634543923184,0.0570620689085101,0.0675121940147655
15,15,1.04300000000012,0.0,-0.0019652374976938,-0.0341669148350869,0.9788803602954907,-0.1959193646862194,0.0440194058902451,0.0490012986326428,0.9977390508781993,-0.0406316922467107,0.0110106461272653,0.0523890981951303,1.04300000000012,1.0,-0.0028489373604116,-0.0397448079616047,0.9780389735567858,-0.1440449033231191,0.105263079415858,0.2679629162301129,0.9986675802236706,-0.0393647876927279,0.0133770336085729,0.0305701271168433,1.04300000000012,2.0,-0.0137399649082845,-0.0420410061872546,0.9788512487416474,-0.1641346925779354,-0.00012994032092,0.2794781151961015,0.9987078403173376,-0.0420976134908498,0.0130909277270648,0.0252797990161975,1.04300000000012,3.0,-0.0280980942485123,-0.0441750881713557,0.9775111552737668,-0.2733998520797588,0.002097564297565,0.2657727059298836,0.995621769253763,-0.0423946325757581,0.0199085800895902,0.0808927447648424,1.0440000000003238,4.0,-0.0024565825328024,-0.0582397812128016,0.9779325606024908,-0.3253255223629687,-0.0110294614849424,0.2619337284226612,0.9936465022245364,-0.0481200725880247,0.0008638838644384,0.1017366253408123,1.0650000000000546,5.0,0.0096717673836086,0.0967515891256602,0.9749279906317886,0.2459565514770622,-0.0576154847064109,0.0952918441871084,0.3389102222706338,-0.2912614869967885,0.1986945858662248,0.8722540163165422,1.0650000000000546,6.0,-0.0432182660265242,-0.0121457927608548,0.9785574388863798,0.0249265330910451,0.2347912723905495,0.7074579717186202,0.1535711423008444,0.0978343738508785,0.0702782752405407,-0.9807677113235505,1.0650000000000546,7.0,0.0107476992696039,-0.0195821590607431,0.9799051107157928,-0.0988833970646455,0.0906258706658157,0.1495846083083553,0.9874376270685088,-0.1020991027963919,-0.0834898550646218,0.0870181013282465,1.0660000000002583,8.0,-0.0799074818836002,-0.0208105670349862,0.9758123357688732,-0.0358916475543657,0.0731617369181115,-0.0480342231455113,0.9958859348958556,-0.0224662504848447,0.0588268523837838,0.0651603691240024
16,16,1.118000000000393,0.0,-0.0049556874776948,-0.0437032136107941,0.978539457703016,-0.210896201869392,0.0818163389101942,-0.0332072369394543,0.9973942479214596,-0.0495600858021922,0.0134911208155512,0.0506606530515124,1.118000000000393,1.0,0.001133878196273,-0.0381134631616585,0.9792538374936608,-0.0713587529874593,-0.0212263933731891,0.4546693297134647,0.9976847595946556,-0.0405872803750749,0.0116761209368604,0.0533053594320201,1.118000000000393,2.0,-0.0103900573443137,-0.0444386597039203,0.978679851755466,-0.0523993990830958,-0.1138212158765121,0.5762467636312436,0.9976019732344332,-0.0422470193793702,0.00772423017767,0.0542754882104877,1.118000000000393,3.0,-0.0293190023704618,-0.0565219027999011,0.9777671862994172,-0.3065060123534988,0.0762714867996497,0.1032771745715169,0.9944297559991554,-0.0565952316593974,0.0220199836240429,0.0861484791396577,1.119000000000142,4.0,-0.0048075582075326,-0.0737218723923342,0.9770506501277452,-0.3245415132250711,0.0095352353478823,0.2180448183587691,0.991639191487068,-0.063202827571593,0.0001500845236434,0.1125037509084264,1.1690000000003238,5.0,0.0183522527465656,0.1164139309223444,0.9724700465856694,0.2935880330099223,-0.1766120160631783,-0.2978639751341311,0.3603451951216588,-0.2532326630283708,0.1913736784918263,0.8771548745283244,1.1690000000003238,6.0,-0.0577959270401058,0.0065007863490278,0.9776647536831932,0.3965840295758512,0.1780169103369663,0.4877255853403493,0.1753877774391271,0.1051961994914835,0.0428498241389928,-0.9779247311060134,1.1690000000003238,7.0,0.0042298640525114,-0.0266426651271739,0.978613956902832,-0.1341201209722091,0.1219466048789283,-0.0160254208413656,0.9887962782028084,-0.1004346805002694,-0.0702119077542118,0.0852354572616179,1.1690000000003238,8.0,-0.087627495126718,-0.028086414143038,0.9751315682708682,-0.2756956394032783,0.1301780448341266,0.3445403175540313,0.9939131669559872,-0.0350512787621979,0.0634828875387664,0.0829333913354249
17,17,1.1660000000001671,0.0,-0.0125833646396357,-0.0576507825094882,0.9780066698189688,-0.2275312133310371,0.1715526920034528,0.0886028672904064,0.9965180117334288,-0.0592870508209795,0.0208688194827377,0.0547849456438651,1.1660000000001671,1.0,0.0028451666558548,-0.0407355200897549,0.978810769469624,-0.047377133445892,-0.0198733387726056,0.2414848890575875,0.9969810695880535,-0.0407653382309998,0.0096294746081102,0.0653774219493607,1.1660000000001671,2.0,-0.0038538935439038,-0.0415931893659157,0.9791063037806076,0.0146844026449388,-0.013689917156023,0.0864653085977809,0.9974840120959508,-0.039350717060462,0.0065607715055717,0.0586013904019727,1.167000000000371,3.0,-0.0343525649293574,-0.0722391492574893,0.9769725720803673,-0.2869230666417492,0.1412472113899076,-0.1833696954669024,0.9942389196033982,-0.0698289984944282,0.0263903987896495,0.0769183239992647,1.167000000000371,4.0,-0.0192663642796964,-0.0943070450295037,0.9755695713096249,-0.3590575261202441,0.4630725586432953,-0.6777599424082514,0.9934497485163388,-0.0821592935443613,0.0187695010204522,0.0771696409772508,1.22400000000016,5.0,0.0260499260550622,0.1386971575782056,0.96960584766814,0.3442474253588511,-0.1206044654512664,-0.3271752923299941,0.3818673345553261,-0.2183457578772552,0.1885646249043203,0.8780352219878829,1.22400000000016,6.0,-0.0685369943720127,0.0450524486530785,0.9770332426651678,0.9204576032090616,0.4093901335522401,3.882892518190587,0.3656837412466981,0.1466182199234033,-0.0305912799698062,-0.9186090967131336,1.2250000000003638,7.0,0.0007296712923181,-0.0353475198701265,0.9796009495804074,-0.162548148483554,-0.0070194706493014,0.5704740922364795,0.9863990501329256,-0.1022571459670615,-0.0615711129373099,0.1130017170099365,1.2250000000003638,8.0,-0.1011544687753731,-0.0553174893366126,0.9730127177073616,-0.4486398171224391,0.3112711633778656,0.7389537504676705,0.9881321782449766,-0.055868823970869,0.0775789279284503,0.1202288765913688
18,18,1.2550000000001091,0.0,-0.0291851249039379,-0.0750294330724019,0.97617253221814,-0.3481717669585332,0.3365535016608337,0.3996691577911963,0.9937302189530146,-0.0750524913032778,0.0373228919833356,0.0739890344765042,1.2550000000001091,1.0,0.0046979556555564,-0.0479770323902293,0.9791680823922344,-0.1287198430042755,-0.0460202454043262,0.6110795047884476,0.9943511008249456,-0.0450568822663869,0.0069356437541901,0.0958522951961351,1.2550000000001091,2.0,-0.0059196947185361,-0.0386725661241811,0.9795562208693336,0.079791693597723,0.0391017460083715,-0.7308063673223333,0.9991646777533826,-0.0337415954584609,0.0070394691625773,0.0219521602537402,1.2550000000001091,3.0,-0.0439408584271363,-0.0902943765244933,0.9745081459529928,-0.2272907115529087,-0.014940641555817,0.1398170205271016,0.9930330617148312,-0.0786639261106189,0.0245684208147343,0.0842242112981876,1.2560000000003129,4.0,-0.0348197312160466,-0.1146160566868146,0.972158292598282,-0.308519667870911,0.0855979115507072,0.2787971404037127,0.9910324971657704,-0.0952740922940143,0.0225923651078743,0.0909231650227907,1.2910000000001671,5.0,0.0426277913470709,0.2702059560050821,0.9409944807193348,3.852666941193454,-0.901656995062543,-0.1222408540327948,0.442557859148076,-0.0697706448514976,0.3335982829358814,0.8294496874708615,1.29300000000012,6.0,-0.0016087261303282,0.1562079861467009,0.9680859864000873,0.6538170933797812,-1.2814426503768757,-0.2717344286629237,0.348849701473556,0.088433780288611,-0.0859047797663782,-0.9290337567058404,1.29300000000012,7.0,-0.0369201966792588,-0.0443251586030752,0.9786578459257234,-0.3058960079149703,0.877895041565012,-0.8131648297703962,0.991293065602815,-0.1119641715754273,-0.0164914597352931,0.0673061225075445,1.2940000000003238,8.0,-0.1001218905470183,-0.0627288971208999,0.9729433141243566,0.0006294971763307,-0.249627868925534,0.0301308982316731,0.9891414363411404,-0.052429102592289,0.0622460075645737,0.1223758254583987
19,19,1.2860000000000582,0.0,-0.0461409984652571,-0.0870783968984831,0.975023261801594,-0.0160934780132185,0.1111873479439558,0.0494484297821889,0.9935505565510032,-0.0732821218907442,0.0412601324877221,0.0760567134149089,1.2860000000000582,1.0,0.0016271852628704,-0.0421838269834737,0.978163522632667,0.2407665509838895,0.000650335776992,0.5329473818083821,0.992014209792844,-0.0305519219422736,0.007953956272672,0.1221111060236744,1.2860000000000582,2.0,-0.0084873827052502,-0.0263770788440825,0.9790787578364,0.2689260748430829,-0.1154778849750848,0.60184388955031,0.9984803248129128,-0.0179416615257942,0.0018050221779273,0.0520757106349119,1.2860000000000582,3.0,-0.0576577635065298,-0.1219032029505028,0.9705422151652308,-0.6907223259197252,0.3558771016130622,0.4980874648797292,0.9868917064050802,-0.1121597685848961,0.0419476656641578,0.1081912172275517,1.2860000000000582,4.0,-0.0372913180072681,-0.1297049564434008,0.9703648704870228,-0.3650013618418286,-0.1863186844804868,0.93354140615858,0.98433163704565,-0.1084989212536912,0.015846387494603,0.1380873071690053,1.3640000000000327,5.0,0.0575973730817228,0.355845827640344,0.9108162765152166,-0.1577731513227465,-0.2032071640150277,-1.1062729859098277,0.4908676996025755,-0.0674063237479079,0.3013694091042944,0.8146666608262525,1.3640000000000327,6.0,-0.0140813143713537,0.1837490633475181,0.9628971898933368,-0.3079702805541,0.2834101272192919,-1.9890557262768973,0.2605770849682178,0.101889880630726,-0.0576262426883189,-0.9583304498804937,1.3640000000000327,7.0,-0.0636960478335303,-0.084893176622911,0.974747640188608,-0.8774436200859633,0.3433017283901135,-1.2409403689306038,0.9888666862586324,-0.1486034613393944,-0.0070562427426416,0.0031460330861852,1.3640000000000327,8.0,-0.0900284523158569,-0.1079695041099409,0.9688923902869012,0.018836672213461,-0.246852091160734,-1.212543045281868,0.9955883176878736,-0.0544615111880247,0.044321620096937,0.0622369622855191
20,20,1.399000000000342,0.0,-0.0551150815676184,-0.0905094785627026,0.973721912084812,-0.1391388915843839,0.1462534933290536,-0.0661119923283393,0.9932142076686212,-0.0783874905515475,0.046067960684088,0.072516770533673,1.399000000000342,1.0,0.0004732536793306,-0.0200096713264132,0.9801573287408324,0.3715964055307263,0.0292735058889199,0.5899741279213211,0.9884301610993294,-0.0100754466223336,0.0110215690466912,0.1509398125752893,1.399000000000342,2.0,-0.0064876195346328,0.0026245573082355,0.9800306232417992,0.4982587352108671,0.1009961135270546,-0.1375527232310261,0.9989143251157472,0.0085868290435482,0.0083612045146008,0.0450169712952003,1.399000000000342,3.0,-0.0827311946590892,-0.1620252757045359,0.962761320090888,-0.755524077666535,0.2653099830872707,1.296881461735135,0.972709697697392,-0.14485503494004,0.059185406956539,0.1713182724094445,1.400000000000091,4.0,-0.0258277261921339,-0.1616852685480699,0.9660237070042756,-0.5590429119679333,-0.5739679313188296,2.3502344055478552,0.959072486822848,-0.1263612069597062,-0.0021490489643795,0.253393354261064,1.3790000000003602,5.0,0.047601532205915,0.3968345110899333,0.8942026979044868,0.2496499123075439,-0.119043516399508,-1.145965272132445,0.5389779140679822,-0.0552779481316429,0.2923965269063964,0.7880047129620222,1.3790000000003602,6.0,-0.0221494267312015,0.2526402329476015,0.9463167099822662,-0.0434165709406639,-0.5977444319022046,-0.6831121121908865,0.2275771667099923,0.0691432529561467,-0.0661975136510258,-0.9690437208657392,1.3790000000003602,7.0,-0.0778620388146065,-0.1545964935108038,0.9642704118170362,-0.8111385974974141,0.2517945708743421,-0.3739650835985857,0.9832291987658272,-0.1814789600517466,0.0064240198575538,-0.0168659930545279,1.3790000000003602,8.0,-0.0751760343251219,-0.121284946259687,0.969215933460616,-0.2109137558938093,0.0271532955702598,-0.4849951293173825,0.9961083973102008,-0.0670920119313591,0.0423994462448991,0.0383276623502096
21,21,1.4450000000001637,0.0,-0.0606839186252653,-0.097547536758917,0.9730482722314192,-0.0504928901651684,0.0945312552450638,-0.1279646596424769,0.9935337323119952,-0.0788958580331577,0.0482029798351063,0.0658987031619346,1.4450000000001637,1.0,0.0026003984748345,0.0015398258468323,0.980464617854277,0.2753006390700404,-0.0674543440090767,-0.4275213471418647,0.9915237391619244,0.0049573216000674,0.0086313286374309,0.1295438142361963,1.4450000000001637,2.0,-0.018110615042694,0.0298400891766683,0.9789257248130236,0.3930032202659424,0.2194941336260544,-0.2313370926116536,0.9988304113093528,0.0282420086526606,0.0206872251910414,0.0333502189610169,1.4450000000001637,3.0,-0.1086776992157738,-0.1866507495274625,0.9560259700416104,-0.3828873990180988,0.0742673227162629,0.9035169632113612,0.9616748001383548,-0.1570530624667498,0.0644690836760292,0.2153129155407157,1.4450000000001637,4.0,-0.0302232072345866,-0.1942748027055454,0.9602269829463118,-0.5070093342249392,0.0114259872274446,0.7971371079344913,0.9453104945297316,-0.147877466841811,-0.0029367654501637,0.2907089595129362,1.443000000000211,5.0,0.0581074478117849,0.4294761084720701,0.8775248126181319,0.5653305768482904,-0.2544742841371521,0.0452119972807256,0.5408017555369076,-0.0102115984341583,0.2970244850317524,0.7868962064702312,1.4440000000004147,6.0,0.0187753326187842,0.3504694779598885,0.9144952880707354,3.8101779705102383,-1.5648334433017683,-2.5473333433252825,0.0894370629589141,0.0138261424324269,-0.2747062277336988,-0.9572598069484808,1.4440000000004147,7.0,-0.0866310528936607,-0.1961913089664128,0.9563979459203062,-0.8254277674588959,0.1744790363896432,-0.0640982986791499,0.9765247192165816,-0.2135910605720269,0.0188583283996701,-0.0205595489411373,1.4440000000004147,8.0,-0.070212796325636,-0.1440473872670977,0.9667184251133611,-0.4393602461234907,-0.0862723356321056,-0.120382509653074,0.9947544653547268,-0.0898101473932328,0.0357871191906601,0.0334211487245866
22,22,1.47400000000016,0.0,-0.0785533130280548,-0.0783228037521725,0.973355492831224,-0.0189749421636736,0.0681311355941766,-0.1717658764478692,0.9941516250257914,-0.0768550067103955,0.0497858650828988,0.0572470264736141,1.4750000000003638,1.0,0.0092409503782184,0.0128676650730428,0.9797009890939558,0.187824719385886,-0.1360184361463261,-0.4061080758785675,0.9939011156757072,0.0152120876656433,0.0021460291753373,0.1091996300644636,1.4750000000003638,2.0,-0.0377180568599981,0.0479865316231272,0.9778055230819104,0.3677910646773059,0.5101816086554166,-0.668433204550766,0.997844177501789,0.0445822331308295,0.0481598697108482,0.0002210526645018,1.4750000000003638,3.0,-0.118332742242196,-0.2119904819938863,0.949570112028302,-0.4693168850936337,0.1028577760847862,0.0752320897284164,0.9574799728190206,-0.1766451117354437,0.0621461675394942,0.2194685854754914,1.4750000000003638,4.0,-0.0461466441203794,-0.2212141102294246,0.9540046145967171,-0.4143634269281658,0.3009242629105235,-0.3920909856726373,0.9481224451471724,-0.1685480962535159,0.0012293939011466,0.2695437939335622,1.5140000000001237,5.0,0.0662204118062551,0.436001490181393,0.8753802360230752,-0.1323656845681274,-0.3871360445035316,-0.8403639387384719,0.5780054043040966,0.0042514487136904,0.268974995795775,0.7704181523145437,1.5150000000003274,6.0,-0.0199947235531935,0.3793850678406741,0.9036892061597056,-0.3672373529753845,0.1268077957363073,-1.4591554371136233,0.0213560636607606,0.0415998744204953,-0.2470357633325799,-0.9678774202489724,1.5150000000003274,7.0,-0.0944536489645214,-0.2555593097191418,0.941027601833848,-0.6436742171944575,0.2046863708335482,-0.617303721349268,0.969832811130826,-0.2369423270437382,0.025278250684655,-0.0514165552278811,1.5150000000003274,8.0,-0.0587255680550496,-0.1788273791678922,0.961389658835872,-0.5133572350364737,-0.1675568417724697,-0.1809857917673381,0.9926523304331316,-0.1155786092511558,0.0246814414446185,0.0259569338993893
23,23,1.5360000000000582,0.0,-0.0919949820661811,-0.0621578486738999,0.973481034803902,-0.0882573689769389,-0.0501669993645668,-0.2665965146498812,0.9949511182103506,-0.0775309119454922,0.0455314286960464,0.0445883288066511,1.537000000000262,1.0,0.016173089174736,0.0292645673432092,0.9794059507092864,0.2094603526793765,-0.1639199103404849,-0.5024968398426732,0.9961021998973286,0.0265322622100225,-0.0050829133994235,0.0839679129971385,1.537000000000262,2.0,-0.0652903520804558,0.0730373045282649,0.9753100645807236,0.4346347227538232,0.2109771375711056,-0.7556994360611891,0.9954708312498118,0.0636228951296243,0.059544749650823,-0.0380049225121485,1.537000000000262,3.0,-0.1276779751045087,-0.2397681409387353,0.940292812513206,-0.5672807515347518,0.1000550957550185,0.3604819485450049,0.9487421366029756,-0.1993781904825479,0.0617387055933721,0.2373289439271591,1.537000000000262,4.0,-0.0463555646792113,-0.2525061768776799,0.9460194460273474,-0.4845939568766896,-0.2927339616618975,0.4284095495563566,0.938530219444634,-0.1835893708672829,-0.0164394005112273,0.2918659216225724,1.5900000000001455,5.0,0.0779436138806969,0.4413431308710159,0.8716341169826858,0.2716085907426011,-0.3445462193515113,-0.3829389291081735,0.5954319358516186,0.0361671754363865,0.260001611492548,0.7593101521843533,1.5910000000003492,6.0,-0.0165660755685886,0.4068120314350952,0.8918567913179262,1.3460576996738567,0.1829738087621782,1.8084044201518743,0.1094851828244427,0.0325968774372961,-0.3125286830444559,-0.9430144540767836,1.5910000000003492,7.0,-0.0961523689888693,-0.2958602139715347,0.9291132631313288,-0.7344124131095123,0.2461662569872546,-0.6296653083280479,0.9604218623727306,-0.2637666612300707,0.033775947962476,-0.0829227353581201,1.5910000000003492,8.0,-0.0432328431434822,-0.2238060947937596,0.9520681452537404,-0.7900654423713908,-0.2111277706371205,-0.4899613674300239,0.9878975383396956,-0.1548107287919689,0.0088671521813984,0.0036695511252095
24,24,1.6450000000004366,0.0,-0.0932807052389049,-0.0594549500102949,0.9736841474263644,-0.109275343785523,-0.1393904391796446,-0.291581348214994,0.9957063878358784,-0.0788290596003752,0.0372645281742334,0.0310825276529974,1.6450000000004366,1.0,0.0263519016271784,0.0401428099819014,0.9791701241803632,-0.0108236322161722,-0.3148772213315536,-0.1649089869433512,0.996571583399471,0.0268527254333363,-0.0212551736668328,0.0753141944779714,1.6450000000004366,2.0,-0.0522469758393238,0.0892316374386864,0.974526535501038,0.1821053842557717,-0.3082017188897059,-0.3429782324172268,0.9951254236163444,0.0693540149227784,0.0415836479831745,-0.0564465420277764,1.6450000000004366,3.0,-0.1427755101829679,-0.2462627992431535,0.9378671480550532,-0.4470361591330962,-0.0593304248355045,0.4633411057405998,0.9399089933408618,-0.2124446769906032,0.0564877276306182,0.2612421866438402,1.6460000000001855,4.0,-0.0301899616845928,-0.2761440527381261,0.939169328902326,-0.3703967039226015,-0.4609813043407335,0.6865297788889632,0.9248619705025156,-0.190210489805559,-0.0376514852138588,0.3271584795589499,1.6350000000002185,5.0,0.0662204118062551,0.436001490181393,0.8753802360230752,-0.7037996234232757,-0.4291349140777613,-1.3768998779716328,0.6535164780747554,0.0240670056748333,0.2113541006477564,0.7264065227281438,1.6350000000002185,6.0,0.0125741740132323,0.36530275514966,0.908881063301438,-0.6343220188307744,-0.5785511066746193,-0.2959438938281404,0.088229080046079,0.0057742522070172,-0.2734611496656619,-0.9578106739169318,1.6350000000002185,7.0,-0.0884005264010203,-0.3386472327958559,0.915615857579876,-0.3396030446025372,0.1512741696467035,-0.9304586399506024,0.953311136569948,-0.2716524345986408,0.0322450798660583,-0.1279182805261871,1.6350000000002185,8.0,-0.0245361980372337,-0.3019700207997763,0.9320472528386424,-1.4800048833364503,0.0014727420292631,-0.5497231376950781,0.9736741138565096,-0.2267755041078968,0.0027267161549561,-0.0228944482650263
25,25,1.6710000000002765,0.0,-0.0767438353121393,-0.0623480822871309,0.974086290005511,0.0961425761057524,-0.3382227261630873,-0.2473689845198997,0.9971913768650214,-0.0693893049727054,0.0197730542059605,0.0200875232125771,1.6710000000002765,1.0,0.0444437629579185,0.0322926133855929,0.978141062963246,-0.2112852909669595,-0.3234403765708952,-0.2231585798392289,0.9971151991070368,0.016896624063807,-0.0379942020235985,0.0634997985632289,1.6710000000002765,2.0,-0.027647691678071,0.0834498444142552,0.976090532999942,-0.2195445592696604,-0.5569063496383987,-0.3465426776962999,0.9956743393326184,0.053489315296988,0.0123967088103178,-0.0749521497642701,1.6710000000002765,3.0,-0.1339673177408413,-0.2574564609945996,0.9361014520176006,-0.0363035390787864,-0.3707584073231613,0.2793833730536506,0.9381895287361294,-0.2019356569556228,0.0389351227597025,0.2783998111268524,1.6710000000002765,4.0,-0.0130587053722719,-0.28485302217605,0.9375341198970684,-0.0501353171051927,-0.3133009556218254,0.070048772713743,0.9235034816870866,-0.1826137245489302,-0.0527517141240915,0.3331828380561735,1.762000000000171,5.0,0.0710164535614324,0.3990208999448231,0.8910465670944367,-0.6280274904930663,-0.2250002482488833,-0.543997516815923,0.6749997082981863,0.0190858853723744,0.1740181339362573,0.7167487787490529,1.762000000000171,6.0,0.0066690442095821,0.3188362083770064,0.926402178363752,-0.8960846936519301,-0.788326023783901,-3.054908759925013,-0.069495006557656,0.0153494149610202,-0.2181242352037054,-0.9733224838360124,1.762000000000171,7.0,-0.0760586388796257,-0.3307694758181622,0.9194393059461604,0.4023461145603318,-0.1465131376151735,0.1647266260221591,0.9626222884912436,-0.242356056198509,0.02734805379973,-0.1177877569068757,1.762000000000171,8.0,-0.042877744783782,-0.4577208095076715,0.8656749733854495,-3.4503099011777225,0.5372968904221465,0.6770823221098579,0.9223617512839488,-0.383423241275895,0.0468110485703649,0.0066440612306387
26,26,1.7470000000002983,0.0,-0.0564805258825457,-0.0547340622710569,0.9764154508319394,0.1241551129654654,-0.3851935325596547,0.1081804423243153,0.9979188417776824,-0.0586093356279498,0.0018359477125846,0.026824621121947,1.7480000000000473,1.0,0.0577707965337222,0.0091357326943723,0.9770691241954154,-0.5613793228912759,-0.122177977367921,-0.6349140590086668,0.9984511880803696,-0.010589141525225,-0.0452884216939489,0.0305295588426733,1.7480000000000473,2.0,0.0110462370303287,0.0538998304092851,0.9788430869804003,-0.5680089424605234,-0.5833123992470247,-0.3979835454157155,0.9950820953156078,0.0200943800991578,-0.0161119833325868,-0.0956464503461606,1.7480000000000473,3.0,-0.1012349568364519,-0.2354858447679098,0.9448126271532707,0.7070647793729039,-0.6337245912049949,-0.2923388851759725,0.9509400503671028,-0.1527355613222068,0.0140127304892044,0.2686791996036156,1.7480000000000473,4.0,0.0008036931158374,-0.2680191517860868,0.9429613397977894,0.5117711181884216,0.1075229925477543,-0.8720656131333172,0.943058510868405,-0.1524410283048201,-0.045207024904652,0.2921621174404816,1.7850000000003092,5.0,0.081979449011015,0.3671372474251781,0.904983763110098,-0.9637897314215548,0.0984340454551631,0.8778464164866111,0.6422659762095568,0.0059377093438826,0.1371704574466519,0.7540844946126455,1.7860000000000582,6.0,0.0261995594436021,0.2589087875406397,0.945277114299927,-0.5753934010929543,0.1243976922041229,2.1698884760773844,0.0387201630318871,-0.0080436699820746,-0.1821909012599598,-0.9824675688520652,1.7860000000000582,7.0,-0.0567844953111047,-0.2046282690960852,0.9564244834690312,2.6956186268292432,-0.5152498234929536,0.0320894983632477,0.9893192873955744,-0.0953710723758449,-0.0127236535401244,-0.1094980126832669,1.7860000000000582,8.0,-0.1759359812836302,-0.7368111269038954,0.6215825719567578,-5.812549184631856,0.8156080574027668,2.4679885877668184,0.7794744535939435,-0.594769528563237,0.15290912309836,0.1236429705255359
27,27,1.8540000000002688,0.0,-0.0319479840324257,-0.0431941988905973,0.9781434391225364,0.210222949287612,-0.3559705755724284,0.3388755321838519,0.9979349275874376,-0.0439849401058071,-0.0135170770234905,0.044816224447013,1.8540000000002688,1.0,0.0653722051316198,-0.0306010770891822,0.9775213802660336,-0.6059019231627154,-0.112470024778264,-0.9438992708581851,0.9977046292786308,-0.0388909984350178,-0.0524369649097185,-0.017981314406173,1.8540000000002688,2.0,0.040036289024043,0.0055517886318198,0.979052232112348,-0.7112886853975187,-0.4000784632659268,-0.3126827623512114,0.9929885407654137,-0.0188184472846098,-0.0333009546933315,-0.1118511080270712,1.8540000000002688,3.0,-0.0657038036074484,-0.176393079176048,0.9603876778730068,1.192381975770783,-0.4169165717132791,-0.5688482997545349,0.9666125456104134,-0.0838765770343157,0.0067795559730175,0.2420308742998948,1.8550000000000184,4.0,0.0128304469650323,-0.214378911610969,0.9557316892764274,1.1458850752558392,-0.1642314931922663,-0.5657837015152045,0.9587321923260472,-0.0885944814284374,-0.0381548933244308,0.2674468271891047,1.860000000000128,5.0,0.1081251025345064,0.3247519248772847,0.917824683417482,-0.102331349913398,0.1867568106425003,1.554638386514597,0.5816721080552923,0.0204883960369664,0.1339897645333357,0.8020502025052084,1.860000000000128,6.0,0.0645107386223533,0.2204255320878074,0.9530419452501582,-0.6345093468531795,0.4133987179633009,3.941172262361538,0.2410429124101126,-0.0351934863413994,-0.1355982318157645,-0.9603503800303445,1.860000000000128,7.0,-0.004426663028702,-0.0230076388317034,0.9799745166124578,2.412547096699898,-0.948837350980666,1.4055280446725655,0.9964621776055252,0.0283593474422853,-0.0732519003733737,-0.0298836929778056,1.861000000000331,8.0,-0.1841876155126272,-0.9319217019681704,0.2400976128421962,-2.66613954369632,0.2670561247185315,-0.7942840452304408,0.7026431466083621,-0.696616182290322,0.1091051226334478,0.0954702849618498
28,28,1.87900000000036,0.0,-0.0103548832891667,-0.0267339649415295,0.9794845948306552,0.1557314002017055,-0.247250006737016,0.1050469614794886,0.9978989879094928,-0.032718943861889,-0.0235161401254409,0.0507353111291645,1.87900000000036,1.0,0.0768464497077218,-0.0465164454799284,0.9760921285755928,-0.2142852738345361,-0.2064806221250743,-0.5266865060603273,0.9959599273280711,-0.0469109654254268,-0.062379300042192,-0.0444072900069774,1.87900000000036,2.0,0.0541014574195395,-0.021054466844543,0.978524778291778,-0.2383462885988704,-0.1542853240930369,-0.5847177075447885,0.9887630218019648,-0.0299783810226402,-0.0397520998571966,-0.1409565675846711,1.8800000000001087,3.0,-0.0290123448045798,-0.0996169103466727,0.9749875665986328,1.169353331875448,-0.3457811573772424,-1.1304407578680675,0.9823778370131394,-0.0192462149087096,0.0022967054834691,0.1858980734192678,1.8800000000001087,4.0,0.0258236185177005,-0.1277353272072343,0.9716397619024828,1.3890461326322885,-0.0608000754006267,-0.3691421156229519,0.9677166863240562,-0.0167169617489374,-0.0219906540572713,0.250522193296335,1.9650000000001453,5.0,0.1022633336652905,0.2901323804298749,0.9301991251413624,-0.2917960306413055,0.3437736943494327,0.164727824674886,0.5720184533952702,0.0102620613482625,0.1281411040352125,0.8101045836981818,1.9650000000001453,6.0,0.0647601217619951,0.1175138179538881,0.970308007397276,-1.4181623571720317,0.6618735853607396,2.5039506768975057,0.3668383795445895,-0.0455928558538882,-0.0429174376350334,-0.9281750849570513,1.9650000000001453,7.0,0.0248888602731857,0.0607799858133996,0.9779168359113288,0.7966917669820686,-0.2633893802335039,1.5316877734362817,0.9931522216073958,0.0620577732707472,-0.0860551638071338,0.0489081411944673,1.9650000000001453,8.0,-0.0187060283445968,-0.8936180839889847,0.3984316810589074,2.85742300346183,-1.3668559157666966,-2.515536501143417,0.8266354439841307,-0.5619823598459027,-0.0157617401643234,0.0245201451500933
29,29,1.9400000000000543,0.0,-0.0032977619737176,-0.0178353141051784,0.9795897234744424,0.1770722239810772,-0.0870228861601082,0.2226479761470089,0.9975244082312712,-0.0215739203684604,-0.0246951616853268,0.0622074748894623,1.9400000000000543,1.0,0.0984211075909694,-0.0641307274258231,0.97181764512711,-0.4404722956980098,-0.4606795319382038,0.4073531951149329,0.9939235863381204,-0.0698793474050057,-0.081485687361449,-0.0243488004273647,1.9400000000000543,2.0,0.0547195008773017,-0.0168572824400105,0.978565587098012,0.1625314424808365,0.424699323734097,-1.1708052461182468,0.979840887535427,-0.0149126413949942,-0.0195676318375476,-0.1982588107113556,1.9400000000000543,3.0,-0.0186628834200581,-0.0331069299161047,0.978198664880493,1.386774864593865,-0.1469728616977832,-1.7943830257698226,0.9941510111738856,0.0510478843879656,0.0127615611639486,0.0943134297866051,1.9400000000000543,4.0,0.0365483000553711,-0.0237186248586399,0.9788859221573664,1.6498322112386423,-0.2967631330199381,0.0831635325480632,0.9647120073883452,0.067494319706645,-0.0158228957313291,0.2540175103782453,1.9950000000003456,5.0,0.0809999219567448,0.247018937952331,0.9447283508691288,-0.9651201124675752,0.6955684268992854,1.123756910747406,0.5223218454887841,-0.0264368662727192,0.1048084684394109,0.8458700649451156,1.9950000000003456,6.0,0.0578159992824618,-0.0123252444953094,0.9783452348609366,-1.800005249184179,0.0431572944861526,-0.8735282575331947,0.3238418722240179,-0.0693220544847185,0.0421375463401331,-0.9426268199796216,1.9950000000003456,7.0,0.0320575387213492,0.1240453053528901,0.970629216761497,1.1119779596531123,-0.116277522299219,0.1564875869720011,0.9878741844545098,0.1167184270548289,-0.0826397541862435,0.0604324044054251,1.9950000000003456,8.0,-0.0002574533337385,-0.8778868307241374,0.4338601689011224,2.0339783267391645,-0.3349132004931018,-0.1525630343320391,0.8835454128506262,-0.4663928675099683,-0.0315345318659264,0.0288230787120754
30,30,2.019000000000233,0.0,-0.0003073119937166,-0.0082990153294712,0.9799306260669172,0.1475171664820324,0.0244551697383297,0.2878482484660349,0.996761814072511,-0.0129194120865587,-0.0203732938708297,0.0767066078970216,2.020000000000437,1.0,0.1050148407822401,-0.1001472971801559,0.9689315776064842,-0.6277896794916832,0.1035411970125762,-1.0489990586269082,0.989323283286457,-0.0946842858672386,-0.0775286107461229,-0.0791431719915988,2.020000000000437,2.0,0.0705602544366942,-0.0525214735750764,0.9760884925596304,-0.7443690753569497,-0.2740325716248808,-0.2357923821174826,0.975791522110326,-0.0555457019338882,-0.0272400560936743,-0.2097702546079837,2.020000000000437,3.0,-0.0301698317915539,0.0491189813827424,0.978898415014342,1.304674381926333,0.2899930790675625,-1.807645819830322,0.9929414891071976,0.1102436211843008,0.0436543662735071,0.0027999112506996,2.020000000000437,4.0,0.0434903813345804,0.0670795858505007,0.9765423267291068,1.3815795865587364,-0.1773420285454105,-0.5691177964171187,0.9650852843650842,0.1338347656794229,-0.0027231939461157,0.2251471376949531,2.1140000000000327,5.0,0.0656648653683276,0.1966770788440814,0.9573589985546272,-0.0627769182988609,0.3851253958148347,2.190501867401197,0.4285014855976482,-0.0222409619084971,0.1107167597648842,0.8964561425753957,2.1140000000000327,6.0,0.0596405930083945,-0.1325173712763096,0.9685205965675812,-1.7442853884383631,0.1818513580891657,-2.007957385238102,0.2248123910449309,-0.0832323157727943,0.1200760721592824,-0.9633864786982208,2.1140000000000327,7.0,0.0568507565596291,0.1708402806055074,0.9636631102212168,0.5028277255480886,-0.538012270844115,0.8596885901253658,0.9795839461634948,0.1365404375062518,-0.1074378270634044,0.1011390857198648,2.1140000000000327,8.0,-0.0776846986642962,-0.7637539761970592,0.6091419797031061,3.527123859630218,0.4654980658667789,1.0719925747837524,0.953798396626585,-0.2909554710113128,0.0160649659140702,0.0731809357095173
31,31,2.074000000000069,0.0,-0.00545714541681,-0.0003949774227683,0.9800041140509236,0.1433731436607462,0.1295890467750498,0.1704002559728014,0.9962856425671852,-0.0051975436672336,-0.0110108084605852,0.0852447420745826,2.074000000000069,1.0,0.1080674316629734,-0.1230376302741452,0.96496744595364,-0.4767459963998542,0.1049245769221358,-1.2317008849841422,0.9809525194533132,-0.1099740550742038,-0.074405783556412,-0.1417802566018615,2.075000000000273,2.0,0.060122702410529,-0.0757473074647642,0.9744704233924664,-0.4018671313857873,0.4268556222129962,-1.971632361400024,0.9502931997269868,-0.0661605788251732,-0.0086459206696297,-0.3041231007633884,2.075000000000273,3.0,-0.0608723003275169,0.1144403022926957,0.9711858628831008,0.7748748755079211,0.4704474349294017,-0.9442157972073684,0.9864182612820036,0.1409968175249223,0.0723151253774309,-0.0432369506195721,2.075000000000273,4.0,0.0104543946636924,0.1413140475684858,0.970149496516917,0.9349196957119292,0.4727089495122987,-2.3563364316542064,0.9783693681731992,0.1672813208596376,0.0520074025937625,0.1100253115754722,2.150000000000091,5.0,0.0606808181451107,0.1273128212388298,0.9699192151192026,-1.7728226445174369,0.1861005559939615,0.0178416558450563,0.4255384036424582,-0.0605051674637833,0.0290226111907159,0.9024488239093008,2.150000000000091,6.0,0.0556663325924168,-0.1597949702802338,0.9654977094166768,0.7330315325485238,0.1537488224495596,-1.469007169867342,0.1569018700075006,-0.0758502789271511,0.075810093949656,-0.981774601438725,2.1510000000002947,7.0,0.1014743420386387,0.2006596958648401,0.9532930527194958,0.3785992433828561,-0.4449835154148482,0.0778153634553924,0.9751365353089794,0.1539666720006532,-0.1212963165968386,0.1033934475616437,2.1510000000002947,8.0,-0.169599422313668,-0.4917780760617122,0.8305506365393448,6.147629701884697,0.2993087000035452,1.883351971372755,0.9868925728689368,0.0290562755179553,0.0528662010329261,0.1496794817518474
32,32,2.179000000000088,0.0,-0.0039619204268095,0.0043731719650853,0.9801745653471609,0.0910074028284626,0.1011751685028606,-0.0038034650095449,0.996365732257059,-0.0003679355869768,-0.004260955029537,0.0850707732978509,2.179000000000088,1.0,0.1040760302933948,-0.1389769488628029,0.9648847535344076,-0.2875043379974054,0.2865566106150202,-0.713382941484544,0.9751769775798242,-0.1160540847805488,-0.0593299380450649,-0.1790007549023101,2.179000000000088,2.0,0.0510658205132934,-0.1008515430671391,0.9736042564801576,-0.4234791215415118,0.0501528886657535,-0.5580751795758949,0.9400431734131952,-0.084127670629161,-0.0022475122341574,-0.3305091766388918,2.179000000000088,3.0,-0.0872466675462523,0.1435830132344768,0.9657918705976882,0.4062152976335895,0.3102607475128882,0.016408428223687,0.9834618877188116,0.1551944046258254,0.0834992831263808,-0.0417765711226725,2.179000000000088,4.0,-0.0280806947295978,0.1799725742821945,0.9623031471889424,0.6807950325595027,0.0096916295602918,-1.2945008708095944,0.9787441120409386,0.1891283215535494,0.0656215667285904,0.0445449336245663,2.211999999999989,5.0,0.0381252299012008,-0.0832737804859362,0.9754444855185562,-2.9455687200160665,0.1115231957550062,1.723390328717822,0.3432227548960211,-0.1079620059010917,-0.1007990568427088,0.9275677311889512,2.211999999999989,6.0,0.0607798921872315,-0.1179471503726489,0.9708466791541704,0.153051511541948,-0.1353666427650136,0.2090792031993699,0.1684551494860801,-0.0768443101754932,0.0658940014878685,-0.9804977282855843,2.211999999999989,7.0,0.1174544013534066,0.1777839500743373,0.9551200608817084,-0.7019661475520184,-0.3783093290291694,-0.3262395814612944,0.9806689009233966,0.1176823797895156,-0.1344398429617259,0.0797827855693185,2.213000000000193,8.0,-0.0434922591086462,0.2016574859363806,0.958523699114135,5.992109776965817,-0.664249018033179,0.280578826002574,0.936753037285175,0.3205795849276572,0.0563842124562279,0.1286207504654724
33,33,2.256000000000313,0.0,-0.0093212556671798,0.0048061618203296,0.9798744894124676,-0.0408986734905119,0.1341723038928644,-0.1496382287423457,0.9969766850307414,-0.002704595487163,0.0031547630090293,0.0775900904672855,2.256000000000313,1.0,0.0899258698586407,-0.1498552025855549,0.963323806509633,-0.2128260093236607,0.2173779440269601,-0.1668169343936948,0.9734989249266434,-0.1207542056211471,-0.0450809144992143,-0.1889073215611028,2.256000000000313,2.0,0.0467105649492704,-0.1197284416644545,0.9716821617065536,-0.2290669071802671,0.0928838733902195,0.031969609066607,0.9397184535836794,-0.091511289515016,0.0060505113667629,-0.3294211638583616,2.257000000000062,3.0,-0.0913017321755358,0.1615589358413061,0.9618647014791484,0.0865650078549933,0.06239454670197,0.8899176900876195,0.9848485178594568,0.1561651889489216,0.0753734343171894,0.0021624129603988,2.257000000000062,4.0,0.0274374441600443,0.228279853654538,0.952756262153877,0.6256531085867483,-0.8459640668381044,0.7752564309402094,0.9734627563751252,0.2166239136654349,0.0100252465870741,0.0731015486134322,2.2950000000000728,5.0,0.0313795555000949,-0.177739557047234,0.9632496941900732,-0.4776151216703131,-0.1030072423263675,0.2649357979214297,0.3290724306402751,-0.1034807899893338,-0.1222418223936976,0.9306234460583682,2.2950000000000728,6.0,0.0493267747439702,-0.1614738195475112,0.9645019828357512,-1.1374329253177404,0.0166001585422879,0.8994221752694455,0.2089505638099535,-0.0813642849194582,0.1270474620145254,-0.966218638517554,2.2950000000000728,7.0,0.1808071430581136,0.1423220042446857,0.9531501582263616,0.5480403196553962,-0.7461439347693642,1.2947200060326434,0.9655457978491264,0.134433943894101,-0.1719254263435631,0.1417408718808918,2.2960000000002765,8.0,-0.0074046996115505,0.4238243955462445,0.8820674873066817,0.7206726578276109,0.750967695065323,1.882039647538477,0.9100820650425898,0.3427452932907057,0.060514397582386,0.2249762354119306
34,34,2.270000000000437,0.0,-0.0174615390702742,0.0031739009513251,0.9796070748039994,0.0125452273263636,0.1312858585294929,-0.1742110247182553,0.9975694294031224,-0.0022524478106403,0.0103178165264353,0.0688745429118472,2.270000000000437,1.0,0.0879115269315524,-0.1539335424173007,0.9638801937748404,-0.1332602690743259,0.1449048944263815,-0.4811951090261368,0.9686655227234284,-0.121268069792463,-0.0381369603019821,-0.2133699430441942,2.270000000000437,2.0,0.0384844468950683,-0.1294648158571565,0.9704436144373628,-0.1318608922096157,0.244910845879876,-0.396476428578765,0.9325009596456112,-0.091495039851302,0.017551453287223,-0.3489449303688606,2.271000000000185,3.0,-0.104838572915458,0.1564929100035105,0.9615658286085688,-0.1876373016243026,0.1850257148679124,-0.3173122188247985,0.9867366276230072,0.1381163216395216,0.0845064897562355,-0.011548272295979,2.271000000000185,4.0,0.0316397134578311,0.2271226236284794,0.9527981120722387,-0.4174096165968945,0.3085077579338764,-0.2101521971223545,0.9801798355572128,0.1850025665872812,0.023867406757241,0.066722464116957,2.340000000000145,5.0,0.0178749446069134,-0.2334612270847493,0.9515142362589132,-0.9817371932197096,0.3220496059136968,0.1187184150488068,0.321749458675331,-0.1280309277489945,-0.1615185979573462,0.9241196404664044,2.340000000000145,6.0,0.0327923670680522,-0.2453350872582659,0.9480429081123136,-1.2782052090242175,0.1384711496110097,0.2808488127806328,0.2173111543600095,-0.0831259609958386,0.191090510544591,-0.9535986333772956,2.341000000000349,7.0,0.1679799330855977,0.1504011587856966,0.9535859864304206,-0.1075312102860387,0.3082426381434278,0.1199189016276254,0.9701034320426484,0.1214661547262971,-0.1488043731543628,0.1483326091094568,2.341000000000349,8.0,0.0626592657290788,0.4284986154014802,0.8778022288746519,0.2971375289029282,-0.1455035620929439,2.496230537723932,0.8755768612692842,0.3517268249051664,0.0095572993043859,0.3310015992136071
35,35,2.346000000000004,0.0,-0.0311637187988172,-0.0025888613661764,0.9794049828479816,-0.1041332675291949,0.2576537268434823,-0.0449063967463419,0.9974691504457832,-0.008372172744871,0.0233350983945796,0.0666383809483116,2.346000000000004,1.0,0.0860730872677029,-0.1577373364737652,0.9634912331362274,-0.0281737032734189,0.0549732334648792,0.0038917994219652,0.9690738095824234,-0.1187744570108239,-0.0339083770391579,-0.2136323990170106,2.346000000000004,2.0,0.0286949392702788,-0.1323140041162513,0.970661941550713,-0.0057943283769861,0.1817600407584565,-0.1773364054631264,0.9293610086740566,-0.0864558843167013,0.0245755468494179,-0.3580635950783175,2.346000000000004,3.0,-0.1191750983230706,0.1297599365343515,0.9632427808243816,-0.4964412513346613,0.0976974370608791,-0.2777422809875312,0.9902226655439568,0.1053063317216891,0.0886133563729222,-0.0227447183906172,2.347000000000208,4.0,-0.0112071936802207,0.1790519935341905,0.9629645800450016,-0.9401545410995548,0.8307788523341483,-0.0928104061221293,0.9876342406612572,0.1259396922078564,0.0611145360443055,0.0705890507383525,2.419000000000324,5.0,-0.0064524678698426,-0.2755202699064262,0.9408740332951476,-0.5756817504841039,0.1644049677971805,0.6704210444510891,0.2899457105888964,-0.1420271569624748,-0.1781038309296917,0.9295368723210632,2.419000000000324,6.0,0.0097233570445052,-0.368918068440938,0.9075945763971888,-2.389790848742259,0.0274268225794182,0.833032842526065,0.2488668398292417,-0.1005027432493187,0.3107816641121018,-0.9118000065170436,2.419000000000324,7.0,0.157544653156051,0.1272501502665577,0.95859954178952,-0.0669117904334448,0.3211975608412946,0.5670829928341269,0.9698411350952336,0.1071289533937281,-0.128921194153866,0.1769488223184712,2.419000000000324,8.0,0.0552866686178184,0.3610754739944966,0.9078815376208468,-1.3499812650642742,0.3723561324106905,-1.2841071795539898,0.9231156331777544,0.2649878250930926,0.0243993801076401,0.2775673802622151
36,36,2.4200000000000728,0.0,-0.0473464754285661,-0.005025415826173,0.9783179730845522,0.0326295788225738,0.288411531179118,0.2387924390239254,0.996177717780093,-0.0070084821558677,0.0379504035933681,0.0783619974440212,2.4200000000000728,1.0,0.0821944877665401,-0.1562054977209231,0.9642722170956473,0.1389078716868066,0.0944834880929962,0.0222699589119011,0.9706414035706624,-0.1078990669306483,-0.0296832067072636,-0.2129130439156877,2.4200000000000728,2.0,0.0152282214264554,-0.1174839841160083,0.972590157645252,0.0234102388889571,0.0995307846747007,0.3788238952771631,0.9362246460666712,-0.0803239131418618,0.0293123005776219,-0.3408405347222683,2.4200000000000728,3.0,-0.1219634982072449,0.0917394728727685,0.9677891166065457,-0.6985565702025891,0.004338788967042,-0.1790584907073945,0.9936994198591056,0.0640584915169807,0.0873807512792888,-0.0286806021922986,2.4200000000000728,4.0,-0.0462938606350224,0.1142052559403206,0.9725471906201316,-1.1883908973635484,0.5380381969437161,0.7531420199084544,0.988574432530995,0.0602889459577162,0.0777449704263573,0.1141996230936582,2.475000000000364,5.0,-0.0206758840263171,-0.2660249731049722,0.9430032987769604,0.4101165853305603,0.0998771686326928,0.2802826006645354,0.2823197241243727,-0.1346167571380709,-0.1507611522178901,0.9377872770782838,2.475000000000364,6.0,-0.0204731912200689,-0.543144895282343,0.8151327935802847,-3.324196898914751,-0.1182874827630311,1.3539818510129695,0.2987155513341613,-0.1316067333272471,0.4697118026783331,-0.8202557586257652,2.4760000000001128,7.0,0.1562690014341416,0.0822191592395911,0.9642193780694884,-0.7079593203050246,0.1599442035605356,0.5890980614589186,0.9696879468961236,0.0624020209289313,-0.1234001125852353,0.2014539293295537,2.4760000000001128,8.0,-0.0156110449499108,0.2793882714557771,0.9397204313244046,-0.929169874520518,0.756977945132809,-1.2062814062023652,0.951555321391869,0.1950756851656075,0.0616301975012997,0.2295422970694864
37,37,2.486000000000331,0.0,-0.0597656651467437,0.0116867378556225,0.977634126566714,0.2942159644047675,0.154237522561456,0.283387269084787,0.9946757878860318,0.0086128221251652,0.0459379079528435,0.0918455491641175,2.486000000000331,1.0,0.0733091740908997,-0.1403816371992308,0.967214433789826,0.3925232023829318,0.1879363139896207,0.2025747347415415,0.9752187298684016,-0.084051546532085,-0.0229882306698447,-0.2033600444780054,2.48700000000008,2.0,0.0071772123212349,-0.1079722408741657,0.9738970596648844,0.2692673896542227,0.1143175358722144,0.1769359440068053,0.9402583533923388,-0.0627169417557816,0.0292645103273672,-0.333353269862512,2.48700000000008,3.0,-0.1063713509380915,0.0517504516118988,0.9728648551867674,-0.7513467828872121,-0.3711332063406714,1.7474312001662753,0.9957143421513366,0.029802049380663,0.0635495527610657,0.0602182782111256,2.48700000000008,4.0,-0.0538712991708399,0.0574514518400606,0.9764953731621644,-0.8223866704211396,0.1240843158934088,2.141634437593568,0.9723888622438314,0.0241159390908776,0.0714040379514853,0.220861462075517,2.535,5.0,-0.0244536207916316,-0.2443601174012346,0.95406506772538,1.2746386994435437,0.1127284376526208,-0.1249412955723101,0.2995070250627072,-0.1115759164101897,-0.0868350736230615,0.9435602931472852,2.535,6.0,-0.0951648983700072,-0.7171224048964959,0.6680988688163543,-5.044638174051485,0.0233861524567992,3.892906286022492,0.424936433813719,-0.1409734668116699,0.6934388463290787,-0.564533502349129,2.536,7.0,0.1468865093208051,0.0613627145830594,0.9668608848425648,-0.6675697361399967,0.622714642353196,0.2173490566880943,0.9731215524678416,0.020613148761072,-0.0943146556330614,0.2090796210861995,2.536,8.0,-0.0539136744362303,0.2074609585267133,0.9617968945655636,-1.3674351207385982,0.4920278183243947,-1.1458665913904855,0.9746568675383056,0.1086002957871732,0.0749109093896053,0.1806607925637959
38,38,2.555000000000291,0.0,-0.0755901009096358,0.0320058680694127,0.9763225701854868,0.1967464449171601,0.2957300593162447,0.1938115797992926,0.9928561185481666,0.0178754758861343,0.0607424927750728,0.1011313244983163,2.555000000000291,1.0,0.0453453849513244,-0.1085668524375996,0.9733663414231092,0.515685473747794,0.3618836006877058,1.172538299677398,0.9878427592619542,-0.0535476018248125,-0.005978859799543,-0.1458204051154617,2.555000000000291,2.0,0.0011739858604461,-0.0773302605640011,0.9763527295799932,0.51956053120047,-0.046698304967292,0.5353533989643754,0.9505059138935822,-0.0354283571946893,0.0176568609123969,-0.3081745843228022,2.55600000000004,3.0,-0.0745642834733381,0.0075536372016555,0.9773316275426336,-1.0058284771288308,-0.220026246500585,1.7034224091629684,0.987870967670584,-0.0167852629095294,0.0482518781339468,0.1466320648398172,2.55600000000004,4.0,-0.017493089661795,0.0098885437067632,0.9785919519991176,-0.6950979291840306,-1.0578102326498922,2.33664166673294,0.9442127406820722,0.0089569898539837,0.006274425592909,0.329154529438507,2.594000000000051,5.0,-0.0123388105046877,-0.1224983094724494,0.9724751502900842,3.024092543749208,0.1079534357442899,-0.9597037510751684,0.3669474642435704,-0.049274151651823,0.0585643648572715,0.9270878230421709,2.594000000000051,6.0,-0.1475935056419845,-0.767212167611423,0.5922420509903797,-4.266774599163324,0.1550828686870792,3.98595733348799,0.500134518074143,-0.1055021086812665,0.8015795151431209,-0.310169388878835,2.5950000000002547,7.0,0.1181669272431436,0.0739137719382314,0.9696279346346086,0.0770266786496588,0.6915441418725201,-0.5116478878425064,0.981087848870009,0.0224762682268293,-0.0546112698030672,0.1843340971624906,2.5950000000002547,8.0,-0.0744071684025807,0.1154787543047015,0.9698150496844974,-2.3055120339699937,0.3129267749261933,-2.4698752202805734,0.99573623790963,-0.0253806996960961,0.0630979755602653,0.0623202220527921
39,39,2.6200000000003456,0.0,-0.0855425951910042,0.0395767003982691,0.975045716463374,-0.0101210072941481,0.0081449379688667,0.4548278620748588,0.990384498052555,0.0184915913707532,0.0591430716557132,0.1236879304576347,2.6200000000003456,1.0,0.0359868175963533,-0.0727333205894941,0.9756847918438168,0.6515417370055082,-0.1657336971511578,1.345708050506893,0.9965916552955412,-0.0211163078757738,-0.0182142471958308,-0.0776364304697107,2.6200000000003456,2.0,-0.0081306038985364,-0.0388205990909306,0.9792562761435162,0.7985199796755896,0.2795546288729625,0.3360833153377849,0.9560732544215154,0.0091717976807908,0.0177970015096926,-0.2924432885952746,2.6200000000003456,3.0,-0.0825742005412201,-0.0427954008989993,0.9756536552828938,-0.8796470046754442,0.2749272806909122,2.273787179108348,0.9628930928723416,-0.0566404578848393,0.060222913928085,0.2569084484156604,2.6210000000000946,4.0,-0.0383455200874069,-0.0858321364777557,0.9751674038014654,-1.272662388655686,0.0850846369421442,0.3642176672511268,0.9369714009458054,-0.0575973111294104,-0.0098377760993822,0.3444856480635079,2.6539999999999964,5.0,0.0043659865623592,0.1239993467357007,0.9715503590501406,4.485616794753834,-0.2286992643613052,-0.963722167710958,0.4299647388261643,0.0619442084106447,0.2683987944116054,0.8597995845363754,2.6539999999999964,6.0,-0.1329627705152974,-0.7810303728486025,0.5766215902521076,-0.8683600773238129,-0.0766293468345089,-0.1124363188139036,0.5114677422113778,-0.1457391782579232,0.7874841112836488,-0.3114957705550791,2.6539999999999964,7.0,0.0704809215900558,0.0884735027275413,0.9735085407981464,-0.0078687650615084,0.4411209010480988,-0.8385134581302278,0.9890419033525012,0.0231689933864054,-0.0290812652172931,0.1428761392664404,2.6539999999999964,8.0,-0.0912326076808557,0.0391498070659988,0.9745896079388728,-0.6594190126005296,0.0209139390072425,-0.481258382056402,0.9958748885964842,-0.0555552854905162,0.0592018877753209,0.0405210192473725
40,40,2.675000000000182,0.0,-0.0793564009835655,0.038034974590523,0.9756407650005376,-0.0575309954372992,-0.1210175394377159,0.3276680385015648,0.9887092850172986,0.0169393803315378,0.0508711259162779,0.1399254646680721,2.675000000000182,1.0,0.0390785897909275,-0.0217681443746539,0.9794253476965136,0.9262780930275156,-0.1503927439798787,2.331414676422868,0.998386075792408,0.0234586657671771,-0.0319537491058876,0.040668078173646,2.675000000000182,2.0,-0.0110540211080387,0.0126012618964887,0.9787604491477774,0.9489041765978632,-0.0195732546288773,1.4263626892019798,0.973406345632974,0.056175567331381,-0.0025023056218106,-0.2220768569280283,2.675000000000182,3.0,-0.0908584053745955,-0.0894583307934711,0.970760504565586,-1.106734060771742,-0.0189310336209924,2.1035869893267387,0.9275060632978258,-0.1010303745770278,0.0528662794252472,0.3559923067403659,2.675000000000182,4.0,-0.033507833702988,-0.1436555192275372,0.969331892014288,-1.118159931405824,-0.5160124143271592,2.117770940601514,0.8925553240959239,-0.1010649090295208,-0.0412515010047117,0.4375262177924123,2.699000000000069,5.0,0.0126135195284803,0.2761711548331984,0.9388590907922244,3.3216813100138016,-1.1745203085801867,1.6033322039198965,0.3712124805810192,0.1985479337809597,0.3640257098549405,0.8308220596594705,2.699000000000069,6.0,-0.1321074121086141,-0.8328891326088158,0.4999343201342542,-1.07222097242799,-0.3103310673473325,0.3255647964231984,0.5327629186717997,-0.1779990893596848,0.7745635878797461,-0.2907425751524589,2.699000000000069,7.0,0.0401079700993947,0.0957631809259101,0.9746680275424332,0.2055366400910208,0.7965371786065834,0.9887384847171846,0.9809242203036862,0.0288813089818586,0.0116442754802916,0.1918800533188348,2.700000000000273,8.0,-0.0673471706453841,0.0772871019616478,0.9747702613828712,0.4398060306089283,-0.3536847548296684,2.5774987785789385,0.9849425134717776,-0.0159661232585111,0.0419365245089203,0.1669570482971702
41,41,2.749000000000251,0.0,-0.0692013456171186,0.0350276335654084,0.976552220135507,-0.0823750759645918,-0.1574149901570703,0.057550054304183,0.9887965544645434,0.0136958587370277,0.0411341362439434,0.1428348002692885,2.75,1.0,0.0475231191634983,0.0408073817675489,0.978013451205171,1.2285056194239254,-0.169188495646693,1.6494237780552852,0.9879715546722212,0.0815746815952095,-0.0435327554926183,0.1239462693283449,2.75,2.0,-0.0074026134969157,0.0854740062529812,0.9758915900695532,1.142827430106141,0.0571722324435054,1.8100389522631384,0.9849679650078612,0.1112691881133713,-0.0227260477506803,-0.1301568378476453,2.75,3.0,-0.1088680475884966,-0.1523334338518554,0.9617953384921196,-1.143495967811001,-0.1607384178377036,2.394051383467328,0.8747771638265545,-0.1405076371788523,0.0394016252564324,0.4620281695623514,2.75,4.0,-0.0201036949466139,-0.2103806950050286,0.9563288161603698,-1.0689107549277133,-0.5635095336043189,2.27745529147869,0.8331084960205116,-0.1376722002403818,-0.0719164202111362,0.5308527363058694,2.752,5.0,0.0251611207706616,0.3442658292903119,0.8899645817585207,0.9016753112573008,-2.098600206591999,4.330862068842428,0.2289587382894938,0.3750817351490778,0.2849287668842453,0.8518844909494852,2.752,6.0,-0.1625074303591615,-0.8717319657920998,0.4034559640088415,-3.2192831504913184,-0.6590064112404316,4.96697236140834,0.6006667777777489,-0.1023486663493314,0.791925636201074,-0.0397235358211465,2.752,7.0,0.0248879261608179,0.0943128616973496,0.97578464593878,1.0479103273043462,1.3287541466759665,3.387282188757622,0.9324111676210702,0.0686887831265974,0.0702949595862163,0.3477784987961041,2.752,8.0,-0.0227329219071975,0.1590988380519032,0.9708448763793808,-1.099389868618064,-0.3836543513915724,2.382322895279806,0.9577248082306016,-0.0512603740972983,0.0187026977512372,0.2824637584609535
42,42,2.856000000000222,0.0,-0.0584219923686816,0.0263480652840503,0.9781240464600904,-0.1516226016791336,-0.1960553287262347,0.0543535119346792,0.9888722346026037,0.007244929094817,0.0293642252807844,0.1456604164079021,2.856000000000222,1.0,0.0752306130761364,0.1019745032338058,0.971314344353262,0.7376449555894475,-0.4277004670760787,1.3988235756184788,0.9725188565101962,0.1143299244837255,-0.0664714147967968,0.191617569952649,2.856000000000222,2.0,0.0102751279044544,0.1553792727523516,0.9677828802709302,0.9999310171408964,-0.0333141914583201,1.878642326637737,0.9864015567747154,0.154312201897296,-0.0445011637965734,-0.0349193293002075,2.856000000000222,3.0,-0.1202687451959365,-0.2037491140263439,0.9510971177868612,-0.7968529809227647,-0.1668778833266579,0.9921964654069344,0.8463121766184225,-0.1664010377267237,0.0189423770268342,0.505675370868931,2.8570000000004256,4.0,-0.0195798281607099,-0.2633910944791452,0.9432665379829156,-0.7828250749394033,-0.3384556675525773,1.401892575330434,0.7889504521795107,-0.1628162093115106,-0.0937984207270605,0.5850213006893729,2.804000000000088,5.0,0.0514294742812937,0.4323598268954857,0.8778228689559503,1.9097965928521328,-0.4416143976841815,-0.5257548388105916,0.2305871728155189,0.3840804424846023,0.3656881801942773,0.8158332699148618,2.804000000000088,6.0,-0.0814698283097063,-0.7618548125710345,0.6101294220389153,3.591757286965364,-1.5308113514481287,-0.8852341345387291,0.6865095385941844,-0.0316474333002441,0.690427676508316,-0.2258599497388481,2.804000000000088,7.0,0.0038564255157856,0.0310622783885708,0.978620080952538,-1.2528859842327589,0.4252134725311624,-0.824321112139157,0.9479881043627852,-0.0065177368192394,0.0616189993622804,0.3122165466643294,2.804000000000088,8.0,-0.0558283390737968,0.0419007142937847,0.9770330223170208,-0.5467343429548808,-0.1765983570060845,-0.5167703958555872,0.9635327147773468,-0.069185766419242,0.0021572215627903,0.2584828498641779
43,43,2.8840000000000146,0.0,-0.0481153847902964,0.0134475462183615,0.9787160329979206,-0.2687329387701323,-0.1629938015383281,0.1998166758356263,0.987595121673644,-0.0049486504296061,0.0189963720124119,0.1557900008206941,2.8840000000000146,1.0,0.1043521045038083,0.1284658908664737,0.9653860125201262,0.3409870160953196,-0.2980746684349355,0.7868230603359306,0.9618376833684442,0.1269810322991193,-0.079854904844265,0.2288389880701884,2.8850000000002183,2.0,0.0324216575557137,0.1910263526407521,0.9603118080697076,0.5009507958890852,0.0794924155404942,1.6099234302218688,0.9830762939665948,0.169326592199567,-0.0525288133002329,0.0461544059463005,2.8850000000002183,3.0,-0.1097541738040565,-0.2336647472629619,0.9451390412098766,-0.398765127181257,-0.3708567547317771,0.0145613540008635,0.8435885789292691,-0.170417635631812,-0.0097983700275236,0.5091366524918068,2.8850000000002183,4.0,-0.0141615028364266,-0.2923867313315992,0.9355273652751356,-0.3920194551166591,-0.080263953450481,-0.4147214999868313,0.7980589711604897,-0.1704097277466765,-0.1110029128724679,0.5672219641140422,2.8570000000004256,5.0,0.0682151250005096,0.5066323146237331,0.8339156998762907,0.4531183720596828,-0.1198304410870105,-0.0485445252816603,0.2352878052515852,0.370311115796675,0.3736529697070985,0.817247076743857,2.8570000000004256,6.0,0.0352721838322946,-0.530090427215067,0.8238525426450103,5.570960486955721,-1.0914045185040406,-1.006402541522138,0.7114888743096586,0.107006778373859,0.5389936259551446,-0.4379714628778324,2.8570000000004256,7.0,-0.0322721465621185,-0.0971150519044438,0.974342432233078,-1.625322175261387,0.5089765759870091,-0.5693936647372535,0.9518562775734608,-0.0981096266524287,0.0513856587852152,0.2858384894889516,2.858000000000174,8.0,-0.045535791504896,-0.0106482520229129,0.9783251537300262,-0.7136182767209982,-0.1100966112579246,-2.7279204467087443,0.9875778446036316,-0.0967625589461342,-0.023750172468672,0.1215028285347691
44,44,2.9890000000000327,0.0,-0.0396650562311268,-0.0017989922460653,0.9790834729179532,-0.227202198604481,-0.1923353977531852,0.2026868659079314,0.9859905513396156,-0.0143698699150539,0.0079731525944366,0.1659896633689319,2.9890000000000327,1.0,0.1057660425472981,0.1461280510400717,0.9633738303187986,0.2819305754164559,0.0776794897037858,-0.5226054798740489,0.966868404611526,0.1376049904458736,-0.0648124252295896,0.2050114735916323,2.9890000000000327,2.0,-0.0097100823796459,0.2278013434051523,0.952662197341213,0.5193243507282195,0.8626277635474915,-0.3958163527145667,0.9814861226492024,0.188412549848697,0.0010055229644266,0.0344193409308645,2.9890000000000327,3.0,-0.0880251161247666,-0.2513285947216931,0.9429398265034944,-0.2214332894272714,-0.1715768197470882,-0.2022451027272802,0.8473838471825863,-0.1717228651682508,-0.0262343624475745,0.5017605318669608,2.9890000000000327,4.0,0.0093057814595868,-0.3032510302848696,0.9310269679566708,-0.0662039119924549,-0.4450680705853741,0.3253358675967029,0.7866143099779728,-0.1577369485353568,-0.1261475338268596,0.5834756054146852,2.910000000000309,5.0,0.0641579456092033,0.4831282839630171,0.8496351094735651,-0.7700819812326551,-0.3885745116079376,-0.7194522834341583,0.2957214944203253,0.3385471278741337,0.3385121121222141,0.8266463511638711,2.910000000000309,6.0,0.0985799985492453,-0.0373046651585655,0.9738369195319296,5.783922720660367,0.184550680939317,-0.5487348193063728,0.6692358882632619,0.2768882373643992,0.3812740484617172,-0.5745314002205024,2.910000000000309,7.0,-0.055170690348552,-0.1722296368055297,0.9631864550191204,-0.9265885834059588,0.2312487738583831,-0.0339206136583086,0.9467601697766383,-0.1447349492365924,0.0438776742706529,0.284203668334155,2.910000000000309,8.0,-0.040781661697351,-0.0534261504939609,0.9776545926412864,-0.6571844608380647,0.0103695402120825,-0.2172595127357062,0.9860632005464872,-0.1222825498845584,-0.0244610299186689,0.1101272016218793
45,45,3.020000000000437,0.0,-0.023796552327293,-0.0105690098632567,0.979610136803333,-0.1700583521624132,-0.2645292911303286,0.1184653494633758,0.9848735986331584,-0.0197973959200215,-0.0060377947527807,0.1720337259512842,3.020000000000437,1.0,0.1078033206231322,0.1534690583035903,0.9616536238199466,-0.0660949994450526,-0.1996209163906372,0.4939358432843377,0.9621673927770192,0.1299598549712829,-0.0756136443252813,0.2272155830139434,3.021000000000185,2.0,-0.0165550055129554,0.2295279942299997,0.9522551294990326,-0.2988638915705999,-0.0205491973994025,0.7077510765695554,0.9836139272887016,0.1666028227230902,-0.0052882479682246,0.0686962585431135,3.021000000000185,3.0,-0.0766698411291499,-0.2573319275488291,0.9419310030597966,0.0233573309240076,-0.1821346470701421,-0.2189472825141151,0.8534385127720917,-0.1621187436111957,-0.0359098637952016,0.4940351197733798,3.021000000000185,4.0,0.0294315474731904,-0.3000906989018913,0.9330184116328614,0.1231651728890237,-0.2798721335958217,-0.1465972044390506,0.7909414301339904,-0.1395558446201329,-0.1324655307505144,0.5808517052509563,3.014000000000124,5.0,0.1285816170262598,0.4559627139945015,0.8582154573355579,-2.464251001429349,0.1704436636312883,1.2939631150094164,0.2881043277178134,0.3023735037256077,0.2080494826357554,0.8844668299998374,3.014000000000124,6.0,0.0839899730134063,0.4120289829221682,0.8855906512973875,1.930746184776394,-0.2651290106070785,-1.5807234119162077,0.6219708630151672,0.2916056833073052,0.3018339842485786,-0.6610708108634632,3.014000000000124,7.0,-0.0689804485740357,-0.2195755300478043,0.95257245620412,-0.7331607717252892,0.1426596121583534,0.3267702646468171,0.9366429291028814,-0.1776830644468849,0.0388717062241594,0.2993622261167254,3.014000000000124,8.0,-0.0459161680765062,-0.1126372864090421,0.9709704152133458,-1.0170109776511278,0.0641164709716378,0.2979089110496136,0.9780959856195784,-0.1664843217040601,-0.0203085580813743,0.1232833160255656
46,46,3.0790000000001783,0.0,-0.01004757129545,-0.0184349496120585,0.9793059782028616,-0.1226307001169953,-0.248160440119819,0.2541365193291644,0.982366424387457,-0.0227989046258748,-0.0180461258226558,0.1846909730518948,3.0790000000001783,1.0,0.1346973408474229,0.1310523052472099,0.9612054513255868,-0.2897297460543595,-0.2557375520481023,1.144424583525217,0.9494076154447982,0.1098061014437867,-0.0948756831941722,0.278507458714445,3.080000000000382,2.0,0.0230761340236305,0.199809084812118,0.9581846490447796,-0.633690522925024,-0.7572557480173491,1.281076198771134,0.9821176157877116,0.1309059230939382,-0.0529459571587585,0.1245204950155904,3.080000000000382,3.0,-0.0564940797302886,-0.2492867345106354,0.9457010854135948,0.3393024982684989,-0.1272063570783596,-0.7650691810310292,0.8750754879953394,-0.1389972241756524,-0.0387372168948349,0.4619762872793631,3.080000000000382,4.0,0.0406133189511984,-0.2843943026870849,0.937212590036484,0.3862743048109007,0.085265225101434,-1.0387300961158572,0.8248181465390936,-0.1156748392461338,-0.1208207306757848,0.5400895367845641,3.0520000000001346,5.0,0.1261492699651536,0.4112382016405932,0.8807942456661886,0.0691128245785661,0.3252282019929478,0.9643248589451698,0.24568757258283,0.2834780189298652,0.1985192547387431,0.9054655901578644,3.0520000000001346,6.0,0.0898133124670983,0.4184919796039396,0.8818066862475377,-0.4167111977902322,-0.2978213998627712,1.5650875610528194,0.7014824565914968,0.281817229904963,0.2422015697750697,-0.6081445647389644,3.0530000000003383,7.0,-0.0803624185662987,-0.265449848661852,0.9402437234715127,-0.8165206096948523,0.106309612903863,0.0376991705727497,0.9290265971409216,-0.2136025788854301,0.027959960182078,0.3008351055393472,3.0530000000003383,8.0,-0.0487580337054239,-0.1906486015721195,0.9600087316622572,-1.3640636569811595,-0.0951089372572836,-0.0085398133046386,0.9661950724253614,-0.2250270935458968,-0.03010792647436,0.1221613766894067
47,47,3.157000000000153,0.0,0.0160131153835739,-0.0215707524054828,0.9792202422215208,0.0301573619553098,-0.4825379724756443,0.5164065502224618,0.9766851725650056,-0.0159854596992839,-0.0401146993355937,0.2102887292916165,3.157000000000153,1.0,0.1532165855600021,0.0966671024609426,0.9631277948492298,-0.5627626326346559,-0.1856179200940894,1.056382287848041,0.936332124138424,0.0769277295459241,-0.112046541181443,0.3237434946722656,3.157000000000153,2.0,0.091061263565968,0.1415958095222952,0.9658811899004428,-0.9792413380641954,-0.8198902297896464,1.1864711415949605,0.9763081354039428,0.0793506036126016,-0.1019930328033212,0.1735607320506939,3.157000000000153,3.0,-0.0396606818768308,-0.2129251578046092,0.9554720861893072,0.8191650936411057,-0.2872776234185273,-0.1624515576395198,0.8838858406206896,-0.0924700519918301,-0.0326837487893972,0.4573039282577357,3.1580000000003565,4.0,0.0493795712361983,-0.2426448447783569,0.94857637396628,0.8121523706341306,-0.075274857193684,-0.0729178936539154,0.8312522586320934,-0.0768650791649138,-0.0991526666644766,0.5415534976503596,3.149000000000342,5.0,0.1264781927593638,0.4120498073803239,0.8803114352285579,-0.5434502189120536,-0.126499132967247,-0.2531978383150149,0.2703968310535031,0.2642534095434041,0.1750496386350589,0.9090727766876778,3.149000000000342,6.0,0.0970225136225551,0.3794150485492313,0.8977760593737981,-1.443065660098505,-0.4362583778852344,-1.33128892734326,0.7007046752100717,0.1905593652076203,0.2506975449905699,-0.6401959289202936,3.149000000000342,7.0,-0.0792243846593708,-0.2922676984753969,0.9316700538834756,0.1065672897660161,-0.1091605434096654,-0.0507918497950288,0.9324589344752772,-0.2013665524601024,0.0205112516787903,0.2992509575960168,3.150000000000091,8.0,-0.0459228598145049,-0.3194577453062102,0.9252069173489408,-2.845264773290995,0.2027148823900446,0.0367276100860198,0.9285853759993627,-0.3512227219493158,-0.0338411251586944,0.1150068576852234
48,48,3.244000000000142,0.0,0.0427352273533314,-0.0217372266062687,0.9782710224281036,0.0747062176820932,-0.4221527626549029,0.9031067669980198,0.9654216505269634,-0.0087796155534826,-0.0576396858317556,0.2540897905500011,3.244000000000142,1.0,0.1556640753918877,0.0488571559570794,0.9666233361264224,-0.6947331647981804,0.2467538305552397,0.0611034959881593,0.9395151028885792,0.0371948427089269,-0.107258115562361,0.3231464246531769,3.244000000000142,2.0,0.1219338725006938,0.081994501993779,0.967769617408904,-0.8179601641502625,0.0264606253360425,-0.5509681906447508,0.9838629485987194,0.0388742463367219,-0.1017848114625376,0.141923724239188,3.244000000000142,3.0,0.0039029664144239,-0.1391012827591375,0.96983328463604,1.1691054972739698,-0.5804817431648714,-0.6797989772804749,0.9027248074039228,-0.0221351165548429,-0.0330834680802922,0.4283730183525033,3.2450000000003456,4.0,0.0578401175999614,-0.1811955972651243,0.9618958760322022,1.4051847094214862,-0.4035361455591209,0.6356730291347871,0.8164978788481038,-0.0101331374893395,-0.0748299344866897,0.5723888663014747,3.2390000000000327,5.0,0.1157338464112121,0.3990315797531547,0.8863184953246591,-0.5602191564046589,0.013797113725296,-0.0808386563511283,0.2851663057126469,0.2412805376747288,0.1515383652169141,0.9151502631223902,3.2390000000000327,6.0,0.0906570418084954,0.3051016149099463,0.9270163457835444,-1.831936326819924,-0.0676573630874599,0.4897745278070397,0.7451066514424954,0.1192325452560699,0.26927098550402,-0.5984085681986888,3.2390000000000327,7.0,-0.0707601355347369,-0.2128286889784637,0.9540932618810458,2.447039629973341,-0.348436787957745,0.5899385325127274,0.9436647353585588,-0.0701226341884335,0.0404464566342385,0.3208485118570299,3.2400000000002365,8.0,-0.1505563205631691,-0.6684378091208054,0.7003097098257727,-5.857801424457107,0.9166633948221748,0.2123525937267455,0.8049504965872885,-0.5863007647983116,-0.0162505817112755,0.0896773652313554
49,49,3.3190000000004147,0.0,0.0628192216421933,-0.0158602555404883,0.9779638018282985,0.3343059182875978,-0.2985695114240927,0.8322257914009563,0.95334748859604,0.0094497881051551,-0.0655361009385068,0.2945238308968721,3.3190000000004147,1.0,0.1313705131139754,0.0204758408531052,0.9707855212277988,-0.4944224848654708,0.0816010140531638,-1.068587235966609,0.9572086976730996,0.0173540615726352,-0.1054693553425118,0.2689359788677166,3.3190000000004147,2.0,0.0686338763575712,0.0733346051018616,0.9748489250702838,-0.037298206841056,1.2881396998021346,-2.6697280255778444,0.9988198568392328,0.0413209092096438,-0.0237639785189774,0.0093139342220005,3.3190000000004147,3.0,0.0272559813513302,-0.0629468597215903,0.9767716234267692,1.443253986272225,0.0276813995193752,-1.4423014817745938,0.9319450981092048,0.0468940094957842,0.0031953580205343,0.359540089100999,3.320000000000164,4.0,0.0626550283616436,-0.072494800313792,0.9752357926924468,1.6644704736899276,0.2332053081605962,-2.1085115453289,0.8752204419972466,0.0638649583156569,-0.0072875566506353,0.4794343923077976,3.282000000000153,5.0,0.1250757980267697,0.3614753869024733,0.9020430086263482,-0.618727598741888,0.5351698408961472,1.6301837641335657,0.2173399082610358,0.2115419889848822,0.1119927580096529,0.9462932808209068,3.282000000000153,6.0,0.1136447207741438,0.1437141603803323,0.9623809627929798,-1.878636774392742,0.5536524349043314,5.460045816570934,0.9010243507254816,0.1143738992718579,0.2756715269188437,-0.3147680730495211,3.282000000000153,7.0,-0.0195875258060697,-0.0466564949418977,0.9790365163325284,2.4109046710203,-1.2369981477274383,1.024806592770081,0.9305783500756378,0.0687501255261537,0.0135986720765694,0.3593221823494833,3.2830000000003565,8.0,-0.1081460490239202,-0.9035906591793303,0.3632318167842386,-1.0031853423024235,-0.2704288070226913,-0.0541408843865693,0.777008555656903,-0.621402227459418,-0.0314626916460043,0.0955357272376964
50,50,3.3510000000001128,0.0,0.07269441852911,0.0037452018689929,0.97651241414417,0.2997162268460369,-0.0345358165427618,0.7636889587508559,0.941375092628318,0.0218766348803436,-0.0605164266424323,0.3311677972444924,3.3510000000001128,1.0,0.1413007866808407,-0.0068508986229747,0.9699861611752164,-0.5907874536158866,-0.0982625801581081,-0.3806918211057992,0.9621438926143008,-0.0078657616555965,-0.114725640100487,0.2470936810242453,3.3510000000001128,2.0,0.0645972633720093,0.0367501999568658,0.9759834098835788,-0.6406318693612358,-0.2026626467380257,-0.2728191302774534,0.999345662712002,0.0074782668215119,-0.0349698379279043,-0.0054251616890225,3.3510000000001128,3.0,0.0124054183568816,0.0330788560899299,0.9786485042522532,1.140654127467804,0.4944031035330217,-2.1000808418815065,0.9609975752956328,0.0892804752782857,0.0564085730291339,0.2555987674047247,3.3510000000001128,4.0,0.0862218564130257,0.0510555262787664,0.9738496417379274,1.9803232975208769,-0.3612071066017722,0.3934381631050856,0.8572626399363861,0.155160736751508,0.0196642131145807,0.4905499267787244,3.348000000000411,5.0,0.1418323596606518,0.3598752804700267,0.9004128854362932,0.230854371613853,0.5889509933613315,2.263232785629661,0.1076374174453953,0.1893044677717017,0.1094738091293453,0.9698419922657866,3.348000000000411,6.0,0.1137629019936792,0.0416685755192899,0.9729962651234432,-0.4144581254621628,0.3962333249574029,3.327369319410842,0.9487920014439843,0.1351390176118914,0.2437377576103858,-0.148738325356553,3.348000000000411,7.0,0.05876200452404,0.0621951623579833,0.9757703564894664,0.6793706652899153,-1.0177702771193908,2.2480938630257774,0.8838243107123164,0.1154522814912631,-0.0352223808835925,0.4519786968179494,3.348000000000411,8.0,-0.0669514036774407,-0.8480125678998259,0.487501994077525,-2.672989396557701,-0.9173657788773162,-0.0724264879685709,0.7007409041378452,-0.6995050822858542,-0.0779377752245747,0.1165355238430732
51,51,3.409000000000105,0.0,0.0698059862953889,0.0231222417819172,0.9760796515716874,0.3853387737675681,0.080721512871246,0.8391540084002175,0.9267032664373632,0.0359347906810271,-0.0488252903275082,0.3708717269049589,3.410000000000309,1.0,0.1420130450182333,-0.043782635740325,0.9678555552623952,-0.7038670251907622,0.0098261296651546,-1.0903714772141813,0.9738337278880724,-0.0355618910295021,-0.1207287800062358,0.1892294480577254,3.410000000000309,2.0,0.0513220986314796,0.0067531968908876,0.9786196587662715,-0.507482040461103,0.4368219780277381,-1.358657637658479,0.9970598178306344,-0.0157722633124988,-0.0131516543158373,-0.0738240432806282,3.410000000000309,3.0,-0.0138684202393763,0.1133068203740066,0.9727189889052218,1.3086921119272126,0.1196138898507434,-0.4196403088004725,0.9588112585341292,0.1456527946680922,0.0783304210596095,0.2309341444009483,3.410000000000309,4.0,0.0948152519121751,0.1424284031904049,0.9649529615320438,1.1959845357540522,0.1910538759937295,-1.364666510542074,0.879858296662642,0.1944974501837426,0.0680437532383965,0.4282407819336792,3.4260000000003856,5.0,0.1336603864076194,0.3414118157903613,0.9093749903885056,-0.250094242480244,0.3428689496461366,0.9052055342900736,0.0666042678894064,0.1673039544677443,0.0962742532815477,0.9789302970454288,3.4260000000003856,6.0,0.1190814876638273,0.0511137884862372,0.9714149370492272,0.0926982377284057,-0.5236946024427627,-4.727636757598476,0.90771435493394,0.0661587024802975,0.2031752382823188,-0.3611059380319124,3.4260000000003856,7.0,0.1194864225698643,0.1097428414770272,0.9660872132297392,1.2653718257963458,-0.6286376456393695,1.759872101717604,0.8334853625457844,0.1753242796362104,-0.0477156969949418,0.5218110382621788,3.4260000000003856,8.0,-0.0445502161480072,-0.8744066094821681,0.4406453897807906,0.9920464295675392,-1.548401842013903,1.4658186951303205,0.7312054159354255,-0.6389468673015103,-0.0798514803746459,0.2251872144555837
52,52,3.4840000000003783,0.0,0.0612647882919777,0.0404483697160488,0.9770033547039916,0.4020099476261277,0.2453655595172831,0.8598250061416618,0.9100104626510028,0.0470306864393833,-0.0294963499619849,0.4108516006268791,3.4840000000003783,1.0,0.1425494000923871,-0.0809889186329565,0.9666702972533938,-0.5726009890972391,0.0968008648309223,-0.9657305515273944,0.98147088306144,-0.0578062233609286,-0.1198481176655795,0.1378759403788824,3.4840000000003783,2.0,0.0248300230767248,-0.0186619763293473,0.979732718956294,-0.4475623554758798,0.4227080799533055,-1.5501359058705946,0.9879383938919996,-0.0347271072417691,0.0068486692620878,-0.150747648824295,3.4840000000003783,3.0,-0.0389196074089027,0.1633290328715108,0.9650237775207376,0.3925787239902278,0.7156234997316224,0.2841715235329601,0.9505690420962436,0.150311393188019,0.1108144318437565,0.2480829356913767,3.4840000000003783,4.0,0.0457764002388452,0.2291660994844958,0.951809024977298,1.036469667082252,0.2202190774139513,-2.594722702858044,0.9190185963144766,0.2191201125535874,0.1244151865698132,0.3031700137768752,3.479000000000269,5.0,0.1269254078487424,0.22733174567828,0.9429216395063252,-2.6279849680687013,0.8971629161445237,1.8889052328703164,-0.0070098064567404,0.1256894489658537,-0.0441171760014219,0.9910634186638908,3.480000000000018,6.0,0.1119187863896274,0.0074204402480666,0.9721811160064762,-0.4203984642793067,-0.1321600136297664,-1.9755348783351527,0.8772049036399971,0.0172728187969269,0.1827110174969789,-0.4436551485624509,3.480000000000018,7.0,0.1374386584778835,0.1861277396441511,0.9526683996495102,0.7147293327009396,0.3044811875053291,1.2307002677042205,0.79636738528208,0.187240934070491,-0.0248680671923285,0.574561919640965,3.480000000000018,8.0,-0.0505759466876193,-0.7208071097915384,0.6623837136363033,5.007197642362083,-2.62503103406276,1.5986653419741654,0.8535502483277538,-0.3594493374889062,-0.1061901587861812,0.3619002590982521
53,53,3.596000000000004,0.0,0.0439520682712833,0.0589069072897024,0.97626030953237,0.1885315909807964,0.3274305683357109,0.761420881541286,0.8940113154345636,0.0465536754493864,-0.0106451857327079,0.4454920910609194,3.596000000000004,1.0,0.1373514849041971,-0.0967452103994466,0.9653584483803822,-0.3243671901535717,0.2691242513822405,-0.6352087681124087,0.986390113951474,-0.0699515401671035,-0.1066095849384192,0.1038061728718789,3.597000000000208,2.0,0.0185240733998242,-0.0477290567025043,0.9772148156116788,-0.5013434377468415,-0.1266482024254875,-0.2268036338842482,0.9850831733628548,-0.0595254054666529,0.0024603660473282,-0.1614367190583088,3.597000000000208,3.0,-0.0565929500157803,0.1746408804814397,0.9614607640840984,0.0108439376604014,0.3935023292404403,1.2509036451024858,0.9327501847475284,0.1457363420736862,0.1141360401303926,0.3093719053110457,3.597000000000208,4.0,0.0319987805677812,0.2994107516372079,0.932370248263112,1.1954199479471352,-0.4854569026799828,0.0283876401945174,0.9094407296703898,0.2742458921560011,0.1109762345457539,0.2922174279850426,3.547,5.0,0.1145526606383933,0.0792686326624532,0.977638057675994,-4.220460529093863,1.4583989463716025,3.3011435185328195,-0.1444255886120029,0.0700617025795981,-0.2755727920987519,0.9477828039380238,3.548,6.0,0.0982028571971509,-0.0465487846812044,0.9717383441456958,-0.9181024775766604,0.5487163270782237,4.004855253178159,0.9498325785432828,0.0159078530398315,0.2005894975999286,-0.2394344720421226,3.548,7.0,0.1516948065726107,0.2449171159391658,0.934078846767734,-0.3550663133959425,0.876517354410953,1.646086964253763,0.7534676439921156,0.1426575244520476,-0.0105589906805508,0.6417350293462185,3.548,8.0,-0.0779450133779902,-0.4731386985541626,1.068237495513043,5.051068328102108,-2.7599117389625056,1.2595654590913268,0.8817193055366987,-0.0675040932672559,-0.1267946594197637,0.4493744296003871
54,54,3.628000000000157,0.0,0.0253702397046203,0.0607056423594927,0.9774769439342555,-0.0189230779748144,0.3066572394860057,0.5512891929234625,0.8817567216726874,0.0372889092614822,0.002692335333206,0.470220557144812,3.628000000000157,1.0,0.1100215549567177,-0.1144393189490062,0.9667703448717246,-0.1575792089422336,0.3843028395600442,0.774623279426557,0.9834819921765852,-0.0820006841517749,-0.0808365947789222,0.1396585257245845,3.628000000000157,2.0,0.0288334863668962,-0.07830559279183,0.9763251836357852,-0.341821744394268,-0.2243570899798764,0.9870755242526268,0.9908188505377484,-0.0762897158929461,-0.0031927932520945,-0.1115692194974856,3.62900000000036,3.0,-0.0720817324960211,0.1689860994963419,0.962519569680214,-0.2665028066280069,0.5306992279621656,0.6738338622048194,0.9219945237447044,0.1216290082067959,0.1251836049055856,0.3456320986399394,3.62900000000036,4.0,0.0379430863452092,0.3394932670734473,0.9181555662361346,0.1477062938969288,0.2449586301376922,-0.2968313603834487,0.913491935115865,0.2659047990826866,0.1209957226060445,0.2831733698886769,3.615000000000237,5.0,0.0796684037855402,0.0346900377476338,0.97628251378345,-2.272358215707149,0.8836217615817594,2.121794532242394,-0.2265084545122445,0.0195839720995236,-0.3707088534613758,0.9004917179167345,3.615000000000237,6.0,0.1119230173146984,-0.0567819079926017,0.9719393258428702,-1.3886205565203842,-0.0242403511830354,2.0357287731550064,0.9721930273379138,-0.037293346408293,0.1940401353919927,-0.1256914864510352,3.615000000000237,7.0,0.1626482243453326,0.1995487257768028,0.9456430939620744,0.1879210558005641,-0.4205031942674607,1.964797221942216,0.6888384858840988,0.1605082305795767,-0.0335605667778367,0.7061248732615686,3.615000000000237,8.0,-0.0049263529295809,-0.4379608330416915,0.8763161756856028,5.551699242620864,-1.8836188746674327,3.061995306781601,0.7953847130800502,0.1649390878842826,-0.101591543078714,0.5743147341496236
55,55,3.680000000000291,0.0,0.0160049158964987,0.0539626915832237,0.9783843164034468,-0.1021906613036185,0.1628376830217555,0.3878982076045211,0.8727240566099342,0.0281411176607093,0.0071485858588749,0.4873496652623503,3.68100000000004,1.0,0.0870262470924004,-0.129952991148057,0.9675064094923016,-0.1642409025661625,0.1081745308322483,0.8419972728626516,0.97692312697703,-0.091887785612348,-0.0700466102892502,0.1796421755036024,3.68100000000004,2.0,0.0304448954112979,-0.0930641778094332,0.975065211743322,-0.1636357748095194,-0.0035975179519002,0.8081898012566191,0.9940911272224696,-0.0817750983971901,0.0001548267605748,-0.0713837522715367,3.68100000000004,3.0,-0.0953586983254975,0.1533943565349488,0.9628031418918904,-0.2811129788028165,0.4191149650480316,0.2498926744573618,0.917811769806822,0.0965991078143017,0.1331771989286545,0.3613225723077204,3.68100000000004,4.0,0.0208574277038446,0.3046892682933456,0.9306360284753886,-0.9405663358414124,0.5807138143390757,0.78662762749347,0.912472504099772,0.2079564255338099,0.117696467615095,0.3321078075746207,3.719000000000051,5.0,0.047965219430315,-0.0943155228425978,0.9739429756797516,-1.5817146883563564,0.1700542214333112,1.7770658354468756,-0.3044376198499725,0.0022338760450593,-0.416374297878655,0.8567060111169735,3.719000000000051,6.0,0.1051882976165727,-0.1588437561587319,0.9619381909321996,-1.265374257518742,-0.1445443648936757,1.352224037505438,0.9786409493348722,-0.0919321842866113,0.1774574477257307,-0.0481582809483696,3.719000000000051,7.0,0.2236985914414285,0.1098473482630593,0.9475180738469822,-1.5610174966288086,-0.7316142874332294,1.764972111424998,0.6383189214475963,0.1299407837620937,-0.1242422169441645,0.7484839468993769,3.719000000000051,8.0,0.2665008893526256,0.3248660082263526,0.8856683084955309,5.507012810621405,-1.9592040477585728,2.803708172417099,0.6583160711073709,0.3917740024041724,-0.0543876075920592,0.640449115623078
56,56,3.7840000000001055,0.0,0.0069330226176973,0.0497036426409918,0.9776351472331584,-0.0907314882238938,0.1333957530076795,0.3675907933994206,0.8637683737895052,0.0206791368139918,0.0105284129973989,0.5033544697938205,3.7840000000001055,1.0,0.0830807160203137,-0.1393669748731691,0.9650960786057796,-0.1170188133375045,-0.0541861905434009,0.2842871991548537,0.973935150899618,-0.0951745785588623,-0.0708577806995173,0.1933165703001683,3.7840000000001055,2.0,0.0198922363233781,-0.1031792066815448,0.9744928682358952,-0.0966110260378351,0.1180501205878586,0.0865269180525996,0.9942075420989084,-0.0833111176634087,0.0060797138922292,-0.0676288251140723,3.785000000000309,3.0,-0.1128313001192126,0.1294905741728597,0.9648809713709724,-0.518391825196613,0.1233375969213889,-0.0130525391537859,0.9206331722894046,0.0648220137804806,0.124000185634081,0.3644950240709796,3.785000000000309,4.0,-0.017468972604149,0.2062526620385218,0.9579732117330728,-1.985224359120104,1.2802054480553395,1.4180670776141462,0.896802137204547,0.0935856351617891,0.1277526290938204,0.4131185318481104,3.794000000000324,5.0,0.0313545367610602,-0.1903602807505798,0.960658033088289,-0.9817790406330608,-0.0374041339653761,0.7865434155551924,-0.3415337671674682,0.0072948835304402,-0.4291822069272211,0.8361244547408925,3.794000000000324,6.0,0.0858870569164871,-0.2410257526914271,0.9462034664879194,-0.892236225928519,0.1200138243884829,1.3945896222116767,0.9764561616393233,-0.1261669036130061,0.1731698639663322,0.0250494519538535,3.794000000000324,7.0,0.3234117476310659,0.0923514438002663,0.9208876437015678,0.6321830250910623,-0.7153162833945929,1.1705804005733336,0.5873060261993821,0.1706295267806168,-0.1266182011547894,0.7809769697736539,3.7950000000000728,8.0,0.2815446079135131,0.4101917364787777,0.8446048620978633,0.9025658150581692,0.6166388879628292,1.3647387643232485,0.6051370340747204,0.3836386211292684,-0.0249972142309724,0.6971411031132616
57,57,3.820000000000164,0.0,0.0009192028187919,0.0500748606513147,0.9789375176163848,0.044160850456134,0.1231914049927362,0.5203161866125366,0.8504161874264426,0.0198875237175823,0.0165505982739079,0.5254739501252481,3.820000000000164,1.0,0.0830807160203137,-0.1393669748731691,0.9650960786057796,0.1409626679158443,-0.0105077390054312,0.1961693553156543,0.9730100300867552,-0.0855792293216779,-0.067642532736369,0.2033523164959985,3.820000000000164,2.0,0.0017429602604685,-0.0919445305359451,0.9760374815518384,0.279189145538372,0.4654410461691612,-0.5757280690015133,0.9927512924837548,-0.0643570721870544,0.0260057746107305,-0.0981159427322609,3.821000000000368,3.0,-0.1018196143815396,0.0821244196812731,0.971220544376615,-0.9730391432095729,-0.1557204432006659,0.3867408458529162,0.917480113126641,0.0208909600060211,0.0926115816965056,0.3862860400568783,3.821000000000368,4.0,-0.0632887371866618,0.0974445903051767,0.9730514310999052,-1.5743720640185823,0.4738773691984642,2.6254341439556104,0.8414219408308832,0.0278764883165655,0.1033460289800816,0.5296712349954207,3.824000000000069,5.0,0.0103751936529731,-0.2443139073072046,0.9488735795947476,-0.6669540964974889,0.2315325585783199,0.969428048541384,-0.3800460842099357,-0.0075057605318195,-0.4334615769554258,0.8170799830731683,3.824000000000069,6.0,0.0743342380433348,-0.3363348432504369,0.9173294360643948,-1.3953489910550698,-0.1121446068048907,0.7982303786395595,0.966870522014056,-0.1911093226182456,0.1526297031025012,0.0730944197562645,3.824000000000069,7.0,0.3104931743780085,0.1043809194260766,0.9234178969049898,0.0624381899086152,0.5530111892637362,0.0936662057395869,0.5882409113216976,0.1493258304731466,-0.1015888847566239,0.7882601887034693,3.824000000000069,8.0,0.3251144033010929,0.3779537080781098,0.8434290837504841,0.6791589830942633,0.5943479828081037,3.946984674415648,0.462098418141858,0.3642175026233295,-0.0556894914316087,0.8066655709014153
58,58,3.878000000000157,0.0,-0.0001709000010517,0.0544336938709443,0.9780362691458604,0.0237989376718591,0.0367677797707083,0.3969199247111387,0.8398533811918383,0.0206165118723264,0.0181266524775163,0.5421186973429473,3.87900000000036,1.0,0.078951644286716,-0.1225444040452763,0.969213344368314,0.4742374530040621,-0.0143415750139709,0.7036721517905093,0.9673096370021388,-0.0615775363916906,-0.0597618506042302,0.2386394652757124,3.87900000000036,2.0,-0.0008437958403719,-0.0822810364062627,0.9769995491587962,0.1740732275062536,-0.3378033947924666,1.523038251408879,0.99832784276685,-0.0528763478577506,0.010091893706417,-0.0210657037654154,3.87900000000036,3.0,-0.0522369323826492,0.0351484445882785,0.9772051420956988,-0.7956080780346136,-1.0628476277905543,3.61190708755943,0.8447405418351163,0.0226952174692408,0.0217239415911491,0.5342531370482368,3.87900000000036,4.0,-0.0393413015819954,0.0307842122418374,0.9784286352445356,-1.1372539707455864,-0.3729363276088904,4.246321616624878,0.7282937210196897,0.0160622929161008,0.0486213057462286,0.6833492718201309,3.9150000000004175,5.0,-0.015005741289321,-0.2789085303725565,0.9397073264659476,-0.4016296966102083,0.0728441256152396,0.9423525501422564,-0.4205892867181708,-0.0180340550992787,-0.423985514154303,0.8018826027180586,3.9150000000004175,6.0,0.0358859608399918,-0.4708309811458164,0.8586223762562085,-2.397664724481997,-0.1533298855961936,2.106056626661464,0.9271061301915404,-0.2889843893219731,0.1478469024438322,0.1873593860131818,3.9150000000004175,7.0,0.2714796364459771,0.1057908182804922,0.9352903879345196,0.4670159831494319,0.7153565040788379,1.0124293293494324,0.5500489814874806,0.128323201078897,-0.0642629558515653,0.8227086644339355,3.9150000000004175,8.0,0.2725153363432877,0.286196239049866,0.8973076976218453,-0.7364748725719918,1.5263618099550904,0.1535197998151266,0.4806323719416589,0.2697163458494886,-0.0407146445842512,0.8334194223437031
59,59,3.949000000000069,0.0,-0.0120098599781808,0.0539245076998977,0.9787976863134836,-0.0882115555828389,0.2614359935956513,0.7376637881684724,0.8194686973025317,0.0104970765725358,0.0262454873966838,0.5724264493505102,3.950000000000273,1.0,0.0708139400862085,-0.0979392053762773,0.9727293035267984,0.4370676982659804,-0.0361223753724231,1.2570382061819665,0.9518385614241704,-0.0418477499549293,-0.0522725373063745,0.2991984302318934,3.950000000000273,2.0,0.0161970075741435,-0.0614491381121503,0.9778014422012872,0.3160241456744687,-0.4922550726043386,1.5427214038513817,0.9976803894991694,-0.034539686453152,-0.0139288512809437,0.0569810281628628,3.950000000000273,3.0,-0.0084377797299326,0.0034191466640528,0.9800133230264366,-0.6299519996371122,-0.2005215053234743,2.247523831019176,0.7838893375603968,0.0035575625194147,-0.0050730553522285,0.6208696435786145,3.950000000000273,4.0,-0.0179126390410726,-0.0209792268574089,0.9795943085803682,-0.7006697208390429,-0.3358494305431956,3.158515389432089,0.6226356149453108,0.0110216621220942,0.0077565408905701,0.7823958397378873,3.946000000000368,5.0,-0.0111369013483608,-0.2367871268265618,0.95101305248539,1.3992085058399517,-0.2597397227991327,-0.4637595920171924,-0.4108921658264703,-0.0200543133849928,-0.336533761001945,0.8470599035977175,3.947000000000117,6.0,-0.0459970910942962,-0.6336326924534702,0.7465653880706158,-3.507664643827927,-0.1348293752849653,2.533842587612344,0.8403356691442477,-0.4169313080476619,0.1434031635360584,0.3153407366982665,3.947000000000117,7.0,0.2428351761693677,0.0866285331146068,0.9453552636259046,-0.4452972584161495,0.6516558137441721,0.3002902603516866,0.543274376830716,0.0885037603028782,-0.0631503243646386,0.8324854788067411,3.947000000000117,8.0,0.1774803779770157,0.2332105107851252,0.9343059312090854,-0.9542214156999104,0.9913855660811272,-2.8865192443741394,0.6230626084860473,0.1935909475014749,-0.0107528092769481,0.757759795743148
60,60,4.057000000000244,0.0,-0.0137683288209564,0.0524064555791718,0.9780209591491924,-0.1774785305534684,0.023688808553846,1.2740898785172834,0.7825843114718823,0.0052687684278241,0.0212606283161644,0.6221591606662527,4.057000000000244,1.0,0.080077825613173,-0.0818088728714616,0.971732910919748,0.3348090304917984,-0.4657247802340199,1.4939390679650877,0.9266574766105368,-0.0217924139878116,-0.0670191801822617,0.3692417111081494,4.057000000000244,2.0,0.0222127412403081,-0.0385193701559616,0.9788196219168162,0.425802966404573,-0.0325829035328566,0.8627845032643223,0.9948054492345324,-0.0122760506388967,-0.0136422703929782,0.1001264461194763,4.057000000000244,3.0,-0.0467835556629399,-0.0416640894404155,0.9782517071646916,-1.0029554724730003,1.2384820409456472,3.032673512844491,0.6891753958197598,-0.0734656162209075,0.0184410625629683,0.7206247319107972,4.057999999999993,4.0,-0.040760919620367,-0.105022567013519,0.9737914601441076,-1.1653741460647071,-0.5103315636995712,2.0904712682170947,0.5431941545101787,-0.0053031837974859,-0.0551136330035563,0.83777949020296,4.00400000000036,5.0,0.0187943447558893,0.0025498242877801,0.9802011380330562,4.628575401089245,-0.7148430294608816,-0.3481805872342079,-0.4159754009455887,-0.0772171767545321,-0.098995569618211,0.9006674472957162,4.005000000000109,6.0,-0.1953244291751941,-0.7387436203344048,0.6131298645332827,-1.8024677111239693,-1.2906172989950762,1.4046382899065757,0.7896688888323552,-0.4576475368149501,0.0807940592687268,0.4005672203817529,4.005000000000109,7.0,0.1928850952168252,0.0903591406080119,0.9571481420092596,0.1409683620574568,0.6925079219890462,-0.1365150874661091,0.5511970162751553,0.0660201139560641,-0.0330630301295416,0.8311016964495065,4.005000000000109,8.0,0.0885236416832067,0.1949751136052364,0.9562548143344264,-2.2589396427479618,0.6362068308156504,-3.250223729532251,0.7717896319470083,0.0748275873718785,-0.0526660880135539,0.629259786861161
