,timestamp,node,accx,accy,accz,gyrox,gyroy,gyroz,q0,q1,q2,q3,timestamp,node,accx,accy,accz,gyrox,gyroy,gyroz,q0,q1,q2,q3,timestamp,node,accx,accy,accz,gyrox,gyroy,gyroz,q0,q1,q2,q3,timestamp,node,accx,accy,accz,gyrox,gyroy,gyroz,q0,q1,q2,q3,timestamp,node,accx,accy,accz,gyrox,gyroy,gyroz,q0,q1,q2,q3,timestamp,node,accx,accy,accz,gyrox,gyroy,gyroz,q0,q1,q2,q3,timestamp,node,accx,accy,accz,gyrox,gyroy,gyroz,q0,q1,q2,q3,timestamp,node,accx,accy,accz,gyrox,gyroy,gyroz,q0,q1,q2,q3,timestamp,node,accx,accy,accz,gyrox,gyroy,gyroz,q0,q1,q2,q3
0,0.0299999999999727,0.0,3.4121243867006806e-17,2.3855348811467056e-17,1.0,0.0048971868076622,-0.0005677995125082,-0.0126088646027355,0.9999997708940488,0.0002448592842843791,-2.823559924298611e-05,-0.0006304431234973856,0.0299999999999727,1.0,1.294202088559804e-16,-1.5708001110636908e-17,1.0,0.0088115018209724,-0.0051252740292707,-0.0094679939964258,0.9999997581110852,0.0004405749844783886,-0.000256055071410792,-0.00047339967720104475,0.0319999999999254,2.0,-2.923057241916092e-17,-1.868903023942685e-17,1.0,0.0110767859785197,-0.000861714606223,0.005729833913306,0.9999998046572627,0.0005538391907374993,-4.324439222354433e-05,0.0002864917275790917,0.0319999999999254,3.0,5.614758156395053e-17,1.1347047923073022e-16,0.9999999999999998,0.0026336076551482,-0.0049691544438598,-0.0062435512922031,0.9999999117473253,0.0001316803711362697,-0.000248416592608366,-0.00031217754247272203,0.0329999999999017,4.0,2.8309834245947024e-17,4.9725588889678376e-17,1.0,0.0053570975825662,0.0004897883463859,-0.012732543287059,0.9999997611758087,0.0002678548151580876,2.4659935122060673e-05,-0.0006366270579865744,0.030999999999949,5.0,-1.4512182203732646e-17,9.195695361106864e-17,1.0,-0.0085247515013648,0.0017084578007041,-0.0072205171490522,0.9999998403555428,-0.000426237507021769,8.526899363646382e-05,-0.0003610258654074481,0.0,6.0,2.0340041572295625e-17,4.429102202976796e-18,1.0,-0.0064935849768694,0.0011585588595185,0.0064024969946138,0.9999998943678895,-0.00032467921454691547,5.803187474164061e-05,0.00032012484966170083,0.0,7.0,-6.383501529146891e-17,9.402583959893594e-17,1.0,0.0026125297501409,-0.0077848097205587,-0.0070431128488314,0.9999998537254186,0.0001306264683997149,-0.0003891944282440434,-0.00035215559693908,0.0,8.0,3.464633333279503e-18,1.826965198047968e-19,1.0,0.0087033267909735,-9.09017858266085e-05,-0.002187392380544,0.9999998993241709,0.000435166295737943,-4.497494861771629e-06,-0.00010936962872761751
1,0.0829999999998563,0.0,7.279198691628119e-17,5.0891410797796387e-17,0.980434597512756,0.0058892094759409,0.0060831112531398,-0.00748592368028,0.9999993238509052,0.0005150359265987114,0.00027875045602206784,-0.0010046561152817473,0.0829999999998563,1.0,-9.505019436316068e-05,-0.0009184535443656,0.9789403186142388,0.0046529693655963,0.0011049319582509,-0.029251941847633,0.999997942020019,0.0005826576034845691,-0.0001695838790439384,-0.001935899571703458,0.0829999999998563,2.0,-0.0009379332891634,0.0003106828646277,0.9798209141252816,0.0018026826205834,0.0019072959067358,-0.0279775237157383,0.9999991931147025,0.0006044623559836257,0.0001051831608056811,-0.0011123541283319393,0.0829999999998563,3.0,6.157316110193743e-17,9.517199076679981e-17,0.9797356786399072,0.0031910783459493,-0.0004824393284057,-0.0078521814042949,0.9999996823160644,0.0002781561934013379,-0.00024763748046465974,-0.0007047500128086148,0.0829999999998563,4.0,6.592100684967831e-18,5.511834648806896e-17,0.9802596594780386,0.005345363436454,4.952923624658763e-05,-0.004313916423847,0.999999507263444,0.0005083336260722784,2.4609897021072057e-05,-0.0008523286613182191,0.0919999999998708,5.0,-3.2292739626316006e-05,-0.0009692680792385,0.9802413271621276,0.0037575557080003,0.0082900192917387,0.0026721416595806,0.9999998226177841,-0.00024501458214074544,0.0004928729178772788,-0.0002276148975731806,0.030999999999949,6.0,2.0296773538241494e-17,-4.102990084597637e-17,0.9798382519579444,-0.004891283374258,0.000228595600755,0.0090855821334372,0.9999995540527556,-0.0005367526228026131,6.38240019661046e-05,0.0007744142359498886,0.0319999999999254,7.0,-1.672269992474889e-17,1.103157398912136e-16,0.9798765228333618,0.0057533990217425,-0.0081775411618329,-0.0090337513900924,0.9999993067515704,0.0004052653613282408,-0.0007590699581666264,-0.0008037842771652739,0.0319999999999254,8.0,2.7717066666236025e-18,1.4615721584383742e-19,0.9795070188620396,0.0001579423285432,-0.004889281203405,-0.0075240168345432,0.9999997714083244,0.00039952170558710297,-0.0002483623126536215,-0.00048567671086393037
2,0.1699999999998453,0.0,7.279198691628119e-17,5.0891410797796387e-17,0.980434597512756,-0.0062996437379897,-0.0006134613378938,-0.0123436209452729,0.9999986496020131,0.00014834763590675426,0.0002206103470987498,-0.001621763917408166,0.1709999999998217,1.0,-0.0010900406148499,-0.0008428011428854,0.979005669798542,-0.0002222487408066,-0.004855029684981,-0.0137876348217349,0.9999963855077943,0.0004699907110440909,-0.00033927673139793723,-0.0026254468910907806,0.1709999999998217,2.0,-0.0012784886016408,-0.0005984270698528,0.9795810366436956,0.000287921154176,0.0076655763523693,-0.0069051250744925,0.9999986507513916,0.0005283298315696533,0.0005434002703257428,-0.0014574220843320924,0.1709999999998217,3.0,6.157316110193743e-17,9.517199076679981e-17,0.9797356786399072,-0.0021364842029149,-0.0022642865901208,-0.0158044791012805,0.9999988157116191,0.00014363232916201542,-0.00033589908614197465,-0.0014950307412402728,0.1709999999998217,4.0,6.592100684967831e-18,5.511834648806896e-17,0.9802596594780386,0.0002697580405585,-0.0045078559481446,-0.0075625737794752,0.9999991114058843,0.000470786722468942,-0.00020307716875491813,-0.0012305718051392818,0.2109999999997853,5.0,0.0008954298729598,-0.0020365044133774,0.9802229597673772,0.0177787955322441,0.0049224156722116,0.0133298978135587,0.9999995373390514,0.0005649210871939962,0.0006434763977826488,0.00043831948808863565,0.0919999999998708,6.0,2.0296773538241494e-17,-4.102990084597637e-17,0.9798382519579444,-0.0039249175558176,-0.0064210096322454,-0.0012440195584905,0.9999994808746305,-0.000679078464639915,-0.00026380292997582133,0.0007123980084082677,0.0919999999998708,7.0,0.0003317727239741,-0.0009385728353066,0.9799714327509208,0.0106242982451273,-0.0074676782840655,-0.0080072615982808,0.9999983395447762,0.0008480553751664602,-0.0010735228980429618,-0.0012038514685324137,0.0919999999998708,8.0,-3.175040621233979e-07,0.0003347392078349,0.9804493296186,0.0044299141658929,-0.001730592324025,-0.0027176693212819,0.9999995798902339,0.000598127578031946,-0.00031007405894370883,-0.0006215439116649333
3,0.2159999999998945,0.0,0.0001968042792629,-0.0013180643038792,0.9799613379999064,-0.017943459650956,-0.0032609505375,-0.000961285738455,0.9999982602959528,-0.0008312005648245747,2.6984680423796202e-05,-0.0016696653903282522,0.2159999999998945,1.0,-0.0010900406148499,-0.0008428011428854,0.979005669798542,-0.0045122465452693,0.0046798133491809,-0.0073504111807511,0.9999955089771125,0.000155222072654632,-1.492660652638962e-05,-0.002992943185271538,0.2159999999998945,2.0,-0.0009379332891634,0.0003106828646277,0.9798209141252816,-0.0050642136506248,-0.0199596833534213,0.0377240492343362,0.9999997736402312,0.00023777924403189352,-0.00046116513279204324,0.0004283774481319478,0.2169999999998708,3.0,6.157316110193743e-17,9.517199076679981e-17,0.9797356786399072,0.0011533489284728,0.0143305588438217,-0.0036006236794684,0.9999984938388207,0.00018806812275790728,0.0004141654139641824,-0.0016749380529492877,0.2169999999998708,4.0,-0.0012106941921056,-0.0006932490951727,0.9804912307742816,-0.0044022983096149,0.0143489035926313,-0.0313109249473142,0.9999958990705735,0.000169518343669023,0.0005969916003230483,-0.002795837369290341,0.2609999999999672,5.0,0.0009277226125862,-0.0010672363341387,0.9799790815815208,0.0173868854672286,0.0039741820453524,-0.0083820545993178,0.9999988571951893,0.0013229843417348164,0.0007314155943687164,1.8761011093280126e-05,0.2109999999997853,6.0,2.0296773538241494e-17,-4.102990084597637e-17,0.9798382519579444,-0.0024206915023925,0.0008548914945191,0.0121869029428413,0.9999988394966144,-0.0007323962019431965,-0.00019431803548409918,0.0013216814022608881,0.2109999999997853,7.0,-1.672269992474889e-17,1.103157398912136e-16,0.9798765228333618,0.0120283306823069,-0.0127683760403314,0.0027061355903165,0.9999972104969506,0.001363750892015229,-0.0016054961875730039,-0.0010684398970890235,0.211999999999989,8.0,-3.175040621233979e-07,0.0003347392078349,0.9804493296186,0.0085478227185901,0.0022277668401941,-0.0018998026687325,0.9999992463205817,0.000982875006437898,-0.0001678450806712799,-0.0007163400166632405
4,0.3259999999997944,0.0,0.0001968042792629,-0.0013180643038792,0.9799613379999064,-0.0054261066277239,-0.0040957662880138,-0.0070761311302941,0.9999973442107057,-0.0010870039705721045,-0.000190362271425367,-0.0020233032666569775,0.3259999999997944,1.0,-0.0010900406148499,-0.0008428011428854,0.979005669798542,0.0095814271891034,-0.0125655013567943,0.0108673594457338,0.999996662137933,0.0005740041366602539,-0.0005876532440336943,-0.0024496726125039637,0.3259999999997944,2.0,-4.42852813811006e-17,3.311512652742497e-18,0.9796667800839224,0.0062571578916199,-0.003945107498902,-0.0026628887352212,0.9999996301897571,0.0005270049948852028,-0.0006120997228858593,0.0002953303463211568,0.3259999999997944,3.0,6.157316110193743e-17,9.517199076679981e-17,0.9797356786399072,-0.003594966090877,0.0079907529359895,0.0162696101336915,0.9999993305781892,-9.480847623648559e-06,0.0007725948336178789,-0.0008613074419971514,0.3259999999997944,4.0,6.592100684967831e-18,5.511834648806896e-17,0.9802596594780386,-0.0003871133420353,-0.0007532936241553,0.0047652672073896,0.9999965957102922,0.00013324783410703845,0.0004996502157223608,-0.0025575696477616807,0.3639999999998053,5.0,0.0028800460566379,-0.0002939047647006,0.9792107122344512,0.0229729784496433,0.0043923564029745,0.0119110126761367,0.9999968432159051,0.0023247589091008537,0.0007294694152814615,0.0006139451205181876,0.2609999999999672,6.0,2.0296773538241494e-17,-4.102990084597637e-17,0.9798382519579444,0.0035908921768699,-0.0005201929003643,-0.0122928868542534,0.9999996148799698,-0.0004794580526347005,-0.0002009532156717922,0.0007070910075478911,0.2609999999999672,7.0,0.0003317727239741,-0.0009385728353066,0.9799714327509208,0.0193342408926835,-0.0017711380680691,0.0068457589204387,0.9999962312144194,0.0021455348121238536,-0.0015521474809896644,-0.0007246209525943184,0.2609999999999672,8.0,-7.440647740325273e-05,0.0012744523235873,0.9801154882129712,0.012897435762306,0.0043439674328085,0.0030916784942016,0.9999985686099025,0.0015946058994125393,6.91782950911969e-05,-0.0005614486040048771
5,0.3659999999999854,0.0,0.0001968042792629,-0.0013180643038792,0.9799613379999064,-0.0079141718091382,-0.0022106116751274,-0.0063540987311879,0.999996178602225,-0.0014414447069814747,-0.0002914188464892118,-0.002340959879957718,0.3659999999999854,1.0,1.1770219140980347e-16,3.3036502626260816e-17,0.9793242568220192,0.0202516047414933,-0.0224367850386544,0.0004733462345086,0.9999945255636942,0.0015264159476768523,-0.0016532372085609314,-0.002426046934636969,0.3659999999999854,2.0,0.0003405553124773,0.0009091099344806,0.9799066575655082,0.0211551186919329,-0.0236452836440575,0.014468356189522,0.9999967018654338,0.0015783552367142181,-0.001751341887402637,0.0010187514883954652,0.3659999999999854,3.0,6.157316110193743e-17,9.517199076679981e-17,0.9797356786399072,0.0034071168355671,-0.0006738784932582,-1.710171547738862e-05,0.9999993963482271,0.00016179329431887144,0.000661494880469976,-0.0008622938213710935,0.3659999999999854,4.0,-0.0003272602292928,-0.0009288837675264,0.9800862360403236,0.0117561488456953,-0.0067694424225763,0.0080352902805819,0.9999974498786252,0.0006597190154938277,0.00012626203119837557,-0.0021561690486815114,0.405999999999949,5.0,0.0031904173867445,0.0009010214887769,0.9799005099484208,0.0185089828762392,0.0068746300893762,0.0032940503956014,0.9999946525048666,0.003063713508394833,0.0008375530225541978,0.0007791829978710849,0.3639999999998053,6.0,2.0296773538241494e-17,-4.102990084597637e-17,0.9798382519579444,0.0029088231947388,-0.0022911691682804,0.000738503019688,0.9999996386581258,-0.00028599755754388245,-0.00029530291064907156,0.0007441002661738466,0.3639999999998053,7.0,-1.672269992474889e-17,1.103157398912136e-16,0.9798765228333618,0.021030679980918,-0.0059609597441876,-0.0074171591030054,0.9999935163815372,0.00298286933412106,-0.0016946353742554917,-0.0010944845234628405,0.3639999999998053,8.0,-7.440647740325273e-05,0.0012744523235873,0.9801154882129712,0.0092723037295653,0.0027790329247179,-0.0135789028302476,0.9999972814459892,0.0019638075210520268,0.00020604403875488172,-0.0012402042191614253
6,0.4549999999999272,0.0,0.0011410761236989,-0.0010913762509832,0.979722668331788,-0.0107147319443737,-0.0076306667291698,-0.0130756222335186,0.9999934851702219,-0.0018895701187000096,-0.0007018929157180694,-0.0029944094934659625,0.4559999999999036,1.0,0.0010900406148502,0.0008428011428855,0.9796428438454964,0.0169960090010319,-0.0113216278767695,-0.0112180918966046,0.9999907461671348,0.0022660014354962924,-0.002110518908861263,-0.0029863903841702197,0.4559999999999036,2.0,0.0016190439141182,0.0015075370043334,0.9799924010057348,0.0166930905920793,-0.0148903037077064,-0.0167428661569114,0.9999943776921237,0.00233439289467534,-0.002400439468421849,0.0001818909390517075,0.4559999999999036,3.0,6.157316110193743e-17,9.517199076679981e-17,0.9797356786399072,5.5144726694734335e-05,0.004821890254566,0.013354480216275,0.9999996202444172,0.00014902075569103298,0.0008363377895198446,-0.00019453261256630196,0.4559999999999036,4.0,-0.0003272602292928,-0.0009288837675264,0.9800862360403236,-0.0027873461957548,0.0067110689265882,-0.0125705199288642,0.999995931426562,0.00040767289022690563,0.0004665422166565877,-0.0027844696977548373,0.4699999999997999,5.0,0.0031904173867445,0.0009010214887769,0.9799005099484208,0.0178528092218202,0.0094547357211534,-0.0087238194516729,0.9999925446577667,0.00369534815081387,0.0010660839786132352,0.0003442323040422952,0.405999999999949,6.0,2.0296773538241494e-17,-4.102990084597637e-17,0.9798382519579444,0.0013957115845802,0.0047763258095279,0.0063510190947851,0.9999994184886875,-0.0001878837251357902,-2.68448624022998e-05,0.001061603196121517,0.4069999999999254,7.0,0.0005809706990341,0.0012325261046408,0.9794979036998744,0.0167992780037434,-0.0071490477287592,0.0084977965430403,0.9999915119781138,0.003586313169844447,-0.001914790607184684,-0.000669258174826375,0.4069999999999254,8.0,-0.0001484954507443,0.0022141654393397,0.9797816468073426,0.0097432130153979,0.0046561601885599,0.0109440892809559,0.9999968666409567,0.0023679888974923393,0.0004237847623039953,-0.0006926350592148616
7,0.5299999999999727,0.0,0.0011410761236989,-0.0010913762509832,0.979722668331788,-0.0066828206000831,-0.0047805376388854,-0.0126985846049913,0.9999907969079755,-0.0020908936704326824,-0.0009291227914399295,-0.0036291863894829805,0.5299999999999727,1.0,0.0022751314240635,0.0026040558301368,0.9803453690767538,0.0233288691847132,-0.0275426875872808,-0.0135310013210976,0.9999819653418666,0.0033356017877581635,-0.003394233784384199,-0.00366359505788567,0.5299999999999727,2.0,0.0022345555739702,0.0036032371152134,0.9795136667978036,0.0229185522150266,-0.0203471283927983,0.003830697369688,0.9999886264833735,0.003430540789184311,-0.003292217845771895,0.0003736247394413037,0.5309999999999491,3.0,6.157316110193743e-17,9.517199076679981e-17,0.9797356786399072,-0.0001468397403176,0.0024443188799859,0.0026764184722112,0.9999996073762059,0.0001269123999333061,0.0008749044044159005,-6.068739618144251e-05,0.5309999999999491,4.0,-0.0003272602292928,-0.0009288837675264,0.9800862360403236,0.0016867199279982,0.005457257724285,-0.0072529489224414,0.9999947144613804,0.0004044906994945356,0.0007094886945614971,-0.0031470720310231653,0.5249999999998636,5.0,0.0032550028659972,0.0028395576472542,0.9794127535767084,0.025673123119406,0.0078740042149297,0.0125085223580811,0.9999875223907111,0.0047550063867447395,0.0011845212299963438,0.0009705084259856926,0.4699999999997999,6.0,2.0296773538241494e-17,-4.102990084597637e-17,0.9798382519579444,0.0030102739766703,0.000540756132512,-0.0012696694462944,0.9999995017016843,-1.8608723964631654e-05,3.0360220406524163e-06,0.000998118670881845,0.4699999999997999,7.0,0.0017320968046807,0.0017072347563901,0.980168396343274,0.0159750603038193,-0.0180859921228221,0.0062027555977873,0.9999877862584119,0.004112257529022967,-0.0027178258902123523,-0.00036068607732077216,0.4699999999997999,8.0,-0.0002225844240855,0.0031538785550922,0.979447805401714,0.0107116645036814,0.0039023329800068,0.0054704409803749,0.9999957413297583,0.0028280319189819838,0.0005866288209203608,-0.0004188370074217073
8,0.5909999999998945,0.0,0.0011410761236989,-0.0010913762509832,0.979722668331788,-0.0120149528162678,-0.0075627461704698,-0.0093800126167914,0.9999875705837351,-0.0025393906144123173,-0.0012713859868805559,-0.00409801793788876,0.5909999999998945,1.0,0.0032701218445503,0.0025284034286566,0.9802800178924508,0.0157749809455575,-0.020412731578729,-0.0032603147643454,0.9999759988941587,0.0039159379217783815,-0.004244940316313988,-0.0038272114565916023,0.5909999999998945,2.0,0.0025751108864477,0.004512347049694,0.9797535442793897,0.0143106284672634,-0.0114310805132487,0.0048158967211146,0.9999849576356399,0.004032754752159271,-0.0036665755469587513,0.0006145041211881166,0.5919999999998709,3.0,6.157316110193743e-17,9.517199076679981e-17,0.9797356786399072,0.003838743239054,0.0090075302458066,0.0037299554027661,0.9999991791976611,0.00030634866698402353,0.001237721344086199,0.0001256995332603063,0.5919999999998709,4.0,-0.0003272602292928,-0.0009288837675264,0.9800862360403236,0.0110906060301704,0.004668137963936,-0.0026568269791013,0.9999938463485671,0.0008718738498375387,0.0008871605621960211,-0.0032802510765517906,0.593,5.0,0.0030092170151434,0.0035831675522538,0.9782351994910264,0.0390137995445169,0.0083950063733975,0.0099047692880285,0.9999774716736759,0.006413626467301577,0.0013309001797110046,0.0014663714987191987,0.5249999999998636,6.0,2.0296773538241494e-17,-4.102990084597637e-17,0.9798382519579444,0.0054820523765499,0.0008471546309614,0.0008345119747319,0.9999994252303143,0.00025731245895051815,4.535297735545803e-05,0.001039842510700186,0.5259999999998399,7.0,0.0017320968046807,0.0017072347563901,0.980168396343274,0.0103929982751365,-0.0166347530229864,0.0051274616756692,0.9999850503850943,0.004306738941799392,-0.0033674512703640736,-0.00010619768980596151,0.5259999999998399,8.0,-0.0002229019281476,0.0034886177629271,0.9803901161582744,0.0066070338736357,0.0095158382420415,-0.0102311732729275,0.999994390069231,0.00305340121417162,0.001016472344532427,-0.0009291690184180711
9,0.6429999999998017,0.0,0.0011410761236989,-0.0010913762509832,0.979722668331788,-0.0075216260778162,-0.0050512827902199,-0.0074990968552144,0.9999852452457689,-0.002718023193463029,-0.0014542920479424825,-0.004472882216009452,0.6429999999998017,1.0,0.0043291862799873,0.0037594310531122,0.9796775616621574,0.016054556577021,-0.0147112643980727,-0.0056038776347478,0.9999699457423507,0.004516445764881984,-0.004779475749818853,-0.0041068164373468784,0.6429999999998017,2.0,0.0038535994880885,0.0051107741195469,0.979839287719616,0.0126872729845773,-0.0083936856330123,-0.0043908179412766,0.9999820177695271,0.004525808275049194,-0.003914693774241004,0.0003954360844271534,0.6440000000000055,3.0,-0.0008309169319935,0.0004526457140501,0.9800592352959638,0.0057893084455703,0.0091476965043347,0.0020700201442421,0.9999984986902988,0.000588336812608753,0.0016137028621972104,0.00022899785123915684,0.6440000000000055,4.0,-0.0012106941921056,-0.0006932490951727,0.9804912307742816,0.0047061440209992,0.0076125279521021,0.0006651860068303,0.9999934734600452,0.0009861209943416958,0.0012401185932471167,-0.0032469537374395577,0.6609999999998308,5.0,0.0032872956056236,0.0038088257264928,0.9791688753908524,0.0238867849183343,0.0086185873552963,-0.0069540866023491,0.9999726629448863,0.007160230484324554,0.0014654021291812072,0.0011211863913496438,0.6609999999998308,6.0,2.0296773538241494e-17,-4.102990084597637e-17,0.9798382519579444,-0.0009077087623599,0.004197844000643,0.0032345577266078,0.999999229343371,0.00018598488728480668,0.00025063244477759744,0.0012016262578143067,0.6609999999998308,7.0,0.0026448402276891,0.002001188025724,0.9798846871273454,0.0192870502771015,-0.0104556501492671,0.0130754102250738,0.9999808315882401,0.004940246022830591,-0.003691781133568514,0.0005487963079231188,0.6609999999998308,8.0,-0.0002229019281476,0.0034886177629271,0.9803901161582744,0.0115994269653987,0.0074042597799496,0.0088571929335356,0.999992895997202,0.0035067519506089334,0.0012941464783733985,-0.000485624112393578
10,0.6949999999999363,0.0,0.0011410761236989,-0.0010913762509832,0.979722668331788,-0.0082750579921765,0.0017748236524693,-0.008384191798103,0.9999829647435938,-0.0029149197562297335,-0.001277479985413141,-0.004893006265472974,0.6949999999999363,1.0,0.0044242364743506,0.004677884597478,0.9800614998699376,0.0089781363033017,-0.0027951196033656,-0.0096283899343241,0.999967290892164,0.00475314333391235,-0.0046675257802156,-0.004586826498179487,0.6959999999999127,2.0,0.0032562215114025,0.0063305669186552,0.9802332992425616,0.009674385625275,-0.0002608005098367,-0.0040152663621071,0.9999812210795563,0.004880699975555517,-0.0037010594007939254,0.00019599821469009815,0.6959999999999127,3.0,-0.0008309169319935,0.0004526457140501,0.9800592352959638,0.0061793091752894,0.0053083535324559,-0.014752367313682,0.9999979501266716,0.0008602998361894303,0.00176085122556521,-0.0005089495142254108,0.6959999999999127,4.0,-0.0012106941921056,-0.0006932490951727,0.9804912307742816,0.0069366968145488,0.0091418178287783,-0.0117351203721062,0.9999905950569274,0.0011999459583131014,0.0016346249502579514,-0.003833787769455976,0.6899999999998272,5.0,0.0035976669357301,0.0050037519799704,0.979858673104822,0.0140289224657972,0.0070657885545162,0.0034605694872908,0.9999706625899596,0.007401045173338765,0.0014883667778847606,0.0012974028187046642,0.6899999999998272,6.0,2.0296773538241494e-17,-4.102990084597637e-17,0.9798382519579444,-0.0002997351038641,0.0006350820002958,-0.0013038692966996,0.9999993095388957,0.00015234515736640332,0.00025731520157330637,0.001136442507200658,0.6899999999998272,7.0,0.0035575836506974,0.0022951412950579,0.9796009779114166,0.0174848089605202,-0.0100252195485954,-0.0002741224691303,0.999977050586762,0.0054380221808269045,-0.004004820817465766,0.0005363066110838816,0.6909999999998035,8.0,-0.0002229019281476,0.0034886177629271,0.9803901161582744,0.0022410396721557,0.0010994619580259,0.0088710913210952,0.9999933036741803,0.003446653932427665,0.0012294036537699737,-4.1834496681909685e-05
11,0.7699999999999818,0.0,0.0030296198125708,-0.0006380001451912,0.9792453289955516,-0.0147460630569427,-0.0012114140755369,-0.0097652389756834,0.9999788270819215,-0.0033937233156560937,-0.0013628807265240624,-0.005382433097259217,0.7699999999999818,1.0,0.0044242364743506,0.004677884597478,0.9800614998699376,-0.0009067924516863,-0.0016147345771357,0.0040872449330653,0.9999702431302978,0.004468780401126157,-0.0045090167114217984,-0.004383106655756579,0.7709999999999582,2.0,0.0041941548005659,0.0060198840540275,0.980079165201202,0.0053772261402747,8.656266850243517e-05,0.0189587629983299,0.9999807340867632,0.0049651240194149605,-0.0035451849796218696,0.0011448415741873584,0.7709999999999582,3.0,-0.0008309169319935,0.0004526457140501,0.9800592352959638,-0.0109035198164482,0.0011529860898325,-0.0161285209810031,0.9999976846980884,0.0002508185431910988,0.0016852738710679746,-0.0013143593498741843,0.7709999999999582,4.0,-0.0012106941921056,-0.0006932490951727,0.9804912307742816,-0.0032528548006231,-0.007375382468364,0.0023669654108144,0.9999920301497736,0.0008809745723179957,0.0011647897396085025,-0.003715748322999444,0.737999999999829,5.0,0.0036299596753565,0.005973020059209,0.979614794918966,0.0223659427225703,0.0079454718773387,0.012354648031643,0.9999642794677912,0.008084722535340464,0.0015483823810310594,0.0019182184416777226,0.737999999999829,6.0,2.0296773538241494e-17,-4.102990084597637e-17,0.9798382519579444,-0.0007032940456879,-0.0009219665095714,0.0013947126493385,0.9999992501671482,0.00010201629915874507,0.00018543831588133897,0.0012061801055579956,0.737999999999829,7.0,0.0028940382027491,0.0041722869656715,0.9794111580762987,0.0302344250877612,-0.0034936898043172,-0.0023187305413506,0.9999702968329865,0.006619537022968565,-0.003925072412435798,0.00042542673588086825,0.737999999999829,8.0,-0.0002229019281476,0.0034886177629271,0.9803901161582744,-0.002089636303314,0.0009051723870086,0.0030116736735056,0.9999942759262564,0.0031756145200190285,0.001162609066878053,0.00010921217858744127
12,0.8309999999999036,0.0,0.0040418968978074,-0.004992107477909,0.9791147746471792,-0.0373410199872915,-0.0148522431146586,-0.0294819215349066,0.9999607201133609,-0.005179341718395597,-0.002171783512118914,-0.006856821866504589,0.8309999999999036,1.0,0.0044242364743506,0.004677884597478,0.9800614998699376,-0.008644943712781,0.010908413224604,-0.0294098427376084,0.9999685476561304,0.003836343209234394,-0.003731924659545104,-0.005853110933995392,0.8309999999999036,2.0,0.0029156661989251,0.0054214569841747,0.9799934217609756,-0.0144046249560316,0.0028121373283422,-0.0083971765334794,0.9999865198766651,0.004026489101918357,-0.0031976363991116394,0.0007228913661778868,0.8309999999999036,3.0,-0.0004808124115527,-0.0008767854640871,0.9797275131722464,-0.0364512186625906,-0.0059210206434167,-0.0178985485329127,0.9999954390210897,-0.001643427603439212,0.0012462149974937428,-0.002206361464128281,0.8309999999999036,4.0,-0.0006545204585857,-0.001857767535053,0.9799128126026088,-0.0335952564569577,0.0014976817267239,-0.0633805109158019,0.9999751554466701,-0.0009849268211268643,0.0011600556356616014,-0.0068827813772788776,0.8409999999998945,5.0,0.0017745144501839,0.0081074927274867,0.9796515297084673,0.0329290481721692,0.0225535693447573,-0.008341805064856,0.9999523274453695,0.00933378053085802,0.002438455343881705,0.001509076911947255,0.8409999999998945,6.0,2.0296773538241494e-17,-4.102990084597637e-17,0.9798382519579444,-0.0093733579008668,-0.0172734811836136,-0.1077457380805965,0.9999909436987974,-0.00037680769190600515,-0.0006993696434962895,-0.004181078623225951,0.8409999999998945,7.0,0.0034750089017834,0.0054048130703122,0.9790325389428112,0.0436743062112612,-0.0122082161110031,0.0245084011597963,0.9999538684900424,0.008412747485422185,-0.0043296791246528465,0.0016554305250524005,0.8409999999998945,8.0,-0.0001484954507443,0.0022141654393397,0.9797816468073426,-0.0299128812618461,-0.0058051724143057,0.0979950361008085,0.9999860680362845,0.0014811098022089561,0.0007562497285617199,0.005009803731972536
13,0.9099999999998544,0.0,0.0026594917515538,-0.0076225372500599,0.9795268368092296,-0.0891215838501166,-0.0195852984487938,-0.0699175160436312,0.9998964703849412,-0.009506078653973172,-0.003069496524623317,-0.010356696937063052,0.9099999999998544,1.0,0.0042651122650371,0.0024527510271764,0.9802146667081478,-0.0561376110990216,-0.0006372739896742,-0.0527656299081011,0.999957113068094,0.0007794194220970363,-0.0035903667352603415,-0.008501399684405329,0.9109999999998308,2.0,0.0032380878282364,0.0030150740086668,0.9803180219275472,-0.0500989968675745,0.0260721777677913,-0.0822543472972261,0.9999919138338672,0.001284965693541231,-0.0017358003529634133,-0.0033923630673055546,0.9109999999998308,3.0,0.0011810214524344,-0.0017820768921871,0.9790803998601336,-0.1032247601377221,-0.0643056627531004,-0.0979899793995216,0.9999497263509713,-0.0067443566195171,-0.002175327775752853,-0.007094108363571068,0.9109999999998308,4.0,0.0025680916235523,-0.0061584511756927,0.9795680060029164,-0.0984431108777497,-0.0651412554566512,0.0063162402549001,0.9999569511703095,-0.006145640169448326,-0.0023059877243496525,-0.0065581501738184705,0.90099999999984,5.0,-0.0002264470292299,0.0185453946330516,0.9798668363913776,0.2228208443691198,0.030481764975395,-0.0189594897796574,0.999783013208517,0.0204799999833599,0.0037674323518740267,0.0005500489558304242,0.90099999999984,6.0,0.0022030035577778,-0.0003640290952015,0.9799576594211312,-0.0422380133132488,-0.0537090128061513,-0.1591491819849936,0.9999173548595665,-0.002475546433714298,-0.0034378255769559264,-0.012138223749992747,0.90099999999984,7.0,0.0058504942978867,0.0127543293067346,0.980190848151729,0.2150407422142707,-0.0222298578729083,0.1538844101397999,0.9997618069491351,0.01893983823082848,-0.005432854628542758,0.009385946099117559,0.90099999999984,8.0,0.0002225844240855,-0.0031538785550922,0.9795662323223652,-0.1133990510722401,-0.0052419084639697,0.0851719917324595,0.9999468430224923,-0.004493068237014048,0.00039708794635586603,0.009271773742487019
14,0.9809999999999944,0.0,0.0032336355349726,-0.0143803863020324,0.9795696749547892,-0.233376260582073,-0.0376291095871642,-0.0866591972582135,0.9996607642833648,-0.020961458163087542,-0.00477056746586902,-0.014704261631579008,0.9809999999999944,1.0,0.0066776607041935,-0.0053680604325345,0.9800941754620892,-0.1516288782466358,-0.0391585520782137,-0.0278921407296732,0.9999101034927962,-0.007167658244526947,-0.005472804458347682,-0.0099226014570806,0.9809999999999944,2.0,0.0037810647554239,-0.0081511975204068,0.9801781784595588,-0.1505641957576515,-0.0049062835781433,-0.0717823729976139,0.9999505477294632,-0.006782427257175139,-0.0019977086651665346,-0.006993563908069241,0.9809999999999944,3.0,0.0054333590453234,-0.0098215888552018,0.9796131966249962,-0.2251343890280015,-0.0919360289866221,-0.2337777784328536,0.9996405365180827,-0.01783210813620637,-0.0069549697060794875,-0.018773440431788118,0.9809999999999944,4.0,0.0062646671743242,-0.0170752004148443,0.979168111958303,-0.193264653127972,-0.0712982654064599,-0.1460879157971897,0.999756710724048,-0.01607182206793585,-0.006007385147662266,-0.013860996404879321,0.977999999999838,5.0,-0.0022760465440061,0.0401945300136196,0.9795290804101292,0.4107073718083739,0.0567115698560386,-0.0064851617163404,0.999139142445172,0.040992893807939794,0.006364901269088428,0.0002114781601110466,0.977999999999838,6.0,0.0052692171398876,-0.0037693521454044,0.980003585368511,-0.0503635040413398,-0.0397087860667215,-0.1784972129790941,0.9997515882423396,-0.004934416121291585,-0.005358800472077222,-0.02106410695856896,0.977999999999838,7.0,0.0091401968453164,0.0318979130782011,0.9788866021878552,0.3361931525803422,-0.0743099177609575,0.1587247467860746,0.9991784600403348,0.03546319197795333,-0.009176162921670276,0.017336811707889845,0.977999999999838,8.0,0.0007421597496598,-0.0107360879888641,0.9790761898920848,-0.0331179849988914,-0.0040419496111599,0.0153160230907497,0.9999301038193865,-0.0062452340529944046,0.0001017458573573159,0.01003863412793753
15,1.0279999999997926,0.0,0.0043373983585184,-0.0329359547329911,0.9788822247141408,-0.4376232375429089,-0.1018161105769506,-0.0964589713141303,0.9988631936955619,-0.042453134783687875,-0.009457232655964709,-0.019509289526574096,1.0279999999997926,1.0,0.0096719009508464,-0.0186332449786945,0.9798307285003676,-0.3066508141098158,-0.1055686751310806,0.041613122128326,0.9996540628622518,-0.022796362111351914,-0.010485821335952635,-0.00788213349238082,1.0289999999999964,2.0,0.0067316872725215,-0.0208811473359257,0.9783775662148024,-0.2834511179888319,-0.0782097629481979,-0.0600547594522775,0.9997037724417329,-0.021362298795552206,-0.006008527488996698,-0.00999585680926963,1.0289999999999964,3.0,0.0126964156990966,-0.027491828827996,0.9797162856542132,-0.4102151247364947,-0.1549962830775699,-0.3479126679573776,0.9985141540609959,-0.03796166073157287,-0.014891943557745688,-0.03614728857642931,1.0289999999999964,4.0,0.0144106854595197,-0.0340286453831613,0.9796404357916092,-0.3417940783707292,-0.1621286613809977,-0.1341001458148875,0.9991317844117744,-0.03335408028910584,-0.014202541593618553,-0.020529747160959233,1.056999999999789,5.0,-0.0014133072625179,0.0625190287087255,0.9781607095012042,0.4250699387217198,0.049078882351221,0.2692351912548508,0.9979941889697942,0.0613696094923868,0.007427263556263773,0.013645716153449063,1.056999999999789,6.0,0.0077595796888457,-0.0050453193887799,0.9804158983183194,-0.000818719161305,-0.0197944606479625,-0.0715508964017201,0.999665860447673,-0.004749138576401351,-0.0062186264328141,-0.02463618930525932,1.0579999999999927,7.0,0.016308440474996,0.0504077217518866,0.9788294521299704,0.3344935055761641,-0.1218632255954128,0.0732272132968971,0.9983525257796358,0.05126790462951092,-0.015025695161476673,0.020929995442792622,1.0579999999999927,8.0,-0.000181002861716,-0.0117457219371408,0.9794345334192271,0.0877343176939427,0.0630684532596818,0.0111500705119684,0.9999369155442414,-0.001865425343494545,0.0032930900838857675,0.010575475301664437
16,1.0859999999997854,0.0,0.0089161257395916,-0.062150103442848,0.9776297189344436,-0.660975839506549,-0.1739197824230254,-0.1294029456344952,0.9967395022341768,-0.07441786619576106,-0.017405031365444166,-0.02587297354389322,1.0859999999997854,1.0,0.0185193263318362,-0.0459207983382508,0.9778027995624642,-0.5140504113552693,-0.1775790044143722,0.08929598298214,0.9986329776268754,-0.04864545743266926,-0.018807966028455882,-0.0034721579917335855,1.0859999999997854,2.0,0.0172444393004671,-0.0499134921922584,0.9775997507213194,-0.4754467881866308,-0.1385915040881729,-0.1589005408180403,0.9987129975203386,-0.04554020399409439,-0.013305785673334692,-0.0179274781196883,1.0859999999997854,3.0,0.0248328439803947,-0.0546589478931733,0.9778045455381444,-0.5939368655874048,-0.2606371728847463,-0.4799015702974252,0.9955768516492209,-0.0666526938020598,-0.0280592993104703,-0.05997354909757627,1.086999999999989,4.0,0.0275864720366641,-0.065106648085948,0.977079889740641,-0.5039215314949846,-0.2377334610357402,-0.0210048149849565,0.9977158859972041,-0.058726684958271075,-0.025521301302467294,-0.02151396017600615,1.1259999999999764,5.0,-0.0026517990570561,0.0877216099771088,0.9756515192960984,0.357007162088844,0.0818340856252524,0.2114908226390933,0.996639949925558,0.0775171556519619,0.010382831998579528,0.024333055535629526,1.1259999999999764,6.0,0.0100583285563818,-0.0023995795129732,0.9795698403099252,0.0649490465969398,-0.052873387868316,0.2483578886490679,0.9998860562003214,-0.0013040956624868194,-0.008813569941431275,-0.012185849808615461,1.1259999999999764,7.0,0.0287039466676653,0.0685101511016283,0.9775435758275596,0.320913714089273,-0.1714392548526518,-0.0716572877329498,0.9974159188974848,0.06590036956665381,-0.022890494302358646,0.017165409737559804,1.1259999999999764,8.0,-0.0034697485173555,-0.0075271535560338,0.9800572956743756,0.0834382641188057,0.1341234589551231,0.0390651601100095,0.9998709486444817,0.0020422220948769884,0.00988208034216574,0.012500394946186036
17,1.1609999999998308,0.0,0.0179983638177987,-0.1035732836239863,0.9742189865832156,-1.1133800812101735,-0.3150944201374004,-0.1293990292851904,0.990806415540852,-0.1276431311477982,-0.03142230375243708,-0.03197681692670644,1.1609999999998308,1.0,0.0319593813816826,-0.0793435608717471,0.9762915534254568,-0.7163509078098392,-0.3248653747053522,0.1335021727731547,0.9959079589253171,-0.08365732781988318,-0.034026085075637785,0.0033187928032883617,1.1609999999998308,2.0,0.0324287240910635,-0.0838147442817184,0.9761359877060244,-0.6802986605827706,-0.304994308438939,-0.0792463715559085,0.9962047542680463,-0.07937041252720183,-0.02844141211548562,-0.021622008830823398,1.1609999999998308,3.0,0.0454648832527668,-0.0978706719542015,0.973796321600182,-0.909857711915196,-0.3688300782825465,-0.7185636699277688,0.9882258605601106,-0.11006809328621875,-0.046683842830036244,-0.09547398692411246,1.1609999999998308,4.0,0.0439848706959465,-0.1004853344293743,0.9741745370899804,-0.7028788634586671,-0.3265508493366424,0.0250415112234089,0.994608665479432,-0.09333242761609495,-0.04045522341330061,-0.020150320272625942,1.1699999999998454,5.0,-0.0080243782948156,0.0999406364573737,0.9742984545494656,0.2052030503732886,0.0980556667887446,0.153522053963947,0.9957513231114388,0.08504043083880845,0.014358789695550274,0.03226844903381579,1.1699999999998454,6.0,0.0122613321141597,-0.0027636086081748,0.9796892477731124,-0.0089724717781903,-0.0154674422275328,-0.0614012001728615,0.9998385310632665,-0.001753244581797958,-0.00932932126707673,-0.015257840587102245,1.1709999999998215,7.0,0.0315168838498187,0.087292224108264,0.9743309261450288,0.2516506250013793,7.61057791796502e-05,-0.1782989435015249,0.9968032432252663,0.07654546039940256,-0.02123327707602897,0.008557729397858647,1.1709999999998215,8.0,-0.0140359286634402,0.0002955606682479,0.9804585179141676,0.1737936549545244,0.1444523501459395,-0.1218236433873966,0.9997814945642306,0.010381307141898152,0.017001891415696805,0.00633460947712463
18,1.2210000000000036,0.0,0.0412658211203666,-0.1873548903758862,0.9615592946144826,-1.6320753899682874,-0.4474643381190875,-0.2231571437060171,0.9766422160665528,-0.20424754202409628,-0.051530344767998,-0.04239748744700878,1.2210000000000036,1.0,0.0582620429861273,-0.1365784468741384,0.9686536337600408,-0.9777961128033832,-0.4804374989080583,-0.1283131859644367,0.9897579147375685,-0.1302541402611954,-0.05835686197392816,-0.002757865064328192,1.22199999999998,2.0,0.0534011896688157,-0.1393054426083903,0.969069299174025,-0.9358482231673492,-0.3127695906997883,-0.2734129515808651,0.9905614238213897,-0.12481972899042819,-0.044325622009747316,-0.035261028418727636,1.22199999999998,3.0,0.0739719490188441,-0.160175584187214,0.9641814834296696,-1.2818834359823743,-0.4583127528278076,-0.8809672606728731,0.9732718390863703,-0.1698070621471126,-0.06856584336747448,-0.1385864856676447,1.22199999999998,4.0,0.0765365651838399,-0.1699994955149986,0.9621675143728904,-1.0674329363539563,-0.4931957498244477,-0.1616807945231484,0.9868595834234044,-0.14547593452773774,-0.06452719993535898,-0.027949160044055104,1.2459999999998672,5.0,-0.0138205523772966,0.1202374340006868,0.972190285796416,0.5052040365862225,0.1711972589597218,0.309319631387269,0.9927956166401969,0.1076589983839688,0.02147271549350743,0.0480138119326822,1.2459999999998672,6.0,0.0094789553089507,0.0105874598864906,0.9796035193380036,0.3249871140263029,0.0865485831365052,0.2783563230568662,0.9998721005242343,0.015138870431122789,-0.005017551985271637,-0.0011922111390761062,1.2459999999998672,7.0,0.0347225379200164,0.0980453653892746,0.9746370871694122,0.3439261775405419,-0.0260148447362946,-0.1391583872302355,0.9956025955066108,0.09119157529486574,-0.021352178802533383,0.0019112498855773112,1.2459999999998672,8.0,-0.0262664786583742,0.0168405113096124,0.9788219803813766,0.3097903737606497,0.2444152466253661,-0.1780322863677958,0.9992466657051533,0.025441430865966307,0.02918074729156641,-0.0027053022255767068
19,1.3259999999997945,0.0,0.0795305486583524,-0.3092213285857503,0.9259730351245464,-2.136838303634732,-0.6040831210607056,-0.2343668035116679,0.9489832059140023,-0.30117663610194423,-0.07727885360985091,-0.05245462366890766,1.3259999999997945,1.0,0.0961183156183048,-0.2178338051063955,0.9505023423198752,-1.453282440146531,-0.6163583368270675,0.0672550860669956,0.9761093613256274,-0.19932047135798378,-0.08649689214845255,0.00038997277621224854,1.3259999999997945,2.0,0.0860531942004743,-0.2068391352117572,0.953543611961586,-1.1792680138534632,-0.6878803164630337,0.2889085517957624,0.9803138400694873,-0.18252257524413928,-0.07285051730389687,-0.01905483201231447,1.3259999999997945,3.0,0.1187943680269421,-0.2483998753959884,0.9400065957366136,-1.5517365760678845,-0.4934876682874369,-1.1137230334630834,0.9474463047431287,-0.23885718131837624,-0.09173449928123971,-0.1920352264634051,1.3259999999997945,4.0,0.1139148471137116,-0.2375908508261099,0.9422860474456708,-1.3481030161926515,-0.5736589663965671,-0.4469861235394846,0.97233057000329,-0.20789082815970805,-0.09410055229139032,-0.04999752256465432,1.306,5.0,-0.402714617609524,0.0129346511170157,0.9575780028614356,6.556968664106145,4.199774138857909,1.4582411678378049,0.8931078987016124,0.3767662185896042,0.21175589380356163,0.12475952567213329,1.307,6.0,-0.0956244831102968,-0.0320940195146219,1.0215267652593758,-15.802241509468988,-2.5168662271250883,19.3769361020407,0.47328997899796765,-0.3706672562469075,0.30004820097718465,0.7406574498490162,1.307,7.0,-0.0078191032615016,0.2942608539739629,0.9564796973499752,8.23924800849687,-3.8439589217659766,-43.04114498644723,0.3251443901156821,0.18251870620773103,0.3242383586235901,-0.8693891730736225,1.307,8.0,0.0211958381650565,-0.0246907985472647,1.0371012973242195,2.461232285219612,-4.026110943171919,-37.85870737057267,0.4628751707921215,0.04115042202264903,-0.003710340531762417,-0.885460023041504
20,1.4149999999999636,0.0,0.1236772774732139,-0.4418425121584259,0.86573444282086,-2.216577153404275,-0.6429798228081262,-0.2211523288937057,0.9107485519789805,-0.39538943985238045,-0.1024316479642225,-0.06092637701968443,1.41599999999994,1.0,0.1406215645029798,-0.3172584275570293,0.9168689468734208,-1.6254414272138278,-0.7067769304422774,-0.1284115621396809,0.954625851627295,-0.27231121994288227,-0.12042047229952407,-0.005915466950335495,1.41599999999994,2.0,0.1166800520636339,-0.2887739170157314,0.9287709030228172,-1.1820152327993452,-0.6354571467804805,0.5990794158871325,0.9664493480539602,-0.23888997994224762,-0.09361201841813765,0.012001047327220743,1.41599999999994,3.0,0.1573949797478855,-0.3229078012362019,0.91157137529157,-1.441944738131833,-0.4489302656390101,-0.6071326328773676,0.9221376100027585,-0.3006848271599719,-0.1032518478969741,-0.22043121112954578,1.41599999999994,4.0,0.1513011444074089,-0.3096762885189472,0.917629315154076,-0.976189780090116,-0.5144349818394057,-0.0067449789873539,0.9598544198348831,-0.2514944345904644,-0.1139882206994942,-0.049363221483470256,1.3669999999999618,5.0,-0.0311277459979056,0.1455555900471397,0.9680127239014572,0.274458740481037,0.2709465447467546,-0.3982753768347497,0.9017895272680319,0.35684692732268125,0.2167461196919896,0.1116111041452697,1.3679999999999382,6.0,0.0040052917432203,0.0514625289499457,0.9790860869975262,0.7967496862222114,0.1031392362699114,-0.1179225091910258,0.5009146100539589,-0.3266193451859662,0.3078728100074313,0.7400126280293527,1.3679999999999382,7.0,0.0466319371833055,0.1252960546823636,0.9706916921018568,0.5115889767479124,-0.2870360587037022,0.1414853111657253,0.3378869825910926,0.16668368605844033,0.2633232166992929,-0.8880933618401814,1.3679999999999382,8.0,-0.0460717715493041,0.0417526778806664,0.978455469480396,0.7256364922526387,0.3886857207152618,-0.5208600704284546,0.4387519795470243,0.07337418823666836,-0.025826305026653985,-0.8952351260494908
21,1.477999999999838,0.0,0.1602194487426536,-0.5497262305873796,0.7947149172179866,-2.5305772169885183,-0.7038098537714326,-0.1778869939963734,0.8573512094910747,-0.4946732055235406,-0.12561121682291945,-0.06685166811323405,1.477999999999838,1.0,0.1892549220214401,-0.4149117289689752,0.8675573938677685,-1.675141427527714,-0.7580415478907778,-0.3744158021900965,0.9259372060290004,-0.3418161387715229,-0.1588896346721711,-0.023581809944939722,1.4789999999998145,2.0,0.1419849607093178,-0.3620460074014763,0.8995670955837725,-1.05156811588162,-0.6355732063999407,0.855243539980516,0.9499225917557769,-0.2869897880332692,-0.11027945918988878,0.05587818999746091,1.4789999999998145,3.0,0.2014402623951929,-0.4298014863893047,0.8558869685792045,-1.7844544982215411,-0.6349266161553411,0.1182546215258792,0.8934970672672563,-0.38188543849126505,-0.1045304626418798,-0.2118959297226373,1.4789999999998145,4.0,0.1804769833077202,-0.3485323329289208,0.8977050024363621,-0.8528589212486478,0.151329488559704,-1.3830199905011062,0.9455909825205995,-0.27644983787010935,-0.1206398462664241,-0.1219803607558667,1.4729999999999563,5.0,-0.0560823718447441,0.1472964890243112,0.967527008351384,0.1938980407919232,0.1739174353557209,-0.8439549100248426,0.9138276911811718,0.3301910811486726,0.22383687754417822,0.07609108365394958,1.4729999999999563,6.0,-0.0152624903261398,0.1165336185138342,0.971839993077624,0.6737726850923736,0.1114902625232699,-2.3547448437781746,0.6060287483677461,-0.3187239533785015,0.2750883002693741,0.674885638274744,1.4729999999999563,7.0,0.0669118351873941,0.1584827505571278,0.9645786769816664,0.3971334965364309,-0.2339546744884682,0.0091231662565664,0.3436065105629406,0.1491436372852409,0.2111655233408504,-0.9028288116294656,1.4729999999999563,8.0,-0.0718346006564649,0.1063867810390898,0.9714049840147346,0.6129889467431061,0.1366341018769925,-0.5680520453872939,0.41163859838601385,0.09125266527140588,-0.048530439544933364,-0.9054675100947788
22,1.505999999999858,0.0,0.2041571368071207,-0.6930435626525344,0.6606417211746475,-2.831409182436201,-0.7278463667704417,-0.088528363971876,0.7860383348359039,-0.5973598206076229,-0.1434455989770532,-0.0687629335190304,1.505999999999858,1.0,0.2572810784377108,-0.4969113603527598,0.8046487100780679,-1.459201597826681,-1.0235238706660093,-0.1337302914403875,0.8937487162776239,-0.39951977004189976,-0.20254252727382596,-0.023952247145068526,1.505999999999858,2.0,0.1613524084776737,-0.4287511064798722,0.8664109238523826,-1.236291108684523,-0.6662908618111694,0.5427000022974102,0.9275736767879673,-0.3385523145599662,-0.13402799764977144,0.08382064353209462,1.505999999999858,3.0,0.2270799774843408,-0.5163514753445059,0.801741752520887,-1.9358976272220565,-0.2163021971846151,-0.6470099142275069,0.8504725384012446,-0.4541828292028086,-0.10321457845016233,-0.24446097823176394,1.505999999999858,4.0,0.2064060583018881,-0.3761643501328303,0.8814521659088616,-1.0266768440357306,0.1489829341183865,-1.6905668534540703,0.92030555346843,-0.30493015534428836,-0.1291286796204682,-0.20828123467165546,1.4869999999998529,5.0,-0.0845575230819029,0.1544699267188981,0.9635637327285164,0.3905074639526265,0.2643289034780129,-1.1649429883097662,0.9194082951932331,0.3108958390836059,0.2397412801162329,0.023585643485031664,1.487999999999829,6.0,-0.0327930395801872,0.1230665792674134,0.9718236638518892,-0.0077501614849959,0.0206529047294766,-1.629893620625276,0.6690111203349312,-0.312741599189854,0.23016890447967023,0.6337500204457602,1.487999999999829,7.0,0.0848054325029575,0.1823295866379374,0.9587350835629334,0.5788337408000772,-0.3588225790275282,-0.2628367811728504,0.3359544042795828,0.126217014625621,0.1529159347652467,-0.9207717525853067,1.487999999999829,8.0,-0.082556127876257,0.1429399741165807,0.96584504427451,0.8110017099598551,0.1883343311059218,-0.7310061849129572,0.3759211569526562,0.11470512933863145,-0.07759862905842971,-0.916244765238545
23,1.5699999999999363,0.0,0.230915820820023,-0.8013576212377107,0.5127970812897171,-2.5009735343698805,-0.7209846154093212,0.1057428553570764,0.7151779354581567,-0.679373932937146,-0.15300453472303846,-0.05967572566387272,1.5699999999999363,1.0,0.2964742198540853,-0.5640670712334693,0.7446236472957382,-1.3204138782848869,-1.106032227264713,0.5552422617870086,0.8603092758903605,-0.4543200810354325,-0.2310067805649935,0.009852975081598015,1.5699999999999363,2.0,0.189574448940041,-0.5086051147729076,0.8163224641867437,-1.2257650078061495,-1.0783919595261855,0.9210623391825326,0.8964282129590495,-0.38699869754414873,-0.16837321383074766,0.13527353020632973,1.5699999999999363,3.0,0.2615063724843528,-0.5984309602204176,0.729910133509423,-1.4012566790245993,-0.2867759323763146,-0.3653831391747467,0.8177653520947158,-0.50335219798252,-0.10208797165749212,-0.25975842573905206,1.5699999999999363,4.0,0.252587934903515,-0.4236556767229587,0.8468572504983293,-0.9813189606026916,-0.5149432380725387,-0.5347791033440777,0.8979979548929283,-0.3450091734916657,-0.14659402495830304,-0.2303877927782636,1.515999999999849,5.0,-0.109942924380775,0.1803148377576963,0.9563096322128196,0.219897978055481,0.1140319464369792,-1.9330141687276747,0.9242327101601266,0.27677344088291905,0.2547524735773366,-0.0655098244397367,1.515999999999849,6.0,-0.0564526168460801,0.13549374758996,0.96885888880438,0.0992189289443244,0.0736521162346961,-1.7521637857990675,0.7325469150113217,-0.3013140390284851,0.19405710702840864,0.578728525652141,1.515999999999849,7.0,0.1230069525149208,0.2108338064689772,0.9490318201634724,0.2835318007517718,-0.2535760941825141,2.648783434398583,0.46403186487401016,0.13120677479736037,0.0889384890461171,-0.8715211734633972,1.515999999999849,8.0,-0.1058439200182822,0.2123533963358346,0.9507302980655444,0.92724782264849,0.6164319310262056,1.9737615126556416,0.46515112196104413,0.15493821259945154,-0.12187315564068957,-0.8630037763237478
24,1.6499999999998636,0.0,0.2450642126142631,-0.8693719858778435,0.3784770559314866,-2.045236596562533,-0.5360178775020528,0.0961659571797792,0.6545710274516378,-0.7375147057234693,-0.15738732953693374,-0.05327342080028623,1.6499999999998636,1.0,0.3045531416058444,-0.6384217466758815,0.678267688534053,-1.001082159240506,-0.8763739291695826,0.9609830342132192,0.83245419794713,-0.4965529550253726,-0.23849066155526233,0.059811165568846844,1.65099999999984,2.0,0.2046961175242506,-0.5784975589070908,0.7637545900412221,-0.9777856754908888,-0.5100164262799655,0.725026909031633,0.8717807632967983,-0.4231945046086422,-0.18036865872586494,0.16843948160728325,1.65099999999984,3.0,0.3053702896271844,-0.6379731559729067,0.678438087426538,-0.8584204595772892,-0.2781524320225618,-0.6593822928039191,0.7927156083422834,-0.5266795733630879,-0.11526335521649338,-0.28447310986600394,1.65099999999984,4.0,0.2901660719440213,-0.443447850350203,0.8242928209758722,-0.4430368943755082,-0.1856628596356772,-1.106191331880698,0.8788513220711599,-0.350515870583949,-0.16371233983117583,-0.2792082519367083,1.5949999999998,5.0,-0.1382205299505968,0.1726256278345646,0.954808607897362,0.0071095368781428,0.1908752300324798,-1.9420471615945056,0.9217587452979897,0.23541497698272967,0.26820010143839035,-0.15168819884003315,1.5949999999998,6.0,-0.074168868403782,0.1245385277879274,0.9692018025448146,-0.2144830952773284,0.0953086781684061,-2.129556997530213,0.7958825950408912,-0.30296614952626344,0.1467398190988384,0.5032393393237924,1.5949999999998,7.0,0.1414908620936222,0.2264033979462495,0.9435607226577394,0.3046698556938447,0.0934573572131014,-0.587674222616727,0.43946570213444114,0.12622101718357295,0.06049544675370859,-0.8872871307478183,1.5949999999998,8.0,-0.1061809049618298,0.2300076316675726,0.946581272155836,-0.1398119389124143,0.0433196702286265,0.3098071752479119,0.4805166718186076,0.14646135373243235,-0.11280673577008105,-0.8572790912719913
25,1.7009999999997945,0.0,0.2485584932662082,-0.9034090302830644,0.2845554417477297,-1.5319478320587747,-0.2861771226173595,0.0563373968133012,0.6119975772599816,-0.7733776515057771,-0.15656706644512156,-0.05322337159641647,1.7009999999997945,1.0,0.2983743883392521,-0.6899398980290427,0.628531352830431,-0.9098561562485672,-0.289789306735126,0.3702504979005878,0.8131004632248584,-0.5259548294748906,-0.23904947560307246,0.07137578209347732,1.7009999999997945,2.0,0.189002707169277,-0.6254115247227688,0.7303809974435439,-0.8151496366190016,-0.0734542937069491,0.8630412235994295,0.8513389421225658,-0.45483099340258915,-0.16897967462632837,0.19949095876561643,1.7009999999997945,3.0,0.3379925943209066,-0.6555477611910184,0.64463100994419,-0.7217428483736896,-0.1410388283438531,-0.4527330012614202,0.7740618979630478,-0.5430149166120039,-0.11768980010025441,-0.30349973543821196,1.7009999999997945,4.0,0.3400076089377957,-0.4376309045368537,0.8086408456531604,-0.5222101322096714,-0.2880311375790347,-1.0254075537706688,0.8559309312618272,-0.36107806953217303,-0.18148293311433716,-0.32259698324751446,1.6799999999998363,5.0,-0.1706519596371091,0.1594813495829846,0.951579007653702,0.4019429667768713,0.1549423869624782,-1.643260263470984,0.9083947412858303,0.21939921365837328,0.27174327020771216,-0.22986642675074456,1.6809999999998126,6.0,-0.1052864544483176,0.087727097919335,0.9704724204223186,-0.4102894071210485,0.0514393043636475,-2.31953983839462,0.8518771044463896,-0.3086562494004064,0.09449371835946108,0.4124410937536557,1.6809999999998126,7.0,0.1240877928923933,0.2279086447192229,0.9455272969710296,-0.2378302192050389,0.1251867131618886,-2.423155705887374,0.3373369534679375,0.10759319886874551,0.06982018389725979,-0.9326052891243509,1.6809999999998126,8.0,-0.1016801274325372,0.2502256366012718,0.9425843635838608,-0.0235629745851098,0.2798463905763484,1.2143329469987156,0.5352662862270793,0.1471305333186905,-0.11085971354538655,-0.8243498850043367
26,1.77599999999984,0.0,0.247983114103019,-0.9262043995917388,0.1977796382256665,-1.12012574619368,-0.2583565119127785,0.0623386680753006,0.584151281867222,-0.7950172188281431,-0.1554292109872694,-0.05056344560570236,1.77599999999984,1.0,0.3013136246508855,-0.722558091179659,0.5886262859153957,-0.9321967649203098,0.2028979273906101,-0.2064039087250039,0.8000686408050336,-0.5494285331376481,-0.23646734643215636,0.045843767798177344,1.77599999999984,2.0,0.1582786573083205,-0.6716890393803044,0.6950904265036594,-0.9688073708208444,0.8252715499911469,-0.588122680749323,0.8462963217901553,-0.48759659762460006,-0.1573293286420747,0.1458752071409038,1.77599999999984,3.0,0.3516205899756394,-0.6775685368501048,0.6146249576579133,-0.6315527987024672,0.0795204127055685,-0.3344039160160668,0.760345235518584,-0.5531358511223021,-0.10847945897683477,-0.3227197855841637,1.77599999999984,4.0,0.3544197166287733,-0.4606206004226449,0.7892561858681009,-0.1926616048069668,-0.2413072976513327,0.1967679320022789,0.8579063583333252,-0.3688027825912843,-0.17678439205030633,-0.31101200396701983,1.7709999999999582,5.0,-0.193047880594307,0.1964379146337067,0.9396779562660852,0.6534055612369373,0.3020185785407002,1.1437293465049612,0.9166128844027435,0.2589691951738452,0.24398622998453132,-0.18228136403875503,1.7709999999999582,6.0,-0.1043132871952044,0.034323593503597,0.973953607233697,-0.524409556266798,-0.1913214471837014,-0.3344287590384617,0.8589048335918139,-0.30134692612522584,0.06696797426034075,0.40864141661236786,1.7709999999999582,7.0,0.0852748309720777,0.2782436303831855,0.9362567411526972,0.6285974047303758,0.1857139207965641,-1.3262599001216264,0.274620598694539,0.11032136870857198,0.03031568811924408,-0.9547217822134242,1.7709999999999582,8.0,-0.0948813217134211,0.2399735781153055,0.9451672955601308,0.0131090991635086,-0.1177925398159892,-0.42230820790298,0.5176221089398162,0.14118990339592466,-0.1080953892151689,-0.8369278047395532
27,1.8389999999999416,0.0,0.2503455011607859,-0.9376312623776728,0.1376144827429394,-0.7014112169559544,-0.1576803230351703,0.0368343333070679,0.5730801312612015,-0.8034277979692491,-0.1537393407423701,-0.049468694262421294,1.8389999999999416,1.0,0.3106514443242781,-0.7438608761612665,0.5565327277490811,-0.6145191662084482,0.3550657326968315,-0.5213260060652938,0.7972824442827556,-0.5561312883961739,-0.23453289583158493,0.007281131654980104,1.8389999999999416,2.0,0.1804499665535228,-0.6920579129573172,0.6699400381257974,-0.7486507079541517,1.065633131137697,-2.0757407426548404,0.8519009661430595,-0.4956228087563136,-0.16763752383865196,0.022813064815361037,1.8389999999999416,3.0,0.3649595277267689,-0.6993925386976032,0.5805106544548303,-0.6965214721291666,-0.0495522153294105,-0.1550776433774781,0.7460133438417982,-0.5693575269195814,-0.09776632652508375,-0.33126702635153354,1.839999999999918,4.0,0.3635571646621887,-0.4551247198132313,0.7887063315567576,0.0958497742308301,-0.0781757218547902,-0.0389117789707585,0.8628462129143174,-0.35835496727839916,-0.1752757554665595,-0.31041349814714064,1.8479999999999563,5.0,-0.208264415123935,0.2302522140108892,0.9285401721714408,0.6027177174043564,0.2957801163421495,0.9605043827751832,0.9201679813344402,0.2893859839263065,0.22269566353276393,-0.14125607908195195,1.8479999999999563,6.0,-0.1034489441200812,0.0309768200381162,0.9729279277422178,-0.2748520139909416,0.044923604128507,0.1753374674252478,0.8579308812657082,-0.28680574577839313,0.06483917954044323,0.4212991193388222,1.8479999999999563,7.0,0.073963112613517,0.3002162678151095,0.9296804023489396,0.4391620738333507,0.2051056926622716,0.241214235922638,0.2857181776651004,0.11734395503356432,-0.007799457304762022,-0.951070285328359,1.8479999999999563,8.0,-0.1018283053792195,0.2521050628327766,0.9419166807726034,-0.2802543089917004,0.2394745681187265,0.4032563695099749,0.538211474177931,0.13862965268098162,-0.09025475470383641,-0.8264165461279916
28,1.8959999999999584,0.0,0.2527965698518304,-0.9411733389398884,0.1062386009880121,-0.4361487614129302,-0.0706290121878684,-0.0610039050258679,0.5727643544811063,-0.8033158270372447,-0.15440709743778422,-0.05275532701204602,1.8959999999999584,1.0,0.3101476305568899,-0.7591712146798614,0.535981822510289,-0.2660656274046265,-0.0862493635871766,0.121725903012664,0.797846625354147,-0.5571547794952717,-0.22996950507968786,0.011547329993473734,1.8959999999999584,2.0,0.1751336935786483,-0.7069000847805978,0.6545307170108089,-0.1963065497378434,-0.1246537474079901,0.6419829770100809,0.8515538371227975,-0.49901952787656095,-0.15180555595840078,0.05282656963550797,1.8969999999999343,3.0,0.3787087175406422,-0.7146667284787849,0.5537401687291188,-0.620997872345389,0.0995018166754897,-0.4296499607958155,0.729395206654585,-0.5784403807567343,-0.09123444844352274,-0.3536461986739372,1.8969999999999343,4.0,0.3605796025444575,-0.4553466995636966,0.7897478923209165,0.0778765520133431,0.0094170492441266,0.242398873051668,0.8720379740617503,-0.3506197276913396,-0.16476349761537729,-0.299112968962358,1.9199999999998447,5.0,-0.2035436829085939,0.28520658976279,0.9138523788358188,0.8237517482994905,0.0868900452775384,0.7535553461000079,0.9186893895586681,0.32395329909705217,0.19521958817691762,-0.11381290747754631,1.9209999999998213,6.0,-0.097791844352279,0.0082008905512317,0.9749905130678688,-0.4881573771621553,-0.270989409130242,-0.4875393518120597,0.8679603549464225,-0.27875151920835756,0.03428285976609815,0.40959382112840864,1.9209999999998213,7.0,0.0728960349851025,0.3081320016538161,0.9273995027172828,0.0238832451310469,0.016330581813121,-0.0249732872185553,0.28654820998160413,0.10844379176192372,-0.023830197007877578,-0.9516103136763497,1.9209999999998213,8.0,-0.112056230565508,0.2409345848939807,0.9426976858958628,-0.1596452911417453,0.1152355444272129,-0.4275391689746347,0.5224416490851568,0.13896196968570831,-0.075906635943357,-0.8378439454349556
29,1.97199999999998,0.0,0.2569313058844439,-0.9412003894750968,0.0932423235898818,-0.0244694579628818,-0.0082180012204411,-0.0680526217110284,0.5889938808003297,-0.7912932642993438,-0.1544603760727348,-0.05552630437662178,1.97199999999998,1.0,0.3103533648991814,-0.7641231359656212,0.5295447308564409,-0.0461675298091954,0.084980727046399,-0.0668494625618215,0.8062789965040479,-0.5473666883831102,-0.22420814676839168,0.005881765688613823,1.97199999999998,2.0,0.1631974350069322,-0.7172520327777376,0.6481775363921226,-0.0737071685511759,0.1173732427445321,-0.0906255131425847,0.8572073236528592,-0.4917424363052274,-0.14582157777103535,0.04605483762719401,1.97199999999998,3.0,0.3818839985253641,-0.7231206404223546,0.5397241434894713,-0.0953589909209967,0.0026784124496873,-0.01614580083935,0.73456132603053,-0.5718784484721512,-0.08416944979583078,-0.3553733279164622,1.97199999999998,4.0,0.3465752259186139,-0.4566922329883772,0.7945507014077526,0.1181313058589065,0.0449335908636571,0.4039224515030738,0.8838899239045037,-0.3420806965946186,-0.1511976856151453,-0.28081784007084504,1.936999999999898,5.0,-0.1938614102340577,0.3445174646363828,0.8966339666678822,0.6871928289298044,0.0790420231248799,0.3650609623300523,0.915353116432898,0.3466906386669459,0.17757481986352605,-0.10198753182484241,1.936999999999898,6.0,-0.071820685474429,-0.0347645476943769,0.976202958078692,-0.4131019000614187,-0.2665335986312352,-0.5621974471224724,0.8796038812535258,-0.26898816909771817,0.005625395316110961,0.3923145828244573,1.936999999999898,7.0,0.0734770056841367,0.3093645277584568,0.927020883583795,-0.0141572026481159,-0.2015552865196899,-0.41555701687585,0.2685754305566183,0.08972663479566058,-0.03756223270130152,-0.9583347263790801,1.936999999999898,8.0,-0.1257139102270933,0.2090110489460924,0.9487272496317728,-0.491427933996068,0.1244337892583432,-0.6416965719302035,0.4998229146765961,0.13172839616022583,-0.046092698169497175,-0.8548100062497527
30,2.033999999999878,0.0,0.2615080897853871,-0.9376475546273692,0.1021546977779891,0.286428180685809,-0.0660599642076294,-0.0491006953615094,0.6157925188218772,-0.7704099967324124,-0.15639101161779564,-0.053008133177228835,2.033999999999878,1.0,0.3086307790316086,-0.7565107751441483,0.5404114074713283,0.222924617210046,0.1804762325401697,-0.086432024402112,0.8224866355368778,-0.5266448356928799,-0.2148509554338083,-0.00013546374500403538,2.033999999999878,2.0,0.1620919848980316,-0.7107554527455371,0.6543071716130755,0.2238424965259286,-0.0131139671142705,0.0229469497399277,0.8684657611997636,-0.47236377040498007,-0.1420948249148848,0.04948485389404204,2.033999999999878,3.0,0.3784296229062776,-0.723516274208379,0.5406784825223194,0.1463522358742179,-0.0305939934557236,0.139223640558461,0.7486632968481156,-0.5580088023617669,-0.07865576608179119,-0.34920297092290553,2.033999999999878,4.0,0.3288162681673823,-0.4562164561080856,0.8024496289267354,0.3657042705348811,0.0165714162012725,0.6049320125847744,0.9013230909734298,-0.32406492447653057,-0.14025275319288827,-0.2508540923005598,2.056999999999789,5.0,-0.1989770548514278,0.3797106010989006,0.8800124948293424,0.6332138745080594,0.2440584365000107,-0.3187980405624586,0.9070679778116233,0.36078171815110943,0.1821962771664762,-0.11776566589351334,2.056999999999789,6.0,-0.082458387278242,-0.0193779287819396,0.9765050487547892,0.3784352556001842,0.2667864783772749,-0.0954033326929438,0.8914555476901426,-0.23426571913053165,0.026447460505566317,0.38694587627409804,2.056999999999789,7.0,0.0756342652541276,0.309013861461818,0.9265483750694964,-0.1327129530601087,-0.1208360746394753,-0.1793599880425316,0.26183615996583565,0.07449352965650646,-0.04458856839022869,-0.9611994584593618,2.056999999999789,8.0,-0.1413323156308923,0.1895686018782965,0.9513836879725854,0.150778306460795,0.0708660149629573,-0.470757630567057,0.47917516066634075,0.13751710975599343,-0.04769817972853099,-0.8655663426770529
31,2.104999999999791,0.0,0.26169682199661,-0.9372220333139122,0.1200651224453229,0.3936643617082734,-0.1689664763004619,0.0353760272386561,0.6436447214465905,-0.7474261672139738,-0.1588525461401366,-0.04291230246171369,2.104999999999791,1.0,0.3052962914443911,-0.7471564283313286,0.5553237308394751,0.4403911173226623,-0.1271074403870613,0.1754920471378327,0.8392291864079853,-0.5005488981379428,-0.2119330283849346,0.015151393779874718,2.1059999999999945,2.0,0.1612251722469739,-0.6974413458532025,0.6676106746663112,0.4274348217147697,-0.1648138190664577,0.2586281914043388,0.8814990795386469,-0.44593293033393755,-0.1395654025931254,0.06800509403952734,2.1059999999999945,3.0,0.3779483609574577,-0.7198871093669645,0.5467280733754647,0.1960381267460488,-0.0302755288837151,-0.0205963441494708,0.7601219616445293,-0.5424224805953214,-0.07935050561089124,-0.34884947073169936,2.1059999999999945,4.0,0.3140929838410272,-0.4398643569633959,0.8176098977966317,0.5054090306989235,-0.0378183586981019,0.456501701951969,0.9169446175641858,-0.29899679948878016,-0.13738163355948446,-0.22569840268832855,2.086999999999989,5.0,-0.2281407466731408,0.4383258520124649,0.8466848570542458,1.0553701367642865,0.6273399805371083,0.1017657831234549,0.8885331494699862,0.4011653255444644,0.19318048859841835,-0.11070918073325164,2.086999999999989,6.0,-0.1030482287477458,-0.0212137671022324,0.9739189076290102,-0.1500994407049158,0.6300201782119614,0.7347043425540243,0.8778393502120436,-0.23276249799550217,0.061554822147767314,0.414041904420975,2.086999999999989,7.0,0.0774258324945605,0.2921306230621796,0.9324429953256268,-0.3706824489861883,-0.2092579154014452,-0.5216573742794562,0.23889612388604226,0.053965432737664486,-0.03870043946687137,-0.968771722361224,2.086999999999989,8.0,-0.1472748785849486,0.1749189548065878,0.9534020502323036,-0.5702428418628165,0.0152917133496288,-0.4640388292886949,0.46343817640932145,0.12336811321821659,-0.019195529099585374,-0.8772895171777484
32,2.199999999999818,0.0,0.2602503261760676,-0.9340955240367684,0.1424511133677969,0.4514309165418337,-0.286234461360019,0.0655208799013418,0.670118584811824,-0.7232407275293333,-0.16471447078089074,-0.02707536607342341,2.199999999999818,1.0,0.2970331701600006,-0.7314114440997567,0.5796098647060873,0.5900509707806938,-0.3259472562729599,0.3981757871240932,0.8551855625755699,-0.47050897687355336,-0.21246147043191305,0.046250187303591324,2.199999999999818,2.0,0.1533322197214945,-0.6802686448272884,0.68877195156316,0.595294450279698,-0.3216783072016676,0.5420573957765069,0.8938602921990029,-0.41386000919596266,-0.13801211304940073,0.1033746945333839,2.199999999999818,3.0,0.3718696275767437,-0.7121191220420597,0.5604287074267162,0.3940963503944305,-0.2318959419652562,0.3693031730193296,0.7820093224704653,-0.524486155624165,-0.08110749191158642,-0.3267985111405491,2.199999999999818,4.0,0.2989360243302233,-0.4262487969693169,0.8309471802947828,0.4528151015615327,-0.0084308034504885,0.5996245902941946,0.9316581187497202,-0.27769932270201647,-0.13083894851995695,-0.19436410545356853,2.189999999999827,5.0,-0.2644511343309519,0.4757223654910852,0.8141878336862073,0.476757235300817,0.6001325733922676,-0.0429065380221621,0.880123805714818,0.4125558714253505,0.21002675995351927,-0.10520693736613576,2.1909999999998035,6.0,-0.1329173574273337,-0.0496383740627523,0.9693497861530382,-0.0189919473018169,0.3469278920278936,0.8496922552063715,0.8618141008492763,-0.22088363524239357,0.08455783543090512,0.448705747374266,2.1909999999998035,7.0,0.0896488205478115,0.2589518246338793,0.940914470870318,-0.5816382574803652,-0.3548892964974418,-0.1670036372117913,0.2325755621098013,0.0238131326737569,-0.0245175934366771,-0.9719775873103483,2.1909999999998035,8.0,-0.1563417659695392,0.1068979093940632,0.9616439513565842,-0.8802149018317165,-0.0241059220689159,-0.9050433975951732,0.42970614711276384,0.10177266016766409,0.0244018864649598,-0.8968832146455035
33,2.2399999999997817,0.0,0.2642846437774304,-0.928858264092025,0.1675767056943973,0.5480118723158296,-0.3214119569105514,-0.015035933076457,0.6970904819414753,-0.6950770534389228,-0.17544873744493664,-0.01226744872597515,2.240999999999985,1.0,0.2855946854977061,-0.704086979485063,0.618655155102636,0.6419158724027945,-0.3374404129402903,0.1996287843081812,0.8706070313070821,-0.4355122241036192,-0.21808060209433103,0.06937831566968482,2.240999999999985,2.0,0.142159235758845,-0.6492371403885083,0.7204296546010676,0.6112242955152111,-0.1741302341513546,0.1785279210253945,0.9072314684523701,-0.3793100274631726,-0.13727298791915343,0.11921028690256186,2.240999999999985,3.0,0.3618557061653907,-0.7056235539672666,0.5750755150431551,0.4867674985126051,-0.3509363083035693,0.4701297213307934,0.8056266123548614,-0.5051800702515947,-0.0875108355761586,-0.2968176405522193,2.240999999999985,4.0,0.282682800946295,-0.4160129130690523,0.8413903316588314,0.3592449668585922,0.0380210551437795,0.4951886067453649,0.9426004586437913,-0.26029141559903957,-0.1231796746198139,-0.16905479020281913,2.2369999999998527,5.0,-0.2791105370432841,0.5197496558202832,0.7822081586036461,0.6909049382846194,0.4252027067368019,0.8023906761674539,0.8722266043184145,0.4419012176757385,0.19844436595237425,-0.06755662926484664,2.237999999999829,6.0,-0.175301698708741,0.1237551598610644,0.9567303563897154,1.63386270593772,0.4876302154129846,-0.0102419645752643,0.8784862098121341,-0.1370552071121163,0.14426707331673005,0.43435568481371445,2.237999999999829,7.0,0.1127298659075089,0.2189196793895985,0.9490195737224972,-0.7924763948329216,-0.3178479942633853,0.373606126414867,0.25182828129864226,-0.007214438809526959,0.00020623107418560777,-0.9677450212114654,2.237999999999829,8.0,-0.1593826097712724,0.0233925708609463,0.9668986354996132,-1.8029269620984305,0.0239658903420821,0.0069930271559817,0.4403345406849578,0.06110978918281491,0.10600355699114572,-0.8894573243562751
34,2.330999999999904,0.0,0.2704205784012979,-0.921682036205034,0.1902890824878021,0.5398524340163723,-0.4253263990921639,-0.0911701195938527,0.7197274596220363,-0.6669531216421893,-0.19275765563235855,0.0032254601014789536,2.33199999999988,1.0,0.2964947999184897,-0.6824695377887953,0.6371720047299967,0.645238077963199,-0.474169685131732,0.1253986135551166,0.882020378058493,-0.3998956879388433,-0.23171901443810902,0.09181388677811315,2.33199999999988,2.0,0.147965344136369,-0.6184634037008843,0.7456341430066914,0.6605046402575568,-0.3991419461497248,0.3159605582184336,0.916730064203179,-0.3428669148640253,-0.1446355722411679,0.14535755680435167,2.33199999999988,3.0,0.3541852497322312,-0.6981173515109899,0.5881453667176152,0.5169753442235958,-0.2926922461477847,0.4527385236903765,0.8277627440940679,-0.4837201822829546,-0.09328268308739479,-0.26855533094321643,2.33199999999988,4.0,0.2749125051371965,-0.4021389160944274,0.8509367818361071,0.4605420965824473,-0.166107192398163,0.4604224891726358,0.9518385741628111,-0.23985339422098992,-0.12762275995076658,-0.14207782782308476,2.3329999999998563,5.0,-0.2635294387566973,0.5608652617380441,0.7590621799853393,0.3365542563088007,0.0681283733055262,0.5164326938201406,0.8733860676609548,0.44962872894945877,0.18130152825487308,-0.04648159605129167,2.3329999999998563,6.0,-0.219940871494276,0.2133060170824686,0.931098574868822,0.9838930745825316,0.8666645734616545,1.1264365540644492,0.8535408589983318,-0.08825099916113385,0.2081437027388815,0.46942087957141354,2.3329999999998563,7.0,0.1249823523813894,0.1687116831024743,0.9575655484497888,-0.454601184307065,-0.0360006393585551,0.4644434373582733,0.2741536901856508,-0.018288457803780328,0.012057233204836454,-0.9614363783403421,2.3329999999998563,8.0,-0.1269042303492402,-0.233817485622773,0.9426058029401851,-3.6927301593469646,-0.332218428906829,-0.5892805850934895,0.43103702969814356,-0.041363725756295884,0.26777358601968226,-0.8606935737245397
35,2.4069999999999254,0.0,0.2822341307263335,-0.9137131219543226,0.2152678011724836,0.474721855941535,-0.4905870544371019,-0.0773760252787775,0.7368936865207805,-0.6415747235417653,-0.2120012548736289,0.02061642088550106,2.4079999999999018,1.0,0.3095440193895605,-0.6587782673251863,0.6554049851505409,0.5766641836640396,-0.6794259408862549,0.2697186012509654,0.886201861064186,-0.3688217154587294,-0.2516703583611539,0.12360758218985472,2.4079999999999018,2.0,0.1533415913569444,-0.5926557713817243,0.7652571417556672,0.5435217397423276,-0.55878643462455,0.3369299830395846,0.9202625299523391,-0.311992663921669,-0.1597058457091044,0.17398705834377548,2.4079999999999018,3.0,0.3478260731053508,-0.6856810589991739,0.6069575835244854,0.5501165133135548,-0.272315437110154,0.3102949507646884,0.8468284080338049,-0.46001343184656224,-0.10276262799390774,-0.24639223233589527,2.4079999999999018,4.0,0.2767294161398774,-0.385741212333353,0.8577053965963358,0.4646427077135491,-0.2840621248738062,0.5379960682186524,0.9592996862625304,-0.22107658149502257,-0.13717433790183645,-0.10978368764201016,2.385999999999968,5.0,-0.242208561814794,0.5738295987948139,0.7560050291701714,-0.1036889105769613,-0.2900951182827473,-0.021632343820379,0.8857789298692773,0.4313655725855573,0.16288726975923068,-0.052793631604158425,2.385999999999968,6.0,-0.2293280959553695,0.2563509900044166,0.9172779264373696,0.3010897477915552,0.5175348096332844,2.443893166331377,0.7904714548671595,-0.0494673385101182,0.23799545183468446,0.5621974976526718,2.385999999999968,7.0,0.1404837540951553,0.1372182023264892,0.9607067605599632,-0.3845361087189433,-0.1851399885851789,0.6626737026893529,0.3057518475493154,-0.03559242069373125,0.018843591976255892,-0.9512591163036352,2.386999999999944,8.0,-0.102551457114756,-0.4517381200600143,0.8629657406457596,-3.57748666439759,-0.3337063749035598,-0.5829714298792256,0.40600502216683787,-0.13827254157226906,0.4111098752525506,-0.8043813129929628
36,2.4659999999998945,0.0,0.2979976014392719,-0.9050206358885956,0.2314218618718705,0.3683077114952761,-0.5165045384712035,-0.1851603667189284,0.7481717891662938,-0.6193279392948811,-0.23569304219628154,0.03347637024417222,2.4659999999998945,1.0,0.3310287049240591,-0.6442893786190025,0.6597038677429745,0.2467679819307896,-0.5657830159674035,0.005436709423916,0.8852829758897323,-0.3505762300920575,-0.2730048016039488,0.13725428151955404,2.4659999999998945,2.0,0.1699018658861751,-0.5713178349620929,0.7776041971482811,0.2382030242380408,-0.6622311751543096,0.1663636485993445,0.9177259321505485,-0.2938109314677062,-0.18422101065561597,0.19369271860735693,2.466999999999871,3.0,0.3524415436383942,-0.6689748630229728,0.6232548362918499,0.5793122298653737,-0.5363184343136597,0.3705366342481361,0.8636663893908691,-0.43890906189107187,-0.12324860244202004,-0.21505577235342407,2.466999999999871,4.0,0.2859410590743536,-0.370299702183582,0.8614074769226161,0.2243312377240771,-0.406742422824476,0.2144567876212803,0.9602353183090226,-0.21289310863018063,-0.15464122077083514,-0.09333140204804666,2.471,5.0,-0.2231524330573688,0.3590540379327673,0.913625847633894,-0.3221950158037703,-8.305613711204352,-1.761097187038246,0.8839698317891296,0.32517401075924424,-0.19469484539174456,-0.2737756680045354,2.471,6.0,-0.4718322138971985,0.7710805908132259,0.7298020857739409,0.7723293708390451,-1.0852942396584713,-20.18578376090685,0.8587203246419602,-0.109594141433092,0.019049707227852458,-0.5002255859758507,2.471,7.0,0.2320368166459481,-0.0952760528320178,0.9755882274184968,-5.470419495031905,-3.1577797216638794,-0.3264875197765752,0.29441597622312443,-0.2832422054044769,0.23820550820651484,-0.8811079513216691,2.472,8.0,0.0634953418668222,0.1774457584577352,1.8662867797759737,-6.677149145126308,8.063470662266802,-6.188169572372566,-0.054020085997864065,0.07697688024636364,0.7456774574632362,-0.659637415287735
37,2.5289999999999964,0.0,0.3215603655784753,-0.8959075230878923,0.2327437246491407,0.0713756818378218,-0.5431460019477592,-0.3797434698652465,0.7481675400503952,-0.6065209101496993,-0.26658162212234104,0.03622093749120842,2.5289999999999964,1.0,0.3534620624737835,-0.63588851772565,0.6548903445741547,0.1210587340547198,-0.4953448137961069,-0.1205788938389826,0.88304179632299,-0.3371780440866396,-0.29371194001683226,0.1424129517428946,2.5299999999999727,2.0,0.1989665999346358,-0.5707250447936703,0.7716133846400758,-0.0404323146683175,-0.5924220541519852,-0.0846111650585321,0.9128830502098427,-0.2875607544106562,-0.21131377692219955,0.19824186451207226,2.5299999999999727,3.0,0.3608528796535283,-0.657673995814208,0.6290461942302243,0.5017593516894525,-0.715244240275621,0.3812303725647209,0.8751753179867731,-0.42348936091038736,-0.15030990060438187,-0.17925361296990097,2.5299999999999727,4.0,0.307544929312214,-0.3650804210121872,0.8561129613829648,0.0182210602290252,-0.5425355896897576,-0.1345860378418253,0.9556181062908955,-0.21285331794243392,-0.18087888842749636,-0.09365002771560378,2.5559999999998126,5.0,-0.2379189629167762,0.5320435526503786,0.7873183759876111,-0.7461312135325852,-0.800986585986249,-1.4172343722231846,0.8671277200146147,0.29389143290093744,-0.17832036396667392,-0.36044304771278735,2.556999999999789,6.0,-0.194186720169236,0.3099135414716892,0.9095878816927974,0.1298538755794799,-1.0946090786165763,-0.377275115372715,0.8533083864954362,-0.10370125181562968,-0.034005871902737135,-0.5098572825649952,2.556999999999789,7.0,0.1634645417115559,0.1153474619779093,0.9591086000126812,0.1528200288430976,-0.2134293730101901,0.4353825370506524,0.3190011304375925,-0.26626464390009774,0.20678009385085497,-0.8857671313473559,2.556999999999789,8.0,-0.0295245077510773,-0.6962179367241326,0.6887770960373526,-4.327047226089827,-0.7790677903699587,-0.4353894415479183,-0.024435421049738257,0.03920519767093282,0.8613462708540358,-0.5059134949371791
38,2.571999999999889,0.0,0.3430534331140284,-0.8979026751290908,0.1901870869031363,-0.5242458008296144,-0.990936908124806,-0.0902184467127821,0.7211431088590542,-0.6196229398343186,-0.30478560881675565,0.05590851128740897,2.571999999999889,1.0,0.3848352833097581,-0.6477585606059527,0.6260316700308401,-0.3642999179963221,-0.8969238703727426,0.264262287879084,0.8623280512542836,-0.34898881923673586,-0.3282058366063302,0.1639453106535144,2.5729999999998654,2.0,0.2201217649154087,-0.5805403439044989,0.7579342436582289,-0.2917243727194243,-0.5820940181882576,0.4738402686054297,0.8980453361552987,-0.2991221914947788,-0.23057742105594836,0.22555385535225383,2.5729999999998654,3.0,0.377564770331162,-0.6553711171212668,0.6223821519356091,-0.7350543217890624,0.3074514821132072,-1.208740342798322,0.8503893710760192,-0.44018163481381806,-0.15555802637723504,-0.24265149157420515,2.5729999999998654,4.0,0.3549006378135868,-0.3443740250746366,0.846128872059926,0.4975619199007118,-0.7369569853342339,-0.1799361977528923,0.9530251899840959,-0.18942975732476652,-0.21867260374864658,-0.08967522882850777,2.56899999999996,5.0,-0.2375342646345029,0.5741147002979299,0.757757074547222,-0.6388624307829862,0.7211219136581972,-0.9442770527662288,0.8629531941003127,0.29153022350805485,-0.10635899795042163,-0.39876017495280786,2.56899999999996,6.0,-0.1406499852999533,0.2246656524348014,0.9433016093759024,0.1092919762627181,-0.8472821810402655,3.395844042994734,0.932163220245336,-0.1003905376152171,-0.054212065853257656,-0.34359063243210697,2.56899999999996,7.0,0.1471142881954881,0.1624568591256623,0.9553173059940656,1.28062565152103,0.3688633938453903,0.5613258701209226,0.35894622269141646,-0.20231717779749891,0.1365204395848598,-0.9008815340316262,2.56899999999996,8.0,-0.0435304669506304,-0.8625680148423237,0.460274394484456,-3.5876989116911178,-2.618458677417227,0.6303807898742543,0.11198153020094388,-0.014015439421037832,0.919836523018885,-0.37571861182568334
39,2.6519999999998163,0.0,0.3555419155070395,-0.8997609659799946,0.149843753344382,-0.2185125792430975,-0.5744308266829302,-0.0119199431568427,0.7091697575746322,-0.622082325954474,-0.3242700902977878,0.0702904205057363,2.6519999999998163,1.0,0.3779151305709215,-0.6696786119081413,0.6072534156662674,-0.1602426103951295,-0.4716975469422151,0.2588893803949096,0.8516157181101837,-0.3543082022275533,-0.34073066429524784,0.18198621077124058,2.6519999999998163,2.0,0.2171531632847435,-0.6079116545101042,0.7366504761324852,-0.1536795832554265,-0.4781328546434736,0.834818379900524,0.880918861823938,-0.3091093940535254,-0.23709086650272324,0.26874013918964124,2.6519999999998163,3.0,0.41394308743002,-0.6421657729420872,0.613882920784244,0.3453330633399376,-0.6468683267403834,0.2409565797902265,0.8573108539532098,-0.43206694640304677,-0.17954699486394,-0.21470707989093635,2.6519999999998163,4.0,0.3790403267546398,-0.3404546727115378,0.8372455114974435,0.0114363184236777,-0.4545049192847689,-0.3165299008551618,0.9471999601480108,-0.1881617219160955,-0.23981744665017582,-0.09947358535494123,2.655999999999949,5.0,-0.2079005429330183,0.5620909525701023,0.7753999776160632,0.3823368288804262,-0.3264349554642836,1.6380552506648716,0.8848387451361797,0.2955726167533505,-0.14500438908331767,-0.3296527725925898,2.655999999999949,6.0,-0.1084758016957028,0.2936681024530455,0.928554277383989,0.9738183616205064,0.9017113669379272,1.3270697983425543,0.959844205925893,-0.015807586662306184,-0.020804383683053627,-0.2793141567732896,2.655999999999949,7.0,0.123993430062369,0.2920705066777642,0.9271086497441184,2.311384042806393,0.707033640472552,1.1519290530250954,0.43333760490939593,-0.09494112336681033,0.027170523520953553,-0.8958049262628742,2.655999999999949,8.0,0.0696065490064159,-0.9117559181155904,0.3536227850642752,-0.3343872271022809,-3.5903625520544096,-0.5270564348821384,0.26841921983465117,-0.1110613321287052,0.8710121709517984,-0.3961745839689741
40,2.7079999999998563,0.0,0.3570003979621339,-0.9034549172107936,0.131156122321894,-0.134730419111512,-0.4830562750133932,0.0955514463706778,0.700790829669195,-0.6229407827145893,-0.336536732734827,0.08706332065033985,2.7079999999998563,1.0,0.381959457995536,-0.6818639717555385,0.5911239264904768,-0.1028817494475358,-0.2985089895382102,0.114504877888484,0.8459514344069364,-0.35568564977861916,-0.34797502332327696,0.19174793951845578,2.7079999999998563,2.0,0.2232888351519384,-0.6150525389309629,0.7299900481863207,-0.2124075685187834,0.0091974566412787,-0.2149671135287201,0.8818142072562842,-0.3136676857392463,-0.24069755943691162,0.2570621941964064,2.7079999999998563,3.0,0.4360330529102184,-0.6404660689122743,0.6002394450066177,0.1019377668337479,-0.6152197179247456,-0.0470056682754275,0.8547654621784121,-0.43173923908963496,-0.20549001486995888,-0.20186898693452815,2.7089999999998327,4.0,0.3959158505430588,-0.340694814919476,0.8297515787124183,0.1638823215571181,-0.3728473007527397,0.0654615318065496,0.9455363439388599,-0.18416778289065114,-0.2529579668214882,-0.08975253231756256,2.72199999999998,5.0,-0.2113287350511732,0.4955953888481431,0.8181970277959515,-1.6918790858665638,0.1350653138541354,-0.6082741171741918,0.8980955096069666,0.2245077977413673,-0.09005784955833007,-0.36730135870978353,2.72199999999998,6.0,-0.0847238782724255,0.2851671416329451,0.9334101808869318,-0.5472087059548163,0.0308270887809046,5.760862023086824,0.9993564811151101,-0.030663872421797304,0.00020424277453553368,0.01860937576098249,2.7229999999999563,7.0,0.136288733202015,0.4464837918130268,0.862298443029124,2.473354107240437,1.040583958864176,3.483359177174031,0.6064523019125617,0.04739964446158418,-0.08692713594807921,-0.788931272194058,2.7229999999999563,8.0,0.0865639534994114,-0.9149188736645322,0.340956209163253,2.268515926128484,-2.004657870319111,-0.4215767607115389,0.3594445382677721,-0.13450064280316137,0.767417669995258,-0.5135945100700104
41,2.796999999999798,0.0,0.3594716502740603,-0.9030171939689942,0.120399667963027,0.0600400043827923,-0.3873641775683111,0.0158790162722576,0.700386829186171,-0.6152890188645663,-0.3474018788435621,0.10094378308337645,2.798000000000002,1.0,0.3857670748984458,-0.688709183835606,0.5805104857147635,-0.0227521541844753,-0.3861500585108595,0.3329605809517463,0.8378138770067876,-0.3564236344803045,-0.35417400504360297,0.2135201967732318,2.800999999999931,2.0,0.2156360887484591,-0.6275895309438033,0.7216678307081477,-0.0508410911181603,-0.2809497503207883,0.5184956317577775,0.8718646611137643,-0.31665292491109914,-0.24239546874659607,0.2843015557068672,2.800999999999931,3.0,0.4481095465163312,-0.6367767471131704,0.5951850205246243,0.2252803341451844,-0.4741663834977474,0.2439532991418997,0.8590250237875778,-0.4269634041919974,-0.21935292936323197,-0.17793974364177717,2.8019999999999072,4.0,0.4131347181546859,-0.3457147863334625,0.8183801018876601,-0.0465493930715557,-0.4150230755490836,0.4308209996780995,0.942535764585603,-0.19532972254870007,-0.2632092702007868,-0.06475733198989743,2.786999999999807,5.0,-0.2065760679614955,0.4306745987213195,0.856034881393158,-0.8432448436429328,-0.1165524654471084,0.8786152801503169,0.9215951538041549,0.18213976166067272,-0.07813587377615597,-0.3337398162283397,2.786999999999807,6.0,-0.0300325344320869,0.2345090826957583,0.950777333032703,-1.089462955311973,-0.5229687307311315,1.2317891932377834,0.9940934244365978,-0.06942421992514632,-0.020794632475447675,0.08078443191552724,2.786999999999807,7.0,0.1150131254669207,0.5778690682172936,0.7819413794959358,1.9739017902551408,1.449280120106864,0.8007851166424292,0.6391816925925029,0.1742100319961868,-0.1452889613023102,-0.7348392656426075,2.786999999999807,8.0,0.1233774979337065,-0.6686242302777535,0.7055569655875421,6.014613140101328,-3.2527411369645254,2.16101644827601,0.590655580027921,0.04227679754994593,0.4900183017464051,-0.6397036205340488
42,2.842999999999847,0.0,0.3576956365692809,-0.9030114951333864,0.121758249150777,0.2944889016582119,-0.3334155019826766,0.1040004359481878,0.7072545572502182,-0.6008840084591343,-0.3525150685501645,0.12026024310616419,2.842999999999847,1.0,0.3816126467813371,-0.6970323096929079,0.5727990459670063,-0.0159661430979385,-0.1998702122810532,0.3034281244305,0.8330775655319363,-0.35781531237442193,-0.35316767366400836,0.23070016540204288,2.842999999999847,2.0,0.2188923617830612,-0.6335208865288597,0.7145113157149583,-0.0622862667772686,-0.2724816210638075,0.1985176693124596,0.8659202877840658,-0.3155417418226019,-0.24993224537921477,0.2968995404025124,2.842999999999847,3.0,0.4561106304687213,-0.6320256919707226,0.5936325609856274,0.3080631737056332,-0.3993740754595025,0.163116518509068,0.8645232326711791,-0.41649151675706425,-0.23257715057049538,-0.15824748236128067,2.842999999999847,4.0,0.4220092932007341,-0.3607031895959988,0.8069525174801114,-0.0796708092545678,-0.3002187882116573,0.4882897945915492,0.9403009990814872,-0.20739580698703255,-0.26707849155811053,-0.038601680243205205,2.842,5.0,-0.1847251380115021,0.4171587528272923,0.8667170520569036,-0.8302766777028874,0.0031324893805931,1.649068841198738,0.9530062876813642,0.14159699783521768,-0.06663784876200096,-0.25940066105584814,2.842,6.0,4.695205111120149e-05,0.2044180850634335,0.9573161673629582,-0.641880923572318,-0.3921434869864707,1.7139326280273126,0.9821025813872993,-0.08405704643319034,-0.03254685696885457,0.16537724958040712,2.842,7.0,0.1070864999647756,0.6099303446111435,0.7579363141107739,1.4515916668368083,1.112341589211309,0.5937931740418528,0.6564149055620773,0.25928921101457864,-0.1840271244108576,-0.684121768611727,2.842,8.0,0.1494628809295058,-0.3739588577385754,0.8327678968014511,5.918216666257761,-1.8455578138156965,2.253248999073235,0.6971708338500672,0.22610764612401743,0.18113635580382767,-0.6557574104797956
43,2.90099999999984,0.0,0.3538702348000228,-0.9038434339606578,0.1351625088875709,0.4172373078179052,-0.3224228611924116,0.1196355704682818,0.7169203072686967,-0.5822595029189994,-0.356285552497113,0.14163244461670463,2.90099999999984,1.0,0.3741083888511629,-0.702401690630311,0.5718739182642165,0.1049900297472756,0.0197195460266178,0.1254891481511748,0.8362578318944347,-0.3530542441896857,-0.3451949065741274,0.23846596346260504,2.90099999999984,2.0,0.2274538129233324,-0.6389099563261751,0.7061053963070403,-0.0776885505169157,-0.3492734188459812,0.1112414776539291,0.8598086095270864,-0.3127553752523189,-0.2626042689309376,0.3065162771748467,2.9019999999998163,3.0,0.4603162984762886,-0.6263752583663402,0.5965282399548146,0.2837549770522293,-0.3081705930015449,0.2228519199572373,0.8704083024821214,-0.406972481808408,-0.240218499268433,-0.138050203296187,2.9019999999998163,4.0,0.4208791227107342,-0.3833810999792933,0.797928377891719,-0.2377957983859686,-0.1696793874948667,0.6410096291206492,0.9376501756725707,-0.22778837766783638,-0.26239085952346686,-0.008697120166377987,2.8969999999999345,5.0,-0.1628742080615087,0.4036429069332651,0.8773992227206493,-0.817308511762842,0.1228174442082947,2.419522402247159,0.9830031261208808,0.10282747852391899,-0.05310459743464112,-0.14251759690751611,2.8969999999999345,6.0,0.0301264385343093,0.1743270874311088,0.9638550016932136,-0.1942988918326628,-0.2613182432418099,2.1960760628168416,0.9589597870611252,-0.07765479133587773,-0.03489901254487886,0.2704587197811438,2.8969999999999345,7.0,0.0991598744626305,0.6419916210049934,0.733931248725612,0.929281543418476,0.7754030583157548,0.3868012314412765,0.6664004947989295,0.30880810247294826,-0.20611856574286494,-0.6465779715045228,2.897999999999911,8.0,0.1755482639253051,-0.0792934851993973,0.9599788280153602,5.821820192414195,-0.4383744906668675,2.34548154987046,0.7114414208448443,0.4099118248470342,-0.09248598748486832,-0.5632670260860227
44,2.990999999999985,0.0,0.3501253176777127,-0.9013378283218818,0.1604349748560902,0.6053890428799251,-0.3279316198028024,0.1553206332702635,0.7305141482595193,-0.5568925915241892,-0.35808037257375896,0.16732652950318216,2.990999999999985,1.0,0.3756559248281402,-0.6922609263801818,0.5836963559495361,0.2724777292277587,-0.0206715264881028,0.0329075434900432,0.8425954733512053,-0.338711125011226,-0.3391981390958879,0.24546336695233062,2.990999999999985,2.0,0.2439667252170254,-0.6385028917620604,0.7019631715399085,0.1206622476605036,-0.4933831533315452,0.1298761759831369,0.854362429017418,-0.29907320658848474,-0.2780056736575066,0.3214543550779409,2.990999999999985,3.0,0.4479593616240091,-0.6253962749785329,0.6066942471924267,0.4300151922068563,-0.1003723451873385,0.5472579237052057,0.883260017029956,-0.3930275370840695,-0.23278708203488221,-0.1057888077612997,2.990999999999985,4.0,0.4086559581753867,-0.4216222759588864,0.7836382866240043,-0.6040668942742025,0.0281781511536313,0.5431489451521849,0.9320321558566823,-0.2628269936215048,-0.24929297260518074,0.009541786137781607,2.911999999999807,5.0,-0.0797066504498358,0.3695863857728165,0.9047727633640696,-0.7952966600137668,-0.1002565933274806,2.0589975268318974,0.9954994016889919,0.06600835737739566,-0.052617127356482746,-0.04307291378522247,2.911999999999807,6.0,0.0706507570272017,0.1430179025772068,0.9665962704634752,-0.9046781150930132,-0.3886097813601651,0.0125187483663046,0.9553915034952125,-0.10015900977802025,-0.06372398383112612,0.2704339137277983,2.911999999999807,7.0,0.0791444109109782,0.647466710424839,0.7316064660137932,-0.1930567544255304,0.1202310550903544,-0.0431364389694505,0.6725342684996514,0.29941019333935065,-0.20144260131903596,-0.6461207876178814,2.911999999999807,8.0,0.0887339785450028,0.5593487496548945,0.7999401585813039,2.2356593967862346,0.5070790928621547,0.3299719537524255,0.6858131027320963,0.4817970142453143,-0.1576914343847269,-0.5221737610288006
45,3.064999999999827,0.0,0.3360336525900808,-0.8996570190319387,0.1942669102897726,0.7585493063938376,-0.4798356388857146,0.361059279395475,0.741663595328091,-0.5278867445326197,-0.35835468897448985,0.20700872735650283,3.064999999999827,1.0,0.370300480220536,-0.6823670482828312,0.597818338432518,0.4888638917040784,-0.1908104810440216,0.3863424876967942,0.8442857413236927,-0.319552492092161,-0.3320899556486324,0.2734667313449323,3.0659999999998035,2.0,0.2543858577292578,-0.6355668976949079,0.7010567408860856,0.1720213282514469,-0.5053835568556954,0.2254047038365012,0.8472425408460099,-0.2846326666503111,-0.29106184299541443,0.3412437920438155,3.0659999999998035,3.0,0.4327686336500123,-0.6217643422006166,0.6213247238735441,0.4622244575295511,-0.079758655910142,0.58387429982812,0.8954027403643082,-0.37752807836845464,-0.22475343988507965,-0.07219677175146685,3.0659999999998035,4.0,0.3843016998949771,-0.4598725993247835,0.7749905779092402,-0.1349328484044033,0.1474560349541461,0.7157802040698965,0.9326718050337586,-0.27614146989867594,-0.22865258937083227,0.03983950390356879,3.0049999999998818,5.0,-0.0373339894007305,0.3387129241774727,0.9188932082840592,-0.447040319771017,0.3130659045432415,1.7525685600191856,0.9972013316930874,0.05055286195822,-0.03412597300796196,0.043235751220791215,3.007999999999811,6.0,0.1577135586861245,-0.100794536251197,0.9619526468950872,-5.216612384793537,-2.493012794417674,0.4396465581766045,0.8899428017243864,-0.2913462980989906,-0.2377916320432422,0.25801992941084023,3.007999999999811,7.0,0.039373943324512,0.6189715288787193,0.7574199225163135,-0.9574147283226174,0.4102694801101451,-0.3986023907604646,0.6807321932306873,0.27763636522166785,-0.15497828555772766,-0.6599268601984816,3.008999999999787,8.0,0.0028849060349184,0.6241167743879565,0.7556791179096736,-0.9469448379957104,0.4515509789273719,-1.8647302659101803,0.6725900523972193,0.45678919504189197,-0.0780251669520627,-0.5769560867443803
46,3.1269999999999527,0.0,0.3377373786342419,-0.8984530205759228,0.1979611903663719,-0.212832041547501,-0.1439129581251443,-0.0697626422302134,0.7349705666020523,-0.5316790340033541,-0.36843890923483796,0.20344149328925318,3.127999999999929,1.0,0.3773310253795838,-0.653127941543356,0.6251065423280504,1.2991765079189213,-1.196659256133173,0.3021691945357073,0.8397696476864169,-0.24926864466290133,-0.35778784434046473,0.3234809732499807,3.127999999999929,2.0,0.251923656520251,-0.6071639306272926,0.7261407801732961,1.0487150775916247,0.2531486229348808,0.1892484221053395,0.8634633723589562,-0.24318486427277403,-0.2558145868567483,0.36034847513822277,3.127999999999929,3.0,0.4219342081131715,-0.6283683982584571,0.6212838965352405,-0.1598724332825362,-0.0668040143143704,-0.6407592372205215,0.8895020106124893,-0.37694445245529223,-0.23773560070902017,-0.10090013396938731,3.127999999999929,4.0,0.379442839532639,-0.4569368827318998,0.7799678305716602,0.7361199609668356,-0.696218877742068,0.5727242616427053,0.9333953298919916,-0.24261545381587302,-0.25074478270267625,0.08389251249620523,3.061999999999898,5.0,-0.0616784445724013,0.3542179015656063,0.9116860466660592,1.3607965174310437,0.5495752336451859,0.3298059320471974,0.9897030526635567,0.12897242695625977,0.001217733769488448,0.06206849247336425,3.061999999999898,6.0,0.2898601095285228,-0.6044602335367544,0.7151649760557384,-5.110150854409088,-2.386019772466672,1.9530061479124627,0.7546298855146799,-0.47231028471652003,-0.3451824242408692,0.2971629600645031,3.0629999999998745,7.0,0.0375180382140162,0.6635517005205467,0.7200948114969739,0.8811831365692468,-0.3001908934004618,-0.647986509343317,0.6466807800612059,0.29925325297248834,-0.19445906958274756,-0.6741195217035525,3.0629999999998745,8.0,0.0314133597494408,0.344717742587891,0.91542988741594,-5.849808975730005,1.325090405298799,-0.9542527769636344,0.7911439948877009,0.23267866009228533,0.14827875923414494,-0.5458619148198292
47,3.171999999999798,0.0,0.354115603307379,-0.8926546568988355,0.1928491716629165,0.1993551198049803,-0.7783920700421414,-0.2153087796991639,0.7290680592114197,-0.5102298772919587,-0.4005299820978945,0.21840551915413484,3.171999999999798,1.0,0.3730968892939598,-0.6559689190521023,0.6251371756956925,0.5382092799533609,-0.4719273239145836,0.4615592716856421,0.8298815426567876,-0.2289006115380493,-0.36069541557741397,0.3588871025497212,3.171999999999798,2.0,0.1812407464812052,-0.5597460941658448,0.784351389289913,0.711245209477739,-1.0253988760353308,1.15782106469458,0.8365329580174508,-0.20861943580112127,-0.2685717156880334,0.42960420701964946,3.171999999999798,3.0,0.436844492841002,-0.6273320258494623,0.6117650026097415,0.3639260384979373,-0.9877448366583508,1.1431743252295807,0.8885043921181398,-0.3783268533635169,-0.25843127438789,-0.025337987865767138,3.173000000000002,4.0,0.3824785129575156,-0.4410605604675019,0.7872291719225734,0.6807908451520391,-0.0851413808938339,0.0831347192326705,0.9409198541157296,-0.20861602588652225,-0.24837395230941414,0.09726027806020779,3.1519999999998163,5.0,-0.1581155887284957,0.3983380581351884,0.8815482131126625,1.2337455919179878,0.9020096510173412,-2.0306169745588942,0.9775559634029587,0.1925902437522513,0.07781129824038432,-0.03519571412697162,3.1519999999998163,6.0,0.2699755024767693,-0.8099438832342589,0.4807058706463077,-3.857285496314655,-0.4987850727927468,1.4417907027878312,0.6399572188414343,-0.607149383441985,-0.3729244582106434,0.28766600895318195,3.1519999999998163,7.0,0.0321000479778933,0.6471653160444236,0.7350324078766445,-0.6665986573637284,0.1796337455532274,0.5096643826670562,0.6784951695435686,0.27217143906210134,-0.1794196452854578,-0.6583126943562226,3.1519999999998163,8.0,-0.0770392945972019,0.2302204140870232,0.9496991671184964,1.2426743203378217,1.1110979197871698,-3.059010690611596,0.6887686152641792,0.27208816353660864,0.1785979532001686,-0.6478183364208294
48,3.2489999999997963,0.0,0.3665237259717316,-0.8915596648407792,0.1759423835486952,0.1281469862909981,-0.9350653219760774,0.2814110594563936,0.7107513415887444,-0.49969675808368375,-0.4249493176360333,0.25407431556756344,3.25,1.0,0.371739161977992,-0.6510833459460879,0.6294135938185217,0.0588974275959329,-0.042650796051652,-0.3384992309050821,0.8355506161647785,-0.2215654611562062,-0.3632572541948954,0.3475745697315641,3.25,2.0,0.1745495887230585,-0.5559973718636988,0.7879811949261676,0.0914347794628407,-0.4678454010210156,1.061199909784742,0.8080080477668177,-0.2101147198124669,-0.2697104349707959,0.4798240099557842,3.25,3.0,0.4467978171727846,-0.6372008868632075,0.5955004117130199,-0.0028411872853976,-0.5829033189719465,0.5152622173328384,0.8817986302312004,-0.3846749207387475,-0.27272350138721435,0.00884719549436141,3.25,4.0,0.3693271425356991,-0.4005086423807562,0.8139608646395347,1.6355178748223564,-0.5859854647141639,1.718908121707615,0.9353841055774891,-0.14701656615919442,-0.25019665239021377,0.20209982543409197,3.224999999999909,5.0,-0.2242558364585067,0.4474010016110112,0.8422634169734309,0.5648281125750161,1.2015520658579997,0.6371647343440916,0.9647023966891418,0.22871079410273124,0.13042955030412748,0.00536571435942285,3.2259999999998854,6.0,0.2846960357252349,-0.834405560154142,0.4276593602695819,4.181998717212989,0.8027079821158297,-0.4679159407725087,0.8043449010393956,-0.42024301412912085,-0.284674564591521,0.3088454006816755,3.2259999999998854,7.0,0.0339018766262796,0.5926334266149359,0.7794961734478597,-1.1163286222752409,-0.251760378225373,0.0922695518623648,0.6964824190148153,0.2192859893189991,-0.15740334537139952,-0.6648684695167539,3.2259999999998854,8.0,-0.0285667293766325,0.0496537491841223,0.9788383151290528,-2.8954986655661727,0.1237394119206218,-0.3192397257895264,0.723500311558792,0.14617803232103782,0.26133681277630294,-0.6219986755042198
49,3.3049999999998363,0.0,0.3598333384137315,-0.8964840256770984,0.1657448649937975,0.2675868590015391,-0.9659171498528052,0.3006709532739732,0.6935342318298782,-0.4827043813058016,-0.4471882602891929,0.29330770431042114,3.3059999999998126,1.0,0.3748191834338157,-0.6503918496061627,0.6296014784733929,0.3833210937202961,-0.8550687891402577,1.03596350152023,0.8044706427796352,-0.21262332411248866,-0.37724479664033234,0.40657677055738234,3.3059999999998126,2.0,0.1809183763750934,-0.5696016336940489,0.7763037549715128,-0.0348549794098216,-0.7891994255212594,1.1669157196115738,0.7686576572368293,-0.20839006083560294,-0.2858496566529033,0.5329436764870561,3.3059999999998126,3.0,0.4466680083562074,-0.6484190041164359,0.5830450114800303,0.3074642476719914,-0.7420574968289595,0.529861381778702,0.8774614671355665,-0.3759468401782401,-0.2935258382612412,0.05067474050581316,3.3059999999998126,4.0,0.3547763998354707,-0.3711886277207758,0.8342983331941577,0.7316923511221793,0.1324446955316299,0.4067307970292342,0.9378316804147854,-0.11944182638523718,-0.23156536419250448,0.22930955371839978,3.3019999999999072,5.0,-0.2800942572311894,0.4876321496490223,0.8020449449343732,0.6446745223120883,1.2563114775417743,0.5476216306459247,0.9455357755168982,0.2649393104458448,0.18445808478981335,0.041766900217902615,3.302999999999884,6.0,0.1452059913445196,-0.5414590135469217,0.8040020875137387,5.498094132028186,1.8483639330522168,0.6324695897426341,0.9199695135991041,-0.17311532138759558,-0.09306467210078019,0.3391550476638548,3.302999999999884,7.0,0.0432818751922792,0.5180627584514426,0.8311026757179418,-1.3478883766936485,-0.2646444945731362,-0.020107479803544,0.7095138559554435,0.15956799453986253,-0.12631060825328713,-0.6746656754040845,3.302999999999884,8.0,-0.0387798861925305,-0.1217824907217322,0.9718164154718244,-2.4079014125280382,-0.2603308613770592,-0.1398559103237812,0.7438241094427175,0.029820715122131428,0.3065967426492512,-0.5931566880329526
50,3.394999999999982,0.0,0.3534805408080087,-0.9000311616892182,0.1581910719934402,0.2479670506430326,-0.9631557108486328,0.2944097788308359,0.6742562500886229,-0.4649598308309276,-0.4687991318102638,0.33078427856239845,3.394999999999982,1.0,0.371011858258623,-0.6567360677935078,0.6248839398565182,0.3608491192172828,-1.0697816008007242,1.0919377630571316,0.7645204511933669,-0.19921101747528913,-0.39746481924176114,0.4667388645577576,3.394999999999982,2.0,0.1769335789567994,-0.5741574473297583,0.7742142689936127,0.2010032490134795,-0.7407312666550276,0.9757938153399408,0.7343684695389987,-0.1942519749976434,-0.29509792307940735,0.57955701785992,3.395999999999958,3.0,0.4394281800615365,-0.6569615789817077,0.5794940537310691,0.3220870013263002,-0.4683487014215301,0.7374090478123724,0.8750860949103606,-0.36944282866650874,-0.29729114172866133,0.09671762968090708,3.395999999999958,4.0,0.3453795576727779,-0.3357374717288792,0.852434344227669,0.6324228053757186,-0.1013186253902627,0.3425741764229146,0.935952153801234,-0.09343166434837272,-0.2261409075285736,0.25322792072375755,3.367,5.0,-0.3106732004099766,0.4427197436827115,0.8327174737571783,2.766095197701532,0.3030904166884257,1.422728077486653,0.8976628397505126,0.39580359381124397,0.1732196602230621,0.08680950736731814,3.368,6.0,0.0816627867093652,-0.421855687970959,1.068014029773677,6.569317132819228,4.917964201638676,17.242886811660377,0.6251671797152543,-0.09145047538478973,0.24849268546783668,0.7342031008023282,3.368,7.0,0.0674236040729233,0.5026248786080532,0.8363798712415651,-0.1447280372663016,-0.9786032700356186,1.321371293696837,0.7486796891684909,0.11422637896844784,-0.17379497481454553,-0.6294651412934157,3.368,8.0,0.0167047624963421,-0.4120534136824044,0.6876030360481387,-4.909005853586699,0.8886316030295088,-0.7709236012755036,0.7085425147141491,-0.15178392307106506,0.4611210544663662,-0.5121489223531898
51,3.4409999999998035,0.0,0.346645577928772,-0.90253612794229,0.1580992759672409,0.3994224438742435,-0.8010990198192437,0.2029270633561078,0.6623612127571403,-0.4411307885827906,-0.48381797150049044,0.3641447811686531,3.4409999999998035,1.0,0.3615642296204533,-0.6691311987840118,0.6178055897066967,0.1958866935710971,-0.4068577128012184,0.6011212029925932,0.7441877435310582,-0.1955886738120128,-0.39974682240962317,0.49812864907373017,3.4409999999998035,2.0,0.1848795184372183,-0.5816422172379537,0.7662870837936258,-0.0115610632386641,-0.8587128859652834,0.9607386152691172,0.6941909686439182,-0.18302915456995825,-0.31428295727400246,0.6211484930334552,3.4409999999998035,3.0,0.4276922772438933,-0.6574399627232688,0.5871124350585326,0.6271107827269468,-0.5041485357434391,0.7918926193231575,0.8751843774321677,-0.34838754062053157,-0.3005851390584798,0.14942222463957908,3.4409999999998035,4.0,0.3435240978149567,-0.3120669105042008,0.8617757466932933,0.6753693170567436,-0.236319859131527,0.3747429349304292,0.9308451789571246,-0.0648565123959586,-0.22643874076212134,0.2793678261614536,3.431999999999789,5.0,-0.2723661479576125,0.5863712982534022,0.7362508961158224,1.203912952404249,0.5028291079904311,1.7735480065239138,0.8626908794474567,0.45116483508063565,0.15975474078116125,0.16338041774576476,3.4329999999999927,6.0,-0.158252265166973,0.1127255583346016,0.9602891070233348,5.245691069310301,3.4324277002079784,2.8481047607552967,0.5116870332119884,-0.04297516572038651,0.5281686703180142,0.676289413541658,3.4329999999999927,7.0,0.0821036247922301,0.4185790074919205,0.8811212228082212,-1.5280177578005458,-0.1684760785137511,0.7919079303272981,0.7801517393273885,0.04499702333634534,-0.13413729799924193,-0.6093814214437305,3.4329999999999927,8.0,-0.026150470285829,-0.3176855548458191,0.9267998927201784,-2.809035849505244,-0.2118395680816321,-0.2081516958696908,0.6952141303721063,-0.2574843344725205,0.4914890699125146,-0.456965671127198
52,3.5299999999999727,0.0,0.3431457794772391,-0.9014233999917064,0.1704489013585893,0.551685624819129,-0.5334933457128826,0.0306094741029389,0.6621566018660491,-0.41188484589302377,-0.490479942169564,0.38901019865580366,3.530999999999949,1.0,0.3592734642428247,-0.6649464262396574,0.6239894455213705,0.4005268561903278,-0.2550646613412767,0.1359729830876229,0.7399478996920769,-0.1772208462963781,-0.39579290903093384,0.5142157626328764,3.530999999999949,2.0,0.2002395668632737,-0.5834075219934431,0.7595082482395293,0.1058495759054887,-0.4259627557175833,-0.0180268321109316,0.6899848363642079,-0.1639768747152934,-0.3235677906805457,0.6263676196772728,3.530999999999949,3.0,0.4200914820850081,-0.6465948862582178,0.6049621473648938,0.7896788600874669,-0.3282446674502041,0.3532111713265853,0.8815702701216431,-0.3135239004466137,-0.302627322758963,0.1815305104001451,3.530999999999949,4.0,0.3524245641140553,-0.3032629970955313,0.8612534361044105,-0.097559024738824,-0.0249158106209224,-0.2168444065590733,0.9328087921754861,-0.06990712781376743,-0.2295234391059727,0.268886112735313,3.479999999999791,5.0,-0.2462326381884888,0.6073435485745796,0.7287539378250893,-0.566710618278761,-0.122533854238165,-0.1240563671180415,0.8841467322592321,0.4120894639384715,0.1543579136732788,0.15697281303670949,3.479999999999791,6.0,-0.2386116182575225,0.3894331013643239,0.8661705116166736,2.024271401836951,1.4960887797140057,-1.5062095053862925,0.5347495616096801,-0.07404703165263164,0.6053746442898053,0.5848773234727782,3.479999999999791,7.0,0.1050710959089292,0.3281108921710978,0.9176727669726188,-1.2344996290124104,-0.1068736145061721,0.3162151409333752,0.7907998924834173,-0.0037027904672857948,-0.10213552406610527,-0.603481693272226,3.4809999999999945,8.0,0.0261194482099525,-0.5081363101820171,0.8374110488283592,-3.712528411643184,-1.14584782689111,0.0227603914735087,0.6796941493999531,-0.4049645734197339,0.5027051439024276,-0.348291682129342
53,3.5799999999999272,0.0,0.3581699796113341,-0.8897284245250837,0.2032894397093191,0.7416317814678919,-0.1908586024574316,-0.4507992194295596,0.6829429601479893,-0.36985047403551424,-0.49097462445602713,0.39464345703466386,3.580999999999904,1.0,0.3597327895333592,-0.6403758998759251,0.6484450840222687,0.7742355356509109,0.0468223496823883,0.0681686300421803,0.7463058971731421,-0.1508333637339953,-0.37102839540089333,0.5316152123815852,3.580999999999904,2.0,0.2203603508500522,-0.5614608945406527,0.77283114564234,0.7975156271763968,-0.317140503421851,0.0151220083451069,0.6919123033689086,-0.12474111251595284,-0.3062062103719947,0.6418214518264683,3.580999999999904,3.0,0.4163968842235809,-0.6163503325305131,0.6366104793344354,1.3130875965458544,-0.5802737639340159,0.7418501495504068,0.8843611054454392,-0.25829452301404204,-0.3051924933969391,0.24092927703047726,3.580999999999904,4.0,0.3673123747027116,-0.3021530983432044,0.8560456322836163,0.0060345955398012,-0.2797010916852742,-0.0852566910820828,0.9302880252379013,-0.0676791726366851,-0.24288098627792698,0.2664442647062255,3.5149999999998727,5.0,-0.2417387108676674,0.559998885001569,0.7667050570232583,-0.8943235085700842,-0.5681954777731515,-1.0483954746075632,0.9190715966064021,0.35347377997839396,0.14114076470547218,0.1021908592658818,3.5149999999998727,6.0,-0.2249149934239693,0.4122390167093541,0.8588703271365243,-0.8845461997955854,0.0758073231600658,1.9529279513795053,0.4836579215160347,-0.02717827101806736,0.5574710805964058,0.6742123929726695,3.515999999999849,7.0,0.1296134095134033,0.2836341956281953,0.9293987342065068,0.1619439166341161,-0.4170282928286684,0.3540600722271118,0.7984565251260106,-0.0037523906103863088,-0.12766752041217636,-0.5883486222302302,3.515999999999849,8.0,0.1101431528507983,-0.7802998303543367,0.5828564665756735,-5.6389086310511205,-1.4133722902614332,-0.1851311550905781,0.5925534495019179,-0.5950844582121955,0.5140291595796228,-0.17472527058082502
54,3.649999999999864,0.0,0.3663672889342323,-0.8822820009288691,0.2176544978536659,0.2116896612903105,-0.6969998362376926,0.3261614028037615,0.6623623758079352,-0.35772051300154395,-0.5044177316369928,0.4229360113565294,3.649999999999864,1.0,0.3853740248410906,-0.6154807523233633,0.6580762148089272,0.3281278465199904,-0.5245483785142527,0.2616870419872729,0.7317056262656666,-0.13007857109448293,-0.3800754288015557,0.5506624285844276,3.65099999999984,2.0,0.2118168788233489,-0.5159705643222132,0.8043214448207578,0.7335910292707802,-0.0238999330164949,0.6905426157115271,0.6742033012263862,-0.10975303092305676,-0.27616929940825696,0.6761173706413687,3.65099999999984,3.0,0.3882191211679645,-0.6102476303052428,0.6607925118116948,-0.1367519293765156,0.3534047308695768,-0.5052170972043074,0.8934007461949878,-0.261996764309613,-0.29700943514734596,0.21208063943459501,3.65099999999984,4.0,0.3815375966026922,-0.3016863365340813,0.8497666837004652,0.3412302425904667,-0.5763363342988098,1.2735943997104635,0.9052966636848273,-0.0626299440221983,-0.25953740921925633,0.3303873091519304,3.6159999999999854,5.0,-0.2470640593666862,0.5762266433551748,0.7525876733357267,1.2525756300324795,1.7351030321414525,4.011714911250347,0.8494785997507659,0.41397392776282843,0.13761645674955467,0.2967716403731876,3.6159999999999854,6.0,-0.2162054507327443,0.2213333112786038,0.9285277423921696,-1.9509569133361588,-3.0709783213235635,-5.02184244315823,0.7585359891123389,-0.14634021325259514,0.30638084581732605,0.5561820498027699,3.6159999999999854,7.0,0.156777987317171,0.3592952591816817,0.8977998548798863,1.9737226176245308,0.6366964389328893,0.154527769696979,0.8042896568806814,0.10368166892540183,-0.16530609855200237,-0.5612861597662238,3.6159999999999854,8.0,0.1806968070901813,-0.8866996429196424,0.3755348281499236,-3.2530915255992485,-3.055065506346519,-0.7089337636236519,0.5717737534995115,-0.7192997054072064,0.39254240061238344,-0.039914562901940204
55,3.710999999999786,0.0,0.3520944709318224,-0.8912560803750356,0.2071305934278372,0.1625153511248896,-0.5858886937008341,0.4155723694962414,0.6407698955365356,-0.3513544427092056,-0.5129123761950254,0.4504274535467096,3.710999999999786,1.0,0.3609816626298057,-0.6241185348953256,0.6639414836001238,0.1922599148925118,-0.0253596816067211,0.7372235721367875,0.7114347015342768,-0.13876112779311375,-0.3696703220939054,0.581334557573697,3.710999999999786,2.0,0.1907036574515097,-0.5230291426329174,0.8068529178179208,-0.0900443866902851,-0.4751806563783267,1.697345981487266,0.6098576159229949,-0.12132983731396016,-0.2830953772704403,0.7302121378381735,3.710999999999786,3.0,0.4049214981136268,-0.6034043823766215,0.6570241484862669,0.224910141774669,-0.390687787402684,0.3862190854837707,0.885593563115051,-0.25476163969360877,-0.30707570377680393,0.2377499948681229,3.710999999999786,4.0,0.3820615502821169,-0.2947128808166882,0.8517906372323859,0.2918906973316946,-0.5524925449475095,-0.1136084641467631,0.9008294004088384,-0.04019071140314344,-0.27816736811611414,0.3309290156382732,3.7199999999998,5.0,-0.2990029549824696,0.5080766020637121,0.7823857100862359,-0.2799700059455781,-0.0796059435249315,0.281329820170059,0.8600318331880323,0.38716091456626783,0.13331896269099364,0.30443016657756056,3.7199999999998,6.0,-0.0616412850904756,0.2751748086277052,0.9376935409125416,3.366896925347572,1.6196259872837646,1.222223744453348,0.7259297538549314,-0.02815005656921117,0.44191369618629317,0.5262564507027327,3.7199999999998,7.0,0.1020675130890526,0.4697592316991251,0.8538626862706108,1.1255036895822896,1.4440409417472444,1.0261657965086204,0.8351674433789578,0.18921571949766364,-0.1477328947092139,-0.49484113090533727,3.721000000000004,8.0,0.2543589105569925,-0.9229910967523862,0.2091051886876251,0.1535040453606692,-3.306234516801004,-0.0316067151552351,0.6532749302750437,-0.7101566632377724,0.2579254385994456,0.048824658282608346
56,3.785999999999831,0.0,0.3366082891450951,-0.897929086278595,0.2023714794473258,-0.0355931563047082,-0.3839264216578061,0.3120910278468193,0.6227727599735408,-0.3522379807381912,-0.5208804618592661,0.4655813986981202,3.786999999999807,1.0,0.3467955006831897,-0.6282861213783464,0.6670048203643282,0.1518752866730123,-0.2418869605622723,0.2741986380141727,0.6996532481498648,-0.13233209165782633,-0.3720575393932509,0.595438273250425,3.786999999999807,2.0,0.184287507563937,-0.530355752658084,0.8020410776128297,0.0902134635759796,0.1291454333854261,0.1187991859516179,0.6083488200763837,-0.12359675776677917,-0.2749142785055555,0.7342054848984593,3.786999999999807,3.0,0.417418207051722,-0.6022115680523826,0.6503601061916516,0.0791767981609851,-0.4814652851234804,0.4183797521533471,0.8733944494515747,-0.252853810743494,-0.32237690503635946,0.26328732813952893,3.786999999999807,4.0,0.390012455947432,-0.2968335928678716,0.8481456846267644,-0.0498013228750737,-0.0888513354201092,0.1421610749565463,0.8974169549700173,-0.046245644664767674,-0.2796993111847909,0.3380420751986881,3.784999999999856,5.0,-0.282691028171147,0.4522534911464678,0.8210082596036241,-1.530195301411391,0.159766647873175,1.210275540307322,0.8744701592620743,0.30573936741342944,0.10515129706133404,0.36161939176448693,3.784999999999856,6.0,-0.0472755761394059,0.3193545862802718,0.9245872961069944,-3.1541039662767787,-1.5560684845112591,-2.5952595667343084,0.8262027370301911,-0.16274824804856788,0.24237674993884767,0.4818252340527879,3.784999999999856,7.0,0.0801381477194705,0.5499050801825367,0.8064311998363717,1.487360194995548,1.4841269699048758,2.605272236705903,0.8852487989525327,0.2747287079095683,-0.15648382849943196,-0.3411326903443844,3.784999999999856,8.0,0.2636051303878392,-0.899341525095884,0.2856048957413363,4.609611201345947,-0.1798494598969253,0.074702407657547,0.8286348431050199,-0.5032604518907347,0.24349271909639583,-0.02836388728817291
57,3.860999999999876,0.0,0.3325658994756922,-0.901422760606002,0.1956295713009092,0.0223601619543027,-0.2162493146909434,0.0381025184183186,0.6167504281102266,-0.3471120269463676,-0.5270862808523546,0.4704383091461292,3.8689999999999145,1.0,0.3408390704577098,-0.6367041683330326,0.6625711509542697,-0.1518734467506033,-0.1149836957028618,0.3072066962919657,0.6868426030621704,-0.1411167084478944,-0.37870865177816326,0.604080350850762,3.869999999999891,2.0,0.1682226416335582,-0.5347431424474581,0.8039570351997953,-0.1805856691693262,0.0382318632604693,0.2111638520903376,0.6003000027758653,-0.13237833060272236,-0.27923993438228106,0.7376590969413391,3.869999999999891,3.0,0.4212932475400581,-0.608818392046725,0.6417383930253756,0.0070398128292289,-0.2814408228198999,0.159357169532825,0.8664990164787882,-0.2519395342404521,-0.3327240822155398,0.2738623936246508,3.869999999999891,4.0,0.3959014535119238,-0.3075498934991476,0.8425349263477504,-0.3124755705311569,-0.1745558790868822,0.2736569178480111,0.8897346199796826,-0.0639651435110314,-0.2892938317489654,0.3472604862883542,3.836999999999989,5.0,-0.1654418987069284,0.425003718394359,0.8676461361080419,-1.297866372509232,-0.3644036553939111,2.7224628386128,0.8443376101307882,0.2572240943557453,0.035632710719130385,0.46867907498447425,3.838999999999942,6.0,0.032228672331542,0.2119401876516105,0.9559914589252072,-1.085574681531527,-0.4411126891343094,0.4025187018288602,0.8177230618760245,-0.16750037311278845,0.18407100935209986,0.519028402497662,3.839999999999918,7.0,0.0957192314157873,0.6104511499896971,0.760677475815754,1.1109040033109994,0.571596024611178,0.5058768971676493,0.88073786013038,0.33037763569138184,-0.15931861894627977,-0.2996147813860015,3.839999999999918,8.0,0.1912747927567633,-0.6079309048075962,0.7445092132644664,5.743325380282933,0.0763538138216545,0.6195557278098349,0.9543156054396816,-0.19056519046650133,0.21560105134048968,-0.08051596150848137
58,3.9349999999999454,0.0,0.3369056367738984,-0.8982206336874189,0.1990811018860036,0.2000050567857315,-0.1658356231788925,-0.0653090410071267,0.6177806664699075,-0.3346079181510516,-0.5290356005881093,0.4759263835479123,3.9349999999999454,1.0,0.3297175877410694,-0.6465808603690494,0.6576963610501658,-0.1810857258902709,0.2692703599180127,0.085291074630529,0.6878365695666174,-0.1578018860391662,-0.3740828710308515,0.6016987817260604,3.935999999999922,2.0,0.1712695572858883,-0.5421385684508329,0.7984776210672265,-0.2188490479581985,0.0972383556145748,-0.4667284832691552,0.6179836904653108,-0.13434611159386928,-0.28778858611720526,0.7191835720587216,3.935999999999922,3.0,0.4236462262502232,-0.6123481269009212,0.6372657581142093,-0.0055416303037198,-0.0681052305218564,0.158182851736711,0.8630196720449648,-0.254234035814792,-0.3335504901950899,0.28161351385780453,3.935999999999922,4.0,0.3972248914602303,-0.3369792798493699,0.8304452724632784,-0.4610809893974655,-0.0556450664751328,0.1496565247733409,0.8849857374029716,-0.08790859617753614,-0.2963433521593828,0.34821392985110905,3.884999999999991,5.0,-0.1048978974591043,0.3759166340993244,0.8978931536191228,-0.8840858454199474,-0.2674303032274513,1.7005777376880464,0.8178964830644814,0.21949077894501734,-0.005095250756983856,0.5318300286450416,3.884999999999991,6.0,0.090287308416572,0.1433578683290959,0.9654603686982852,-1.1826225958886385,-0.723103737328263,0.3759281400145671,0.8087394331980028,-0.16962269144544886,0.11088671296755201,0.5521528851908927,3.8859999999999673,7.0,0.0450735774129608,0.643500042967386,0.7377256043544713,0.0008176531042481,0.5370668692402026,-0.8632121896432136,0.8715187690829987,0.34427259942287014,-0.11880537035438418,-0.3283545285170166,3.8859999999999673,8.0,0.1526392431809811,0.0634602795038656,0.9655050773385028,5.721422992812803,0.7823802289757037,1.7428774002720178,0.9721581281483963,0.13629579094088773,0.1842057607703445,-0.04899253969557814
59,3.981999999999971,0.0,0.3434112066871877,-0.8925456505008759,0.213450239853737,0.3654804856350317,-0.2174304987182426,-0.0534218527717424,0.6197120609908405,-0.31608971090221866,-0.5281485993506312,0.4869325550096266,3.981999999999971,1.0,0.3225294565733982,-0.6495831071549255,0.6588440912244876,0.0240237025748768,0.110022834898792,-0.1782259067904543,0.6955712298107088,-0.15664391920292484,-0.37091725435565215,0.5950325514269199,3.981999999999971,2.0,0.1869939194269892,-0.5509222110996511,0.7885987518468465,-0.1645276169615239,-0.3090835060290154,-0.0814962960783617,0.6158862073136876,-0.12552160118172365,-0.3038836739028868,0.7159491741826522,3.9829999999999472,3.0,0.4155659672915872,-0.615897686816463,0.6369340359904919,0.0573963351380228,-0.0148094515021409,0.1983234282480541,0.8606877313232614,-0.2550444703563178,-0.33048983768552664,0.29145396630836423,3.9829999999999472,4.0,0.3943761566926153,-0.3730326080188054,0.8155777831617599,-0.4845513241993827,-0.1131261081865043,0.4766641735219592,0.8730194372918723,-0.11592392651091153,-0.3042059140459051,0.3631218352459278,3.991999999999962,5.0,-0.0596471744344728,0.3248772872963644,0.9224564828656898,-0.9704928783796808,-0.1573269622392956,1.0396486808640952,0.8031632217895993,0.17538253263342612,-0.034946978532452024,0.568285592904737,3.991999999999962,6.0,0.1708124353357745,-0.0402314192166359,0.963542705251032,-3.3818580999855703,-1.2863272535607884,0.4075492860744056,0.7770865871832344,-0.24418260564958244,-0.045241569745193264,0.578329051220051,3.991999999999962,7.0,0.0666524869303612,0.5833123087356371,0.7835599507781765,-0.9619038278710224,0.0932450989993832,-0.4837545548749549,0.8820041738347015,0.29980447693984613,-0.09354432637330022,-0.3513337045436381,3.991999999999962,8.0,0.0278579612528695,0.5914784046594938,0.7810776087024219,0.7249120753009385,-0.4571058611264413,-0.826996824069424,0.9678830117158086,0.18023615539425583,0.1487722479346816,-0.09265107751718389
