Timestamp,Ax,Ay,Az,Rx,Ry,Rz,HR_value
0,-0.8428,0.7571,-0.0102,0.2115,-1.0946,0.6028,171
0,-0.8265,0.7397,0.0,0.1417,-1.1284,0.6138,171
0,-0.8112,0.6428,-0.004,-0.0337,-1.1589,0.5647,171
0,-0.8122,0.6337,0.0102,-0.1526,-1.1959,0.5244,171
0,-0.7795,0.601,0.0459,-0.1678,-1.2331,0.4841,171
0,-0.7826,0.552,0.0326,-0.2495,-1.2657,0.4404,171
0,-0.749,0.5449,0.0388,-0.2495,-1.2657,0.4404,171
0,-0.7673,0.553,0.0428,-0.2954,-1.3039,0.4023,171
0,-0.7673,0.553,0.0428,-0.2888,-1.341,0.3771,171
0,-0.7459,0.4897,0.0408,-0.3477,-1.3824,0.3542,171
0,-0.7551,0.5163,0.0632,-0.3924,-1.4304,0.3357,171
0,-0.7469,0.5102,0.0857,-0.4034,-1.486,0.3302,171
0,-0.7724,0.5265,0.0948,-0.4372,-1.5427,0.3183,171
0,-0.7683,0.5765,0.1642,-0.4797,-1.607,0.3041,171
0,-0.7836,0.5928,0.1887,-0.5385,-1.6747,0.2932,171
0,-0.7816,0.553,0.2142,-0.5385,-1.6747,0.2932,171
0,-0.7816,0.553,0.2142,-0.6486,-1.7302,0.2583,171
0,-0.7928,0.3826,0.2979,-0.8035,-1.763,0.2104,171
0,-0.7928,0.3826,0.2979,-0.9059,-1.7901,0.1602,171
0,-0.8204,0.2816,0.3296,-0.9889,-1.8054,0.0937,171
0,-0.8336,0.1703,0.3816,-1.0749,-1.8229,0.0174,171
0,-0.8704,0.0939,0.4571,-1.0772,-1.8393,-0.0349,171
0,-1.002,-0.0928,0.5286,-1.0226,-1.8502,-0.0675,171
0,-1.0591,-0.2163,0.5245,-0.9736,-1.8785,-0.0763,171
0,-1.0622,-0.3541,0.5204,-0.9246,-1.921,-0.0719,171
0,-0.9306,-0.7388,0.3775,-0.7228,-2.0355,-0.1221,171
0,-0.9551,-0.7949,0.3867,-0.4307,-2.1489,-0.3096,171
0,-0.8591,-0.7326,0.3826,0.0402,-2.1228,-0.2659,171
0,-0.8112,-0.3796,0.5071,0.0402,-2.1228,-0.2659,171
0,-0.7061,-0.2632,0.4979,0.6345,-2.1838,-0.086,171
0,-0.7061,-0.2632,0.4979,0.8897,-2.2077,-0.0152,171
0,-0.6837,-0.1102,0.5102,1.0335,-2.235,0.0469,171
0,-0.6061,0.0275,0.549,1.1611,-2.2394,0.1526,171
0,-0.5632,0.0398,0.5306,1.1186,-2.2274,0.2039,171
0,-0.5245,0.1969,0.5816,1.1327,-2.1794,0.2388,171
0,-0.4908,0.2296,0.601,1.1567,-2.1598,0.2333,171
0,-0.4745,0.2092,0.6,1.0652,-2.1369,0.1787,171
0,-0.4633,0.1887,0.6122,0.9954,-2.1118,0.1035,171
0,-0.4387,0.1887,0.6449,0.9954,-2.1118,0.1035,171
0,-0.4337,0.1683,0.6602,0.9801,-2.0824,0.0381,171
0,-0.4337,0.1683,0.6602,0.991,-2.0584,-0.0294,171
0,-0.4275,0.1061,0.6632,0.954,-2.0202,-0.0925,171
0,-0.4183,0.0581,0.6703,0.9397,-1.9755,-0.1417,171
0,-0.4061,-0.0428,0.6785,0.979,-1.933,-0.1701,171
0,-0.3939,-0.0704,0.6785,1.0564,-1.896,-0.1732,171
0,-0.3887,-0.0867,0.6714,1.1698,-1.8534,-0.1602,171
0,-0.3949,-0.0479,0.6806,1.3235,-1.8098,-0.1198,171
0,-0.3877,0.0428,0.703,1.3235,-1.8098,-0.1198,171
0,-0.3765,0.0796,0.7173,1.4511,-1.7749,-0.0686,171
0,-0.3734,0.151,0.7377,1.5274,-1.752,-0.0174,171
0,-0.3734,0.151,0.7377,1.6081,-1.7215,0.0392,171
0,-0.3683,0.2285,0.752,1.6867,-1.6921,0.098,171
0,-0.3489,0.3632,0.7459,1.7258,-1.6703,0.1396,171
0,-0.3418,0.402,0.7357,1.7193,-1.6518,0.1646,171
0,-0.3306,0.45,0.7234,1.7096,-1.6277,0.1732,171
0,-0.2918,0.602,0.7847,1.7302,-1.5961,0.1701,171
0,-0.2847,0.6663,0.7969,1.7018,-1.5416,0.1198,171
0,-0.2592,0.6703,0.8152,1.5994,-1.5122,0.0131,171
0,-0.2397,0.751,0.8561,1.5994,-1.5122,0.0131,171
0,-0.2397,0.751,0.8561,1.5591,-1.4936,-0.0108,171
0,-0.1826,0.8377,0.9255,1.5623,-1.4609,0.0065,171
0,-0.1306,0.6755,0.9459,1.3846,-1.425,-0.0032,171
0,-0.1663,0.8969,1.0112,1.1829,-1.3758,0.0566,171
0,-0.1346,0.7775,1.0469,1.0694,-1.3485,0.0446,171
0,-0.0989,0.8091,1.0939,1.0194,-1.2745,-0.0479,171
0,-0.053,0.9255,1.1622,1.1415,-1.1862,-0.0828,171
0,-0.0479,1.0418,1.201,1.2516,-1.0891,-0.1133,171
0,-0.0388,1.1061,1.2326,1.2232,-0.9692,-0.1852,171
0,-0.0428,1.2092,1.2469,1.1043,-0.8678,-0.2758,171
0,-0.0428,1.2092,1.2469,1.1043,-0.8678,-0.2758,171
0,-0.0163,1.2194,1.2336,0.9485,-0.8144,-0.3717,171
0,-0.052,1.2296,1.2051,0.7947,-0.7435,-0.4578,171
0,-0.0622,1.2285,1.1581,0.64,-0.6377,-0.5124,171
0,-0.0479,1.2265,1.1296,0.424,-0.5549,-0.4971,171
0,-0.0663,1.1408,1.1082,0.1318,-0.471,-0.4153,171
0,-0.0286,0.9918,1.0602,-0.2125,-0.387,-0.3685,171
0,-0.0193,0.9387,1.0632,-0.3466,-0.3128,-0.3968,171
0,-0.001,1.0112,1.151,-0.2659,-0.2278,-0.4252,171
0,-0.0214,0.9592,1.1346,-0.3063,-0.1188,-0.4698,171
0,-0.0428,0.8959,1.1071,-0.3063,-0.1188,-0.4698,171
0,-0.0428,0.8959,1.1071,-0.4655,-0.0141,-0.5287,171
0,-0.0724,0.8541,1.0847,-0.5713,0.0883,-0.581,171
0,-0.1275,0.6703,0.9704,-0.6869,0.1984,-0.628,171
0,-0.1867,0.5643,0.8898,-0.8155,0.2932,-0.664,171
0,-0.1908,0.4633,0.8469,-0.8874,0.3422,-0.6825,171
0,-0.2265,0.3694,0.7918,-0.9048,0.3739,-0.677,171
0,-0.2724,0.1408,0.7653,-0.8809,0.3979,-0.6411,171
0,-0.2877,0.0295,0.7673,-0.8319,0.412,-0.5799,171
0,-0.3041,-0.0275,0.7775,-0.6944,0.4109,-0.495,171
0,-0.3387,-0.0245,0.8122,-0.6944,0.4109,-0.495,171
0,-0.3143,0.0693,0.8765,-0.4263,0.4132,-0.4109,171
0,-0.3143,0.0693,0.8765,-0.11,0.4023,-0.3903,171
0,-0.2683,0.1928,0.9081,0.2191,0.388,-0.4895,171
0,-0.2734,0.3796,0.9571,0.5331,0.4208,-0.5135,171
0,-0.2755,0.4867,0.9479,0.6171,0.4666,-0.4742,171
0,-0.2928,0.6,0.8908,0.5679,0.5047,-0.4731,171
0,-0.3102,0.6857,0.8734,0.6007,0.545,-0.4862,171
0,-0.3214,0.7531,0.855,0.6213,0.5702,-0.5374,171
0,-0.3255,0.7428,0.8265,0.5658,0.5898,-0.6225,171
0,-0.3898,0.9459,0.8204,0.5658,0.5898,-0.6225,171
0,-0.3979,0.9214,0.7888,0.5179,0.5996,-0.6552,171
0,-0.3979,0.9214,0.7888,0.3663,0.5919,-0.726,171
0,-0.3643,0.8755,0.7479,0.1198,0.5516,-0.8373,171
0,-0.3724,0.9235,0.7643,0.0043,0.544,-0.8395,171
0,-0.3796,0.8622,0.7397,-0.1613,0.5473,-0.8558,171
0,-0.3877,0.8255,0.7347,-0.387,0.532,-0.8842,171
0,-0.3622,0.7938,0.7449,-0.5287,0.5059,-0.9038,171
0,-0.3602,0.752,0.7459,-0.6497,0.5036,-0.9431,171
0,-0.3479,0.6602,0.7531,-0.6497,0.5036,-0.9431,171
0,-0.352,0.6428,0.7561,-0.7392,0.5091,-0.979,171
1,-0.3326,0.5847,0.7499,-0.7947,0.5047,-1.0041,171
1,-0.3326,0.5847,0.7499,-0.8689,0.5091,-1.0303,171
1,-0.3459,0.5428,0.7336,-0.9246,0.5189,-1.052,171
1,-0.35,0.5377,0.7531,-0.9136,0.5374,-1.0673,171
1,-0.3745,0.5102,0.7397,-0.9332,0.5538,-1.0837,171
1,-0.3694,0.4561,0.7194,-1.0084,0.5625,-1.1043,171
1,-0.3877,0.4449,0.7204,-1.0183,0.5757,-1.1152,171
1,-0.3939,0.449,0.7479,-1.0084,0.5833,-1.1164,171
1,-0.4092,0.4306,0.7418,-1.0618,0.5799,-1.1251,171
1,-0.4,0.4112,0.7397,-1.0618,0.5799,-1.1251,171
1,-0.4,0.4112,0.7397,-1.1218,0.5877,-1.1262,171
1,-0.4041,0.3837,0.7224,-1.1644,0.5984,-1.1251,171
1,-0.3989,0.3591,0.701,-1.2113,0.6236,-1.1218,171
1,-0.4041,0.3398,0.6898,-1.2527,0.6442,-1.1251,171
1,-0.3898,0.3224,0.6714,-1.2985,0.6596,-1.1207,171
1,-0.3561,0.2653,0.6122,-1.3584,0.6682,-1.1196,171
1,-0.3561,0.2418,0.6377,-1.4183,0.6705,-1.1196,171
1,-0.3582,0.2061,0.6449,-1.4696,0.6857,-1.111,171
1,-0.3326,0.1377,0.6337,-1.582,0.6978,-1.0858,171
1,-0.3745,-0.002,0.652,-1.582,0.6978,-1.0858,171
1,-0.3745,-0.002,0.652,-1.6604,0.7205,-1.0412,171
1,-0.3867,-0.0561,0.6326,-1.6932,0.7621,-0.967,171
1,-0.4122,-0.1204,0.6082,-1.7258,0.785,-0.883,171
1,-0.4581,-0.202,0.6255,-1.6812,0.8144,-0.8155,171
1,-0.5438,-0.1816,0.6306,-1.5862,0.8439,-0.7435,171
1,-0.5969,-0.3071,0.5571,-1.3824,0.81,-0.8166,171
1,-0.5867,-0.3112,0.549,-1.0433,0.8264,-0.6629,171
1,-0.5867,-0.3112,0.549,-0.954,0.8056,-0.5789,171
1,-0.6041,-0.3704,0.5214,-1.0423,0.7676,-0.5505,171
1,-0.602,-0.303,0.5571,-0.954,0.7304,-0.4807,171
1,-0.6061,-0.2959,0.5826,-0.8373,0.7086,-0.4307,171
1,-0.6479,-0.3448,0.6071,-0.8199,0.677,-0.3838,171
1,-0.6867,-0.3367,0.6469,-0.7598,0.6333,-0.3193,171
1,-0.7347,-0.3571,0.6744,-0.6944,0.5757,-0.2518,171
1,-0.7704,-0.4296,0.6581,-0.6672,0.5167,-0.1919,171
1,-0.7704,-0.4296,0.6581,-0.6672,0.5167,-0.1919,171
1,-0.9,-0.4653,0.6377,-0.5331,0.4589,-0.1057,171
1,-0.9122,-0.4255,0.6346,-0.3346,0.3903,-0.0162,171
1,-0.9051,-0.3683,0.6449,-0.1798,0.3161,0.1068,171
1,-0.9877,-0.3245,0.6285,-0.0774,0.2627,0.2191,171
1,-0.9408,-0.1551,0.6479,0.0021,0.1852,0.3434,171
1,-0.9387,-0.1173,0.6163,-0.0053,0.0959,0.4458,171
1,-0.8826,-0.102,0.5836,-0.0806,0.0011,0.5211,171
1,-0.8571,-0.0887,0.5643,-0.1144,-0.0915,0.5767,171
1,-0.801,-0.0541,0.5847,-0.1286,-0.182,0.6106,171
1,-0.7602,-0.0551,0.6071,-0.1286,-0.182,0.6106,171
1,-0.7602,-0.0551,0.6071,-0.1438,-0.2573,0.6138,171
1,-0.7316,-0.0561,0.6398,-0.1613,-0.3151,0.6072,171
1,-0.7071,-0.0684,0.6724,-0.169,-0.3641,0.6039,171
1,-0.6673,-0.1346,0.7204,-0.1766,-0.3924,0.5952,171
1,-0.6459,-0.1632,0.7285,-0.1581,-0.399,0.5908,171
1,-0.6459,-0.1755,0.7459,-0.1024,-0.4012,0.6007,171
1,-0.653,-0.2071,0.7428,-0.0457,-0.3968,0.6181,171
1,-0.6541,-0.2428,0.7326,0.0162,-0.4,0.6356,171
1,-0.651,-0.2183,0.7551,0.1221,-0.4012,0.6552,171
1,-0.6387,-0.2173,0.7765,0.1221,-0.4012,0.6552,171
1,-0.6275,-0.2224,0.7704,0.2289,-0.3924,0.6672,171
1,-0.6275,-0.2224,0.7704,0.3237,-0.3717,0.6596,171
1,-0.6082,-0.1561,0.7632,0.4492,-0.3368,0.6661,171
1,-0.6071,-0.1224,0.7469,0.5669,-0.3008,0.6694,171
1,-0.601,-0.1122,0.7153,0.6203,-0.2791,0.6835,171
1,-0.601,-0.105,0.6785,0.6574,-0.2779,0.7054,171
1,-0.5847,-0.0591,0.6377,0.7086,-0.2802,0.7293,171
1,-0.5765,-0.0408,0.6102,0.7544,-0.2911,0.7642,171
1,-0.5622,-0.0143,0.5989,0.785,-0.3096,0.7991,171
1,-0.5591,0.0112,0.5806,0.785,-0.3096,0.7991,171
1,-0.5632,0.0408,0.5898,0.8024,-0.3325,0.8307,171
1,-0.5632,0.0408,0.5898,0.8187,-0.3521,0.8668,171
1,-0.5663,0.0693,0.6122,0.8569,-0.3761,0.8973,171
1,-0.5693,0.0877,0.6296,0.8819,-0.387,0.9147,171
1,-0.5632,0.1377,0.6703,0.9103,-0.4,0.9234,171
1,-0.5612,0.1796,0.6918,0.9681,-0.4143,0.9321,171
1,-0.5632,0.2306,0.7133,1.0215,-0.424,0.9376,171
1,-0.5643,0.2847,0.7255,1.0455,-0.4208,0.942,171
1,-0.5704,0.3857,0.7388,1.0455,-0.4208,0.942,171
1,-0.5704,0.4061,0.7357,1.0314,-0.4143,0.9387,171
1,-0.5632,0.4061,0.7204,0.9812,-0.4077,0.9246,171
1,-0.5632,0.4061,0.7204,0.9027,-0.3891,0.8983,171
1,-0.5612,0.4081,0.703,0.8405,-0.3663,0.8689,171
1,-0.5438,0.4265,0.6581,0.8111,-0.3489,0.8329,171
1,-0.5581,0.4428,0.6551,0.7926,-0.3237,0.785,171
1,-0.5765,0.4459,0.6541,0.7566,-0.314,0.7392,171
1,-0.5989,0.4398,0.6408,0.6955,-0.3183,0.7054,171
1,-0.6285,0.4347,0.6173,0.64,-0.3336,0.6846,171
1,-0.6694,0.4337,0.5989,0.6039,-0.363,0.6705,171
1,-0.6724,0.4265,0.6132,0.6039,-0.363,0.6705,171
1,-0.6724,0.4265,0.6132,0.5679,-0.3903,0.6476,171
1,-0.6806,0.4153,0.6132,0.5276,-0.4132,0.6312,171
1,-0.6653,0.4163,0.6663,0.5135,-0.4382,0.628,171
1,-0.6622,0.3622,0.6765,0.4666,-0.4578,0.6225,171
1,-0.6489,0.299,0.6612,0.4077,-0.4916,0.628,171
1,-0.6285,0.2918,0.6592,0.4469,-0.5211,0.6465,171
1,-0.6183,0.2867,0.6694,0.5059,-0.5461,0.6759,171
1,-0.6173,0.2693,0.6592,0.5091,-0.5843,0.701,171
1,-0.6143,0.3387,0.7153,0.5833,-0.6236,0.7359,171
1,-0.6061,0.449,0.7663,0.5833,-0.6236,0.7359,171
1,-0.6061,0.449,0.7663,0.6814,-0.6497,0.7762,171
1,-0.5459,0.4897,0.7806,0.6421,-0.6737,0.809,171
1,-0.5163,0.4347,0.7418,0.5287,-0.6879,0.8449,171
1,-0.4979,0.4153,0.6949,0.4492,-0.7043,0.8994,171
1,-0.5051,0.4081,0.7194,0.4807,-0.6966,0.9441,171
1,-0.4255,0.2928,0.4857,0.4252,-0.702,0.9845,171
1,-0.451,0.353,0.5193,0.4786,-0.7304,1.0335,171
1,-0.4561,0.3387,0.5418,0.5505,-0.7773,1.052,171
1,-0.4377,0.2245,0.4938,0.4721,-0.8613,1.0345,171
1,-0.355,0.3,0.7561,0.665,-0.9311,1.027,171
1,-0.2612,0.449,0.9959,0.665,-0.9311,1.027,171
1,-0.2612,0.449,0.9959,1.04,-0.9692,0.9943,171
1,-0.1663,0.6541,1.2367,1.3956,-0.9692,0.9202,171
1,-0.1122,0.8326,1.3541,1.6539,-0.8798,0.7762,171
1,-0.0418,0.9571,1.199,1.7771,-0.7566,0.6039,171
2,0.0989,1.0428,0.8602,1.945,-0.7348,0.5015,171
2,-0.0541,0.8806,0.8734,1.9429,-0.738,0.4448,171
2,0.152,1.0714,0.6153,1.8174,-0.6291,0.5799,171
2,-0.0969,1.451,0.7459,1.7171,-0.5156,0.4578,171
2,0.0643,1.4449,0.8296,1.3485,-0.4502,0.1842,171
2,0.0887,1.5143,0.8255,1.3485,-0.4502,0.1842,171
2,0.1163,1.6296,0.9142,0.9103,-0.3609,-0.0828,171
2,0.1163,1.6296,0.9142,0.4927,-0.1984,-0.0435,171
2,0.0724,1.5122,0.9296,-0.157,-0.0414,-0.0097,171
2,0.1204,1.2357,0.8632,-0.9452,0.0501,-0.1406,171
2,0.0857,0.999,0.7612,-1.4664,0.1079,-0.2791,171
2,0.0786,0.7928,0.7326,-1.5743,0.1744,-0.2966,171
2,-0.102,0.6541,0.7449,-1.3868,0.2834,-0.2888,171
2,-0.202,0.5786,0.6938,-1.2134,0.3575,-0.4307,171
2,-0.1847,0.5336,0.7051,-1.2134,0.3575,-0.4307,171
2,-0.2265,0.5724,0.7347,-1.0314,0.3575,-0.6606,171
2,-0.3561,0.5102,0.7408,-0.8111,0.3794,-0.7762,171
2,-0.3561,0.5102,0.7408,-0.7642,0.399,-0.7981,171
2,-0.4469,0.451,0.7173,-0.7903,0.4023,-0.8067,171
2,-0.5132,0.4969,0.8204,-0.6955,0.3685,-0.7762,171
2,-0.5367,0.4724,0.8979,-0.6791,0.3193,-0.7598,171
2,-0.5469,0.4969,0.8643,-0.6476,0.3063,-0.7632,171
2,-0.5193,0.5989,0.8714,-0.4655,0.3151,-0.7653,171
2,-0.5102,0.6673,0.8643,-0.4175,0.3128,-0.7783,171
2,-0.4438,0.5031,0.8245,-0.7392,0.231,-0.8307,171
2,-0.4102,0.4816,0.8469,-0.7283,0.2115,-0.8449,171
2,-0.3775,0.4571,0.8469,-0.6705,0.2201,-0.858,171
2,-0.3336,0.4816,0.8591,-0.6705,0.2201,-0.858,171
2,-0.3336,0.4816,0.8591,-0.6148,0.2474,-0.87,171
2,-0.301,0.4877,0.8694,-0.5974,0.2737,-0.8787,171
2,-0.2928,0.4673,0.8561,-0.6432,0.3107,-0.8863,171
2,-0.2877,0.45,0.8479,-0.6672,0.3641,-0.8853,171
2,-0.3132,0.4806,0.8571,-0.6442,0.4252,-0.8819,171
2,-0.3173,0.4581,0.8316,-0.665,0.4687,-0.8798,171
2,-0.3193,0.4296,0.7918,-0.7205,0.5026,-0.8853,171
2,-0.3448,0.4306,0.7663,-0.7304,0.532,-0.8853,171
2,-0.3704,0.4398,0.7306,-0.7293,0.5647,-0.8853,171
2,-0.3918,0.4275,0.7183,-0.7293,0.5647,-0.8853,171
2,-0.3979,0.4142,0.7183,-0.7686,0.5789,-0.8874,171
2,-0.3979,0.4142,0.7183,-0.8252,0.581,-0.883,171
2,-0.4183,0.4,0.7142,-0.8983,0.5723,-0.8722,171
2,-0.4326,0.3224,0.6928,-0.9605,0.5757,-0.8569,171
2,-0.4581,0.2898,0.6867,-0.9954,0.5713,-0.8307,171
2,-0.4551,0.2438,0.6816,-1.0324,0.5702,-0.7958,171
2,-0.4622,0.1928,0.6785,-1.0543,0.5647,-0.7435,171
2,-0.4836,0.1071,0.6938,-1.0357,0.569,-0.6672,171
2,-0.4949,0.0816,0.703,-0.9877,0.5745,-0.5843,171
2,-0.5122,0.0602,0.704,-0.9877,0.5745,-0.5843,171
2,-0.5347,0.0408,0.702,-0.9147,0.5799,-0.5015,171
2,-0.5347,0.0408,0.702,-0.8242,0.5865,-0.4273,171
2,-0.5755,0.0643,0.6949,-0.7283,0.5898,-0.3609,171
2,-0.5684,0.0918,0.7163,-0.6356,0.5854,-0.2943,171
2,-0.5928,0.1173,0.7326,-0.5919,0.5778,-0.231,171
2,-0.602,0.2081,0.7673,-0.5996,0.5604,-0.1591,171
2,-0.5898,0.1571,0.7336,-0.6585,0.5331,-0.0937,171
2,-0.5908,0.2296,0.7775,-0.6083,0.5156,-0.0282,171
2,-0.652,0.2673,0.7816,-0.6106,0.496,0.0185,170
2,-0.6357,0.199,0.7663,-0.6106,0.496,0.0185,170
2,-0.6765,0.1694,0.7357,-0.7751,0.4536,0.0392,170
2,-0.6765,0.1694,0.7357,-0.8329,0.4219,0.0523,170
2,-0.6387,0.1041,0.7194,-0.8361,0.388,0.0664,170
2,-0.6346,0.0204,0.6847,-0.8994,0.3521,0.0774,170
2,-0.6245,-0.0418,0.6642,-0.8929,0.3205,0.1123,170
2,-0.6,-0.1102,0.6653,-0.8504,0.2856,0.1787,170
2,-0.602,-0.1703,0.6469,-0.8481,0.2453,0.2464,170
2,-0.5959,-0.2183,0.6387,-0.81,0.2039,0.3314,170
2,-0.5969,-0.2581,0.6408,-0.7119,0.1602,0.4088,170
2,-0.6102,-0.3081,0.6612,-0.7119,0.1602,0.4088,170
2,-0.6102,-0.3081,0.6612,-0.5887,0.1133,0.4437,170
2,-0.6112,-0.3193,0.6898,-0.4393,0.0654,0.4307,170
2,-0.6112,-0.3193,0.6898,-0.2617,0.0196,0.3891,170
2,-0.6,-0.3,0.7061,-0.0763,-0.0141,0.363,170
2,-0.5939,-0.2357,0.7306,0.0686,-0.0381,0.3532,170
2,-0.5877,-0.2234,0.7265,0.1558,-0.0664,0.3717,170
2,-0.5847,-0.2051,0.7306,0.255,-0.0774,0.3891,170
2,-0.5928,-0.1571,0.7724,0.3695,-0.0763,0.4044,170
2,-0.601,-0.1592,0.7724,0.4349,-0.0763,0.4208,170
2,-0.6102,-0.1316,0.7551,0.5156,-0.0708,0.4328,170
2,-0.6102,-0.1316,0.7551,0.5156,-0.0708,0.4328,170
2,-0.6245,-0.0632,0.7499,0.6442,-0.0545,0.4469,170
2,-0.6408,0.0224,0.7051,0.7086,-0.0599,0.4633,170
2,-0.6469,0.049,0.6816,0.726,-0.0828,0.471,170
2,-0.6398,0.0796,0.6703,0.7369,-0.1123,0.4927,170
2,-0.6326,0.1,0.653,0.726,-0.1526,0.5112,170
2,-0.6418,0.1479,0.6398,0.7086,-0.1951,0.5408,170
2,-0.6428,0.1592,0.6439,0.6944,-0.2354,0.5734,170
2,-0.652,0.1877,0.653,0.6966,-0.2682,0.5952,170
2,-0.651,0.2173,0.6703,0.6988,-0.2954,0.6116,170
2,-0.6408,0.2388,0.6663,0.6988,-0.2954,0.6116,170
2,-0.6408,0.2388,0.6663,0.6846,-0.3183,0.6192,170
2,-0.6326,0.2551,0.6683,0.6879,-0.3281,0.6247,170
2,-0.6285,0.2745,0.6703,0.6999,-0.3314,0.6236,170
2,-0.6255,0.2867,0.6592,0.6911,-0.3489,0.6203,170
2,-0.6183,0.2969,0.6326,0.6846,-0.3609,0.6203,170
2,-0.6183,0.303,0.6265,0.6846,-0.3794,0.6138,170
2,-0.6194,0.3091,0.6214,0.6791,-0.4023,0.6072,170
2,-0.6285,0.3132,0.6153,0.6814,-0.4197,0.6062,170
2,-0.6346,0.3479,0.6265,0.6944,-0.4252,0.5996,170
2,-0.6357,0.3653,0.6306,0.6944,-0.4252,0.5996,170
2,-0.6285,0.3632,0.6275,0.6978,-0.4328,0.6028,170
2,-0.6285,0.3632,0.6275,0.6737,-0.4568,0.6039,170
2,-0.6204,0.351,0.6367,0.6312,-0.483,0.6257,170
2,-0.6316,0.3234,0.6816,0.5865,-0.5145,0.6617,170
2,-0.6337,0.3439,0.7163,0.5919,-0.5429,0.6999,170
2,-0.6316,0.3704,0.749,0.6301,-0.5625,0.7359,170
2,-0.6173,0.3765,0.7581,0.6377,-0.5757,0.7554,170
2,-0.5765,0.4081,0.7571,0.6454,-0.5843,0.7751,170
2,-0.5591,0.4224,0.7479,0.6486,-0.6083,0.7947,170
2,-0.5326,0.3979,0.7245,0.6486,-0.6083,0.7947,170
3,-0.5132,0.3541,0.7153,0.6018,-0.6442,0.8067,170
3,-0.5132,0.3541,0.7153,0.5582,-0.6999,0.8252,170
3,-0.451,0.2377,0.6826,0.5429,-0.7588,0.8569,170
3,-0.4153,0.2663,0.703,0.6062,-0.8067,0.8994,170
3,-0.3857,0.3286,0.752,0.7184,-0.8427,0.9517,170
3,-0.3286,0.3724,0.7663,0.7544,-0.8548,0.9822,170
3,-0.2428,0.4153,0.8081,0.7926,-0.8481,0.9801,170
3,-0.1908,0.4438,0.801,0.8361,-0.8199,0.9343,170
3,-0.1775,0.504,0.8122,0.8929,-0.7697,0.8809,170
3,-0.1765,0.501,0.8102,0.8929,-0.7697,0.8809,170
3,-0.1214,0.2469,0.9663,0.797,-0.7392,0.8111,170
3,-0.1214,0.2469,0.9663,0.6411,-0.7403,0.738,170
3,-0.0602,0.2163,1.1551,0.7861,-0.7239,0.6508,170
3,0.0275,0.3428,1.3816,1.2691,-0.652,0.6062,170
3,0.102,0.4775,1.353,1.8327,-0.507,0.508,170
3,0.0265,0.9612,1.0775,2.3942,-0.3445,0.4044,170
3,-0.0214,1.2061,0.9816,2.6972,-0.2682,0.2016,170
3,-0.1255,1.0948,0.7683,2.5566,-0.2573,-0.2638,170
3,-0.0286,1.3152,0.5214,2.5152,-0.2943,-0.3663,170
3,0.0051,1.7347,0.7061,2.5152,-0.2943,-0.3663,170
3,0.0051,1.7347,0.7061,2.4639,-0.2049,-0.6007,170
3,0.1357,1.9877,0.952,1.6692,-0.1089,-0.5353,170
3,0.0408,1.9183,0.9663,0.5004,0.0915,-0.4851,170
3,-0.0051,1.6306,0.8785,-0.5669,0.2289,-0.5789,170
3,-0.0786,1.2714,0.8561,-0.9431,0.3161,-0.7327,170
3,-0.052,0.8673,0.7142,-1.1218,0.4109,-1.0553,170
3,-0.1459,0.7612,0.6459,-1.0303,0.4426,-1.1654,170
3,-0.1877,0.6082,0.5775,-0.9343,0.4229,-1.3366,170
3,-0.2397,0.5704,0.5693,-0.8132,0.4414,-1.449,170
3,-0.2877,0.5541,0.6091,-0.7447,0.4361,-1.5209,170
3,-0.3143,0.5275,0.6785,-0.7468,0.4414,-1.5459,170
3,-0.3979,0.3908,0.754,-0.7489,0.4698,-1.5677,170
3,-0.4398,0.3602,0.7959,-0.7489,0.4698,-1.5677,170
3,-0.4745,0.3489,0.8234,-0.6432,0.495,-1.5438,170
3,-0.4745,0.3489,0.8234,-0.4666,0.52,-1.5078,170
3,-0.5704,0.3336,0.7816,-0.2802,0.5408,-1.498,170
3,-0.6061,0.3704,0.7438,-0.0664,0.5473,-1.4576,170
3,-0.6428,0.3898,0.6806,0.0839,0.5396,-1.3769,170
3,-0.6949,0.3653,0.5836,0.1373,0.5156,-1.2745,170
3,-0.6632,0.3969,0.5469,0.2115,0.4721,-1.1535,170
3,-0.6112,0.452,0.5112,0.3336,0.4349,-1.0128,170
3,-0.5398,0.549,0.4673,0.5112,0.4055,-0.8809,170
3,-0.4734,0.6592,0.4377,0.5112,0.4055,-0.8809,170
3,-0.3796,0.8143,0.4367,0.6148,0.4044,-0.7522,170
3,-0.3796,0.8143,0.4367,0.5877,0.4012,-0.64,170
3,-0.3612,0.8755,0.45,0.4992,0.4153,-0.5538,170
3,-0.3479,0.9633,0.4683,0.4393,0.4448,-0.483,170
3,-0.3265,1.0438,0.4622,0.4197,0.507,-0.4546,170
3,-0.3428,1.2051,0.3459,0.3674,0.5908,-0.4786,170
3,-0.3347,1.2918,0.2836,0.2495,0.6574,-0.5244,170
3,-0.3204,1.4142,0.2918,0.0425,0.6934,-0.5679,170
3,-0.35,1.5031,0.3347,0.0425,0.6934,-0.5679,170
3,-0.5204,1.301,0.3081,-0.3422,0.7577,-0.5942,170
3,-0.5755,1.1694,0.2867,-0.9365,0.8296,-0.5549,170
3,-0.5755,1.1694,0.2867,-1.3868,0.8361,-0.5635,170
3,-0.6214,1.1367,0.3102,-1.4544,0.8351,-0.6203,170
3,-0.6703,1.1255,0.3347,-1.5526,0.8275,-0.6846,170
3,-0.7469,0.9285,0.2561,-1.8338,0.7882,-0.6923,170
3,-0.7347,0.7877,0.2826,-2.0999,0.6846,-0.6737,170
3,-0.8,0.7296,0.2479,-2.2644,0.6345,-0.5887,170
3,-0.8336,0.6653,0.2561,-2.3822,0.581,-0.4807,170
3,-0.9316,0.6,0.4551,-2.4258,0.5593,-0.4578,170
3,-1.2357,0.5908,0.0571,-2.4258,0.5593,-0.4578,170
3,-1.2357,0.5908,0.0571,-2.4824,0.5669,-0.4633,170
3,-1.0684,0.7592,0.8296,-2.7191,0.1003,-0.4023,170
3,-1.3806,0.8765,0.4163,-2.8586,0.0131,-0.4721,170
3,-1.3377,0.454,0.2979,-3.3776,-0.2583,-0.5767,170
3,-1.1275,0.1132,0.1285,-3.7908,-0.4611,-0.6421,170
3,-0.8367,0.0449,-0.0071,-3.8847,-0.6333,-0.5299,170
3,-0.6653,0.0051,0.2479,-3.8584,-0.6432,-0.3979,170
3,-0.7265,-0.0908,0.4275,-3.9784,-0.52,-0.3859,170
3,-0.603,-0.6714,0.3112,-4.2989,-0.5778,-0.4655,170
3,-0.3387,-1.2122,0.5612,-4.2989,-0.5778,-0.4655,170
3,-0.3387,-1.2122,0.5612,-3.9544,-0.5931,-0.4884,170
3,-0.4479,-1.3775,0.5663,-3.4932,-0.4622,-0.0425,170
3,-0.2979,-1.2888,0.7234,-3.1977,-0.7064,0.4589,170
3,-0.3,-1.3193,0.8704,-2.693,-0.726,0.738,170
3,-0.4612,-1.4938,0.6796,-2.2678,-0.5931,0.689,170
3,-0.3387,-1.6357,0.7173,-1.5645,-0.5505,0.1428,170
3,-0.1194,-1.3928,0.7877,-0.5984,-0.2812,-0.6541,170
3,-0.1408,-1.1622,0.9592,0.2027,-0.0599,-0.8405,170
3,-0.1622,-1.1439,0.902,0.2987,0.0643,-1.003,170
3,-0.0571,-1.201,0.8745,0.2987,0.0643,-1.003,170
3,-0.3102,-1.152,0.9398,0.2039,0.1112,-0.9834,170
3,-0.3102,-1.152,0.9398,0.1875,0.2049,-0.6225,170
3,-0.3622,-1.4347,0.801,0.0599,0.2485,-0.4655,170
3,-0.4877,-1.651,0.6837,0.4229,0.3248,-0.3597,170
3,-0.6571,-1.5428,0.6551,1.3181,0.399,-0.2376,170
3,-0.7898,-1.002,0.6908,2.1892,0.4546,-0.1886,170
3,-0.9071,-0.8347,0.7255,2.6057,0.4437,-0.1329,170
3,-0.9694,-0.7153,0.6703,2.767,0.3271,-0.2495,170
3,-0.9979,-0.5796,0.65,2.9927,0.1919,-0.2932,170
3,-1.0989,-0.0561,0.6653,2.9927,0.1919,-0.2932,170
3,-1.2224,0.252,0.5622,3.189,0.037,-0.23,170
3,-1.2224,0.252,0.5622,3.1628,-0.073,-0.1864,170
3,-1.1673,0.5122,0.5643,2.9481,-0.2191,-0.1678,170
3,-0.703,0.3898,0.4734,2.3985,-0.3924,-0.0566,170
3,-0.7051,0.4918,0.4714,1.656,-0.4404,0.2747,170
3,-0.8887,1.2204,0.3214,1.281,-0.4524,0.6442,170
3,-0.5816,0.8143,0.4857,1.1055,-0.5877,1.0095,170
3,-0.499,0.7173,0.6551,0.6672,-0.6116,0.9997,170
3,-0.453,0.7326,0.852,0.3924,-0.6999,0.9485,170
3,-0.3336,0.5908,0.8694,0.3924,-0.6999,0.9485,170
3,-0.3612,0.4714,0.8398,0.0294,-0.6846,0.8634,170
3,-0.2836,0.3152,0.9051,-0.2388,-0.6072,0.7827,170
3,-0.2836,0.3152,0.9051,-0.2344,-0.5341,0.665,170
3,-0.2531,0.2092,0.8969,-0.2539,-0.4338,0.6007,170
3,-0.2459,0.0275,0.8643,-0.3542,-0.2998,0.5745,170
4,-0.3326,-0.105,0.7938,-0.2932,-0.1449,0.6803,170
4,-0.5326,-0.1714,0.7459,-0.0992,-0.0282,0.7773,170
4,-0.6143,-0.1918,0.701,0.1755,-0.0065,0.7533,170
4,-0.6428,-0.3367,0.6561,0.4481,-0.0305,0.5635,170
4,-0.5755,-0.2153,0.601,0.4481,-0.0305,0.5635,170
4,-0.5755,-0.2153,0.601,0.9005,-0.0349,0.5702,170
4,-0.7449,0.1082,0.5857,1.1665,-0.0392,0.6825,170
4,-0.7449,0.1082,0.5857,1.1862,-0.1003,0.7413,170
4,-0.7561,0.1153,0.5745,1.1513,-0.1547,0.7838,170
4,-0.8041,0.1775,0.5724,1.2516,-0.2027,0.8242,170
4,-0.7857,0.2969,0.6337,1.3268,-0.2758,0.8689,170
4,-0.7275,0.2918,0.5806,1.2876,-0.3302,0.8897,170
4,-0.7245,0.3469,0.5898,1.354,-0.3848,0.9496,170
4,-0.6632,0.4428,0.65,1.3704,-0.4601,0.9648,170
4,-0.5449,0.4816,0.704,1.2886,-0.5299,0.9572,170
4,-0.5081,0.4847,0.7092,1.2886,-0.5299,0.9572,170
4,-0.5081,0.4847,0.7092,1.2287,-0.5669,0.9746,170
4,-0.452,0.5,0.7194,1.2079,-0.581,0.9714,170
4,-0.4092,0.5265,0.7245,1.2037,-0.5679,0.9507,170
4,-0.3091,0.5153,0.7714,1.1654,-0.5396,0.9168,170
4,-0.2806,0.4806,0.7438,1.111,-0.5059,0.8809,170
4,-0.2397,0.5071,0.6724,1.172,-0.4578,0.8176,170
4,-0.2581,0.5704,0.6806,1.2113,-0.4229,0.7827,170
4,-0.2592,0.4938,0.6735,1.0749,-0.4143,0.7609,170
4,-0.2877,0.3928,0.7306,0.942,-0.4164,0.7283,170
4,-0.2326,0.3,0.853,0.942,-0.4164,0.7283,170
4,-0.2326,0.3,0.853,1.015,-0.4219,0.6596,170
4,-0.1785,0.8683,1.0388,1.8916,-0.2693,0.5974,170
4,-0.2122,1.0479,0.8837,2.2808,-0.1831,0.6213,170
4,-0.2122,1.0479,0.8837,2.4465,-0.1581,0.4884,170
4,-0.151,1.1826,0.5724,2.6133,-0.1581,0.1798,170
4,-0.0704,1.2551,0.6326,2.7082,-0.1449,0.1744,170
4,-0.2826,1.5428,0.5806,2.5589,-0.0523,0.049,170
4,-0.2816,1.6806,0.6683,2.1848,-0.0305,-0.3019,170
4,-0.251,1.8928,0.6806,1.6867,-0.0196,-0.5635,170
4,-0.2122,1.9224,0.9469,0.9288,0.1047,-0.581,170
4,-0.3265,1.6775,0.7663,0.9288,0.1047,-0.581,170
4,-0.2285,1.35,0.6316,-0.1471,0.2802,-0.508,170
4,-0.2938,1.1877,0.4979,-0.8231,0.3216,-0.6291,170
4,-0.2938,1.1877,0.4979,-0.8962,0.3357,-0.6726,170
4,-0.2347,0.9683,0.4285,-0.7697,0.2888,-0.8242,170
4,-0.2826,1.0051,0.4663,-0.6181,0.2507,-1.0019,170
4,-0.2163,0.9642,0.5081,-0.7163,0.1972,-1.2003,170
4,-0.2183,0.8755,0.5275,-0.9027,0.1886,-1.2657,170
4,-0.251,0.7347,0.5959,-0.9725,0.2354,-1.2985,170
4,-0.2857,0.7133,0.6398,-0.9616,0.3063,-1.3149,170
4,-0.2888,0.6826,0.6724,-0.9801,0.375,-1.329,170
4,-0.3051,0.5826,0.6887,-0.9801,0.375,-1.329,170
4,-0.3051,0.5826,0.6887,-1.0564,0.4404,-1.3497,170
4,-0.3204,0.5316,0.6755,-1.136,0.4851,-1.341,170
4,-0.3428,0.4785,0.6703,-1.1818,0.5408,-1.2909,170
4,-0.3877,0.4071,0.6316,-1.2254,0.5713,-1.2407,170
4,-0.4479,0.3112,0.6755,-1.2374,0.5833,-1.172,170
4,-0.4438,0.2898,0.7051,-1.1982,0.5723,-1.1066,170
4,-0.4449,0.2786,0.6928,-1.0902,0.5952,-1.0629,170
4,-0.4734,0.2857,0.6694,-0.9365,0.6291,-1.0488,170
4,-0.5051,0.3051,0.6449,-0.8231,0.6562,-1.0509,170
4,-0.5306,0.3214,0.6337,-0.8231,0.6562,-1.0509,170
4,-0.5306,0.3214,0.6337,-0.7903,0.6781,-1.0226,170
4,-0.552,0.3143,0.6408,-0.8252,0.6978,-0.9681,170
4,-0.5745,0.2857,0.653,-0.8678,0.7184,-0.9082,170
4,-0.6449,0.2551,0.6765,-0.8373,0.7489,-0.8439,170
4,-0.6887,0.2693,0.6938,-0.7424,0.7827,-0.7718,170
4,-0.7377,0.2949,0.6928,-0.664,0.8078,-0.6923,170
4,-0.7816,0.3234,0.6755,-0.6148,0.81,-0.5931,170
4,-0.8816,0.3949,0.6367,-0.5974,0.8056,-0.4884,170
4,-0.9367,0.4265,0.6122,-0.6203,0.7882,-0.3783,170
4,-0.9847,0.4724,0.5806,-0.6825,0.7598,-0.2539,170
4,-1.0163,0.5265,0.5541,-0.6825,0.7598,-0.2539,170
4,-1.0163,0.5265,0.5541,-0.7861,0.6966,-0.1177,170
4,-1.0306,0.6357,0.4949,-0.9626,0.6127,-0.0087,170
4,-1.0163,0.6581,0.4908,-1.2157,0.5026,0.0457,170
4,-0.9867,0.6346,0.4969,-1.5187,0.3641,0.0664,170
4,-0.9428,0.5826,0.5316,-1.8153,0.2147,0.0479,170
4,-0.8234,0.4347,0.5551,-2.0246,0.1013,0.0087,170
4,-0.7581,0.3591,0.552,-2.139,0.0305,-0.0457,170
4,-0.7081,0.3224,0.5469,-2.1968,-0.0141,-0.0948,170
4,-0.651,0.3091,0.5663,-2.2754,-0.0566,-0.1438,170
4,-0.5469,0.1826,0.5551,-2.2754,-0.0566,-0.1438,170
4,-0.4897,0.0775,0.5704,-2.429,-0.0883,-0.1886,170
4,-0.4897,0.0775,0.5704,-2.5774,-0.1057,-0.1962,170
4,-0.3632,-0.0295,0.5877,-2.7845,-0.0969,-0.1329,170
4,-0.3489,-0.1367,0.5786,-3.0222,-0.025,0.0228,170
4,-0.3643,-0.1296,0.601,-3.1749,0.0152,0.1711,170
4,-0.4357,-0.5847,0.7438,-3.3515,0.1013,0.1373,170
4,-0.3132,-0.9061,0.6408,-3.2947,0.0925,0.0087,170
4,-0.2397,-1.1877,0.6867,-2.9404,0.1646,0.0719,170
4,-0.1806,-1.2724,0.7418,-2.5043,0.2844,0.4393,170
4,-0.2051,-1.3316,0.802,-2.5043,0.2844,0.4393,170
4,-0.3755,-1.5398,0.7112,-2.0181,0.4208,0.7228,170
4,-0.3755,-1.5398,0.7112,-1.4315,0.5625,0.5516,170
4,-0.5684,-1.5367,0.4428,-0.6617,0.4982,0.0152,170
4,-0.4642,-1.2888,0.6571,0.2289,0.6312,-0.5473,170
4,-0.5581,-1.25,0.6735,0.7522,0.7708,-0.7554,170
4,-0.6744,-1.3184,0.6724,0.9441,0.7947,-0.8798,170
4,-0.8265,-1.3959,0.699,1.136,0.7489,-0.664,170
4,-1.2234,-1.3846,0.7418,1.3639,0.6574,-0.2333,170
4,-1.2898,-1.3816,0.5765,1.3639,0.6574,-0.2333,170
4,-1.4316,-1.1632,0.4734,1.8359,0.5418,0.024,170
4,-1.5143,-0.8439,0.3846,2.7987,0.4786,0.2922,170
4,-1.5143,-0.8439,0.3846,3.6938,0.3903,0.3761,170
4,-1.5724,0.0908,0.102,4.3218,0.2388,0.1112,170
4,-1.4132,0.3398,0.0857,4.3634,0.0032,-0.4044,170
4,-1.4347,0.5245,-0.0786,4.1037,-0.267,-0.7861,170
4,-1.151,0.4959,-0.1041,3.2752,-0.6442,-0.8765,170
4,-0.6826,1.1489,-0.1265,3.2817,-0.628,-0.1667,170
4,-0.8877,0.9765,0.2101,2.6995,-0.495,1.015,170
4,-0.6612,1.0755,0.4102,1.5242,-0.6749,1.3443,170
4,-0.601,0.6367,0.1439,1.5242,-0.6749,1.3443,170
4,-0.601,0.6367,0.1439,0.9877,-0.665,1.4881,170
5,-0.2755,0.5959,0.2949,1.3083,-0.6062,1.6888,170
5,-0.2755,0.5959,0.2949,1.3191,-0.6944,1.594,170
5,-0.2622,1.0704,0.5061,1.4925,-0.581,1.6049,170
5,-0.25,1.051,0.4163,1.3388,-0.388,1.462,170
5,-0.1744,1.151,0.4153,1.1121,-0.3859,1.4958,170
5,-0.2153,1.199,0.3857,0.8166,-0.2922,1.5362,170
5,-0.0684,1.2133,0.3755,0.5767,-0.2954,1.5067,170
5,-0.1091,1.2255,0.4928,0.2278,-0.2191,1.4031,170
5,-0.1602,1.1479,0.5255,0.2278,-0.2191,1.4031,170
5,-0.1602,1.1479,0.5255,-0.0795,-0.0555,1.2909,170
5,-0.2786,1.1765,0.5755,-0.1057,0.0925,1.2505,170
5,-0.4,1.3816,0.6703,-0.1602,0.206,1.2003,170
5,-0.605,1.35,0.6296,-0.6323,0.3302,1.0389,170
5,-0.7693,1.2622,0.5806,-1.0946,0.3935,0.8994,170
5,-0.9347,1.2928,0.6285,-1.2745,0.3422,0.7435,170
5,-1.1367,1.3286,0.6928,-1.5743,0.2344,0.507,170
5,-1.5102,0.9438,0.6337,-2.065,0.037,0.2376,170
5,-1.4847,0.6091,0.6143,-2.416,-0.218,-0.0305,170
5,-1.5306,0.3275,0.3765,-2.416,-0.218,-0.0305,170
5,-1.2979,0.0306,0.4173,-2.5251,-0.3663,-0.181,170
5,-1.2979,0.0306,0.4173,-2.4999,-0.628,-0.1787,170
5,-1.0469,-0.3846,0.4673,-2.4269,-0.7609,-0.024,170
5,-0.9255,-0.353,0.4745,-2.2993,-0.809,0.2278,170
5,-1.0408,-0.9224,0.5877,-1.9624,-0.8973,0.2714,170
5,-0.6877,-1.3408,0.5469,-1.1927,-1.04,0.4208,170
5,-0.602,-0.6744,0.9459,-0.4044,-1.0629,0.7609,170
5,-0.553,-0.6234,1.001,0.1602,-1.0041,0.7773,170
5,-0.3408,-0.4867,0.9377,0.9975,-0.8775,0.3554,170
5,-0.2183,-0.1887,0.8734,1.2985,-0.7642,0.3521,170
5,-0.1877,-0.1826,0.7459,1.4675,-0.6312,0.3227,170
5,-0.2367,-0.049,0.7459,1.7096,-0.5112,0.4263,170
5,-0.2745,0.1479,0.7306,1.7096,-0.5112,0.4263,170
5,-0.3785,0.3632,0.7051,1.7171,-0.4502,0.375,170
5,-0.3785,0.3632,0.7051,1.6659,-0.4361,0.2093,170
5,-0.4296,0.3898,0.7245,1.6223,-0.4197,0.0969,170
5,-0.3979,0.3541,0.8122,1.5013,-0.4284,0.1013,170
5,-0.3939,0.3326,1.0183,1.4358,-0.4187,0.1461,170
5,-0.3122,0.2418,1.1714,1.6789,-0.3924,0.0469,170
5,-0.251,0.3939,1.1071,2.2449,-0.314,-0.0392,170
5,-0.249,0.5928,1.0183,2.6591,-0.231,-0.1428,170
5,-0.2847,0.652,0.8724,2.7659,-0.1798,-0.3619,170
5,-0.2847,0.652,0.8724,2.7659,-0.1798,-0.3619,170
5,-0.3928,1.2377,0.6071,2.995,-0.1701,-0.713,170
5,-0.4816,1.1459,0.7336,3.0179,-0.1591,-1.1545,170
5,-0.3357,1.4469,0.4601,2.6984,-0.2714,-1.4292,170
5,-0.0255,1.6071,0.8989,2.5032,-0.061,-1.6408,170
5,0.102,1.8326,1.1755,1.5034,0.0053,-1.184,170
5,-0.3867,1.5551,0.8734,0.0664,0.2779,-0.9507,170
5,-0.102,1.1479,0.7745,-0.8514,0.3489,-0.8754,170
5,-0.202,0.9347,0.6,-0.8973,0.5265,-0.6181,170
5,-0.449,0.7602,0.5071,-0.6857,0.6225,-0.6715,170
5,-0.3347,0.703,0.4765,-0.6857,0.6225,-0.6715,170
5,-0.3347,0.703,0.4765,-0.5211,0.5713,-1.0357,170
5,-0.3459,0.8071,0.5479,-0.3859,0.5505,-1.1982,170
5,-0.4051,0.8408,0.6041,-0.6356,0.5723,-1.2232,170
5,-0.4836,0.5234,0.4806,-0.8078,0.6236,-1.2254,170
5,-0.5459,0.5581,0.5684,-0.6966,0.6574,-1.1894,170
5,-0.5306,0.5786,0.6357,-0.6923,0.6803,-1.1654,170
5,-0.5367,0.5336,0.6153,-0.714,0.7228,-1.1589,170
5,-0.5847,0.5255,0.5898,-0.6562,0.7773,-1.1425,170
5,-0.6082,0.5469,0.601,-0.6803,0.8046,-1.1121,170
5,-0.6439,0.5398,0.5939,-0.6803,0.8046,-1.1121,170
5,-0.7,0.4897,0.5796,-0.7926,0.822,-1.0782,170
5,-0.7,0.4897,0.5796,-0.8754,0.8285,-1.0368,170
5,-0.7153,0.4745,0.5632,-0.9114,0.8384,-0.9812,170
5,-0.7479,0.4714,0.5326,-0.9528,0.8504,-0.9278,170
5,-0.7786,0.449,0.5214,-1.0051,0.8405,-0.8809,170
5,-0.8459,0.4112,0.5092,-1.0652,0.822,-0.8067,170
5,-0.8755,0.3969,0.5031,-1.1152,0.7991,-0.7369,170
5,-0.9122,0.3928,0.5122,-1.148,0.7827,-0.6672,170
5,-0.9367,0.3979,0.5214,-1.197,0.7588,-0.6039,170
5,-0.9938,0.3643,0.4969,-1.197,0.7588,-0.6039,170
5,-1.0081,0.3571,0.4775,-1.281,0.7217,-0.544,170
5,-1.0081,0.3571,0.4775,-1.3595,0.6825,-0.4763,170
5,-1.0153,0.3459,0.4734,-1.4326,0.6257,-0.4099,170
5,-1.0295,0.3296,0.4694,-1.5318,0.5679,-0.3597,170
5,-0.999,0.3051,0.4592,-1.6364,0.4938,-0.3107,170
5,-0.9785,0.2836,0.4449,-1.7531,0.4187,-0.2703,170
5,-0.9408,0.25,0.4316,-1.8883,0.326,-0.2453,170
5,-0.9092,0.2092,0.4275,-2.0017,0.2388,-0.2213,170
5,-0.8152,0.1357,0.5408,-2.1457,0.0883,-0.1919,170
5,-0.8541,0.0367,0.4581,-2.1457,0.0883,-0.1919,170
5,-0.751,0.0,0.4979,-2.2459,0.0501,-0.1503,170
5,-0.751,0.0,0.4979,-2.2949,-0.025,-0.1123,170
5,-0.7265,-0.0755,0.4653,-2.2601,-0.0806,-0.0577,170
5,-0.6041,-0.1296,0.4724,-2.1631,-0.1221,-0.012,170
5,-0.5745,-0.1143,0.502,-2.1335,-0.1591,0.0883,170
5,-0.5438,-0.153,0.5245,-2.2481,-0.2039,0.1449,170
5,-0.5193,-0.2479,0.5316,-2.3429,-0.2507,0.1362,170
5,-0.4183,-0.3448,0.5979,-2.3059,-0.2768,0.1341,170
5,-0.3816,-0.4683,0.6357,-2.2296,-0.2649,0.0937,170
5,-0.3286,-0.5786,0.699,-2.2296,-0.2649,0.0937,170
5,-0.3286,-0.5786,0.699,-2.1533,-0.2191,0.1013,170
5,-0.2245,-0.8081,0.7918,-2.0507,-0.1428,0.1635,170
5,-0.2245,-0.8081,0.7918,-1.9254,-0.0631,0.1842,170
5,-0.1806,-0.9694,0.7867,-1.7237,0.061,0.2562,170
5,-0.1867,-1.0275,0.7826,-1.5133,0.1722,0.4426,170
5,-0.1785,-1.0816,0.8143,-1.2625,0.255,0.5299,170
5,-0.2428,-1.2234,0.7479,-0.8994,0.3302,0.4742,170
5,-0.3286,-1.3357,0.7142,-0.4229,0.4088,0.2966,170
5,-0.4601,-1.2918,0.6571,0.1253,0.545,-0.1123,170
5,-0.4367,-1.25,0.751,0.6857,0.6694,-0.3031,170
5,-0.4367,-1.25,0.751,0.6857,0.6694,-0.3031,170
5,-0.8683,-1.2255,0.9071,0.9702,0.7293,-0.3019,170
5,-1.053,-1.2336,0.8785,1.2243,0.6966,-0.1503,170
5,-1.2469,-1.1479,0.803,1.7029,0.664,0.074,170
5,-1.3643,-1.0275,0.6581,2.38,0.6312,0.218,170
5,-1.5316,-0.5816,0.3152,3.1301,0.5669,0.2638,170
5,-1.5622,-0.2673,0.204,3.6545,0.4338,0.049,170
5,-1.6806,0.2265,0.1041,3.7277,0.2147,-0.2136,170
6,-1.5796,0.5551,0.0724,3.4256,-0.0937,-0.5331,170
6,-1.0418,0.449,0.1204,2.8325,-0.3935,-0.3729,170
6,-0.8775,0.3898,0.2122,2.8325,-0.3935,-0.3729,170
6,-0.8775,0.3898,0.2122,2.2786,-0.495,0.1112,170
6,-1.2632,1.2602,0.0643,2.0791,-0.4862,0.7926,170
6,-0.9071,0.7499,0.3214,1.5013,-0.5309,1.0183,170
6,-0.8479,0.6581,0.3173,1.4358,-0.6432,1.0314,170
6,-0.6806,0.8387,0.3265,1.5318,-0.7108,1.0238,170
6,-0.7571,0.7938,0.4601,1.3159,-0.7086,1.0499,170
6,-0.4163,0.8918,0.5061,1.0095,-0.6421,1.0553,170
6,-0.4724,0.6837,0.4959,0.9397,-0.6541,0.8733,170
6,-0.4367,0.7214,0.4826,1.0009,-0.6148,0.9299,170
6,-0.4418,0.7388,0.501,1.0009,-0.6148,0.9299,170
6,-0.2928,0.7183,0.452,0.9648,-0.5745,1.0009,170
6,-0.2928,0.7183,0.452,0.8056,-0.4927,1.0597,170
6,-0.2316,0.7479,0.2531,0.8754,-0.388,1.1251,170
6,-0.2214,0.8653,0.2806,0.8296,-0.3281,1.2222,170
6,-0.1744,0.8898,0.2786,0.5211,-0.3019,1.28,170
6,-0.1489,0.8469,0.2877,0.3401,-0.2627,1.1949,170
6,-0.1408,0.9275,0.3765,0.3248,-0.1951,1.1633,170
6,-0.2214,1.0051,0.451,0.2453,-0.0763,1.1121,170
6,-0.2836,1.0306,0.4775,0.2453,-0.0763,1.1121,170
6,-0.4142,1.0255,0.4633,0.0435,0.0577,1.0194,170
6,-0.5163,1.0684,0.5031,-0.1657,0.1798,0.9212,170
6,-0.5163,1.0684,0.5031,-0.3685,0.2987,0.8176,170
6,-0.7081,1.1714,0.5591,-0.5974,0.3314,0.6944,170
6,-0.9367,1.2806,0.6143,-0.9692,0.2365,0.5145,170
6,-1.7265,0.8867,0.6612,-2.0093,-0.1907,-0.0316,170
6,-1.7632,0.4847,0.5286,-2.3298,-0.4458,-0.2844,170
6,-1.6622,0.2101,0.4092,-2.2142,-0.6672,-0.3914,170
6,-1.3806,-0.2306,0.4745,-2.1085,-0.8264,-0.4,170
6,-1.1683,-0.4949,0.3846,-2.2939,-0.9714,-0.1972,170
6,-1.0755,-0.4428,0.5173,-2.1718,-1.0532,0.1024,170
6,-1.2316,-1.3,0.4673,-1.5982,-1.0816,0.2844,170
6,-0.5765,-1.3316,0.8785,-1.5982,-1.0816,0.2844,170
6,-0.5765,-1.3316,0.8785,-0.5287,-1.33,0.6661,170
6,-0.7704,-0.7918,0.9357,0.0883,-1.2745,0.966,170
6,-0.6938,-0.7581,0.9918,0.6661,-1.2505,0.846,170
6,-0.4561,-0.5684,1.0438,1.2734,-1.1556,0.495,170
6,-0.3193,-0.0928,0.9979,1.8195,-1.0543,0.2878,170
6,-0.2836,0.0347,0.9112,2.0158,-0.9321,0.1047,170
6,-0.2133,0.0418,0.85,2.1096,-0.7915,0.0664,170
6,-0.2428,0.2336,0.8041,2.0343,-0.6978,0.0937,170
6,-0.3653,0.6581,0.7479,1.7989,-0.6661,-0.0402,170
6,-0.3704,0.6479,0.7173,1.7989,-0.6661,-0.0402,170
6,-0.3877,0.5898,0.7367,1.6211,-0.6486,-0.1558,170
6,-0.3877,0.5898,0.7367,1.3508,-0.6301,-0.0326,170
6,-0.3867,0.4979,0.8428,1.1001,-0.5942,0.1274,170
6,-0.3387,0.3387,1.2663,1.0587,-0.5734,0.0196,170
6,-0.2592,0.3724,1.2918,1.4326,-0.5036,-0.0828,170
6,-0.1714,0.4438,1.1398,1.921,-0.3924,-0.1919,170
6,-0.1765,0.5714,0.9387,2.2743,-0.2899,-0.2627,170
6,-0.2061,0.8591,0.6224,2.4334,-0.2201,-0.3717,170
6,-0.2377,0.9938,0.5969,2.4116,-0.1701,-0.6486,170
6,-0.2806,0.9581,0.6082,2.4116,-0.1701,-0.6486,170
6,-0.2285,1.1183,0.5693,2.21,-0.1188,-0.8722,170
6,-0.2122,1.5438,0.8959,2.1096,-0.073,-0.834,170
6,-0.2122,1.5438,0.8959,1.8971,0.1591,-1.1043,170
6,-0.199,1.651,1.0183,1.1567,0.2823,-1.1055,170
6,-0.1112,1.4785,0.9633,0.1875,0.3794,-1.052,170
6,-0.2428,1.2561,0.8418,-0.4393,0.4633,-0.9943,170
6,-0.302,0.85,0.603,-0.5723,0.5822,-1.0357,170
6,-0.3724,0.7959,0.5428,-0.399,0.6552,-1.1077,170
6,-0.3898,0.8326,0.5234,-0.2922,0.6835,-1.2123,170
6,-0.4316,0.8877,0.5295,-0.5004,0.6781,-1.2854,170
6,-0.45,0.6653,0.501,-0.5004,0.6781,-1.2854,170
6,-0.4806,0.5959,0.5051,-0.7817,0.6781,-1.293,170
6,-0.4806,0.5959,0.5051,-0.8242,0.7163,-1.2428,170
6,-0.5602,0.5684,0.5122,-0.834,0.7522,-1.2243,170
6,-0.5673,0.5071,0.5143,-0.9114,0.7609,-1.2003,170
6,-0.5755,0.4163,0.6061,-0.978,0.7653,-1.1316,170
6,-0.5959,0.3765,0.5796,-0.9353,0.8024,-1.0804,170
6,-0.6214,0.3816,0.5643,-0.8351,0.8449,-1.0488,170
6,-0.6449,0.4061,0.551,-0.7981,0.8722,-1.0629,170
6,-0.7092,0.4244,0.5449,-0.8395,0.8874,-1.0433,170
6,-0.7224,0.4041,0.5479,-0.8395,0.8874,-1.0433,170
6,-0.7571,0.3541,0.5183,-0.9582,0.8809,-0.9965,170
6,-0.7571,0.3541,0.5183,-1.0357,0.8897,-0.9288,170
6,-0.7949,0.3193,0.4959,-1.0215,0.8929,-0.8601,170
6,-0.8714,0.3163,0.4704,-1.016,0.883,-0.7991,170
6,-0.9275,0.2908,0.4571,-1.0553,0.8514,-0.7108,170
6,-0.9428,0.2908,0.451,-1.0553,0.8514,-0.7108,170
6,-0.9755,0.2938,0.453,-1.1001,0.797,-0.5952,170
6,-1.0245,0.2745,0.4642,-1.1959,0.6923,-0.4197,170
6,-1.0347,0.2551,0.4633,-1.2352,0.6465,-0.3401,170
6,-1.103,0.2704,0.3612,-1.2352,0.6465,-0.3401,170
6,-1.103,0.2704,0.3612,-1.3191,0.5385,-0.267,170
6,-1.0632,0.2418,0.4857,-1.3191,0.5385,-0.267,170
6,-1.0479,0.2561,0.454,-1.4565,0.4349,-0.2125,170
6,-1.0265,0.2336,0.4347,-1.487,0.4077,-0.1558,170
6,-0.9928,0.2653,0.4704,-1.6321,0.2333,-0.0774,170
6,-0.952,0.1816,0.4724,-1.7695,0.1482,-0.061,170
6,-0.9224,0.1632,0.4734,-1.7695,0.1482,-0.061,170
6,-0.9132,0.1224,0.4734,-1.8544,0.0708,-0.0305,170
6,-0.8775,0.1091,0.4633,-1.9439,0.0043,0.0,170
6,-0.7673,0.0132,0.4377,-1.9439,0.0043,0.0,170
6,-0.7673,0.0132,0.4377,-2.0311,-0.0818,-0.0196,170
6,-0.7224,0.001,0.451,-2.0824,-0.2213,-0.0162,170
6,-0.6642,-0.0367,0.453,-2.0824,-0.2213,-0.0162,170
6,-0.6296,-0.0979,0.4581,-2.1794,-0.2812,-0.0141,170
6,-0.549,-0.2,0.5153,-2.2514,-0.3248,0.0032,170
6,-0.5031,-0.3061,0.5418,-2.3266,-0.3597,0.0282,170
6,-0.4694,-0.3408,0.5652,-2.4116,-0.3794,0.0501,170
6,-0.452,-0.5081,0.6245,-2.4553,-0.3815,0.0774,170
6,-0.3582,-0.855,0.7275,-2.4487,-0.3663,0.0523,170
6,-0.2979,-1.0132,0.7581,-2.4487,-0.3663,0.0523,170
6,-0.2632,-1.0847,0.7724,-2.3353,-0.2899,0.0925,170
6,-0.2632,-1.0847,0.7724,-2.1642,-0.218,0.2779,170
6,-0.2459,-1.2275,0.7795,-1.9788,-0.1188,0.532,170
6,-0.303,-1.4296,0.7316,-1.6713,-0.0065,0.6486,170
6,-0.3418,-1.499,0.5948,-1.2625,0.0599,0.5494,170
7,-0.3663,-1.453,0.7101,-0.6421,0.0511,0.3456,170
7,-0.3796,-1.3204,0.6561,0.1537,0.1886,-0.0883,170
7,-0.65,-1.2388,0.8653,0.7937,0.4034,-0.4175,170
7,-0.7336,-1.4142,0.8979,0.9986,0.4698,-0.5582,170
7,-0.9949,-1.4377,0.853,0.9986,0.4698,-0.5582,170
7,-1.2255,-1.3398,0.8184,1.0477,0.4721,-0.4426,170
7,-1.2255,-1.3398,0.8184,1.3834,0.4536,0.0174,170
7,-1.4449,-1.0132,0.4857,1.9788,0.4023,0.2802,170
7,-1.5663,-0.6541,0.2918,2.7943,0.3532,0.5004,170
7,-1.4806,-0.2336,0.2112,3.6633,0.2627,0.5179,170
7,-1.4867,0.3336,0.1163,4.1975,0.0992,0.1581,170
7,-1.3469,0.5714,-0.051,4.155,-0.1177,-0.3172,170
7,-0.7092,0.4449,0.1163,3.6556,-0.4153,-0.7478,170
7,-0.3745,1.1285,0.1061,2.9404,-0.689,-0.6791,170
7,-1.0714,1.0377,0.1765,2.9404,-0.689,-0.6791,170
7,-0.7714,0.8071,0.3479,2.6951,-0.5047,-0.0992,170
7,-0.6898,0.7296,0.4479,2.2503,-0.5221,1.0248,170
7,-0.6898,0.7296,0.4479,1.3094,-0.6148,1.0423,170
7,-0.6979,0.8377,0.4347,1.2363,-0.6356,1.1142,170
7,-0.549,0.9836,0.4857,1.2428,-0.6759,1.1644,170
7,-0.551,0.7714,0.4306,1.1251,-0.6072,1.1459,170
7,-0.3224,0.7561,0.4235,0.8351,-0.4361,0.9005,170
7,-0.3816,0.8398,0.4592,0.8907,-0.4536,0.8874,170
7,-0.2918,0.8989,0.5051,0.9059,-0.3979,0.9431,170
7,-0.1296,0.6245,0.3347,0.9059,-0.3979,0.9431,170
7,-0.1296,0.6245,0.3347,0.6367,-0.3542,0.9866,170
7,-0.1632,0.9888,0.4296,0.6869,-0.0774,1.1915,170
7,-0.152,0.9296,0.4694,0.6869,-0.0774,1.1915,170
7,-0.152,0.9296,0.4694,0.2224,0.0065,1.2483,170
7,-0.2969,1.0153,0.5326,0.0043,0.036,1.2581,170
7,-0.3826,1.1775,0.6275,0.0839,0.1297,1.1785,170
7,-0.5755,1.0632,0.4714,-0.0969,0.2966,1.0804,170
7,-0.7877,1.1214,0.502,-0.4568,0.4458,0.9648,170
7,-0.8969,1.2122,0.5255,-0.6617,0.4763,0.8765,170
7,-1.1143,1.2449,0.5765,-0.8754,0.3968,0.6988,170
7,-1.7296,0.9132,0.5734,-1.2756,0.2834,0.4807,170
7,-1.8081,0.6377,0.4,-1.7411,0.0566,0.2213,170
7,-1.7326,0.4704,0.3928,-1.7411,0.0566,0.2213,170
7,-1.7183,0.2693,0.4387,-2.0126,-0.1972,-0.0446,170
7,-1.7183,0.2693,0.4387,-2.0486,-0.5112,-0.242,170
7,-1.2908,-0.3867,0.2898,-2.1347,-0.7163,-0.4153,170
7,-1.1357,-0.5806,0.3806,-2.3048,-0.9343,-0.3107,170
7,-1.1602,-0.7816,0.549,-2.2415,-1.0215,0.0435,170
7,-1.0602,-1.3989,0.3265,-2.0017,-1.0902,0.2638,170
7,-0.6775,-0.8459,1.001,-1.003,-1.2613,0.5189,170
7,-0.7438,-0.7806,0.9653,-0.2867,-1.2995,0.7598,170
7,-0.4836,-0.605,1.0836,-0.2867,-1.2995,0.7598,170
7,-0.4398,-0.5,0.9785,0.3205,-1.1796,0.7228,170
7,-0.3326,0.0031,0.9765,0.8449,-1.0967,0.4601,170
7,-0.3326,0.0031,0.9765,1.4347,-0.9452,0.169,170
7,-0.2724,0.0836,0.8949,1.7739,-0.8361,0.0534,170
7,-0.249,0.202,0.8785,1.8491,-0.7163,-0.0795,170
7,-0.3408,0.45,0.8204,1.8676,-0.5713,-0.085,170
7,-0.3316,0.6082,0.7336,1.6812,-0.5211,-0.1428,170
7,-0.2888,0.6837,0.6592,1.4522,-0.5221,-0.2464,170
7,-0.3255,0.5224,0.6877,1.2308,-0.5211,-0.1537,170
7,-0.4592,0.5418,0.7183,1.2308,-0.5211,-0.1537,170
7,-0.451,0.4296,0.9683,0.9834,-0.4731,0.0872,170
7,-0.3939,0.4612,1.1724,0.7783,-0.4295,0.1635,170
7,-0.3939,0.4612,1.1724,0.7119,-0.3761,0.0392,170
7,-0.3418,0.5326,1.2643,0.871,-0.2911,-0.0959,170
7,-0.2714,0.5928,1.2265,1.1131,-0.193,-0.2169,170
7,-0.2397,0.6479,0.8918,1.2832,-0.1047,-0.3346,170
7,-0.2602,0.7734,0.7877,1.4805,-0.024,-0.4295,170
7,-0.2826,0.901,0.7306,1.5928,0.0414,-0.5265,170
7,-0.2938,0.9714,0.7245,1.4881,0.0992,-0.7054,170
7,-0.3255,0.9326,0.8694,1.2331,0.1701,-0.9441,170
7,-0.2194,1.1857,0.9275,1.2331,0.1701,-0.9441,170
7,-0.2194,1.1857,0.9275,0.9353,0.255,-1.0902,170
7,-0.2357,1.1132,1.0112,0.665,0.3357,-1.0597,170
7,-0.2786,0.9724,0.903,0.1613,0.5244,-1.123,170
7,-0.2755,0.5255,0.6959,-0.3685,0.6301,-1.1022,170
7,-0.3245,0.5295,0.6479,-0.4687,0.7031,-1.111,170
7,-0.3602,0.5786,0.6367,-0.2594,0.8012,-1.1043,170
7,-0.4265,0.5877,0.5867,-0.1864,0.8842,-1.1196,170
7,-0.549,0.5295,0.4765,-0.2878,0.9256,-1.1131,170
7,-0.5632,0.5652,0.5163,-0.3695,0.9103,-1.0641,170
7,-0.605,0.5306,0.5071,-0.3695,0.9103,-1.0641,170
7,-0.605,0.5306,0.5071,-0.4426,0.8962,-1.0379,170
7,-0.6387,0.4836,0.5031,-0.5614,0.8994,-1.027,170
7,-0.702,0.4714,0.5357,-0.6116,0.9027,-1.0118,170
7,-0.6969,0.4755,0.5612,-0.6268,0.9017,-1.0118,170
7,-0.7214,0.4438,0.5428,-0.6999,0.8853,-1.028,170
7,-0.7092,0.3928,0.5326,-0.7893,0.8885,-1.0488,170
7,-0.7296,0.3602,0.5377,-0.8252,0.9038,-1.0618,170
7,-0.7551,0.3347,0.5367,-0.8668,0.9124,-1.0641,170
7,-0.7622,0.2826,0.5306,-0.9561,0.9027,-1.052,170
7,-0.7908,0.2275,0.502,-0.9561,0.9027,-1.052,170
7,-0.9061,0.152,0.4673,-1.0335,0.8885,-1.0118,170
7,-0.9061,0.152,0.4673,-1.0455,0.8863,-0.9507,170
7,-0.9112,0.1122,0.4949,-1.0618,0.8765,-0.8634,170
7,-0.9642,0.0857,0.4826,-1.0738,0.8601,-0.7741,170
7,-0.9653,0.1214,0.4418,-0.9986,0.8449,-0.6814,170
7,-1.0663,0.2245,0.4438,-1.0041,0.8111,-0.6072,170
7,-1.1938,0.0959,0.3714,-1.0652,0.7686,-0.5341,170
7,-1.1571,0.1112,0.3734,-1.136,0.701,-0.4382,170
7,-1.1806,0.0979,0.3887,-1.1121,0.6268,-0.3663,170
7,-1.1847,0.1479,0.4153,-1.1121,0.5255,-0.2888,170
7,-1.2367,0.0224,0.352,-1.1121,0.5255,-0.2888,170
7,-1.1796,0.0551,0.3745,-1.2211,0.3914,-0.2234,170
7,-1.1796,0.0551,0.3745,-1.2985,0.2812,-0.1787,170
7,-1.1091,0.0193,0.3785,-1.3017,0.157,-0.1406,170
7,-1.051,-0.0153,0.3785,-1.354,0.0316,-0.1089,170
7,-0.9581,-0.0673,0.3846,-1.4424,-0.0894,-0.0959,170
7,-0.8837,-0.101,0.3979,-1.4948,-0.1831,-0.073,170
7,-0.7296,-0.1408,0.4561,-1.5165,-0.2617,-0.0349,170
7,-0.6632,-0.1847,0.4959,-1.5711,-0.3271,-0.0053,170
7,-0.6214,-0.251,0.5173,-1.6386,-0.3663,0.0272,170
7,-0.5418,-0.3326,0.553,-1.6386,-0.3663,0.0272,170
8,-0.5214,-0.4081,0.601,-1.6877,-0.3848,0.0545,170
8,-0.5214,-0.4081,0.601,-1.6855,-0.3783,0.0992,170
8,-0.4428,-0.5051,0.6245,-1.655,-0.3717,0.1188,170
8,-0.352,-0.7234,0.6816,-1.5831,-0.3554,0.0654,170
8,-0.3561,-0.7867,0.6071,-1.4173,-0.2737,0.1274,170
8,-0.2867,-0.8184,0.6316,-1.3355,-0.2485,0.2213,170
8,-0.2877,-0.8204,0.6653,-1.2123,-0.1962,0.255,170
8,-0.2826,-0.8377,0.6735,-0.9605,-0.1112,0.2562,170
8,-0.2551,-1.0357,0.6765,-0.9605,-0.1112,0.2562,170
8,-0.3469,-1.105,0.6938,-0.6596,-0.0141,0.2224,170
8,-0.402,-1.1408,0.6969,-0.3979,0.0294,0.181,170
8,-0.402,-1.1408,0.6969,-0.2791,0.1264,0.1493,170
8,-0.4775,-1.1908,0.751,0.0763,0.2005,0.0511,170
8,-0.5632,-1.1898,0.85,0.5713,0.2987,-0.0402,170
8,-0.9745,-0.9897,1.0336,1.0684,0.4229,0.0162,170
8,-1.2418,-0.8796,0.9132,1.4828,0.496,0.1558,170
8,-1.3714,-0.6816,0.7459,1.9156,0.5396,0.3314,170
8,-1.401,-0.501,0.5449,2.4618,0.532,0.4187,170
8,-1.401,-0.0428,0.2071,2.983,0.4982,0.3193,170
8,-1.4285,0.3245,0.0714,2.983,0.4982,0.3193,170
8,-1.4285,0.3245,0.0714,3.2741,0.3891,0.2093,170
8,-1.4785,0.7275,0.1204,3.213,0.1112,0.1318,170
8,-1.2847,0.8041,0.052,2.8336,-0.3031,-0.025,170
8,-1.0836,0.7816,0.2479,2.3037,-0.4655,0.1003,170
8,-1.001,0.9816,0.3643,1.8773,-0.2976,0.7468,170
8,-0.9377,0.6377,0.2683,1.1818,-0.4219,1.1459,170
8,-0.8102,0.5847,0.1959,0.6869,-0.4841,1.0957,170
8,-0.4938,0.6082,0.3398,0.978,-0.5877,1.1196,170
8,-0.4714,0.453,0.3152,0.7893,-0.5843,0.9288,170
8,-0.3908,0.5939,0.3622,0.8809,-0.557,0.9179,170
8,-0.2551,0.6418,0.454,0.9179,-0.5854,0.9485,170
8,-0.1816,0.5214,0.3428,0.726,-0.5528,0.9321,170
8,-0.1082,0.6041,0.3582,0.726,-0.5528,0.9321,170
8,-0.1102,0.7449,0.3928,0.7642,-0.4622,0.9626,170
8,-0.1102,0.7449,0.3928,0.9714,-0.339,1.0259,170
8,-0.0652,0.8398,0.4275,0.9246,-0.2268,1.0694,170
8,-0.0408,0.9051,0.4449,0.702,-0.1308,1.0923,170
8,-0.0786,1.0388,0.5071,0.5745,-0.0523,1.0946,170
8,-0.1877,1.1694,0.5908,0.4655,0.0511,1.0477,170
8,-0.5214,1.3071,0.5796,0.2409,0.2039,0.9387,170
8,-0.6163,1.3255,0.5591,-0.061,0.3271,0.7598,170
8,-0.7714,1.3193,0.5551,-0.4437,0.412,0.5757,170
8,-0.9969,1.2969,0.5551,-0.4437,0.412,0.5757,170
8,-1.6122,1.2316,0.6724,-0.8493,0.4481,0.4175,170
8,-1.6122,1.2316,0.6724,-1.1774,0.3826,0.2213,170
8,-1.7571,0.9928,0.6245,-1.5885,0.2049,0.0021,170
8,1.9623,0.6959,0.3714,-2.0999,-0.0643,-0.2159,170
8,-1.7745,0.4398,0.401,-2.3778,-0.4065,-0.4012,170
8,-1.5193,-0.2234,0.3612,-2.4334,-0.6301,-0.5179,170
8,-1.3286,-0.5163,0.252,-2.6352,-0.8132,-0.3859,170
8,-1.299,-0.553,0.2551,-2.7311,-0.9267,0.0217,170
8,-1.0857,-1.5898,0.0684,-2.3767,-1.0009,0.326,170
8,-0.5816,-1.6163,0.799,-2.3767,-1.0009,0.326,170
8,-0.9663,-1.0571,0.6887,-1.4467,-1.1272,0.5658,170
8,-0.7745,-0.9367,0.951,-0.6192,-1.4958,0.7075,170
8,-0.7745,-0.9367,0.951,0.0469,-1.4042,0.9605,170
8,-0.601,-0.803,0.951,0.5255,-1.3901,0.6562,170
8,-0.504,-0.3908,1.0367,1.2647,-1.2003,0.2703,170
8,-0.5122,-0.1949,0.8755,2.0257,-0.9965,0.1722,170
8,-0.4765,-0.0632,0.7632,2.3832,-0.8056,-0.0523,170
8,-0.6561,0.6,0.7101,2.5948,-0.652,-0.1362,170
8,-0.6949,0.7632,0.7112,2.4803,-0.6039,-0.3041,170
8,-0.7296,0.7101,0.6418,2.198,-0.689,-0.6715,170
8,-0.6387,0.7806,0.6234,2.198,-0.689,-0.6715,170
8,-0.4897,0.8357,0.7336,1.8622,-0.8199,-0.8361,170
8,-0.4897,0.8357,0.7336,1.5906,-0.8634,-0.6869,170
8,-0.551,0.8612,0.8173,1.28,-0.738,-0.2398,170
8,-0.4857,0.5796,0.7531,0.7075,-0.6737,0.0294,170
8,-0.3928,0.4235,0.7133,0.3041,-0.6791,0.0326,170
8,-0.2795,0.4775,0.7673,0.388,-0.6454,0.074,170
8,-0.2204,0.3694,0.7347,0.3542,-0.5745,0.036,170
8,-0.1969,0.2714,0.7296,0.1962,-0.4938,0.0043,170
8,-0.1969,0.2336,0.7755,0.1701,-0.3968,0.0402,170
8,-0.1969,0.2336,0.7755,0.1701,-0.3968,0.0402,170
8,-0.15,0.1377,0.9367,0.1613,-0.2878,0.0828,170
8,-0.1765,0.1489,1.1387,0.1701,-0.1744,0.1024,170
8,-0.1744,0.201,1.2663,0.3739,-0.0566,0.1406,170
8,-0.1724,0.2928,1.2142,0.785,0.0316,0.0654,170
8,-0.2265,0.6194,0.9153,1.2745,0.1417,-0.1581,170
8,-0.3622,0.8571,0.8132,1.6757,0.2747,-0.3161,170
8,-0.401,0.9612,0.7551,1.6921,0.3565,-0.5015,170
8,-0.5581,0.9571,0.6867,1.4805,0.4307,-0.8111,170
8,-0.5173,1.2724,0.8265,1.33,0.5059,-0.9168,170
8,-0.5388,1.1775,0.7806,1.33,0.5059,-0.9168,170
8,-0.5388,1.1775,0.7806,0.9714,0.5244,-1.1513,170
8,-0.5316,1.0377,0.7724,0.351,0.6127,-1.305,170
8,-0.5734,0.8846,0.7449,-0.1417,0.6213,-1.2298,170
8,-0.5245,0.5336,0.6398,-0.4895,0.5734,-1.1688,170
8,-0.5571,0.4306,0.5898,-0.5877,0.5528,-1.136,170
8,-0.6153,0.3979,0.5479,-0.5015,0.5757,-1.0826,170
8,-0.6357,0.4244,0.5428,-0.4187,0.5516,-0.9931,170
8,-0.6755,0.3612,0.4969,-0.4721,0.5299,-0.9005,170
8,-0.701,0.3326,0.5031,-0.5635,0.5353,-0.8166,170
8,-0.7265,0.3347,0.5388,-0.5635,0.5353,-0.8166,170
8,-0.7265,0.3316,0.5734,-0.5745,0.5473,-0.7598,170
8,-0.7265,0.3316,0.5734,-0.5799,0.5396,-0.7327,170
8,-0.7499,0.2612,0.5948,-0.6225,0.5309,-0.7228,170
8,-0.7775,0.2418,0.5918,-0.6181,0.5276,-0.7239,170
8,-0.7908,0.2418,0.5939,-0.5549,0.5156,-0.7283,170
8,-0.8102,0.2449,0.5979,-0.4971,0.496,-0.7369,170
8,-0.8448,0.2204,0.5887,-0.4851,0.4655,-0.7337,170
8,-0.8653,0.2449,0.5796,-0.4687,0.4492,-0.714,170
8,-0.8673,0.2479,0.5836,-0.4481,0.4295,-0.6737,170
8,-0.8632,0.2265,0.5571,-0.4481,0.4295,-0.6737,170
8,-0.8816,0.1755,0.4734,-0.4927,0.4023,-0.6236,170
8,-0.8816,0.1755,0.4734,-0.5364,0.3575,-0.5604,170
8,-0.8439,0.1796,0.5265,-0.557,0.3183,-0.4862,170
8,-0.802,0.1602,0.5428,-0.5974,0.267,-0.4197,170
8,-0.7888,0.1561,0.5428,-0.5942,0.231,-0.3685,170
8,-0.7663,0.2357,0.5898,-0.544,0.2104,-0.3325,170
8,-0.7704,0.2204,0.5786,-0.5635,0.206,-0.3302,170
9,-0.7663,0.2061,0.5765,-0.5974,0.206,-0.3216,170
9,-0.7755,0.2122,0.5887,-0.5974,0.206,-0.3216,170
9,-0.7693,0.1663,0.5602,-0.6083,0.1972,-0.314,170
9,-0.7795,0.1479,0.5357,-0.6486,0.1852,-0.3063,170
9,-0.7795,0.1479,0.5357,-0.6846,0.1755,-0.2954,170
9,-0.7816,0.1153,0.5183,-0.6966,0.1646,-0.2791,170
9,-0.8041,0.105,0.5214,-0.702,0.1558,-0.255,170
9,-0.8132,0.0684,0.5112,-0.6934,0.1253,-0.242,170
9,-0.8214,0.0469,0.5122,-0.7195,0.1035,-0.2169,170
9,-0.8255,0.0306,0.5173,-0.7108,0.0784,-0.1864,170
9,-0.7918,-0.0112,0.5418,-0.7043,0.0446,-0.1701,170
9,-0.7734,-0.051,0.549,-0.6923,-0.0032,-0.1526,170
9,-0.7581,-0.0806,0.5561,-0.6923,-0.0032,-0.1526,170
9,-0.7581,-0.0806,0.5561,-0.665,-0.0337,-0.1188,170
9,-0.7153,-0.0806,0.5898,-0.5919,-0.0523,-0.0818,170
9,-0.7153,-0.0806,0.5898,-0.5047,-0.085,-0.0523,170
9,-0.7071,-0.0561,0.6245,-0.4164,-0.1144,-0.024,170
9,-0.6928,-0.0204,0.6459,-0.338,-0.1373,0.0097,170
9,-0.6826,0.0275,0.6806,-0.2812,-0.1602,0.049,170
9,-0.6602,0.0836,0.7142,-0.2703,-0.1711,0.0894,170
9,-0.652,0.0826,0.7173,-0.3008,-0.182,0.1274,170
9,-0.6387,0.0796,0.7306,-0.3292,-0.1787,0.1591,170
9,-0.6275,0.0877,0.7551,-0.3357,-0.1776,0.1831,170
9,-0.6275,0.0877,0.7551,-0.3357,-0.1776,0.1831,170
9,-0.5979,0.0612,0.7755,-0.3477,-0.1657,0.1907,170
9,-0.5826,0.05,0.7826,-0.35,-0.1493,0.2005,170
9,-0.5939,0.0092,0.7979,-0.326,-0.0894,0.2125,170
9,-0.5939,0.0092,0.7979,-0.3237,-0.0545,0.2159,170
9,-0.603,-0.0153,0.7959,-0.3073,-0.0261,0.2213,170
9,-0.6153,-0.0449,0.7826,-0.2943,0.0065,0.23,170
9,-0.6346,-0.0612,0.7612,-0.2583,0.0446,0.2495,170
9,-0.6714,-0.0581,0.703,-0.1842,0.0664,0.2693,170
9,-0.7,-0.0479,0.6703,-0.1155,0.0883,0.2812,170
9,-0.7214,-0.0326,0.6408,-0.0511,0.0937,0.2954,170
9,-0.7326,-0.0092,0.6224,-0.0021,0.0806,0.3085,170
9,-0.7561,0.0438,0.6285,0.036,0.049,0.3183,170
9,-0.7551,0.0377,0.6357,0.036,0.049,0.3183,170
9,-0.751,0.0102,0.6245,0.0337,0.0196,0.3281,170
9,-0.751,0.0102,0.6245,0.0053,-0.0185,0.339,170
9,-0.7377,0.0112,0.6337,0.0381,-0.0555,0.35,170
9,-0.7071,0.0295,0.651,0.0904,-0.0818,0.3554,170
9,-0.6837,0.0398,0.6592,0.1188,-0.0948,0.3619,170
9,-0.6602,0.0684,0.6755,0.157,-0.0925,0.375,170
9,-0.65,0.1082,0.6867,0.1972,-0.073,0.3804,170
9,-0.6683,0.1673,0.6887,0.2093,-0.0511,0.3848,170
9,-0.702,0.1714,0.6816,0.206,-0.0294,0.3771,170
9,-0.7265,0.1561,0.6571,0.206,-0.0294,0.3771,170
9,-0.7449,0.15,0.6326,0.1766,-0.0152,0.3597,170
9,-0.7449,0.15,0.6326,0.1776,-0.0152,0.3434,170
9,-0.7836,0.1622,0.6112,0.2027,-0.024,0.3292,170
9,-0.8,0.1439,0.5948,0.1919,-0.0446,0.3205,170
9,-0.8061,0.1367,0.5887,0.1776,-0.0784,0.3151,170
9,-0.8061,0.1459,0.5898,0.1951,-0.1068,0.3161,170
9,-0.7949,0.1398,0.5989,0.1919,-0.1482,0.3216,170
9,-0.7816,0.1245,0.6122,0.169,-0.1896,0.3281,170
9,-0.7622,0.1082,0.6163,0.1547,-0.2201,0.3401,170
9,-0.7499,0.0918,0.6234,0.1547,-0.2201,0.3401,170
9,-0.7336,0.0847,0.6357,0.1667,-0.2453,0.351,169
9,-0.7336,0.0847,0.6357,0.1984,-0.2594,0.3685,169
9,-0.7326,0.0918,0.6316,0.2321,-0.2659,0.3815,169
9,-0.7367,0.1041,0.6245,0.2747,-0.2649,0.4044,169
9,-0.7357,0.1194,0.6245,0.3041,-0.2703,0.4307,169
9,-0.7408,0.1204,0.5877,0.3052,-0.2649,0.4622,169
9,-0.7397,0.1214,0.5765,0.3107,-0.2682,0.4895,169
9,-0.7479,0.1214,0.5652,0.326,-0.2737,0.5167,169
9,-0.7581,0.1346,0.5612,0.363,-0.2747,0.5353,169
9,-0.7938,0.1806,0.5591,0.363,-0.2747,0.5353,169
9,-0.7938,0.1806,0.5591,0.4012,-0.2802,0.5494,169
9,-0.8132,0.1969,0.5591,0.4175,-0.2954,0.5549,169
9,-0.8296,0.2194,0.5652,0.4317,-0.3096,0.5549,169
9,-0.8448,0.2459,0.5786,0.4393,-0.3271,0.5604,169
9,-0.8673,0.2704,0.603,0.4229,-0.3489,0.5604,169
9,-0.8694,0.2724,0.6204,0.3891,-0.3761,0.5604,169
9,-0.8622,0.2683,0.6428,0.3554,-0.4,0.5549,169
9,-0.8326,0.2693,0.6918,0.35,-0.4153,0.5494,169
9,-0.8102,0.2795,0.7275,0.3609,-0.4295,0.5429,169
9,-0.7775,0.2704,0.7428,0.3609,-0.4295,0.5429,169
9,-0.7775,0.2704,0.7428,0.3565,-0.4393,0.5341,169
9,-0.7459,0.2602,0.7561,0.3434,-0.4328,0.5341,169
9,-0.6949,0.2592,0.751,0.3619,-0.4307,0.5429,169
9,-0.6744,0.2551,0.7428,0.3891,-0.4065,0.557,169
9,-0.653,0.2693,0.7592,0.3946,-0.3891,0.5734,169
9,-0.6194,0.3041,0.7959,0.3838,-0.3771,0.5887,169
9,-0.5745,0.2755,0.7531,0.3434,-0.3609,0.5854,169
9,-0.5632,0.2745,0.7071,0.3193,-0.3456,0.5647,169
9,-0.5704,0.3184,0.6428,0.3597,-0.3183,0.5473,169
9,-0.5826,0.355,0.6408,0.3597,-0.3183,0.5473,169
9,-0.5918,0.3204,0.751,0.3183,-0.3073,0.5353,169
9,-0.5918,0.3204,0.751,0.1438,-0.3412,0.4992,169
9,-0.5684,0.2755,0.8806,-0.0349,-0.3848,0.4328,169
9,-0.4959,0.2081,1.0928,-0.1133,-0.4208,0.3248,169
9,-0.3949,0.1398,1.3071,-0.0261,-0.4273,0.1962,169
9,-0.3143,0.2724,1.2775,0.3739,-0.3663,0.1133,169
9,-0.2826,0.4235,1.051,0.9954,-0.2627,-0.0784,169
9,-0.3091,0.553,0.8704,1.3769,-0.1428,-0.4034,169
9,-0.3071,0.6224,0.7918,1.3813,-0.0446,-0.6291,169
9,-0.3448,0.5551,0.8112,1.1633,0.0425,-0.858,169
9,-0.4071,0.5652,0.9,1.1633,0.0425,-0.858,169
9,-0.4551,0.4857,0.9469,1.0204,0.1384,-1.0106,169
9,-0.4551,0.4857,0.9469,0.8775,0.2562,-1.136,169
9,-0.5193,0.4071,0.8979,0.8361,0.387,-1.2342,169
9,-0.6642,0.3469,0.703,0.9332,0.4677,-1.2571,169
9,-0.7122,0.3296,0.6102,1.027,0.4731,-1.2069,169
9,-0.7336,0.2418,0.4847,1.0128,0.4307,-1.1131,169
9,-0.7418,0.1938,0.3643,1.1164,0.3903,-0.9637,169
9,-0.7214,0.3367,0.252,1.3781,0.3619,-0.7981,169
9,-0.6653,0.4214,0.2092,1.5645,0.2966,-0.6345,169
9,-0.5939,0.5163,0.1632,1.5645,0.2966,-0.6345,169
9,-0.5459,0.6938,0.1735,1.6757,0.2245,-0.5059,169
10,-0.5459,0.6938,0.1735,1.7869,0.1701,-0.4055,169
10,-0.3898,0.7847,0.2183,1.7552,0.1188,-0.4338,169
10,-0.3846,0.9724,0.0388,1.7029,0.1144,-0.4513,169
10,-0.2826,1.1,0.3102,1.656,0.1112,-0.3565,169
10,-0.2949,1.0959,0.2224,1.3454,0.1776,-0.4437,169
10,-0.2826,1.0867,0.2786,1.0629,0.2573,-0.4568,169
10,-0.2734,1.0816,0.3234,0.9278,0.3859,-0.3302,169
10,-0.2765,1.0561,0.3887,0.9278,0.3859,-0.3302,169
10,-0.3173,1.1346,0.4408,0.7903,0.5179,-0.3891,169
10,-0.4734,1.4459,0.5122,0.8155,0.664,-0.4372,169
10,-0.4734,1.4459,0.5122,0.822,0.8199,-0.4611,169
10,-0.5398,1.4938,0.501,0.6127,0.9769,-0.5418,169
10,-0.6551,1.5428,0.453,0.2976,1.0913,-0.6225,169
10,-0.7806,1.6,0.4367,-0.11,1.1524,-0.652,169
10,-1.302,1.7377,0.4908,-0.6116,1.1709,-0.5767,169
10,-1.5031,1.7388,0.552,-1.2396,1.0553,-0.4633,169
10,-1.8663,1.6346,0.4214,-1.9363,0.8035,-0.5211,169
10,-1.8745,1.3989,0.3152,-2.585,0.3891,-0.6442,169
10,-1.6428,0.8459,0.0561,-2.585,0.3891,-0.6442,169
10,-1.6428,0.8459,0.0561,-3.0669,0.0097,-0.7413,169
10,-1.4275,0.4897,-0.0908,-3.4702,-0.2507,-0.8231,169
10,-1.1938,0.2061,-0.0408,-3.7363,-0.4361,-0.7403,169
10,-0.9755,0.0459,0.0724,-3.7733,-0.5276,-0.5331,169
10,-0.7693,-0.2071,0.3541,-3.696,-0.5145,-0.3903,169
10,-0.7336,0.101,0.4928,-3.4768,-0.5211,-0.3237,169
10,-0.7204,-0.5826,0.5663,-3.3351,-0.5538,-0.5505,169
10,-0.502,-0.6112,0.5693,-2.9175,-0.5353,-0.6148,169
10,-0.5255,-0.3826,0.6928,-2.0148,-0.3357,-0.5145,169
10,-0.4888,-0.4673,0.6755,-2.0311,-0.3271,-0.6705,169
10,-0.4367,-0.5673,0.6837,-2.0072,-0.326,-0.7533,169
10,-0.4398,-0.6387,0.6938,-2.0072,-0.326,-0.7533,169
10,-0.4438,-0.7142,0.6642,-1.8512,-0.3052,-0.7327,169
10,-0.4438,-0.7142,0.6642,-1.7029,-0.2714,-0.7249,169
10,-0.4347,-0.7531,0.6806,-1.4599,-0.2627,-0.664,169
10,-0.3571,-0.7479,0.6744,-1.3704,-0.2703,-0.5549,169
10,-0.3081,-0.852,0.6703,-1.3344,-0.2573,-0.4862,169
10,-0.25,-0.9601,0.6275,-1.1556,-0.1831,-0.4414,169
10,-0.2194,-0.9745,0.6857,-0.8994,-0.0937,-0.2932,169
10,-0.1969,-0.9081,0.7581,-0.6825,0.0108,-0.1373,169
10,-0.2326,-0.9337,0.7693,-0.471,0.1286,-0.1373,169
10,-0.2734,-0.9214,0.8173,-0.471,0.1286,-0.1373,169
10,-0.2551,-0.9551,0.8326,-0.2605,0.2289,-0.2583,169
10,-0.2551,-0.9551,0.8326,-0.0402,0.3052,-0.4437,169
10,-0.3184,-1.0092,0.7531,0.2125,0.4284,-0.5604,169
10,-0.3908,-0.954,0.6969,0.507,0.5702,-0.5059,169
10,-0.4551,-0.9592,0.6163,0.7369,0.6574,-0.4481,169
10,-0.5193,-0.9551,0.5643,0.991,0.7272,-0.3815,169
10,-0.7326,-0.7306,0.6898,1.3334,0.7827,-0.2823,169
10,-0.9092,-0.5847,0.8051,1.6703,0.8111,-0.194,169
10,-1.101,-0.3959,0.8673,1.908,0.7676,-0.1308,169
10,-1.2296,-0.3275,0.7612,1.908,0.7676,-0.1308,169
10,-1.2296,-0.3275,0.7612,2.0278,0.6705,-0.1274,169
10,-1.3714,0.0347,0.25,2.1936,0.5745,-0.1003,169
10,-1.3714,0.0347,0.25,2.4465,0.483,0.0425,169
10,-1.3316,0.2214,0.1683,2.561,0.3019,0.194,169
10,-1.3234,0.5428,0.2081,2.3059,0.0631,0.4109,169
10,-1.0112,0.9663,0.1224,2.0682,-0.1384,0.5179,169
10,-1.0306,1.0214,0.3479,1.776,-0.1613,0.6367,169
10,-1.0163,1.2418,0.5122,1.3061,-0.231,0.9168,169
10,-0.9683,1.2755,0.6449,0.4938,-0.3292,1.052,169
10,-0.7418,0.9326,0.5031,-0.2289,-0.3609,1.0106,169
10,-0.8224,0.7949,0.6071,-0.2289,-0.3609,1.0106,169
10,-0.8224,0.7949,0.6071,-0.3466,-0.3695,0.9889,169
10,-0.7704,0.7265,0.5684,-0.471,-0.2682,0.7871,169
10,-0.7479,0.6224,0.5551,-0.6312,-0.2791,0.6148,169
10,-0.7571,0.401,0.5755,-0.7903,-0.2649,0.5679,169
10,-0.7122,0.3459,0.5939,-0.9005,-0.2485,0.5919,169
10,-0.8204,0.2061,0.5408,-1.0009,-0.193,0.6562,169
10,-0.8265,0.0561,0.4867,-0.9889,-0.182,0.7249,169
10,-0.8367,0.051,0.4867,-0.8307,-0.2268,0.7947,169
10,-0.8265,-0.0428,0.4285,-0.7566,-0.2932,0.8012,169
10,-0.7908,-0.0806,0.4612,-0.7566,-0.2932,0.8012,169
10,-0.7908,-0.0806,0.4612,-0.653,-0.3521,0.8132,169
10,-0.8041,0.1245,0.5163,-0.4884,-0.3739,0.8307,169
10,-0.6632,0.0122,0.5673,-0.4109,-0.4295,0.8285,169
10,-0.7101,0.0051,0.5551,-0.1341,-0.4208,0.8907,169
10,-0.6969,0.0652,0.6296,-0.0392,-0.4208,0.9234,169
10,-0.6091,0.0745,0.6428,-0.0337,-0.4,0.9561,169
10,-0.5745,0.1622,0.6703,0.0457,-0.3542,0.9714,169
10,-0.5939,0.2183,0.6898,0.1167,-0.3096,0.9714,169
10,-0.5796,0.249,0.6938,0.0806,-0.2682,0.9769,169
10,-0.5939,0.2357,0.6703,0.0806,-0.2682,0.9769,169
10,-0.6439,0.3418,0.6683,0.0621,-0.2201,0.9714,169
10,-0.6439,0.3418,0.6683,0.1079,-0.1722,0.9616,169
10,-0.6969,0.3785,0.651,0.0828,-0.1449,0.9452,169
10,-0.7214,0.3887,0.6439,0.0011,-0.1274,0.9136,169
10,-0.8193,0.4041,0.6194,-0.0795,-0.1242,0.8754,169
10,-0.8653,0.3673,0.601,-0.1667,-0.1133,0.822,169
10,-0.9051,0.3224,0.5684,-0.2289,-0.1177,0.7609,169
10,-0.9235,0.3112,0.5632,-0.2201,-0.1362,0.6944,169
10,-0.9316,0.2255,0.552,-0.2147,-0.1613,0.6148,169
10,-0.9296,0.203,0.601,-0.2147,-0.1613,0.6148,169
10,-0.9142,0.201,0.6642,-0.1864,-0.2016,0.5299,169
10,-0.9142,0.201,0.6642,-0.1177,-0.2442,0.4469,169
10,-0.8837,0.1765,0.703,-0.074,-0.2844,0.3695,169
10,-0.8163,0.0693,0.7438,-0.0577,-0.3085,0.3031,169
10,-0.7908,0.0591,0.7755,0.0185,-0.3151,0.2649,169
10,-0.7612,0.0326,0.7786,0.0904,-0.3041,0.2529,169
10,-0.7245,-0.0204,0.754,0.1329,-0.2954,0.2605,169
10,-0.6632,-0.0928,0.6816,0.2039,-0.2888,0.2987,169
10,-0.6316,-0.0796,0.6796,0.3325,-0.2802,0.3532,169
10,-0.6112,-0.0826,0.6816,0.3325,-0.2802,0.3532,169
10,-0.6173,-0.0969,0.6642,0.4317,-0.2899,0.3924,169
10,-0.6173,-0.0969,0.6642,0.5374,-0.2888,0.4065,169
10,-0.5969,-0.0908,0.7795,0.6803,-0.2844,0.4065,169
10,-0.5367,-0.0826,0.9071,0.8634,-0.2693,0.4143,169
10,-0.4949,-0.0122,1.05,1.1284,-0.267,0.4187,169
10,-0.4112,0.1316,1.0806,1.5677,-0.2562,0.3761,169
10,-0.3132,0.5153,0.7928,2.0148,-0.1984,0.3019,169
10,-0.3326,0.6357,0.6367,2.1968,-0.1221,0.2289,169
11,-0.3255,0.7347,0.5438,2.1925,-0.0675,0.1232,169
11,-0.3622,0.8224,0.4918,2.1925,-0.0675,0.1232,169
11,-0.3622,0.8224,0.4918,2.1816,0.0087,-0.0326,169
11,-0.3347,0.9081,0.6439,2.2514,0.1047,-0.2005,169
11,-0.5081,1.453,0.5081,2.2088,0.1984,-0.3346,169
11,-0.4122,1.4581,0.7632,1.9624,0.242,-0.5233,169
11,-0.5561,1.4714,0.6724,1.3378,0.2878,-0.7359,169
11,-0.5561,1.302,0.5684,0.738,0.2768,-0.7447,169
11,-0.5051,1.1969,0.5112,0.3227,0.3183,-0.6051,169
11,-0.6,1.0408,0.4142,0.0065,0.3357,-0.7031,169
11,-0.6102,1.001,0.3755,-0.0992,0.2966,-0.7447,169
11,-0.6398,0.9316,0.4194,-0.0992,0.2966,-0.7447,169
11,-0.6398,0.9316,0.4194,-0.2682,0.255,-0.7806,169
11,-0.6082,0.8051,0.4285,-0.5516,0.2376,-0.8275,169
11,-0.6296,0.7204,0.4836,-0.714,0.2278,-0.8144,169
11,-0.6265,0.6816,0.5622,-0.809,0.2398,-0.7838,169
11,-0.6296,0.4653,0.5948,-0.9158,0.2605,-0.8144,169
11,-0.652,0.4163,0.6071,-0.8918,0.2867,-0.8264,169
11,-0.6683,0.3806,0.6122,-0.8024,0.3193,-0.8514,169
11,-0.6837,0.3193,0.5877,-0.7163,0.3412,-0.9191,169
11,-0.7204,0.2786,0.5693,-0.5952,0.3489,-0.9637,169
11,-0.7326,0.2693,0.5581,-0.5015,0.3412,-0.9812,169
11,-0.7408,0.2377,0.5438,-0.5015,0.3412,-0.9812,169
11,-0.7408,0.2377,0.5438,-0.4601,0.3357,-0.9561,169
11,-0.754,0.2081,0.4959,-0.4055,0.3302,-0.9059,169
11,-0.7561,0.2397,0.5193,-0.3401,0.3128,-0.8373,169
11,-0.7245,0.2214,0.5306,-0.3445,0.2922,-0.7751,169
11,-0.6703,0.3367,0.5541,-0.2039,0.2911,-0.6606,169
11,-0.6703,0.3367,0.5541,-0.1852,0.3193,-0.628,169
11,-0.6683,0.3357,0.551,-0.2333,0.3477,-0.5919,169
11,-0.6744,0.3694,0.5643,-0.2442,0.3717,-0.5549,169
11,-0.6816,0.4194,0.5775,-0.2693,0.3946,-0.5287,169
11,-0.7285,0.4428,0.553,-0.3314,0.4229,-0.5112,169
11,-0.7551,0.4734,0.553,-0.3706,0.4448,-0.4895,169
11,-0.7959,0.5122,0.5643,-0.4361,0.4557,-0.4677,169
11,-0.8286,0.5132,0.5622,-0.5767,0.4622,-0.4458,169
11,-0.9265,0.4765,0.5643,-0.6911,0.4611,-0.4143,169
11,-0.9724,0.4938,0.5714,-0.6911,0.4611,-0.4143,169
11,-0.9724,0.4938,0.5714,-0.7501,0.4677,-0.3783,169
11,-1.0173,0.4959,0.5652,-0.8601,0.4524,-0.3314,169
11,-1.0928,0.454,0.4938,-1.0095,0.4229,-0.2737,169
11,-1.1265,0.4255,0.4683,-1.1513,0.3729,-0.2147,169
11,-1.1724,0.3959,0.4561,-1.292,0.2911,-0.1602,169
11,-1.1703,0.3673,0.4571,-1.4347,0.1896,-0.0969,169
11,-1.1806,0.2898,0.4806,-1.5743,0.074,-0.0643,169
11,-1.1744,0.2438,0.4867,-1.7226,-0.0555,-0.0555,169
11,-1.1489,0.1867,0.4796,-1.825,-0.1722,-0.0545,169
11,-1.1255,0.1479,0.4806,-1.825,-0.1722,-0.0545,169
11,-0.999,0.0173,0.5173,-1.9068,-0.2911,-0.0589,169
11,-0.999,0.0173,0.5173,-1.9929,-0.4023,-0.0621,169
11,-0.8939,-0.0275,0.5286,-2.0791,-0.495,-0.0282,169
11,-0.8448,-0.1285,0.5306,-2.2121,-0.5593,-0.0141,169
11,-0.6979,-0.2204,0.5643,-2.234,-0.64,0.0534,169
11,-0.5959,-0.353,0.6122,-2.1129,-0.6323,0.1221,169
11,-0.4836,-0.3102,0.6703,-2.0236,-0.653,0.206,169
11,-0.4745,-0.3908,0.6806,-2.0453,-0.6247,0.2344,169
11,-0.4132,-0.5438,0.7306,-2.0682,-0.5799,0.2005,169
11,-0.2408,-0.7795,0.7275,-2.0682,-0.5799,0.2005,168
11,-0.1449,-0.8357,0.7296,-1.9494,-0.5494,0.1678,168
11,-0.1449,-0.8357,0.7296,-1.7901,-0.5135,0.1602,168
11,-0.1,-0.8234,0.7367,-1.5612,-0.3946,0.2922,168
11,-0.1346,-0.799,0.7469,-1.3214,-0.2562,0.3761,168
11,-0.1,-0.8418,0.7194,-1.1392,-0.1471,0.2453,168
11,-0.0796,-0.8857,0.7173,-0.8907,-0.0523,0.0162,168
11,-0.0357,-0.9592,0.7775,-0.5124,0.0698,-0.1581,168
11,-0.0479,-0.9255,0.8286,-0.1722,0.2464,-0.2562,168
11,-0.2101,-0.7571,0.9592,0.0457,0.4034,-0.2682,168
11,-0.3163,-0.8755,0.8908,0.0457,0.4034,-0.2682,168
11,-0.3694,-1.0255,0.8091,0.0087,0.5244,-0.3019,168
11,-0.3694,-1.0255,0.8091,0.0349,0.6257,-0.3041,168
11,-0.6,-1.1479,0.7765,0.4088,0.7588,-0.2649,168
11,-0.9071,-1.1469,0.7459,0.8765,0.8449,-0.1951,168
11,-1.1408,-1.0561,0.6959,1.3878,0.8668,-0.0631,168
11,-1.3683,-0.9622,0.6,1.8687,0.8056,0.0577,168
11,-1.4612,-0.8152,0.4765,2.3451,0.6814,0.157,168
11,-1.4888,-0.402,0.2122,2.8128,0.532,0.1798,168
11,-1.4571,-0.0877,0.0928,3.1508,0.3826,0.1537,168
11,-1.4041,0.2673,0.0408,3.1508,0.3826,0.1537,168
11,-1.4041,0.2673,0.0408,3.2151,0.1449,0.1274,168
11,-0.7214,0.6938,0.1775,2.9273,-0.2005,0.0425,168
11,-0.7214,0.6938,0.1775,2.4717,-0.4481,0.0925,168
11,-0.8643,0.7602,0.1683,2.1194,-0.4273,0.3794,168
11,-0.9081,0.8255,0.4592,1.8654,-0.3859,0.9866,168
11,-0.8398,0.7449,0.3806,1.438,-0.4698,1.0248,168
11,-0.7234,0.7275,0.4938,1.4227,-0.5473,1.0019,168
11,-0.5836,0.9408,0.5245,1.5601,-0.5102,0.9822,168
11,-0.5765,0.9183,0.5071,1.3834,-0.3968,0.9812,168
11,-0.5112,0.9387,0.4377,1.1371,-0.3325,0.9027,168
11,-0.5112,0.9387,0.4377,1.1371,-0.3325,0.9027,168
11,-0.3714,0.8265,0.4581,0.9191,-0.3641,0.8285,168
11,-0.4203,0.7755,0.3765,0.8012,-0.3008,0.8373,168
11,-0.3234,0.8357,0.403,0.8252,-0.2453,0.8787,168
11,-0.352,0.8724,0.3826,0.7981,-0.1471,0.9082,168
11,-0.3163,0.6326,0.3816,0.6072,-0.0599,0.9616,168
11,-0.2234,0.7449,0.2112,0.5778,-0.0217,1.0597,168
11,-0.2755,1.002,0.2898,0.7283,0.0828,1.1382,168
11,-0.249,1.0571,0.3643,0.4372,0.1776,1.1152,168
11,-0.3561,1.1091,0.3663,0.1766,0.2507,1.1862,168
11,-0.4561,1.2724,0.4398,0.1766,0.2507,1.1862,168
11,-0.4561,1.2724,0.4398,0.0621,0.2714,1.1993,168
11,-0.5561,1.3979,0.4745,-0.1384,0.3281,1.1022,168
11,-0.7867,1.4601,0.5295,-0.5287,0.3804,0.9365,168
11,-1.051,1.449,0.5469,-1.0423,0.3848,0.8166,168
11,-1.2693,1.353,0.5428,-1.5645,0.3063,0.6803,168
11,-1.5796,1.2204,0.4469,-1.9875,0.1352,0.4524,168
11,-1.8286,0.9633,0.4438,-2.3037,-0.1198,0.1732,168
11,-1.853,0.6418,0.45,-2.7464,-0.3958,-0.1373,168
11,-1.8051,0.201,0.3163,-3.1574,-0.6465,-0.35,168
11,-1.5724,-0.2632,0.2449,-3.1574,-0.6465,-0.35,168
11,-1.3816,-0.5051,0.2173,-3.2533,-0.8012,-0.2617,168
12,-1.3816,-0.5051,0.2173,-3.2588,-0.8624,0.11,168
12,-1.5704,-1.6602,0.2745,-3.0755,-0.9191,0.2888,168
12,-1.3377,-1.7183,-0.053,-2.1173,-0.9725,0.4208,168
12,-0.6612,-1.7888,0.6255,-1.2461,-1.5318,0.5854,168
12,-0.8796,-1.1316,0.7397,-0.5385,-1.4544,0.9517,168
12,-0.5122,-1.0275,0.952,0.1352,-1.4282,0.7686,168
12,-0.5357,-0.9806,0.802,0.7588,-1.3105,0.3532,168
12,-0.3469,-0.6744,0.8816,0.7588,-1.3105,0.3532,168
12,-0.199,-0.2755,0.7653,1.4446,-1.2222,0.23,168
12,-0.2061,-0.0663,0.7755,1.8262,-1.0652,0.1635,168
12,-0.2061,-0.0663,0.7755,2.0104,-0.9124,0.1798,168
12,-0.2367,0.1143,0.7377,2.0627,-0.7783,0.1732,168
12,-0.2275,0.3306,0.7377,1.9309,-0.7031,0.0316,168
12,-0.2693,0.4173,0.6816,1.7138,-0.6454,-0.1352,168
12,-0.2724,0.5081,0.6898,1.4511,-0.5713,-0.2191,168
12,-0.301,0.5816,0.6765,1.2254,-0.4938,-0.1919,168
12,-0.3612,0.5643,0.6612,1.0761,-0.4458,-0.036,168
12,-0.5081,0.401,0.5887,0.8939,-0.4328,0.0589,168
12,-0.5234,0.3612,0.6214,0.8939,-0.4328,0.0589,168
12,-0.5183,0.3969,0.8398,0.8187,-0.4263,0.0053,168
12,-0.5183,0.3969,0.8398,0.8471,-0.4328,-0.0402,168
12,-0.4897,0.3765,1.0571,0.8744,-0.4589,-0.0992,168
12,-0.3428,0.3898,1.1408,1.1306,-0.4666,-0.1503,168
12,-0.351,0.5541,1.0367,1.595,-0.399,-0.1766,168
12,-0.3275,0.7275,0.9459,1.908,-0.3172,-0.2191,168
12,-0.3887,0.8163,0.8439,1.9712,-0.2365,-0.3586,168
12,-0.4244,1.1214,0.6449,1.9221,-0.2115,-0.6127,168
12,-0.1877,1.3347,0.7959,1.5427,-0.1787,-0.7718,168
12,-0.2816,1.3214,0.8582,1.1295,0.0534,-0.8471,168
12,-0.3489,1.1479,0.8306,0.3445,0.1732,-0.6988,168
12,-0.3245,0.9122,0.7551,0.3445,0.1732,-0.6988,168
12,-0.3306,0.8694,0.7285,-0.2169,0.231,-0.652,168
12,-0.3306,0.8694,0.7285,-0.2791,0.2791,-0.6421,168
12,-0.3877,0.852,0.7163,-0.3237,0.3477,-0.7108,168
12,-0.4673,0.6938,0.6112,-0.4099,0.3826,-0.7795,168
12,-0.5295,0.7122,0.6163,-0.4524,0.3695,-0.7522,168
12,-0.5459,0.6744,0.6224,-0.6192,0.3619,-0.7708,168
12,-0.5684,0.5816,0.6091,-0.7642,0.3815,-0.7708,168
12,-0.6245,0.4796,0.6275,-0.8012,0.3935,-0.7327,168
12,-0.6551,0.4449,0.65,-0.8416,0.3924,-0.726,168
12,-0.6214,0.3612,0.6602,-0.8416,0.3924,-0.726,168
12,-0.6398,0.2857,0.6612,-0.9147,0.3739,-0.7533,168
12,-0.6867,0.2092,0.6796,-0.8994,0.3783,-0.7359,168
12,-0.6867,0.2092,0.6796,-0.8132,0.3914,-0.7205,168
12,-0.699,0.1918,0.6826,-0.6825,0.3804,-0.7468,168
12,-0.7101,0.1918,0.6703,-0.5255,0.3729,-0.7947,168
12,-0.7183,0.2255,0.6632,-0.4099,0.3554,-0.834,168
12,-0.7316,0.2612,0.6571,-0.3695,0.351,-0.8439,168
12,-0.7367,0.2561,0.6551,-0.3739,0.326,-0.8351,168
12,-0.7306,0.2581,0.65,-0.3717,0.2943,-0.8166,168
12,-0.7255,0.2734,0.6602,-0.3826,0.2768,-0.7937,168
12,-0.7051,0.2775,0.6785,-0.3826,0.2768,-0.7937,168
12,-0.6969,0.2755,0.6949,-0.412,0.2649,-0.7697,168
12,-0.6969,0.2755,0.6949,-0.4568,0.2605,-0.7447,168
12,-0.6887,0.2612,0.6979,-0.5189,0.255,-0.7195,168
12,-0.6755,0.201,0.6887,-0.5647,0.2605,-0.6944,168
12,-0.6867,0.1908,0.6898,-0.5679,0.2659,-0.6694,168
12,-0.6918,0.1724,0.6877,-0.5843,0.2703,-0.6411,168
12,-0.703,0.1459,0.6785,-0.6116,0.2659,-0.6116,168
12,-0.7275,0.0959,0.6602,-0.6159,0.2583,-0.5702,168
12,-0.7418,0.0714,0.652,-0.6159,0.2583,-0.5702,168
12,-0.7469,0.053,0.6377,-0.6072,0.2507,-0.5255,168
12,-0.7449,0.0367,0.6306,-0.5919,0.2268,-0.4763,168
12,-0.7449,0.0367,0.6306,-0.5647,0.2081,-0.4197,168
12,-0.7234,0.0183,0.6367,-0.5494,0.1907,-0.3663,168
12,-0.7153,-0.0051,0.6489,-0.5408,0.1787,-0.3073,168
12,-0.6887,0.002,0.6469,-0.4971,0.1744,-0.2365,168
12,-0.6255,-0.0428,0.6744,-0.556,0.1602,-0.1886,168
12,-0.6071,-0.0734,0.6551,-0.4927,0.1558,-0.1221,168
12,-0.5826,-0.0265,0.6918,-0.3674,0.1635,-0.0621,168
12,-0.5908,0.0255,0.7306,-0.3368,0.1798,0.0076,168
12,-0.5643,-0.0092,0.7224,-0.3368,0.1798,0.0076,168
12,-0.5643,-0.0092,0.7224,-0.3903,0.1951,0.0523,168
12,-0.5602,0.0092,0.7204,-0.3422,0.1962,0.0664,168
12,-0.5459,0.049,0.7265,-0.2823,0.206,0.0828,168
12,-0.5622,0.0377,0.704,-0.2867,0.2321,0.1068,168
12,-0.5684,0.0571,0.699,-0.2812,0.2398,0.1428,168
12,-0.5786,0.1122,0.6918,-0.3193,0.2409,0.1732,168
12,-0.5918,0.0979,0.6703,-0.3848,0.255,0.1896,168
12,-0.602,0.1357,0.6877,-0.3891,0.2507,0.2125,168
12,-0.5979,0.1744,0.7142,-0.4557,0.2409,0.2256,168
12,-0.6102,0.1296,0.7459,-0.4557,0.2409,0.2256,168
12,-0.6102,0.1296,0.7459,-0.5429,0.2333,0.2268,168
12,-0.6061,0.1367,0.7765,-0.5745,0.2289,0.2268,168
12,-0.6061,0.1255,0.8102,-0.6356,0.2234,0.2224,168
12,-0.6061,0.0652,0.8193,-0.6911,0.2388,0.2093,168
12,-0.6153,-0.0193,0.851,-0.6923,0.255,0.2071,168
12,-0.6122,-0.0591,0.851,-0.6879,0.2791,0.2071,168
12,-0.6153,-0.1082,0.8469,-0.6726,0.3096,0.2147,168
12,-0.6316,-0.1561,0.8398,-0.6301,0.338,0.2344,168
12,-0.6837,-0.2265,0.8091,-0.5484,0.3685,0.2583,168
12,-0.7296,-0.2408,0.7898,-0.5484,0.3685,0.2583,168
12,-0.7928,-0.2449,0.7724,-0.4132,0.3979,0.2693,168
12,-0.7928,-0.2449,0.7724,-0.2453,0.4034,0.2333,168
12,-0.8367,-0.2204,0.7581,-0.0545,0.3685,0.1482,168
12,-0.9173,-0.1234,0.7592,0.1079,0.338,0.074,168
12,-0.9877,-0.0806,0.7459,0.1798,0.2976,0.0349,168
12,-1.0316,-0.0836,0.7133,0.2136,0.242,-0.0108,168
12,-1.0622,-0.0898,0.6785,0.2856,0.1864,-0.0479,168
12,-1.0887,-0.0632,0.5918,0.375,0.1253,-0.086,168
12,-1.0295,-0.0714,0.5336,0.4382,0.037,-0.1133,168
12,-1.0112,-0.1,0.4601,0.4382,0.037,-0.1133,168
12,-0.9051,-0.0847,0.4479,0.5255,-0.0457,-0.1297,168
12,-0.9051,-0.0847,0.4479,0.6596,-0.1406,-0.1253,168
12,-0.7775,-0.0561,0.4734,0.7533,-0.23,-0.1089,168
12,-0.7092,-0.051,0.4897,0.8601,-0.2987,-0.0818,168
12,-0.6796,0.001,0.5286,1.016,-0.3434,-0.0402,168
12,-0.6387,0.0796,0.5765,1.1033,-0.3804,-0.0011,168
13,-0.6041,0.1163,0.5765,1.1207,-0.3891,0.0305,168
13,-0.5826,0.1204,0.5541,1.1676,-0.387,0.074,168
13,-0.5663,0.1224,0.5398,1.2352,-0.3554,0.1341,168
13,-0.5459,0.1102,0.5275,1.2352,-0.3554,0.1341,168
13,-0.4969,0.1387,0.4836,1.3105,-0.3237,0.2147,168
13,-0.4969,0.1387,0.4836,1.4511,-0.2976,0.3237,168
13,-0.4653,0.1938,0.4642,1.607,-0.2573,0.4481,168
13,-0.4337,0.2724,0.4387,1.739,-0.2213,0.5843,168
13,-0.3459,0.4663,0.3694,1.825,-0.1776,0.7119,168
13,-0.3132,0.5663,0.3275,1.8437,-0.1144,0.7937,168
13,-0.2479,0.6367,0.2826,1.8447,-0.0381,0.8275,168
13,-0.2612,0.6612,0.2888,1.9319,0.0654,0.9038,168
13,-0.0816,0.9296,0.3734,1.8971,0.1308,0.9496,168
13,-0.2449,1.3683,0.1612,1.8971,0.1308,0.9496,168
13,-0.2449,1.3683,0.1612,1.7029,0.2888,1.1829,168
13,-0.5571,1.7071,0.5939,1.3998,0.3401,1.6016,168
13,-0.5571,1.7071,0.5939,0.6411,0.4916,1.5558,168
13,-0.8245,1.6653,0.4449,0.0065,0.5429,1.5263,168
13,-0.8632,1.7928,0.4275,-0.3336,0.5723,1.4925,168
13,-0.953,1.851,0.4601,-0.9048,0.6062,1.2952,168
13,-1.2173,1.8582,0.5224,-1.6277,0.5396,1.0816,168
13,-1.8286,1.7265,0.7888,-2.2852,0.2954,0.8122,168
13,-1.9806,1.4,0.5663,-2.9622,0.0457,0.4557,168
13,-1.9112,0.9755,0.2622,-3.5444,-0.2464,0.1068,168
13,-1.6683,0.6234,0.0173,-3.5444,-0.2464,0.1068,168
13,-1.6683,0.6234,0.0173,-3.7832,-0.4818,-0.1003,168
13,-1.3673,0.0632,-0.1602,-4.0427,-0.6955,-0.1896,168
13,-1.1,-0.1673,-0.1061,-4.3599,-0.9005,-0.2856,168
13,-0.9775,-0.5336,0.0122,4.2973,-0.9561,-0.2922,168
13,-0.3561,1.898,0.8591,-3.9925,-1.1818,0.3532,168
13,-0.3398,1.5602,0.7194,-3.4441,-1.7041,0.3859,168
13,-0.3398,1.5602,0.7194,-2.2382,-1.4053,1.099,168
13,-0.4275,1.7939,0.9081,-0.5396,-1.1272,1.3159,168
13,-0.4612,-1.3785,0.9041,1.0412,-0.834,-0.0686,168
13,-0.1102,-1.6551,0.603,1.7106,-0.6879,-1.3181,168
13,-0.1653,-1.1949,0.8367,2.5883,-0.557,-1.5209,168
13,-0.1367,-0.8949,0.8724,2.8336,-0.4414,-1.5492,168
13,-0.303,-0.3591,1.1551,2.8849,-0.267,-1.2047,168
13,-0.4092,-0.2459,1.1581,2.6177,-0.1003,-0.7838,168
13,-0.5673,-0.3,0.9745,2.6177,-0.1003,-0.7838,168
13,-0.5673,-0.3,0.9745,2.3975,0.0686,-0.3685,168
13,-0.6224,-0.2918,0.7979,2.5501,0.1962,0.1286,168
13,-0.8755,0.1346,0.3979,2.7159,0.2856,0.2899,168
13,-0.8061,0.1683,0.3234,2.8434,0.2539,0.1678,168
13,-0.7061,0.1775,0.5449,3.0614,0.2115,0.1274,168
13,-0.6785,0.3846,0.7928,3.1596,0.1951,0.2321,168
13,-0.5071,0.45,0.8704,3.1541,0.206,0.3641,168
13,-0.4326,0.4163,0.6,3.2806,0.2844,0.3924,168
13,-0.5306,0.5234,0.355,3.7613,0.3052,0.206,168
13,-0.6183,1.0571,0.1622,3.7613,0.3052,0.206,168
13,-0.6183,1.0571,0.1622,4.3634,0.1024,-0.0784,168
13,-0.6367,1.2795,0.0275,4.3634,0.0381,-0.5331,168
13,-0.2704,1.802,0.4041,4.2204,-0.1089,-0.8863,168
13,-0.5306,1.9999,0.4949,3.2849,0.0654,-0.5233,168
13,-0.151,1.9999,0.7908,1.6833,0.3161,-0.1013,168
13,-0.3459,1.6102,0.5714,0.5047,0.4927,-0.0217,168
13,-0.403,1.4796,0.4724,0.2039,0.6301,-0.0021,168
13,-0.4888,1.6041,0.4826,0.1198,0.7064,-0.1003,168
13,-0.4571,1.449,0.3887,-0.1602,0.6465,-0.6367,168
13,-0.4214,1.4326,0.3387,-0.1602,0.6465,-0.6367,168
13,-0.4877,1.4244,0.3571,-0.1852,0.6083,-0.8078,168
13,-0.4877,1.4244,0.3571,-0.5287,0.6148,-0.9387,167
13,-0.5336,1.2306,0.3245,-0.9877,0.6192,-1.0433,167
13,-0.6245,1.1204,0.3152,-1.2113,0.5952,-1.1142,167
13,-0.6387,0.9296,0.3745,-1.4467,0.5833,-1.1535,167
13,-0.7092,0.85,0.3949,-1.6757,0.6225,-1.1425,167
13,-0.7224,0.7173,0.401,-1.9057,0.6323,-1.135,167
13,-0.7347,0.5908,0.3898,-2.0627,0.6356,-1.0738,167
13,-0.8245,0.353,0.3296,-2.1129,0.6465,-1.0183,167
13,-0.8367,0.2336,0.3469,-2.1129,0.6465,-1.0183,167
13,-0.8622,0.1642,0.3877,-2.0463,0.6268,-1.0389,167
13,-0.8622,0.1642,0.3877,-1.8763,0.5843,-1.0869,167
13,-0.8582,0.0765,0.4255,-1.643,0.5364,-1.1556,167
13,-0.8663,0.0612,0.4224,-1.4173,0.5156,-1.1741,167
13,-0.8602,0.0326,0.4173,-1.2636,0.4851,-1.1392,167
13,-0.8745,0.002,0.4041,-1.1491,0.4589,-1.0728,167
13,-0.8286,-0.0438,0.451,-1.0793,0.4109,-0.9975,167
13,-0.8939,0.0724,0.4265,-0.9507,0.3914,-0.9365,167
13,-0.8041,-0.1622,0.3714,-0.8973,0.3565,-0.8918,167
13,-0.7867,-0.0459,0.4571,-0.8973,0.3565,-0.8918,167
13,-0.7581,0.0928,0.5306,-0.6148,0.3565,-0.7937,167
13,-0.7061,0.1265,0.549,-0.4601,0.3685,-0.7392,167
13,-0.7061,0.1265,0.549,-0.4633,0.388,-0.6944,167
13,-0.7571,0.0908,0.5204,-0.4568,0.412,-0.665,167
13,-0.701,0.1632,0.5377,-0.4088,0.4164,-0.6465,167
13,-0.7,0.1857,0.4949,-0.4109,0.4263,-0.6203,167
13,-0.7112,0.1918,0.4612,-0.4132,0.4524,-0.5919,167
13,-0.7214,0.2183,0.451,-0.399,0.4742,-0.5582,167
13,-0.7245,0.2531,0.451,-0.4458,0.4742,-0.5156,167
13,-0.7531,0.2714,0.4469,-0.5255,0.471,-0.4742,167
13,-0.7653,0.2877,0.4601,-0.5255,0.471,-0.4742,167
13,-0.7826,0.2928,0.4673,-0.5833,0.4666,-0.4273,167
13,-0.7826,0.2928,0.4673,-0.664,0.4611,-0.3859,167
13,-0.799,0.2734,0.4826,-0.7457,0.4536,-0.3412,167
13,-0.8489,0.2377,0.5092,-0.8078,0.4469,-0.2888,167
13,-0.8989,0.2092,0.5163,-0.8624,0.4414,-0.2365,167
13,-0.949,0.1806,0.5112,-0.8775,0.4361,-0.1744,167
13,-1.0132,0.1714,0.5051,-0.8439,0.4219,-0.1047,167
13,-1.151,0.2214,0.4888,-0.8132,0.4012,-0.0337,167
13,-1.2112,0.2612,0.4683,-0.8144,0.3532,0.0349,167
13,-1.2112,0.2612,0.4683,-0.8144,0.3532,0.0349,167
13,-1.2561,0.3071,0.4561,-0.8525,0.2878,0.1024,167
13,-1.2928,0.3602,0.4387,-0.942,0.1875,0.157,167
13,-1.2969,0.4387,0.3989,-1.0837,0.0631,0.2016,167
13,-1.2693,0.4612,0.3928,-1.2745,-0.073,0.2256,167
13,-1.2092,0.4449,0.4,-1.5067,-0.2159,0.2245,167
13,-1.152,0.4061,0.4122,-1.7237,-0.338,0.2027,167
13,-1.0408,0.3061,0.4694,-1.9385,-0.4524,0.1646,167
13,-0.9806,0.2316,0.4959,-2.139,-0.5418,0.1144,167
14,-0.95,0.1337,0.4755,-2.2546,-0.5996,0.0818,167
14,-0.8816,0.0918,0.5428,-2.2546,-0.5996,0.0818,167
14,-0.8816,0.0918,0.5428,-2.391,-0.653,0.0631,167
14,-0.7683,-0.0979,0.5847,-2.6329,-0.6814,0.0818,167
14,-0.6724,-0.3846,0.5153,-2.7932,-0.6791,0.1547,167
14,-0.6622,-0.4959,0.551,-2.7758,-0.6247,0.2703,167
14,-0.704,-0.6489,0.5173,-2.5566,-0.5908,0.3063,167
14,-0.4938,-1.1703,0.4612,-2.115,-0.5931,0.4295,167
14,-0.3806,-1.1969,0.4969,-1.8327,-0.6181,0.7054,167
14,-0.4306,-1.0061,0.4326,-1.582,-0.664,0.785,167
14,-0.3643,-1.0,0.454,-1.1436,-0.7447,0.4481,167
14,-0.1214,-1.152,0.5469,-1.1436,-0.7447,0.4481,167
14,-0.0857,-0.9347,0.551,-0.6083,-0.7783,0.0589,167
14,-0.0857,-0.9347,0.551,-0.1558,-0.5931,-0.2823,167
14,0.0081,-0.7918,0.7469,0.0131,-0.4568,-0.4666,167
14,0.0112,-0.8265,0.8173,-0.1461,-0.35,-0.4655,167
14,0.0652,-1.0163,0.9571,-0.3193,-0.2125,-0.2442,167
14,0.0377,-1.1173,0.953,-0.3151,-0.0774,-0.0937,167
14,0.0306,-1.204,0.9449,-0.1318,0.1024,0.049,167
14,-0.0673,-1.35,0.8418,0.3063,0.3489,0.1558,167
14,-0.2826,-1.4694,0.603,1.1055,0.5484,0.1962,167
14,-0.3663,-1.1775,0.5704,1.1055,0.5484,0.1962,167
14,-0.4938,-1.004,0.6296,1.9559,0.7184,0.2321,167
14,-0.4938,-1.004,0.6296,2.4269,0.8405,0.2943,167
14,-0.6969,-0.8887,0.5571,2.6821,0.8155,0.3019,167
14,-0.9888,-0.5286,0.6581,2.9372,0.7424,0.1177,167
14,-1.1337,-0.403,0.6663,2.9372,0.7424,0.1177,167
14,-1.2867,-0.3653,0.5786,2.9469,0.6596,0.0664,167
14,-1.4551,-0.1581,0.2622,2.9709,0.5211,0.3302,167
14,-1.5204,0.1285,0.1214,3.0833,0.4164,0.5124,167
14,-1.4796,0.4142,0.0183,3.1247,0.2638,0.5494,167
14,-1.3091,0.5092,-0.0418,2.4553,-0.0948,0.7327,167
14,-1.2734,0.6265,-0.0367,2.4553,-0.0948,0.7327,167
14,-1.1918,0.7673,0.0408,2.4553,-0.0948,0.7327,167
14,-1.1918,0.7673,0.0408,2.2132,-0.2529,0.8994,167
14,-1.1,1.1938,-0.0398,1.9723,-0.5931,0.9256,167
14,-0.7255,0.7571,0.1132,1.9723,-0.5931,0.9256,167
14,-0.7622,0.7847,0.2622,1.739,-0.6911,0.9889,167
14,-0.6091,0.7112,0.2622,1.5885,-0.7327,1.0412,167
14,-0.552,0.5816,0.2101,1.4456,-0.714,0.9921,167
14,-0.3969,0.7632,0.2959,1.6102,-0.6421,1.1306,167
14,-0.2979,0.7602,0.3061,1.6102,-0.6421,1.1306,167
14,-0.3234,0.7847,0.252,1.5122,-0.5505,1.1698,167
14,-0.301,0.851,0.2388,1.4816,-0.4458,1.2439,167
14,-0.25,0.8918,0.1744,1.4816,-0.4458,1.2439,167
14,-0.25,0.8918,0.1744,1.438,-0.3935,1.2832,167
14,-0.2571,0.9163,0.1367,1.28,-0.2354,1.3235,167
14,-0.2479,1.0204,0.1908,1.28,-0.2354,1.3235,167
14,-0.2755,1.1714,0.3102,1.2962,-0.1602,1.3617,167
14,-0.4551,1.4796,0.4847,1.2985,-0.0326,1.3464,167
14,-0.5214,1.5939,0.5122,1.1774,0.11,1.2854,167
14,-0.6061,1.6949,0.4622,0.967,0.2529,1.2374,167
14,-0.6755,1.7306,0.4051,0.5996,0.3968,1.1621,167
14,-1.0061,1.752,0.5602,0.0479,0.4938,1.0499,167
14,-1.2275,1.7397,0.6663,0.0479,0.4938,1.0499,167
14,-1.453,1.7367,0.7081,-0.5799,0.5309,0.9365,167
14,-1.453,1.7367,0.7081,-1.0913,0.4643,0.7424,167
14,-1.5979,1.5989,0.6418,-1.5285,0.3193,0.5026,167
14,-1.6898,0.9581,0.2122,-2.0976,0.1362,0.2453,167
14,-1.5908,0.6224,0.0479,-2.6504,-0.0425,0.0272,167
14,-1.4653,0.3112,0.0173,-2.9895,-0.2071,-0.0894,167
14,-1.3643,0.0459,0.0377,-3.2075,-0.3412,-0.0457,167
14,-1.2224,-0.2979,0.2755,-3.2392,-0.4393,0.0806,167
14,-1.1367,-0.1653,0.4633,-3.0658,-0.5418,0.2256,167
14,-1.1816,-0.6204,0.4622,-3.0658,-0.5418,0.2256,167
14,-0.8979,-0.8336,0.5193,-2.8532,-0.7108,0.2539,167
14,-0.8979,-0.8336,0.5193,-2.5348,-0.8775,-0.0282,167
14,-0.7632,-1.1337,0.4122,-1.8567,-0.9017,-0.2104,167
14,-0.802,-0.9826,0.3775,-0.9616,-0.9769,-0.2464,167
14,-0.8398,-0.6612,0.5377,-0.2333,-1.0215,0.0185,167
14,-0.6122,-0.6194,0.8102,0.3935,-1.0891,-0.0043,167
14,-0.3479,-0.2133,1.3979,0.6486,-1.1022,-0.1701,167
14,-0.3286,-0.2112,1.0724,0.9365,-1.0532,-0.169,167
14,-0.2643,-0.0214,0.8428,1.3792,-0.9202,-0.1341,167
14,-0.301,0.1959,0.7531,1.3792,-0.9202,-0.1341,167
14,-0.2847,0.4398,0.6806,1.969,-0.7795,-0.1417,167
14,-0.2847,0.4398,0.6806,2.1304,-0.7174,-0.3052,167
14,-0.2775,0.603,0.7898,2.0692,-0.6585,-0.6606,167
14,-0.2949,0.7959,0.9285,2.0595,-0.5745,-0.9278,167
14,-0.3061,1.004,1.0132,1.9908,-0.4677,-1.0118,167
14,-0.1979,0.8663,0.9663,1.7258,-0.3771,-1.1077,167
14,-0.1887,0.855,0.8724,1.3323,-0.2049,-1.1884,167
14,-0.1959,0.7888,0.7969,1.0848,-0.036,-1.1218,167
14,-0.201,0.8163,0.7306,0.7762,0.0992,-0.9931,167
14,-0.2275,0.6082,0.5918,0.7762,0.0992,-0.9931,167
14,-0.2275,0.6082,0.5918,0.4546,0.2039,-1.0345,167
14,-0.3173,0.6632,0.6224,0.387,0.2954,-1.0837,167
14,-0.3448,0.7347,0.6775,0.4229,0.387,-1.0738,167
14,-0.5163,0.6703,0.6408,0.2976,0.4786,-1.0793,167
14,-0.5877,0.6949,0.6183,0.1341,0.5516,-1.0848,167
14,-0.6551,0.703,0.6041,0.0402,0.5833,-1.0804,167
14,-0.702,0.6469,0.5602,-0.1144,0.5942,-1.1011,167
14,-0.8091,0.5857,0.5459,-0.2747,0.5963,-1.1436,167
14,-0.8336,0.5602,0.5643,-0.3761,0.5549,-1.1829,167
14,-0.8479,0.4959,0.5652,-0.3761,0.5549,-1.1829,167
14,-0.8479,0.4959,0.5652,-0.5004,0.5015,-1.2178,167
14,-0.8683,0.4265,0.55,-0.6213,0.4589,-1.2571,167
14,-0.8785,0.3071,0.5204,-0.6749,0.4219,-1.281,167
14,-0.8561,0.2561,0.5326,-0.6911,0.3783,-1.2734,167
14,-0.8377,0.1959,0.5438,-0.7108,0.3183,-1.2505,167
14,-0.8163,0.1602,0.5622,-0.702,0.2747,-1.209,167
14,-0.7898,0.1102,0.6,-0.6497,0.2376,-1.1425,167
14,-0.7795,0.0806,0.6082,-0.6116,0.23,-1.0749,167
14,-0.7673,0.0602,0.6041,-0.581,0.2234,-0.9986,167
14,-0.7581,0.0643,0.6112,-0.581,0.2234,-0.9986,167
14,-0.7499,0.0877,0.6061,-0.5135,0.2388,-0.9212,167
14,-0.7499,0.0877,0.6061,-0.4361,0.2605,-0.8504,167
14,-0.7388,0.1214,0.5887,-0.3739,0.2812,-0.7893,167
14,-0.6908,0.2081,0.5928,-0.2954,0.3052,-0.7359,167
14,-0.7571,0.1581,0.5428,-0.3041,0.3281,-0.6988,167
14,-0.6642,0.1959,0.5663,-0.2943,0.3281,-0.6454,167
15,-0.7234,0.203,0.5632,-0.2693,0.339,-0.6028,167
15,-0.6653,0.1877,0.549,-0.2922,0.3477,-0.5582,167
15,-0.6949,0.2112,0.5591,-0.3216,0.3565,-0.5135,167
15,-0.6908,0.2326,0.5693,-0.3281,0.3641,-0.4622,167
15,-0.7163,0.1979,0.5684,-0.3281,0.3641,-0.4622,167
15,-0.7234,0.1898,0.5836,-0.4197,0.3706,-0.4088,167
15,-0.7234,0.1898,0.5836,-0.4851,0.3848,-0.3489,167
15,-0.7683,0.1887,0.5959,-0.5036,0.399,-0.2867,167
15,-0.8459,0.1653,0.6,-0.532,0.4187,-0.2256,167
15,-0.9041,0.1826,0.5948,-0.5287,0.4404,-0.1602,167
15,-0.9449,0.2163,0.5918,-0.4971,0.4578,-0.0784,167
15,-1.0306,0.2786,0.5959,-0.4895,0.4698,0.0152,167
15,-1.1337,0.3796,0.5775,-0.5309,0.4633,0.1133,167
15,-1.1775,0.4061,0.5469,-0.5309,0.4633,0.1133,167
15,-1.2081,0.4663,0.5183,-0.6432,0.4349,0.2071,167
15,-1.2173,0.5418,0.4969,-0.7861,0.399,0.2943,167
15,-1.2173,0.5418,0.4969,-0.9202,0.3302,0.3619,167
15,-1.1622,0.5193,0.4765,-1.1621,0.2256,0.3903,167
15,-1.1224,0.4612,0.4806,-1.4838,0.098,0.3761,167
15,-1.0693,0.4469,0.5326,-1.7193,-0.0282,0.3336,167
15,-1.0081,0.3745,0.5428,-1.9265,-0.1461,0.2659,167
15,-0.8653,0.1847,0.5173,-2.1499,-0.255,0.1831,167
15,-0.8,0.0796,0.5234,-2.2972,-0.3237,0.1003,167
15,-0.6847,-0.0438,0.5183,-2.2972,-0.3237,0.1003,167
15,-0.6847,-0.0438,0.5183,-2.3996,-0.3706,0.037,167
15,-0.5173,-0.4275,0.5153,-2.5457,-0.3815,0.0316,167
15,-0.5173,-0.4275,0.5153,-2.7092,-0.3641,0.0402,167
15,-0.4673,-0.5479,0.4938,-2.6831,-0.3336,0.0784,167
15,-0.4092,-0.8643,0.5479,-2.5251,-0.2737,0.0664,167
15,-0.2724,-1.0112,0.453,-1.982,-0.2234,0.5189,167
15,-0.2479,-1.0745,0.4683,-1.8588,-0.2201,0.5211,167
15,-0.2153,-1.0775,0.4969,-1.3956,-0.2039,0.4012,167
15,-0.1551,-1.0826,0.5714,-0.8275,-0.2256,0.2049,167
15,-0.0224,-0.9755,0.6755,-0.4099,-0.1951,-0.1732,167
15,0.0418,-0.7745,0.751,-0.0425,0.0174,-0.4601,167
15,0.0336,-0.8173,0.8448,0.1144,0.1461,-0.5341,167
15,0.0081,-0.9347,0.8806,0.1144,0.1461,-0.5341,167
15,-0.2051,-1.153,0.8632,0.0511,0.3183,-0.5723,167
15,-0.2051,-1.153,0.8632,-0.1035,0.4698,-0.2867,167
15,-0.2755,-1.4092,0.8214,-0.2398,0.6083,-0.1558,167
15,-0.4244,-1.5102,0.6857,-0.0206,0.7676,-0.0043,167
15,-0.6255,-1.6357,0.6082,0.5799,0.967,0.194,167
15,-0.9857,-1.4,0.5449,1.4141,1.0935,0.2966,167
15,-1.2101,-1.1735,0.5031,2.3386,1.1251,0.2932,167
15,-1.4071,-0.9806,0.3816,3.0146,1.1033,0.3663,167
15,-1.7092,-0.4571,0.1255,3.4714,0.9605,0.3565,167
15,-1.8132,-0.1337,0.0286,3.4714,0.9605,0.3565,167
15,-1.9622,0.5459,-0.0796,3.8803,0.7676,0.2966,167
15,-1.9622,0.5459,-0.0796,4.155,0.5484,0.1471,167
15,-1.8275,0.5367,-0.0765,4.1844,0.2398,-0.1623,167
15,-1.1326,0.4132,-0.0541,3.8203,-0.0948,-0.399,167
15,-1.3785,1.6602,-0.299,3.2632,-0.3477,0.073,167
15,-1.1571,1.3071,-0.0765,3.3013,-0.338,0.6694,167
15,-0.9418,1.0398,-0.0092,2.5512,-0.3794,1.1459,167
15,-0.6765,0.8132,0.0602,1.6255,-0.483,1.1327,167
15,-0.5388,1.0367,0.3336,1.6474,-0.6018,1.2734,167
15,-0.499,1.0673,0.4836,1.6474,-0.6018,1.2734,167
15,-0.3234,0.7499,0.2459,1.668,-0.6432,1.2854,167
15,-0.3234,0.7499,0.2459,1.3737,-0.6072,1.2625,167
15,-0.3622,0.9969,0.3316,1.3552,-0.5156,1.5122,167
15,-0.1806,0.9203,0.2347,1.2211,-0.2191,1.4532,167
15,-0.1091,1.1714,0.2357,1.2047,-0.1482,1.3683,167
15,-0.1744,1.2918,0.254,1.1796,-0.0065,1.3998,167
15,-0.1214,1.1183,0.1571,0.6846,0.0457,1.3443,167
15,-0.1816,0.9734,0.1275,0.182,0.206,1.2777,167
15,-0.1837,1.0673,0.2836,0.0992,0.3412,1.2548,167
15,-0.2786,1.2275,0.3918,0.0992,0.3412,1.2548,167
15,-0.2786,1.2275,0.3918,0.2409,0.4568,1.2418,167
15,-0.5255,1.4122,0.355,0.1417,0.5679,1.1862,167
15,-0.6459,1.4938,0.3448,-0.0555,0.665,1.1055,167
15,-0.7561,1.4969,0.3428,-0.3771,0.7621,1.0074,167
15,-0.9306,1.4592,0.3673,-0.8907,0.8056,0.8754,167
15,-1.3408,1.3846,0.5092,-1.3334,0.7554,0.7272,167
15,-1.5745,1.2693,0.4775,-1.7313,0.6432,0.5385,167
15,-1.7428,1.0786,0.4265,-2.1543,0.4763,0.3281,167
15,-1.8316,0.8561,0.3622,-2.5163,0.2932,0.1079,167
15,-1.7857,0.4203,0.1653,-2.8172,0.1112,-0.0959,167
15,-1.7857,0.4203,0.1653,-2.8172,0.1112,-0.0959,167
15,-1.7285,0.203,0.1296,-3.0396,-0.0446,-0.2278,167
15,-1.5887,-0.1694,0.1377,-3.2849,-0.1842,-0.2573,167
15,-1.502,-0.4622,0.1642,-3.5204,-0.3161,-0.0872,167
15,-1.6642,-1.1622,0.3316,-3.5608,-0.4414,0.2485,167
15,-1.3439,-1.5163,0.1683,-3.4093,-0.6291,0.2354,167
15,-1.3234,-1.6796,0.5214,-2.4061,-0.809,0.3368,167
15,-0.9398,-1.5847,0.5193,-1.6724,-1.016,0.4109,167
15,-0.8806,-1.3336,0.3377,-0.8668,-0.9582,0.6018,167
15,-0.8469,-0.9673,0.4908,0.2714,-1.0499,0.7468,167
15,-0.7724,-0.5591,0.6928,0.2714,-1.0499,0.7468,167
15,-0.7724,-0.5591,0.6928,1.3878,-1.1011,0.4797,167
15,-0.653,-0.4633,0.6673,1.7041,-1.1131,0.086,167
15,-0.4755,-0.2224,0.5786,1.7651,-1.0881,-0.1558,167
15,-0.502,-0.0102,0.5673,2.0289,-0.991,-0.1537,167
15,-0.5081,0.299,0.5867,2.2142,-0.8733,-0.0959,167
15,-0.4908,0.5031,0.5734,1.9887,-0.8275,-0.1962,167
15,-0.351,0.5102,1.1346,1.7247,-0.7981,-0.4273,167
15,-0.3765,0.652,1.452,1.4664,-0.7489,-0.3826,167
15,-0.4163,0.6489,1.3041,1.2571,-0.6203,-0.2115,167
15,-0.3439,0.5357,1.0051,1.2571,-0.6203,-0.2115,167
15,-0.4581,0.6592,0.7632,1.3607,-0.5331,-0.3063,167
15,-0.4581,0.6592,0.7632,1.6877,-0.3968,-0.4382,167
15,-0.552,0.7734,0.7336,1.7869,-0.3063,-0.6442,167
15,-0.5887,1.0591,0.754,1.763,-0.3085,-0.9103,167
15,-0.5796,0.95,0.8602,1.7487,-0.267,-1.1033,167
15,-0.454,1.103,0.9224,1.5209,-0.0937,-1.2167,167
15,-0.4653,1.0245,0.8622,1.2407,0.0523,-1.3792,167
15,-0.4122,0.9092,0.8214,0.7501,0.2278,-1.4969,167
15,-0.3673,0.7592,0.7531,0.3271,0.3456,-1.4565,167
15,-0.351,0.5826,0.7081,0.3271,0.3456,-1.4565,167
15,-0.3694,0.5031,0.6632,0.0795,0.4589,-1.3977,167
16,-0.3694,0.5031,0.6632,0.0053,0.5843,-1.4261,167
16,-0.4581,0.4979,0.6102,0.0654,0.7239,-1.4358,167
16,-0.552,0.5704,0.5051,0.1133,0.8002,-1.3813,167
16,-0.601,0.5438,0.449,-0.0065,0.8439,-1.3224,167
16,-0.6796,0.5153,0.3959,-0.1875,0.883,-1.2712,167
16,-0.7357,0.5071,0.3846,-0.3041,0.9092,-1.2113,167
16,-0.8071,0.4897,0.3673,-0.4088,0.8983,-1.1491,167
16,-0.8286,0.4428,0.3439,-0.5593,0.871,-1.1131,167
16,-0.8489,0.3898,0.3347,-0.5593,0.871,-1.1131,167
16,-0.855,0.3694,0.351,-0.6988,0.8307,-1.0935,167
16,-0.855,0.3694,0.351,-0.7632,0.7926,-1.0782,167
16,-0.8602,0.2898,0.3734,-0.8187,0.7522,-1.0706,167
16,-0.852,0.2408,0.3816,-0.8775,0.7163,-1.0652,167
16,-0.8418,0.2092,0.3877,-0.895,0.6923,-1.0412,167
16,-0.8347,0.1796,0.3928,-0.8798,0.6825,-1.003,167
16,-0.8143,0.1163,0.3694,-0.8689,0.6901,-0.9452,167
16,-0.8357,0.0734,0.3163,-0.8775,0.7119,-0.8689,167
16,-0.8398,0.0367,0.3286,-0.9059,0.7293,-0.7653,167
16,-0.8234,-0.0112,0.3255,-0.9059,0.7293,-0.7653,167
16,-0.8234,-0.0112,0.3255,-0.9572,0.7348,-0.6585,167
16,-0.9061,0.0459,0.3234,-0.9103,0.7533,-0.556,167
16,-0.8428,0.0214,0.3357,-0.6869,0.7871,-0.4851,167
16,-0.9785,0.1418,0.3265,-0.6454,0.7947,-0.4775,167
16,-1.0081,0.1469,0.2867,-0.5702,0.7795,-0.4219,167
16,-1.1387,0.2051,0.3163,-0.6051,0.7577,-0.3826,167
16,-1.1908,0.1581,0.2918,-0.6617,0.7108,-0.3401,167
16,-1.2112,0.1796,0.2714,-0.7489,0.6465,-0.2987,167
16,-1.254,0.1816,0.2357,-0.7817,0.5734,-0.2485,167
16,-1.3214,0.152,0.2061,-0.7817,0.5734,-0.2485,167
16,-1.3214,0.152,0.2061,-0.8601,0.4807,-0.194,167
16,-1.3459,0.1826,0.2704,-1.0303,0.1581,-0.0349,167
16,-1.2622,0.1755,0.2479,-1.0303,0.1581,-0.0349,167
16,-1.2622,0.1755,0.2479,-1.1207,0.0316,0.0032,167
16,-1.1703,0.1755,0.2408,-1.2396,-0.0904,0.024,167
16,-1.102,0.1489,0.2347,-1.3573,-0.2268,0.0349,167
16,-0.9959,0.1132,0.2357,-1.5165,-0.3609,0.0349,167
16,-0.8479,0.0204,0.2949,-1.668,-0.4666,0.0294,167
16,-0.7602,-0.0092,0.3571,-1.764,-0.5582,0.0337,167
16,-0.7224,-0.0286,0.3959,-1.8698,-0.6181,0.0511,167
16,-0.601,-0.102,0.4734,-2.0322,-0.653,0.086,167
16,-0.5092,-0.2704,0.5581,-2.2121,-0.652,0.1602,167
16,-0.4857,-0.2816,0.5357,-2.2121,-0.652,0.1602,167
16,-0.3826,-0.4265,0.5704,-2.3571,-0.652,0.2529,167
16,-0.3826,-0.4265,0.5704,-2.4824,-0.6508,0.2747,167
16,-0.3622,-0.6581,0.5643,-2.5316,-0.5156,0.2966,167
16,-0.2836,-1.0388,0.504,-2.3451,-0.351,0.5102,167
16,-0.2051,-1.1296,0.6357,-2.1663,-0.4012,0.7708,167
16,-0.251,-1.1082,0.5745,-2.1064,-0.3717,0.9997,167
16,-0.2795,-1.1765,0.5786,-1.7771,-0.2725,1.1011,167
16,-0.3316,-1.3959,0.5704,-1.3029,-0.2268,0.9353,167
16,-0.2949,-1.5102,0.6234,-1.3029,-0.2268,0.9353,167
16,-0.2469,-1.3989,0.5234,-0.7882,-0.1623,0.557,167
16,-0.3122,-1.1938,0.6245,-0.1635,-0.025,0.1667,167
16,-0.3122,-1.1938,0.6245,0.4927,0.2245,0.0511,167
16,-0.4071,-1.1683,0.5836,0.7926,0.4109,-0.0839,167
16,-0.502,-1.1132,0.6724,0.954,0.5167,-0.0894,167
16,-0.6408,-1.1102,0.7194,1.0881,0.6116,0.1274,167
16,-0.8347,-1.1571,0.801,1.2909,0.6661,0.2682,167
16,-1.4316,-0.8765,0.7051,1.825,0.7512,0.3761,167
16,-1.6714,-0.6959,0.5306,2.5337,0.7664,0.3771,167
16,-1.8224,-0.4601,0.3479,3.176,0.7108,0.2093,166
16,1.9745,0.3724,-0.0877,3.176,0.7108,0.2093,166
16,1.9745,0.3724,-0.0877,3.6687,0.5757,-0.1123,166
16,1.9327,0.5306,-0.2101,4.0045,0.3489,-0.5156,166
16,1.9643,0.6735,-0.3122,3.9141,-0.012,-0.9124,166
16,-1.3071,0.5408,-0.1163,3.1705,-0.4982,-0.9528,166
16,-1.5591,1.3357,-0.002,2.4694,-0.6247,-0.544,166
16,-1.2101,1.1255,0.1449,2.6951,-0.8252,0.532,166
16,-1.1714,0.6316,0.0632,1.0259,-0.9212,0.8525,166
16,-0.8898,0.5755,0.1285,0.4578,-0.9954,0.9855,166
16,-0.6714,0.6724,0.4796,0.6225,-1.003,1.2014,166
16,-0.4592,0.2377,0.3683,0.6225,-1.003,1.2014,166
16,-0.4592,0.2377,0.3683,0.3193,-1.1272,0.8885,166
16,-0.3408,0.6224,0.4183,0.471,-1.0597,0.8885,166
16,-0.499,0.4979,0.5571,0.7119,-0.8504,0.9692,166
16,-0.1979,0.4581,0.4367,0.7239,-0.7991,0.7621,166
16,-0.2194,0.5173,0.4102,0.8668,-0.7676,0.7642,166
16,-0.101,0.5786,0.4,0.9507,-0.6978,0.8678,166
16,-0.1826,0.6071,0.3326,0.8853,-0.5822,0.9528,166
16,-0.2112,0.6204,0.4142,0.8504,-0.4753,1.0248,166
16,-0.2275,0.5591,0.4745,0.8656,-0.3151,1.0684,166
16,-0.1367,0.6255,0.3347,0.8656,-0.3151,1.0684,166
16,-0.2816,0.8775,0.3132,0.7893,-0.2398,1.1654,166
16,-0.2816,0.8775,0.3132,0.9343,-0.1526,1.28,166
16,-0.3745,1.1541,0.3663,0.9441,-0.0839,1.256,166
16,-0.454,1.1163,0.2622,0.5789,0.0446,1.0292,166
16,-0.4653,1.1479,0.2949,0.1907,0.1318,0.966,166
16,-0.5847,1.1775,0.3704,-0.2268,0.2049,1.0171,166
16,-0.8816,1.1418,0.4897,-0.6966,0.2583,0.8863,166
16,-1.1204,1.3408,0.6785,-0.8863,0.2321,0.689,166
16,-1.3908,1.4571,0.799,-1.1262,0.1035,0.4655,166
16,-1.5928,1.2643,0.754,-1.1262,0.1035,0.4655,166
16,-1.8459,0.3939,0.3643,-1.7586,-0.0915,0.1591,166
16,-1.8459,0.3939,0.3643,-2.4258,-0.2693,-0.157,166
16,-1.5939,0.0898,0.1887,-2.7518,-0.4077,-0.3565,166
16,-1.5786,-0.0939,0.249,-2.6144,-0.5265,-0.3554,166
16,-1.4938,-0.4051,0.202,-2.6537,-0.5919,-0.231,166
16,-1.5388,-1.2316,0.251,-2.8456,-0.7392,0.0162,166
16,-1.449,-1.6459,0.2183,-2.6264,-0.9038,0.0719,166
16,-1.5908,-1.7438,0.5347,-1.957,-1.1186,0.3663,166
16,-1.0071,-1.6041,0.5541,-1.0499,-1.3246,0.4469,166
16,-1.1224,-1.1949,0.5622,-1.0499,-1.3246,0.4469,166
16,-0.9806,-0.9683,0.6602,-0.2617,-1.2701,0.8361,166
16,-0.9806,-0.9683,0.6602,0.6944,-1.256,1.0881,166
16,-0.8296,-0.8387,0.5652,1.3956,-1.2134,0.5658,166
16,-0.8846,-0.3796,0.6673,2.1096,-1.1676,0.3434,166
16,-0.7204,-0.051,0.5908,2.2525,-1.1894,0.0969,166
16,-0.802,0.2795,0.5734,2.2972,-1.1131,-0.0337,166
16,-0.8071,0.6082,0.6122,2.3985,-1.0935,-0.0446,166
16,-0.7979,0.6908,0.6285,2.1577,-1.1251,-0.2627,166
17,-0.5684,0.5786,0.5183,1.6528,-1.1818,-0.4338,166
17,-0.5989,0.7612,0.5265,1.6528,-1.1818,-0.4338,166
17,-0.5989,0.7612,0.5265,1.341,-1.1676,-0.4044,166
17,-0.6346,0.4561,0.5224,1.1621,-1.0957,-0.0381,166
17,-0.6346,0.4561,0.5224,0.7609,-1.0957,0.1722,166
17,-0.502,0.3979,0.4694,0.6465,-1.1436,0.1406,166
17,-0.4173,0.45,0.5102,0.7217,-1.1579,0.1286,166
17,-0.3867,0.303,0.4734,0.4938,-1.148,0.1133,166
17,-0.3132,0.1775,0.6398,0.3248,-1.1272,0.1264,166
17,-0.2296,0.4122,1.3041,0.4382,-1.0694,0.181,166
17,-0.0918,0.4285,1.204,0.5996,-0.9769,0.1581,166
17,-0.0479,0.3898,0.9888,0.8624,-0.8439,0.0763,166
17,-0.0479,0.3898,0.9888,0.8624,-0.8439,0.0763,166
17,-0.0551,0.4408,0.8898,1.2331,-0.702,-0.012,166
17,-0.0591,0.7693,1.0122,1.4958,-0.6181,-0.0708,166
17,-0.0643,0.8785,1.0306,1.4565,-0.532,-0.1711,166
17,-0.0449,0.9163,1.1163,1.2407,-0.4055,-0.3325,166
17,-0.0908,1.0469,1.0806,1.0728,-0.2081,-0.4687,166
17,-0.1489,1.051,1.1296,0.9376,0.0272,-0.5167,166
17,-0.1826,1.0541,1.0755,0.6814,0.2495,-0.7174,166
17,-0.1735,0.9775,1.0143,0.3271,0.4065,-0.8656,166
17,-0.2347,0.7612,0.8255,0.0349,0.5713,-0.9397,166
17,-0.2888,0.7071,0.7397,0.0349,0.5713,-0.9397,166
17,-0.2888,0.7071,0.7397,-0.0925,0.7435,-0.9637,166
17,-0.3398,0.7081,0.6887,-0.0904,0.8656,-0.979,166
17,-0.3816,0.701,0.6469,-0.1547,0.8918,-0.954,166
17,-0.4796,0.5939,0.5571,-0.3227,0.8897,-0.9202,166
17,-0.5377,0.5826,0.5438,-0.4284,0.871,-0.8733,166
17,-0.5796,0.5796,0.551,-0.4589,0.8439,-0.8416,166
17,-0.6285,0.5714,0.5469,-0.5244,0.8144,-0.8329,166
17,-0.6694,0.5153,0.5898,-0.6988,0.7577,-0.8754,166
17,-0.6765,0.504,0.6326,-0.7762,0.7392,-0.9114,166
17,-0.6816,0.4275,0.6214,-0.8885,0.7304,-0.9452,166
17,-0.7347,0.2928,0.6337,-0.8885,0.7304,-0.9452,166
17,-0.6969,0.2234,0.65,-1.0019,0.7184,-0.9572,166
17,-0.6857,0.1479,0.6469,-1.1022,0.7031,-0.954,166
17,-0.6857,0.1479,0.6469,-1.1611,0.7064,-0.9561,166
17,-0.7081,0.1071,0.6173,-1.0902,0.7403,-0.942,166
17,-0.7602,0.0357,0.5643,-1.0051,0.7783,-0.9202,166
17,-0.7928,-0.0061,0.552,-0.9582,0.8046,-0.9082,166
17,-0.8245,-0.0173,0.5367,-0.9038,0.8132,-0.8689,166
17,-0.8489,-0.05,0.5275,-0.8569,0.8067,-0.8231,166
17,-0.9408,0.0438,0.5684,-0.7676,0.8046,-0.7795,166
17,-0.9633,-0.0806,0.4918,-0.7184,0.7827,-0.7522,166
17,-0.9183,-0.0724,0.4928,-0.7184,0.7827,-0.7522,166
17,-0.9183,-0.0724,0.4928,-0.6192,0.7369,-0.6803,166
17,-0.9479,-0.0418,0.4938,-0.4807,0.7086,-0.6291,166
17,-0.9203,-0.001,0.4826,-0.4175,0.6617,-0.5757,166
17,-0.9653,-0.0173,0.4683,-0.4546,0.6301,-0.544,166
17,-0.9265,0.0214,0.4755,-0.4023,0.5931,-0.5211,166
17,-0.9203,0.0704,0.5031,-0.3575,0.5604,-0.4992,166
17,-0.855,0.0479,0.4857,-0.3958,0.544,-0.4841,166
17,-0.8663,0.0826,0.4877,-0.3706,0.532,-0.4698,166
17,-0.8122,0.1337,0.501,-0.35,0.5179,-0.4568,166
17,-0.8193,0.0806,0.4745,-0.35,0.5179,-0.4568,166
17,-0.8193,0.0806,0.4745,-0.4393,0.5124,-0.4557,166
17,-0.7857,0.1194,0.5112,-0.4589,0.508,-0.4404,166
17,-0.7806,0.1173,0.5306,-0.483,0.496,-0.4229,166
17,-0.7867,0.051,0.5183,-0.5952,0.495,-0.4055,166
17,-0.8163,0.0336,0.5275,-0.6247,0.4916,-0.375,166
17,-0.8387,0.0051,0.5112,-0.6454,0.4698,-0.3401,166
17,-0.8367,-0.0602,0.4734,-0.7228,0.4568,-0.3096,166
17,-0.8428,-0.0734,0.4714,-0.7064,0.4349,-0.2703,166
17,-0.8479,-0.0612,0.4969,-0.6835,0.4099,-0.2213,166
17,-0.8418,-0.1387,0.5193,-0.6835,0.4099,-0.2213,166
17,-0.8336,-0.1612,0.5428,-0.7228,0.3891,-0.181,166
17,-0.8336,-0.1612,0.5428,-0.7217,0.3663,-0.1242,166
17,-0.8204,-0.1928,0.553,-0.701,0.3542,-0.0643,166
17,-0.8163,-0.2336,0.5571,-0.6825,0.3532,-0.0053,166
17,-0.8255,-0.2643,0.5714,-0.6291,0.3554,0.0555,166
17,-0.8387,-0.2847,0.5643,-0.5593,0.3586,0.0937,166
17,-0.8602,-0.2979,0.5408,-0.4622,0.3674,0.1177,166
17,-0.8765,-0.2816,0.5255,-0.3248,0.3674,0.1232,166
17,-0.901,-0.2418,0.4836,-0.2115,0.35,0.1232,166
17,-0.9183,-0.2194,0.4734,-0.1362,0.3271,0.1318,166
17,-0.9438,-0.1857,0.4755,-0.1362,0.3271,0.1318,166
17,-1.0031,-0.1632,0.4724,-0.0686,0.3008,0.1471,166
17,-1.0031,-0.1632,0.4724,-0.0217,0.2649,0.1591,166
17,-1.0173,-0.1561,0.4633,0.0087,0.2147,0.1711,166
17,-1.0214,-0.1214,0.453,0.0621,0.1646,0.1886,166
17,-1.0275,-0.0948,0.4398,0.1068,0.1035,0.2081,166
17,-1.0143,-0.0693,0.4173,0.098,0.0501,0.2234,166
17,-0.999,-0.0704,0.4061,0.0719,-0.0053,0.2398,166
17,-0.9765,-0.0745,0.4122,0.0511,-0.0566,0.2529,166
17,-0.9581,-0.0745,0.4265,0.0392,-0.0969,0.2638,166
17,-0.9122,-0.0693,0.4714,0.0392,-0.0969,0.2638,166
17,-0.8857,-0.0652,0.4938,0.0381,-0.1438,0.2725,166
17,-0.8857,-0.0652,0.4938,0.0425,-0.1776,0.2802,166
17,-0.8653,-0.0704,0.5081,0.0392,-0.2147,0.2932,166
17,-0.8448,-0.0877,0.5071,0.0305,-0.2485,0.3031,166
17,-0.8143,-0.102,0.4826,0.0435,-0.2714,0.3227,166
17,-0.801,-0.0796,0.4694,0.0883,-0.2899,0.3445,166
17,-0.7959,-0.0602,0.4551,0.1133,-0.3052,0.3695,166
17,-0.8071,-0.0612,0.4398,0.1167,-0.3237,0.3891,166
17,-0.8081,-0.0775,0.3908,0.1167,-0.3237,0.3891,166
17,-0.802,-0.0734,0.3745,0.1144,-0.35,0.4088,166
17,-0.7959,-0.0714,0.3622,0.1373,-0.3761,0.4273,166
17,-0.7959,-0.0714,0.3622,0.1623,-0.4034,0.4404,166
17,-0.7683,-0.0724,0.3479,0.169,-0.4393,0.4524,166
17,-0.6867,-0.0704,0.3347,0.1886,-0.4655,0.4633,166
17,-0.6377,-0.0734,0.3439,0.2115,-0.483,0.471,166
17,-0.5959,-0.0918,0.3622,0.2256,-0.4982,0.483,166
17,-0.5326,-0.1163,0.402,0.2442,-0.5156,0.5059,166
17,-0.5948,-0.0867,0.5632,0.3117,-0.5341,0.556,166
17,-0.6642,-0.0684,0.6265,0.3891,-0.5908,0.6039,166
17,-0.7255,-0.0398,0.6439,0.3891,-0.5908,0.6039,166
17,-0.7255,-0.0398,0.6439,0.4492,-0.6562,0.6552,166
17,-0.7949,0.0122,0.6408,0.5265,-0.6901,0.701,166
17,-0.9469,0.1285,0.5979,0.5822,-0.6825,0.7337,166
17,-0.9969,0.1714,0.5561,0.5854,-0.6726,0.7554,166
17,-1.0163,0.2,0.5061,0.5505,-0.6749,0.7686,166
18,-1.0275,0.2183,0.4642,0.496,-0.6988,0.7861,166
18,-1.0132,0.2459,0.4163,0.4372,-0.7522,0.8132,166
18,-0.9918,0.2418,0.4142,0.3575,-0.822,0.8525,166
18,-0.9745,0.252,0.4428,0.2867,-0.8973,0.895,166
18,-0.952,0.2765,0.4785,0.2867,-0.8973,0.895,166
18,-0.952,0.2765,0.4785,0.2376,-0.9594,0.9343,166
18,-0.903,0.3071,0.5551,0.1722,-1.0051,0.954,166
18,-0.8714,0.2775,0.5684,0.0839,-1.0423,0.954,166
18,-0.8448,0.2479,0.5602,0.0206,-1.0684,0.9353,166
18,-0.8204,0.2224,0.5622,0.0141,-1.0717,0.9017,166
18,-0.7795,0.1796,0.5643,0.0479,-1.0684,0.8569,166
18,-0.7612,0.1632,0.5806,0.0915,-1.0564,0.8122,166
18,-0.7693,0.1673,0.5989,0.1482,-1.0488,0.7783,166
18,-0.7938,0.1785,0.6367,0.1919,-1.0455,0.7554,166
18,-0.8541,0.1673,0.7316,0.1919,-1.0455,0.7554,166
18,-0.8765,0.1265,0.7459,0.2039,-1.0423,0.7468,166
18,-0.8765,0.1265,0.7459,0.1886,-1.0335,0.7609,166
18,-0.8765,0.0693,0.7479,0.1919,-1.0095,0.7903,166
18,-0.8459,0.0183,0.7336,0.2583,-0.9899,0.8329,166
18,-0.7438,-0.0112,0.6928,0.4012,-0.9648,0.8722,166
18,-0.701,0.0,0.651,0.5745,-0.9616,0.9017,166
18,-0.6571,0.0081,0.6163,0.7554,-0.979,0.9256,166
18,-0.6245,0.0092,0.5591,0.9114,-1.0118,0.9376,166
18,-0.5449,0.1183,0.4816,1.0706,-1.0488,0.9463,166
18,-0.5153,0.1867,0.5031,1.0706,-1.0488,0.9463,166
18,-0.4551,0.1949,0.5224,1.1709,-1.0662,0.9594,166
18,-0.4551,0.1949,0.5224,1.1491,-1.0858,0.9637,166
18,-0.403,0.1703,0.5255,1.1665,-1.0804,0.9485,166
18,-0.3234,0.2979,0.6,1.3149,-1.0488,0.9246,166
18,-0.3561,0.355,0.504,1.4729,-0.9212,0.8373,166
18,-0.3357,0.4622,0.6316,1.511,-0.8897,0.797,166
18,-0.2673,0.5816,1.1,1.498,-0.8558,0.701,166
18,-0.1877,0.7316,1.3387,1.6703,-0.8002,0.5952,166
18,-0.1265,0.8724,1.3479,2.0007,-0.6988,0.4611,166
18,-0.2531,1.254,0.8837,2.4313,-0.5702,0.3031,166
18,-0.5143,1.2071,0.7061,2.6821,-0.4775,0.0392,166
18,-0.2704,1.5887,0.4816,2.5992,-0.4361,-0.2027,166
18,-0.0734,1.5245,0.7704,2.5992,-0.4361,-0.2027,166
18,-0.0734,1.5245,0.7704,2.5032,-0.5745,-0.6411,166
18,-0.0755,1.6979,0.9775,1.9504,-0.3771,-0.7806,166
18,-0.1744,1.4316,0.8347,0.81,-0.2224,-0.7522,166
18,-0.0918,1.1285,0.7347,0.1003,-0.0457,-0.7249,166
18,-0.1377,1.0806,0.7561,0.1308,0.1047,-0.7588,166
18,-0.1326,1.0745,0.7275,0.3052,0.2147,-0.9202,166
18,-0.1561,1.053,0.7214,0.2213,0.2409,-1.16,166
18,-0.1928,0.9806,0.6703,0.0294,0.2922,-1.2472,166
18,-0.2051,0.8469,0.5959,-0.1657,0.338,-1.2788,166
18,-0.3408,0.7734,0.55,-0.1657,0.338,-1.2788,166
18,-0.3408,0.7734,0.55,-0.2289,0.4153,-1.2668,166
18,-0.3439,0.7153,0.5571,-0.3107,0.4546,-1.2668,166
18,-0.3775,0.6694,0.5775,-0.4382,0.4841,-1.2319,166
18,-0.3898,0.605,0.5969,-0.5494,0.5385,-1.1774,166
18,-0.4806,0.4683,0.5673,-0.5919,0.5931,-1.1121,166
18,-0.5081,0.4581,0.5724,-0.507,0.628,-1.0423,166
18,-0.5367,0.4551,0.5786,-0.399,0.6356,-1.04,166
18,-0.5551,0.4387,0.5693,-0.3336,0.6312,-1.0782,166
18,-0.5836,0.5214,0.6306,-0.2388,0.6257,-1.0662,166
18,-0.605,0.5295,0.6337,-0.2388,0.6257,-1.0662,166
18,-0.6041,0.5061,0.6234,-0.2442,0.6291,-1.0335,166
18,-0.6041,0.5061,0.6234,-0.3248,0.6345,-1.003,166
18,-0.6061,0.5102,0.6112,-0.3565,0.6377,-0.9702,166
18,-0.5979,0.5428,0.601,-0.3739,0.6661,-0.9441,166
18,-0.6102,0.5388,0.5989,-0.4426,0.6934,-0.9288,166
18,-0.602,0.5153,0.6071,-0.5418,0.7075,-0.9038,166
18,-0.6234,0.5143,0.6143,-0.6268,0.7327,-0.8765,166
18,-0.6571,0.4908,0.6234,-0.6966,0.7621,-0.8427,166
18,-0.703,0.4857,0.6275,-0.7676,0.7903,-0.8078,166
18,-0.7224,0.4683,0.6082,-0.7676,0.7903,-0.8078,166
18,-0.7673,0.4428,0.5908,-0.8634,0.8002,-0.7621,166
18,-0.7673,0.4428,0.5908,-0.9769,0.8012,-0.7075,166
18,-0.8622,0.3989,0.5724,-1.0738,0.8002,-0.6476,166
18,-0.9255,0.3898,0.5673,-1.1611,0.7708,-0.5734,166
18,-0.9959,0.351,0.5693,-1.2625,0.714,-0.5047,166
18,-1.0326,0.3357,0.552,-1.3584,0.6367,-0.412,166
18,-1.0979,0.3041,0.5081,-1.438,0.5538,-0.3302,166
18,-1.1183,0.2826,0.5092,-1.5297,0.4589,-0.2703,166
18,-1.1163,0.2469,0.4867,-1.6484,0.3466,-0.2191,166
18,-1.1234,0.2101,0.5,-1.6484,0.3466,-0.2191,166
18,-1.0948,0.1071,0.5061,-1.8065,0.2027,-0.1613,166
18,-1.0948,0.1071,0.5061,-1.9134,0.0992,-0.1057,166
18,-1.0541,-0.0408,0.502,-1.9929,-0.0196,-0.0621,166
18,-1.0275,-0.1153,0.4857,-2.0377,-0.1362,0.0097,166
18,-0.9571,-0.1255,0.5234,-1.9057,-0.23,0.0828,166
18,-0.8428,-0.1541,0.5816,-1.7989,-0.3216,0.1558,166
18,-0.799,-0.1867,0.6132,-1.8065,-0.3848,0.2464,166
18,-0.7663,-0.2653,0.6102,-1.8218,-0.4546,0.2703,166
18,-0.6806,-0.301,0.6398,-1.7542,-0.5221,0.2388,166
18,-0.5357,-0.355,0.6887,-1.7542,-0.5221,0.2388,166
18,-0.5357,-0.355,0.6887,-1.6135,-0.5429,0.206,166
18,-0.4714,-0.4326,0.7397,-1.4282,-0.5179,0.2005,166
18,-0.4235,-0.4051,0.7612,-1.3366,-0.4786,0.2627,166
18,-0.3959,-0.3979,0.7428,-1.329,-0.4208,0.2976,166
18,-0.3479,-0.4347,0.7092,-1.2625,-0.3554,0.2812,166
18,-0.3286,-0.5183,0.7224,-1.1469,-0.2485,0.2213,166
18,-0.3061,-0.5541,0.7316,-0.9822,-0.1657,0.1744,166
18,-0.3193,-0.4979,0.7265,-0.8242,-0.1123,0.1329,166
18,-0.353,-0.4959,0.7959,-0.6814,-0.0523,0.0555,166
18,-0.403,-0.5122,0.8152,-0.6814,-0.0523,0.0555,166
18,-0.403,-0.5122,0.8152,-0.5593,0.0043,0.0217,166
18,-0.4642,-0.5479,0.7683,-0.4187,0.0402,0.036,166
18,-0.5755,-0.504,0.6847,-0.2147,0.0751,0.1003,166
18,-0.6173,-0.4408,0.6806,-0.0261,0.1112,0.1919,166
18,-0.6571,-0.3745,0.704,0.073,0.1286,0.2867,166
18,-0.702,-0.301,0.7449,0.1274,0.1167,0.375,166
18,-0.801,-0.1959,0.8081,0.1635,0.0828,0.4349,166
18,-0.855,-0.1612,0.8,0.2191,0.0599,0.4589,166
18,-0.8755,-0.1173,0.7693,0.2911,0.024,0.4557,166
18,-0.901,-0.0898,0.7153,0.3521,0.0043,0.4263,166
18,-0.9745,-0.0234,0.6571,0.3521,0.0043,0.4263,166
19,-0.9745,-0.0234,0.6571,0.4284,-0.0185,0.4034,166
19,-1.0234,0.0316,0.6571,0.5299,-0.0469,0.4023,166
19,-1.0704,0.0816,0.6428,0.6062,-0.0937,0.3968,166
19,-1.0989,0.1194,0.602,0.6825,-0.1646,0.387,166
19,-1.0867,0.2133,0.5051,0.7871,-0.2495,0.3914,166
19,-1.0755,0.3152,0.4673,0.8668,-0.3456,0.4012,166
19,-1.0449,0.4214,0.4377,0.8754,-0.4578,0.3826,166
19,-0.9969,0.4479,0.4601,0.8504,-0.5767,0.3216,166
19,-0.8969,0.4551,0.4918,0.7676,-0.6966,0.2998,166
19,-0.8469,0.4214,0.5,0.7676,-0.6966,0.2998,166
19,-0.7969,0.3826,0.4877,0.6869,-0.8012,0.3161,166
19,-0.7969,0.3826,0.4877,0.6846,-0.8798,0.326,166
19,-0.749,0.3724,0.4897,0.7478,-0.9408,0.3521,166
19,-0.6489,0.4214,0.5193,0.81,-0.9812,0.4088,166
19,-0.601,0.4469,0.5112,0.821,-1.0194,0.4807,166
19,-0.5377,0.4714,0.4938,0.7981,-1.0499,0.544,166
19,-0.4734,0.4867,0.499,0.7403,-1.0488,0.5843,166
19,-0.3755,0.5652,0.4765,0.6585,-1.0084,0.6596,166
19,-0.3173,0.5295,0.4938,0.5854,-0.9594,0.785,166
19,-0.2724,0.549,0.4622,0.5854,-0.9594,0.785,166
19,-0.2673,0.5765,0.4734,0.5233,-0.8885,0.8983,166
19,-0.2673,0.5765,0.4734,0.4273,-0.8144,0.9954,166
19,-0.2602,0.5908,0.4857,0.3151,-0.7598,1.0324,166
19,-0.2622,0.6173,0.5143,0.2278,-0.7108,1.0575,166
19,-0.3,0.6377,0.5581,0.1167,-0.6749,1.0652,166
19,-0.355,0.6337,0.605,-0.0469,-0.6432,1.0499,166
19,-0.4755,0.5367,0.6469,-0.1907,-0.6257,1.0009,166
19,-0.5265,0.4959,0.6602,-0.2583,-0.6106,0.9376,166
19,-0.5765,0.4612,0.6541,-0.2583,-0.6106,0.9376,166
19,-0.6479,0.4469,0.6694,-0.2823,-0.6148,0.87,166
19,-0.9449,0.3724,0.6887,-0.375,-0.7566,0.6661,166
19,-1.053,0.3398,0.7122,-0.375,-0.7566,0.6661,166
19,-1.053,0.3398,0.7122,-0.3838,-0.8416,0.5789,166
19,-1.1337,0.2714,0.6938,-0.424,-0.9463,0.4786,166
19,-1.0775,0.0214,0.6173,-0.4601,-1.0597,0.3838,166
19,-0.9796,-0.1551,0.6122,-0.4546,-1.1818,0.3172,166
19,-0.85,-0.1744,0.6112,-0.3193,-1.2985,0.3183,166
19,-0.7367,-0.3694,0.6775,-0.1831,-1.4107,0.3096,166
19,-0.4724,-0.4173,0.7653,0.1842,-1.474,0.3935,166
19,-0.3184,-0.2531,0.8469,0.6857,-1.4696,0.495,166
19,-0.2755,-0.1418,0.8796,1.0215,-1.4424,0.5614,166
19,-0.1673,-0.0673,0.8826,1.0215,-1.4424,0.5614,166
19,-0.0071,0.1224,0.8796,1.1873,-1.4238,0.5494,166
19,-0.0071,0.1224,0.8796,1.3595,-1.3727,0.5669,166
19,0.0612,0.1479,0.8704,1.4282,-1.2886,0.5996,166
19,0.052,0.1837,0.8459,1.5177,-1.1709,0.6028,166
19,0.0816,0.3102,0.8745,1.6495,-1.0761,0.5908,166
19,0.0398,0.5183,0.9642,1.6037,-0.9899,0.5385,166
19,0.0541,0.5193,1.0989,1.4479,-0.9158,0.4633,166
19,0.0806,0.4959,1.2898,1.4304,-0.8199,0.3663,166
19,0.1214,0.5887,1.452,1.6877,-0.7272,0.2758,166
19,0.0867,0.853,1.3184,1.6877,-0.7272,0.2758,166
19,0.0143,0.9714,1.1938,2.0856,-0.6062,0.1755,166
19,0.0143,0.9714,1.1938,2.4345,-0.4546,0.0326,166
19,-0.0714,1.2255,0.9734,2.6112,-0.3172,-0.267,166
19,0.0193,1.5898,0.5438,2.4824,-0.267,-0.5505,166
19,0.1816,1.5438,1.0286,2.4073,-0.2966,-0.6835,166
19,0.05,1.7081,1.0031,1.9504,-0.0784,-0.8493,166
19,0.2836,1.502,0.9979,0.8668,0.073,-0.8395,166
19,0.2469,1.0245,0.9102,0.2354,0.2638,-0.6606,166
19,0.1285,1.0602,0.8989,0.206,0.4328,-0.5908,166
19,0.0061,1.0306,0.8469,0.2987,0.5429,-0.7217,166
19,0.0775,0.9888,0.8091,0.2987,0.5429,-0.7217,166
19,-0.0561,1.1061,0.7745,0.3542,0.557,-0.9812,166
19,-0.0561,1.1061,0.7745,0.3161,0.6236,-1.0389,166
19,-0.1091,0.9683,0.6806,-0.0196,0.6737,-1.0532,166
19,-0.1673,0.855,0.6041,-0.2278,0.7424,-1.0467,166
19,-0.2459,0.8683,0.605,-0.2474,0.7817,-1.0389,166
19,-0.2908,0.8163,0.6653,-0.3717,0.8046,-1.028,166
19,-0.3398,0.7388,0.6735,-0.5233,0.8242,-1.04,166
19,-0.3408,0.6561,0.6703,-0.5843,0.8329,-1.0608,166
19,-0.3806,0.6102,0.6592,-0.5843,0.8329,-1.0608,166
19,-0.4142,0.5775,0.6408,-0.545,0.8285,-1.0532,166
19,-0.4428,0.5652,0.6143,-0.4589,0.8296,-1.0532,166
19,-0.4428,0.5652,0.6143,-0.4065,0.8067,-1.0923,166
19,-0.4377,0.5816,0.6275,-0.3674,0.7871,-1.0935,166
19,-0.4377,0.6,0.6377,-0.3804,0.7817,-1.0902,166
19,-0.4357,0.5775,0.6408,-0.4077,0.7926,-1.0772,166
19,-0.4673,0.602,0.6459,-0.4143,0.8132,-1.0532,166
19,-0.4622,0.5918,0.6489,-0.4578,0.8361,-1.0259,166
19,-0.4642,0.5693,0.6489,-0.5124,0.871,-1.0009,166
19,-0.4969,0.5612,0.652,-0.5287,0.9005,-0.9616,166
19,-0.5459,0.5745,0.6387,-0.5287,0.9005,-0.9616,166
19,-0.5459,0.5745,0.6387,-0.5549,0.9365,-0.9191,166
19,-0.5775,0.5643,0.6337,-0.6192,0.967,-0.8775,166
19,-0.6204,0.5632,0.6183,-0.6791,0.9899,-0.8275,166
19,-0.7163,0.5918,0.5755,-0.7304,0.9997,-0.7676,166
19,-0.7949,0.6337,0.5643,-0.8199,1.0041,-0.7119,166
19,-0.8448,0.6275,0.5193,-0.9769,0.9681,-0.6596,166
19,-0.8918,0.6367,0.4928,-1.136,0.9158,-0.5931,166
19,-0.953,0.6204,0.454,-1.3279,0.8405,-0.5516,166
19,-0.9428,0.5948,0.4806,-1.5394,0.7337,-0.5233,166
19,-0.9438,0.5418,0.4377,-1.5394,0.7337,-0.5233,166
19,-0.9438,0.5418,0.4377,-1.7869,0.6225,-0.5047,166
19,-0.9132,0.4622,0.4714,-2.0442,0.4687,-0.4982,166
19,-0.8489,0.3061,0.5561,-2.2329,0.3477,-0.4862,166
19,-0.8184,0.2632,0.551,-2.3735,0.2638,-0.4502,166
19,-0.7888,0.15,0.5643,-2.5414,0.181,-0.3826,166
19,-0.7734,0.0102,0.5704,-2.6581,0.11,-0.2605,166
19,-0.701,-0.3041,0.6163,-2.7594,0.0763,-0.0784,166
19,-0.8898,-0.2806,0.5347,-2.7016,0.061,0.0294,166
19,-0.6928,-0.65,0.5367,-2.5032,-0.0925,-0.0883,166
19,-0.7112,-0.7745,0.5224,-2.5032,-0.0925,-0.0883,166
19,-0.5918,-0.8286,0.651,-1.9221,-0.0959,-0.1177,166
19,-0.5918,-0.8286,0.651,-1.4315,-0.1503,0.0599,166
19,-0.6469,-0.6887,0.6612,-1.2386,-0.2213,0.2234,166
19,-0.5714,-0.8173,0.6316,-1.0423,-0.3041,0.1221,166
19,-0.4755,-0.7938,0.6551,-0.6203,-0.3412,0.0686,166
19,-0.3663,-0.4969,0.7663,-0.2213,-0.3456,0.0795,166
19,-0.3448,-0.3877,0.8041,-0.0337,-0.3052,0.1112,166
20,-0.3398,-0.299,0.8326,0.0326,-0.2693,0.1024,166
20,-0.2969,-0.2163,0.8683,0.0435,-0.2388,0.0774,166
20,-0.2408,-0.1428,0.8469,0.0435,-0.2388,0.0774,166
20,-0.2592,-0.1041,0.8316,0.0511,-0.1732,0.036,166
20,-0.2592,-0.1041,0.8316,0.1253,-0.0872,-0.0162,166
20,-0.2571,-0.0316,0.853,0.1701,-0.0174,-0.0828,166
20,-0.2714,0.0112,0.8643,0.0894,0.0469,-0.1732,166
20,-0.3265,-0.0775,0.8428,-0.0065,0.1198,-0.2495,166
20,-0.3643,-0.103,0.8357,0.0,0.1864,-0.3019,166
20,-0.4132,-0.1071,0.8357,0.0228,0.2485,-0.3412,166
20,-0.4683,-0.1428,0.8326,-0.0108,0.2966,-0.3586,166
20,-0.6346,-0.2847,0.8714,-0.0152,0.3117,-0.3357,166
20,-0.7418,-0.3377,0.8928,-0.0152,0.3117,-0.3357,166
20,-0.8704,-0.3846,0.8612,0.0566,0.3085,-0.2823,166
20,-1.0245,-0.4142,0.65,0.193,0.2844,-0.2016,166
20,-1.0245,-0.4142,0.65,0.3794,0.2245,-0.085,166
20,-1.0306,-0.3316,0.5652,0.5757,0.1396,0.0501,166
20,-1.0092,-0.2428,0.5347,0.6978,0.0316,0.1701,166
20,-0.9724,-0.1541,0.5438,0.7272,-0.0959,0.2725,166
20,-0.8582,0.0112,0.6612,0.7293,-0.2224,0.3674,166
20,-0.7888,0.0847,0.7367,0.7369,-0.3128,0.4338,166
20,-0.7133,0.1367,0.7867,0.738,-0.363,0.4622,166
20,-0.6459,0.1959,0.8102,0.7566,-0.3663,0.4622,166
20,-0.5541,0.2755,0.8204,0.7566,-0.3663,0.4622,166
20,-0.5265,0.2826,0.8204,0.7653,-0.3314,0.4295,166
20,-0.5265,0.2826,0.8204,0.7544,-0.2802,0.3848,166
20,-0.5255,0.2836,0.801,0.7642,-0.2333,0.3542,166
20,-0.5377,0.3061,0.7867,0.7871,-0.182,0.351,166
20,-0.5939,0.3296,0.7275,0.7882,-0.1406,0.3445,166
20,-0.6214,0.3448,0.6928,0.7773,-0.1177,0.3412,166
20,-0.6959,0.4561,0.6683,0.7882,-0.1352,0.3597,166
20,-0.7877,0.5,0.5979,0.7827,-0.1657,0.3619,166
20,-0.8448,0.5612,0.5571,0.7435,-0.2234,0.3761,166
20,-0.8877,0.6346,0.5061,0.652,-0.3019,0.3761,166
20,-0.9296,0.6622,0.4745,0.544,-0.387,0.351,166
20,-0.8918,0.6275,0.4367,0.424,-0.4721,0.3804,166
20,-0.9203,0.5979,0.4367,0.1744,-0.5604,0.4775,166
20,-0.8734,0.4561,0.4122,0.1744,-0.5604,0.4775,166
20,-0.8734,0.4561,0.4122,-0.0654,-0.6934,0.4992,166
20,-0.801,0.3255,0.3989,-0.0763,-0.8067,0.5265,166
20,-0.6632,0.2734,0.4622,0.0294,-0.8863,0.5767,166
20,-0.5989,0.2204,0.4683,0.0511,-0.9321,0.6257,166
20,-0.5591,0.1632,0.4612,0.0675,-0.9648,0.6825,166
20,-0.4979,0.1306,0.4663,0.1657,-0.9616,0.7478,166
20,-0.3979,0.1285,0.4694,0.314,-0.9311,0.8296,166
20,-0.3837,0.1489,0.4663,0.4458,-0.87,0.9114,166
20,-0.352,0.1744,0.4724,0.556,-0.8078,0.9931,166
20,-0.3234,0.2071,0.4867,0.556,-0.8078,0.9931,166
20,-0.3234,0.2071,0.4867,0.6562,-0.7522,1.0717,166
20,-0.3051,0.2918,0.5449,0.7447,-0.7108,1.1535,166
20,-0.3112,0.2734,0.5438,0.7958,-0.6791,1.2287,166
20,-0.3041,0.3051,0.552,0.8929,-0.6682,1.317,166
20,-0.3051,0.3724,0.6041,0.942,-0.652,1.4118,166
20,-0.25,0.3755,0.6285,0.9463,-0.6213,1.4969,166
20,-0.2112,0.4694,0.651,1.0967,-0.5614,1.5721,166
20,-0.2224,0.6612,0.7663,1.2331,-0.4763,1.6157,166
20,-0.2571,0.8255,0.8877,1.1774,-0.3979,1.5743,166
20,-0.4326,1.1337,0.8846,1.1774,-0.3979,1.5743,166
20,-0.5193,1.204,0.9377,1.2025,-0.339,1.4696,166
20,-0.5193,1.204,0.9377,0.9561,-0.326,1.2319,166
20,-0.4755,1.1163,0.8071,0.5952,-0.3216,1.1741,166
20,-0.8265,1.2745,0.9897,0.3216,-0.3717,0.9845,166
20,-0.801,0.8377,0.9908,0.0011,-0.4807,0.5528,166
20,-0.7112,0.6367,0.901,0.0032,-0.6028,0.2856,166
20,-0.5898,0.4755,0.85,0.1678,-0.7075,0.0992,166
20,-0.4347,0.3571,0.903,0.4589,-0.7861,-0.0141,166
20,-0.1489,0.451,1.1163,0.978,-0.8624,-0.0664,166
20,-0.0959,0.7245,1.1765,0.978,-0.8624,-0.0664,166
20,-0.0153,0.9673,1.1653,1.5362,-0.8307,-0.0566,166
20,-0.0153,0.9673,1.1653,1.7455,-0.7424,-0.0631,166
20,-0.0418,1.1694,1.0775,1.6942,-0.6682,-0.1449,166
20,0.0693,1.3673,0.9888,1.4075,-0.6083,-0.3575,166
20,0.1173,1.402,0.9888,0.9822,-0.4797,-0.6062,166
20,0.1969,1.3745,0.9969,0.4698,-0.2802,-0.6333,166
20,0.2101,1.3673,1.0643,-0.0915,-0.0294,-0.4731,166
20,0.1459,1.0112,0.9938,-0.5276,0.1438,-0.5582,166
20,0.0581,0.9163,0.9428,-0.6476,0.2911,-0.6476,166
20,0.0765,0.7673,0.8663,-0.7228,0.3771,-0.8144,166
20,0.0438,0.6346,0.7898,-0.7228,0.3771,-0.8144,166
20,-0.0969,0.5143,0.702,-0.6476,0.4721,-0.9168,166
20,-0.0969,0.5143,0.702,-0.5734,0.4982,-1.0728,166
20,-0.1408,0.4551,0.6816,-0.4895,0.5135,-1.2014,166
20,-0.1744,0.449,0.7071,-0.4055,0.5331,-1.2308,166
20,-0.2163,0.4347,0.7408,-0.3958,0.5582,-1.2134,166
20,-0.2867,0.3469,0.7673,-0.3771,0.5887,-1.173,166
20,-0.3296,0.3245,0.7632,-0.2714,0.6148,-1.1196,166
20,-0.352,0.3357,0.7561,-0.1089,0.6301,-1.0717,166
20,-0.3806,0.4551,0.7734,0.0217,0.6421,-1.0324,166
20,-0.3969,0.5173,0.7765,0.0217,0.6421,-1.0324,166
20,-0.3949,0.5724,0.7734,0.0708,0.6508,-0.991,166
20,-0.3949,0.5724,0.7734,0.0414,0.6508,-0.9485,166
20,-0.402,0.6041,0.7724,-0.0446,0.6476,-0.9267,166
20,-0.3826,0.6183,0.7449,-0.1297,0.6562,-0.9179,166
20,-0.3785,0.6296,0.7275,-0.1842,0.6814,-0.9179,166
20,-0.3571,0.6408,0.7183,-0.2562,0.714,-0.9267,166
20,-0.3582,0.6449,0.701,-0.3609,0.7447,-0.9463,166
20,-0.3448,0.5948,0.6877,-0.4655,0.7751,-0.9626,166
20,-0.3724,0.5806,0.6979,-0.5473,0.8166,-0.979,166
20,-0.3724,0.5806,0.6979,-0.5473,0.8166,-0.979,166
20,-0.3816,0.552,0.7051,-0.6148,0.8525,-0.9845,166
20,-0.4173,0.5326,0.6806,-0.6726,0.8842,-0.9866,166
20,-0.4836,0.5112,0.6642,-0.7119,0.9103,-0.9866,166
20,-0.5459,0.5153,0.6551,-0.7718,0.9234,-0.9812,166
20,-0.5948,0.501,0.652,-0.8678,0.9234,-0.9692,166
20,-0.6632,0.4673,0.6469,-0.9692,0.9191,-0.9561,166
20,-0.7898,0.4275,0.6306,-1.0389,0.8918,-0.9267,166
20,-0.855,0.4235,0.6173,-1.1066,0.8548,-0.8962,166
20,-0.902,0.3969,0.5847,-1.2058,0.7991,-0.8645,166
20,-0.9418,0.3602,0.5428,-1.2058,0.7991,-0.8645,166
20,-0.9418,0.3602,0.5428,-1.3039,0.7086,-0.8285,166
21,-0.999,0.252,0.4796,-1.4042,0.6062,-0.7632,166
21,-0.9765,0.2142,0.4714,-1.486,0.483,-0.6791,166
21,-0.9724,0.1612,0.4714,-1.5558,0.3685,-0.6181,166
21,-0.9377,0.105,0.4816,-1.6125,0.2605,-0.5538,166
21,-0.8255,-0.0255,0.5684,-1.6953,0.1438,-0.4927,166
21,-0.8051,0.1387,0.5632,-1.7096,0.0675,-0.4219,166
21,-0.7622,-0.2347,0.4755,-1.7978,-0.025,-0.3717,166
21,-0.6867,-0.2632,0.5459,-1.6092,-0.0566,-0.2365,166
21,-0.6367,-0.2357,0.6602,-1.6092,-0.0566,-0.2365,166
21,-0.6285,-0.2847,0.6816,-1.4227,-0.0839,-0.0806,166
21,-0.6285,-0.2847,0.6816,-1.4336,-0.1112,0.0316,166
21,-0.6346,-0.3765,0.6714,-1.3956,-0.157,0.0402,166
21,-0.6245,-0.4244,0.6785,-1.1447,-0.2159,-0.0316,166
21,-0.5438,-0.4673,0.7479,-0.8656,-0.2409,-0.0664,166
21,-0.5336,-0.4316,0.7714,-0.6672,-0.2573,-0.073,166
21,-0.4938,-0.4142,0.7969,-0.5484,-0.2867,-0.0654,166
21,-0.4826,-0.4071,0.7938,-0.4938,-0.3052,-0.0381,166
