,timestamp,node,accx,accy,accz,gyrox,gyroy,gyroz,q0,q1,q2,q3,timestamp,node,accx,accy,accz,gyrox,gyroy,gyroz,q0,q1,q2,q3,timestamp,node,accx,accy,accz,gyrox,gyroy,gyroz,q0,q1,q2,q3,timestamp,node,accx,accy,accz,gyrox,gyroy,gyroz,q0,q1,q2,q3,timestamp,node,accx,accy,accz,gyrox,gyroy,gyroz,q0,q1,q2,q3,timestamp,node,accx,accy,accz,gyrox,gyroy,gyroz,q0,q1,q2,q3,timestamp,node,accx,accy,accz,gyrox,gyroy,gyroz,q0,q1,q2,q3,timestamp,node,accx,accy,accz,gyrox,gyroy,gyroz,q0,q1,q2,q3,timestamp,node,accx,accy,accz,gyrox,gyroy,gyroz,q0,q1,q2,q3
0,0.009,0.0,-5.2e-17,-1.94e-17,1.0,0.157052213,-0.032671862,0.166645809,0.9999330138308496,0.007852084633694727,-0.0016989095216622047,0.00833224606550748,0.009,1.0,2.16e-17,7.51e-17,1.0,0.116396445,-0.000119855,0.000447575,0.9999830649955237,0.005819723691284149,-6.12288665430933e-06,2.237912897860261e-05,0.009,2.0,5.84e-17,-8.37e-17,1.0,0.12951706,0.00207926,0.011555058,0.9999788603989187,0.0064757161030509144,0.0001002194385055355,0.0005777649150558874,0.009,3.0,7.88e-17,3.4e-17,1.0,0.071596816,-0.04445207,0.172441809,0.9999538853236595,0.0035796757168001588,-0.002253365293170888,0.008621803334326291,0.009,4.0,6.07e-17,7.56e-17,1.0,0.048247107,0.047234838,0.044647251,0.9999918224125378,0.0024123356227531392,0.0023563373789467815,0.002232357285694611,0.045,5.0,7.57e-17,8.24e-17,1.0,-0.138681888,0.177072433,0.422962332,0.9997119383797174,-0.0069320969535319405,0.008997672056057926,0.021143041183015538,0.045,6.0,8.14e-18,2.22e-16,1.0,0.117546958,-0.031306119,-0.126723442,0.9999614881974651,0.005877121552738258,-0.0015280072136355787,-0.006336146945938386,0.045,7.0,-5.47e-17,3.6e-17,1.0,-0.135158028,0.129398894,0.19687287,0.9999073624735936,-0.006757275364730605,0.006535861550048748,0.009843181119202135,0.0,8.0,-3.1e-18,1.57e-18,1.0,-0.087393457,-0.017035727,0.159244593,0.9999584220721967,-0.0043694911680577184,-0.0008169600423549133,0.007962050621807241
1,0.079,0.0,0.000707163,0.01017349,0.979533052,0.169578738,-0.026127038,0.177364521,0.9997187629068028,0.01605829296987751,-0.002938434203717975,0.017201509335395583,0.08,1.0,0.002407971,0.010010078,0.980336167,0.172078488,-0.010673293,0.168656365,0.9998609906277953,0.014350554669857291,-0.000782714207266615,0.008452713170398573,0.08,2.0,-0.000583573,0.01370461,0.980004512,0.167505385,-0.027630154,0.245136178,0.9998056842584427,0.014902223573630262,-0.001438694749747449,0.012823712975811166,0.08,3.0,0.00357462,0.008681454,0.979212875,0.168386107,-0.050624427,0.293345206,0.9996440801905371,0.01207106592320026,-0.004841187946360812,0.02329302914524005,0.08,4.0,0.000718935,0.009082011,0.979713223,0.152476189,-0.040459139,0.302211565,0.9997969944193951,0.01029664999636485,-7.637442484468394e-05,0.01731886589080524,0.119,5.0,-0.011808972,-0.021506681,0.979701491,-0.493249724,0.235436849,0.40904741,0.998405469968536,-0.03203200501740657,0.020558998059628568,0.04168687791447095,0.119,6.0,-0.000637636,0.009195685,0.979042406,0.151507727,0.016627472,0.024480161,0.9998979039229642,0.013337066121517867,-0.0005786117077751241,-0.005096038287195012,0.119,7.0,-0.009496286,-0.010472172,0.979081281,-0.13850352,0.112821695,0.13557346,0.999697574483931,-0.013554965586998763,0.01202464553459555,0.016626195555435423,0.045,8.0,0.004010313,-0.000846681,0.979916936,0.002908887,-0.080827946,0.035447089,0.999932877103173,-0.003797922233698149,-0.004973448683028654,0.0097509939531689
2,0.142,0.0,0.005312205,0.025777355,0.9800925,0.27685967,-0.092986843,0.153000328,0.999223783578533,0.029659375276176937,-0.0075270429880480525,0.024809180016355716,0.142,1.0,0.002901831,0.024176806,0.980091354,0.235315386,-0.036701863,0.20445439,0.9994860228507726,0.025915389363223434,-0.002841547222444492,0.018654981358340914,0.142,2.0,0.001470439,0.029724518,0.979625587,0.234593673,-0.06104191,0.329316202,0.9992055617505039,0.026662121378726086,-0.0046884311149026575,0.02924714112741434,0.142,3.0,0.006061046,0.017606526,0.979613839,0.14647927,-0.044662147,0.35393491,0.9989536896856082,0.019050089941074017,-0.007041949817153287,0.040975979299087625,0.142,4.0,0.003229787,0.017030088,0.978989553,0.146641612,-0.05052748,0.437164642,0.9990763010958437,0.01750412674688512,-0.002998172152336392,0.039130053657274,0.194,5.0,-0.024865971,-0.046942145,0.977567961,-0.212609693,0.114810105,0.29521497,0.9972032610236221,-0.04181011633570444,0.025568718235757636,0.05642526937134776,0.194,6.0,0.000332808,0.008206858,0.979326063,-0.210225734,-0.018828738,0.157656482,0.9999933197571734,0.0019004059262279324,-0.001442672389651329,0.002769042202465606,0.194,7.0,-0.014929013,-0.013815101,0.979638335,0.038781066,0.076453715,0.142090696,0.9995399594134712,-0.010956717999230493,0.01550289894900012,0.02365332937619973,0.119,8.0,0.008020627,-0.001693363,0.979469143,-0.051788707,-0.026222867,0.011396855,0.9999090095730341,-0.006079824704728873,-0.006219154493268836,0.010311664444830134
3,0.2,0.0,0.012217331,0.04377631,0.978927664,0.232505134,-0.088545291,0.118122149,0.998635609229033,0.040615083955839314,-0.011714412845246606,0.030661171972205727,0.201,1.0,0.003629484,0.036988501,0.979516043,0.202054576,-0.002786152,0.164389443,0.999011136816637,0.03528443525071518,-0.0029479100735197348,0.026889904640351823,0.201,2.0,0.006873255,0.043563268,0.979079159,0.152998993,-0.127633312,0.294539616,0.9983995258495888,0.03397978429951237,-0.011152765680741267,0.04381069344287462,0.201,3.0,0.011122761,0.025623158,0.979278172,0.091537869,-0.066373252,0.251183422,0.9982491496539253,0.02309023833250829,-0.01026624595124652,0.05347971861398745,0.201,4.0,0.009129633,0.0249326,0.979851017,0.102744369,-0.089916252,0.260564621,0.9983644761527289,0.022307052018184236,-0.007691643747826295,0.05207309096838121,0.306,5.0,-0.025509821,-0.034029892,0.978494872,0.511178508,-0.121706259,0.030838212,0.998061223464014,-0.013528857601018391,0.01959238414828926,0.057505675484358455,0.306,6.0,0.000802142,-0.026630836,0.979664818,-0.418877361,-0.028368548,0.118956123,0.9997466134185105,-0.020591456057111098,-0.002696267140937783,0.008685104442208673,0.306,7.0,-0.017235087,-0.004084632,0.979638335,0.141710467,0.020132138,0.156549343,0.999375530236285,-0.00291125729084231,0.016022530074961048,0.031358454616380094,0.194,8.0,0.00632019,-0.009993493,0.979934276,-0.254260292,0.054539018,0.184039521,0.9996303024885276,-0.01877128273975639,-0.003156622110553211,0.01941476314174921
4,0.275,0.0,0.016160855,0.05077573,0.978251835,0.070413796,-0.065767277,0.074238627,0.9983909042733174,0.04274282878413517,-0.014622052194292407,0.034276062222269324,0.275,1.0,0.006200326,0.047258807,0.978561271,0.136485883,-0.054581669,0.376310546,0.9980989540982178,0.04099978606021118,-0.006215955505545203,0.04559448725683485,0.275,2.0,0.010865064,0.053400901,0.978543966,0.173659447,-0.041161302,0.440171561,0.9968733965687866,0.04182121299281007,-0.013062022096383274,0.06575561524291468,0.275,3.0,0.01438457,0.032788262,0.979130233,0.097849709,-0.029363923,-0.089408889,0.9983585223443318,0.027500019475339137,-0.010964249018691337,0.04902851246728185,0.275,4.0,0.010498207,0.030769714,0.979616258,0.099736875,0.009601747,-0.238504471,0.9988142789667731,0.026717607031046618,-0.006317067888530604,0.04020323693325453,0.344,5.0,-0.023726581,-0.016218131,0.979744365,-0.047452875,0.035532005,0.261019716,0.9971787399064657,-0.015283304755056763,0.02062777706887656,0.0705370547125001,0.344,6.0,0.002048281,-0.042840259,0.978827113,-0.138415218,0.002574582,0.078885406,0.9995354066064635,-0.027646693158498496,-0.002372547267946104,0.012609612084171886,0.344,7.0,-0.022187903,-0.005258426,0.979941348,-0.074713866,0.114486976,-0.137795731,0.9994527516731064,-0.006947141627832045,0.021098667310641236,0.024510826872491433,0.306,8.0,0.004111826,-0.030995774,0.979769031,-0.303882027,-0.003439393,0.176276229,0.9990304748532869,-0.03367221341478885,-0.003250916696876618,0.02817310594866551
5,0.349,0.0,0.020081557,0.056990627,0.978195686,0.148537232,-0.056089355,0.016984198,0.9980468633204216,0.04890703801336893,-0.016670547361418504,0.035109159769173295,0.349,1.0,0.010717678,0.058459641,0.978194051,0.195185151,-0.052286675,0.289604285,0.9969239523964032,0.049659745491296405,-0.008884636660560333,0.059980047078037134,0.349,2.0,0.019077479,0.064248279,0.977600229,0.167267811,-0.109087002,0.442503037,0.994758708684397,0.04935555369618582,-0.018477671655489216,0.08762257965893165,0.349,3.0,0.019446284,0.040804893,0.978794566,0.116605355,-0.078577194,0.134943674,0.997800287435344,0.03281429444125163,-0.014612510875329473,0.0557160928295048,0.35,4.0,0.013884994,0.039199043,0.97892627,0.104100383,-0.077789891,0.280035265,0.997988991650656,0.03133351161331647,-0.010423456038890914,0.054106701602392046,0.427,5.0,0.05180267,0.201828255,1.002572112,3.570787582,0.604082136,-6.866458026,0.9423335019942986,0.15655041397869185,0.10908237861840943,-0.2749555847354466,0.427,6.0,-0.027655391,-0.163803303,0.972531571,-0.725754394,0.398394563,-2.126163703,0.9931164246802838,-0.06904323345931869,0.011157224591738872,-0.09395911495507696,0.427,7.0,0.013302222,0.12133803,0.974575874,-0.09320148,0.156202933,-0.382637592,0.999630563642776,-0.0053195617806077134,0.0260693303788129,0.0055523425045817,0.345,8.0,0.00580804,-0.043688657,0.978762263,-0.101584544,-0.016818114,-0.080120509,0.9989919586768359,-0.03756309036825975,-0.004418576994030862,0.02417761192411201
6,0.411,0.0,0.02256361,0.070382482,0.97749025,0.236803233,-0.040323915,-0.128514082,0.9976563946308579,0.05963464579443195,-0.017240167082493384,0.028778532139398495,0.411,1.0,0.009803536,0.067370516,0.977321904,0.157642221,0.021025035,-0.182754458,0.9971074349725857,0.056032887983834705,-0.006256181445453493,0.05096997920642356,0.411,2.0,0.021153674,0.073010775,0.9766473,0.130437186,0.011389274,-0.378863853,0.9959928828083379,0.05501528560156981,-0.015194527670564213,0.06885217552251015,0.411,3.0,0.023170665,0.044693678,0.978874147,0.040910291,-0.055772015,0.161573847,0.9972432446237119,0.03395264167827067,-0.01714569791867112,0.06371149204280206,0.411,4.0,0.022226397,0.042722722,0.978857884,0.047979771,-0.128445128,0.364651517,0.9967021741445554,0.03298270278875421,-0.017266393623468598,0.07210262840912492,0.509,5.0,-0.035387927,-0.040599789,0.979004265,-0.446166298,0.208102716,0.10474694,0.9488756285040525,0.12211718534732026,0.11603563678035006,-0.2669422515655144,0.51,6.0,0.001189028,-0.039636877,0.978832215,0.298818041,-0.016926521,-0.246362161,0.9930756233004938,-0.049534624045664034,0.007318101986850442,-0.10627122287007083,0.51,7.0,-0.028152407,-0.016948982,0.979072098,-0.156303521,0.072729693,-0.197783146,0.9994948695438627,-0.01374928090486531,0.02834811274983848,-0.004165037048894226,0.51,8.0,0.009924088,-0.053691418,0.978708202,0.036602426,-0.013852581,0.02620349,0.9990590236994892,-0.034694194346553575,-0.0051512345180289385,0.02551166059289982
7,0.514,0.0,0.024172371,0.085603965,0.975841513,0.191327693,-0.045124366,-0.217099859,0.9973727082057774,0.06786680634777326,-0.017861794867220296,0.017964793529251333,0.515,1.0,0.006209106,0.074328783,0.9765079,0.108157357,0.031458553,-0.543593741,0.9979266370924423,0.05970352541659072,-0.0022834199300354203,0.023931193610489534,0.515,2.0,0.014490665,0.081109285,0.976783141,0.086529021,0.04576865,-0.454009964,0.9971769328270423,0.058181920849966005,-0.01022328238101674,0.04635205735691179,0.515,3.0,0.027720118,0.051404562,0.978357893,-0.001034577,-0.066106114,-0.04387642,0.9973531655985631,0.03346222594132004,-0.019902219930320646,0.06140719947548678,0.515,4.0,0.025312193,0.043358887,0.9785874,-0.025466547,-0.015218702,-0.156623269,0.9973059661628306,0.03090386091550787,-0.01727665340005741,0.0642438984171442,0.531,5.0,-0.049033487,-0.078505885,0.975408911,-0.45740769,0.118520883,0.323913562,0.9571206147432305,0.08855726639949309,0.11836116050923538,-0.24913525459937735,0.531,6.0,0.004185077,-0.018231466,0.979744405,0.265796826,-0.034317578,-0.156482373,0.9929383309294608,-0.03257163044449586,0.0031029451951372785,-0.1140303976679894,0.531,7.0,-0.03079915,-0.027853244,0.979375112,-0.034997826,0.011794837,-0.089755691,0.999458630766989,-0.0156621837155373,0.027617185603510754,-0.008627424063851407,0.532,8.0,0.010214918,-0.050667793,0.977828937,0.061159454,-0.006184327,-0.055624491,0.999253669386731,-0.03072046619033752,-0.005539938336672426,0.02275228026874763
8,0.59,0.0,0.025884278,0.092561862,0.975030926,0.02934793,-0.028472943,-0.20395613,0.9975265305641147,0.06750215734251801,-0.018017703521716947,0.0077228190856567505,0.59,1.0,0.003561218,0.077463351,0.976911842,-0.029334759,0.009678198,-0.264802836,0.9983590183296867,0.056241239299896335,-0.0009493328544320148,0.010737424687862865,0.59,2.0,0.014249453,0.078943568,0.976281653,-0.038115691,-0.016806472,-0.363961944,0.9980580949685244,0.05473857725113073,-0.009670184835280066,0.02811075868014987,0.59,3.0,0.029007762,0.050950341,0.977989577,-0.035100382,-0.010046578,-0.370949487,0.9984021959877847,0.0314447117444387,-0.019252606160104244,0.042820816271092424,0.59,4.0,0.022684389,0.041915129,0.978486352,-0.038626793,0.049620094,-0.574974977,0.9988743519162723,0.028417296955833886,-0.013387846023695242,0.03554225508344635,0.555,5.0,-0.054187479,-0.092001927,0.974271709,0.030831999,0.051135852,-0.240901339,0.95533111756863,0.07681398995220454,0.11360997343915477,-0.2617915978175191,0.556,6.0,0.004685051,-0.007484371,0.980244375,0.093709284,-0.00514051,-0.249914584,0.9916562259101523,-0.025145568539311446,0.0014958958847515512,-0.12642544163248703,0.556,7.0,-0.029858025,-0.027630202,0.97912107,0.068942148,-0.045184075,0.02680133,0.999609596542846,-0.01202921127965464,0.02411945041974339,-0.007362383234211743,0.556,8.0,0.010430609,-0.047986939,0.979158034,-0.012762762,0.049855161,0.05725274,0.9991951758244225,-0.030793904644270696,-0.003009137599392768,0.025528046084043382
9,0.608,0.0,0.027259942,0.089124436,0.975570977,-0.101589438,-0.037181475,-0.124605904,0.9979926295465492,0.06037033288700012,-0.019090395959865072,0.0013004076177461658,0.608,1.0,0.004975345,0.070929589,0.977468792,-0.117291302,-0.048203511,-0.106608414,0.9988080913819021,0.048411998327528946,-0.003281197595994962,0.005282873300881439,0.608,2.0,0.014421466,0.073636899,0.977181472,-0.129368998,-0.046612925,-0.053876363,0.9985227666274277,0.04667430114226274,-0.011716360750365315,0.025229368409780847,0.609,3.0,0.026895046,0.048582464,0.978953728,-0.065929285,0.041875465,-0.36221694,0.9991778540649746,0.0277943883287044,-0.016134068121183145,0.02471395899904034,0.609,4.0,0.019598593,0.041278965,0.978756835,-0.01410106,-0.005310089,-0.334676057,0.9993701051981971,0.02724140433062719,-0.012806430161938453,0.018796118555361833,0.663,5.0,-0.052245555,-0.08214172,0.97419923,0.045907382,-0.069593417,0.062889748,0.9577442881022603,0.06759814480950879,0.101934766605638,-0.26031840653872634,0.663,6.0,0.007790392,-0.005402986,0.980401508,-0.000449007,-0.003433225,-0.006740307,0.9916650086619692,-0.023000194500392895,0.0008121397839658879,-0.12677082502442047,0.667,7.0,-0.025811052,-0.02153259,0.979785251,0.132025744,-0.088527985,0.033514617,0.9997967091929524,-0.0053065978687592595,0.018566269122885084,-0.005802926577060459,0.668,8.0,0.0058595,-0.055264368,0.978778584,-0.19221115,0.093450054,-0.057237074,0.9989363892383378,-0.04023498180352359,0.001228173880870355,0.022488398868319645
10,0.679,0.0,0.029617527,0.081686895,0.975924205,-0.143447996,-0.01412919,-0.119776719,0.9984808170664804,0.05145884244588507,-0.019093787856834882,-0.004844868384323454,0.679,1.0,0.009608266,0.062023111,0.977927817,-0.151532235,-0.075851379,-0.113059269,0.9992062857707521,0.03920468699913752,-0.007034016519601899,-0.0005600045710496252,0.68,2.0,0.01844689,0.063223092,0.978342758,-0.146273956,-0.050033514,-0.163920635,0.9990368884595977,0.03810420137444763,-0.013774581457530133,0.016841206615046074,0.68,3.0,0.025820834,0.041388903,0.978639486,-0.090673604,0.030960108,-0.159945576,0.999502170665834,0.022717455687704682,-0.01416828743635745,0.016690945823528973,0.68,4.0,0.020399831,0.037693203,0.979464175,-0.065929239,-0.028236611,-0.084252125,0.9995278301287837,0.023244399115945794,-0.013904988827239298,0.014507446139773728,0.69,5.0,-0.048002049,-0.074660183,0.974338063,0.076196054,-0.019309258,-0.236193784,0.9555589045501356,0.0601272117918399,0.09404599239769929,-0.27285023300524425,0.69,6.0,0.005738315,-0.005639887,0.979545437,0.005624771,0.006476181,-0.176949408,0.9905540813121957,-0.020712592306837172,0.000578938744584735,-0.13554801859714685,0.69,7.0,-0.016719896,0.003231364,0.980097446,0.406994419,-0.159142888,0.007034875,0.9998151330059244,0.015701410528173095,0.0094773209947308,-0.005774591460346576,0.69,8.0,-0.008016651,-0.084355551,0.976508,-0.549067503,0.275990038,0.338311242,0.996794943935094,-0.06815558925637183,0.015707710506764984,0.038831987190781764
11,0.796,0.0,0.03063961,0.073162725,0.976466297,-0.141112048,-0.006094163,-0.127262197,0.9988296911091737,0.04311249387748828,-0.018761886933140706,-0.011338105182266585,0.796,1.0,0.010022424,0.050735123,0.979115161,-0.223270565,0.00119572,-0.33130411,0.9994724288701793,0.026822630961594943,-0.00633142680633156,-0.017184976905382923,0.796,2.0,0.015888271,0.050129164,0.978292712,-0.225683394,0.058432515,-0.558993584,0.9995551800330134,0.025904450147227483,-0.009704208255076964,-0.011145845588474167,0.796,3.0,0.022559025,0.034223799,0.978787424,-0.150750901,0.070056162,-0.151404989,0.9997963171346498,0.014722945930788846,-0.010384964945660602,0.00909459235959885,0.796,4.0,0.020556831,0.029092444,0.979512147,-0.149126399,0.022999968,-0.139871465,0.9997823309588102,0.01504374148321811,-0.012393905568182574,0.007440944128336645,0.764,5.0,-0.044315873,-0.070908471,0.976420551,0.199452525,-0.078221605,-0.214138542,0.9532277132935337,0.058796601254244685,0.08210349631226664,-0.2848840153175174,0.764,6.0,0.004685051,-0.007484371,0.980244375,0.031594121,0.014537701,-0.214927101,0.9891030676605886,-0.01739886735815049,0.0006540051100651338,-0.14619156349250365,0.764,7.0,-0.003440416,0.018710933,0.979901559,0.054265111,-0.144085939,-0.105473447,0.9997794796191899,0.017707312888216368,0.0015742975069731133,-0.01117876513842387,0.764,8.0,-0.030795649,-0.113402256,0.97258293,-0.375455671,0.353035231,0.046921743,0.9949079011613702,-0.08650192695836316,0.03251640030676447,0.04022895164253619
12,0.814,0.0,0.033390938,0.066287874,0.977546399,-0.14002074,0.016195627,-0.0550655,0.999123024008505,0.03522946001998234,-0.01764155045851064,-0.014171934949766792,0.814,1.0,0.009762357,0.035213363,0.979029476,-0.293691609,0.029361368,-0.341339307,0.9993381761896183,0.011380433987124482,-0.004312015047698322,-0.03427975872874318,0.814,2.0,0.010692067,0.034719938,0.979539793,-0.330762693,0.038056906,-0.335538224,0.9995443420215114,0.008724988007942889,-0.007063680897399512,-0.02801940986574064,0.815,3.0,0.019884358,0.025968108,0.97961792,-0.139062141,0.084588955,-0.066386412,0.99993533137217,0.007627444106929465,-0.006157153106674716,0.005765816130009325,0.815,4.0,0.017742781,0.021826096,0.9783802,-0.110444506,0.031435445,-0.002008043,0.9998763698752682,0.009128859531293283,-0.01052100692122311,0.007295018990891005,0.839,5.0,-0.044179305,-0.068706871,0.976054074,-0.120720448,0.039264026,-0.142004368,0.9520632289741032,0.04451654023124137,0.08103098671187733,-0.29159537869065105,0.839,6.0,0.002827747,-0.004236599,0.980293352,0.010434417,0.062481739,-0.048623031,0.9887708542047261,-0.014923559621952425,0.0034539991395464886,-0.14865246426955234,0.839,7.0,-0.001310973,0.0192156,0.980360669,-0.004946367,-0.011216842,-0.152524149,0.9996838440365015,0.01665126657026941,0.0010418240710532243,-0.018811217308160225,0.84,8.0,-0.050646885,-0.127056688,0.970240945,0.030176316,0.166837834,-0.04871182,0.9950375070108961,-0.08336305856884778,0.039749729791518904,0.03702592455413997
13,0.919,0.0,0.034852409,0.059895439,0.977576005,-0.159424244,0.045631353,-0.004431668,0.9994192049553039,0.02680709770054976,-0.015299544607830234,-0.014441475484670991,0.919,1.0,0.0106765,0.026302488,0.979901623,-0.28994102,0.048129918,-0.273580229,0.9988439414897137,-0.0027765719873547707,-0.0016075294037684346,-0.04796339277520378,0.919,2.0,0.00585064,0.014433989,0.979742022,-0.338421473,0.097588543,-0.276067496,0.9990890466545271,-0.008093264722129382,-0.0014376033659082837,-0.04187492349423617,0.919,3.0,0.021197193,0.018535487,0.979798507,-0.148965382,0.008742323,0.063608522,0.9999409161293018,0.00034637267278648875,-0.006224055131644017,0.008905358734068003,0.919,4.0,0.01805138,0.012884473,0.979355981,-0.160433233,0.02623464,0.076860738,0.9998967174239833,0.0008091484456593734,-0.009135053905943198,0.01106573782768604,0.959,5.0,-0.043568628,-0.066389393,0.976560404,0.140403107,-0.012323521,-0.274598079,0.9482731918067423,0.04290804949868634,0.07407972980733649,-0.30569436798957184,0.959,6.0,-0.002273695,-0.006229205,0.980223968,-0.057374112,0.09790143,-0.011887652,0.9886284983583539,-0.015838829376501936,0.008526947777765507,-0.14929874372975763,0.959,7.0,-0.001595557,0.010926558,0.979901559,-0.186247677,0.047696328,-0.10740992,0.9996827101757629,0.006273900894530206,0.0036013842967642386,-0.024127726257441987,0.959,8.0,-0.056749977,-0.10738467,0.972181039,0.405179044,0.051796575,-0.300627935,0.9970742143966389,-0.06108262976445796,0.040868228601937916,0.02101692692387763
14,0.954,0.0,0.035394942,0.053763587,0.977901669,-0.18619974,0.067159273,0.011415749,0.9996750838610939,0.017576159972297584,-0.012133575704482957,-0.013913362230833198,0.954,1.0,0.011753514,0.01765184,0.979822059,-0.281028372,0.052217466,-0.07966309,0.998527703784154,-0.015527459526544512,0.0011303217463324727,-0.05196195867118606,0.954,2.0,0.003235238,0.00486128,0.980465145,-0.30430334,0.06171829,-0.143834005,0.9985475700991254,-0.022096307107014174,0.0020906373692307417,-0.0490931023337829,0.955,3.0,0.022510028,0.011102866,0.979979094,-0.190219836,-0.007520473,0.001514128,0.9998971382076006,-0.008618940846021042,-0.007204603838713274,0.008917429364459821,0.955,4.0,0.021485823,0.002482574,0.979284533,-0.208016081,0.01850331,-0.000222146,0.9998582393146879,-0.009542420439918792,-0.008506564293638727,0.010958186464854093,0.975,5.0,-0.038130443,-0.053566728,0.976486905,0.163297334,-0.017218248,-0.182601377,0.9456396197943527,0.04343975595014595,0.06650863767809102,-0.3153653408229701,0.975,6.0,-0.009843604,-0.017935689,0.979414833,-0.20434286,0.109216164,0.01474519,0.9884883177032817,-0.024362436435950312,0.015248589223832529,-0.14854224308836522,0.975,7.0,-0.004454212,0.005110572,0.97995053,-0.082611532,0.081225966,-0.033430748,0.9996373833197161,0.0018754649701146278,0.00762470811914551,-0.025757490696008578,0.975,8.0,-0.060198087,-0.091416207,0.97363662,0.063281629,0.138299569,-0.086473281,0.997168291365743,-0.05687600012179388,0.04647494324200702,0.016143077634780074
15,1.04,0.0,0.032872727,0.044895787,0.977878189,-0.155719991,0.080450096,0.020633482,0.9998270201180592,0.010346116173028353,-0.008510881711119411,-0.012901651618127718,1.04,1.0,0.018457293,0.016638555,0.979641509,-0.188689165,-0.00668444,0.019613739,0.9984436555349087,-0.022613081948704417,0.00021146406289375742,-0.050979118566527024,1.04,2.0,0.003072993,-0.008083067,0.978616483,-0.158253793,0.012102376,0.062833088,0.9985421760033724,-0.028171898204052588,0.0028262474131767207,-0.045955187080352254,1.041,3.0,0.024598246,0.001910277,0.979610778,-0.188190937,0.015914177,-0.05867652,0.999812341414061,-0.017042111516432413,-0.007076665474400325,0.005896541101215794,1.041,4.0,0.026022496,-0.003711921,0.97950092,-0.20175078,-0.024894643,-0.030169459,0.9997252500389386,-0.018821223431879586,-0.010368964532036076,0.009363255718091492,1.107,5.0,-0.029043814,-0.0312096,0.977748648,0.505424367,-0.207974021,-0.233337216,0.9416871012746755,0.05782331701353781,0.0447211991121662,-0.3284537739963131,1.107,6.0,-0.016472575,-0.053114017,0.97817307,-0.798276294,0.083453825,0.453112884,0.9897808655008202,-0.06299889587121578,0.026421545982670956,-0.12516740516340666,1.108,7.0,-0.012263575,0.001204391,0.979081281,-0.080022272,0.144618211,0.019451812,0.9995820108949931,-0.0020403041828650726,0.014819359961137597,-0.024739183986253837,1.108,8.0,-0.070801371,-0.09967186,0.972447267,-0.165124373,0.04804707,0.346027,0.9962070386718648,-0.06378992861405686,0.04872155134032151,0.03359451656207568
16,1.084,0.0,0.031137998,0.037153368,0.979308456,-0.187036046,0.052479751,-0.033674579,0.9998698389307983,0.0018832815084919982,-0.0065246614612438645,-0.014635137173095359,1.084,1.0,0.02599817,0.020119269,0.979782277,-0.068360078,-0.073989762,0.301470375,0.9990826683485854,-0.02299358085475095,-0.004361974881307393,-0.03586210005118514,1.084,2.0,0.008625639,0.007706425,0.979543878,0.014245974,-0.095649423,0.488352663,0.9994702058426432,-0.024412109420371583,-0.0021316463920359368,-0.021419912001954908,1.084,3.0,0.026437323,-0.011653774,0.978332386,-0.226238383,-0.078209825,0.101612019,0.9995020724412851,-0.02724407196374315,-0.011559562490936913,0.010942771286486455,1.084,4.0,0.017803445,-0.021999814,0.979514189,-0.339990465,0.221963105,-0.578859414,0.999193605395937,-0.034831921693341865,-0.00032290978130756484,-0.019969273804785446,1.125,5.0,-0.019531865,0.002122733,0.9796137,0.370703392,-0.089374948,-0.350673864,0.935262438501313,0.06759012433386404,0.032112728840372404,-0.34595450404285144,1.125,6.0,-0.023044435,-0.064864891,0.97732006,0.361749719,0.08691493,0.161213713,0.9917915547687385,-0.041124834303092314,0.02773352563217366,-0.11785207443639345,1.125,7.0,-0.018886728,-0.005503763,0.980146418,-0.155333876,0.074035698,0.142224246,0.9996329310942621,-0.00965982516005143,0.018267704655782185,-0.017520896563260058,1.125,8.0,-0.079579027,-0.117857993,0.968420194,-0.495607089,0.154956055,0.271869379,0.9934317456592432,-0.0877687031649015,0.05576046091645604,0.04775764294397648
17,1.159,0.0,0.02822204,0.027722877,0.978558102,-0.252969163,0.1086476,0.003461483,0.9998479239473048,-0.009479176016792514,-0.0017153071954014586,-0.014537259766982396,1.16,1.0,0.033293883,0.023358584,0.977713605,0.075680226,-0.088443896,0.488501902,0.9997584916266271,-0.016038680210282163,-0.009832651488977096,-0.011359494806561222,1.16,2.0,0.015611475,0.020239622,0.979886034,0.170985504,-0.054409828,0.55922978,0.9998858457577683,-0.012516157879185266,-0.005288707568516733,0.006608389930271237,1.16,3.0,0.025025802,-0.031924152,0.979390401,-0.437606157,0.218480978,0.175756045,0.9986539648372881,-0.04819916418417387,-0.0006013780359819146,0.019150389843795683,1.16,4.0,0.011533313,-0.050022401,0.978866049,-0.427185166,-0.066636103,0.340279588,0.99846184258211,-0.05529940648481316,-0.0027872193418686563,-0.002855863845788282,1.184,5.0,0.087704278,-0.435970574,1.070038606,-21.84706411,4.26003285,-4.836612556,0.6670351152701299,-0.6496554839982184,0.28132277649534265,-0.2320978296592983,1.184,6.0,-0.111213363,0.65328393,0.729442043,38.40015105,24.50110222,42.25474078,0.0846143176163732,0.17619820866764818,-0.28195251678373273,0.9393068650850723,1.184,7.0,-0.022168062,0.293806894,1.049704761,-7.779086576,3.590330591,-25.01772548,0.5448563826573799,-0.2205481600018441,-0.1644185389881617,-0.79212156607071,1.184,8.0,-0.139899784,-0.237934553,0.853995433,-3.52471598,-0.560635918,-7.842459668,0.9062164261329194,-0.2626319806010619,-0.08389560176591232,-0.32055851225131693
18,1.253,0.0,0.015518176,0.008554247,0.979642287,-0.323875921,0.244519416,0.116535288,0.9996171275716204,-0.024124962723674225,0.01025550463576315,-0.00885488925452305,1.253,1.0,0.041171872,0.028956184,0.978490887,0.114548938,-0.141614454,0.473646456,0.9997332014092357,-0.007565782669973027,-0.017928786535529963,0.012443614667554549,1.253,2.0,0.018226877,0.029812331,0.979162911,0.144847932,-0.192575939,0.377062703,0.9995536412448148,-0.0025329030710051696,-0.015207301864242923,0.025589854362122622,1.253,3.0,-0.002318528,-0.06612861,0.977562086,-0.533300879,0.421948732,0.448928427,0.9962220270748752,-0.0737044601048212,0.021674593239534707,0.04049120076490902,1.253,4.0,0.009264959,-0.079024011,0.977204363,-0.540450305,0.050132006,0.384190924,0.9966030861982104,-0.08075669203942748,0.001158270025366366,0.01610290910364004,1.244,5.0,-0.018348243,0.012540439,0.979879115,0.406655027,-0.206160031,-0.193524324,0.7143964578899421,-0.6050728680756867,0.2497169858616639,-0.2473175130174414,1.244,6.0,-0.047853864,-0.015955796,0.978866906,1.565457933,0.685850959,2.595581439,-0.0419505719362965,0.08456448659490398,-0.20208178006205305,0.9748086741961778,1.244,7.0,-0.02131945,-0.018412703,0.979482237,-0.143625273,0.016363754,0.134965541,0.5532929464656541,-0.2044260907416549,-0.14026328036011973,-0.7952377638153623,1.244,8.0,-0.097607451,-0.155438248,0.962879399,-0.599206606,0.389429777,0.183818231,0.9090413012652361,-0.26544678404579936,-0.039203525058347885,-0.3188181316311045
19,1.295,0.0,0.003190716,-0.004743115,0.980104751,-0.053985922,0.131113114,0.07781753,0.9995614562117883,-0.024557023442856,0.015742085904895228,-0.005102409897185185,1.295,1.0,0.047103352,0.033623255,0.978680617,0.137326787,-0.003734204,0.597770132,0.9989271989778469,0.0012612649329037738,-0.018647584379322058,0.042368950303945205,1.295,2.0,0.03110772,0.042264694,0.979012771,0.181375198,-0.196908468,0.330175598,0.9987571489552585,0.008972203766717805,-0.02496368676844784,0.042195631447568965,1.295,3.0,-0.021612972,-0.101083262,0.974935923,-0.55481643,0.165679153,0.556593575,0.9923202058931744,-0.09875316982563347,0.03023680768422679,0.06807463467830605,1.295,4.0,0.005591179,-0.111551295,0.973399223,-0.482630831,-0.039777231,0.330989716,0.9942151263046082,-0.10229734668934738,-6.747508754407195e-06,0.032734315968152725,1.319,5.0,0.038057391,0.150526728,0.967583247,3.285790302,-1.112223012,0.308703536,0.8572455113901892,-0.4290490868979128,0.15128659649943474,-0.24116255918582702,1.319,6.0,-0.053477599,0.112097086,0.972096903,-0.657647718,-1.06199147,-2.42494832,0.06846454218704834,0.1519171606047476,-0.19599299349853833,0.9663438980385767,1.319,7.0,-0.057351784,-0.049561586,0.976103182,-0.943058834,0.645176114,-0.758965217,0.5230107800199829,-0.17849345584340262,-0.07708317139280585,-0.8298542009847245,1.319,8.0,-0.085434551,-0.148642538,0.965254025,0.187772599,-0.366517071,-0.355250482,0.9109567392818658,-0.2425337045832336,-0.05318709380148061,-0.32940302723417136
20,1.386,0.0,0.002711167,-0.002350796,0.979888322,0.022723992,-0.008246134,-0.025375181,0.9996644582507861,-0.02110978476802477,0.013586503918214516,-0.00638394928632318,1.388,1.0,0.043470399,0.047283959,0.977591199,0.229340961,0.11245622,0.45052849,0.9976949620541864,0.01441912508508164,-0.013120797349964613,0.06499766303781655,1.388,2.0,0.033585709,0.060880265,0.977190664,0.354602201,0.060801688,-0.08336751,0.9986401007034085,0.028931924822608385,-0.020140509112236044,0.038409020891519,1.388,3.0,-0.039880122,-0.141322376,0.968842899,-0.798096955,0.238263344,0.806918878,0.9840264992100695,-0.13496087443055066,0.04317782358208251,0.10776403284969825,1.389,4.0,0.003025029,-0.148131071,0.969002082,-0.583772226,-0.14085689,1.327507322,0.9868199555224397,-0.1279752081186772,0.00018578039037712597,0.09903881549835768,1.389,5.0,0.041937836,0.216491655,0.953280431,0.189827264,-0.053481151,-1.048257794,0.8668425546322226,-0.38960494617728225,0.11109232215654631,-0.2906036258389514,1.389,6.0,-0.038673653,0.184449086,0.962145458,2.330875833,0.111920902,0.276198025,0.04065225394133853,0.13447964470678034,-0.05963233907508863,0.9882846773806931,1.389,7.0,-0.076717975,-0.129173359,0.968298299,-1.400499366,0.563670033,-1.932949072,0.4381075619378437,-0.16214625544541825,-0.009549812531606378,-0.8841262110686001,1.39,8.0,-0.058631412,-0.15750773,0.965242805,-0.104276905,-0.245419807,-0.732150127,0.9016201123700865,-0.23265243984805106,-0.06077682927318084,-0.3595277349885543
21,1.444,0.0,0.004172637,-0.008743231,0.979917928,-0.178646831,-0.019207983,-0.062441754,0.9994912059575871,-0.02842318249373307,0.01102664294288606,-0.009373636209398083,1.444,1.0,0.046378354,0.05967115,0.977272941,0.23184053,-0.084726961,0.583729722,0.9950152203626251,0.02758505493467749,-0.018231217825120886,0.09408187225805013,1.444,2.0,0.025534861,0.081707879,0.97486809,0.356331912,0.064213368,0.323575484,0.9972256987966048,0.047570948091826236,-0.01614983655688162,0.054928074210315245,1.444,3.0,-0.049072864,-0.179700189,0.962313201,-0.476727948,-0.234839091,1.044893075,0.974810691638697,-0.1504503678435807,0.03418818737003822,0.16105890266286874,1.444,4.0,-0.000493957,-0.180784222,0.962969792,-0.574809991,-0.107337572,1.13369054,0.9761989773952776,-0.15172891026873667,-0.00019438027491061821,0.15496404917717044,1.43,5.0,0.03835165,0.276415788,0.93810685,0.840241934,-0.269506861,-0.633003723,0.8896947408062246,-0.31857523298788565,0.06314370019348127,-0.32088309745814736,1.43,6.0,-0.033878563,0.206970619,0.957268199,0.476898058,-0.686142648,-2.280933619,0.15058448072854924,0.16762552517332655,-0.00442252358408124,0.974272261105297,1.431,7.0,-0.081381545,-0.187829787,0.958568211,-0.500571612,0.059478812,0.146889411,0.44338359418082185,-0.1558434558930791,0.026321880158563515,-0.8822873479153582,1.431,8.0,-0.05138868,-0.177003728,0.962010335,-0.323831149,-0.026989379,-0.016709049,0.9020422607368113,-0.2327204102150042,-0.044954975521952795,-0.3607492490498125
22,1.519,0.0,-0.00293878,-0.010215013,0.979406462,-0.182725703,-0.022528216,-0.065105529,0.9992595548393985,-0.035278174073438424,0.008924619531630791,-0.012495745773127726,1.519,1.0,0.059137961,0.070287601,0.976054996,0.21172417,-0.160967534,0.572094363,0.9913314793151743,0.039395913301084697,-0.027173638599576617,0.12235789103781264,1.519,2.0,0.033220485,0.102738648,0.974069386,0.329588964,-0.024740288,-0.040549748,0.9963645414429841,0.06466140430835618,-0.016135583193103688,0.053068317318352126,1.52,3.0,-0.036719202,-0.204545786,0.957405725,-0.375918044,-0.314104419,0.281505696,0.9707180590477666,-0.16129700603591948,0.01495858829667744,0.17738648854564865,1.52,4.0,-0.009838092,-0.21727287,0.955402382,-0.489892705,0.139089037,-0.419085484,0.9759503812441518,-0.1725879806281002,-0.002034056511764963,0.13315444005445748,1.505,5.0,0.063495896,0.30952306,0.928073136,0.419747522,-0.690018089,-0.631316115,0.8983237587977119,-0.27466365367918644,0.004108176304470006,-0.34286648219766497,1.505,6.0,-0.077202231,0.365877861,0.905003981,0.729821558,0.79462135,-2.103085242,0.2524760448368475,0.12499364070247736,0.07548327793466902,0.95652219593678,1.505,7.0,-0.088210062,-0.216168305,0.951690732,-0.515167332,0.139066821,-0.391048565,0.42467754111435696,-0.14722845811122348,0.058020980211973265,-0.8914069402077242,1.505,8.0,-0.046891429,-0.213707636,0.955560694,-0.638870275,-0.116699747,-0.188432554,0.8948707089750411,-0.24972365181387216,-0.03065031136005382,-0.3686530487555784
23,1.55,0.0,-0.012077024,5.3e-05,0.979159406,-0.160975151,-0.124757746,-0.014317215,0.9991185325932512,-0.039869915351744264,0.0024890792737428287,-0.012897758057965994,1.55,1.0,0.059528501,0.080982411,0.97484317,0.116540324,0.003546706,-0.040887994,0.9913227091472104,0.0457438043406975,-0.025985636057942896,0.12046384275847742,1.55,2.0,0.040056492,0.113321103,0.972937719,0.099673856,-0.194010896,-0.090606868,0.9960940577664782,0.06963493122092056,-0.025338817710606115,0.04801613013559228,1.55,3.0,-0.0208294,-0.224833217,0.953809289,-0.380840126,-0.249502742,0.190789061,0.9667319125362843,-0.17278083087694718,-0.0013036447627257715,0.18861202049642067,1.551,4.0,-0.006581298,-0.241542255,0.95026524,-0.393079531,-0.150676378,0.198112199,0.9719232112341392,-0.18581343037302972,-0.011243286284559697,0.1439174383834344,1.574,5.0,0.054520417,0.319776711,0.923567203,-0.152024591,-0.220610088,-1.355290827,0.8797586540017697,-0.2498820499970875,-0.02834528521592279,-0.4034603036288401,1.574,6.0,-0.125523125,0.329177061,0.914176902,-0.448175114,0.036723615,-1.110600137,0.31135752468308,0.09906142735954761,0.07165105379697966,0.9423955920538343,1.575,7.0,-0.092406093,-0.26752003,0.93829694,-0.643029169,0.14463767,-0.37891796,0.4053212680595667,-0.14250305307623043,0.0953006949636469,-0.8979561944003638,1.575,8.0,-0.037421001,-0.271912122,0.940509153,-0.890568792,-0.08109787,-0.108565201,0.8852411315583806,-0.2783500316654929,-0.009589286344008654,-0.3725284478485762
24,1.609,0.0,-0.00582156,-0.001954197,0.980076166,-0.092901101,-0.177954725,-0.058034318,0.9990300013545951,-0.04074592865415573,-0.0064089596678482425,-0.015419174022111378,1.61,1.0,0.072294232,0.079809248,0.973554841,-0.065718343,-0.26159331,0.171585367,0.9899553049466748,0.043760468860721734,-0.04027785342594195,0.1282622707440672,1.61,2.0,0.056904313,0.113623889,0.971502708,-0.023231149,-0.283517548,0.180688045,0.9953066562204119,0.06790323444780258,-0.040204881534520835,0.056012305216484086,1.61,3.0,-0.010549974,-0.247923404,0.947630563,-0.335480622,-0.234761309,0.413640674,0.960449097196526,-0.18205686530839585,-0.013702849937611266,0.21024999736515138,1.61,4.0,-0.001457889,-0.262878561,0.943745059,-0.289647352,-0.370578146,0.909308997,0.9623428834666102,-0.19229237820852146,-0.023148059897486358,0.190745860366781,1.638,5.0,0.047634591,0.311027102,0.928469217,0.293800236,-0.051719689,0.43837743,0.8981913557292324,-0.20390527993048324,-0.037872717821085575,-0.38760880092510697,1.638,6.0,-0.1590155,0.321132345,0.912582099,-0.858749829,-0.254255951,-1.304832078,0.3809681588115329,0.07888302740733781,0.04375587688045945,0.9201772400995506,1.638,7.0,-0.094185988,-0.306994446,0.924600135,-0.59058632,0.153658391,-0.558703919,0.3779392414008829,-0.1379447784419343,0.1275376331558967,-0.9065689825043226,1.639,8.0,-0.030652918,-0.344480565,0.917249442,-1.299660171,0.015359783,-0.246847464,0.8658457416712352,-0.32278835904123443,0.020104685048683537,-0.38172585521071145
25,1.671,0.0,0.004942784,-0.002309273,0.980023079,0.078011014,-0.208993564,-0.004850388,0.9992008859425897,-0.033057550253455664,-0.01652793109063918,-0.015218915751367782,1.671,1.0,0.08754498,0.075241289,0.972814281,-0.134670354,-0.271900911,-0.198256698,0.990817576060197,0.03923839953808964,-0.054133134761068666,0.11751801007856136,1.671,2.0,0.07278895,0.110520799,0.971281072,-0.150532619,-0.205590538,-0.203200451,0.9959268809719947,0.060442047562956666,-0.04962212827961759,0.044878179873884524,1.671,3.0,-0.004147462,-0.262213751,0.94419635,-0.123251196,-0.219212482,0.33416844,0.9564169015411955,-0.18092871158233179,-0.023714143867217347,0.22796743441145595,1.671,4.0,0.00720071,-0.2763414,0.940617659,-0.070899061,-0.154547107,0.072376666,0.9617995654963473,-0.18901625703478542,-0.03134929788667924,0.19552920986289954,1.711,5.0,0.070253116,0.279273537,0.939875945,-0.521521315,-0.378026501,1.598471469,0.9256224009157046,-0.20791705059135748,-0.03377008258013566,-0.31440937091468557,1.711,6.0,-0.196299853,0.515706238,0.847652313,3.26713963,2.703720515,1.556110252,0.29970194108946674,-0.0020795325600258454,0.26201220440196,0.9173461869959252,1.711,7.0,-0.094983153,-0.331848164,0.907698737,-2.400463491,1.02298776,-3.798274878,0.1897742698129499,-0.13011346387784817,0.2303646024844909,-0.9455095784585327,1.712,8.0,0.034353006,-0.240702317,1.037454705,-0.248420127,-0.095215483,-2.29731994,0.8211775294999768,-0.31667148534073136,-0.014897597148861148,-0.4745152231652848
26,1.752,0.0,0.020837364,0.012116241,0.979506509,0.229215641,-0.248652304,0.462831119,0.9994019647777808,-0.018257265159136372,-0.028117746915360148,0.00847215295095791,1.752,1.0,0.095201425,0.058614692,0.973781293,-0.435540305,0.023745724,-0.633063433,0.9947639653241286,0.018739892213309396,-0.053936908194764197,0.08476013017238215,1.752,2.0,0.076503963,0.090468891,0.972339202,-0.593308338,-0.144228354,-0.372512591,0.9976435475974629,0.030803882993355125,-0.0562768670288104,0.02431844910971969,1.752,3.0,0.007097789,-0.245047772,0.948765098,0.550543681,-0.303186423,0.2197621,0.9589894969872718,-0.1453387732033595,-0.031224706528870546,0.24133131453258946,1.752,4.0,0.015381917,-0.26443196,0.943656259,0.479381426,-0.117284444,-0.334172621,0.9700287316116265,-0.15828863130536594,-0.035305853255058084,0.18094879323539392,1.784,5.0,0.033949461,0.276885806,0.93928999,-0.249506353,-0.117677642,0.24733944,0.9320878774120388,-0.1910050769144593,-0.035972154501216026,-0.30567180680422995,1.784,6.0,-0.123522061,0.293480971,0.927435292,-0.943434996,-0.565208044,0.142439013,0.30204851766592067,0.010389530681602494,0.2008435162339054,0.9318372350442095,1.784,7.0,-0.095384345,-0.335026343,0.915231214,0.092826069,-0.018358343,0.511889333,0.21807970000750626,-0.11026822727996252,0.2242971120832872,-0.9433837861699065,1.785,8.0,-0.04346765,-0.471697958,0.857671615,-2.928600561,0.695972946,-0.019833806,0.7773547639267746,-0.4031616267664073,0.09569880287878675,-0.4733096373738654
27,1.85,0.0,0.035898814,0.02384733,0.978775551,0.23089233,-0.18516063,0.706912621,0.9983608067794771,-0.004580469008420786,-0.03609146355581321,0.04418285921818124,1.85,1.0,0.092441437,0.031207367,0.975271593,-0.495842481,-0.034077139,-0.593907524,0.9969236430377897,-0.004131166403076185,-0.05699153011794109,0.05364838218648768,1.85,2.0,0.070676185,0.050046845,0.976224457,-0.547749084,0.188653014,-0.566215651,0.9989515827882067,0.004341961063558111,-0.045267046946651,-0.005270396549465566,1.85,3.0,0.01641233,-0.19658827,0.959577869,0.912779381,-0.057565218,-0.42174873,0.9701508127228375,-0.09454738160182247,-0.025111780746184274,0.22189545212377096,1.851,4.0,0.028175743,-0.20761707,0.957049779,1.124232188,-0.123679502,0.087086758,0.9771096996784531,-0.0965045902115771,-0.030532486541619563,0.18711297690957918,1.802,5.0,0.035579364,0.232434067,0.951180589,-0.803012543,0.069559376,1.136845072,0.9452179468267361,-0.20167073537824373,-0.010927267830211753,-0.2564615805660074,1.802,6.0,-0.084950499,0.240738388,0.946525985,-0.893572616,-0.297367975,0.98183781,0.2609153754128508,0.02146503597563216,0.14774626042872138,0.9537470637611759,1.802,7.0,-0.096382503,-0.263323922,0.939059064,1.779634019,-0.52995896,1.014030057,0.28607836463414293,-0.08616461978404684,0.13081702192320188,-0.9453156797392444,1.803,8.0,-0.147028495,-0.734320709,0.629991046,-5.733553613,0.930336357,1.166424461,0.6796269123913306,-0.558778544403518,0.3092336797102812,-0.36089933444182376
28,1.881,0.0,0.046434044,0.039234905,0.977665844,0.24115576,-0.141472406,0.371952001,0.9970997232521651,0.009643238091116,-0.04145461043207975,0.0630925124202408,1.881,1.0,0.10390861,0.016460655,0.974252558,-0.214576289,-0.318585637,-0.310522295,0.9965477780702889,-0.011549808574912234,-0.0731645681786505,0.037497652036955084,1.882,2.0,0.075858988,0.030474833,0.976498181,-0.153262015,-0.180833101,0.332614922,0.9985008655039812,-0.003011709231959738,-0.05355404840042434,0.010904819816358546,1.882,3.0,0.027725535,-0.128948978,0.970015183,1.035720787,-0.115488892,-0.599086392,0.9801700798561277,-0.03823706910139022,-0.020739502487856342,0.19332463406902853,1.882,4.0,0.038440306,-0.125495681,0.971531357,1.350278926,-0.322687357,0.777648205,0.9730624977789689,-0.02497906408151238,-0.03263006733588297,0.2268495106439983,1.909,5.0,0.066030675,0.179958861,0.961083637,-0.527148601,-0.100548092,2.297968923,0.9684995427125199,-0.20176454643970268,0.00973506300177947,-0.14561913374955987,1.909,6.0,-0.02037709,0.219648274,0.95527138,-0.406326105,0.059285553,4.942157947,0.026082914163431326,0.056934409038626455,0.11466140077001974,0.9914287255418931,1.909,7.0,-0.049456932,-0.109352527,0.972537422,2.174344875,-1.31531484,2.073934508,0.40794810973195705,-0.08153439177711885,0.003861170622395787,-0.9093489836608842,1.91,8.0,-0.146745442,-0.909847027,0.33242016,-2.004700813,0.610044067,0.45554768,0.6283893195258242,-0.5956879769113692,0.37949676511055946,-0.32598297891106637
29,1.94,0.0,0.050314584,0.049973857,0.976880779,0.173872811,0.015866351,0.142530353,0.9965756789556153,0.01970318200931473,-0.03851413207169831,0.07046532738607006,1.94,1.0,0.120133053,-0.00022987,0.972465422,-0.35188481,-0.025419809,-0.213881248,0.996556538161623,-0.026882771913440327,-0.0741890900190277,0.025462948449074974,1.94,2.0,0.075376565,0.026143401,0.975495206,-0.584176896,-0.612742395,1.822166154,0.9912271445015141,-0.034810413372137354,-0.07932141400935307,0.09982532946999062,1.94,3.0,0.04250277,-0.062251141,0.977433532,1.26421772,-0.053689826,-1.114208737,0.9900045732771551,0.027272586589858042,-0.010299810977038974,0.137989364825171,1.94,4.0,0.053895369,-0.043908794,0.977423811,1.477868757,-0.345688038,0.151091887,0.9700594218415202,0.0513687944230506,-0.03290127155031724,0.23508183976307168,1.934,5.0,0.073222913,0.15189345,0.964340077,-0.515657456,0.374293802,1.782558055,0.9774113340501199,-0.1969233878356761,0.04364801280519468,-0.0631119194118046,1.935,6.0,0.043113939,0.148002502,0.967752266,-1.483163183,0.027514599,4.247157445,-0.18461617182833084,0.0930745369400914,0.017436564219456812,0.978238194869256,1.935,7.0,0.005486703,0.012605019,0.980057656,1.64561954,-0.541451223,0.700522707,0.4481632385047016,-0.0611599386826032,-0.0819739141243939,-0.8880818942847808,1.935,8.0,-0.064407202,-0.89132984,0.400585607,0.812094474,-0.814632023,-0.246445298,0.6765419667149923,-0.5733451441520456,0.32338472339442453,-0.33013426605820806
30,2.001,0.0,0.046889271,0.064366524,0.977224819,0.251288075,0.082411233,0.166256844,0.9957929411217891,0.033073735721100214,-0.03210222868951213,0.07919591738615224,2.001,1.0,0.11619273,-0.022458465,0.973068274,-0.466286335,0.058728077,-1.421915169,0.995255168721321,-0.04314037309654825,-0.0732654106231255,-0.04731000897072972,2.001,2.0,0.081556166,-0.010274174,0.976252034,-0.490579066,0.127625184,-1.154295729,0.9950729320811232,-0.05183907186440438,-0.07452108682905748,0.03986449655432326,2.002,3.0,0.026696288,0.0302542,0.979141456,1.313061376,0.38703903,-1.075181695,0.9921709857635279,0.08919006791615573,0.02265233625544763,0.0844318568806262,2.002,4.0,0.075747102,0.059841356,0.975324248,1.525097968,-0.451715527,-0.370563416,0.9670904068116082,0.1296222378722056,-0.03412844412347608,0.21626250207484107,2.054,5.0,0.053435573,0.104024357,0.972278033,-0.691884495,0.367741007,0.85552222,0.9764551611177089,-0.20416340056017354,0.06541136725643071,-0.02395782193647727,2.054,6.0,0.054839827,0.041873224,0.977190476,-1.522053363,0.0159099,-0.182061848,-0.16901594414659876,0.09835836971712156,-0.055417366276393154,0.9791262213043893,2.054,7.0,0.016669967,0.089249778,0.974624845,1.00044633,-0.025134247,-0.450322824,0.43152322434064366,-0.031544750363945516,-0.12418845446114118,-0.8929556894704708,2.054,8.0,-0.056643995,-0.891550337,0.40353247,1.338787368,-0.287170185,0.310233823,0.7333376741121439,-0.5138138975080345,0.293540671509382,-0.3347312483548781
31,2.078,0.0,0.038669965,0.074373923,0.976681705,0.180392437,0.156551301,-0.074838912,0.9959800636841165,0.042187699092720264,-0.021889571872020248,0.07592599971225175,2.078,1.0,0.115829343,-0.041452142,0.972015578,-0.473031117,0.021232086,-1.227009946,0.9894404400630752,-0.060014491418256356,-0.07312230183874936,-0.10981350263696603,2.078,2.0,0.07219614,-0.030214364,0.977134489,-0.418029906,0.209007993,-1.492969387,0.9951295686752523,-0.06357302483695491,-0.06577610909994575,-0.036730308097788426,2.079,3.0,-0.005841252,0.104976537,0.974153379,1.013417953,0.348981167,-0.879768693,0.9890832520070312,0.13306393036374187,0.04847419673112402,0.04072546238683163,2.079,4.0,0.058225023,0.140053696,0.967777252,0.902045508,0.362937831,-2.154964689,0.9794020250804724,0.16735233820089537,0.013697023097301555,0.11214838262424862,2.087,5.0,0.039278275,0.045796644,0.977387275,-0.5082321,0.216921297,2.220549038,0.972324222639472,-0.19881507739308685,0.090112806520175,0.08329377630282458,2.087,6.0,0.048373853,-0.058506993,0.977247616,-1.254148401,0.00662179,-2.631088215,-0.03461918875019264,0.10228189869466918,-0.10075254087239968,0.9890343019721043,2.087,7.0,0.040035982,0.162615592,0.964209152,1.080042326,-0.462581142,0.542547585,0.4548746325182779,-0.0262111348883139,-0.17826602967789343,-0.8721371840267497,2.087,8.0,-0.146886816,-0.797410168,0.549562815,3.524044042,-0.152623326,1.479841613,0.8564548956376594,-0.3285751942647724,0.2476941253849029,-0.3117225909393818
32,2.135,0.0,0.027802475,0.082992585,0.975896641,0.065962326,0.122418518,-0.127617129,0.996430083398724,0.045262876772617026,-0.014156543325008491,0.06984234507350279,2.135,1.0,0.119113813,-0.058826162,0.969928545,-0.409189776,0.046014221,-1.333095476,0.9789916127634626,-0.07248272191083464,-0.07172464658502758,-0.17657081365685637,2.136,2.0,0.061253094,-0.048849001,0.977128361,-0.353539104,0.269370003,-1.614828443,0.988927812880136,-0.07133377979987013,-0.053830185491360656,-0.11847186966339365,2.136,3.0,-0.035301068,0.142559668,0.968710264,0.557523101,0.410914642,-0.343643004,0.9854774089920647,0.15276673220532302,0.06974063633798068,0.025156421461872552,2.136,4.0,0.026927295,0.191297464,0.960460932,0.797958186,0.224712838,-2.038248962,0.9793688136195252,0.19603425671165664,0.04744129014656761,0.0125148349658083,2.162,5.0,0.040569276,-0.000283887,0.979366659,-1.512240006,0.200474226,-0.267393142,0.9609218331254046,-0.25443294819163653,0.07946500542628873,0.07468881047401922,2.163,6.0,0.071430324,-0.138778152,0.967555339,-0.723344763,0.007507845,-1.297968358,0.03304406098422055,0.10150621080842362,-0.12679264251527703,0.9861684465673094,2.163,7.0,0.067496846,0.206120874,0.954555583,0.344759108,-0.206357862,-0.020395208,0.45269849725402467,-0.02286353060032096,-0.19127940154516881,-0.8706052607795097,2.163,8.0,-0.195351765,-0.46591925,0.839816016,6.272500272,-0.259925702,1.628700909,0.9572675725820371,0.01340225649884619,0.12358788015585181,-0.26112297846458576
33,2.212,0.0,0.022420303,0.083170123,0.975923184,-0.057792913,0.116106212,-0.186075335,0.9972438257072677,0.04189624635051691,-0.007608784429835161,0.06075823425651844,2.212,1.0,0.116673443,-0.073923417,0.969585806,-0.345401109,0.12301005,-0.702729246,0.9715736576511333,-0.08316260121558218,-0.0636250117965921,-0.21232161310460038,2.212,2.0,0.052856251,-0.065383315,0.97679744,-0.355931737,0.155387203,-0.936977719,0.9817325103005993,-0.08181448665357355,-0.04479695800172158,-0.16583395474476326,2.213,3.0,-0.050161497,0.168205546,0.963867065,0.275188669,0.224723669,0.788708205,0.9821266302791016,0.1619850024608878,0.07055350412299222,0.06488716460387127,2.213,4.0,0.009655323,0.233721483,0.951923864,0.652817188,-0.205924496,-0.432698741,0.9748437601606122,0.2193962253569332,0.037553026214170115,-0.011606454980156306,2.236,5.0,0.025952809,-0.111645133,0.973447901,-1.608357784,0.073751327,1.033840438,0.9392463944917805,-0.3070664670746371,0.0834861371799722,0.12867190886614832,2.236,6.0,0.077832357,-0.149542903,0.964533071,-0.090426886,-0.104259595,0.184653863,0.023464050020668613,0.09898873306090045,-0.1275154759072833,0.98660553033508,2.237,7.0,0.076207836,0.198936039,0.956900109,-0.426258974,-0.040574491,0.175641639,0.4599150702835736,-0.03270890837686848,-0.16521891082507148,-0.8718434302927484,2.237,8.0,0.001854004,0.254373228,0.947005715,5.47539934,-1.891012252,1.018448365,0.9395762804900858,0.2634255459638248,-0.06791978893677993,-0.2078227541556988
34,2.319,0.0,0.017101115,0.079608129,0.976058962,-0.025980416,0.04735986,-0.199553328,0.9978735115409115,0.04045314476729911,-0.004784752960526617,0.05088324068446259,2.319,1.0,0.109404882,-0.0854616,0.969389956,-0.234731984,0.182263069,-0.461276176,0.9662869688336175,-0.08824730552101445,-0.052531925883456745,-0.2360980806647845,2.32,2.0,0.048288972,-0.085024342,0.974082664,-0.278323284,0.123672131,-0.247779611,0.9790642541177516,-0.09038063104102141,-0.0347965285643569,-0.17903555356785278,2.32,3.0,-0.046736638,0.181679669,0.961938763,0.127917499,0.174960006,0.370753788,0.9805087784981846,0.16198646117414905,0.07253615957029802,0.08426996641192099,2.32,4.0,0.029649005,0.262295942,0.944065557,0.265985677,-0.131256884,0.202150019,0.9742236602925088,0.22434410423980916,0.02344975102003622,-0.0028446082687160323,2.296,5.0,0.002833612,-0.216351367,0.955224087,-1.210946977,0.285731687,0.1875222,0.9245335649153239,-0.3457208038166263,0.08277369227095932,0.13734383503157588,2.296,6.0,0.075858543,-0.188460463,0.959007891,-0.796883259,-0.06133418,0.531839617,0.000309304489784228,0.09247667750268006,-0.16659842473850656,0.9816786303691478,2.296,7.0,0.16201176,0.16377537,0.952608953,-0.278357046,-1.100560658,0.668877254,0.4806848860453609,-0.09324692148785255,-0.17136718174340826,-0.8549153998975093,2.296,8.0,0.038026408,0.398208618,0.894034613,0.3408848,0.691039895,1.561127319,0.9520433714300915,0.2741206527432519,-0.0593131373682066,-0.12228343465563354
35,2.347,0.0,0.01443011,0.077434871,0.976436692,-0.039894203,0.038034721,-0.282283965,0.998580582496779,0.03837047458140174,-0.0025013185702572843,0.03685471945628857,2.347,1.0,0.106186089,-0.083088885,0.969487881,-0.031777482,0.142691563,-0.317060742,0.9629571231954114,-0.08386802134974655,-0.04563110151450194,-0.2521855199187086,2.347,2.0,0.042381549,-0.095937112,0.974200121,-0.06245084,0.102655239,-0.16374897,0.9778655269677102,-0.08841496119917919,-0.027721982466575742,-0.18759876729987568,2.347,3.0,-0.064896663,0.177498289,0.960623641,-0.208307666,0.216439332,-0.424160864,0.9842618636650211,0.14186532065834775,0.08215763700935239,0.06597679296694524,2.348,4.0,0.003138281,0.243702217,0.949110837,-0.704066302,0.637513413,-0.286756117,0.9822063916874798,0.17938951861282462,0.054931968396523395,-0.008513729394542872,2.414,5.0,-0.034512634,-0.302581337,0.930818142,-1.318233981,0.333587108,0.887940782,0.9001338635012672,-0.38589683763623805,0.09769459896710266,0.1769136055064446,2.414,6.0,0.073292039,-0.271530052,0.939086635,-1.682768193,-0.103181813,0.932788446,-0.03936017918334916,0.08793491952520421,-0.25157069700030066,0.963031884536298,2.414,7.0,0.138990685,0.176818082,0.953566964,-0.281733094,0.192057831,-0.308293561,0.4681119416084034,-0.08159779780619517,-0.15059273293169775,-0.8669110901960779,2.414,8.0,0.093262199,0.41519806,0.883154988,0.393838344,0.027676607,1.994463443,0.955695905762583,0.27941923172682154,-0.08946740674105486,-0.023786798457528683
36,2.405,0.0,0.008568388,0.080004728,0.976246806,0.101554774,0.087470488,-0.251666046,0.9987475357739477,0.04357176117628987,0.0025658371254192727,0.024459719812566737,2.405,1.0,0.094665489,-0.076920098,0.972355256,0.15164116,0.291486796,-0.345849778,0.9599103465762571,-0.06876493313942197,-0.03385258116365134,-0.26962476380098943,2.405,2.0,0.035053351,-0.092599982,0.975277656,0.124719418,0.239719431,-0.578063948,0.9732206481532601,-0.07541962759115008,-0.0175073382525547,-0.21644154612613328,2.406,3.0,-0.080383408,0.152390824,0.964595534,-0.510656074,0.083560685,-0.787052155,0.9902417091953541,0.10626162597862315,0.08512450932704414,0.029726118584047268,2.406,4.0,-0.02461745,0.187342379,0.962040963,-1.203748368,0.411346969,0.554732968,0.9909425894415077,0.11262761374111309,0.06830226206515935,0.0261267305785577,2.455,5.0,-0.053073584,-0.338065058,0.918113942,-0.360483683,0.000350398,0.633096548,0.896465508397436,-0.3797287680652433,0.09705581560305584,0.2067264463367107,2.455,6.0,0.057478819,-0.415849789,0.884931714,-2.795038563,-0.299323247,1.312567698,-0.09578186892620746,0.09499952323868319,-0.3908678076656609,0.9105071559850948,2.455,7.0,0.134956082,0.165584903,0.956312447,0.048737584,0.254772818,0.777293073,0.5042060398079005,-0.06924853492722882,-0.1391399142995291,-0.8494827803318828,2.455,8.0,0.070239626,0.333250647,0.919010012,-1.911607246,1.02505531,0.431295205,0.9844745805903387,0.17195718223926304,-0.03511862563803302,0.00268510355581405
37,2.512,0.0,0.002540537,0.094577704,0.975109534,0.32071924,0.197329413,-0.095498943,0.9979267270862928,0.05978931308016437,0.012821404770818116,0.020077275411384293,2.513,1.0,0.076701177,-0.054216266,0.975488865,0.306650555,0.320753358,-0.451245252,0.9551650733929977,-0.045872089815041456,-0.023322991986322806,-0.29156726838065355,2.513,2.0,0.017656556,-0.075461966,0.977431705,0.295479181,0.302626902,-0.350658681,0.9707044423703248,-0.053896126914589296,-0.005260051135470241,-0.23409490581423434,2.513,3.0,-0.083820863,0.109276146,0.970452877,-0.675967503,-0.018288009,-0.173180621,0.9942998791005562,0.06670888457455919,0.0796737845048102,0.02386971307155755,2.513,4.0,-0.039638107,0.120607694,0.970156485,-0.767238185,0.362661031,1.075573617,0.9908736134944823,0.07240151124040674,0.07660939541659544,0.08401490215667942,2.52,5.0,-0.06252637,-0.33365975,0.919226645,0.640014838,0.100768804,-0.298644704,0.9192547786343097,-0.333233179880733,0.09355553341153078,0.18754642612602646,2.521,6.0,0.067269723,-0.613751302,0.760866692,-4.434745289,-0.970653309,0.494030747,-0.1180195027277481,0.15462623315638166,-0.5907570095507244,0.7830506245846743,2.521,7.0,0.128231022,0.125966207,0.963532729,-0.767304862,0.217245004,0.469326976,0.5235454664486344,-0.07892597371927303,-0.09397227052394054,-0.8431133065051943,2.521,8.0,0.00902582,0.255527471,0.946523241,-1.020989906,0.880767318,-0.149828662,0.9930648756525945,0.11690454483267422,0.01245133866401622,0.0006665643528385871
38,2.54,0.0,-0.008013532,0.112807166,0.973593512,0.292047228,0.201756726,-0.099962683,0.9968882599928153,0.0738463064999151,0.022783327317119007,0.015538342935417823,2.54,1.0,0.057024148,-0.033797994,0.977704425,0.308565109,0.303966171,0.55312902,0.9638364084592987,-0.025090674538997396,-0.012403061147431851,-0.2650207536281471,2.54,2.0,0.000626956,-0.052207067,0.978915742,0.43733401,0.16129513,0.237054893,0.9745046771318958,-0.027944411188299538,-0.00106284905939152,-0.22261764189586475,2.54,3.0,-0.064459978,0.067220219,0.975971492,-0.698177454,-0.414173753,1.036808168,0.9951649931130852,0.033109971041988415,0.05174685869245587,0.07663307977169373,2.54,4.0,-0.055427559,0.072097119,0.975392634,-0.88577297,0.271910282,0.982969728,0.9869980052676752,0.027344789765361865,0.08029224584477353,0.13652968661621034,2.6,5.0,-0.029814423,-0.166340133,0.965173073,4.180562487,-0.290568379,-2.660833935,0.990305636955001,-0.10055863976440547,0.0910921058041968,0.02974783427477208,2.6,6.0,-0.049457028,-0.832283517,0.514745713,-2.623967654,-0.52686296,3.894762906,-0.27440523630807556,0.08621802982364585,-0.7008706161022209,0.6527239823267806,2.6,7.0,0.097547979,0.105334377,0.969522594,-0.175743956,0.608556494,-1.056616987,0.48168524947411046,-0.04621561732399611,-0.0725240709783327,-0.8721144972325341,2.6,8.0,-0.070931705,0.110421372,0.971543521,-2.151235583,0.451940585,-3.585127838,0.9843585570471692,0.00034890798921337275,0.036677888252180636,-0.17231611051956458
39,2.644,0.0,-0.025575874,0.121301259,0.972404175,0.119029934,0.221591393,0.119592482,0.9961320211956695,0.07852809790051889,0.03256933510277903,0.022216493866488562,2.644,1.0,0.045621772,-0.008876927,0.979415057,0.658233245,0.099889233,1.392686569,0.9805116009165294,0.00918840315299328,-0.017697303580767102,-0.1954466146076018,2.645,2.0,-0.00735303,-0.018650079,0.979414165,0.73283897,0.192623073,0.814737184,0.9832065404380427,0.012184965415749252,0.0004593554357745178,-0.18208847972965223,2.645,3.0,-0.031436752,0.037859764,0.978301778,-0.550808264,-0.320939489,0.712018313,0.9931502136993042,0.007283786391074815,0.029966951536972975,0.11270129236355854,2.645,4.0,-0.010878272,0.038517608,0.979488671,-0.752098676,-1.124738008,-1.062716404,0.9963543319792997,-0.0077119473659291535,0.01119118454772822,0.08422189977866551,2.655,5.0,0.017894778,0.110526108,0.973534671,2.209025364,0.152022539,-0.54903545,0.9954488383933263,0.022902769530514195,0.09210581619712066,-0.008578572834193604,2.655,6.0,-0.017024389,-0.838242712,0.506402335,-0.860976048,-0.083411215,-0.505986428,-0.2572930546153708,0.12362453104172265,-0.7059635556225287,0.648176455530593,2.656,7.0,0.044635482,0.124653062,0.97153656,0.036800477,0.314722385,-1.003997253,0.4393232448714887,-0.02249521668918135,-0.06805827674015316,-0.8954647523542474,2.656,8.0,-0.091260394,0.018160248,0.975097301,-1.047301114,0.02776471,-0.09352339,0.9823083548851576,-0.049345458499978165,0.047550497354467536,-0.17428216159316143
40,2.68,0.0,-0.028657961,0.123873887,0.970706434,-0.068828228,0.035641364,0.369864634,0.995919038911038,0.07410289942982762,0.03124924081479211,0.04095745572062192,2.681,1.0,0.045493955,0.034809613,0.97872958,0.916587901,0.066366123,2.234643294,0.9947796918105468,0.05377120496817556,-0.030034387567333155,-0.08136312334859841,2.681,2.0,-0.008095215,0.035342438,0.977911744,0.956653683,0.21990184,0.687075019,0.9871601424088553,0.06203198428073012,0.0005194199199899772,-0.1471958435842219,2.681,3.0,-0.041157123,-0.023568394,0.97934857,-1.170830216,-0.25608679,1.047001067,0.9849383404760946,-0.049536659627355116,0.012232530663060156,0.1652057807909203,2.681,4.0,-0.016049405,-0.049710289,0.979176339,-0.962344138,-0.467906101,1.269210473,0.9875274516790467,-0.054339079843766104,-0.01305529002678035,0.14719495909961575,2.73,5.0,0.011716318,0.188025846,0.962018715,2.822242702,-1.145034707,-0.334993831,0.984897247314434,0.1668035681486588,0.026282914450542785,-0.03825167046433205,2.73,6.0,-0.005914273,-0.846168245,0.493644936,0.607778142,-0.462098864,-0.425438428,-0.26501397058678633,0.148092373407626,-0.6579364789477091,0.6891703954772093,2.73,7.0,0.026440576,0.116230159,0.971527378,-0.611638245,0.574666852,0.922183509,0.48228634271191057,-0.010977366021173137,-0.025334495707341004,-0.8755784056245686,2.73,8.0,-0.070108101,0.032251923,0.977098597,-0.054251311,0.088733486,4.129533669,0.9971957721365041,-0.033402983144029764,0.05686239511115374,0.03537655681922574
41,2.779,0.0,-0.026911377,0.12021463,0.972593039,-0.053412666,-0.017832076,0.177681858,0.9958713255266827,0.07042554182860537,0.02813196827200813,0.049891265899133105,2.78,1.0,0.044058864,0.102185764,0.973790473,1.250782816,0.284033376,2.734084624,0.991335320138981,0.11187157489910823,-0.03559610461013605,0.05892326459999922,2.78,2.0,0.000166185,0.108894879,0.973352391,1.202739114,-0.08305277,2.074724943,0.9915455570752146,0.11996141156444624,-0.025723775314733292,-0.04224873209251273,2.78,3.0,-0.036560877,-0.102681604,0.973519795,-1.253476313,-0.113580082,1.109263915,0.9695676259373692,-0.10905479260816964,0.0021679027278453705,0.21918250646692866,2.78,4.0,0.022737378,-0.113571424,0.972011082,-1.002237595,-0.697984962,1.614455301,0.9680417831848684,-0.09867710902641988,-0.046847150531969486,0.22575047873588855,2.794,5.0,-0.064224738,-0.19998531,0.984894441,18.32799158,-6.401357309,-10.46027112,0.540778495673842,0.5741833367702145,0.1229887443513824,-0.6022838891710697,2.794,6.0,-0.442809727,-1.245555659,0.099003256,4.131517491,-0.022009483,24.4974946,-0.6408971690192116,-0.5032727370474913,0.3329486812010626,-0.47446026869945623,2.795,7.0,0.118256879,0.056801901,0.968203416,2.760517441,2.292212744,3.649268968,0.6521965425675279,0.17289677053499578,-0.10791430142421389,-0.7301375761797606,2.795,8.0,-0.096038962,-0.091470651,1.048030361,-16.80168425,5.082632366,-13.47393096,0.5493656833661268,-0.5074538379778435,-0.18783329100869015,-0.6367154804542371
42,2.795,0.0,-0.024553791,0.112777089,0.972946268,-0.121904739,-0.085447855,0.14250719,0.9961238719750651,0.06341563329858958,0.021851229986820778,0.056905297493342034,2.796,1.0,0.071543026,0.153313487,0.965154687,0.963441657,-0.306722066,1.807063995,0.9752881151606226,0.15289399527868822,-0.06099991510132886,0.1473618980326708,2.796,2.0,0.025411155,0.168450256,0.965237683,1.081204814,0.01139074,1.803626829,0.983898413692698,0.16681304219701457,-0.04144084437010105,0.04898955913112757,2.796,3.0,-0.037390231,-0.158832127,0.966560565,-0.900292325,-0.352598278,1.587260469,0.9442565828930717,-0.14466996758921521,-0.012963806939570482,0.29543534969679736,2.796,4.0,0.042357543,-0.169529753,0.964414072,-0.903348419,-0.420154868,1.291222524,0.9458632103124178,-0.13758164192728126,-0.06729440956035437,0.2861564984829163,2.859,5.0,0.065824048,0.332426707,0.919184791,1.524175579,-0.505251995,0.422553437,0.5362960515366268,0.570808275501397,0.03138225144358002,-0.6209505713176184,2.859,6.0,0.09673126,-0.723052478,0.652740513,4.17294184,-0.757567474,-2.139120038,-0.5773533414368022,-0.6396564281981842,0.20305492809277648,-0.46504996416916117,2.86,7.0,-0.007396024,0.030105869,0.979188407,-1.522131443,0.556188543,-1.474998945,0.6172379504274716,0.13947636926236393,-0.015193557679520813,-0.7741658806577061,2.86,8.0,-0.063420655,-0.023783191,0.977685113,-1.229022085,-0.032264278,-0.636567481,0.5151274436465635,-0.49883681027183135,-0.15162594123171377,-0.6803051723054723
43,2.899,0.0,-0.017755794,0.104638071,0.974188691,-0.137646067,-0.130956705,0.207393737,0.9960852830305524,0.05609726398641755,0.013381836944698338,0.06699352463610263,2.899,1.0,0.099983387,0.202511828,0.953002771,0.763222797,-0.149159424,0.234156202,0.967504800625093,0.18592691950006793,-0.06220264206319351,0.1596761494180405,2.899,2.0,0.054977202,0.22970998,0.949678278,0.84699032,-0.315036689,1.83850449,0.9676635117039017,0.1993022976812227,-0.07087362763716691,0.1374148869715579,2.9,3.0,-0.025958249,-0.203559911,0.958514753,-0.712111803,-0.314166411,0.927311037,0.9246599704441862,-0.16936799220354237,-0.03063766612437064,0.33967595689060653,2.9,4.0,0.051312688,-0.222447356,0.953209936,-0.664396973,-0.3336275,0.898336552,0.9268835112124317,-0.16297987786432955,-0.08395865168947642,0.327529328244552,2.897,5.0,0.06341247,0.357886094,0.910240299,-0.376057714,0.055583282,-0.64536698,0.5491859496922962,0.5284356621937845,0.04654424708964729,-0.6457431197041477,2.897,6.0,0.158668191,-0.311651049,0.91608189,5.691840751,0.669512918,-1.519650904,-0.45662026254238464,-0.7388377133386833,0.008066702438253446,-0.49553173207773693,2.897,7.0,-0.047238231,-0.09443891,0.974168795,-1.655769893,0.378870517,-0.258422284,0.6204933073883928,0.08843745264248151,0.06845222624714473,-0.776196602142867,2.897,8.0,-0.057270325,-0.076023934,0.975219704,-0.598463291,0.175280892,-1.595861582,0.463559955359242,-0.4600628217347854,-0.1514175718094215,-0.7419751254537467
44,2.979,0.0,-0.016254161,0.093721582,0.974947213,-0.183037317,-0.130252091,0.342369302,0.9953745472201501,0.04675485033771689,0.005295144475781794,0.08375831995186755,2.979,1.0,0.117503797,0.224868398,0.946353032,0.21951973,-0.198357139,0.351207865,0.9631523707011506,0.1908481045166081,-0.07123880433498032,0.175611914664391,2.98,2.0,0.094555741,0.261959392,0.938930503,0.485343191,0.227710228,1.086432293,0.956102915538386,0.21102275987628286,-0.06397923504753902,0.19298514760448857,2.98,3.0,-0.016503896,-0.229472197,0.952931861,-0.386547457,-0.318513628,0.542632718,0.9122626119361237,-0.17687964673113643,-0.04708100190165751,0.3664340277535455,2.98,4.0,0.062275244,-0.256252954,0.943310245,-0.374574854,-0.316850508,0.505561742,0.914831890721851,-0.17218033518999373,-0.09921214635143276,0.35155866353780335,2.955,5.0,0.082671199,0.35136016,0.91095692,0.416839569,-1.316729324,-0.087806903,0.5582911031728581,0.465454552039429,-0.01830727817002112,-0.686533282273928,2.956,6.0,0.057349705,0.336079044,0.918961309,5.710100368,0.373829001,-0.80513309,-0.3006794901120688,-0.8008131191129267,-0.17609702735880362,-0.48711397992458016,2.956,7.0,-0.073715639,-0.171625208,0.961830958,-1.014745117,0.443258982,0.090482202,0.6269504545331567,0.06296209653989428,0.12383147061021049,-0.7665733290732739,2.956,8.0,-0.058159583,-0.112661175,0.971766908,-0.669721109,0.128479647,-0.334308447,0.45045658573056646,-0.4342248648315682,-0.1147374482610461,-0.7716041401525209
45,3.006,0.0,-0.008537226,0.08532198,0.975893578,-0.012324901,-0.155539166,0.415220271,0.993485088192452,0.04652488629695236,-0.0031805182236612226,0.10398412762590556,3.006,1.0,0.123761019,0.230055924,0.94463934,0.031331926,-0.125065752,-0.039104635,0.964166055405889,0.18735586893069264,-0.07368283731054757,0.17277857351575887,3.006,2.0,0.092422084,0.27544876,0.935541629,0.170615368,0.098671562,0.642401916,0.9496498903746916,0.20990251910552835,-0.05997700695544777,0.22474157786479027,3.006,3.0,-0.012876123,-0.2426435,0.949277271,-0.137263337,-0.185802819,0.513136332,0.9020288454414376,-0.17507362606931726,-0.05277517184758475,0.3910344852861267,3.006,4.0,0.073787942,-0.264545885,0.940538045,-0.001770632,-0.33952321,0.430486545,0.9064971977205896,-0.16264507883304533,-0.10959653753951298,0.37389571783514863,3.029,5.0,0.130068704,0.273825778,0.932167676,-0.103165277,0.134230775,0.473147097,0.5934146309777655,0.4330179296544148,-0.03366141649358237,-0.6776588060218594,3.03,6.0,0.026589654,0.423096772,0.883342013,-0.157901921,-0.029912301,0.09014175,-0.3359507031217123,-0.7701310430646702,-0.1712642628784506,-0.5144937840643473,3.03,7.0,-0.100687659,-0.212959237,0.951583606,-0.44010157,0.157933248,1.110022528,0.6695938665588199,0.05192741815086393,0.14224746049587125,-0.7271267132305553,3.03,8.0,-0.073206096,-0.183065763,0.958968609,-1.39108035,0.207658975,0.576539987,0.45691953841158567,-0.42929093266454893,-0.02600506497612351,-0.7786254344325857
46,3.065,0.0,0.005857222,0.082355524,0.97589562,-0.028173194,-0.220635967,0.471076708,0.9907687762257914,0.045751232305496964,-0.014877277917662413,0.12673879990096465,3.065,1.0,0.137348943,0.218096398,0.945796082,-0.269194138,-0.111359402,0.7509312,0.9604152954572842,0.16612395426961304,-0.08517522791590347,0.20676187419105857,3.065,2.0,0.10517596,0.259962323,0.938458634,-0.503160531,-0.127669527,0.534780924,0.9495988008134527,0.17908975652115294,-0.07274113560703152,0.24677460119195105,3.065,3.0,0.000584689,-0.240380335,0.950104706,0.201017562,-0.277346305,-0.07447773,0.9054812279560827,-0.15418356662234525,-0.061610065540642016,0.3905577722012907,3.065,4.0,0.086620568,-0.256860366,0.942342629,0.260823235,-0.170691189,-0.167591973,0.9118553417688509,-0.14092090807271443,-0.11185076605895601,0.36898582559171356,3.104,5.0,0.10544851,0.285666551,0.931366326,0.099564341,0.05549597,-0.093845908,0.6022185113355718,0.4072569501916004,-0.043728122140354216,-0.6852463005806615,3.104,6.0,0.023430624,0.416000128,0.88703771,0.406994716,-1.15157809,-2.230647817,-0.4163506443715598,-0.7537834398936663,-0.2457055659412792,-0.4450746471536368,3.104,7.0,-0.122565735,-0.232532031,0.943885848,-0.277576552,0.111251359,0.117076797,0.6733312640632253,0.03898609111791218,0.15476075402169306,-0.7219101069724692,3.105,8.0,-0.080657861,-0.283170974,0.934120714,-1.800984225,-0.035702604,-0.309371096,0.42030455219161783,-0.43843278037529865,0.05068559041165529,-0.7928125575594842
47,3.14,0.0,0.024629098,0.082427124,0.976677622,0.047012069,-0.280245119,0.643133634,0.9858305381348642,0.04909732608918485,-0.029194013400986506,0.15771909279842697,3.14,1.0,0.154229173,0.176675352,0.952069421,-0.642110986,-0.054952712,0.985687196,0.9550360042518534,0.12559103086439363,-0.09783266728359488,0.2501237548919538,3.14,2.0,0.122506576,0.20314762,0.95015219,-0.975658487,-0.07943853,0.438213186,0.9527653774835013,0.12558940833750276,-0.08746047655156522,0.2623282314649544,3.14,3.0,0.021651768,-0.208238665,0.956967011,0.68110707,-0.300472315,0.053997734,0.9091741694287828,-0.1114142661245346,-0.06070964319603082,0.3966150906993134,3.14,4.0,0.097032285,-0.222327769,0.950094784,0.617872027,-0.040065918,-0.375460426,0.9234901557187412,-0.10410098014825497,-0.10190516336486292,0.3548862576972068,3.209,5.0,0.100454562,0.267933471,0.937579083,-0.202537611,-0.286613239,-1.046733923,0.5821761518474337,0.36436473055481167,-0.03383926367825731,-0.7260607244449646,3.209,6.0,0.039990626,0.360782059,0.909347599,-0.989553643,-0.536810992,-1.508208106,-0.5267066007589144,-0.6893297088591732,-0.2591605631978652,-0.42454741982973165,3.209,7.0,-0.123130687,-0.242942919,0.940525158,0.282411771,-0.186336597,0.539114284,0.6933009220402191,0.03854091505283372,0.1350563192557956,-0.7068296965989395,3.209,8.0,-0.109760259,-0.450819882,0.86318487,-3.689574485,1.084105208,0.213601876,0.3640151632170173,-0.43779447702042457,0.23837481813544895,-0.7867695996398137
48,3.246,0.0,0.048708307,0.097462394,0.974006973,0.368653122,-0.256510561,0.843596565,0.9768694402033562,0.06823600427726421,-0.04042882719042592,0.1985836207975409,3.246,1.0,0.156560034,0.135757169,0.958091826,-0.807977516,0.039127693,-0.643263133,0.9678675778998165,0.08516806078828644,-0.09935512086525887,0.2147261349481132,3.246,2.0,0.119949315,0.152592402,0.960332089,-0.905530434,0.162962403,-0.666011875,0.967251117222863,0.07897551744805459,-0.08377587861717192,0.22620730765573444,3.246,3.0,0.046852647,-0.15363177,0.966866645,0.881593665,-0.46338105,0.088158839,0.9106187384050787,-0.05737982173178245,-0.06327487424877702,0.4043233354783931,3.247,4.0,0.095130066,-0.17591648,0.959911799,0.979710838,0.120491287,0.165040412,0.9258836957993606,-0.05787763293039755,-0.07595883212242253,0.36554044548023534,3.245,5.0,0.100310238,0.250552424,0.942256515,-0.155351136,-0.055040056,0.813975753,0.6249761577741904,0.3277957349877211,-0.053439831184461474,-0.7064693502061121,3.247,6.0,0.062484869,0.275617427,0.937401022,-1.538243668,0.283547547,4.028007434,-0.5112013289587809,-0.6543350064781389,-0.08771906841627751,-0.5502947079558468,3.247,7.0,-0.118139321,-0.146183916,0.961304511,2.013677313,-0.572067716,0.697453196,0.7179930941228642,0.09059613113312835,0.03621351697783198,-0.6891783796693574,3.248,8.0,-0.161043939,-0.78631073,0.562577359,-5.701976368,1.512025158,-2.206694144,0.15787274080432168,-0.4472979242369062,0.4629584926329861,-0.7487791388542284
49,3.275,0.0,0.067051762,0.107588456,0.971364908,0.153295941,-0.220894364,0.736269211,0.9680732976766394,0.0755698327889897,-0.05059801617869437,0.23358752418847475,3.275,1.0,0.149850065,0.084226933,0.964919054,-1.112435509,-0.343038998,-1.790160811,0.984890178101065,0.03973029995671669,-0.12055520468810074,0.1178103686778522,3.275,2.0,0.087227981,0.0996804,0.971269837,-0.888777105,0.523476655,-1.036888564,0.9826277558782874,0.03159975866502482,-0.06099440046292677,0.1724060084280165,3.275,3.0,0.059018886,-0.098044737,0.973428991,1.024492994,-0.100798651,-0.407675154,0.9207277028258585,-0.004425113668063853,-0.045701569921374204,0.38749488012716293,3.276,4.0,0.095994242,-0.103407615,0.970242223,1.256768391,-0.383157731,1.45149223,0.8984393482855139,0.002860658616812355,-0.06910961691907754,0.4336155150982003,3.321,5.0,0.126549173,0.225324979,0.945101561,0.38504881,0.22328916,3.481787282,0.7489322743450444,0.31160878463808195,-0.12304219193670297,-0.5717176162968467,3.321,6.0,0.143748724,0.117877106,0.962643388,-0.58885882,0.262476433,6.002384665,-0.3786229748598991,-0.6217647456786759,0.12094314159788173,-0.6748525768194166,3.321,7.0,-0.019061251,0.007814972,0.979384294,1.886465234,-1.679497197,1.589773876,0.7660704871766072,0.09958140810736628,-0.10452533715019596,-0.6263337814057195,3.322,8.0,-0.14814689,-0.939793264,0.235801017,-2.318920464,0.208856734,0.127468274,0.1270820450180162,-0.43181886639992717,0.5683524904750463,-0.6887365730276948
50,3.38,0.0,0.076816846,0.116542073,0.970150049,0.139085071,0.034022169,0.456587193,0.9622846270048255,0.07984998440329698,-0.04653632303111123,0.255864509574347,3.38,1.0,0.180266615,0.036250253,0.962259771,-0.818377848,-0.573346534,-0.759880039,0.9859072921583143,0.006219904202360052,-0.1500481850391212,0.07371340602115461,3.38,2.0,0.069265178,0.046045728,0.976235692,-0.780289381,-0.080257688,-0.359069392,0.9860173247444031,-0.005344150572035882,-0.06869314698677388,0.15173175974596464,3.38,3.0,0.071486034,-0.022861266,0.975881709,1.186401769,0.002216321,-1.037723982,0.9390173973129204,0.05441095412163446,-0.018978660540720595,0.3390067640318143,3.381,4.0,0.092439686,-0.022518681,0.975750897,1.276813546,0.311674119,-0.577193408,0.9104517718569964,0.05697238917736954,-0.023342403872452143,0.4090071517410586,3.389,5.0,0.138265809,0.224323751,0.943452924,-0.141810207,0.411376558,1.504572467,0.8043165871228561,0.2831615372162361,-0.1248555004815441,-0.5072528713766752,3.389,6.0,0.143387563,0.059395882,0.968011434,0.081683197,-0.556915596,-4.762653388,-0.5452634037072432,-0.6301710734607577,-0.03217679261132752,-0.5518486139949577,3.39,7.0,0.08424348,0.076488782,0.973636227,1.324338767,-1.039106694,2.048881613,0.8167536102722528,0.10018355574322245,-0.19375942394003443,-0.5341667163913452,3.39,8.0,-0.088050395,-0.915019822,0.338595413,-0.799644705,-0.979705712,0.404541962,0.17154753459541547,-0.43868626892144363,0.5975678968599469,-0.648874725564494
51,3.439,0.0,0.069619622,0.118025301,0.970149028,0.039624381,0.275735972,0.561781567,0.9554134314133468,0.07564480208294362,-0.03223435222419558,0.28359122964134986,3.439,1.0,0.184873261,0.010466984,0.962302613,-0.599309187,0.043603152,-1.064800163,0.9891804869444722,-0.015010535472998491,-0.14501678299145235,0.016333423521127675,3.439,2.0,0.077692987,0.01308398,0.976939409,-0.515870709,0.001973175,-1.169913712,0.9929788647730623,-0.025141874409821248,-0.07077547405120631,0.09138759509905196,3.439,3.0,0.0321695,0.06749018,0.976790765,1.287965361,0.793490779,-1.749939418,0.9603983890825155,0.10256253994777208,0.05148294281760428,0.25390030769183825,3.439,4.0,0.077573667,0.064870875,0.974717957,1.469787226,0.287744591,-1.496943802,0.9333047356064187,0.12013064242350274,0.02919452150198204,0.3371328805676179,3.45,5.0,0.121808289,0.172189224,0.957022785,-1.619312652,0.614601881,0.820409757,0.8575125876503441,0.20018105962730548,-0.06350665187181201,-0.46964519645763697,3.45,6.0,0.122124067,0.051502457,0.970936769,-0.931529868,0.434784779,-2.364695682,-0.6594923672011129,-0.5437104522800128,-0.08485519606205943,-0.51210190136945,3.451,7.0,0.131883406,0.161773594,0.957328612,1.426849821,-0.26146883,0.599625749,0.8241741083791261,0.13935870072757323,-0.23750381665886083,-0.4948819340827359,3.451,8.0,-0.114782474,-0.893476992,0.384500777,3.211289224,-2.600742626,1.376103478,0.39572928513217065,-0.40534935943817185,0.4803835128267123,-0.6695684507920852
52,3.47,0.0,0.056144111,0.120731173,0.969850928,0.086032199,0.339081147,0.664810175,0.9458054615905274,0.07297330099215704,-0.015193792295914253,0.3160634032018043,3.47,1.0,0.185157826,-0.021169714,0.962106763,-0.735234524,-0.019930958,-0.963307889,0.988010205791011,-0.04374547436514387,-0.14345150244639257,-0.03665833017535298,3.47,2.0,0.079479971,-0.01903667,0.977204963,-0.636495211,0.045872126,-1.368993303,0.9959529622500272,-0.05022285646746585,-0.0716747361492368,0.02044734387596459,3.47,3.0,-0.011690944,0.135338828,0.970560005,0.968379563,0.803478885,0.099192405,0.9512537564345448,0.13488110572560744,0.09845881257114397,0.2592860204763944,3.47,4.0,0.029034429,0.155797227,0.967552699,1.074284729,0.602337193,-1.276864089,0.9448527924034935,0.15446280395472944,0.08386529546479449,0.2763350413870203,3.51,5.0,0.124546351,0.149720692,0.967684309,-1.626675156,0.505702568,2.546587254,0.9320120898041295,0.11007342088930085,-0.018914486726755338,-0.34478913652336746,3.51,6.0,0.113393126,0.05414913,0.974779396,-0.851666283,0.897345373,0.965047501,-0.6699487511573557,-0.4590585674331701,-0.06266698398043719,-0.5800920199483015,3.512,7.0,0.117932963,0.216018591,0.949337024,1.489381754,0.389387872,-0.997749788,0.7966638430931597,0.21311463790766977,-0.2357898641463882,-0.5141128399323905,3.512,8.0,-0.162277468,-0.954705075,0.365230398,3.608680139,-2.842766463,1.716794962,0.6192402812214263,-0.34293689398302873,0.3120819066914868,-0.6336723478059367
53,3.544,0.0,0.037594365,0.127132284,0.97081669,0.104835225,0.368808992,0.70820816,0.9340062729051747,0.07094035579017073,0.0029091720012327897,0.3501303825897086,3.544,1.0,0.187714643,-0.051355429,0.960595041,-0.473243756,0.01580291,-0.389528442,0.9866321966825521,-0.06286922663647602,-0.138162771853605,-0.05929095449747741,3.544,2.0,0.081449719,-0.050727373,0.975525846,-0.51818478,-0.067559262,-0.885920732,0.994338539257261,-0.07017288866942663,-0.07563361432253136,-0.025420295592991998,3.544,3.0,-0.05101176,0.172361849,0.963913997,0.322957402,0.685826546,1.257555173,0.9287838872129482,0.14146533307145978,0.12052579664402249,0.3206580464231482,3.544,4.0,0.004359667,0.232930408,0.952498514,1.060319524,0.246628412,-1.401690551,0.952494424070946,0.19124352288885516,0.11810015847670237,0.20550581411384544,3.571,5.0,0.111665695,0.070745049,0.971417475,-1.062513441,0.325603099,2.785959911,0.9778273933744365,0.050273959447562765,0.0033461424522743333,-0.2032607219772397,3.571,6.0,0.111753271,-0.00435292,0.973873328,-0.556242121,0.190110613,0.281755497,-0.6858706499159184,-0.40085295203943044,-0.03894380976649373,-0.6061202373341951,3.572,7.0,0.121240462,0.22502405,0.945878389,0.676095058,0.27108034,0.274188119,0.8050948885612654,0.22969745374369216,-0.23392229441249118,-0.4943092759932629,3.572,8.0,-0.128290531,-0.745564709,0.622543817,3.429681453,-2.052049636,1.911757425,0.7791802157490044,-0.23749807011785537,0.15027854485594086,-0.5602581699820273
54,3.605,0.0,0.020985638,0.12474864,0.972028487,-0.069788012,0.309596138,0.663990552,0.9221839956610213,0.061624939499749634,0.014839761103619342,0.3815217247663796,3.605,1.0,0.184437176,-0.070946683,0.959930985,-0.286607189,0.050190389,0.363545031,0.9876937342170097,-0.07729162364592264,-0.1288227090531969,-0.043494849520732896,3.605,2.0,0.086126252,-0.072630393,0.972151272,-0.41482921,-0.103273886,0.13670606,0.9929690053766056,-0.08823133416417678,-0.0763815760443096,-0.019840384925488293,3.605,3.0,-0.079119568,0.18809678,0.957560805,0.088340004,0.54814792,1.602237393,0.8983288520392244,0.13990073899911598,0.13012911538434488,0.3956001392197409,3.606,4.0,-0.082467392,0.265108322,0.939706181,0.930928183,0.57636803,-2.618523377,0.9594337587362454,0.2062202491345156,0.17636027319353112,0.07653185926946723,3.616,5.0,0.078352489,-0.046901949,0.975343578,-1.325700131,0.303304057,1.473322331,0.9912658738917554,-0.020606762563393,0.02946979232745374,-0.12688128283733266,3.616,6.0,0.112245654,-0.079760147,0.970198038,-1.126955019,-0.163361264,1.305412098,-0.6772315404096314,-0.3372240104666514,0.03217702964635005,-0.6531477981301961,3.616,7.0,0.154630493,0.215466431,0.943093117,-0.430726974,-0.314989361,2.322750281,0.8681402453798547,0.15773687866640895,-0.2443474179554484,-0.40217649210127865,3.616,8.0,-0.031703466,-0.330742791,0.922062957,5.637306649,-1.697243549,2.791173137,0.9157482180892688,0.012833860096402205,-0.09041075392222653,-0.3912369980926776
55,3.709,0.0,0.00853221,0.118930342,0.97227248,-0.086894026,0.242299655,0.578162451,0.9109483293392582,0.05308080058095153,0.02310856322492047,0.40843795635246716,3.709,1.0,0.179784105,-0.090706612,0.958985394,-0.090937046,0.030815488,0.898252423,0.9892325732687987,-0.08476445221045162,-0.1193057983611098,0.00017350179022679275,3.709,2.0,0.089450224,-0.09679876,0.97123409,-0.172078437,-0.08136365,1.003521132,0.9922415040541331,-0.09680287246528796,-0.07214674932827671,0.029679084827933293,3.709,3.0,-0.076082401,0.202450887,0.955906955,-0.026834972,0.298936639,1.574681435,0.865095227991545,0.13705067401019075,0.12636636056008965,0.46568111640736115,3.709,4.0,-0.079772723,0.313208558,0.924603002,0.168565627,0.147280641,1.346743172,0.9520781655236815,0.22044961173744654,0.15710298696532451,0.14236497780157698,3.72,5.0,0.060115508,-0.138800826,0.96766185,-1.327426905,0.149322583,1.607285085,0.9940028118513942,-0.08854769907179316,0.04709483073389612,-0.04358660274394619,3.721,6.0,0.109160702,-0.142386452,0.96338416,-0.860754507,-0.096410029,1.501187138,-0.6476058600479863,-0.28005987211460587,0.09033692114414973,-0.7028601274370698,3.721,7.0,0.201875385,0.128004069,0.950790875,-1.239237907,-0.404542475,0.92318727,0.8951851220118568,0.06867688678248851,-0.22825900431617133,-0.37659648099666576,3.721,8.0,0.212654456,0.302940526,0.907377606,2.553042091,0.348034073,2.355305624,0.946329532912467,0.13870121731435686,-0.14537652752417202,-0.25315618242144783
56,3.747,0.0,0.000479033,0.116934621,0.972676753,-0.099947988,0.161552927,0.424195146,0.9021930033847602,0.045909841472799494,0.027489828655591887,0.42800044441567453,3.748,1.0,0.167258291,-0.102678095,0.959872842,0.049086919,0.104347975,0.910228538,0.989664243562188,-0.08447784603287725,-0.10682849915158511,0.044898221714759746,3.748,2.0,0.081902999,-0.102884759,0.971236133,0.101362121,0.10513457,0.786665173,0.9917411249690596,-0.09016255589254486,-0.06031623253528967,0.06842665162622416,3.748,3.0,-0.084981856,0.188818518,0.957896472,-0.432309724,0.088121973,0.124262508,0.8658729324706198,0.10988513747020764,0.11521598008808377,0.4742516202505014,3.748,4.0,-0.087040918,0.273614256,0.937111582,-1.280787238,0.245428372,1.078792329,0.9555688682560313,0.15638837117270582,0.1417853344362402,0.20573705140455195,3.779,5.0,0.029827549,-0.221880287,0.953898032,-1.103492889,0.279982147,1.032168687,0.9876525705396864,-0.14233857474412884,0.06483936156001915,0.008831038367550859,3.78,6.0,0.092540197,-0.230794277,0.948257514,-1.286247658,0.019648611,0.854127248,-0.6386484367983297,-0.2057485860215559,0.14677716495314233,-0.7268095743545887,3.78,7.0,0.260667624,0.135771347,0.935294355,-0.062382668,-0.281503771,-0.482379076,0.8851438242301987,0.060727108742287705,-0.23047744869054806,-0.39964080664521345,3.78,8.0,0.184221918,0.339261035,0.901179913,0.008155301,1.060420811,1.54936693,0.9697593439240524,0.14140599239964197,-0.10375346732294778,-0.16972441840798785
57,3.8,0.0,-0.006175658,0.112285998,0.973001396,-0.040952596,0.131251745,0.37223388,0.8940071580082125,0.042234024003392774,0.03169069537871731,0.4449305434255699,3.8,1.0,0.154563481,-0.103120192,0.961782385,0.222079063,0.144966313,0.985416941,0.9883762379905805,-0.07547212302871827,-0.09277964768088173,0.09385258545898736,3.8,2.0,0.070928002,-0.096010968,0.972752853,0.15473272,0.013418331,1.018214296,0.9881661704144543,-0.08117121429677952,-0.052843972820278313,0.11893850576910533,3.8,3.0,-0.081795622,0.150659313,0.964508812,-0.606973135,-0.256618398,-0.535087719,0.884074371992308,0.0797011157113756,0.08742799041692847,0.45212452204279446,3.8,4.0,-0.075658754,0.172223367,0.961592879,-1.987830542,0.168944603,1.86825774,0.9433957939026824,0.06485690151143296,0.11380509011567967,0.30470700654370547,3.856,5.0,-0.00119534,-0.284852398,0.937863894,-0.586927676,-0.051048053,1.049077901,0.9817444108205435,-0.16795531359136753,0.06437036783539284,0.06184965807331032,3.857,6.0,0.086417121,-0.3369629,0.916386973,-1.90696361,-0.162776894,1.31115834,-0.6103649101097564,-0.1185459673135306,0.2311916100243913,-0.748299385002245,3.857,7.0,0.227825957,0.154708224,0.940473125,0.212081612,0.574912074,0.942803615,0.9111633918787824,0.06720754839030445,-0.20233535620053697,-0.35259725235815337,3.857,8.0,0.194178128,0.339474126,0.898381974,-1.774947475,0.032511482,-0.34626538,0.9754363206051885,0.057968512163626564,-0.08836400258116969,-0.19327555222940757
58,3.874,0.0,-0.012933494,0.115900961,0.972487888,0.108459765,0.173698439,0.611167256,0.8796089149694809,0.044873905039181906,0.04043079525950797,0.47184726357946655,3.874,1.0,0.135170138,-0.089162959,0.966482799,0.294932901,0.157087596,0.320277624,0.988842388403233,-0.059450733361882765,-0.08068345464489722,0.11021125780195488,3.874,2.0,0.053794602,-0.083964647,0.974834385,0.275449005,0.302860286,0.417021515,0.9875493031184914,-0.0662614163530901,-0.03280588052905959,0.1388509013862628,3.874,3.0,-0.074472124,0.10853051,0.971475183,-0.832575568,-0.076876376,-0.023402835,0.8883298008339925,0.03954746169919057,0.06236307626969112,0.45322953339513433,3.874,4.0,-0.051505878,0.075310976,0.97593258,-1.01445883,-0.117792859,3.062875431,0.8925526022382028,0.03462870370399576,0.07950329657413346,0.4425267573282305,3.917,5.0,-0.014669902,-0.306083619,0.9308161,-0.09761915,-0.144432061,0.845675408,0.9785404895368973,-0.1684960594140008,0.05760985306087933,0.10367590428420169,3.917,6.0,0.058841679,-0.48535389,0.849501182,-2.364577574,-0.450615488,1.861647465,-0.5493581509982519,-0.026939798470520724,0.3362610944713743,-0.7644660525720308,3.918,7.0,0.220485962,0.137553185,0.945456007,-0.338809458,0.290635657,1.45613048,0.940807228005771,0.03722857179477211,-0.17782734701703226,-0.2861349818304338,3.918,8.0,0.144060179,0.256370609,0.934946937,-1.334872817,1.529389395,2.071523107,0.9960314375489726,0.002325030673325698,4.442864612768043e-05,-0.08897172400594738
59,3.935,0.0,-0.020610267,0.119776508,0.972270438,0.108438592,0.288922959,0.454268372,0.8678788225084031,0.044080990023327216,0.05430344738021759,0.4918275626300492,3.935,1.0,0.119957034,-0.066121778,0.970179478,0.569959703,0.182011349,1.22801619,0.9824402813195368,-0.03402594735853099,-0.06473089371705389,0.17164859435991725,3.935,2.0,0.034105232,-0.055767634,0.978189554,0.532652302,0.214896684,0.740356525,0.9836727225186637,-0.038664749519883766,-0.015914272374508518,0.17504213221985893,3.936,3.0,-0.043361471,0.058052708,0.976871366,-0.826147565,-0.547634329,1.820684981,0.8481405598924181,0.020248651245961456,0.01560053278415056,0.5291542366502848,3.936,4.0,-0.029395251,0.043175517,0.978836449,-0.748173944,-0.988633373,3.108577118,0.8235719992864643,0.03571074977201961,0.010933925575889479,0.5659808774274243,3.945,5.0,-0.003456572,-0.254838957,0.945419038,1.853336704,-0.263352849,-0.313276397,0.9929343013959131,-0.07148007240273153,0.04598129776523766,0.08281179032320705,3.946,6.0,-0.010673969,-0.63744105,0.743997294,-2.853066887,-0.391204796,2.671198644,-0.44477889934849313,0.0865121096492608,0.4445353231562222,-0.7727067568261394,3.946,7.0,0.187991233,0.126768992,0.953380259,-0.076370126,0.739728075,-0.066972076,0.9469466327157647,0.044424072696457234,-0.1348008549998967,-0.2883527458593573,3.946,8.0,0.043539064,0.13243899,0.970252165,-1.753143113,1.48256708,-0.678107776,0.9871915786424345,-0.07142502624030414,0.07576001091105708,-0.12087875508453322
60,4.016,0.0,-0.033207003,0.126745851,0.970947364,0.123838319,0.196212788,0.981596718,0.8424470691660441,0.047506322266955864,0.06251701330859138,0.5330269299436793,4.016,1.0,0.106912863,-0.045101531,0.971593275,0.58016963,0.123228893,2.053976631,0.9611881006381628,-0.011609430789939285,-0.05163871400439317,0.27076945825610954,4.016,2.0,0.031618461,-0.032144556,0.97906486,0.439601957,-0.102673175,1.556560085,0.967937299567354,-0.015117255223861426,-0.016094040394958466,0.2502195727046962,4.016,3.0,-0.030909817,0.013189466,0.977987536,-0.874627105,0.760381208,2.069576822,0.7916313444083759,-0.035058607792613786,0.0262655720285844,0.609426638977853,4.016,4.0,-0.007180715,-0.034667294,0.978942601,-1.745551597,0.707424629,-1.534666226,0.8669435097165924,-0.06631455076456419,-0.014469859221265103,0.49376305500846,4.019,5.0,0.049127192,-0.006333296,0.978958328,4.537875878,-1.322328165,-0.26354792,0.9845491179513475,0.1656069388309521,-0.006958584747884538,0.05647082654407826,4.019,6.0,-0.096101702,-0.73916236,0.635831321,-1.570883225,-2.090408664,2.282220277,-0.30180447431835417,0.09515154647041403,0.5254670278661657,-0.7897750598184325,4.019,7.0,0.145838066,0.113695795,0.962877731,-0.015140238,0.639802837,0.050831233,0.9521458741690713,0.051497244263546876,-0.09954668297492804,-0.2843531713288335,4.019,8.0,-0.004806016,0.111927627,0.973574398,-0.209826541,0.246825554,-1.515262176,0.9752738088888049,-0.07323840932618036,0.07556431058407422,-0.19433776797330826
61,4.106,0.0,-0.033229825,0.125961329,0.971567045,-0.096663939,0.151057513,1.17345503,0.8104319702171113,0.04300911900584247,0.062161344973396704,0.5809356285540171,4.106,1.0,0.108755174,-0.022467261,0.973894519,0.688783321,-0.247265108,2.702429609,0.9171340676801771,0.017961058329516607,-0.056202660396204945,0.3941874722114908,4.107,2.0,0.040325715,-0.005972141,0.979498938,0.492709556,-0.250749696,2.670963493,0.9276347891364715,0.010496188224180752,-0.023311114027980365,0.3726125601469592,4.107,3.0,-0.053813897,-0.061004751,0.975837837,-1.343502935,0.16542619,1.303408881,0.7488648281770093,-0.08922436141204743,-0.004943519059814404,0.6566704227154869,4.107,4.0,0.001629449,-0.112668712,0.973636023,-1.076524325,-0.54129485,2.048533948,0.8104736798563609,-0.09629826619721837,-0.054373118596984585,0.5752413599190666,4.096,5.0,0.037760883,0.126573677,0.970924415,1.087643681,0.058599042,0.927362239,0.9726383235581496,0.20795433655083065,-0.011533211883792258,0.10294013055820098,4.096,6.0,-0.120413233,-0.770276603,0.592914503,-1.042656483,-1.102674901,1.038707027,-0.2231723706390867,0.10103403720088555,0.5649494842332073,-0.7879202349063344,4.096,7.0,0.114292894,0.11546904,0.965663003,-0.114183781,0.342794653,-0.353569118,0.94912596441738,0.05154389664116813,-0.07807614829815619,-0.30067797633805415,4.097,8.0,-0.027418209,-0.00167855,0.979171295,-2.085939716,-0.004607474,-1.075404687,0.9535674553212456,-0.16916433349999652,0.08007992552466113,-0.23596555246821738
62,4.145,0.0,-0.035837846,0.120048539,0.972054009,-0.152580096,0.239786715,1.149944135,0.776281479485229,0.03332816521778198,0.06396627707037623,0.6262464478216194,4.145,1.0,0.116266307,0.014785866,0.971706501,1.102958557,-0.04264758,3.601874143,0.8365248262346243,0.05586312885693061,-0.045503662426485354,0.5431711909087428,4.145,2.0,0.055994958,0.034733895,0.977629849,0.888627647,-0.141732593,2.577368079,0.8737305891936491,0.05046333417720283,-0.019056101660635056,0.48340994445763935,4.145,3.0,-0.070391038,-0.128554115,0.968607217,-1.230331503,0.072692987,2.257909765,0.6696350697150232,-0.1318315142690645,-0.029022238635426294,0.7303198168733133,4.145,4.0,0.019114449,-0.164714938,0.965669523,-0.813290555,-0.620054449,2.805413728,0.7233909895089042,-0.11229758601785401,-0.08437807560618404,0.6759993112636198,4.174,5.0,0.131445337,0.316753693,0.917700507,1.907756115,-0.147314163,0.837961267,0.9447927063307663,0.29386646300246066,-0.024778911660918623,0.14281193760855657,4.175,6.0,-0.070661888,-0.756970253,0.617157949,1.137335744,-1.791671746,-0.284682132,-0.18876095191230946,0.015928924149818263,0.5255260892767423,-0.829420220333506,4.177,7.0,0.089697009,0.08703054,0.971603896,-0.465009727,0.765287406,0.443503765,0.9592128344402275,0.036630509236558216,-0.0330139260722938,-0.2783505428834446,4.177,8.0,-0.061085938,-0.121055776,0.970364368,-0.693247129,-0.22803631,1.359576731,0.9643921723592133,-0.18784602555494698,0.08639498425921381,-0.16491669190939404
63,4.205,0.0,-0.040260919,0.115441438,0.97251341,-0.049810299,0.133184168,1.002715025,0.744414780345484,0.03049239621429568,0.06475946102462048,0.6638697619142595,4.205,1.0,0.119123491,0.057454723,0.971253596,1.080715312,0.073971576,2.497530849,0.7638767050973978,0.08946130603187487,-0.023470664343349306,0.6387003851947298,4.205,2.0,0.066262369,0.085588814,0.974411542,1.096138362,0.106359363,1.490723298,0.8334747220476766,0.09244664152512994,0.005998081161166363,0.5447362014779782,4.205,3.0,-0.088705106,-0.181271252,0.95873309,-0.908642163,-0.328396792,2.650815447,0.568346460410681,-0.14649084070420398,-0.052825046525090825,0.8079184667947922,4.205,4.0,0.019416397,-0.212429596,0.956712951,-0.582095135,-0.639915822,3.072044165,0.6150607202753565,-0.11811004071541605,-0.10520522562176637,0.772452062692848,4.23,5.0,0.137344904,0.409019767,0.879331682,1.037987718,0.394661143,0.326013985,0.9287214351871231,0.33166184462193854,-0.0057754593796211775,0.16566098126866635,4.23,6.0,0.042033636,-0.629555773,0.74980511,4.250084424,-1.57500976,-1.176303219,-0.20383566805818049,-0.122451011528674,0.348244028511008,-0.9067429993164017,4.23,7.0,0.00954627,-0.022402373,0.980106628,-2.349625719,1.020327936,-0.023940157,0.9578707405820488,-0.06692266489489321,0.05161276500136345,-0.2744833760887485,4.23,8.0,-0.013023364,-0.117987702,0.97292872,0.25329212,-0.639263117,-0.717888258,0.9650302009399393,-0.17106729221233927,0.04040906931665235,-0.19447313420089804
64,4.285,0.0,-0.03752693,0.113875164,0.972244916,-0.143992515,0.017727927,0.937572434,0.7134180903203845,0.02784176363640931,0.05816246247009016,0.6977654280348412,4.285,1.0,0.122522716,0.109482187,0.966097218,0.874056934,0.026128714,1.234133766,0.7205714007440412,0.11802212864150129,-0.0008267697193281583,0.6832619922346994,4.286,2.0,0.080909303,0.139883848,0.966194698,0.792676623,-0.244786719,1.921808004,0.7764148346945494,0.12938082644988466,0.005438676404006401,0.6167746971239603,4.286,3.0,-0.090822796,-0.218428688,0.950997438,-0.721170876,-0.552377503,1.944755886,0.48510491058380867,-0.1429791369713978,-0.08251253526065563,0.8587327137376614,4.286,4.0,0.014340385,-0.248267557,0.947609399,-0.475225357,-0.51601183,2.408787615,0.5187213464969629,-0.11940450946184698,-0.12251755669191709,0.8376515839600593,4.291,5.0,0.107802924,0.411817984,0.882404373,-0.401294326,0.566135848,0.105426651,0.9375138909902051,0.297113719428922,0.014833905517350148,0.18047464413213238,4.291,6.0,0.159351308,-0.229404509,0.939577422,5.634145579,-0.680141427,-1.466581468,-0.2347076107635979,-0.24563944878641264,0.06527760407124547,-0.9382496645649646,4.291,7.0,-0.014329995,-0.145218701,0.968833928,-1.427797795,0.357743846,0.40062997,0.9553150091135089,-0.1292718952425082,0.08829634691703485,-0.2507304640125995,4.291,8.0,-0.009067325,-0.121254014,0.972103517,-0.310330296,0.087695994,0.201504123,0.9660587558351372,-0.1738392769273186,0.047089006838164374,-0.18518372365477767
65,4.384,0.0,-0.047748741,0.108098389,0.972623666,-0.223969333,-0.088044365,0.959286928,0.6805579232068333,0.025560920739516522,0.045912020424402976,0.7308075251883354,4.385,1.0,0.140717352,0.136072528,0.960720508,0.31330504,-0.21313124,0.669293544,0.6959828594624644,0.13444188967033438,-0.0024123514684449266,0.7053562349598349,4.385,2.0,0.116084472,0.170693568,0.957800136,0.524123714,-0.177028681,1.738871553,0.7193754728941916,0.1518316403166,0.002166750130385696,0.6778210583855456,4.385,3.0,-0.07401906,-0.245727534,0.945667572,-0.547981806,-0.545079116,1.152323884,0.4308973670725599,-0.13173008272667572,-0.11095861073748621,0.8858119614556839,4.385,4.0,0.014626129,-0.271202532,0.941292337,-0.256847679,-0.612711384,1.769666776,0.4412597604257524,-0.10559241029268014,-0.13742966015690947,0.8804846138500925,4.35,5.0,0.080293743,0.46925829,0.867952517,-1.244809677,-1.01043871,1.544010315,0.9389493363916976,0.2423449073424487,-0.06345126489055272,0.23583262403356992,4.35,6.0,0.195667197,-0.026860412,1.013746451,15.01228563,-1.299237663,1.132952014,0.007744738034480165,-0.34424231590240645,-0.7565616886026542,-0.5559241479856991,4.35,7.0,-0.027547567,-0.126769507,0.979365929,-1.740823642,0.920671372,-0.873477856,0.9272926016812095,-0.19514149514270898,0.13823778454411464,-0.2879905253043868,4.35,8.0,-0.005524499,-0.089548547,0.961749207,0.29640133,-0.170073879,-0.260524331,0.9685033064782383,-0.14894802468039092,0.030666868899266186,-0.19716839106825598
66,4.401,0.0,-0.048604694,0.104619441,0.97302896,-0.183191287,-0.207792547,0.921846179,0.6476838763536608,0.02860704560380872,0.032150143329611636,0.7606928430958207,4.401,1.0,0.151427129,0.142286533,0.957947998,0.121293278,-0.064112032,0.421536496,0.6805595926531619,0.13803044440774462,-0.003274318957240441,0.7195661999425271,4.401,2.0,0.121485625,0.17927533,0.95403438,0.149863052,0.186751611,0.385112614,0.7057930320352179,0.14669573891187598,0.012485560942508958,0.6929506958533078,4.402,3.0,-0.0620034,-0.265111082,0.940987616,-0.296455145,-0.441443524,0.837659973,0.39040431208461607,-0.1185461692947179,-0.1274565917674042,0.9040387691168577,4.402,4.0,0.023817417,-0.281405951,0.937119748,-0.129552544,-0.500852435,1.037510938,0.3927600498932546,-0.08840133661227914,-0.14809195668270547,0.9033235960932818,4.41,5.0,0.134156415,0.372956804,0.896163087,-0.413977784,-0.623666529,1.24252009,0.9267862231478332,0.2224724234732094,-0.10688762709440817,0.2831048437442536,4.41,6.0,0.134563826,0.283103229,0.928424008,5.737857446,0.080461244,0.123086073,0.11277884910225702,-0.30520319284426073,-0.8799038518218165,-0.3462674599525198,4.41,7.0,-0.048930307,-0.230496286,0.950790875,-1.380887338,0.353077063,0.492683787,0.9194362098995394,-0.24112714412760555,0.17230800297612087,-0.25846606818074996,4.41,8.0,-0.013095814,-0.154971368,0.966280174,-0.568780246,-0.067703157,0.356767107,0.9686299230865784,-0.16937420394700495,0.03518577789881943,-0.178410796120253
67,4.475,0.0,-0.021636333,0.093899119,0.974973756,-0.153927299,-0.385660687,0.694079458,0.6222405299224768,0.03900637933196978,0.014071576740663063,0.7817270725907075,4.475,1.0,0.163926669,0.137381225,0.956644368,-0.119289817,-0.215832526,0.823758349,0.6519677271622901,0.13900106095986442,-0.020705924149658456,0.7451094231694956,4.475,2.0,0.134032889,0.165359369,0.956250733,-0.342069395,-0.349333566,1.431972922,0.6592882482023233,0.1447677699512939,-0.021575890985618216,0.7375064606454765,4.475,3.0,-0.048777748,-0.274656558,0.939265408,-0.069083186,-0.368562548,0.373175005,0.37147847869579714,-0.10175107611567945,-0.1347256452417688,0.9129619153553703,4.476,4.0,0.029728065,-0.290023227,0.936221539,-0.023251158,-0.25197298,0.28745373,0.37857994198566214,-0.07544637157658604,-0.15229160948445497,0.9098309393632944,4.446,5.0,0.155864557,0.309200243,0.916896095,0.050002479,0.069546885,0.362140046,0.9234407543322848,0.21735355369031523,-0.09957153774254861,0.3001668116364573,4.446,6.0,0.085805146,0.433374199,0.875224132,-0.534680249,0.393246282,-1.298949068,0.10375576471984163,-0.2349525569460835,-0.8695299528237024,-0.42184084488620593,4.446,7.0,-0.058018629,-0.300478356,0.930470632,-0.882247086,-0.125144337,0.910845121,0.9240069286311249,-0.2655549694077883,0.17991888749525564,-0.208136849180949,4.447,8.0,-0.015787147,-0.220395884,0.954222417,-1.268299456,-0.013176126,0.492540236,0.9615802607297825,-0.22343421092734117,0.050620445537795586,-0.15125516869077632
68,4.549,0.0,0.011969379,0.093135999,0.975245313,0.034757139,-0.549784222,0.598865067,0.5993286019252332,0.06148695177115879,-0.0009826792909414404,0.7981375921591763,4.549,1.0,0.190955428,0.103306648,0.955105105,-0.368190971,-0.279185717,1.477771304,0.5996293344081371,0.13400324308750108,-0.05319981664338664,0.7871833151613394,4.549,2.0,0.169435562,0.120635291,0.956889083,-0.599621574,-0.42646598,1.534313287,0.6072741474576816,0.13694742516559352,-0.06637754854545473,0.7797804393668489,4.55,3.0,-0.028120086,-0.261091328,0.943169963,0.352116461,-0.502242552,0.657195938,0.34067357776203083,-0.07369373315333749,-0.12320028948663726,0.9291568413239775,4.55,4.0,0.047816298,-0.279450193,0.938228219,0.298934869,-0.37905071,0.232706585,0.3670522398536269,-0.05034327639382539,-0.14405549047999344,0.9175980729071629,4.514,5.0,0.132431286,0.311202698,0.920193368,-0.101342112,0.035593762,-0.844529966,0.9386578924483813,0.21184968817433028,-0.08217601259988919,0.259399640550994,4.515,6.0,0.050040212,0.442202051,0.873239557,0.360864559,-1.051223703,-1.615315222,0.031070717449495525,-0.17477399989481304,-0.8784139861229461,-0.44370883297669256,4.515,7.0,-0.062270968,-0.328206333,0.921863835,-0.154466013,-0.060104833,-0.04584448,0.9265104792997431,-0.2634010519639226,0.16752249911824577,-0.21008195986623102,4.515,8.0,-0.023197183,-0.324654814,0.924202977,-2.238004568,0.203130977,0.409661886,0.9358671584380677,-0.318768330620611,0.08200517781434197,-0.12575596988629792
69,4.639,0.0,0.048188596,0.104378767,0.973061628,0.249799087,-0.46006359,0.731074937,0.5697238927930612,0.08593414790538348,-0.004447256436045143,0.8173189280291312,4.64,1.0,0.210046648,0.066846161,0.954707283,-0.484275365,-0.064456961,-0.012291234,0.6035548387699666,0.11923547458964724,-0.07262333132273374,0.7850033821228605,4.64,2.0,0.192841609,0.077643357,0.957811371,-0.467971621,0.007446543,0.550011011,0.5897980011918742,0.11760919569979793,-0.08408739527113507,0.7945034328644733,4.64,3.0,-0.004253077,-0.237047102,0.950801547,0.523885002,-0.563502393,-0.262733925,0.3519920406268144,-0.03375588005253334,-0.10833777946301794,0.9290990633071764,4.64,4.0,0.060025334,-0.254311426,0.944391157,0.629193506,0.06487722,-0.516334309,0.3935416475534177,-0.034211724219616775,-0.11382578080321358,0.9115910383452664,4.588,5.0,0.132779885,0.304040398,0.920954906,-0.332916283,-0.467868465,-0.759279596,0.9507053360540763,0.20084565608334481,-0.09536935380012747,0.21615983157493188,4.588,6.0,0.080415291,0.338835822,0.91664206,-1.450686688,-0.344864182,0.091866673,0.0077343095341961664,-0.18097109051587232,-0.8224496104524146,-0.5392274873559368,4.588,7.0,-0.058394803,-0.29029051,0.934085364,1.462604845,-0.176763901,1.14584382,0.9605512580141173,-0.17207237524824662,0.14283203913549183,-0.16532207051788406,4.588,8.0,-0.109991581,-0.558033546,0.798083588,-5.442322877,1.492466714,1.613778911,0.8277480891766126,-0.5160390008856977,0.21757835402010778,-0.034590609871152596
70,4.684,0.0,0.080469772,0.114715215,0.969585497,0.139560334,-0.358471874,0.778177441,0.5377258696162036,0.10230888912696205,-0.009567698273725705,0.8368346548159006,4.684,1.0,0.194689046,0.054258272,0.959144523,-0.626514684,0.258056999,-2.300222177,0.6997591577472718,0.09346652893769228,-0.07382351954194717,0.7043800231974272,4.685,2.0,0.152081844,0.056552573,0.966801386,-0.530063631,0.917654941,-1.915655325,0.6746261556412105,0.06789521382818903,-0.06126846704479793,0.7324725011971209,4.685,3.0,0.03995809,-0.18241513,0.961969371,1.163313279,-0.243831289,-1.235327778,0.4114423156272428,0.010231320983087272,-0.05753315026230605,0.9095605958940439,4.685,4.0,0.057419429,-0.186254008,0.960120021,1.35357893,0.096311366,-0.631235102,0.4263450761575703,-0.003834596933126794,-0.048895919095188124,0.9032299601975085,4.651,5.0,0.139483758,0.275203221,0.930307728,-0.26293244,0.019055507,0.915168063,0.9442454771274124,0.17911962709648682,-0.09997095484007523,0.2575314472090828,4.652,6.0,0.100551494,0.247735059,0.942645605,-1.829581187,0.196582795,3.133488918,0.08676233237177934,-0.31389717666322464,-0.7012976724718217,-0.6341312441047757,4.652,7.0,-0.042019302,-0.12506074,0.970554063,2.801776431,-1.055588147,0.942526366,0.9904235186153324,-0.021747882046658236,0.05598694377776635,-0.12431309475085162,4.652,8.0,-0.240741448,-0.877219348,0.364625521,-5.999159757,0.775118815,-0.890338654,0.6588177380514604,-0.7199837461989282,0.2163173363646461,-0.028096320510331157
71,4.774,0.0,0.09758087,0.115491062,0.967970448,0.131512635,0.014008833,0.83035074,0.502950714120609,0.10182003204366691,-0.004880117053830829,0.8582828465591847,4.774,1.0,0.195920151,0.018797875,0.960166618,-0.504357189,-0.124245985,0.377063626,0.6885229273616692,0.0775553999797247,-0.09636005833242343,0.7145880474717407,4.774,2.0,0.082556597,0.026112517,0.976163175,-0.495325039,0.5583357,-0.322494153,0.6902675617704045,0.028587016952406837,-0.05538229429046097,0.7208649506727515,4.774,3.0,0.03210501,-0.075677466,0.976645887,1.531722744,0.46745079,-1.449566684,0.4795759841800051,0.028788192158787335,0.02713384151822249,0.8766081621993217,4.775,4.0,0.053453581,-0.067880884,0.975155834,1.839690623,0.209054015,-0.825752882,0.46601028656129256,0.03299122165343145,0.04107849875637527,0.8832092328847104,4.755,5.0,0.167721164,0.264156102,0.929038839,0.853121219,0.082259313,2.743736406,0.8955305975520704,0.19883447122702233,-0.10700705433340896,0.38345702786986285,4.755,6.0,0.14846062,0.112900364,0.960902676,-0.616202876,0.072895227,6.069424625,0.2866608963512996,-0.5429574079798941,-0.4956866180441286,-0.6142618011196841,4.755,7.0,0.070267962,0.057761156,0.976274583,1.640773725,-1.665977922,3.237569313,0.9955212772716596,0.06380238877448657,-0.05793768110884838,0.03885700443680485,4.755,8.0,-0.198192596,-0.955777017,0.085807861,1.121668114,-1.601283897,-0.643478905,0.721713541241432,-0.6796627904441769,0.13098672760070684,-0.005525655331708289
72,4.853,0.0,0.096598949,0.119491178,0.968157271,0.147995172,0.169439324,0.693416098,0.47308737173776383,0.09506917059771076,0.005295666277812949,0.8758550949916272,4.853,1.0,0.185385494,-0.010735132,0.961846649,-0.468336699,0.260734628,0.032406492,0.6907547571834916,0.05061732341075576,-0.10153659863044182,0.7141330906334387,4.853,2.0,0.077049982,0.001065189,0.977307099,-0.538378312,-0.009399492,0.637137333,0.6682698938265689,0.009147417604208372,-0.07259339974127617,0.7403120099459443,4.853,3.0,0.011674194,0.012513326,0.978368095,1.543221452,0.115897895,-0.226634173,0.4878715335857676,0.05900607417583726,0.09596899981882992,0.8656151575618348,4.854,4.0,0.058730862,0.030362483,0.978052558,1.637061425,-0.505548927,0.336856544,0.45038075673088807,0.0931301921946454,0.09654250747192698,0.8827023765229898,4.786,5.0,0.151495747,0.24246355,0.937295293,-0.200782955,0.701599319,1.63925217,0.8697834234968279,0.16226560491688544,-0.08549046815266263,0.4580808329608801,4.786,6.0,0.140224737,0.009222077,0.969619501,-1.023734189,0.383090023,1.907185365,0.34312131676079166,-0.5719319394227763,-0.37615161592548674,-0.6431730564079059,4.786,7.0,0.142939913,0.096565752,0.96465602,1.277178918,-0.227524912,1.624885216,0.9820958732071862,0.12079537468033302,-0.0774547879634064,0.12205297664045717,4.786,8.0,-0.079313198,-0.92477963,0.312472482,-1.670343238,-0.553500583,-0.05185705,0.6776544225066703,-0.7275324506891299,0.10543548791135449,0.019088602366712205
73,4.889,0.0,0.086188187,0.124932999,0.968208315,0.158802188,0.30137541,0.621444263,0.44559226688732456,0.08300083999248739,0.01926008076010108,0.8911719483578189,4.889,1.0,0.181178981,-0.036695872,0.9624342,-0.556536243,0.04735503,-0.819149604,0.7218726419974575,0.03334706075874615,-0.11595227327804648,0.681427129336671,4.889,2.0,0.073090124,-0.034280873,0.976319443,-0.50480924,0.079031285,-0.626803542,0.6922249841948657,-0.008222211991338527,-0.08531249554755858,0.716574311980157,4.89,3.0,0.0078078,0.106570321,0.973749354,1.176635819,0.260813041,-0.330261231,0.49809014789586314,0.07254495272395485,0.14966449583790228,0.8510252482088547,4.89,4.0,0.07709065,0.124357725,0.968628509,1.172147609,-0.066483707,-1.261103124,0.5016596390533793,0.1162665858329294,0.14837345750438524,0.8442778006508176,4.875,5.0,0.12751175,0.200224133,0.950202636,-0.965861511,0.576670488,1.19037316,0.8528435941774152,0.09854414591632361,-0.08156524376684976,0.5062548431229323,4.875,6.0,0.132129907,0.005799449,0.971280626,-1.598410437,0.315681802,-2.19842705,0.2496998320606474,-0.5123233319639394,-0.36324010601458545,-0.7370423480213091,4.875,7.0,0.147770409,0.200480528,0.947821958,1.6017779,0.159888514,0.45378604,0.9673515095339058,0.19425206595656722,-0.062680575527482,0.1502276183849783,4.875,8.0,-0.13186031,-0.874320377,0.423119058,4.540276844,-2.491887316,1.941498521,0.8586178733882389,-0.4872726660152981,0.044677974373087875,0.15278931591744163
74,4.941,0.0,0.073482823,0.13407283,0.968015367,0.120011231,0.206122669,0.474639396,0.4241185143408478,0.07495425418705268,0.02965601950956048,0.9020121208051605,4.941,1.0,0.176961097,-0.064253042,0.960481815,-0.46413848,0.161692318,-0.281509471,0.733460967681172,0.012962595908445172,-0.12291885772499699,0.6683995320248924,4.942,2.0,0.069164865,-0.065890741,0.975132623,-0.494048222,0.067744921,-0.73149927,0.7187400093895917,-0.024174033371752696,-0.09776497030948622,0.6879465281499545,4.942,3.0,-0.022876682,0.160291426,0.965843319,0.575708222,0.340956898,0.907949499,0.4559884268913215,0.07429565181067439,0.17150266471474795,0.870138808845431,4.942,4.0,0.024640532,0.195550431,0.959163632,0.81496606,0.866888903,-2.717449431,0.6078301802713524,0.07818098544734228,0.21360978259000155,0.7607897648152412,4.949,5.0,0.104760952,0.07788106,0.970783541,-0.983138055,0.360522177,2.915778121,0.7829519551553553,0.03509355214210767,-0.09197725506533448,0.614243325618685,4.949,6.0,0.109054832,-0.104650231,0.968380799,-2.282275084,0.164886711,-0.695806512,0.1831688051100659,-0.4889860642752298,-0.2736611716627516,-0.8077446260442352,4.949,7.0,0.160568149,0.234344522,0.938364276,0.174633005,-0.503351731,1.411434529,0.952116942990829,0.19536901823950636,-0.09899024358053453,0.21331949104054296,4.949,8.0,-0.15878369,-0.671131069,0.6955493,5.417852254,-2.120445282,2.31313404,0.9445539207256914,-0.1803085219571241,0.001265754175846175,0.27441779391600635
75,5.015,0.0,0.065932017,0.130469312,0.968016388,-0.083503198,0.15129768,0.204241573,0.415205406314233,0.06511100983256109,0.029980401186723165,0.906899224010419,5.015,1.0,0.167192615,-0.087676791,0.961861949,-0.334283658,0.076656595,0.03013924,0.7335110663176234,-0.0009072402139449783,-0.12836133033408254,0.6674459239366451,5.015,2.0,0.069529411,-0.08901848,0.973138927,-0.38222212,-0.054624171,0.25930276,0.7094545653364868,-0.03557759293753422,-0.10835939970027322,0.695461497928235,5.015,3.0,-0.043036756,0.174007989,0.962614179,0.114996514,0.41988565,0.985955505,0.4105060856165176,0.06218431724774282,0.1740564614254135,0.892929007590357,5.015,4.0,-0.003913656,0.258898422,0.945067876,1.235634163,-0.274484529,-1.432543906,0.6609452326725692,0.11397750149076248,0.24865954541642482,0.6988053799410987,5.012,5.0,0.070072267,-0.027002358,0.977199442,-2.628553224,1.055384338,0.901575981,0.7635782227822084,-0.10421459937784551,-0.12195538273952192,0.6254714218812367,5.012,6.0,0.093778876,-0.111246803,0.969444001,0.048804494,0.116923802,0.248010508,0.20533848718686923,-0.4580805054455301,-0.24510315605834782,-0.8294111158531773,5.012,7.0,0.210381121,0.218402063,0.931768385,-0.429666795,-0.315814309,0.921672814,0.9450615580142663,0.1676001539957153,-0.12432909427090282,0.2516170031258558,5.012,8.0,0.055946991,0.076435333,0.975113621,5.820396158,-1.231870197,1.84379057,0.9318411661490745,0.13641528362171904,0.0057903460910341065,0.3361984285455317
76,5.124,0.0,0.060960927,0.125900964,0.970118401,0.017665256,0.085302538,0.078789675,0.4115808914073377,0.060733401168969775,0.03384316606517197,0.9087173729611839,5.124,1.0,0.170569035,-0.103175323,0.958201992,-0.24525873,-0.13182873,-0.147889505,0.7380206070077023,-0.002554453568578153,-0.13864881390704323,0.6603753211629872,5.124,2.0,0.072738153,-0.111401397,0.970548757,-0.184017385,-0.030387174,-0.082349818,0.712256858619422,-0.03853419305546575,-0.11182132188713954,0.6918824143498442,5.125,3.0,-0.04411166,0.185353294,0.9611552,0.04794411,0.136215372,1.192827126,0.3572675412639397,0.06365958037962031,0.16727980276023713,0.9166923308142192,5.125,4.0,0.025142344,0.317458355,0.92626673,0.423772121,-0.084377174,0.512254981,0.6427772287575148,0.13784909279383095,0.24410902811438653,0.7129136302524851,5.1,5.0,0.01428167,-0.212308814,0.956488893,-2.030769315,0.25821151,1.404977434,0.7112976456602468,-0.19091238440926409,-0.15829699986037207,0.6576854723897776,5.1,6.0,0.093826109,-0.169284094,0.960860841,-1.180837696,-0.171095399,1.328659204,0.2417520946580618,-0.46885944708829647,-0.14150596191113093,-0.8376770298558401,5.1,7.0,0.282107899,0.155240385,0.92553366,0.156923614,-1.670029137,1.652283248,0.9084314211603374,0.17954727777438587,-0.21202178305055966,0.3123489900807732,5.1,8.0,0.183837893,0.357736293,0.894072354,1.810013628,-0.055528385,4.378903442,0.830201308612801,0.21792941576231967,-0.017151106750348335,0.5128141929201308
77,5.149,0.0,0.051155682,0.121471402,0.970604345,-0.115051235,0.153092871,0.068188916,0.4087007580330862,0.050422918533155725,0.032758599989446475,0.9106855076240704,5.149,1.0,0.188190109,-0.116206426,0.954502252,-0.28657837,-0.293601945,-0.395236898,0.7494325897109568,0.001396699332897282,-0.15640144345620557,0.6433408359453929,5.15,2.0,0.077576931,-0.12036007,0.969022845,-0.245081494,-0.182207493,-0.130629676,0.7157281411537688,-0.03806721474928756,-0.12303594056290529,0.6864009560392553,5.15,3.0,-0.063647499,0.172920781,0.962490727,-0.315557651,0.229682538,-0.427344754,0.37725214533494883,0.03737430347169446,0.1508753452517415,0.9129734993280758,5.15,4.0,-0.005137248,0.278145124,0.939405077,-1.001738893,0.550135172,0.153034551,0.6395525542276562,0.08384065152758195,0.21234221111743404,0.7340667959457575,5.145,5.0,0.005233353,-0.268133746,0.942463743,-0.922762487,0.109794533,0.298098619,0.6958080775940961,-0.22024406697029011,-0.1754058637676447,0.6607393230882518,5.145,6.0,0.06998774,-0.293945115,0.932183987,-1.868796943,0.026564019,1.267784162,0.26429349747107184,-0.4741580874851844,-0.009693694990381006,-0.8397791897542677,5.145,7.0,0.287335037,0.172922387,0.921058861,0.37123794,0.564381514,-0.572258167,0.9221879858336656,0.18912471895111993,-0.16468052558477217,0.29441719372147745,5.146,8.0,0.262794562,0.328789713,0.885473513,0.75635249,-0.11340402,3.107639383,0.7391582156071436,0.2453655559140375,-0.04092114431267503,0.6259124029923036
78,5.21,0.0,0.04174418,0.11760453,0.971817163,-0.068233299,0.203460574,-0.033620769,0.41016435426721265,0.03907942663813952,0.03522399171749362,0.9104928727396391,5.21,1.0,0.198672218,-0.120427003,0.951989856,0.012323448,0.08821348,-0.263707932,0.7592424146362184,0.0029058916827411794,-0.14875920381617153,0.633571788269389,5.211,2.0,0.089091135,-0.126423647,0.96773593,0.001219299,-0.081695002,-0.683169677,0.7392039147631183,-0.028626130556624572,-0.12243295406205154,0.6616406039594872,5.211,3.0,-0.072509861,0.134229923,0.968362354,-0.680674669,-0.090462891,-0.917576135,0.4225878555812707,0.015384213754408281,0.11156744597179702,0.8992972452319155,5.211,4.0,-0.016502343,0.187139909,0.961718424,-2.05710105,0.41208942,1.330448664,0.5969025895954521,0.01934949423301327,0.13518567390941366,0.790605925336275,5.224,5.0,-0.010831542,-0.295759903,0.934234851,-0.091924732,0.067314624,0.705887628,0.6748161635905238,-0.2217492100907033,-0.16105281203511393,0.6852097670908512,5.224,6.0,0.059465025,-0.446510193,0.869965263,-3.067179692,-0.165212304,1.303326733,0.2619068813054278,-0.4969687974267103,0.16946842248740732,-0.8097575277135394,5.224,7.0,0.263611599,0.173466245,0.928123045,-0.070587848,0.488728461,0.206064309,0.9256101233785416,0.17073402214570402,-0.13866129648120837,0.3080078538597056,5.224,8.0,0.214659555,0.271429615,0.915686759,-1.378558989,0.995136375,-2.162107424,0.8261639167917741,0.1546148673827531,-0.02106667721382415,0.5413904510486465
79,5.271,0.0,0.028582089,0.129921202,0.970788105,0.343863522,0.111499614,-0.062483091,0.41222833279635307,0.04114785803949179,0.05524673262984789,0.9084725939467999,5.271,1.0,0.179953101,-0.102235999,0.957963299,0.356543396,0.528203875,-0.544064282,0.7809011608344915,0.005799624780412509,-0.11220818723488464,0.6144664873507839,5.271,2.0,0.089529191,-0.107577391,0.969886915,0.342280722,0.166748608,-0.717349088,0.7649644618406973,-0.01472997535302063,-0.10004855508114982,0.6360838675623253,5.271,3.0,-0.064735001,0.088366023,0.973367775,-1.000126258,0.008637826,-0.602318182,0.4514543452456575,-0.013697042066453821,0.06081975041559911,0.8901136574375369,5.272,4.0,-0.026775054,0.061354062,0.977542212,-1.021363196,0.321583591,1.597118292,0.534162547500868,-0.010386308661041975,0.0946169002667718,0.8400060354686081,5.339,5.0,-0.024218907,-0.276245142,0.940061735,0.440747471,0.311986471,-0.232242551,0.6930392876244106,-0.20412731137121592,-0.1309157371536645,0.6788885448487997,5.339,6.0,0.05924477,-0.638659474,0.740270987,-3.913062675,-0.277901212,0.820232133,0.21817397563207722,-0.5224830467014874,0.36161132539571966,-0.74070833099944,5.34,7.0,0.254601268,0.150776846,0.933868051,-0.385409967,0.307752249,1.285468116,0.9110211448981343,0.13384343218052724,-0.13517764491174025,0.3658598277028301,5.34,8.0,0.119988454,0.206697546,0.949511925,-0.243236527,1.187716814,-1.11460818,0.8587501879312837,0.10979675815888186,0.032332123141247164,0.49944711475687237
