,Unnamed: 0,timestamp,node,accx,accy,accz,gyrox,gyroy,gyroz,q0,q1,q2,q3,timestamp.1,node.1,accx.1,accy.1,accz.1,gyrox.1,gyroy.1,gyroz.1,q0.1,q1.1,q2.1,q3.1,timestamp.2,node.2,accx.2,accy.2,accz.2,gyrox.2,gyroy.2,gyroz.2,q0.2,q1.2,q2.2,q3.2,timestamp.3,node.3,accx.3,accy.3,accz.3,gyrox.3,gyroy.3,gyroz.3,q0.3,q1.3,q2.3,q3.3,timestamp.4,node.4,accx.4,accy.4,accz.4,gyrox.4,gyroy.4,gyroz.4,q0.4,q1.4,q2.4,q3.4,timestamp.5,node.5,accx.5,accy.5,accz.5,gyrox.5,gyroy.5,gyroz.5,q0.5,q1.5,q2.5,q3.5,timestamp.6,node.6,accx.6,accy.6,accz.6,gyrox.6,gyroy.6,gyroz.6,q0.6,q1.6,q2.6,q3.6,timestamp.7,node.7,accx.7,accy.7,accz.7,gyrox.7,gyroy.7,gyroz.7,q0.7,q1.7,q2.7,q3.7,timestamp.8,node.8,accx.8,accy.8,accz.8,gyrox.8,gyroy.8,gyroz.8,q0.8,q1.8,q2.8,q3.8
0,0,0.059,0.0,-2.23e-16,6.7e-17,1.0,-0.003357205,0.003509766,0.000732405,0.9999999698417976,-0.0001678602449376,0.0001754944417917,3.662024992745017e-05,0.059,1.0,-2.35e-17,6.29e-17,1.0,0.010485722,0.002833619,0.004893005,0.99999982261662,0.0005242860070003,0.0001415526581654,0.0002446502738515,0.06,2.0,4.15e-17,7.25e-17,1.0,0.007447766,0.002232702,-0.001176078,0.9999999227008936,0.0003723882712147,0.0001116569892533,-5.8803903609026375e-05,0.06,3.0,8.64e-17,-1.09e-16,1.0,-0.004155044,0.004628522,0.013906848,0.9999997098566288,-0.000207752139722,0.0002315704917246,0.0006953422282626,0.06,4.0,6.85e-18,-1.12e-16,1.0,-0.012209025,0.008233882,-0.003987614,0.9999997091025008,-0.0006104510724212,0.000411572268077,-0.0001993807162999,0.0,5.0,-6.39e-17,9.09e-17,1.0,-0.014745145,0.003216746,0.010999532,0.999999563989248,-0.0007372569285479,0.0001612427039321,0.0005499766591429,0.088,6.0,1.9e-17,-8.5e-18,1.0,-0.00393698,0.001815512,-0.00115729,0.9999999748320154,-0.0001968489950457,9.076420714668632e-05,-5.786450078588921e-05,0.0,7.0,-2.33e-17,-1.77e-17,1.0,-0.006230931,0.000832219,0.002003182,0.9999999455864198,-0.0003115465330476,4.164215195615858e-05,0.0001001591042715,0.0,8.0,-2.6e-17,-5.34e-18,1.0,-0.002635241,-0.000257131,0.007621426,0.9999999186297196,-0.0001317620392784,-1.2806338222259118e-05,0.0003810712756079
1,1,0.104,0.0,-2.67e-16,8.6e-17,0.979417174,-0.002656762,0.004678678,0.002084771,0.999999872987091,-0.0002839025736466,0.0003919035934185,0.0001408428349327,0.105,1.0,-5.43e-17,6.8e-17,0.980493753,-0.000792911,0.004004915,-0.003651953,0.9999998509989714,0.0004321370187845,0.0003277123187851,6.216323880412454e-05,0.105,2.0,0.00013536,-0.001407318,0.980164783,-0.001730284,9.15e-05,-0.010783595,0.9999998007567804,0.0001767851506383,9.826596473372986e-05,-0.0005979775998348,0.105,3.0,1.07e-16,-6.36e-17,0.979237458,-0.007324483,0.007451461,0.006160998,0.9999991747518372,-0.0005533884821735,0.0005809019809625,0.0010033990836013,0.105,4.0,1.1e-17,-1.79e-16,0.98020151,0.00065287,0.006876935,0.0092065,0.9999995773738078,-0.0005165044114249,0.0007144928608357,0.0002607208278242,0.088,5.0,-4.88e-17,7.42e-17,0.979996429,-0.016426703,-0.007778501,-0.010559637,0.9999988675043128,-0.0014847364130966,-0.0002450418651786,2.2413385415346838e-05,0.178,6.0,1.43e-17,-9.22e-18,0.979220608,-0.00581916,0.003347005,0.008595815,0.9999997902272544,-0.0004680733179212,0.0002492560002857,0.0003719196992831,0.089,7.0,-2.12e-17,-6.59e-18,0.97975252,-0.003226947,-0.008299515,0.002914724,0.9999998009545112,-0.0004416915395349,-0.000377449524037,0.0002460312551788,0.089,8.0,-2.73e-17,-4.87e-18,0.979789263,-0.002604389,0.002161695,0.000779154,0.9999998761741395,-0.0002488469551244,9.651910392741068e-05,0.0004200130484747
2,2,0.195,0.0,-2.67e-16,8.6e-17,0.979417174,0.008446536,0.003662717,-0.002292375,0.9999998421508788,0.0001667437303155,0.0005359276127586,2.6006538917240384e-05,0.195,1.0,-5.43e-17,6.8e-17,0.980493753,-0.006625028,0.0072014,0.000377371,0.9999997805278784,5.765575217955043e-05,0.0006549892997024,8.129591974032702e-05,0.195,2.0,0.00013536,-0.001407318,0.980164783,0.007226926,0.000367996,0.013673845,0.9999998907016544,0.0004487371427299,9.945425535942362e-05,8.567675755410001e-05,0.195,3.0,1.07e-16,-6.36e-17,0.979237458,-0.00326351,0.003569699,0.000178412,0.999999023085914,-0.0006613989209419,0.0007011387670309,0.0010123157188319,0.195,4.0,1.1e-17,-1.79e-16,0.98020151,0.001690037,-0.000594198,0.02679046,0.9999984593032204,-0.0003793870528772,0.000613863433795,0.0016001963425152,0.179,5.0,0.00079686,-0.001166454,0.979930102,-0.013878321,-0.011626864,-0.012257421,0.999997286962747,-0.0020895294169903,-0.0008438356625771,-0.0005898095752823,0.223,6.0,1.43e-17,-9.22e-18,0.979220608,-0.00512772,0.002733125,0.015072219,0.9999990717721688,-0.0006775146319318,0.0003614016979809,0.0011255298917192,0.179,7.0,0.000911033,0.000410601,0.979714755,-0.007240906,-0.011925718,0.009925238,0.9999989692715454,-0.0007386412973101,-0.0009822018950437,0.0007423909469021,0.179,8.0,-2.73e-17,-4.87e-18,0.979789263,-0.003382297,0.004128147,0.004921106,0.999999657907812,-0.0003931399887619,0.0002933001736639,0.0006660331946809
3,3,0.269,0.0,-2.67e-16,8.6e-17,0.979417174,0.01372172,0.001900659,-0.007848854,0.9999994164570234,0.0008359421266128,0.0005777135259379,-0.0003667880253099,0.27,1.0,-5.43e-17,6.8e-17,0.980493753,0.00728523,0.007140426,-0.007072144,0.9999994282719936,0.0004158908301983,0.0009466880810152,-0.0002725292289611,0.27,2.0,0.00013536,-0.001407318,0.980164783,0.013692936,0.007400051,0.004927776,0.9999993256451752,0.0010167134147353,0.000452408185473,0.0003321593912351,0.27,3.0,-0.000305541,0.000947633,0.979144529,0.004294653,0.004357032,-0.016643267,0.9999995547355808,-0.0003329552621839,0.0008644678896779,0.0001799019203294,0.27,4.0,-0.000269883,0.000921734,0.980480024,0.002578339,0.006901772,-0.055435574,0.9999988843175982,-0.0001678016589189,0.0009111421138111,-0.0011717620109313,0.223,5.0,0.001593719,-0.002332908,0.979863775,-0.021983369,-0.009472394,-0.013320295,0.9999935453580135,-0.003098543960969,-0.0013157365273597,-0.0012558284209259,0.309,6.0,1.43e-17,-9.22e-18,0.979220608,-0.007364478,0.000296517,0.014910737,0.9999977134073622,-0.0009777333883461,0.0003404017872939,0.0018711878824876,0.223,7.0,0.001323356,-0.000495896,0.979805594,-0.004902354,-0.008893301,0.016122009,0.999997389423546,-0.0009356113370048,-0.0013956232975819,0.0015485519463062,0.223,8.0,-2.73e-17,-4.87e-18,0.979789263,-0.008138659,-0.00113272,0.020976957,0.9999982186338828,-0.0007604126882218,0.0002078606507521,0.0017150205695604
4,4,0.301,0.0,-2.67e-16,8.6e-17,0.979417174,0.014373779,-0.003099958,-0.008346747,0.9999985438908624,0.0014707377635903,0.0003652946165354,-0.0007846696306302,0.302,1.0,0.000479543,0.000877516,0.980491713,0.016314539,0.000994134,-0.015080595,0.9999983254936148,0.001234068913286,0.0008779673418905,-0.0010272571392508,0.302,2.0,-0.001186026,-0.000783353,0.978472268,0.014503781,-0.001194589,-0.021354053,0.9999983655536469,0.0015997169292554,0.0004099793822214,-0.000736011336374,0.302,3.0,-0.000611083,0.001895266,0.9790516,0.018454019,-0.000314099,-0.005655884,0.9999994205866986,0.0007195841758821,0.0007939104451644,-0.0001035909554359,0.302,4.0,-0.000940574,0.001998927,0.979855663,0.022216624,0.00212886,-0.001183731,0.9999982039182904,0.0010619354693698,0.0009731071268685,-0.0012318749011596,0.309,5.0,0.003187439,-0.004665817,0.979731121,-0.032285506,-0.031970935,-0.022982508,0.9999819950624328,-0.0046417410841078,-0.0029483510400664,-0.0024022940722031,0.348,6.0,1.43e-17,-9.22e-18,0.979220608,-0.006922605,0.000607139,0.004103184,0.9999970360171528,-0.001226076360805,0.0003363223767192,0.0020764346668584,0.309,7.0,0.001323356,-0.000495896,0.979805594,-0.004231265,-0.007116304,0.019280784,0.9999948515724242,-0.0010796078016553,-0.0016787313508063,0.0025125956084504,0.31,8.0,-2.73e-17,-4.87e-18,0.979789263,-0.007781319,0.006208819,0.016815767,0.9999960339257584,-0.001073793347291,0.0004977498477317,0.0025556497589037
5,5,0.375,0.0,0.000308655,0.000931814,0.979226244,0.013429555,-0.008289359,-0.013260634,0.9999968606671612,0.0020421385103009,-0.0001006719125017,-0.0014485134770607,0.376,1.0,0.000959085,0.001755032,0.980489674,0.013885228,-0.001442346,-0.008650338,0.999996916367066,0.0018939146245429,0.0006691592541669,-0.0014603320330242,0.376,2.0,4.77e-17,7.58e-17,0.980198449,0.021383851,-0.00346348,0.002652363,0.9999966513773556,0.0025088611171451,0.000194688365642,-0.0006041079463908,0.376,3.0,-0.000916624,0.002842899,0.97895867,0.016289191,-0.002267711,-0.018459822,0.9999979710927426,0.0016065428920947,0.0006493330037806,-0.0010272278152055,0.376,4.0,-0.000334948,0.003275962,0.979806693,0.00042366,-0.001298484,-0.053571305,0.9999913579824908,0.0011414281112301,0.0008307879594924,-0.0039103572173264,0.348,5.0,0.00442766,-0.006424926,0.980337246,-0.019859496,-0.013318887,-0.022782507,0.9999723254475412,-0.0054969755188926,-0.0035483457309053,-0.0035413050921472,0.404,6.0,0.001416227,-0.001730386,0.979228778,-0.002347487,0.000842116,0.008491012,0.9999959789717532,-0.0013089913640105,0.0002726114823318,0.0025008528371737,0.348,7.0,0.001323356,-0.000495896,0.979805594,-0.00540242,0.008950228,-0.005285586,0.9999960306549326,-0.0012675836330296,-0.0011319569430596,0.0022473494591239,0.348,8.0,-2.73e-17,-4.87e-18,0.979789263,-0.001840329,0.005725334,0.012446696,0.9999941205845856,-0.0010588518694778,0.0007346637335739,0.0031777190213503
6,6,0.435,0.0,0.000617309,0.001863629,0.979035314,0.00759812,-0.012208187,-0.013475366,0.9999948048365304,0.0023121427106169,-0.0007316674044773,-0.0021234309134994,0.435,1.0,0.000959085,0.001755032,0.980489674,0.004694337,-0.003791494,-0.014102279,0.9999955319002072,0.0020279163362488,0.0003647178523244,-0.0021658060493361,0.436,2.0,4.77e-17,7.58e-17,0.980198449,0.010341378,-0.008045061,-0.010936547,0.99999546142776,0.0027746932936343,-0.0002258266891687,-0.0011520431043383,0.436,3.0,-0.001222166,0.003790532,0.978865741,0.003965605,-0.00761275,-0.021177705,0.999996099875924,0.0018367697855704,0.0002677329076757,-0.0020868226531469,0.436,4.0,-6.51e-05,0.002354229,0.979528179,-0.002275756,-0.005453164,-0.034917393,0.9999833560127006,0.0010311643208191,0.0004801533227657,-0.0056563106797938,0.46,5.0,0.003957465,-0.007563981,0.979643366,-0.007855198,0.002787766,-0.011829992,0.999969765393114,-0.0057241936147012,-0.0032567346041544,-0.0041346809816698,0.46,6.0,1.43e-17,-9.22e-18,0.979220608,-0.00732979,0.002730294,0.011661841,0.9999939788283988,-0.0015447621954719,0.0003818484628635,0.0030838625875543,0.461,7.0,0.001323356,-0.000495896,0.979805594,-0.002614206,0.007379615,-0.010558703,0.9999974239453812,-0.0012969205998283,-0.0007183478673071,0.0017187425346834,0.461,8.0,-2.73e-17,-4.87e-18,0.979789263,-0.001162535,0.010320358,0.004074973,0.999993078921834,-0.0010125832624588,0.0011772334017873,0.003380962153717
7,7,0.526,0.0,0.000617309,0.001863629,0.979035314,-0.007250228,-0.008136283,-0.005722919,0.9999948504721432,0.0018128737574653,-0.0010957525156943,-0.0024107767130172,0.527,1.0,0.000959085,0.001755032,0.980489674,-0.003538849,-0.008093428,-0.035541574,0.9999907100314144,0.001736048180699,-0.000122055274035,-0.003943487047292,0.527,2.0,0.000605601,0.000773311,0.980010732,-0.000993103,-0.015057655,-0.048498934,0.9999900224888708,0.0024866618520281,-0.0009809743047875,-0.0035789837879162,0.528,3.0,-0.0003005,0.004060362,0.978586952,-0.008097286,0.000930248,-0.033381532,0.999991841711642,0.0014553699174351,0.000305666086017,-0.0037556593036955,0.528,4.0,-6.51e-05,0.002354229,0.979528179,-0.010913418,0.008652286,-0.066155925,0.9999593228946168,0.0005034398596645,0.0008721281724891,-0.0089631744877648,0.527,5.0,0.003957465,-0.007563981,0.979643366,-0.001391067,0.013167961,-0.003569389,0.9999719139974076,-0.0056049002775104,-0.0024737758469711,-0.0043170293373271,0.525,6.0,1.43e-17,-9.22e-18,0.979220608,-0.009107461,0.004518577,0.014960821,0.999990792729344,-0.0018460662817787,0.0005695671011452,0.0038317214328436,0.527,7.0,0.000412323,-0.000906498,0.979843359,-4.15e-05,0.010222513,-0.005394786,0.9999981992656796,-0.0012162090848722,-0.000156839573804,0.0014483446439872,0.528,8.0,-2.73e-17,-4.87e-18,0.979789263,-0.005974802,0.006592837,0.007948835,0.9999911646953604,-0.0012107093362923,0.0013886205240272,0.0037784186056417
8,8,0.614,0.0,0.000617309,0.001863629,0.979035314,0.000318292,-0.005860442,-0.011632592,0.9999931448330764,0.0017425321218216,-0.0013099780116819,-0.0029929627908067,0.615,1.0,0.000959085,0.001755032,0.980489674,0.01197873,0.005802502,0.007382585,0.999991070847706,0.0022517773012052,0.0001278187364625,-0.0035737076286082,0.615,2.0,-0.00013536,0.001407318,0.980232116,0.019832608,0.01236065,0.04517066,0.9999936454709336,0.003301417708635,-0.000269203051683,-0.00131802450024,0.615,3.0,5.04e-06,0.003112729,0.978679882,-0.00615835,0.003129459,-0.02859917,0.999985788597616,0.0011610929657408,0.0004335321883544,-0.0051852208989549,0.616,4.0,-6.51e-05,0.002354229,0.979528179,-0.007396613,0.003657861,0.003913363,0.9999610743974092,0.000205285922541,0.0009733218281224,-0.0087669944843231,0.55,5.0,0.002336913,-0.006962783,0.979754591,0.003142239,0.011100987,0.00304009,0.9999759806818064,-0.0052411184042765,-0.0017889670917835,-0.004167533332416,0.55,6.0,0.000504137,-0.001321191,0.979203248,-0.007284671,0.008527967,0.014102078,0.9999871017152407,-0.0020942842492657,0.0009130840698605,0.0045361497018144,0.55,7.0,-0.00049871,-0.001317099,0.979881124,0.000371837,0.018757794,-0.018162957,0.9999988627181252,-0.0011444550433029,0.0008210708195011,0.0005390990813644,0.55,8.0,-2.73e-17,-4.87e-18,0.979789263,-0.00120403,0.004399572,0.012621979,0.9999885370405656,-0.0011497945074787,0.0014702332715094,0.0044093280879201
9,9,0.662,0.0,0.002322252,0.001499722,0.980015489,-0.003749981,-0.003780294,-0.008057349,0.9999920678411164,0.0014569035475022,-0.0014855535496551,-0.0033962946798685,0.662,1.0,0.000627038,0.001934336,0.97956361,-0.001403485,0.005710211,-0.012526222,0.999989001101152,0.0020559858350233,0.0003697243949879,-0.0041992740846441,0.662,2.0,-0.00013536,0.001407318,0.980232116,0.002321124,-0.001769804,-0.046290827,0.9999883593769464,0.0031596256367055,-0.0003168016366441,-0.0036328381689446,0.662,3.0,-0.000916624,0.002842899,0.97895867,-0.015504729,0.0159873,-0.032028383,0.9999761227069544,0.0004186543205168,0.0012402768668818,-0.0067853119176249,0.662,4.0,-0.000670692,0.001077193,0.979577148,-0.020598425,0.016574896,-0.04348128,0.9999383282510044,-0.0007846718186107,0.001745755614784,-0.0109396673649955,0.639,5.0,0.000689528,-0.008093296,0.979844387,-0.06282417,0.056120731,-0.033959779,0.9999479228842086,-0.0082563905465591,0.0011614434975654,-0.0058851154365216,0.639,6.0,0.000504137,-0.001321191,0.979203248,0.001241417,-0.012549211,-0.074578994,0.999997872946113,-0.0018906726449493,0.0001614924273128,0.0008083194886192,0.64,7.0,-0.002234388,8.53e-05,0.97973721,0.029100166,0.024492483,0.016260245,0.9999968379334928,0.0004292953592573,0.0020780490802612,0.0013496445939095,0.64,8.0,0.001549934,-0.001598367,0.97999645,-0.066925665,-0.106718127,0.009274501,0.9999698026877823,-0.0044379651981883,-0.0041046959954866,0.0048836101647974
10,10,0.738,0.0,0.000504034,0.003109473,0.97969489,0.03717778,-0.001602651,-0.078439716,0.9999666494977872,0.0033341873879475,-0.0014366163428312,-0.0073156831611973,0.738,1.0,-0.000185233,0.002379101,0.97994097,0.031788065,0.009882174,0.0022005,0.9999849488454824,0.0035633084052395,0.0008287278435586,-0.0040887804867303,0.739,2.0,-0.000270721,0.002814636,0.980265783,0.061743009,0.001233245,0.035984252,0.9999798470391116,0.0060740027350815,-0.0002323153305518,-0.0018324944737474,0.739,3.0,-0.000916624,0.002842899,0.97895867,0.036394281,-0.031044213,0.067108301,0.9999912969668424,0.0023356283054218,-0.0004103146833983,-0.0034325606843306,0.739,4.0,0.00094137,0.003475804,0.980382085,0.030946894,-0.059578008,0.094307996,0.9999790421850624,0.0009935057011401,-0.0014792546860738,-0.0062241419200152,0.75,5.0,-0.00807126,-0.018348334,0.979556631,-0.186142274,0.188068313,-0.052047333,0.9997491412293876,-0.0176164050504528,0.0108725561009869,-0.0085501115800377,0.749,6.0,0.004368078,0.002420394,0.979468765,0.122506068,-0.086092579,-0.376325313,0.9998184660692232,0.0045470937103565,-0.0042908586958976,-0.0179985382024986,0.75,7.0,-0.018117719,0.006134381,0.980095464,0.147905953,0.222973008,0.016657675,0.9998677678789804,0.0080789402755189,0.0139449261547076,0.0021717539615305,0.751,8.0,0.043809539,-0.023355265,0.978668614,-0.713941352,-1.284441512,-0.260083806,0.996653531520327,-0.0403715020465412,-0.0706239171450289,-0.0080088861684007
11,11,0.781,0.0,0.005026651,0.006908654,0.979359997,0.080106129,-0.103264229,-0.379957076,0.9996048885748272,0.0073441524886266,-0.0066027640123355,-0.0263160344453377,0.781,1.0,-0.001662279,0.00432545,0.979767588,0.009069081,0.065702773,-0.063467376,0.9999576287952592,0.0038922632403456,0.0041252695305359,-0.0072507277104447,0.781,2.0,-0.003950352,0.006747942,0.979271086,0.038429977,0.09099054,-0.180837906,0.9999005785281102,0.0077429493343001,0.0046075360385977,-0.010846677205947,0.781,3.0,0.010789245,0.004599086,0.97990124,-0.002895852,-0.254737992,-0.146568719,0.9998464803414036,0.0021490959168252,-0.0136391505807403,-0.0107875255310607,0.781,4.0,0.014866793,0.005473958,0.980082147,0.007756294,-0.274138387,-0.060310452,0.999831395322018,0.0014754358453738,-0.0157937382585073,-0.0092499648277434,0.805,5.0,-0.018506265,-0.031465594,0.979337242,-0.243947178,0.079565836,-0.317200144,0.9991572864585968,-0.0297742724204897,0.0143482006439297,-0.0243380105350756,0.805,6.0,0.006856628,0.007921071,0.978727359,0.115125655,-0.027436237,-0.409891359,0.9991921723054992,0.0103045336844953,-0.0054814390182486,-0.0384548204423321,0.806,7.0,-0.036385536,0.019747722,0.978694089,0.157914865,0.179636318,0.332276523,0.9994226508386016,0.0163767524867238,0.0231288040274419,0.018741008323766,0.806,8.0,0.090440465,-0.06324176,0.973706322,-0.510353172,0.049496032,0.108211778,0.9957247347526996,-0.0653612477308569,-0.0651170226806186,-0.00446466728247
12,12,0.84,0.0,0.011676142,0.010029899,0.979154773,0.049816217,-0.109173003,-0.167070201,0.9992811490937082,0.0095062327164531,-0.0119924746040557,-0.0346842494278015,0.841,1.0,-0.005351805,-0.000494883,0.980157188,-0.18395709,0.005393605,-0.283922822,0.9997452410760708,-0.0057728094703733,0.0042396733948861,-0.0214045038735446,0.841,2.0,-0.008009532,0.003510374,0.979474106,-0.112713539,0.021477009,-0.251909528,0.9997086967519746,0.0014712351368784,0.0057063941036322,-0.0234050031398096,0.841,3.0,0.01519968,-0.010904706,0.97947642,-0.314184601,0.066732428,-0.258532512,0.9995672877517,-0.0141210680353067,-0.0097198085234676,-0.0239030963793271,0.841,4.0,0.01964276,-0.009329189,0.97984342,-0.397008695,0.034219943,-0.681565158,0.9987823313614396,-0.0184303793718222,-0.0139354910757294,-0.0435887343805264,0.838,5.0,-0.018313765,-0.042429656,0.978469892,0.086163292,-0.070279004,-0.178704023,0.9990884632175152,-0.0248476504956633,0.0100625775259323,-0.0332201966286133,0.838,6.0,0.013456838,0.01043507,0.979069468,0.019297779,-0.13301002,-0.305527429,0.9984239740206672,0.0105705112670067,-0.0121551541413315,-0.053759507253439,0.838,7.0,-0.062044546,0.015729846,0.978007181,-0.232401466,0.805560418,-0.776234057,0.9977620117600092,0.0022144649952469,0.0640131646356204,-0.0191931963658293,0.838,8.0,0.079956418,-0.081119521,0.972134556,-0.332097857,-0.54936914,-0.368901949,0.9924901095618266,-0.0783703597438663,-0.0912860884544538,-0.0220979453854046
13,13,0.9,0.0,0.014882036,0.006678319,0.978455377,-0.160366852,-0.050682634,-0.158318582,0.998991923863585,0.0008666149412207,-0.0138108721454511,-0.0427041548851956,0.901,1.0,0.005096594,-0.008483608,0.980263257,-0.096096857,-0.232557261,-0.195457829,0.9994268325776744,-0.0107253665004074,-0.0080584555263008,-0.0310810896160228,0.901,2.0,0.002764326,-0.007531294,0.979399631,-0.121284925,-0.300668969,-0.195275445,0.9993860265592855,-0.0055316700421211,-0.0099334975346402,-0.03314055176543,0.901,3.0,0.018447949,-0.006640825,0.97999417,0.331122451,-0.25676671,0.635189816,0.999697720744946,0.0028764111176641,-0.0229941515790803,0.008213549147615,0.901,4.0,0.028051688,-0.021944855,0.979476149,0.036137422,-0.314522659,0.884163171,0.999431933060633,-0.0172420494505676,-0.0289411344453428,0.0009662538211599,0.941,5.0,0.004271331,-0.039901222,0.979191324,0.025756781,-0.219584933,0.160902312,0.9994132709111492,-0.0233992916951345,-0.0019219047286146,-0.0249377897388389,0.941,6.0,0.017705518,0.005243912,0.979093977,-0.145361113,-0.012923244,0.029684054,0.9985518072558868,0.002421589340183,-0.0121143802060316,-0.0523609198094709,0.941,7.0,-0.082733006,0.01276015,0.97622714,-0.077359301,-0.067334123,0.290185649,0.9982754744425548,-0.0002729743922838,0.0585348303005765,-0.0044357922804845,0.941,8.0,0.132009418,-0.10280074,0.965699499,-0.003041398,-0.183806619,0.014921678,0.9920496217605204,-0.0763754726433997,-0.0978594167246448,-0.0206850115208695
14,14,0.974,0.0,0.021033565,-0.004733789,0.979841916,-0.193908783,-0.172792177,-0.16311646,0.9984178703504673,-0.0094433752747232,-0.0217790360401498,-0.0509730557983379,0.975,1.0,0.019234518,-0.011652,0.979979726,-0.117153564,-0.25144223,-0.435441151,0.9982561308383282,-0.0163371403715555,-0.020935891023422,-0.0527208076116618,0.975,2.0,0.023157958,-0.010546185,0.979500631,-0.07504205,-0.347048189,-0.341285057,0.998319287245684,-0.0097051091710042,-0.0274648142545759,-0.0501008537572987,0.975,3.0,0.037583493,-0.010069922,0.97895867,-0.347491963,-0.209664779,-0.467756191,0.9992076010614744,-0.0146474129600045,-0.0335656931100744,-0.0155874154558406,0.975,4.0,0.041576302,-0.019791242,0.978273335,-0.040149561,-0.092046209,-0.580268555,0.9988974243669432,-0.0176812575067914,-0.0332714979102164,-0.0280056450180394,0.973,5.0,-0.018559931,-0.034929015,0.979294385,0.172361453,0.80627565,0.29043186,0.9990681915075924,-0.0132082538717218,0.0395152108503441,-0.0112622759183797,0.973,6.0,0.027522919,-0.004635604,0.979211417,-0.128110368,-0.219566744,0.29199357,0.999008227883995,-0.0052817608318539,-0.0228462846072691,-0.0378511677790634,0.973,7.0,-0.064963899,-0.002170289,0.977757118,-0.201535362,-0.243540569,-0.147556053,0.9989185060490836,-0.0108932075236816,0.0437891364730759,-0.0112101663437678,0.973,8.0,0.127035401,-0.098672207,0.967187574,-0.168769393,-0.26536512,0.025730974,0.9905916469435656,-0.0826870695294221,-0.1073408112449692,-0.0192090546238677
15,15,1.104,0.0,0.031699099,-0.012792822,0.978702463,-0.145826735,-0.248922463,0.005611009,0.9980126915881562,-0.017150483534177,-0.0332276026854227,-0.050719372662597,1.104,1.0,0.040093577,-0.024193528,0.978710978,-0.212672282,-0.330226335,-0.140718401,0.997160065361167,-0.0273679428206225,-0.036913067564065,-0.0596676226917995,1.104,2.0,0.04393818,-0.020602687,0.978476349,-0.220740093,-0.35687253,-0.189805658,0.9970012702587168,-0.0215315812634638,-0.0443411120188112,-0.0596550408241878,1.105,3.0,0.042661356,-0.034812903,0.978971946,-0.359917429,-0.072027808,-0.324910948,0.9982941922277097,-0.0324630630254595,-0.0361901416610677,-0.0323284541848493,1.105,4.0,0.042180338,-0.02946367,0.97855491,-0.177708053,0.01360048,-0.264210249,0.998308011881809,-0.0258862928712035,-0.0314653889151898,-0.0414842446525461,1.06,5.0,-0.105355943,-0.015036648,0.973749467,0.181949216,1.509879992,0.480899801,0.99321141355943,-0.0017285379536038,0.1157417127486711,0.0114872129703557,1.06,6.0,0.051397481,-0.007634426,0.979100104,0.087458038,-0.476940445,0.080388794,0.998322728651522,-0.0018690975218826,-0.0471246720421885,-0.0335782849048206,1.06,7.0,-0.055374475,-0.008771659,0.978438923,-0.047530049,-0.174619804,-0.591123104,0.9985330098802908,-0.0139798625792357,0.0331167540592448,-0.0404928663131257,1.06,8.0,0.153851877,-0.116846275,0.959404267,-0.263541891,-0.37211516,-0.209287542,0.9875599689840464,-0.0928090883716391,-0.1234736088230141,-0.0294287053754645
16,16,1.151,0.0,0.046391828,-0.019716041,0.979141499,-0.284748193,-0.348294336,0.107796872,0.9972706822034784,-0.0318172803472492,-0.0486843910776617,-0.0454827126951681,1.151,1.0,0.05947559,-0.034788708,0.977268847,-0.120344472,-0.296724013,0.211859934,0.9969656896179084,-0.0338571136660658,-0.0502153986517641,-0.0489032035467619,1.151,2.0,0.062456534,-0.034396481,0.976067653,-0.20096974,-0.252611084,0.326731067,0.9970300729039594,-0.0328151777645648,-0.0544369366916619,-0.0434835343208616,1.151,3.0,0.054928392,-0.044703666,0.977670933,-0.105031428,-0.281378898,0.139193595,0.9977822913077278,-0.0375315960896653,-0.0489027321963575,-0.0251077922445239,1.151,4.0,0.047765157,-0.052506749,0.977645913,-0.343991645,-0.193282022,0.752509959,0.9982694261871397,-0.0448067696368913,-0.0378645791714106,-0.004096312839293,1.121,5.0,-0.143626322,-0.0189920195,0.96798465,-0.0950211064999999,1.1821462865,0.2027190395,0.9852416838161324,-0.0067825695240883,0.1696357838156331,0.021829385494298,1.121,6.0,0.0641505545,0.009733504,0.978118201,0.416606602,-0.3698526669999999,-0.3709710865,0.9964199800079574,0.0197120454047765,-0.0644389992963948,-0.0510516804481565,1.121,7.0,-0.0473145675,-0.0144238829999999,0.9790222335,-0.1237534979999999,-0.2045820685,-0.3155003845,0.9979900619293928,-0.0203292115930895,0.0219626045417269,-0.0558587812963529,1.121,8.0,0.1662561965,-0.1210339555,0.9573803625,-0.189860317,-0.4061769875,-0.0894691445,0.9846431436906372,-0.0993929820902072,-0.1396499189696881,-0.0331181947876762
17,17,1.171,0.0,0.059799006,-0.038459368,0.977428236,-0.360245306,-0.249848293,0.32908734,0.9966494466123524,-0.0500481807500171,-0.0575716142237949,-0.029505413174055,1.171,1.0,0.08140213,-0.038796509,0.976189799,0.070717404,-0.431903714,0.323174735,0.9965263071456942,-0.0309869140267147,-0.0704228584528871,-0.0318708539733577,1.171,2.0,0.082901875,-0.04804093,0.975163755,-0.038101668,-0.378272392,0.241520689,0.996332629185237,-0.0355409508092272,-0.0714395027693181,-0.0308954734626593,1.171,3.0,0.070388741,-0.063194959,0.975015806,-0.398104194,-0.143942322,0.015758159,0.99658337241043,-0.0571458087414935,-0.0541469871861482,-0.0249808357946205,1.172,4.0,0.055370876,-0.07576096,0.975803435,-0.493582609,-0.024659655,-0.30706334,0.9967001895877844,-0.0682098126860956,-0.0390505472050186,-0.0202782714251329,1.181,5.0,-0.181896701,-0.022947391,0.962219833,-0.371991429,0.854412581,-0.075461722,0.9785254717247238,-0.0272322999404663,0.2032593707731781,0.0207829550052652,1.181,6.0,0.076903628,0.027101434,0.977136298,0.745755166,-0.262764889,-0.822330967,0.9914999751095884,0.0578454478980329,-0.0744580722676358,-0.0896532151645913,1.181,7.0,-0.03925466,-0.020076107,0.979605544,-0.199976947,-0.234544333,-0.039877665,0.9978502608196648,-0.029881438312475,0.0106173559854151,-0.0573517949011494,1.181,8.0,0.178660516,-0.125221636,0.955356458,-0.116178743,-0.440238815,0.030349253,0.9819337023783374,-0.1028465906017521,-0.1559348470778073,-0.0302176505040877
18,18,1.249,0.0,0.075137677,-0.060058291,0.975375995,-0.204379504,-0.16363115,0.270535725,0.996136552861997,-0.0594194009573811,-0.0626004554525921,-0.0162014141114868,1.249,1.0,0.106872063,-0.041326752,0.973046485,-0.093590005,-0.242652322,-0.184176219,0.9952691385718736,-0.0345686345334447,-0.0810140121903124,-0.0410009895212508,1.249,2.0,0.11022784,-0.045364039,0.973132533,-0.010718371,-0.402477313,-0.031114701,0.9948096071939992,-0.0355192278164307,-0.0899025659010122,-0.0317766979760254,1.249,3.0,0.085238006,-0.079790986,0.97217482,-0.115209679,-0.329891619,0.594481817,0.9957017665220104,-0.0633488109061747,-0.0673576892880073,0.0052784463151172,1.249,4.0,0.069170221,-0.098882289,0.972341902,-0.177051001,-0.414241404,0.572697698,0.9953821609294176,-0.0768266003611976,-0.0567914520800595,0.0093144055667733,1.198,5.0,-0.312655866,-0.006650526,0.928956447,0.623175303,3.00821326,0.861655095,0.9393950074828424,0.0097931439695698,0.3387510096581164,0.0518542930055833,1.198,6.0,0.093397316,0.000132558,0.974031788,-0.601583982,0.772552718,5.722442729,0.980523477171218,0.002772223740373,-0.029094360781384,0.1942151993596783,1.199,7.0,-0.016840938,-0.030828273,0.979732106,-0.195150747,-0.388610958,-0.530972417,0.9957189595343742,-0.0395118386051092,-0.0093393416559659,-0.0830382136805716,1.199,8.0,0.196198341,-0.133271335,0.950294145,-0.231987324,-0.29208037,-0.454645083,0.9786698816459812,-0.1079672142270729,-0.1666317849937801,-0.0527464846304792
19,19,1.334,0.0,0.084293649,-0.065575758,0.973725013,-0.052207013,-0.196878816,0.080037643,0.9956677104567077,-0.0599132919360365,-0.0701152313177479,-0.0118347851921379,1.335,1.0,0.116470453,-0.045434791,0.972049028,-0.106324738,-0.12592574,-0.022632285,0.9947235196047808,-0.0391330011173791,-0.0848583932151417,-0.042341243127349,1.335,2.0,0.122572957,-0.05050787,0.970460625,-0.193753498,-0.081427076,-0.257615777,0.993840160123974,-0.0433459222896766,-0.091391217164678,-0.0452825857341367,1.335,3.0,0.10610054,-0.091313642,0.969015219,-0.062230554,-0.489496441,0.86995186,0.992637247582745,-0.0674797212493343,-0.0873791319334488,0.049826390939153,1.335,4.0,0.102344829,-0.113986879,0.968304976,-0.162837794,-0.698724705,0.725210964,0.9913836594401588,-0.0846487745191719,-0.0879737052300648,0.0474726442863208,1.256,5.0,-0.443175189,0.048055966,0.87138991,-0.160138826,0.899994513,0.618208738,0.9254341713451316,0.0107287465780035,0.3692699478932152,0.0842389107631166,1.256,6.0,0.053175232,-0.028142292,0.978583367,1.121449123,-0.216351692,-1.236047639,0.9888849894845568,0.0609322782568747,-0.0251107553946661,0.1332785991900569,1.256,7.0,-0.030058577,-0.084653075,0.975965849,-0.883011799,0.523677159,-3.074219224,0.96934530518166,-0.0784789445504281,0.0104668639931126,-0.2325966021735378,1.257,8.0,0.271040886,-0.136864857,0.93221985,-0.463719331,-1.530377584,-0.813841449,0.9587315349529671,-0.1241882779101821,-0.2402516332217409,-0.0876941745540533
20,20,1.418,0.0,0.087961256,-0.073464609,0.972578413,-0.077593228,-0.318451223,0.136751651,0.994599775019262,-0.0622592329473547,-0.0829228326164159,-0.0043450288043421,1.418,1.0,0.125922028,-0.051742628,0.97067829,0.087925417,-0.248036555,0.556526654,0.9947875304838056,-0.0366321419613111,-0.0941610806489745,-0.0137675800442613,1.418,2.0,0.127244779,-0.060709475,0.970142322,-0.006211076,-0.131516189,0.355852934,0.994165078521158,-0.0446337149356937,-0.0943304136963737,-0.0273020364062806,1.418,3.0,0.13880684,-0.100204311,0.964514778,-0.008197054,-0.556980124,0.685900456,0.9878202222017288,-0.0674719339823395,-0.1111437552499555,0.0854740452005623,1.419,4.0,0.141517071,-0.127370633,0.960794276,-0.220835245,-0.674030571,0.11729353,0.9869637697669228,-0.0921510087666632,-0.1199400025055434,0.0550009504438003,1.35,5.0,-0.480050488,0.075437692,0.851428613,0.282448592,0.415642655,-0.345487225,0.9231080261602228,0.0161474366903071,0.3788470950918001,0.063919565607209,1.35,6.0,0.042290877,0.028253632,0.978757996,0.685080286,0.921866937,-1.372858646,0.993480799134732,0.085939662757411,0.0317935289095174,0.0678192276219405,1.351,7.0,0.005012798,-0.104199886,0.973985757,0.080737015,-1.254169642,2.319623454,0.9893686094678688,-0.0844529218303868,-0.0428343263168467,-0.110375174214622,1.351,8.0,0.284799613,-0.113050977,0.930956313,0.723112404,0.506552038,-0.449489554,0.969103528888895,-0.0761883777422485,-0.2104684148453477,-0.1036181824998963
21,21,1.458,0.0,0.109603519,-0.076780876,0.970430196,0.033522974,-0.287711482,0.106239397,0.993810699694288,-0.0588256979976608,-0.0942126382544658,0.0019517226674377,1.458,1.0,0.138320837,-0.041427774,0.969309592,0.229288266,-0.14693347,0.276826825,0.9947785892713602,-0.0251836853230704,-0.0988920597342525,0.001304163466855,1.458,2.0,0.132921243,-0.060147241,0.969462868,0.156655794,-0.111874416,0.288119024,0.9945343120890204,-0.0371478512105543,-0.0968400362691267,-0.0119810935833021,1.458,3.0,0.169063766,-0.104626644,0.959828479,0.048156437,-0.500982514,0.436837668,0.9832135597376164,-0.0632310959889342,-0.1321231994424838,0.1087951497871306,1.458,4.0,0.178538281,-0.135834798,0.952870395,-0.01726649,-0.565937438,0.285817612,0.9828418123220244,-0.0903959409123553,-0.1440292202227571,0.0714571867634984,1.435,5.0,-0.488168569,0.083159291,0.844254097,0.358573454,0.081890085,0.320591794,0.9246813385331238,0.039380839419805,0.3716349173719526,0.0728083775751382,1.435,6.0,-0.065487225,0.081033763,0.974867146,0.492054715,1.909847813,-2.131218903,0.9853961015090494,0.0948789610115278,0.1377512170901013,-0.0318921319189554,1.435,7.0,0.097891553,-0.098785318,0.969717333,-0.241884259,-1.137297901,-0.093218958,0.984042051263475,-0.0994457364697457,-0.0979871464412624,-0.1103191097474085,1.436,8.0,0.312522365,-0.10169096,0.922215658,-0.063416044,-0.561042867,-0.254275776,0.9626062484078458,-0.0787637167897849,-0.2326773840640164,-0.1142222499724005
22,22,1.52,0.0,0.123406533,-0.067428914,0.970297464,0.222883566,-0.211767238,0.023361412,0.9937827623402898,-0.0453953134738913,-0.1015511811964369,0.0047375507932353,1.52,1.0,0.144408076,-0.03221986,0.968909794,0.081971034,-0.066126435,-0.106839039,0.9948079206095648,-0.0196964862276795,-0.099783174521604,-0.0035450818253135,1.521,2.0,0.140092079,-0.043820879,0.969292494,0.223810777,-0.116044301,-0.179979663,0.994466688768626,-0.0238309462419338,-0.1004048530575374,-0.0196712077227933,1.521,3.0,0.192268028,-0.102817061,0.955792685,0.161957635,-0.386238459,0.423285327,0.9789781791382612,-0.0538350389948359,-0.1461444001029549,0.1317016615920486,1.521,4.0,0.205996348,-0.134137314,0.948726349,0.175061457,-0.440063709,0.486750069,0.9789347422394976,-0.0808187402274617,-0.1595807541147159,0.0984331477740748,1.52,5.0,-0.526714677,0.10196643,0.819324414,1.021364743,0.052239173,-2.29963016,0.9260697258767704,0.0430462275005363,0.3711544277517204,-0.0527851861111468,1.518,6.0,-0.229265117,0.0127694,0.953192766,-1.753958845,0.638020617,-1.156400845,0.9828549803964892,-0.0070145145616848,0.168522036094533,-0.0744795773741616,1.522,7.0,0.192186803,-0.117166942,0.95273141,-0.328571045,-1.616887383,-0.521914542,0.9686151854583888,-0.118570664805752,-0.1766107335242107,-0.1285856475310254,1.522,8.0,0.359590091,-0.102579294,0.90594175,-0.241801515,-0.751351794,-0.601928402,0.9499042703555884,-0.0870423665540625,-0.2641896232633073,-0.1425108646555659
23,23,1.605,0.0,0.13291602,-0.052497837,0.969502093,0.311729489,-0.103821562,0.071290656,0.9942073268356956,-0.0283493054983259,-0.1031839784791725,0.0100585649668403,1.605,1.0,0.148391912,-0.02414291,0.967965371,0.230961848,-0.067954352,-0.006448414,0.9948733444215068,-0.0074819709213331,-0.1008162604140171,-0.0026702634385945,1.605,2.0,0.146231742,-0.026865532,0.968386555,0.310653448,-0.043056964,0.104266761,0.9948496438812936,-0.0080827562845147,-0.1002123849888918,-0.0128970157380273,1.606,3.0,0.197364672,-0.094900791,0.955195282,0.228242232,-0.143869366,0.27099353,0.9772368587760778,-0.0418171422958264,-0.1471737329369647,0.1469671418823741,1.606,4.0,0.217910491,-0.123432849,0.946388055,0.333332883,-0.154799078,0.263793593,0.978346866582984,-0.0629810194768491,-0.1604941657170844,0.1145094869593395,1.54,5.0,-0.549267381,0.107118648,0.804531503,-0.210662398,-0.194268304,-0.530132869,0.9315463792922704,0.0255417701566855,0.3554008464660482,-0.0725203387743108,1.539,6.0,-0.239863182,0.001192861,0.950424237,0.468480048,0.324180477,1.18829218,0.9837449684945012,0.0289034279990823,0.17614963409927,-0.0195380454075657,1.54,7.0,0.270756795,-0.149887878,0.930079772,-0.800240199,-1.02044392,-0.53512254,0.9506601255275112,-0.1558979909752738,-0.2191145699645228,-0.1546930747355947,1.54,8.0,0.410787171,-0.086264269,0.885309763,-0.040480087,-0.925714809,-1.237630489,0.9283994795471932,-0.0779310340728968,-0.3055077186353779,-0.196637214583192
24,24,1.636,0.0,0.124422218,-0.025600011,0.971817756,0.450884691,0.246038707,0.039260488,0.996125721194763,-0.0046201664925611,-0.0867078437303343,0.0139266460941051,1.636,1.0,0.147054142,0.0016616,0.969121932,0.35950452,0.107655575,-0.167991636,0.995565754914854,0.0120845024834703,-0.0928222436106216,-0.0093179145539082,1.636,2.0,0.144265496,0.000646822,0.968838505,0.504829688,0.031722902,0.185240765,0.9951951524968934,0.016874763893577,-0.0964385582226164,-0.0012063491054559,1.636,3.0,0.192759995,-0.072928876,0.957651274,0.55001364,0.186540369,0.422504486,0.9766212112073248,-0.0174703858118582,-0.1291825547107841,0.1709317495315536,1.637,4.0,0.219181165,-0.10435453,0.949108924,0.348718256,0.001040148,0.28746928,0.9783103417997926,-0.0459585495745882,-0.1535220684421041,0.1312541860278408,1.615,5.0,-0.504031244,0.070227047,0.835879577,0.248375085,-1.324781922,-1.529110258,0.94810800421042,0.0082843816250023,0.281684725906848,-0.1472287219397399,1.615,6.0,-0.220749912,-0.041515648,0.95398319,-0.245345047,-0.703972192,-2.811946616,0.9788722360821844,-0.0132654377999554,0.1321269100151826,-0.1554852187099456,1.615,7.0,0.331641002,-0.16535645,0.906673861,-0.147995392,-0.48732891,-0.780991637,0.9394534574303874,-0.1537095709704083,-0.2405939671446424,-0.1895128282934609,1.615,8.0,0.52049186,-0.049829914,0.828358741,-0.391439341,-2.434809147,-2.267503957,0.8608254616481046,-0.0838160744990807,-0.409517176467207,-0.2902586302114349
25,25,1.742,0.0,0.108890706,0.005691238,0.973722971,0.521159724,0.296490786,0.124856391,0.9971694851848844,0.021446970658399,-0.0685387725163614,0.0222594233447546,1.742,1.0,0.139853465,0.01015722,0.970109189,0.06134881,0.0898034,-0.421499433,0.9957209108024032,0.0163811651765422,-0.0858901708719124,-0.0299065839889071,1.742,2.0,0.147222301,0.012323277,0.967880536,0.018122071,0.080953756,-0.107326523,0.9957532878904762,0.0172386319658527,-0.0902121097166358,-0.0063241192055644,1.743,3.0,0.176427895,-0.044955729,0.963014631,0.390125992,0.280890228,0.12609771,0.9778205352580868,-0.0005738723262617,-0.108452657241759,0.1791778240613035,1.743,4.0,0.206585043,-0.076224848,0.955113811,0.527342061,0.288722238,-0.002098238,0.981981994467632,-0.0198031104695295,-0.1314827903726045,0.1342813285343013,1.676,5.0,-0.422042433,0.044700568,0.882754237,-0.609384962,-2.129183312,-0.037629614,0.9745157135772736,-0.032881798110846,0.1741841986548531,-0.137469183030023,1.676,6.0,-0.170637625,-0.068659998,0.961259385,0.168366303,-0.773599212,-2.519703515,0.957335528685128,-0.028339587627765,0.085268732056037,-0.2746539579613054,1.676,7.0,0.208397915,-0.139058904,0.946905449,1.117258797,3.372442265,1.491926944,0.9879856372027253,-0.0756808881124612,-0.0590850098242288,-0.1211022108373956,1.676,8.0,0.636589545,-0.022460986,0.745351095,0.340314576,-2.054037475,0.772501025,0.8328603133623538,-0.1178905501151774,-0.4862749136697416,-0.2366056317059848
26,26,1.771,0.0,0.094826436,0.026794177,0.975414793,0.241680867,0.165388782,-0.389965724,0.9977716109324412,0.03398141384612,-0.057293649298201,0.0038096824532254,1.771,1.0,0.132058671,0.030369041,0.969258597,0.426420656,0.185428224,0.335327858,0.9963828741586556,0.0361686690268696,-0.0760758463231363,-0.0112009406024605,1.771,2.0,0.127918318,0.023168153,0.971587948,0.341844557,0.360259858,0.14631249,0.9969853857759958,0.0331465579521756,-0.0700960482564512,0.002826705474766,1.772,3.0,0.164582743,-0.027379382,0.965975098,-0.052608915,0.211691914,-1.189813987,0.9881503489995924,0.0015778086875963,-0.0958563155779502,0.1198664467461573,1.772,4.0,0.188205723,-0.039888326,0.960668792,0.526531472,0.401109426,-0.288973516,0.986873324222571,0.0066564818866588,-0.1046523829245281,0.1228194281659173,1.735,5.0,-0.537271838,0.121123475,0.777736508,-16.75612499,-3.826544771,26.94295102,0.3750820070941999,-0.2529031584612684,0.3678656453176851,0.8124212868884618,1.735,6.0,-0.048357749,-0.003208255,0.971143777,27.40956506,0.023302882,27.20357436,0.2000892974115029,0.2878450929362872,-0.4350476432209295,0.8293630228445118,1.736,7.0,0.598038077,-0.397157801,0.84096441,-4.250005838,17.00429692,4.355906102,0.7512242374241406,-0.1604741109260637,0.6345102415412992,0.085480747588039,1.736,8.0,1.10009514,0.13790486,0.532599223,4.574657834,1.288546131,0.03906032,0.8668888981393944,0.0998556994991627,-0.4743523593967219,-0.1162854964944593
27,27,1.853,0.0,0.094707089,0.039463901,0.97420489,0.086632056,-0.089710343,-0.366333268,0.9973628987833164,0.038002963534949,-0.0601491037905864,-0.0143215992923434,1.853,1.0,0.111716212,0.041495142,0.973307578,-0.062580741,0.281261081,-0.070296721,0.9975840013170044,0.0319080735680326,-0.0600107322178852,-0.0143787056512471,1.853,2.0,0.101725312,0.044060268,0.973151917,0.198842939,0.301702782,-0.474440072,0.997493818767806,0.0436224068894327,-0.0521406448704869,-0.0196091889093271,1.854,3.0,0.130705579,-0.025154832,0.970913635,-0.235180402,0.812606304,-1.551725676,0.9976523091583762,-0.0082301160346152,-0.0541655420215057,0.0410880673496951,1.854,4.0,0.142708929,-0.027403728,0.968617157,-0.296331308,0.890686948,-1.394355494,0.9968769364504438,-0.007471189429317,-0.0591416590675054,0.0517959367560028,1.794,5.0,-0.287853937,0.033872716,0.93642178,-0.894243542,-1.94043459,2.772630181,0.2986142790266479,-0.1255592218706402,0.3012149730468643,0.896846661462823,1.794,6.0,-0.074388759,-0.019281455,0.977627505,0.673497356,-1.935853622,2.076420782,0.0666962023492814,0.3004001629645024,-0.4223975490919746,0.8525794210536499,1.795,7.0,-0.086747212,-0.093223823,0.97161373,0.526963722,4.719566697,2.328276773,0.6277643302556375,-0.0850673645269791,0.7650908278919609,0.1153755356508425,1.795,8.0,0.634267504,0.019270283,0.746803448,0.503568257,4.458592968,-6.372910345,0.893326334521966,0.2737961554506437,-0.1558066955836886,-0.3205120885727823
28,28,1.92,0.0,0.094049997,0.041823513,0.974183449,-0.029584685,0.015312556,-0.240932117,0.9973507018240092,0.0355323591650792,-0.0577538939123853,-0.026334706401946,1.921,1.0,0.10573737,0.039065922,0.973901156,-0.026373241,-0.015839308,-0.179627832,0.9974815960222024,0.0298494195295669,-0.0599390079043654,-0.0233836071252447,1.921,2.0,0.09705349,0.054261874,0.97347022,-0.037656503,-0.073694173,-0.668670846,0.996247757909247,0.0417120934990504,-0.0541492584446475,-0.0530882654323848,1.921,3.0,0.090209106,-0.022995658,0.975427351,-0.076906778,0.589446086,-0.967130649,0.9996107963988472,-0.0108151586714065,-0.0245321168764023,-0.0077112455114459,1.921,4.0,0.081002368,-0.029188164,0.975766708,0.062927205,0.97006223,-0.184697821,0.9990441591710078,-0.006808123902431,-0.0088026436807416,0.0422721059264021,1.869,5.0,-0.221510097,0.049963957,0.952961636,-0.134469093,-0.202928513,2.216406859,0.207010879612291,-0.0807268290852516,0.282456211739233,0.9331924577695148,1.869,6.0,0.01236667,0.047106741,0.979077638,0.937191541,-1.051438122,1.109027702,-0.0140756696470837,0.2990496942389697,-0.370134191298947,0.8794156220644704,1.87,7.0,-0.280480916,-0.122564023,0.930706461,0.014088467,1.932268237,-1.699179784,0.6027207624875638,-0.162060023255925,0.7794911447375802,0.0534582697474913,1.87,8.0,0.837228603,-0.231714665,0.453627139,-1.217852771,-5.210569663,3.489909408,0.896431054729797,0.067323786927867,-0.3991731883541053,-0.1803874649994638
29,29,1.983,0.0,0.092815378,0.038096256,0.974947168,-0.140541402,0.067769611,-0.021688998,0.9978393689368276,0.026940913894724,-0.0531698267576046,-0.0276360359103324,1.983,1.0,0.116589155,0.039969532,0.972344798,-0.067263267,-0.293634273,-0.440202077,0.9958609062080797,0.0263887883354539,-0.0738893523964519,-0.0458808341144944,1.983,2.0,0.112807518,0.047999374,0.971860342,-0.213893859,-0.358491035,-0.353831077,0.9944369456074452,0.0290517599737072,-0.0713411076560714,-0.0718442956105072,1.983,3.0,0.058680099,-0.024534476,0.977312491,-0.284928577,0.433841485,-0.354286325,0.9993516958885864,-0.0246403255663492,-0.0037031793098111,-0.0259870880167435,1.983,4.0,0.039088732,-0.022545154,0.977795882,0.231003431,0.613085401,0.493436333,0.9975478736659692,0.0028221403225542,0.0210396676963599,0.0666903865015814,1.96,5.0,-0.212216085,0.059607484,0.955333073,-0.504559371,-0.578114018,1.902647342,0.1286960967993429,-0.0305010824357072,0.2386214603633932,0.9620638218397498,1.96,6.0,0.1283446,0.08014368,0.968749015,-0.323440036,-2.441106646,1.141967782,-0.1018712645390724,0.3685960395446259,-0.3642457060312477,0.8491668097205782,1.96,7.0,-0.436316971,-0.16055464,0.862634168,-0.034834087,1.747107542,-1.860803359,0.5787703100151894,-0.2379573639461145,0.7798159847173792,-0.0169779612439795,1.96,8.0,0.727258652,-0.276665094,0.596487451,0.495241975,2.296291555,2.218345448,0.9531653563202752,0.0417417752971404,-0.2958038922627818,-0.0472597611935786
30,30,2.042,0.0,0.098998078,0.0220148,0.974545909,-0.285783052,-0.056102764,-0.004500639,0.9979986026679246,0.0109063316732179,-0.0553332639659868,-0.0286019387660014,2.042,1.0,0.139367064,0.029795092,0.969766505,-0.263513491,-0.400056482,-0.378755415,0.9934244392186998,0.0123345381000666,-0.0926850459438326,-0.0660698493358314,2.044,2.0,0.141893168,0.03238113,0.969391454,-0.300139054,-0.507442859,0.015077304,0.9927038503051095,0.0105025133111314,-0.0956436818709933,-0.0726708257949521,2.044,3.0,0.040157025,-0.04320898,0.976914222,-0.12288741,0.202113047,-0.128632547,0.998994257451548,-0.030288589756271,0.0047345751856707,-0.032720921552086,2.044,4.0,-0.000672282,-0.00987227,0.979907693,0.116432146,0.464025573,0.022217391,0.9967834840090916,0.0063146387092653,0.042441971435284,0.0676867077449844,2.019,5.0,-0.102939764,0.041527452,0.972934158,-0.037360376,-1.927140682,-1.81813178,0.242924073505624,0.0361889673308527,0.1985992854219342,0.9488079768767008,2.019,6.0,0.22894617,0.036998782,0.952598415,-0.4094028,0.029854157,-0.960583194,-0.0502385309456144,0.3696710676310753,-0.3326661063404133,0.8661135338148436,2.02,7.0,-0.398536422,-0.140141329,0.883845647,1.250747634,-2.246114699,1.449087705,0.7261617058131142,-0.1281665041277411,0.6754664168029313,0.0027647787742655,2.02,8.0,0.492831069,-0.304332918,0.790147463,1.66522735,5.669941039,1.045538672,0.9937592794421816,0.1006007840530943,-0.0090067088715509,0.0473376801899067
31,31,2.146,0.0,0.101932561,0.00163818,0.974119125,-0.352642086,-0.024344528,-0.060886759,0.9978850766344004,-0.0077096301473725,-0.0557328787142804,-0.0325542879443973,2.15,1.0,0.165579289,0.015462493,0.966231551,-0.377625174,-0.35586061,-0.748622678,0.988548148788729,-0.0050465075010399,-0.1083577890822354,-0.1049079588669451,2.15,2.0,0.172756639,0.013443505,0.96431085,-0.391954191,-0.510214862,-0.269306225,0.988954190708252,-0.0104485383940473,-0.1188430733130245,-0.0879588577206969,2.151,3.0,0.036531745,-0.048519493,0.977724036,-0.118105949,-0.01871897,0.045307314,0.9988957780411328,-0.0357173306778968,0.0018187466688219,-0.0304661953876759,2.151,4.0,-0.01654392,-0.005518341,0.978842606,0.041886047,0.112980406,0.52394999,0.9945729130986772,0.0081585365490218,0.0445660989579508,0.09365907129296,2.037,5.0,0.041937192,0.018418947,0.978989282,-0.490192289,-2.166634738,0.705725564,0.2339575749281092,0.1402183907619231,0.1273484996111167,0.9536168075661692,2.036,6.0,0.215430877,0.03635104,0.955030962,0.24857221,0.289507531,-0.357230294,-0.0311625229420297,0.3438164358333964,-0.287787499638816,0.8933070640414448,2.037,7.0,-0.272156005,0.003637758,0.941374461,1.714129441,-1.561097735,2.458107024,0.8207523232307125,0.0346374647153951,0.568220402976385,0.0478690253800155,2.037,8.0,-0.012766237,-0.130615133,0.970212714,1.747693718,5.646904007,1.093291889,0.9471780855913666,0.1504224160275022,0.2556715947003929,0.1218967046120632
32,32,2.176,0.0,0.092811295,-0.020807565,0.975530168,-0.370381501,0.318857743,-0.087439926,0.9982024776385122,-0.0258748451168978,-0.0384394958877679,-0.0380093565113453,2.177,1.0,0.178024055,-0.000459916,0.964085694,-0.417935311,-0.143746274,-0.773198423,0.982789814433362,-0.0226186994635544,-0.1122328569365445,-0.1449702069546569,2.177,2.0,0.197202685,-0.005422347,0.960131084,-0.317842612,-0.300801205,-0.300905602,0.9855549511032922,-0.0257661655946908,-0.1307853710250734,-0.1044640119475026,2.177,3.0,0.038554192,-0.063786143,0.976808017,-0.104212053,-0.032872558,0.206505796,0.9989674229743708,-0.0406981925319092,-0.001293159272116,-0.020151245611049,2.177,4.0,-0.018363184,-0.025773641,0.979485331,-0.544366182,0.003866859,0.254308788,0.9932540618751752,-0.02053878691404,0.0388097616389253,0.1073234792675629,2.125,5.0,0.188729442,-0.021749461,0.961310646,-0.632485111,-1.906659818,1.10004265,0.1982990023008581,0.2292697334907411,0.0502618207694766,0.9516231630033528,2.124,6.0,0.244055544,0.033740364,0.948116279,-0.251070223,-1.059074116,1.435939599,-0.1026951512798466,0.35291890005883,-0.2949704958357693,0.8819831985198332,2.125,7.0,-0.170478152,0.137357837,0.955606626,0.747523118,-0.52115514,5.203411936,0.834247331951953,0.2150581202670859,0.4480656103626123,0.2387856839272727,2.125,8.0,-0.377461297,0.066863337,0.902140933,0.498007744,2.634058095,2.311593687,0.8904333465781736,0.1719777045231376,0.3485791228862515,0.2367376597341416
33,33,2.262,0.0,0.06339566,-0.03745563,0.977666132,-0.174816635,0.471075979,-0.228646597,0.9980954614617268,-0.032700715487611,-0.0142737152773858,-0.0503226993342116,2.263,1.0,0.170869334,-0.018201557,0.964295792,-0.415850246,0.280025275,-1.340789164,0.9720365336485964,-0.0331756875284561,-0.0948962533689903,-0.2122240610910172,2.263,2.0,0.206906386,-0.021474343,0.95727248,-0.445644623,0.015602316,-0.432513287,0.9826665357361222,-0.0443788632235279,-0.1259642205718546,-0.1285690910720032,2.263,3.0,0.045606856,-0.070018059,0.976157511,-0.032302552,-0.277375101,0.305253218,0.9989633872610292,-0.0421570110100401,-0.0165955987241267,-0.0044185334284386,2.263,4.0,-0.004975063,-0.062709422,0.978258032,-0.889548432,-0.266970649,0.056643877,0.99152577107744,-0.0642280666868721,0.0169767881932477,0.1116386554988743,2.217,5.0,0.275053553,-0.101872815,0.934902387,-0.990707144,-1.103004009,0.735359404,0.1761306902894347,0.2665225667757038,-0.0292673440087595,0.947146833343242,2.217,6.0,0.327634205,-0.052857052,0.922010824,-0.621110959,-1.271942884,3.683131693,-0.27280783536764,0.3473912561646712,-0.3507007671143206,0.8257748918729495,2.217,7.0,-0.201151223,0.095726695,0.95460127,-1.144505069,0.58381766,-0.987412207,0.8616464974218098,0.1194638367478722,0.4363899588883661,0.2299076096426881,2.217,8.0,-0.246893433,0.090005887,0.943739674,-1.751089135,-3.227391365,0.55861943,0.9497921128874371,0.1175249891506082,0.1455802336317359,0.2507772214490303
34,34,2.31,0.0,0.048233601,-0.061605096,0.976709441,-0.436066927,0.077097832,0.179579363,0.9975988236493104,-0.0543737513517286,-0.009713246119179,-0.0417819945344947,2.31,1.0,0.159653942,-0.034862353,0.965091309,-0.287297912,0.078876008,0.017077813,0.9721886746765656,-0.0465501986975285,-0.0860905741907146,-0.2127690599390716,2.31,2.0,0.201507685,-0.039063698,0.957957035,-0.288586942,0.219420375,-0.358103597,0.981130571769989,-0.0537531020145341,-0.1116711894875538,-0.1484013160337339,2.31,3.0,0.068978763,-0.07003191,0.974498056,-0.469359801,-0.38911674,0.180202808,0.9971712556271828,-0.0651568400296566,-0.0371450209038534,0.0049315890248157,2.311,4.0,0.025708794,-0.10246685,0.974404743,-0.357071454,-0.460890148,-0.179296782,0.9914130184510012,-0.0781171798884446,-0.0121508651375154,0.104164723052292,2.306,5.0,0.222598732,-0.109307377,0.948063659,1.044455299,3.041185557,0.161862781,0.1601989989473754,0.1165244520296197,0.0395633608005533,0.979384027487492,2.305,6.0,0.443732304,-0.179491216,0.855033067,-2.193894093,-2.758802305,1.907223655,-0.3590034231717714,0.4580690876996339,-0.4075698436647264,0.7036874843139428,2.306,7.0,-0.186157502,0.055613819,0.959615802,-0.383928193,-0.436181839,1.880111933,0.8630460427971569,0.1381637679248268,0.3696851757833265,0.3152699986535878,2.306,8.0,-0.140415428,0.033853641,0.968906311,-0.453270393,-2.537539031,0.666791305,0.957197965767041,0.1195154937886121,0.0063595668287781,0.2635292336452509
35,35,2.386,0.0,0.051550232,-0.078072506,0.97502885,-0.109344183,-0.252789675,0.212084615,0.9975166705343516,-0.0591127137567441,-0.0229552060613155,-0.0306469834250893,2.386,1.0,0.148507847,-0.03902258,0.967202491,0.262836874,0.280381009,1.186214131,0.9849642661110348,-0.0345557142483204,-0.0712339939426,-0.1535480875951403,2.387,2.0,0.173370913,-0.045452777,0.963388588,0.226576499,0.560025425,0.63271811,0.988934472381049,-0.0401267331791423,-0.0815244644514382,-0.1172698440209265,2.387,3.0,0.070703484,-0.121654868,0.969692276,-0.591769995,-0.065178097,0.261208689,0.9945858362353448,-0.0947130091724725,-0.0392103320015567,0.0170590186664633,2.387,4.0,0.060705924,-0.132618811,0.968075432,-0.392207503,-0.140302757,-3.052771133,0.993766857522917,-0.092748145150361,-0.0377382704276579,-0.0490003816854782,2.38,5.0,-0.259341968,0.091706287,0.940339141,2.323785671,6.57306787,-1.963250915,0.2468136743507885,-0.2189836053321171,0.2272957803870668,0.9162236730010008,2.38,6.0,0.396819331,-0.452903195,0.773166939,0.521289598,1.033288745,-0.353012504,-0.3402940043573205,0.4076341541719879,-0.3773649919772032,0.7587028731861988,2.38,7.0,-0.191809363,-0.021810243,0.961219268,-0.979558551,-0.091764894,-2.592785172,0.9206380650051206,0.0286308236975795,0.326115864133746,0.2127305158136123,2.38,8.0,0.027800695,-0.017438097,0.979973997,-1.310896037,-2.807968841,-1.672927465,0.9741922633987288,0.0772969416468328,-0.1431867104176905,0.1564358741013984
36,36,2.474,0.0,0.061754055,-0.081594268,0.974336601,-0.017649229,-0.182502814,0.285592445,0.9976231427506272,-0.0589488439321988,-0.0319142415686199,-0.0159555643121343,2.475,1.0,0.114877472,-0.028608773,0.972638527,0.248013744,0.588533087,1.322999331,0.9951088616658614,-0.0212045540418173,-0.040693088566533,-0.0874802427115813,2.475,2.0,0.119821082,-0.025944434,0.972211291,0.283557597,0.931181515,0.380949605,0.9943238316063914,-0.0200932366529968,-0.0341490662176107,-0.098743207446673,2.475,3.0,0.099789546,-0.13274332,0.965444073,0.094828274,-0.602350151,0.904332034,0.9917742800199536,-0.0883880835320393,-0.066228389428913,0.0646925390913651,2.475,4.0,0.087484475,-0.132864582,0.96611359,0.177532393,-0.612361841,1.348875332,0.9941146379002104,-0.0854483694127745,-0.0630988355528241,0.0212884905314895,2.461,5.0,-0.456383624,0.072027497,0.864048047,0.007216494,1.668105689,-1.751167705,0.3132128933419029,-0.3177102788990603,0.2143759838789644,0.8689078200029052,2.461,6.0,0.568254513,-0.20279461,0.772345877,1.334537749,-1.591506226,-3.113625027,-0.2759945174818399,0.508780521491092,-0.1951692035841922,0.791756521440481,2.461,7.0,-0.16166444,-0.06413227,0.963484126,0.404203558,-0.63414225,-2.19521364,0.9560692933878148,0.0110498807142692,0.2752511015730589,0.1002309206779156,2.461,8.0,0.159073892,-0.062239714,0.965136112,1.602098236,1.522713338,1.205110862,0.9635570592379604,0.1242174788853887,-0.0583205212714397,0.2296225780072142
37,37,2.575,0.0,0.081351549,-0.080809094,0.973186938,0.08103941,-0.276634459,0.243512999,0.9974861644300228,-0.053811944249917,-0.0460090653353083,-0.0029651869580804,2.575,1.0,0.076004369,-0.013054131,0.976630394,0.573103815,0.496911233,0.942557495,0.9990084244970174,0.008835851144206,-0.0184499105090066,-0.039543600250277,2.576,2.0,0.070606835,-0.008069548,0.977637743,0.329671298,0.827538399,0.393771973,0.9968483462326688,0.0010160292942804,0.0053635029988653,-0.0791427516153403,2.576,3.0,0.123538463,-0.131710539,0.962457055,0.218950566,-0.472228332,0.861529436,0.987322722926429,-0.0763027189935577,-0.0855835965704083,0.1097596641093875,2.576,4.0,0.116416442,-0.121605747,0.964069113,0.128405343,-0.565270381,1.031998136,0.9902561600125426,-0.0791725049714397,-0.0865389813970037,0.0750696790490689,2.496,5.0,-0.589390108,0.181613037,0.761313999,1.526110064,2.154176872,1.764952116,0.2389353024886348,-0.3710934263233247,0.3394637118180159,0.8306407036276363,2.496,6.0,0.43331024,-0.089108605,0.874225882,1.577214134,4.168603377,-1.196234758,-0.2313330006655005,0.3202823146248007,-0.1458399076992752,0.9069922839054048,2.496,7.0,-0.025306743,-0.05361227,0.977937776,0.3540192,-2.952542123,-1.927882616,0.9948161822194118,0.0128904530552101,0.1008404661038875,-0.0024083625923761,2.496,8.0,0.248514273,-0.078885403,0.944707229,-0.305291838,-1.254606904,-0.371931637,0.9643468170006348,0.1117415696447582,-0.1275864732574984,0.2031519874275985
38,38,2.586,0.0,0.089737153,-0.082721105,0.972174091,0.120445485,-0.182208876,0.09891481,0.9973879564325429,-0.0469204615184864,-0.0548500340056996,0.0026848507932277,2.591,1.0,0.048347339,0.01801833,0.978525357,0.523947245,0.446149071,0.148236982,0.998868675117345,0.0356812097326711,0.0018860810255837,-0.0313793537170234,2.591,2.0,0.023143876,0.017878783,0.979355763,0.249875162,0.647585215,-0.082459904,0.9957858594558736,0.0167092665886151,0.0349000735208133,-0.0831463010965552,2.591,3.0,0.148258962,-0.120656245,0.96162069,0.24405929,-0.378794291,0.182302042,0.9855354139201804,-0.0606497621460098,-0.1019934776734535,0.1209912590763739,2.591,4.0,0.146026335,-0.11935312,0.960172975,0.018889283,-0.431672283,-0.178012626,0.989136935510714,-0.0734715642697697,-0.1077271197045665,0.0678595588873443,2.56,5.0,-0.604947366,0.211550595,0.74144658,0.413848741,-0.857808539,-0.777633926,0.2983203011135121,-0.3352800834649148,0.3183199738345195,0.8350237468678924,2.56,6.0,0.099819223,0.072995733,0.972383538,2.013006044,5.474836103,-2.877372628,-0.0983605434866301,0.0653322130458473,-0.054454461958523,0.9915097664654416,2.56,7.0,0.102955842,-0.083095745,0.971197298,-0.465786094,-1.278217844,0.802195262,0.9989414248985636,-0.0120558638149071,0.0220376882721465,0.0385360359264335,2.56,8.0,0.322923695,-0.087480676,0.920245847,-0.335276236,-1.024260787,-0.860705424,0.966269612547205,0.0994809622576458,-0.1804581709453836,0.1544714295758728
39,39,2.641,0.0,0.094610746,-0.070343365,0.972373189,0.25660709,0.021235349,0.073287931,0.9980184727266844,-0.033207854215397,-0.0529895417205809,0.0069623977872549,2.641,1.0,0.014936479,0.037417619,0.979143413,-0.006631759,0.64067,-1.887727749,0.9910922752854476,0.0343335298983044,0.0358745575076833,-0.1235731634209662,2.641,2.0,-0.020626726,0.023624937,0.979015015,0.00317572,0.588834217,-0.562514703,0.9917826466883918,0.0179395838046607,0.0620370606796222,-0.11043892503514,2.641,3.0,0.164766017,-0.103810697,0.960757773,0.336657728,-0.104127376,0.085032889,0.985561079648721,-0.0420515736687703,-0.1037156358834112,0.1270593967675227,2.641,4.0,0.165737342,-0.109137611,0.959827128,0.344775823,-0.24201654,0.069719404,0.988995657657967,-0.0536273904774825,-0.1163961498954828,0.0739163609342976,2.636,5.0,-0.560462871,0.254495913,0.761862981,-1.183281242,0.273193502,1.093870039,0.2312195534421945,-0.334468590126612,0.2837760298173525,0.868412025035242,2.636,6.0,-0.186485012,0.04261738,0.960805963,0.245268626,4.893328383,-0.275199229,-0.0752382851871779,-0.1996416534142436,-0.0575751501228509,0.9752781719860498,2.636,7.0,0.211979556,-0.115099491,0.94957347,-0.495194681,-1.451419454,0.49265401,0.9952399548080528,-0.0375926571011426,-0.0634307048123855,0.0637241725936432,2.636,8.0,0.383213822,-0.106090571,0.895190459,-0.103079298,-1.555812761,1.476969446,0.9369206438135854,0.0816028835234626,-0.2618901281606491,0.2166431105957255
40,40,2.714,0.0,0.075377917,-0.038363902,0.976891182,0.602463006,0.420470786,0.19862493,0.999381915806954,-0.0023591375343395,-0.0302625723527707,0.0177312589149759,2.714,1.0,-0.015007826,0.067452262,0.9773382,0.24947322,0.341201345,0.080269637,0.990497189611646,0.0490147793848765,0.0477812714191357,-0.1192888044824582,2.714,2.0,-0.049932745,0.043584354,0.977348006,0.754705427,0.328282952,0.260561403,0.9909138458705932,0.0586333955414768,0.0694103566815056,-0.0991669167342268,2.715,3.0,0.143963483,-0.076310899,0.965231663,0.577215891,0.388642493,0.645438064,0.9837951588667966,-0.0181528717884502,-0.0776772841195782,0.1605733420213111,2.715,4.0,0.157050502,-0.093145928,0.963114207,0.160519076,0.31687306,0.026795802,0.9913963156947478,-0.0457793089382486,-0.0967518384542374,0.0753437579082798,2.762,5.0,-0.562383802,0.142732629,0.789544714,-0.065029436,-1.088844895,-3.701963157,0.41471716300274,-0.3401066074332188,0.1842905847481665,0.8236347191955934,2.762,6.0,-0.325587233,0.077103944,0.921066195,0.837178375,-0.385504546,-1.393380983,-0.0016252484831729,-0.1743590519884023,-0.0211135776536549,0.9844544156007106,2.762,7.0,0.275221286,-0.162574593,0.926322701,-0.359595566,-0.938900142,0.236354828,0.9884371425242476,-0.056769291830031,-0.1185315718371419,0.0756275694534327,2.762,8.0,0.575012073,-0.163318074,0.775756613,-1.245135388,-3.273592769,-0.487813471,0.8909531553815546,0.0580977963312871,-0.4219886403434491,0.157329934844539
41,41,2.828,0.0,0.048594733,-0.005546596,0.978529911,0.586911823,0.47550328,0.007858477,0.9994540897265024,0.0265358594603747,-0.0054280893901999,0.0189184179370065,2.828,1.0,-0.021619204,0.081318139,0.975914428,0.181180866,0.034434423,0.251355358,0.9916029481416676,0.0581570211204479,0.0435007929790995,-0.1070001642117354,2.828,2.0,-0.044026176,0.081149748,0.975359633,0.7307712,-0.338905022,-0.101291577,0.9890427828241362,0.0911857163295101,0.0443388081468068,-0.1073014863507652,2.828,3.0,0.115302961,-0.034215797,0.972201371,0.737233138,0.370626851,0.769494466,0.97828697230146,0.0130112861588993,-0.0523534568867717,0.2001110237086852,2.829,4.0,0.142243131,-0.082095637,0.966052378,0.322055294,0.234482456,0.542473564,0.9908446956216876,-0.0323639364703252,-0.080894552515268,0.1031282509687072,2.773,5.0,-0.519039958,0.094837486,0.825826479,-0.683352871,-1.527241502,0.181659161,0.4110818245451929,-0.279088400438065,0.125731164002159,0.8586693616684945,2.773,6.0,-0.176484612,0.118396262,0.956384079,0.089105086,-1.541131343,2.448324045,-0.1255732364808172,-0.0954834958154906,0.013366774648205,0.9873882689408916,2.773,7.0,0.197629102,-0.13924394,0.949905186,1.026741651,3.014740875,0.123922601,0.996179361052726,-0.0175708506389745,0.0382242027012084,0.0765300996227129,2.773,8.0,0.737280186,-0.219919305,0.606950925,-2.761685902,-3.035124706,1.998556246,0.8097138198265922,-0.0806093659362015,-0.5543149448888839,0.1749302774765601
42,42,2.849,0.0,0.029500278,0.031941553,0.978731051,0.49270787,0.133312305,-0.420425765,0.998739897097666,0.0501212372008359,0.0018191204599931,-0.0017805413651868,2.85,1.0,-0.012571695,0.067260945,0.977507503,-0.065818516,-0.221631473,0.414162773,0.994473556655216,0.0522501702491248,0.0276583377477359,-0.0867599053451228,2.85,2.0,-0.010721085,0.101426037,0.974557755,-0.074120204,-0.387809754,0.853087021,0.9941711695076167,0.0832989618610943,0.017409109094896,-0.0661958578254215,2.85,3.0,0.104812829,-0.022666911,0.973807723,-0.176638149,0.157403391,-0.595638018,0.9842738665225146,0.0029296271335187,-0.046504431486581,0.1703928132809235,2.85,4.0,0.129385156,-0.055498504,0.969694487,0.429505835,0.241002163,0.127451395,0.9916360651381404,-0.0117195315719712,-0.0654129721854649,0.1106422612157898,2.846,5.0,-0.365876783,0.058544333,0.906998203,-0.526843173,-1.238987366,2.697512005,0.2988146563539613,-0.2071802898451566,0.1129414857729558,0.9246785113968736,2.845,6.0,-0.090413831,0.127633457,0.967177357,-0.406552962,-2.686482931,-1.065798739,-0.074429668536401,0.0426708357883037,0.0096946175522298,0.996265746979793,2.846,7.0,-0.162041236,-0.109985058,0.95896972,0.411078279,6.461347176,-0.330245551,0.9375718908855992,-0.0258159162914889,0.3441479726303894,0.0430657732036166,2.847,8.0,0.712775693,-0.077532003,0.667608867,-1.644701945,-1.398512361,2.046326563,0.7574438366878231,-0.178278780229388,-0.5909667131178462,0.2127295343158558
43,43,2.941,0.0,0.031394528,0.045179184,0.978310393,-0.0243821,-0.023218191,-0.586937128,0.998453090006914,0.0461241982108876,0.0002305069553525,-0.0310472585197341,2.941,1.0,0.005396392,0.090485094,0.975561544,0.058640953,-0.156851947,0.299530669,0.995798057783796,0.0542547301528969,0.0153405311864403,-0.0721617660050922,2.941,2.0,-0.002241312,0.100096291,0.975128047,-0.257952263,0.081514087,1.159525087,0.9974988299937286,0.0683356239349936,0.0163706992575689,-0.0076372029156996,2.941,3.0,0.086283326,-0.024245809,0.975586659,-0.069269086,0.437128677,-1.581997745,0.9955289035589244,-0.0013414425527611,-0.0251902630667188,0.0910266628921036,2.941,4.0,0.102534305,-0.04496949,0.973459019,-0.080498223,0.539003029,-0.992643354,0.9972976945426074,-0.0159810986607504,-0.0385847080791896,0.0604411552507013,2.92,5.0,-0.328956265,0.109833071,0.915961501,-0.104608502,-1.004803878,0.396785489,0.285345053427091,-0.1540921678098081,0.0963229724610687,0.9410396852846477,2.919,6.0,0.069518977,0.112916919,0.971290833,-0.091414756,-1.837059562,-0.630942674,-0.0418795874047673,0.1337080773251554,0.018357386683326,0.989965280487642,2.92,7.0,-0.365331238,-0.075513382,0.904693769,0.003975441,3.176633878,-1.760779995,0.8836680861641308,-0.0640728646087463,0.4614858739095437,-0.0453450074186345,2.92,8.0,0.760356711,-0.320578748,0.526550983,-0.13681214,2.640978955,-2.715059341,0.867354383045692,-0.1210290280478398,-0.4774287816569157,0.0714850126027493
44,44,2.996,0.0,0.034291768,0.04089579,0.977801927,-0.154159873,-0.177942926,-0.621278205,0.9973808177263574,0.0355549065087029,-0.0091320856554444,-0.0623214093730371,2.997,1.0,0.040501091,0.082696845,0.97550443,-0.325188724,-0.649985385,-0.468545835,0.9945662441829248,0.033974172378732,-0.018908709398808,-0.0965722644029982,2.997,2.0,0.03307605,0.084287056,0.975995219,-0.793729625,-0.605719632,-1.941260578,0.9940598228807664,0.0241344284412859,-0.0145105685497072,-0.1051286892262805,2.997,3.0,0.053465726,-0.02087563,0.977962997,-0.103336909,0.544177362,-1.422611185,0.9997791049699708,-0.0078675633379798,0.0007592096334608,0.0194747609304927,2.997,4.0,0.06862235,-0.037382941,0.976528796,0.136120878,0.742084545,-0.969170119,0.9998864663132622,-0.0096136258788026,-0.0012226384720785,0.0115385370046204,2.993,5.0,-0.220579072,0.057456054,0.953002453,-0.87976824,-1.985796241,0.523444494,0.2654132083349427,-0.0647044804260085,0.0272211123156524,0.9615758784924108,2.993,6.0,0.14374812,0.089846475,0.965652675,-0.32910811,-0.696408986,-0.853576729,0.0037053957388534,0.1615773235463266,0.0121763021612993,0.9867779771679652,2.995,7.0,-0.484939829,-0.112863322,0.843703878,-0.057037142,1.009683516,-0.015580998,0.8697527699512924,-0.0629620681765766,0.4870087359579706,-0.0488711390659352,2.996,8.0,0.615087427,-0.389034913,0.655611389,0.320388258,2.885195428,3.299089105,0.9140434928994312,-0.1966901203393522,-0.2919012026038799,0.2015717677838523
45,45,3.09,0.0,0.03680686,0.032703185,0.978547269,-0.163808551,-0.175840844,-0.403571711,0.9960971088003696,0.02502067965314,-0.017934451803481,-0.0827216469114859,3.091,1.0,0.067971528,0.056289439,0.975659454,-0.569520879,-0.587999866,-1.296008412,0.985766296573412,0.0033325613085265,-0.0466960604576665,-0.1614719186508884,3.092,2.0,0.063922742,0.038217582,0.976286996,-0.778162164,-0.61801389,-1.297356994,0.9843696621896554,-0.0173524648706864,-0.0439050236174845,-0.1696691162960533,3.092,3.0,0.020955053,-0.038661418,0.978812638,-0.475846209,0.576905446,-1.507461028,0.9975457280133262,-0.0333538667765029,0.0253740767665491,-0.0560909647061227,3.093,4.0,0.008881242,-0.0285291,0.979099696,-0.006322767,1.014520623,-0.391415389,0.9987082332259636,-0.0109650506095935,0.0488739652972612,-0.0085421348575905,3.093,5.0,-0.047721769,-0.011947767,0.978623975,-1.422027991,-3.103933954,-0.881570265,0.3116986066973679,0.0662219753163241,-0.0900221273022351,0.9435860560458192,3.093,6.0,0.176411701,0.062240345,0.962189717,-0.289241981,-0.63271924,1.046803176,-0.0448862202785986,0.1872468590442244,-0.0089016901241381,0.981246452691732,3.094,7.0,-0.450910629,-0.120954947,0.861691073,0.427085188,-1.413156929,-0.093541213,0.9148712414974792,-0.0475383963426882,0.3964479443039771,-0.0598309268788093,3.094,8.0,0.347173062,-0.381140304,0.833556797,2.421839194,5.272822608,0.557907253,0.97430157505644,-0.1261376855522951,0.0098437727562542,0.1863567151029815
46,46,3.152,0.0,0.049834429,0.021920633,0.978409431,-0.299001591,-0.133669255,-0.313013093,0.9947994636400675,0.0082755020540264,-0.0240431682901298,-0.0986279334963498,3.153,1.0,0.089278569,0.028688937,0.974553889,-0.706118319,-0.586763671,-0.790888218,0.9763715405104016,-0.0336586505645757,-0.0709711576569643,-0.2013176716146581,3.153,2.0,0.106095828,0.004665404,0.974123149,-0.66721605,-0.8040341,-0.659763456,0.9746006125024856,-0.0541626988872573,-0.080131068212621,-0.2019877720708175,3.153,3.0,-0.002166269,-0.052459613,0.978693157,-0.0727837,0.245234597,-0.358857836,0.9959709595981664,-0.0360724225481297,0.0348672296607458,-0.0743296997464768,3.153,4.0,-0.034776177,-0.030525707,0.979307816,0.052504817,0.477942845,0.642388257,0.9972704162949766,-0.0070106183371232,0.0697830264792574,0.0230845668958772,3.149,5.0,0.124590005,-0.07628627,0.968917817,-0.648525497,-2.123168599,-0.629435876,0.335757836756141,0.1574003833862593,-0.1485095220072202,0.91675335627413,3.149,6.0,0.235004514,0.03327983,0.950736731,-0.457129741,-0.921923738,-0.10635002,-0.0353656712160279,0.2269257830681664,-0.0253383718395863,0.9729398363675208,3.149,7.0,-0.263038328,0.020161567,0.943789356,1.972319651,-2.862271012,2.363854499,0.9737016021935944,0.0934450512977728,0.2066840393372037,0.021328857373078,3.149,8.0,-0.197187916,-0.129275091,0.950825892,3.386335367,5.423843366,3.759725517,0.908807698795334,-0.0081994559666833,0.2941649729588741,0.2957504086493959
47,47,3.184,0.0,0.052462797,0.012482183,0.978495197,-0.338533642,-0.105984684,-0.385325197,0.9925591771642126,-0.009043949892585,-0.0281218007448055,-0.1181255735237348,3.184,1.0,0.12347082,-0.008234583,0.97242231,-0.557032053,-0.451209603,-0.520131367,0.9678589194966252,-0.0616186600225983,-0.0877591284023202,-0.2274875558572585,3.185,2.0,0.151888714,-0.029122954,0.966682819,-0.535563961,-0.619092029,-0.245792141,0.9676005734293908,-0.082948649079813,-0.1049552492913898,-0.2141332472110074,3.185,3.0,-0.005969277,-0.062172151,0.978241786,-0.316331433,-0.063815201,-0.348785682,0.9940541446898444,-0.0521667912649366,0.0290129779733352,-0.0910671753332741,3.185,4.0,-0.043519258,-0.009159347,0.979114999,0.244878714,-0.043125337,0.121828673,0.9975877674511484,0.0058612599914401,0.0631144598919932,0.0282994136986616,3.25,5.0,0.266977598,-0.138093196,0.932098295,-1.187056164,-2.015222216,0.443679095,0.3113100396423492,0.2237834388234799,-0.2368679800837982,0.8926928876927597,3.249,6.0,0.297426644,-0.007018676,0.9341082,-0.648832058,-1.066832648,0.830718602,-0.069526273288616,0.2731691262191504,-0.0622025978391139,0.9574317535079604,3.25,7.0,-0.156383793,0.154733168,0.95493809,-0.340148687,0.272318946,2.436185496,0.9652849651882937,0.0994814492677817,0.193756604419284,0.1441761265845555,3.25,8.0,-0.452921397,0.062311989,0.866827217,0.615350459,1.178353352,3.628791613,0.8331340362372666,0.0503056919016763,0.3355848841045495,0.4367376793749662
48,48,3.285,0.0,0.054584592,-0.011935725,0.977981626,-0.354178423,0.005578474,-0.579157416,0.9884270971303576,-0.0257259505518799,-0.0263683491380746,-0.1471555615340095,3.285,1.0,0.143557388,-0.027196198,0.969107653,-0.4219045,-0.272391175,-0.9191872,0.95409765327765,-0.0776646975847465,-0.0975242422911893,-0.27231394552002,3.285,2.0,0.186998433,-0.056859888,0.96036063,-0.39911824,-0.433878052,-0.280118666,0.9606969051739712,-0.1019315886782755,-0.1211707162341201,-0.2280111075057234,3.285,3.0,0.001206158,-0.076866454,0.9769806,-0.133916517,-0.184193613,-0.241618153,0.992854500273502,-0.0586974805140181,0.017168543658558,-0.1024684740620509,3.285,4.0,-0.044659006,-0.027471391,0.977575519,-0.32986465,-0.126149688,0.13669956,0.99790663658184,-0.0120386325686055,0.0523566218591908,0.0360027796050697,3.317,5.0,0.339555354,-0.211505557,0.893900196,-0.99948392,-0.654635663,0.341575002,0.3005274860018094,0.2251244962243433,-0.2882388482129615,0.8808635295765361,3.317,6.0,0.381953031,-0.114282293,0.895432543,-1.409804184,-1.543418365,1.18888339,-0.1125687553735483,0.345668702324468,-0.1406928654532974,0.9208946417248332,3.317,7.0,-0.228719906,0.076049567,0.949426494,-1.189738056,0.658585355,-1.584579061,0.9743032625863984,0.0133860391116153,0.2103156665158738,0.0795065210431569,3.317,8.0,-0.282774047,0.020701201,0.938132346,-2.520734597,-3.644453366,-1.887374098,0.9310163033378642,-0.0328677901954693,0.082195478102247,0.354079446828403
49,49,3.315,0.0,0.03935158,-0.027192603,0.978409431,-0.181933327,0.305916536,-0.782928963,0.9820130979690268,-0.0304579697304674,-0.0103316893651644,-0.1860533356111473,3.315,1.0,0.14208788,-0.046908214,0.96797761,-0.435335159,0.279312854,-1.436466925,0.932509769735206,-0.0836047134584612,-0.0810444182401429,-0.3418590111552397,3.316,2.0,0.198184057,-0.074179898,0.957059257,-0.305014276,0.008401423,-0.374812632,0.955421440295755,-0.1100237026483345,-0.1162569413413115,-0.248090668644951,3.316,3.0,0.021869409,-0.085033717,0.976409748,-0.036174263,-0.222824305,-0.100489833,0.9924375818959508,-0.0602818438320047,0.0036177611763889,-0.106867474700219,3.316,4.0,-0.020578409,-0.07022669,0.977244975,-0.956871336,-0.259834086,-0.725293761,0.9974945265543284,-0.0635793439515868,0.0309534586066067,0.0020542436884138,3.341,5.0,0.275470868,-0.238994533,0.908951272,0.669535825,3.857740828,0.209137689,0.3463117719661638,0.0525981591074577,-0.1838330841131567,0.918426364735686,3.341,6.0,0.501331922,-0.175263126,0.823467146,-1.588488862,-3.224875828,-1.774077727,-0.0251723346264499,0.5091451824117851,-0.1588090771913439,0.8455277723398315,3.341,7.0,-0.221613025,0.016890047,0.954288947,-0.35538798,-0.487935089,1.918110223,0.9691450047092152,0.0167339351382189,0.1731731784374556,0.1746109547875915,3.341,8.0,-0.146167751,-0.079086255,0.965992419,-0.725939368,-2.755275001,0.726102689,0.9211471191524236,-0.0177934872387669,-0.0600602477867119,0.3841407858127972
50,50,3.376,0.0,0.023614533,-0.045558954,0.978559521,-0.467765485,0.278104472,-0.52968923,0.9759016064091538,-0.049870330423627,0.0065525446689808,-0.2123348038118864,3.376,1.0,0.130168613,-0.056345551,0.969344269,-0.272515986,0.153902062,-0.510828107,0.9234083216630814,-0.0881315543993086,-0.0687059487231567,-0.3671912215897647,3.376,2.0,0.189395937,-0.087830927,0.957706065,-0.218915953,0.325751986,-1.054614109,0.9425176214772876,-0.1059068317299914,-0.1003316534369945,-0.3006290663197935,3.377,3.0,0.043519367,-0.073841279,0.976316819,0.030161902,-0.091999756,-0.697381367,0.9883175279026494,-0.0573448379502246,-0.0052441929303975,-0.1411117714486185,3.377,4.0,0.009433166,-0.119856388,0.973097869,-0.675547396,-0.340267562,-1.236147392,0.9934476885268756,-0.0986084792133947,0.0042312849803814,-0.0576207793703335,3.408,5.0,0.20556598,-0.179042471,1.004904683,4.351753031,21.91412178,0.779498764,0.4305792731707207,-0.7297609982340422,0.5191029241774555,-0.1121718729568296,3.408,6.0,0.451037373,-0.733125376,0.690233635,-1.13068292,7.857377425,-1.178735313,0.1098194601067949,0.1730405744267552,-0.1747747173279672,0.9630422856587554,3.408,7.0,-0.202439085,0.016498419,0.962425695,-2.905764334,-2.462160051,8.739386643,0.8432202017642166,-0.0201143319216544,0.0346913450501199,0.5360705322685371,3.408,8.0,-0.059287325,-0.151057554,0.996421411,-6.887121971,-9.502480827,-13.67755545,0.7297329753190805,-0.1251011198947882,-0.5495230864784716,-0.3871225541869217
51,51,3.45,0.0,0.021403018,-0.060174505,0.97698001,-0.02353354,0.052777464,-0.682705803,0.968150927973629,-0.0489132220109803,0.0066209993929362,-0.2454535388690588,3.45,1.0,0.090412581,-0.05056076,0.975000602,0.164234717,0.839158582,0.202534957,0.930516349659234,-0.0610104744205547,-0.0284432512154796,-0.3600111477275756,3.45,2.0,0.141362032,-0.0671163,0.967984596,0.422584179,0.96037053,-0.119516426,0.9473576053910664,-0.0656300081049883,-0.0572435010907711,-0.3081062335083712,3.45,3.0,0.041928006,-0.108401319,0.973475832,-0.532378095,0.057836341,-0.745580341,0.9805600596628156,-0.0828386422186295,-0.002545800107419,-0.1778573800865247,3.451,4.0,0.052708297,-0.163390289,0.965219897,-0.436050889,-0.116028729,-3.339774079,0.9684018474241932,-0.1180929872134711,-0.0224819606554051,-0.2185096558999107,3.475,5.0,-0.226826708,-0.076961359,0.950187136,1.733115082,7.337237009,-3.178885896,0.3070437207962143,-0.6880730923072927,0.478892369787203,-0.4504904786140247,3.474,6.0,0.530316565,-0.357658383,0.74231383,-0.309510693,2.275093185,-2.122912366,0.2374956562893612,0.0878023210985808,-0.1621752164984138,0.9537220584672872,3.475,7.0,-0.241870181,-0.045868242,0.948369084,-0.740778919,0.633227455,-1.197126583,0.8718906017815964,-0.078088049115418,0.0437410363403514,0.4814517180882688,3.475,8.0,0.073940862,-0.174661239,0.961562895,-1.717009508,-2.798111237,-3.324222977,0.5997997660422857,-0.1365017081078538,-0.5876400389141577,-0.5256298212660931
52,52,3.51,0.0,0.016110033,-0.06036823,0.977953038,-0.097495919,0.069026155,-0.917679954,0.9558372301416604,-0.0513069694750576,0.008057675060242,-0.2892712537239532,3.51,1.0,0.035669297,-0.038869869,0.978535556,0.464854392,0.863499541,0.575338593,0.9424968249562105,-0.0206996498852038,0.0064216050410735,-0.3335116526161998,3.511,2.0,0.073030872,-0.050433414,0.976079896,0.245445885,1.422307735,-0.472749048,0.942916081102382,-0.027745718453001,0.0084781762464357,-0.331764313381634,3.511,3.0,0.052111209,-0.098794237,0.973396179,0.365836006,-0.285009685,-0.717277752,0.9749765197880008,-0.0645552458563824,-0.0234501224437469,-0.2114320170926656,3.511,4.0,0.082449117,-0.160371387,0.962505149,0.1269993,-0.27605883,-0.039925814,0.9686040857995656,-0.1120497339238326,-0.0375192864169358,-0.2187310797457698,3.505,5.0,-0.465443036,-0.033480154,0.861798039,1.114917695,1.338316147,-2.44460486,0.2897396961717233,-0.6723016386098051,0.3861364813315231,-0.5612130014261952,3.504,6.0,0.578294737,-0.09165044,0.784962033,-0.179330379,-1.449601405,-2.771786886,0.3658429625334515,0.1986983537580504,-0.1706524248318902,0.8930597073418911,3.505,7.0,-0.219592485,-0.095212433,0.949293808,0.735564659,0.240870622,-4.560638976,0.9646694873079804,-0.0585136122518566,0.0620087799988477,0.2492866796306062,3.505,8.0,0.174833164,-0.20389505,0.941760677,1.631393548,0.925757304,3.419706252,0.7517754969310122,-0.1566933697258464,-0.5233095088112149,-0.3693615411569723
53,53,3.588,0.0,0.016376366,-0.067083159,0.977037187,-0.139987002,0.085647135,-1.04237151,0.9394086706939035,-0.055428182907345,0.0105946789350415,-0.3381224907381439,3.588,1.0,-0.021368801,-0.006558431,0.979326994,0.39506458,0.845370789,-0.61405115,0.9312517161066852,0.0137000346730312,0.0401009477620317,-0.3619039434530907,3.588,2.0,-0.006700596,-0.014145732,0.980214773,0.507087436,1.105955753,-1.298214347,0.9188457516523624,0.0155303810746598,0.0515889379515528,-0.3909218251966904,3.588,3.0,0.073027313,-0.077244146,0.97372807,0.191980455,-0.189107777,-0.600723911,0.9686271944352554,-0.0547293218029546,-0.0367310243562514,-0.2396182200610276,3.588,4.0,0.095492593,-0.145324789,0.964843443,0.209340161,-0.097544199,-0.5784983,0.9631659962261604,-0.0990521420556653,-0.0467363465198124,-0.2455924485439902,3.551,5.0,-0.661377619,0.046352554,0.722283244,2.444024052,5.459543533,3.028468242,0.3853730613370684,-0.3891770846813189,0.4832261733505406,-0.683023620194528,3.551,6.0,0.528888792,-0.06255905,0.822826841,-0.137736462,2.485088576,-0.539193972,0.4157563412806589,0.0948711866100929,-0.1209945916284302,0.8963852025958386,3.551,7.0,-0.111256862,-0.114799243,0.966635942,0.094222701,-3.41125151,-2.899531588,0.9880489070087112,-0.0210522667438218,-0.1120287018874517,0.103758032832405,3.551,8.0,0.246792244,-0.209491269,0.924980538,0.060481644,-0.664511276,-0.789051196,0.7422705011367866,-0.1467241088910381,-0.5210214222593639,-0.3950230582625578
54,54,3.689,0.0,0.02225295,-0.072226444,0.977148477,-0.056128424,-0.120430083,-1.146513305,0.9188955052571874,-0.0589307744467322,0.0017457399358809,-0.3900707200410238,3.689,1.0,-0.065706242,0.017666112,0.977238251,0.368339183,0.589146762,-1.612812343,0.8982711856576066,0.0382645516258476,0.0617126687123426,-0.4334007932924802,3.689,2.0,-0.061761321,0.009034631,0.977981551,0.210349965,0.62640159,-1.134029921,0.8937875683346321,0.0342946179264032,0.0749682918302181,-0.4408485194392815,3.69,3.0,0.077991102,-0.067090947,0.974856499,-0.023062563,0.107314197,-1.517447451,0.9483365677727568,-0.0504582463800407,-0.0344938697001568,-0.3113228108416526,3.69,4.0,0.09818498,-0.141138382,0.964369051,-0.183772545,0.273099568,-1.633976616,0.9403408310693432,-0.0986296799179295,-0.0380342862439023,-0.3233955793343823,3.67,5.0,-0.73172006,0.150738351,0.634621701,0.816901892,-0.109319401,-0.333353759,0.4227871199977386,-0.3441251117527076,0.4430557742555912,-0.7117095893157425,3.67,6.0,0.345316061,0.010715524,0.917552176,0.328915835,4.264994527,-3.250815143,0.5967205953467444,-0.059862125648035,0.0132342063698095,0.8001036887702038,3.671,7.0,0.103302603,-0.157820717,0.961498931,-0.707595914,-1.139954175,-0.551616149,0.9816792623436048,-0.0520544528850742,-0.1677951308157391,0.0737628218947781,3.671,8.0,0.294278008,-0.174977245,0.918060683,-0.351726244,-0.180664487,-3.757931183,0.6799257083935673,-0.0645786314257228,-0.5012177413266358,-0.5313298478422911
55,55,3.719,0.0,0.034430587,-0.070957058,0.976842173,0.047591875,-0.007592367,-1.113737545,0.8964868643124263,-0.0551544371820586,-0.0029790453348391,-0.439613939113965,3.719,1.0,-0.086525522,0.023342789,0.97608373,0.158093974,0.183486657,-2.061319427,0.8504609025743322,0.0416493935385136,0.0676422207877295,-0.520005876098752,3.72,2.0,-0.086324317,0.010982541,0.976015623,0.065226611,0.26741922,-1.227112277,0.8650034888895618,0.0373765761147048,0.0836404594826608,-0.4933317639320998,3.72,3.0,0.068673221,-0.069084277,0.974405127,-0.122911499,0.24238723,-1.13772471,0.9295809676677156,-0.0497849754983679,-0.0229154897630419,-0.3645210022666733,3.72,4.0,0.092801002,-0.144036465,0.965152563,-0.115437051,0.284765715,-1.065562464,0.9222291631110732,-0.0958853278611037,-0.0264430827167747,-0.3736310184993374,3.702,5.0,-0.726418451,0.154054467,0.63999723,0.665940464,-0.784855682,-0.676581487,0.4553077433712794,-0.3300691598946327,0.3862004552738861,-0.7311623737986301,3.702,6.0,0.025607925,0.052163444,0.978763102,-0.649773792,4.830698375,-4.851695936,0.7839522592034261,-0.2716451120030398,0.1095161971413465,0.5473883365385106,3.702,7.0,0.150800058,-0.193717924,0.94911417,-0.272477551,-1.181540622,-1.164394284,0.9735486443470728,-0.055104637506481,-0.2209949937390719,0.0181032802973266,3.702,8.0,0.358260224,-0.183049893,0.893583991,-0.447785956,-0.439491074,-0.851908676,0.663423286128911,-0.0803710336336011,-0.4757796607038061,-0.5718773949328256
56,56,3.826,0.0,0.033815816,-0.060950701,0.977545652,0.163091759,0.139927498,-1.092848669,0.872240801298132,-0.0428377711196742,-0.0027012555978546,-0.4871895043353112,3.827,1.0,-0.08106532,0.030616367,0.976614075,0.34132309,-0.316823714,-1.036542427,0.8236124363138005,0.0432295103506417,0.0439865273038126,-0.5637898097694214,3.827,2.0,-0.080827882,0.009369168,0.976447168,0.124520704,-0.309024722,-1.097256334,0.8387685370877066,0.0290606806724603,0.0642761511787769,-0.5398994299128729,3.827,3.0,0.063641619,-0.057910676,0.975759242,0.188727615,0.078398523,-1.006154162,0.9110106831970672,-0.0375424267894719,-0.0243163795149163,-0.4099497712877228,3.827,4.0,0.08694471,-0.131021115,0.966670619,0.21184134,0.176175435,-0.847763978,0.907195904110171,-0.08012265143423,-0.024777671743844,-0.4122645015955563,3.761,5.0,-0.630033834,0.129390884,0.739111877,-0.918968192,-5.421999637,-1.668070317,0.5095276713641866,-0.5424141775060627,0.2368770937838654,-0.6245459587533336,3.761,6.0,-0.183235646,-0.215463998,0.938502511,-5.505472011,1.281449463,-4.864943547,0.7988832026473949,-0.5252172491559116,-0.1258091216194723,0.2647726092976294,3.761,7.0,0.224012294,-0.189425483,0.934847302,0.201776043,-1.209160062,0.238480214,0.9613365964566476,-0.0507230688330719,-0.2681695391430319,0.0366635633445265,3.761,8.0,0.402418294,-0.18660863,0.873649092,0.00144533,-1.240028916,0.18786739,0.656713061349539,-0.131823499789551,-0.4853089917281348,-0.5619837208531684
57,57,3.86,0.0,0.021099441,-0.037366349,0.977814179,0.46541478,0.326736795,-0.886254421,0.8511544280166172,-0.0128732221521237,-0.0004598829629262,-0.5247572851583747,3.86,1.0,-0.050437715,0.054904427,0.976813974,0.345888136,-0.617781061,-0.489773659,0.8103709858673132,0.0381708667852387,0.0063298811130433,-0.5846381639941044,3.86,2.0,-0.044139056,0.027763518,0.978808935,0.55756514,-0.826618532,-0.950103585,0.8145411968856481,0.0258483131571485,0.0115746869408582,-0.5794139538406432,3.86,3.0,0.051613696,-0.047849083,0.9780161,0.066936908,0.384058496,-0.811201106,0.8944400552868513,-0.0252245030062452,-0.0085074019284327,-0.4463948208245367,3.861,4.0,0.0757703,-0.117783344,0.969480245,0.11384419,0.435247934,-0.938462556,0.888211980604036,-0.0639568040707497,-0.0093728098431367,-0.4548638864101608,3.835,5.0,-0.5608325215000001,0.064703742,0.7933636055,-0.5617002504999999,-3.647815885,-2.501484457,0.4848453391800408,-0.6577558872380282,0.0884966962249673,-0.5696055869076174,3.834,6.0,-0.2249000295,-0.2771515105,0.909494237,-2.476516637,0.9890272975,-3.4503230915,0.7871411329903704,-0.5771393843333669,-0.2004568554308194,0.0844749484564836,3.835,7.0,0.2522576825,-0.1894587915,0.927401034,0.0125104645,-0.713189077,-0.1618759989999999,0.9551859456977266,-0.0506084697936156,-0.2898036473221916,0.0327480980431409,3.835,8.0,0.46214122,-0.1928876505,0.8393672305,-0.8711428655,-1.9342978315,-1.0088368355,0.5931054502684087,-0.1955910240342687,-0.5001439165810542,-0.5998550982413152
58,58,3.96,0.0,0.007150985,-0.005639268,0.979168046,0.578843701,0.021309006,-0.685197941,0.8332022260511542,0.012657926266501,-0.0144391478997388,-0.552634905171545,3.96,1.0,-0.013268711,0.053969017,0.978423368,-0.041225209,-0.781116261,-0.818332694,0.7864851248256105,0.0122648353442221,-0.0243246661955057,-0.6170081303001608,3.96,2.0,0.033218452,0.068667254,0.976033986,0.583050514,-1.340746011,-0.673532919,0.7943828210208121,0.0090465645156956,-0.0627390739053788,-0.6041009037759958,3.96,3.0,0.027767217,-0.024855831,0.978825914,0.191679677,0.367838124,-0.058912947,0.8934146447766858,-0.0076713274223962,0.0037738045110737,-0.4491516243248366,3.961,4.0,0.052888154,-0.102868081,0.973345777,0.516633654,0.080492828,1.028835288,0.9124213908075558,-0.0384898947120847,-0.0145019384643464,-0.4071798464838779,3.908,5.0,-0.491631209,1.66e-05,0.847615334,-0.204432309,-1.873632133,-3.334898597,0.4180165580956507,-0.6934398360438762,-0.0529679658012533,-0.5844636391976706,3.907,6.0,-0.266564413,-0.338839023,0.880485963,0.552438737,0.696605132,-2.035702636,0.8389697393797162,-0.5072088699827585,-0.1971481012730944,0.0012509118105589,3.908,7.0,0.280503071,-0.1894921,0.919954766,-0.176755114,-0.217218092,-0.562232212,0.9559384934952084,-0.054509180450663,-0.2884015761274447,0.005905657280426,3.908,8.0,0.521864146,-0.199166671,0.805085369,-1.743731061,-2.628566747,-2.205541061,0.4647205599736058,-0.2652350137676427,-0.5130549052729755,-0.67116305975883
59,59,3.992,0.0,0.006770382,0.037485356,0.979517233,0.497081318,-0.321231188,-1.386678089,0.7936550166900389,0.0246388318535243,-0.039096364870117,-0.6066103499789387,3.993,1.0,0.024611025,0.025294761,0.979806344,0.057282896,-0.297577046,-0.664666555,0.7655119412806461,0.0051237544731801,-0.0366575439475325,-0.6423561623963531,3.993,2.0,0.086441526,0.052503397,0.974607745,-0.987154348,-0.50240407,1.381361736,0.8341180579698824,-0.0531307308746587,-0.0490244741979081,-0.5468279361324685,3.993,3.0,0.034086026,-0.020730093,0.978600228,-0.179720514,-0.183070106,-0.900302709,0.8726075571034498,-0.0207420824375075,-0.0025369396193312,-0.4879747752081793,3.993,4.0,0.047433467,-0.084533458,0.975601435,0.06110476,0.014715911,-0.040250058,0.911725013771878,-0.0364543592786924,-0.014154469525977,-0.4089354838415061,3.916,5.0,-0.466020563,-0.041546051,0.861018444,1.382559166,0.715506121,-1.219992087,0.4585606579065917,-0.6060405914093862,-0.1011327633243944,-0.6420351149016753,3.916,6.0,-0.196282902,-0.295035297,0.912653382,1.207520176,-0.923294749,-0.60190045,0.8785981607991192,-0.4198031407706497,-0.2268530313059155,0.019191066328388,3.916,7.0,0.192395104,-0.159479034,0.947868958,0.913178424,3.155971897,-2.203166336,0.9899454797940388,0.019404949937308,-0.1058680747855313,-0.0917787867346588,3.917,8.0,0.752011876,-0.178705102,0.602328503,-2.791013377,-2.959831985,-2.076116834,0.3055227824634078,-0.3680005109183261,-0.4851543594404196,-0.7320223363228913
60,60,4.082,0.0,0.025597509,0.041875986,0.979005704,-0.183270824,-0.345859937,-1.830636161,0.737170671940803,0.0095236178725972,-0.0438308800565381,-0.6742162524638747,4.082,1.0,0.055975425,0.056009898,0.97666711,-0.03780342,-0.639159664,-0.978279922,0.7327667311374518,-0.0151557356384261,-0.0599447036803025,-0.67766500124772,4.082,2.0,0.137826948,0.043356047,0.96952204,-0.494013554,-0.432961938,-1.669386211,0.7849739124853442,-0.0771027758155469,-0.0611139239340643,-0.6116667450339033,4.082,3.0,0.045731896,-0.034951047,0.97822851,-0.358837491,-0.026623708,-2.107939334,0.8187509350000945,-0.0363780484771959,0.0004249060804693,-0.5729950815498197,4.082,4.0,0.052013441,-0.097748651,0.973507988,-0.546501623,0.126105086,-2.336831304,0.8594286791572667,-0.0574565054754156,-0.0032394128167816,-0.5080064976209971,4.035,5.0,-0.396775947,-0.042460321,0.894861424,-0.008001052,-0.711194807,2.098789405,0.5444539977640093,-0.6013146259825686,-0.0385276051131801,-0.5835290811454684,4.034,6.0,-0.098894095,-0.138218314,0.965197211,1.463166897,-2.907108621,3.848046151,0.8611410091371391,-0.3555809016805705,-0.2530988349832676,0.2606518069617298,4.035,7.0,-0.198937118,-0.116488356,0.951459661,0.393629555,6.410741986,-0.756041375,0.9655927471854228,0.0622346024355293,0.2301249356214103,-0.1039231198908211,4.035,8.0,0.776537124,-0.074281941,0.592164072,-3.020522845,-3.173507855,-0.81226497,0.1647609158095191,-0.5021822796803853,-0.40406983467987,-0.7465884859133594
61,61,4.111,0.0,0.038316423,0.030161619,0.979058797,-0.305634223,-0.226092154,-1.831519502,0.675135229374953,-0.005405170105646,-0.0397916249951415,-0.7366001851569172,4.111,1.0,0.085875814,0.048783586,0.975345327,-0.464921527,-0.507922128,-2.150846399,0.6581266270434937,-0.0408190165758313,-0.0642950243389116,-0.7490455930765462,4.111,2.0,0.150585187,0.019777778,0.966821566,-1.102223151,-0.130712634,-3.659270898,0.667568157785981,-0.1032641657068714,-0.0514458863022408,-0.7355559717476788,4.111,3.0,0.037693912,-0.068287167,0.976781466,-0.689017302,0.359898144,-2.656997986,0.7399192293753482,-0.0518485568030677,0.0269218533135121,-0.6701540680859855,4.112,4.0,0.047714636,-0.123212146,0.971031967,-0.578736103,0.558904623,-2.82908444,0.7830777257525109,-0.0661101087740527,0.0253148657829032,-0.6178817739005998,4.061,5.0,-0.304883205,-0.042596724,0.930815637,-1.153576414,-2.180440329,0.412255039,0.5420190892629092,-0.6582166693672667,-0.0381660432525473,-0.5210657119635808,4.061,6.0,0.037247466,-0.05389407,0.978193261,0.830158185,-2.055417085,1.01673021,0.8455222434648505,-0.2766365972278995,-0.2946511804281275,0.3489197769583236,4.061,7.0,-0.369771838,-0.134519873,0.897447041,0.472645983,1.908126898,-2.568968058,0.9197929932506964,0.0537616313448978,0.3171794339534521,-0.2246947779522863,4.061,8.0,0.816977291,-0.161322707,0.515891548,-2.809889522,1.301083106,-2.638022998,0.0417618746613091,-0.4110228479885904,-0.3342747967565682,-0.8470988870902122
62,62,4.186,0.0,0.04940996,0.010364677,0.978938317,-0.35440445,-0.226588773,-1.319520266,0.6262897678071543,-0.0230870065120991,-0.0335086039935319,-0.7785276426234174,4.186,1.0,0.108103523,0.027517014,0.97405618,-0.690167359,-0.390971756,-2.140353352,0.5762680723737496,-0.0676169964814386,-0.055423939036534,-0.8125707584765444,4.186,2.0,0.155625463,-0.012441192,0.967552031,-0.924921711,-0.167258801,-2.719946456,0.5639070501244663,-0.1250247432935976,-0.0392621518949525,-0.8153748437454214,4.186,3.0,0.020837828,-0.111032371,0.972944807,-0.865541053,0.60630922,-2.016699107,0.6695394122397095,-0.0629721737197285,0.0701908218927383,-0.7367664007789299,4.186,4.0,0.021758611,-0.152539068,0.967536767,-0.49030817,0.762351487,-1.776109267,0.7252459404282458,-0.062714969013608,0.0638837388177964,-0.6826448758092536,4.174,5.0,-0.212276648,-0.055305453,0.955218787,0.09333456,-2.847773608,-3.06919084,0.4831640354236868,-0.6836992203704593,-0.2065384129287962,-0.5064087034429589,4.174,6.0,0.07907504,-0.024290542,0.976749255,0.566257359,1.000719024,-2.91220861,0.9260214537010004,-0.1965880450377331,-0.2426555496704698,0.2120275737913589,4.175,7.0,-0.469807024,-0.210716313,0.833321664,0.455069858,1.146121983,-2.755753168,0.864010778486713,0.0334010268760549,0.3595465003967212,-0.350850481138162,4.175,8.0,0.703845141,-0.324688635,0.599046164,-1.976312494,1.694972523,3.389014092,0.1939851691776081,-0.4290918533973348,-0.1294763518022453,-0.8726315429842976
63,63,4.246,0.0,0.062199829,-0.010242279,0.977606913,-0.466593936,-0.197290926,-0.957514248,0.5884550218322234,-0.0433321480906812,-0.0214907989262577,-0.807081877992435,4.246,1.0,0.130154217,-0.014171799,0.969956205,-0.841221787,-0.331443763,-1.347935358,0.5186584300441754,-0.0982858592836828,-0.0343356773544095,-0.8486191042332203,4.246,2.0,0.181334421,-0.040389981,0.961991932,-0.780900832,-0.396288826,-1.281639925,0.5068746230890382,-0.1550794259195395,-0.0272629223783954,-0.8475170919740799,4.246,3.0,-0.005214751,-0.144024957,0.969665725,-0.213247454,0.43804636,-0.687946399,0.642229078836205,-0.0546232178376628,0.0888516760538753,-0.7593836277091283,4.247,4.0,-0.01684493,-0.172714838,0.964586353,-0.143137477,0.731213133,0.194277175,0.7290896973964555,-0.0419340603953515,0.0961295332957108,-0.6763348730898423,4.181,5.0,0.001719728,-0.087750204,0.975880087,0.235607852,-1.973035918,0.131779606,0.5003319837029562,-0.6954941221990935,-0.2435286320275695,-0.4545873265426104,4.181,6.0,0.092380343,-0.009360396,0.975719865,0.063234333,-0.687877031,-0.725974137,0.9336774550892608,-0.1586137497671318,-0.2616722632724588,0.1860529894323665,4.182,7.0,-0.457662185,-0.207721961,0.8411022,1.172723144,-0.270021663,-0.812601477,0.8534097559926427,0.060036941007107,0.3201080043687836,-0.4069621845210218,4.182,8.0,0.526436429,-0.44598437,0.696043553,-0.873792771,4.491974548,0.835701233,0.2578333579865066,-0.2501515989375574,-0.0026642425519184,-0.9332411472229512
64,64,4.326,0.0,0.073870893,-0.023952351,0.976701273,-0.488780795,-0.167064732,-0.663041166,0.5606888495093956,-0.0625044465898716,-0.0076356043031265,-0.8256287941558544,4.326,1.0,0.148585364,-0.049323352,0.966260108,-0.758792431,-0.336584112,-0.780102174,0.481887490687066,-0.1275849534028739,-0.0137057027154892,-0.8667864095021242,4.326,2.0,0.210529174,-0.079323729,0.954387349,-0.673407179,-0.42061342,-0.122956878,0.4963810739388627,-0.1854011096974731,-0.0096758856998984,-0.8480204214487815,4.327,3.0,-0.020052546,-0.141411807,0.96977193,0.158545936,0.246422284,-0.449989162,0.624717289394514,-0.040797954433098,0.0869301366452802,-0.7749238585748145,4.327,4.0,-0.066350612,-0.164150377,0.963671235,0.157705936,0.507151978,1.054989546,0.7626380262269444,-0.0133152098765527,0.1094013399565329,-0.6373674708944042,4.248,5.0,-0.369135183,0.050416411,1.101254013,4.213903545,5.442903565,3.704463618,0.8151409466340982,-0.4028047586301759,-0.0137670120804137,-0.416057727874065,4.248,6.0,0.096976114,-0.262093763,0.873525325,-0.223382775,1.324793438,1.198899395,0.9385105231066406,-0.1936385448175235,-0.1715315562378778,0.2286460959510646,4.249,7.0,-0.506244085,-0.343822937,0.837317571,-1.652063252,-2.769017568,-21.23071846,0.4425224693463593,-0.3595030880247547,-0.1116985698936202,-0.8139132775105625,4.249,8.0,0.865376464,-0.801449566,0.959097058,-2.081117003,11.78188187,-15.89052342,-0.7195028519296948,0.5052856596697948,0.1405570653303084,-0.4552425283108198
65,65,4.395,0.0,0.076567676,-0.054153375,0.975080921,-0.502910883,0.00486139,-0.389802848,0.5432385226030614,-0.0743728269212281,0.0126347202384345,-0.836182368876721,4.395,1.0,0.171742638,-0.088200312,0.96122795,-0.635797366,-0.183115455,-0.476543961,0.4575552556571799,-0.146958445375217,0.0071295086545221,-0.8769239268372925,4.395,2.0,0.232319997,-0.113973791,0.945870707,-0.642039186,-0.330457385,-0.172885089,0.4835445005657519,-0.2097187222459498,0.0076839982708958,-0.8497904033835147,4.396,3.0,-0.028088262,-0.131218527,0.971006564,0.003548867,0.077013465,0.035561862,0.6259203689339568,-0.0365589030145883,0.0867035250195784,-0.7741896648193702,4.396,4.0,-0.089019912,-0.150256902,0.963943628,0.183031328,0.083136176,0.336495828,0.7730704130097658,-0.0033793143141339,0.1043206501500973,-0.6256739715825944,4.315,5.0,0.138234587,-0.083975164,0.966529033,-0.161461171,-2.104336284,-0.619139287,0.8053834188969549,-0.4224618250612773,-0.111091267478357,-0.4006772831366896,4.315,6.0,0.152455919,-0.002991646,0.968346654,-0.025062609,-0.896832634,-0.195959526,0.9377743442669454,-0.1628851378667814,-0.2064140201752986,0.2268060038268202,4.315,7.0,-0.320091505,-0.130889097,0.917338799,1.230159449,-2.610909567,0.050255199,0.463856278604151,-0.4026748969814699,-0.1998677907445267,-0.7633761499833308,4.315,8.0,0.05265369,-0.361760759,0.908181007,0.776726757,6.002955481,1.151711004,-0.7490877962675418,0.5711271615045521,-0.1384883602080628,-0.3057813155862741
66,66,4.475,0.0,0.064189582,-0.081340391,0.97427534,-0.449647913,0.371071752,-0.475405523,0.521788139064541,-0.0685131439139831,0.0398804324842174,-0.8493836813522242,4.476,1.0,0.173375398,-0.111891182,0.958215182,-0.308362555,0.22716325,-0.951378005,0.414196056466006,-0.1397760693181107,0.018810449181281,-0.8991943306402606,4.476,2.0,0.238782365,-0.143763651,0.939887225,-0.296345398,0.053623739,-0.032242169,0.4797373860851979,-0.2080362816898363,0.0207990949262478,-0.8521386879745912,4.476,3.0,-0.017965058,-0.137588587,0.969612622,-0.017992753,-0.236967051,-0.691380245,0.6003159459685186,-0.0493801746572676,0.0760256293423786,-0.7946083733826593,4.476,4.0,-0.072944252,-0.158653068,0.964222143,-0.448984178,-0.168891948,-1.004109947,0.7422898730698655,-0.0341183405241279,0.1080823690127487,-0.6604240188593951,4.345,5.0,0.268115208,-0.087949017,0.938364644,-0.409721517,-1.727624376,-0.916882678,0.7771667513619585,-0.4397895411143832,-0.1899937875712505,-0.4080433319982455,4.345,6.0,0.210320089,-0.01405797,0.956376931,-0.217370979,-0.995564165,0.094610468,0.9291455637061924,-0.1455450764144015,-0.2449730729670797,0.2355702563943379,4.345,7.0,-0.207028562,-0.02241466,0.95821749,1.419935355,-1.289697121,5.877374861,0.7165854930765277,-0.4244010732125422,-0.1448360504477209,-0.534239158672422,4.345,8.0,-0.313304943,-0.295475517,0.879993313,0.40144176,2.697526771,5.403840661,-0.6593106759598946,0.5196706467224311,-0.3677154273697663,-0.400046517263514
67,67,4.56,0.0,0.041525562,-0.108429148,0.973033785,-0.367152818,0.33290218,-0.276944717,0.5083470316916617,-0.0621525664908729,0.0626843201866321,-0.8566160340850584,4.56,1.0,0.160272715,-0.114982577,0.960155021,-0.100188127,0.375521542,-0.447347559,0.3934724041406245,-0.121328941351792,0.0279456703379021,-0.910866507606694,4.56,2.0,0.225007034,-0.147981364,0.941997001,-0.078365048,0.540708085,-1.087058731,0.4331384071170705,-0.1813278948493958,0.0246538726920965,-0.8825550982181538,4.56,3.0,0.01158272,-0.137465229,0.970568468,-0.229923728,-0.313357273,-0.950095803,0.5634823066711133,-0.0717915491393685,0.0706557226003022,-0.8199642872739034,4.561,4.0,-0.02726188,-0.186695532,0.961265608,-0.210079957,-0.564224883,-1.629995413,0.6910299361737451,-0.0716039130885766,0.0865101208805163,-0.7140493721916937,4.455,5.0,0.3214018,-0.108747598,0.91910437,-0.315570508,-0.015810868,-0.110840388,0.7793705306471115,-0.424452842600179,-0.1805237585293182,-0.4240666610026257,4.454,6.0,0.288329187,-0.027168685,0.936160853,-0.323436693,-1.270798594,-0.014798091,0.9154991050817792,-0.1294166347399639,-0.297716397230969,0.2376503104707766,4.455,7.0,-0.208677854,-0.018788669,0.957854133,-0.821103956,0.672423801,-1.955396666,0.6682113952943977,-0.3847355526315191,-0.1214003586898563,-0.625087224833469,4.455,8.0,-0.249276905,-0.276271064,0.906329589,-0.883739698,-3.834069282,-0.16112551,-0.7254953204315656,0.4480079243619796,-0.1766899641337276,-0.4916564820229598
68,68,4.589,0.0,0.031588074,-0.111622315,0.972810183,0.083984836,0.132526396,-0.29702563,0.4956227527116804,-0.0534552166621583,0.0593942136343017,-0.8648542965106094,4.589,1.0,0.119519179,-0.10637392,0.965635933,0.274176079,0.764553248,0.371249651,0.4116090513285348,-0.0760499776683817,0.0324555109861258,-0.9076018012144378,4.59,2.0,0.187559917,-0.126271529,0.953239623,0.380426422,0.963093594,-0.470238419,0.4156457905724466,-0.1251479536503123,0.0239665905885204,-0.900556588456332,4.59,3.0,0.020618,-0.16249002,0.965457348,-0.417829856,0.019816885,-0.490078512,0.5420888325681423,-0.0824978237404759,0.0855010133238247,-0.8318794284050982,4.59,4.0,0.034841514,-0.212440212,0.955845294,-0.770466484,-0.146411105,-4.750164961,0.5231556721894074,-0.1200410010256192,0.0809353696003195,-0.8398498476968822,4.51,5.0,0.257358206,-0.121846802,0.937888112,0.360504867,2.869724555,-0.600635702,0.8059119999888934,-0.3140040624578262,-0.0714700741109979,-0.4967890151165299,4.509,6.0,0.383296286,-0.103934755,0.895784864,-1.340856384,-2.085840682,1.995343995,0.853015022995842,-0.1798719455461562,-0.3753249353600577,0.314869253255716,4.51,7.0,-0.201578913,-0.032073862,0.958183808,0.341064265,-0.740071838,1.105606901,0.7187905361528633,-0.3669069266615813,-0.1193935207876246,-0.5783291964778947,4.51,8.0,-0.087603646,-0.27769904,0.935939017,-0.380886866,-3.512513057,-0.882857704,-0.7773694415298908,0.3548868826805988,0.0060321750541516,-0.519341568469989
69,69,4.694,0.0,0.031013086,-0.1058392,0.973916964,0.082546434,-0.038262265,-0.366835081,0.4802039090487618,-0.0529782152759537,0.0519058499386215,-0.874015616097683,4.695,1.0,0.061223604,-0.072216271,0.974794584,0.591551823,0.946061867,0.080569753,0.4165914335176363,-0.0174647884387097,0.0242271976719249,-0.9086031045387626,4.695,2.0,0.12030568,-0.085489787,0.968196798,0.772597486,1.105275234,-0.269649879,0.4079805888354884,-0.0550241587688775,0.0099291598274246,-0.9112769024124044,4.695,3.0,0.050659131,-0.152686812,0.966652156,0.377468892,-0.647257471,0.292771347,0.5589387595971999,-0.0957874329845567,0.0497310221099477,-0.8221551290006484,4.695,4.0,0.082876477,-0.208667098,0.953999755,0.168678638,-0.749887723,0.236936895,0.5376214240436047,-0.1433380586514639,0.0541938365093472,-0.8291443984227079,4.541,5.0,-0.097324316,-0.028451756,0.974476,2.152896194,6.851431574,-1.593828193,0.8053369159351728,-0.0182657161270078,0.1643137901454602,-0.5692976320119607,4.541,6.0,0.459450457,-0.306114748,0.809983974,-1.714360784,-0.298236325,1.947221189,0.8063239067237951,-0.2710317562381485,-0.3795847921004346,0.3637291989409311,4.541,7.0,-0.175124063,-0.041598476,0.963225897,-0.236860981,-0.017935536,-2.068484625,0.6671988359550101,-0.3308043677315131,-0.1321145496488959,-0.654186463755635,4.542,8.0,0.130407615,-0.333413467,0.91202265,-1.507335369,-3.164142392,-2.272165879,-0.8067522211273244,0.3071354045820566,0.2208025934432491,-0.4539437318512949
70,70,4.74,0.0,0.042884606,-0.093631642,0.974123209,0.203325523,-0.237354826,-0.361663694,0.4656596101307711,-0.0585272257211568,0.0343947721996353,-0.8823563288080265,4.741,1.0,0.011051414,-0.043649242,0.978878241,0.481885294,0.864024286,0.013354657,0.4169152676557424,0.0321726044718265,0.0196939842274472,-0.9081622818099688,4.741,2.0,0.049422164,-0.039248201,0.977956046,0.596801696,1.047581584,-1.115373101,0.359204736509349,0.0051809469084398,0.0014976059258894,-0.9332432010118648,4.741,3.0,0.089544956,-0.138119209,0.965829066,0.219523832,-0.625658638,0.151487786,0.567981306525435,-0.113092166298709,0.0221125035988886,-0.8149346197972659,4.742,4.0,0.128287299,-0.189535693,0.95264085,0.264214541,-0.749808503,0.262197479,0.552961282076344,-0.1629366430034213,0.0238631518665801,-0.8167717067052789,4.62,5.0,-0.343713801,0.016490109,0.917779875,0.24048066,2.060256017,-0.600839977,0.7718285300155866,0.0566875104021299,0.235950887747915,-0.5877026671620249,4.62,6.0,0.480115907,-0.24987308,0.816450341,-0.26595614,-0.26582706,-2.57302049,0.8525403254735598,-0.2051894833958969,-0.411862410408748,0.2478742105130289,4.62,7.0,-0.182616346,-0.086288881,0.958574723,-0.157985836,0.403177817,-3.208103581,0.5741354608679067,-0.2720914632656016,-0.1430224168202538,-0.7588671138472622,4.62,8.0,0.1986668,-0.27434176,0.919846781,1.975935517,-0.084479888,0.008512448,-0.8421577939626532,0.1991035322974227,0.1728306252067145,-0.4703802807147667
71,71,4.829,0.0,0.064693616,-0.078230917,0.974553056,0.217993357,-0.259263232,-0.422020662,0.4482272866256631,-0.0647878568244611,0.0161553512290054,-0.891422367769037,4.829,1.0,-0.034694455,-0.003834804,0.979233164,0.674567766,0.488691912,-0.644240109,0.3864910254120905,0.0651170638432862,-0.0003982137715076,-0.919991465557226,4.829,2.0,0.001417763,-0.007670598,0.979808732,0.36784889,0.682973718,-0.537908228,0.3342336385842144,0.0424719407456945,-0.0029187558801384,-0.9415282735808644,4.83,3.0,0.126658919,-0.122097,0.96414306,0.209000606,-0.51582981,-0.265940075,0.5591142934252061,-0.1261927054970538,-0.0033006165569916,-0.8194240134980852,4.83,4.0,0.165834601,-0.178510567,0.948946712,0.101267525,-0.549996049,-0.505586669,0.534408532941027,-0.1793084473435021,0.0008569635355664,-0.8259874492052409,4.682,5.0,-0.546355117,0.055602374,0.810743771,2.018356477,4.182939274,-0.83323266,0.6915797447905067,0.2516622462895437,0.3281472405598067,-0.5922017890052199,4.681,6.0,0.42964572,-0.181165776,0.861417736,0.649993074,2.69041399,-2.147063243,0.9425160281637238,-0.1444147806307012,-0.2716317543462696,0.1304764263023503,4.682,7.0,-0.043804323,-0.093232347,0.974761463,0.235755958,-2.180833597,-0.318710108,0.5567730768280545,-0.3229328202568661,-0.2006270791938879,-0.7385573164044191,4.682,8.0,0.236971714,-0.256436498,0.916222533,0.074891223,-0.958278708,-0.430425925,-0.8476226732098735,0.1559283246697881,0.2146801225696452,-0.4594938589357897
72,72,4.845,0.0,0.068641245,-0.068648621,0.975324944,0.221844048,-0.038644412,-0.257778508,0.4375985105347395,-0.0601093506993158,0.0045720905096171,-0.8971474268617483,4.846,1.0,-0.063123296,0.019674593,0.977780834,0.2279638,0.424061778,-1.416529994,0.321316440881618,0.08543759664597,0.0025025358428858,-0.9431065153061372,4.846,2.0,-0.0350396,-0.001217884,0.979336379,-0.091358571,0.557192607,-0.817470104,0.2963095581843431,0.0650174132861939,0.0133268747314309,-0.9527831737116604,4.846,3.0,0.148757358,-0.107863666,0.961302074,0.203271314,-0.295607126,-0.056083846,0.5583593597575078,-0.1294420417819415,-0.0196539101637667,-0.8192028485093192,4.846,4.0,0.194701503,-0.164897504,0.946228904,0.294815364,-0.300100212,-0.017076494,0.5371218298983306,-0.1789230962322934,-0.0179622466702498,-0.8241140838354089,4.75,5.0,-0.672093182,0.143246242,0.698750506,0.803504977,0.78887777,-0.470393237,0.6585318644082957,0.2976397639169227,0.3287985652750489,-0.6079785012378989,4.75,6.0,0.16656927,-0.067171187,0.963074094,0.893307294,5.150824338,-3.063527717,0.9960069350306648,-0.0731348947725251,0.0101208383948876,-0.050190050484307,4.751,7.0,0.044639337,-0.121693692,0.971816842,-0.774642524,-1.076485741,-1.391166259,0.492063735563079,-0.3452402722564011,-0.2040635904380112,-0.7726839493697161,4.751,8.0,0.357825841,-0.249654104,0.875316798,-0.564956823,-1.377712943,-1.527233805,-0.8632288383031221,0.1196315729610253,0.2967175047142836,-0.3904906937032461
73,73,4.92,0.0,0.070155886,-0.047450216,0.976479712,0.410384642,0.021493937,-0.133915586,0.4329444627068877,-0.0485756859372237,-0.013557422706271,-0.9000087173115248,4.92,1.0,-0.072727183,0.042012066,0.975830796,0.457350379,-0.063325877,-0.409381911,0.3003928428739935,0.0849908458730742,-0.0192693035788426,-0.9498259788021414,4.921,2.0,-0.057901662,0.007276933,0.977865248,0.467593825,-0.078867576,0.091147926,0.2993343382218468,0.0647711997237644,-0.0112455325144654,-0.9518808663094868,4.921,3.0,0.161572706,-0.095210166,0.962111888,0.235783676,-0.079875832,0.01792227,0.5609068630251206,-0.122776393162342,-0.0301137596575319,-0.8181702816484188,4.921,4.0,0.204383491,-0.142010657,0.948086685,0.383471325,-0.104682258,0.209183852,0.5499228358449407,-0.16782999444336,-0.0326966339016007,-0.8175260838119508,4.827,5.0,-0.637373783,0.146374001,0.729177147,0.257487573,-0.894452334,0.603876505,0.6930781449095912,0.2885866615684291,0.269595751440445,-0.6030576710553731,4.827,6.0,-0.16161602,-0.06299333,0.96479485,-1.12894583,3.776838721,-0.775186859,0.9686682310534932,-0.1131592728145469,0.1984562572733667,-0.0974266445733721,4.827,7.0,0.177808166,-0.178368121,0.9466758,-0.94978834,-1.821022512,-0.281095887,0.4562635739527561,-0.4160029192188308,-0.1951093453880639,-0.76203508162519,4.827,8.0,0.423393877,-0.241458897,0.848639632,-0.127159151,-0.567072262,-0.628422677,-0.8689526040459189,0.0958183111627005,0.3226922829977712,-0.3627808066331934
74,74,4.995,0.0,0.053310191,-0.011439741,0.978342044,0.607508848,0.439731523,0.014662362,0.4356393593951936,-0.0134264373021276,-0.0306198133016537,-0.8995001425016503,4.995,1.0,-0.055124745,0.052907959,0.977028152,0.074365833,-0.447258773,0.479090859,0.3227712847372373,0.0594982113622775,-0.0313565102373002,-0.9440844400049718,4.995,2.0,-0.028230177,0.022913357,0.978189672,0.279022852,-0.78793157,-0.213807979,0.2881903572749161,0.0267156012489469,-0.0351241022514981,-0.9565557443582102,4.995,3.0,0.158567206,-0.075982152,0.963612035,0.351039972,0.043504826,0.228515317,0.5728787634429625,-0.1079280195555224,-0.0403422115053001,-0.8115010603577464,4.995,4.0,0.204779452,-0.117812908,0.950969765,0.525089601,-0.017845955,-0.140872533,0.5493100249707878,-0.1492901658345337,-0.0533412363653348,-0.8204423534622692,4.929,5.0,-0.584664766,0.159489586,0.769929336,-0.166421147,0.934560212,1.497900629,0.7309675043305263,0.3287968480341097,0.2753909905284457,-0.5307908652863179,4.929,6.0,-0.39031697,-0.06383221,0.896346536,0.689854391,3.16071154,-2.226980957,0.915205478698193,-0.0771766098435156,0.3283342390259884,-0.2205432613731333,4.929,7.0,0.278413273,-0.222016341,0.913113242,-0.612525343,-1.540477939,0.099989874,0.4433842518730651,-0.4697661412110188,-0.1847195570147553,-0.7406813505272992,4.93,8.0,0.504418567,-0.233384258,0.806761239,-0.224310064,-1.823582601,-0.655664754,-0.8507066846186502,0.0540577122040471,0.4026436375756112,-0.3335476002256477
75,75,5.087,0.0,0.02289057,0.024597068,0.979339576,0.62261348,0.495043839,0.046673997,0.4391483241179378,0.0232774283751539,-0.0464069275880998,-0.8969132108651756,5.087,1.0,-0.017769827,0.048450472,0.977888943,-0.431068618,-0.564606439,0.674160281,0.3555424790575769,0.0197991095216897,-0.0207533843979852,-0.9342199087387132,5.087,2.0,0.044320149,0.075426016,0.975766694,0.6672091,-1.135472378,0.804359281,0.3247615548231525,-0.0219793272515317,-0.0857156102933125,-0.9416473203033414,5.087,3.0,0.149053698,-0.051299023,0.966811463,0.511131754,0.152385711,0.530728584,0.5979274199504399,-0.0845183438606996,-0.0524451222609372,-0.7953546122161422,5.088,4.0,0.207393895,-0.084464781,0.954443541,0.587595824,-0.067934355,0.23836688,0.5640198142146069,-0.1325259106862566,-0.0747616699514906,-0.8116213556062724,5.008,5.0,-0.614691241,0.085599642,0.758807867,1.341086828,-0.423148709,-4.436596466,0.5981002163935087,0.2875793815125698,0.2879237317032886,-0.690415929133257,5.007,6.0,-0.454886529,-0.129579646,0.856773226,0.629144693,-0.504264588,-0.397162773,0.923826435345932,-0.0538013491890405,0.2888117326196814,-0.2454341363435105,5.008,7.0,0.329861218,-0.238460831,0.889774696,-0.504164645,-0.29876013,-0.885080329,0.4081286187212674,-0.4616225569380277,-0.1767433561271131,-0.7675268279165179,5.008,8.0,0.670229305,-0.183304265,0.691168015,-0.34833826,-2.729489283,-2.078327823,-0.8261139790959512,-0.0265224976792197,0.5133133348501749,-0.2309581583839428
76,76,5.16,0.0,0.000734668,0.059521605,0.977792738,0.379258995,-0.046770637,-0.392156881,0.4211594653309178,0.029096061996866,-0.0619489083961331,-0.9044006063061754,5.16,1.0,0.020774684,0.018274631,0.979822663,-0.288555533,-0.520984685,1.605695341,0.4314825249780138,-0.0152162543491423,-0.0166440787434912,-0.901839381977168,5.16,2.0,0.098896827,0.045188979,0.974003785,-0.835055865,-0.184776754,1.966261275,0.4177933458301323,-0.0590060393254431,-0.0399188572129867,-0.9057447169826588,5.161,3.0,0.142667074,-0.034097961,0.969519693,0.127774029,0.138292859,-0.487970009,0.5797197172971025,-0.0724557177335011,-0.0530974455724236,-0.8098492943865385,5.161,4.0,0.20220909,-0.067051892,0.956420685,-0.202201152,0.206625457,-0.362762797,0.5495056307340439,-0.125574510323794,-0.0589158242004253,-0.8238953391100744,5.038,5.0,-0.587624424,0.079716008,0.780389579,0.694621562,-0.763726248,-0.68517495,0.5800676915715796,0.2691421123346615,0.2409675077547036,-0.7300812672362865,5.038,6.0,-0.345373927,-0.131598242,0.907250105,0.387183696,-1.250942349,-1.368849749,0.9254567324207564,-0.067384787309449,0.210862256615067,-0.3074511922103383,5.038,7.0,0.307906359,-0.225113293,0.90245647,0.634935284,1.145990716,0.713025778,0.4726326081834914,-0.3877772364876579,-0.1419485603408306,-0.7785228569289606,5.038,8.0,0.767854823,-0.159625174,0.587565124,-0.204448573,-1.757930827,-0.849534696,-0.7936783787625933,-0.0605601775282486,0.575772371126726,-0.1867974106609514
77,77,5.189,0.0,0.000890265,0.065922505,0.977858083,-0.105257831,0.075956544,-0.576462485,0.3957006433541369,0.0308051035260995,-0.0516930208825209,-0.9164059570069956,5.189,1.0,0.033902069,0.057817902,0.977372877,0.517440597,-0.352506681,0.459941778,0.4524936328808365,-0.0185261336801501,-0.0492849168315913,-0.8902119363084676,5.19,2.0,0.119992437,0.035900767,0.971834837,0.209808948,-0.279357946,0.665005328,0.4481384782863952,-0.0671996293136331,-0.0536838435493188,-0.8898169244518991,5.19,3.0,0.120766531,-0.031478354,0.971391558,-0.281222545,0.482885354,-1.393268247,0.5244385217625618,-0.0552554056240607,-0.0300942899291635,-0.8491203747140207,5.19,4.0,0.187945538,-0.087673009,0.956986896,-0.973424457,0.589140629,-1.996252245,0.4651895966476239,-0.1161830317730112,-0.0128927700377614,-0.8774587846614824,5.142,5.0,-0.511101604,0.087153598,0.830178536,0.23367143,-0.466056579,1.696359358,0.6484598170441779,0.2776707923971085,0.1831046623887208,-0.6847419071008477,5.142,6.0,-0.19689834,-0.088445909,0.955612037,1.240822651,-1.892222179,-0.100814527,0.9449685378275072,-0.0326812539810619,0.0910590124074241,-0.3125294456747288,5.143,7.0,0.05628487,-0.157958128,0.964382312,1.064269654,5.021687822,-0.373468859,0.5323801908704843,-0.1368195279187092,-0.0374504227381294,-0.8345353287821575,5.143,8.0,0.847998574,-0.092564563,0.481236137,-2.315947541,-0.20616837,-5.7294315,-0.8229850049466184,-0.1239870591019509,0.541580802067773,0.1183770486196174
78,78,5.255,0.0,-0.006458639,0.057514129,0.977316945,-0.173509099,0.083288961,-0.461788487,0.3751853982321779,0.0310199591794706,-0.0388655606090993,-0.9256150102955366,5.255,1.0,0.05332182,0.043786802,0.977411633,-0.533862873,-0.247157115,-0.811586655,0.4156480706157419,-0.0381562584584182,-0.0305685999678314,-0.9082105163616376,5.255,2.0,0.120334359,0.02527623,0.971786887,-0.473890587,-0.009749098,-2.016215483,0.3582255871307723,-0.0690863829112249,-0.0386185161056582,-0.9302742126033884,5.255,3.0,0.088433587,-0.044862117,0.973502384,-0.327624359,0.62595825,-0.696387359,0.4953968439635178,-0.0352395291178585,0.0006038902429111,-0.8679514836067233,5.255,4.0,0.153758928,-0.112013116,0.96132682,-0.255678933,0.772686195,0.304537762,0.4782045674103349,-0.0867024834748145,0.0207825022797382,-0.8737111414341623,5.173,5.0,-0.395134464,0.040087977,0.895151221,-1.426095299,-2.462659418,0.046280958,0.6955745066993256,0.1332251540450975,0.1399192781095526,-0.691989710597601,5.173,6.0,-0.05921285,0.014519776,0.977216974,0.662337807,-2.320283873,1.481772243,0.9715021066757572,-0.0243670561621351,-0.0374568097467892,-0.2327807782059117,5.173,7.0,-0.244883271,-0.07840977,0.945545922,1.369267779,2.398813469,-0.24157379,0.5417402477758726,0.0215577232187872,-0.0165331951106687,-0.8401067920025351,5.173,8.0,0.869731155,-0.284769843,0.346581671,0.41740346,3.484709306,1.237580078,-0.9156791594711786,-0.1036778753824848,0.3880593166893469,0.0138759431004467
79,79,5.314,0.0,0.009073607,0.020806667,0.985642304,-0.210412277,0.227609369,0.011041143,0.3766153378037326,0.0344428485356286,-0.0221361630697147,-0.925464514608898,5.314,1.0,0.088139068,0.012226549,0.978254065,-0.060423717,-0.299122397,0.090211224,0.4192355298786631,-0.0531585118553783,-0.0332351991269943,-0.9057103094498082,5.314,2.0,0.156122237,-0.02165339,0.968494697,-0.328128467,0.046588684,-1.426381936,0.2916379346409202,-0.0698794627812233,-0.0256853060794109,-0.953626992493078,5.314,3.0,0.050768919,-0.000649793,0.988623333,1.551123689,1.045637153,-2.283999282,0.4015517398274332,0.0423935173567461,-0.0426578862310831,-0.9138595595987278,5.314,4.0,0.099519769,0.065326372,1.014832144,3.941320179,-0.341077375,3.744775132,0.6662598336116886,0.0400867729313162,-0.1787118369562488,-0.7228782498342312,5.245,5.0,-0.302569664,0.024912582,0.932278908,-0.058517817,-0.954676389,2.600376242,0.7922311542222431,0.1146445782953518,0.084901590010172,-0.593311165376919,5.244,6.0,0.037602108,0.044639424,0.978035993,0.204471131,-1.16637049,0.833212666,0.9771031152905928,-0.0252054576123399,-0.0943218328138855,-0.1890438543052913,5.245,7.0,-0.379179293,-0.123766297,0.893340902,-0.876296362,2.679566517,-0.467925355,0.527706571665485,0.1232155219137712,0.1111860262630643,-0.8330554465006555,5.245,8.0,0.803541582,-0.33375017,0.449391534,0.321184277,2.411000505,1.925374169,-0.9502917020873404,-0.0592938541912044,0.2876196005936868,-0.1034644149136589
80,80,5.372,0.0,-0.010357875,0.044154697,0.979139457,-0.175102614,-0.000465297,-0.2853394,0.3638135312260505,0.0294657665734205,-0.0132733825769778,-0.930911005634823,5.372,1.0,0.061155032,0.018996084,0.978441726,-0.297220156,-0.069975757,-1.066052831,0.3704989951039553,-0.0572396984969272,-0.0231635716721178,-0.926778053522164,5.373,2.0,0.114955149,0.010506532,0.973495725,-0.327970409,0.01212116,-1.763113674,0.2071983646863293,-0.0691530578444198,-0.0158482584146682,-0.9757230780130698,5.373,3.0,0.045117158,-0.056376845,0.9769806,-0.254761791,0.77867447,-0.377813504,0.387037318745397,0.0665670547609797,-0.0087193610935126,-0.9196167211729808,5.373,4.0,0.084582423,-0.114130276,0.969520033,0.262492367,0.968224493,1.365837513,0.7273115106979425,0.0603689445184057,-0.1386524368244824,-0.6694393614858953,5.307,5.0,-0.143686992,0.012173611,0.969467819,-1.000589106,-3.084820384,1.57461187,0.8532419208830888,-0.0197379370002611,-0.0195792985388773,-0.5207737410425336,5.307,6.0,0.06293373,0.039938921,0.976934096,0.182421371,-0.301490946,-0.028467945,0.9761456816274346,-0.0151287784364185,-0.1049270890831433,-0.1894756825549676,5.307,7.0,-0.422177293,-0.152291893,0.869900289,0.884751765,-0.613783829,-1.15870147,0.4769371883415624,0.1149975024257011,0.0735870529965114,-0.8682692200256694,5.307,8.0,0.600599593,-0.373178383,0.678777595,1.454800612,4.847710599,1.792508945,-0.9733467109794126,-0.0590341218514076,0.0491099739845792,-0.2161003543218443
