Timestamp,Ax,Ay,Az,Rx,Ry,Rz,EMG
0,0.1233,-1.0571,0.1016,0.2061,-0.3305,-0.0019,2291
0,0.0747,-1.1021,0.1274,0.1455,-0.2237,-0.03,2161
0,0.1401,-0.9258,0.1152,0.2519,-0.1728,0.0609,2104
0,0.292,-0.7896,0.0332,0.2898,-0.1256,0.1589,2055
0,0.1755,-0.9827,0.1079,0.2282,-0.0594,0.1583,2041
0,0.2361,-0.9102,0.0496,0.1922,0.0317,0.1734,2026
0,0.0994,-1.0183,0.0994,0.1597,0.0747,0.1914,2116
0,0.0752,-0.979,0.0767,0.0866,0.1354,0.1701,2061
0,0.052,-0.9084,0.0828,0.1364,0.2104,0.1947,1947
0,0.0781,-1.0737,0.0488,0.0406,0.2836,0.1766,2072
0,0.0713,-0.9268,0.0593,0.1453,0.2132,0.2297,2007
0,-0.033,-0.9055,0.0442,0.1633,0.283,0.2336,1989
0,0.0051,-0.9509,0.0945,0.159,0.3219,0.2362,1996
0,0.0315,-0.9392,0.0981,0.1693,0.3444,0.2068,2001
0,0.0879,-0.9246,0.1487,0.2112,0.3786,0.2278,1977
0,0.1248,-0.8701,0.123,0.2669,0.4085,0.3196,2021
0,0.1575,-1.0168,0.167,0.2197,0.4376,0.3476,2081
0,0.1555,-1.0215,0.1523,0.1951,0.4251,0.3702,2016
0,0.2312,-0.9312,0.1284,0.2039,0.3345,0.4538,2030
0,0.1472,-1.0393,0.1384,0.1571,0.3006,0.5058,2128
0,0.1062,-1.0115,0.1729,0.149,0.3543,0.542,2076
0,0.0559,-0.9922,0.1797,0.1294,0.4164,0.5765,2083
0,0.0491,-1.0364,0.187,0.1016,0.4408,0.6285,2002
0,0.0305,-0.9866,0.1904,0.0846,0.3701,0.6657,2113
0,-0.0261,-0.9636,0.126,0.0947,0.3313,0.6805,2072
0,-0.0981,-0.9426,0.1157,0.0924,0.4204,0.6399,2190
0,-0.0793,-0.9382,0.0928,0.0265,0.5098,0.5417,2129
0,-0.0095,-0.9746,0.1106,-0.0035,0.5815,0.475,2070
0,0.0061,-0.979,0.095,-0.0003,0.5237,0.4978,2083
0,0.04,-0.9705,0.1738,-0.0325,0.5199,0.5267,2096
0,-0.0183,-0.9915,0.1606,-0.0569,0.5633,0.5241,2319
0,-0.0586,-1.0088,0.1807,-0.051,0.5413,0.5117,2013
0,-0.1091,-0.9795,0.1675,-0.0318,0.4954,0.5171,2069
0,-0.114,-0.9521,0.1665,-0.0304,0.4514,0.4894,2074
0,-0.1111,-0.9814,0.1792,-0.0768,0.5287,0.4253,2185
0,-0.1113,-0.9919,0.1685,-0.0791,0.441,0.3875,2143
0,-0.0876,-1.0046,0.1558,-0.078,0.3625,0.3645,2082
1,-0.0642,-1.0095,0.1514,-0.0811,0.3393,0.3261,2047
1,-0.0398,-0.9761,0.1597,-0.0481,0.3538,0.316,2136
1,-0.0442,-0.9583,0.1841,-0.1099,0.4843,0.3729,1907
1,-0.0403,-0.9897,0.1262,-0.155,0.4653,0.3851,2059
1,-0.0552,-1.043,0.1665,-0.1398,0.4063,0.3911,2032
1,-0.0718,-1.0081,0.167,-0.1161,0.3117,0.3966,2164
1,-0.1282,-0.9712,0.1599,-0.0906,0.3036,0.3902,1950
1,-0.1599,-0.9861,0.1458,-0.086,0.3332,0.3729,2022
1,-0.1953,-0.9312,0.155,-0.0711,0.3328,0.351,2239
1,-0.1689,-0.9287,0.1433,-0.1033,0.3493,0.2904,2072
1,-0.1138,-0.949,0.1453,-0.1085,0.387,0.2694,2033
1,-0.0764,-0.9695,0.1606,-0.1328,0.3968,0.2569,2056
1,-0.0864,-0.9985,0.1528,-0.1365,0.387,0.2569,2083
1,-0.1033,-1.0154,0.1343,-0.1128,0.3665,0.2787,1989
1,-0.0933,-1.0208,0.1365,-0.1063,0.3621,0.2839,1983
1,-0.0986,-0.9773,0.1743,-0.0891,0.3541,0.3075,1980
1,-0.1431,-0.9875,0.1633,-0.0854,0.3461,0.3244,2155
1,-0.1477,-0.9849,0.157,-0.0808,0.3322,0.3132,2015
1,-0.1243,-0.9487,0.1621,-0.0993,0.3454,0.2934,2019
1,-0.1624,-0.9675,0.1248,-0.1143,0.3305,0.2534,2034
1,-0.1653,-0.9907,0.1304,-0.1269,0.342,0.2593,2055
1,-0.1467,-0.9858,0.1353,-0.1368,0.304,0.2229,2094
1,-0.1328,-0.9773,0.147,-0.1458,0.2888,0.2167,2010
1,-0.1594,-0.9773,0.1467,-0.1586,0.2349,0.2037,2030
1,-0.1809,-0.967,0.1614,-0.1517,0.2317,0.2003,2011
1,-0.1995,-0.9434,0.155,-0.1611,0.2268,0.202,2013
1,-0.1975,-0.9131,0.1455,-0.1675,0.238,0.182,2004
1,-0.1938,-0.9241,0.1401,-0.1903,0.2502,0.1404,2148
1,-0.1948,-0.9568,0.1008,-0.2111,0.2714,0.1205,1947
1,-0.1799,-0.9778,0.1003,-0.2131,0.2425,0.0927,2073
1,-0.1772,-0.9922,0.1035,-0.2177,0.2216,0.0649,2100
1,-0.1465,-0.99,0.1064,-0.2113,0.1819,0.0514,2019
1,-0.1597,-0.9861,0.1201,-0.1965,0.1396,0.0415,2039
1,-0.1821,-0.9607,0.137,-0.1679,0.1117,0.0613,1999
1,-0.2014,-0.9045,0.124,-0.1563,0.1474,0.0731,2064
1,-0.2271,-0.8721,0.0977,-0.1507,0.177,0.0567,2117
1,-0.2498,-0.8867,0.0815,-0.1613,0.2294,0.0292,2032
1,-0.2366,-0.8767,0.0479,-0.1887,0.2405,-0.0134,2065
1,-0.2236,-0.8879,0.0339,-0.1922,0.2314,-0.0703,2070
1,-0.2034,-0.916,0.0193,-0.1919,0.2035,-0.1117,2083
1,-0.1909,-0.9229,0.0544,-0.1947,0.1614,-0.1481,2018
1,-0.1868,-0.9714,0.1018,-0.1822,0.1188,-0.167,2013
1,-0.1594,-0.9978,0.1301,-0.1843,0.1518,-0.1569,1924
1,-0.1692,-1.0012,0.1489,-0.1683,0.1188,-0.1598,2042
1,-0.1794,-1.022,0.1394,-0.1498,0.08,-0.1641,2065
1,-0.1865,-0.968,0.1172,-0.1559,0.0738,-0.171,2014
1,-0.2239,-0.9539,0.0942,-0.1563,0.074,-0.1919,1986
1,-0.2424,-0.9749,0.0918,-0.1372,0.0772,-0.2258,2055
1,-0.1804,-0.9863,0.0728,-0.1497,0.1272,-0.2783,2046
1,-0.1411,-0.9939,0.0962,-0.1567,0.0898,-0.3255,2016
1,-0.1497,-1.0098,0.1072,-0.1396,0.0001,-0.333,2038
1,-0.1653,-1.0088,0.1382,-0.1072,-0.0764,-0.3341,2080
1,-0.145,-1.0161,0.1592,-0.1032,-0.1217,-0.348,1957
1,-0.1621,-1.0371,0.1155,-0.0927,-0.1139,-0.3667,1976
1,-0.1619,-1.0708,0.127,-0.0742,-0.1079,-0.3871,2007
1,-0.146,-1.0452,0.0979,-0.0656,-0.1377,-0.4176,2018
1,-0.1375,-0.9858,0.1138,-0.0445,-0.1836,-0.4312,2078
1,-0.1189,-0.9421,0.0952,-0.0281,-0.2378,-0.4358,2127
1,-0.1648,-0.9448,0.1028,-0.0252,-0.2864,-0.4745,2049
1,-0.1265,-0.9453,0.1135,-0.0204,-0.294,-0.4787,1939
2,-0.1289,-0.9685,0.0955,-0.0134,-0.3136,-0.489,2154
2,-0.1182,-0.9685,0.1028,-0.0056,-0.3368,-0.4902,1838
2,-0.1082,-0.9758,0.0967,-0.0087,-0.3836,-0.5209,2059
2,-0.0908,-0.9805,0.0916,0.0152,-0.3884,-0.5257,2010
2,-0.0886,-0.9656,0.1033,0.0471,-0.4245,-0.5336,2007
2,-0.0549,-0.9675,0.104,0.0403,-0.4805,-0.56,1976
2,-0.0752,-0.9387,0.1013,0.0622,-0.4717,-0.5999,1800
2,-0.0474,-0.9443,0.093,0.0736,-0.5339,-0.5839,1769
2,-0.0369,-0.9285,0.1143,0.0617,-0.5167,-0.5753,2070
2,-0.0361,-0.9294,0.1289,0.0566,-0.5369,-0.5651,2141
2,-0.0164,-0.9592,0.1509,0.0621,-0.5263,-0.562,2346
2,-0.0012,-1.0071,0.1628,0.0561,-0.4835,-0.5425,2173
2,0.0269,-1.0312,0.1621,0.0682,-0.5095,-0.5062,2169
2,0.0398,-1.0134,0.1338,0.0992,-0.5871,-0.4793,1756
2,0.0095,-0.9761,0.1421,0.1113,-0.6365,-0.4787,2042
2,-0.0288,-0.9382,0.1287,0.1109,-0.6392,-0.4755,2096
2,-0.0117,-0.9585,0.1733,0.1418,-0.609,-0.5014,2152
2,0.4016,-1.0444,0.249,-0.1016,-0.8468,0.2312,2003
2,0.4001,-1.1001,0.2559,-0.1846,-0.8947,0.298,2076
2,0.4668,-1.1616,0.2163,-0.3195,-1.0074,0.3183,1993
2,0.5713,-1.1477,0.1455,-0.4534,-1.1921,0.3493,2167
2,0.6233,-1.1548,-0.0002,-0.6349,-1.427,0.3405,2196
2,0.7156,-1.229,-0.2004,-0.9416,-1.8612,0.3444,2040
2,0.8513,-1.0684,-0.3948,-1.04,-2.5723,0.459,2298
2,0.9341,-1.2434,-0.343,-1.2495,-3.6041,0.502,2208
2,1.0991,-1.0974,-0.1968,-1.1432,-4.3635,0.6411,2005
2,1.064,-0.8977,-0.1914,-1.3315,-4.3635,0.6898,2157
2,0.9629,-1.0403,-0.1792,-1.6446,-4.3635,0.5633,2151
2,0.7969,-0.9512,-0.1658,-1.6021,-4.3635,0.3943,2237
2,0.9329,-0.8296,0.1125,-1.3689,-4.3635,0.5883,2201
2,0.7756,-0.7971,0.4739,-1.1061,-4.3635,0.8271,2050
2,0.3547,-0.665,0.4656,-0.9957,-4.3635,0.7716,1884
2,-0.054,-0.644,0.4956,-0.8959,-4.3635,0.5422,1863
2,-0.0923,-0.7124,0.6768,-0.9118,-4.3635,0.3918,1943
2,-0.2432,-0.7542,0.7048,-0.9513,-4.3635,0.2429,2003
2,-0.29,-0.6223,0.7405,-0.8455,-4.3635,0.1716,1616
2,-0.5598,-0.6648,0.7996,-0.8421,-4.2057,0.02,1701
2,-0.5879,-0.4192,0.8167,-0.5485,-3.993,0.0598,1780
2,-0.6729,-0.3813,0.8721,0.0329,-3.7524,0.0706,2042
2,-0.8298,-0.3525,0.916,0.2301,-3.2813,0.1858,2679
2,-1.1658,-0.4026,0.7966,0.5514,-2.2225,0.0108,1699
2,-1.3806,-0.5356,0.8372,0.7277,-0.8269,-0.0221,2110
2,-1.5208,-1.0107,1.1584,1.0662,0.5769,0.1774,2131
2,-0.8706,-2.0,1.261,0.0589,1.6233,-0.6405,1925
2,1.1272,-2.0,0.6528,-1.2202,2.341,-0.4477,2181
2,1.9999,-2.0,-0.3149,-1.582,2.119,-0.0766,1864
2,1.9999,-0.3884,-0.1238,-0.7505,0.5843,-0.3123,510
2,0.686,0.5579,-0.6541,-0.4358,0.444,0.2241,2418
2,-0.0815,-0.7754,-0.9927,-0.5908,1.3315,0.5947,3235
2,-0.3367,-1.0649,-0.6155,0.5544,1.6024,1.4246,2521
2,-0.4907,-0.8972,0.0413,0.6035,-0.7961,1.3556,1369
2,-0.2888,-0.9248,-0.0625,0.1163,-1.6185,0.4026,1294
2,0.0117,-0.9834,-0.322,-0.2362,-0.5853,0.1772,1712
2,0.2844,-0.9863,-0.395,-0.2175,0.483,0.4542,2192
2,0.4067,-0.9531,-0.0444,-0.1176,0.8096,0.5512,2373
2,0.3459,-1.0999,0.4204,-0.0847,0.5176,0.6774,2153
2,-0.011,-1.1611,0.4272,-0.1232,0.451,0.8369,1941
2,-0.4478,-1.0977,0.3562,-0.1037,0.6958,0.7,1963
2,-0.4431,-1.0327,0.1316,-0.2193,0.9596,0.5596,1881
2,-0.1223,-0.9167,0.0176,-0.4228,0.9967,0.3496,2078
2,0.1868,-0.9121,-0.0957,-0.4502,0.605,0.2313,2111
2,0.2432,-1.0154,-0.1938,-0.289,0.0734,0.3521,2180
2,0.002,-1.0278,-0.1277,-0.1144,-0.1832,0.5209,2109
2,-0.1846,-0.9983,-0.0442,-0.1228,0.0237,0.4508,2103
2,-0.2112,-1.0002,-0.0762,-0.1581,0.3816,0.293,2044
2,-0.0107,-1.0068,-0.0952,-0.1661,0.365,0.1418,2107
2,0.0186,-1.0037,-0.0647,-0.1529,0.1601,0.0589,1944
2,-0.0757,-1.0085,-0.0435,-0.0995,0.124,0.0603,2031
2,-0.2249,-1.0508,0.0498,-0.1286,0.3382,0.0182,1974
2,-0.1548,-1.0925,0.0256,-0.2156,0.5774,-0.1281,2055
2,0.1733,-0.908,0.0244,-0.132,0.5416,-0.0803,2031
2,0.2092,-1.0752,0.1599,-0.189,-0.053,0.0499,2051
2,0.0427,-0.9839,-0.134,-0.0364,-0.1445,0.153,2043
2,0.072,-0.9783,-0.0493,0.0095,-0.1904,0.1156,2055
2,-0.0129,-0.9878,-0.0708,0.0189,-0.1787,0.1834,2086
2,-0.0471,-0.9897,-0.0806,0.0382,-0.1776,0.1349,2020
2,-0.0632,-1.0017,-0.0249,0.0388,-0.0566,0.1189,2077
2,-0.0508,-1.0339,-0.0247,0.0551,-0.0158,0.1068,2063
2,0.0225,-1.0298,-0.0308,0.0525,0.0597,0.1012,2018
2,0.0308,-0.9985,-0.0229,0.0197,0.1056,0.0514,2057
2,-0.0215,-0.9944,-0.0083,0.0583,0.1057,0.0973,2033
2,-0.0557,-1.0417,0.0034,0.0461,0.1083,0.0654,2119
2,-0.0847,-0.9961,-0.001,0.0563,0.1571,0.0092,2057
2,-0.0869,-0.9871,0.0122,0.0188,0.2013,-0.0792,2034
2,-0.0171,-0.9888,0.0291,-0.0039,0.1695,-0.0811,2028
2,0.0381,-0.9912,0.031,0.0067,0.1035,-0.0668,1990
2,0.0012,-0.9683,0.0083,0.0061,0.1111,-0.0419,2063
2,0.0505,-0.9802,0.0178,-0.0465,0.0771,-0.0169,1968
2,0.0818,-0.9751,-0.0002,-0.0293,-0.0004,0.0372,2083
2,0.147,-0.9692,-0.0244,-0.0537,-0.0005,0.0864,2044
2,0.1487,-0.9727,-0.022,-0.0397,-0.1304,0.1334,1971
2,0.1841,-1.0107,-0.0906,-0.085,-0.1605,0.173,2112
2,0.106,-1.0266,-0.02,-0.0703,-0.2179,0.22,2032
2,0.0847,-0.998,-0.0315,-0.0667,-0.2626,0.2895,1983
2,0.0657,-1.0159,0.0217,-0.069,-0.2055,0.344,2026
2,0.0549,-0.9736,-0.0005,-0.088,-0.1874,0.4119,2021
2,0.0659,-0.9692,-0.001,-0.1168,-0.181,0.4252,2041
2,0.0957,-0.97,0.0396,-0.1236,-0.1748,0.4852,2046
2,0.0562,-1.0249,0.0088,-0.1168,-0.1559,0.4866,2009
2,0.0847,-1.0051,0.0117,-0.1531,-0.0855,0.5581,2015
2,0.0754,-1.0107,-0.0254,-0.1846,-0.0808,0.5558,2042
2,0.0818,-0.9883,-0.0295,-0.175,-0.1232,0.6351,2129
2,0.0198,-0.998,-0.0002,-0.2024,-0.1663,0.6407,2030
2,-0.0786,-0.9829,0.0056,-0.1864,-0.2633,0.679,2074
2,-0.0525,-1.0076,0.0212,-0.2301,-0.2314,0.6582,2051
2,-0.0698,-1.0183,0.0007,-0.2204,-0.2658,0.6219,2013
2,-0.0603,-0.9873,-0.0076,-0.1759,-0.2706,0.6534,1969
2,-0.0352,-0.9712,-0.0024,-0.1309,-0.3356,0.6691,2102
2,-0.0334,-0.9421,-0.0022,-0.1505,-0.2478,0.7079,2024
2,-0.0024,-0.9604,-0.0271,-0.1593,-0.1467,0.7894,2132
2,0.0981,-1.0234,-0.0205,-0.2084,-0.227,0.7766,2010
2,0.1084,-0.9841,-0.0264,-0.1984,-0.2659,0.8451,2067
2,-0.0298,-1.02,-0.0168,-0.2007,-0.3019,0.8584,2114
2,-0.043,-0.9875,0.0413,-0.2063,-0.3352,0.9103,2098
2,-0.0061,-0.9587,0.021,-0.2053,-0.4014,0.9353,2033
2,0.0042,-0.9626,0.0562,-0.2242,-0.4204,0.9938,2051
2,0.0322,-0.9485,0.0598,-0.2701,-0.333,1.0672,2052
2,0.0552,-0.9836,0.0752,-0.3156,-0.3599,1.1063,1986
2,0.0786,-1.0144,0.0593,-0.3546,-0.3895,1.2179,2166
2,0.0505,-1.0042,0.0522,-0.3725,-0.4356,1.2995,2105
2,0.0615,-1.0164,0.0723,-0.3742,-0.6257,1.4082,2044
2,0.073,-1.0979,0.0413,-0.4089,-0.7182,1.5538,1978
2,-0.0425,-1.1379,0.0776,-0.3618,-0.5654,1.7082,2064
2,0.0305,-1.0623,0.1169,-0.3252,-0.636,1.7467,1933
2,0.1807,-1.2605,0.1514,-0.297,-0.7178,1.8536,1976
2,0.1941,-1.5447,0.2454,-0.3075,-1.0617,1.9493,1904
2,0.2402,-1.5444,0.3503,-0.3083,-1.3996,2.1338,1892
2,0.2327,-1.4263,0.4465,-0.377,-1.6563,2.3226,1896
2,0.1519,-1.6924,0.5815,-0.3629,-1.7302,2.5273,1963
2,0.3601,-2.0,0.7151,-0.4915,-1.7191,2.7088,1919
2,-0.0051,-2.0,0.584,-0.8136,-1.1902,2.4581,1841
2,0.1501,-2.0,0.5791,-1.0544,-0.8921,2.3217,2011
2,0.3091,-1.8298,0.5269,-1.3275,-0.8891,2.2081,2212
2,0.4075,-1.5283,0.5198,-1.3848,-1.3017,2.2368,2207
2,0.2239,-1.2524,0.2874,-1.3814,-1.6528,2.2397,2188
2,-0.3818,-1.1272,-0.1355,-1.4186,-1.2826,2.4931,2082
2,-0.4993,-1.2385,-0.3176,-1.3443,-1.1211,2.7607,2212
2,-0.4912,-1.1453,-0.1599,-1.1888,-1.3415,2.8681,1813
2,-0.5059,-1.3533,-0.1592,-1.3735,-1.3705,2.8243,2002
2,-0.5686,-1.6252,-0.2117,-1.6443,-1.4205,2.4539,2050
2,-0.4087,-1.5027,-0.4548,-1.9482,-1.2495,1.7759,1922
2,-0.1946,-0.4985,-0.5798,-1.5502,-1.2326,1.0254,1732
2,-0.0803,0.1465,-0.2666,-0.6356,-1.5592,0.4887,2380
2,-0.0947,-0.3728,-0.0127,-1.1218,-1.6455,0.6929,2135
2,0.1838,-0.0193,-0.2556,-1.3786,-1.6472,1.0713,2555
2,-0.1135,-0.1243,-0.323,-1.1003,-1.67,0.1795,2221
2,-0.168,-0.3967,-0.5208,-0.679,-1.862,-0.2642,2002
2,-0.2532,-0.4509,-0.2598,0.3088,-1.856,-0.5919,1905
2,-0.0647,-0.4536,0.2163,0.5215,-2.4277,-0.6464,2023
2,-0.1472,-0.5017,0.1465,-0.1747,-2.5863,-0.791,2002
2,-0.1873,-0.3557,-0.2415,-0.3824,-2.0501,-1.1272,1944
2,-0.3843,-0.3643,-0.332,-0.3129,-1.3364,-1.497,2151
2,-0.364,-0.3945,-0.2285,-0.1015,-0.9871,-1.6476,2169
2,-0.3481,-0.4292,-0.1648,0.0583,-0.5859,-1.8612,2040
2,-0.2678,-0.4233,-0.0823,0.0513,-0.2457,-2.1198,2017
2,-0.2808,-0.4355,-0.0408,0.0181,-0.0357,-2.3382,2005
2,-0.3064,-0.4773,-0.0496,0.0372,0.0189,-2.5112,2009
2,-0.3733,-0.532,-0.0808,0.0623,0.1478,-2.7346,2028
2,-0.3782,-0.5808,-0.0769,0.0001,0.3571,-2.9565,2038
2,-0.3665,-0.5959,-0.0588,-0.1357,0.5693,-3.2131,2030
2,-0.3445,-0.6177,-0.0244,-0.2365,0.6297,-3.5099,2030
2,-0.2617,-0.6353,-0.0359,-0.314,0.5433,-3.7747,2059
2,-0.1545,-0.6716,-0.0786,-0.3767,0.4299,-3.9839,2058
2,-0.0754,-0.6897,-0.1482,-0.3769,0.4361,-4.0626,1982
2,-0.0286,-0.7209,-0.1836,-0.3272,0.4814,-4.0474,2076
2,-0.0464,-0.7498,-0.168,-0.3089,0.4839,-4.0944,2088
2,-0.0737,-0.7556,-0.1272,-0.2658,0.3033,-4.1743,2073
3,-0.1174,-0.8013,-0.1384,-0.182,0.0629,-4.2391,2057
3,-0.145,-0.8384,-0.1182,-0.0515,-0.1222,-4.3153,2022
3,-0.1887,-0.9209,-0.0933,0.1147,-0.2274,-4.3383,2120
3,-0.2007,-1.0239,-0.0835,0.2481,-0.3285,-4.341,1958
3,-0.1987,-1.0718,-0.0701,0.38,-0.4281,-4.3406,1987
3,-0.207,-1.1677,-0.0303,0.4852,-0.5241,-4.2532,2085
3,-0.2109,-1.3298,0.0491,0.5486,-0.6745,-4.101,2201
3,-0.313,-1.6741,0.1875,0.2336,-1.015,-4.2498,2153
3,-0.3606,-1.4858,0.1218,0.1005,-1.2432,-4.0193,2069
3,-0.4856,-1.4446,0.1946,0.3045,-1.517,-3.5231,2160
3,-0.6685,-1.4661,0.3093,0.3453,-1.5812,-3.0428,2141
3,-0.7493,-1.384,0.3604,0.3003,-1.417,-2.6105,1987
3,-0.8447,-1.2163,0.3354,0.141,-1.2499,-2.1815,1985
3,-0.9355,-1.5723,0.3606,-0.4295,-1.0053,-2.0016,2070
3,-1.0137,-1.2422,0.1472,-0.6967,-0.3773,-1.3856,2155
3,-1.0315,-0.8679,0.2932,-0.2554,0.3144,-0.7091,1957
3,-0.8433,-2.0,1.0874,-1.0786,0.2309,-0.9304,2179
3,-0.9321,-0.6787,0.7119,-0.524,1.4809,0.8099,1838
3,-1.1526,-1.5178,1.4912,0.2312,1.415,3.1712,2032
3,-0.1108,-1.2197,1.9999,-0.8376,-0.8957,1.4049,1529
3,1.9999,0.3196,1.9999,0.3405,0.5253,-0.8569,72
3,1.9999,-2.0,0.386,-0.5586,1.2609,-1.507,74
3,1.7134,-1.366,-1.3577,-0.8471,1.6327,0.3655,3072
3,-0.0383,-2.0,-0.2368,-1.4828,1.2135,1.056,4064
3,-2.0,-2.0,-1.6501,-1.9929,4.3634,1.4616,4064
3,-0.2942,1.4753,0.259,-1.2218,1.7118,0.5936,3206
3,0.6328,-0.1704,1.1899,-0.444,-1.1227,1.3178,1109
3,-0.8032,-2.0,0.4014,-1.8068,0.4662,0.7472,1063
3,0.717,-1.6018,-0.8083,-0.6931,-0.7325,1.4966,1047
3,0.5286,0.8013,-0.0698,1.4624,-0.7754,1.9483,2244
3,-0.4551,-0.9231,0.7083,0.6098,0.1583,1.4119,2523
3,-0.5911,-1.103,0.3315,-0.6063,1.1717,0.8541,1824
3,-1.0596,-1.3882,0.1104,-0.4388,1.8254,1.0059,2130
3,-0.4424,-0.7139,0.0537,-0.1764,1.0391,0.7762,1971
3,0.0447,-1.1201,0.0129,-0.8391,1.3242,-0.0269,1841
3,0.446,-1.2617,-0.1587,-0.6083,1.0076,-0.0534,1895
3,0.8188,-1.0671,-0.4353,-0.3065,0.2602,0.2165,2105
3,0.7712,-0.9265,-0.4348,0.063,0.6293,0.3409,2064
3,0.7324,-0.7468,-0.2373,0.1494,1.2924,1.1686,2434
3,-0.1113,-1.103,0.1091,0.8625,0.0796,0.8826,2313
3,0.3254,-0.967,0.1047,0.5488,0.0949,0.9977,1917
3,-0.05,-1.0352,-0.043,0.3939,-0.073,0.7965,1798
3,0.2429,-0.9927,0.1619,0.541,0.1376,0.8227,1911
3,0.2922,-0.9468,0.1897,0.4599,0.65,0.8104,1968
3,0.4585,-0.9819,0.2478,0.1412,0.6086,1.0893,2062
3,0.3459,-1.0107,0.0493,0.0069,0.4244,1.2733,2207
3,0.2346,-0.9553,-0.0176,-0.0515,0.5321,1.2575,2091
3,0.1838,-0.9092,0.002,-0.1032,0.5562,1.2981,2121
3,0.1572,-0.9785,0.0068,-0.2428,0.5075,1.346,2061
3,0.0486,-0.9314,0.0847,-0.3832,0.6958,1.3667,2058
3,-0.0762,-0.9736,0.0952,-0.3848,0.673,1.3026,2007
3,-0.1094,-1.0071,0.0894,-0.3713,0.5657,1.236,2007
3,-0.0801,-0.9473,0.0757,-0.3145,0.5329,1.2011,2025
3,-0.0803,-0.959,0.0803,-0.2902,0.4638,1.1479,1990
3,-0.0122,-0.9958,0.0996,-0.3984,0.49,1.1565,2119
3,0.0562,-0.9941,0.0833,-0.5259,0.6008,1.1351,2210
3,0.0366,-1.0535,0.0764,-0.6428,0.6661,1.082,2185
3,0.0244,-1.0916,0.0232,-0.7488,0.6426,1.0673,2143
3,-0.0271,-1.031,-0.0945,-0.7333,0.7528,1.0593,2113
3,-0.0662,-1.0332,-0.0776,-0.6597,0.9801,1.1384,1948
3,0.1755,-1.0513,-0.0083,-0.6693,1.1039,1.2074,1837
3,0.1033,-1.0083,0.0115,-0.5882,0.4215,0.9203,2114
3,-0.2017,-1.0823,-0.0762,-0.5695,0.3393,1.1419,2134
3,0.0576,-0.9939,-0.1406,-0.4851,0.2807,1.0625,2046
3,-0.0237,-1.0066,-0.1125,-0.4675,0.3179,1.0057,1959
3,-0.2617,-1.0735,-0.0911,-0.4349,0.3432,0.9035,2097
3,-0.0183,-0.9895,-0.0178,-0.3757,0.3682,1.0911,2497
3,0.0823,-1.0059,-0.0193,-0.341,0.2096,1.1483,1950
3,0.1484,-1.0823,-0.0464,-0.3738,0.1145,1.2352,2301
3,-0.0547,-1.0559,-0.0596,-0.3324,0.1412,1.3151,2188
3,0.009,-1.0981,-0.0037,-0.312,0.2304,1.4354,2256
3,0.1665,-1.1055,-0.0256,-0.2872,0.1437,1.5551,2218
3,0.071,-1.1392,0.1138,-0.3269,0.069,1.629,1939
3,-0.0151,-1.144,0.0671,-0.3432,-0.0589,1.7024,2042
3,-0.0574,-1.1763,0.166,-0.223,0.0723,1.7791,2099
3,-0.1458,-1.1655,0.197,-0.1575,0.2159,1.964,1711
3,0.1189,-1.3755,0.0408,-0.2316,0.1197,1.847,1768
3,0.0364,-1.2061,0.071,-0.1779,0.1938,2.0381,1933
3,-0.1057,-1.2561,0.0601,-0.0915,0.1938,2.0363,1993
3,0.021,-1.4226,-0.0281,-0.0309,0.2888,2.22,2038
3,-0.1492,-1.6091,0.0044,-0.0019,0.3878,2.0937,1917
3,0.5408,-1.6807,0.0283,-0.1443,0.2911,2.2165,1970
3,0.259,-1.6223,0.0627,-0.1764,0.1591,2.0559,1875
3,0.4871,-1.5974,0.0601,-0.184,0.2301,2.5075,2121
3,0.6875,-1.687,0.1492,-0.1534,0.0872,2.6645,2048
3,0.9734,-1.8035,0.1716,-0.4119,-0.0956,2.6413,1820
3,1.1941,-1.5835,0.2686,-0.7024,-0.0868,3.1071,2134
3,0.4407,-1.3413,0.1448,-0.8184,0.6468,3.1211,2050
3,1.9999,-0.7703,0.4587,0.0759,-2.2035,3.4595,1398
3,0.7505,-1.2419,0.6497,0.1245,-4.1129,4.3634,643
3,-1.2183,-2.0,-0.1704,-0.3705,-2.3723,2.8501,3852
3,-1.1501,-1.9192,-0.4216,-0.7168,-0.1525,2.5484,2995
3,-0.321,-0.6841,-0.1719,-0.7538,-0.2374,3.9668,1610
3,-0.7126,-1.4314,-0.1951,-1.0859,-0.7072,2.6506,1591
3,-0.6567,-1.4985,-0.1694,0.2694,-0.8758,4.1831,1994
3,-1.092,-1.8125,0.5791,-0.598,-1.0642,3.4917,2069
3,-0.2537,-0.5222,0.2952,-0.3771,-0.5731,4.3634,2354
3,0.6606,-0.1724,-0.5684,0.0924,-1.0931,2.5912,2732
3,-0.3574,-0.4597,-1.5544,-1.5499,0.6954,1.8114,2422
3,-0.8545,-1.1091,-0.6292,-1.4596,0.6297,1.23,3220
3,-1.5552,-0.7986,-0.0293,0.2436,0.8799,0.587,1663
3,-1.209,-0.0088,0.2061,1.0857,-0.2107,-0.2458,1120
3,-0.5239,-0.165,0.0945,0.6243,-0.1176,-0.0344,930
3,-0.1104,-0.7971,-0.1558,-0.6305,0.2574,-1.7181,1692
3,0.1094,-0.4348,-0.2244,-1.4744,0.5593,-2.9946,2146
3,0.0466,-0.2444,-0.4148,-1.1705,0.9995,-2.5988,2774
3,-0.2676,-0.1653,-0.5286,-0.2354,1.2729,-2.063,2300
3,-0.4292,-0.1091,-0.4709,0.3035,1.3359,-2.0425,1820
3,-0.1992,-0.4048,-0.2666,0.4175,1.3416,-2.7237,1851
3,-0.0608,-0.4834,-0.2617,0.308,1.2174,-3.0704,2121
3,-0.3352,-0.2732,-0.3137,0.3125,1.3368,-3.2594,2232
3,-0.377,-0.1099,-0.4563,0.5102,1.5653,-3.6997,2198
3,-0.2979,-0.1558,-0.4524,0.7672,1.5918,-4.0374,2154
3,-0.1409,-0.1655,-0.4238,0.9286,1.555,-4.2924,2076
3,-0.2217,-0.1333,-0.2371,0.8363,1.3607,-4.3635,1977
3,-0.2527,-0.3853,0.0698,0.2627,1.1425,-4.3635,1931
3,-0.0964,-0.5076,-0.0874,0.3172,0.9953,-4.3635,1916
3,0.1499,-0.6042,-0.2908,0.4783,0.4466,-4.3635,2045
3,0.5542,-0.6426,-0.3079,0.5096,0.6906,-4.3635,1987
3,0.3704,-0.7405,-0.1113,0.1842,1.0162,-4.3635,1948
4,-0.1536,-0.8799,-0.2109,0.3071,-0.1958,-4.3635,2228
4,-0.2678,-0.9441,-0.1848,0.6233,-1.2769,-4.3635,2178
4,-0.3455,-0.9746,-0.1675,0.5533,-1.1075,-4.3635,1995
4,-0.6411,-1.0464,-0.1738,0.448,-0.8239,-4.3635,1878
4,-0.8906,-1.1343,-0.062,0.4548,-0.9801,-4.3635,2127
4,-1.1099,-1.2878,-0.1511,0.7205,-1.197,-4.3635,2159
4,-1.145,-1.5681,0.082,0.4995,-1.1792,-4.3635,2238
4,-1.093,-1.3391,-0.0652,0.499,-0.9823,-4.3635,1960
4,-1.0164,-1.4106,0.0725,0.8492,-1.0475,-4.3635,2018
4,-0.78,-1.6104,0.1501,0.8012,-1.1479,-4.0712,2183
4,-0.9014,-1.4768,0.0764,0.6909,-1.2141,-3.3239,2044
4,-1.1226,-1.3857,0.1489,0.698,-1.0477,-2.5646,1950
4,-1.2754,-1.3235,0.1206,0.7059,-0.7269,-1.97,2045
4,-1.283,-1.2344,0.1294,0.7361,-0.3048,-1.3077,2037
4,-0.7996,-2.0,0.8816,-1.2928,-1.3259,-2.654,2591
4,-1.2942,-0.1418,-0.374,0.3856,0.0988,-0.2079,1069
4,-2.0,-0.2139,0.4214,2.1314,2.6006,2.9058,2434
4,-1.8391,-2.0,1.9999,1.2431,1.9519,1.9591,2474
4,1.8958,-2.0,1.5405,-1.0304,-0.7965,2.2977,75
4,1.9999,-0.7771,0.5195,-2.8422,-2.9297,1.4181,76
4,0.9221,-0.2029,-1.0476,-2.0434,2.8831,-2.6798,1255
4,-0.8826,-1.3438,-1.0962,-0.7248,4.3634,0.6544,4064
4,0.2258,-1.0442,-1.0984,-0.9481,4.3634,3.8592,4064
4,-1.0308,-0.9587,0.0393,0.5204,2.8406,4.3634,2129
4,-2.0,-0.5081,0.1633,1.5388,0.3267,2.2967,1087
4,-2.0,-1.1675,0.0994,-0.6146,1.5081,1.4523,1435
4,-0.0747,-0.7327,-0.886,-1.7008,0.1549,0.9946,1273
4,0.3391,-0.6353,0.0393,-0.5588,-1.6648,0.206,2121
4,0.0874,-1.3406,-0.0503,0.0646,-0.548,0.7726,1984
4,-0.3354,-1.5178,-0.3289,0.4449,0.2063,1.2073,2236
4,-0.0115,-1.135,-0.0828,0.4713,0.1432,1.2829,2450
4,0.2126,-0.8887,0.0708,0.4047,0.4627,0.9227,1874
4,0.1946,-0.9407,0.1643,0.3518,0.8152,1.0275,1955
4,-0.0667,-1.114,0.3076,0.2599,0.7937,1.3133,2147
4,-0.4846,-1.114,0.2332,0.2679,0.2906,1.2158,1985
4,-0.6211,-1.0459,-0.022,0.1577,-0.1408,0.7303,1889
4,-0.4641,-1.0811,-0.217,-0.1217,0.0692,0.1418,1974
4,-0.1384,-1.1375,-0.1775,-0.1706,0.0798,-0.1352,2058
4,0.1636,-1.0627,-0.0273,-0.0285,-0.0651,-0.0121,2150
4,0.2886,-0.9897,0.0227,0.1744,-0.3687,0.2543,2205
4,0.3813,-0.9238,0.1204,0.3388,-0.5193,0.6718,1861
4,-0.0037,-1.0405,0.0889,0.2301,-0.6018,0.6351,1813
4,-0.2766,-1.0449,0.0789,0.0393,-0.4722,0.2063,2777
4,0.022,-0.9863,0.0471,0.1296,-0.4962,0.1898,2487
4,0.1465,-1.0254,0.1199,0.2051,-0.6356,0.3429,1908
4,0.2124,-0.9231,0.1709,0.2023,-0.7341,0.4783,1953
4,0.1128,-0.8723,0.1182,0.0446,-0.5606,0.4373,1930
4,0.0864,-0.9185,0.219,0.0321,-0.5481,0.4171,2092
4,-0.0066,-0.9312,0.229,0.0073,-0.426,0.5004,2014
4,-0.1104,-0.9485,0.2639,-0.0854,-0.1053,0.5123,2016
4,0.0051,-0.9771,0.1926,-0.1629,0.088,0.5012,2197
4,0.1777,-1.0647,0.1721,-0.2884,0.329,0.6026,1897
4,0.2014,-1.0269,0.1135,-0.2388,0.0234,0.6616,2032
4,0.1309,-1.063,0.0815,-0.1495,-0.2216,0.9331,2024
4,-0.2546,-0.9629,0.0278,-0.1587,-0.165,0.7664,2252
4,-0.0674,-0.8838,-0.05,-0.2233,0.2085,0.6349,2246
4,0.3655,-0.9319,-0.083,-0.1774,0.0964,0.7674,1812
4,0.2837,-1.0532,-0.1116,-0.1059,-0.2583,0.8259,1906
4,0.1213,-1.0107,-0.1553,-0.0056,-0.3895,0.9475,2131
4,0.1545,-0.9797,-0.1182,0.0236,-0.5681,1.0597,2095
4,0.0513,-0.9006,-0.0391,0.0754,-0.6721,1.1965,1975
4,0.0195,-1.001,-0.0718,0.1027,-0.747,1.1677,2083
4,-0.0132,-0.9656,-0.0845,0.1502,-0.6173,1.1785,2005
4,-0.0352,-1.0847,-0.1411,0.2409,-0.5863,1.1505,2038
4,0.0225,-1.0166,-0.2007,0.2831,-0.6532,1.1776,2029
4,0.0759,-1.0051,-0.2429,0.3145,-0.7333,1.1902,1996
4,0.0361,-1.0049,-0.219,0.3609,-0.717,1.2073,2351
4,0.1858,-0.9587,-0.1873,0.3221,-0.6654,1.2146,1853
4,0.0771,-0.9175,-0.1523,0.3753,-0.7447,1.2949,2148
4,-0.1606,-1.0332,-0.0234,0.371,-0.7845,1.2161,1886
4,-0.0308,-1.1067,0.1028,0.5068,-1.0195,1.395,2567
4,-0.1787,-1.0442,0.1016,0.5144,-1.1568,1.4367,1459
4,-0.0981,-0.9961,0.23,0.5265,-1.2641,1.4371,1914
4,-0.3357,-1.072,0.2439,0.4267,-1.0899,1.3157,2237
4,-0.2339,-0.8892,0.2878,0.4714,-0.8103,1.325,1241
4,-0.2583,-0.9871,0.3831,0.4595,-0.5409,1.3189,2004
4,-0.0837,-0.8662,0.3079,0.5075,-0.3227,1.4719,2398
4,-0.1465,-1.0227,0.3667,0.4578,-0.181,1.4635,1891
4,-0.0833,-0.9966,0.2886,0.493,-0.1076,1.5105,1905
4,0.0134,-1.1873,0.3088,0.4912,-0.1079,1.5932,1962
4,0.0122,-1.2349,0.3179,0.4987,-0.0451,1.6095,2332
4,-0.1218,-1.364,0.2856,0.536,-0.0304,1.6346,2024
4,-0.0972,-1.4829,0.2869,0.5135,0.0427,1.6325,2413
4,0.0935,-1.3865,0.283,0.5309,0.104,1.7287,1773
4,0.2285,-1.4468,0.2292,0.5359,0.1366,1.8297,1669
4,0.2847,-1.4446,0.1694,0.6201,0.223,2.1025,1773
4,0.4429,-1.5515,0.1628,0.5446,0.3611,2.3226,2214
4,0.7273,-1.6658,0.1958,0.3103,0.5401,2.3566,2167
4,0.9905,-2.0,0.2859,-0.2393,0.2068,1.8299,1917
4,1.0999,-1.4719,0.2185,-0.42,0.0265,2.1604,1871
4,1.0178,-1.4324,-0.03,-0.0537,-0.5641,2.4358,2072
4,0.4314,-1.7461,-0.114,0.2342,-0.5028,2.9076,2291
4,-0.3557,-1.6436,-0.3135,0.2587,0.4859,3.1293,2284
4,0.0054,-2.0,-0.071,-0.4856,-0.0186,2.2704,2417
4,0.4224,-2.0,-0.4348,-1.1227,-0.656,2.2839,1898
4,0.1667,-0.1194,-0.5659,-0.0146,-0.904,0.9351,1343
4,-0.5393,0.0225,-0.3162,0.5685,1.5297,2.221,2635
4,0.1372,-0.782,-0.2344,-0.2144,-0.1035,0.1955,2012
4,-2.0,-1.1003,0.1409,-0.4481,-0.8626,2.6698,3734
4,-1.4294,0.1394,0.0798,-1.2323,4.3634,2.6065,3062
4,-0.7017,-1.1926,-0.488,-0.028,3.5496,1.1907,1025
4,-2.0,-0.9204,0.2314,-0.1177,1.3524,-0.269,1219
4,-0.9602,-0.9414,0.2246,-1.0782,1.2965,-0.7176,1932
5,0.6758,0.0195,-0.0808,-0.9692,0.7739,-0.8837,1204
5,0.3154,-0.4382,-0.2178,-1.3812,0.767,-1.8271,1236
5,0.5591,-0.7705,-0.2356,-2.1128,1.8994,-2.2783,1585
5,0.1499,-0.47,-0.4551,-2.268,2.3107,-2.3457,2731
5,-0.0225,-0.5076,-0.408,-1.8925,1.3497,-2.905,2798
5,0.1082,-0.5347,-0.1509,-1.3982,0.3274,-3.4005,2095
5,0.1309,-0.2964,-0.1133,-0.3446,0.145,-2.952,1951
5,-0.0476,-0.4536,0.0742,0.0253,-0.0641,-2.9143,1963
5,0.0022,-0.6687,0.1147,-0.556,-0.4749,-3.5147,1981
5,-0.0796,-0.4841,-0.2498,-1.0291,-0.4659,-3.684,2280
5,-0.2048,-0.3682,-0.321,-1.0722,-0.6027,-3.9669,2311
5,-0.1316,-0.3826,-0.0916,-1.0485,-0.8811,-4.3374,2073
5,-0.322,-0.5396,0.0337,-1.1639,-0.5304,-4.3635,1903
5,-0.24,-0.7502,-0.1074,-1.2728,-0.7287,-4.3635,1907
5,-0.0137,-0.8425,-0.0427,-1.2204,-1.3053,-4.3635,2034
5,0.1113,-0.8298,-0.0315,-1.3362,-1.5,-4.3635,1923
5,-0.1152,-0.9089,-0.0952,-1.3808,-2.0295,-4.3635,2152
5,-0.5293,-0.9961,-0.155,-1.293,-2.6374,-4.3635,2204
5,-0.8503,-1.0234,-0.2278,-1.2319,-2.6795,-4.3635,2278
5,-1.0032,-0.9646,-0.2598,-1.2698,-2.3786,-4.3635,2209
5,-1.0823,-0.9712,-0.238,-1.1429,-1.9899,-4.3635,2253
5,-1.0588,-1.0222,-0.0476,-1.0436,-1.7962,-4.1997,2274
5,-1.0266,-1.1343,0.1216,-1.1099,-1.7781,-3.9411,2016
5,-0.887,-1.407,0.3823,-1.4065,-2.4159,-3.9464,1872
5,-1.1326,-1.021,0.3296,-1.3203,-2.5912,-3.4236,1787
5,-1.2646,-1.0198,0.3455,-1.2216,-2.3241,-3.0339,1885
5,-1.3003,-1.1604,0.3967,-0.9467,-2.0702,-2.4927,2143
5,-1.3882,-1.1091,0.5437,-0.4671,-2.0032,-1.6614,2096
5,-1.7197,-1.1001,0.6934,0.0032,-1.5868,-0.9373,1968
5,-1.9441,-0.9868,0.8354,0.3578,-0.7371,-0.3847,2068
5,-2.0,-0.8936,1.0151,0.4538,0.329,-0.0024,1909
5,-1.5325,-2.0,1.9175,-0.9479,0.8351,-0.063,2669
5,-2.0,0.7292,0.9709,1.851,1.5531,0.8475,681
5,-0.4883,-1.5098,1.9999,2.0941,3.7965,1.0982,876
5,1.9999,-2.0,1.655,-1.9879,4.3634,-4.3635,1719
5,1.9999,-1.8674,-0.6799,-4.3635,2.2858,0.2758,71
5,1.9999,1.447,1.7368,1.7295,2.0984,0.4007,4064
5,-2.0,-1.0881,1.5974,0.503,2.0445,0.9071,2549
5,-2.0,-1.6323,-0.28,0.3887,4.273,2.1037,3918
5,0.9277,-1.7512,0.4492,-2.9857,4.3634,1.8571,72
5,-0.3027,-0.5977,-1.334,-1.4877,1.3154,0.5825,2647
5,1.8008,0.0146,0.3818,-0.267,2.2306,1.1958,1748
6,0.999,-1.729,-0.1013,0.157,-1.4426,1.6829,1887
6,-0.5186,-0.8562,-0.2825,-1.0171,-0.1024,1.1306,2622
6,-1.123,-1.3398,0.9331,-0.4583,-0.2743,1.3655,3045
6,-0.6423,-1.1917,-0.2661,-0.6987,0.7739,2.1592,1563
6,0.0784,-1.2112,0.3962,0.0087,0.0898,1.0389,2252
6,-0.4343,-1.1255,-0.3564,-0.3543,0.2523,1.3691,1894
6,-0.3459,-0.6519,-0.2627,-0.3199,0.1563,0.6493,73
6,-0.0312,-1.1062,-0.3538,-0.1084,-0.1204,0.6288,1785
6,-0.1296,-1.0632,-0.2236,-0.0439,-0.0316,0.8665,3296
6,-0.0791,-0.9402,-0.2725,-0.1366,0.5091,0.6749,3384
6,0.282,-0.9707,-0.2629,0.0583,0.333,0.6829,2649
6,0.3032,-1.0247,-0.2139,0.1899,-0.2515,0.8288,2050
6,-0.0129,-1.0417,-0.157,0.2896,-0.5873,0.8146,1734
6,-0.366,-0.9592,-0.085,0.2854,-0.2364,0.6682,1913
6,-0.2383,-1.0293,-0.0332,0.2176,0.1013,0.4444,1898
6,-0.0369,-1.1155,-0.042,0.2125,0.0746,0.3753,2372
6,-0.0073,-1.0354,-0.041,0.3131,-0.0804,0.2501,2438
6,0.0049,-1.0129,-0.0498,0.3304,-0.0718,0.28,1972
6,0.1455,-1.0051,-0.0679,0.357,-0.0668,0.2936,2125
6,0.3167,-1.0293,-0.0688,0.3537,-0.202,0.387,1935
6,0.0959,-1.2007,-0.0479,0.2738,-0.2804,0.1602,1992
6,-0.0459,-1.0352,-0.0845,0.2209,-0.3358,-0.0874,1771
6,-0.0212,-0.8447,-0.0527,0.2764,-0.4316,0.2421,1561
6,-0.3748,-1.1436,-0.0684,0.1116,0.3244,0.2811,2219
6,-0.4177,-1.0144,-0.0242,0.0988,0.681,0.1096,2746
6,0.366,-0.8789,0.0405,0.182,0.2978,-0.0882,2327
6,0.293,-0.9736,0.0081,0.2288,-0.4137,0.1551,1761
6,0.0662,-1.0293,-0.0398,0.2365,-0.7288,0.2766,1671
6,0.0776,-0.9551,-0.0574,0.2669,-0.6946,0.4422,1833
6,-0.0015,-0.9524,-0.043,0.2333,-0.5305,0.447,1868
6,0.0508,-0.9785,-0.0115,0.1414,-0.3037,0.4623,2136
6,0.1069,-0.9563,0.0486,0.0875,-0.2155,0.4556,2336
6,0.1265,-0.9197,0.0767,0.0601,-0.126,0.4348,2098
6,0.126,-0.9783,0.084,-0.0063,-0.0826,0.4613,1899
6,0.084,-1.002,0.0723,-0.0232,0.0519,0.5454,1969
6,0.0642,-1.0164,0.0574,-0.0782,0.295,0.6059,1976
6,0.126,-1.0295,0.0337,-0.1101,0.393,0.662,1928
6,0.0972,-1.01,0.0032,-0.0848,0.3731,0.7347,2295
6,0.043,-1.0212,0.0044,-0.0542,0.2784,0.7773,1904
6,0.009,-1.0129,0.0103,-0.0261,0.2148,0.819,1930
6,-0.0103,-1.0046,0.0034,0.002,0.1703,0.8569,2136
6,-0.0164,-1.0212,-0.03,0.0103,0.1762,0.8875,1954
6,-0.0266,-1.0022,-0.0212,0.0052,0.2569,0.934,2103
6,-0.0537,-1.0532,-0.0527,-0.0169,0.2868,0.8903,2068
6,-0.0334,-1.0715,-0.061,0.0238,0.3438,0.9371,2179
6,-0.0576,-1.103,-0.116,0.0321,0.3247,0.8688,2137
6,0.0188,-0.9976,-0.1777,0.0917,0.3316,0.9295,1989
6,0.0203,-0.9712,-0.1553,0.0908,0.3282,0.928,1962
6,-0.0125,-0.9805,-0.103,0.1065,0.2767,0.9485,2110
6,-0.0474,-0.9917,-0.1284,0.0858,0.2151,0.9445,1926
6,-0.0483,-1.0195,-0.1541,0.0722,0.1723,0.8865,2009
6,-0.0117,-1.0115,-0.1782,0.0832,0.1334,0.8377,1962
6,-0.0498,-0.9534,-0.155,0.1024,0.0906,0.8716,1961
6,-0.0852,-0.9531,-0.1865,0.07,0.1554,0.8817,1899
6,-0.0767,-1.0303,-0.1987,0.0374,0.2298,0.8843,2004
6,-0.0703,-0.9993,-0.1833,-0.0269,0.306,0.8866,1921
6,-0.0725,-0.9658,-0.1196,-0.0184,0.2217,0.8771,2094
6,-0.0793,-0.9446,-0.0603,0.0148,0.153,0.905,2033
6,-0.1492,-0.9639,-0.0122,0.0357,-0.0049,0.92,2070
6,-0.2234,-0.9375,0.0032,0.0485,-0.11,0.9331,2064
6,-0.2249,-0.8975,0.0137,0.0523,-0.0687,0.9194,1911
6,-0.2078,-0.9045,-0.0225,-0.0109,0.2549,0.9096,1996
6,-0.1931,-0.9927,-0.0117,-0.069,0.4322,0.8949,2088
6,-0.0825,-0.9636,-0.0413,-0.0862,0.53,0.9507,2021
6,-0.0327,-1.012,-0.1006,-0.1159,0.4586,0.9958,2015
6,-0.074,-1.0388,-0.0955,-0.0979,0.3248,1.0411,2143
6,-0.0752,-1.0149,-0.0913,-0.0786,0.2923,1.0923,1967
6,-0.0542,-0.9951,-0.011,-0.0631,0.1723,1.16,2016
6,-0.0823,-0.979,0.0359,-0.0296,-0.0144,1.2356,2122
6,-0.1091,-1.0278,0.0925,-0.0425,-0.0874,1.3005,2063
6,-0.1362,-1.0618,0.1123,-0.0486,-0.1027,1.3649,2001
6,-0.0554,-1.0945,0.1018,-0.089,0.0282,1.4777,2044
6,-0.1191,-1.1367,0.1814,-0.0643,0.0093,1.5569,2130
6,-0.0801,-1.1853,0.1804,0.034,0.0025,1.68,1990
6,-0.0398,-1.2944,0.2078,0.0262,-0.0011,1.7796,1934
6,0.0547,-1.2891,0.2268,-0.029,-0.0057,1.9018,2069
6,0.0139,-1.3752,0.2278,-0.0253,0.1246,1.9474,2010
6,-0.0603,-1.4829,0.2212,0.1473,0.3538,2.0594,2190
6,0.0781,-1.5427,0.1848,0.2324,0.7572,2.34,1919
6,-0.2705,-1.7234,0.1633,0.002,1.5752,2.5272,2126
6,1.385,-1.7878,0.4351,-0.0165,0.5689,0.9626,2189
6,1.8276,-1.0264,0.4426,-0.1453,-1.523,2.9598,1549
6,1.2871,-1.499,0.4915,-0.0924,-3.287,3.3696,1134
6,0.8647,-1.447,0.5032,-0.3269,-3.8259,3.437,1515
6,-0.2329,-1.4631,0.387,-0.4394,-2.735,2.8422,2987
6,-1.02,-1.0303,-0.1589,-0.5056,-0.6729,2.8327,2926
6,-0.8677,-1.884,-0.2825,-0.3432,0.441,1.4679,1377
6,0.6003,-2.0,-0.5608,-0.7341,0.6225,1.7839,1791
6,-0.3726,-1.1152,0.0479,-0.3298,-0.1206,4.0486,2666
6,-1.0364,-1.5662,0.1545,-0.5095,-1.3067,3.2064,2647
6,-1.0674,-2.0,0.0808,0.2096,-1.6559,3.0004,2570
6,-1.3777,-0.3044,-0.6099,0.9364,0.6469,3.6478,1923
6,0.5505,0.6406,-0.0745,0.6664,1.4403,2.9159,1520
6,1.7815,0.2393,0.1111,0.7702,-0.5248,2.2477,1073
6,-1.7729,-1.5522,-1.4163,0.44,1.5456,1.4292,2722
6,-1.8208,-1.2673,-0.6052,0.5292,1.7889,0.9039,4064
6,-1.8875,-0.5632,0.1582,1.486,2.4285,0.5105,2128
6,-1.606,-0.248,0.0457,1.4918,2.5119,-0.6697,773
6,-0.8657,0.1006,0.2314,1.6743,2.0672,-1.2671,1045
6,-0.0437,0.054,0.053,1.6934,2.2469,-1.8402,1302
6,0.8586,-0.4666,-0.2107,1.4897,2.6777,-2.3224,1447
6,0.6111,-0.5781,-0.4766,0.9598,2.7233,-3.0585,1612
6,-0.0168,-0.2568,-0.6157,1.2624,3.2183,-3.1087,3067
6,-0.0603,-0.1584,-0.4497,2.0951,3.0249,-2.9355,3172
6,-0.1868,-0.3452,-0.3206,2.7967,2.1521,-3.0741,1928
6,-0.2468,-0.1016,-0.3801,2.932,1.1324,-2.8781,770
6,-0.3162,0.145,-0.4287,3.7122,1.7042,-2.5751,2305
6,0.0835,0.001,-0.4324,4.3634,3.3247,-2.586,2111
6,0.6028,-0.2412,-0.3296,4.0819,3.468,-2.4567,1461
6,0.8123,-1.0022,-0.4009,3.6107,2.3651,-3.0565,502
6,0.6772,-0.8325,-0.4426,2.7758,1.187,-3.5311,3070
6,0.3945,-1.3457,-0.6482,1.7443,0.334,-3.813,4064
6,-0.2388,-1.2083,-1.0657,1.6307,0.9855,-3.0277,4064
6,-0.437,-1.2998,-0.9719,2.1546,0.9307,-3.3251,1932
7,0.0178,-1.2458,-0.9622,1.7333,0.3063,-3.6681,1155
7,0.1973,-1.2305,-0.9998,1.2962,-0.1507,-4.0048,1012
7,-0.0378,-1.2322,-1.0364,0.7977,-0.4264,-3.9896,1686
7,-0.3381,-1.2456,-0.9504,0.5663,-0.7488,-3.9962,2161
7,-0.4827,-1.3638,-0.8005,0.3111,-0.9473,-4.1652,2158
7,-0.5833,-1.3604,-0.8347,0.0932,-1.2153,-4.3635,1884
7,-0.5696,-1.3081,-0.7402,-0.3771,-1.0166,-4.3635,1995
7,-1.0781,-1.7942,-0.6724,-1.1844,-0.3216,-4.3635,1947
7,-1.1296,-1.2122,-0.0923,-0.3263,0.1883,-4.1647,2622
7,-0.2234,-1.0974,-0.4956,-1.5588,-0.862,-4.3632,1663
7,-0.0273,-1.093,-0.6436,-2.0465,-2.1056,-4.3635,1810
7,-0.3977,-1.3208,-0.8831,-2.3855,-2.3796,-4.176,1854
7,-0.8098,-0.9248,-0.781,-2.3515,-2.761,-3.7844,2811
7,-0.7249,-1.021,-0.8486,-2.2615,-2.7231,-3.8475,2110
7,-0.937,-1.1367,-0.678,-2.1169,-2.3997,-3.428,1934
7,-0.5857,-1.1746,-0.1748,-1.6321,-2.9942,-2.6241,1949
7,-0.3645,-1.1277,0.3706,-1.5953,-4.3635,-1.7383,1632
7,-1.4705,-0.8069,0.3152,-1.6243,-4.3635,-1.0469,1992
7,-1.5588,-0.6023,0.5376,-1.1423,-4.3635,-0.2598,1901
7,-1.594,-0.4873,0.9041,-0.3345,-4.3635,0.4311,1657
7,-1.9126,-2.0,1.4875,-3.0011,-4.3635,-1.3063,2931
7,-2.0,0.7952,0.7156,1.3154,-1.5182,-0.7428,573
7,-2.0,1.1001,1.9999,4.3634,3.5781,3.3943,1508
7,-2.0,-2.0,1.9999,0.5814,4.3634,-2.5775,1885
7,1.9999,-2.0,1.9999,-4.3635,4.3634,-1.2344,2183
7,1.9999,1.9999,1.9999,0.1357,1.8073,0.0389,1535
7,-2.0,0.5613,-1.0957,0.7524,4.3634,2.3796,157
7,-2.0,-1.7275,-0.323,1.1657,4.3634,3.4145,4064
7,-0.8557,-1.9092,0.3726,-0.1876,4.3634,1.6934,4064
7,0.1953,-0.771,-0.8813,-2.4077,4.3634,1.693,2120
7,-0.1548,0.2063,-0.4397,-0.193,-0.1204,1.383,145
7,0.8472,-1.5803,-0.218,-1.0472,1.2184,-1.7507,2228
7,1.9999,-2.0,0.4082,0.4168,-2.8731,0.7257,1758
7,-0.2671,-0.8774,0.2817,1.1572,-3.66,2.9364,1320
7,-0.1692,-0.5037,0.3123,1.093,-2.7783,2.1378,3329
7,-0.3962,-1.4651,-0.3765,0.8961,-0.4854,2.4041,1845
7,-0.4082,-1.1121,-0.1106,0.5482,0.4305,2.0716,2914
7,-0.7407,-1.0027,0.207,0.2506,-0.4739,1.2427,2797
7,-1.0227,-1.092,0.3518,0.0035,-0.3065,0.3875,2596
7,-0.6353,-1.1445,-0.0151,-0.2493,0.6629,-0.2465,2058
7,0.0498,-1.0916,-0.3367,-0.1641,0.3349,-0.4211,1911
7,0.3574,-1.0186,-0.3489,0.0939,-0.3333,-0.2445,2087
7,0.3706,-1.0522,-0.282,0.3345,-0.6393,0.2449,1886
7,0.1128,-0.9229,-0.1453,0.4823,-0.3565,0.261,1987
7,-0.1841,-0.8745,-0.0454,0.5947,-0.043,0.0232,2049
7,0.3296,-1.1301,0.0242,0.7032,-0.4665,0.35,1930
7,-0.1211,-1.3779,0.1965,0.4876,-0.4373,0.1225,1257
7,0.0049,-0.6375,0.2039,0.3432,-0.4442,0.0382,1765
7,-0.3452,-0.8892,0.2859,0.1337,-0.1981,-0.1959,2291
7,0.0225,-1.042,0.2312,0.1527,0.1172,-0.2848,1649
7,0.2627,-0.8784,0.2578,0.0715,0.3441,0.029,1915
7,-0.4919,-0.8438,0.0354,0.0083,1.131,-0.6743,1779
7,0.0298,-1.189,-0.0315,-0.0423,1.0135,-0.7203,2577
7,0.3928,-0.9768,0.0212,-0.1728,1.0262,-0.314,2315
7,0.5461,-0.7815,0.1084,-0.1189,0.8259,0.1783,2057
7,0.46,-0.9045,0.1777,-0.1469,0.3179,0.2693,1805
7,0.4814,-0.9541,0.0857,-0.1173,0.229,0.5549,1801
7,0.2859,-1.0266,0.0737,-0.0838,0.1481,0.8166,2708
7,0.2205,-0.8867,0.0525,-0.0707,0.1414,1.0698,1977
7,0.1809,-0.9968,0.0503,-0.1,0.2261,1.2515,1936
7,0.2524,-1.0664,-0.0017,-0.1699,0.2803,1.3062,2241
7,0.1047,-1.0261,-0.0593,-0.1257,0.1462,1.2639,1882
7,0.0842,-0.989,-0.0757,-0.0429,0.1027,1.3294,2298
7,0.1672,-0.9634,-0.1138,-0.0308,0.1579,1.3758,1991
7,0.252,-1.0166,0.0168,-0.0258,0.1063,1.5026,2325
7,0.2749,-0.989,-0.0627,0.0306,-0.0553,1.6715,1819
7,0.3125,-0.9958,-0.0312,0.0168,-0.0031,1.7531,1827
7,0.2305,-0.9783,-0.1406,0.0506,-0.0374,1.7952,1949
7,0.3022,-0.9988,-0.0586,0.0617,-0.0374,1.9128,2393
7,0.2456,-1.0034,-0.092,0.1232,-0.0241,2.0225,2483
7,0.1995,-1.0491,0.0027,0.1519,-0.0324,2.1514,1797
7,0.1694,-1.0806,0.0381,0.1562,-0.2216,2.2308,2099
7,0.1003,-1.0618,0.0647,0.1992,-0.3388,2.3483,2430
7,-0.0298,-1.0879,0.1174,0.238,-0.5235,2.431,1887
7,-0.1516,-1.1377,0.1138,0.3167,-0.5016,2.447,1669
7,-0.179,-1.3333,0.1223,0.3541,-0.4235,2.4398,2237
7,-0.2119,-1.3489,0.3413,0.5426,-0.2486,2.6089,2018
7,-0.0327,-1.4673,0.3809,0.5173,-0.2165,2.5831,1959
7,0.1523,-1.616,0.2988,0.5604,-0.1965,2.7056,1676
7,0.2407,-1.9309,0.3521,0.4727,-0.0704,2.6064,1866
7,0.5366,-2.0,0.2856,0.3614,-0.0376,2.9032,1903
7,0.6968,-2.0,0.335,0.2073,-0.0692,3.1304,2141
7,0.9255,-2.0,0.2605,-0.1926,-0.145,3.1451,1896
7,0.9785,-1.8789,0.2593,-0.4462,-0.5034,3.1903,1779
7,0.9919,-1.6753,0.0676,-0.6542,-0.7164,3.1981,2578
7,0.8479,-1.3076,-0.115,-0.388,-0.9668,3.3698,2680
7,0.5793,-1.2969,-0.3743,-0.1101,-0.9666,3.5477,2144
7,-0.4438,-1.3096,-0.4187,0.3569,-0.206,3.8669,2234
7,-1.2083,-1.9961,-0.1436,0.5147,0.8597,3.2393,2245
7,-0.8281,-2.0,-0.0974,-0.2136,1.1295,1.8128,1886
7,-0.3037,-1.021,-0.2039,-0.1814,0.339,2.1679,1465
7,-0.6445,-0.6262,-0.7942,-0.2396,1.0621,0.0991,1239
7,-1.7439,-1.291,-1.1511,-0.1511,1.5448,0.8638,4064
7,-0.5647,-0.9116,1.9999,-1.0761,0.8204,3.0565,3038
7,-0.9915,0.5886,-0.2507,1.3885,2.3942,1.0844,557
7,0.3662,-0.7793,0.0044,-0.1563,1.1898,-0.1727,1389
7,-0.2783,-0.8418,-0.3115,-1.4019,1.5486,-1.6335,585
7,-0.5156,-0.0039,-0.4885,-1.1424,2.5117,-1.9872,4064
7,0.2483,-0.2659,-0.1206,-0.5548,2.2626,-2.4784,2469
7,0.1909,-0.1968,-0.2444,-0.3207,2.2249,-2.5472,1886
7,0.0386,-0.1765,-0.3069,-0.5975,2.1786,-2.4784,1803
7,-0.0435,-0.2734,-0.1484,-0.49,1.7604,-2.6077,2120
7,-0.0493,-0.1758,-0.1687,-0.0253,1.3484,-2.6368,1904
7,0.0317,-0.1619,-0.1467,0.1148,1.1228,-2.8938,1902
7,0.1672,-0.261,-0.1492,-0.0882,0.8016,-3.275,1816
7,0.0942,-0.437,-0.1248,-0.3418,0.4822,-3.6011,2080
7,0.0271,-0.5581,-0.3223,-0.1707,-0.0354,-3.79,2228
7,0.061,-0.6064,-0.2976,-0.094,-0.2019,-3.831,2146
7,0.0767,-0.6736,-0.2415,-0.2095,-0.1021,-3.9472,1887
7,-0.1272,-0.8286,-0.2817,-0.2433,-0.7221,-4.0884,2143
7,-0.2722,-0.8794,-0.3062,-0.222,-1.3762,-4.198,2145
7,-0.2986,-0.8931,-0.2693,-0.3682,-1.5548,-4.3202,2113
7,-0.2812,-0.9597,-0.2507,-0.5019,-1.5382,-4.3635,2067
7,-0.2703,-1.0872,-0.1897,-0.7034,-1.6202,-4.3635,1976
7,-0.3699,-1.2341,-0.1741,-0.8503,-1.7619,-4.324,2168
7,-0.5132,-1.2717,-0.1846,-0.9207,-1.9429,-4.3635,2063
7,-0.5615,-1.2593,-0.1545,-1.0332,-2.0201,-4.3635,2048
7,-0.6077,-1.2585,-0.1702,-1.1049,-2.1507,-4.249,2121
7,-0.6411,-1.2136,-0.196,-1.1094,-2.2559,-4.0262,1938
7,-0.8142,-1.2078,-0.2769,-1.1331,-2.3344,-3.8036,2003
8,-0.9707,-1.1619,-0.4248,-1.0565,-2.2525,-3.5985,2168
8,-1.0122,-1.178,-0.3423,-0.9993,-2.1105,-3.4328,2275
8,-0.9209,-1.1228,-0.1411,-0.8839,-2.1168,-3.1184,2316
8,-0.8892,-1.1604,0.0964,-0.9178,-2.1538,-2.7621,2114
8,-0.8328,-1.2024,0.2078,-1.124,-2.4225,-2.3582,1929
8,-0.8525,-1.0415,0.1477,-1.2603,-2.5322,-1.8406,1846
8,-0.8938,-1.0139,0.1365,-1.1744,-2.4899,-1.3969,1919
8,-0.9575,-0.9939,0.1648,-0.8878,-2.4229,-0.8023,2069
8,-1.0688,-0.9309,0.2876,-0.5007,-2.2621,-0.1661,1991
8,-1.2888,-0.8521,0.4778,-0.1304,-1.8682,0.3968,1927
8,-1.458,-0.7607,0.6936,0.0854,-1.3263,0.8259,1986
8,-1.6016,-0.6904,0.8398,0.2944,-0.5568,1.0949,1916
8,-1.584,-0.5391,0.9595,0.5612,0.0619,1.3916,1788
8,-1.7739,-0.6104,0.99,0.6894,0.9967,1.4705,2059
8,-2.0,-0.4438,1.0115,0.8492,2.2847,1.1352,2119
8,-2.0,-0.896,1.0962,0.5196,4.0293,-0.5102,2647
8,0.1873,-2.0,1.9999,0.1634,3.6992,-1.6299,972
8,1.9999,-2.0,-1.4824,-4.0,4.3634,-4.3635,313
8,1.9999,-2.0,-0.6343,-2.2242,4.3634,0.3444,2250
8,1.9999,1.9999,1.9999,2.2679,-1.8612,-0.1623,4064
8,-0.6118,0.0061,1.2961,2.4822,1.171,4.3634,75
8,-2.0,-2.0,-0.1182,-0.02,3.7885,2.1555,4064
8,-2.0,-2.0,0.1021,1.375,2.4531,1.9479,1657
8,-0.0808,0.0793,0.4932,-0.1326,-0.1288,2.8422,219
8,-0.5107,0.0376,-0.5796,-1.0677,-0.9879,0.9749,917
8,-1.1396,-1.3091,-0.7078,-1.4339,0.9353,-0.1028,72
8,0.3474,-1.575,0.3091,-0.8439,0.7122,-0.057,4064
8,0.4465,-1.343,0.1345,-0.3559,0.2328,0.719,2262
8,0.6064,-0.6772,0.1062,-0.0936,-0.5343,1.2532,1533
8,0.0747,-1.1179,-0.3877,-0.0208,-0.2175,1.1607,1297
8,-0.5525,-1.0669,-0.2534,0.0847,-0.4646,1.1629,2955
8,-0.1047,-1.0,-0.1833,-0.0614,-0.2141,0.6308,2444
8,-0.1855,-0.9668,-0.0452,-0.0061,-0.3998,0.6594,1920
8,-0.137,-1.0598,0.0222,-0.124,-0.4449,0.589,1277
8,-0.2554,-1.1648,-0.0559,-0.22,-0.214,0.4988,2302
8,-0.2322,-1.0593,-0.1228,-0.1418,-0.0182,0.3072,2578
8,0.0276,-1.033,-0.1858,-0.0273,0.0193,0.1436,2191
8,0.2104,-0.95,-0.1794,0.043,-0.1565,0.2586,1983
8,0.1919,-0.9458,-0.1719,0.0691,-0.422,0.3673,2057
8,-0.1741,-1.041,-0.1802,0.0587,-0.3967,0.2103,2074
8,-0.167,-1.0408,-0.1255,0.1252,-0.1478,0.1964,2242
8,0.1497,-1.0317,-0.0295,0.1525,-0.1091,0.3565,1939
8,0.1772,-1.0244,-0.0449,0.1639,-0.3619,0.3429,1996
8,0.2,-1.0957,0.012,0.1938,-0.4498,0.3516,2261
8,0.1655,-1.0986,0.0339,0.0695,-0.5835,0.1493,1661
8,0.1296,-1.1221,-0.071,-0.1113,-0.2721,-0.5181,2184
8,0.2832,-0.8091,0.0166,-0.1996,-0.0707,0.1569,3327
8,0.1021,-0.7747,-0.1843,-0.0808,-0.3115,0.5818,1412
8,-0.0991,-1.0637,-0.1594,-0.1992,0.2706,0.6741,1377
8,-0.0305,-1.1306,-0.125,-0.2065,0.3943,0.8206,2032
8,-0.4299,-1.1069,-0.0593,-0.1884,0.4839,0.7335,1808
8,0.252,-0.8254,-0.144,-0.0613,0.5368,-0.195,2449
8,0.5715,-0.9609,-0.0173,-0.1059,-0.1388,0.434,1995
8,0.0862,-1.0161,-0.0271,-0.0899,-0.5324,0.6183,2118
8,-0.1062,-0.9666,-0.0352,-0.0108,-0.5751,0.7825,1984
8,-0.2175,-0.9526,-0.0457,-0.0555,-0.2663,0.7391,2200
8,-0.1658,-1.0205,-0.0623,-0.0902,0.0443,0.701,1990
8,-0.0464,-1.1157,-0.0776,-0.0867,0.0453,0.6319,2080
8,-0.0142,-1.0779,-0.1184,-0.0617,0.0107,0.5819,2070
8,-0.0537,-1.0476,-0.103,-0.0639,-0.0282,0.5224,2499
8,-0.0281,-1.0049,-0.1033,-0.0525,-0.0384,0.5344,2125
8,-0.0508,-0.9819,-0.0703,-0.0609,-0.0474,0.5233,2038
8,0.0103,-0.9939,-0.0737,-0.0699,-0.0023,0.5212,2081
8,0.01,-0.9644,-0.0981,-0.0676,-0.0262,0.5216,2069
8,0.0867,-0.9417,-0.1304,-0.0712,0.0538,0.646,2035
8,0.1018,-0.9456,-0.1223,-0.055,0.067,0.7633,2087
8,0.1426,-1.0044,-0.0808,-0.0876,-0.0061,0.8441,2071
8,0.0962,-0.9585,-0.0359,-0.0924,-0.0595,0.9172,1949
8,0.0518,-0.9143,-0.0649,-0.0678,-0.1493,1.0055,1981
8,0.0581,-0.9639,-0.0552,-0.1109,-0.163,1.1433,1977
8,-0.0344,-1.0227,-0.0493,-0.1274,-0.1418,1.1585,2070
8,-0.0796,-1.0112,-0.1011,-0.1137,-0.0519,1.174,2276
8,-0.1052,-0.9648,-0.0796,-0.1036,0.0526,1.1884,2135
8,-0.0422,-0.969,-0.0486,-0.1258,0.1716,1.1979,1960
8,0.0015,-0.9731,-0.0935,-0.1177,0.1538,1.2906,2166
8,-0.0632,-0.9983,-0.1067,-0.0903,0.0372,1.3376,2046
8,-0.1338,-0.9919,-0.1738,-0.0517,0.0672,1.3627,2012
8,-0.1155,-1.0005,-0.1926,-0.0799,0.2171,1.3528,2074
8,-0.2471,-0.9622,-0.2,-0.0956,0.2229,1.3382,2155
8,-0.2002,-1.0164,-0.2456,-0.2139,0.1882,1.3158,2014
8,-0.1907,-0.9504,-0.166,-0.2995,0.2254,1.2631,2017
8,-0.2295,-0.9829,-0.1614,-0.3033,0.3666,1.2015,1952
8,-0.3323,-0.9771,-0.2131,-0.3583,0.4329,1.2327,2030
8,-0.3301,-0.9934,-0.1953,-0.3822,0.8329,1.1359,1961
8,-0.1821,-1.0222,-0.1082,-0.3452,0.8441,1.1144,1854
8,0.0603,-0.9736,-0.0466,-0.3365,0.7148,1.207,2110
8,0.0535,-1.0325,0.0461,-0.2816,0.3197,1.376,2167
8,-0.0593,-1.1235,-0.0173,-0.2834,0.0426,1.5981,1947
8,-0.1096,-1.1497,-0.0352,-0.331,0.0945,1.7145,2032
8,-0.1201,-1.1345,-0.002,-0.3342,0.239,1.7243,2239
8,-0.1189,-1.1494,0.0913,-0.3304,0.338,1.7743,2078
8,-0.0542,-1.1697,0.1741,-0.3574,0.3609,1.8949,1778
8,-0.0317,-1.2451,0.188,-0.3532,0.3325,2.0477,1925
8,0.0732,-1.4795,0.1514,-0.3778,0.3232,2.1314,1853
8,0.2842,-1.6472,0.1985,-0.3532,0.1603,2.178,2077
8,0.3044,-1.6431,0.2673,-0.3259,-0.1675,2.2216,2005
8,0.5645,-1.7839,0.4744,-0.351,-0.6349,2.2901,2074
9,1.0178,-1.8406,0.6982,-0.2832,-1.6171,2.3186,1792
9,1.283,-1.751,0.7852,-0.3183,-2.5763,2.7883,1564
9,1.2073,-1.7478,0.8367,-0.4802,-3.2156,3.1054,3365
9,0.6992,-1.5713,0.2571,-0.8251,-2.5505,3.3899,1716
9,0.2974,-1.5859,0.2278,-0.9357,-2.4433,3.3704,1542
9,-1.3403,-2.0,-0.0908,-0.3111,-2.1636,4.2016,1260
9,-1.094,-2.0,-0.0461,-0.7396,-1.2565,4.3634,3189
9,-0.9402,-2.0,-0.6304,-1.1836,1.06,2.0913,2029
9,-0.4719,-2.0,-0.5786,-0.8305,0.6894,2.4661,3187
9,-0.5881,-1.282,0.127,-0.225,-0.3006,3.6675,2238
9,-1.4861,-1.978,0.4038,-1.224,0.4152,3.013,2357
9,-0.5432,-0.6626,-0.1001,1.3896,-1.3033,3.417,1676
9,0.7092,1.6606,-0.002,0.6292,-1.7716,3.2535,72
9,-0.8047,-1.2407,-1.4167,-0.2494,0.1352,0.2047,2376
9,-0.9563,-0.8984,-1.0042,-0.7945,0.9569,-0.3878,4064
9,-1.1106,-0.2178,-0.2778,0.8445,1.0408,-0.9003,2898
9,-0.3267,0.8257,0.5962,3.2284,0.5924,-1.2488,1248
9,0.499,-1.0869,0.3491,0.5803,-0.5007,-1.9618,274
9,0.2114,-1.4009,-0.5471,-1.0969,0.9152,-3.3737,80
9,1.9999,-0.4104,-0.5374,0.3063,-0.8668,-4.0189,2444
9,0.9592,-0.1392,-0.7434,-0.2804,-1.0632,-2.7268,3280
9,-0.1548,0.0781,-1.1775,1.3061,-1.7514,-2.524,3477
9,-1.0576,0.1855,-0.4583,2.0048,-0.1424,-1.8313,2859
9,-0.4827,-0.0312,0.0037,1.0436,2.1896,-2.4967,1729
9,0.0437,-0.2358,-0.2983,1.593,2.5243,-2.334,1508
9,0.0723,-0.8521,-0.3535,1.6773,1.2179,-2.3087,1821
9,0.1304,-0.8992,-0.2642,1.884,0.2289,-2.8608,2265
9,-0.2861,-0.2917,-0.1902,1.6251,-0.7011,-3.6149,1996
9,-0.4314,-0.4348,-0.095,0.7083,-0.5795,-4.3635,2130
9,-0.3494,-0.8347,-0.3762,0.3635,-0.3095,-4.3635,1877
9,-0.4958,-0.7563,-0.5571,0.3263,-0.5916,-4.3635,1941
9,-0.3591,-0.6492,-0.5549,-0.0617,-0.6726,-4.3635,2159
9,-0.2227,-0.5281,-0.6973,-0.4755,-0.3268,-4.3635,2136
9,-0.311,-0.6069,-0.6931,-0.6088,-0.0059,-4.3635,2186
9,-0.4434,-0.7444,-0.6365,-0.5834,0.0509,-4.3635,2156
9,-0.5776,-0.843,-0.5281,-0.6437,-0.3578,-4.3635,2073
9,-0.6936,-0.8896,-0.5413,-0.7289,-1.1476,-4.3635,1975
9,-0.7468,-0.8235,-0.5845,-0.8521,-1.8824,-4.3635,2019
9,-0.7576,-0.7827,-0.603,-0.9009,-2.3699,-4.3635,2008
9,-0.7466,-0.9043,-0.4849,-0.9282,-2.8593,-4.3635,2022
9,-0.8086,-0.9973,-0.3271,-0.7594,-3.4279,-4.3635,2024
9,-0.999,-0.9402,-0.1199,-0.463,-4.0005,-4.0474,1946
9,-1.1743,-0.8689,0.1609,-0.1553,-4.3635,-3.462,2001
9,0.0342,-2.0,0.7156,-1.7077,-4.3635,-4.072,2719
9,-2.0,-1.408,-0.5017,0.2806,-3.9151,-2.5707,1934
9,-2.0,-2.0,-0.0237,-1.2837,0.4128,-1.2307,4064
9,-2.0,-2.0,1.9999,0.7564,3.905,4.3634,2830
9,-2.0,-1.5679,1.9999,4.2379,-4.3635,4.3634,86
9,1.9999,-1.0864,-1.2715,-1.7767,4.3634,1.3488,77
9,1.9999,-1.1128,-0.439,-2.0234,4.3634,-4.3635,77
9,-2.0,-1.9556,-0.3879,-1.0417,-3.0991,3.3525,73
9,-2.0,0.3591,-1.6995,-1.3355,4.3634,0.7722,4064
9,-0.1365,-0.1743,-1.6785,-1.2581,4.3634,-0.4067,161
9,1.9202,-1.2812,0.3325,-0.8717,3.1606,1.289,2493
9,1.9731,-1.1235,-0.2883,-0.6549,2.0061,0.2408,1677
9,1.0894,-1.4485,0.1541,-1.0211,-1.9293,-0.3259,3205
9,0.7112,-0.676,-0.6736,0.4428,-2.7686,2.1923,4064
9,-0.7766,-0.7371,0.4333,0.5012,-2.951,3.0389,119
9,-1.2334,-1.3916,-0.2373,0.5413,-1.8795,1.9305,2611
9,-0.9678,-1.344,0.053,0.4015,-0.4797,1.6996,2707
9,-0.7212,-0.9465,0.2388,-0.1594,0.3433,0.4003,2520
9,-0.4849,-1.0054,-0.115,-0.2547,0.4112,-0.0582,2271
9,-0.3296,-1.0793,-0.2761,-0.1471,0.3029,-0.2774,2080
9,0.2246,-1.0459,-0.3711,-0.0916,-0.0176,-0.336,1984
9,0.5,-0.8977,-0.4521,0.0937,-0.4163,-0.1272,2321
9,0.3491,-0.7808,-0.4224,0.4321,-0.8019,0.0831,1965
9,0.0139,-0.8899,-0.3093,0.7706,-1.0096,0.2123,1891
9,-0.1372,-1.009,-0.2246,0.9834,-0.7731,0.391,2001
9,-0.2668,-1.0913,0.0017,0.9813,-0.5634,0.4026,2081
9,-0.0012,-1.0979,0.1272,0.9116,-0.5617,0.4662,2309
9,-0.2524,-0.9534,0.1753,0.7143,-0.7725,0.1384,2378
9,-0.2129,-1.0796,0.2268,0.5522,-0.8224,-0.4318,1630
9,-0.2527,-0.8328,0.0049,0.4116,-0.3956,-0.1451,2046
9,-0.0664,-1.1431,0.0649,0.3187,-0.2705,-0.38,1946
9,-0.2729,-0.6614,-0.1143,0.7241,-0.0088,-0.5912,2280
9,-0.3164,-1.1914,-0.125,0.5843,0.709,-1.2476,1961
9,0.2546,-1.1233,0.1409,0.6299,1.0459,-1.2679,2645
9,0.6357,-0.5869,0.1499,0.5325,0.5397,-0.4717,2160
9,0.2222,-0.8562,0.0366,0.3753,0.1097,-0.3468,1649
9,0.2546,-0.9548,0.2551,0.4506,-0.3847,-0.0623,2068
9,0.0703,-0.9883,0.2849,0.4693,-0.2764,-0.0403,1902
9,0.2744,-0.9209,0.2061,0.4606,-0.3052,0.034,1913
9,0.0806,-0.9966,0.2495,0.3029,-0.169,0.1854,1984
9,-0.0881,-0.9617,0.2683,0.2205,0.1455,0.2209,2173
9,-0.0437,-1.0054,0.2651,0.1113,0.3702,0.2242,2158
9,0.1062,-0.9819,0.2095,0.0646,0.3703,0.3031,2036
9,0.1431,-0.9875,0.1187,0.0055,0.3745,0.3681,1946
9,0.1865,-1.0088,0.0427,-0.0726,0.4486,0.4446,2081
9,0.3042,-0.9993,-0.0728,-0.2377,0.6236,0.5243,2078
9,0.271,-1.0352,-0.0828,-0.1932,0.5437,0.5625,2048
9,0.2324,-0.988,-0.0884,-0.0041,0.288,0.7477,2157
9,0.1538,-0.9265,0.0095,0.0157,0.2234,0.959,2132
9,0.0581,-1.0232,0.0486,0.0692,0.1565,1.0637,1849
9,0.1362,-1.0857,0.0398,-0.0435,0.2478,1.1595,1959
9,0.1738,-1.0166,0.0657,-0.0559,0.3493,1.2025,2052
9,0.2649,-0.9934,-0.0063,-0.0642,0.3081,1.3295,1967
9,0.3647,-1.0378,0.0962,-0.1434,0.2936,1.4536,2026
9,0.4924,-0.929,0.0308,-0.2261,0.29,1.5759,2121
9,0.4807,-0.9385,0.075,-0.2378,0.4994,1.8566,2161
9,0.396,-1.1204,0.051,-0.2918,0.5703,2.1943,1987
9,0.3958,-1.0957,0.0137,-0.3723,0.5592,2.2997,2241
9,0.3811,-1.0464,0.0491,-0.3983,0.6064,2.4669,2191
10,0.3279,-0.9885,0.0491,-0.456,0.6883,2.6615,2034
10,0.2559,-1.2476,-0.0369,-0.4529,0.6155,2.7168,1672
10,0.3872,-1.3171,-0.0498,-0.5263,0.5345,2.8916,2128
10,0.2,-1.3174,-0.0198,-0.4996,0.1121,3.0674,3048
10,-0.0498,-1.5183,0.1084,-0.5622,-0.1286,3.1742,1754
10,-0.1169,-1.7122,0.1792,-0.5924,-0.3498,3.1706,1850
10,-0.2693,-1.6501,0.4841,-0.4713,-0.496,3.3356,1965
10,-0.073,-1.5786,0.644,-0.5241,-0.5128,3.2325,1946
10,-0.1182,-1.8057,0.5747,-0.5569,-0.7413,3.1011,1486
10,0.0195,-1.9348,0.5691,-0.5534,-0.4257,3.2979,1751
10,0.4414,-2.0,0.5439,-0.8421,-0.1569,3.2067,1512
10,0.6265,-1.9636,0.4158,-1.1316,0.3751,3.3682,1615
10,0.8755,-1.8943,0.2732,-1.1415,0.3445,3.3525,2077
10,1.0396,-1.7649,0.3477,-0.9303,-0.0768,3.3645,2981
10,1.4136,-1.4231,0.3887,-0.904,-0.5414,3.1455,2136
10,1.2598,-0.8042,0.0986,-0.5699,-0.9605,3.2563,3050
10,0.5146,0.5837,-0.0427,0.9079,-1.6306,4.3634,784
10,-1.5613,-2.0,-0.0054,1.292,-0.8858,1.4996,76
10,-1.2041,-1.8005,-0.5598,0.4047,0.8802,2.5701,4064
10,-2.0,-2.0,0.5784,-0.5521,-0.6841,1.6488,3891
10,-1.1743,-0.7593,-0.8257,-0.4735,0.9598,-0.3085,1667
10,0.0903,-0.4792,-0.4995,2.0276,1.4793,4.3634,4044
10,1.9999,1.9999,0.8689,-0.8505,-1.7648,2.2912,72
10,-0.6936,-0.7236,-1.8313,-0.9588,2.9458,0.4854,75
10,-1.1436,-0.9473,-1.4966,-1.4589,2.548,-0.3597,4064
10,-1.3188,-0.8909,0.064,0.437,1.0191,-1.0195,4064
10,-1.228,-0.405,1.1707,1.3608,-1.2427,-2.3872,974
10,-0.1714,-0.4868,0.8792,1.2082,-3.1863,-1.3964,395
10,-0.2285,-0.6096,0.085,-1.2238,-1.022,-3.3897,1016
10,0.1855,-0.6294,-0.261,-1.177,0.9927,-3.4154,72
10,0.5691,-0.3945,0.0559,-1.0584,0.7865,-3.6383,3509
10,-0.0518,-0.5056,0.2908,-0.2543,-0.0599,-3.8695,2375
10,0.2761,-0.6475,0.7285,-0.357,-1.1637,-3.737,3111
10,0.1243,-0.5696,0.781,-0.163,-0.8034,-3.9933,2009
10,0.0854,-0.4626,0.6807,-0.5094,-0.2123,-3.9704,2375
10,-0.1392,-0.5024,0.3962,-0.6586,0.1643,-3.9467,2284
10,-0.0129,-0.5444,0.2244,-0.7644,0.1846,-4.1578,2225
10,0.0701,-0.5208,0.2786,-0.3701,-0.2265,-4.2997,2209
10,0.0891,-0.5549,0.4167,-0.0743,-0.7774,-4.3635,2079
10,-0.0557,-0.5779,0.4775,0.0631,-0.9789,-4.3635,1973
10,-0.0662,-0.5647,0.4607,0.0128,-0.9365,-4.3635,1969
10,-0.0015,-0.5989,0.3337,0.0115,-0.9343,-4.3635,1916
10,0.1111,-0.6238,0.218,0.1645,-1.0785,-4.3635,2023
10,0.1787,-0.6909,0.1682,0.3358,-1.3085,-4.3635,2104
10,0.1519,-0.7695,0.1091,0.6526,-1.3275,-4.3635,2087
10,0.0032,-0.8474,0.2271,0.876,-1.105,-4.3635,2398
10,-0.1726,-1.0198,0.354,1.0975,-0.6805,-4.3635,2476
10,-0.4348,-1.1875,0.137,1.4846,-0.8192,-4.3635,1863
10,-1.0339,-1.3167,0.031,1.9893,-1.0559,-4.2282,2146
10,-1.4561,-1.1326,-0.1655,1.5278,-1.0708,-4.3635,2372
10,-1.3745,-0.7805,-0.5779,1.6535,-0.9427,-4.3229,2000
10,-1.7375,-1.0081,-0.7302,1.5447,0.194,-4.2242,2127
10,-1.8213,-0.9255,-0.563,1.7847,0.9021,-3.8763,2617
10,-1.1086,-2.0,0.448,-0.5851,1.3129,-4.3635,70
10,-1.6582,-0.7178,1.0994,0.8914,1.9113,-1.0421,2273
10,-2.0,-2.0,-1.9785,1.0608,4.3634,1.0852,2399
10,-2.0,-2.0,1.9999,-0.9168,4.3634,4.3634,1882
10,-2.0,0.6055,1.9712,1.8852,-3.1269,4.1459,3444
10,1.9999,0.0469,0.6658,1.8122,2.3838,2.6657,82
10,1.9999,-2.0,-0.5527,-4.3635,4.3634,-1.0465,682
10,1.011,0.6423,0.1541,-2.7934,4.3634,1.7737,4064
10,-1.6465,-0.3733,-0.1631,-0.9661,2.1839,3.2325,4064
10,-2.0,-1.4849,-0.7712,-0.7779,1.3018,3.4484,1498
10,-1.2368,-0.7598,-0.293,-1.209,1.2215,1.0877,653
10,-0.4993,-0.5098,0.4653,-1.0898,1.7594,-0.6418,73
11,0.0081,-0.9973,0.3271,-1.0119,1.941,-0.1236,2886
11,0.2798,-1.3782,0.0432,-0.6006,0.3063,0.0902,642
11,-0.3418,-0.9653,0.1436,-0.5285,-0.6683,0.3083,3147
11,-0.3342,-1.1399,-0.0645,-0.7701,-0.9618,0.1439,2809
11,-0.2102,-0.9546,0.1799,-0.5951,-0.7417,0.2613,2240
11,-0.0881,-0.9827,0.1565,-0.5797,-0.0148,0.3524,2019
11,-0.0583,-1.0112,0.0474,-0.2876,0.1067,0.4576,1726
11,-0.0388,-1.1448,-0.2505,-0.3024,0.331,0.442,2132
11,-0.0923,-1.0955,-0.0989,-0.2932,0.2445,0.4268,2531
11,-0.2246,-0.989,-0.0657,-0.2756,0.1981,0.1752,2199
11,-0.1577,-0.9348,-0.1265,-0.34,0.0384,-0.0273,2080
11,0.0066,-0.8789,-0.1729,-0.2842,-0.2281,-0.1804,1893
11,0.1248,-0.9548,-0.1333,-0.1449,-0.2416,-0.1373,1934
11,0.2578,-0.9934,-0.0552,0.059,-0.2404,0.0598,1953
11,0.2998,-1.0369,0.0195,0.0771,-0.2092,0.1995,1969
11,0.2078,-1.0525,0.0566,0.077,-0.1667,0.292,2122
11,0.0964,-1.0083,0.1475,0.0997,-0.2436,0.33,2383
11,-0.0669,-0.9905,0.2463,0.1079,-0.2501,0.3353,2258
11,-0.1345,-1.001,0.2866,0.0971,-0.2264,0.3187,2017
11,-0.0869,-0.9856,0.2961,-0.0288,-0.2703,0.2742,1810
11,-0.0464,-0.9661,0.2725,-0.0876,-0.3019,0.2501,1816
11,0.063,-0.9778,0.2881,-0.1253,-0.3366,0.3064,1881
11,0.1296,-0.9902,0.2573,-0.1671,-0.2892,0.3725,1954
11,0.0962,-0.9666,0.2144,-0.2286,-0.2546,0.3924,1937
11,0.0962,-0.9587,0.137,-0.3076,-0.1726,0.2975,2015
11,0.0459,-0.9861,0.0811,-0.2812,-0.1466,0.2986,2129
11,0.0737,-0.9663,0.0581,-0.2128,-0.1045,0.3151,2042
11,0.0901,-1.0085,0.0366,-0.2001,-0.1466,0.3268,2028
11,0.0198,-0.9878,0.04,-0.0989,-0.2119,0.412,2148
11,-0.0291,-0.9487,0.0864,-0.0113,-0.2931,0.4587,2232
11,-0.0527,-0.9702,0.1421,-0.0081,-0.3209,0.4794,2032
11,-0.0098,-1.0134,0.1394,-0.0696,-0.3137,0.491,1982
11,0.0261,-0.9797,0.0959,-0.1687,-0.2406,0.4906,2049
11,0.0894,-0.95,0.0593,-0.187,-0.1673,0.506,2154
11,0.0693,-0.9666,0.1262,-0.233,-0.094,0.5733,2101
11,0.1392,-0.9678,0.1262,-0.2966,-0.0583,0.6348,2063
11,0.1824,-0.9604,0.1348,-0.3165,0.0587,0.6994,2018
11,0.2441,-0.981,0.1106,-0.4605,0.1425,0.7913,2145
11,0.1895,-0.9951,0.1348,-0.4964,0.1139,0.8546,2103
11,0.127,-1.0461,0.0894,-0.548,0.155,0.9602,2057
11,0.1567,-1.0457,0.051,-0.594,0.2128,1.0025,2029
11,0.1562,-1.0911,0.1162,-0.643,0.2336,1.0708,1968
11,0.1846,-1.012,0.1172,-0.6208,0.3557,1.1469,2002
11,0.2798,-0.9871,0.0898,-0.7662,0.6614,1.2925,1971
11,0.2246,-1.0205,0.0293,-0.6991,0.5308,1.4058,2001
11,0.0588,-1.0486,0.1086,-0.7907,0.646,1.5785,1830
11,-2.0,-1.7393,-0.4717,-0.6271,0.0427,3.2744,4064
11,-0.9404,-1.4155,-1.1902,-1.0836,-0.8851,2.1883,2818
11,-1.6411,0.0564,-0.0823,1.7444,1.0215,4.2285,835
11,0.5479,-0.575,0.9102,0.671,-1.6439,2.8363,1079
11,-0.2979,0.0205,0.2983,0.9666,-1.3379,-0.9641,2355
11,-0.5432,-0.3611,0.282,-0.2625,-0.5999,-2.314,854
11,0.1143,-0.1135,-0.2146,-1.3334,0.6432,-3.5467,1428
12,0.4517,0.1255,-0.1584,-1.1403,1.804,-3.2935,1588
12,0.5725,0.0356,-0.0896,-0.7668,1.7132,-2.7876,2376
12,0.4705,-0.1833,-0.0161,-0.0923,0.9231,-2.5703,2364
12,0.1467,-0.5117,0.2026,0.2493,0.1872,-2.7425,2046
12,-0.4612,-0.7405,0.2642,0.1571,0.5866,-3.1136,1860
12,-0.4651,-0.4658,0.4175,-0.0011,0.6665,-3.4681,2950
12,-0.1372,-0.3247,0.4329,0.0715,0.2213,-3.7312,2309
12,-0.0981,-0.3018,0.3118,0.0314,0.3554,-4.044,1972
12,-0.1091,-0.2249,0.1797,-0.1972,0.3988,-4.2373,2054
12,-0.1475,-0.3247,0.1118,-0.3252,0.3525,-4.3635,1657
12,-0.0129,-0.4001,0.1375,-0.0438,0.0633,-4.3635,2254
12,0.0293,-0.386,0.1704,0.1056,-0.3646,-4.3635,2315
12,0.0271,-0.4006,0.2537,0.1826,-0.5247,-4.3635,1930
12,-0.1111,-0.666,0.2322,0.1386,-0.4389,-4.3635,1787
12,0.0388,-0.8232,0.2358,0.3068,-0.5873,-4.3635,1949
12,0.1411,-0.8711,0.2368,0.4109,-0.9127,-4.3635,2073
12,0.2271,-0.9568,0.0698,0.59,-1.0352,-4.3635,2132
12,0.26,-1.0081,0.1384,0.7696,-0.9537,-4.3635,2401
12,0.1213,-1.0879,0.2144,0.6829,-0.7889,-4.3635,1992
12,-0.3745,-1.2986,0.1433,0.7995,-1.4319,-4.3635,2047
12,-0.9104,-1.6658,0.1323,0.7407,-2.0044,-4.3635,2200
12,-1.0498,-1.5471,-0.1531,0.4896,-1.674,-4.3635,1979
12,-0.8696,-1.2634,-0.2461,0.6372,-1.114,-4.3635,1890
12,-1.127,-1.5569,-0.1057,0.7196,-0.8059,-4.3635,2091
12,-1.4199,-1.5198,-0.0491,0.9746,-0.6702,-3.9584,2244
12,-1.1206,-1.3577,-0.0549,1.1136,-0.8285,-3.285,2123
12,-1.0505,-1.4626,-0.0535,1.0142,-0.8605,-2.5175,1967
12,-1.2131,-2.0,0.8486,-1.3651,-2.0074,-4.2789,2408
12,-1.6692,-1.3147,-0.9873,-1.065,-0.4662,-2.1788,3977
12,-2.0,0.0608,-0.366,0.8196,0.4966,-0.0884,1512
12,-2.0,-1.6445,0.6841,0.5833,1.4115,1.3653,934
12,-2.0,-2.0,0.3225,0.4958,3.5581,3.6585,3770
12,0.1528,-2.0,1.9999,0.0811,1.1433,3.9062,519
12,0.6418,-0.6897,1.7319,1.0488,-0.7897,1.548,75
12,1.9999,-1.7881,0.8694,-1.3691,0.6484,2.6566,3198
12,1.0759,-0.4065,0.5681,-0.0483,-1.2388,3.1019,1977
12,-0.1064,-0.9849,-0.0435,-0.1497,-0.3332,0.4675,2023
12,-0.1094,-0.9924,-0.0032,-0.1439,-0.2758,0.3848,2263
12,-0.042,-0.9941,0.0251,-0.1202,-0.2525,0.3585,1896
12,0.0237,-0.9382,0.0312,-0.0791,-0.3545,0.3923,1956
12,-0.0159,-0.9556,0.0237,-0.0695,-0.2328,0.4601,2011
12,0.0037,-0.9778,0.0608,-0.1032,-0.1088,0.5256,2044
12,0.0457,-0.9531,0.0532,-0.1479,-0.073,0.5785,1833
12,-0.0447,-0.9717,0.0686,-0.1663,-0.0533,0.5626,2310
12,0.0205,-0.9685,0.0808,-0.1792,-0.0856,0.7106,1782
12,-0.0168,-0.9773,0.0483,-0.1823,-0.0649,0.7522,2038
12,-0.0164,-0.9731,0.0317,-0.2111,-0.0402,0.7327,1877
12,0.0247,-1.0293,0.0774,-0.2618,0.0292,0.7437,2397
12,0.2583,-0.9968,0.0945,-0.3105,-0.1928,0.8304,2623
12,1.0027,-1.6313,0.1848,-0.8151,-1.6697,0.3294,2828
12,-0.574,-0.5215,0.2615,-0.1501,-2.0576,1.7685,1113
12,-1.4714,-0.9316,-0.1858,-0.2938,0.7624,0.9794,2268
12,0.1018,-1.1238,0.1704,-0.2655,1.7329,0.3698,2337
12,0.063,-0.9001,0.0085,-0.4252,0.6742,0.503,1866
12,0.0259,-1.0876,-0.0903,-0.4484,0.8381,0.399,1965
12,0.0337,-0.9329,0.1104,-0.314,0.5363,0.8722,2069
12,0.0681,-1.0193,-0.0254,-0.3286,0.0567,0.891,2021
12,-0.0798,-1.0789,0.0776,-0.4344,-0.1012,0.9891,2236
12,-0.0796,-1.0146,0.0278,-0.437,-0.3112,0.9363,1777
12,-0.0115,-1.0972,0.0625,-0.4714,0.1437,1.0967,1651
12,-1.7576,-2.0,-1.0437,-0.54,-1.8648,2.6567,2426
12,-1.4832,-1.6924,-0.4019,-0.7838,-0.7068,4.3634,3768
12,-1.6462,-2.0,-0.0898,-1.1174,-1.1005,2.0799,3031
12,-1.1973,-0.9497,-0.3848,1.4378,0.2935,4.3634,2447
12,-1.1733,-1.4138,-0.0876,-0.0718,1.2504,4.3634,3760
12,1.9999,1.6543,1.5007,-1.4218,-0.385,1.2383,74
12,-1.8582,-0.4807,-1.0427,-0.7978,1.3398,1.2673,1037
12,-1.3921,-1.0574,-1.0562,-1.8728,-0.439,0.8142,4064
12,-1.5994,-0.7795,-0.0068,-0.401,-1.1481,0.3421,2185
13,-0.6931,-0.5618,0.1409,-0.1824,-0.5561,-1.7588,1171
13,-0.1416,-0.3533,-0.1511,-1.3276,0.4701,-2.795,1453
13,0.2156,-0.0005,-0.2419,-1.4655,0.875,-3.9343,1603
13,0.2561,-0.0144,-0.0764,-1.3039,1.6041,-3.8053,2483
13,0.2559,-0.2041,0.0369,-0.281,1.8426,-2.9098,2269
13,-0.0107,-0.4722,0.2161,0.3539,1.4794,-2.3762,1892
13,-0.3149,-0.6482,0.2009,0.5309,1.1243,-2.6737,1919
13,-0.4685,-0.4292,0.188,0.4476,1.0489,-3.4218,2298
13,-0.3662,-0.1746,0.2783,0.2998,1.015,-3.9653,2303
13,-0.3018,-0.2346,0.3149,0.3036,1.2182,-4.218,2072
13,-0.2444,-0.4058,0.2249,0.2613,1.3532,-4.3635,2006
13,-0.1958,-0.2546,0.1799,0.1181,1.4093,-4.3635,2154
13,0.0413,-0.2476,0.0664,0.3832,1.3513,-4.3635,2148
13,0.0615,-0.2974,0.1096,0.6986,1.2476,-4.3635,1945
13,0.1392,-0.3879,0.1833,0.7457,0.8636,-4.3635,2115
13,0.1987,-0.4854,0.1528,0.8409,0.342,-4.3635,1940
13,0.2068,-0.582,0.1226,0.8825,-0.0455,-4.3635,2078
13,0.1501,-0.6909,-0.0073,1.019,-0.1229,-4.3635,2041
13,0.1016,-0.7473,-0.0181,1.2758,-0.1875,-4.3635,2013
13,0.2073,-0.873,0.0029,1.4462,-0.2971,-4.3635,2161
13,0.2639,-1.009,0.0322,1.6478,-0.2101,-4.3635,2192
13,0.1531,-1.145,0.0623,1.868,-0.2021,-4.3635,2137
13,-0.1724,-1.374,0.0349,1.9819,-0.6429,-4.3635,1930
13,-0.5964,-1.5867,-0.0203,2.0399,-1.43,-4.3635,2147
13,-1.0432,-1.8328,-0.1421,1.6376,-1.9222,-4.3635,2351
13,-1.1943,-1.5991,-0.4348,1.4383,-1.5187,-4.3635,1964
13,-1.2947,-1.4851,-0.321,1.5191,-1.2343,-4.3635,2060
13,-1.5339,-1.7822,-0.1636,1.4977,-1.0452,-4.3635,2232
13,-1.2578,-2.0,0.2991,0.7095,-1.8124,-4.3296,2216
13,-1.0352,-2.0,-0.5813,-1.2965,-1.9506,-4.2193,2013
13,-2.0,-0.5564,-0.6262,1.0447,-0.1083,-1.4134,2215
13,-2.0,-1.3745,-0.1116,1.1138,0.4875,-0.1064,2218
13,-2.0,-2.0,0.7214,-0.6542,0.6408,1.4703,1706
13,-2.0,-2.0,0.9395,0.9063,2.9755,3.0359,3607
13,-0.918,-2.0,1.9999,-0.3703,0.2262,4.0156,211
13,0.429,-1.0657,1.6997,0.6825,-0.3689,2.1941,74
13,1.9999,-1.988,1.4731,-0.6321,0.7295,2.1583,71
13,1.1802,-1.8655,-0.3606,-2.9999,3.5962,1.5827,4064
13,-0.9971,1.0723,-0.2847,-1.8928,4.3634,2.5197,4064
13,0.1865,0.3921,0.687,-0.5867,2.3157,1.7603,3192
13,0.2861,-0.3918,0.9346,-0.6195,-1.0729,0.4233,72
13,-0.0625,-2.0,-1.0217,-2.0566,0.0089,0.5457,480
13,-2.0,-2.0,-2.0,-3.2395,4.3634,1.1509,4064
13,-0.3826,0.8118,-0.3237,-0.1942,1.5239,0.7237,4064
13,0.7781,-1.2134,1.0291,-0.8007,0.1181,1.2549,1699
13,0.1912,0.0046,-0.5745,0.6072,0.222,2.0409,71
13,-1.7561,-2.0,0.6904,0.6516,-1.1031,0.3144,713
13,0.2554,-0.9272,-0.3943,0.2461,-0.6594,0.7012,1472
13,0.4539,-1.208,-0.4309,0.1653,-0.3277,1.5322,3122
13,0.3484,-0.8,0.0508,0.2474,0.3777,1.3597,3054
13,0.1487,-0.9238,0.4026,-0.1354,1.4974,1.4308,2773
13,-0.4656,-1.219,0.4138,-0.1084,0.6437,1.5829,2239
13,-0.6663,-1.1445,0.522,0.0703,-0.1281,1.2406,1882
13,-0.5251,-1.0867,0.4167,-0.2883,-0.1027,0.8445,1666
13,-0.334,-0.9614,0.2205,-0.5307,0.2649,0.5798,1960
13,-0.1863,-0.9905,0.0208,-0.6452,0.2598,0.3149,2154
13,0.0547,-1.0227,-0.1909,-0.5797,-0.0672,0.2666,2311
13,0.262,-1.0273,-0.2319,-0.4669,-0.2645,0.3639,2051
13,0.428,-1.0454,-0.2607,-0.3598,-0.2361,0.6035,2041
13,0.3638,-0.9861,-0.199,-0.1625,-0.2615,0.8119,2153
13,0.2114,-0.916,-0.0779,0.0345,-0.5978,0.9628,1815
13,0.0188,-0.9607,0.0166,0.0695,-0.7485,1.0039,1942
13,-0.1145,-0.979,0.0562,-0.0313,-0.6229,0.8506,1935
13,-0.1555,-1.002,0.1045,-0.1143,-0.4388,0.6379,2177
13,-0.1211,-1.0049,0.1604,-0.119,-0.2281,0.6452,1923
13,-0.0962,-0.9739,0.2117,-0.1602,-0.0919,0.6484,1992
13,0.022,-0.9497,0.2524,-0.2583,0.0876,0.7215,2150
13,0.0947,-0.9521,0.2322,-0.385,0.2124,0.7637,1920
13,0.1682,-0.9763,0.1328,-0.4336,0.2012,0.8736,2159
13,0.1995,-0.9771,0.0215,-0.5347,0.1481,0.9315,1988
13,0.2095,-0.999,-0.0212,-0.5168,0.1724,1.0215,2150
13,0.1138,-1.0564,0.0032,-0.6084,0.2232,1.1728,1828
13,0.0818,-1.0359,-0.0835,-0.5834,0.288,1.1698,1983
13,0.0759,-1.042,0.042,-0.5534,0.3168,1.2814,2051
13,-0.0818,-1.0703,0.0356,-0.5699,0.2388,1.2516,2123
13,-0.2249,-1.0356,0.1177,-0.5823,0.2129,1.2055,2511
13,-0.2791,-0.9316,0.0969,-0.5586,0.126,1.1828,2125
13,-0.3557,-1.0393,0.1074,-0.5217,0.0964,1.0335,1867
13,-0.3926,-1.0215,0.0532,-0.4562,-0.0123,0.9774,2118
13,-0.3679,-1.011,0.0642,-0.4484,0.0517,0.883,1930
13,-0.3293,-1.0391,0.0144,-0.3822,0.0029,0.8123,2145
13,-0.2815,-1.0259,-0.0024,-0.403,0.0403,0.7737,2269
13,-0.2307,-1.0312,0.0056,-0.322,-0.1422,0.7657,1962
13,-0.187,-1.1104,0.0525,-0.3947,-0.0067,0.8574,1990
13,-0.1655,-1.0212,0.1826,-0.3204,-0.0258,0.9131,2390
14,-0.0686,-1.0491,0.1929,-0.3418,0.1119,1.0103,1556
14,-0.1106,-1.1726,0.2915,-0.3522,0.2713,1.1126,1849
14,0.0713,-1.2048,0.2483,-0.3337,0.396,1.2435,1671
14,0.0432,-1.3394,0.2109,-0.2956,0.3753,1.4054,1724
14,0.1824,-1.3494,0.1672,-0.3108,0.2834,1.6649,1805
14,0.2034,-1.3464,0.2493,-0.3077,0.2585,1.8121,2129
14,0.2351,-1.323,0.1992,-0.3199,0.083,2.0687,2057
14,0.0869,-1.2517,0.1689,-0.2707,0.3045,2.2822,1949
14,0.0237,-1.301,0.1262,-0.2113,0.5508,2.3939,2315
14,0.1885,-1.3054,0.0459,-0.2277,0.7885,2.5149,2032
14,0.2483,-1.3164,0.0195,-0.2011,0.8447,2.6227,2199
14,0.3271,-1.4978,-0.0049,-0.2017,0.7965,2.7271,2067
14,0.5698,-1.6177,-0.0388,-0.1876,0.6874,2.9136,2120
14,0.7029,-1.6885,-0.051,-0.2934,0.6136,2.9718,2186
14,1.1208,-1.77,-0.0012,-0.5793,0.4786,3.0662,2747
14,1.27,-1.9761,0.0854,-1.013,-0.0645,3.0658,2392
14,1.5071,-1.7827,0.2134,-1.0977,-0.7669,2.7533,2165
14,1.9999,-2.0,0.4626,-1.2113,-2.6948,2.102,1682
14,1.9999,-1.1191,1.0183,-1.1162,-4.3635,4.3634,753
14,-0.6638,-1.0386,0.1731,-0.7709,-4.3635,4.0879,1812
14,-1.2371,-2.0,-0.5676,0.2679,-3.0039,3.282,2362
14,-0.5276,-1.4541,-0.5652,-0.4645,-0.846,4.2438,2644
14,-1.8516,-2.0,-0.0911,-1.7198,-1.3792,2.3987,2263
14,-0.6382,-1.7866,-0.0432,-0.1519,-2.1808,4.3338,2176
14,-2.0,-0.5073,-0.7092,0.9364,1.906,4.3634,3595
14,1.1208,1.8916,1.0215,-0.9694,0.5753,3.1666,1320
14,0.116,-0.7219,-1.0044,0.1398,-0.6308,2.1152,440
14,-2.0,-1.5754,-1.6382,-1.1539,1.0436,1.3657,3185
14,-1.7671,-0.9065,-0.0457,-0.0092,-1.095,1.1178,3738
14,-1.8381,-0.2659,0.4678,0.1617,-0.1296,-0.0847,1841
14,-1.0791,0.6726,0.0413,1.4343,0.0854,-1.5312,796
14,-0.8,-0.2087,0.1406,0.1854,-0.291,-1.9654,958
14,-0.3494,-0.0942,-0.0898,-0.9424,0.6184,-2.8002,913
14,-0.1855,-1.0349,-0.1572,1.554,-1.4757,-4.3635,1882
14,0.1626,-1.0938,-0.3967,0.7966,-1.6395,-4.3635,1455
14,0.075,-1.2219,-0.5769,0.3986,-1.3452,-4.3635,1852
14,-0.468,-1.2627,0.0747,0.3271,-2.9044,-4.3635,1790
14,-0.1492,-1.1833,-0.0356,1.2481,-0.1673,1.9477,1431
14,-0.509,-1.061,0.2,0.5944,0.5742,1.7314,1921
14,-0.3682,-1.0784,0.55,-0.0642,1.2822,1.1051,2864
14,-0.5601,-1.0212,0.553,-0.4691,1.1026,0.7524,2436
14,-0.5508,-1.0557,0.5261,-0.3473,0.6236,0.5854,1962
14,-0.2961,-1.1421,0.2432,-0.4971,0.5353,0.4529,1555
14,-0.0393,-1.1113,-0.0574,-0.6131,0.5071,0.463,1663
14,0.1187,-1.041,-0.2017,-0.605,0.3516,0.4477,2263
14,0.1848,-0.936,-0.3025,-0.4562,0.0706,0.4822,2444
14,0.3274,-0.9802,-0.3118,-0.2701,-0.3004,0.5388,2150
14,0.4011,-0.9097,-0.29,0.0851,-0.734,0.804,1984
14,0.2551,-1.0195,-0.2085,0.2994,-1.1075,1.0694,1858
14,-0.1064,-1.0818,-0.1267,0.2806,-1.1163,1.0222,1770
14,-0.3945,-0.9976,-0.0854,0.2147,-0.8028,0.7581,2005
14,-0.4065,-1.0386,0.0503,0.2113,-0.5011,0.5067,2303
14,-0.3167,-1.0186,0.1287,0.194,-0.336,0.3733,2123
14,-0.135,-1.0071,0.1047,0.0427,-0.1389,0.2317,3014
14,0.0464,-1.0366,0.0759,-0.034,-0.1771,0.2412,1794
14,0.1736,-0.9651,0.0601,-0.0288,-0.293,0.4348,2278
14,0.144,-1.1025,0.0276,-0.0238,-0.363,0.563,1568
14,-0.0674,-0.918,0.0713,-0.187,-0.3703,0.4757,1901
14,0.0369,-0.7976,0.0781,-0.1695,-0.4979,0.4822,1963
15,-0.4536,-0.9973,-0.1514,-0.2336,-0.0193,-0.0346,2028
15,0.1826,-1.0007,-0.0845,0.1358,0.6445,0.4354,2146
15,0.4277,-0.8428,0.0237,0.0882,0.2261,0.8011,1823
15,0.2229,-1.0005,0.0916,-0.1071,-0.1543,0.8708,2662
15,0.1353,-0.9595,0.1238,-0.1497,-0.465,0.9412,2266
15,0.0967,-0.9805,0.1506,-0.3948,-0.1742,1.012,1714
15,-0.1501,-1.0149,0.1189,-0.4168,0.2159,0.8752,1845
15,-0.0417,-1.0217,0.0449,-0.4988,0.3697,0.8798,2067
15,-0.0186,-1.0227,0.0022,-0.5293,0.3898,0.9072,2047
15,-0.0205,-0.9937,-0.0164,-0.4718,0.3397,0.9746,1658
15,-0.042,-1.0071,-0.0681,-0.4452,0.3783,1.0875,2629
15,-0.0906,-1.0417,-0.0376,-0.4381,0.2701,1.1053,2081
15,-0.2285,-1.0706,-0.0195,-0.4283,0.1132,1.0184,2329
15,-0.1643,-1.0012,-0.0337,-0.3915,0.126,0.9138,3045
15,-0.2188,-0.9617,0.0823,-0.4177,0.1404,0.8315,1543
15,-0.3108,-0.9724,0.1394,-0.3831,0.2167,0.8182,1976
15,-0.2212,-1.0754,0.0791,-0.4205,0.332,0.8722,1778
15,-0.1748,-1.0557,-0.0217,-0.4705,0.4261,0.8481,2210
15,-0.1057,-0.9846,-0.0303,-0.4437,0.5971,0.9429,2300
15,0.0562,-1.0452,-0.0369,-0.4394,0.6099,0.9877,2117
15,0.104,-1.1409,0.0093,-0.3984,0.4168,1.1475,2038
15,0.0908,-1.1272,-0.0149,-0.3968,0.2101,1.3364,1805
15,-0.002,-1.136,0.0703,-0.4163,0.2521,1.4636,2213
15,0.0046,-1.2295,0.1682,-0.3599,0.2956,1.6591,2231
15,0.03,-1.438,0.1475,-0.4774,0.1346,1.6054,1927
15,0.1436,-1.218,0.1411,-0.3749,0.3381,1.9592,1978
15,0.105,-1.4785,0.1868,-0.4386,0.2125,1.8737,1762
15,-0.0359,-1.3794,0.1165,-0.4044,0.1812,2.1137,1753
15,-0.1216,-1.2964,0.217,-0.3365,0.3099,2.2555,885
15,-0.0317,-1.3044,0.178,-0.322,0.3259,2.3479,2413
15,0.093,-1.3625,0.1479,-0.3424,0.4075,2.4176,2253
15,0.1091,-1.385,0.074,-0.3882,0.373,2.4744,2053
15,0.5125,-1.5564,0.0554,-0.5401,-0.1631,3.1688,2395
15,-0.5117,-0.5381,-0.082,0.9084,1.611,-3.5007,2025
15,-0.5139,-0.3352,-0.032,1.0341,1.6908,-4.0234,2028
15,-0.1982,-0.0435,0.0063,1.4695,1.7711,-4.2401,2168
15,-0.0474,-0.1067,0.0066,1.2724,1.8499,-4.3307,2157
15,-0.1543,-0.3298,0.1062,0.7112,1.8375,-4.3635,2108
15,-0.2991,-0.2285,0.0999,0.6769,1.9809,-4.3635,2140
15,-0.1382,-0.2776,0.2698,0.669,1.6368,-4.3635,1832
15,0.3071,-0.595,-0.063,0.9276,0.9569,-4.3635,1884
15,0.9265,-0.7886,-0.2676,1.1167,1.4318,-4.3635,2397
15,0.6064,-1.0085,0.0708,1.0017,0.8574,-4.3635,2076
15,-0.0796,-1.1086,0.1147,0.9918,-0.4621,-4.3635,2519
15,-0.7859,-1.5476,0.0618,0.416,-2.251,-4.3635,2017
15,-0.8694,-1.5867,0.1145,0.3059,-1.7892,-4.3572,1994
15,-0.9441,-1.4678,0.083,0.2764,-1.7603,-4.1897,2007
15,-0.8569,-1.8733,0.0203,-0.6217,-1.6129,-3.6643,2180
15,-1.2625,-1.5554,-0.0217,-0.7717,-0.3301,-1.5395,1969
15,-1.2507,-1.1577,-0.2415,-0.4193,-0.0071,-0.6347,1813
15,-1.2346,-0.9712,-0.1726,-0.1594,-0.0268,0.4161,1773
15,-0.1033,-1.1692,-0.3047,0.0138,-0.5385,1.5454,1506
15,-0.1934,-1.051,0.1658,0.0953,0.777,0.9094,2927
15,-0.1367,-1.1177,0.3408,-0.03,0.7488,0.8665,2143
15,-0.2283,-1.0466,0.2837,-0.2019,0.7979,0.7657,1974
15,-0.2949,-1.0327,0.1345,-0.2457,0.6726,0.6408,1938
15,-0.2043,-1.0715,0.0916,-0.299,0.3687,0.505,1976
15,-0.1021,-1.0354,0.0923,-0.3155,0.165,0.4689,2033
15,0.0759,-1.0281,0.0662,-0.4283,0.0253,0.4699,1862
15,0.1658,-1.0381,-0.0115,-0.7007,0.0049,0.4482,2002
15,-0.0576,-1.0481,0.0466,-0.4962,-0.242,0.5374,2129
15,-0.1724,-1.0676,-0.0454,-0.3737,-0.5339,0.6407,2378
15,-0.2412,-1.0303,-0.0259,-0.3043,-0.5217,0.5829,2034
15,-0.2817,-0.9968,-0.043,-0.2526,-0.5304,0.4221,1822
15,-0.2395,-1.0085,-0.0603,-0.1927,-0.438,0.306,2514
15,-0.1772,-1.0146,-0.1047,-0.1396,-0.4854,0.1622,2133
15,-0.1252,-1.0012,-0.1191,-0.0658,-0.5573,0.1063,1746
15,-0.0789,-1.0085,-0.0952,0.0104,-0.5343,0.1687,2165
16,-0.0459,-0.991,-0.0508,0.0237,-0.5011,0.2157,1925
16,0.0076,-0.9761,-0.0298,-0.0091,-0.557,0.1545,2030
16,0.0732,-0.9888,-0.041,0.0109,-0.5149,0.1752,2091
16,0.1445,-0.9739,-0.0281,0.0128,-0.4625,0.3024,1887
16,0.1704,-0.9875,0.0498,-0.0368,-0.6438,0.4317,1949
16,-0.2458,-0.9287,-0.1494,0.163,-0.4255,0.3259,2660
16,0.095,-1.0278,0.0381,0.1262,-0.3794,0.5737,1835
16,-0.0354,-0.9448,0.0076,0.0892,-0.3723,0.6377,2318
16,0.0127,-1.0117,0.106,-0.0549,-0.4397,0.6076,2294
16,0.95,-1.5857,0.249,-0.5034,-1.7899,0.4061,2310
16,-0.6204,-0.2898,0.2388,0.1088,-1.8433,1.3258,1077
16,-1.1406,-0.9395,-0.1843,0.1446,0.4813,0.5307,2170
16,-0.2153,-0.9126,0.282,-0.0092,1.3516,0.1598,1893
16,0.0295,-1.0581,0.2217,-0.2914,0.9645,-0.0113,1935
16,0.2727,-1.0176,0.0427,-0.3593,0.7605,0.1771,2153
16,0.1587,-1.0598,0.158,-0.3991,0.6445,0.428,1917
16,0.2368,-1.0291,0.0044,-0.4502,0.2454,0.6445,2004
16,0.0825,-1.0156,-0.0422,-0.596,0.2862,0.6135,1934
16,0.0615,-1.0327,-0.019,-0.5762,0.275,0.7826,2047
16,0.0415,-1.0681,0.0076,-0.6389,0.4299,0.9258,1962
16,0.0142,-1.0706,0.0308,-0.6569,0.4735,1.0357,2213
16,-0.103,-1.1211,0.1072,-0.6806,0.2782,1.0609,2314
16,-0.1663,-1.0552,0.1155,-0.6569,0.2313,1.0517,2232
16,-0.1416,-1.0237,0.0645,-0.5453,0.1832,1.087,1811
16,-0.0596,-1.1074,-0.0093,-0.558,0.3135,1.2025,2069
16,-0.0081,-1.1074,0.0554,-0.5984,0.5272,1.2368,1938
16,-0.0244,-1.1265,0.0508,-0.5372,0.5231,1.3314,1723
16,-0.0066,-1.2395,0.1013,-0.4863,0.4838,1.4605,2422
16,0.0544,-1.4031,0.0793,-0.5655,0.2245,1.4916,1962
16,0.0117,-1.1926,0.1267,-0.4759,0.3678,1.7306,2353
16,0.0227,-1.3503,0.2168,-0.4485,0.337,1.7879,1792
16,0.0562,-1.3762,0.1768,-0.4357,0.2104,1.8647,1802
16,-0.0513,-1.3655,0.1963,-0.4244,0.5433,2.0772,2015
16,-0.002,-1.334,0.2314,-0.3874,0.7187,2.202,2208
16,0.0859,-1.3774,0.176,-0.4004,0.7727,2.2157,2044
16,0.252,-1.3804,0.1711,-0.4217,0.8032,2.3289,2094
16,-1.7378,-0.594,0.3623,0.6213,-0.1341,0.2586,2566
16,-0.1245,0.0986,0.0186,1.6339,1.7667,-3.9821,1906
16,0.1777,-0.5505,0.0522,1.1846,1.3251,-4.3635,2019
16,-0.3281,-0.5793,-0.0564,1.2117,2.0156,-4.3635,2158
16,-0.561,-0.1868,0.1892,1.4627,1.5564,-4.3635,1989
16,0.5723,-0.5254,0.1355,1.3501,0.7758,-4.3635,2074
16,0.6514,-0.7168,-0.0544,1.4362,1.1885,-4.3635,2147
16,0.6199,-0.9834,-0.0042,1.1623,0.337,-4.3635,2299
16,0.0806,-1.1223,-0.0293,1.0684,-0.2595,-4.3635,2070
16,-0.2131,-1.1758,0.0166,1.0598,-1.103,-4.3635,2153
16,-0.2295,-1.22,-0.0706,1.0216,-1.8153,-4.3635,1997
16,-0.1123,-1.2083,-0.1238,0.9602,-1.8721,-4.3635,1973
16,-0.0066,-1.2241,-0.061,0.7219,-1.8531,-4.3635,2050
16,-0.0042,-1.3406,0.0388,0.4793,-2.1856,-4.3635,2043
16,-0.2588,-1.4297,0.0654,0.4464,-2.6797,-4.3635,2067
16,-0.5105,-1.4934,-0.0261,0.4207,-2.999,-4.3064,2124
16,-0.6943,-1.5281,-0.0088,0.3662,-2.8223,-4.221,2080
16,-0.8672,-1.5811,0.1025,0.0844,-2.2386,-4.2647,2081
16,-1.0034,-1.5806,0.0193,0.0092,-1.9278,-4.1761,1935
16,-1.1121,-1.5779,-0.0208,0.0063,-1.7751,-3.8866,2105
16,-1.23,-1.491,-0.0894,-0.0618,-1.5608,-3.5997,2049
16,-1.3389,-1.3938,-0.0652,-0.2187,-1.2109,-3.2797,2110
16,-1.3188,-1.2971,-0.0579,-0.3261,-0.6371,-2.7444,2016
16,-1.0552,-1.2585,-0.002,-0.29,-0.6215,-2.241,1818
16,-0.8386,-1.2976,-0.0552,-0.5814,-0.2408,-1.6432,1958
16,-0.9893,-1.8784,-0.0132,-1.0372,-0.6975,-1.5065,2283
16,-1.1536,-1.5601,-0.5591,-1.3966,-0.7806,-1.2757,2228
16,-1.4426,-0.9153,-0.7605,-0.9993,-0.1623,-0.32,1962
16,-1.8577,-0.3923,-0.5046,0.1875,1.1596,1.2445,2205
16,-2.0,-1.1533,0.0479,0.4364,2.4603,2.8189,2347
16,-1.7778,-1.6912,0.6475,-0.4215,2.177,2.2463,2765
16,-1.792,-1.0842,1.1477,0.1533,2.3894,2.7261,716
16,-0.3118,-1.0261,1.9999,0.6006,2.0164,2.2535,305
16,1.9087,-2.0,1.9999,-0.5454,1.3647,1.0846,859
16,1.1909,-2.0,0.0403,-1.8599,2.1899,-0.11,1707
16,1.0505,-0.7424,-1.0017,-0.855,1.4386,3.06,2851
16,0.3982,-0.1814,-0.7893,-0.2683,0.9443,2.5172,4064
16,-0.6016,-0.5852,-0.5898,-0.8612,2.2891,1.0408,2951
16,-0.9709,-0.8884,-0.699,-1.0898,3.787,1.3185,2219
16,-0.5222,-0.9792,-0.5847,-1.0544,2.2778,1.2669,1605
16,0.4534,-1.1606,-0.1738,-0.942,0.6584,0.9058,1279
16,-0.0649,-0.7019,-0.0181,-0.2405,0.8761,2.4445,1795
16,-1.0684,-0.9883,1.2451,0.9335,-0.4185,2.5773,2330
16,-0.855,-1.1602,1.085,1.118,-1.9964,2.3128,1462
17,-1.022,-0.7998,-0.0276,0.7052,-1.5335,2.1607,78
17,-0.6311,-1.1289,-0.3694,0.0024,0.0369,1.3805,1763
17,-0.4507,-1.2734,-0.3728,-0.3766,1.2484,0.9431,3482
17,-0.2742,-0.8809,0.0615,-0.1301,0.4686,0.813,3454
17,-0.48,-0.968,0.4119,-0.1132,0.3803,0.6726,2251
17,-0.6104,-1.1587,0.3025,-0.2879,0.6027,0.4702,1780
17,-0.572,-1.1023,0.0679,-0.2741,1.0637,0.3119,1986
17,-0.3022,-1.0276,-0.0015,-0.329,0.9842,0.0917,2188
17,-0.0874,-1.0183,-0.0413,-0.3673,0.7056,0.014,2062
17,-0.0129,-0.9756,-0.0696,-0.257,0.3722,0.0672,2178
17,-0.0115,-0.9656,-0.0349,-0.167,0.0545,0.127,2037
17,-0.1086,-1.019,-0.0232,-0.0459,-0.1669,0.1959,2030
17,-0.1821,-1.0466,0.0557,0.0744,-0.3778,0.2424,1836
17,-0.2686,-1.0203,0.1055,0.0495,-0.3613,0.2486,2394
17,-0.2354,-1.0864,0.1658,-0.0726,-0.4087,0.1453,1991
17,-0.1707,-1.0444,0.1477,-0.1353,-0.4863,0.0609,1965
17,-0.21,-0.9985,0.0295,-0.0972,-0.4851,0.0794,2023
17,-0.3035,-1.0352,0.0037,-0.2093,-0.2842,-0.087,1994
17,-0.1826,-0.9661,-0.063,-0.1483,-0.0627,-0.1293,2239
17,0.0039,-0.9761,-0.0527,-0.0302,-0.119,-0.0627,1991
17,0.0789,-0.9705,-0.1023,-0.0471,-0.2268,0.0397,2089
17,0.0303,-0.9661,-0.1152,-0.0754,-0.2944,0.022,2002
17,0.1116,-0.9763,-0.0498,-0.006,-0.2862,0.0823,1965
17,0.104,-0.9661,-0.009,-0.0277,-0.1997,0.1666,2047
17,0.0251,-0.9397,0.0356,-0.0651,-0.075,0.2454,2125
17,-0.0247,-0.9551,0.0593,-0.0443,-0.0964,0.4007,1974
17,-0.031,-0.9673,0.1951,-0.0708,-0.1055,0.5051,2118
17,0.0,-0.9883,0.1851,-0.1906,-0.1487,0.537,1992
17,0.0361,-0.9883,0.1191,-0.392,-0.0278,0.537,1947
17,0.041,-0.9871,0.0884,-0.483,0.0586,0.5517,1962
17,0.0024,-1.0198,0.0835,-0.4344,0.0561,0.7027,2037
17,-0.0527,-0.9795,0.0439,-0.3718,-0.0487,0.775,2134
17,-0.0261,-0.9761,0.053,-0.4093,0.0234,0.8505,1774
17,-0.0271,-0.9976,0.0132,-0.4766,0.0348,0.8239,2039
17,-0.0593,-1.0518,-0.064,-0.5153,0.1983,0.8275,2016
17,-0.2158,-1.0002,-0.113,-0.4362,0.2139,0.8138,2076
17,-0.2571,-0.9954,-0.021,-0.3705,0.1578,0.7352,1927
17,-0.2866,-1.001,0.0461,-0.3943,0.1663,0.6742,2151
17,-0.2693,-0.9626,0.0427,-0.318,0.086,0.5924,2071
17,-0.2712,-0.9954,0.0833,-0.3625,0.1157,0.5464,2083
17,-0.2939,-1.0225,0.1333,-0.4392,0.1965,0.547,2118
17,-0.1472,-1.0508,0.0627,-0.4159,0.357,0.5718,1832
17,0.0271,-0.9897,0.0098,-0.3695,0.3338,0.7187,2173
17,0.0884,-0.9912,-0.0352,-0.3611,0.3342,0.8697,1834
17,0.1748,-1.1182,0.0046,-0.3663,0.2199,1.0543,3529
17,0.2175,-1.1382,-0.0488,-0.3422,0.0847,1.2885,1917
17,0.1809,-1.1619,-0.0017,-0.3052,0.022,1.547,2655
17,0.1458,-1.3447,-0.0007,-0.3043,-0.1298,1.6599,1418
17,0.1555,-1.4663,0.0845,-0.3493,-0.2647,1.7744,2411
17,0.146,-1.2483,0.1514,-0.2493,-0.2149,1.9948,1564
17,-0.051,-1.322,0.2795,-0.2547,-0.2746,2.0832,2041
17,-0.0872,-1.4333,0.2256,-0.2557,-0.2701,2.1254,1919
17,-0.1543,-1.3469,0.2754,-0.218,-0.1234,2.2217,1760
17,-0.1169,-1.2612,0.292,-0.1514,0.0073,2.3728,1695
17,-0.1738,-1.4546,0.3003,-0.1429,0.1984,2.3621,2036
17,-0.0645,-1.5029,0.2314,-0.1008,0.4562,2.4617,2160
17,0.0994,-1.5396,0.1411,-0.1017,0.3831,2.6605,1943
17,0.3794,0.2893,-0.2273,-1.0512,1.5223,-2.8533,1559
17,-0.4026,-0.561,-0.0483,-0.1053,1.5989,-3.1341,2270
18,-0.1082,-0.1082,0.1716,-0.0154,1.0661,-4.0606,2271
18,-0.0339,-0.0068,0.1216,-0.1016,1.1371,-4.3184,2115
18,-0.0417,-0.3525,0.0898,-0.3579,1.1347,-4.3635,2054
18,0.0278,-0.3508,0.0596,-0.1063,1.119,-4.3635,2018
18,0.1238,-0.3015,0.0103,0.2386,0.6123,-4.3635,2131
18,0.2083,-0.4136,-0.0076,0.3248,0.281,-4.3635,2014
18,0.178,-0.5366,0.1045,0.3698,0.0716,-4.3635,2052
18,0.1394,-0.7454,0.2671,0.453,-0.0684,-4.3635,1951
18,0.2229,-0.9458,0.1633,0.5268,-0.1163,-4.3635,1848
18,0.3657,-1.0066,0.1387,0.4646,-0.1294,-4.3635,2158
18,0.1863,-1.071,0.2693,0.3884,-0.4462,-4.3635,1964
18,-0.2561,-1.2188,0.2249,0.395,-1.6065,-4.3635,2101
18,-0.3401,-1.3186,-0.0046,0.5078,-2.4137,-4.3635,2183
18,-0.3657,-1.2312,-0.0242,0.4259,-2.2811,-4.3635,2061
18,-0.5635,-1.3818,-0.0112,0.1637,-1.8165,-4.3635,2046
18,-1.0273,-1.6592,-0.1025,0.2464,-1.5669,-4.3635,2084
18,-1.4368,-1.6946,-0.1357,0.3599,-1.1907,-4.3635,2325
18,-1.7373,-1.4246,-0.1726,0.7397,-0.8245,-4.3635,2126
18,-1.6121,-1.1458,0.0442,0.9208,-0.891,-4.2281,2240
18,-1.7327,-1.0793,0.0793,0.767,-0.5325,-4.0266,1955
18,-1.6484,-1.1785,-0.0891,0.9415,0.5181,-3.3247,1959
18,-1.7119,-1.1663,-0.0642,1.2625,1.1445,-2.2921,2067
18,-1.6045,-2.0,0.5127,0.5268,0.8569,-2.3718,2368
18,-1.1155,-1.3818,-0.748,-1.1543,0.9238,-2.7007,2385
18,-2.0,-0.8418,-0.5535,0.4875,2.0072,0.491,1471
18,-2.0,-1.6594,0.8096,1.9576,4.3634,2.4573,3320
18,-1.6492,-2.0,1.6746,-0.4733,4.3634,2.155,1539
18,0.7927,-2.0,1.8599,-2.1161,-0.0005,4.3634,131
18,1.1125,-0.6948,0.8252,-0.14,0.5083,2.4103,72
18,0.3118,0.429,-0.0471,0.9159,2.2605,3.2155,3602
18,-1.2576,-0.1777,0.7073,-0.249,0.4155,1.1905,1599
18,0.8975,-1.1296,0.7336,-1.661,-2.6521,1.1206,1519
18,-1.3796,-1.3604,-1.8989,-1.9588,2.7694,1.2722,2270
18,-1.531,-2.0,-1.8889,-1.0409,4.3634,1.7924,1182
18,-1.2922,-1.4534,0.4509,-0.1923,2.2542,2.64,4064
18,1.3066,-0.3965,1.7632,0.1585,-0.6349,1.5443,2900
18,-1.2749,-0.8123,-0.0581,-0.2289,-1.7383,1.4041,235
18,-0.7256,-1.1936,-0.3264,-0.3804,-1.2842,1.5267,1496
18,-0.1934,-1.0449,-0.7109,0.0743,-0.603,1.0824,622
18,-0.0896,-1.1069,-0.5142,-0.0635,0.394,1.1058,2981
18,0.3188,-1.022,0.1006,-0.0547,1.0605,1.2058,3049
18,0.095,-1.0273,0.321,0.0196,0.9649,1.0356,2269
18,-0.239,-1.0935,0.3506,0.157,0.2009,1.3816,1770
18,-0.304,-1.1018,0.3198,-0.059,0.1171,1.3685,2075
18,-0.3582,-1.0591,0.2227,-0.3023,0.1297,1.1517,1888
18,-0.4158,-1.0015,0.1506,-0.4228,0.0001,0.8794,1694
18,-0.3232,-0.9763,-0.0205,-0.5059,-0.0381,0.5959,2490
18,-0.1658,-0.988,-0.0989,-0.4147,-0.1292,0.4658,2587
18,0.0024,-1.0325,-0.1174,-0.3135,-0.2219,0.4987,1736
18,0.073,-1.073,-0.1423,-0.2209,-0.2297,0.6448,2639
18,-0.0271,-1.0308,-0.1272,-0.1258,-0.1999,0.7143,1756
18,-0.134,-0.9717,-0.0217,-0.0646,-0.283,0.632,1816
18,-0.2141,-0.9968,-0.0315,0.0077,-0.45,0.5658,2714
18,-0.2749,-1.0032,-0.0381,0.004,-0.4377,0.4819,1498
18,-0.2439,-0.9883,0.043,-0.0178,-0.4209,0.3524,2627
18,-0.1794,-1.0095,0.0437,-0.0011,-0.3621,0.3167,2293
18,-0.1367,-1.0498,0.0835,0.006,-0.2285,0.3301,2181
18,-0.0684,-0.9834,0.1267,-0.033,-0.2325,0.3725,1603
18,-0.0364,-0.927,0.1672,-0.2376,-0.435,0.3494,2643
18,-0.0842,-0.9014,-0.092,-0.067,0.073,0.3883,2253
18,0.1421,-0.9978,0.0862,-0.1557,-0.0941,0.4646,2074
18,0.2361,-0.9631,0.1003,-0.347,-0.018,0.6116,1847
18,0.1111,-1.0081,0.0159,-0.4533,-0.0927,0.5947,1933
18,0.0381,-0.9663,0.0645,-0.3948,-0.1981,0.7586,2655
18,0.0522,-0.9434,0.022,-0.3984,-0.1871,0.8408,1922
18,0.1287,-0.9922,0.0139,-0.5896,0.0049,0.7909,2142
18,0.0391,-1.0022,0.0068,-0.6035,0.0683,0.8653,1692
18,0.0142,-1.0386,-0.0652,-0.6829,0.4312,0.9562,1666
18,-0.0828,-1.0854,0.0608,-0.5612,0.3073,1.0567,2167
18,-0.2124,-1.0271,0.0134,-0.6315,0.3402,1.0262,2180
18,-0.3115,-0.9817,0.0181,-0.6725,0.3622,0.8842,2140
18,-0.4473,-1.0991,0.0369,-0.636,0.3305,0.7644,2744
18,-0.3953,-1.0527,-0.0078,-0.5721,0.3478,0.7549,1733
18,-0.2546,-1.0442,-0.0161,-0.5141,0.2948,0.7469,2418
18,-0.155,-1.1206,-0.0046,-0.4846,0.3304,0.7203,2450
18,-0.1594,-1.1753,-0.0754,-0.4077,0.0569,0.7552,2040
19,-0.1152,-1.1167,0.009,-0.3932,-0.0013,0.906,2021
19,-0.1267,-1.1172,0.1873,-0.3589,-0.1011,0.9721,2280
19,-0.1221,-1.2629,0.1406,-0.2971,-0.0293,1.1468,2006
19,0.0498,-1.2014,0.2244,-0.2835,0.2241,1.3074,1516
19,0.0198,-1.3154,0.2244,-0.2631,0.2847,1.4656,1965
19,0.1995,-1.3643,0.2339,-0.2904,0.4709,1.5392,1774
19,0.2249,-1.4739,0.1152,-0.3562,0.2862,1.6878,1862
19,0.1675,-1.2637,0.1936,-0.2794,0.2205,1.9708,2318
19,0.238,-1.282,0.158,-0.2671,0.1967,2.1102,1259
19,0.1414,-1.3933,0.062,-0.2197,0.0824,2.4675,2035
19,0.2112,-1.3013,0.04,-0.2084,0.1727,2.5099,2080
19,0.1833,-1.3765,0.0181,-0.1262,0.2731,2.4312,2259
19,0.301,-1.4783,-0.0234,-0.1129,0.4767,2.5231,2190
19,0.5002,-1.5364,-0.1035,-0.1931,0.5613,2.614,2186
19,0.8181,-1.5986,-0.1519,-0.3605,0.6461,3.0227,2015
19,1.2852,-1.8064,-0.054,-0.6413,0.2691,2.6987,3551
19,1.0835,-0.9551,0.2178,-0.7372,-4.3635,4.3634,72
19,0.3713,-0.9207,-0.2358,0.8098,1.0997,-4.3635,2236
19,0.4788,-0.97,-0.217,1.2437,0.4817,-4.3635,2218
19,0.3486,-0.9937,-0.0498,1.0082,0.3365,-4.3635,2059
19,0.2031,-1.0955,-0.2241,0.862,-0.312,-4.3635,2035
19,-0.0933,-1.1836,-0.3601,0.9416,-1.4037,-4.3635,2180
19,-0.063,-1.2192,-0.3713,0.957,-1.9562,-4.3635,2125
19,-0.0459,-1.2383,-0.3296,0.7612,-2.2514,-4.3635,2136
19,-0.2332,-1.3413,-0.2971,0.5683,-2.3178,-4.3635,2102
19,-0.4058,-1.4275,-0.2612,0.4472,-2.3127,-4.3635,2178
19,-0.6238,-1.5454,-0.2112,0.2641,-2.2172,-4.3635,2062
19,-0.7644,-1.5405,-0.2102,0.177,-2.1434,-4.3635,2011
19,-0.8503,-1.5923,-0.145,0.0542,-2.334,-4.3635,1959
19,-1.0811,-1.5625,-0.1519,-0.0402,-2.427,-4.3635,1952
19,-1.1421,-1.5742,-0.1021,-0.1875,-2.3358,-3.9772,1928
19,-1.7637,-1.1216,-0.1943,-0.452,-1.3946,-0.2216,2166
19,-2.0,0.3184,-0.4958,-0.1001,0.3597,-0.0915,784
19,-2.0,0.7944,1.4031,3.7728,3.5972,4.3634,1738
19,0.0552,-1.7449,0.5781,0.4757,0.1732,1.4348,3301
19,-1.124,-0.9128,-0.2117,-0.1752,0.4109,1.8315,2249
19,0.2559,-0.7356,0.0542,0.9376,-0.7923,2.1086,1690
19,-0.9556,-1.3323,0.4216,-0.1906,1.3969,1.0812,2506
19,-0.4224,-0.9363,0.3289,-0.5417,0.7806,0.4215,1904
19,-0.1445,-0.9678,0.158,-0.5059,0.4373,0.4117,1840
19,0.0603,-1.1809,-0.1807,-0.6072,0.2943,0.5007,1421
19,0.176,-0.9365,-0.1426,-0.4992,-0.4514,0.8084,1507
19,0.0588,-1.1672,-0.1992,-0.3213,-0.6589,0.9083,93
19,-0.1677,-1.0994,-0.196,-0.3268,-0.8007,0.7514,2188
19,-0.3757,-0.9734,-0.0952,-0.2895,-0.7291,0.5153,2685
19,-0.5017,-0.9705,-0.0706,-0.3385,-0.1329,0.2723,2776
19,-0.2002,-0.9529,-0.1531,-0.2613,0.0967,0.2137,2404
19,0.0842,-1.0078,-0.0796,-0.2012,0.1286,0.3318,1851
19,0.0645,-1.0427,-0.0098,-0.2349,-0.1935,0.3806,1886
19,0.2358,-1.0837,-0.126,-0.1477,-0.4614,0.6275,2273
19,0.2278,-1.2856,0.0259,-0.2657,-0.7188,0.251,2285
19,0.3359,-0.2043,0.4197,-0.5956,-1.101,0.8961,1573
19,-0.5142,-0.9463,-0.3726,-0.329,-0.5035,0.5094,4064
19,-0.1287,-0.9641,-0.0024,-0.0796,-0.7138,-0.0546,924
19,-0.2812,-1.0388,0.0498,0.3445,-0.165,0.5667,971
19,0.2368,-1.0801,0.0525,-0.1276,0.2137,0.1918,1254
19,-0.0891,-0.8792,-0.1921,-0.1382,1.6544,0.9111,2571
19,0.1763,-0.811,0.2407,-0.2678,0.2679,0.8549,2239
19,0.2227,-1.009,-0.2231,-0.3605,0.5608,0.5829,1839
19,0.3601,-1.0027,-0.032,-0.4305,0.6592,0.7958,2206
19,0.0613,-1.0476,0.0049,-0.4787,0.1786,1.0018,2635
19,-0.0867,-0.9189,-0.0383,-0.4964,0.0148,0.9364,2186
19,-0.0491,-1.0217,-0.0488,-0.4526,-0.0575,0.8939,1944
19,-0.1345,-1.0139,-0.1201,-0.4746,-0.0141,0.9449,2192
19,-0.2395,-1.0098,-0.1477,-0.4831,0.1844,0.9472,2690
19,-0.187,-1.0278,-0.1238,-0.4247,0.2569,0.9311,2606
20,-0.1794,-1.0413,-0.0925,-0.4312,0.1851,0.9423,2192
20,-0.3181,-1.0876,-0.1035,-0.4165,0.0764,0.857,2489
20,-0.2454,-1.1279,-0.052,-0.3607,-0.015,0.8741,3408
20,-0.2256,-1.1895,-0.0139,-0.3522,-0.1059,0.7805,2329
20,-0.2217,-1.1965,0.0403,-0.3027,-0.1685,0.7931,2089
20,-0.0703,-1.1755,0.0706,-0.3308,-0.1246,0.7855,1897
20,0.0884,-1.134,0.115,-0.3029,-0.0384,0.9637,2026
20,0.2007,-1.1589,0.1306,-0.3259,0.0826,1.1596,1797
20,0.2217,-1.3054,0.1431,-0.3587,0.1439,1.3786,1637
20,0.2942,-1.3625,0.0825,-0.4145,0.1429,1.6077,2209
20,0.2068,-1.3389,0.1018,-0.4103,0.0772,1.8744,1848
20,0.123,-1.2993,0.0793,-0.3931,0.0029,2.0082,2513
20,0.2056,-1.2468,0.0981,-0.3132,-0.3633,2.3554,1897
20,-0.2009,-1.3716,0.1265,-0.4326,0.2161,2.3451,2295
20,0.1179,-1.2405,0.0674,-0.3807,0.241,2.333,2065
20,0.0916,-1.2288,0.0566,-0.4052,0.3717,2.4996,2367
20,0.1833,-1.261,0.0454,-0.469,0.4159,2.5413,2337
20,0.3389,-1.3567,0.0781,-0.5554,0.2213,2.4675,2435
20,0.375,-1.4224,-0.0068,-0.6235,-0.0063,2.4056,1831
20,0.6396,-1.4939,0.0237,-0.6638,-0.2289,2.3679,1904
20,0.4485,-1.3933,0.0974,-0.6229,-0.068,2.6936,1994
20,1.0896,-1.2451,0.2202,-0.6376,-0.5594,2.9654,1658
20,1.0449,-1.1143,0.26,-0.8295,-1.2276,3.2424,1748
20,1.9999,-2.0,0.8708,-0.6979,-3.7982,3.6844,1486
20,1.3987,-0.2952,0.8623,-0.5356,-4.3635,4.3634,76
20,0.1077,-2.0,-0.0725,-1.0099,-3.0492,3.8483,1734
20,-1.5859,-2.0,-0.0859,-0.9158,-2.7518,2.0984,3081
20,-0.2405,-2.0,-1.0305,-1.3046,-0.4918,2.1981,3317
20,-1.2234,-1.175,0.5396,-0.9634,-1.8749,4.3634,2746
20,-1.1907,-2.0,0.6262,-0.7445,-1.5735,4.3634,2591
20,-1.676,-1.3279,-0.6707,-0.5177,-0.3321,4.3634,2310
20,-0.1367,-0.1777,-0.5342,-0.5316,1.3223,3.6609,2323
20,1.5676,1.1218,1.1836,-0.1495,-0.3714,3.6766,1110
20,-0.5977,-0.0266,-0.6731,0.6524,-0.0132,3.0746,1184
20,-2.0,-1.9233,-1.4485,-0.5509,2.2586,2.113,3953
20,-1.9094,-0.6997,0.1511,0.6798,0.7062,1.7205,3916
20,0.1648,-1.2063,0.1572,1.4597,-0.4852,-4.3635,2056
20,-0.2373,-1.7866,-0.0205,0.8321,-3.1495,-4.3635,2013
20,-0.5781,-1.7197,0.0144,0.6152,-3.4959,-4.3635,2026
20,-0.5862,-1.6528,0.0781,0.4976,-3.9554,-4.3635,2083
20,-0.5618,-1.7903,0.0471,0.4707,-4.1769,-4.2793,1992
20,-0.9272,-1.7952,0.0061,0.2017,-3.5965,-4.0362,1992
20,-0.9482,-1.6421,0.0474,-0.1388,-2.875,-3.529,2118
20,-1.0366,-1.5359,0.0183,0.0129,-2.5982,-2.8594,2104
20,-1.2583,-1.5818,0.0847,0.0224,-2.8018,-2.1443,2102
20,-1.344,-1.342,0.0574,-0.1919,-2.9622,-1.5857,1901
20,-1.5117,-1.2671,-0.0771,-0.4847,-2.361,-1.1432,1995
20,-1.5125,-1.1897,-0.312,-0.4663,-1.587,-0.4627,2156
20,-1.5198,-1.0645,-0.2957,-0.098,-0.7512,0.2457,2032
20,-1.4336,-1.5479,0.2317,-0.3438,-0.1498,0.4783,2297
20,-1.2656,-0.2954,-0.2488,-0.9893,0.6407,1.0933,1473
20,-2.0,-0.2417,-0.6707,1.4114,4.2699,3.1708,2945
20,-0.8545,-2.0,1.9999,-1.6986,1.0825,3.8246,75
20,1.5737,-0.6365,1.9999,-0.3083,1.3444,1.3053,72
20,1.9999,-2.0,0.7026,0.55,-0.6424,-1.8944,73
20,-0.219,-0.9839,-1.9382,-1.9294,4.3634,1.5131,2954
20,-0.4277,-0.9363,-0.5159,-0.4173,4.3634,3.2714,4064
20,-0.314,-0.8743,0.3943,0.6212,2.5794,3.3884,4064
20,-0.4919,-1.0928,1.0149,-0.2193,0.6763,2.8827,1786
20,-0.2473,-1.061,0.6863,-1.3696,0.228,2.3262,1570
20,-0.2329,-1.5022,-0.0886,-2.3225,0.9989,1.45,1662
20,0.4106,-0.3088,-0.6807,-3.7059,1.3636,-0.2281,1702
20,-0.4858,-0.3455,-0.7009,-1.2284,1.623,0.8927,2689
20,0.2693,-1.0164,-0.5083,-0.4817,1.3404,1.5846,2089
20,0.394,-0.7332,-0.3181,0.3649,0.2638,1.7349,1531
20,-0.0896,-0.8101,-0.356,1.0693,-0.0478,2.1772,1832
20,-0.6826,-1.4021,0.2617,1.3731,-0.1603,2.4955,2121
20,-1.2288,-1.1709,0.2214,0.4586,1.1138,1.994,72
20,0.0276,-1.0061,-0.0813,-0.0129,-0.1117,0.3265,1720
20,0.0876,-0.9595,-0.0466,0.0059,-0.2539,0.339,1285
20,0.1055,-0.9829,-0.0088,0.0178,-0.2362,0.3962,2061
20,0.0923,-0.9866,-0.0071,0.0266,-0.1242,0.4526,1545
20,0.0623,-1.0034,0.0271,0.0559,-0.0724,0.5035,2124
21,0.1528,-1.0032,0.1367,0.0478,-0.2333,0.5996,1843
21,0.0415,-0.9619,0.155,-0.0567,-0.4237,0.6157,2296
21,-0.1345,-1.0229,0.2188,-0.2115,-0.2607,0.5404,2035
21,-0.071,-0.9888,0.1479,-0.3096,0.0852,0.6082,2370
21,-0.0159,-1.0078,0.1116,-0.3839,0.1297,0.5742,1129
21,-0.0229,-0.8994,0.1406,-0.3587,0.1919,0.6711,2135
21,0.0759,-0.9741,0.1111,-0.3786,0.2711,0.7767,1885
21,0.2554,-0.9766,0.0488,-0.4895,-0.0495,0.8585,1548
21,0.2791,-1.0725,0.0967,-0.671,-0.2975,0.9095,3328
21,-0.5188,-0.9241,-0.0049,-0.6733,-0.0863,0.889,1653
21,-0.2048,-0.9932,-0.0686,-0.5124,1.1512,0.781,2434
21,0.0815,-0.9492,0.1851,-0.5717,0.6585,0.808,2262
21,0.0481,-0.9807,0.0193,-0.7359,0.6253,0.8913,2377
21,0.1345,-1.0178,-0.0266,-0.7304,0.4481,0.9159,1372
21,0.0386,-1.0442,-0.1001,-0.7299,0.3057,1.0339,2254
21,-0.1597,-1.0981,-0.0706,-0.6536,0.3037,1.1413,2392
21,-0.27,-1.0674,-0.0725,-0.7003,0.4871,0.9523,3102
21,-0.2439,-1.01,0.0469,-0.6632,0.5067,0.8364,2161
21,-0.2351,-1.0474,-0.0337,-0.5821,0.3225,0.8204,2533
21,-0.3083,-1.0229,0.0105,-0.55,0.3504,0.8287,2240
21,-0.3188,-1.0476,-0.0171,-0.5163,0.3216,0.8055,2465
21,-0.2842,-1.0718,-0.0378,-0.4939,0.2695,0.8235,1708
21,-0.2092,-1.0591,-0.1243,-0.5308,0.3649,0.7959,1733
21,-0.1292,-1.0701,-0.0967,-0.5115,0.5091,0.8164,2742
21,-0.1096,-1.0115,0.0315,-0.4124,0.379,0.9521,3022
21,-0.0225,-1.0928,0.0825,-0.4116,0.2835,1.0993,2159
21,0.0352,-1.2231,0.1384,-0.4798,0.19,1.1343,1296
21,-0.0271,-1.1917,0.0933,-0.4385,0.3404,1.348,2425
21,-0.0027,-1.3467,0.1667,-0.4622,0.3059,1.5004,2472
21,0.0813,-1.3091,0.1487,-0.4492,0.3526,1.5812,1880
21,0.001,-1.375,0.1316,-0.4763,0.3484,1.6857,1788
21,0.0801,-1.4038,0.0374,-0.4963,0.2117,1.6811,2038
21,-0.0933,-1.1809,0.1125,-0.3986,0.2951,1.8511,2080
21,-0.0081,-1.2427,0.0977,-0.4002,0.4402,1.8672,2284
21,0.127,-1.238,0.0137,-0.39,0.284,2.0398,1870
21,0.0674,-1.239,0.0112,-0.3446,0.1561,2.2933,833
21,0.1553,-1.3569,-0.02,-0.3846,0.1677,2.3172,2437
21,0.1685,-1.3972,-0.02,-0.3771,0.1204,2.2196,2082
21,0.2622,-1.4248,-0.0159,-0.5188,0.0406,1.9829,2150
21,0.4207,-1.2834,0.0022,-0.5821,0.0222,1.998,3225
21,0.5664,-1.4529,0.0195,-0.7062,-0.2602,1.9405,1821
21,0.4717,-1.3494,0.0527,-0.7071,-0.1398,2.2759,2192
21,1.0813,-1.0854,0.2209,-0.6955,-0.6751,2.8383,1603
21,1.0469,-0.9292,0.2476,-0.7182,-1.4741,3.0159,1749
21,1.9999,-1.3452,0.8943,-0.5946,-3.9614,4.3634,1273
21,0.5764,-1.8364,0.8105,-0.7048,-4.3635,4.3634,75
21,-1.2966,-1.4868,-0.165,-0.8341,-2.6818,3.7966,2822
21,-1.6489,-1.79,0.0225,-1.5073,-0.826,2.7099,3050
21,-0.9458,-2.0,-0.9207,-1.2391,0.0887,1.4801,1898
21,0.7412,-1.7021,0.3994,-1.4078,-0.6974,3.4938,2706
21,-0.7249,-2.0,0.2227,-1.7233,-1.5912,3.4228,2226
21,-1.0229,-1.6516,0.1018,-0.4064,-1.7829,4.3634,2283
21,-0.5269,-0.5623,-0.6831,-0.3703,0.0599,3.7553,2743
21,-0.061,-1.3176,-0.2227,0.2681,-2.3112,-4.3635,2160
21,-0.2507,-1.3657,-0.1067,0.2746,-3.0088,-4.3635,1993
21,-0.3987,-1.3003,-0.0378,0.1252,-3.3505,-4.3635,1951
21,-0.5442,-1.3162,0.0137,-0.1337,-3.069,-4.3635,2008
21,-0.5955,-1.439,0.0535,-0.3052,-2.4619,-4.3635,1864
21,-0.6521,-1.4534,-0.0249,-0.1312,-2.3324,-4.3635,2011
21,-0.7485,-1.4897,0.2051,-0.3749,-2.2088,-4.3635,2029
21,-0.95,-1.5181,0.1345,-0.7011,-2.0616,-4.3635,2040
21,-1.1294,-1.5503,0.0269,-0.6982,-2.0038,-4.0996,2001
21,-1.3083,-1.3857,0.0054,-0.7019,-1.8527,-3.5625,2050
21,-1.2961,-1.3103,-0.1279,-0.6669,-1.5153,-3.0178,2081
21,-1.3584,-1.3237,-0.2764,-0.318,-1.3041,-2.2164,2216
21,-1.4617,-1.2981,-0.248,-0.0715,-1.256,-1.4081,2069
21,-1.5461,-1.1584,-0.1853,0.0178,-0.9493,-0.7637,2158
21,-1.7075,-1.0771,-0.0989,0.0694,-0.4201,-0.1429,2036
21,-1.8315,-1.0203,-0.0391,0.051,0.2172,0.5155,1990
21,-1.3835,-2.0,0.6929,-2.6111,-0.3016,-1.5853,2824
21,-2.0,-0.1343,-0.6558,-0.2862,1.9082,0.7674,1204
21,-2.0,-0.064,0.8489,1.8345,4.1137,4.3634,2401
21,-0.4241,-1.7334,1.9999,1.9064,2.0403,1.1087,72
21,1.9999,-2.0,1.9999,-3.1058,-0.7376,0.0248,76
21,1.9999,-2.0,-1.9392,-2.7356,1.8792,-0.66,77
21,0.8225,-0.0793,-1.355,-1.4559,2.2647,3.5508,4064
21,-1.218,-0.2969,-0.1831,0.3348,3.6945,3.8368,4064
21,-0.9141,-0.4932,0.2578,0.6983,3.3119,3.6561,4064
21,-2.0,-1.0999,-0.0557,0.2434,2.8901,1.1777,1129
21,-0.3315,-0.8193,0.0769,0.405,1.7669,1.7048,889
21,0.428,-1.3962,-0.2454,-1.9209,0.394,1.3346,2130
21,0.2012,-0.5317,-0.1038,-1.4267,-0.2573,0.9949,86
21,0.3582,-0.7461,-0.345,0.147,-0.7552,1.5551,3104
21,-1.1895,-1.3044,-0.1462,-0.6881,0.4161,2.3976,2597
21,-0.1155,-0.866,0.1401,-0.3871,-1.0238,1.9411,75
22,-0.3779,-1.0989,0.1738,-0.0253,1.6166,2.0548,1945
22,-0.948,-1.2949,0.1672,-0.2313,2.2904,1.8635,3010
22,-0.6963,-1.0012,0.0686,-0.6284,1.4167,1.2083,3260
22,0.0454,-0.782,0.0132,-0.9115,0.9622,0.5,2123
22,0.1013,-0.9697,0.0955,-0.893,0.8786,0.3007,1887
22,-0.2075,-1.251,0.0972,-0.8196,0.4618,0.5671,2053
22,0.0168,-1.1392,0.0134,-0.6493,0.249,0.9467,2566
22,0.1096,-0.981,-0.064,-0.4406,-0.1332,0.9725,71
22,0.0999,-1.0005,-0.1099,-0.3514,-0.3832,1.0814,2659
22,-0.1514,-1.031,-0.0911,-0.3493,-0.6803,1.0034,2012
22,-0.3518,-0.9563,-0.1487,-0.4219,-0.6498,0.7184,2333
22,-0.386,-0.9958,-0.105,-0.463,-0.4117,0.4794,1775
22,-0.2629,-1.0183,-0.1467,-0.4376,-0.1838,0.3827,2462
22,-0.1016,-1.0369,-0.1377,-0.3682,-0.034,0.3484,2032
22,0.0256,-1.0312,-0.144,-0.2308,-0.0944,0.4538,1797
22,-0.0396,-1.0208,-0.1194,-0.1875,-0.1976,0.447,1933
22,-0.0981,-0.9976,-0.1497,-0.1658,-0.2093,0.3882,2111
22,-0.022,-0.9766,-0.0759,-0.1238,-0.4749,0.4026,2212
22,-0.1096,-0.9785,-0.1616,-0.1123,-0.4432,0.4875,2176
22,-0.0854,-1.0024,-0.1277,-0.1264,-0.337,0.4991,4057
22,-0.0342,-1.012,-0.168,-0.1349,-0.2405,0.4569,929
22,0.2607,-1.0229,-0.1133,-0.0762,-0.4199,0.5741,2498
22,0.3289,-1.1189,-0.0115,-0.1382,-0.9055,0.7937,2287
22,-0.5757,-0.6323,-0.0212,-0.2168,-0.8975,0.3175,1355
22,-0.2769,-1.0679,-0.2327,-0.1614,-0.3807,0.2697,2007
22,0.2622,-1.071,0.0452,0.0077,-0.2539,0.6204,1733
22,0.3867,-1.0413,0.0361,-0.1896,-0.7722,0.7652,1486
22,-0.2466,-1.0095,0.0237,-0.1193,0.09,0.6399,3850
22,0.1709,-0.9675,0.1987,-0.2904,-0.4161,0.7131,1631
22,-0.3774,-1.1423,-0.0217,-0.3157,0.1495,0.7558,1960
22,-0.1008,-0.9634,-0.0786,-0.2364,0.8917,0.6123,2242
22,0.1519,-1.0935,-0.0918,-0.5237,0.3729,0.393,4017
22,-0.1995,-0.9258,-0.134,-0.384,0.3663,0.7171,2177
22,0.1941,-0.8835,-0.1179,-0.3386,0.0146,0.8296,1183
22,0.1406,-1.0115,-0.2061,-0.4139,-0.1257,0.8799,1958
22,-0.2791,-1.0476,-0.3989,-0.5016,0.1027,0.7833,2375
22,-0.2754,-0.968,-0.3835,-0.5453,0.5863,0.6849,1981
22,-0.1135,-0.8965,-0.366,-0.452,0.783,0.6263,1929
22,-0.0103,-1.0217,-0.2126,-0.4071,0.7074,0.6786,2609
22,-0.1287,-1.1841,-0.0544,-0.4369,0.2787,0.6115,2341
22,-0.2214,-1.146,0.0181,-0.4236,0.0722,0.6449,1550
22,-0.322,-1.1338,0.074,-0.4591,0.1329,0.7253,1910
22,-0.2485,-1.1533,0.0979,-0.4361,0.2615,0.6739,1516
22,-0.0264,-1.1689,0.1802,-0.4513,0.4587,0.8184,2268
22,0.0444,-1.1455,0.1687,-0.4309,0.5569,0.9194,2120
22,0.0972,-1.2346,0.1794,-0.469,0.5703,1.1729,1947
22,0.2332,-1.3242,0.1785,-0.5141,0.5967,1.3222,2087
22,0.1936,-1.4353,0.0742,-0.5457,0.5132,1.5496,2032
22,0.1597,-1.3608,0.073,-0.5601,0.6292,1.7102,2249
22,0.1516,-1.4041,0.0166,-0.5855,0.7195,1.7495,2204
22,0.2378,-1.396,0.0725,-0.6737,0.8503,1.86,2346
22,0.2446,-1.3198,0.0723,-0.6802,0.8273,1.9767,2322
22,0.2322,-1.2966,0.0867,-0.6731,0.7452,2.1414,2308
22,0.2825,-1.3174,0.0625,-0.724,0.5661,2.2522,2511
22,0.2983,-1.2969,0.0225,-0.7,0.4338,2.3882,1776
22,0.4939,-0.4043,0.0349,0.4842,0.9496,-3.1521,1536
22,-0.3728,-0.0134,-0.1917,0.5024,1.0308,-3.8932,2694
22,-0.7847,0.0859,-0.0901,0.8124,0.9641,-3.3998,2853
22,-1.1497,-0.437,0.0676,1.4727,1.1509,-3.1654,74
22,-0.3191,-0.3213,0.3098,1.8644,0.1559,-4.3126,1600
22,-0.2441,0.0813,0.4587,0.9272,0.487,-4.3635,2781
22,-0.2905,-0.0388,0.1829,0.8946,1.2846,-4.3635,2218
22,-0.3181,-0.0933,-0.012,1.2966,1.4241,-4.3635,1853
22,0.1301,0.1523,0.0266,1.9104,0.5014,-4.3635,1097
22,0.4268,-0.4399,-0.082,1.0568,1.1501,-4.3635,3026
22,0.2002,-0.4573,-0.114,1.3523,1.134,-4.3635,3176
22,0.1665,-0.6794,0.0508,1.8495,0.5586,-4.3635,1942
22,0.0359,-0.9023,0.2136,1.8285,-0.1356,-4.3635,1689
22,0.0071,-0.8267,0.1719,1.8017,-0.4811,-4.3635,1786
22,0.3511,-0.9417,-0.0378,1.7852,-0.9926,-4.3635,1918
22,0.5195,-1.0684,-0.1152,1.7385,-0.863,-4.3635,2077
22,0.5251,-1.1836,0.0022,1.6218,-0.8767,-4.3635,2100
22,0.0894,-1.2646,0.2419,1.7297,-1.7582,-4.3635,2058
22,-0.4216,-1.6111,0.3813,1.5034,-2.7152,-4.3635,2032
22,-0.7012,-1.6565,0.0146,1.3675,-3.0098,-4.3635,2114
22,-0.9185,-1.5637,-0.0273,1.4371,-2.4904,-4.3635,2018
22,-1.1702,-1.6963,-0.0444,1.3082,-1.6371,-4.3635,2100
22,-1.1577,-1.5488,-0.0876,1.3837,-1.5724,-4.3635,2169
22,-1.0935,-1.4136,0.1526,1.3078,-1.6632,-4.1269,1955
22,-1.3232,-1.3215,0.1621,1.4334,-1.1517,-3.4912,1905
22,-1.3865,-1.7373,0.1611,1.0874,-0.4912,-2.9158,2151
22,-0.5374,-2.0,-0.1929,-0.4846,-0.5675,-3.3738,2433
22,-1.9631,-1.6423,-0.3789,0.3623,0.3,-1.597,1873
22,-2.0,-1.468,-0.5283,0.063,1.1544,-0.0957,2750
22,-1.9778,-1.3501,-0.4443,-0.1093,2.2073,0.4956,2606
22,-1.2896,-1.688,-0.5981,-1.2047,1.8358,0.3289,353
22,-1.2319,-1.7439,-0.3538,-1.8395,1.507,0.8949,2214
22,-1.2732,-1.4839,-0.0642,-2.065,2.3429,1.9839,2644
22,-0.28,-1.8203,1.1943,-1.1091,-0.2257,3.4557,1477
22,-0.4922,-2.0,0.9521,-0.0184,-0.21,2.6015,96
22,1.0183,-0.9436,0.6887,0.3061,0.4173,2.7136,735
23,1.5164,-1.6775,-0.2322,-1.9548,0.918,1.6773,1223
23,0.7629,-0.5754,-0.7334,-2.8533,2.6283,2.1513,4062
23,-0.2473,-0.0171,-0.8169,-1.3941,2.169,2.1517,3609
23,-1.2639,-1.0745,-0.3389,-1.2179,2.2752,1.654,3973
23,-1.1235,-0.8555,-0.314,-1.0061,2.9644,1.8816,72
23,-0.5457,-0.5891,-0.1992,0.0069,2.125,1.3624,1625
23,-0.3301,-1.2236,0.0283,-0.9857,1.285,2.1246,2945
23,-0.6328,-0.844,0.1145,-0.239,0.1385,2.7701,2141
23,-0.9727,-0.874,0.6213,0.6227,-0.485,2.4939,1277
23,-0.6746,-1.2329,0.1489,-0.2454,-0.2242,1.6218,1616
23,-0.658,-1.0676,-0.4292,-0.4437,0.5424,1.3023,2520
23,-0.4146,-1.0747,-0.3264,-0.3745,1.0327,0.9572,2597
23,-0.1899,-1.0498,-0.1309,-0.3041,0.9108,0.6835,2379
23,-0.0583,-1.0627,0.1064,-0.2015,0.9662,0.8044,2193
23,-0.0642,-1.011,0.2251,-0.1983,1.0709,0.9605,2020
23,-0.241,-1.0256,0.198,-0.2796,0.9736,0.9748,1830
23,-0.2971,-1.0413,0.0647,-0.4773,0.8921,0.7938,1998
23,-0.2917,-1.0413,0.0901,-0.6094,0.7288,0.5319,1905
23,-0.3257,-1.0684,0.1421,-0.5851,0.5493,0.4578,2256
23,-0.1201,-0.9919,0.021,-0.8035,0.4068,0.3404,1852
23,-0.1294,-0.9795,0.0491,-0.6978,0.0092,0.2657,1857
23,-0.147,-1.0527,0.0354,-0.5952,-0.2497,0.408,2200
23,-0.1743,-1.0281,0.0598,-0.5609,-0.4087,0.4948,1718
23,-0.2834,-1.0432,0.0491,-0.6102,-0.41,0.3733,1969
23,-0.3069,-1.0425,0.0728,-0.6702,-0.3671,0.2306,2095
23,-0.3264,-0.9976,-0.0095,-0.6285,-0.4224,0.0742,2177
23,-0.2954,-1.0237,-0.071,-0.5452,-0.4084,0.0274,1931
23,-0.2244,-1.0212,-0.0898,-0.4416,-0.4088,0.0453,2443
23,-0.1628,-0.9648,-0.113,-0.3537,-0.3814,0.0301,1791
23,-0.0818,-0.9531,-0.1548,-0.3208,-0.3369,0.0326,2394
23,-0.0811,-0.9553,-0.0999,-0.2662,-0.3349,0.0278,1896
23,-0.0032,-0.9358,-0.064,-0.2429,-0.2966,0.1238,2020
23,-0.0334,-0.9656,-0.0393,-0.2217,-0.3324,0.1747,2114
23,-0.0681,-0.9221,-0.0332,-0.169,-0.3492,0.2603,1971
23,-0.0791,-0.9492,-0.0012,-0.1701,-0.3405,0.324,2199
23,-0.0061,-0.9861,0.0242,-0.1965,-0.3493,0.3593,1829
23,0.2815,-0.9263,0.0557,-0.194,-0.9308,0.5223,2481
23,0.5977,-1.1951,0.0669,-0.2798,-1.9154,0.7982,2887
23,-1.1809,-0.7917,0.0715,-0.2288,-0.9702,0.8198,1368
23,-0.8547,-0.7166,-0.033,-0.1948,0.7456,0.1236,2661
23,-0.0684,-1.0173,0.1113,-0.2681,0.972,0.124,2400
23,0.0432,-0.9473,-0.0652,-0.4461,0.3906,0.0541,1419
23,0.0938,-1.0042,-0.0745,-0.4128,0.4408,0.2491,1727
23,-0.0591,-0.9636,0.0017,-0.3734,0.1732,0.4149,2178
23,0.1814,-0.9961,-0.074,-0.498,-0.169,0.4795,1276
23,-0.127,-1.0764,-0.085,-0.5786,-0.0965,0.4155,2289
23,-0.2021,-1.1052,-0.1179,-0.5096,0.03,0.6064,2177
23,-0.2375,-1.073,-0.0374,-0.5026,0.0643,0.6395,2407
23,-0.106,-1.03,-0.0259,-0.5448,-0.0192,0.5327,2173
23,-0.1145,-1.0002,0.0129,-0.599,-0.1357,0.5233,2252
23,-0.1277,-0.9783,-0.0056,-0.6661,0.0001,0.5826,2580
23,-0.0664,-1.0413,0.0571,-0.6094,0.1499,0.6517,2716
23,0.0908,-1.0923,0.0491,-0.5602,0.2872,0.8665,1933
23,0.1726,-1.1125,0.0513,-0.5637,0.2302,1.0583,1560
23,0.24,-1.2227,0.095,-0.6283,0.3361,1.2959,2024
23,0.25,-1.3215,0.1028,-0.6806,0.0585,1.4885,2077
23,0.1477,-1.3462,0.1252,-0.7027,-0.0455,1.719,2124
23,0.0425,-1.3647,0.1697,-0.6686,-0.0583,1.9298,2418
23,-0.1011,-1.4333,0.2354,-0.6596,-0.0152,2.0088,1481
23,-0.1301,-1.4368,0.2124,-0.6324,-0.0132,2.0236,2064
23,-0.1787,-1.2776,0.2429,-0.545,0.2494,2.2405,2157
23,-0.1553,-1.3604,0.2126,-0.5084,0.3754,2.2502,2035
23,-0.0625,-1.3884,0.2095,-0.4634,0.4659,2.3125,2037
23,0.094,-1.438,0.1567,-0.4585,0.4228,2.3358,3858
23,0.2043,-1.4941,0.1147,-0.4598,0.28,2.3583,1579
23,0.2363,-1.5828,0.0454,-0.4916,0.3891,2.3571,1587
23,0.4753,-1.5789,0.0271,-0.5044,0.4433,2.3479,1893
23,0.7798,-1.5742,0.0288,-0.673,0.3666,2.5167,2027
23,1.1729,-1.7747,0.0713,-0.9694,0.0664,2.2658,2628
23,1.3401,-1.4392,0.1943,-0.9424,-0.7473,2.2304,1899
23,1.9999,-0.446,0.4424,-0.7827,-1.9755,3.7894,2243
23,1.9999,-1.6597,0.5188,-0.6241,-4.3635,3.0813,1780
23,1.2314,-1.7168,0.9189,-1.3458,-4.3635,4.3634,85
23,-0.823,-0.9526,-0.6438,-1.0641,-4.3635,3.7025,1836
23,-2.0,-2.0,-0.7988,-1.393,-1.2168,1.4688,3441
23,0.7617,-2.0,0.0391,-1.4961,-1.7981,3.6304,2797
23,-2.0,-0.7236,0.3479,-0.6726,-1.7532,4.3634,1977
23,-1.2644,-2.0,0.3447,-0.4654,-1.0689,4.3634,2465
23,-0.4941,-1.0808,-0.4397,-0.5304,0.418,4.3634,2172
23,0.021,0.6655,0.3611,-0.5939,0.6869,3.8628,2033
23,1.9999,1.5664,-0.1704,0.0001,-4.0579,3.2753,216
23,-1.7329,-1.7278,-1.925,-1.0684,0.8059,1.7934,4028
23,-1.4924,-1.3909,-0.7839,-0.7469,0.7624,2.0036,3907
23,-1.8645,-0.3108,0.863,0.418,-0.334,1.2603,2070
23,-1.5913,-0.6741,0.5747,-0.3727,-1.3806,-0.0016,1546
23,-1.1938,0.0735,-0.126,-0.4105,-1.3472,-1.5476,1398
23,-0.6021,0.6055,-0.1611,0.0614,-0.2119,-1.7996,1378
23,-0.4299,0.5154,0.1609,-0.4361,0.7024,-2.3559,1285
23,0.3457,-0.147,-0.0933,0.2236,1.0017,-2.2248,2025
23,0.4609,-0.457,0.0339,0.2938,1.3053,-2.3041,1266
23,0.177,-0.2666,-0.0215,-0.1744,1.5981,-2.922,2272
23,-0.5562,-0.1582,-0.0588,-0.0168,1.6773,-3.2905,2368
23,-0.7163,-0.2844,0.0354,0.4454,1.6458,-3.3802,2538
23,-0.4187,-0.0942,0.0669,1.0804,1.5755,-3.4665,2055
23,-0.333,0.1375,0.1064,1.2754,2.0214,-3.5468,2008
23,-0.1406,-0.1479,0.1992,1.0869,1.5775,-4.3635,2032
23,-0.2104,-0.4365,0.1074,0.86,1.5507,-4.3635,2216
23,-0.2837,-0.1233,0.0786,0.7979,1.7492,-4.3635,2204
23,0.0693,0.1238,0.1318,1.0858,1.4749,-4.3635,2242
23,0.4956,-0.269,0.1958,0.801,0.8725,-4.3635,1952
23,0.3945,-0.6238,0.0898,0.516,0.616,-4.3635,1816
23,0.1516,-0.79,-0.0623,1.1358,0.0943,-4.3635,2041
23,0.2786,-0.8333,0.05,1.281,0.2273,-4.3635,2210
23,0.5378,-0.8313,0.1436,1.3312,0.1325,-4.3635,2000
23,0.1309,-0.9556,0.2224,1.2271,-0.8692,-4.3635,1923
23,-0.3782,-1.271,-0.0239,1.1774,-2.3194,-4.3635,2312
23,-0.3884,-1.3347,-0.2144,1.3689,-2.6579,-4.3635,2368
23,-0.4614,-1.387,0.0935,1.0162,-2.4667,-4.3635,2095
23,-0.7095,-1.5515,0.0708,0.6632,-2.3866,-4.3635,2112
23,-0.9678,-1.5083,-0.1292,0.8064,-2.3666,-4.3635,2180
23,-1.2988,-1.427,-0.1943,0.9172,-2.1972,-4.3635,2147
23,-1.5059,-1.3931,-0.1465,0.9708,-1.9475,-4.3635,2091
23,-1.5215,-1.2632,-0.1946,0.9297,-1.5589,-4.1857,1988
23,-1.6199,-1.2229,-0.179,0.8706,-1.1632,-3.7656,2073
23,-1.6843,-1.251,-0.1611,0.6391,-0.6185,-3.2678,2145
23,-1.6743,-1.2263,-0.1611,0.4192,-0.4735,-2.7677,1765
23,-0.7241,-2.0,0.0205,-1.5868,-1.5604,-3.6217,2300
23,-1.8857,-1.6643,-0.6477,-0.8436,-0.8857,-1.7046,1766
23,-2.0,-0.6602,-0.3242,0.3906,0.591,1.0753,2858
23,-2.0,-2.0,1.0002,0.479,1.7803,0.4904,1167
23,-2.0,-2.0,-0.1282,-1.0612,3.0943,4.0191,3128
23,-2.0,-0.8794,1.2922,0.1322,0.2013,4.3634,2444
23,0.167,-0.675,1.5017,1.5877,-0.8915,2.0916,76
23,1.9999,-1.2825,1.0164,-1.3581,1.0765,1.0539,215
23,1.9563,-0.6838,-0.1536,-2.6216,4.1666,0.0811,1736
23,0.5583,-0.2195,-1.3328,-1.4621,3.8972,2.6711,3965
23,0.1309,-0.7378,-0.6287,-0.5641,0.2787,2.2264,4064
23,-0.5308,-1.4595,-0.6348,-1.4519,0.9819,0.942,1889
23,-0.7065,-1.1755,-1.1958,-0.4079,3.1649,1.8889,74
23,-1.2964,-0.4285,-0.0623,0.5671,2.5569,3.5091,1538
23,-0.448,-1.3157,1.7283,0.1971,-0.292,1.7958,4064
23,-0.3669,-0.5425,1.3967,0.8817,-2.3439,2.1691,330
23,-1.1797,-0.7131,0.095,0.6718,-1.4647,2.93,77
23,-0.95,-1.7437,-0.5886,-0.7692,0.1747,1.2214,1472
23,-0.5513,-0.8928,-0.6343,-0.6284,0.9987,0.6818,4064
23,-0.2356,-0.9202,-0.0403,-0.2473,0.7447,0.3549,4064
23,-0.3044,-1.1335,0.158,-0.1322,0.5683,0.5129,2260
23,-0.4958,-1.1331,0.2661,-0.1197,0.9666,0.6446,1483
23,-0.4126,-1.0347,0.2253,-0.2173,1.2075,0.5733,2178
23,-0.4219,-1.0425,0.167,-0.4255,1.2496,0.397,1537
23,-0.1917,-0.9182,0.0239,-0.5249,0.9863,0.1701,2776
23,-0.1216,-0.9636,-0.0005,-0.4517,0.4133,0.0755,2279
23,-0.105,-0.978,0.0039,-0.4176,0.1069,0.0158,1626
23,-0.0813,-0.9907,-0.0154,-0.3085,-0.1037,0.0882,1733
23,-0.0864,-1.0276,0.0183,-0.1956,-0.2839,0.2615,2249
23,-0.1545,-1.0342,0.1064,-0.1766,-0.2986,0.373,2230
23,-0.2969,-1.0342,0.1685,-0.2726,-0.1973,0.3681,2219
23,-0.4153,-1.0271,0.1624,-0.4068,-0.1127,0.2281,1998
23,-0.3469,-0.9839,0.0891,-0.5268,-0.0864,-0.0041,2137
24,-0.2732,-1.0146,0.043,-0.6337,-0.1149,-0.1792,2634
24,-0.0774,-1.0112,-0.0364,-0.6566,-0.0296,-0.2093,1756
24,-0.0618,-1.0007,-0.1365,-0.541,-0.0659,-0.0876,1760
24,-0.0317,-0.9739,-0.1519,-0.3966,-0.1708,0.0324,2294
24,-0.0513,-0.9995,-0.1011,-0.3701,-0.187,0.1321,2135
24,-0.0735,-1.0352,-0.0552,-0.4589,-0.1485,0.12,1946
24,-0.0959,-1.0076,-0.1167,-0.4353,-0.2752,0.0629,2472
24,0.0671,-0.9893,-0.0095,-0.4618,-0.4346,0.1364,2255
24,-0.3599,-0.9211,-0.1162,-0.232,-0.2964,-0.0485,1916
24,0.0186,-0.9668,0.1072,-0.2284,0.0011,0.329,2369
24,0.1755,-0.9219,0.0591,-0.3569,0.1246,0.5008,2468
24,0.7573,-1.1472,0.2065,-0.6192,-1.3729,0.2907,4064
24,0.0579,-1.21,0.2124,-0.488,-1.9947,0.7545,1334
24,-1.0532,-0.8564,-0.1553,-0.3682,-0.3963,0.0562,1982
24,-0.9578,-0.5657,0.0276,-0.3312,1.6466,0.6705,1999
24,0.105,-1.1758,0.1785,-0.4569,1.3376,0.0245,3760
24,0.0347,-1.0789,-0.04,-0.579,0.7598,0.0921,1486
24,0.0786,-0.9485,0.0593,-0.5111,0.6436,0.3823,1823
24,0.1211,-1.0134,-0.0874,-0.444,0.2634,0.6004,2708
24,-0.0164,-1.1045,-0.0742,-0.4781,-0.2795,0.7087,2521
24,-0.1956,-1.0784,-0.249,-0.4916,-0.4406,0.6268,2109
24,-0.4358,-0.9941,-0.2056,-0.4613,-0.0699,0.5176,3429
24,-0.335,-0.9497,-0.0908,-0.4356,0.0254,0.4705,2090
24,-0.1094,-0.9827,-0.0208,-0.5269,0.0178,0.4151,1008
24,-0.1545,-0.958,-0.0134,-0.4958,-0.2121,0.4153,2751
24,-0.1731,-0.9126,0.0356,-0.4967,-0.2136,0.5195,1288
24,-0.0959,-0.8862,-0.061,-0.4385,0.0108,0.5811,747
24,0.1799,-1.1062,-0.0039,-0.4591,0.2101,0.728,3130
24,0.2512,-1.1951,0.0269,-0.4946,0.2385,0.9383,1640
24,0.241,-1.2725,0.0042,-0.5333,0.0682,1.1949,2436
24,0.2004,-1.2114,0.0562,-0.5066,-0.0313,1.5679,2314
24,0.0642,-1.3625,0.1003,-0.5336,-0.2477,1.6458,2066
24,-0.04,-1.2944,0.0811,-0.5131,-0.1892,1.8294,2479
24,-0.0559,-1.3511,0.1689,-0.5762,-0.0819,1.7996,1867
24,-0.1138,-1.3418,0.1707,-0.5378,-0.0543,1.8785,2709
24,-0.2161,-1.2847,0.2126,-0.4642,0.123,2.0261,2071
24,-0.0757,-1.3159,0.1824,-0.4593,0.2241,2.0313,1961
24,0.03,-1.2957,0.1484,-0.4109,0.2638,2.2407,1929
24,-0.0679,-1.407,0.1157,-0.3852,0.2702,2.536,1774
24,0.1907,-1.4192,0.0293,-0.334,0.2219,2.4201,1978
24,0.2471,-1.5232,0.0242,-0.3558,0.1308,2.4847,1966
24,0.2585,-1.5688,0.0769,-0.4107,0.1136,2.3814,2298
24,0.7043,-1.7178,-0.0408,-0.5429,0.0035,2.168,2500
24,1.0364,-1.7529,-0.0146,-0.7532,-0.3068,2.1129,2504
24,0.9973,-1.5476,0.1704,-0.8905,-0.4844,2.3814,2914
24,1.3069,-1.3757,0.2991,-0.9389,-1.1045,2.5828,1458
24,1.2805,-0.4414,0.2056,-0.7545,-1.3059,3.8241,2131
24,1.9999,-2.0,0.4888,-0.6695,-4.2157,3.8327,986
24,0.6599,-0.885,0.4536,-0.4,-4.3635,4.3634,78
24,-1.719,-1.6423,-0.239,-1.1288,-3.22,4.3634,3473
24,-2.0,-2.0,-1.0234,-0.7036,-0.8114,1.888,2480
24,-0.1252,-1.3052,-0.0178,-1.0449,-0.5386,4.351,2902
24,-0.5698,-2.0,0.2131,-1.608,0.0302,4.3634,2802
24,-1.1274,-2.0,0.2288,-0.8156,-0.6329,4.2373,2010
24,0.1643,0.207,-0.4102,0.1605,-0.3655,4.2939,2072
24,1.6016,0.8672,0.9878,-0.8662,-1.9707,3.646,495
24,-1.698,-1.3582,-1.5229,-0.179,0.9728,2.7434,2441
24,-1.5361,-1.6665,-1.175,-1.3549,1.8447,1.6026,3563
24,-1.8306,-0.6638,0.3074,0.5835,0.8676,1.3035,2813
24,-1.7815,-0.6279,0.8076,0.3553,-0.7721,0.2786,1500
24,-1.4832,0.3389,0.0127,0.3822,-0.3288,-1.3563,1065
24,-0.668,0.3259,0.1667,0.3228,0.0242,-1.9313,958
24,0.0188,0.2756,-0.0083,-0.2224,1.1243,-1.9808,1270
24,0.551,-0.3347,-0.0532,0.5268,1.1496,-1.9576,1229
24,0.4839,-0.5239,-0.0767,0.244,1.7231,-2.5243,1860
24,-0.21,-0.0906,-0.1692,-0.0678,1.9618,-3.0834,2631
24,-0.6609,0.063,-0.073,0.7084,1.846,-2.9666,2875
24,-0.5798,-0.1106,0.041,1.3059,1.6097,-3.1546,2050
24,-0.3525,-0.2356,0.166,1.5821,1.5201,-3.4439,1884
24,-0.1599,-0.1946,0.1699,1.491,1.3553,-4.1291,2121
24,-0.1438,-0.1592,0.0479,1.3696,1.4386,-4.3635,2206
24,-0.2915,-0.2468,0.1472,0.905,1.2062,-4.3635,2205
24,-0.2197,0.0144,0.1392,1.0809,0.8138,-4.3635,1835
24,0.3435,-0.1536,0.0881,0.9491,0.5778,-4.3635,2087
24,0.4507,-0.4541,-0.0457,0.8592,0.6209,-4.3635,2202
24,0.2795,-0.7383,0.0095,1.0408,0.2019,-4.3635,2161
24,0.2012,-0.9778,0.166,1.2933,-0.2357,-4.3635,2167
24,0.3418,-0.9253,0.2927,1.3306,0.0068,-4.3635,1932
24,0.043,-0.9644,0.3677,0.9933,-0.8395,-4.3635,1811
24,-0.4819,-1.2146,-0.012,1.0733,-2.4144,-4.3635,2111
24,-0.531,-1.2573,-0.188,1.2416,-2.5606,-4.3635,2298
24,-0.5928,-1.2585,0.0483,1.0429,-2.2652,-4.3635,2041
24,-0.6812,-1.386,0.1809,0.9549,-2.4533,-4.3635,2022
24,-0.9019,-1.5244,0.1882,0.9445,-2.5128,-4.3635,2183
24,-1.2832,-1.4346,-0.0488,1.1769,-2.4681,-4.3635,2037
24,-1.636,-1.4221,-0.0466,1.3632,-2.1007,-4.3635,2330
24,-1.6294,-1.2583,-0.0945,1.5858,-1.5918,-4.3635,2125
24,-1.6531,-1.0596,0.0239,1.71,-0.9733,-3.993,2064
24,-1.7361,-0.9275,0.1924,1.5861,-0.1706,-3.5295,1965
24,-1.7771,-0.9702,0.228,1.4589,0.5834,-2.9962,1808
24,-1.6316,-1.0759,0.0288,1.3878,0.766,-2.3916,1900
24,-1.4729,-1.0369,-0.1423,1.2284,0.8191,-1.7399,1993
24,-1.3625,-0.9592,-0.207,1.0636,1.0648,-1.2086,1898
24,-0.3596,-1.614,-0.5798,-0.8637,0.079,-2.1771,2487
24,-2.0,-1.5125,-0.2456,-0.4673,0.5276,1.014,2153
24,-2.0,-2.0,0.406,-0.5678,1.5996,1.4251,1004
24,-0.4841,-2.0,-0.76,-1.127,0.9347,2.5402,993
24,-0.958,-1.7095,0.8245,0.0407,-1.6908,3.9245,1487
24,1.4014,-0.8088,0.6467,0.0176,-3.3689,2.6452,928
24,1.0681,-1.1624,0.6169,-1.3557,-0.1922,1.3371,2595
24,0.8508,-1.2761,-0.2773,-1.9909,2.8103,0.696,2230
24,-0.0264,-0.4568,-0.3647,-1.1531,3.1588,1.9659,3675
24,-0.5913,-1.0557,-0.2986,-0.6023,2.0018,2.5216,2988
24,-1.3828,-0.1794,-0.0557,0.5047,2.023,3.1837,72
24,-1.3777,-0.6057,1.2109,1.0206,0.0028,2.3261,1746
25,-1.415,-1.1343,0.8418,-0.6293,1.0497,2.1895,4064
25,-0.2539,-1.3418,0.8542,-1.0935,-0.2457,1.2568,458
25,-0.679,-0.8921,0.1311,-1.8255,1.0616,1.0981,1673
25,-0.679,-0.969,-0.4224,-1.5187,0.6156,1.0645,2415
25,-0.2505,-1.0662,-0.4268,-1.7737,0.4245,0.3685,2230
25,-0.0515,-1.0413,-0.0652,-1.4231,0.6923,0.3947,2083
25,-0.2139,-1.2253,-0.228,-1.1443,0.3641,0.6781,1862
25,0.0203,-1.1143,-0.093,-0.9112,0.4508,0.9126,2090
25,0.0315,-0.9866,0.0835,-0.9255,0.1422,0.912,1672
25,-0.0789,-0.8669,-0.1604,-0.7071,-0.2417,1.0262,2109
25,-0.2678,-0.9331,-0.1895,-0.6445,-0.2175,0.9741,2385
25,-0.3308,-1.0083,-0.0393,-0.5948,-0.3255,0.7898,2073
25,-0.3928,-1.0198,-0.0796,-0.6076,-0.3734,0.5564,1718
25,-0.4143,-1.0703,-0.1289,-0.5801,-0.2093,0.3091,2493
25,-0.396,-1.0342,-0.179,-0.4715,-0.0759,0.2015,1904
25,-0.3372,-0.947,-0.1792,-0.3932,0.0658,0.1192,2163
25,-0.3105,-0.9253,-0.123,-0.3671,0.0744,0.015,1747
25,-0.2549,-0.9331,-0.1157,-0.3358,0.087,-0.0688,2070
25,-0.2617,-0.8943,-0.2134,-0.2892,0.0763,-0.1505,2062
25,-0.2583,-0.9265,-0.2544,-0.2204,0.0742,-0.2385,2056
25,-0.2256,-0.9106,-0.2773,-0.1398,0.139,-0.2884,1952
25,-0.2383,-0.8958,-0.2629,-0.084,0.1045,-0.3297,2010
25,-0.2366,-0.9109,-0.2915,-0.0787,0.2107,-0.4444,2039
25,-0.2688,-0.9961,-0.259,-0.0676,0.393,-0.5621,2035
25,-0.23,-1.0056,-0.2083,0.0348,0.6347,-0.6059,1955
25,-0.2529,-0.9766,0.0366,0.2685,0.6115,-0.5687,2044
25,-0.1914,-0.917,0.1094,0.4219,0.4494,-0.4671,2245
25,-0.2144,-0.9556,0.1189,0.4377,0.3438,-0.4204,2253
25,-0.2053,-0.9988,0.0823,0.4279,0.3594,-0.3967,1788
25,-0.1824,-1.0093,0.1399,0.4288,0.4221,-0.3863,1829
25,-0.1919,-0.981,0.207,0.4068,0.3818,-0.3171,2107
25,-0.1516,-1.0107,0.2231,0.3177,0.3851,-0.2523,2392
25,-0.1096,-1.022,0.219,0.2413,0.4846,-0.2024,2087
25,-0.0239,-1.0056,0.3354,0.161,0.5059,-0.0992,1838
25,0.1873,-1.02,0.3213,-0.0032,0.3177,-0.2476,1914
25,0.3938,-1.0413,0.1833,-0.1185,0.0104,-0.336,1865
25,0.3,-1.0173,0.1267,-0.1005,-0.2934,-0.1771,1980
25,0.1824,-1.0701,0.1047,-0.1254,-0.3601,-0.0068,2204
25,0.0449,-1.0251,0.0984,-0.1691,-0.4984,-0.0105,2105
25,-0.0098,-0.9785,0.0085,-0.1443,-0.5766,0.0328,2150
25,-0.0972,-0.988,0.0405,-0.1261,-0.5809,0.2097,2112
25,-0.1252,-0.9973,-0.0127,-0.2036,-0.5355,0.2105,2044
25,-0.1201,-0.9624,-0.0056,-0.1856,-0.5847,0.2269,1993
25,-0.1514,-0.9304,0.0505,-0.198,-0.5382,0.3458,2291
25,-0.1726,-0.9792,0.0505,-0.1911,-0.4852,0.324,2120
25,-0.0901,-1.0786,-0.0396,-0.2425,-0.4291,0.2537,1952
25,-0.1101,-1.1086,-0.0212,-0.2567,-0.3137,0.261,1890
25,-0.1196,-1.0737,0.0522,-0.1752,-0.4369,0.1278,2036
25,-0.1804,-0.9893,0.0281,-0.1935,-0.5308,0.1313,2160
25,-0.1562,-0.916,0.0103,-0.1194,-0.4416,0.183,2342
25,-0.0469,-1.0391,0.1082,-0.0842,-0.5039,0.1911,1993
25,-0.0659,-0.9949,0.0593,-0.1242,-0.6783,0.149,1913
25,-0.0601,-0.9272,0.012,-0.0876,-0.6323,0.1712,2063
25,-0.0388,-0.9197,0.0518,-0.0953,-0.5622,0.2717,1946
25,0.0593,-0.9148,0.0894,-0.1141,-0.43,0.3313,2063
25,0.2153,-0.9802,0.1047,-0.2189,-0.3028,0.4627,1925
25,0.2815,-0.9888,0.1235,-0.2441,-0.4338,0.6221,2060
25,0.2163,-1.0396,0.0898,-0.2626,-0.5557,0.7846,2092
25,0.02,-1.0427,0.1179,-0.2715,-0.5533,0.8055,2066
25,-0.1372,-1.03,0.0823,-0.3209,-0.4876,0.8143,2270
25,-0.2375,-0.9614,0.0493,-0.3484,-0.2979,0.7895,2094
25,-0.2048,-1.0073,-0.113,-0.444,0.0411,0.7612,1884
25,-0.1096,-1.0347,-0.2244,-0.459,0.2558,0.6668,2013
25,0.0149,-0.978,-0.2502,-0.4152,0.4069,0.7019,1986
25,0.1267,-0.9536,-0.292,-0.4626,0.4717,0.7308,2128
25,0.1726,-0.9749,-0.283,-0.5113,0.4725,0.82,1932
25,0.0935,-1.0068,-0.2607,-0.5285,0.4623,0.9158,2154
25,0.0164,-1.0017,-0.2131,-0.5537,0.5923,0.9609,2222
25,-0.1313,-0.9597,-0.0513,-0.5173,0.5727,0.9809,2191
25,-0.2378,-0.9407,-0.0181,-0.4938,0.5541,1.0408,2053
25,-0.3704,-1.002,0.1272,-0.4473,0.5731,1.0347,2053
25,-0.2957,-0.9841,0.1479,-0.503,0.447,0.9664,1882
25,-0.4717,-0.9841,0.1641,-0.4061,0.4307,0.9709,1936
25,-0.3865,-1.0273,0.1687,-0.3721,0.4265,0.9646,1915
25,-0.3999,-1.0659,0.1626,-0.3342,0.2974,0.923,1851
25,-0.3425,-1.0564,0.0977,-0.3462,0.2629,0.9316,2065
25,-0.314,-1.1279,0.1772,-0.3444,0.163,0.9533,1832
25,-0.271,-1.115,0.1768,-0.2806,0.1474,1.0475,1492
25,-0.2571,-1.1614,0.1567,-0.2755,0.1627,1.115,2648
25,-0.2532,-1.1748,0.1267,-0.2992,0.242,1.0773,2022
25,-0.2473,-1.228,0.1189,-0.2498,0.3713,1.1122,2163
25,-0.217,-1.3022,0.0728,-0.2988,0.3108,1.1311,2198
25,-0.1819,-1.1748,0.0823,-0.2575,0.4442,1.344,1772
25,-0.1016,-1.2217,0.0796,-0.2886,0.5067,1.2874,2262
25,-0.0432,-1.2161,0.0393,-0.2902,0.5339,1.4483,2021
25,0.0439,-1.2258,0.0283,-0.2976,0.3947,1.4816,2170
25,0.0786,-1.1838,0.0237,-0.2823,0.4111,1.6111,2387
25,-0.0354,-1.2043,0.0522,-0.3032,0.3597,1.6524,2204
25,-0.0239,-1.2905,0.0581,-0.3143,0.4333,1.691,2242
25,-0.0569,-1.291,0.0369,-0.2992,0.562,1.7484,2289
25,0.2009,-1.2876,0.0686,-0.3434,0.6951,1.6985,1651
25,0.3496,-1.2676,-0.0066,-0.4275,0.53,1.7552,2391
25,0.3801,-1.1541,-0.0054,-0.4521,0.2076,2.4534,1531
25,0.5391,-1.4292,0.0415,-0.6211,0.4324,2.1884,2901
25,-0.2036,-1.2913,-0.1494,-0.7759,0.6754,2.4792,2149
25,1.9999,-1.0747,0.3621,-0.5219,-0.5633,2.0204,2604
25,1.9999,-0.8767,0.6145,-0.3651,-4.3635,4.1563,79
25,0.7092,-1.4077,0.5964,-0.4686,-4.3635,4.3634,73
25,-1.6968,-1.2056,-0.103,-0.9696,-2.2242,3.0811,4064
25,-0.9375,-0.8147,-0.0403,-0.5152,-1.2828,2.7181,1963
25,-0.3462,-2.0,-0.624,-0.9833,-0.3036,0.0081,1772
25,1.1716,-2.0,-0.0022,-1.5555,-0.6552,3.2147,2903
25,-2.0,-0.8738,0.6829,-1.1256,-1.6789,4.3634,2410
25,-0.7275,-1.999,-0.0996,-0.4979,-2.5571,3.711,2942
25,-1.4504,-0.9041,-0.7505,-0.3288,-0.3189,4.1212,2235
25,-0.229,-0.4998,-0.4336,-0.3428,1.7194,2.5332,2115
25,1.3982,0.5864,0.5874,0.2924,-0.0706,3.685,1081
25,0.6365,0.6885,-0.168,0.7829,-2.3696,3.021,900
25,-2.0,-2.0,-1.6697,-0.5791,0.4304,1.7652,3726
25,-1.6836,-0.8076,-0.479,0.0819,0.5295,1.5351,4037
25,-1.686,-0.5601,0.3965,0.6537,-0.2147,0.2931,1988
25,-1.8416,0.145,-0.0652,0.3975,-0.2113,-1.0239,679
25,-1.2605,0.9756,0.2087,1.2306,0.3793,-1.6637,583
25,0.115,0.1248,-0.053,1.3343,1.0155,-1.2979,1548
