Timestamp,Ax,Ay,Az,Rx,Ry,Rz,HR_value
0,-1.0326,-0.0459,0.1153,0.0261,-0.7283,0.4906,145
0,-1.0326,-0.0459,0.1153,0.0141,-0.6988,0.4753,145
0,-1.0367,-0.0745,0.0887,0.0141,-0.6988,0.4753,145
0,-1.05,0.0204,0.1091,0.0959,-0.6825,0.4426,145
0,-1.0224,0.0765,0.1245,0.2354,-0.677,0.388,145
0,-1.0551,0.1082,0.1071,0.3859,-0.6617,0.3031,145
0,-1.0336,0.1724,0.1316,0.6039,-0.6835,0.0883,145
0,-1.0234,0.2438,0.1724,0.6039,-0.6835,0.0883,145
0,-0.9857,0.2592,0.2122,0.6333,-0.7108,-0.0131,145
0,-0.9633,0.2877,0.2663,0.6083,-0.7283,-0.0925,145
0,-0.8714,0.2449,0.3694,0.6083,-0.7283,-0.0925,145
0,-0.8714,0.2449,0.3694,0.4786,-0.7337,-0.1449,145
0,-0.8296,0.1632,0.4102,0.025,-0.6781,-0.1438,145
0,-0.7938,0.0408,0.4122,0.025,-0.6781,-0.1438,145
0,-0.6918,-0.1091,0.4755,-0.1396,-0.6203,-0.0904,145
0,-0.6785,-0.1439,0.5122,-0.1732,-0.5396,-0.0152,145
0,-0.6204,-0.1918,0.5571,-0.098,-0.3128,0.1732,145
0,-0.6357,-0.3173,0.4765,-0.0141,-0.1951,0.2878,145
0,-0.4561,-0.3418,0.652,-0.0141,-0.1951,0.2878,145
0,-0.7531,-0.3204,0.4153,0.0381,-0.098,0.4884,145
0,-0.6357,-0.203,0.4949,0.0381,-0.098,0.4884,145
0,-0.6377,-0.0459,0.4694,0.4404,0.2093,0.5528,145
0,-0.6377,-0.0459,0.4694,0.6106,0.2823,0.4753,145
0,-0.7795,0.0316,0.3846,0.6726,0.3848,0.4698,145
0,-0.751,0.1204,0.4081,0.652,0.412,0.4372,145
0,-0.8224,0.2092,0.3081,0.6726,0.4698,0.3914,145
0,-0.8367,0.3041,0.352,0.726,0.4938,0.3161,145
0,-0.8541,0.3306,0.3418,0.6213,0.532,0.231,145
0,-0.8296,0.2898,0.3286,0.4622,0.569,0.2376,145
0,-0.8714,0.1255,0.2714,0.4622,0.569,0.2376,145
0,-0.9122,0.0102,0.2,0.3717,0.5996,0.2224,145
0,-0.9153,-0.0377,0.2101,0.3935,0.6552,0.1907,145
0,-0.9153,-0.0377,0.2101,0.4742,0.6955,0.181,145
0,-0.8612,-0.2306,0.1724,0.2682,0.7119,0.2005,145
0,-1.0622,-0.201,0.0051,0.3641,0.7991,0.3019,145
0,-0.9449,-0.0265,0.2306,0.5484,0.8056,0.3161,145
0,-1.0438,0.0255,0.1592,0.4938,0.883,0.2899,145
0,-1.0357,0.0571,0.1673,0.3401,0.8897,0.326,145
0,-1.0989,0.0438,0.0449,0.2224,0.9114,0.3542,145
0,-1.0775,0.103,0.0357,0.2802,0.9124,0.3674,145
0,-1.1346,0.299,0.0255,0.2802,0.9124,0.3674,145
0,-1.1541,0.3296,-0.0214,0.3041,0.9114,0.3434,145
0,-1.1541,0.3296,-0.0214,0.1515,0.895,0.3183,145
0,-1.1418,0.3979,-0.0061,-0.0402,0.8569,0.3107,145
0,-1.1571,0.4377,-0.0663,-0.2966,0.8231,0.2823,145
0,-1.1837,0.4418,-0.105,-0.508,0.8012,0.3008,145
0,-1.1887,0.4102,-0.1255,-0.6825,0.7893,0.3193,145
0,-1.1612,0.3765,-0.1346,-0.8187,0.7882,0.3063,145
0,-1.0541,0.2714,-0.1663,-0.9191,0.8078,0.3041,145
0,-0.9836,0.2296,-0.1949,-0.9877,0.8319,0.3161,145
0,-0.8908,0.2306,-0.1561,-0.9877,0.8319,0.3161,145
0,-0.8908,0.2306,-0.1561,-1.0074,0.8722,0.3412,145
0,-0.8204,0.301,-0.1143,-1.0761,0.9202,0.3401,145
0,-0.8051,0.2775,-0.1061,-1.2712,0.9561,0.3302,145
0,-0.7867,0.2438,-0.1204,-1.4086,0.9746,0.3161,145
0,-0.7826,0.1785,-0.0684,-1.437,1.028,0.2812,145
0,-0.7551,0.1602,-0.0326,-1.4118,1.0717,0.2289,145
0,-0.801,0.1459,-0.0347,-1.3727,1.1196,0.1732,145
0,-0.8296,0.1398,-0.0295,-1.3083,1.1415,0.0915,145
0,-0.8989,0.1091,-0.0224,-1.2386,1.1884,0.0196,145
0,-0.9275,0.1642,0.0081,-1.2386,1.1884,0.0196,145
0,-0.9275,0.1642,0.0081,-1.1284,1.185,-0.0272,145
0,-1.0102,0.1439,-0.0193,-1.0749,1.1785,-0.0708,145
0,-1.105,0.1602,-0.049,-1.0694,1.1447,-0.0959,145
0,-1.1285,0.1602,-0.052,-1.0782,1.0869,-0.098,145
0,-1.1735,0.1326,-0.0887,-1.0913,1.0194,-0.0915,145
0,-1.1887,0.101,-0.1357,-1.0717,0.9517,-0.0774,145
0,-1.1898,0.1071,-0.1653,-1.0095,0.8897,-0.0654,145
0,-1.1439,0.1377,-0.0724,-0.9158,0.8144,-0.0545,145
0,-1.1755,0.1908,-0.1387,-0.8983,0.7653,-0.0469,145
0,-1.1061,0.2133,-0.1337,-0.8983,0.7653,-0.0469,145
0,-1.0643,0.2153,-0.1245,-0.9223,0.7174,-0.0479,145
0,-1.0643,0.2153,-0.1245,-0.9321,0.665,-0.0479,145
0,-1.0398,0.202,-0.1296,-0.9124,0.6268,-0.037,145
0,-0.9949,0.2183,-0.1479,-0.8427,0.5942,-0.0294,145
0,-1.0,0.2153,-0.1581,-0.7958,0.581,-0.0272,145
0,-0.9836,0.2326,-0.1551,-0.7424,0.5494,-0.0316,145
0,-0.9714,0.2918,-0.1683,-0.6911,0.5341,-0.0392,145
0,-0.9551,0.3377,-0.1581,-0.6432,0.5299,-0.0511,145
0,-0.9601,0.3663,-0.1663,-0.6367,0.5341,-0.0545,145
0,-0.9734,0.3541,-0.1979,-0.6367,0.5341,-0.0545,145
0,-0.9581,0.3061,-0.2408,-0.689,0.5353,-0.0686,145
0,-0.9581,0.3061,-0.2408,-0.6737,0.5408,-0.0654,145
0,-0.95,0.3479,-0.202,-0.5996,0.5549,-0.049,145
0,-0.9938,0.3163,-0.2388,-0.581,0.556,-0.0316,145
0,-0.9949,0.2592,-0.2408,-0.6106,0.5614,-0.0076,145
0,-0.9683,0.2357,-0.2459,-0.5461,0.5538,0.025,145
0,-1.0163,0.2224,-0.2101,-0.4763,0.557,0.0457,145
0,-1.0061,0.1887,-0.2183,-0.4721,0.5418,0.0643,145
0,-0.952,0.1887,-0.2438,-0.4361,0.5211,0.0806,145
0,-0.9683,0.1735,-0.2714,-0.4361,0.5211,0.0806,145
0,-0.9367,0.2183,-0.2551,-0.2834,0.5091,0.0894,145
0,-0.9367,0.2183,-0.2551,-0.1428,0.4884,0.0828,145
0,-0.9122,0.2377,-0.2786,-0.0839,0.4721,0.0784,145
0,-0.8826,0.201,-0.2531,-0.0108,0.4502,0.0751,145
0,-0.9142,0.1949,-0.3387,0.0425,0.4252,0.074,145
0,-0.8796,0.1949,-0.3408,0.1123,0.3903,0.0774,145
0,-0.8887,0.2347,-0.35,0.2039,0.3609,0.0795,145
0,-0.8745,0.2673,-0.3255,0.2594,0.338,0.0708,145
0,-0.8734,0.3071,-0.3286,0.2747,0.3117,0.0566,145
0,-0.8694,0.2847,-0.3755,0.2344,0.2321,0.0141,145
0,-0.8418,0.2653,-0.3448,0.2768,0.2027,-0.0076,145
0,-0.8428,0.2734,-0.3367,0.2768,0.2027,-0.0076,145
0,-0.85,0.252,-0.3214,0.3052,0.182,-0.0282,145
0,-0.85,0.252,-0.3214,0.3019,0.157,-0.0545,145
0,-0.8326,0.2479,-0.3214,0.2834,0.1274,-0.0795,145
0,-0.8316,0.199,-0.3112,0.2802,0.1003,-0.1024,145
0,-0.8724,0.1714,-0.3602,0.3237,0.0872,-0.1232,145
0,-0.8643,0.1867,-0.3306,0.3914,0.074,-0.1438,145
0,-0.9,0.1877,-0.3428,0.4284,0.0566,-0.1701,145
1,-0.9244,0.1857,-0.35,0.4372,0.025,-0.194,145
1,-0.9479,0.1714,-0.3673,0.4426,-0.0087,-0.2049,145
1,-0.9683,0.1551,-0.3775,0.4426,-0.0087,-0.2049,145
1,-1.0112,0.1735,-0.3837,0.4698,-0.0446,-0.2081,145
1,-1.0112,0.1735,-0.3837,0.5179,-0.0883,-0.206,145
1,-1.0357,0.1928,-0.3785,0.5385,-0.1362,-0.2071,145
1,-1.049,0.1867,-0.3734,0.5233,-0.194,-0.2027,145
1,-1.0652,0.1551,-0.4071,0.5036,-0.2518,-0.1984,145
1,-1.053,0.15,-0.3857,0.5112,-0.3052,-0.1864,145
1,-1.0643,0.1541,-0.3989,0.5299,-0.3532,-0.1711,145
1,-1.0408,0.1632,-0.3755,0.5341,-0.3979,-0.157,145
1,-1.0193,0.1398,-0.3755,0.5167,-0.4338,-0.1438,145
1,-0.9959,0.103,-0.3816,0.5167,-0.4338,-0.1438,145
1,-0.9683,0.0887,-0.3867,0.508,-0.4643,-0.1286,145
1,-0.9306,0.0796,-0.3898,0.5299,-0.496,-0.1024,145
1,-0.9306,0.0796,-0.3898,0.5625,-0.5135,-0.0774,145
1,-0.9153,0.0989,-0.3908,0.6018,-0.532,-0.0698,145
1,-0.8989,0.0959,-0.3816,0.628,-0.5473,-0.0839,145
1,-0.8837,0.1153,-0.3939,0.6192,-0.569,-0.0948,145
1,-0.8612,0.1214,-0.3837,0.6051,-0.5942,-0.11,145
1,-0.8745,0.1163,-0.4173,0.5865,-0.6028,-0.1177,145
1,-0.8673,0.1245,-0.4092,0.5757,-0.6367,-0.1329,145
1,-0.8734,0.1428,-0.4142,0.5757,-0.6367,-0.1329,145
1,-0.8734,0.1428,-0.4142,0.5353,-0.6585,-0.1493,145
1,-0.8714,0.1612,-0.4051,0.4916,-0.6901,-0.1678,145
1,-0.8714,0.1612,-0.4051,0.4524,-0.7098,-0.1852,145
1,-0.8653,0.1928,-0.3724,0.4143,-0.7348,-0.206,145
1,-0.8796,0.2092,-0.3591,0.363,-0.7533,-0.2289,145
1,-0.8734,0.2183,-0.3448,0.3107,-0.7773,-0.2649,145
1,-0.8785,0.2092,-0.3286,0.2627,-0.7893,-0.3019,145
1,-0.8694,0.1877,-0.3204,0.2398,-0.8056,-0.3422,145
1,-0.8796,0.1755,-0.3163,0.2268,-0.8078,-0.388,145
1,-0.8806,0.1612,-0.3102,0.218,-0.8132,-0.4361,145
1,-0.8806,0.1612,-0.3102,0.218,-0.8132,-0.4361,145
1,-0.8887,0.1224,-0.301,0.2115,-0.8252,-0.4841,145
1,-0.8846,0.1071,-0.299,0.2104,-0.8296,-0.5287,145
1,-0.8867,0.102,-0.2938,0.1962,-0.8351,-0.5734,145
1,-0.8949,0.0887,-0.2888,0.1613,-0.8361,-0.6247,145
1,-0.8785,0.0867,-0.2836,0.1352,-0.8405,-0.6781,145
1,-0.8939,0.0755,-0.2949,0.1198,-0.8384,-0.7359,145
1,-0.9203,0.0979,-0.3102,0.1133,-0.8361,-0.7947,145
1,-0.9704,0.1183,-0.3184,0.1232,-0.8264,-0.8733,145
1,-0.9949,0.1469,-0.3,0.1155,-0.822,-0.9702,145
1,-1.0449,0.153,-0.2888,0.1155,-0.822,-0.9702,145
1,-1.0449,0.153,-0.2888,0.061,-0.8002,-1.0564,145
1,-1.1449,0.1285,-0.2397,-0.0108,-0.7664,-1.1284,145
1,-1.1949,0.1255,-0.201,-0.0621,-0.7174,-1.1927,145
1,-1.2367,0.1112,-0.1489,-0.1035,-0.6617,-1.2342,145
1,-1.3448,0.0551,-0.0602,-0.1188,-0.5974,-1.2439,145
1,-1.3448,0.0663,-0.0173,-0.0589,-0.5635,-1.1915,145
1,-1.3908,0.0398,0.0173,0.0501,-0.5047,-1.0772,145
1,-1.3653,0.0734,0.0887,0.1057,-0.4797,-0.9027,145
1,-1.3224,0.0326,0.0591,0.0272,-0.4513,-0.7031,145
1,-1.2724,0.0275,0.0234,0.0272,-0.4513,-0.7031,145
1,-1.1703,-0.0132,-0.0193,-0.0969,-0.4284,-0.532,145
1,-1.1703,-0.0132,-0.0193,-0.1003,-0.4034,-0.4252,145
1,-1.0918,0.1602,0.0092,0.0435,-0.3717,-0.3575,145
1,-1.0673,0.2306,0.0306,0.0523,-0.3586,-0.3401,145
1,-1.05,0.2255,0.0388,-0.0937,-0.3685,-0.3477,145
1,-0.9897,0.0887,0.0102,-0.1972,-0.375,-0.351,145
1,-0.9918,0.0581,0.0581,-0.1875,-0.3729,-0.3434,145
1,-0.9377,0.0581,0.1122,-0.1602,-0.3891,-0.3161,145
1,-0.9816,0.0193,0.0816,-0.1602,-0.3891,-0.3161,145
1,-0.9663,-0.0183,0.1091,-0.157,-0.3891,-0.2823,145
1,-0.9275,-0.0051,0.1663,-0.1482,-0.3924,-0.2442,145
1,-0.9275,-0.0051,0.1663,-0.1047,-0.4023,-0.1896,145
1,-0.9806,-0.0245,0.1592,-0.0719,-0.3826,-0.1417,145
1,-1.0,-0.0684,0.1337,-0.1035,-0.3979,-0.1024,145
1,-0.9581,-0.0449,0.2142,-0.0818,-0.399,-0.0621,145
1,-1.0031,-0.0673,0.1602,-0.0534,-0.3368,-0.0349,145
1,-0.9347,-0.05,0.2765,0.0751,-0.3663,-0.0021,145
1,-1.051,-0.1204,0.1632,0.1057,-0.3193,0.0141,145
1,-0.9203,-0.0796,0.2316,0.1057,-0.3193,0.0141,145
1,-0.9203,-0.0796,0.2316,0.1461,-0.3357,0.0446,145
1,-0.9285,-0.0898,0.1796,0.2234,-0.3193,0.0621,145
1,-0.9285,-0.0898,0.1796,0.2878,-0.3063,0.0839,145
1,-0.9061,-0.0724,0.1969,0.3161,-0.2878,0.0969,145
1,-0.9173,-0.0684,0.1765,0.339,-0.2693,0.1133,145
1,-0.8949,-0.053,0.1959,0.351,-0.2617,0.1188,145
1,-0.9153,-0.0581,0.1837,0.3674,-0.231,0.1155,146
1,-0.9071,-0.0561,0.1898,0.4,-0.2071,0.11,146
1,-0.9132,-0.0418,0.1918,0.4481,-0.1722,0.11,146
1,-0.9337,-0.0428,0.1744,0.4927,-0.1242,0.1057,146
1,-0.9337,-0.0428,0.1744,0.4927,-0.1242,0.1057,146
1,-0.9255,-0.0204,0.1785,0.5244,-0.0937,0.1089,146
1,-0.9296,-0.0112,0.1703,0.5265,-0.0534,0.1123,146
1,-0.9265,-0.0469,0.1357,0.5059,-0.024,0.1232,146
1,-0.9203,-0.0652,0.1173,0.5059,0.0021,0.1352,146
1,-0.9112,-0.0684,0.1143,0.5341,0.0305,0.1503,146
1,-0.8908,-0.0591,0.1234,0.5658,0.0511,0.1678,146
1,-0.8785,-0.0652,0.1285,0.5713,0.074,0.1798,146
1,-0.8561,-0.0826,0.1367,0.5593,0.0969,0.1919,146
1,-0.8418,-0.1082,0.1346,0.5635,0.1264,0.2049,146
1,-0.8479,-0.1204,0.1285,0.5635,0.1264,0.2049,146
1,-0.8479,-0.1204,0.1285,0.6028,0.1678,0.2213,146
1,-0.8367,-0.0989,0.1673,0.6715,0.2125,0.2321,146
1,-0.853,-0.0806,0.1694,0.7064,0.2768,0.2518,146
1,-0.8775,-0.0581,0.1183,0.7163,0.3368,0.2768,146
1,-0.8939,-0.0469,0.0918,0.7163,0.3958,0.3117,146
1,-0.9142,-0.0295,0.0602,0.7369,0.4557,0.3477,146
1,-1.0081,0.1122,0.001,0.7293,0.5265,0.4055,146
1,-1.0295,0.1387,-0.0153,0.6257,0.5221,0.424,146
1,-1.052,0.102,-0.0632,0.4982,0.495,0.4414,146
1,-1.052,0.0786,-0.0571,0.4372,0.4557,0.4546,146
1,-1.053,0.0428,-0.0663,0.3946,0.424,0.4524,146
1,-1.0143,0.0306,-0.0214,0.3946,0.424,0.4524,146
1,-0.9479,-0.0469,-0.004,0.351,0.3848,0.4361,146
1,-0.9479,-0.0469,-0.004,0.3412,0.3597,0.4143,146
1,-0.9398,-0.0673,-0.002,0.3848,0.3521,0.3859,146
1,-0.8806,-0.0652,0.0541,0.4372,0.3542,0.363,146
2,-0.8571,-0.0806,0.0939,0.4721,0.3958,0.3368,146
2,-0.855,-0.0928,0.0765,0.5091,0.4328,0.3041,146
2,-0.8724,-0.1194,0.0602,0.5614,0.4862,0.2834,146
2,-0.8959,-0.1326,0.0367,0.6356,0.5604,0.2693,146
2,-0.8326,-0.1112,0.0438,0.7174,0.6454,0.2268,146
2,-0.8326,-0.1112,0.0438,0.7174,0.6454,0.2268,146
2,-0.8541,-0.1112,0.0398,0.7893,0.6911,0.193,146
2,-0.8765,-0.1275,-0.004,0.822,0.7577,0.1581,146
2,-0.9041,-0.1275,-0.1,0.8525,0.8046,0.1242,146
2,-0.9071,-0.0765,-0.101,0.9027,0.834,0.0915,146
2,-0.9469,-0.0388,-0.1245,0.9278,0.8668,0.0511,146
2,-0.9796,0.0479,-0.1408,0.9136,0.859,0.0162,146
2,-1.0255,0.0684,-0.1908,0.8329,0.8439,-0.0228,146
2,-1.0398,0.0816,-0.1898,0.7554,0.8176,-0.0675,146
2,-1.103,0.1061,-0.2418,0.6825,0.7609,-0.0948,146
2,-1.1918,0.1173,-0.2367,0.6825,0.7609,-0.0948,146
2,-1.1918,0.1173,-0.2367,0.5898,0.7217,-0.1177,146
2,-1.1703,0.1867,-0.2224,0.5299,0.665,-0.1341,146
2,-1.2836,0.1132,-0.251,0.3826,0.6465,-0.1286,146
2,-1.2836,0.1061,-0.3041,0.2943,0.5789,-0.1003,146
2,-1.1806,0.1204,-0.2643,0.2005,0.5635,-0.0631,146
2,-1.1612,0.1143,-0.2663,0.1875,0.5877,-0.0152,146
2,-1.0898,0.1694,-0.1969,0.1842,0.6138,0.0545,146
2,-1.1316,0.1316,-0.2357,0.0992,0.6672,0.1253,146
2,-1.1,0.1428,-0.1877,0.0446,0.6857,0.1962,146
2,-1.1592,0.1102,-0.2388,0.0446,0.6857,0.1962,146
2,-1.1703,0.1898,-0.2336,0.0599,0.7327,0.2529,146
2,-1.1703,0.1898,-0.2336,0.1732,0.7783,0.2932,146
2,-1.1408,0.2438,-0.1979,0.2507,0.7947,0.3008,146
2,-1.1703,0.2347,-0.2397,0.2333,0.7795,0.2823,146
2,-1.1398,0.1918,-0.2459,0.2115,0.7064,0.2495,146
2,-1.1153,0.1765,-0.2397,0.2388,0.6116,0.2256,146
2,-1.103,0.1551,-0.2234,0.3008,0.5059,0.2159,146
2,-1.0755,0.1296,-0.1949,0.3554,0.3794,0.2201,146
2,-1.0449,0.1183,-0.1755,0.3554,0.3794,0.2201,146
2,-1.0081,0.0908,-0.1663,0.387,0.2464,0.2256,146
2,-0.9816,0.0561,-0.1653,0.4175,0.1362,0.2289,146
2,-0.9816,0.0561,-0.1653,0.4938,0.061,0.23,146
2,-0.9326,0.051,-0.15,0.6291,0.0162,0.218,146
2,-0.9102,0.0684,-0.1439,0.7632,-0.0065,0.2005,146
2,-0.9,0.0745,-0.1479,0.858,-0.0076,0.1776,146
2,-0.8908,0.0449,-0.1877,0.9191,-0.0043,0.1547,146
2,-0.8826,0.0306,-0.1949,0.9746,-0.0032,0.1308,146
2,-0.8796,0.0214,-0.2194,1.0389,-0.0065,0.1133,146
2,-0.9092,0.0438,-0.2612,1.1121,0.0,0.1013,146
2,-0.9092,0.0438,-0.2612,1.1121,0.0,0.1013,146
2,-0.9694,0.0786,-0.3051,1.1709,-0.0087,0.0948,146
2,-0.9694,0.0786,-0.3051,1.184,-0.024,0.0894,146
2,-0.9888,0.0775,-0.3296,1.173,-0.0555,0.0839,146
2,-1.0031,0.0571,-0.3591,1.1818,-0.0969,0.0774,146
2,-1.0112,0.0561,-0.3724,1.1915,-0.1396,0.0894,146
2,-1.0031,0.0632,-0.3673,1.1808,-0.1864,0.1079,146
2,-0.9765,0.0561,-0.3694,1.1513,-0.2289,0.1384,146
2,-0.9683,0.0408,-0.3765,1.1196,-0.2638,0.1722,146
2,-0.9459,0.0449,-0.3571,1.1011,-0.2976,0.2147,146
2,-0.9244,0.0418,-0.3448,1.1011,-0.2976,0.2147,146
2,-0.9244,0.0418,-0.3448,1.0913,-0.314,0.2573,146
2,-0.9296,0.0388,-0.3418,1.0761,-0.3237,0.2966,146
2,-0.9142,0.0306,-0.3357,1.0379,-0.3314,0.338,146
2,-0.9132,0.0092,-0.3367,0.9877,-0.3302,0.3729,146
2,-0.9071,0.0061,-0.3377,0.9648,-0.3336,0.4143,146
2,-0.9061,0.0214,-0.3347,0.967,-0.3325,0.4513,146
2,-0.9132,0.0336,-0.3357,0.9551,-0.3281,0.4841,146
2,-0.9265,0.0438,-0.353,0.9103,-0.3368,0.507,146
2,-0.9408,0.0591,-0.3632,0.8569,-0.3456,0.5167,146
2,-0.9244,0.0622,-0.3816,0.8569,-0.3456,0.5167,146
2,-0.9244,0.0622,-0.3816,0.81,-0.3586,0.5233,146
2,-0.949,0.0602,-0.3989,0.7577,-0.3739,0.5179,146
2,-0.949,0.0867,-0.403,0.7163,-0.4012,0.5036,146
2,-0.9244,0.0877,-0.4132,0.664,-0.4208,0.4807,146
2,-0.9132,0.0826,-0.4235,0.5952,-0.4513,0.4469,146
2,-0.8704,0.1296,-0.4092,0.5549,-0.4884,0.424,146
2,-0.8643,0.1489,-0.4071,0.5102,-0.5015,0.388,146
2,-0.8408,0.1735,-0.3785,0.4698,-0.5233,0.3466,146
2,-0.8184,0.1928,-0.35,0.4187,-0.545,0.3041,146
2,-0.8448,0.1703,-0.3683,0.4187,-0.545,0.3041,146
2,-0.8184,0.1663,-0.3469,0.35,-0.557,0.2539,146
2,-0.8184,0.1663,-0.3469,0.3096,-0.5723,0.2049,146
2,-0.8336,0.1489,-0.3448,0.3008,-0.5767,0.1602,146
2,-0.8122,0.1275,-0.3051,0.3008,-0.581,0.1177,146
2,-0.8173,0.1296,-0.2908,0.2867,-0.5799,0.0806,146
2,-0.8591,0.1285,-0.2908,0.2998,-0.569,0.0469,146
2,-0.9551,0.2122,-0.2622,0.3597,-0.5516,0.0097,146
2,-0.9877,0.2531,-0.2418,0.4088,-0.5221,-0.036,146
2,-1.0061,0.2704,-0.2336,0.3804,-0.508,-0.098,146
2,-1.0132,0.202,-0.2653,0.3804,-0.508,-0.098,146
2,-1.0193,0.1428,-0.2949,0.2518,-0.5015,-0.1657,146
2,-1.0193,0.1428,-0.2949,0.1209,-0.5036,-0.2344,146
2,-1.0275,0.1102,-0.3112,0.0621,-0.5036,-0.2976,146
2,-1.0388,0.0989,-0.3214,0.0654,-0.4971,-0.3663,146
2,-1.0551,0.1387,-0.2918,0.0631,-0.4992,-0.4414,146
2,-1.0673,0.1449,-0.2673,0.0196,-0.4982,-0.5276,146
2,-1.0939,0.1418,-0.2438,-0.0261,-0.4763,-0.6171,146
2,-1.1346,0.1061,-0.1489,-0.024,-0.4481,-0.6825,146
2,-1.1642,0.1041,-0.0847,0.0316,-0.3914,-0.7098,146
2,-1.1969,0.0796,-0.0336,0.0316,-0.3914,-0.7098,146
2,-1.2551,0.103,0.0438,0.098,-0.3302,-0.6966,146
2,-1.2551,0.103,0.0438,0.1602,-0.2768,-0.6268,146
2,-1.2438,0.1214,0.0796,0.1558,-0.23,-0.5036,146
2,-1.2469,0.1071,0.0612,0.0545,-0.1972,-0.3368,146
2,-1.1245,0.0408,-0.1143,-0.2278,-0.1438,-0.0545,146
2,-1.0591,0.1663,-0.0734,-0.1198,-0.1133,0.0282,146
2,-1.0377,0.3071,-0.0336,-0.0032,-0.0806,0.0545,146
2,-0.9857,0.355,-0.0183,-0.0545,-0.0664,0.0162,146
2,-1.0122,0.3734,0.0438,-0.1711,-0.0698,0.0217,146
2,-1.0408,0.3143,-0.0143,-0.3019,-0.0675,0.0206,146
2,-1.0336,0.1459,-0.0143,-0.4023,-0.0925,0.0043,146
2,-1.0449,0.1061,0.002,-0.4023,-0.0925,0.0043,146
2,-1.0122,0.1296,0.0734,-0.4012,-0.0872,0.0021,146
2,-1.0122,0.1296,0.0734,-0.3172,-0.1047,-0.0032,146
3,-1.0479,0.1183,0.0684,-0.3085,-0.0969,-0.0097,146
3,-1.002,0.0908,0.101,-0.3401,-0.1232,-0.0196,146
3,-1.0245,0.051,0.103,-0.3325,-0.1003,-0.024,146
3,-0.9244,0.0591,0.1877,-0.2464,-0.1047,-0.0305,146
3,-0.9316,0.0367,0.1826,-0.1667,-0.061,-0.0272,146
3,-0.951,-0.0234,0.1112,-0.1177,-0.073,-0.0087,146
3,-0.9203,-0.051,0.0745,-0.1177,-0.073,-0.0087,146
3,-0.8755,-0.051,0.0622,-0.1286,-0.0457,0.0162,146
3,-0.8694,-0.0428,0.0418,-0.0599,-0.0446,0.049,146
3,-0.8694,-0.0428,0.0418,0.0032,-0.0305,0.0915,146
3,-0.8489,-0.0255,0.0612,0.049,-0.0282,0.1274,146
3,-0.853,-0.0347,0.053,0.0763,-0.0217,0.1581,146
3,-0.8459,0.0,0.05,0.1253,-0.0196,0.1875,146
3,-0.8591,0.0163,0.0551,0.1701,-0.012,0.2049,146
3,-0.8653,0.0336,0.0622,0.1798,-0.0087,0.2213,146
3,-0.8734,0.0071,0.0469,0.1537,-0.0097,0.2278,146
3,-0.8775,-0.0051,0.0388,0.1537,-0.0097,0.2278,146
3,-0.8806,-0.0061,0.052,0.1384,-0.0087,0.2388,146
3,-0.9173,-0.0143,0.052,0.1776,-0.0108,0.2573,146
3,-0.9173,-0.0143,0.052,0.2213,0.0076,0.2682,146
3,-0.9132,-0.0122,0.0479,0.2354,0.0141,0.2779,146
3,-0.9183,-0.0183,0.0377,0.2376,0.0326,0.2791,146
3,-0.9255,-0.0183,0.0367,0.2714,0.0479,0.2823,146
3,-0.9377,0.001,0.0234,0.3161,0.0708,0.2867,146
3,-0.9194,0.0153,0.0367,0.3368,0.1003,0.2812,146
3,-0.9153,0.0153,0.0265,0.3357,0.1133,0.2714,146
3,-0.8969,-0.0031,0.0051,0.3183,0.1286,0.2649,146
3,-0.8959,-0.0122,-0.0081,0.3183,0.1286,0.2649,146
3,-0.8959,-0.0122,-0.0081,0.3271,0.1406,0.2594,146
3,-0.8846,0.0051,-0.002,0.3575,0.1537,0.2518,146
3,-0.8745,0.0051,-0.0132,0.3674,0.1755,0.2354,146
3,-0.8582,0.0081,-0.0102,0.3489,0.1886,0.218,146
3,-0.851,0.0143,-0.0102,0.35,0.2093,0.1962,146
3,-0.8418,0.0245,0.0,0.3761,0.231,0.1678,146
3,-0.8408,0.052,0.0153,0.4023,0.2605,0.1329,146
3,-0.8469,0.0561,0.0122,0.4132,0.2932,0.0904,146
3,-0.8632,0.0724,0.0132,0.4044,0.3205,0.0392,146
3,-0.8939,0.1337,0.0092,0.4044,0.3205,0.0392,146
3,-0.8939,0.1337,0.0092,0.4023,0.3445,-0.0141,146
3,-0.9224,0.1571,-0.0122,0.3859,0.363,-0.0643,146
3,-0.9581,0.1735,-0.0173,0.3357,0.3706,-0.0992,146
3,-1.0061,0.1459,-0.0326,0.2409,0.3663,-0.1221,146
3,-1.0745,-0.0275,-0.0898,0.1428,0.3674,-0.1482,146
3,-1.0806,-0.101,-0.1102,0.1396,0.3903,-0.1646,146
3,-1.0684,-0.0989,-0.0898,0.2573,0.4229,-0.1581,146
3,-1.0591,-0.0347,-0.0061,0.3739,0.4643,-0.1907,146
3,-1.0673,-0.0224,0.0102,0.3914,0.4884,-0.2659,146
3,-1.0857,-0.0551,0.0102,0.3914,0.4884,-0.2659,146
3,-1.1459,-0.1041,0.0051,0.3815,0.5211,-0.3063,146
3,-1.1459,-0.1041,0.0051,0.4219,0.5505,-0.3412,146
3,-1.1755,-0.1071,0.0183,0.5036,0.581,-0.3761,146
3,-1.2316,-0.1337,-0.0071,0.5942,0.6062,-0.3979,146
3,-1.2622,-0.1316,-0.0193,0.6879,0.6127,-0.4,146
3,-1.3224,-0.0816,-0.0459,0.7741,0.6116,-0.375,146
3,-1.351,-0.049,-0.0388,0.8634,0.5996,-0.3172,146
3,-1.3837,-0.0418,-0.0724,0.9202,0.5833,-0.2321,146
3,-1.3724,-0.0183,-0.1816,0.9834,0.5614,-0.1362,146
3,-1.3081,0.051,-0.1806,0.9834,0.5614,-0.1362,146
3,-1.2673,0.0877,-0.2163,1.0608,0.545,-0.012,146
3,-1.2673,0.0877,-0.2163,1.099,0.5145,0.0883,146
3,-1.1816,0.1459,-0.2683,1.0662,0.4698,0.1711,146
3,-1.1337,0.1439,-0.3061,1.0259,0.3979,0.2201,146
3,-1.1091,0.1816,-0.3143,1.0509,0.3271,0.2409,146
3,-1.0867,0.199,-0.3061,1.148,0.2725,0.2562,146
3,-1.0714,0.2938,-0.303,1.1905,0.1962,0.2442,146
3,-1.0571,0.2663,-0.3224,1.1207,0.1308,0.2093,146
3,-1.0051,0.2183,-0.3184,1.0303,0.0686,0.1798,146
3,-0.9449,0.1489,-0.301,1.0303,0.0686,0.1798,146
3,-0.9316,0.1224,-0.3,1.0051,0.0402,0.1678,146
3,-0.9316,0.1224,-0.3,1.0139,0.012,0.1591,146
3,-0.8846,0.1082,-0.2888,0.9877,-0.0011,0.1602,146
3,-0.8296,0.103,-0.2877,0.9769,-0.0011,0.1766,146
3,-0.8408,0.0928,-0.3041,0.9975,0.0043,0.1886,146
3,-0.8316,0.0989,-0.3,0.9954,0.0261,0.2071,146
3,-0.8245,0.1,-0.3041,1.0063,0.0282,0.2234,146
3,-0.8275,0.0898,-0.3112,0.991,0.0392,0.2354,146
3,-0.8081,0.0867,-0.3091,0.9463,0.0381,0.2464,146
3,-0.8336,0.0581,-0.3347,0.9463,0.0381,0.2464,146
3,-0.8336,0.0581,-0.3347,0.9092,0.0337,0.2649,146
3,-0.8428,0.0857,-0.3214,0.9191,0.0196,0.2844,146
3,-0.8347,0.1041,-0.299,0.9191,0.0141,0.3031,146
3,-0.8387,0.0939,-0.2949,0.8853,-0.0141,0.3183,146
3,-0.8347,0.0734,-0.2888,0.8275,-0.036,0.3368,146
3,-0.8398,0.0193,-0.2867,0.8002,-0.0534,0.35,146
3,-0.853,0.0051,-0.2908,0.8155,-0.0664,0.3685,146
3,-0.8571,0.0102,-0.2877,0.8439,-0.0828,0.3848,146
3,-0.8796,0.0081,-0.3102,0.8668,-0.1024,0.3946,146
3,-0.8939,0.0081,-0.3275,0.8668,-0.1024,0.3946,146
3,-0.8939,0.0081,-0.3275,0.8897,-0.1232,0.4065,146
3,-0.8939,0.0143,-0.3367,0.9234,-0.1493,0.4023,146
3,-0.9071,0.0388,-0.3448,0.9485,-0.182,0.3903,146
3,-0.9142,0.0367,-0.352,0.9343,-0.2159,0.387,146
3,-0.8959,0.0316,-0.3448,0.8874,-0.2594,0.3859,146
3,-0.903,0.0,-0.3785,0.8319,-0.2976,0.387,146
3,-0.9051,0.0102,-0.3816,0.8187,-0.3368,0.3838,146
3,-0.8683,0.0438,-0.3643,0.8319,-0.3717,0.3674,146
3,-0.8908,0.0459,-0.3898,0.8199,-0.4044,0.3401,146
3,-0.8602,0.0908,-0.3632,0.8199,-0.4044,0.3401,146
3,-0.8683,0.105,-0.3673,0.7991,-0.4469,0.3073,146
3,-0.8683,0.105,-0.3673,0.7664,-0.4797,0.2693,146
3,-0.8489,0.1551,-0.3275,0.7119,-0.544,0.1852,146
3,-0.8489,0.1551,-0.3275,0.6803,-0.5702,0.1438,146
3,-0.8704,0.1132,-0.3541,0.6062,-0.5931,0.1003,146
3,-0.8571,0.1112,-0.3367,0.5582,-0.6203,0.0534,146
3,-0.8673,0.0643,-0.3173,0.5374,-0.6247,0.0152,146
3,-0.8989,0.052,-0.3245,0.5396,-0.628,-0.0206,146
3,-0.9203,0.0602,-0.3051,0.5549,-0.6148,-0.049,146
4,-1.0326,0.1275,-0.2816,0.5854,-0.5984,-0.0839,146
4,-1.0796,0.1622,-0.2734,0.6062,-0.5713,-0.1274,146
4,-1.1265,0.1908,-0.2592,0.6062,-0.5713,-0.1274,146
4,-1.1265,0.1908,-0.2592,0.5974,-0.5528,-0.1776,146
4,-1.2438,0.1449,-0.2908,0.5179,-0.5429,-0.2376,146
4,-1.2438,0.1449,-0.2908,0.3935,-0.545,-0.2987,146
4,-1.2581,0.1163,-0.2898,0.3008,-0.5494,-0.3609,146
4,-1.2836,0.0948,-0.2928,0.2605,-0.5484,-0.4229,146
4,-1.3448,0.1143,-0.2653,0.2344,-0.5528,-0.4797,146
4,-1.3918,0.151,-0.2367,0.2234,-0.5538,-0.5374,146
4,-1.4357,0.1744,-0.1949,0.2234,-0.5494,-0.5799,146
4,-1.4714,0.1703,-0.0643,0.2333,-0.5309,-0.5898,146
4,-1.4469,0.1346,0.0,0.2333,-0.5309,-0.5898,146
4,-1.4469,0.1346,0.0,0.2398,-0.5026,-0.544,146
4,-1.3816,0.0847,0.0347,0.1711,-0.4524,-0.4295,146
4,-1.1642,-0.0551,-0.0234,0.0435,-0.4012,-0.2583,146
4,-1.0632,-0.0286,-0.0663,-0.0305,-0.3346,-0.0992,146
4,-1.0193,0.0877,-0.0816,0.0664,-0.2638,0.0272,146
4,-0.9622,0.2632,-0.0551,0.1984,-0.2039,0.0915,146
4,-0.8796,0.3816,-0.0796,0.1581,-0.1613,0.0675,146
4,-0.8755,0.3479,-0.1061,0.0076,-0.1547,0.0457,146
4,-0.8663,0.3214,-0.0765,-0.1188,-0.1406,0.0795,146
4,-0.8571,0.204,-0.0939,-0.2278,-0.1406,0.0501,146
4,-0.85,0.1234,-0.1,-0.2278,-0.1406,0.0501,146
4,-0.85,0.1234,-0.1,-0.2844,-0.1581,0.0174,146
4,-0.8622,0.1285,-0.053,-0.2562,-0.157,0.0065,146
4,-0.8602,0.105,0.001,-0.2268,-0.1711,-0.0282,146
4,-0.8398,0.0948,0.0418,-0.2562,-0.1678,-0.0446,146
4,-0.8571,0.0673,0.0959,-0.2518,-0.1678,-0.0435,146
4,-0.9112,0.0796,0.0591,-0.2289,-0.1352,-0.0326,146
4,-0.9061,0.0918,0.1,-0.169,-0.11,-0.024,146
4,-0.9949,0.0684,0.049,-0.1232,-0.0806,-0.0097,146
4,-0.9673,0.0765,0.0541,-0.0708,-0.037,-0.0032,146
4,-0.9897,0.053,0.0275,-0.0708,-0.037,-0.0032,146
4,-0.9479,0.0806,0.0571,-0.0316,-0.0435,0.0162,146
4,-0.9479,0.0806,0.0571,-0.0011,-0.0349,0.036,146
4,-0.9714,0.0591,0.0102,0.012,-0.037,0.061,146
4,-0.9296,0.0775,0.0336,-0.0065,-0.0555,0.0806,146
4,-0.9132,0.0418,0.0051,-0.0555,-0.0751,0.098,146
4,-0.902,0.0214,-0.001,-0.1013,-0.1079,0.1133,146
4,-0.8785,0.0143,0.0092,-0.1123,-0.1362,0.1308,146
4,-0.8663,-0.0071,0.0112,-0.1035,-0.1558,0.1341,146
4,-0.8704,-0.004,0.0214,-0.1035,-0.1558,0.1341,146
4,-0.8775,-0.002,0.0265,-0.0751,-0.1678,0.1352,146
4,-0.8949,-0.0214,0.0336,-0.0469,-0.169,0.1341,146
4,-0.8949,-0.0214,0.0336,-0.0337,-0.1755,0.1264,146
4,-0.8867,-0.0398,0.0479,-0.0305,-0.1667,0.1221,146
4,-0.9,-0.0704,0.0377,-0.0228,-0.1537,0.1253,146
4,-0.8898,-0.0836,0.051,-0.0011,-0.1352,0.1406,146
4,-0.903,-0.1143,0.0622,0.024,-0.1079,0.1623,146
4,-0.8898,-0.1367,0.0673,0.0337,-0.0894,0.1831,146
4,-0.9428,-0.1551,0.0377,0.0349,-0.0392,0.2365,146
4,-0.9673,-0.1224,0.052,0.0654,-0.024,0.2747,146
4,-0.954,-0.1102,0.0632,0.0654,-0.024,0.2747,146
4,-0.9704,-0.105,0.0367,0.0631,0.0032,0.2888,146
4,-0.9704,-0.105,0.0367,0.0621,0.0162,0.3151,146
4,-0.9581,-0.0367,0.0388,0.0925,0.0326,0.3325,146
4,-0.949,0.0183,0.05,0.1318,0.0511,0.3302,146
4,-0.9255,0.0663,0.0622,0.1537,0.0469,0.3128,146
4,-0.9377,0.0591,0.0602,0.1352,0.0643,0.2802,146
4,-0.9275,0.0418,0.0693,0.1232,0.0675,0.2376,146
4,-0.9153,0.0367,0.0755,0.1068,0.074,0.1907,146
4,-0.9183,0.0336,0.0673,0.1079,0.0784,0.1406,146
4,-0.9183,0.0336,0.0673,0.1079,0.0784,0.1406,146
4,-0.8653,0.0449,0.0796,0.1341,0.0894,0.0959,146
4,-0.8387,0.0816,0.0765,0.1591,0.1286,0.0479,146
4,-0.8143,0.1194,0.105,0.194,0.1602,0.0087,146
4,-0.8469,0.053,0.1194,0.2081,0.2333,-0.0217,146
4,-0.8877,0.0031,0.0836,0.181,0.3183,-0.0719,146
4,-0.8959,-0.0153,0.0928,0.2081,0.4229,-0.1155,146
4,-0.9347,-0.0092,0.1061,0.3063,0.5331,-0.1613,146
4,-0.9888,-0.051,0.1102,0.3695,0.6497,-0.2289,146
4,-1.0163,-0.0989,0.0939,0.4065,0.7598,-0.2987,146
4,-1.0428,-0.1346,0.0836,0.4065,0.7598,-0.2987,146
4,-1.0428,-0.1346,0.0836,0.5026,0.858,-0.3554,146
4,-1.1275,-0.1102,0.0438,0.6552,0.9485,-0.3979,146
4,-1.152,-0.0071,0.0398,0.8449,1.0095,-0.4295,146
4,-1.2898,0.004,0.0092,1.0259,1.0662,-0.4338,146
4,-1.3908,0.1041,0.0031,1.099,1.0597,-0.3848,146
4,-1.3663,-0.1214,-0.1632,1.1392,1.0389,-0.3412,146
4,-1.3602,-0.0591,-0.1694,1.1688,1.0019,-0.2081,146
4,-1.4459,0.0755,-0.1714,1.3737,0.9551,-0.037,146
4,-1.3663,0.1837,-0.2101,1.3355,0.8733,0.0621,146
4,-1.3265,0.2133,-0.2898,1.3355,0.8733,0.0621,146
4,-1.3428,0.0398,-0.2367,1.1915,0.7653,0.098,146
4,-1.3428,0.0398,-0.2367,1.2613,0.6333,0.0414,146
4,-1.2622,0.4142,-0.5204,1.016,0.5299,0.0894,146
4,-1.0061,0.3071,-0.1306,1.2668,0.4012,0.0228,146
4,-1.1642,0.2888,-0.355,1.2756,0.3041,-0.0425,146
4,-0.9653,0.1887,-0.3949,0.8733,0.2605,-0.0174,146
4,-0.7551,0.103,-0.2245,0.9801,0.2136,-0.0534,146
4,-1.0183,0.0173,-0.4867,0.9168,0.231,-0.0948,146
4,-0.8122,0.0918,-0.3245,0.9168,0.231,-0.0948,146
4,-0.8694,0.1806,-0.3193,1.0238,0.2758,-0.1035,146
4,-0.8857,0.1806,-0.3816,1.1567,0.35,-0.11,146
4,-0.8857,0.1806,-0.3816,1.1447,0.3761,-0.0969,146
4,-0.9214,0.1214,-0.303,0.9736,0.399,-0.0599,146
4,-0.8408,0.0326,-0.3908,0.7729,0.3783,-0.0087,146
4,-0.8122,0.0693,-0.3673,0.7249,0.3826,0.0381,146
4,-0.7949,0.0816,-0.3408,0.7348,0.3706,0.0937,146
4,-0.7755,0.0714,-0.3408,0.6333,0.3445,0.1449,146
4,-0.7051,0.0377,-0.3347,0.52,0.2943,0.1864,146
4,-0.65,0.0336,-0.3143,0.52,0.2943,0.1864,146
4,-0.6102,0.0684,-0.3326,0.4012,0.2464,0.3575,146
4,-0.6418,0.0836,-0.3755,0.339,0.2495,0.424,146
4,-0.702,0.0948,-0.4244,0.339,0.2495,0.424,146
4,-0.702,0.0948,-0.4244,0.2768,0.2529,0.4655,146
4,-0.801,0.1439,-0.5051,0.2605,0.2388,0.4721,146
4,-0.8479,0.199,-0.5173,0.3041,0.1951,0.4458,146
4,-0.8489,0.2643,-0.4959,0.3412,0.1493,0.4034,146
4,-0.8622,0.2745,-0.4949,0.2495,0.0959,0.3717,146
