Timestamp,Ax,Ay,Az,Rx,Ry,Rz,EMG
0,0.0867,-0.9272,0.0974,-0.1053,0.0245,1.1121,2043
0,0.0166,-0.9612,0.0872,-0.1412,-0.0004,1.0334,2027
0,-0.0088,-0.9954,0.0771,-0.1133,-0.0099,1.0409,2045
0,-0.021,-0.9976,0.0806,-0.1161,-0.1318,1.0491,2041
0,-0.0613,-0.9707,0.0757,-0.0748,-0.1099,1.0224,2043
0,-0.0671,-0.9758,0.1033,-0.0202,-0.1461,0.9772,2043
0,-0.0544,-0.9495,0.0962,-0.0252,-0.1908,0.9612,2040
0,-0.0405,-0.9417,0.0476,-0.0732,-0.2393,0.9372,2037
0,-0.0347,-0.9429,0.0212,-0.0902,-0.3968,0.9071,2044
0,-0.0469,-0.9236,0.0142,-0.0672,-0.4683,0.9303,2042
0,-0.0691,-0.9463,0.0281,-0.0324,-0.4093,0.9475,2046
0,-0.0938,-0.9585,0.0288,0.0526,-0.3213,0.9594,2042
0,-0.103,-0.9622,0.0586,0.1096,-0.2698,1.0047,2044
0,-0.0564,-0.9634,0.0579,0.108,-0.3376,1.0276,2032
0,-0.0632,-0.9741,0.0854,0.1561,-0.4235,1.0323,2033
0,-0.0447,-0.9841,0.1038,0.126,-0.5365,1.0709,2042
0,-0.0618,-0.9929,0.0977,0.0919,-0.537,1.0728,2045
0,-0.0686,-0.9817,0.1216,0.1019,-0.3843,1.0724,2045
0,-0.0532,-1.0251,0.1169,0.0578,-0.3424,1.1359,2015
0,-0.0403,-1.0222,0.1062,0.0071,-0.3008,1.1087,2043
0,-0.0234,-0.9995,0.0852,0.0447,-0.2366,1.0942,2043
0,-0.0425,-0.9563,0.0984,0.1043,-0.108,1.114,2042
0,-0.0347,-1.0349,0.1138,0.0708,-0.0425,1.1123,2044
0,-0.0459,-1.0115,0.0808,0.0089,-0.1029,1.1327,2035
0,0.0134,-1.0107,0.0447,-0.1237,-0.4315,1.1212,2042
0,0.0229,-0.9583,0.0212,-0.1579,-0.592,1.146,2029
0,-0.01,-0.9304,-0.0369,-0.1099,-0.5476,1.2523,2041
0,0.0369,-1.0974,-0.1079,-0.2245,-0.6529,1.3432,2032
0,-0.1233,-1.1204,-0.2573,-0.3029,-0.6632,1.3282,2039
0,-0.1052,-1.0386,-0.2358,0.0148,-0.5971,1.287,2044
0,-0.0918,-1.094,-0.0811,0.2226,-0.3197,1.2961,2039
0,-0.0388,-1.1863,-0.0032,0.165,-0.1663,1.2416,2042
0,-0.0884,-1.2397,-0.0205,0.0111,-0.0309,1.1689,2027
0,-0.1313,-1.2231,-0.0532,0.0381,0.0953,1.072,2045
0,-0.1523,-1.2146,-0.0532,0.1466,0.0285,0.8987,2039
0,-0.1582,-1.116,0.0371,0.2787,-0.1064,0.7447,2043
0,-0.1003,-0.9546,0.0527,0.5665,-0.3505,0.6833,2045
0,-0.2107,-0.9099,0.0789,0.8375,-0.4334,0.8831,2043
0,-0.0608,-0.9106,0.0879,1.0597,-0.4971,1.0018,2040
0,0.0679,-0.8953,0.1475,1.1946,-0.8955,1.1352,2050
0,-0.2356,-0.9033,0.2302,1.2274,-1.076,1.2296,2043
0,-0.4763,-1.4114,0.7754,0.4287,-1.6363,0.3125,2040
0,-0.5913,-1.0212,0.3132,0.0748,-1.6632,0.4424,2015
0,-0.4141,-1.0312,0.3564,0.0993,-1.4138,0.2117,2074
0,1.4646,-0.4695,0.5059,-0.5846,-1.4113,2.0835,2022
0,-2.0,-2.0,0.7698,-1.0323,1.4324,-1.7463,2049
0,-1.6516,-2.0,-0.6106,-1.1355,-2.3459,0.4731,2052
0,0.9873,-0.7141,-0.386,-0.3168,-0.2288,-0.8514,2037
0,1.1257,-0.5442,0.1755,0.0531,-0.1479,-2.3856,2039
0,0.6067,-1.0681,0.5037,0.3585,-0.6445,-1.7727,2045
0,-0.5811,-1.1067,0.2539,-0.1802,-1.0656,-1.8096,2049
0,-0.9199,-1.2605,0.082,-0.6385,-0.5026,-1.5854,1938
0,-0.137,-1.0286,0.2346,-0.5854,-0.9706,-0.6594,2030
0,-0.2888,-1.0403,0.2485,0.059,-1.6556,-0.5372,2031
0,-0.3047,-1.0593,0.4714,0.1097,-1.2569,-1.3932,2036
0,-0.4009,-1.3572,0.447,0.1735,-0.875,-1.9425,2043
0,0.0474,-1.1838,0.2961,-0.0814,-0.4501,-2.4049,2030
0,0.9497,-1.0518,0.3958,0.0462,-1.0003,-2.2788,2072
0,0.9712,-1.1287,0.5042,0.0808,-1.5894,-2.812,2025
0,0.7859,-1.1975,0.6377,0.1178,-1.9004,-3.1144,2048
0,0.5874,-1.269,0.5752,-0.1549,-1.9226,-3.246,2030
0,0.6541,-1.1064,0.3381,-0.2605,-2.3968,-3.0222,2040
0,0.2471,-1.1548,0.2695,-0.2189,-2.1221,-3.5095,2040
0,0.2944,-1.1021,0.3167,-0.1863,-1.7158,-3.8037,2039
0,0.4685,-1.0303,0.26,-0.0804,-1.4878,-4.0024,2064
0,0.5051,-0.9402,0.2698,0.0039,-1.3006,-4.1611,2080
0,0.5376,-0.8484,0.406,0.1099,-1.2382,-4.173,2055
0,0.6206,-0.8396,0.3979,-0.0586,-1.2366,-4.1029,2041
0,0.6467,-0.7632,0.3804,-0.0814,-1.1218,-4.097,2037
0,0.6646,-0.6687,0.4368,-0.0019,-1.0927,-4.1054,2042
0,0.718,-0.6143,0.5056,0.0115,-1.1555,-4.051,2046
0,0.6191,-0.6067,0.4971,0.1037,-1.2455,-4.1413,2034
0,0.5337,-0.499,0.5037,0.2578,-1.2279,-4.1847,2041
0,0.4829,-0.4351,0.5444,0.3827,-1.1648,-4.2134,2041
0,0.603,-0.396,0.5305,0.5288,-1.2611,-4.1551,2038
0,0.6619,-0.3499,0.6089,0.5767,-1.3102,-4.0856,2033
0,0.6709,-0.2881,0.675,0.6958,-1.4057,-3.9853,2034
0,0.6641,-0.3042,0.6633,0.8088,-1.5965,-3.7609,2035
0,0.667,-0.27,0.6707,0.9416,-1.6359,-3.6447,2044
0,0.8818,-0.1375,0.7559,0.7696,-2.096,-3.2512,2043
0,0.8108,-0.1667,0.7119,0.6944,-2.6583,-2.9112,2038
0,0.7068,-0.1538,0.6516,0.7423,-3.2451,-2.643,2047
0,0.4514,-0.1187,0.5903,0.9986,-3.9061,-2.4368,2043
0,0.3948,-0.0764,0.5369,1.1669,-4.3594,-2.1666,2039
0,0.3308,-0.0129,0.4326,1.3571,-4.3635,-1.9038,2050
0,0.1885,0.05,0.3213,1.5653,-4.3635,-1.4617,2043
0,0.3679,0.1746,-0.302,1.4767,-4.3635,-0.5987,2051
0,0.0439,0.0264,-0.5532,2.6623,-3.9277,-0.2506,2062
0,-0.1216,0.1814,0.0835,3.0457,-2.7169,0.2863,2009
0,-0.6062,0.699,0.1726,2.2663,-2.3871,1.7816,2101
0,-0.6079,1.614,-0.2405,2.0253,-1.884,4.3634,2036
0,-2.0,0.365,-0.7583,1.2517,-2.3273,2.2316,2124
0,1.9999,-2.0,1.9999,3.4013,-4.3635,1.835,2011
0,1.9999,-2.0,-2.0,-2.3969,1.1737,2.3774,2123
0,-2.0,-2.0,0.6487,-2.6685,-4.3635,4.3634,2058
0,-1.4714,-2.0,-1.792,-1.2623,3.4179,4.3634,1949
0,-1.7539,-2.0,1.1184,0.5561,0.6433,3.742,2033
0,-2.0,-2.0,1.9999,1.0304,1.4201,4.3634,2039
0,-0.2278,-2.0,1.9999,3.6478,-4.3635,2.1742,2038
0,1.9999,-1.1042,1.5867,2.8932,-2.5735,-0.6345,2064
0,1.9999,-0.0166,1.157,2.2122,-4.3635,1.4005,2052
0,-0.0884,0.1914,0.574,0.6565,-2.9837,0.6951,2024
0,0.5354,0.2322,0.5093,-0.0583,-0.8219,2.3807,2043
0,0.4199,-0.8027,0.2163,-0.589,0.1923,3.1499,2045
0,0.0637,-1.8589,-0.355,-0.6845,0.179,2.679,2049
0,0.1948,-1.3823,-0.8413,0.2388,0.0778,1.8269,2049
0,0.0327,-0.6355,-0.647,0.9805,0.0955,1.59,2033
0,-0.1711,-1.0273,-0.6484,0.9099,0.5803,2.2937,2031
0,0.4492,-0.6624,-0.2493,1.2969,-0.0439,1.3976,2037
0,0.6807,-0.55,0.053,0.7493,0.1868,2.002,2042
0,0.1401,-0.8352,-0.1313,0.5417,0.0591,2.0037,2048
0,-0.2385,-1.0251,-0.0542,0.5904,0.5225,1.8761,2038
0,-0.2358,-1.1157,0.0576,0.7544,1.2358,1.9009,2069
0,0.6187,-1.3005,0.6404,0.1182,1.8969,2.2867,2039
0,0.271,-0.6868,0.2102,0.7966,0.867,1.1894,2045
0,0.3586,-0.8071,0.2039,1.0216,-0.0123,1.3407,2035
0,0.1396,-1.0498,0.1516,0.6303,0.1177,1.4853,2037
0,-0.1101,-0.9778,0.0505,0.6022,-0.0401,1.4057,2032
0,-0.2734,-0.9111,-0.0042,0.6393,-0.0692,1.24,2032
0,-0.2466,-0.9241,-0.0896,0.6161,-0.1005,1.1101,2039
0,-0.2263,-0.9575,-0.2029,0.614,0.1445,1.0417,2045
0,-0.1421,-1.001,-0.146,0.6991,0.4113,1.012,2039
0,-0.0298,-1.0154,-0.0403,0.7244,0.5659,0.9933,2045
0,0.0916,-1.0356,0.1672,0.6357,0.4565,0.8861,2047
1,0.3872,-0.8274,-0.1372,0.4141,0.0683,0.477,2035
1,0.2927,-0.7444,0.0229,0.6939,0.0903,1.075,2046
1,0.0232,-1.009,0.2629,0.5397,0.5647,0.8337,2051
1,-0.2266,-1.0083,0.2463,0.3474,0.4947,0.8564,2047
1,-0.135,-0.9768,0.1626,0.296,0.0953,0.8156,2043
1,-0.051,-0.9067,0.0662,0.3324,0.0708,0.759,2043
1,-0.0547,-0.9502,-0.0964,0.4287,0.1361,0.7319,2046
1,-0.0798,-0.9731,-0.0889,0.6979,0.1756,0.7502,2046
1,-0.0012,-1.0391,-0.0757,0.6877,0.3634,0.7419,2042
1,-0.0662,-1.0059,-0.0042,0.8973,0.4841,0.6466,2023
1,-0.0618,-1.0151,0.198,1.0182,0.6284,0.6168,2042
1,-0.1016,-1.0024,0.4231,0.946,0.6473,0.5998,2044
1,-0.1128,-0.9304,0.4788,0.6866,0.4876,0.6084,2044
1,-0.0256,-0.9333,0.4446,0.5145,0.5402,0.49,2040
1,0.0002,-0.938,0.2976,0.4572,0.4854,0.4325,2038
1,-0.0779,-0.9353,0.1399,0.5031,0.4734,0.4095,2039
1,-0.092,-0.9578,0.0625,0.6092,0.5899,0.4295,2043
1,0.0181,-0.9966,0.0159,0.6891,0.6159,0.4528,2043
1,0.0591,-1.0312,0.0356,0.6935,0.5899,0.4689,2048
1,-0.0337,-0.9619,0.1018,0.7917,0.6063,0.4292,2057
1,0.0042,-0.9619,0.2048,0.9058,0.3876,0.436,2055
1,-0.0203,-0.9683,0.2678,0.868,0.1261,0.4277,2054
1,-0.0654,-0.9646,0.1936,0.8514,-0.1489,0.3521,2054
1,0.0115,-1.011,0.0652,0.8111,-0.3541,0.3312,2065
1,0.0859,-1.0559,-0.0984,0.7734,-0.5344,0.3549,2052
1,0.0981,-1.1023,-0.2239,0.8084,-0.7059,0.3812,2049
1,-0.0007,-1.0825,-0.2878,0.9556,-0.842,0.4358,2042
1,-0.0522,-1.0503,-0.2617,1.2065,-1.0267,0.4157,2062
1,0.0195,-1.0627,-0.1702,1.3705,-1.2536,0.3667,2056
1,0.0818,-0.9954,-0.0552,1.5026,-1.3868,0.3667,2042
1,0.1057,-0.9573,0.0513,1.6372,-1.4268,0.3914,2044
1,0.1812,-0.9426,0.2119,1.6958,-1.4555,0.4272,2034
1,0.3406,-0.8972,0.3867,1.7258,-1.5894,0.5076,2066
1,0.4014,-0.9209,0.4006,1.6839,-1.6917,0.6982,2019
1,0.397,-1.114,0.3894,1.5181,-1.6101,0.8135,2046
1,0.2639,-1.1687,0.4019,1.2945,-1.3656,0.9186,2026
1,0.1887,-1.0928,0.3657,1.227,-1.1389,0.9954,2045
1,0.1421,-1.1145,0.3367,1.2025,-1.0246,1.0029,2047
1,0.2346,-1.0757,0.4292,1.2675,-1.3306,1.0407,2034
1,0.2236,-0.9666,0.3467,1.4575,-2.2831,1.0199,2045
1,-0.2896,-0.957,0.3542,1.9044,-2.8384,0.4103,2037
1,-0.8606,-1.2817,0.4326,1.042,-2.2435,-0.0615,2034
1,-0.6931,-1.2766,-0.1445,1.9193,-2.2061,-1.0083,2041
1,-0.7097,-1.624,-0.0803,1.0701,-1.4019,-0.6778,2046
1,-0.7764,-1.3784,0.1899,0.967,-0.2452,-0.7834,2043
1,-0.3413,-1.2505,0.2295,0.6967,-0.8281,-0.3803,2044
1,0.5327,-1.167,0.2761,0.3231,-1.0961,-0.5469,2041
1,0.7112,-1.0488,0.4714,0.3607,-1.6932,-0.5121,2038
1,1.2966,-1.2935,0.7493,0.2964,-3.0218,-0.7465,2032
1,1.5239,-1.8118,0.2327,-0.2818,-4.2407,-1.2472,2045
1,0.8271,-1.6892,0.2498,-1.1595,-4.068,-1.222,2034
1,0.4421,-1.2676,-0.3828,-1.2172,-4.3635,-1.022,2042
1,0.2793,-1.3271,-0.3181,-1.1286,-4.3635,-1.3952,2045
1,0.2517,-1.2437,-0.2695,-1.0376,-4.3635,-1.3492,2041
1,0.1604,-1.1475,-0.2844,-1.1328,-4.3369,-1.454,2042
1,-0.1189,-1.1213,-0.178,-1.0832,-4.0313,-1.3571,2041
1,-0.2334,-1.0325,-0.0688,-1.1729,-3.4693,-1.3248,2046
1,-0.2205,-0.8662,-0.0847,-1.177,-2.6626,-1.4492,2045
1,-0.2344,-0.7688,-0.0474,-1.1491,-1.9881,-1.5571,2041
1,-0.0464,-0.7217,-0.0107,-1.0713,-1.4668,-1.4672,2038
1,0.0947,-0.7622,0.105,-1.0057,-1.0706,-1.3924,2048
1,0.2617,-0.7432,0.2678,-0.9531,-0.8445,-1.3407,2047
1,0.4324,-0.7,0.3293,-0.812,-0.9882,-1.2278,2042
1,0.5859,-0.6987,0.3792,-0.648,-1.2736,-1.0409,2045
1,0.6392,-0.6633,0.4238,-0.5132,-1.6135,-0.8485,2037
1,0.6396,-0.6719,0.4233,-0.222,-1.9534,-0.7682,2040
1,0.75,-0.6672,0.5291,-0.07,-2.2629,-0.5091,2043
1,0.7546,-0.625,0.5879,0.0161,-2.5952,-0.2614,2043
1,0.7021,-0.5374,0.6177,0.2257,-2.9243,-0.073,2043
1,0.7026,-0.5303,0.6384,0.4207,-3.4745,0.1851,2046
1,0.7522,-0.6294,0.6389,0.4482,-3.988,0.4536,2042
1,0.7581,-0.6516,0.717,0.5501,-4.3635,0.7462,2042
1,0.6882,-0.6887,0.7576,0.5689,-4.3635,1.0128,2043
1,0.4304,-0.6555,0.5408,0.398,-4.3635,1.1776,2043
1,0.3555,-0.7007,0.3372,0.3091,-4.3635,1.0082,2045
1,0.217,-0.9294,0.366,0.9497,-3.8046,0.6859,2047
1,-0.0781,-0.8635,0.6101,1.0718,-2.4602,0.6339,2046
1,0.3171,-0.6301,0.7112,1.1668,-2.1931,0.5718,2046
1,0.823,-1.0518,0.7131,0.8537,-2.3747,0.9091,2045
1,1.2373,-0.7227,0.9521,1.4783,-2.7014,0.5947,2043
1,1.0388,-0.7786,1.1228,1.5568,-2.8806,0.5898,2042
1,1.0647,-0.6519,1.1365,1.4279,-3.1288,0.6244,2043
1,1.0493,-0.8394,0.928,0.9215,-3.9692,1.0377,2041
1,1.1621,-0.4136,0.8826,1.4286,-4.3635,0.8435,2045
1,1.0637,-0.5247,1.187,1.4653,-4.3635,1.107,2045
1,0.9407,-0.5281,0.9534,1.073,-4.3635,1.6058,2043
1,0.6897,-0.4556,0.7642,1.2142,-4.3635,1.7518,2044
1,0.4927,-0.4395,0.7437,1.4388,-4.3635,1.8463,2048
1,0.2188,-0.459,0.6782,1.5739,-4.3635,1.9455,2039
1,0.1243,-0.4868,0.3479,1.4388,-4.3635,2.065,2044
1,0.0454,-0.4351,0.0227,1.9351,-4.3635,1.8853,2044
1,-0.1858,-0.4507,0.2034,2.1981,-4.3635,1.6118,2044
1,-0.3896,-0.7356,0.0808,2.0445,-4.3635,1.8604,2051
1,-0.2078,-0.6453,-0.2612,1.9908,-4.1213,1.8587,2036
1,-0.1763,-0.7144,-0.3464,1.9635,-2.9733,1.7001,2040
1,-0.2136,-1.5706,-0.1816,1.1513,-1.4494,1.8884,2052
1,0.2048,-1.5815,-0.4504,0.1009,-0.4165,2.1647,2040
1,0.9602,-1.5349,-1.0317,-0.2906,0.8313,0.7071,2041
1,1.9999,-1.2468,-0.6123,0.1261,2.3135,-1.4135,2049
1,1.9999,-0.1465,-0.4929,1.0608,1.135,-1.8266,2046
1,1.9985,0.0591,-0.3457,2.3013,0.2429,-1.6068,2040
2,0.9705,0.1211,0.2051,1.6865,-0.4791,-1.0489,2041
2,0.9155,0.1404,0.1584,0.6139,-0.6568,0.869,2039
2,1.5203,-0.4004,0.6558,0.6501,-0.6493,2.0469,2037
2,1.2195,-1.4792,1.1226,-0.4155,-0.6193,1.7018,2036
2,0.2449,-2.0,0.9648,-0.2503,-1.1275,1.0865,2056
2,-0.1128,-1.8633,1.427,-0.7965,-1.1246,1.7191,2044
2,-1.2837,-1.0447,0.6782,-0.9297,-0.8383,0.1647,2033
2,-0.4043,-1.269,0.2698,-1.181,-1.2866,0.2298,2042
2,0.397,-1.0547,-0.0164,-1.1829,-0.758,0.2555,2035
2,0.5811,-0.885,-0.0442,-0.8132,-0.2807,0.4642,2042
2,0.5171,-0.8098,-0.0698,-0.5959,0.0625,0.4482,2044
2,0.5681,-0.7876,-0.1287,-0.5873,0.5733,0.6012,2043
2,0.5444,-0.6821,-0.1843,-0.4916,0.726,0.7223,2042
2,0.291,-0.8887,-0.2205,-0.5854,1.0714,0.9106,2046
2,0.4373,-0.8965,-0.0576,-0.4392,1.0858,1.0013,2035
2,0.3599,-1.0415,-0.1716,-0.3852,0.9082,0.7464,2033
2,0.4238,-1.0337,-0.2354,-0.4373,0.7325,0.7747,2037
2,0.3599,-1.0474,-0.2644,-0.3863,0.4998,0.8115,2048
2,0.3013,-0.9878,-0.1765,-0.2875,0.3454,0.8279,2051
2,0.22,-0.9233,-0.0649,-0.0924,0.438,0.8255,2047
2,0.1726,-0.9702,0.0713,0.0208,0.6525,0.8232,2043
2,0.0513,-0.9824,0.0776,0.0358,1.0088,0.7775,2041
2,-0.0376,-0.9739,0.1228,-0.0289,1.3842,0.8512,2040
2,0.0945,-0.968,0.2322,-0.0682,1.3348,0.9515,2042
2,0.2781,-0.9761,0.3818,-0.1,1.0226,0.8472,2045
2,0.3459,-0.9851,0.3076,-0.2717,0.367,0.7697,2045
2,0.1619,-0.9358,0.1316,-0.3637,-0.1703,0.7572,2035
2,0.0168,-0.8652,-0.0327,-0.3647,-0.3496,0.7275,2044
2,0.0349,-0.9817,-0.1653,-0.4105,-0.3631,0.7328,2040
2,0.0552,-1.0493,-0.325,-0.3693,-0.2594,0.7363,2041
2,-0.0686,-1.0349,-0.3672,-0.2341,0.0049,0.7656,2050
2,-0.2041,-1.064,-0.3115,-0.141,0.3839,0.7817,2049
2,-0.1316,-0.9907,-0.1694,-0.0256,0.7058,0.7767,2048
2,0.0081,-1.0342,0.196,-0.3002,0.9857,0.8128,2045
2,0.1387,-0.896,0.1982,-0.0843,0.434,0.6899,2050
2,0.1516,-0.8652,0.2998,0.0569,-0.0205,0.4871,2057
2,-0.2324,-1.0239,0.6487,-0.2994,-0.2433,-0.4151,2063
2,-0.469,-1.0571,0.5195,-1.08,-0.8424,-0.2844,2046
2,-0.0466,-1.053,-0.0134,-0.5557,-1.1939,0.5871,2040
2,-0.012,-1.0742,0.0171,-0.7228,-1.2415,0.5098,2041
2,0.5862,-0.9336,-0.4873,-0.6332,-0.9901,0.503,2043
2,0.259,-1.0149,-0.6445,-0.1706,0.261,0.3615,2039
2,-0.126,-1.0776,-0.5994,0.024,1.2973,0.261,2044
2,-0.2517,-1.0466,-0.5056,0.2448,1.4596,0.3374,2044
2,-0.2205,-0.9119,-0.2786,0.388,1.3328,0.4224,2040
2,-0.1685,-0.8982,-0.0461,0.4482,1.2138,0.3806,2041
2,0.0005,-0.7637,0.043,0.8004,0.8468,0.718,2039
2,0.0562,-1.0576,0.1536,0.6417,0.7211,0.2848,2048
2,-0.0339,-1.1191,0.2354,0.3165,0.7794,0.1583,2038
2,-0.0325,-1.0688,0.2327,-0.0201,0.8612,0.2915,2044
2,-0.0117,-1.0217,0.1758,-0.1523,0.6529,0.3259,2036
2,-0.0442,-1.0203,0.0811,-0.192,0.2899,0.3452,2045
2,-0.1191,-1.0122,-0.1035,-0.2826,0.082,0.3946,2041
2,-0.094,-0.9668,-0.2388,-0.2844,-0.0212,0.2703,2046
2,-0.0059,-0.9414,-0.3137,0.12,-0.1811,-0.0065,2035
2,-0.0474,-1.0999,-0.054,0.1846,-0.0252,0.0871,2040
2,-0.073,-1.0784,0.2373,-0.13,0.0064,0.2523,2040
2,-0.1462,-1.0652,0.0522,-0.0683,0.0928,0.1164,2050
2,-0.2197,-1.0557,0.1189,0.0775,0.2808,-0.1494,2040
2,-0.1792,-1.0144,0.1819,0.0285,0.2803,-0.2665,2038
2,-0.2009,-1.042,0.1182,0.0324,0.1792,-0.3627,2039
2,-0.4307,-1.0774,0.0845,0.2458,0.1474,-0.6432,2044
2,-0.7993,-1.2029,0.1616,0.295,0.3071,-1.0997,2051
2,-1.2668,-1.3799,0.2019,0.1393,0.7345,-1.5736,2045
2,-1.5574,-1.6567,0.2773,-0.232,1.6294,-1.9273,2048
2,-0.9834,-1.47,0.2031,-0.2882,2.1266,-2.1804,2046
2,-0.4614,-1.2622,0.3757,-0.0016,2.5285,-2.6444,2041
2,-0.0042,-1.0474,0.531,0.2143,2.3412,-2.6309,2045
2,0.1619,-1.1033,0.3254,-0.2413,2.6586,-2.6183,2042
2,0.2463,-0.7917,0.0686,-0.3473,3.0178,-2.3425,2044
2,0.3074,-0.7139,-0.0298,-0.3674,3.3403,-2.0893,2048
2,0.2458,-0.5024,0.2354,0.3243,3.3358,-1.5585,2045
2,0.1365,-0.3359,0.9299,1.0812,2.7381,-1.168,2040
2,-0.0181,-0.7236,1.0781,1.3693,2.1565,-1.3215,2034
2,0.2656,-0.6235,0.884,0.971,2.6018,-1.3003,2045
2,0.8296,-0.3098,0.9548,0.8022,2.5083,-0.7403,2044
2,1.0,-0.553,0.842,1.1693,1.1973,-0.1318,2043
2,1.0,-0.3943,0.8345,1.8821,-0.494,-0.0883,2047
2,1.1152,0.0327,0.8152,2.6338,-2.6402,0.0221,2042
2,1.2656,0.1775,0.7451,3.6061,-4.3635,0.604,2042
2,1.3669,-0.4604,-0.1924,2.5782,-4.3635,1.3533,2049
2,1.9999,-2.0,0.9871,-0.7817,-4.3635,1.9991,2042
2,1.9999,-0.4685,0.2712,4.1691,-4.3635,-1.0009,2060
2,-0.4878,-0.2927,-0.2058,-1.0248,-4.3635,-0.3858,2031
2,-0.6443,0.0923,-1.1909,-3.0858,-4.3635,1.6319,2114
2,0.176,-2.0,-2.0,-2.5822,-3.4704,1.2371,2070
2,-2.0,-2.0,-2.0,-3.684,-1.597,1.4792,2053
2,-2.0,-1.8228,-1.3313,-0.8104,1.7065,1.6018,1922
2,-0.6165,-1.4731,0.1438,1.3884,4.3634,3.0107,2058
2,-0.9485,0.116,1.8005,4.3634,4.1519,4.3634,2035
2,-0.5237,-0.0278,1.8977,1.6291,2.5541,-4.3635,2037
2,1.9999,-1.7473,0.6807,1.4784,0.8903,0.9545,2050
2,1.6804,-1.343,1.9475,-0.3063,2.4559,-0.1494,2038
3,0.8298,-1.0107,0.7822,-2.2804,1.4893,0.4465,2036
3,0.9426,-0.999,-0.1514,-2.0575,-1.0306,1.5585,2047
3,-0.0549,-0.9214,-0.3259,-1.2447,-0.6,-0.388,2058
3,-0.4465,-0.9207,-0.2944,-0.807,-1.1382,0.3445,2012
3,-0.9614,-0.7947,-0.3406,-0.5099,-0.3217,0.7704,2047
3,-0.3132,-0.8511,-0.613,0.194,-0.4369,1.2475,2047
3,-0.1562,-1.1406,-0.1426,0.3324,0.4987,0.7091,2057
3,0.1113,-1.1687,0.0869,0.2037,0.8999,0.3257,1959
3,0.3997,-0.8931,0.0898,0.0172,0.4725,0.3023,2044
3,0.3115,-0.9832,0.1902,-0.1201,-0.2464,-0.1245,2018
3,0.177,-1.0432,0.176,-0.1446,-0.7217,-0.1989,2022
3,-0.0652,-0.9993,0.0867,-0.2583,-0.5484,-0.0915,2041
3,-0.0315,-0.9807,-0.0381,-0.2968,-0.3445,-0.0862,2053
3,0.1472,-0.9983,-0.1663,-0.188,-0.1593,-0.1205,2051
3,0.1233,-0.9812,-0.1265,0.0083,-0.0811,-0.1149,2105
3,0.0828,-0.9609,0.0193,0.1324,-0.0056,-0.1168,2063
3,0.1404,-0.9863,0.1282,0.1462,0.0507,-0.251,2056
3,0.2786,-1.0378,0.1533,0.1111,0.0462,-0.2826,2128
3,0.3037,-1.0088,0.1467,0.1052,-0.0056,-0.2116,2010
3,0.2607,-0.9644,0.0801,0.0145,-0.114,-0.23,2138
3,0.2041,-0.9783,-0.0356,-0.0646,-0.1416,-0.2709,2068
3,0.1248,-0.9893,-0.0469,0.0549,-0.0437,-0.1491,1913
3,0.0574,-1.0269,-0.0752,0.1165,0.0423,-0.0852,2083
3,0.114,-1.0056,-0.0469,0.1469,0.0501,-0.0971,2053
3,0.2239,-0.9778,-0.0471,0.1683,0.0425,-0.1495,2047
3,0.2654,-0.959,0.0105,0.2012,0.0108,-0.1659,2065
3,0.2488,-0.9558,0.054,0.1701,-0.0562,-0.1487,2051
3,0.2336,-0.9624,0.0234,0.1394,-0.0675,-0.1531,1985
3,0.2012,-0.9746,-0.0059,0.1123,-0.0899,-0.1507,2039
3,0.1289,-1.0007,-0.0117,0.0925,-0.1003,-0.0858,2173
3,0.1357,-1.0217,-0.0422,0.0967,-0.073,-0.0924,2044
3,0.2151,-1.0154,-0.0281,0.1752,-0.0233,-0.2139,2100
3,0.2849,-1.0,-0.0442,0.1997,0.0368,-0.2815,2069
3,0.3496,-0.9763,0.0037,0.2344,0.1047,-0.2868,2012
3,0.3975,-0.9497,-0.0166,0.3297,0.1429,-0.2505,1981
3,0.4336,-0.9902,0.0396,0.3932,0.1137,-0.1246,1918
3,0.3499,-1.0347,0.0337,0.4846,0.1489,-0.0001,2077
3,0.2183,-1.012,0.0835,0.5156,0.3151,0.0245,2081
3,0.137,-0.9968,0.1113,0.4597,0.4349,0.0723,1997
3,0.2356,-1.0173,0.1394,0.3577,0.4561,0.1378,2047
3,0.2488,-0.9927,0.1184,0.3156,0.4777,0.1258,2122
3,0.1921,-0.9932,0.1045,0.3129,0.4778,0.1161,2085
3,0.0859,-0.9954,0.1353,0.2894,0.6146,0.0852,2013
3,-0.0137,-0.9697,0.1357,0.2515,0.6469,0.0394,2063
3,-0.0039,-0.9141,0.1763,0.206,0.5709,-0.004,1985
3,0.0327,-0.9224,0.2192,0.1581,0.3563,-0.084,2257
3,-0.0012,-0.9565,0.2012,0.151,0.1954,-0.1724,2189
3,-0.054,-0.9856,0.1926,0.1742,0.1019,-0.2333,2237
3,0.001,-0.9321,0.1594,0.1606,0.0165,-0.2661,2041
3,0.021,-0.9299,0.0916,0.1823,-0.1871,-0.3252,2066
3,-0.1313,-1.0396,0.0645,0.2358,-0.3986,-0.4188,2278
3,-0.2488,-1.0591,0.1453,0.2484,-0.5393,-0.5976,1913
3,-0.147,-1.0691,0.0881,0.2336,-0.4244,-0.6654,2142
3,-0.0181,-1.0176,0.0938,0.243,-0.4454,-0.8476,2038
3,-0.0474,-1.0232,0.0901,0.2674,-0.5036,-1.1571,1944
3,0.0015,-1.0813,0.0806,0.2187,-0.5902,-1.264,2108
3,0.072,-1.0623,0.031,0.2645,-0.4952,-1.297,2122
3,0.0852,-1.0991,0.0342,0.2574,-0.3796,-1.3746,1873
3,0.1174,-1.0635,0.0212,0.2828,-0.3786,-1.4383,2122
3,0.0781,-1.0603,-0.0537,0.2653,-0.0914,-1.5149,2012
3,0.1367,-1.0583,-0.0154,0.2478,0.0851,-1.5384,2264
3,0.2273,-1.0527,0.0427,0.2831,0.0952,-1.4494,1950
3,0.282,-1.0422,0.0859,0.3585,0.142,-1.3711,2239
3,0.3071,-0.9878,0.1138,0.3622,0.2211,-1.4131,1869
3,0.3696,-0.9907,0.1001,0.3205,0.2639,-1.3326,1895
3,0.3823,-1.0347,0.1147,0.2847,0.3462,-1.3448,1642
3,0.3687,-1.0146,0.2717,0.3136,0.5456,-1.3477,2071
3,0.4724,-1.0215,0.3079,0.3836,0.3044,-1.2781,1806
3,0.4697,-1.0974,0.3984,0.3611,0.2052,-1.2766,2120
3,0.4641,-1.1084,0.3833,0.3462,0.1483,-1.2793,2084
3,0.467,-1.1194,0.3435,0.3408,0.0754,-1.2299,2005
3,0.3586,-1.0681,0.3123,0.3033,0.1659,-1.2769,2077
3,0.2678,-1.0676,0.3054,0.2726,0.2254,-1.2872,2269
3,0.2935,-1.0779,0.2915,0.2502,0.3143,-1.3334,2042
3,0.2278,-1.0513,0.3254,0.2141,0.3518,-1.3764,1959
3,0.2136,-1.0488,0.3706,0.1133,0.5108,-1.4553,2088
3,0.23,-1.0374,0.3394,0.1228,0.4778,-1.4577,2102
3,0.228,-1.0212,0.3057,0.0622,0.547,-1.5468,1973
3,0.1768,-1.0339,0.2776,0.0188,0.6462,-1.7008,2071
3,0.2012,-1.0603,0.2705,-0.0284,0.5938,-1.7717,2125
3,0.1599,-1.0334,0.2344,-0.0803,0.3932,-1.9101,2078
3,0.1355,-1.0803,0.2129,-0.0218,0.3618,-1.9691,2048
3,-0.1094,-1.0889,0.1265,0.0064,0.3819,-2.1011,2049
3,-0.1575,-1.0349,0.0686,0.0787,0.3277,-1.9761,2014
3,0.0378,-1.1479,0.1008,-0.055,0.2667,-1.7696,2041
3,-0.1038,-0.9321,0.1416,-0.2365,0.3409,-2.043,2036
3,0.4253,-0.9641,0.0388,-0.1234,0.102,-1.9761,2069
3,0.2554,-1.1799,0.1223,-0.0742,-0.0796,-1.9805,2058
3,0.0452,-1.1013,0.0967,-0.1762,0.0131,-2.0979,2033
3,0.0803,-1.2,0.041,-0.2618,0.133,-2.0503,2044
3,0.1965,-1.144,-0.0186,-0.1823,0.3791,-2.2337,2030
3,0.4082,-1.2861,-0.1025,-0.0917,0.4169,-2.3393,2051
3,0.49,-1.4421,-0.1262,-0.035,0.4148,-2.3856,2042
3,0.2493,-1.2935,-0.1641,0.1001,0.6434,-2.4979,2042
3,0.1877,-0.9399,-0.1008,0.2876,0.9047,-2.6027,2038
3,0.262,-0.5259,-0.0129,0.4489,0.667,-2.5557,2040
3,0.1797,0.0793,-0.1506,0.7441,0.1691,-2.0152,2046
3,0.2898,-0.366,-0.3071,0.4318,0.5355,-0.965,2050
3,1.135,-0.9424,-0.2878,0.8019,0.6444,-0.9994,2051
3,1.4341,-0.9226,0.0798,1.0946,-0.057,-0.9251,2047
3,1.3403,-1.1875,0.5544,-0.1246,0.3394,-0.6496,2036
3,1.4387,-1.1006,0.2415,-0.8375,0.4404,-0.1792,2039
3,1.1907,-0.7444,0.0081,-1.0222,0.0348,0.1538,2042
3,0.7212,-0.3423,-0.1167,-0.6947,-0.4368,-0.0273,2048
3,0.72,-0.0999,-0.1077,-0.0567,-0.7721,0.7208,2040
3,0.9353,-0.0447,-0.1814,1.0148,-0.917,2.6879,2043
3,-0.0225,-0.3943,0.1062,1.7853,0.7941,3.1246,2048
3,-0.2898,-1.0593,0.835,0.7156,0.3392,2.0658,2038
3,0.0754,-1.0037,0.6497,-1.1134,-1.6215,2.6962,2050
3,0.2485,-0.48,-0.0127,-1.1982,-2.013,3.1072,2044
3,0.3638,-0.3564,-0.0906,-0.4023,-2.0409,3.0688,2035
3,0.4685,-0.5632,0.0923,0.1607,-1.8768,2.9976,2045
4,0.95,-0.7454,0.3882,-0.0826,-1.5119,3.6731,2044
4,0.6367,-0.7402,0.2468,0.1728,-1.4316,3.5296,2042
4,0.282,-0.4441,0.2246,0.0995,-0.6944,3.2452,2046
4,0.0505,-0.731,0.1179,-0.0325,-0.4711,3.2931,2045
4,0.301,-0.5393,0.0569,-0.4159,-0.6866,4.1873,2045
4,0.2043,-0.5076,-0.0403,-0.5718,-0.6381,4.3634,2042
4,0.1653,-0.6672,0.0146,-0.6216,-0.3088,4.3634,2041
4,0.2043,-0.7727,0.0391,-0.5239,-0.0583,4.3634,2042
4,0.2434,-0.7834,-0.031,-0.4129,0.0969,4.3634,2046
4,0.2646,-0.7739,-0.0671,-0.414,0.1595,4.3634,2040
4,0.2561,-0.8025,-0.1052,-0.4172,0.2818,4.3634,2047
4,0.3276,-0.8948,-0.1392,-0.4445,0.6221,4.3634,2045
4,0.5078,-0.9011,-0.1353,-0.4015,1.0452,4.3634,2042
4,0.6589,-0.875,-0.127,-0.3269,1.4253,4.3634,2044
4,0.7776,-0.9783,-0.1414,-0.404,1.6536,4.3634,2041
4,0.563,-2.0,0.4656,-3.0918,2.5816,4.3634,2044
4,0.6423,-0.2141,-1.1865,-0.7024,0.2067,4.3634,2042
4,1.9999,-0.5383,0.0525,2.3653,1.1721,2.2626,2039
4,1.9999,-1.9443,1.9999,1.4199,1.6675,2.069,2047
4,-1.3333,-1.4353,1.4668,-3.8645,0.1269,0.2609,2031
4,1.9999,-0.2236,-1.9592,-1.0401,-1.9411,4.065,2044
4,1.4048,-0.3669,0.6018,0.6992,-1.5211,1.152,2047
4,1.4319,-1.2949,1.6167,-0.4902,-0.5333,-0.8451,2044
4,1.9999,-1.0378,0.8533,0.1643,-1.4767,-0.5006,2036
4,1.9999,-0.8906,1.1685,1.2234,-2.4743,-0.3822,2045
4,0.0376,-1.0759,1.9999,2.8628,-2.3117,-0.9958,2043
4,-1.3989,-1.6809,1.4585,0.5337,-1.9636,0.532,2042
4,-2.0,-2.0,-0.2444,-2.2764,-3.9231,0.8004,2028
4,-0.4536,-2.0,-0.3237,-4.1036,-3.9327,-1.6621,2043
4,1.9999,-1.7871,-0.5183,-4.0599,-2.4864,-1.1632,2050
4,1.2197,1.1973,0.0181,0.5553,-1.707,-3.1576,2068
4,0.2483,0.1233,0.188,0.5537,-0.5719,-2.4369,2026
4,0.4761,-1.0195,-0.5793,-0.7127,-0.8566,1.1121,2051
4,-0.5767,-1.8933,-0.6218,-0.7112,-0.4107,-0.8428,2047
4,-0.1604,-1.1328,-0.2625,0.6437,0.8843,-1.2085,1993
4,-0.3081,-0.552,0.3904,0.4727,3.4552,-0.2004,2017
4,0.0857,-0.6919,0.4612,0.5163,3.3472,-0.3766,2041
4,0.5698,-1.2158,0.7437,-0.2448,0.2029,-0.685,2046
4,1.0439,-1.0989,0.2061,-0.4292,-0.2772,-0.5259,2043
4,0.9539,-1.1245,0.0039,-0.4983,-1.26,-0.6921,2079
4,0.2888,-1.063,-0.2539,-0.5742,-1.3715,-0.4172,2055
4,-0.6157,-1.0864,-0.1572,-1.0571,-1.4279,-0.8419,1955
4,-0.1731,-0.9863,-0.4434,-0.6946,-0.7942,0.0341,2044
4,-0.439,-0.8987,-0.3347,-0.2208,0.1129,-0.2009,2059
4,-0.3242,-0.9971,-0.1663,-0.087,0.2554,-0.5578,2042
4,-0.0815,-1.0583,-0.158,0.0565,0.6787,-0.7767,2071
4,0.1697,-1.094,0.0098,0.0912,0.6185,-0.8051,2027
4,0.4492,-1.0173,0.1277,0.0618,0.459,-0.6084,2051
4,0.5474,-0.9617,0.1677,-0.0141,0.1208,-0.5673,2035
4,0.4702,-0.9949,0.1602,-0.0478,-0.2617,-0.5026,2031
4,0.2725,-0.9839,0.0447,0.0461,-0.502,-0.3998,2068
4,0.0735,-0.9932,-0.0139,0.0759,-0.6203,-0.4536,2046
4,-0.0593,-0.9766,-0.1538,0.1591,-0.4354,-0.4749,2021
4,-0.114,-0.998,-0.1465,0.1824,-0.091,-0.5461,2044
4,0.0242,-1.0117,-0.051,0.1168,0.1085,-0.5192,2042
4,0.2368,-0.9761,-0.033,0.0843,0.2354,-0.4594,2062
4,0.2991,-0.9612,0.0403,0.0684,0.1164,-0.4715,2063
4,0.3091,-0.9529,0.0151,0.1429,-0.0497,-0.4385,2175
4,0.2214,-0.9568,-0.0017,0.3119,-0.11,-0.4309,2012
4,0.1663,-1.0012,0.0293,0.371,-0.0754,-0.4212,2067
4,0.1492,-1.0161,0.0205,0.3585,-0.092,-0.3911,2037
4,0.1936,-1.0107,0.0315,0.3006,-0.0075,-0.3789,2021
4,0.2273,-0.9902,0.0037,0.2687,-0.0602,-0.3642,2132
4,0.199,-0.989,-0.0188,0.2968,-0.0557,-0.3721,2056
4,0.1543,-1.0164,0.0261,0.297,-0.0433,-0.3944,2033
4,0.0813,-1.0015,0.0471,0.2642,-0.0049,-0.4096,2049
4,0.0825,-1.0159,0.0779,0.1627,0.0682,-0.435,2057
4,0.0793,-0.989,0.0552,0.1103,0.069,-0.4633,2034
4,0.0327,-0.9954,0.0469,0.0597,0.0811,-0.5173,2016
4,-0.0105,-0.9961,0.0466,0.0166,0.0614,-0.581,2055
4,-0.0481,-0.9785,0.0488,0.0064,0.0916,-0.6694,1968
4,-0.0903,-0.98,0.0769,-0.0142,0.0691,-0.7689,2218
4,0.0,-1.001,-0.0115,0.0005,0.1016,-0.8395,2135
4,-0.115,-1.0396,0.0789,0.0706,0.0642,-1.018,2140
4,-0.1487,-1.0559,0.0383,0.0736,0.0502,-1.1242,1989
4,-0.1494,-1.0432,-0.0002,0.1024,-0.0289,-1.2873,2050
4,-0.228,-1.0063,0.0334,0.1578,-0.1372,-1.4552,2026
4,0.6086,-0.7556,0.0762,-0.1507,-0.0806,-0.853,2022
4,-0.2729,-1.0796,0.0293,0.1164,-0.7192,-2.2137,1970
4,-0.1416,-1.2576,-0.0676,0.1708,-0.8674,-1.9784,2011
4,0.0032,-1.1538,-0.0874,0.1364,-0.7405,-2.0944,1954
4,-0.0027,-1.2043,-0.0886,0.0115,-0.5863,-2.2696,2065
4,0.0623,-1.177,-0.0745,0.0117,-0.422,-2.4645,2039
4,0.1938,-1.1846,0.0759,0.002,-0.1874,-2.3028,2050
4,0.2766,-1.1633,0.1384,-0.0057,-0.0427,-2.2276,2050
4,0.4258,-1.2869,0.1304,-0.0744,0.159,-2.055,2039
4,0.5823,-1.229,0.2598,0.0907,0.026,-1.9761,2129
4,0.385,-1.418,0.3286,-0.0314,0.1445,-2.0873,2024
4,0.082,-1.3621,0.3794,-0.108,0.4036,-2.1487,2017
4,0.0225,-1.3171,0.4048,-0.1928,0.432,-2.171,2048
4,0.1272,-1.3892,0.3977,-0.3092,0.346,-2.3089,2043
4,0.1135,-1.4209,0.4268,-0.3682,0.3995,-2.3085,2042
4,0.021,-1.3423,0.4766,-0.4737,0.6929,-2.2782,2049
4,-0.0564,-1.2773,0.4709,-0.5597,0.993,-2.2567,2058
5,-0.0791,-1.2134,0.4312,-0.5397,1.1702,-2.3674,2063
5,-0.0022,-1.2124,0.4141,-0.539,1.2533,-2.536,2080
5,-0.0337,-1.177,0.3064,-0.5955,1.2942,-2.6302,2047
5,0.0,-1.2236,0.3652,-0.7958,1.4005,-2.6955,2066
5,0.1653,-1.1199,0.2131,-0.9533,1.549,-2.7988,2046
5,0.3198,-1.1438,0.1448,-0.8753,2.0688,-2.7777,2046
5,0.4246,-1.0725,0.1289,-0.8433,2.681,-2.634,2043
5,0.5029,-0.8545,0.1687,-0.7722,2.9893,-2.6918,2041
5,0.5945,-0.7195,0.2051,-0.6538,3.0608,-2.6602,2043
5,0.6824,-0.6572,0.1445,-0.7096,2.8042,-2.5474,2042
5,0.425,-0.9556,0.2202,-1.8257,3.3258,-2.3422,2046
5,0.9644,0.1338,-0.1445,-1.0212,2.6235,-2.2578,2046
5,0.6597,-0.0581,0.3491,-0.2804,2.4806,-1.8945,2045
5,-1.7859,-0.5571,0.5393,-3.5691,0.5168,-4.3635,2037
5,0.6799,0.3218,-0.6833,-0.4879,1.4454,-2.1707,2036
5,1.7424,0.2,-0.6799,-0.0593,1.6906,0.3883,2048
5,1.1682,-0.6726,0.3574,-1.5243,2.5526,0.4635,2051
5,0.9033,-0.5977,0.5352,-2.1643,3.3689,-0.0027,2036
5,1.2749,-0.5171,0.2483,-1.5371,3.5749,0.2233,2038
5,1.4983,-0.3296,-0.135,-1.2343,2.7799,0.5564,2042
5,1.1292,-0.188,-0.1882,-1.3055,1.5026,1.37,2045
5,0.9802,-0.1274,-0.1038,-1.0207,0.8862,2.2474,2044
5,0.8252,-0.3254,0.094,-0.5646,0.8253,2.8408,2048
5,0.6262,-0.2065,0.2295,0.0834,0.7147,3.4985,2044
5,0.4973,-0.2947,0.4111,0.545,-0.2611,3.4335,2036
5,0.3552,-0.384,0.5342,0.0931,-1.6755,3.301,2045
5,-0.0718,-0.3008,0.353,0.1328,-2.3772,3.203,2044
5,-0.1172,-0.4751,0.3213,0.2412,-1.7612,3.0195,2042
5,0.0916,-0.6458,0.3708,0.2503,-1.2294,3.1782,2045
5,0.3223,-0.6697,0.3594,0.0968,-0.7273,3.2802,2045
5,0.5574,-0.624,0.3975,0.1241,-0.3767,3.4138,2042
5,1.0764,-0.2964,0.4189,0.2898,-0.1963,4.3549,2040
5,-0.1626,-0.7051,0.481,0.497,0.3613,2.2354,2044
5,0.1316,-0.8071,0.5278,0.4433,-0.4176,3.4477,2047
5,0.3433,-0.6074,0.4817,-0.0916,-0.9247,4.2371,2042
5,0.3123,-0.7002,0.3906,-0.1589,-0.9477,4.1459,2041
5,0.323,-0.8196,0.3762,0.1743,-1.0817,4.0323,2041
5,0.4143,-0.8857,0.334,0.454,-1.2749,3.8404,2044
5,0.4014,-0.8628,0.2617,0.5464,-1.3547,3.8412,2038
5,0.5137,-0.8699,0.2256,0.4681,-1.5576,4.1832,2042
5,0.5835,-1.0198,0.1951,0.5008,-1.3828,4.3137,2046
5,0.7444,-0.9509,0.3071,1.1144,-1.012,4.0423,2039
5,0.3677,-2.0,0.7183,0.1216,-0.2694,4.3634,2041
5,0.2397,-1.3613,0.1536,-0.7755,-0.6895,4.3634,2047
5,0.3267,-0.4414,-0.1665,-0.4225,0.3726,2.8649,2041
5,-0.5403,-1.3608,0.8943,0.1975,0.514,0.5677,2049
5,1.6848,-0.8892,-0.1177,2.4772,-2.2324,1.9313,2038
5,0.0981,-2.0,1.1792,-1.2216,-1.2645,1.5584,2041
5,0.5022,-0.5898,-0.5952,-0.2839,-3.0012,2.4862,2038
5,1.0613,-1.2634,0.0308,1.1014,-2.4491,2.635,2044
5,0.8733,-1.623,0.7634,0.1246,-1.1734,1.519,2043
5,0.5442,-1.1787,0.0984,-0.5935,-0.4959,0.5173,2041
5,0.8601,-1.1594,-0.4294,-0.3324,-0.9131,-0.4413,2041
5,1.1077,-1.1279,-0.1716,0.0346,-1.6008,-0.9842,2044
5,1.1704,-1.2847,0.1262,-0.137,-1.4691,-1.6699,2044
5,0.8882,-0.4443,0.0659,0.087,-0.8327,-2.0714,2043
5,0.4871,-1.0376,0.2136,0.0486,-0.0446,-1.6426,2048
5,-0.0806,-1.188,0.2439,0.0582,0.3976,-1.4279,2044
5,-0.5701,-0.6804,0.2429,0.2984,0.1459,-1.4704,2040
5,-0.5344,-0.6953,0.46,0.0502,-0.4368,-0.7718,2041
5,-0.3037,-0.8643,0.5129,-0.5071,-1.0251,-0.2617,2044
5,0.0532,-0.9297,0.5281,-0.92,-0.4204,-0.7806,2042
5,0.103,-0.9741,0.3333,-0.9453,-0.2057,-0.8834,2048
5,0.6396,-1.0256,0.1704,-0.8554,-1.3181,-0.8449,2047
5,1.1067,-0.7063,-0.1157,-0.8104,-2.7109,-0.608,2041
5,0.9182,-0.8735,-0.1509,-0.5181,-2.7743,-0.9268,2040
5,0.7573,-1.0671,0.0461,0.0831,-2.6055,-0.934,2042
5,0.5112,-1.0681,0.2209,-0.2719,-2.384,-0.6485,2036
5,-0.1067,-0.937,0.3047,-0.7941,-1.1676,-0.571,2044
5,-0.2334,-0.7378,0.1252,-0.443,-1.2029,-0.8086,2115
5,-0.0637,-1.0776,0.0105,-0.3774,-0.7288,-0.9146,2046
5,0.4897,-1.177,0.1392,-1.0244,0.2107,-0.5902,2050
5,0.6523,-0.9238,0.2708,-0.7689,-0.0453,-0.5343,2032
5,0.7268,-0.9702,0.2141,-0.2663,-0.4433,-0.56,2046
5,0.6836,-0.8696,0.0586,-0.1926,-0.4011,-0.752,2047
5,0.7048,-0.9224,-0.0312,-0.4583,-0.3871,-0.5305,2023
5,0.6597,-1.071,-0.0334,-0.7447,-0.208,-0.1414,2038
5,0.4861,-1.0667,-0.095,-0.7821,-0.1736,0.0084,2014
5,0.3767,-0.9268,-0.1028,-0.5715,-0.3127,0.0435,2049
5,0.405,-0.9109,-0.0793,-0.3938,-0.4352,-0.0007,2048
5,0.3679,-0.9512,-0.0923,-0.3095,-0.3119,-0.0587,2061
5,0.2297,-0.9417,0.0312,-0.29,-0.1968,0.0487,2077
5,0.1577,-0.9519,0.1284,-0.2884,-0.1329,0.1321,2035
5,0.1929,-0.9731,0.1316,-0.3248,-0.2148,0.0762,2047
5,0.2136,-0.9995,0.0984,-0.3779,-0.177,-0.0237,2044
5,0.1926,-1.0049,0.0439,-0.398,-0.1366,-0.1209,2013
5,0.2078,-0.9929,-0.0222,-0.3856,-0.178,-0.2027,2102
5,0.21,-1.0061,-0.0503,-0.3445,-0.1973,-0.2093,1976
5,0.1741,-1.0154,-0.0615,-0.3614,-0.1075,-0.1846,2036
5,0.1257,-1.0088,-0.0476,-0.3473,0.0286,-0.1863,2038
5,0.1282,-0.9871,-0.0591,-0.2908,0.1163,-0.2378,2058
6,0.2375,-0.9758,-0.0291,-0.2325,0.0698,-0.2485,2046
6,0.3174,-0.9951,-0.0281,-0.2139,-0.0132,-0.2859,2084
6,0.3074,-0.9846,-0.0415,-0.2191,-0.1273,-0.2698,2021
6,0.2141,-0.9885,-0.0645,-0.2254,-0.2661,-0.2858,1991
6,0.1494,-1.01,-0.0979,-0.169,-0.2618,-0.3302,2064
6,0.0981,-0.9983,-0.0557,-0.0752,-0.1799,-0.4054,2043
6,0.1157,-0.9802,-0.0474,-0.0158,-0.1204,-0.4538,2062
6,0.1736,-0.9868,-0.0286,0.0169,-0.0752,-0.5151,2019
6,0.2085,-1.0076,0.0291,0.0165,0.0831,-0.5117,2002
6,0.2922,-0.9617,0.0586,-0.0426,0.1731,-0.4586,2058
6,0.3262,-0.9595,0.0999,-0.0842,0.092,-0.4755,2108
6,0.3088,-0.9705,0.063,-0.0656,0.0388,-0.4958,2092
6,0.291,-0.9495,0.0801,-0.0803,0.068,-0.4721,2042
6,0.2942,-0.9231,0.0232,-0.1104,0.0976,-0.4651,1905
6,0.2915,-0.9314,-0.0234,-0.0915,0.0462,-0.4858,2085
6,0.207,-0.9734,-0.0859,-0.0731,0.0494,-0.4823,1802
6,0.1821,-0.9717,-0.0269,0.0093,0.085,-0.4597,2181
6,0.1738,-0.9817,-0.0154,-0.0107,0.0981,-0.4623,2114
6,0.2324,-1.0134,0.0073,-0.0304,0.072,-0.4829,1959
6,0.2969,-1.0105,-0.0024,-0.0457,0.0975,-0.4979,1930
6,0.3008,-0.98,0.0,0.0144,0.12,-0.537,1984
6,0.2864,-0.9656,-0.0132,0.0494,0.1768,-0.5228,2031
6,0.2686,-0.9905,-0.0173,0.0835,0.1698,-0.556,1952
6,0.2454,-1.0217,0.0139,0.1035,0.1973,-0.6609,2084
6,0.1777,-1.0408,0.0071,0.0892,0.214,-0.736,2197
6,0.0002,-1.0269,-0.0457,0.0449,0.1702,-0.8838,2160
6,-0.0601,-1.0994,0.0061,-0.0044,0.1184,-1.0018,1845
6,-0.0696,-1.1042,-0.0212,-0.0117,0.1662,-1.1794,2125
6,-0.0588,-1.1179,0.0146,-0.0463,0.1442,-1.3866,2009
6,-0.0371,-1.1887,0.0459,-0.0582,0.0846,-1.5571,1982
6,-0.0793,-1.2573,0.0642,-0.077,0.0206,-1.7393,2018
6,0.0305,-1.261,-0.0256,-0.1543,0.1181,-1.8168,2151
6,0.0547,-1.2412,0.093,-0.0722,0.0131,-1.9365,2024
6,0.1321,-1.3755,0.1116,-0.1764,0.0927,-2.0401,1982
6,0.1177,-1.4866,0.1602,-0.193,0.1748,-2.1567,2148
6,0.0776,-1.4873,0.2002,-0.2682,0.3112,-2.1615,2032
6,0.1292,-1.5747,0.2737,-0.3706,0.4153,-2.1784,2056
6,0.1206,-1.5259,0.3425,-0.418,0.4554,-2.21,2083
6,0.1064,-1.49,0.4194,-0.492,0.5626,-2.3047,2032
6,0.1057,-1.4961,0.5327,-0.514,0.616,-2.3256,1998
6,0.0491,-1.6714,0.5811,-0.5149,0.7413,-2.6314,2009
6,-0.4043,-1.7722,0.6665,-0.8328,1.1737,-2.757,2045
6,-0.865,-1.8369,0.5876,-1.3001,1.3484,-2.7797,2043
6,-0.7952,-1.7922,0.3608,-1.5032,1.5941,-3.1958,2033
6,-0.7886,-1.6772,0.2466,-1.4954,2.1088,-3.9024,2043
6,-0.5427,-1.8396,0.281,-1.4697,2.5959,-3.4762,2045
6,-0.4419,-1.7251,0.1294,-1.4876,3.3436,-2.8943,2030
6,0.0171,-1.2036,0.0247,-1.3318,4.2141,-3.8404,2041
6,0.3909,-0.9062,0.4136,-1.1794,4.3634,-3.9215,2042
6,-0.2078,-1.8865,0.2798,-0.94,3.0376,-3.9384,2046
6,1.1567,-1.2322,0.5479,-3.3914,1.6435,-3.8793,2048
6,0.5847,-0.5881,-0.1274,-1.6223,1.7452,-4.3635,2050
6,-1.605,1.0471,-0.0234,1.1682,2.1682,-4.0302,2037
6,0.0037,-0.2415,-0.4592,-0.6072,3.1841,-1.5185,2036
6,1.9999,-1.5605,-0.8569,-1.1923,1.7828,-0.7838,2063
6,1.7983,-0.7087,0.2668,-0.4156,0.9191,-1.2426,2040
6,1.7434,-0.6809,0.8774,-1.188,2.1975,-0.4548,2039
6,1.7551,-0.3816,0.634,-1.8435,2.8047,0.3751,2039
6,1.2217,0.0806,-0.074,-1.5733,1.915,0.693,2045
6,0.6194,0.1104,-0.3538,-1.2053,0.5855,1.4612,2046
6,0.7903,0.5845,-0.5127,-0.0795,-0.3807,3.0325,2045
6,0.7737,0.4197,0.0259,0.9401,-1.008,4.3634,2046
6,0.1418,-0.0557,0.3445,1.038,-1.7351,4.3634,2036
6,-0.4846,-0.8059,0.5669,-0.0615,-2.0102,3.5557,2042
6,-0.3704,-0.9221,0.3289,-0.9902,-2.324,3.927,2046
6,-0.1538,-0.5649,-0.0479,-1.2497,-1.9754,4.2575,2047
6,0.2598,-0.188,-0.1697,-0.8775,-1.699,4.0655,2041
6,0.6279,-0.1411,-0.1924,-0.3325,-1.7385,4.0474,2044
6,0.686,-0.3621,-0.1199,0.1779,-1.7468,4.1295,2041
6,0.5986,-0.5574,-0.0593,0.2534,-1.5528,4.3634,2041
6,0.6475,-0.4065,0.0193,0.1617,-1.437,4.3634,2042
6,0.8879,-0.2327,0.1936,0.3661,-1.4785,4.3634,2044
6,0.4783,-0.1892,0.1965,0.4743,-1.538,4.3634,2047
6,0.0869,-0.5962,0.0918,0.3902,-1.5259,4.3634,2041
6,0.0032,-0.7739,-0.1028,0.1325,-1.6697,4.3634,2041
6,-0.0591,-0.7498,-0.4072,-0.1494,-1.6133,4.3634,2045
6,-0.158,-0.6807,-0.6704,0.0796,-1.2616,4.3634,2046
6,-0.0212,-0.7292,-0.6487,0.6339,-0.9833,4.3634,2043
6,0.2285,-0.9409,-0.615,0.9752,-0.5888,4.3634,2043
6,0.5374,-1.1758,-0.5107,0.9902,-0.1511,4.3634,2039
6,0.7561,-1.2131,-0.3303,1.0423,0.3219,4.3634,2046
6,0.6914,-1.2048,-0.1907,0.803,0.9154,4.3634,2039
6,-0.1174,-2.0,-0.7271,-2.4637,1.2362,4.3634,2048
6,0.5664,-0.2061,-1.7095,0.5241,0.1762,3.8897,2036
6,1.9999,-0.9988,-0.0225,3.3156,2.4964,1.8346,2044
6,1.697,-2.0,1.9999,-0.2249,1.6153,1.1093,2039
6,1.9819,-2.0,-0.5867,-2.4614,-0.0633,1.3011,2026
6,1.9999,0.1604,-1.3667,-0.5947,-3.2686,1.7402,2038
6,1.8484,-0.9653,1.1074,-0.6899,-2.5795,-0.6432,2034
6,1.6865,-1.2346,0.894,-0.1147,-1.5809,-1.2264,2044
6,1.8289,-1.5767,0.2202,1.2186,-1.372,-1.7206,2038
6,1.6304,-2.0,1.9999,3.5587,-1.7948,-2.5201,2049
6,-0.9531,-2.0,1.9999,0.3943,-2.8341,-1.2817,2032
6,-2.0,-1.6396,0.1868,-2.1161,-4.1596,0.0711,2040
6,-1.4653,-0.4368,-0.7737,-0.1547,-3.0919,-1.6235,2032
6,-0.5562,-0.5647,0.8691,-0.6986,-1.7061,-4.3635,2040
6,1.9999,-0.342,0.762,-0.9553,-1.187,-3.0289,2042
6,1.9999,-1.3533,-0.873,-2.9336,-3.4608,-0.9258,2048
6,1.1682,-0.9265,-1.2424,-2.1611,-2.5488,-1.5752,2050
6,0.5527,-0.3259,0.5293,0.9576,1.2892,-2.1646,2038
6,-0.4297,-0.7595,0.2681,0.903,4.3634,-1.0903,2039
6,-0.0896,-1.8643,0.5615,-2.3306,2.327,-0.7601,2047
6,0.8799,-0.9602,-0.8613,-2.2738,1.9422,-0.3504,2049
6,1.335,-0.3892,-0.5259,-0.5742,0.9098,-1.4225,2046
6,0.7625,-0.7275,-0.2231,-0.4171,-0.2779,-1.4889,2042
6,0.5754,-1.262,-0.1443,-0.7986,-0.5449,-1.1465,2021
6,0.8523,-1.0095,-0.1021,-0.4256,-0.5335,-0.6831,2049
6,0.5654,-0.8994,-0.0901,-0.3127,-0.8321,-0.5327,1981
6,0.2202,-0.969,-0.1953,-0.5144,-0.422,-0.3996,2022
6,0.0398,-1.0364,-0.0759,-0.4951,-0.1184,-0.2827,1995
6,0.1316,-1.0916,-0.1335,-0.4757,0.1884,-0.4308,2062
6,0.2461,-1.0759,-0.0422,-0.235,0.1931,-0.6292,2047
6,0.4998,-1.0588,-0.0461,-0.1132,0.2181,-0.7063,2050
6,0.5515,-1.0471,-0.0491,-0.0614,0.0499,-0.594,2055
6,0.5554,-1.0508,-0.0398,-0.1579,0.0095,-0.4514,2044
6,0.5154,-1.0093,-0.1101,-0.2594,-0.1077,-0.2349,1984
6,0.3892,-0.9878,-0.1729,-0.2605,-0.2559,-0.1069,2049
6,0.1934,-0.9604,-0.3181,-0.0846,-0.2811,-0.1289,2039
6,-0.0146,-0.9341,-0.2886,0.1754,-0.085,-0.2238,2056
6,-0.115,-0.8625,-0.2878,0.3281,0.0129,-0.2979,2032
6,0.0674,-0.9568,-0.1895,0.4315,0.3276,-0.3658,1974
7,0.3181,-1.0508,-0.1516,0.3485,0.4191,-0.2333,2067
7,0.155,-1.0415,-0.0486,0.3796,0.5301,-0.243,2078
7,0.2903,-1.0105,-0.0056,0.3241,0.5078,-0.1665,2066
7,0.4246,-1.0237,-0.0088,0.302,0.1125,-0.3545,1982
7,0.426,-0.99,0.0076,0.2242,0.1606,-0.4135,1925
7,0.1028,-1.085,0.0188,0.2772,-0.0268,-0.4394,2124
7,-0.158,-1.1555,0.072,0.043,0.2091,-0.2766,2084
7,-0.2834,-0.8804,0.2168,-0.0735,0.4894,-0.5786,1922
7,-0.1411,-0.8884,0.2896,-0.2956,0.422,-0.509,1942
7,0.0647,-0.9746,0.1707,-0.3745,0.3148,-0.541,2131
7,0.2024,-0.9949,0.1846,-0.2772,0.1727,-0.7195,2220
7,0.1133,-1.0308,0.0469,-0.2477,-0.0957,-0.913,2073
7,-0.1716,-1.0835,0.0229,-0.2312,-0.1441,-1.0368,2137
7,-0.3086,-1.0962,-0.1489,-0.2057,-0.1442,-1.1519,2070
7,-0.4675,-1.0918,-0.1672,-0.2413,-0.1176,-1.4502,2180
7,-0.364,-1.1833,-0.1692,-0.253,0.0037,-1.642,2147
7,0.0974,-1.1624,0.0786,-0.3093,0.0064,-1.7423,2182
7,-0.2312,-1.2449,-0.085,-0.2414,-0.0523,-2.3949,2262
7,-0.27,-1.4363,0.0029,-0.1237,-0.4757,-2.3716,2141
7,-0.2043,-1.323,-0.0693,-0.3009,-0.0017,-2.4091,1902
7,-0.1536,-1.3711,0.2095,-0.3112,0.0579,-2.6822,1871
7,0.0547,-1.52,0.2419,-0.2639,-0.0647,-2.7119,2304
7,0.02,-1.5593,0.2988,-0.2619,-0.0771,-2.8657,2072
7,-0.0293,-1.4971,0.3899,-0.28,-0.155,-2.8388,2075
7,-0.0723,-1.5757,0.4878,-0.2942,-0.1372,-2.9949,2043
7,-0.0908,-1.6992,0.4558,-0.2808,-0.2779,-3.1813,2072
7,-0.2356,-2.0,0.4529,-0.304,-0.3787,-3.4388,2045
7,-0.8416,-2.0,0.5293,-0.5071,0.1232,-3.6699,2047
7,-1.4573,-2.0,0.7271,-0.7857,0.9465,-3.9711,2040
7,-2.0,-2.0,1.1172,-1.5247,2.8685,-4.2744,2042
7,-2.0,-2.0,1.054,-2.1318,4.3309,-4.1864,2052
7,-1.2881,-2.0,0.7168,-1.956,4.3634,-4.1584,2035
7,0.4248,-1.1567,0.0632,-1.8058,4.3634,-4.3514,2039
7,1.4172,-1.6055,-0.2781,-0.9895,3.9747,-4.3635,2044
7,1.6421,-1.583,-0.1382,-0.5687,3.2202,-4.3635,2043
7,1.9194,-0.8054,0.3606,0.9741,3.052,-4.3635,2038
7,-0.3506,-2.0,1.9999,-0.987,-0.6312,-4.3635,2048
7,0.6062,-0.1321,-0.3303,2.6691,-1.3964,-4.3635,2049
7,-1.7048,0.5337,-0.5315,0.3654,0.4923,-1.764,2032
7,1.9634,-2.0,-1.2581,-2.9998,-0.3398,-0.0482,2060
7,1.5503,-1.093,0.2666,-1.7013,1.0561,-1.7965,2051
7,1.751,-0.6831,0.3423,-1.1991,3.8494,-0.959,2034
7,1.9822,-0.1421,0.323,-1.5684,3.4938,0.0543,2040
7,1.3325,0.3127,-0.3938,-1.1662,1.8089,0.7893,2040
7,0.6414,0.4617,-0.6445,-0.4615,0.3153,1.854,2047
7,1.2275,0.8535,-0.6165,1.3015,-1.4512,3.8546,2040
7,1.0066,0.3884,-0.104,2.862,-2.739,4.3634,2043
7,-0.2737,-0.0583,0.5208,1.6001,-2.4638,4.066,2039
7,-0.4998,-0.0276,0.3337,0.5951,-2.2808,3.4928,2045
7,-0.4307,-0.0251,0.0806,0.7608,-1.7819,4.3057,2045
7,-0.1697,-0.1917,-0.1758,0.8753,-0.9258,4.3634,2043
7,0.1477,-0.3831,-0.2158,0.9768,-0.2155,4.3634,2048
7,0.5718,-0.1641,-0.1772,0.7585,0.2148,4.3634,2043
7,0.7417,0.0264,-0.0913,1.1041,0.171,4.3634,2043
7,0.6104,-0.0686,0.0527,1.5764,0.0831,4.3634,2045
7,0.3684,-0.1995,0.032,1.289,-0.2666,4.3634,2040
7,0.3872,-0.3555,0.0596,1.4002,-0.8705,4.3634,2044
7,0.5994,-0.3474,0.0276,0.948,-0.7574,4.3634,2045
7,0.231,-0.1338,-0.0703,0.9722,-0.4801,4.3634,2043
7,-0.2825,-0.657,-0.1458,1.1307,-0.2557,4.3634,2046
7,-0.0332,-0.7488,-0.1299,1.0307,-0.4357,4.3634,2043
7,0.3,-0.5659,-0.2805,0.8981,-0.4426,4.3634,2038
7,0.4958,-0.635,-0.3323,1.0492,-0.397,4.3634,2044
7,0.5291,-0.8699,-0.1699,1.1091,-0.2927,4.3634,2046
7,0.7146,-0.9832,-0.1943,1.1713,-0.2561,4.3634,2041
7,0.9978,-1.2136,-0.2617,1.0971,0.035,4.3634,2044
7,1.1062,-1.2559,-0.2751,0.9401,0.3824,4.3634,2044
7,1.0916,-1.5654,-0.2974,1.1162,0.6497,4.3634,2041
7,0.5503,-2.0,0.5251,-1.3597,2.0042,4.3634,2044
7,1.0796,-1.0806,-0.7688,-0.1944,0.6577,4.2888,2035
7,1.9999,-1.3333,-0.2415,1.3069,3.1147,1.5243,2038
7,1.958,-2.0,1.2148,-2.1045,-0.6332,0.3365,2045
7,1.3457,-1.4346,-2.0,-1.1509,-2.5539,2.1197,2066
7,1.9999,-0.8367,-0.5525,-0.4888,-2.1507,-0.1471,2049
7,1.9999,-1.2561,0.1079,0.0601,-3.9408,-1.4239,2052
7,0.9792,-0.2109,0.7288,0.388,-1.4608,-1.4223,2033
7,0.2681,-0.8967,1.199,0.3388,0.1338,-3.5394,2034
7,-0.5098,-2.0,1.4424,3.3444,0.5653,-2.1642,2041
7,-2.0,-2.0,1.3762,0.8439,-2.9709,1.3521,2063
7,-2.0,-1.5596,0.3137,-2.3936,-4.3635,-3.0355,2043
7,0.0405,-0.6475,-0.5825,-2.0138,-2.6533,-3.9956,2033
7,1.9999,0.3584,1.1064,-0.6839,1.6301,-3.6183,2035
7,1.9999,-1.6289,0.6748,-3.7624,-0.3658,-0.9754,2053
7,1.7593,-1.5225,-1.0264,-4.3635,-2.2751,0.813,2060
7,-0.5728,0.7166,-1.6328,-2.3586,-1.8664,-1.5964,2038
7,-0.5276,0.6936,-0.8264,1.1821,-1.4135,-3.405,2034
7,0.4211,-0.5791,-0.3591,1.8169,0.165,-2.3033,2034
7,0.3503,-1.5266,-0.0552,2.604,0.9259,0.0346,2044
7,0.0535,-2.0,0.7842,-0.4382,0.9055,-2.3218,2048
7,1.1833,-0.8835,-0.2832,-1.4339,1.136,-1.4775,2041
7,0.9421,-0.3074,-0.0833,-0.2434,0.4795,-1.3348,2042
7,0.9897,-0.8784,0.1648,0.1129,-0.0967,-1.0809,2041
7,0.9883,-1.3022,0.0947,-0.5263,-0.883,-0.5584,2049
7,0.7878,-1.0857,-0.0671,-0.757,-1.0508,-0.3084,2044
7,0.4041,-0.9441,-0.0308,-0.3871,-1.217,-0.3915,2043
7,0.0369,-1.0688,0.0295,-0.4365,-1.1633,-0.3918,2043
7,-0.1401,-1.1323,-0.1177,-0.3619,-0.6782,-0.6525,2048
7,0.1799,-1.0674,-0.116,-0.3239,-0.2328,-0.575,2045
7,0.3884,-0.999,-0.0562,-0.398,0.2743,-0.5086,2043
7,0.4807,-0.938,-0.0605,-0.176,0.5102,-0.3777,2049
7,0.3865,-0.9402,-0.0132,-0.1807,0.4805,-0.3068,2036
7,0.2864,-1.0049,0.0183,-0.1939,0.2982,-0.2472,2025
8,0.2563,-1.043,0.0232,-0.1939,0.1293,-0.2346,2038
8,0.2258,-0.9978,0.0391,-0.1661,0.0174,-0.229,2037
8,0.1721,-0.9722,0.0513,-0.1589,-0.0583,-0.1852,2003
8,0.1418,-0.9001,0.0107,-0.0181,0.0204,-0.1057,1981
8,0.0527,-0.9341,-0.0713,0.1188,0.1658,-0.1321,2075
8,0.0234,-0.9688,-0.075,0.2404,0.2266,-0.1724,2068
8,-0.0042,-1.0562,-0.1138,0.2412,0.4613,-0.275,2053
8,0.0491,-1.0791,-0.0239,0.0951,0.6288,-0.375,1976
8,0.0752,-1.1042,-0.0393,0.0941,0.5944,-0.4454,2113
8,0.0171,-1.0798,-0.011,0.0385,0.6026,-0.4609,2185
8,-0.144,-0.9673,0.1118,-0.0615,0.8267,-0.5265,2011
8,-0.1826,-0.957,0.2014,-0.1914,0.7803,-0.5881,1912
8,-0.0825,-0.9285,0.3523,-0.3316,0.6514,-0.7408,2085
8,0.0234,-0.9126,0.2507,-0.3846,0.1663,-0.8036,1860
8,-0.0474,-0.9646,0.199,-0.3473,-0.3514,-0.9512,1780
8,-0.1501,-1.0642,0.0017,-0.3653,-0.6403,-1.1465,2112
8,-0.1797,-1.1833,-0.0725,-0.269,-0.5683,-1.3282,2081
8,-0.3047,-1.2258,-0.1406,-0.2044,-0.2666,-1.5066,1997
8,-0.3767,-1.092,-0.2024,-0.1618,-0.1218,-1.7689,1841
8,-0.3889,-1.0591,-0.1487,-0.0828,-0.08,-1.9987,2041
8,-0.3699,-1.1008,-0.0391,-0.0376,-0.204,-2.1868,2773
8,-0.1812,-1.2161,0.0151,-0.0466,-0.2349,-2.4127,2061
8,-0.1575,-1.1448,0.0713,-0.0115,-0.0618,-2.6771,2025
8,-0.0139,-1.2805,0.2024,-0.0272,0.041,-2.767,2337
8,0.1238,-1.4165,0.0959,-0.0957,0.0594,-2.9046,2245
8,0.0112,-1.5654,-0.03,-0.3994,0.5513,-3.277,1981
8,0.0601,-1.6538,0.3069,-0.0887,0.2669,-3.1488,2169
8,0.3423,-1.6509,0.3398,0.0862,-0.2768,-3.1001,2166
8,-0.127,-1.7629,0.5181,-0.1302,-0.259,-3.3517,2003
8,-0.2085,-1.8176,0.4624,-0.2378,-0.047,-3.322,2045
8,-0.3213,-1.9216,0.4988,-0.3649,0.33,-3.573,2052
8,-0.3604,-1.9285,0.6384,-0.4572,0.275,-3.7066,2038
8,-0.5615,-2.0,0.7346,-0.748,0.6869,-3.8644,2038
8,-1.1968,-2.0,0.6323,-1.5916,1.8743,-4.0635,2044
8,-2.0,-2.0,0.4387,-2.569,3.446,-4.0511,2040
8,-1.4028,-2.0,0.0105,-2.2099,3.8155,-4.1227,2044
8,0.0618,-1.6602,0.0625,-1.3684,3.2797,-3.533,2043
8,0.2407,-1.4849,-0.0154,-1.1884,3.8356,-4.0883,2038
8,0.3135,-1.4448,-0.0271,-0.5968,4.3634,-4.3635,2047
8,-0.6216,-1.0876,0.6208,-2.0775,4.3634,-4.3635,2047
8,1.9999,-2.0,0.0447,-3.9263,1.5297,-4.3635,2040
8,0.9646,-0.0415,-0.2747,-1.3556,0.7331,-4.3635,2055
8,-2.0,1.4678,0.4983,0.2739,3.7989,-4.1728,2032
8,1.9999,-2.0,-0.8662,-1.758,3.9914,-0.4365,2050
8,1.7112,-0.8135,-0.4192,-0.9862,2.1425,-2.007,2053
8,1.8928,-0.6863,1.0203,-1.2593,2.7038,-1.6426,2034
8,1.9011,-0.6814,1.1484,-2.4356,4.0021,-0.7007,2040
8,1.9999,0.1111,0.1821,-2.741,3.3632,0.0875,2044
8,1.2832,0.2183,-0.3379,-2.5742,1.5905,0.7482,2049
8,0.6045,0.479,-0.4775,-1.501,-0.1622,2.0759,2047
8,0.645,0.6694,-0.3977,-0.1467,-1.3059,3.2828,2046
8,0.8655,0.5508,0.178,1.1504,-2.4045,4.3634,2041
8,0.1248,-0.01,0.6487,0.9025,-2.6225,4.3634,2040
8,-0.3806,-0.4985,0.5911,-0.5801,-2.788,3.4826,2044
8,-0.2388,-0.5732,0.2876,-1.1749,-2.8548,3.8992,2047
8,-0.0469,-0.3723,-0.0459,-1.3692,-2.5578,4.3209,2045
8,0.261,-0.157,-0.2139,-1.2223,-2.2242,4.284,2044
8,0.5105,-0.1287,-0.1953,-0.6509,-2.0558,4.2746,2048
8,0.6758,-0.0789,-0.062,-0.2286,-2.0011,4.3241,2039
8,0.7065,-0.1121,0.0127,-0.0286,-2.2133,4.3634,2044
8,0.6223,-0.1497,0.0586,-0.0798,-2.5093,4.3634,2040
8,0.5623,-0.019,0.1909,0.2326,-2.3486,4.3634,2043
8,0.4438,-0.1035,0.3281,0.7114,-2.2364,4.3634,2045
8,0.814,-0.3333,0.5139,0.5642,-2.1421,4.3634,2043
8,-0.1699,-0.2273,0.0681,0.1962,-2.0712,4.3634,2045
8,-0.446,-0.7827,-0.251,-0.1039,-1.7952,4.3634,2047
8,-0.334,-0.6489,-0.5244,-0.2256,-1.8699,4.3634,2042
8,-0.1001,-0.4412,-0.6255,0.178,-1.5624,4.3634,2046
8,0.1179,-0.5918,-0.6587,0.8187,-1.4206,4.3634,2041
8,0.4734,-0.8867,-0.6348,1.3838,-1.1419,4.3634,2046
8,0.8062,-1.1301,-0.4358,1.6226,-0.3551,4.3634,2045
8,0.9307,-1.344,-0.2908,1.5653,0.4096,4.3634,2045
8,1.0154,-1.571,-0.196,1.2042,0.9473,4.3634,2042
8,0.7834,-1.7444,0.1174,1.0804,1.3944,4.3634,2046
8,0.2998,-2.0,-0.3267,-1.3038,0.7648,4.3634,2043
8,1.9999,-0.3921,-1.1584,1.9469,0.7473,2.2583,2039
8,1.9999,-1.9768,1.5745,2.3029,2.1322,1.2632,2056
8,1.717,-1.8472,1.9999,-1.7757,-2.1019,0.4257,2045
8,1.9999,-2.0,-1.2866,-1.7065,-3.6713,-1.6387,2039
8,1.9999,0.1091,0.3816,-1.0898,-4.3635,-0.7403,2046
8,1.1138,-0.4958,1.2327,0.8429,-2.1192,-2.4028,2047
8,0.6365,-2.0,1.0066,1.1015,1.2039,-1.2147,2039
8,-0.7217,-2.0,1.7124,3.1877,0.1204,-0.4478,2046
8,-2.0,-2.0,1.3286,-0.9371,-2.2108,-1.7109,2045
8,-1.8372,-0.5911,-0.8489,-1.0644,-4.3635,-2.9132,2036
8,0.1079,0.0366,0.0842,-0.1451,-3.6193,-4.3635,2043
8,1.9999,-0.3953,1.1108,-3.1226,1.6143,-3.6785,2047
8,1.9999,0.3789,-1.053,-1.8695,-0.0557,-1.0927,2048
8,1.8792,-0.228,-1.4526,-0.0643,-3.1116,-0.6677,2045
8,0.1589,-0.5701,-0.4722,0.1719,-1.1829,-0.3095,2042
8,-1.0166,-1.7495,0.0271,0.242,-0.3156,-0.6835,2039
8,-1.0559,-2.0,0.2227,1.2607,3.4864,-3.0056,2042
8,0.0442,-1.0664,0.5471,-1.3683,2.3241,-1.5572,2037
8,1.0742,-0.4529,0.0,-0.9913,1.4083,-1.4949,2042
8,1.803,-0.5278,0.2595,0.6176,0.9044,-2.0699,2047
8,1.7795,-1.0535,0.2439,0.1802,-0.7094,-1.8034,2040
8,1.1843,-1.2427,0.2727,-0.0911,-1.5109,-0.9847,2049
8,0.7192,-1.0015,0.0383,-0.4237,-1.4383,-0.6247,2058
8,0.2905,-0.9875,-0.1653,-0.579,-1.481,-0.3763,2039
8,-0.0435,-1.0088,-0.3057,-0.6834,-1.1777,-0.3894,2039
8,-0.085,-0.9395,-0.2209,-0.257,-0.8231,-0.5068,2031
9,0.1287,-1.0012,-0.2488,0.0629,-0.2956,-0.7927,2038
9,0.3696,-1.0049,-0.1951,0.3651,-0.0057,-0.7775,2047
9,0.5256,-1.0405,-0.0559,0.3665,0.127,-0.6714,2029
9,0.6179,-1.0308,0.0317,0.2127,0.1197,-0.4521,2046
9,0.5852,-0.97,0.0864,0.087,-0.0674,-0.1948,2061
9,0.3972,-0.9854,0.095,-0.0101,-0.2254,-0.1731,2036
9,0.1255,-1.0503,-0.0493,0.1553,-0.4743,-0.2224,2031
9,-0.0793,-1.0007,-0.0872,0.2637,-0.542,-0.348,2037
9,-0.1814,-0.9104,-0.1003,0.2413,-0.2854,-0.4301,1986
9,-0.0796,-0.9509,-0.1355,0.2554,-0.071,-0.4083,1980
9,0.0498,-1.0364,-0.1064,0.1963,0.2289,-0.4979,1952
9,0.1445,-1.0205,-0.0476,0.1643,0.1784,-0.5747,2026
9,0.2385,-1.0164,-0.0903,0.242,0.0393,-0.5839,1903
9,0.2532,-1.0173,0.0154,0.2312,-0.0217,-0.647,1883
9,0.1863,-1.0027,0.0264,0.2266,-0.0394,-0.7184,2139
9,0.2126,-1.1548,0.0779,0.1161,0.0313,-0.7608,1923
9,0.3225,-1.196,0.0239,0.1543,0.0996,-0.8284,1986
9,0.2927,-1.1582,0.041,0.1997,0.1915,-0.9764,2155
9,0.0503,-1.0149,0.0955,0.1035,0.3097,-0.983,2175
9,-0.1709,-0.8066,0.1865,-0.0148,0.491,-0.9315,1972
9,-0.1921,-0.7925,0.2588,-0.1424,0.4695,-1.0359,2339
9,-0.05,-0.7903,0.1279,-0.1575,0.2294,-1.2183,2047
9,0.0669,-0.8882,0.0679,-0.1131,-0.1155,-1.3966,2094
9,-0.0198,-1.0803,-0.1128,0.0641,-0.3516,-1.6097,1945
9,-0.2361,-1.2439,-0.1926,0.0943,-0.3083,-1.7877,1838
9,0.0146,-1.0081,-0.2754,-0.0083,0.1574,-1.855,2159
9,-0.5544,-1.5056,-0.1931,0.0937,0.0501,-2.5671,2126
9,-0.3777,-1.5676,-0.2263,-0.0593,0.0928,-2.4707,2168
9,-0.2534,-1.4746,-0.0542,-0.0518,0.4898,-2.7067,2204
9,0.0132,-1.45,0.166,0.1417,0.0806,-2.7907,1913
9,0.0732,-1.5156,0.4407,0.0698,0.1196,-3.0604,2117
9,0.0784,-1.4685,0.4958,-0.051,0.2084,-3.124,2057
9,0.1768,-1.5996,0.5681,-0.1047,0.066,-3.3371,2084
9,0.1094,-1.8628,0.5559,-0.1308,-0.1382,-3.4678,2058
9,-0.1372,-1.9524,0.6389,-0.119,-0.1699,-3.5579,2047
9,-0.4607,-1.9768,0.6672,-0.4265,0.0692,-3.7154,2042
9,-0.7112,-2.0,0.5718,-0.8116,0.562,-3.994,2044
9,-1.5947,-2.0,0.4893,-1.8828,2.0042,-3.9984,2041
9,-2.0,-2.0,0.2932,-2.7336,3.2397,-3.7215,2038
9,-1.3152,-1.9138,-0.1392,-1.8114,3.0239,-3.9407,2040
9,0.3284,-1.5198,-0.1218,-0.5111,1.3214,-4.0564,2046
9,0.3032,-2.0,0.1721,-1.2077,2.8371,-4.3534,2039
9,0.3689,-1.9058,-0.3435,-0.6096,3.093,-4.3635,2042
9,-1.8396,-0.0369,1.6682,-4.07,2.3005,-4.3635,2030
9,1.9999,-2.0,-0.926,-3.0237,1.095,-4.3635,2052
9,0.1545,0.4521,-0.4106,-0.45,2.751,-4.3635,2048
9,-1.8613,1.9999,0.511,-1.1698,4.3634,-3.0408,2034
9,1.9999,-2.0,-0.9656,-3.297,4.3634,-1.1545,2054
9,1.9999,-0.3435,-0.0327,-0.8136,3.242,-2.1101,2051
9,1.9999,-0.4285,1.0869,-2.0799,4.3634,-1.4724,2032
9,1.9999,-0.6472,0.9072,-2.8018,4.3634,-0.4709,2039
9,1.5537,0.2039,0.2034,-2.5289,4.1675,-0.5626,2042
9,1.2693,0.3625,-0.4019,-1.9439,2.0293,-0.0212,2047
9,1.2437,0.5283,-0.5242,-1.2161,0.5235,1.8627,2044
9,1.3364,0.6387,-0.0732,0.0079,0.0105,3.8844,2043
9,0.2229,0.3457,0.5898,0.1641,0.225,4.3634,2042
9,-0.0322,-0.1013,0.9194,-0.4669,-0.6881,3.6639,2039
9,0.1702,-0.4028,0.6101,-2.043,-2.1624,3.4906,2047
9,0.2717,-0.1333,0.1282,-2.227,-2.5757,3.8289,2047
9,0.3591,0.1589,-0.0029,-1.5615,-2.5405,3.7082,2041
9,0.594,0.2341,0.0383,-1.0553,-2.5069,3.6476,2040
9,0.7297,0.1707,0.0879,-0.8969,-2.8231,3.8978,2039
9,0.7163,0.1035,0.1587,-0.8701,-3.312,4.2928,2045
9,0.6929,0.064,0.1809,-0.8179,-3.7166,4.3634,2040
9,0.6477,0.1123,0.167,-0.8204,-3.906,4.3634,2039
9,1.3389,0.145,0.6982,-1.2616,-3.713,4.3634,2042
9,0.3584,-0.0012,-0.1228,-0.76,-3.9371,4.3634,2046
9,0.1616,0.0146,-0.0566,0.1198,-3.7257,4.3634,2046
9,0.1401,-0.1184,0.1777,0.4642,-3.3572,4.3634,2044
9,0.0525,-0.2661,0.0874,0.4373,-3.5054,4.3634,2042
9,-0.0811,-0.4104,-0.1631,0.5734,-3.6862,4.3634,2042
9,-0.2156,-0.4973,-0.4075,0.6159,-3.2315,4.3634,2043
9,1.7297,0.2551,-0.1099,0.4091,-2.2621,4.3634,2043
9,-0.5808,-0.8877,-0.4622,1.0733,-0.3802,4.0792,2047
9,-0.0422,-1.0,-0.4763,1.8329,-1.2083,4.3634,2044
9,0.3181,-1.0735,-0.4866,1.7929,-0.7833,4.3634,2047
9,0.8066,-1.5249,-0.4583,1.7393,0.1432,4.3634,2038
9,0.9456,-1.8218,-0.209,1.608,0.4538,4.3634,2045
9,0.8225,-1.9114,0.05,1.515,0.3481,4.3634,2038
9,0.3772,-2.0,0.4944,1.1503,0.4516,4.1824,2042
9,1.0371,-2.0,-0.0645,-0.8873,-0.8933,4.3634,2037
9,1.9999,-0.2234,-0.4185,2.3003,-1.4576,1.7583,2034
9,1.9999,-1.637,1.5142,0.7046,-0.7612,0.983,2045
9,1.9999,-1.3313,0.3037,0.1828,-4.3635,0.8216,2047
9,1.2698,-1.4143,-0.4072,-0.1004,-3.8171,-0.6289,2039
9,1.9999,-1.7178,-0.1418,-1.818,-4.3635,-4.3173,2041
9,1.8501,0.1084,-0.0305,-1.3798,-3.3917,-2.0535,2044
9,-0.1287,-1.1602,0.4971,1.6202,1.4091,-2.0234,2135
9,-2.0,-2.0,1.1423,1.3886,2.3803,-0.5071,2021
9,-2.0,-2.0,0.6846,-2.1911,-0.8982,-1.5556,2029
9,-1.2954,-0.1155,-2.0,-1.0696,-2.3613,-1.6673,2036
9,0.74,0.2749,-0.5808,2.2603,0.3409,-3.5284,2048
9,1.9999,-0.0645,1.7646,-0.7566,0.9957,-4.3635,2041
9,1.9999,-0.3755,0.4915,-1.2603,0.9745,-1.6693,2049
9,1.9999,-0.8638,-1.3406,-0.461,-1.1405,0.0937,2047
9,0.7688,-1.4214,-0.1108,-0.8982,-2.442,-1.3447,2041
9,-0.2944,-0.7729,0.324,-0.997,0.3875,-1.8327,2036
9,-0.2395,-0.9453,0.1772,0.1107,2.4004,-2.0892,2040
9,0.5493,-1.0571,0.2603,-0.5369,2.1475,-1.3842,2036
9,1.1819,-1.0315,0.1201,-1.9161,1.1382,-1.1457,2046
9,1.2654,-0.6509,0.1228,-0.6514,0.7244,-1.4258,2045
9,0.8279,-0.8362,0.1672,-0.3255,0.2585,-1.5346,2041
10,0.5442,-1.2217,0.145,-0.5693,-0.3999,-1.0893,2043
10,0.7324,-1.1731,-0.0425,-0.8139,-0.3882,-0.86,2048
10,0.9536,-0.946,-0.2612,-0.7268,-0.7803,-0.7297,2043
10,0.7959,-0.834,-0.2915,-0.4629,-1.2449,-0.5481,2044
10,0.3367,-0.9519,-0.3591,-0.3815,-1.1162,-0.4781,2046
10,0.0176,-1.0212,-0.3921,-0.3088,-0.6902,-0.3714,2044
10,-0.1133,-1.0442,-0.4163,-0.1546,-0.1802,-0.3827,2045
10,-0.0203,-1.0273,-0.4207,0.0892,0.2794,-0.5398,2045
10,0.2515,-1.0063,-0.304,0.3059,0.5919,-0.6177,2036
10,0.4434,-0.9829,-0.0781,0.3952,0.6859,-0.5743,2012
10,0.488,-1.0398,0.0962,0.1515,0.8074,-0.4461,2048
10,0.6597,-1.002,0.2075,0.1513,0.4168,-0.2249,2047
10,0.6704,-1.0396,0.1714,0.065,0.0176,-0.1354,2039
10,0.5352,-0.9998,0.1287,-0.0234,-0.5425,-0.0617,2058
10,0.2356,-0.9629,-0.0034,-0.0165,-0.6745,-0.0667,2047
10,0.0286,-0.9722,-0.093,-0.014,-0.6273,-0.1096,2043
10,-0.1135,-0.9802,-0.1313,0.0123,-0.5012,-0.1582,2105
10,-0.0574,-0.9802,-0.1548,-0.0341,-0.1892,-0.1972,2027
10,-0.0154,-0.9756,-0.1726,0.0027,0.0846,-0.2386,2056
10,0.0164,-0.9719,-0.1426,0.1157,0.3204,-0.3288,2052
10,0.0935,-1.0073,-0.0459,0.0696,0.3971,-0.4147,2035
10,0.2249,-1.0137,-0.0469,0.0744,0.2946,-0.4265,2037
10,0.3406,-1.0054,-0.0146,0.015,0.1868,-0.4093,2068
10,0.3762,-0.99,0.0251,0.0826,0.0702,-0.4671,2062
10,0.3022,-1.0166,-0.0493,0.1298,-0.006,-0.4695,2007
10,0.2283,-1.0547,0.0544,0.1453,0.1722,-0.5287,1975
10,0.1016,-1.0637,0.1045,-0.0502,0.386,-0.5267,2024
10,0.0715,-0.9841,0.1172,-0.1483,0.5024,-0.5071,2126
10,0.1062,-0.9978,0.1626,-0.2289,0.4927,-0.5537,2113
10,0.0444,-0.9385,0.1467,-0.3056,0.3731,-0.6281,2067
10,-0.1875,-0.845,0.0889,-0.2626,0.2048,-0.7905,2100
10,-0.2949,-0.915,0.0085,-0.2791,0.0537,-1.042,2040
10,-0.2275,-1.0569,-0.1296,-0.2272,-0.1051,-1.2612,2017
10,-0.2021,-1.1819,-0.2063,-0.2007,-0.1714,-1.4687,2174
10,-0.1987,-1.1624,-0.2944,-0.0835,-0.183,-1.6215,1911
10,0.1526,-0.9561,-0.1904,-0.1602,0.0668,-1.6198,1877
10,-0.3127,-1.1946,-0.2642,0.0192,0.0021,-2.3151,1998
10,-0.2302,-1.2971,-0.1672,0.1402,-0.0101,-2.2161,2136
10,-0.218,-1.3093,-0.0342,0.1308,0.1089,-2.5028,2013
10,-0.0774,-1.3513,-0.0713,-0.068,0.346,-2.6421,2178
10,0.0776,-1.4224,-0.0254,-0.1594,0.8064,-2.7923,2151
10,0.2971,-1.573,0.2437,0.0932,0.4771,-2.7686,2012
10,0.5508,-1.5405,0.3413,0.1911,-0.0815,-2.8793,2145
10,0.0977,-1.4902,0.4185,0.0434,-0.1392,-2.8962,2125
10,0.022,-1.7151,0.4011,-0.0794,-0.1342,-3.0127,2135
10,-0.1028,-2.0,0.4111,-0.2063,0.0549,-3.0632,2051
10,-0.282,-1.8716,0.439,-0.2828,0.0971,-2.9477,2029
10,-0.4136,-1.9529,0.5647,-0.4951,0.0138,-3.0835,2040
10,-0.9622,-2.0,0.6912,-0.7533,0.3787,-3.3999,2044
10,-1.592,-2.0,0.7278,-1.6587,1.5044,-3.6077,2054
10,-2.0,-2.0,0.4768,-2.3245,2.9693,-3.6793,2029
10,-0.9417,-1.3984,-0.0244,-1.4545,3.0467,-4.3635,2031
10,0.7107,-1.8884,0.2549,-0.8854,1.9896,-3.9203,2045
10,0.3201,-2.0,-0.1187,-1.0512,2.775,-4.3635,2046
10,0.0127,-1.8113,-0.094,-0.5453,3.4788,-4.3635,2041
10,0.1233,-1.1443,-0.0872,-0.4402,3.5202,-4.1261,2043
10,1.8674,-2.0,0.4688,-4.3635,0.23,-4.3635,2026
10,0.8625,-0.574,-0.2981,-0.9566,-0.3843,-4.3635,2050
10,-2.0,1.9999,0.1753,1.2718,2.8516,-3.2007,2032
10,1.9999,-1.8562,-0.4207,-1.7165,2.9163,0.4907,2043
10,1.9999,-1.3054,-0.6533,-1.0155,-0.0265,-2.6607,2066
10,1.9999,-0.8108,0.876,-1.478,1.3267,-1.4223,2034
10,1.9999,-0.343,0.6343,-2.0149,3.2838,-0.6955,2032
10,1.7959,0.1877,0.1277,-1.9124,2.9295,0.026,2040
10,0.6826,0.5298,-0.4214,-1.6382,1.3593,1.5447,2041
10,0.3228,0.533,-0.7039,-0.0276,-0.3064,3.2716,2047
10,0.5803,0.3003,-0.2446,1.2881,-0.1598,4.3634,2041
10,0.322,0.1047,0.4419,0.5598,-0.2649,4.3634,2036
10,-0.2585,-0.3152,0.5864,-1.0069,-0.9638,4.3634,2035
10,-0.2319,-0.5303,0.2168,-1.291,-1.1175,4.216,2042
10,-0.0239,-0.6382,-0.0413,-0.7171,-0.7837,4.3634,2048
10,0.3479,-0.2039,-0.0366,-0.7147,-0.2963,4.3634,2044
10,0.6321,0.0298,-0.053,-0.3314,-0.4991,4.3634,2042
10,0.6541,-0.0593,0.0259,0.2647,-0.7099,4.3634,2043
10,0.6167,-0.2195,0.2258,0.4717,-0.7392,4.3634,2046
10,0.6025,-0.2896,0.2949,0.3334,-1.0202,4.3634,2044
10,1.5337,-0.1147,0.5037,-0.3994,-1.3709,4.3634,2043
10,0.5767,-0.1633,0.1135,0.5983,-2.2134,4.3634,2043
10,0.51,0.1821,0.3833,0.7002,-1.8096,4.3634,2044
10,-0.3823,-0.4888,0.2534,0.8754,-1.6708,4.3634,2045
10,0.0293,-0.7473,0.1179,0.8417,-2.2626,4.3634,2047
10,0.3438,-0.521,-0.0962,0.7546,-2.3088,4.3634,2048
10,0.332,-0.4436,-0.1697,0.9685,-2.0612,4.3634,2044
10,0.2769,-0.6575,-0.1826,1.3769,-2.2551,4.3634,2042
10,0.6001,-0.9026,-0.3508,1.8543,-2.108,4.3634,2043
10,1.2021,-1.1343,-0.3606,2.2149,-1.7162,4.3634,2045
10,1.6646,-1.3145,-0.356,2.2467,-1.3427,4.3634,2044
10,1.5251,-1.1426,-0.2437,1.8429,-1.1292,4.3634,2045
10,0.8389,-1.1597,-0.2998,1.7844,-1.2918,4.3634,2041
10,0.0559,-2.0,-0.3645,-2.3145,-0.1466,4.3634,2038
10,1.6206,-0.1511,-1.564,-0.4159,-0.031,2.5553,2041
10,1.9999,-1.2849,0.2554,0.4954,3.2067,-1.1517,2054
10,1.9999,-1.832,0.2778,-0.8783,-1.532,-0.8096,2049
10,1.9999,-1.0859,-1.6099,-1.6532,-0.5244,-0.3854,2057
10,1.9999,-1.0537,-0.6848,-1.8391,-0.7517,-2.5043,2051
10,1.9999,1.7703,0.0869,0.9079,-2.6176,-3.6753,2049
10,0.4907,-0.4514,1.2849,4.0347,3.3243,-0.2843,2031
10,-1.5596,-2.0,1.9999,3.6748,-2.4482,-1.2726,2057
10,-1.8933,-1.6167,0.2695,-4.2754,-3.159,-1.8668,2032
10,-0.999,1.8689,-1.6296,-0.0983,-3.5181,-0.8131,2018
10,1.3958,0.4373,0.3882,0.4924,-0.7662,-2.1265,2050
11,1.7175,-2.0,1.7686,-3.1119,2.8685,-2.5165,2048
11,1.7986,-1.9167,-0.9436,-2.1667,-2.0116,-0.7252,2046
11,1.1089,-0.842,-1.2104,-0.1788,-4.3635,-1.643,2050
11,0.4724,-0.5015,0.4036,-0.648,-0.5609,-1.3992,2040
11,-0.4741,-1.0615,-0.0818,-1.0001,0.7004,-1.3287,2040
11,-0.0303,-1.1372,-0.2634,-0.7806,1.888,-1.186,2040
11,0.6167,-0.8689,-0.02,-0.6986,2.5831,-1.2758,2044
11,0.7749,-0.9612,0.0945,-0.5911,0.9058,-1.4463,2046
11,0.9207,-0.9219,0.1831,-0.11,0.5486,-1.3493,2039
11,1.2764,-1.0198,0.2239,-0.2183,-0.4818,-1.2557,2043
11,0.9033,-1.0476,0.0903,-0.4159,-0.9019,-0.9132,2044
11,0.7742,-0.9695,-0.0117,-0.4538,-1.1757,-0.6364,2037
11,0.7515,-0.9895,-0.1121,-0.5144,-1.3901,-0.442,2039
11,0.4282,-1.021,-0.249,-0.4639,-1.3611,-0.3036,2043
11,0.1245,-1.012,-0.2742,-0.3169,-0.9596,-0.2358,2044
11,-0.0317,-1.0266,-0.2432,-0.1763,-0.3876,-0.355,2042
11,0.0122,-0.9961,-0.3167,-0.034,0.165,-0.4513,2042
11,0.2197,-0.9653,-0.2534,0.1345,0.4397,-0.4806,2040
11,0.5356,-1.0039,-0.0671,0.2583,0.5048,-0.4303,2044
11,0.7036,-1.0198,0.1152,0.2177,0.4955,-0.3496,2049
11,0.676,-0.9966,0.1753,0.0348,0.3955,-0.1627,2043
11,0.521,-0.9988,0.1865,-0.1369,0.2015,-0.0232,2033
11,0.2866,-1.0232,0.0981,-0.3044,-0.0674,0.0716,2056
11,0.186,-1.0181,0.0156,-0.2175,-0.3317,0.0449,2053
11,0.157,-0.929,-0.0093,-0.096,-0.4432,-0.0571,1980
11,0.0876,-0.9087,-0.0815,-0.125,-0.3478,-0.1357,2041
11,-0.0745,-0.9739,-0.2202,-0.0935,-0.3203,-0.1284,2016
11,-0.1404,-1.011,-0.2019,-0.0541,0.0168,-0.1522,2018
11,-0.0728,-0.9807,-0.1479,-0.019,0.3362,-0.2394,2088
11,0.0962,-0.9182,-0.1562,0.0537,0.3079,-0.426,2082
11,0.125,-1.0281,0.0615,-0.0237,0.2966,-0.4259,2036
11,0.1577,-1.1006,-0.0066,-0.0695,0.1356,-0.4357,2036
11,0.1924,-1.0239,0.0332,-0.0336,0.1906,-0.5139,2067
11,0.2078,-0.9534,0.0818,0.0071,0.2057,-0.6518,2044
11,0.2571,-1.0256,0.0278,0.0138,0.134,-0.6461,2053
11,0.3491,-1.1199,-0.0515,-0.0362,0.2021,-0.65,2182
11,0.177,-1.001,-0.0195,-0.078,0.2088,-0.5975,1993
11,0.033,-0.9395,0.0757,-0.2021,0.2942,-0.6434,2178
11,-0.0095,-0.9141,0.0962,-0.3561,0.3562,-0.6681,2065
11,-0.0908,-0.8557,0.1621,-0.4255,0.2473,-0.7335,2040
11,0.032,-0.8914,0.124,-0.5095,-0.0089,-0.8273,2311
11,0.1765,-1.0591,-0.0359,-0.4682,-0.2013,-0.9821,2025
11,0.052,-1.0989,-0.113,-0.3673,-0.2386,-1.2073,2056
11,-0.1025,-1.0259,-0.2109,-0.3472,-0.0447,-1.3577,2280
11,-0.209,-1.1396,-0.2734,-0.3161,-0.0395,-1.5632,1946
11,-0.3062,-1.2495,-0.385,-0.2015,0.087,-1.793,2081
11,-0.2974,-1.0747,-0.3389,-0.1499,0.1341,-1.9937,1629
11,-0.2024,-1.0413,-0.2327,-0.0744,0.173,-2.182,2213
11,-0.0295,-1.3284,-0.1545,0.0224,0.2637,-2.3365,2135
11,0.1587,-1.3867,-0.02,-0.0085,0.4052,-2.4199,2060
11,0.2258,-1.3914,-0.1804,-0.3248,0.804,-2.5583,1989
11,0.0864,-1.5229,0.0105,-0.1607,0.7492,-2.6714,2141
11,0.3699,-1.8987,0.1758,0.0433,0.2978,-2.6713,2079
11,0.0605,-1.9934,0.3733,-0.106,0.5365,-2.8628,2057
11,-0.2664,-1.7717,0.4971,-0.2115,0.6604,-2.8749,2056
11,-0.1843,-1.9841,0.6318,-0.3354,0.7271,-2.9747,1976
11,-0.2998,-1.7278,0.8074,-0.5215,0.7983,-3.0136,2045
11,-0.3516,-1.8086,0.8833,-0.6811,0.7609,-3.0155,1994
11,-0.498,-1.9844,0.9846,-1.0274,1.1553,-3.3982,2136
11,-1.0156,-1.9133,0.9275,-1.8747,2.4991,-3.9495,2052
11,-1.3762,-1.782,0.4507,-2.4352,3.5464,-3.1632,2044
11,-1.3511,-1.4775,0.0242,-1.6843,3.7954,-4.3635,2039
11,0.4509,-1.8347,0.1846,-1.4737,3.2871,-4.0402,2053
11,0.512,-1.7119,0.1875,-1.4858,4.1815,-4.0189,2044
11,0.3398,-1.635,-0.2505,-1.0705,4.351,-4.3635,2045
11,0.155,-1.0376,-0.1543,-0.6062,4.3634,-4.2554,2047
11,0.8735,-0.3025,-0.0654,-0.4783,3.6474,-4.3635,2045
11,1.9999,-1.3635,-0.4207,-2.1631,1.2208,-4.3635,2049
11,-2.0,1.1143,0.0239,1.1513,1.4298,-4.3635,2030
11,1.3486,-0.6201,-0.8965,-0.9471,3.8857,-0.2364,2046
11,1.9999,-1.729,-0.4873,-1.4145,2.0751,-1.6603,2073
11,1.6404,-0.7505,0.7761,-1.9572,3.2272,-1.8042,2032
11,1.9999,-0.5688,0.9614,-1.654,4.3634,-1.3917,2032
11,1.9999,0.0979,0.2515,-2.3174,3.9012,-0.7167,2046
11,1.687,0.3591,-0.406,-2.2156,1.6962,0.4268,2048
11,0.5352,0.4426,-0.697,-0.8052,0.0084,1.152,2045
11,0.6997,0.5081,-0.6907,0.3767,-0.3526,2.4499,2043
11,1.7083,0.5103,0.1079,1.3528,-1.5981,4.3634,2044
11,0.636,0.2002,0.4668,1.1042,-1.9992,4.3634,2033
11,-0.3918,-0.2512,0.6304,0.159,-2.3838,3.3314,2043
11,-0.1731,-0.405,0.2839,-0.2137,-2.845,3.3642,2045
11,0.1433,-0.3853,-0.0291,-0.5328,-2.7931,3.9443,2047
11,0.4858,-0.1182,-0.0732,-0.6717,-2.6951,4.0837,2044
11,0.7668,0.1221,-0.061,-0.3767,-2.9068,4.2434,2047
11,0.8176,0.0364,0.0056,0.3184,-3.0002,4.3634,2040
11,0.604,-0.2969,0.0293,0.6594,-3.0032,4.3634,2044
11,0.407,-0.314,0.0945,0.3798,-2.9905,4.3634,2048
11,0.3613,-0.1167,-0.0095,0.2238,-3.0485,4.3634,2044
11,0.3235,-0.0796,-0.1731,0.4988,-2.8614,4.3634,2043
11,0.4558,0.3066,0.0652,0.1409,-2.2354,4.3634,2042
11,-0.4116,-0.5442,-0.1238,0.039,-1.7451,4.3634,2043
11,-0.0933,-0.6902,-0.2791,0.4506,-2.2758,4.3634,2042
11,0.1294,-0.5425,-0.3882,0.4821,-2.2013,4.3634,2043
11,0.2056,-0.5056,-0.4934,0.5344,-1.7648,4.3634,2044
11,0.1797,-0.675,-0.3999,0.8942,-1.6428,4.3634,2043
11,0.282,-0.7922,-0.3345,1.1439,-1.5655,4.3634,2046
11,0.5405,-0.9819,-0.3816,1.3595,-1.0455,4.3634,2046
11,0.9163,-1.1799,-0.2576,1.0519,-0.6509,4.3634,2041
11,1.093,-1.1746,-0.2634,1.0692,-0.4421,4.3634,2041
11,1.0461,-1.2654,-0.0583,1.1508,-0.0755,4.3634,2038
11,1.3691,-1.3311,0.1082,0.9355,-0.3145,4.2993,2040
11,1.5723,-1.5688,-0.0156,0.5934,-0.824,3.7744,2042
11,0.9658,-2.0,-0.0449,-2.5016,-0.5307,4.3634,2044
11,1.3237,-0.7229,-1.2446,-1.5298,-1.763,3.4396,2046
12,1.8684,-0.2795,-0.408,1.0503,0.5962,-0.7516,2040
12,1.9999,-1.6914,0.4146,0.5846,-0.9348,-0.7264,2040
12,1.9999,-1.3484,-0.7952,0.1659,-3.3204,-0.6847,2045
12,1.9999,-0.5674,-0.0122,0.1285,-2.9114,-2.2915,2040
12,1.5371,-0.5964,0.2305,-1.3595,-2.3806,-3.4097,2035
12,1.9999,0.3418,-0.2412,0.2509,-1.81,-2.3989,2046
12,0.3804,0.5269,1.5229,2.1751,-0.2273,-1.9217,2035
12,-2.0,-2.0,1.9999,0.5402,-1.3055,-1.0886,2040
12,-2.0,-2.0,0.0142,-1.6893,-2.5305,-0.3301,2066
12,-1.0659,-0.4136,-2.0,-2.1754,-2.4204,-0.7906,2038
12,-0.8108,0.887,0.4392,-1.4502,3.991,-1.8189,2033
12,1.9999,0.0857,0.3789,1.2204,-1.2194,-2.2513,2048
12,1.8088,-1.3562,0.2563,-0.4605,-1.6614,-1.4522,2041
12,1.4019,-1.8582,-0.345,-1.2212,-2.0759,-1.2045,2052
12,0.957,-0.4182,-0.457,-0.9521,-1.0852,-1.2331,2048
12,-0.2642,-0.8762,-0.3557,-1.0537,0.0759,-1.063,2043
12,-0.9622,-1.2515,0.3699,-0.2606,2.1001,-1.2737,2045
12,0.7654,-0.6377,0.8984,0.0517,2.439,-1.6261,2046
12,1.5999,-0.9221,0.0999,-0.448,0.1105,-1.5562,2049
12,1.3591,-1.0815,-0.2278,-0.4618,-1.1206,-1.109,2049
12,0.5178,-1.0234,0.0618,-0.5115,-0.7433,-0.9961,2040
12,0.3606,-0.9463,0.3494,-0.4718,-0.1503,-0.8901,2042
12,0.6174,-1.1321,0.012,-0.6967,-0.1245,-0.6235,2043
12,0.7905,-1.0461,-0.3699,-0.7545,-0.6072,-0.4948,2049
12,0.5352,-0.9019,-0.4353,-0.4754,-0.8186,-0.506,2042
12,0.314,-0.8457,-0.3301,-0.1474,-0.6042,-0.5026,2043
12,0.1514,-0.9617,-0.3499,-0.0629,-0.1442,-0.4979,2043
12,0.1399,-1.0366,-0.3745,0.0051,0.2878,-0.4283,2050
12,0.2798,-1.0063,-0.1721,0.1173,0.5678,-0.4381,2043
12,0.4456,-0.9885,-0.0547,0.0995,0.6148,-0.4425,2045
12,0.6003,-0.9753,-0.0005,0.0939,0.4084,-0.3855,2039
12,0.6946,-0.9712,0.0593,0.1053,0.0779,-0.3172,2050
12,0.6443,-1.062,0.1633,-0.0105,-0.1459,-0.2354,2060
12,0.4854,-1.033,0.0083,-0.1585,-0.3212,-0.0493,2060
12,0.3201,-0.9807,-0.1877,-0.1097,-0.4718,0.0366,2054
12,0.1147,-0.9636,-0.1921,0.0324,-0.3641,-0.0286,2023
12,0.031,-0.959,-0.2573,0.1168,-0.2151,-0.1344,2043
12,-0.0444,-0.9014,-0.2246,0.1258,-0.141,-0.1926,2058
12,-0.104,-0.9014,-0.2112,0.0723,-0.0015,-0.2547,2083
12,0.0488,-0.998,-0.2222,0.1582,0.0132,-0.2438,1974
12,0.1531,-1.0437,-0.1775,0.1915,0.1,-0.3156,2179
12,0.1108,-0.9629,-0.1074,0.1273,-0.0025,-0.4002,2054
12,0.0542,-0.9373,-0.1306,0.0543,-0.1914,-0.4173,2066
12,0.0679,-1.0415,-0.1421,0.0842,-0.1582,-0.471,1997
12,0.1174,-1.0723,-0.0325,0.0755,-0.1008,-0.6184,2128
12,0.2649,-1.0146,-0.0291,0.0169,-0.0458,-0.6453,1901
12,0.3599,-0.9805,-0.0244,0.0144,-0.0344,-0.6901,2133
12,0.3247,-1.0547,-0.053,-0.0364,-0.0213,-0.7388,2076
12,0.3616,-1.0903,-0.0542,-0.0515,-0.0045,-0.7712,1976
12,0.4561,-1.0442,-0.114,-0.0212,0.1788,-0.7826,2174
12,0.4099,-0.9421,-0.0442,-0.0292,0.3936,-0.7733,1877
12,0.2834,-0.9072,0.0249,-0.077,0.5079,-0.6865,2179
12,0.2498,-0.9666,0.0256,-0.1161,0.6215,-0.6593,2061
12,0.1545,-0.8977,0.0967,-0.1923,0.5605,-0.6943,2031
12,-0.0154,-0.8032,0.0298,-0.1872,0.4686,-0.8103,2229
12,-0.0818,-0.8884,-0.0779,-0.1141,0.2707,-1.014,1945
12,-0.0383,-1.0449,-0.1265,-0.0812,0.2109,-1.1848,2247
12,-0.0801,-1.1199,-0.2542,-0.0009,0.0923,-1.3732,2052
12,-0.0793,-1.2346,-0.2783,0.1455,0.0494,-1.5648,2246
12,-0.1333,-1.0562,-0.3152,0.1261,0.2316,-1.7506,2495
12,-0.4021,-1.3225,-0.2639,0.1117,0.2551,-2.1695,2068
12,-0.1899,-1.2827,-0.1919,0.0638,0.4587,-2.2193,2204
12,0.0146,-1.4082,-0.2761,-0.1467,0.7451,-2.4755,1884
12,0.0354,-1.5408,-0.2068,-0.0828,0.9174,-2.5235,2297
12,0.2195,-1.615,0.063,0.2715,0.5552,-2.6655,2057
12,0.0903,-1.6985,0.1836,0.2269,0.505,-2.9779,2116
12,-0.395,-1.8743,0.2969,0.0571,0.6259,-3.1317,2119
12,-0.3323,-2.0,0.4316,-0.0687,0.707,-3.3152,2214
12,-0.3584,-2.0,0.6353,-0.3016,0.818,-3.4681,2036
12,-0.2383,-1.906,0.7852,-0.6185,0.9481,-3.374,2037
12,-0.2542,-2.0,0.8403,-0.9552,1.2232,-3.3369,2046
12,-0.3035,-1.9006,0.9814,-1.498,1.4672,-3.1986,2032
12,-0.8691,-2.0,0.74,-2.2812,2.2037,-3.963,2039
12,-1.9766,-2.0,0.438,-2.9779,3.7234,-3.6154,2064
12,-0.9841,-1.2937,-0.0344,-2.0764,3.5912,-4.2514,2040
12,0.751,-1.5232,-0.2886,-0.7849,1.9471,-4.3635,2046
12,0.1731,-2.0,-0.2026,-0.913,2.9795,-4.3635,2041
12,0.0083,-1.9346,-0.0571,-0.7907,3.5057,-4.2892,2043
12,-1.0544,-0.9883,0.2861,-3.5374,4.0258,-4.3635,2024
12,1.9999,-1.4573,-1.4395,-3.5885,1.3559,-4.1808,2072
12,-0.2114,0.6118,-0.4946,1.4247,0.2579,-4.3635,2040
12,-1.8188,1.9999,0.5989,0.5486,4.2485,-2.7472,2012
12,1.9999,-2.0,-1.085,-2.1762,1.6546,-0.3457,2060
12,1.9999,-0.6104,-0.2847,0.2207,-0.4868,-1.5318,2058
12,1.9999,-0.5339,0.9746,-0.7941,0.9098,-0.6857,2033
12,1.7971,-0.5269,0.6729,-1.8542,2.1668,0.0992,2037
12,1.2568,0.3364,-0.2222,-1.9008,1.9355,0.4338,2044
12,0.6826,0.7415,-0.5938,-0.8196,0.092,1.578,2046
12,0.9526,0.9309,-0.6743,1.1156,-1.7785,3.5414,2042
12,0.2566,0.458,0.1248,2.1327,-1.4537,4.3634,2039
12,0.1421,-0.0271,0.4653,0.9628,-1.3874,4.3634,2038
12,0.1521,-0.354,0.4849,-0.4787,-2.5366,4.3634,2044
12,0.311,-0.3264,-0.1067,-1.4503,-3.1756,4.3634,2048
12,0.6663,-0.2083,-0.2656,-0.6096,-3.73,4.3634,2042
12,0.7808,0.1699,-0.1797,0.0077,-3.9378,4.3634,2039
12,0.7156,0.2351,-0.1653,0.8339,-4.094,4.3634,2042
12,0.5515,0.0818,-0.1008,1.2006,-3.8575,4.3634,2039
12,0.3044,-0.1833,-0.1216,0.8582,-3.3862,4.3634,2045
12,-0.0037,-0.2197,-0.2351,0.5031,-2.7604,4.3634,2046
12,-0.0154,0.0273,-0.1982,0.4051,-1.7781,4.3634,2037
12,-0.4583,0.0007,-0.2793,0.5183,-0.2321,4.3634,2044
13,-0.5835,-0.7083,-0.384,0.9986,0.2215,4.3634,2046
13,-0.0535,-0.6885,-0.3538,1.0208,0.3107,4.3634,2047
13,0.3176,-0.531,-0.3027,0.8557,0.7384,4.3634,2041
13,0.3689,-0.5063,-0.1697,0.9804,1.0001,4.3634,2042
13,0.3591,-0.7478,-0.031,1.2374,0.8158,4.3634,2048
13,0.6008,-0.9619,0.0068,1.3547,0.6084,4.3634,2046
13,1.0469,-0.9121,0.155,1.0015,0.4087,4.3634,2045
13,1.4438,-0.7866,0.2107,0.7279,0.2357,4.3634,2041
13,1.5762,-0.916,0.3044,0.7684,-0.1443,4.3634,2040
13,1.6392,-1.1877,0.3433,0.8158,-1.119,4.3315,2039
13,1.542,-1.2083,0.2,0.8981,-2.1768,3.7809,2045
13,0.9907,-1.4785,0.3345,0.7723,-2.2333,3.3754,2049
13,1.4033,-1.78,-0.8242,-0.0664,-4.3635,4.3634,2054
13,1.9999,-0.4775,-1.3413,1.4496,-3.0167,0.1762,2046
13,1.9999,-1.5181,0.99,2.6502,-1.0809,-0.6754,2038
13,0.6292,-1.9817,0.2466,-1.4229,-0.4067,-0.4794,2042
13,1.7524,-0.9236,-1.8513,-3.6145,-2.0812,-2.0198,2039
13,1.9999,-1.377,-0.0437,-2.0064,-2.9155,-4.3635,2046
13,1.9999,1.1235,-1.3755,0.5429,-2.5043,-2.5914,2040
13,0.1428,-0.5198,0.4548,2.312,2.3646,-0.7044,2040
13,-1.2991,-2.0,1.7803,-0.5169,0.1581,-2.1457,2044
13,-1.9407,-2.0,-0.3303,-2.2491,0.8485,-1.1513,2048
13,-1.0249,-0.1616,-1.4263,-0.9765,1.1512,-1.0484,2046
13,0.6772,0.127,-0.0374,0.2622,2.6388,-1.5644,2029
13,1.9999,-0.7097,0.2454,-0.2317,1.2812,-2.7699,2045
13,1.9999,-1.072,-0.9341,-0.7941,-0.5597,-2.2282,2048
13,1.9999,-0.3713,0.1179,0.1073,-1.6568,-1.5663,2042
13,-0.0232,-0.6553,0.5615,0.3599,-1.3707,-1.4125,2037
13,-0.4421,-1.6272,0.3984,-0.3726,0.3362,-1.2042,2040
13,0.322,-1.2334,-0.2771,-0.8616,0.2543,-0.9943,2053
13,0.9946,-0.6587,-0.1416,0.1649,-0.2799,-1.3496,2052
13,0.7551,-0.7908,0.0972,0.4136,-0.3798,-1.5984,2038
13,0.4006,-1.061,0.1328,0.108,-0.4252,-1.3046,2045
13,0.3323,-1.0374,0.0693,-0.0895,0.0579,-1.1327,2043
13,0.7351,-0.9224,0.1208,-0.0732,0.1653,-1.0031,2044
13,1.0205,-0.989,0.1104,-0.1013,-0.0415,-0.8823,2041
13,0.9072,-1.0337,-0.1052,-0.14,-0.401,-0.6801,2045
13,0.6807,-0.9602,-0.2622,-0.0225,-0.6562,-0.5624,2051
13,0.5276,-0.9319,-0.2981,0.1224,-0.704,-0.4894,2046
13,0.5125,-0.9358,-0.2583,0.2233,-0.6313,-0.4179,2043
13,0.4141,-0.9438,-0.2371,0.2481,-0.4285,-0.355,2041
13,0.2639,-0.9236,-0.2056,0.2854,-0.1618,-0.2918,2040
13,0.3467,-0.9539,-0.1921,0.3574,0.0831,-0.3276,2048
13,0.4421,-0.9607,-0.0718,0.3962,0.2497,-0.3839,2040
13,0.6416,-1.0078,0.0662,0.4524,-0.0441,-0.3516,2051
13,0.6177,-0.9937,0.126,0.3398,-0.3477,-0.2096,2037
13,0.4863,-0.929,-0.0015,0.2589,-0.3927,-0.0804,2032
13,0.3276,-0.9512,-0.1318,0.2063,-0.3725,-0.0397,2040
13,0.2058,-0.9727,-0.1787,0.2681,-0.3785,-0.0764,2054
13,0.8936,-0.8328,-0.1401,0.0482,-0.5044,0.655,2034
13,0.0005,-1.051,-0.3018,0.285,-0.2281,-0.1385,2050
13,-0.1521,-0.8835,-0.3389,0.4484,-0.3812,-0.1236,2087
13,-0.083,-0.946,-0.2837,0.5377,0.094,-0.2522,2025
13,0.1462,-0.9402,-0.1707,0.5376,0.1618,-0.4441,2080
13,0.3931,-0.9438,-0.1504,0.5428,0.224,-0.4496,1988
13,0.3804,-0.9573,-0.0977,0.5477,0.2064,-0.43,2039
13,0.2712,-1.0188,-0.1167,0.6448,0.0602,-0.4251,2191
13,0.2156,-1.0847,-0.116,0.5779,0.1017,-0.502,1981
13,0.2134,-1.0518,-0.1272,0.628,0.2719,-0.5561,2034
13,0.2896,-1.0898,-0.1211,0.6223,0.2938,-0.5892,2053
13,0.3086,-1.0962,-0.1755,0.6441,0.3268,-0.6036,2172
13,0.1882,-1.0046,-0.0972,0.6446,0.552,-0.6236,1679
13,-0.0371,-0.9194,-0.0088,0.6454,0.7203,-0.6593,1711
13,-0.1455,-0.8535,0.0249,0.544,0.9055,-0.7068,2146
13,-0.0925,-0.8452,0.1367,0.4731,0.7681,-0.8865,2117
13,0.0112,-0.9019,0.1541,0.4425,0.3433,-1.1774,1932
13,-0.1257,-0.9854,0.1602,0.4753,0.0128,-1.5476,1757
13,-0.3528,-1.1763,0.1233,0.5227,-0.1432,-1.9908,2275
13,-0.3132,-1.3911,-0.0581,0.4882,-0.0601,-2.332,1946
13,-0.3857,-1.4221,-0.1279,0.4928,0.0637,-2.5947,2272
13,-0.3572,-1.4783,-0.1572,0.4219,0.2009,-2.8197,2073
13,-0.3367,-1.5261,-0.2896,0.44,0.3898,-3.0541,2016
13,-0.2251,-1.8728,-0.2417,0.1948,0.9122,-3.3264,2111
13,-0.3074,-1.9202,-0.3394,-0.2796,1.8848,-3.6547,2147
13,-0.3655,-1.9497,0.1565,-0.3233,2.2091,-3.4006,2127
13,0.1406,-1.9722,0.3352,-0.4841,1.9285,-3.5177,2078
13,0.1765,-1.9087,0.468,-1.2448,2.3641,-3.3882,2052
13,-0.5789,-1.5806,0.2756,-2.0042,3.9579,-3.2445,2085
13,-0.1636,-1.6541,0.4673,-1.8917,4.3634,-2.8445,2045
13,-0.3779,-1.8149,0.5796,-1.9192,4.3634,-2.9,2160
13,-1.1113,-1.6995,0.3281,-2.1928,4.3634,-2.4586,2071
13,-0.7756,-1.0813,0.0933,-1.601,4.3634,-3.1055,2053
13,-0.2947,-0.8982,-0.0303,-1.118,4.3634,-3.698,2051
13,0.2507,-1.104,0.2241,-0.4888,4.3634,-3.4999,2047
13,0.5798,-1.2581,0.3208,-0.2296,4.3634,-3.121,2047
13,0.6758,-1.2041,0.5242,-0.7862,4.3634,-3.3967,2039
13,0.8547,-0.9075,0.3271,-0.9096,2.6661,-3.6789,2045
13,1.2671,-0.8735,-0.2517,0.2304,-0.2828,-2.2089,2053
13,-1.22,-0.7278,0.0894,-1.5827,0.1459,-3.9154,2031
13,1.9999,-0.9463,-0.335,-1.5585,2.4667,-2.7687,2035
13,1.9999,-0.0347,-0.3928,0.9985,-0.3614,-1.9932,2046
13,1.9999,0.2114,0.5107,2.708,0.6149,0.3028,2051
13,1.0576,-0.3958,0.8635,2.3137,1.7658,2.2493,2035
13,0.0732,-1.3025,1.0488,-0.9126,-2.6627,0.4892,2037
13,0.4365,-0.6858,-0.106,-1.937,-2.2743,1.0814,2049
13,0.6917,-0.0811,-0.0349,-1.3383,-2.8659,1.5398,2044
13,0.7046,-0.1648,0.1179,-1.0507,-4.0467,1.6291,2044
13,0.4246,-0.4336,0.1055,-1.1405,-4.311,1.7848,2042
13,0.2549,-0.4241,-0.0386,-1.3986,-3.6229,1.9081,2038
13,0.4329,-0.2998,-0.1262,-1.3549,-2.8769,1.9735,2045
14,0.657,-0.2087,-0.116,-1.2202,-2.8858,2.1074,2041
14,0.595,-0.1455,-0.0288,-1.0114,-3.0379,2.4525,2041
14,1.3679,-0.0798,0.2832,-1.0286,-2.8988,3.352,2042
14,0.7136,-0.1636,0.0017,-0.8191,-2.686,3.1676,2034
14,0.4548,-0.3918,-0.0581,-0.7134,-2.4116,3.0174,2041
14,0.4106,-0.4734,-0.1633,-0.7967,-2.4212,3.3099,2041
14,0.5107,-0.3962,-0.1843,-0.8669,-2.3657,3.522,2030
14,0.5112,-0.4006,-0.0916,-0.7919,-2.2399,3.5543,2050
14,0.5125,-0.3992,-0.0232,-0.6826,-2.1916,3.4235,2042
14,0.5417,-0.4302,-0.0488,-0.5173,-2.0719,3.3167,2045
14,0.5869,-0.4497,-0.0266,-0.4942,-1.8893,3.3282,2043
14,0.676,-0.4067,-0.0466,-0.5931,-1.8551,3.482,2045
14,0.7288,-0.4905,-0.083,-0.4657,-1.8761,3.5677,2037
14,0.7478,-0.4863,0.0327,-0.3079,-1.8504,3.5479,2042
14,0.738,-0.51,0.1338,-0.2643,-1.745,3.6683,2047
14,0.7927,-0.5483,0.1157,-0.281,-1.7198,3.7121,2043
14,0.8069,-0.6296,0.2153,-0.2246,-1.7895,3.6653,2044
14,0.884,-0.6724,0.2883,-0.155,-2.0261,3.5551,2047
14,1.0906,-0.6733,0.3083,-0.2533,-2.2438,3.4676,2043
14,1.1655,-0.7319,0.3123,-0.2336,-2.5661,3.4678,2045
14,1.1953,-0.7351,0.2769,-0.2292,-2.6689,3.312,2037
14,1.0969,-0.6621,0.1892,-0.1241,-2.7577,2.9625,2043
14,1.0264,-0.7683,0.0947,-0.0368,-2.7807,2.6472,2045
14,1.0818,-0.8252,-0.127,-0.0724,-2.5117,2.3047,2044
14,1.0928,-0.9067,-0.2078,0.0011,-1.9944,1.7727,2044
14,1.3972,-1.4583,-0.0435,-0.5127,-1.4953,1.8331,2044
14,0.2961,-1.4231,-0.9263,-2.2875,-0.059,2.0032,2044
14,1.9778,0.4971,-1.0552,0.6641,0.7126,-2.4997,2037
14,1.9999,-0.9343,0.6245,2.4245,0.5694,-3.6302,2050
14,1.9999,-1.9512,0.7317,-0.8733,0.316,-2.3185,2052
14,1.1584,0.1384,0.4294,0.2699,0.5169,-2.0269,2040
14,-0.8088,-1.6699,0.7805,0.0743,-1.1635,-2.0628,2046
14,-0.8416,-2.0,-1.3469,-1.1963,-2.0844,-1.1164,2052
14,-0.1367,-0.0659,-0.4463,-0.237,0.41,-1.3552,2042
14,-0.5535,-0.6484,0.6887,0.2073,1.6606,-1.815,2029
14,-0.7271,-1.2207,-1.334,-0.9075,1.66,-2.3609,2039
14,1.9999,-0.3279,-1.6504,0.1591,-2.4705,-1.3279,2052
14,1.6077,-0.4739,-0.2222,0.542,-0.8265,-1.1022,2036
14,0.281,-0.865,0.1492,0.2834,0.4097,-1.4996,2045
14,0.2932,-0.9788,-0.1643,0.3256,0.475,-1.2105,2045
14,0.7837,-0.8289,-0.2578,0.4233,-0.0473,-1.0812,2047
14,0.9255,-0.9941,-0.1318,0.5681,-0.5782,-1.017,2043
14,0.6399,-1.0349,-0.053,0.4374,-0.4502,-0.9634,2044
14,0.2417,-0.873,-0.103,0.3633,-0.1854,-0.9582,2046
14,0.3811,-0.8293,0.2385,0.3251,0.294,-0.891,2043
14,0.6843,-1.0134,0.3086,0.0931,0.4625,-0.9147,2045
14,0.8328,-1.0637,0.2402,0.0418,0.3269,-0.7988,2042
14,0.8826,-1.0518,0.175,-0.0706,0.1859,-0.7407,2042
14,0.9255,-1.0388,-0.0339,-0.1542,-0.0265,-0.6409,2054
14,0.885,-1.0247,-0.2107,-0.1972,-0.2546,-0.4765,2044
14,0.7368,-0.9739,-0.2324,-0.0887,-0.3281,-0.3449,2047
14,0.4961,-0.9482,-0.3931,-0.0967,-0.269,-0.2931,2061
14,0.2832,-0.894,-0.448,-0.0667,0.1706,-0.1701,2043
14,0.2932,-0.7988,-0.4504,0.1145,0.3852,-0.255,2044
14,0.291,-0.8604,-0.4775,0.3528,0.3638,-0.685,2043
14,0.2351,-0.8435,-0.3367,0.473,0.6673,-0.6245,2041
14,0.9177,-0.9456,-0.1995,0.0611,1.1732,0.1068,2054
14,1.0999,-0.8708,-0.0977,0.4743,0.3746,0.1148,1999
14,0.4578,-0.8882,-0.1812,0.2514,-0.1971,0.2715,2043
14,0.3596,-1.0413,-0.3845,0.3787,-0.206,0.1461,2050
14,0.4463,-0.9526,-0.1445,0.5797,-0.0567,0.0399,1980
14,0.3948,-0.9067,-0.2061,0.4484,0.0356,-0.0045,2055
14,0.1924,-0.8367,-0.2656,0.5016,0.0113,0.1424,2001
14,0.166,-0.9302,-0.3147,0.5817,0.2173,-0.0525,2045
14,0.2307,-0.9775,-0.2896,0.5982,0.2846,-0.0758,2057
14,1.0332,-0.9902,0.1184,0.2172,0.3717,0.5058,2062
14,0.0396,-1.0298,-0.2981,0.3915,0.1843,-0.1718,2067
14,0.1143,-0.8584,-0.3545,0.6127,-0.1059,-0.2864,1982
14,0.3035,-0.9497,-0.2964,0.6059,0.1469,-0.1233,2043
14,0.3176,-0.948,-0.218,0.6462,0.2547,-0.1842,2017
14,0.4565,-0.9194,-0.1724,0.7445,0.2116,-0.255,2102
14,0.488,-1.0166,-0.0815,0.6861,0.2099,-0.121,1952
14,0.3855,-1.0149,-0.1326,0.5863,0.2519,-0.1609,1976
14,0.3171,-1.0012,-0.1062,0.6277,0.2751,-0.2113,2124
14,0.1619,-1.0154,-0.0591,0.5859,0.4173,-0.3189,2001
14,0.04,-0.9509,-0.0444,0.4892,0.605,-0.4167,2066
14,-0.0977,-0.8611,-0.063,0.4119,0.5814,-0.5404,2107
14,-0.1697,-0.8667,-0.0881,0.3164,0.3867,-0.687,2139
14,-0.2197,-0.8894,-0.1423,0.2955,0.1401,-0.8598,2128
14,0.1738,-0.7307,-0.2136,0.3312,-0.2112,-0.6424,1941
14,-0.3601,-1.2021,-0.259,0.4209,-0.2378,-1.5866,1900
14,-0.1199,-1.2024,-0.2256,0.5332,-0.1194,-1.6957,1842
14,-0.0461,-1.2292,-0.2002,0.4867,0.1784,-1.8247,2286
14,-0.0334,-1.0654,-0.2974,0.4927,0.3711,-1.9919,2176
14,0.0078,-1.2336,-0.2109,0.5267,0.5295,-2.1897,2054
14,-0.0127,-1.4482,-0.2883,0.5039,0.738,-2.3756,1727
14,-0.1379,-1.5352,-0.272,0.465,0.9689,-2.5626,2136
14,-0.0945,-1.7656,-0.2537,0.2392,1.287,-2.6908,2179
14,-0.0957,-1.7568,-0.2983,-0.2139,1.8271,-2.751,2135
14,-0.2312,-1.5549,0.1587,-0.073,2.5743,-2.834,2018
14,0.6172,-1.3064,0.5027,0.283,1.4447,-2.8698,2233
14,0.7915,-1.6306,0.5898,-0.1064,0.9907,-2.8269,2070
14,-0.3889,-1.5364,0.3987,-0.8658,2.069,-3.0136,1943
14,-0.0859,-1.542,0.3516,-1.2884,3.0977,-2.6304,2103
14,0.1807,-1.3757,0.4163,-1.0696,2.8028,-2.7341,1882
14,-0.1653,-1.4849,0.4436,-1.0131,2.4017,-2.7323,1941
14,-0.6213,-2.0,0.3381,-1.1444,2.5784,-2.9573,2128
14,-0.8264,-1.8193,0.0735,-1.8817,3.3302,-2.7492,1973
14,-0.9138,-1.6306,-0.1455,-1.8976,4.1903,-2.8911,2054
14,-0.5208,-1.2444,-0.3098,-1.1111,4.3634,-3.3493,2051
14,0.229,-1.1267,-0.1738,-0.3569,4.1471,-3.8805,2044
14,0.7461,-1.3621,0.1116,-0.257,4.1177,-3.6661,2048
14,0.5911,-1.406,0.2686,-0.9268,4.3317,-3.3443,2040
14,0.865,-0.7996,0.2161,-0.8877,3.2179,-3.7355,2043
14,1.2876,-0.8643,-0.2036,-0.2677,0.7028,-2.7087,2045
15,0.1907,-0.8042,-0.2178,-1.0548,-0.2959,-3.0516,2046
15,1.8135,-0.9678,-0.5798,-1.7808,3.2866,-3.4344,2037
15,1.9999,0.2178,-0.564,0.4044,-0.0128,-2.2871,2038
15,1.9999,0.3696,-0.1045,2.9528,-1.2184,-0.6759,2042
15,1.1943,-0.2847,0.6143,3.2251,0.6155,2.1389,2039
15,0.0366,-1.5425,1.1433,-0.2048,-2.673,0.2855,2044
15,0.541,-0.8779,0.03,-1.6848,-2.583,1.0092,2050
15,0.4915,-0.1006,-0.0881,-1.4514,-2.567,1.6507,2046
15,0.2922,-0.2385,0.0227,-1.0274,-2.9189,1.7978,2042
15,0.1987,-0.519,-0.0498,-1.2212,-2.6536,1.9831,2045
15,0.2991,-0.6562,-0.2583,-1.4187,-1.9518,2.4768,2036
15,1.0583,0.1064,0.2334,-2.4206,-0.6219,2.3152,2043
15,0.6865,-0.239,-0.1831,-1.608,-1.9534,1.9752,2044
15,0.7119,-0.1804,0.0574,-0.8303,-2.6911,2.7783,2039
15,0.4531,-0.1162,0.063,-0.6537,-3.0393,2.9598,2043
15,0.4771,-0.1934,-0.0125,-0.6574,-2.8235,3.2218,2050
15,0.5696,-0.2627,-0.0283,-0.814,-2.3296,3.731,2038
15,0.5664,-0.1382,-0.0417,-0.8411,-1.9687,4.0106,2042
15,0.5627,-0.2388,-0.061,-0.7024,-1.7869,3.9663,2037
15,0.5425,-0.3301,-0.0159,-0.5541,-1.6679,3.8213,2046
15,0.5686,-0.3542,0.0649,-0.4133,-1.6922,3.784,2040
15,0.6414,-0.4026,0.1328,-0.1862,-1.7536,3.8211,2047
15,0.8464,-0.2932,0.1951,-0.1693,-1.9122,3.9042,2043
15,1.0535,-0.2517,0.21,0.0698,-2.1937,4.015,2043
15,1.2065,-0.3093,0.1985,0.2064,-2.5665,4.1369,2041
15,1.3135,-0.3096,0.2065,0.4052,-2.9773,4.0704,2040
15,1.2739,-0.2812,0.1814,0.6253,-3.3006,3.9239,2046
15,1.322,-0.3699,0.2283,0.8243,-3.6213,3.8138,2049
15,1.335,-0.4937,0.1934,0.9531,-3.9897,3.5778,2043
15,1.2881,-0.5093,0.137,1.2804,-3.9607,3.178,2038
15,1.2756,-0.46,0.072,1.434,-3.9394,2.7442,2045
15,1.2537,-0.5654,-0.1233,1.4719,-3.7438,2.2812,2046
15,1.2739,-0.5281,-0.3147,1.5214,-3.3884,1.7562,2039
15,0.927,-2.0,-0.2288,-0.3991,-2.2807,2.0935,2046
15,1.208,-0.7441,-1.8118,-1.4106,-1.0969,0.5565,2044
15,1.9999,-0.5649,-1.408,-0.4257,-0.1943,-2.9019,2053
15,1.9999,-1.5222,-0.8855,0.9286,-0.6866,-4.3635,2045
15,1.9999,1.1262,-1.0688,0.6785,0.3112,-3.3816,2030
15,1.6892,-0.1611,-0.1345,1.9461,0.8,0.7887,2031
15,-0.7859,-1.0591,0.2168,0.6414,1.9335,-2.9019,2040
15,-0.4482,1.7505,0.2014,0.2382,-0.6275,-1.6775,2042
15,-0.3418,0.5107,-0.7185,-1.0644,-0.7419,-0.7629,2042
15,-1.0981,-2.0,-2.0,-4.2098,0.3563,3.5087,2033
15,0.8044,-2.0,-0.3376,-0.7737,1.8314,-4.3635,2063
15,1.1985,-1.6663,0.8901,1.0073,-2.7275,1.446,2051
15,-0.0903,0.5605,1.7808,0.236,1.5411,-1.0805,2021
15,1.489,-0.8362,-0.2415,0.0365,-1.1071,-1.8696,2043
15,1.7922,-1.4741,-1.0835,0.2478,-1.3408,-0.8379,2053
15,0.2957,-0.5398,-0.6001,0.2135,-1.1583,-1.1018,2046
15,-0.1748,-0.3882,-0.0618,0.09,-0.4291,-0.7269,2047
15,0.2935,-0.8657,-0.0669,0.0071,0.5244,-0.5939,2048
15,1.2793,-0.9951,-0.1375,0.3437,0.3727,-0.8718,2055
15,1.188,-0.9656,-0.0537,0.3377,-0.4932,-0.6986,2042
15,0.4111,-0.9197,-0.1021,0.2321,-0.3309,-0.5,2047
15,0.4658,-0.8032,-0.1111,0.1739,-0.0788,-0.5827,2043
15,0.6794,-0.9312,-0.053,0.1675,0.1364,-0.6508,2044
15,0.7539,-0.9966,0.0063,0.0246,0.2337,-0.6454,2045
15,0.908,-0.8972,0.0066,-0.0479,0.0431,-0.4051,2045
15,0.9583,-0.9062,-0.0652,-0.0626,0.0129,-0.2484,2041
15,0.865,-0.9341,-0.1836,-0.0751,-0.0024,-0.1092,2018
15,0.8047,-0.8748,-0.3418,-0.0772,0.0376,0.0332,2048
15,0.7549,-0.8281,-0.3965,-0.0261,0.0712,0.1252,2043
15,0.678,-0.8477,-0.3848,0.0614,0.0517,0.1686,2044
15,0.6475,-0.8325,-0.3276,0.1558,0.0788,0.1722,2043
15,0.6519,-0.8718,-0.3477,0.2334,0.1759,0.2324,2043
15,0.5925,-0.8682,-0.3389,0.2265,0.2533,0.2866,2044
15,0.4277,-0.8459,-0.3313,0.3251,0.7207,0.4311,2048
15,0.5786,-0.8428,-0.3103,0.3685,0.8159,0.3394,2049
15,0.7642,-0.8369,-0.2729,0.4207,0.5424,0.4887,2054
15,0.6064,-0.9285,-0.2407,0.4779,0.4959,0.4759,2025
15,0.481,-0.9126,-0.2927,0.5052,0.5161,0.4928,2057
15,0.4773,-0.8511,-0.2356,0.5469,0.614,0.5051,2021
15,0.6387,-0.8972,-0.0723,0.5741,0.6217,0.6007,2056
15,0.4131,-1.0178,-0.2732,0.5472,0.445,0.7489,2045
15,0.3044,-0.9419,-0.2969,0.5838,0.3816,0.5646,1996
15,0.2351,-0.8894,-0.3689,0.6315,0.4622,0.4464,2044
15,0.2168,-0.8623,-0.4299,0.6142,0.5594,0.5924,2077
15,0.248,-0.8464,-0.425,0.7094,0.5682,0.516,2010
15,0.1902,-0.8394,-0.3953,0.8018,0.5709,0.4264,2017
15,0.113,-0.8557,-0.3411,0.9309,0.7243,0.2735,2065
15,0.1619,-0.9519,-0.2708,1.0025,0.8055,0.1197,2019
15,0.2522,-0.9355,-0.1948,1.0516,0.7606,0.0388,2030
15,0.1357,-0.9954,-0.1404,1.1143,0.7255,-0.2164,2076
15,0.1838,-0.8472,-0.0461,1.1425,0.7485,-0.4051,2050
15,0.1567,-0.9324,0.0195,0.976,0.8712,-0.5458,2057
15,0.2336,-0.8894,-0.0122,0.8175,0.7951,-0.4361,2071
15,0.0281,-0.8508,-0.0071,0.7163,0.504,-0.3954,2042
15,-0.0562,-0.9438,-0.0078,0.6913,0.3251,-0.4464,2125
15,-0.1223,-1.0903,0.0234,0.6986,0.1732,-0.6972,2064
15,-0.3464,-1.1931,-0.0049,0.7052,0.0109,-1.1805,1758
15,-0.4846,-1.1677,-0.0676,0.6791,0.0539,-1.5608,1758
15,-0.4087,-1.4341,-0.175,0.6401,0.2895,-1.9544,2109
15,-0.406,-1.5632,-0.1343,0.5406,0.5384,-2.3052,1985
15,-0.3225,-1.5435,-0.2163,0.2542,0.7996,-2.4815,1921
15,-0.1682,-1.3994,-0.2676,0.0493,1.0644,-2.6416,1960
15,-0.1692,-1.604,-0.155,-0.0961,1.3852,-2.6358,2192
15,-0.1453,-1.886,-0.3875,-1.1427,2.5135,-3.074,2048
15,-0.574,-1.7954,-0.2356,-1.5934,4.1662,-2.8422,2078
15,0.1741,-1.7009,0.116,-1.2912,4.1664,-2.4816,2044
15,0.1521,-1.9111,0.2559,-1.5781,4.3634,-2.8489,2051
15,-0.0586,-1.7795,0.4175,-2.0672,4.3634,-2.4627,2039
15,-0.4407,-1.8938,0.3318,-2.6224,4.3634,-2.2834,2046
15,-0.8491,-1.6475,0.3403,-2.9364,4.3634,-1.6832,2043
15,-0.7378,-1.4082,0.2288,-2.3947,4.3634,-2.0281,2040
15,-0.0847,-0.9873,0.2998,-1.6859,4.3634,-2.433,2044
16,-0.021,-1.1028,0.3071,-1.1599,4.3634,-2.6245,2041
16,0.241,-1.0457,0.4517,-1.114,4.3634,-2.3393,2046
16,0.6321,-0.7725,0.4092,-1.0182,4.3634,-2.0462,2047
16,0.9568,-0.6912,0.2776,-0.8396,4.3634,-1.8761,2046
16,1.2268,-0.4893,0.0706,-0.0356,2.6344,-2.1827,2048
16,1.4832,-0.6362,0.0288,0.7397,0.8301,-1.6515,2038
16,1.3149,-1.0164,0.5876,-0.993,1.2989,-1.0821,2040
16,1.4221,-0.6919,0.3035,-0.9794,0.9259,-1.0096,2043
16,1.6853,-0.6257,0.4487,-0.4478,1.1678,-0.9959,2046
16,0.6838,-0.5337,0.4678,-0.6871,0.8831,-0.2306,2041
16,0.5242,-0.593,0.5071,-2.2173,-0.6931,0.4838,2042
16,0.8696,-0.1946,-0.1116,-2.1494,-0.1517,0.8096,2049
16,1.1006,-0.0891,0.0383,-1.2023,-1.133,0.7268,2042
16,1.2249,-0.2051,0.115,-0.3464,-2.1718,1.0729,2044
16,0.8633,-0.2683,0.4856,-0.7862,-2.4906,1.1246,2043
16,0.8472,-0.5737,0.116,-1.0026,-3.3211,0.8592,2042
16,1.0127,-0.1936,0.1306,-0.9973,-3.9167,1.808,2043
16,0.51,-0.145,-0.0288,-1.4661,-3.5579,2.0634,2041
16,0.5312,-0.0806,-0.0698,-1.3648,-3.2175,2.4912,2045
16,0.7422,-0.2937,-0.1843,-1.2298,-2.9791,2.3643,2044
16,0.7354,-0.3271,-0.2856,-0.9969,-2.8328,2.2426,2045
16,0.7085,-0.2681,-0.3193,-0.8372,-2.9942,2.4743,2039
16,0.6296,-0.3035,-0.3474,-0.6657,-3.3769,2.722,2045
16,0.5664,-0.387,-0.3279,-0.453,-3.3576,2.855,2037
16,0.5125,-0.4343,-0.3159,-0.2278,-3.1961,2.8883,2043
16,0.3196,-0.5317,-0.2622,-0.0663,-2.6107,2.7446,2043
16,0.3433,-0.4983,-0.1575,-0.242,-1.9137,2.5635,2044
16,0.3223,-0.5327,-0.1975,-0.3887,-1.295,2.5088,2042
16,0.6714,-0.554,-0.2461,-0.6196,-1.0112,2.5466,2043
16,0.7795,-0.6138,-0.2297,-0.7895,-0.9026,2.4153,2037
16,0.7134,-0.6345,-0.179,-0.8794,-0.8854,2.272,2039
16,0.6531,-0.6196,-0.1121,-1.0605,-0.7568,2.2096,2046
16,0.6548,-0.6667,-0.1406,-1.2667,-0.6122,2.2023,2046
16,0.6863,-0.7036,-0.1528,-1.3231,-0.6151,2.0796,2042
16,0.7083,-0.7439,-0.1521,-1.4703,-0.5661,1.9478,2040
16,0.844,-0.6089,-0.1689,-1.5555,-0.649,1.9085,2047
16,0.7925,-0.5745,-0.1187,-1.7748,-0.4064,1.7905,2044
16,0.6853,-0.5811,-0.1235,-1.9239,-0.027,1.6443,2043
16,0.7373,-0.5068,-0.2034,-1.9185,0.3706,1.5542,2040
16,0.8142,-0.4963,-0.2039,-1.8817,0.879,1.3324,2044
16,0.8315,-0.5713,-0.1321,-1.7361,1.2661,1.117,2045
16,0.8635,-0.5632,-0.0464,-1.6135,1.805,0.8794,2045
16,0.9197,-0.5315,0.05,-1.4689,2.2854,0.6139,2043
16,0.9897,-0.5042,0.1987,-1.2909,2.6932,0.3296,2043
16,1.0476,-0.3979,0.3264,-1.0637,2.8477,0.135,2045
16,0.918,-0.2485,0.4507,-0.6739,2.9962,-0.0589,2042
16,0.8694,-0.0237,0.6248,-0.1039,3.1927,-0.2057,2042
16,0.7944,-0.2986,0.687,-0.0282,3.0118,-0.3525,2046
16,1.3779,0.8315,-0.4941,2.3064,3.2094,0.647,2046
16,1.9999,0.0498,1.9999,1.682,0.2274,0.3722,2041
16,1.9999,-0.5298,1.2488,1.6893,-2.5224,0.5263,2037
16,1.9999,-2.0,1.0403,0.4871,-4.3635,0.6231,2188
16,1.1458,-2.0,-2.0,-1.691,-4.3635,0.9184,2043
16,-2.0,-2.0,-1.5256,0.6729,-4.3635,0.9023,2072
16,-2.0,-2.0,1.9999,2.5137,-4.3635,1.7555,2042
16,-2.0,-1.9761,0.8147,2.1146,1.8795,-0.4659,2052
16,1.9999,0.3101,0.7844,1.3031,1.0191,-1.335,2058
16,1.9999,-1.4238,-0.4001,1.135,-0.5173,-0.0607,2051
16,1.9999,-0.8184,0.8479,1.5587,-1.7648,-1.4802,2038
16,1.9783,0.2261,1.2478,0.7753,-2.8408,-1.0706,2041
16,0.0112,0.1609,-0.4568,0.0237,-2.4718,0.3777,2041
16,-0.2305,-1.4146,-0.364,-0.2021,-1.389,1.3941,2047
16,-0.4641,-2.0,-0.2439,0.6421,-0.8162,0.4354,2107
16,0.0684,-1.2339,-0.1338,0.9913,-0.3908,-1.0074,2060
16,-0.4487,-0.6582,-0.0308,0.954,1.6884,-1.407,2046
16,0.7776,-0.6826,0.0056,0.3843,1.1571,-0.6673,2122
16,1.103,-1.3491,0.0176,0.0702,1.0407,-0.0567,2051
16,0.3826,-1.1038,-0.3154,0.2547,0.4189,-0.1968,2134
16,0.1772,-0.5872,-0.4463,0.4962,0.3914,-0.269,2103
16,0.8218,-0.8145,-0.5713,0.9399,0.4988,-0.5189,2027
16,-0.7502,-0.4583,-1.1265,2.287,4.3634,0.8151,2043
16,0.5532,-2.0,-0.1987,-0.5558,1.5575,-1.2334,2151
16,1.0142,-0.5242,-0.2378,0.7705,1.1511,0.456,2045
16,-0.7808,-0.7214,-0.0266,1.2575,1.7393,-0.4205,2049
16,0.5073,-1.4348,0.5259,0.6111,0.909,-0.414,2055
16,1.6287,-0.7358,-0.0295,0.7373,0.5094,0.3702,1996
16,0.4573,-0.78,-0.0181,0.2421,-0.53,0.2012,2020
16,-0.1101,-1.001,-0.2559,0.1775,-0.3173,0.2067,2147
16,0.5552,-1.2922,-0.5813,-0.0304,0.0471,0.2141,1969
16,0.3848,-1.0024,0.175,0.1991,0.0554,0.239,2040
16,-1.5276,-1.7051,-2.0,-2.0913,1.1734,1.4888,2052
16,1.6609,-0.3264,1.4968,1.1079,1.486,0.4396,2031
16,1.9999,-0.2695,0.6621,0.5698,-1.5138,-0.3125,2023
16,0.0032,-1.1758,-0.3342,0.2155,-2.4203,-0.0959,1997
16,-0.7263,-0.8193,0.1992,1.0015,-1.6992,3.0786,1891
16,-0.6082,-0.8057,-0.002,0.2238,-1.818,2.0851,1923
16,0.4497,-1.0781,-0.6733,0.6277,-0.9005,0.39,2102
16,-0.134,-1.0747,-0.5017,0.6039,-0.712,0.1044,1909
16,-0.7485,-1.0552,-0.1582,0.75,0.467,0.0248,2032
16,-0.4822,-1.0613,0.2583,0.5865,1.6781,-0.0541,2037
16,-0.0059,-1.1038,0.2656,0.231,2.4256,0.1153,2071
16,1.0007,-0.8774,0.2759,0.3866,0.9443,0.0591,2062
16,0.5371,-0.8384,-0.0076,0.5817,-0.1597,-0.3794,2074
16,-0.1968,-1.0413,0.0161,0.4928,-0.2884,-0.1602,2101
16,-0.2202,-1.0144,-0.1548,0.4168,-0.3144,-0.1788,1959
16,0.0034,-0.9668,-0.2878,0.3947,-0.1559,-0.0289,2057
16,-0.2769,-1.0051,-0.373,0.3203,0.3987,-0.2497,2084
16,-0.3149,-1.0432,-0.2505,0.3113,0.6149,-0.543,2037
16,-0.073,-1.1206,-0.0564,0.4147,0.5813,-0.7058,2025
16,0.1118,-1.0417,0.1208,0.3566,0.7795,-0.8279,2023
17,0.3904,-0.936,0.1096,0.3252,0.713,-0.7875,1951
17,0.4751,-0.8936,0.1084,0.3775,0.608,-0.8028,2061
17,0.2666,-0.8967,0.1169,0.3609,0.4761,-0.8648,2051
17,0.1487,-0.9248,0.0349,0.3263,0.4,-0.8681,2127
17,0.1719,-1.0146,0.1128,0.2799,0.5105,-0.8015,1914
17,0.3086,-0.99,0.0479,0.1918,0.422,-0.8152,2088
17,0.3623,-0.9863,0.1345,0.1936,0.4737,-0.7384,2040
17,0.3311,-0.9563,0.168,0.2108,0.4815,-0.7622,1968
17,0.3538,-0.9348,0.0679,0.1523,0.4735,-0.7485,2067
17,0.4143,-0.8496,-0.0239,0.1942,0.3916,-0.8259,2054
17,0.3972,-0.8223,-0.0691,0.251,0.3009,-0.875,2054
17,0.2886,-0.8806,-0.114,0.1686,0.2393,-0.7914,2115
17,0.2673,-0.9358,-0.1196,0.1341,0.1663,-0.6679,2015
17,0.3174,-0.9988,-0.0688,0.1124,0.0558,-0.763,2032
17,0.2849,-1.0027,-0.0938,0.2229,-0.0364,-0.8136,2048
17,0.3447,-0.9534,-0.0676,0.2912,-0.0482,-0.8007,2003
17,0.4602,-0.9299,-0.1047,0.3125,0.0248,-0.7965,2075
17,0.5039,-0.8936,-0.1321,0.3429,-0.0234,-0.8047,2068
17,0.4775,-0.9028,-0.1206,0.3701,-0.1447,-0.7452,2001
17,0.4365,-0.97,-0.1072,0.3863,-0.2112,-0.6279,2033
17,0.3733,-0.9548,-0.0391,0.4593,-0.1611,-0.6834,2100
17,0.3538,-0.9937,0.0081,0.4526,-0.13,-0.6609,2057
17,0.4089,-1.0049,0.0129,0.4279,-0.0003,-0.5273,2066
17,0.48,-0.9124,0.0793,0.4609,0.1547,-0.6203,2031
17,0.5232,-0.9495,0.073,0.4786,0.1999,-0.509,2080
17,0.4788,-0.8164,0.0938,0.5257,0.226,-0.5873,1954
17,0.4717,-0.8928,0.053,0.5221,0.2879,-0.4955,2023
17,0.3914,-0.8354,-0.0366,0.6251,0.3478,-0.5791,1960
17,0.3474,-0.9097,-0.0093,0.7064,0.2653,-0.5778,2038
17,0.3262,-0.9949,-0.0095,0.7027,0.3028,-0.6401,2029
17,0.2644,-1.0061,0.0073,0.7027,0.2495,-0.6687,2110
17,0.2822,-1.0222,0.0737,0.7204,0.3155,-0.7277,2160
17,0.2788,-1.0178,0.1123,0.72,0.3597,-0.7549,2004
17,0.282,-1.0352,0.1287,0.6865,0.4008,-0.7588,2105
17,0.2859,-1.002,0.1721,0.64,0.4454,-0.8851,2007
17,0.2625,-1.0425,0.1838,0.5818,0.499,-0.8922,1964
17,0.2817,-1.082,0.1716,0.4598,0.6283,-0.9965,2042
17,0.2634,-1.0627,0.1426,0.4626,0.694,-1.0674,1950
17,0.3508,-1.1643,0.1394,0.3417,0.8624,-1.0629,2063
17,0.3022,-1.0908,0.1719,0.3567,0.8693,-1.1146,2119
17,0.2869,-1.0479,0.2542,0.4315,0.7182,-1.1773,1971
17,0.2502,-1.0913,0.3948,0.3188,0.8532,-1.2563,2017
17,0.2749,-1.0481,0.4768,0.1782,1.0087,-1.3035,2035
17,0.3569,-1.1401,0.5322,0.0972,0.9702,-1.3627,2011
17,0.3542,-1.2261,0.5654,0.0169,0.8721,-1.3956,2071
17,0.2751,-1.3186,0.5898,-0.087,0.7834,-1.3435,2051
17,0.1428,-1.3782,0.6296,-0.2814,0.7576,-1.3181,2042
17,-0.0256,-1.397,0.6821,-0.4607,0.7999,-1.3456,2043
17,-0.0798,-1.4558,0.7363,-0.6281,0.9485,-1.3909,2041
17,-0.1194,-1.4487,0.7537,-0.8012,1.2573,-1.5323,2027
17,-0.3445,-1.3955,0.6614,-1.0553,2.0222,-2.1599,2043
17,-0.1619,-1.4272,0.4817,-1.1737,2.4832,-2.4389,2041
17,-0.0649,-1.5186,0.2817,-1.4249,2.9902,-2.483,2049
17,-0.083,-1.4028,-0.021,-1.7381,3.4796,-2.8003,2044
17,-0.0093,-1.2192,-0.3384,-2.0248,4.3634,-3.2918,2042
17,0.385,-0.8086,-0.4624,-2.0361,4.3634,-3.0186,2040
17,0.9985,-0.5496,-0.2791,-1.4808,4.3634,-2.7137,2046
17,1.3572,-0.3552,-0.0308,-1.1451,4.3634,-2.9721,2040
17,1.3284,-0.8313,0.2793,-2.7446,4.3634,-3.5467,2047
17,1.9495,0.3657,0.0295,-3.5367,4.3509,-2.1852,2049
17,1.8865,0.78,-0.614,-2.064,2.6549,-1.3848,2042
17,0.4255,0.2119,-0.4551,-1.0773,2.6789,-1.7506,2032
17,-0.0806,-0.0969,0.0486,-1.197,4.1237,-0.9822,2044
17,-0.2573,-0.2666,0.3564,-2.2977,4.3634,-0.4121,2041
17,0.3066,-0.3867,0.2886,-3.4825,4.3634,0.0228,2040
17,1.2649,-0.4929,0.176,-4.0784,4.3634,1.7518,2051
17,1.0159,-0.6851,0.189,-4.3635,4.3634,1.958,2042
17,0.3577,-0.7939,0.1204,-4.1847,3.8107,0.8754,2041
17,0.053,-0.8604,-0.084,-3.1427,2.6601,1.345,2042
17,0.0369,-0.343,-0.271,-3.0182,2.178,1.8199,2044
17,0.1399,0.1194,-0.3638,-4.3635,2.1718,1.3585,2037
17,1.0168,0.2043,0.1008,-3.841,3.5802,2.0676,2049
17,0.5012,-0.3652,0.0833,-2.6661,2.6795,2.561,2042
17,0.5674,-1.2134,-0.147,-2.7039,1.653,2.7456,2040
17,-0.054,-1.4678,-0.0164,-3.4873,2.49,2.9436,2039
17,-0.0295,-0.8721,0.7153,-3.3291,3.857,2.6983,2041
17,0.4348,-1.3384,0.8423,-3.6667,4.3634,2.7795,2043
17,0.438,-1.5732,0.3955,-4.1371,4.3634,2.1252,2042
17,0.4729,-1.2737,0.1687,-4.3598,3.8847,1.9768,2041
17,0.7654,-2.0,0.3486,-4.3635,3.1866,3.2226,2046
17,0.3081,-1.2039,-0.3708,-4.3635,3.2773,4.2764,2044
17,-0.8337,1.2661,0.7527,-0.1408,3.976,-0.2306,2036
17,1.2263,-1.5007,1.9999,1.2905,4.3634,-1.3042,2047
17,1.9031,-1.7671,1.9999,0.3381,1.1037,1.7362,2043
17,0.6721,0.5811,1.9999,1.9278,0.371,0.6833,2040
17,-0.4336,0.0383,1.9999,3.159,-3.3302,1.5655,2041
17,0.2805,-1.5789,1.8376,2.4425,-4.3635,1.67,2047
17,1.0188,-1.0818,1.385,0.5094,-4.3586,2.2634,2043
17,-0.1079,-0.9231,0.718,0.5625,-4.3635,1.8221,2044
17,-1.4292,-0.9041,0.3296,0.1598,-3.8163,0.9182,2044
17,-1.7683,-0.8403,-0.2686,0.0746,-1.7211,0.5532,2046
17,-1.5115,-1.0562,-0.4219,0.3168,-0.2033,0.1965,2045
17,-1.1428,-1.2881,-0.3977,0.8716,0.5914,-0.1818,2043
17,-1.1304,-0.1772,0.4692,-4.3635,0.5265,0.6586,2042
17,-0.6372,-1.4512,-0.7507,0.0985,0.91,-0.5038,2057
17,0.4822,-0.7739,-0.4878,0.2946,1.2599,-0.2658,2075
17,0.344,-1.1211,-0.5676,0.3318,0.4204,-0.1995,2040
17,0.0576,-1.2261,-0.5449,0.509,-0.0276,-0.391,2027
