Timestamp,Ax,Ay,Az,Rx,Ry,Rz,EMG
0,-0.03,-0.9963,0.0076,0.2454,0.0896,-0.3995,2036
0,-0.0071,-0.9775,-0.0034,0.2453,0.0441,-0.3637,2035
0,0.0205,-0.9856,0.0032,0.2448,0.0184,-0.3081,2039
0,0.0156,-0.9946,-0.0095,0.2619,-0.0392,-0.2691,2032
0,0.0271,-0.9827,-0.0193,0.2838,-0.0771,-0.233,2041
0,0.0359,-0.9758,-0.0063,0.3282,-0.1341,-0.1744,2048
0,0.0708,-0.9968,-0.02,0.3143,-0.1194,-0.1393,2072
0,0.1194,-1.0146,-0.0049,0.2976,-0.1268,-0.1007,2057
0,0.0874,-1.012,0.0034,0.2847,-0.0637,-0.0406,2046
0,0.075,-1.0015,0.0161,0.2834,-0.0333,0.0131,2031
0,0.0461,-0.9915,0.0256,0.2848,-0.0245,0.0663,2064
0,0.0491,-0.9656,0.0176,0.2778,-0.0429,0.1047,2071
0,0.0186,-0.9885,-0.0156,0.2615,-0.039,0.1185,2061
0,0.0017,-0.9878,-0.0105,0.2573,0.0217,0.1297,2014
0,-0.0046,-0.9795,-0.0032,0.284,0.0537,0.1412,1993
0,-0.0117,-0.9966,0.0181,0.2894,0.0924,0.1487,2050
0,-0.022,-0.9832,0.0286,0.3117,0.094,0.1621,2039
0,-0.0198,-0.9834,0.0454,0.3392,0.1072,0.1867,2035
0,-0.0269,-0.9929,0.032,0.3405,0.1214,0.1963,2064
0,-0.0327,-0.9929,0.0547,0.3377,0.1282,0.2055,2061
0,-0.0457,-0.9854,0.0652,0.3563,0.1171,0.2057,2051
0,-0.0168,-0.9902,0.0498,0.3436,0.1453,0.2164,2052
0,-0.0349,-0.9988,0.0347,0.3591,0.1712,0.2133,2039
0,-0.0215,-0.9873,0.0527,0.3653,0.2157,0.2322,1991
0,0.0093,-0.9736,0.0364,0.3418,0.2942,0.2494,2079
0,0.0217,-0.9976,0.0222,0.3298,0.3137,0.2818,2052
0,0.0071,-0.9812,0.0054,0.345,0.3522,0.3037,2054
0,0.0156,-0.9585,0.0427,0.3647,0.3729,0.3424,2043
0,0.0078,-0.9602,0.0427,0.3755,0.2819,0.3709,2050
0,0.0044,-0.9619,0.0552,0.3991,0.2734,0.408,1975
0,-0.0242,-0.9729,0.0923,0.4191,0.2597,0.4485,2033
0,-0.0591,-1.0002,0.1003,0.4092,0.281,0.4681,2089
0,-0.0869,-0.9578,0.1216,0.4452,0.2887,0.4962,2044
0,-0.1047,-0.9556,0.1179,0.4689,0.2822,0.499,2062
0,-0.115,-0.936,0.1091,0.5124,0.3072,0.4988,1986
0,-0.1201,-0.9729,0.0967,0.5709,0.2256,0.4878,2000
0,-0.0691,-0.9583,0.1362,0.5774,0.2575,0.4922,2024
0,-0.0769,-0.9683,0.1028,0.5782,0.3346,0.5125,2009
0,-0.0198,-0.9641,0.0894,0.598,0.4156,0.5572,2080
0,-0.0339,-1.0374,0.0339,0.6304,0.4092,0.5614,2014
0,-0.0933,-1.1138,0.0139,0.5749,0.6152,0.5618,2020
0,-0.3723,-0.8667,-0.0664,0.6417,1.6807,0.3594,2032
0,0.262,-0.8657,0.1624,0.5614,0.7549,0.4364,2072
0,0.2556,-1.0793,0.0911,0.6995,0.5849,0.7062,2033
0,0.0825,-1.0242,0.083,0.7217,0.3442,0.8564,2078
0,0.0686,-0.9587,0.1868,0.7767,0.1032,1.0275,2049
0,-0.0264,-0.9673,0.1899,0.8276,0.0168,1.1849,2045
0,-0.019,-1.0117,0.1946,0.8548,-0.0863,1.2243,2043
0,0.0496,-1.0312,0.1858,0.8793,-0.1085,1.3291,2042
0,0.033,-1.2498,0.2559,0.7987,-0.1641,1.3054,2041
0,0.1038,-1.2405,0.231,0.7806,-0.2752,1.2794,2042
0,0.1824,-1.2737,0.2371,0.7397,-0.4947,1.2845,2045
0,0.1387,-1.2212,0.2593,0.7363,-0.6815,1.4029,2044
0,0.1387,-1.2817,0.2771,0.683,-0.8271,1.4231,2046
0,0.0776,-1.2495,0.3101,0.7549,-0.8439,1.5326,2043
0,0.0071,-1.311,0.2998,0.7739,-0.6441,1.5245,2047
0,0.1035,-1.3442,0.1753,0.7945,-0.3864,1.5716,2052
0,-0.0879,-1.3306,0.1799,0.756,-0.1517,1.5303,2043
0,-0.1389,-1.4128,0.1619,0.7733,0.1622,1.392,2045
0,-0.272,-1.4128,0.1748,0.6814,0.6271,1.3205,2046
0,-0.407,-1.2942,0.1394,0.4281,1.3643,1.5804,2043
0,-0.4194,-1.3469,0.0701,0.4189,1.6807,1.509,2042
0,-0.3542,-1.4146,0.1125,0.4814,2.0401,1.454,2038
0,-0.4004,-1.22,0.0876,0.5408,2.4111,1.2805,2058
0,-0.4646,-0.9141,-0.0063,0.7044,2.3699,0.8323,2042
0,-0.5535,-0.8398,0.0747,0.7817,2.202,0.5926,2047
0,0.0337,-1.3152,0.061,0.026,1.3724,0.516,2032
0,-0.1917,-1.3779,0.6831,-0.6469,-0.3559,1.2336,2045
0,-1.9382,-0.458,0.4104,0.2061,2.6233,0.3055,2040
0,-0.7471,-0.6304,0.1331,0.6421,4.3634,-0.5176,2032
0,0.5247,-0.6899,0.1177,0.3131,2.8283,0.4441,2046
0,-0.5029,-0.6641,-0.0085,-0.6731,3.3537,-0.661,2038
0,-0.5334,-0.6326,-0.1333,-0.1274,3.6924,-0.24,2054
0,-0.0405,-0.8157,0.1086,0.0091,3.8045,-0.7492,2058
0,0.1345,-0.5549,0.1023,-0.0587,3.6225,-1.0365,2034
0,0.2212,-0.4377,0.0815,0.0441,3.1658,-1.2928,2030
0,0.0212,-0.448,-0.0205,0.0419,3.1483,-1.228,2025
0,-0.2422,-0.4788,-0.0857,0.1269,3.1283,-1.2323,2042
0,-0.2795,-0.5969,-0.0969,0.1835,3.0681,-1.3153,2045
0,-0.1711,-0.6404,-0.1409,0.3484,2.6667,-1.5178,2045
0,-0.1201,-0.5884,-0.1992,0.3701,2.4123,-1.6455,2035
0,-0.1609,-0.5691,-0.2329,0.6315,2.2286,-1.6938,2003
0,-0.1199,-0.5593,-0.1406,0.9333,2.0381,-1.7426,2053
0,-0.085,-0.7253,-0.0762,0.8942,2.0823,-1.784,2044
0,-0.1353,-0.8542,-0.0886,0.7813,1.9355,-1.9634,2050
0,-0.1558,-0.8164,-0.0688,0.7455,1.6468,-2.0294,2018
0,-0.1169,-0.7363,-0.0078,0.7332,1.1413,-2.0233,2054
0,-0.2527,-0.8364,-0.095,0.7512,1.08,-2.1176,2008
0,-0.2217,-0.9114,0.0193,0.7596,0.9231,-2.2636,2054
0,-0.2451,-0.9763,0.0686,0.664,0.8621,-2.3525,2058
0,-0.3123,-1.0046,0.0696,0.6088,0.8279,-2.4152,2053
0,-0.2891,-1.0493,0.0872,0.5153,0.8175,-2.4661,2043
0,-0.2747,-1.0901,0.1035,0.4006,0.8179,-2.5048,2045
0,-0.3008,-1.1299,0.103,0.2854,0.814,-2.5514,2040
0,-0.3057,-1.126,0.1106,0.1968,0.7666,-2.5826,2048
0,-0.3015,-1.1177,0.0955,0.1317,0.7092,-2.5907,2042
0,-0.3159,-1.1221,0.1003,0.0895,0.7802,-2.5721,2019
0,-0.281,-1.0942,0.0957,0.0904,0.9054,-2.5252,2049
0,-0.2935,-1.083,0.0955,0.0766,0.8605,-2.5233,2049
0,-0.27,-1.0754,0.0818,0.0253,0.8574,-2.5059,2048
0,-0.2388,-1.0896,0.041,-0.0218,0.8636,-2.5244,2046
0,-0.2009,-1.063,0.0273,-0.0759,0.8533,-2.5029,2043
0,-0.157,-1.0652,0.0159,-0.098,0.8107,-2.4563,2042
1,-0.0923,-1.1262,-0.0237,-0.1677,0.7616,-2.4115,2042
1,-0.0925,-1.0779,-0.0259,-0.1876,0.6835,-2.3653,2053
1,-0.0872,-1.0552,-0.0251,-0.2236,0.7187,-2.3285,2043
1,-0.0164,-1.0632,-0.0217,-0.257,0.6364,-2.2699,2045
1,0.021,-1.0654,-0.0393,-0.281,0.5038,-2.2045,2044
1,0.0505,-1.0625,-0.0496,-0.3267,0.3719,-2.1221,2045
1,0.0955,-1.0642,-0.0398,-0.3799,0.2394,-2.0303,2044
1,0.1375,-1.0605,-0.04,-0.3995,0.0282,-1.9093,2045
1,0.0957,-1.0815,-0.0444,-0.4088,-0.1812,-1.7836,2045
1,0.1135,-1.1089,-0.0371,-0.45,-0.3963,-1.6864,2046
1,0.1431,-1.1257,-0.0564,-0.5425,-0.5983,-1.5962,2045
1,0.1245,-1.1343,-0.021,-0.6237,-0.8091,-1.5241,2044
1,0.127,-1.0977,-0.0212,-0.6906,-0.9981,-1.4363,2044
1,0.1089,-1.0913,-0.0017,-0.7582,-1.1906,-1.3656,2045
1,0.1013,-1.0432,-0.0203,-0.8249,-1.3324,-1.2706,2037
1,0.1272,-0.9934,0.0505,-0.838,-1.598,-1.1294,2045
1,0.1196,-0.9446,0.0544,-0.7853,-1.8547,-0.9295,2041
1,0.0479,-0.9534,0.0642,-0.7653,-1.9809,-0.7757,2042
1,0.0779,-0.9683,0.0889,-0.7429,-2.0265,-0.6381,2041
1,0.0527,-0.9775,0.1211,-0.7793,-2.0991,-0.5011,2043
1,0.0696,-0.9802,0.1111,-0.8287,-2.1238,-0.3878,2049
1,0.0085,-0.9531,0.1079,-0.8471,-2.0361,-0.2621,2042
1,-0.0383,-0.9504,0.1409,-0.8135,-1.9623,-0.1553,2046
1,-0.0527,-0.9211,0.166,-0.7249,-1.9495,-0.0356,2050
1,-0.052,-0.8789,0.1973,-0.6604,-1.8686,0.0989,2045
1,-0.0879,-0.8665,0.199,-0.5665,-1.8153,0.2336,2041
1,-0.0867,-0.8445,0.2234,-0.4617,-1.6954,0.3814,2057
1,-0.1194,-0.8577,0.2219,-0.3524,-1.6305,0.5237,2041
1,-0.1736,-0.8469,0.2107,-0.2814,-1.5366,0.6581,2038
1,-0.2241,-0.8247,0.1934,-0.2297,-1.374,0.7674,2043
1,-0.2515,-0.8215,0.2041,-0.1509,-1.2138,0.916,2044
1,-0.3042,-0.8269,0.2083,-0.0844,-1.0083,0.9963,2044
1,-0.3257,-0.8206,0.2053,-0.038,-0.8214,1.0746,2042
1,-0.3574,-0.8137,0.2075,0.0053,-0.6698,1.1378,2045
1,-0.4277,-0.7871,0.2515,0.0924,-0.4603,1.2352,2044
1,-0.5046,-0.7524,0.2817,0.0868,-0.2346,1.2572,2041
1,-0.3113,-0.9478,0.1411,-0.5216,0.2059,0.6078,2051
1,-0.417,-0.3691,0.4841,0.8552,0.3635,0.904,2051
1,0.5264,-1.1433,1.084,1.0716,1.5447,0.3151,2035
1,1.9999,-2.0,0.5129,-0.9764,1.2809,-0.8317,2025
1,1.8528,-2.0,-0.6794,-1.1896,2.6084,-0.4983,2044
1,1.3096,-1.5256,-0.0249,-0.7455,2.2715,0.439,2060
1,-0.4163,-0.3486,0.4207,0.6392,2.6896,1.089,2061
1,0.1365,-1.0847,0.6699,-0.2686,1.9881,2.2615,2041
1,-1.0046,-1.0547,-0.332,-0.35,2.2178,1.6652,2040
1,-0.2856,-0.4304,-0.0393,0.6417,1.1119,1.868,2052
1,-0.2964,-1.0767,-0.0769,0.3814,-0.4065,1.6234,2037
1,-0.3359,-1.0774,-0.6682,-0.7893,-0.057,0.6604,2038
1,-0.2327,-0.8184,-0.729,-0.8793,0.4859,0.0272,2045
1,0.0852,-0.8398,-0.1426,-0.8035,-0.0486,0.2177,2039
1,0.012,-1.3772,0.1687,-0.3151,0.016,0.8858,2032
1,-0.0894,-1.0764,0.155,-0.1366,0.3622,1.0013,2055
1,-0.2866,-1.075,0.0935,0.1068,0.6156,0.7311,2047
1,-0.3091,-1.0066,0.1272,0.0422,0.7359,0.5352,2048
1,-0.1379,-0.9136,0.1104,-0.091,0.4315,0.3667,2046
1,-0.2305,-1.0034,0.0105,-0.2165,0.403,0.2184,2040
1,-0.1711,-1.0579,0.0801,-0.3063,0.4064,0.0501,2040
1,-0.0103,-1.0776,0.0576,-0.3237,0.3807,-0.0133,2043
1,0.1606,-1.0659,0.0015,-0.247,0.2903,0.1189,2044
1,0.1721,-0.999,-0.0549,-0.153,0.0979,0.2454,2043
1,0.167,-0.9895,-0.1292,-0.0975,-0.1334,0.2799,2040
1,0.1079,-0.9907,-0.1765,-0.0286,-0.2205,0.2317,2042
1,0.0593,-0.9849,-0.1714,0.0365,-0.2067,0.2016,2036
1,0.0562,-0.9871,-0.1072,0.0234,-0.1973,0.1975,2046
1,0.0308,-1.0073,-0.0288,0.0157,-0.2075,0.2015,2042
1,0.0266,-1.041,-0.0015,0.0205,-0.2161,0.2254,2041
1,0.0208,-1.033,-0.0188,0.0041,-0.1926,0.2434,2045
1,-0.0166,-1.0259,-0.0229,-0.017,-0.1324,0.2112,2032
1,0.0046,-1.0256,-0.032,-0.0744,-0.066,0.1505,2045
1,0.0435,-0.9973,-0.0637,-0.0771,0.0084,0.1132,2041
1,0.1033,-0.9939,-0.0645,-0.0698,0.033,0.1381,2046
1,0.1152,-0.9861,-0.0569,-0.043,0.0197,0.2027,2050
1,0.0762,-0.9719,-0.0125,-0.0728,0.1396,0.2159,1987
1,0.0576,-0.9614,-0.001,-0.0675,0.2406,0.2503,2050
1,0.2839,-1.0139,-0.0034,-0.191,0.0505,0.2747,2031
1,0.177,-0.9316,-0.0256,-0.1824,-0.0621,0.3465,2058
1,0.2983,-1.0322,-0.0564,-0.1762,-0.2017,0.5119,2045
1,0.208,-1.0776,-0.0671,-0.3133,-0.1743,0.3746,2041
1,0.3257,-0.8098,0.1189,-0.5948,-0.9588,0.8042,2048
1,-0.2754,-0.8894,-0.2231,-0.2747,-0.1828,0.5903,2030
1,0.1353,-1.2285,0.0208,-0.2657,0.3859,0.3755,2101
1,-0.0312,-1.0435,-0.0466,-0.0852,0.6086,0.7276,1996
1,0.335,-1.0989,-0.0154,-0.2827,0.2779,0.7517,2029
1,0.3157,-1.0706,-0.0098,-0.3646,-0.3767,0.6405,2047
1,-0.1516,-0.8184,-0.0654,-0.3084,-0.3585,0.8152,2035
1,0.0393,-0.9734,-0.0312,-0.2683,-0.3397,0.9429,2043
1,0.0229,-1.0242,-0.0564,-0.3075,-0.2464,0.9786,2048
1,-0.0059,-0.9966,-0.0059,-0.3437,-0.2554,0.9332,2033
1,-0.02,-1.022,-0.0393,-0.3725,-0.2811,0.9078,2043
1,0.2437,-0.8738,0.0303,-0.3027,-0.8673,1.1376,2089
1,-0.1702,-1.1379,-0.134,-0.4275,-0.3445,1.0395,1971
1,-0.1357,-0.9458,-0.0151,-0.4113,-0.277,0.8613,2075
1,-0.1484,-0.9971,-0.043,-0.3846,-0.1197,0.8119,2054
1,-0.1736,-0.9763,-0.0605,-0.3954,0.0586,0.8028,2051
1,-0.092,-0.9783,-0.0679,-0.4478,0.0858,0.7742,2051
1,-0.0278,-1.0288,-0.0186,-0.4396,0.0866,0.8,1968
1,-0.0303,-1.0432,-0.0515,-0.4454,0.049,0.858,2045
1,-0.0566,-1.0247,-0.0581,-0.4864,0.0244,0.8593,2109
1,-0.0583,-1.0088,-0.0303,-0.4801,-0.0181,0.8949,2062
1,-0.0898,-1.0608,-0.0425,-0.4875,-0.0606,0.9351,2109
1,0.0173,-1.0061,-0.0955,-0.4841,-0.0724,0.9871,1775
1,0.0034,-0.9846,-0.115,-0.4618,-0.1139,1.0389,2109
2,0.0073,-1.0522,-0.1096,-0.437,-0.091,1.1734,2110
2,-0.0127,-1.0474,-0.0859,-0.4377,-0.0981,1.2704,2007
2,-0.0125,-1.1592,-0.0718,-0.4883,-0.1416,1.2098,1952
2,-0.0059,-1.1279,-0.0417,-0.4759,-0.1724,1.3829,2129
2,-0.0305,-1.147,-0.0298,-0.5212,-0.1752,1.3754,2073
2,-0.0063,-1.1741,-0.0107,-0.5341,-0.194,1.4956,2012
2,-0.0439,-1.1809,0.0244,-0.5669,-0.2041,1.539,2058
2,-0.0569,-1.2407,0.0515,-0.5987,-0.1602,1.5878,2048
2,-0.0378,-1.1982,0.0615,-0.5939,-0.2124,1.7543,2063
2,-0.0713,-1.1675,0.0774,-0.6016,-0.1999,1.7903,2105
2,-0.1345,-1.2427,0.1074,-0.6448,-0.1408,1.8329,2080
2,0.0181,-1.2585,0.0945,-0.6747,-0.2566,1.9177,2041
2,0.0146,-1.26,0.1223,-0.7368,-0.3059,1.9939,2043
2,0.0796,-1.3489,0.1182,-0.8349,-0.4538,1.9783,2007
2,0.1221,-1.3037,0.1387,-0.9005,-0.552,2.1644,2027
2,0.231,-1.3875,0.1619,-1.0761,-0.7612,2.2402,2010
2,0.282,-1.4622,0.1689,-1.2294,-0.9726,2.2664,2038
2,0.4678,-1.6079,0.2341,-1.423,-1.3121,2.4659,2052
2,0.7512,-1.6772,0.3201,-1.6917,-1.5358,2.5776,2050
2,1.0605,-1.7993,0.4856,-2.1056,-2.2409,2.581,2040
2,1.2593,-1.792,0.5813,-2.3681,-3.1127,2.7437,2047
2,1.1624,-1.9092,0.4695,-2.3248,-3.7351,2.696,2050
2,0.9148,-1.5408,0.4683,-2.2615,-3.7747,2.7422,2050
2,0.2385,-1.1719,0.1372,-2.2545,-3.348,4.0105,2029
2,0.3064,-2.0,0.0945,-1.6848,-3.8226,4.3634,2045
2,-0.9583,-1.9656,-0.1072,-1.8628,-3.7306,3.4246,2019
2,-1.5554,-1.2607,-0.6912,-2.0108,-2.1668,2.8795,2017
2,-1.3916,-0.9666,-0.6199,-1.1037,-1.4351,3.8143,2039
2,-0.7288,-2.0,-0.0808,-3.2943,-2.1577,1.4707,2056
2,-0.1577,0.0417,-0.5,-0.3277,-1.4583,3.4448,2089
2,-0.4448,0.8494,0.7178,0.4449,-1.5247,4.3634,2042
2,0.4666,0.6938,0.5413,-1.9065,-4.0222,3.3397,2034
2,-1.3296,-0.6108,-1.0305,-2.6521,-2.2831,-0.575,2032
2,-1.9937,-0.0142,-0.4026,-3.148,-2.7798,-0.883,2037
2,-1.7964,0.908,0.3467,0.874,-2.1254,-1.1231,2053
2,-1.175,0.3684,0.8486,1.3059,-2.5215,-1.6249,2036
2,0.0452,-0.9927,0.6968,-0.8941,-2.0997,-2.1682,2039
2,0.4282,-0.8772,0.3584,-1.5747,-0.7708,-3.058,2024
2,0.1252,-0.134,0.1836,-2.0859,0.1262,-3.5892,2057
2,-0.426,-0.0994,0.3921,-1.4551,0.6442,-2.9653,2054
2,-0.5435,-0.4973,0.5828,-1.0139,0.8092,-3.0257,2048
2,-0.4199,-0.2004,0.5686,-0.6793,0.8564,-2.9782,2048
2,-0.3479,-0.1702,0.6069,-0.7452,1.0836,-3.5671,2048
2,-0.2295,-0.1833,0.4751,-0.8293,1.3505,-3.7846,2045
2,-0.2603,-0.1096,0.3987,-0.6229,1.1591,-4.0133,2047
2,-0.301,-0.187,0.4465,-0.512,0.8536,-4.3635,2044
2,-0.0999,-0.1292,0.3772,-0.2879,0.3992,-4.3635,2042
2,0.0132,-0.1289,0.2529,-0.1052,0.0017,-4.3635,2053
2,0.0618,-0.2065,0.1169,0.0463,-0.1372,-4.3635,2051
2,0.0955,-0.2527,0.0972,0.3031,-0.2944,-4.3635,2045
2,0.1316,-0.3416,0.1311,0.6968,-0.5384,-4.3635,2035
2,0.1655,-0.4292,0.1667,1.0563,-0.8866,-4.3635,2062
2,0.2188,-0.5659,0.2493,1.1921,-1.2214,-4.3635,2037
2,0.2561,-0.6562,0.2568,1.2292,-1.3944,-4.3635,2058
2,0.2903,-0.7793,0.1436,1.4633,-1.4744,-4.3635,2043
2,0.1404,-0.8457,0.196,1.7285,-1.5866,-4.3635,2047
2,-0.2251,-0.9258,0.2947,1.7671,-1.9699,-4.3635,2044
2,-0.7542,-1.312,0.1951,1.9453,-2.5469,-4.3635,2038
2,-1.54,-1.9377,0.0276,1.8278,-2.6683,-4.3635,2047
2,-1.3765,-1.4805,-0.2419,1.6669,-1.8285,-4.3635,2043
2,-1.1497,-1.2432,-0.0508,1.801,-1.7092,-4.3635,2047
2,-1.3665,-1.5298,0.0942,1.8654,-1.3138,-4.3635,2044
2,-1.2764,-1.6958,0.0706,1.7654,-0.9718,-3.7769,2045
2,-0.063,-2.0,0.1372,-0.6549,-1.5201,-4.3635,2048
2,-0.9814,-1.2039,-0.7456,0.7677,-1.026,-1.4492,2063
2,-1.583,-1.9436,0.4153,-0.2758,-1.0729,-0.7443,2021
2,-1.3208,-1.8298,1.0764,-1.1124,-0.0543,-0.8469,2042
2,-1.5039,-2.0,-0.5728,1.0383,1.0341,2.6862,2032
2,-1.4536,-0.8997,1.3335,0.0656,-0.8335,2.4898,2018
2,0.0083,0.0442,1.2991,1.3342,-1.4838,3.0138,2065
2,1.5596,-1.5991,1.3618,0.59,0.7813,1.0152,2043
2,1.2551,-2.0,-0.1975,-1.992,4.3634,-1.1793,2048
2,0.8257,-0.5642,-1.5151,-3.3112,4.2125,0.6458,2043
2,-1.8218,-0.811,-0.8555,-1.231,1.2391,2.5553,2043
2,-1.491,-0.6389,-0.4177,-1.8277,0.856,1.7691,2055
2,-0.4683,-0.4573,0.2795,-1.5246,-0.1579,0.9433,2051
2,-0.5537,-0.9739,-0.1838,-0.7281,0.3543,0.7676,2030
2,-0.1074,-0.9666,-0.5308,-1.0219,-0.5649,0.0362,1989
2,-0.1025,-0.6873,-0.4509,-0.5436,-0.6903,-0.137,2053
2,0.1924,-0.8396,-0.2769,0.5566,-0.2466,-0.0232,2046
2,0.2795,-1.0291,0.1482,0.4183,-0.7458,0.2036,2044
2,0.0247,-1.0061,0.0698,0.2084,-0.2317,0.3769,2041
2,0.0667,-1.1348,0.1492,0.3498,0.4618,0.6797,2050
2,0.0281,-1.2471,0.2239,0.2814,0.8027,0.7429,2050
2,-0.0432,-1.0349,0.2957,0.1322,0.9428,0.5986,2054
2,-0.0359,-1.0034,0.2781,-0.1437,0.812,0.4229,2048
2,-0.0437,-1.0115,0.1516,-0.3221,0.537,0.2673,2048
2,-0.0024,-0.9954,0.0417,-0.3368,0.4036,0.2125,2040
2,0.093,-1.0212,-0.0698,-0.2386,0.3709,0.2386,2033
2,0.1956,-0.9861,-0.0803,-0.0333,0.4071,0.3366,2049
2,0.2417,-0.9814,-0.0161,0.1029,0.3964,0.4485,2045
2,0.2092,-0.998,0.031,0.1478,0.2574,0.5349,2043
2,0.1099,-1.0032,0.0664,0.1625,0.0811,0.587,2044
2,0.0742,-1.0063,0.061,0.1911,-0.0646,0.6513,2045
2,0.0808,-0.9885,0.0754,0.2461,-0.1625,0.696,2041
2,0.0845,-1.0063,0.0928,0.2341,-0.1988,0.7051,2047
2,0.0466,-0.9944,0.1128,0.2147,-0.1591,0.7672,2043
2,0.0325,-0.9971,0.1633,0.1277,0.0055,0.7022,2054
2,0.0828,-0.9968,0.1792,0.0338,0.0778,0.6819,2046
2,0.0586,-0.9775,0.1497,-0.0145,0.1417,0.6718,2046
2,0.0391,-0.9814,0.0984,-0.0553,0.2816,0.6509,2047
2,0.0566,-0.9917,0.0447,-0.1172,0.2918,0.6476,2041
2,0.0349,-0.9712,0.0298,-0.0975,0.2312,0.6446,2048
2,0.0532,-1.0015,0.0305,-0.0874,0.2023,0.6578,2046
2,0.0593,-1.002,0.0742,-0.0449,0.147,0.7006,2050
3,0.063,-0.9849,0.1091,-0.0523,0.041,0.7288,2048
3,0.085,-0.9834,0.1406,-0.078,-0.0637,0.7494,2055
3,0.0713,-0.9966,0.1763,-0.179,-0.0936,0.8066,2050
3,0.0886,-0.9958,0.1638,-0.4291,0.0634,0.8279,2054
3,0.0242,-0.999,0.1533,-0.4891,0.1815,0.7427,2043
3,0.0889,-0.967,0.1133,-0.4349,0.2108,0.8234,2053
3,0.092,-0.9729,0.063,-0.3928,0.1768,0.8677,2029
3,0.0669,-1.0308,0.0684,-0.3962,0.1212,0.9199,2016
3,0.0945,-1.0259,0.0942,-0.4769,0.114,1.0104,2044
3,0.1716,-1.0515,0.0227,-0.5974,0.2039,1.0236,1975
3,0.0872,-1.0432,-0.01,-0.5862,0.1273,1.0176,2032
3,0.0676,-0.9678,-0.0645,-0.5197,0.0928,1.0978,1975
3,0.0889,-1.0178,-0.0256,-0.506,0.1057,1.1668,2093
3,0.0642,-0.9729,0.0481,-0.4774,0.0679,1.2214,2058
3,0.0806,-1.0342,0.0676,-0.5325,-0.0447,1.2595,2038
3,0.1274,-0.9663,0.0676,-0.5452,-0.0292,1.3391,2080
3,0.1018,-0.9219,0.0498,-0.5241,-0.0473,1.4577,2042
3,0.1038,-0.9768,0.0588,-0.5331,0.0328,1.5343,2038
3,0.1047,-1.0293,0.0403,-0.5177,0.0369,1.6298,2082
3,0.0493,-1.0046,-0.0039,-0.4894,-0.0186,1.7181,2129
3,-0.0125,-1.1392,-0.0208,-0.5384,-0.2926,1.8447,2095
3,-0.2,-1.1489,-0.0559,-0.4293,0.1108,1.8808,2075
3,-0.0505,-1.0132,-0.1055,-0.3474,0.1121,1.8713,2045
3,-0.0649,-1.116,0.0012,-0.3278,0.0778,1.9208,1976
3,-0.0779,-1.179,0.0354,-0.3225,-0.0997,2.0483,2055
3,-0.2461,-1.1743,0.1685,-0.2115,-0.0208,2.1869,2051
3,-0.2324,-1.3333,0.2571,-0.2293,0.0096,2.1334,2034
3,-0.1274,-1.3022,0.3047,-0.2352,-0.1181,2.2178,2042
3,-0.0742,-1.4458,0.3008,-0.246,-0.1368,2.3004,2050
3,-0.0039,-1.4783,0.3389,-0.2791,-0.153,2.3739,2039
3,0.0808,-1.446,0.3506,-0.3309,-0.1534,2.5021,2049
3,0.2427,-1.4585,0.3435,-0.4703,-0.2726,2.561,2045
3,0.2366,-1.4434,0.3955,-0.5285,-0.3758,2.7536,2040
3,0.1392,-1.7397,0.3809,-0.4397,-0.405,3.0845,2045
3,0.3425,-2.0,0.4485,-0.5561,-0.3549,3.2154,2042
3,0.7166,-2.0,0.5142,-1.0292,-0.5516,2.9393,2043
3,0.9434,-1.9924,0.4893,-1.5294,-1.0625,2.6095,2043
3,0.9719,-1.7021,0.3115,-1.682,-1.5456,2.4269,2045
3,1.1538,-0.9353,0.0588,-1.3266,-2.2945,2.5547,2044
3,0.6296,-1.1572,0.2297,-1.1206,-3.4713,3.214,2037
3,-0.6694,-1.6482,-0.1892,-0.9021,-2.3047,3.0911,2033
3,-1.7942,-1.0608,-0.5317,-1.0176,-0.9857,3.3496,2030
3,-2.0,-2.0,0.1482,-1.6072,-0.6524,2.037,2028
3,-0.5413,-2.0,-0.2068,-1.6092,-1.2627,0.6059,2064
3,0.2314,1.1453,-0.0815,0.3092,-0.4863,3.1646,2075
3,-0.323,1.0081,-0.3218,-0.3309,-0.4666,4.007,2025
3,1.167,-1.355,-0.2021,-1.7101,-1.3877,2.8056,2042
3,-1.6287,-0.1228,-0.7505,-1.8022,0.0206,0.5277,2037
3,-0.9087,0.3906,0.0049,-1.4522,-0.7208,-0.2027,2042
3,-0.8862,-0.3196,-0.2402,0.2332,-0.9124,-0.9669,2042
3,-0.5183,0.1267,0.5129,0.6268,-3.144,-0.8084,2047
3,-0.3679,-0.6306,0.519,-0.5669,-2.948,-1.7434,2032
3,-0.123,-0.1606,0.1199,-1.0239,-1.964,-2.0329,2041
3,-0.0364,-0.2107,0.033,-1.1708,-0.8991,-2.2182,2044
3,-0.2324,-0.2913,0.0505,-0.8626,0.0282,-1.8524,2050
3,-0.5667,-0.2727,0.1355,-0.6084,0.5207,-2.0896,2050
3,-0.4753,-0.2434,0.2551,-0.5271,0.5558,-2.5089,2046
3,-0.2761,-0.2192,0.2825,-0.338,0.6339,-2.7425,2048
3,-0.2234,-0.2273,0.3076,-0.3281,0.9036,-2.9795,2044
3,-0.3293,-0.2729,0.3018,-0.377,1.1978,-3.1941,2045
3,-0.3811,-0.2786,0.3103,-0.3555,1.3069,-3.4796,2045
3,-0.4084,-0.2939,0.3252,-0.2482,1.1633,-3.853,2041
3,-0.3718,-0.3826,0.2964,-0.1812,1.0075,-4.2398,2042
3,-0.2539,-0.4143,0.2605,-0.1372,0.8372,-4.3635,2037
3,-0.0935,-0.4209,0.2532,-0.1148,0.6002,-4.3635,2044
3,0.0168,-0.4587,0.2656,-0.0569,0.2898,-4.3635,2044
3,0.0859,-0.5427,0.2383,0.0734,0.0613,-4.3635,2044
3,0.1313,-0.6389,0.2063,0.2776,-0.1675,-4.3635,2047
3,0.1357,-0.7244,0.2014,0.5267,-0.3908,-4.3635,2045
3,0.1233,-0.8215,0.2351,0.7859,-0.5647,-4.3635,2047
3,0.1157,-0.8979,0.2651,1.0106,-0.6963,-4.3635,2047
3,0.0544,-0.9771,0.2949,1.1925,-0.7983,-4.3635,2036
3,0.0461,-1.1123,0.2861,1.3236,-0.9532,-4.3635,2045
3,0.009,-1.3447,0.3052,1.3597,-1.2123,-4.3635,2043
3,-0.0591,-1.5186,0.2927,1.331,-1.5362,-4.3635,2044
3,-0.1626,-1.5881,0.2595,1.2541,-1.6864,-4.3635,2043
3,-0.2639,-1.5818,0.2585,1.276,-1.8522,-4.3635,2042
3,-0.2981,-1.6536,0.2681,1.36,-1.9847,-4.3635,2048
3,-0.3088,-1.8115,0.2778,1.4226,-2.0244,-4.3635,2045
3,-0.2583,-1.9185,0.2292,1.4193,-1.8346,-3.9559,2044
3,0.082,-1.803,0.0273,0.7179,-2.1399,-3.1429,2045
3,-1.229,-1.4805,0.1479,1.2551,-0.9708,-2.946,2039
3,-1.0564,-1.2432,0.0122,0.7729,-0.4357,-2.4105,2047
3,-0.7634,-1.4861,0.1614,0.5433,0.3727,-2.2475,2046
3,-0.3843,-1.3103,0.1956,0.0349,0.3456,-2.0094,2052
3,-0.322,-1.4404,0.2371,-0.6886,-0.3076,-1.4295,2033
3,-0.2559,-1.0154,-0.2798,-0.5753,-0.7929,0.4971,2045
3,-1.3628,-1.0388,-0.0142,0.039,0.6602,1.0753,2039
3,-1.0261,-1.6672,0.677,-1.0144,0.8128,1.6629,2042
3,-0.259,-2.0,0.7168,-4.0715,-0.1489,3.3934,2032
3,-1.6438,-0.7061,0.9866,-1.1111,0.0028,2.4651,2045
3,1.5625,0.1523,1.4512,-0.1462,0.499,1.436,2073
3,1.9999,-1.4453,1.6121,0.2581,-0.815,-0.1245,2046
3,1.3169,-0.5461,0.1274,-0.2211,1.4484,1.8532,2030
3,0.2024,-1.3999,0.0642,-0.1365,2.0734,2.2413,2022
3,-0.4385,-0.78,0.0447,0.6537,2.2919,2.9838,2049
3,0.0117,-0.9695,0.405,-0.1261,1.2094,2.6014,2044
3,-0.1274,-2.0,-0.2158,-3.0167,0.3401,0.5333,2041
3,-2.0,-2.0,-0.9231,-3.6729,4.2089,0.8339,2035
3,-0.4961,-0.3967,-0.4854,-2.6757,1.7385,1.4352,2074
3,-0.5408,-0.3389,-0.2966,-1.4573,-1.3007,1.9819,2056
4,-0.2646,-0.7539,0.2532,-0.8642,-0.9203,1.062,2043
4,-0.2429,-0.8083,-0.0146,-1.2194,-0.7215,0.4745,2036
4,-0.1113,-0.8149,-0.9617,-0.045,-0.3492,0.9539,2043
4,-0.0132,-0.407,0.0046,0.6404,-0.4292,0.7188,2056
4,0.2898,-0.8572,0.4194,0.3613,-0.9685,0.6508,2044
4,-0.2529,-1.1643,0.0986,-0.1574,-0.8585,0.7855,2052
4,-0.4722,-1.1787,0.2961,-0.3836,0.0064,0.7363,2039
4,-0.3542,-1.1587,-0.0562,-0.1089,0.6686,0.6946,2048
4,0.123,-1.179,0.1799,-0.1378,0.9186,0.4307,2053
4,0.3145,-1.0054,0.1799,-0.7231,0.999,0.1939,2041
4,0.2224,-0.8572,0.0293,-0.6741,0.9136,0.2888,2051
4,0.1096,-0.9194,-0.0972,-0.4417,0.7704,0.3871,2045
4,0.1526,-1.0354,-0.0718,-0.2128,0.2131,0.3659,2043
4,0.0508,-1.0366,-0.1003,-0.0979,-0.004,0.332,2046
4,-0.012,-0.9819,-0.1099,0.0007,-0.0145,0.2998,2059
4,0.0242,-0.97,-0.0596,0.1409,-0.091,0.2698,2054
4,0.1282,-0.9873,-0.0581,0.2111,-0.2056,0.2914,2044
4,0.137,-0.9946,0.0242,0.2622,-0.1988,0.2918,2041
4,0.0845,-1.0024,0.019,0.322,-0.2329,0.3243,2047
4,0.0261,-0.9875,0.062,0.3229,-0.2595,0.3405,2049
4,0.0544,-0.9751,0.0654,0.2734,-0.2606,0.3514,2043
4,0.1147,-0.998,0.064,0.1666,-0.2677,0.3255,2047
4,0.1907,-0.9744,0.0627,0.1326,-0.3148,0.3225,2047
4,0.1941,-0.9604,0.0029,0.132,-0.1694,0.3426,2042
4,0.2068,-0.9438,0.0356,0.1421,0.028,0.3934,2055
4,0.197,-0.9763,0.0713,0.1115,0.1451,0.4874,2043
4,0.1653,-1.0095,0.1323,0.092,0.2168,0.5675,2042
4,0.1689,-1.0029,0.1355,0.0649,0.2412,0.6315,2045
4,0.1699,-1.001,0.1768,0.0463,0.2842,0.7027,2037
4,0.2109,-1.011,0.2048,0.0081,0.3115,0.7759,2056
4,0.1953,-0.998,0.2156,0.002,0.3426,0.8504,2042
4,0.1787,-1.0015,0.2058,-0.0663,0.3695,0.8829,2055
4,0.1548,-0.9717,0.1299,-0.1545,0.4433,0.9148,2046
4,0.1414,-0.968,0.0688,-0.1976,0.4727,0.9777,2049
4,0.2227,-0.9377,0.0623,-0.1996,0.3348,1.0565,2045
4,0.1523,-0.9507,0.0637,-0.1505,0.38,1.2114,2045
4,0.0747,-0.9829,0.0283,-0.145,0.4469,1.3587,2058
4,0.1023,-0.9836,0.1262,-0.2187,0.3687,1.4027,2011
4,0.1152,-0.9536,0.1763,-0.3719,0.2221,1.4414,2078
4,0.0613,-1.033,0.1436,-0.4761,0.2258,1.4342,2045
4,-0.0081,-1.0525,0.1221,-0.5269,0.2586,1.4771,1993
4,-0.0496,-0.9868,0.0415,-0.5448,0.2223,1.4443,2047
4,-0.0901,-0.9812,0.0051,-0.4797,0.2723,1.4171,2051
4,-0.0508,-0.9805,0.0061,-0.4402,0.2153,1.438,2031
4,0.0571,-0.9878,0.0027,-0.4759,0.1771,1.4948,2016
4,0.0508,-0.9641,0.0298,-0.4729,0.1338,1.5262,2039
4,0.0042,-1.011,0.0796,-0.5251,0.0625,1.5812,1917
4,0.0269,-1.0569,0.1729,-0.5707,0.0952,1.659,1998
4,-0.0017,-0.9878,0.124,-0.5731,0.2322,1.7069,2001
4,0.0557,-1.0698,0.0815,-0.6187,0.1992,1.7635,2007
4,0.0073,-1.0286,-0.02,-0.6231,0.2115,1.8422,2110
4,-0.0227,-0.9941,0.019,-0.63,0.1858,1.8871,2043
4,-0.0461,-0.9973,0.019,-0.5814,0.0415,2.0354,2037
4,-0.0735,-0.9409,0.0596,-0.5612,-0.3693,2.2027,2021
4,-0.3303,-1.0769,0.0183,-0.5088,-0.043,2.1225,2074
4,-0.3062,-0.9978,0.0254,-0.4295,0.0519,2.1463,1975
4,-0.1848,-1.051,0.0676,-0.3581,0.0999,2.2429,2044
4,-0.2141,-1.0969,0.1931,-0.2739,0.2466,2.4143,2048
4,-0.072,-1.1902,0.1858,-0.3409,0.1077,2.4129,2009
4,-0.115,-1.3,0.2126,-0.3153,0.1117,2.5634,2008
4,0.0366,-1.3691,0.1892,-0.3213,-0.124,2.6818,2055
4,0.1973,-1.5151,0.2766,-0.2923,-0.2766,2.9285,2041
4,0.176,-1.7598,0.323,-0.3643,-0.4153,3.1778,2039
4,0.4314,-1.9187,0.4011,-0.5693,-0.4682,3.3433,2037
4,0.5811,-2.0,0.5388,-0.8682,-0.5452,3.4605,2046
4,0.6641,-2.0,0.6975,-1.272,-0.571,3.5742,2045
4,1.1445,-2.0,0.7451,-1.6775,-0.9509,3.7093,2038
4,1.3979,-2.0,0.7681,-1.8504,-1.6949,4.1924,2043
4,1.4666,-2.0,0.5713,-1.8636,-2.9084,4.1989,2044
4,0.9861,-2.0,-0.0332,-1.7145,-2.9086,3.7842,2047
4,0.0808,-1.1013,-0.3755,-1.2082,-2.0205,4.3634,2052
4,-0.738,-0.9453,-0.2788,0.3474,-2.3788,4.3634,2024
4,-1.105,-1.6064,-0.8643,-0.4277,-0.4674,4.3634,2034
4,-2.0,-1.9199,-1.011,0.9653,1.9108,4.3634,2039
4,-2.0,-2.0,-0.2676,0.5877,3.2387,0.6201,2042
4,1.6294,1.2888,-0.481,1.9177,2.2413,1.7642,2097
4,1.1221,1.4006,-0.1699,0.685,0.7901,3.0778,2052
4,-2.0,-0.158,-1.4968,-0.607,4.1519,1.6902,2027
4,-1.0012,0.3684,-0.4875,0.2878,1.9084,0.0867,2035
4,-1.8159,1.0227,-0.8359,1.4229,2.2338,-2.265,2037
4,-0.314,1.4141,0.2651,4.3634,1.069,-1.2146,2064
4,0.3118,-1.3494,0.5281,3.1392,-0.0029,-1.7285,2040
4,-0.0779,-1.6252,0.0835,1.1822,1.3119,-4.3558,2026
4,0.6575,0.1895,-0.4463,1.2901,1.2549,-3.3833,2059
4,0.0325,0.2124,-0.6426,1.3454,2.532,-3.2921,2050
4,-0.1909,0.2339,-0.5269,2.1734,2.0787,-3.0452,2053
4,-0.3499,0.1504,-0.3899,2.6422,1.6251,-3.4013,2055
4,-0.5481,0.3503,-0.1487,3.2026,1.0444,-2.9092,2037
4,0.0881,-0.1814,-0.1929,3.4722,1.5083,-3.6038,2003
4,-0.478,-0.1123,-0.2905,3.5609,2.0539,-3.7016,2052
4,-0.1545,-0.3906,-0.7866,2.6039,2.7743,-4.3635,2025
4,-0.0457,0.1438,-0.2085,2.1347,2.3205,-4.3635,2053
4,-0.5764,-0.1477,-0.0618,2.7887,1.8899,-4.3635,2042
4,-0.5222,-0.3269,-0.0786,3.4613,1.1379,-4.3635,2048
4,0.2356,-0.2974,-0.3154,3.3264,1.4684,-4.3635,2056
4,0.7498,-0.4617,-0.2566,2.9339,1.8716,-4.3635,2059
4,0.3044,-0.6467,-0.3101,2.7671,1.22,-4.3635,2054
4,-0.324,-0.7908,-0.2695,2.7729,0.4452,-4.3635,2044
4,-0.5413,-0.9285,-0.3206,2.69,0.0603,-4.3635,2050
4,-0.4277,-0.8987,-0.2639,2.5571,0.0325,-4.3635,2068
5,-0.4478,-0.9968,-0.2581,2.3523,0.3935,-4.3635,2052
5,-0.6445,-1.3198,-0.2705,2.3396,0.5518,-4.3635,2056
5,-0.842,-1.6003,-0.167,2.1682,0.8774,-4.3635,2050
5,-0.8535,-1.6194,-0.1877,1.8203,1.3002,-4.3635,2037
5,-0.9849,-1.7087,-0.1714,2.0044,0.9985,-4.3635,2040
5,-1.0583,-1.7988,-0.1079,1.9503,0.9124,-4.3635,2043
5,-0.8911,-1.8994,-0.0596,1.7542,1.2575,-4.3635,2045
5,-0.5522,-1.9468,0.0195,1.4876,1.2798,-4.324,2049
5,-0.387,-1.8416,0.0315,1.1267,0.8839,-3.7234,2044
5,-0.3472,-1.7529,-0.1194,0.6581,0.6083,-3.3199,2045
5,-0.2878,-1.9473,-0.3455,0.1482,0.4564,-2.7979,2036
5,-0.5232,-1.874,-0.3389,-0.2928,0.4883,-2.1795,2032
5,-0.5615,-1.7312,-0.3428,-0.6617,0.4627,-1.5832,2043
5,-0.3848,-1.5083,-0.2197,-1.0626,0.1201,-0.9459,2047
5,-0.5352,-1.5825,-0.061,-1.5049,0.0486,-0.3362,2039
5,0.25,-2.0,0.5098,-4.3635,-1.1086,-1.0644,2021
5,-1.5884,0.8391,-0.0269,-1.34,0.891,1.8168,2112
5,-1.5088,-0.9133,1.9999,-0.7785,0.5612,1.236,2011
5,1.4141,0.2656,1.9999,0.6548,1.3098,1.9864,2062
5,0.8359,-0.6265,1.9999,3.0886,1.5852,1.3962,2035
5,1.4146,-2.0,1.9999,0.1549,2.9305,1.1374,2027
5,0.46,-1.2307,1.0286,-1.7721,1.4463,1.1188,2048
5,-0.051,0.147,0.3479,-1.4631,0.9206,0.7553,2035
5,-1.3281,-0.4026,0.6104,-1.4272,1.2382,0.6653,2037
5,-0.7844,-1.4771,-0.0107,-0.0226,3.626,1.1095,2035
5,-1.377,-2.0,-0.2258,-2.9104,2.9289,0.1732,2041
5,-1.3962,-2.0,-1.6946,-3.2421,4.3634,1.5137,2033
5,0.095,0.2188,-0.613,-1.7869,2.3166,1.2238,2069
5,1.3301,-0.2092,-0.0845,-2.0176,-0.3216,0.0907,2061
5,1.645,-0.6172,-0.377,-1.3745,-0.6632,0.2392,2043
5,0.155,-1.0735,-0.9788,-1.0902,0.4528,0.9525,2020
5,0.3159,-1.6589,-0.3923,-0.8689,-0.1029,1.368,2050
5,-0.0349,-0.7979,0.1594,-1.0481,-0.5657,0.9551,2043
5,-0.1924,-0.5767,0.3958,-0.8505,-1.0533,0.4482,2050
5,-0.1108,-0.5876,0.3489,-0.2891,-1.0515,-0.034,2042
5,-0.2903,-0.8628,0.3428,0.2173,-0.4216,0.0186,2048
5,-0.7156,-1.2068,0.4827,-0.4683,0.773,0.5613,2057
5,-0.6099,-1.1082,0.5007,-0.6163,1.427,0.4245,2064
5,-0.7581,-0.6516,0.4387,-0.6691,2.2985,0.157,2051
5,0.6375,-1.0564,-0.5,-0.8348,1.2865,-0.0613,2013
5,0.282,-1.113,0.2295,-0.9616,0.8281,-0.0266,2065
5,0.1077,-1.0417,-0.2932,-0.7051,1.0567,0.4428,2041
5,0.2161,-0.9346,-0.1218,-0.4789,0.2258,0.3397,2038
5,0.3572,-0.9778,-0.0796,-0.4271,0.0832,0.3848,2047
5,0.2764,-0.9624,-0.2263,-0.2907,-0.0148,0.4822,2034
5,0.0806,-0.9915,-0.0288,-0.0927,-0.453,0.5733,2054
5,-0.1475,-0.9722,0.2126,0.023,-0.4971,0.5814,2047
5,-0.3286,-0.9041,0.2583,0.0453,-0.3027,0.4823,2046
5,-0.3228,-0.9385,0.3105,-0.0112,-0.0374,0.3581,2038
5,-0.1958,-0.9934,0.3394,-0.0768,0.2389,0.2703,2035
5,-0.0764,-0.9934,0.3472,-0.1731,0.4492,0.2477,2028
5,0.0742,-0.9412,0.1799,-0.2324,0.5163,0.3401,2028
5,0.1643,-1.0366,0.083,-0.3064,0.4888,0.4139,2057
5,0.251,-1.0225,0.0449,-0.3947,0.486,0.4329,2054
5,0.2122,-0.9978,0.0334,-0.4481,0.445,0.5078,2065
5,0.2166,-0.9285,0.0571,-0.3906,0.31,0.6489,2030
5,0.1462,-0.9138,0.0759,-0.2998,0.4413,0.8373,2055
5,0.0696,-0.9856,0.1436,-0.3425,0.5445,0.9553,2068
5,-0.0271,-1.0173,0.1848,-0.4155,0.6714,0.9764,2026
5,-0.0378,-0.9858,0.1221,-0.4525,0.736,0.9724,2055
5,0.0229,-1.0142,0.1113,-0.5152,0.7947,0.9854,2013
5,0.072,-0.9629,0.0862,-0.4914,0.8657,1.0798,2100
5,0.116,-1.0002,0.0195,-0.4872,0.9376,1.191,2042
5,0.1084,-1.0081,0.0061,-0.5047,0.9717,1.2623,2024
5,0.1401,-1.0417,0.011,-0.4964,0.9274,1.3669,1972
5,-0.0017,-1.0085,0.0198,-0.454,0.891,1.5135,2015
5,-0.0598,-0.9751,0.0698,-0.4087,0.8863,1.6194,1994
5,-0.1436,-1.0667,0.094,-0.4376,0.8416,1.5878,2120
5,-0.1052,-1.0598,0.103,-0.4157,0.8379,1.5852,2007
5,-0.1179,-1.1155,0.1248,-0.4595,0.5417,1.3753,1989
5,-0.1646,-1.0454,0.1345,-0.4702,0.381,1.3271,2128
5,-0.1692,-1.0537,0.1499,-0.4312,0.3504,1.3822,2087
5,-0.1951,-1.0464,0.1699,-0.4004,0.3236,1.4588,2156
5,-0.1855,-1.0417,0.238,-0.3139,0.4308,1.6362,2023
5,-0.0706,-1.1311,0.1567,-0.3762,0.3354,1.6086,2054
5,-0.0757,-1.1997,0.1145,-0.3842,0.3333,1.6222,2062
5,-0.0742,-1.106,0.1709,-0.3119,0.3272,1.8365,1983
5,0.0442,-1.2024,0.1152,-0.3412,0.1561,1.8721,2042
5,0.1274,-1.1221,0.1533,-0.3574,0.0005,1.971,2053
5,-0.324,-0.9805,0.1941,-0.3229,0.1734,2.1927,2105
5,-0.1487,-1.0862,0.1479,-0.2695,0.3173,2.3068,2031
5,-0.0391,-1.1274,0.1433,-0.2021,0.463,2.425,2064
5,0.0027,-1.2268,0.198,-0.1784,0.4295,2.5044,2058
5,0.0293,-1.3247,0.1633,-0.1675,0.3828,2.6139,2056
5,0.2134,-1.4783,0.175,-0.2226,0.3402,2.7657,2049
5,0.3633,-1.6162,0.1096,-0.2788,0.2774,2.8612,2043
5,0.5288,-1.8313,0.1423,-0.4018,0.328,3.0079,2039
5,0.822,-1.9863,0.2949,-0.6241,0.2653,3.1369,2053
5,0.5396,-1.949,0.3923,-0.8203,0.6349,3.2116,2044
5,1.9999,-1.7686,0.5781,-0.6845,-1.3103,3.0126,2045
5,1.9999,-1.1746,0.7761,-0.7256,-3.4252,4.1644,2047
5,1.011,-1.6917,0.5923,-0.4851,-4.3635,4.3634,2039
5,-0.4456,-2.0,-0.0564,-0.3781,-3.0721,2.494,2020
5,-1.0085,-1.6375,-0.5652,-0.3376,0.0638,2.4437,2037
5,-2.0,-1.0806,-0.9304,-1.235,1.9872,2.8296,2031
5,-0.9307,-2.0,-0.4768,-2.2652,-1.0126,1.5736,2069
5,-2.0,-0.1135,-0.4666,1.7201,0.03,4.3634,2086
5,-2.0,-2.0,0.5518,2.4723,3.2535,4.3634,2059
5,1.9999,0.5984,1.0764,-0.8481,-0.6616,4.3634,2003
5,-0.5166,-0.2563,-1.3711,-0.4456,2.0065,0.0133,2024
5,-1.052,-0.9412,-1.2031,-1.937,2.0401,0.4309,2030
5,-1.6987,-0.6042,-0.2634,-0.0866,0.8335,0.4042,2057
5,-1.4553,0.0991,0.1982,1.6723,-0.2176,-1.3195,2053
5,-0.478,0.2405,0.2607,2.4819,-1.0316,-1.0536,2043
5,-0.4749,-0.4426,-0.0291,0.1326,-0.2103,-2.1,2031
6,0.1738,-0.3757,-0.1748,-1.0286,1.1385,-2.8095,2026
6,0.2937,0.2803,-0.3396,-0.9792,1.2954,-3.5512,2051
6,-0.0664,0.0813,-0.3281,-0.8279,1.4956,-3.6906,2035
6,-0.1289,-0.1506,-0.3748,0.233,1.5182,-2.9132,2055
6,-0.3091,0.1765,-0.3108,1.4175,1.9267,-2.6533,2060
6,-0.3821,0.136,-0.0735,1.6242,2.0001,-2.9621,2050
6,-0.2646,-0.1248,-0.0051,1.3075,2.1261,-3.5396,2040
6,-0.3394,-0.1458,-0.123,1.0983,2.1055,-4.114,2020
6,-0.3193,-0.1936,-0.1216,1.1307,1.8791,-4.3635,2051
6,-0.3594,-0.1057,-0.2644,1.3292,2.0796,-4.3635,2033
6,-0.3906,-0.0742,-0.1584,1.6175,2.1662,-4.3635,2054
6,0.0725,-0.1116,-0.2004,1.5239,2.1304,-4.3635,2048
6,0.2285,-0.1558,-0.1531,1.6632,2.0738,-4.3635,2046
6,0.2808,-0.4614,-0.1436,1.8034,1.6916,-4.3635,2029
6,0.3704,-0.6599,-0.1992,2.035,1.4479,-4.3635,2043
6,0.3779,-0.6992,-0.1733,1.9622,1.2441,-4.3635,2039
6,0.1887,-0.7727,-0.2002,1.784,0.7279,-4.3635,2042
6,0.0222,-0.9294,-0.2747,1.7779,0.0961,-4.3635,2044
6,-0.03,-1.0503,-0.3193,1.8548,-0.463,-4.3635,2046
6,-0.0095,-1.1406,-0.2852,1.8494,-0.8138,-4.3635,2045
6,0.0242,-1.2585,-0.2407,1.7869,-1.0475,-4.3635,2047
6,-0.0256,-1.4595,-0.167,1.702,-1.3158,-4.3635,2048
6,-0.0989,-1.749,-0.0242,1.5352,-1.7158,-4.3635,2044
6,-0.2097,-1.7847,0.0061,1.2685,-2.1423,-4.3635,2048
6,-0.2197,-1.6956,-0.0132,1.1902,-2.485,-4.3635,2045
6,-0.1042,-1.8809,0.0603,1.1909,-2.9668,-4.3635,2047
6,-0.2627,-1.9951,0.1387,1.0589,-3.1188,-4.3635,2047
6,-0.4963,-1.8586,0.2437,0.9114,-2.96,-3.9982,2044
6,-0.6367,-1.8923,0.2092,0.7708,-2.6723,-3.6282,2048
6,-0.8083,-1.926,0.1311,0.6606,-2.5718,-3.0332,2046
6,-0.9849,-1.6978,0.0764,0.3302,-2.6942,-2.2218,2050
6,-1.1316,-1.5315,0.1982,-0.2161,-2.3489,-1.5669,2029
6,-1.1538,-1.2537,0.3386,-0.7204,-1.0605,-1.0963,2063
6,-1.1455,-0.9204,0.3098,-0.707,0.6337,-0.4289,2046
6,-0.959,-1.2275,0.5977,-1.0025,1.087,0.432,2042
6,-0.7141,-1.1147,0.3098,-0.8809,0.3297,1.6576,2042
6,-0.3491,-1.7537,0.9373,-1.9454,-0.0269,1.5065,2026
6,-0.0708,-0.7661,0.9622,-1.7302,-0.3947,2.3485,2052
6,-0.8569,-2.0,1.9999,-2.9755,0.4442,2.4104,2014
6,1.1731,-0.5859,1.9999,-1.0473,2.7006,0.4952,2065
6,1.9999,-1.3555,1.0015,0.2678,1.0069,-0.8573,2019
6,-0.1436,-0.7227,-1.3708,-0.353,2.6309,1.772,2040
6,-0.97,-0.4727,0.7932,0.2974,3.0794,2.4601,2063
6,0.2222,-0.2122,0.0427,0.3686,2.9381,2.5531,2038
6,-1.7686,-2.0,0.575,-1.9144,4.0535,0.2725,2030
6,-1.9863,-2.0,-2.0,-3.9254,4.3634,1.6751,2052
6,0.073,-0.6851,-0.9126,-2.2708,1.0777,2.2383,2059
6,1.5366,0.6079,1.3237,-1.1132,-2.6207,2.4609,2037
6,-0.4443,-1.5574,-0.6709,-1.8948,-1.4077,2.255,1990
6,-0.0774,-1.0896,-0.6467,-1.3657,-0.6281,0.6874,2049
6,-0.2524,0.2817,-0.1094,-0.4456,1.2816,0.5574,2057
6,-0.5972,0.0168,0.6663,0.6359,0.1944,2.3234,2049
6,-0.9958,-1.1982,0.7666,0.0134,-0.7508,1.3874,2022
6,-0.8826,-1.8423,0.2849,-0.6173,0.0571,1.1736,2040
6,-0.4861,-1.0017,-0.094,-0.6144,1.1364,0.6983,2052
6,0.0198,-1.0186,0.0349,-0.9163,1.3757,0.3172,2068
6,0.6418,-0.6682,0.5117,-0.8652,1.1769,0.1194,2041
6,-0.1326,-0.9136,-0.0232,-0.5984,0.2751,0.0884,2039
6,0.1047,-0.7966,-0.3142,-0.5083,0.7277,0.5219,2044
6,0.1262,-1.1807,-0.271,-0.5877,-0.2056,0.3902,2042
6,0.1255,-0.9824,-0.2158,0.0535,0.0043,0.604,2060
6,0.0381,-0.9824,-0.2073,0.1373,-0.102,0.4418,2039
6,0.0554,-1.02,-0.1843,0.3063,-0.1,0.5995,2042
6,0.0288,-0.9893,-0.0837,0.2658,-0.3,0.695,2044
6,-0.0554,-1.0369,0.02,0.1888,-0.4054,0.6802,2038
6,-0.0071,-1.0159,0.0549,0.1579,-0.4189,0.541,2045
6,0.0173,-0.98,0.1157,0.1184,-0.3318,0.4586,2054
6,0.0764,-0.9602,0.054,0.0684,-0.2605,0.4835,2044
6,0.3259,-0.9106,0.0278,0.0397,-0.2858,0.5882,2047
6,0.196,-0.9841,0.0366,-0.0816,-0.2372,0.5874,2046
6,0.1443,-0.9561,0.0215,-0.0908,-0.1,0.6392,2031
6,0.1392,-1.115,0.0732,0.0153,0.4386,0.7963,2041
6,0.5115,-1.1448,0.1909,-0.1631,-0.0547,0.6782,2065
6,0.0813,-0.8472,0.0381,-0.2595,0.0005,0.9028,2032
6,0.3071,-0.9734,0.0754,-0.3147,0.1044,0.9628,2085
6,0.2913,-0.9712,0.1069,-0.424,0.1205,1.2609,2021
6,0.1536,-0.9983,0.0415,-0.4593,0.19,1.3998,2029
6,0.0601,-1.0037,0.04,-0.4988,0.2305,1.511,2056
6,0.0518,-0.999,0.0383,-0.5285,0.1007,1.54,2042
6,0.0254,-1.0083,0.0176,-0.5446,-0.0393,1.5476,2104
6,0.0205,-1.0256,0.0149,-0.5484,-0.1083,1.5833,1973
6,-0.0164,-1.0405,0.0364,-0.5663,-0.1903,1.6363,2065
6,-0.0818,-0.9907,-0.019,-0.5663,-0.2947,1.5664,2076
6,-0.1316,-1.3557,-0.0488,-0.8138,-0.0154,1.3806,2063
6,-0.2012,-1.1167,-0.0693,-0.6694,0.7407,1.6592,2041
6,0.2126,-0.804,-0.0444,-0.6138,0.0051,1.2465,2041
6,-0.0776,-1.1643,-0.0244,-0.6648,0.3221,1.6239,2103
6,0.0212,-0.9438,-0.1101,-0.6193,0.3132,1.6508,1966
6,0.0654,-0.9451,-0.0117,-0.6209,0.0237,1.6829,2100
6,-0.0835,-1.1062,-0.0029,-0.6417,0.1551,1.7908,2050
6,-0.0657,-1.1311,0.0081,-0.6165,0.1744,1.8152,2077
6,-0.0129,-1.0425,0.074,-0.6087,0.1257,1.9335,2059
6,-0.019,-1.1631,0.1077,-0.6341,0.1024,1.9947,2040
6,-0.1941,-1.1724,0.1726,-0.6217,0.1288,2.1189,2018
6,-0.2168,-1.1174,0.2107,-0.5787,0.2462,2.1626,2042
6,-0.2747,-1.2058,0.207,-0.5099,0.4356,2.2932,2005
6,-0.0828,-1.2615,0.1052,-0.4926,0.7051,2.4462,2036
6,0.0264,-1.3789,0.1411,-0.5019,0.7209,2.5618,2130
6,0.2039,-1.5024,0.0859,-0.5458,0.6034,2.6867,2040
6,0.3672,-1.6377,0.1487,-0.643,0.2838,2.8031,2031
6,0.481,-1.686,0.1968,-0.7216,-0.1791,3.0494,2046
6,0.5264,-1.8193,0.2402,-0.7906,-0.5942,3.3196,2032
7,0.8372,-2.0,0.4104,-0.9369,-1.1806,3.6716,2036
7,1.2166,-2.0,0.6667,-1.4038,-1.8038,3.3487,2038
7,1.47,-2.0,0.7988,-1.9695,-2.6478,2.966,2042
7,1.5713,-2.0,0.8611,-2.1302,-3.7009,2.9249,2042
7,1.3547,-1.7905,0.7725,-2.003,-4.3401,2.8834,2058
7,-0.1733,-0.9797,0.1843,-1.8401,-2.9313,3.2519,2054
7,0.7444,-0.677,-0.3999,-0.7411,-2.9127,4.3634,2041
7,-0.801,-2.0,-0.2932,-0.3437,-3.1552,3.9871,2002
7,-1.6672,-1.894,-0.4741,-1.3874,-1.6158,3.7338,2030
7,-2.0,-1.8157,0.2661,-1.3182,-1.8965,3.0134,2041
7,-0.9001,-2.0,0.1948,-2.6946,-2.1399,1.8784,2046
7,-1.1038,-0.113,-0.8103,1.9622,0.2456,4.3634,2098
7,0.3149,1.9116,1.28,1.0533,0.175,4.3634,2037
7,0.3374,-0.5701,-1.0029,-0.732,-1.1086,1.7463,2017
7,-1.3564,-0.5454,-1.0356,-2.5369,0.1657,0.1775,2004
7,-1.6177,-0.7854,-0.6477,-1.8759,-1.3699,-0.2354,2057
7,-1.3311,1.2744,0.1013,1.6372,-1.2375,-1.3517,2063
7,-0.7417,0.5781,0.8081,2.4924,-2.0555,-1.7547,2034
7,-0.1582,-0.8352,0.4307,-0.2294,-1.6163,-2.129,2032
7,0.1787,-0.647,-0.1838,-1.4793,-0.2931,-3.0838,2034
7,0.4238,-0.457,-0.0715,-1.3677,-0.0465,-3.5921,2053
7,0.0259,0.1187,-0.2458,-0.9325,0.6747,-2.8526,2051
7,-0.4602,0.0325,-0.1704,-0.3956,0.6891,-2.7795,2055
7,-0.5366,0.0464,-0.0098,0.0707,0.5287,-3.1871,2052
7,-0.4102,0.1125,0.0381,0.229,0.9686,-3.4729,2049
7,-0.3345,-0.0156,0.0325,0.3374,1.5873,-3.5583,2043
7,-0.324,-0.1499,0.0027,0.4046,1.8277,-3.7082,2046
7,-0.3293,-0.1028,-0.074,0.5332,1.7056,-4.0154,2044
7,-0.4824,0.1208,-0.1384,0.9195,1.9369,-4.3635,2038
7,-0.1829,0.1973,-0.1729,1.0256,2.0489,-4.3635,2049
7,-0.1287,-0.042,-0.0681,1.1081,2.1225,-4.3635,2043
7,0.094,-0.095,-0.0068,1.2248,1.6958,-4.3635,2039
7,-0.042,-0.166,-0.052,1.3347,1.4235,-4.3635,2044
7,0.1082,-0.2188,-0.1304,1.5154,1.1279,-4.3635,2048
7,0.1936,-0.2939,-0.1235,1.6484,0.9135,-4.3635,2046
7,0.2715,-0.3865,-0.1277,1.7014,0.7562,-4.3635,2039
7,0.2964,-0.5479,-0.0759,1.6543,0.55,-4.3635,2051
7,0.3489,-0.7402,-0.0435,1.6321,0.5195,-4.3635,2045
7,0.3967,-0.917,-0.1394,1.931,0.4129,-4.3635,2069
7,0.3606,-1.2163,-0.1467,2.1474,0.0675,-4.3635,2056
7,0.0955,-1.7888,0.0042,2.1173,-0.4002,-4.3635,2045
7,-0.5935,-2.0,0.2131,1.6534,-1.3601,-4.3635,2042
7,-1.0156,-2.0,-0.0068,1.3531,-1.8526,-4.3635,2040
7,-0.6553,-1.9407,-0.0964,1.3713,-2.3554,-4.3635,2040
7,-0.2598,-2.0,-0.0574,1.4352,-3.0925,-4.3635,2044
7,0.0715,-2.0,-0.1091,1.1136,-3.8689,-4.3635,2050
7,-0.2976,-2.0,-0.0923,-0.1539,-3.1232,-4.3635,2037
7,-1.3101,-0.9443,-0.8496,1.4757,-1.4669,-3.0998,2055
7,-1.6694,-1.666,-0.2402,1.1218,-0.6474,-2.4666,2047
7,-1.2993,-1.7961,0.124,0.5646,-0.507,-1.846,2043
7,-0.6772,-1.71,0.4854,-0.5453,-0.4099,-0.9448,2049
7,-0.2637,-1.2024,0.2886,-1.0104,-0.6798,0.3573,2059
7,0.0559,-2.0,0.8643,-2.5224,-1.8,0.5448,2023
7,-0.9033,-0.6309,0.2546,-1.0606,-0.6478,1.7743,2050
7,-2.0,-1.9841,1.9999,0.781,0.394,3.9612,2040
7,0.6858,-0.7551,1.9999,-2.1355,0.8629,4.3331,2030
7,1.9999,0.033,1.9999,-0.2225,1.3404,1.2025,2038
7,1.9999,-2.0,0.457,-1.8202,-0.8468,0.0906,2014
7,-1.7917,-1.3101,0.1599,-0.9236,3.4804,2.8139,2052
7,-1.9165,-0.8279,0.9258,0.977,4.1785,3.7595,2055
7,-1.0393,-2.0,0.5361,0.1052,3.6956,3.2669,2038
7,-1.27,-2.0,-1.3315,-4.3439,4.3634,1.7962,2032
7,-0.6946,-0.7251,-2.0,-4.3635,4.0116,1.5688,2061
7,1.3552,1.2783,-1.0674,-3.4661,-0.5333,0.7576,2084
7,-0.6118,-0.748,0.2419,-1.5261,-0.6147,1.9415,2011
7,0.2869,-1.1072,-1.3057,-1.4103,-1.9391,1.7861,2030
7,-0.1033,-1.0269,-1.0869,-1.277,0.4036,1.1126,2054
7,0.342,0.3013,-0.1326,0.5157,0.8088,1.4137,2063
7,-0.3792,0.3955,0.6809,2.4069,0.1003,2.5742,2039
7,-0.0752,-1.3655,0.3354,0.3703,1.3201,1.9273,2033
7,-1.2422,-2.0,0.4692,0.6577,0.4079,1.8126,2031
7,-0.7678,-1.1794,0.3171,-0.1465,0.9594,1.3131,2052
7,-0.0198,-0.9172,0.3933,-0.9505,0.753,0.866,2064
7,0.0066,-0.9993,0.387,-1.2215,1.1174,0.7063,2019
7,-0.2273,-1.0691,-0.1086,-1.089,0.652,0.6955,2049
7,-0.1255,-1.1104,-0.2244,-0.7155,0.0985,0.7235,2043
7,0.0249,-1.0691,-0.1787,-0.373,0.1719,0.7984,2041
7,0.2778,-0.9675,-0.2468,-0.1582,-0.0686,1.0242,2038
7,0.2256,-0.9495,-0.2358,-0.1161,-0.4313,0.9813,2039
7,0.179,-0.9978,-0.2959,-0.0067,-0.708,1.0463,2044
7,-0.0176,-1.0132,-0.2253,0.1085,-0.7545,1.0244,2047
7,-0.1577,-1.0081,-0.1145,0.1776,-0.5709,0.954,2058
7,-0.1699,-1.0044,-0.0161,0.1533,-0.3975,0.8842,2043
7,0.0562,-1.0149,0.1531,0.1272,-0.5172,0.8769,2040
7,-0.4385,-0.8977,0.1895,-0.0949,-0.3452,0.4056,2044
7,-0.1865,-0.9136,-0.051,0.015,-0.1527,0.3719,2035
7,0.2104,-1.0593,-0.0549,0.131,0.2971,0.669,2052
7,0.2717,-1.0283,0.1052,0.0357,-0.0063,0.6714,2065
7,0.1882,-0.9465,0.0398,0.0385,-0.34,0.722,2052
7,0.2041,-1.0535,0.1067,-0.2229,-0.6062,0.6176,2039
7,-0.1411,-0.9229,-0.0159,-0.0972,0.0423,0.9768,2112
7,0.0159,-0.9478,0.1372,-0.2522,0.0329,0.7353,2060
7,0.1973,-0.9438,0.1421,-0.3601,-0.0751,0.8685,2014
7,0.1731,-0.9734,0.0732,-0.4393,-0.1559,0.942,2078
7,0.1599,-1.0042,0.0859,-0.5422,0.0033,1.1083,1990
7,0.2268,-1.0122,0.0188,-0.6572,0.0649,1.2322,2136
7,0.1243,-1.1377,-0.0347,-0.7118,0.4175,1.3898,2109
7,0.083,-1.1021,0.0125,-0.6785,0.4152,1.3707,2025
7,-0.0024,-1.0298,0.0146,-0.6142,0.4452,1.443,2058
7,0.2939,-0.9436,-0.0017,-0.6422,0.3183,1.4503,1888
7,0.2273,-1.051,0.1267,-0.6191,0.0055,1.7359,1945
7,-0.0024,-1.0571,0.0798,-0.6208,-0.006,1.8832,2004
7,-0.0442,-0.999,0.0642,-0.6263,0.047,2.0106,1957
8,0.0164,-1.147,0.0361,-0.6212,0.108,2.0274,2061
8,-0.012,-1.2805,0.0273,-0.6072,0.2416,2.1353,2050
8,0.0872,-1.2832,0.0503,-0.6217,0.2907,2.2617,2077
8,0.0552,-1.3594,0.1365,-0.6297,0.2531,2.3214,1968
8,-0.0706,-1.2937,0.1921,-0.5943,0.2597,2.4296,2032
8,-0.1553,-1.2986,0.2544,-0.56,0.4304,2.584,2058
8,-0.123,-1.2773,0.2703,-0.4791,0.5873,2.7039,2059
8,-0.1113,-1.3855,0.2776,-0.4557,0.7561,2.751,2059
8,0.1465,-1.4917,0.2568,-0.4729,0.8114,2.8596,2059
8,0.4675,-1.6582,0.2524,-0.5922,0.5751,2.9731,2048
8,0.5706,-1.825,0.2444,-0.7075,0.3329,3.2054,2017
8,0.7856,-2.0,0.3447,-0.8855,-0.0129,3.2665,2037
8,1.1995,-2.0,0.4749,-1.1612,-0.8858,3.3788,2040
8,1.668,-2.0,0.6377,-1.5701,-1.4322,3.6468,2038
8,1.9999,-2.0,0.8054,-2.2803,-3.864,2.5541,2036
8,1.9999,-1.0979,0.5728,-2.2181,-4.3635,3.3306,2049
8,1.4417,-1.073,-0.0845,-1.2366,-4.3635,4.3634,2082
8,-0.7537,-1.1282,0.2119,-1.3159,-4.3635,4.3634,2015
8,-2.0,-2.0,-1.0422,1.0377,-3.3476,4.0511,2023
8,-0.5156,-2.0,-0.3118,-1.1226,-0.7556,4.1453,2046
8,-0.8018,-2.0,0.1226,-3.0237,-2.1441,3.1726,2030
8,-1.6458,-1.6094,-0.4028,0.1682,-0.526,4.3634,2087
8,-0.4355,1.7388,0.7441,1.0553,-0.3982,4.3634,2050
8,0.6641,1.8545,0.3765,0.4512,-0.7735,3.4468,2002
8,-1.9812,-2.0,-1.7986,-0.6958,0.7962,0.8513,2003
8,-1.1836,-1.4387,-1.2148,-1.5699,-1.3724,0.7806,2053
8,-1.5833,-0.3792,0.0239,-0.4129,-1.2356,-0.1011,2071
8,-1.1123,0.5754,0.073,0.5911,-0.8034,-2.7602,2057
8,-1.0942,1.1062,0.6208,1.134,0.0591,-2.6532,2034
8,-0.7378,0.5652,0.1514,0.0169,0.9128,-3.2017,2022
8,0.1528,-0.4329,-0.0029,-0.4629,1.4018,-3.6426,2041
8,0.877,-0.8284,-0.0127,-0.3096,2.003,-3.2385,2031
8,0.6904,-0.1963,-0.2383,-0.3185,1.9469,-3.437,2021
8,0.082,-0.2849,-0.1062,-0.5573,0.8489,-3.6953,2058
8,-0.7905,0.1453,-0.2566,-0.0557,1.1704,-4.1156,2082
8,-0.5654,0.1963,-0.0859,0.5485,1.193,-4.3635,2060
8,-0.3672,0.282,-0.0684,1.07,1.8785,-4.3345,2023
8,-0.3943,0.269,-0.1921,0.9729,2.3474,-4.3635,2040
8,-0.4268,0.0898,-0.2249,0.844,2.6055,-4.3635,2046
8,-0.123,0.0559,-0.3108,0.9533,2.7548,-4.3635,2095
8,-0.1016,0.1216,-0.2749,1.4026,3.0569,-4.3635,2041
8,0.0798,0.0952,-0.0835,2.0845,2.6268,-4.3635,2053
8,-0.1121,-0.4365,0.1992,1.6519,2.172,-4.3635,2036
8,0.4099,-0.4229,-0.0864,1.4881,1.6113,-4.3635,2043
8,0.6418,-0.5369,-0.1736,1.8149,1.4101,-4.3635,2053
8,0.7361,-0.6309,-0.3025,1.6394,1.8207,-4.3635,2049
8,0.5156,-0.9031,-0.3071,1.5581,1.2484,-4.3635,2043
8,0.1372,-1.134,-0.3,1.85,-0.0149,-4.3635,2045
8,-0.0759,-1.3274,-0.3423,2.0465,-1.3119,-4.3635,2042
8,-0.1772,-1.4563,-0.3359,2.0486,-1.7466,-4.3635,2054
8,-0.5051,-1.9116,-0.1467,1.6789,-1.8034,-4.3635,2047
8,-0.6128,-1.9597,-0.2595,1.2725,-1.5884,-4.3635,2040
8,-0.7053,-2.0,-0.1631,1.5344,-1.7306,-4.3635,2040
8,-0.5078,-2.0,0.103,1.5767,-1.8907,-4.3635,2043
8,-0.2405,-1.9067,0.1821,1.376,-2.7339,-4.3635,2054
8,-0.2817,-2.0,0.1882,0.7954,-3.2624,-4.3635,2044
8,-0.4167,-2.0,0.0559,0.5597,-3.0256,-3.7219,2046
8,-0.9819,-1.8748,-0.0093,0.979,-2.5815,-2.6104,2047
8,-1.3301,-1.8667,0.167,0.8672,-2.691,-1.8306,2048
8,-1.623,-1.6816,0.2488,0.0979,-2.0514,-1.2846,2043
8,-1.7827,-1.3511,0.2495,-0.5297,-0.2545,-0.8522,2076
8,-1.2654,-1.1182,0.4146,-0.8461,1.4358,-0.0056,2045
8,-0.8428,-1.1362,0.7722,-1.0377,1.6994,1.0616,2038
8,-1.1465,-1.1895,0.5676,-1.0589,1.2042,2.3117,2033
8,-0.5632,-1.385,0.4702,-2.2463,1.1162,2.1413,2047
8,0.1182,-0.0405,0.8672,-0.9517,0.9194,2.6737,2070
8,1.1365,-2.0,1.9999,-1.7069,1.0997,0.6144,1995
8,1.9999,-0.7185,1.7468,-1.1244,0.9088,-0.7906,2024
8,1.9999,-2.0,-0.7051,-0.7766,1.986,0.3294,2003
8,0.9421,-2.0,0.0459,-3.1023,-0.6327,4.3634,2055
8,-2.0,-0.1155,0.9187,0.8903,2.5231,3.8249,2067
8,-1.9478,-0.834,0.7275,0.7158,2.7485,2.9203,2026
8,-1.1313,-2.0,0.2117,-0.3284,4.0189,3.3151,2033
8,0.4912,-2.0,-1.0266,-2.6255,2.4045,1.7186,2038
8,0.3501,-1.1599,-1.3347,-4.3635,1.124,0.804,2063
8,0.9622,0.9456,-0.6726,-1.6757,-1.6396,0.7576,2057
8,-0.2053,-0.5479,-0.5149,-1.4616,-0.7577,1.3259,2032
8,-0.6465,-0.9749,-0.7051,-0.754,1.7768,1.9073,2037
8,-0.374,-1.0205,-0.1145,-0.35,1.3804,1.4407,2046
8,-0.4348,0.3472,0.2646,1.538,0.9939,1.706,2047
8,-0.3381,-0.7986,0.4075,1.8451,0.7364,1.7169,2030
8,-0.5789,-2.0,0.2188,0.624,0.722,1.0262,2036
8,-0.6111,-1.324,0.2856,0.0752,0.9846,1.1507,2060
8,-0.1938,-0.8945,0.512,-0.1798,0.4613,0.8525,2057
8,0.0671,-0.9851,0.2678,-0.5952,0.6715,0.7895,2035
8,-0.085,-1.084,0.0376,-0.644,1.0893,0.8413,2038
8,0.1191,-1.1021,-0.0095,-0.653,0.4313,0.8935,2054
8,0.1067,-1.0662,0.1008,-0.3802,-0.0342,1.209,2040
8,-0.0273,-1.0208,0.021,-0.5259,-0.0336,1.1914,2032
8,0.0452,-0.9956,-0.2292,-0.3886,-0.0716,1.0808,2030
8,0.1445,-1.0181,-0.1897,-0.2027,-0.3317,1.1706,2043
8,0.1753,-0.9619,-0.1992,-0.015,-0.6593,1.2186,2034
8,0.0193,-1.0107,-0.2083,0.0583,-0.5643,1.0834,2022
8,-0.0081,-1.1067,-0.0903,0.0374,-0.3393,1.0084,2045
8,-0.0574,-1.0193,0.012,-0.035,-0.2426,0.874,2031
8,0.1521,-0.9858,0.0935,-0.1993,-0.3059,0.8324,2042
8,-0.0474,-1.0364,0.1646,-0.3041,-0.3836,0.7072,2066
8,-0.3494,-0.8188,-0.1006,-0.353,-0.0991,0.5466,2034
8,-0.1719,-1.0078,-0.084,-0.0056,0.4187,0.5525,2047
8,0.2737,-1.0273,0.0908,-0.0764,0.6686,0.9637,2047
8,0.3025,-1.0586,0.1863,-0.2852,-0.0767,0.7692,2050
8,0.3955,-0.6785,0.2905,-0.2027,-1.4443,0.9327,2034
8,-0.5083,-1.3755,-0.146,-0.6677,-0.8465,1.3334,2042
9,-0.8684,-1.2439,0.269,-0.3384,0.7626,0.5019,2073
9,0.1331,-0.7363,0.2915,-0.2787,0.1806,0.6597,2020
9,-0.073,-1.0452,-0.0371,-0.481,0.2063,0.7329,1994
9,0.0461,-1.033,0.0737,-0.5111,0.5401,0.8931,2006
9,0.1226,-1.02,-0.0046,-0.5421,0.7909,0.9741,2019
9,0.4434,-0.9441,0.0891,-0.5806,-0.2498,0.7373,2173
9,-0.0342,-1.0232,0.0752,-0.7247,0.3321,1.0963,2108
9,0.1477,-1.0898,-0.0493,-0.6612,0.4635,1.2924,1972
9,0.2505,-1.1333,-0.0437,-0.6758,0.5164,1.4221,2135
9,0.1741,-1.0676,-0.0874,-0.751,0.3417,1.3323,2014
9,0.168,-1.0007,0.0173,-0.6673,0.2112,1.5045,1958
9,0.1807,-0.9661,-0.0056,-0.6658,0.1979,1.7182,2128
9,0.1582,-1.0671,-0.0161,-0.6364,0.191,1.8656,2098
9,0.0051,-1.2605,0.0581,-0.6729,0.1871,1.9382,2021
9,0.0164,-1.2361,0.0659,-0.657,0.1976,2.0724,2046
9,0.0486,-1.2007,0.053,-0.6838,0.1842,2.1366,1892
9,0.0698,-1.1733,0.125,-0.6332,0.1567,2.3176,2039
9,-0.1702,-1.2856,0.2197,-0.6564,0.1936,2.3008,2014
9,-0.1814,-1.2891,0.2554,-0.5972,0.3538,2.4185,2113
9,-0.1987,-1.2749,0.2346,-0.5188,0.5939,2.4931,2052
9,-0.1421,-1.3584,0.2214,-0.4986,0.7869,2.5832,2046
9,0.0571,-1.4534,0.2539,-0.5492,0.7963,2.5508,2049
9,0.238,-1.5132,0.2051,-0.624,0.6822,2.6573,2059
9,0.4243,-1.6235,0.1755,-0.6723,0.4908,2.81,2032
9,0.5466,-1.7742,0.1531,-0.7301,0.1751,3.0257,2035
9,0.6846,-1.9956,0.2527,-0.8279,-0.2353,3.2104,2038
9,1.2502,-2.0,0.3511,-1.0805,-0.8162,3.4192,2045
9,1.688,-2.0,0.5759,-1.7054,-1.9088,2.6537,2030
9,1.9999,-2.0,0.7231,-2.0724,-3.5403,2.7538,2039
9,1.9999,-1.1841,0.5969,-1.7607,-4.3635,3.433,2054
9,1.6528,-1.3301,-0.0747,-1.2991,-4.3635,4.0658,2066
9,-0.2043,-2.0,0.3564,-1.6703,-4.3635,4.3634,2044
9,-2.0,-0.7444,-0.5986,-0.1027,-3.4351,4.3634,2033
9,-0.7683,-2.0,-0.4333,-0.6879,-0.9512,2.1603,2037
9,-1.3936,-2.0,0.1978,-2.2886,-0.6384,2.2068,2032
9,0.3674,-2.0,-0.1179,-2.7056,-1.6912,3.825,2056
9,-1.1206,0.3394,-0.0737,1.3291,-1.3539,4.3634,2101
9,-0.251,1.9646,1.001,0.9862,0.0168,4.3634,2031
9,-0.5513,-1.3567,-1.2988,-0.0929,-1.3797,1.1902,2021
9,-1.4644,-1.0139,-1.0642,-2.1908,-0.1479,0.5618,2025
9,-1.2166,-1.0923,-0.6475,-1.647,-1.2629,-0.0104,2060
9,-1.5427,0.3611,0.2246,0.2129,-1.1312,-1.1661,2058
9,-0.8855,1.1602,0.5227,2.4594,-0.8883,-1.5683,2036
9,-0.4939,-0.1184,0.3247,0.4255,-0.9099,-2.3005,2020
9,0.0139,-0.6836,-0.0156,-1.1062,-0.0997,-2.6721,2047
9,0.2322,-0.3127,-0.0962,-1.4354,0.8636,-3.4982,2036
9,0.6594,-0.1956,-0.1335,-1.2673,1.1477,-3.7185,2054
9,-0.0212,-0.0347,-0.2754,-0.7498,1.5135,-3.2139,2057
9,-0.4307,-0.0552,-0.29,-0.0979,1.2585,-3.0427,2043
9,-0.552,0.1968,-0.1379,0.2713,1.3656,-3.4785,2049
9,-0.3894,0.3093,-0.0063,0.6593,1.9058,-3.5635,2042
9,-0.1289,-0.3752,0.1331,0.5116,1.3145,-4.0097,2045
9,-0.7566,-0.2878,0.0615,0.5481,1.5569,-4.1775,2047
9,-0.1948,0.0811,-0.1519,1.337,1.8888,-4.3635,2041
9,0.3669,-0.4031,-0.2156,0.3966,2.5912,-4.3635,2048
9,-0.198,-0.2502,-0.3489,0.2361,3.6386,-4.3635,2046
9,-0.2122,0.1379,-0.2432,1.38,3.9225,-4.3635,2047
9,0.2158,-0.2991,0.085,2.0644,1.9996,-4.3635,2049
9,0.1079,-0.4954,0.1709,2.3434,1.2196,-4.3635,2044
9,0.3418,-0.5867,-0.0547,1.7424,1.3167,-4.3635,2041
9,0.4558,-0.6902,-0.1807,1.3828,1.2934,-4.3635,2039
9,0.4004,-0.7532,-0.3289,1.3957,1.1208,-4.3635,2047
9,0.5337,-0.8289,-0.3689,1.9465,0.5015,-4.3635,2040
9,0.5759,-1.0664,-0.3408,2.0318,0.2056,-4.3635,2046
9,0.4761,-1.3481,-0.3003,1.9583,-0.0598,-4.3635,2044
9,0.2007,-1.5608,-0.2642,2.3172,-0.7425,-4.3635,2044
9,-0.196,-1.9089,0.0103,2.3281,-1.8438,-4.3635,2047
9,-0.4565,-2.0,0.1067,1.3418,-2.5815,-4.3635,2039
9,-0.6272,-2.0,-0.2166,1.166,-2.5635,-4.3635,2045
9,-0.5776,-2.0,-0.1499,1.3826,-2.8577,-4.3635,2047
9,-0.5051,-2.0,0.0598,1.3978,-3.2578,-4.3178,2053
9,-0.5674,-1.9062,0.3259,0.8558,-3.2638,-4.0753,2034
9,-0.6333,-1.8933,0.1504,0.0987,-2.9681,-3.4568,2049
9,-1.2041,-1.6138,-0.1206,0.4044,-2.5173,-2.4049,2039
9,-1.5325,-1.4944,-0.0154,0.5951,-2.0915,-1.5829,2031
9,-1.7339,-1.4751,0.115,0.1658,-1.3336,-1.0818,2058
9,-1.5549,-1.28,0.2693,-0.3049,0.3444,-0.5319,2051
9,-1.2039,-1.0886,0.4392,-0.4406,2.0073,0.3125,2058
9,-1.3337,-2.0,1.1616,-1.4408,1.9058,0.3349,2024
9,-1.5417,-1.6228,1.0491,-1.8394,0.9014,1.2846,2032
9,-0.5464,0.0459,0.2183,-0.045,3.4388,3.9048,2062
9,-0.415,-0.9829,1.9999,-0.1778,-1.827,3.1239,2000
9,1.9999,-0.3293,1.9999,0.6403,2.2543,1.3635,2053
9,1.9999,-2.0,0.3965,-1.6944,-0.7213,-1.527,1988
9,-0.8049,-2.0,-0.8369,-2.5149,3.7743,1.9113,2056
9,-1.2451,-0.636,-0.187,0.6524,3.7279,4.3634,2073
9,-1.8843,-0.6641,0.3025,0.3486,3.4155,4.1568,2057
9,-1.7664,-2.0,-0.0815,-2.5048,4.28,2.6751,2025
9,-0.3093,-2.0,-0.4355,-4.3635,4.3634,0.9786,2057
9,1.9999,1.8184,-0.5581,-2.467,-2.3519,-1.1417,2072
9,-0.5459,-0.4565,-0.7087,-1.9595,-2.4129,1.4442,2020
9,-0.9988,-1.1885,-1.5427,-2.0638,-0.0095,1.5125,2025
9,-0.377,-0.165,-0.8005,-0.3237,1.5888,1.309,2050
9,-0.449,0.0862,0.4822,2.8493,1.1609,2.5258,2046
9,0.3704,-0.7017,0.6792,2.2344,-0.106,2.9232,2038
9,-0.791,-2.0,0.4736,0.6762,0.3835,1.0152,2031
9,-0.8191,-1.4546,0.1736,-0.0812,1.5318,2.0748,2056
9,-0.2168,-0.7812,0.3999,-0.1992,-0.1758,1.2163,2075
9,-0.2888,-0.8188,0.5071,-0.5815,-0.1962,0.7444,2051
9,-0.1853,-1.0188,0.2761,-1.1424,0.3988,0.7909,2056
9,-0.1516,-1.2112,0.0149,-1.1531,0.7086,0.7984,2038
9,-0.019,-1.1812,-0.083,-0.857,0.2811,1.0055,2056
10,0.1819,-1.0701,-0.1057,-0.5078,-0.1009,1.246,2049
10,0.1045,-0.989,-0.2251,-0.4502,-0.3474,1.1152,2044
10,0.0105,-0.9194,-0.2847,-0.2422,-0.4809,0.9914,2032
10,0.0864,-0.9604,-0.3206,-0.087,-0.6573,0.9553,2055
10,0.0718,-0.9788,-0.3171,0.0767,-0.7191,0.8942,2048
10,0.0505,-1.1174,-0.259,0.1161,-0.553,0.7817,2035
10,0.0098,-1.1392,-0.1206,0.0522,-0.4546,0.7634,2044
10,-0.0449,-0.9468,-0.0085,-0.0433,-0.441,0.6915,2059
10,0.0793,-0.916,0.1318,-0.0443,-0.4741,0.7496,2037
10,0.1577,-0.9094,0.3555,-0.382,-1.0299,0.6608,2048
10,-0.3596,-1.095,-0.0981,0.0831,-0.4039,0.5086,2045
10,0.2114,-1.0789,0.1677,0.0862,0.3645,0.7781,2021
10,0.3391,-1.1028,0.2163,-0.1465,-0.0515,0.6011,2059
10,0.7085,-0.7241,0.3938,-0.3032,-1.478,0.5027,2053
10,-0.1924,-1.552,-0.1758,-0.673,-1.4529,1.2294,2001
10,-1.0632,-1.2549,0.0972,-0.2984,1.2555,0.5759,2054
10,0.3162,-0.7146,0.2383,-0.3151,0.4184,0.6983,2069
10,0.1389,-0.8643,0.0059,-0.4727,0.0542,0.6987,2047
10,0.0503,-1.0789,0.0505,-0.5388,0.424,0.9254,2078
10,0.1785,-1.0085,0.0125,-0.6562,0.5674,1.1424,2017
10,0.2354,-1.0469,0.0212,-0.6986,0.0431,1.1545,1974
10,0.0154,-1.1418,-0.1021,-0.7915,0.4774,1.1813,1923
10,0.1121,-0.9741,-0.1357,-0.7509,0.4713,1.2443,1972
10,0.0947,-1.1755,-0.1335,-0.7822,0.4834,1.2671,2058
10,0.1533,-0.957,-0.0918,-0.8192,0.446,1.3587,2040
10,0.0767,-1.0193,0.0024,-0.8014,0.3252,1.3908,1958
10,0.0688,-1.1123,0.0017,-0.7642,0.3432,1.542,2040
10,0.1516,-1.126,0.0376,-0.7004,0.3013,1.75,2091
10,0.1013,-1.2061,0.0532,-0.7528,0.0883,1.8285,2068
10,-0.0103,-1.2349,0.085,-0.7562,-0.0213,1.9691,2001
10,-0.03,-1.2634,0.0605,-0.7514,0.0578,2.004,2057
10,0.0579,-1.3059,0.1218,-0.7504,0.0358,2.1421,2163
10,-0.0703,-1.2825,0.2009,-0.7441,0.1436,2.1547,2032
10,-0.1921,-1.2695,0.2214,-0.7022,0.2627,2.3967,2053
10,-0.1672,-1.2532,0.301,-0.6894,0.4517,2.4121,2071
10,-0.155,-1.2969,0.2632,-0.6416,0.7066,2.4871,2067
10,-0.0569,-1.4504,0.2432,-0.6196,0.8983,2.4975,2064
10,0.1848,-1.5466,0.2268,-0.6922,0.8919,2.4685,2031
10,0.5405,-1.6335,0.2351,-0.8058,0.5465,2.6344,2002
10,0.6851,-1.7932,0.2803,-1.0529,0.0029,2.7472,2043
10,0.9785,-1.8845,0.3467,-1.2501,-0.6734,3.0167,2045
10,1.1838,-2.0,0.5576,-1.3679,-1.7117,3.1471,2046
10,1.8657,-2.0,0.7415,-1.7089,-3.2058,3.3512,2033
10,1.9999,-2.0,0.9331,-1.9742,-4.3635,3.1764,2055
10,1.1956,-1.1804,0.4998,-2.0032,-4.3635,3.7074,2049
10,0.9678,-1.6785,-0.0359,-0.9797,-4.3635,4.3634,2049
10,-0.9429,-2.0,0.032,-1.3537,-2.949,4.1647,2052
10,-1.3677,-1.2012,-0.8142,-1.0067,-2.0125,4.0729,2010
10,-0.7158,-0.4832,-0.5928,-1.4624,-1.5765,4.3634,2045
10,-1.1287,-2.0,-0.082,-1.438,-1.5486,2.2021,2040
10,-1.387,-2.0,1.0437,0.6931,-2.298,4.3634,2051
10,-1.7441,-0.1187,-0.1543,1.0365,2.485,4.3634,2072
10,1.3594,1.0217,0.4905,-0.246,0.589,3.6308,2031
10,-1.0681,-1.0928,-1.4041,-0.2715,-1.3169,1.9515,2022
10,-1.2551,-1.1143,-1.3181,-2.5995,-0.3101,0.9812,2029
10,-0.9993,-0.9048,-0.7524,-1.5143,-1.5149,0.0723,2071
10,-1.4517,0.0688,0.1982,-0.2919,-2.0268,-1.5083,2059
10,-0.8816,1.415,0.2314,1.9374,-1.8146,-2.4574,2042
10,-0.8237,0.5586,0.4268,0.6722,-1.3953,-2.5874,2035
10,-0.312,-0.446,0.019,-1.4426,-0.7087,-3.8412,2028
10,0.6289,-0.707,-0.1458,-0.9445,0.2381,-3.197,2037
10,0.7876,-0.2834,-0.1594,-0.4806,0.5834,-3.3621,2050
10,0.2583,-0.1733,-0.2061,-0.2714,0.4875,-3.2777,2052
10,-0.6948,-0.4719,-0.0645,-0.0285,0.1975,-3.399,2017
10,-0.5845,0.0222,0.0769,-0.2531,-0.4939,-4.2398,2060
10,-0.3811,0.1868,0.1479,0.208,0.1551,-4.3635,2057
10,-0.4597,0.0542,-0.0842,0.3683,1.6871,-4.0833,2035
10,-0.1992,-0.3347,-0.0828,0.0676,1.2773,-4.2941,2043
10,-0.5168,-0.1829,-0.1409,0.6325,1.1327,-4.3635,2055
10,-0.3638,-0.1233,0.0237,1.172,1.3974,-4.3635,2045
10,-0.1482,-0.0173,-0.1853,0.5589,2.414,-4.3635,2051
10,-0.2976,-0.1162,-0.1636,1.131,2.7369,-4.3635,2048
10,-0.0076,-0.3059,0.0972,1.6668,2.1678,-4.3635,2045
10,0.145,-0.3794,0.0767,1.8889,1.2529,-4.3635,2047
10,0.2759,-0.5566,0.0962,1.7117,1.0363,-4.3635,2052
10,0.4573,-0.6724,-0.0525,1.4021,1.148,-4.3635,2047
10,0.3899,-0.7988,-0.231,1.5399,0.8564,-4.3635,2045
10,0.4519,-0.9231,-0.2998,2.09,0.4406,-4.3635,2046
10,0.4441,-1.1006,-0.1909,2.1786,0.0784,-4.3635,2040
10,0.1816,-1.4065,-0.1736,2.1961,-0.3137,-4.3635,2046
10,-0.1545,-1.7322,-0.1033,2.371,-0.8504,-4.3635,2051
10,-0.5344,-2.0,0.1523,2.0145,-1.637,-4.3635,2044
10,-0.5378,-2.0,-0.0249,1.5617,-1.796,-4.3635,2042
10,-0.4722,-2.0,-0.0293,1.6215,-2.1417,-4.3635,2045
10,-0.4414,-2.0,0.0964,1.7359,-2.7687,-4.3635,2049
11,-0.6287,-2.0,0.3237,1.3362,-3.0264,-4.2587,2043
11,-0.7036,-1.9309,0.0562,0.5761,-2.5606,-3.7872,2039
11,-1.0205,-1.7974,-0.1841,0.7939,-2.1587,-2.8157,2045
11,-1.519,-1.6868,-0.0769,0.7757,-1.7373,-2.0707,2052
11,-1.6799,-1.5457,0.1633,0.1309,-0.9905,-1.7507,2044
11,-1.4875,-1.4077,0.1479,-0.3954,0.5067,-1.1529,2046
11,-1.2253,-1.2771,0.2351,-0.6209,1.7483,-0.2448,2043
11,-0.9407,-1.5693,0.5251,-1.0288,1.4708,0.4357,2049
11,-0.9861,-1.165,0.5261,-1.8967,0.4986,1.6093,2048
11,-0.9595,-1.2217,1.9999,-2.1831,4.0859,4.3634,2063
11,-1.9536,-1.9756,1.9999,1.2242,-0.1119,3.032,2015
11,1.9999,-1.0271,1.9999,0.3847,0.7712,1.5982,2071
11,1.9999,-0.9224,0.7922,0.6921,3.2915,0.0796,2060
11,0.0322,-2.0,-0.0825,-1.4934,4.3634,2.149,1979
11,-0.959,-1.1846,0.168,-0.2743,2.7938,4.0126,2090
11,-1.5625,-0.6487,-0.0339,-0.0389,3.2859,4.0504,2059
11,-1.104,-1.4646,0.0532,-1.3581,3.311,3.6017,2045
11,-0.6987,-2.0,-0.2332,-4.1486,2.308,1.5504,2023
11,0.0542,-1.416,-1.8291,-4.3635,2.867,-1.3876,2020
11,0.6147,1.4338,-1.5012,-1.9502,-0.7236,1.2312,2111
11,0.3506,-0.6826,-0.6975,-1.9294,-1.8286,1.0967,2026
11,0.0022,-1.4595,-1.2778,-2.0876,-0.3603,0.8445,2042
11,0.2051,0.5554,-0.6658,-0.0394,-0.3806,0.7452,2056
11,-0.449,0.1399,0.4009,2.1459,0.0884,2.1545,2046
11,-0.2505,-0.9023,0.3909,1.3214,1.3741,2.5888,2037
11,-0.9426,-2.0,0.3552,0.7501,1.4802,1.6291,2030
11,-0.4404,-1.4585,0.5007,0.7335,0.6649,1.5249,2059
11,-0.2668,-0.9397,0.5391,0.2135,-0.2237,1.2978,2034
11,0.0039,-0.7173,0.5454,-0.7665,-0.3567,0.8717,2043
11,-0.613,-1.1743,0.4333,-1.0608,1.215,0.9774,2055
11,-0.4993,-1.1919,0.1143,-1.1113,1.1447,0.8111,2044
11,-0.1948,-1.1516,-0.0237,-1.0385,1.1619,0.5128,2053
11,0.3711,-0.9482,-0.0857,-0.8008,0.869,0.761,2040
11,0.3682,-0.8821,-0.0767,-0.5502,-0.1784,0.8231,2049
11,0.1855,-1.0425,-0.3311,-0.2814,-0.5224,1.1162,2048
11,0.147,-0.9241,-0.3135,-0.0715,-0.4617,1.2645,2046
11,0.1726,-0.9836,-0.26,0.1047,-0.866,1.174,2033
11,0.0776,-1.083,-0.2568,0.1388,-0.9007,1.1942,2043
11,-0.1455,-1.0364,-0.1685,0.1301,-0.66,1.1148,2036
11,-0.2383,-0.9912,-0.0347,0.1213,-0.3883,0.9517,2044
11,-0.2192,-1.0398,0.2014,0.0285,-0.1615,0.7921,2044
11,-0.1404,-0.9893,0.334,-0.3245,-0.3031,0.4754,2049
11,-0.21,-0.8657,-0.1587,0.2602,0.1139,0.542,2056
11,0.3611,-1.1382,0.2529,0.0398,0.3281,0.927,2027
11,0.1062,-0.9014,0.156,-0.0091,-0.2272,0.8071,2045
11,1.353,-0.7505,0.3853,-0.1533,-1.5699,1.2965,2072
11,-0.1375,-1.729,-0.4258,-0.7585,-1.1845,1.3002,2035
11,-1.0649,-1.4182,0.3643,-0.3786,0.5181,0.4002,2051
11,-0.0623,-0.8428,0.2498,-0.3177,0.3972,0.5596,2068
11,-0.0464,-0.9231,0.0305,-0.5144,0.3642,0.381,2127
11,0.322,-0.9709,-0.106,-0.5309,0.3882,0.5136,2035
11,0.1692,-0.9663,0.1233,-0.5582,0.3563,0.8417,1980
11,0.0293,-1.0,-0.0251,-0.6135,0.2207,0.8855,2054
11,0.104,-1.0796,0.0222,-0.7409,0.5886,0.8811,2107
11,0.2427,-1.0386,0.0122,-0.7311,0.2926,1.0801,2012
11,0.2405,-1.01,0.0156,-0.6709,0.4235,1.3472,2164
11,0.2329,-1.0715,0.0793,-0.6948,0.2575,1.4953,2049
11,0.2256,-1.0737,0.0715,-0.7408,0.129,1.6289,2080
11,0.0798,-1.0339,0.1091,-0.7357,0.1563,1.7684,2189
11,0.0696,-1.0828,0.0027,-0.6998,0.2136,1.9,2042
11,0.043,-1.1982,0.0386,-0.7229,0.3697,1.9659,2029
11,0.0012,-1.2354,0.1011,-0.7578,0.3662,2.0185,1995
11,-0.0002,-1.2031,0.1189,-0.7239,0.3719,2.2061,2099
11,-0.0447,-1.2261,0.1814,-0.705,0.2747,2.2823,2078
11,-0.1772,-1.2649,0.2163,-0.6418,0.3791,2.3454,2054
11,-0.1851,-1.3743,0.1633,-0.6572,0.4026,2.3322,2073
11,-0.1467,-1.2637,0.2139,-0.5269,0.5556,2.4751,2134
11,0.0022,-1.3689,0.2292,-0.5002,0.5842,2.5421,2061
11,0.0422,-1.4678,0.2515,-0.4924,0.6628,2.6538,2041
11,0.2258,-1.6345,0.2244,-0.4418,0.6793,2.8648,2037
11,0.4199,-1.9814,0.239,-0.55,0.5982,2.8936,2036
11,0.6768,-2.0,0.2776,-0.7317,0.3448,2.9162,2025
11,0.9646,-2.0,0.4172,-0.9576,-0.2601,2.998,2042
11,1.6272,-2.0,0.6257,-1.2776,-1.448,3.008,2039
11,1.9999,-2.0,0.8582,-1.7193,-3.5596,2.7393,2037
11,1.9999,-1.7893,0.7073,-1.7893,-4.3635,3.0014,2044
11,1.2288,-1.0007,0.2629,-1.3466,-4.3635,4.3272,2050
11,-0.3623,-2.0,-0.189,-1.0503,-4.1435,4.3634,2053
11,-1.2537,-2.0,-0.573,-1.303,-1.7954,3.6061,2028
11,-2.0,-0.5068,-0.551,-1.6749,-0.677,4.3634,2038
11,-1.0598,-2.0,0.1807,-1.886,-1.9076,1.3298,2081
11,-1.1255,-0.4985,0.3545,1.0079,-0.4148,4.3634,2055
11,-2.0,-1.27,-0.0291,2.186,2.0049,4.3634,2039
11,1.4468,-1.6692,1.3357,-1.176,0.2498,4.3634,2040
11,1.9999,1.0085,-0.6948,-1.8852,-1.0873,1.9021,2042
11,-0.4504,-0.47,-1.2092,-3.2933,-0.135,-0.0414,2013
11,-1.0217,-0.9932,-0.8318,-2.336,-0.7576,-0.0138,2061
11,-1.4993,-0.0278,0.168,-0.1041,-1.6395,-0.8818,2061
11,-0.9358,0.6284,0.3396,1.3704,-1.8122,-1.9038,2030
11,-0.5977,-0.3044,0.123,1.0034,-1.7321,-1.6279,2038
11,-0.0012,-0.3601,-0.0554,-1.5495,-1.1571,-3.7588,2029
11,0.5427,-0.0208,-0.283,-1.2158,0.3863,-4.055,2039
11,0.239,0.0955,-0.1824,-0.7124,1.1054,-3.3264,2076
11,-0.259,-0.0273,-0.0315,-0.1851,0.8822,-3.248,2043
11,-0.4697,-0.0679,-0.2166,0.6512,0.7885,-3.1879,2047
11,-0.251,-0.2078,-0.0596,1.3483,0.869,-3.0401,2048
11,-0.2642,-0.2002,0.0681,0.7227,0.5588,-3.579,2041
11,-0.416,-0.0615,0.009,0.6353,1.048,-4.0769,2045
11,-0.4438,-0.1282,-0.1182,0.7877,1.7534,-4.3039,2040
11,-0.5474,-0.1558,-0.0977,1.0102,1.9828,-4.3635,2047
11,-0.0598,-0.2556,-0.0271,1.0251,1.8346,-4.3635,2042
11,-0.084,-0.2642,-0.1394,1.0375,2.0788,-4.3635,2047
11,-0.1104,-0.2764,-0.1362,1.2808,2.2021,-4.3635,2044
11,0.0652,-0.3115,-0.0005,1.4474,1.9379,-4.3635,2043
11,0.218,-0.4111,0.0366,1.4379,1.5797,-4.3635,2052
11,0.2668,-0.5381,0.0215,1.3873,1.2705,-4.3635,2041
11,0.2771,-0.6545,-0.0308,1.3693,1.0774,-4.3635,2041
11,0.3098,-0.7432,-0.1516,1.5095,0.8098,-4.3635,2037
11,0.4668,-0.864,-0.2048,1.8413,0.563,-4.3635,2047
11,0.5618,-1.0337,-0.2205,2.0502,0.4112,-4.3635,2046
11,0.3689,-1.3491,-0.1423,2.2493,0.0597,-4.3635,2045
11,0.0286,-1.7576,-0.0107,2.4997,-0.6502,-4.3635,2052
11,-0.3647,-2.0,0.3008,1.8512,-2.1905,-4.3635,2040
11,-0.7937,-2.0,-0.1152,1.4479,-2.245,-4.3635,2040
12,-0.896,-2.0,-0.1499,1.6379,-2.6346,-4.3635,2048
12,-0.6553,-2.0,0.0432,1.7126,-3.0018,-4.3635,2048
12,0.0923,-2.0,0.5159,-0.0649,-4.3635,-4.3635,2039
12,-0.9351,-2.0,-0.2861,-0.6329,-3.6564,-3.6596,2048
12,-2.0,-0.4717,-0.636,2.3266,-0.9076,-2.2374,2050
12,-1.9253,-2.0,-0.2932,1.6496,0.3828,-1.9908,2032
12,-1.2876,-2.0,0.3169,-0.1249,0.7028,-2.0499,2039
12,-0.6541,-1.1538,0.6882,-0.852,0.2718,-1.3824,2054
12,-0.4902,-1.1067,0.2834,-0.71,0.0613,0.4554,2030
12,-0.5813,-1.4246,-0.0403,-1.6317,-0.3007,1.4994,2038
12,-1.7495,-0.8079,-0.2214,-0.6379,1.5914,2.3049,2058
12,-1.1804,-2.0,1.9999,-3.6695,0.8437,4.1895,2024
12,-0.7488,-0.8372,1.9999,0.2722,1.2945,1.3113,2047
12,1.9999,-1.1189,1.9999,-1.8847,-0.1935,0.9645,2020
12,1.8892,-1.1152,-1.0737,-1.629,2.0908,0.8483,2025
12,-1.4429,-1.8315,0.0498,-1.1846,2.6914,2.9408,2069
12,-1.3601,-0.2966,0.1807,0.7046,3.3362,4.0459,2067
12,-1.3474,-1.4963,0.5088,0.2241,3.8961,3.6402,2032
12,-1.1174,-2.0,-0.4346,-3.7295,3.1512,1.5896,2028
12,-0.9326,-1.355,-1.5437,-4.3635,4.3634,0.0205,2069
12,1.3662,1.5598,-1.0286,-2.2117,-1.975,0.2448,2056
12,-0.2117,-1.2251,-0.5771,-1.6512,-1.729,1.5482,2023
12,-0.2615,-1.2468,-1.2546,-1.794,-0.5982,1.2641,2037
12,0.0901,-0.4292,-0.6375,-0.3733,-0.0746,0.8341,2059
12,-0.0562,0.4771,0.5681,2.8996,0.1072,2.6336,2044
12,-0.6377,-1.2815,0.6042,2.0441,-0.1277,2.1533,2017
12,-0.095,-1.8828,0.4062,0.7096,0.5092,1.7431,2046
12,-0.7302,-1.6526,0.3679,0.4124,0.5426,1.6227,2058
12,-0.6116,-0.8643,0.4565,-0.4307,0.1297,0.96,2021
12,-0.229,-0.9668,0.3711,-0.806,0.2675,0.6288,2043
12,-0.0977,-1.0449,0.1484,-1.2741,0.7955,0.6782,2054
12,-0.1445,-1.094,0.093,-1.1527,0.8915,0.5863,2052
12,-0.0056,-1.0696,-0.1074,-0.7532,0.3963,0.7641,2050
12,0.0981,-1.0195,-0.2471,-0.455,0.1669,0.8292,2035
12,0.2061,-1.0271,-0.2229,-0.2666,0.0465,0.8624,2037
12,0.2214,-0.957,-0.179,-0.0497,-0.2996,0.9673,2042
12,0.1731,-0.9553,-0.2656,0.104,-0.546,1.0148,2032
12,0.1062,-1.085,-0.2522,0.2226,-0.6536,1.0324,2040
12,0.0359,-1.0522,-0.1462,0.2473,-0.7128,1.0062,2069
12,-0.0168,-0.9775,-0.0085,0.1622,-0.6195,0.8841,2041
12,0.0376,-0.9092,0.0859,0.0807,-0.6865,0.7962,2044
12,-0.2258,-0.9253,0.1738,-0.0744,-0.4072,0.5569,2050
12,-0.2473,-0.8999,0.0825,-0.1037,-0.2723,0.4068,2045
12,0.1924,-0.9941,0.0276,0.1593,0.224,0.7062,2036
12,0.3748,-1.0691,0.1763,-0.0264,0.1839,0.7811,2048
12,0.1716,-0.8506,0.0938,-0.0626,-0.2333,0.6899,2032
12,0.6736,-0.8848,0.2388,-0.2232,-1.0664,0.9835,2020
12,0.0901,-1.3521,-0.3081,-0.4876,-0.9015,1.34,2051
12,-0.6091,-1.1514,0.2366,-0.4381,0.7874,0.7648,2035
12,0.3245,-0.9172,0.2239,-0.4477,0.3871,0.6919,2032
12,0.0632,-0.9329,-0.0625,-0.5915,0.4139,0.8694,2035
12,0.0874,-1.0339,0.0349,-0.5769,0.6247,0.969,1968
12,0.363,-0.9646,0.0999,-0.6437,0.0894,1.1288,2084
12,0.1416,-1.0229,-0.0327,-0.6612,0.0482,1.3206,2040
12,-0.0271,-1.1252,0.0286,-0.6794,0.297,1.4288,1923
12,-0.0134,-1.1541,0.0347,-0.7977,0.3019,1.3616,2048
12,0.1033,-0.948,-0.0444,-0.7428,0.4139,1.3205,2040
12,0.1067,-0.9155,0.0493,-0.685,0.5184,1.4249,2083
12,-0.0225,-1.0459,0.0098,-0.6554,0.6983,1.6435,2064
12,0.2173,-1.198,0.0254,-0.7407,0.8761,1.7084,2018
12,0.2346,-0.9502,0.0793,-0.7162,0.206,1.6516,2122
12,0.0027,-1.2292,-0.0676,-0.6825,0.3171,2.0142,1993
12,0.0681,-1.2163,-0.0583,-0.699,0.3045,1.9727,2041
12,0.0354,-1.1174,-0.0115,-0.6807,0.2573,2.0716,2061
12,-0.1248,-1.2087,0.0383,-0.6333,0.443,2.2305,2024
12,-0.1633,-1.2583,0.1313,-0.6743,0.4093,2.2055,2018
12,-0.1311,-1.241,0.158,-0.6149,0.4341,2.2856,2081
12,-0.2595,-1.3494,0.2334,-0.6074,0.4445,2.2964,2222
12,-0.1946,-1.3242,0.2202,-0.565,0.5486,2.3389,2066
12,-0.1233,-1.4402,0.2192,-0.5188,0.6111,2.4883,2058
12,0.075,-1.553,0.2163,-0.5635,0.5352,2.5899,2028
12,0.3044,-1.6257,0.262,-0.6368,0.3317,2.5946,2019
12,0.3503,-1.7144,0.2949,-0.7039,0.1744,2.7448,2017
12,0.5066,-1.8772,0.2974,-0.8104,-0.1285,2.8424,2048
12,0.8831,-2.0,0.407,-0.9172,-0.536,3.0859,2084
12,1.5042,-2.0,0.5667,-1.2176,-1.1923,3.2782,2056
12,1.9999,-2.0,0.7932,-1.7407,-2.4606,2.6302,2026
12,1.9999,-1.9297,1.02,-1.9667,-4.3635,2.7908,2043
12,1.2297,-0.6453,0.6072,-1.5785,-4.2427,3.9925,2055
12,1.064,-2.0,-0.1377,-0.9463,-4.3285,4.3634,2057
12,-1.1057,-1.9683,0.1013,-1.3159,-2.7725,4.0425,2040
12,-2.0,-1.7847,-1.2734,-0.1228,-1.0581,4.0958,2018
12,-2.0,-1.8586,0.0505,-1.5346,-0.5702,3.0311,2041
12,-0.4827,-2.0,0.0708,-1.7692,-2.0156,2.3625,2069
12,-2.0,-2.0,-0.1882,1.6867,1.017,4.3634,2076
12,-0.1416,1.3542,0.1365,0.9491,3.9631,4.3634,2059
12,1.9999,1.3345,0.4248,-0.5763,-1.8823,2.0054,2032
12,-1.3665,-1.7603,-1.6626,-0.6343,0.1828,1.115,2010
12,-0.998,-0.835,-1.011,-1.6711,-0.8678,0.7199,2051
12,-1.1274,-0.5515,-0.385,-0.3196,-1.2194,-0.7289,2070
12,-1.0945,1.5183,-0.009,2.2126,-1.0963,-2.1277,2054
12,-0.7366,1.115,0.4092,1.6599,-0.7646,-2.5313,2040
12,-0.3291,-0.5396,-0.0132,0.0525,-0.0667,-3.5707,2034
12,0.376,-0.8948,-0.0825,-0.1477,0.972,-3.0728,2015
12,0.9141,-0.3865,-0.3599,0.1739,1.5183,-3.6418,2064
12,0.3823,-0.2214,-0.1885,0.1782,1.237,-3.709,2045
12,-0.5188,0.0383,-0.4502,0.8605,1.4402,-3.4508,2054
12,-0.4023,0.0681,-0.3962,1.6113,0.9435,-3.5288,2054
12,-0.6733,0.3689,-0.0293,1.8468,1.3087,-3.6934,2048
12,-0.2444,-0.1326,0.1885,1.7468,1.5218,-4.196,2045
12,-0.5312,-0.845,0.0486,1.6763,1.5771,-4.3635,2032
12,-1.113,0.2388,-0.1682,3.7723,1.8947,-3.9556,2049
12,0.144,-0.1721,0.0017,2.9907,1.7982,-4.3635,2052
12,0.7756,-0.9978,-0.1287,0.5546,2.4808,-4.3635,2013
12,-0.2566,-0.5288,-0.5759,0.2948,4.3634,-4.3635,2041
12,-0.5715,-0.4001,-0.3733,2.0144,3.8623,-4.3635,2046
12,0.344,-0.7275,-0.0391,2.6902,1.9892,-4.3635,2039
12,0.4087,-0.6204,0.0935,2.591,1.5727,-4.3635,2048
12,0.4934,-0.9465,-0.2002,1.764,1.6321,-4.3635,2036
13,0.4521,-1.062,-0.512,1.6918,1.1176,-4.3635,2050
13,0.3838,-1.0686,-0.6238,2.0305,0.3358,-4.3635,2043
13,0.4126,-1.0591,-0.3391,2.251,-0.4854,-4.3635,2045
13,0.4087,-1.3623,-0.2446,2.1518,-0.6203,-4.3635,2044
13,0.4248,-1.6943,-0.2566,1.8502,-1.1501,-4.3635,2056
13,0.0286,-1.8203,-0.1985,1.7294,-1.8753,-4.3635,2046
13,-0.1633,-2.0,-0.083,1.3223,-2.5662,-4.3635,2039
13,-0.3623,-1.9241,-0.0994,1.2168,-3.017,-4.3635,2046
13,-0.4182,-1.9705,0.0129,1.1147,-3.3007,-4.3635,2048
13,-0.5923,-1.9749,0.1313,1.0564,-3.3267,-4.2632,2044
13,-0.8333,-1.9702,0.249,0.6209,-3.1163,-4.0543,2047
13,-1.0352,-1.9783,0.0525,-0.0992,-2.8002,-3.5587,2040
13,-1.3247,-1.72,-0.2288,-0.0952,-2.5711,-2.7119,2041
13,-1.522,-1.502,-0.2051,0.2847,-2.0913,-1.9864,2062
13,-1.5173,-1.3003,0.0806,-0.014,-0.5731,-1.6085,2046
13,-1.0906,-1.2976,0.1711,-0.231,1.0061,-1.0152,2054
13,-1.113,-1.376,0.5852,-0.6473,1.1874,-0.1995,2029
13,-1.2942,-1.0925,0.5535,-0.9645,0.9472,0.7975,2041
13,-1.165,-1.8091,0.6855,-1.6374,0.8126,0.9345,2023
13,-1.2053,-1.6194,0.9763,-2.6802,-0.0059,1.2873,2014
13,-0.5796,0.1082,0.9229,0.6682,2.9098,4.1089,2071
13,-0.1912,-1.4116,1.9999,-0.333,-0.565,1.146,2023
13,1.9999,0.2417,1.9607,0.2063,2.1389,1.6459,2042
13,1.9999,-2.0,-0.3132,-2.8007,-1.0985,-0.4791,2010
13,-1.7573,-1.707,-0.124,-1.3242,2.5133,2.6213,2066
13,-1.366,-0.3721,0.3418,0.3751,4.3634,3.5158,2067
13,-1.4375,-1.1714,0.592,0.0832,3.8032,3.4163,2035
13,-0.5581,-2.0,0.0791,-1.6157,2.7835,3.2565,2030
13,0.3474,-2.0,-0.4565,-4.3635,2.6513,1.0784,2049
13,0.7217,0.4187,-2.0,-4.0287,0.8064,-0.8222,2058
13,0.3059,0.5391,-0.1772,-1.5808,-1.6769,1.0419,2055
13,-0.2502,-1.2212,-0.9729,-1.6234,-1.3468,1.6,2037
13,-0.7417,-1.1531,-0.762,-0.893,1.3306,1.4994,2042
13,-0.5312,0.6479,0.1765,0.9176,1.2616,1.4363,2050
13,0.3389,0.4265,0.4255,3.2086,0.5355,2.4742,2036
13,-0.6018,-2.0,0.5083,1.2609,0.0266,1.686,2032
13,-0.9434,-2.0,0.5107,-0.088,1.0087,1.2356,2048
13,-0.4307,-0.7993,0.356,0.008,0.4718,1.6282,2060
13,-0.1819,-0.8252,0.5513,-0.5534,-0.1005,0.7669,2035
13,-0.1147,-1.0002,0.3025,-0.7718,0.6512,0.7271,2047
13,-0.1211,-1.1584,0.0383,-1.0339,0.8353,0.7059,2042
13,-0.0981,-1.165,0.0334,-0.7457,0.6233,0.9436,2050
13,0.0144,-1.0422,-0.0977,-0.651,0.4241,0.9752,2069
13,0.1516,-0.9575,-0.2639,-0.4139,0.1579,0.948,2023
13,0.2849,-0.9919,-0.251,-0.2326,-0.2783,1.0078,2044
13,0.1877,-0.9536,-0.291,-0.0226,-0.5011,1.0491,2037
13,0.1643,-1.0222,-0.2998,0.1117,-0.6134,0.9981,2041
13,0.0342,-1.116,-0.1541,0.1768,-0.5312,1.0444,2032
13,-0.1338,-1.0352,-0.0181,0.0513,-0.357,0.9123,2022
13,-0.0332,-1.0066,0.2205,-0.1968,-0.5256,0.7837,2041
13,0.0256,-1.0234,0.4431,-0.4679,-0.5426,0.6383,2045
13,-0.4399,-0.9121,0.0608,-0.0993,-0.106,0.3583,2029
13,0.1758,-1.0889,0.2971,-0.0784,0.3448,0.649,2033
13,0.3743,-0.9668,0.1592,-0.2448,0.2948,0.6898,2114
13,0.843,-0.8887,0.3232,-0.4057,-1.2921,0.5577,2061
13,-0.0747,-1.5696,-0.2271,-0.7315,-1.7536,1.4691,2036
13,-1.2634,-1.1873,0.0815,-0.4481,1.5046,0.6489,2054
13,0.1567,-0.7654,0.2781,-0.2992,0.832,0.5171,2066
13,0.0195,-1.1113,0.1831,-0.614,0.6084,0.3982,2040
13,0.2737,-0.8638,-0.072,-0.4601,0.4526,0.8962,2087
13,-0.03,-1.1138,0.1853,-0.5267,0.7466,0.8155,2056
13,0.2329,-0.9148,0.1301,-0.6048,-0.1477,1.0318,2079
13,0.1523,-1.0278,0.0029,-0.6846,-0.0013,1.1152,2077
13,-0.167,-1.0913,0.1016,-0.7357,0.4192,1.2202,1888
13,0.0684,-1.1028,-0.0154,-0.8004,0.493,1.2018,2077
13,0.1628,-1.0542,0.1062,-0.8261,0.4461,1.1573,1964
13,0.2134,-1.0063,0.0159,-0.7126,0.239,1.3232,2064
13,0.1692,-1.0679,0.0359,-0.752,0.3362,1.5287,2098
13,0.2,-1.082,-0.0215,-0.7775,0.2341,1.6752,2039
13,0.1724,-1.2117,-0.0769,-0.7485,0.2722,1.7827,2141
13,0.0813,-1.2327,-0.0466,-0.7701,0.3306,1.8466,1930
13,0.1123,-1.2068,-0.0244,-0.7738,0.38,1.949,2040
13,-0.0583,-1.2197,0.0625,-0.7458,0.3366,2.0718,2117
13,-0.0439,-1.2583,0.071,-0.7224,0.3015,2.1354,2027
13,-0.1829,-1.2786,0.2427,-0.6508,0.3429,2.2724,2034
13,-0.2197,-1.3865,0.2068,-0.6743,0.3147,2.2148,1975
13,-0.1523,-1.4058,0.1848,-0.5922,0.4103,2.3748,2108
13,-0.1594,-1.3875,0.217,-0.5243,0.5016,2.4425,2068
13,-0.0305,-1.4763,0.2043,-0.5235,0.6557,2.4739,2107
13,0.2002,-1.5986,0.2153,-0.5627,0.6968,2.5031,2063
13,0.3823,-1.6704,0.231,-0.6576,0.5846,2.6285,2050
13,0.698,-1.7087,0.1951,-0.7906,0.1422,2.7734,2044
13,0.8201,-1.8445,0.2578,-0.9495,-0.3231,2.9934,2044
13,1.1997,-2.0,0.3997,-1.1986,-0.9276,3.1164,2041
13,1.5708,-2.0,0.6458,-1.5271,-1.5645,3.058,2027
13,1.9999,-2.0,0.8538,-1.8518,-3.1204,2.9558,2041
13,1.9529,-1.3157,0.791,-1.8876,-4.3635,3.2035,2053
13,1.6135,-1.1226,0.1465,-1.487,-4.3635,4.3634,2037
13,-0.179,-2.0,0.2827,-1.1022,-4.3445,4.3378,2048
13,-1.8003,-1.5686,-0.7471,-0.8172,-2.0269,4.0483,2067
13,-1.9707,-0.5803,-0.6533,-1.376,-0.4195,4.3634,2032
13,-0.9802,-2.0,0.2524,-2.0152,-1.8929,0.7047,2040
13,-2.0,-1.2881,-0.4207,2.9774,1.0026,4.3634,2073
13,-0.7422,-2.0,-0.2827,1.5519,3.7691,4.3634,2035
13,1.9999,0.5381,1.1157,-2.0975,-0.4129,2.9743,2030
13,-0.9116,-0.0171,-1.385,-0.9255,0.0374,1.0403,2040
13,-0.9614,-0.9873,-1.2615,-2.9634,-0.3043,0.4999,2032
13,-1.2532,-0.6545,-0.3469,-1.2553,-2.1085,-0.5464,2070
13,-1.3384,1.6338,0.0261,2.249,-1.97,-1.5237,2061
13,-1.074,0.3809,0.7134,1.9166,-2.7051,-1.7644,2020
13,-0.1323,-0.459,0.0999,-1.0665,-1.9763,-3.4813,2044
14,-0.1389,-1.1274,0.377,-1.7873,-0.7411,-4.3635,2001
14,0.8391,0.0637,-0.2454,-1.028,0.6733,-3.7898,2052
14,0.2148,0.1453,-0.0837,-0.2236,0.3783,-3.0977,2055
14,-0.6189,-0.5173,-0.1023,0.2919,0.4228,-2.93,2043
14,-0.144,-0.1353,0.0398,0.4882,-0.375,-3.2744,2053
14,-0.25,0.0378,0.1221,0.424,-0.1666,-4.0219,2050
14,-0.3755,0.0374,0.0471,0.4734,0.9327,-4.1137,2040
14,-0.3984,-0.1863,-0.0249,0.5518,1.3572,-3.9856,2039
14,-0.5105,-0.4141,0.1226,0.5597,1.2149,-4.3635,2040
14,-0.4866,-0.0918,0.0789,0.8851,1.7816,-4.3635,2045
14,0.075,-0.377,-0.0967,0.4697,2.1465,-4.3635,2044
14,0.0417,-0.2292,-0.0149,0.9998,1.7174,-4.3635,2047
14,0.1279,-0.2458,-0.012,1.2103,1.4138,-4.3635,2038
14,-0.0239,-0.4038,0.0532,1.2287,1.0661,-4.3635,2042
14,0.0698,-0.499,0.0034,1.3039,0.9712,-4.3635,2044
14,0.1384,-0.5872,0.0295,1.4326,0.8251,-4.3635,2032
14,0.2271,-0.6641,0.0208,1.6201,0.553,-4.3635,2043
14,0.3357,-0.7878,-0.0176,1.7883,0.3392,-4.3635,2045
14,0.3967,-1.0007,-0.0684,1.8374,0.3167,-4.3635,2045
14,0.293,-1.2195,-0.1587,2.0141,0.2932,-4.3635,2040
14,0.0325,-1.5969,-0.1384,2.3949,-0.0924,-4.3635,2050
14,-0.3401,-2.0,0.1189,2.3008,-1.0116,-4.3635,2037
14,-0.4844,-2.0,-0.0059,1.9074,-1.5564,-4.3635,2044
14,-0.531,-2.0,0.0618,2.0021,-2.1915,-4.3635,2048
14,-0.0291,-2.0,0.325,1.8716,-2.9465,-4.3635,2044
14,0.165,-1.5693,-0.4885,1.1927,-3.1869,-3.5989,2055
14,-1.1692,-1.5901,0.3757,1.068,-3.2905,-3.2428,2062
14,-1.2576,-1.3411,-0.6245,1.7799,-1.6294,-3.1554,2034
14,-1.3401,-2.0,-0.3362,1.3942,-0.1458,-2.5165,2033
14,-1.0559,-1.6121,-0.0845,0.1884,-0.6035,-2.3385,2046
14,-1.075,-0.79,-0.1819,0.0545,-0.1445,-1.3111,2058
14,-0.7224,-1.5137,0.5137,-0.9373,-0.3454,-0.2176,2027
14,0.4243,-1.8369,0.5981,-2.4912,-1.9068,0.836,2029
14,-1.9634,-1.1323,-0.1899,-0.2184,0.6742,2.4799,2056
14,-0.8701,-2.0,1.719,-3.5515,-1.4431,4.3214,2021
14,-1.3132,-1.5586,1.9999,-0.3774,0.0894,1.8086,2028
14,1.9999,-0.8474,1.718,-0.5606,-1.5195,0.0423,2052
14,0.9224,-2.0,-0.6304,-0.4653,4.3634,-0.0971,1992
14,-0.3542,-2.0,0.8132,-0.8313,4.3634,3.0798,2068
14,-0.8406,-0.7781,0.8972,-0.0674,2.4353,3.7857,2056
14,-1.1089,-1.689,0.4768,-0.3297,3.201,4.0847,2030
14,-0.2751,-2.0,-0.0608,-2.2941,1.1752,2.7028,2040
14,-1.1199,-2.0,-1.0837,-4.3635,3.0408,1.176,2034
14,0.9814,0.0681,-2.0,-4.3635,2.6832,-1.4253,2042
14,-0.1113,0.9749,-0.8582,-1.8241,-0.0834,1.0967,2079
14,-0.2817,-0.6077,-0.5107,-0.9949,0.3381,1.8389,2032
14,0.5762,-1.3972,-1.1963,-0.817,-0.81,1.5094,2031
14,-0.2832,-1.051,-0.9487,-0.9459,0.7331,1.352,2038
14,0.1682,0.4448,-0.0083,1.0071,0.4841,1.3945,2060
14,-0.1536,0.0195,0.6956,2.5474,-0.8721,1.9489,2044
14,-1.3801,-1.9172,0.793,1.6554,-0.1246,1.58,2030
14,-0.897,-1.7673,0.3906,0.1855,1.2845,1.5757,2041
14,-0.571,-1.2075,0.4878,0.3554,0.6991,1.0096,2054
14,-0.2449,-0.97,0.7649,-0.1194,0.4693,0.6478,2044
14,-0.0591,-1.0208,0.3196,-0.7929,0.8742,0.5578,2049
14,-0.019,-1.1226,0.1565,-0.744,1.26,0.4063,2047
14,0.0457,-1.1055,0.0901,-0.7216,0.7745,0.4538,2048
14,-0.0249,-1.0391,0.0083,-0.5978,0.3974,0.6127,2045
14,-0.0002,-1.011,-0.0759,-0.4798,0.28,0.751,2046
14,0.1748,-0.9763,-0.2146,-0.3148,0.0137,0.8626,2021
14,0.3391,-0.9705,-0.2925,-0.1175,-0.4963,0.9919,2045
14,0.3289,-0.999,-0.2703,0.024,-0.8578,1.0801,2043
14,0.2422,-0.9878,-0.2283,0.1635,-1.1111,1.1737,2035
14,0.1118,-1.0085,-0.114,0.1888,-0.9673,1.2399,2029
14,-0.0598,-1.0151,0.0386,0.0795,-0.63,1.1873,2039
14,-0.1069,-1.0222,0.1296,-0.088,-0.2184,1.0134,2047
14,-0.0637,-1.0178,0.1946,-0.1655,-0.0471,0.8176,2039
14,-0.1611,-0.9849,0.1633,-0.2341,0.1626,0.6288,2049
14,0.0669,-0.9729,0.1943,-0.2518,0.3147,0.6496,2077
14,0.2766,-0.9438,0.1299,-0.2729,0.2112,0.7811,2052
14,0.2078,-0.967,0.1279,-0.3091,0.385,0.9199,2003
14,0.2136,-1.0742,0.1082,-0.3661,0.3207,0.9702,2058
14,0.1663,-1.0178,0.0769,-0.471,0.3625,1.0143,2075
14,0.1162,-0.9609,0.0325,-0.5311,0.1132,1.081,2011
14,0.0037,-1.0518,0.1531,-0.6687,0.1521,1.0122,1986
14,0.0962,-0.9172,0.0164,-0.6379,0.138,1.1175,2073
14,0.1316,-0.9385,0.1545,-0.6819,0.037,1.1144,2116
14,-0.0586,-1.0693,0.1152,-0.7558,0.2731,1.213,2062
14,-0.1155,-1.0769,0.0667,-0.7823,0.4758,1.164,2072
14,0.0088,-0.9976,-0.0237,-0.7284,0.5172,1.2192,2108
14,-0.0696,-0.9993,0.0417,-0.6921,0.359,1.1954,2002
14,0.0486,-1.0464,0.0288,-0.6626,0.2629,1.3002,1988
14,0.1482,-1.0068,0.0801,-0.6311,0.1934,1.4669,1990
14,0.0803,-1.0227,0.0557,-0.6161,0.2111,1.5749,2048
14,0.1216,-1.105,0.0271,-0.6212,0.2858,1.7046,2061
14,0.012,-1.1765,0.0095,-0.6303,0.2715,1.8085,1992
14,0.0461,-1.2048,0.0449,-0.6096,0.3625,1.9346,2127
14,0.1294,-1.2397,0.1116,-0.6127,0.2133,2.0186,1934
14,0.0691,-1.2322,0.1777,-0.5793,0.123,2.1547,2080
14,-0.0295,-1.2527,0.2019,-0.5964,0.0606,2.2316,2077
14,-0.1104,-1.2427,0.2126,-0.5408,0.2747,2.3425,2126
14,-0.2085,-1.2588,0.1841,-0.3999,0.4908,2.4996,2050
14,-0.1194,-1.3389,0.2117,-0.3647,0.6204,2.6119,2084
14,0.0801,-1.4114,0.1631,-0.3633,0.644,2.6928,2044
14,0.2617,-1.5024,0.1543,-0.3787,0.5621,2.8028,2072
14,0.4182,-1.7312,0.1536,-0.4356,0.5066,2.9722,2043
14,0.5793,-1.8945,0.137,-0.502,0.4163,3.1385,2050
14,0.8501,-2.0,0.1489,-0.7275,0.0405,3.1701,2038
14,1.1624,-2.0,0.2849,-1.0614,-0.5608,3.2365,2030
14,1.6711,-2.0,0.4695,-1.5964,-1.297,3.1489,2039
14,1.8467,-2.0,0.6235,-2.0627,-2.2502,2.8665,2044
14,1.9999,-1.1992,0.7991,-1.6277,-4.3635,2.9299,2049
14,1.937,-1.4275,0.3481,-1.5531,-4.3635,4.1125,2045
14,-0.4626,-1.6406,-0.0271,-0.703,-4.3635,4.3634,2048
15,-1.1907,-1.251,-0.4707,-0.5727,-2.4952,3.9388,2079
15,-2.0,-1.821,-0.2371,-0.7883,-1.2543,3.6717,2008
15,-1.5371,-2.0,-0.1772,-2.5457,-1.5081,1.5423,2049
15,-2.0,-1.2012,-0.1111,1.7419,0.0698,4.3634,2057
15,-2.0,-0.991,-0.1855,1.9572,3.8247,4.3634,2058
15,1.9999,0.7979,1.2585,-1.3896,-0.592,3.7568,2038
15,-0.7798,-0.9873,-1.3979,-0.9315,0.6381,0.3132,2009
15,-1.332,-1.1558,-1.1816,-2.9783,0.1814,0.5895,2039
15,-1.364,-0.5627,-0.2505,-0.9159,-1.2117,0.3115,2076
15,-1.4263,0.9421,0.1555,0.9543,-1.5089,-0.8981,2059
15,-0.979,0.3962,0.5227,1.9555,-2.012,-1.3022,2032
15,-0.8162,-0.4578,0.1902,-0.2056,-0.8919,-2.0202,2022
15,0.0068,-0.2305,0.0273,-1.3669,-0.1494,-3.7107,2032
15,0.4082,-0.134,-0.0857,-1.3452,0.9379,-3.7155,2047
15,0.115,-0.0381,-0.1504,-0.9621,1.4396,-2.9637,2043
15,-0.0967,-0.095,-0.1936,-0.2137,1.5269,-2.4167,2045
15,-0.2615,-0.0281,-0.0789,0.3968,1.4873,-2.4173,2048
15,-0.2234,0.0598,0.0498,0.3942,1.5113,-3.0371,2048
15,-0.2202,0.0244,0.093,0.3781,1.638,-3.3026,2048
15,-0.3125,-0.1892,0.1177,0.2625,1.5197,-3.6235,2042
15,-0.4888,-0.1262,0.0273,0.4156,1.6934,-4.0947,2039
15,-0.3867,0.0635,-0.1172,0.77,1.9397,-4.3635,2046
15,0.1814,-0.0674,-0.2029,0.4637,2.118,-4.3635,2040
15,-0.012,0.0469,-0.1548,0.86,2.0397,-4.3635,2050
15,0.1177,-0.0994,-0.0205,1.2896,1.311,-4.3635,2044
15,-0.1665,-0.4729,0.0745,1.1998,0.915,-4.3635,2044
15,0.0605,-0.4009,0.0254,1.282,0.6686,-4.3635,2043
15,0.1467,-0.3706,0.0732,1.4066,0.4026,-4.3635,2041
15,0.2632,-0.5215,-0.0093,1.2513,0.2677,-4.3635,2048
15,0.3184,-0.6445,-0.1042,1.236,0.0266,-4.3635,2042
15,0.2734,-0.7856,-0.0989,1.4502,-0.2748,-4.3635,2048
15,0.1995,-0.9446,-0.0769,1.5796,-0.5156,-4.3635,2048
15,0.1401,-1.1863,-0.0359,1.7082,-0.5414,-4.3635,2046
15,0.0056,-1.5525,0.0171,1.8069,-0.5758,-4.3635,2049
15,-0.187,-1.8584,0.0344,1.7916,-0.8215,-4.3635,2044
15,-0.5103,-2.0,0.0566,1.6767,-1.15,-4.3635,2043
15,-0.6101,-2.0,0.7102,0.9387,-2.7183,-4.3635,2042
15,-1.5815,-2.0,-0.2625,1.7044,-2.9548,-4.3635,2050
15,-0.6748,-0.6475,1.6946,-0.6233,-1.5821,-0.8365,2045
15,-0.3508,-2.0,-0.3455,0.344,0.2093,-4.3635,2046
15,0.0977,-1.5681,-0.2871,1.1768,-2.6687,-3.0368,2043
15,-2.0,-2.0,0.1184,0.2904,-2.2848,-1.9049,2049
15,-2.0,-1.4407,0.0884,-0.4577,0.2513,-1.6097,2049
15,0.1221,-1.9702,0.3411,-1.0618,-0.5529,-0.7119,2043
15,-0.6292,-0.9404,0.3757,-0.4501,0.8301,2.4161,2046
15,-0.5393,-1.3735,1.1855,-1.0859,0.9175,2.4621,2049
15,-0.1016,-0.7803,1.5044,0.9674,-0.198,2.6321,2038
15,0.4934,0.085,1.5276,0.7333,0.7585,0.6718,2015
15,1.9999,-2.0,1.7168,1.9293,2.2859,1.0941,2045
15,1.8525,-2.0,-0.0852,-1.9439,0.5574,1.2668,2041
15,-0.3535,-2.0,0.2112,-1.446,2.4448,3.3079,2032
15,-2.0,-2.0,-1.5425,-3.4551,4.3634,3.058,2024
15,-0.6711,-0.4626,-0.2717,-3.0751,4.3634,2.9415,2113
15,1.218,-0.2424,1.2793,-3.6422,0.4835,1.5848,2043
15,-0.4832,-0.0273,-1.3711,-0.2962,-1.2424,1.0288,2016
15,-0.9333,-0.4253,-1.3765,-1.6115,-0.0691,2.107,2031
15,-0.3442,-0.1494,-1.1433,-0.9315,-0.3843,1.4936,2050
15,0.6746,-0.7471,-0.0012,-0.9749,-0.9889,1.0183,2012
15,-0.1863,-0.4492,-0.373,0.6855,0.2491,1.7863,2019
15,0.0508,-1.1438,0.7961,0.2322,0.3827,1.8174,2063
15,-0.3755,-1.8342,0.7395,0.0282,-0.1931,2.4043,2054
15,-1.52,-1.4553,0.0076,-0.6429,0.4874,1.4553,2058
15,-0.2563,-0.8315,0.2507,-0.6454,0.2634,0.7548,2037
15,0.1531,-1.0073,0.1755,-0.6767,0.6939,0.7485,2021
15,-0.1882,-0.9758,-0.0527,-0.632,0.5207,0.6468,2039
15,-0.1697,-1.0386,-0.0339,-0.5659,0.1983,0.5141,2051
15,0.0835,-1.0491,-0.0903,-0.4529,0.1507,0.5593,2080
15,0.262,-1.0193,-0.0632,-0.3189,-0.1,0.7147,2070
15,0.2656,-0.9919,-0.1729,-0.1447,-0.4927,0.9541,2057
15,0.1238,-0.9885,-0.1797,-0.0285,-0.6841,1.075,2052
15,-0.0356,-0.9883,-0.1621,0.0382,-0.6084,1.0424,2044
15,-0.0828,-1.021,-0.1147,0.0461,-0.6067,0.9274,2037
15,-0.1338,-0.9712,-0.0769,0.0531,-0.5092,0.7863,2043
15,-0.0281,-1.002,-0.0425,0.0356,-0.4356,0.6897,2044
15,0.061,-1.0173,-0.0229,0.0872,-0.4508,0.7321,2048
15,0.0867,-0.969,-0.0198,0.1083,-0.5369,0.7662,2049
15,0.2896,-0.9631,-0.074,0.1031,-0.7003,0.8917,2059
15,0.4353,-0.9988,-0.0276,0.0393,-1.0455,1.2536,2040
15,-0.2043,-0.9846,0.0591,-0.2097,-1.0065,0.768,2058
15,-0.3608,-0.981,-0.1992,0.0245,-0.2213,0.602,2039
15,-0.2427,-0.957,-0.1392,0.1353,0.3735,0.5433,2030
15,0.8506,-1.2576,0.3499,0.0257,-0.4643,0.7275,2061
15,1.4138,-0.3142,0.0396,0.0262,-3.2015,1.1632,2014
15,-2.0,-1.572,-0.4819,-0.2974,-0.5609,2.7464,2016
15,-0.647,-0.4272,-0.0789,-0.2828,2.8695,-0.4478,2078
15,-0.1868,-0.865,0.0813,0.0072,2.7046,-0.1159,2042
15,0.3523,-0.9849,0.2471,-0.3667,0.5074,0.5131,2065
15,0.8486,-1.1445,0.0439,-0.3798,0.8672,0.7919,2096
15,0.095,-0.9243,0.2371,-0.3757,0.092,1.3093,2028
15,-0.1536,-1.1572,0.0808,-0.505,0.0778,1.1122,2083
15,-0.2844,-1.1221,0.0474,-0.5521,0.638,1.0251,2010
15,0.1365,-0.9453,0.1279,-0.5215,0.4245,1.0537,2112
15,0.1707,-0.9424,0.1438,-0.5959,0.0957,1.0481,1996
15,-0.0645,-1.075,0.0369,-0.6376,0.2617,1.2758,2074
15,-0.1401,-1.1125,0.053,-0.6566,0.2798,1.3267,1986
15,0.0352,-1.1194,0.0471,-0.6364,0.2258,1.3679,2097
15,-0.0105,-1.0706,0.0103,-0.5622,0.2506,1.4588,2065
15,-0.0669,-1.115,-0.0027,-0.5653,0.2313,1.5368,2036
15,-0.0576,-1.1948,0.0137,-0.5609,0.4004,1.5832,2024
15,0.0481,-1.2627,-0.0061,-0.5678,0.4089,1.6346,2038
15,0.2036,-1.2495,0.0222,-0.6171,0.2665,1.7399,2106
15,0.1016,-1.1807,0.074,-0.5874,0.2784,1.9307,2022
15,-0.019,-1.3267,0.1616,-0.5873,0.2686,2.0759,1878
16,-0.0376,-1.2664,0.1494,-0.5414,0.3444,2.1834,2050
16,-0.0615,-1.2346,0.1833,-0.4951,0.4376,2.2897,2029
16,-0.019,-1.2988,0.145,-0.4429,0.6343,2.4051,2077
16,0.0791,-1.3813,0.0967,-0.4638,0.715,2.4629,2035
16,0.2156,-1.4634,0.1296,-0.4975,0.7124,2.4665,2087
16,0.4465,-1.5833,0.1445,-0.594,0.4888,2.506,2030
16,0.5627,-1.5972,0.1743,-0.7026,0.1923,2.7047,2078
16,0.761,-1.6931,0.2014,-0.8584,-0.2694,2.9018,2012
16,0.897,-1.8948,0.3323,-0.9939,-0.9573,3.0391,2040
16,1.302,-2.0,0.6575,-1.1286,-2.1716,2.9454,2038
16,1.9999,-2.0,0.7766,-1.5619,-3.4793,3.1709,2044
16,1.9999,-1.4902,0.7598,-1.735,-4.3635,3.0686,2057
16,0.8572,-1.1558,0.2261,-1.168,-4.3635,4.3634,2045
16,0.4431,-2.0,0.3044,-0.9341,-4.3635,4.3634,2048
16,-1.584,-1.3511,-0.5869,-0.4052,-2.5213,4.2843,2012
16,-0.7788,-1.4055,-0.8499,-1.1366,-0.1732,3.3134,2068
16,-2.0,-2.0,0.1113,-2.2579,-0.0451,1.4647,2031
16,0.0435,-0.7837,-0.1631,0.0075,-1.3053,4.1475,2077
16,-2.0,-1.6567,0.6279,1.6237,1.8441,4.3634,2055
16,-0.3928,-0.5977,0.4905,0.7217,3.8579,4.3634,2039
16,1.9999,0.8394,0.7185,-2.5512,-1.65,2.0317,2041
16,-1.2019,-1.2351,-1.7371,-0.738,0.7524,0.7074,2006
16,-1.1807,-1.2671,-1.3772,-2.1277,0.4081,1.0608,2047
16,-1.3538,-0.5129,-0.1333,-0.3498,-0.8636,0.5456,2073
16,-1.1819,0.1794,0.0581,0.7108,-1.4994,-0.6461,2054
16,-0.7397,1.0393,-0.0369,2.4218,-1.6717,-1.2097,2048
16,-0.8433,-0.0552,0.4031,0.1416,-1.448,-2.0666,2032
16,-0.0198,0.0452,-0.1206,-0.7372,-0.509,-3.4694,2049
16,0.5586,-0.2939,-0.1711,-0.3376,0.608,-3.6816,2012
16,0.4194,-0.626,-0.0342,-0.7128,1.1841,-3.6853,2045
16,-0.1692,-0.1797,-0.4036,-0.014,1.8379,-2.6583,2044
16,-0.2598,-0.02,-0.3276,0.7124,1.4515,-2.7549,2047
16,-0.3965,0.2432,-0.1882,0.97,1.384,-3.4924,2053
16,-0.251,0.1604,0.0112,1.1583,1.4789,-3.8207,2042
16,-0.3643,-0.4648,0.0747,1.0053,1.3043,-4.0436,2041
16,-1.0623,-0.3542,0.0254,1.8354,0.5204,-3.5234,2051
16,-0.5703,0.0127,-0.0125,1.8535,1.3557,-4.3635,2047
16,0.3799,-0.1902,-0.5671,0.1135,2.8213,-4.3635,2039
16,-0.2803,-0.3096,-0.4856,0.3244,4.3576,-4.3635,2052
16,-0.3843,-0.1094,-0.2639,1.5424,4.2439,-4.3635,2043
16,0.1414,-0.3933,0.0903,2.4009,2.0887,-4.3635,2045
16,0.1243,-0.3733,0.1157,2.581,1.148,-4.3635,2042
16,0.395,-0.5984,-0.1804,1.8289,1.1536,-4.3635,2041
16,0.4739,-0.6868,-0.3044,1.6351,0.9863,-4.3635,2042
16,0.467,-0.7205,-0.4224,1.6727,0.5613,-4.3635,2045
16,0.3191,-0.7898,-0.4788,1.9844,0.008,-4.3635,2046
16,0.3921,-0.9448,-0.4492,2.1451,-0.4641,-4.3635,2040
16,0.4114,-1.3652,-0.4758,2.1055,-0.679,-4.3635,2046
16,0.1182,-1.6499,-0.4734,2.267,-1.148,-4.3635,2047
16,-0.2549,-2.0,-0.0571,1.9909,-2.3754,-4.3635,2045
16,-0.3809,-2.0,-0.1265,1.3492,-3.2276,-4.3635,2044
16,-0.489,-2.0,-0.1228,1.2545,-4.0817,-4.3635,2047
16,-0.0222,-2.0,0.2495,1.0508,-4.3635,-4.3635,2039
16,0.03,-2.0,-0.5542,0.2776,-4.3635,-4.0725,2047
16,-1.9006,-1.406,0.5103,0.8052,-3.8667,-3.2259,2056
16,-1.4827,-1.5261,-0.1768,1.5736,-2.5968,-3.6031,2044
16,-1.1833,-2.0,0.3584,0.3745,-1.3503,-2.6886,2039
16,-1.2556,-1.2341,-0.0134,-0.4847,-2.4533,-2.0989,2058
16,-1.2964,-1.2271,0.1775,-0.5753,-1.3916,-1.6195,2039
16,-0.9399,-0.9448,0.6489,-0.7299,0.2502,-0.4059,2044
16,-0.0596,-0.4878,0.2114,-1.0913,0.3421,1.0753,2041
16,-2.0,-1.1013,0.7188,0.5516,1.2176,2.5282,2046
16,-2.0,-2.0,1.9999,-1.2868,2.9458,3.8853,2052
16,1.5049,-0.3757,1.9999,-1.4954,-0.4809,1.9507,2037
16,1.9999,-0.2527,1.823,-1.0038,-1.6295,-0.2338,2019
16,1.9999,-2.0,-0.9043,-2.4526,1.4103,0.8841,2008
16,-0.99,-2.0,0.312,-0.9056,3.6205,3.0698,2061
16,-0.96,0.2849,0.6436,0.9184,2.9949,4.3634,2086
16,-1.2332,-1.9194,0.3064,-0.0515,2.3429,3.7684,2018
16,-1.0908,-2.0,-1.5413,-4.1816,3.3692,1.5689,2010
16,-0.3132,-0.7385,-2.0,-4.3635,4.1148,1.1318,2079
16,0.9565,1.5095,0.0803,-1.5277,-0.9616,1.7797,2075
16,-0.0295,-1.4106,-0.7122,-1.8386,-0.6622,2.1194,2014
16,-0.252,-1.1284,-1.5999,-1.209,0.244,1.6009,2029
16,-0.0542,0.4734,-0.5762,0.7087,0.2286,1.6254,2069
16,-0.3708,0.1919,0.7339,3.0959,0.1537,3.3734,2055
16,-0.4153,-1.51,0.656,1.6878,-0.7115,1.8105,2009
16,-0.749,-2.0,0.7361,0.2571,-0.361,2.0078,2050
16,-1.9561,-1.6963,0.7583,-0.8622,0.4866,1.3119,2042
16,-0.8381,-0.5579,0.2007,-0.8168,0.7301,0.6136,2062
16,0.2859,-0.9563,0.2437,-1.0062,0.8377,0.4643,2028
16,-0.1223,-1.1145,0.0413,-1.0395,1.3272,0.4408,2040
16,-0.2393,-1.1409,-0.1096,-0.7529,0.758,0.5348,2015
16,0.0767,-1.0854,-0.1345,-0.6192,0.4089,0.7292,2048
16,0.3953,-1.0085,-0.1685,-0.3461,0.0695,0.8327,2044
16,0.3,-0.9729,-0.1663,-0.2075,-0.4008,1.0288,2048
16,0.1272,-0.9492,-0.2537,-0.0811,-0.6871,1.0202,2049
16,0.0176,-0.9912,-0.2209,0.0348,-0.8533,0.928,2045
16,-0.1169,-0.9893,-0.1313,0.1429,-0.8487,0.9052,2042
16,-0.208,-1.0398,-0.0894,0.1396,-0.5758,0.7582,2035
16,-0.2097,-1.1211,0.0073,0.0601,-0.1665,0.6112,2050
16,-0.1438,-0.9695,0.1167,-0.0119,-0.1959,0.4847,2052
16,0.1519,-0.97,0.0786,-0.0775,-0.3834,0.5873,2053
16,0.292,-1.0769,0.01,-0.0397,-0.5811,0.8708,2043
16,-0.0034,-0.9187,0.0854,-0.3378,-0.7006,0.5654,2070
16,-0.2954,-1.0173,-0.2556,0.0634,-0.0702,0.3538,2119
