,timestamp,node,accx,accy,accz,gyrox,gyroy,gyroz,q0,q1,q2,q3,timestamp,node,accx,accy,accz,gyrox,gyroy,gyroz,q0,q1,q2,q3,timestamp,node,accx,accy,accz,gyrox,gyroy,gyroz,q0,q1,q2,q3,timestamp,node,accx,accy,accz,gyrox,gyroy,gyroz,q0,q1,q2,q3,timestamp,node,accx,accy,accz,gyrox,gyroy,gyroz,q0,q1,q2,q3,timestamp,node,accx,accy,accz,gyrox,gyroy,gyroz,q0,q1,q2,q3,timestamp,node,accx,accy,accz,gyrox,gyroy,gyroz,q0,q1,q2,q3,timestamp,node,accx,accy,accz,gyrox,gyroy,gyroz,q0,q1,q2,q3,timestamp,node,accx,accy,accz,gyrox,gyroy,gyroz,q0,q1,q2,q3
0,0.0289999999999963,0.0,-9.27659329847867e-17,8.247376087314044e-17,1.0,-0.0029344999977126,-0.0246472843380538,-0.0191220178525472,0.9999987726399965,-0.00014672481980122952,-0.0012325029880793181,-0.0009560997397304957,0.0289999999999963,1.0,-6.894798248791143e-17,4.2924186309969127e-17,1.0000000000000002,0.0040341041311832,-0.006248656422098,0.0320023912743329,0.9999986505607987,0.0002017049343702493,-0.000312755151507384,0.0016001174695533405,0.0299999999997453,2.0,3.214243678366515e-17,5.3091653264732314e-17,1.0,0.0070811409452114,-0.0073694840370547,0.0211559881848879,0.9999993098278923,0.00035405680290027415,-0.00036884846861906707,0.0010577988117825739,0.0299999999997453,3.0,4.391060456464028e-17,-7.159313673869892e-17,1.0,0.0056936790758095,-0.0064052130730128,0.0016180957300899,0.9999999049139242,0.00028468392672099143,-0.000320283655490626,8.090478536850039e-05,0.0299999999997453,4.0,-4.160307747853108e-17,-1.5877324282927062e-18,1.0,0.0050319492993545,-0.004589416367064,0.0149185610428129,0.9999996637736512,0.00025159738037402795,-0.00022965841474292857,0.0007459278485581675,0.0,5.0,-7.069220303904974e-18,5.505918665685532e-17,1.0,0.0501601288765936,0.0281620853450713,-0.0076262901798104,0.9999957895512425,0.002507995883997068,0.0014090546737217597,-0.0003813153019802113,0.0,6.0,3.4867394379749437e-17,-4.320306744400357e-17,1.0,0.001407811240367,-0.0032132104944151,-0.0017452976214178,0.9999999808100898,7.039056066755928e-05,-0.00016065437901379055,-8.726487982866752e-05,0.0,7.0,1.0381506334346138e-16,1.246878025794956e-17,1.0,0.0131274705984697,0.0186393645224282,-0.0207968296113034,0.9999988090346927,0.0006563727482053829,0.0009326496397898765,-0.001039840690140473,0.0,8.0,-4.911327509790094e-18,-7.149160827971729e-18,1.0,-0.0014324911130956,-0.0024759498301696,-0.0096347692266425,0.9999998737318301,-7.16245466108788e-05,-0.000123831980175675,-0.0004817384029752462
1,0.1179999999999381,0.0,0.0007933627029339,-0.0004958718172273,0.9802173864438248,-0.0115815997572303,-0.0104588180061478,-0.0222765140210406,0.9999961865949821,-0.0007355897845867291,-0.0016729009156032323,-0.0020705327066204084,0.1189999999996871,1.0,-2.0557000716863625e-17,2.620582701411876e-17,0.9798091650928766,0.0096094811813083,0.0082221110823249,-0.0010222852504391,0.999998572725465,0.0006613659464249316,0.00013042800840495577,0.0015492355058282707,0.1189999999996871,2.0,0.0005788089337267,0.0012903411247566,0.9797724225553608,0.0040599392219112,0.0041303183433377,-0.0196462839852051,0.9999998125847155,0.000587671920613201,-0.00015412377251054993,7.561818840106566e-05,0.1189999999996871,3.0,3.69731581217342e-17,-7.705866503882625e-17,0.980368298141061,0.0109176170009846,0.0127436932455664,-0.0348842141181289,0.9999982338362224,0.0008026020277366766,0.0003503728607881212,-0.0016629471666274897,0.1189999999996871,4.0,-0.000854756777803,-0.0004249874333715,0.9803153006949,-0.0124718105549549,0.0202315550127236,-0.0801426759034267,0.999994236864925,-0.0004186940903265683,0.0008463178827428205,-0.003261085438362458,0.0489999999999781,5.0,-0.0012617079406126,0.0011553886359045,0.979938300695596,0.0002530918855221,-0.0022231313281147,-0.0054543999847005,0.999996328525934,0.002328401481353366,0.0012219778221879245,-0.0006544091962586728,0.0499999999997271,6.0,3.5533767072460316e-17,-4.264785233349638e-17,0.9804177680968454,-0.0038659224627145,0.0049481345836438,0.0092397166916005,0.9999999160539157,-0.0001299972431247505,0.00010289471655723463,0.00037470729306306893,0.0499999999997271,7.0,-0.0009861793254755,0.0001656310884302,0.9793839900757416,-0.0163157940979659,-0.0055704613602879,-0.0040907209340748,0.9999990156283606,-0.00021702584791325142,0.000612003419441586,-0.001243822296859003,0.0499999999997271,8.0,-0.00086133934391,0.0004963773172864,0.9796907735117716,-0.0016932123560287,-0.0064331020690313,-0.0257152218667234,0.9999983545721317,-0.00012376377035452186,-0.00038927416627738986,-0.0017674844219503771
2,0.1939999999999599,0.0,0.0025121744219484,-0.0019136306854798,0.9800285847858078,-0.0220581025922271,-0.0225818338917054,-0.0192222991254361,0.9999898505077529,-0.001863549385083439,-0.002762161398742111,-0.003032578041638193,0.1939999999999599,1.0,-2.0557000716863625e-17,2.620582701411876e-17,0.9798091650928766,0.0092815168998954,0.0033550969556187,0.0195636076816921,0.9999962044774815,0.0010591709358941353,0.00028482228312039644,0.0025274619337958427,0.1939999999999599,2.0,-0.000334844265857,0.0009251901141339,0.9799510354617574,0.0091108006965787,0.003487783879967,0.0048766563033056,0.9999994154475318,0.001031598279391446,5.2548928757744254e-05,0.00031960631184824195,0.1939999999999599,3.0,-0.0003442860580849,-5.237439503403359e-05,0.9794308953285236,-0.0047463388892679,0.0059303665241687,-0.0462521867053109,0.9999917835179172,0.000482063543484131,0.0006309403309686357,-0.003975226495916992,0.1949999999997089,4.0,-0.0021083892496248,-0.0006794194669764,0.9797122501448884,0.0076450982745563,0.0081413782689854,-0.0320620213097763,0.9999873541167171,-2.8926598019687193e-05,0.001275170290191831,-0.004864638797513522,0.1239999999997962,5.0,-0.0012617079406126,0.0011553886359045,0.979938300695596,0.028232650549249,0.0206991709804608,-0.0012458394007385,0.9999909662182652,0.0035667751995902878,0.002198365115312984,-0.0007160917230265878,0.1239999999997962,6.0,-0.00073325400218,-0.0006776367188342,0.9804738666313576,-0.0005154095265739,0.0032564168363444,-0.0047354816429352,0.999999931897428,-0.0001774239485986041,0.00029275427596949964,0.000137915973831939,0.1239999999997962,7.0,-0.0009861793254755,0.0001656310884302,0.9793839900757416,0.009178025355119,0.0150122387746244,-0.026190593519456,0.9999957887399196,0.0002722269201148527,0.0013515331544868745,-0.002553772320007492,0.1239999999997962,8.0,-0.0017226786878201,0.0009927546345728,0.9795825880528778,0.0032779418784388,0.0019166399163928,0.0020552796800954,0.9999985951304842,0.00010346638801416594,-0.000166975935154845,-0.001664677386700369
3,0.2829999999999018,0.0,0.0034376234380287,-0.0028355177365049,0.979486672999824,-0.0158120159334231,-0.0165985101710803,-0.0248535468028454,0.9999813508628815,-0.002612138186453877,-0.00349174096093003,-0.004275792979471074,0.2840000000001055,1.0,0.000646353246521,0.0012428291646335,0.9800030804049282,0.0120512778181074,0.0022452694072191,0.0012437002297553,0.9999952793539677,0.0016190413364117015,0.00033720857528903573,0.0025896457881163983,0.2840000000001055,2.0,0.0005788089337267,0.0012903411247566,0.9797724225553608,0.0006936323114992,0.006316649605113,-0.0196931338028472,0.9999991938615219,0.0010288252583346342,0.00033463353649483004,-0.000664691876400684,0.2840000000001055,3.0,-0.0001103650010633,-0.0010241156496985,0.9793992745590036,-0.0033019272444339,0.0002991896586421,-0.0336211060528865,0.9999838066480485,0.00021550251195066766,0.000589665840346568,-0.005656173135835536,0.2840000000001055,4.0,-0.0026310481028323,-0.0019933931415724,0.979694903513162,-0.0122811783918454,0.0014057455774807,-0.0584147798861966,0.9999685062807752,-0.0007445343754479546,0.0013535167059087589,-0.007784607099011354,0.2309999999997671,5.0,-0.0031662697823004,0.004354897605574,0.9795698084376172,0.0422212104716747,0.0458455001449787,0.0088571645427022,0.999974779063016,0.005546106015049373,0.0044282236334670395,-0.00026978026974375707,0.2309999999997671,6.0,-0.0014129352805786,5.048345229939667e-05,0.9803851289494928,0.0074314998281317,0.0069785282833678,-0.0114612149594171,0.9999996479405355,0.00021424218925855803,0.000684639556702363,-0.00043530192554376156,0.2309999999997671,7.0,-0.0019723586509512,0.0003312621768604,0.9793799058928676,0.0121181721964255,0.0190638512091267,-0.0162769883980191,0.9999913746969149,0.0008694106007519389,0.0022693738871592513,-0.0033681744524150614,0.2309999999997671,8.0,-0.0022278338688183,0.0001333116521451,0.9796611756032064,0.0074591435764285,0.0156018614496099,-0.0168417860906553,0.9999964695812307,0.00047450799444394965,0.0007432830484147989,-0.0025066307162424323
4,0.3289999999997235,0.0,0.0050243488438968,-0.0038272613709597,0.9801928932557576,-0.0246680062759614,-0.0197267626686223,-0.0246715086840312,0.9999680591353621,-0.003780512571878856,-0.004383711153922606,-0.00551103531739096,0.3289999999997235,1.0,0.000646353246521,0.0012428291646335,0.9800030804049282,0.0016698817692958,-0.0019514780801656,-0.0101596165288023,0.9999965316571141,0.0016042068317616372,0.0001741325089956383,0.00208155520047535,0.3289999999997235,2.0,0.0009136531995838,0.0003651510106227,0.979593809648964,0.0096439233556954,-0.007707506126579,0.0091453337943969,0.999998952039758,0.00142664199754494,-0.00013182427059148106,-0.00020792873434991437,0.3289999999997235,3.0,-0.0005517797535272,-0.0031977630058827,0.9796828414598584,-0.012444702767111,0.0010180876658055,-0.0571143819826473,0.999963413410823,-0.0005926943246146433,0.0006125105322702711,-0.00851148542036782,0.3289999999997235,4.0,-0.0022989501782365,-0.0028823793827971,0.9793796029717854,-0.0112297611692251,0.0037672338283394,-0.077804154194284,0.9999297410771323,-0.0013815543891932875,0.0015240091174684234,-0.011673971607763508,0.2869999999998072,5.0,-0.0063227027161581,0.0094216291943508,0.9801740949105356,0.0885474263059001,0.0547606809086716,0.0178110673657707,0.9999260147782884,0.009903823714544544,0.007035548503728457,0.0006166868678854483,0.2880000000000109,6.0,-0.0014129352805786,5.048345229939667e-05,0.9803851289494928,0.002244503386073,0.0098296016001564,0.0142922500546239,0.9999992179027232,0.0003083522228136191,0.0011794448647994822,0.0002793253653186372,0.2880000000000109,7.0,-0.002800464409625,0.0014301185523965,0.9790531712629382,0.0203636394578813,0.0156610895564867,-0.0085560310819778,0.9999866323974592,0.0018758206416300976,0.0029656237768351606,-0.003797551701214598,0.2880000000000109,8.0,-0.0031431433687712,0.00075202996354,0.980544009772482,0.0092880413955969,0.0135552186790512,-0.0407933293204725,0.9999880960753178,0.0009303846400904352,0.0015076168703363054,-0.004546337367034284
5,0.4339999999997417,0.0,0.005355551423326,-0.0055058664417596,0.97992346818702,-0.0159825288693726,-0.0202329796165869,-0.0231487651637347,0.9999540398245458,-0.0044844778967898236,-0.00522943226750754,-0.006667888325645558,0.4349999999999454,1.0,0.000646353246521,0.0012428291646335,0.9800030804049282,0.0024979733984746,-0.0100126180699699,4.310734110581584e-05,0.9999964261014139,0.0016332046885715783,-0.0003764983527056268,0.0020829488316531073,0.4349999999999454,2.0,0.0009136531995838,0.0003651510106227,0.979593809648964,-0.0007741644023802,-0.0189950661580839,-0.0310671294547345,0.9999970284830277,0.001263903215094141,-0.0011130587948935593,-0.001762575926507817,0.4349999999999454,3.0,-0.0002074936954423,-0.0031453886108488,0.9806202442723958,-0.0026138295043635,0.0077553776941406,-0.0203263373289718,0.9999538176116248,-0.0008217120183662035,0.000951232340137377,-0.00952798983685251,0.4349999999999454,4.0,-0.0040084637338426,-0.0037323542495402,0.9799755107910864,0.001090872145713,0.0109894435305844,-0.0503167735929647,0.9998961123032291,-0.001374302628023391,0.0021236474566135016,-0.014190349349294,0.3339999999998326,5.0,-0.0107605172875139,0.0142200814526267,0.9796443234925551,0.0760244439944655,0.0611788880363218,-0.0118802803429499,0.9998602578424791,0.013433335162031714,0.009950357896281186,2.5910068859409708e-05,0.3339999999998326,6.0,-0.0020926165589772,0.000778603623433,0.980296391267628,0.0014145081616804,0.0064063125604154,-0.019240642341706,0.9999985837182592,0.000386700766038301,0.0014889514837179514,-0.0006826766966819099,0.3350000000000364,7.0,-0.0034208671195041,0.0037810370166339,0.9793502955670302,0.0211964660433548,0.0137438143861328,-0.0310034055545926,0.9999751383837495,0.0029397418708452796,0.0035306770693304336,-0.005349285145318535,0.3350000000000364,8.0,-0.0040044827126813,0.0012484072808264,0.9804358243135882,0.0027181594142966,0.0163976837252021,0.0035832905221701,0.9999870913040375,0.001041843123407746,0.00237985012430183,-0.00436670374340859
6,0.4719999999997526,0.0,0.0062810004394065,-0.0064277534927847,0.9793815564010362,-0.0138414201247399,-0.0140891381897744,-0.0257571469757854,0.9999391437965128,-0.005056292966709001,-0.005731256313502363,-0.007955834714244664,0.4719999999997526,1.0,0.0015804674148046,0.0015799568141021,0.9798857106107915,0.0114024528170983,-0.0005533419074245,-0.0119587245666897,0.9999965486754424,0.002121074423464332,-0.00044453686045088463,0.0014852836339764495,0.4719999999997526,2.0,0.0014924621333105,0.0016554921353793,0.979593809648964,0.008296489587697,-0.0011515999022514,-0.0087733854322803,0.9999955932148595,0.0016370865420010856,-0.0011356718347096135,-0.002200851653101159,0.4719999999997526,3.0,-0.0002074936954423,-0.0031453886108488,0.9806202442723958,-0.0026415921544984,0.0043941864503454,-0.0165907775639285,0.9999452345025425,-0.0010305767036382567,0.0010883178580928358,-0.010357676938050925,0.4729999999999563,4.0,-0.0040084637338426,-0.0037323542495402,0.9799755107910864,0.0102572559469559,-0.0030875278508595,-0.0148108155829064,0.9998861821947727,-0.0009153374047037199,0.001956165746892561,-0.014931785859981977,0.4039999999999963,5.0,-0.0139267870698144,0.0185749790582006,0.9795463310915412,0.0699135857077592,0.0507570364310477,0.0002601066101928,0.999788849486407,0.016532881421465508,0.012203230001439724,3.810619835557091e-05,0.4039999999999963,6.0,-0.0020926165589772,0.000778603623433,0.980296391267628,0.0001496129999292,0.0119009245794335,0.0119306508863529,0.9999978336701522,0.00039659105252824197,0.002041565678803241,-8.59076180804556e-05,0.4049999999997453,7.0,-0.004248972878178,0.00487989339217,0.9790235609371012,0.0239034477388622,0.0101214375065059,-0.0195989282338758,0.9999639950883141,0.0040905166169244635,0.0038969367241760127,-0.006331673159021042,0.4049999999997453,8.0,-0.0048658220565914,0.0017447845981128,0.9803276388546942,0.0049520987093931,0.0134328820969807,-0.0278057715569297,0.9999779283057038,0.001274953221981196,0.00306196241804452,-0.005756889947268936
7,0.543999999999869,0.0,0.0076686095789917,-0.0061669072902373,0.9794621798117572,-0.0079242700602471,-0.0071878440050015,-0.0135434935441878,0.9999314294357842,-0.005263734715539861,-0.005906851276571378,-0.008633575814805183,0.543999999999869,1.0,0.0015804674148046,0.0015799568141021,0.9798857106107915,0.0070281499615465,0.0042540797436219,0.004211872233252,0.9999957854094725,0.0023407028306476484,-0.00026787649267589477,0.0016966189128495826,0.543999999999869,2.0,0.0014924621333105,0.0016554921353793,0.979593809648964,0.0022494644896337,0.0090002760504495,-0.0062483049567047,0.9999952369144254,0.0016715265435378584,-0.0006481814149131643,-0.002512371057302588,0.543999999999869,3.0,-0.0005517797535272,-0.0031977630058827,0.9796828414598584,0.0043802406357511,0.0015640160361732,-0.0156602256460959,0.9999369680644942,-0.0008714650350900246,0.0010845817350397038,-0.011141100894399559,0.5450000000000728,4.0,-0.0031537069560396,-0.0033073668161687,0.979677556881436,0.0174947437876837,0.0069145112867637,0.0055739130647131,0.9998900526494858,-0.00010983000588194463,0.002256663245643355,-0.014655306921854247,0.5289999999999964,5.0,-0.0167765483257986,0.0215518995052908,0.9794166953110336,0.0045472708917831,0.0110477025880521,0.0056378998535351,0.9997918214382039,0.01621026797103909,0.012386888401959409,0.00032556612735391957,0.5289999999999964,6.0,-0.0027722978373758,0.0015067237945667,0.9802076535857632,-0.0099606384112028,0.0017549067411703,0.0061183327162903,0.9999978380538002,-6.359778535105931e-05,0.002066623076279875,0.00022116081928931977,0.5289999999999964,7.0,-0.0070494372878032,0.0063100119445665,0.9786886579414236,0.0293774001229556,0.0498123041468676,-0.0308588804107226,0.9999337948127187,0.005484610206231524,0.006354922437822294,-0.00787019714687989,0.5299999999997453,8.0,-0.0057271614005015,0.0022411619153992,0.9802194533958004,-2.608810694242995e-06,0.0129242784364693,0.0302810849937997,0.9999833802014145,0.0012716794797753659,0.003691509925173818,-0.004242040396570965
8,0.61200000000008,0.0,0.0070743631423405,-0.0069236253100121,0.9797346665290032,-0.0075848722523411,0.0119235517334805,-0.0032847015157079,0.9999334273002601,-0.005466894276532387,-0.005075610067770336,-0.00880296637303008,0.612999999999829,1.0,0.0003585923247586,0.0021485306797983,0.9803143655111164,0.002014430973656,0.0174622831091414,-0.0349281684547586,0.999997125999487,0.002315950352467732,0.0006181351185056953,-4.7704362381142085e-05,0.612999999999829,2.0,0.0005788089337267,0.0012903411247566,0.9797724225553608,0.0049286051396785,0.0111800194788085,-0.0066535647861181,0.9999943015887156,0.0018181971948322238,-5.4082913423567844e-05,-0.0028439451640622396,0.612999999999829,3.0,-0.0005517797535272,-0.0031977630058827,0.9796828414598584,-0.0027262243542064,0.0158747382754391,-0.0278138354273462,0.9999192680687472,-0.0010761609671197708,0.001799796335548931,-0.012532356346035731,0.612999999999829,4.0,-0.0043405616584383,-0.0028433680083155,0.980290811332463,0.0044220254911139,0.0018846543952856,-0.0244585755820983,0.9998711716540184,-2.0914755032625414e-05,0.0023454414766889203,-0.015878871561696824,0.5450000000000728,5.0,-0.0234311071005061,0.0265713178936892,0.9786940013535572,0.0334572881208663,0.1674793479298547,0.1014096881921617,0.9996157996653772,0.01767727430003781,0.020626161323248838,0.005507131897555533,0.5450000000000728,6.0,-0.0050256325676977,-0.0019319432519038,0.9805207854056772,-0.0633015888258239,0.0010939108599484,0.1378325832072375,0.9999667884246746,-0.00330654894158132,0.0021929283496625695,0.007118977945775363,0.5459999999998217,7.0,-0.0074621369488875,0.0099129924975055,0.9796096411795367,0.0494382890362991,0.0171936337282722,-0.0439725323983404,0.9998937498483824,0.007909481090822007,0.006953790688238792,-0.010078388664798661,0.5459999999998217,8.0,-0.0049608229186347,-0.0005928196781372,0.9796019797860758,-0.0816879017699938,-0.0499458765426752,0.1501816624969708,0.9999896432038531,-0.0029519502280498148,0.0011177592112353654,0.0032787328692203107
9,0.6449999999999818,0.0,0.0059497978599772,-0.0047491484219848,0.979650981469774,0.0102040757851188,0.0315139911616189,0.0060061892039298,0.9999475837655372,-0.004642721284956531,-0.003297036169313959,-0.008509078271604423,0.6459999999997308,1.0,-0.0010745275818351,0.0029741059334127,0.979799979630727,0.0058635612688172,0.0313685802633274,-0.0297796912647529,0.9999932445556957,0.002528453910554291,0.0021833160002364222,-0.0015332628729003933,0.6459999999997308,2.0,-0.002148657575691,0.0025138020776804,0.979519302550867,0.0058698724072879,0.0311822168097399,-0.0283706819655784,0.9999874838202482,0.0020630035046018073,0.0016218209015801805,-0.004259802384123068,0.6459999999997308,3.0,-0.0005517797535272,-0.0031977630058827,0.9796828414598584,0.0048281676009671,0.0050946116033407,0.0502608412937625,0.9999475929888275,-0.000882269479672155,0.001903920810288245,-0.010020377336369615,0.6459999999997308,4.0,-0.0031537069560396,-0.0033073668161687,0.979677556881436,0.0060085768764488,-0.0084784270504552,0.0889092383230863,0.9999329126747526,0.00011905130722472068,0.0018452930476263686,-0.011434634674532942,0.6069999999999709,5.0,-0.039869516076726,0.0249626402503407,0.97913088414141,0.0268780181809886,0.1916209413368576,0.1205234264714459,0.9993068564811118,0.018585712623363657,0.030073149090865593,0.011661199761546451,0.6069999999999709,6.0,-0.0037541300214372,-0.006302893758132,0.979993459181262,-0.0864270912449968,-0.0062380787285565,0.0581157049054299,0.9999189857775769,-0.007611188250002223,0.0018423216558304514,0.010034816684008758,0.6069999999999709,7.0,-0.0134757654292222,0.0163762101552374,0.9798608184262946,0.1152614792406206,0.0806035152967147,0.0094001933588113,0.9997995657325955,0.013766510586808835,0.010902114256725043,-0.009615375807018281,0.6079999999997199,8.0,-0.0013492831041689,-0.0086093577994971,0.9787701764936368,-0.0456273689497912,0.0369000928251158,0.1502301142280322,0.9999230205034964,-0.005375510187846644,0.0029511937096477043,0.010786445803556557
10,0.7179999999998472,0.0,0.0027752182791702,0.0005216924050948,0.9800255231372996,0.0165420011605488,0.0398698073152339,0.0712157345051971,0.9999815905736824,-0.0033206843028122635,-0.00111086957788562,-0.004955556302810035,0.7179999999998472,1.0,-0.004375875824996,0.0031254258880898,0.9795203333386104,0.0005473870706459,0.0409857528668792,0.0388081854132994,0.9999879068959365,0.0024702262453363626,0.004232523925301059,0.0004120502423295753,0.7179999999998472,2.0,-0.0058806568826801,0.0065128333730061,0.9798020212655636,0.0127682030195554,0.0305225286728127,0.0485624189607457,0.9999889336369373,0.0028391560396643437,0.0032747943414277725,-0.0018296225471128066,0.7179999999998472,3.0,-0.0012535429245919,-0.0002825392418893,0.9797777037684176,0.0040530483449014,0.0334866203022,0.1048155378976846,0.9999824406768143,-0.0005783997474899179,0.003452910457570376,-0.004781338844460642,0.7179999999998472,4.0,-0.0034858048806353,-0.002418380574944,0.9799928574228126,0.0262614489583922,-0.0103156357530181,0.1812928670218992,0.999995487095926,0.001309683535164279,0.0012972683417632749,-0.002372258769417469,0.7280000000000655,5.0,-0.0468449095424023,0.0357165557952539,0.9782959072244392,0.0761607675601681,0.08326873891216,0.1692682959976391,0.9989830919528222,0.02253115866529887,0.033489723396565495,0.02008898475283716,0.7280000000000655,6.0,-0.0039148481927818,-0.0105201644280357,0.9804279678303932,-0.0472600590774629,0.0133877165234747,0.0666668443632845,0.9998598969446081,-0.009751731155335848,0.002530406221150953,0.013367395623217537,0.7280000000000655,7.0,-0.0195390233915499,0.0225205910113738,0.9791654862919764,0.0903603647998845,0.120001943656,0.1414478810039253,0.9996930110569189,0.01819974301685645,0.016623747606790237,-0.0025107794759915893,0.7280000000000655,8.0,-0.0011420699593431,-0.0121804413813529,0.9792223100624102,-0.0980778804639573,-0.0390320311017207,0.3307486168357962,0.9995728581952587,-0.010291570196216552,0.0008738491283854253,0.02733900382161889
11,0.7699999999999818,0.0,0.0015824942745995,0.0068100974544967,0.9802082014982996,0.0306782340009305,0.0056673596990629,0.0749564219153908,0.9999983324521879,-0.0011104774702345287,-0.0008022872674054068,-0.0012075875834109504,0.7699999999999818,1.0,-0.0041507628191294,0.0143019558013674,0.9793345828818032,0.0557205879516937,0.0051669748470436,0.1519772467521651,0.9999423537485247,0.005771048894802938,0.004236975581020528,0.008002013024232205,0.7699999999999818,2.0,-0.0081067009670249,0.0144862707885028,0.9791171683501791,0.0623999570193961,0.0082591891105285,0.2080698376388282,0.9999356652447535,0.0064500953828703095,0.0036998177957505082,0.008565803486077926,0.7709999999997308,3.0,-0.0010460492291495,0.0028628493689593,0.9795257576370828,0.004987946313651,2.813714020771769e-05,0.1353868477186235,0.9999930229055761,-0.00010138292121576059,0.0031611379691202407,0.0019877294613622988,0.7709999999997308,4.0,-0.0017272673924016,0.0037265003646652,0.9803775444910942,0.046185198401948,-0.0217369857368456,0.2549615545641383,0.9999393967084244,0.003691940561488353,0.00011574767320458709,0.01037106974999226,0.7979999999997744,5.0,-0.0566570857701052,0.0363778317931641,0.9777630735439272,0.0129187461472216,0.2918212805893621,-0.0693191242372312,0.9984679169325064,0.02231034325754152,0.04772527964573709,0.0169223261677709,0.7979999999997744,6.0,-0.0042169990984445,-0.0190579021518682,0.9803025111077568,-0.1675560017618112,-0.0422297985140998,0.3114216933058204,0.9994170680411871,-0.01805499744944075,0.0005379319023699793,0.028969843015210762,0.7979999999997744,7.0,-0.0228137085015805,0.0211510337024529,0.9797985346374644,-0.1518554015673321,-0.0365520228350415,0.2288274978579437,0.9998080011624607,0.010054074501785554,0.014197415334335434,0.009017194422988439,0.7989999999999782,8.0,-0.0020941381945996,-0.0196856742102055,0.9800969792913922,-0.1170357464550376,0.0046385835894239,0.1867796419278952,0.9991968619011121,-0.016113729226492807,0.001087994716518933,0.03667144890622471
12,0.8079999999999927,0.0,0.0021725095799822,0.015368656563223,0.9795734197075616,0.010310400049695,-0.0225022617626435,0.0317326996274295,0.9999979625233786,0.00029766759685041967,-0.001960094824744996,0.000379962328933148,0.8079999999999927,1.0,-0.0039325839079222,0.019761720064047,0.9797132280437564,0.0058455677544324,0.006772158285793,0.0838197309671361,0.9998950446248333,0.006507910053254285,0.0043356520619838145,0.012196268389929014,0.8079999999999927,2.0,-0.0072839273654285,0.0179921431521499,0.979295781256576,0.0128560543989198,-0.0099599397191797,0.0815552006159016,0.9998878014035981,0.00738236920156187,0.003186968099904019,0.0126383726634792,0.8089999999997417,3.0,-0.0009621115896654,0.008004094884171,0.9802744558573248,-0.0248662257806198,-0.0280359795512991,0.1643041001704057,0.9999463746449356,-0.0008976071424399126,0.0014980015415786865,0.010207748392724078,0.8089999999997417,4.0,0.0012358786350263,0.004830907265013,0.9803846872218048,0.0272076433129909,-0.0917450347871361,0.2840099086465812,0.9996756590017016,0.004978534301671943,-0.004598646862343505,0.024548797175344358,0.8890000000001237,5.0,-0.0826336514869977,0.0449865110337276,0.9750968636330124,0.0745315340384231,0.2362752520643676,-0.1008636424659693,0.9978469413085324,0.025581865395619314,0.05919055529589938,0.011980319188153139,0.8890000000001237,6.0,-0.0038201832886823,-0.0284269564308595,0.9792713180460864,-0.1379476066309904,0.0384303956098405,0.0207153511846095,0.9992437803703161,-0.0246524238980828,0.0023827634279197283,0.02997411926370663,0.8890000000001237,7.0,-0.0109941545897059,0.0069725362982875,0.978672321209927,-0.2676962696500767,-0.1483396376930231,0.1630263225523602,0.9998264780170285,-0.0038017140334007486,0.005834863997198474,0.01727759209516874,0.8890000000001237,8.0,0.0010122464388679,-0.0285616553139931,0.9793437635492817,-0.1366937605959718,-0.0175537896865947,0.0398080847451035,0.9989927677716125,-0.022750312312274347,-0.00020802955401030723,0.038675960924220175
13,0.8969999999999345,0.0,-0.0008699836876783,0.020213482156505,0.9790529394611364,-0.0101335548564312,0.0116400712743636,-0.1057080393917158,0.9999869897191834,0.0008034177128849214,-0.0011332370605393678,-0.004908226371000423,0.8979999999996835,1.0,-0.0032862306614011,0.0210045492286804,0.9799071433558082,0.0017356263702459,0.0290797769204731,-0.0409533990865942,0.9999085507741764,0.0069867129620801134,0.005552041584725333,0.010161238355306348,0.8979999999996835,2.0,-0.005791465232118,0.0196476352875292,0.9791171683501791,0.0256716850763115,0.0128314331398471,0.0481081716794252,0.9998397040613032,0.008926375245983581,0.003812841342793638,0.015044874491601166,0.8979999999996835,3.0,0.0019995800668773,0.0077228481700725,0.9792024097681228,-0.0084245638698338,-0.0655924422152576,0.0601947990161766,0.9999102186022563,-0.0007957112413533474,-0.002031099750959427,0.013221051857168606,0.8979999999996835,4.0,0.0080346813044807,0.002888233267672,0.9803367288870324,-0.0375628523163211,-0.1275871668747132,0.0505903223969585,0.9995699772425618,0.0029055539835103664,-0.010974777032128735,0.027036505329801615,0.9339999999997416,5.0,-0.0746945694292774,0.0264539779985341,0.976683115624422,-0.31318207749894,-0.2099982588371851,-0.1928218403266595,0.998880351250303,0.008236349930922529,0.04648946548731823,0.002989318415683725,0.9339999999997416,6.0,-0.0042101942048817,-0.0398794043186529,0.9784410597353048,-0.1944888344399396,0.0251803206855696,0.0736446524892246,0.9988507554423949,-0.03397050641015696,0.003389449774650954,0.03364052134881186,0.9349999999999454,7.0,-0.002569621429999,-0.0152737265129693,0.9804417934401376,-0.3326118941802674,-0.1691355628095714,0.0375351935919111,0.9995951065397838,-0.020668558169429366,-0.0033339810026416167,0.019269620016738074,0.9349999999999454,8.0,0.0021930112103864,-0.038537804071241,0.9796305570771044,-0.1569749437883936,-0.0491791640658107,-0.1454825571094758,0.9990438925126157,-0.030178604869014865,-0.003354706314769358,0.03145311728498252
14,0.9429999999997564,0.0,-0.0045706509829291,0.0206136768024353,0.9794336044256786,-0.070454604505293,0.0161537632830752,-0.2727618561068921,0.9998264764509948,-0.001726628185487263,9.508224384116252e-06,-0.018548198087438607,0.9429999999997564,1.0,-0.0028580563260871,0.0167876141306343,0.9797224135059064,-0.0406590588584919,0.0512030615603659,-0.2880485971543192,0.9999484972905295,0.005003611984951461,0.0077622510263827375,-0.004208811295304502,0.9429999999997564,2.0,-0.0045429677666771,0.0190875961840179,0.9787599425373856,-0.0249120751421897,0.0348455092201712,-0.2574892698036652,0.9999529528618042,0.0076834903262634185,0.005500298756558969,0.002191518412782679,0.9429999999997564,3.0,0.0003885600293055,0.0104079070872106,0.9796440805165758,-0.0317394053313436,-0.0151738258031259,-0.2155750718605298,0.9999920327080566,-0.0017396915426617168,-0.0026390952745344682,0.0024378617428833078,0.9429999999997564,4.0,0.0135976053389089,-0.0038853479946822,0.9799214301157044,-0.1837251162564349,-0.0485446763789856,-0.4059284378682742,0.9998676425776883,-0.006461982053069044,-0.013379548056516682,0.00662780566140646,0.9789999999998144,5.0,-0.0629648528659292,0.009523633036861,0.9780162205798792,-0.0819297554767853,-0.0312986936050301,-0.1845860811650206,0.9990289797083513,0.0033720947889287474,0.04350915291955668,-0.006056425666013468,0.9789999999998144,6.0,-0.0054598900078508,-0.0547178063211912,0.9789510464126888,-0.2335548630620211,-0.0126166657434852,0.2358147381155667,0.99794993606174,-0.04496145243602738,0.0027424571012218102,0.04546286218728417,0.9789999999998144,7.0,0.0049394385643762,-0.0309749869392208,0.9789980347941378,-0.2048400262613189,-0.0737995770465005,-0.2397034158978735,0.9994856084438438,-0.030301062925566787,-0.00753135632659738,0.007324122548255284,0.9789999999998144,8.0,0.0072832578325429,-0.0520999643855655,0.978554826193386,-0.2325435293772788,-0.1005269808005328,0.1108741268852585,0.9984218789375187,-0.04127381135333891,-0.008629351245702811,0.03709121799458747
15,1.0329999999999018,0.0,-0.0077409994324677,0.0180826765405635,0.980170441166696,-0.0873540924210565,0.0193216184525634,-0.3450151366415345,0.9993462055835212,-0.004971960467775136,0.001346679031040427,-0.035785855453140544,1.0329999999999018,1.0,-0.0047971160656506,0.0130591266367339,0.9791406675697514,-0.094323662039481,0.0473040371826601,-0.3650005449134607,0.999702768529786,0.00032369371523590946,0.009617254071806509,-0.022400407147594427,1.0329999999999018,2.0,-0.0074370124353108,0.0126358905602349,0.9787599425373856,-0.1006399078414503,0.0527187115516198,-0.4314526183352529,0.9997782438177014,0.0024025922076424226,0.00800640438320388,-0.019328430570768905,1.0329999999999018,3.0,-0.0015138913431927,0.0048063318782883,0.9795889991761224,-0.1212643344948731,0.0381914552592504,-0.4148734074012591,0.9998050805980144,-0.007332227499428558,-0.0005544546942703099,-0.018322986391044464,1.0329999999999018,4.0,0.0129021393938853,-0.0119787568165074,0.9798071464243318,-0.0842720352514592,0.052411394064172,-0.3644036938036743,0.9998248096361482,-0.010407933036109264,-0.010299048721156097,-0.01165995546282809,1.0830000000000837,5.0,-0.0870455090704387,0.023645843303817,0.9754306502489652,0.3935847951510864,0.6298974224009908,-0.5043103735004985,0.996378228246578,0.022964915912286547,0.07539220250940923,-0.03192263639068678,1.0830000000000837,6.0,0.0147441100606025,-0.0857183274831846,0.9755208760206038,-0.530190680446947,-0.464574222705103,-0.1561790364473133,0.9965127443395366,-0.07016061633682487,-0.02338415390957328,0.03863961218821575,1.0839999999998329,7.0,0.0081407110777575,-0.0420919056572168,0.979405432035831,-0.1634722642232783,-0.0076260615376381,-0.365581430292776,0.9992037896825497,-0.037436353649041264,-0.008333089912776629,-0.010993894760305965,1.0839999999998329,8.0,0.0134960270994781,-0.0698519265931406,0.9770483947091652,-0.3048639770833744,-0.1268296328263165,0.1223345644635476,0.9973928162184057,-0.05570178854099408,-0.015135991476762733,0.04331030675563649
16,1.1099999999996726,0.0,-0.0076728407102603,0.013968748379189,0.9799040777464668,-0.135663477920812,-0.0425891866170759,-0.326381166191679,0.9985876849870123,-0.010620603230147574,-0.00047969705154299937,-0.05205389582006267,1.1099999999996726,1.0,-0.0069600394186396,0.0075738072023637,0.9802510878829732,-0.1250970192014022,-0.0300173392760606,-0.3293940592895659,0.9992023198396262,-0.005756618450652274,0.007546318239249394,-0.038789669399919936,1.1099999999996726,2.0,-0.0067943100822639,0.0061476823623834,0.9799806341719602,-0.1928318262830526,-0.0173818398587593,-0.3809064747765524,0.9992177263018642,-0.007321260953900149,0.006723247106069462,-0.03827704965809438,1.1109999999998763,3.0,-0.0071637351827826,-0.0027400183677537,0.979952128013188,-0.0711660950741792,0.0932507455395862,-0.5992638632696364,0.998773018351996,-0.010181280447270931,0.004285731992121742,-0.04827454652080413,1.1109999999998763,4.0,0.0013816532087691,-0.0172853706591234,0.9794632749601118,-0.279122033647062,0.1093589140759136,-0.688681197421501,0.9986376020513289,-0.023762034701610237,-0.004518283731280308,-0.046237328946804136,1.1300000000001091,5.0,-0.1539567895860438,0.0716588344302709,0.96472395968404,0.7253514733752513,0.6861390325907217,-1.7695644166721598,0.9847217895855168,0.054606920044593193,0.1126694461146905,-0.12102345768878672,1.1300000000001091,6.0,0.0341873737336835,-0.1397269408047899,0.9694357149860572,-0.9230889300296586,0.3886002390895487,-2.5491365958452588,0.9892287144202347,-0.11300480490708763,-0.019800528829267895,-0.09090876576261363,1.1300000000001091,7.0,0.0061537544329727,-0.0539515678233587,0.9782220400480558,-0.2212144232908149,0.0233936199257419,-0.1218550117773141,0.9987033079853544,-0.047431317922678747,-0.006782734077236833,-0.01720369779047,1.130999999999858,8.0,0.0247408008618303,-0.0953797022510428,0.9737487382129014,-0.3312115274908906,-0.149489405600587,0.1071422748053487,0.9960057302063562,-0.0711950997117226,-0.02287617588017537,0.048790611291932066
17,1.1619999999998072,0.0,-0.0053555514233264,0.0055058664417598,0.979805084444696,-0.1442658522356115,-0.0947472904653433,-0.1979121277660313,0.9979331090314185,-0.01670427065373112,-0.00469105338595409,-0.06187464148537535,1.163000000000011,1.0,-0.0026619290912992,-0.0043226165312871,0.9802878297315724,-0.2350391407690591,-0.127498011354535,-0.2769204904867056,0.998468749974738,-0.017480904132620757,0.0007835689553599615,-0.05247817960145407,1.163000000000011,2.0,-0.0018121253624087,-0.0146869113040009,0.9796683167470606,-0.2954798383562992,-0.1125495324439948,-0.1175164437204397,0.9987813214856293,-0.02234437179029109,0.0009847298444877772,-0.04399580898052327,1.163000000000011,3.0,-0.0100547255065256,0.0037796311730083,0.979582879027183,0.115886328279309,-0.0338769172783641,0.2093805905173148,0.9992769499927906,-0.003191228510150629,0.002421214875483694,-0.03780913900406598,1.163000000000011,4.0,0.0034494936812841,-0.0599495207991956,0.9782408476184632,-0.8848264011957395,-0.0600930232343246,-0.6728589992488282,0.9944391534705014,-0.06839256162107561,-0.00734112616895742,-0.07974544141423748,1.2059999999996762,5.0,-0.2063007981690348,0.0802029782062296,0.9539488785892408,0.9149171782835108,1.0214924680356692,-2.999116867887522,0.9460706218257077,0.08652113340435866,0.16584330125142233,-0.26450041856823997,1.2059999999996762,6.0,0.0274456331355708,-0.2192656362287039,0.9544308869640636,-1.72557629238713,0.7370290043511839,-2.296007024207702,0.9599186226819098,-0.18914802742189624,0.0033927943030513173,-0.20680365204146672,1.2059999999996762,7.0,0.0087669492881291,-0.0806967603488656,0.9765291462467348,-0.6555988333769162,-0.1107608095873434,-0.5436446050209716,0.995772996639043,-0.07932777786835891,-0.013583211636806791,-0.04425764549316338,1.20699999999988,8.0,0.0384034102170872,-0.1163655810085899,0.972038183221334,-0.2908904321692365,-0.3462803036462771,-0.1601270928227715,0.99478704098492,-0.08334726424588532,-0.04143465174813786,0.04165508691269235
18,1.2419999999997344,0.0,0.0042309861409627,-0.0033313895537323,0.9798397831277909,-0.177678554742179,-0.1742574363508698,-0.0150395191409792,0.9976610918948331,-0.024615293934853566,-0.012588180202133955,-0.06251376442759275,1.2429999999999382,1.0,0.013983976145616,-0.017810147860362,0.980306200655872,-0.2831588446182638,-0.3345919787743772,-0.1573079504295726,0.9975648516799217,-0.03168077604839126,-0.016154252829245767,-0.05999779360373531,1.2429999999999382,2.0,0.010709756532653,-0.0327036796313053,0.978894667701068,-0.3868815187553296,-0.3142078022168599,-0.5693300284301755,0.996409810953981,-0.041780840279392724,-0.015579049239236104,-0.0719662646314309,1.2429999999999382,3.0,0.0011696052851078,-0.0048587062733224,0.980210194293462,-0.2944424397888199,-0.2576041684344616,0.4284410929206658,0.9996524050516477,-0.01827259455094583,-0.00980019336782227,-0.016283045562389877,1.2429999999999382,4.0,0.01619104501825,-0.1022608523699848,0.9745796879341276,-0.5587907153060476,-0.3244057818708644,0.5298029478935248,0.9938339374008742,-0.09602822627789218,-0.01835854060557313,-0.05230342832960686,1.26299999999992,5.0,-0.3330766058120834,0.1136700762398501,0.9146825068997048,0.687496507552647,1.2617127978842602,-0.0538436717068219,0.9302858222189195,0.13612836978421758,0.21399102083566116,-0.26503810842984793,1.26299999999992,6.0,0.1263411951732512,-0.4397999126449907,0.8666111811185297,-1.437341784057967,-2.027926057050045,0.8954558843590337,0.9470660959734267,-0.28135187414536367,-0.06723245958891287,-0.13923623504737823,1.26299999999992,7.0,0.069141198939245,-0.1380396254601855,0.9673233980484788,-0.9553535300231344,-0.7476739878302875,-1.8127067060919004,0.9814716232476801,-0.12545093942870772,-0.06130217196903097,-0.13121569367990216,1.2640000000001237,8.0,0.0785302987559015,-0.123929763276137,0.9691028871856846,-0.2557066531774561,-0.3920764449464557,-2.1426513329200025,0.9915287962675559,-0.08814269886946177,-0.07072575181282417,-0.06402639173598809
19,1.288000000000011,0.0,0.0132914359908082,-0.0170392917303739,0.9798806051079026,-0.2166281988784524,-0.133180037211877,0.1825498561091114,0.9978269234358998,-0.034400636914787563,-0.017604172202662728,-0.053367782110209226,1.28899999999976,1.0,0.0372300790839711,-0.0504397150444065,0.977871032579266,-0.4603384051850126,-0.3256951309629942,-0.5292063824379987,0.9942548685901988,-0.05460935642887566,-0.03252559223058365,-0.08612293727666406,1.28899999999976,2.0,0.0432158309893294,-0.0604597556090177,0.9764543050770984,-0.3514416584592969,-0.4492700826529319,-0.6338710853858881,0.992177063366865,-0.05936663210598228,-0.0388913510823309,-0.1027021943878895,1.28899999999976,3.0,0.0181626804175429,-0.0254391854897255,0.9793860142363018,-0.3724150808169059,-0.3061612348088668,1.0347393732420185,0.9984204574909503,-0.03707649427822726,-0.022773309121388283,0.03554293217026297,1.28899999999976,4.0,0.047450427595536,-0.1435340920196395,0.968466530835784,-0.5706173512323156,-0.6972780014943213,1.219922057452686,0.9911361425068814,-0.12484794028134849,-0.0439613827785046,0.011381372864698359,1.3399999999996908,5.0,-0.4432222257088393,0.2812310353516879,0.8275488888233251,2.5462436636525285,2.16092432875541,1.2438966181466455,0.8972540110136761,0.297147562978104,0.25395910640619296,-0.20528842590222057,1.3399999999996908,6.0,0.087837629619158,-0.389893478444779,0.8948746427791541,0.4067888563003143,0.9206026233925816,0.492570021366283,0.9600827405240473,-0.24924894687696855,-0.014683252534093997,-0.12609716857874664,1.3399999999996908,7.0,0.1125195570776484,-0.1758629170028252,0.956659596564163,-0.5544943211322335,-0.4019734440212099,-0.9983223114906996,0.9690327268062541,-0.1488970706593315,-0.08290606080167626,-0.17869477275470205,1.3409999999998945,8.0,0.12462404860465,-0.1235182340308027,0.9644988814774736,-0.0781973340047243,-0.6621038416413914,-1.2763142526987572,0.9825805136149665,-0.0873120797015353,-0.10729991849166715,-0.1240921532330846
20,1.3539999999998145,0.0,0.0236085374361634,-0.0333476860288405,0.9791100902332928,-0.3013725162212054,-0.2165417963808805,0.3023491064768681,0.9977454584781402,-0.048595236707591735,-0.026216165617503166,-0.03814728975818031,1.3539999999998145,1.0,0.0598449463575649,-0.0634588821190813,0.9756195737456568,-0.0569315158762247,-0.2250561942781394,0.2938077023001543,0.9949586960081697,-0.05691414783500923,-0.04214848054590127,-0.07100337035387251,1.3539999999998145,2.0,0.0637653393953371,-0.0712276361194611,0.975576550222806,-0.0239316209838132,-0.1454915207920425,-0.0661243314013505,0.9916156398183208,-0.05919057102204379,-0.04515352071306277,-0.10562224546468224,1.3539999999998145,3.0,0.0451397344719142,-0.05796051394841,0.976628887139143,-0.5744926366599944,-0.7220698036335329,1.7291132265033744,0.9889583530895474,-0.0651755093843226,-0.05388782881827102,0.121694826250573,1.3550000000000182,4.0,0.0796528424362227,-0.1737448646987435,0.960700341772941,-0.2312465188094908,-1.0988399144243948,2.5468296576590417,0.9771363744268047,-0.1363600165110721,-0.07979424196504023,0.14227905895937126,1.418999999999869,5.0,-0.4791921729283884,0.3231501181412293,0.7912590363145806,0.491195903994057,-0.3497574206562234,-1.0580139233453347,0.8852115276919009,0.2946544218260062,0.24447589384235285,-0.2642174488366271,1.418999999999869,6.0,-0.0907944552683647,-0.2471373214914203,0.9439690202642076,3.627379535622128,3.480575398085201,0.6535459559884971,0.9821080214052765,-0.029573888211413584,0.14250627871479962,-0.11950389095896113,1.418999999999869,7.0,0.1378478446542247,-0.1942732704545879,0.9499115054104058,-0.1589635111917426,-0.0665900959380971,-0.3413455794405325,0.9652278826076328,-0.15197959066773775,-0.08419669660114913,-0.19531578261550384,1.418999999999869,8.0,0.1957464611500891,-0.1175502507657937,0.952499481098082,-0.2550792835064329,-0.7477304415059267,-1.6418708068866708,0.9638424699510186,-0.09367042627388225,-0.14756385558620655,-0.2011428668507094
21,1.4229999999997744,0.0,0.0442385091956051,-0.0581626335368221,0.9772067654105816,-0.3946955275931487,-0.4210265816053473,0.3079062564464235,0.9964499012608331,-0.06764142293006335,-0.044909997365021846,-0.02225588277166201,1.4229999999997744,1.0,0.0640108267584543,-0.0569076086464454,0.9764717805117782,0.3374815189688126,-0.0708960266036782,0.7632730101097713,0.9977365610357933,-0.03932072398883691,-0.04417593425138067,-0.03200191041922302,1.4229999999997744,2.0,0.0569710293130732,-0.0650799537570777,0.9757847618394058,0.2410506455267796,0.2899451351060421,0.4030532564432852,0.9949011411633015,-0.04424473565421713,-0.02911444837261351,-0.08582815141203473,1.4229999999997744,3.0,0.0875252257309383,-0.1144172078144822,0.9695499148660096,-0.6351823746327728,-0.7257946508814175,1.97969125710212,0.9678188821840354,-0.09525373723844827,-0.08291202194361555,0.21766702425350087,1.4229999999997744,4.0,0.1200394570345123,-0.2086881581071825,0.9495250293808432,-0.3724882072342336,-1.2247994325081386,2.448755287760477,0.9451189508731157,-0.15015534324837895,-0.12093169968611713,0.2637784403727675,1.5039999999999054,5.0,-0.47539602773897,0.3298206601959833,0.7915642418135713,0.7195842599404333,-0.2017780119234086,-0.6286662749024016,0.8707965751968104,0.31025672834735163,0.23086361746776476,-0.3035721944948207,1.5039999999999054,6.0,-0.2238330928814054,-0.0227186619366744,0.9532956566202068,3.0331724118143546,1.0572087053729375,-2.7074703734604264,0.9406688290169687,0.10411964927812237,0.18259926769107876,-0.2663808555221784,1.462,7.0,0.1336366097007114,-0.1951583598734828,0.9514869789540958,-0.0878220970069128,-0.1086648124746526,0.0472942940281011,0.965512499047101,-0.15348779398256227,-0.08458396536864715,-0.19254262926610233,1.462,8.0,0.2216407351613866,-0.1181541799332944,0.9469207856422894,-0.1947917994234417,-0.7758167301060271,-1.0085049689057586,0.9463755841659203,-0.10200079409881714,-0.18251931989694486,-0.24628396123617197
22,1.5169999999998254,0.0,0.0704839738733975,-0.0815336368652074,0.9732102935576392,-0.3123877873414009,-0.533463299111809,0.1469763659180893,0.9941468700540304,-0.08155959642744226,-0.06948435566252453,-0.013854865951412951,1.5169999999998254,1.0,0.0593635569858967,-0.0226035539963797,0.978378274211317,0.7223375483161361,0.0629198944501831,0.8558542190919102,0.9990986393976036,-0.0022741531054764263,-0.04058073828229316,0.012245026009533956,1.5169999999998254,2.0,0.0167586795219743,-0.0478168696951521,0.978939576088962,0.2519448075481557,0.7779496860282472,-0.2350173895924579,0.9947332030041761,-0.02607518007652051,0.010484928387301293,-0.09856980319419682,1.5169999999998254,3.0,0.1188410251706129,-0.1508559158923482,0.9611510304716312,-0.3975003247902487,-0.6982505713331473,1.4067691164210012,0.9456972666906691,-0.10882289361317432,-0.11172449917032605,0.28518747147200096,1.5169999999998254,4.0,0.1524998663059534,-0.2639641526931283,0.930240676851784,-0.614090189901411,-0.8612612626519283,1.7505123486160394,0.9098355624091765,-0.17301472501912685,-0.15178380638578803,0.345292383960572,1.5489999999999782,5.0,-0.4887649825748415,0.4083748575956666,0.7448790287639556,0.0040943059790476,0.5989697039290953,1.469487259322074,0.8860280983412654,0.33418083807156806,0.2272398809035246,-0.22724307017486267,1.5489999999999782,6.0,-0.3447677229256135,0.015023989647763,0.9158616145268624,0.2013948797200032,1.0243793873254283,1.4539642966138109,0.9473337030234781,0.13552906730458833,0.21681374299464787,-0.19282771553908937,1.5050000000001091,7.0,0.151602019292386,-0.2030180472245487,0.946853473483412,-0.1794085687499973,-0.4318363392384942,0.1674125091936316,0.964544582337829,-0.16341112913458605,-0.09947605776349343,-0.18181052084391786,1.5050000000001091,8.0,0.2541732081024418,-0.1159539834577002,0.9383302478355924,-0.0386761795721325,-0.8002029812220309,-0.2983463435571485,0.9362216014285629,-0.10974908541678041,-0.21415884724120776,-0.2560863905345893
23,1.5609999999996944,0.0,0.0800034814845501,-0.089544318257495,0.971724373481571,-0.0983216034488807,-0.5779240545330802,-0.0098988125391221,0.9918926530880874,-0.08327699510353365,-0.0951937062248386,-0.012331469157425806,1.5609999999996944,1.0,0.0537321439260375,0.0254594377610476,0.9778924653242824,0.7372666911423794,0.1089189587071863,0.455475728714219,0.9981383688062166,0.03509047733736142,-0.03411877784707368,0.036391813850413554,1.5609999999996944,2.0,-0.024069386443504,-0.0194277494657913,0.979295781256576,0.6730347364655405,0.4174148740221758,0.411904309253862,0.9964436315934776,0.011498253273488369,0.02799091469973222,-0.07864087946312046,1.5609999999996944,3.0,0.1395767467118138,-0.1908298856686019,0.9515015956439878,-0.5083613272471719,-0.3467697402044623,0.9623785024904592,0.9269272037927491,-0.12924338402353538,-0.12724034448865792,0.3284996214449991,1.5609999999996944,4.0,0.1655441984285424,-0.3070214683308018,0.916315413136028,-0.2823678718178393,-0.4885559033670391,1.3048060678670037,0.881166824849948,-0.1814780338285701,-0.16457338373702995,0.40438391583607997,1.609,5.0,-0.4831272544757062,0.4941426452809336,0.7005834012432264,-1.5809739028151544,0.5194444856567293,3.5676931711790125,0.9307077237093979,0.2991927035315169,0.2079745289603758,-0.03183479990329537,1.609,6.0,-0.4446061430088763,0.0092702173762468,0.8783225151779769,-2.0422513387255323,1.6076672887924146,5.481612219776402,0.9498827546942158,0.0955930119263224,0.2761797863106165,0.1109479789757534,1.5489999999999782,7.0,0.2061305423346172,-0.2228642081293235,0.9316623552831392,-0.4109551974589556,-0.9418307603304394,-0.3733300095536999,0.9526105936844256,-0.18648040802096258,-0.14238031917331484,-0.19361291004642875,1.5489999999999782,8.0,0.3059532121836433,-0.1058338300529237,0.9237558294110186,0.0097821264605713,-0.8322126231738065,-0.7100276987959258,0.9193525886066594,-0.11071620036360785,-0.2489783736874293,-0.28380012374071073
24,1.663000000000011,0.0,0.1116534742446609,-0.0847530447168687,0.9696455141443792,0.2281615591179281,-0.2689596773689672,-0.229486122927841,0.9919088977454015,-0.0671186244372982,-0.10557937887741699,-0.02155976769370119,1.663000000000011,1.0,0.0428533887887945,0.0642284963286538,0.9771096598277376,0.5422678327052034,0.1281617346373858,0.1216660170334462,0.9968239881022564,0.06150975714378197,-0.025761147319733415,0.043529872602577166,1.663000000000011,2.0,-0.0470013998985894,0.0265083624033288,0.9782975902711132,0.6946547315200728,0.1895406716194254,0.3869162553765167,0.9964998655534101,0.04777353154924879,0.03324416651433269,-0.060004441736556106,1.66399999999976,3.0,0.1472960510899462,-0.2267429775577485,0.9421387877916686,-0.4711503620461623,-0.3735240451603348,0.7185890323911956,0.9100461223595386,-0.14473397504107222,-0.14502930526854252,0.36032573077772545,1.66399999999976,4.0,0.1640846978465528,-0.3284078572644252,0.9084737152056708,-0.2686897461144466,-0.1375445027678757,0.3433789036967096,0.8721621685267622,-0.18725112284130832,-0.17114278270702754,0.4183064865773182,1.66800000000012,5.0,-0.4356105253439094,0.4920990097017541,0.7276201171354156,-0.8028287984017746,0.1009271748940644,3.0184730754109648,0.9353898533434559,0.28727306674085135,0.1698817754365942,0.11687681447543412,1.66800000000012,6.0,-0.3691598662250892,0.077320496479914,0.903896307102078,-0.3426514945423352,-0.167881592809994,1.504655543889819,0.9458067287955327,0.09337112869942474,0.25066725018732877,0.1841124487209166,1.609,7.0,0.2724031434393935,-0.2453589008161336,0.9114650499249194,-0.6138578602348704,-1.17094298057162,-1.5676214660943082,0.9204005074276307,-0.21082853334924045,-0.20345923011330452,-0.25887946448969157,1.609,8.0,0.3730302348483527,-0.0866676534322469,0.9028433760833222,-0.2343688371548855,-1.0308056032725197,-2.5635080565971604,0.8657768692297225,-0.10187650676329775,-0.29476566985293623,-0.391362734496576
25,1.7080000000000837,0.0,0.1266372063978026,-0.0531116952236163,0.9690862530168476,0.6357576276687602,-0.1384351192789507,-0.2546665189948979,0.9930706082512312,-0.030481447648481264,-0.10932830880620305,-0.030478997200665322,1.7080000000000837,1.0,0.045338743536843,0.0973919425008482,0.9728659763145238,0.4430844704175114,-0.2373777544040926,0.3820263414846794,0.9939282450236998,0.08245640773036286,-0.03768240947741442,0.062350786557100704,1.7080000000000837,2.0,-0.0406865899050071,0.0670751013505989,0.975960312810264,0.621587929412369,-0.3024966817391923,0.7045754763362703,0.9965516418386504,0.07772222004475175,0.012076334311048976,-0.026424303389360238,1.7080000000000837,3.0,0.1658208189234258,-0.2395799413373595,0.936052299671526,0.123897805647139,-0.2538974552316896,-0.2115487925083772,0.9141075474772585,-0.1269047947547245,-0.15368926127596783,0.3531036330623351,1.7080000000000837,4.0,0.1686672910214696,-0.3415720954830283,0.9028432026253572,-0.109761223037417,-0.0824944272066062,-0.1835913181054569,0.8759344864093486,-0.18242678230386983,-0.1771479964657823,0.4099729649198911,1.7409999999999854,5.0,-0.3794178179335415,0.4809535805836731,0.7637609395342851,0.2134870010650374,0.0372196734244545,0.6193624752420601,0.9287735099033188,0.29749239609301664,0.16959442433009853,0.14183008427286564,1.7419999999997344,6.0,-0.2463277510678652,0.1493221037346133,0.9370179018514624,0.5310558796578415,-2.3463031904889267,3.0595364595073744,0.9325485419678629,0.17157205172620874,0.10511016677816688,0.29978008736395134,1.66800000000012,7.0,0.2648325624056971,-0.2360602968041383,0.9129557766739717,-0.3214309530521804,-0.4543963344335593,-1.1542307261559408,0.8997239415685434,-0.21374855825491015,-0.22199564289786852,-0.309073320341102,1.66800000000012,8.0,0.3876903386535154,-0.0889426286152717,0.8958501047216147,-0.3275420215193398,-1.5013504757888547,-1.7301302664304044,0.8098920480291694,-0.12048094281503248,-0.34696056219388977,-0.4573593567859072
26,1.819999999999709,0.0,0.1280014023429042,-0.0072669364599714,0.9709293654188942,0.7841356228908546,0.128589271034089,0.4018177982522003,0.9949476929546063,0.009029129837979556,-0.09977749704023765,-0.006481834852970673,1.820999999999913,1.0,0.0660170498557555,0.0994836838778884,0.973045603129898,-0.187113588627672,-0.2745509618981339,0.3141073411118019,0.9932031731345823,0.07045402799799276,-0.05227507040383393,0.07649185465478904,1.820999999999913,2.0,0.0041745816649489,0.0942260248123851,0.975410185058562,0.0950318265627414,-0.772903005430252,0.2916223012030299,0.9963682793828302,0.07858128971457204,-0.029253521237496843,-0.014814325556703457,1.820999999999913,3.0,0.1786834179753448,-0.1975997744344168,0.9428507651182748,0.8545960940041577,0.0347979629580455,-0.5042393266776796,0.9292614137227637,-0.07732607806772318,-0.13563242692035488,0.33481001685184053,1.820999999999913,4.0,0.1836888892687772,-0.3149181040812707,0.9101175636592568,0.9114972796426872,0.0495844600153779,-0.5320558075097501,0.8968567056550077,-0.13030458454543112,-0.15732242420661974,0.3923243805957537,1.7729999999996835,5.0,-0.3027790679300145,0.4149426036264092,0.8338683779345324,-1.1961401683501762,-1.647080438645144,-0.49131965171828,0.962493966960639,0.23596196464318184,0.08853433933459519,0.1004439423991752,1.7729999999996835,6.0,-0.1500052308681597,0.1267131234729111,0.960337552661526,-0.336093425662685,-1.4329150841874645,0.2694150996875921,0.9393932519802238,0.16520397466620776,0.029180890666804866,0.29899237533488804,1.7419999999997344,7.0,0.258305909488985,-0.2082871728879524,0.9219032003054402,0.6002036367931565,0.7012129302597213,0.2163619814415404,0.9206539437186222,-0.17073948083693896,-0.18418222786216346,-0.2988666132886215,1.7419999999997344,8.0,0.5206417067999285,-0.093288787952441,0.8249202477711538,-0.8386301182482044,-2.616483998054509,-0.1365362656054516,0.759749172832882,-0.21415650230287414,-0.4158874102401542,-0.4516147128968327
27,1.875,0.0,0.1319470602012323,0.0292629098986488,0.9708834406912686,0.3667102710001837,-0.3265036039966358,0.0486504887908122,0.9932200032267399,0.027432423351467006,-0.11293995641811523,-0.002460403140726077,1.875,1.0,0.0792142593412989,0.0837419404357742,0.9732221681245556,0.0448969681990796,-0.2450121859013292,-0.1427154029472193,0.9931230101290882,0.07152557035172386,-0.062237577873954134,0.06868233716453395,1.875,2.0,0.0547919991737955,0.0978701670112863,0.9730443295326896,0.3790960373393442,-0.4615389027994732,1.355215768122812,0.9927042876198249,0.09198562480694164,-0.058544727157875336,0.05147190585263623,1.875999999999749,3.0,0.1756386547922421,-0.1431162648609955,0.9537262697834266,0.9425746686683754,0.3094765299921431,-0.5064687702719053,0.9430491840021393,-0.03064148776409316,-0.10326380617416739,0.31473150797930327,1.875999999999749,4.0,0.1751940750614539,-0.205403326944013,0.941268032679158,1.9953547717467608,0.1659538027081713,0.0633447134748409,0.9079541546414847,-0.0360663924028078,-0.10676165897355654,0.4036340131623295,1.837,5.0,0.1293987721689833,-0.108890887981157,1.3274489565613563,-1.7766544754260685,-9.379343030702572,-3.4353769385739343,0.9127448471361279,0.12834194006777722,-0.3487591973829193,-0.1696826823423875,1.837,6.0,0.545133763166564,0.2233884917780113,1.1960697145221115,3.0221346953786457,-0.1414727303069874,-53.193727423698846,0.3556279466870998,0.0710963361087873,0.19501395281553394,-0.9112868004828582,1.7739999999998872,7.0,0.0831349790503733,-0.1150433867250986,0.9694083734057144,1.7047440242847494,2.9867290612720447,-0.9861356876145638,0.939043808132839,-0.025612102559114495,-0.052092492713149065,-0.33886150388146435,1.7739999999998872,8.0,0.6709823899824319,-0.0358808598916639,0.7140148431418625,-2.75590280210458,-4.118100665696235,-3.828828575891823,0.5618326469868705,-0.3023529485467559,-0.5178461079846465,-0.5698790922028663
28,1.91800000000012,0.0,0.1386147285484704,0.0404481464405439,0.9687780470670042,0.1359469820464477,0.002773039133077,-0.0237679085110912,0.9935127781862678,0.03362936851253189,-0.10859545566003687,-0.00290726057328505,1.91800000000012,1.0,0.0965481223926918,0.1057978321749197,0.9700480806483428,0.2015880763421124,-0.1146818749385944,-0.0440220361329986,0.9923579872890326,0.0806414542820056,-0.0653873275253707,0.06668641776278955,1.91800000000012,2.0,0.0642481943987318,0.1145530962861348,0.9715409191834188,0.1259671093361695,-0.0226898580367054,0.0058118712942596,0.9925022556960985,0.09510636770643824,-0.05650872118025086,0.05196937261904181,1.91800000000012,3.0,0.1669315870722101,-0.039584070332849,0.9650077443282188,1.0548977276232063,0.3677164833647192,-2.878323303648765,0.9823019637731956,0.03443176776402843,-0.06117272366476368,0.17365253587380158,1.91800000000012,4.0,0.15842824486941,-0.0582592694417642,0.9654451557451154,2.132926247519105,0.5829932506752868,-1.905297339217587,0.9463983461366164,0.06787427520192202,-0.02705787986431359,0.3146285497740782,1.902000000000044,5.0,-0.2207113049326967,0.4018515494130348,0.8659231213619656,-0.7895786132888827,0.7174659542443931,4.636286307350696,0.9610018257771012,0.025192712449745677,-0.27358797181941064,0.03147125304534083,1.902000000000044,6.0,-0.0373750323809886,0.0989772274445941,0.9744499039980974,-0.2549161206251505,-1.3705885498782102,1.4610994734767293,0.44089191392423943,0.015853615873248364,0.15287367728404214,-0.8843034670822111,1.838,7.0,-1.8242561662376164,0.7052699351816264,1.4343976988523577,8.529019722936798,21.40773877706193,-3.2663871149269235,0.6036600797671581,0.49420885258241704,0.6242750239773023,-0.040408075465405716,1.838,8.0,0.6572879947369087,0.2513462455087379,0.356929344329371,-11.637397422341513,-12.007022834532032,-10.5468137461283,-0.40176785170299456,-0.4197589880116619,-0.3192189310128728,-0.7486549668601585
29,1.983999999999924,0.0,0.1382153672468338,0.0462406796727184,0.969313835555971,-0.0030526473963828,-0.0308779622059072,0.0312122344775516,0.9937972370627308,0.03228716041546373,-0.10640727555829456,-0.0014431171295943696,1.9849999999996728,1.0,0.0897133788058438,0.0892071765203988,0.9702389341396774,-0.5716965502990153,0.023506395890083,-0.793125734473092,0.9964477863880687,0.05136047079804309,-0.06172746174185571,0.025369893744929903,1.9849999999996728,2.0,0.0692790915011483,0.0998965625798979,0.9729106250141872,-0.5319614216674234,-0.1484950025892098,-1.4065323506978695,0.9957652214110834,0.06845359475994423,-0.05791030138029109,-0.02030089127652696,1.9849999999996728,3.0,0.1101836625858931,0.0360223243290418,0.9730914410522228,0.8075541475100114,1.1281852682012197,-2.754376351795458,0.9965695412813104,0.07225976740373416,0.013545527544603454,0.03800255371228193,1.9849999999996728,4.0,0.1168182804983714,0.0533406846257858,0.9716950451170658,1.222199436948812,0.9589711858454574,-4.0109608070522125,0.9851427717373017,0.11475224147844013,0.06044575942961181,0.11256976741735683,1.9989999999997965,5.0,-0.1626030579016211,0.4377985418740288,0.8614236369487525,-0.3373525736633143,0.5227507375112983,2.3716540314452934,0.9669364505112308,-0.004989872504130395,-0.21681263007720272,0.13416886853566556,1.9989999999997965,6.0,0.0462971049723805,0.0837149393159747,0.9746396190420844,-0.7295564174312266,-1.1417048381927666,2.8442754313850425,0.5806950460975319,-0.03356622574809811,0.13684761075648347,-0.8018349601738844,1.902000000000044,7.0,-0.1749503538376563,-0.0217021374487048,0.9641765351439726,1.0683685539646632,4.310585068817168,0.6849634648113806,0.48347956941766607,0.5326864238533846,0.6929942140036863,0.04745207219303975,1.902000000000044,8.0,0.8055847386105395,-0.1344197480315811,0.5397699141828072,0.0954433084514132,-0.3671062073800652,0.6096804230092041,-0.3692331720975345,-0.4533196724169648,-0.2639228960494467,-0.767145908001497
30,2.04300000000012,0.0,0.135974698944644,0.0349859512708701,0.9698710555844964,-0.2600452424127629,0.0917069337002701,0.0398494266687664,0.995012166467991,0.017695200605966903,-0.0981693888289319,-0.0006629880419070191,2.04300000000012,1.0,0.0995188557536928,0.0628319218590127,0.9725189699666424,-0.3835913042086413,-0.4893709068834295,-0.3885319874014835,0.9958743171221041,0.03225277177210475,-0.08474238806254077,0.0035820210855481214,2.04300000000012,2.0,0.087011941747176,0.0772173411078554,0.9724646030707846,-0.3673605025095984,-0.546145124398987,-0.4003411329695188,0.9945213417156407,0.04776102977880002,-0.08243007931108813,-0.04302867568677806,2.043999999999869,3.0,0.0259278552373755,0.0619218263345449,0.9769869158520926,0.0008424051222557,1.3238991990932356,-3.283596377642518,0.9870203036012574,0.0625750284790379,0.08642951550278127,-0.12002176860754792,2.043999999999869,4.0,-0.0017114883491248,0.1332294479101398,0.9704787401160264,0.2702323661654214,1.707761188029898,-4.941667870640656,0.9742114423517123,0.09579017012887805,0.1617453344401049,-0.12479886091040779,2.0459999999998217,5.0,-0.0815560474606273,0.4050088332951581,0.8878285060052388,-1.9356403763029968,-1.8495007297611383,-0.1763775797508882,0.9488233700112657,-0.06308376846404554,-0.29297113077873843,0.09961208363982066,2.0479999999997744,6.0,0.116355698283381,0.0033661307950267,0.9732748946934044,-1.1480886905068295,-0.8417946660242807,-1.4924984529203935,0.5265864583865567,-0.1100684792961198,0.1365500485648929,-0.8318327451755361,2.0,7.0,-0.3519696841850152,0.0641107422254476,0.9117999529205968,1.3840651468498382,1.379484070701736,1.0946491218074537,0.4390171456438396,0.5817530369900744,0.6822413520723298,0.05808689444341084,2.0,8.0,0.7853163227552772,-0.1051918865999844,0.576429475484786,-0.3932399330952896,1.4274463280145084,0.8282337126314988,-0.3147638459476448,-0.40702368928128974,-0.22185412129861257,-0.82827301447706
31,2.099999999999909,0.0,0.1316882474752788,0.0190257457191226,0.9712487974132687,-0.293825249126797,0.0751471722396005,-0.0157548470129538,0.9958148127497258,0.002343611044798007,-0.09132105843062474,-0.0027982999498488413,2.099999999999909,1.0,0.1195356912443243,0.0428276047974162,0.972127056914917,-0.4251784399803342,-0.2974197268888849,-0.883424391930727,0.9943214730561044,0.013850471939765588,-0.09651037480405175,-0.0426464559109679,2.099999999999909,2.0,0.1193362570078776,0.0557427078361918,0.9707386920724024,-0.3611396938959105,-0.5386557539300941,-0.1519145417686691,0.9925589987819652,0.027100998599922807,-0.10611625962140869,-0.05321192775864907,2.1010000000001128,3.0,-0.060681174597387,0.0431380203088292,0.9767757707136866,-0.2046299549382202,1.021866548080639,-1.6982164816516725,0.9696998428993869,0.047570422117079805,0.135185298013005,-0.19784894445420287,2.1010000000001128,4.0,-0.1161826200990514,0.1606390031585588,0.9597513789785062,0.9245599958723908,1.1528766974045148,-2.12448259261772,0.942102416659606,0.1280741846555701,0.2119695148084635,-0.22607291863645537,2.119999999999891,5.0,0.0445770828150167,0.257793078493704,0.9441486177336924,-1.4114078702688733,-1.2700459783984737,1.7526986408637062,0.9234057467312242,-0.1296733445419666,-0.32299218572694616,0.1618106874664975,2.1210000000000946,6.0,0.1344359488497377,0.0322812240567591,0.9706250039177168,0.0609533530917179,-0.3517213558655223,0.6300018839548124,0.5564221366050907,-0.11251110988822008,0.10964602585842,-0.8159126209717567,2.0479999999997744,7.0,-0.3875948930545045,0.1231870836795419,0.8916547208940223,0.0019010653964404,1.104312240967099,0.0105293071831763,0.4440355650672173,0.561440978453517,0.6929232772482872,0.08645100644924553,2.0479999999997744,8.0,0.6499981647915146,-0.1905072746400299,0.7077431483786268,0.006062875003163,4.506396947085418,1.823676308600752,-0.18253341315289356,-0.24580069113911807,-0.21517349138387765,-0.9273424081341041
32,2.188999999999851,0.0,0.1156385177303737,0.004335980688596,0.9725204020937503,-0.3067136831863579,0.2775269337637287,0.0102313616270146,0.9971524375716954,-0.012986337839900452,-0.07419552550083579,-0.0036599549162640802,2.188999999999851,1.0,0.1342343532545757,0.0104751223510355,0.9706216617292532,-0.7270772127049708,-0.2636666284785848,-1.1906292145803374,0.9886300694943089,-0.018089187271268913,-0.10606223550749766,-0.10504365375735662,2.188999999999851,2.0,0.145795096422658,0.0268242986547786,0.9685810481631296,-0.6335153707987067,-0.380090837975447,-1.0441586305906267,0.9868392620345461,-0.0014161636157643668,-0.1199622245883077,-0.10842199988724759,2.188999999999851,3.0,-0.105569962263773,0.0571787624283398,0.9722091195801392,0.1956644129892062,0.3921446825132055,0.6066655519124158,0.9733747092957845,0.06424443092166672,0.14156530913325158,-0.16844462487388887,2.188999999999851,4.0,-0.22052175089867,0.1536628823903377,0.942469031828674,0.005250929397463,1.0589327960049857,-1.7800333579887166,0.9105825275586258,0.11857244200262765,0.2587022368735989,-0.299755215365929,2.1929999999997563,5.0,0.142418903009327,0.1944998677322765,0.9499750825772992,-0.5185468698829764,-0.901025923655534,-0.4167574195783269,0.9197168553123719,-0.11806274359442366,-0.3482892030949943,0.13739259673189344,2.1929999999997563,6.0,0.165229462597667,9.600217351088958e-05,0.9665175712180656,-0.5681449511899845,-0.7452641953688366,0.0794808251963404,0.5608734206677654,-0.15438855369092871,0.09715634097986527,-0.807555463039578,2.1210000000000946,7.0,-0.4021264781580395,0.1150049543179281,0.8856642456634134,0.5236118376459177,-1.021770187802174,-0.1396474648158636,0.5084927478243204,0.5547736946761094,0.657683136913893,0.033379103112465294,2.1210000000000946,8.0,0.3413295050622903,-0.3112529168181921,0.8642619919596717,-1.010016489527228,4.068355584514971,1.6618010345697591,-0.07007483981225932,-0.07134903944791808,-0.14759897838243297,-0.983978339688231
33,2.250999999999749,0.0,0.0985323814253126,-0.0122932356152779,0.9734419582947738,-0.3403294020301704,0.307190080934443,-0.0332242722369702,0.9979569707335708,-0.02913462087475002,-0.056452777966217185,-0.006792811690059407,2.250999999999749,1.0,0.149080362773038,-0.0194718280276287,0.9686784261811152,-0.4964940939568174,-0.1981431420045525,-0.8877732457561708,0.9814582378470756,-0.03874902363630447,-0.1116566695012905,-0.1509007246013938,2.250999999999749,2.0,0.1688702738856401,0.003298644639349,0.9657385513384728,-0.3268599933369603,-0.3976708150552186,-0.6410676092753259,0.9805620015157385,-0.01637382073433873,-0.13475853122047615,-0.14166932427773024,2.2519999999999527,3.0,-0.1100237734566759,0.0406565760434621,0.9726344699314208,-0.4849621706628779,-0.2293679875343199,0.2873756887598945,0.9798195949087051,0.03715898185331919,0.12487015481441838,-0.15159226872498827,2.2519999999999527,4.0,-0.2423856409461608,0.1426333232886992,0.9378517666191926,-0.2156647247441523,-0.3100798904558974,0.7473041664690707,0.930747246504773,0.1125552858103284,0.22720366020526453,-0.26347555398797334,2.253,5.0,0.1716489717502523,0.1780427244234945,0.947735547912465,-0.5314426690135582,-0.8643735783773514,0.1691967666798361,0.9119597695848537,-0.11972087616661133,-0.3672840677000306,0.1381980610658448,2.253,6.0,0.2038294739252655,-0.0350946923364869,0.956840064028026,-0.7377291316848376,-1.0535081456471749,1.0618605063501927,0.6034368669961604,-0.20802458690694794,0.0922012422013479,-0.7642569265165873,2.1929999999997563,7.0,-0.2931611637610327,0.2176670946304619,0.8966093452431837,0.5694994003932703,0.7171113380389771,0.3906511965713319,0.5111523801528066,0.5636264905631513,0.647306523755568,0.04519610274203883,2.1929999999997563,8.0,-0.0766491910516491,-0.0976286547302797,0.8509490568105025,-0.9283407119125596,1.7964278162863874,0.6099205440881406,-0.030945117076885142,0.0248375715475949,-0.0864540122159898,-0.9954653175979932
34,2.324999999999818,0.0,0.0690718227702579,-0.0329232169484873,0.9766791413176372,-0.2328725670588793,0.5247278744412728,-0.0709891665138746,0.9987669148284742,-0.03916457306290723,-0.028154276590186923,-0.011752564422060513,2.324999999999818,1.0,0.1536649846296998,-0.041693651249252,0.966897467130957,-0.5105659565659308,0.098315969239897,-0.9750228604133582,0.9726107892056586,-0.056771446359158276,-0.10195455247868304,-0.2010236922054377,2.324999999999818,2.0,0.1849206696878222,-0.0139759442677959,0.962136694500335,-0.4055707095297338,-0.140129568450556,-0.4311944989977497,0.976330907358659,-0.03466519805746419,-0.13524453029793626,-0.16518232473344466,2.324999999999818,3.0,-0.0775118056149453,0.0010104775545888,0.9767767907385098,-0.6914817765962253,-0.6019187287826598,-0.0358128077288837,0.9844431505964801,-0.004741058207020684,0.09175999671694672,-0.1497641766687198,2.324999999999818,4.0,-0.1583934005238984,0.1272125164275892,0.958792212283056,-1.0554231191679897,-1.5522668402457336,2.051025121795232,0.9757618461498088,0.06022006100684074,0.14017479083288995,-0.15688655731325377,2.313000000000102,5.0,0.2008790404911776,0.1615855811147126,0.9454960132476308,-0.54433846814414,-0.8277212330991689,0.7551509529379993,0.900337503182664,-0.13334970353111777,-0.38016848497212324,0.16456658216348097,2.313000000000102,6.0,0.242429485252864,-0.0702853868464848,0.9471625568379862,-0.9073133121796906,-1.3617520959255127,2.044240187504045,0.6784561261780847,-0.27190221696729666,0.09456033350830738,-0.675888165739343,2.313000000000102,7.0,-0.1841958493640259,0.3203292349429958,0.907554444822954,0.615386963140623,2.455992863880128,0.9209498579585274,0.45361107494391634,0.5883440173064421,0.6576151632197392,0.12502242635390365,2.313000000000102,8.0,-0.4946278871655886,0.1159956073576327,0.8376361216613333,-0.8466649342978911,-0.4754999519421962,-0.4419599463934782,-0.05600030002037656,0.028302006047284087,-0.04209517947597768,-0.9971413935426673
35,2.393000000000029,0.0,0.0388147990500715,-0.0485428389336878,0.9774139369596488,-0.3320568576952673,0.4567588512926386,-0.0641947985665464,0.9984002237125041,-0.05395403055383999,-0.004458380454260214,-0.016311919615486815,2.393000000000029,1.0,0.144604669773967,-0.0516873949097008,0.9683242755848944,-0.1312120153238361,0.3581817788724581,-0.5820157253647616,0.9680682920811856,-0.05494172103540004,-0.08137822866292611,-0.23065726317714216,2.393999999999778,2.0,0.1796978961949478,-0.0279079283753971,0.9629256532240188,-0.1696046481318647,0.2815412079396998,-0.2744100701009476,0.9760485258524272,-0.03822875422240939,-0.11592968635792432,-0.18007816456433476,2.393999999999778,3.0,-0.0349801203802061,-0.0197083298185764,0.9793819341370088,0.1625513621588363,-0.8554019925937447,1.238900897368826,0.995281728979602,0.0024049961803812117,0.04025560154113496,-0.08824954672579276,2.393999999999778,4.0,-0.043548140977127,0.0416979774623318,0.9783326827276022,-1.851721953972529,-1.2924010111659994,2.707079034948704,0.9964178489287172,-0.02786363181777204,0.07930211402395106,-0.009287791423370608,2.3150000000000546,5.0,0.2246482869412623,0.1118536860723841,0.9471578010481552,0.0070430985611185,0.3336280168203389,0.7815817039482618,0.9121612035105866,-0.13166487008640357,-0.33559697501462404,0.1949383778435699,2.3150000000000546,6.0,0.2991487956387904,-0.2341125327884963,0.9039238463826564,-1.7675648659595955,-1.3106593032855345,3.102826213596348,0.7603561342346153,-0.35825940210256896,0.14725153779465974,-0.5213690962782598,2.3150000000000546,7.0,-0.2332983989566654,0.2696157586944329,0.91347753103614,-0.9379815607818982,0.6766000364990792,-0.0404367452472631,0.500514683224702,0.5403992632142856,0.6511667474531386,0.18285391766444054,2.3150000000000546,8.0,-0.3422229225044303,0.0069046558724146,0.9169197331499688,-0.2924473363751491,-1.917926821798389,1.2819307346118625,0.003631868828996409,-0.05584244911437754,-0.021017264117871748,-0.9982117535947554
36,2.4429999999997563,0.0,0.0219717066022323,-0.0627367321469869,0.978332431512164,0.0375867317478814,-0.147787922336346,0.6560286875915926,0.9985419797976411,-0.05013831289681081,-0.010841458638475047,0.01680853760024443,2.4429999999997563,1.0,0.1165951129147784,-0.0503676930925635,0.9707165781714678,0.255302321357548,0.355732601498242,0.665494338322734,0.9774338906261895,-0.03941827587886724,-0.06260575905862456,-0.19786285127527356,2.4429999999997563,2.0,0.1449908797526711,-0.0231892295267192,0.9685963578408212,0.2022977103667338,0.6209989862315212,0.1184584278865662,0.9810256017179857,-0.022072298534277418,-0.08256752394690116,-0.17402352254955625,2.4429999999997563,3.0,-0.0016685303154767,-0.0065733164635868,0.9802815960310872,-0.8422228913930125,-0.0367892376627742,1.2806776402894815,0.998218406071285,-0.03779627632055279,0.04050450636006058,-0.022154914608985353,2.44399999999996,4.0,-0.021589601038421,-0.0842054954127242,0.9758551755610562,-1.984866815604944,0.2769405377306973,-0.6644571685678271,0.987491340115794,-0.12970243313916588,0.08242387395420098,-0.03527657914927701,2.4229999999997744,5.0,0.043962554940132,0.2525478267978122,0.9452020360445896,4.27756015079693,4.966684144539572,-2.3822858000593183,0.9908899294785594,0.10613586517791242,0.015155844633603878,0.08150230766274932,2.4229999999997744,6.0,0.1899149970320116,-0.3177927901961229,0.9074723336838948,-0.9502797992891412,3.499345893437177,3.5035495025881827,0.8024055556524999,-0.2596093835560556,0.3436264113801791,-0.4131212674622639,2.4229999999997744,7.0,-0.1511348490515252,0.2581933764366157,0.9330907982433608,-0.1477706150728715,-0.388744226107076,-0.6390851964222322,0.5632670476699084,0.5002581486362975,0.6339886106342959,0.1747296749788205,2.4229999999997744,8.0,-0.1668525120395902,-0.0290178234787496,0.9642039230093572,-1.1055982019439878,-3.41292976823556,-1.7346476778264193,-0.09128730831584735,-0.2087544769163749,0.03449609657061365,-0.9730869514227437
37,2.5169999999998254,0.0,0.0308873767451262,-0.0526130958229764,0.9781813901857502,0.2188961014426345,-0.1534093027875163,0.7597583538075063,0.9976374283215245,-0.03710942753877743,-0.017425372293495445,0.05512538798224012,2.518000000000029,1.0,0.0875204613532962,-0.0215177237458004,0.9755481312622692,0.6794443517853772,0.5240445261456751,1.7453091855397336,0.9932069042759488,-0.00377528706573849,-0.04051295904050431,-0.10901602018024688,2.518000000000029,2.0,0.0941073686169974,-0.0019143663932276,0.9757551631292029,0.4225981688819915,0.8796737206916321,0.6201588741204271,0.9890773570669039,0.005222612274298212,-0.03918508605688319,-0.14199730662690516,2.518000000000029,3.0,0.0020780865422699,-0.0601264193157825,0.9776305515155436,-0.6288788512529268,-0.1707628064789088,2.251341027914852,0.9931342151600213,-0.06372259747365219,0.03554608994476914,0.09143487704009572,2.518000000000029,4.0,0.0059430945728505,-0.1733959777687456,0.9645410901151484,-1.7745968255570823,-0.8818519015363193,-0.8424629976500686,0.9738668894453167,-0.21643928167970128,0.024909237727721124,-0.06416267500581489,2.5,5.0,-0.305942828100931,0.5194080910274733,0.7721678709379198,-0.104908215249348,1.2631790757113337,-1.2152742017126898,0.9884986052368427,0.11043976279645842,0.10013078862950052,0.02544388741353466,2.5,6.0,0.1651819207682487,-0.5466200652754954,0.7969990196289609,-4.143649263859182,-4.063458985684577,-1.322633320886115,0.7711307914671401,-0.5196994682585226,0.19874546903023144,-0.3094672901665443,2.5,7.0,-0.1985859568160023,0.2231915243556857,0.9325782332926592,-0.3848617421996278,-0.0398787052250683,0.2467755248183162,0.6109480474669776,0.475550577475866,0.5996388233631323,0.20255224776421607,2.500999999999749,8.0,-0.0475665248878721,-0.0712977995437149,0.9759195917135364,-0.1940880857280457,-0.1210309381848832,-0.3103452722494026,-0.10788339500916423,-0.19178912902105202,0.04129377217075291,-0.9746142454584545
38,2.592999999999847,0.0,0.0346466117309767,-0.0382361828942083,0.9785967538333876,0.2158694498414391,-0.1092969544272744,0.6431529640155403,0.9956275169353564,-0.02474483071475537,-0.021594357994723028,0.08744841094514307,2.592999999999847,1.0,0.0481901068322318,0.0113544404357935,0.9784711494397208,0.8079033002022811,0.797116147510143,2.0754122002739326,0.9992696930042667,0.037443267185809676,-0.007105849997465218,-0.00275486504645167,2.594000000000051,2.0,0.0318952155020064,0.0151423247305899,0.9779270960709872,0.7660102077499035,0.9911467051301908,2.3721327439121773,0.9987480776576607,0.04580293904161312,0.0020526725360615564,-0.020003866769638532,2.594000000000051,3.0,0.0426629559297109,-0.1006479650752659,0.9735229115524442,-0.6876761754472709,-1.227749902391934,3.2512006377366447,0.9641581596358718,-0.0833199334983297,-0.01971394121756668,0.2511338137548847,2.594000000000051,4.0,0.0763520636823004,-0.1929369497335111,0.9574187672063792,0.6513292674886683,-2.0463801561445663,5.279491204714588,0.9628242683534607,-0.16533313325364077,-0.03837365906161843,0.2101471998585271,2.531999999999698,5.0,-0.3936316901614652,0.5833524839225196,0.6815269415085912,0.8917776885669895,1.2544406063635911,0.9713528144167424,0.9674287104093868,0.17606299192631936,0.1652715307171249,0.07595284250113343,2.531999999999698,6.0,0.1712108220448697,-0.5302235130707699,0.8064755920681115,2.17683380836362,0.8717423482264154,1.9600318915167647,0.8582399334221498,-0.36978071693970116,0.2243020885488966,-0.2763602922485566,2.531999999999698,7.0,-0.1908715459517897,0.1668398325680649,0.9469300519123016,-0.769228489698974,-0.6910375655020672,0.9679192822735893,0.6762528605736315,0.46057454395754627,0.5199077284903499,0.2454569450642685,2.5329999999999018,8.0,0.0422244990702039,-0.1033366673028461,0.9736650475748893,0.2686258244555495,-1.0419574702286736,1.1162910104613122,-0.04824507361200572,-0.22459352437236138,0.04578402077135067,-0.9721800168303102
39,2.6529999999997926,0.0,0.046337500153041,-0.027590854165103,0.9786069593284156,0.1590295348206104,-0.2195722855760865,0.39357763440427,0.993596230082958,-0.015026956497372195,-0.031823085339549355,0.10736858657368654,2.6539999999999964,1.0,0.0113520411538754,0.0831068164401798,0.976586088485198,1.2638772117406063,0.5936436108468394,1.8380539174108603,0.990808076201698,0.0997362264673315,0.013130044549290924,0.090441379874928,2.6539999999999964,2.0,-0.0502066785492635,0.0581707213983586,0.9762430315249608,0.5802092240174893,1.4438895316516582,1.040825346226678,0.9940261780942935,0.07444009432201558,0.0716466660245435,0.03517648174773576,2.6539999999999964,3.0,0.0962594964218945,-0.1665686543188264,0.9607216000210566,-0.6528860653318783,-1.273316152770846,3.3247534053869767,0.9072114458413766,-0.09809972540698991,-0.07366813174873893,0.40238891979541724,2.6539999999999964,4.0,0.1315654780215271,-0.1844048798889221,0.9534586332222912,0.6487782371914677,-1.7260790996577533,5.121004400675659,0.8854534519809427,-0.11575571222082315,-0.08155593936404425,0.44263012574578603,2.5839999999998327,5.0,-0.3786569120437266,0.6891779776441308,0.5840193987290621,1.6449848840287444,0.1450882176185487,0.5163187474412078,0.9403947754666493,0.2751957244290313,0.17894626562240593,0.08890001997078614,2.5850000000000364,6.0,0.1182214582070587,-0.4227953295332456,0.8767558361050533,2.4444012269439312,0.3558818326708646,0.840777012978603,0.9134511949753086,-0.22815674395675756,0.19686802975251352,-0.27348563663672515,2.5850000000000364,7.0,0.0133243911030814,0.0551518667771171,0.978071946327432,-1.850454096093606,-2.628089250680869,-2.7032177154080177,0.8522967575703877,0.31322206954354187,0.39580646260757757,0.13718387785720682,2.5850000000000364,8.0,0.0463458658533181,-0.0612606916238595,0.9767677248865632,0.9609013488181736,0.1194237155983491,-2.162611308540912,-0.14321356060336815,-0.2124234422305274,-0.027887441139285197,-0.966223808378236
40,2.742999999999938,0.0,0.0596844014722516,-0.0253385507899972,0.9772700394797552,0.0086577661789236,-0.2953652736227435,0.2112880108700977,0.9918486981669855,-0.01280398176700898,-0.046271529081278975,0.11803035029960175,2.742999999999938,1.0,-0.0132477207324836,0.1569040527665896,0.967214875878578,0.9570254718565164,0.421702490006534,0.8351735612611496,0.9802453096281041,0.1430768684089157,0.03220762816949612,0.13270573222772172,2.742999999999938,2.0,-0.1135018400303437,0.1229875386897572,0.9641392003423374,1.1378594074365982,0.7720000969932768,1.774194221704438,0.9787083640728556,0.13336229429902474,0.09808760445946091,0.12133943466383673,2.742999999999938,3.0,0.1254784965967336,-0.2166971140131345,0.9463902512548416,-0.2866839621911484,-0.7552159728319865,2.6690283445591296,0.845067556589466,-0.10224822580480562,-0.10010393929191595,0.5151556332390432,2.743999999999687,4.0,0.15877909826886,-0.2247386637738153,0.9404353943562992,-0.4902305408136382,-1.0689935005620008,2.303927046204299,0.824749223572691,-0.11675166663544581,-0.1266414834307609,0.538627609047796,2.659000000000105,5.0,-0.4184450035992946,0.6639978798677066,0.5873164347215025,-0.6208181526863598,-1.494784808012977,-2.306428379524774,0.9604913826441942,0.23787110718486226,0.1395440595207188,-0.037431212715724034,2.659000000000105,6.0,0.0472595148883361,-0.1302377972616845,0.96971008781849,3.913426171509712,0.0687140547880513,-2.6755754332687745,0.9011800916066833,-0.05570691272470495,0.11707650024128743,-0.4135991724577114,2.659000000000105,7.0,0.1256466482504742,-0.0490665477049478,0.9703109778208938,-1.259091428314285,-2.007214564721821,-1.7298576228169278,0.9383492268093158,0.20562009947677126,0.272146454849486,0.056190838669471936,2.6599999999998545,8.0,0.0768169636433818,-0.0244708670057266,0.9769126525767796,-0.1035686216648276,-0.6924786549060747,-2.0203194404269174,-0.24408211756386375,-0.22526023031603912,-0.03445598983476,-0.9425998797411402
41,2.80199999999968,0.0,0.0720376950531744,-0.0180504322024917,0.9767413948373076,0.3563864020095021,-0.1795634041906666,0.0345170634956334,0.99130668777656,0.006640771796519384,-0.05220619578841433,0.12058799293758213,2.802999999999884,1.0,-0.032207886071883,0.1977747609589774,0.9592714923328016,0.5077370476275536,0.2871965145553329,-0.6079029306053646,0.9800578315884888,0.16050722211945317,0.054274189088021015,0.10381902902841812,2.802999999999884,2.0,-0.1411986569610183,0.1586611789327214,0.9569783537635967,0.2454934643439812,0.6091972663624458,0.2117105850645646,0.9733761965394874,0.13654917676801284,0.12612138471911913,0.1341137526536012,2.802999999999884,3.0,0.1387948353430872,-0.2349067806826032,0.94038332507091,-0.2148433886619967,-0.5030540512681223,0.2477714205002895,0.8353177819197874,-0.09598520009660043,-0.12776916198049618,0.5260285979087296,2.802999999999884,4.0,0.1804812650696316,-0.2765094325390939,0.9221377590554318,-0.8558668880994957,-0.2760873313254157,-0.2060691581419696,0.8238008001802547,-0.13859610820895354,-0.16540055779389892,0.5242003585397201,2.7489999999997963,5.0,-0.4335334007491467,0.6666899227728705,0.5719836862253883,1.4217201308825926,-0.7361191897248528,0.3643701667333724,0.9407051524017511,0.32027407557312015,0.1051789360320755,-0.03789095110632549,2.7489999999997963,6.0,-0.1388807489761008,0.1760829578587746,0.9534190733961336,3.279637900367217,4.380549851606911,-6.1404382173245935,0.7265063665650565,0.13126159791857786,0.23804336067893594,-0.6311055780841897,2.7489999999997963,7.0,0.2339888023502569,-0.1049549615721562,0.9454219673860342,-0.5532165370131017,-1.3271964657140092,0.4438114115589832,0.9690496552655258,0.16636548673683166,0.16762671061759832,0.07187890052099201,2.7489999999997963,8.0,0.1510738520782466,-0.0223366333096796,0.968584413477023,-0.2094433992087459,-1.4265149937084634,-0.6234157762396424,-0.27881526285641395,-0.2739118956851409,-0.00735496823665867,-0.920423938760134
42,2.8479999999999563,0.0,0.0790897737701023,0.0173225014904233,0.9765872918623856,0.5331584196397765,-0.0382942572061661,0.0116935445206998,0.9906639141736203,0.03394717626629284,-0.049571843946634005,0.12237332497516674,2.8479999999999563,1.0,-0.0359109216641613,0.2155903806412843,0.9554125776229748,0.0710213369189663,-0.1535729430230769,-0.0796001991650098,0.9812303066812651,0.1593527551482857,0.045334512601086646,0.09868417625973641,2.8479999999999563,2.0,-0.1493405772212708,0.1692883037458685,0.953852117579064,0.2584081706412814,-0.3796733688903133,0.3746318056639122,0.9724574183958732,0.14795698552803901,0.10277744444920565,0.14789217948485314,2.8479999999999563,3.0,0.1645276575823598,-0.2327253781596742,0.9372110478707016,0.2253714587949555,-0.5281523490686059,0.0642196541449998,0.831687588777087,-0.06925376961524513,-0.1442982105140481,0.5316744271738834,2.8479999999999563,4.0,0.2040375705686528,-0.2880400360034247,0.9128562906917976,0.2095904723861887,-0.3667439770189824,0.1548934484281309,0.819390326045074,-0.11500856010002597,-0.17433805228562738,0.5338340268404779,2.826000000000022,5.0,-0.4337441263768548,0.4954770387785386,0.7255939200936218,-0.2315374586145215,-1.4201960525787884,-3.111434108962597,0.9321064508450804,0.2833829215862372,0.09251724220287014,-0.20569940189852756,2.826000000000022,6.0,-0.483437616757538,0.0152358252738673,0.8528170614686458,-0.7743105554575352,2.171316966171225,-3.9971449130098873,0.582893548205236,0.13321722762328964,0.3485944042208693,-0.7217826702484427,2.826000000000022,7.0,0.2705200133766413,-0.1474303885422112,0.930345206306237,-0.6010971113276962,-0.7022849672010899,-0.0440965638411684,0.9852207277284145,0.11793364863437228,0.10252090933129315,0.07015151690421634,2.826999999999771,8.0,0.2470349255962897,-0.0154874045774961,0.947738300289214,-0.0967722756767787,-1.7399248315671194,-1.9808131102127624,-0.37373002177423004,-0.3374491720682338,4.137998967830311e-05,-0.8639756509200902
43,2.9409999999998035,0.0,0.075109138092556,0.0464947374015849,0.9755218381814684,0.6143161734333427,0.1631363109244167,0.1799334589200092,0.9884868636805042,0.062282102496692394,-0.036849850221061124,0.13287869873819938,2.942000000000008,1.0,-0.0035576606683916,0.2014008206286835,0.9591439164696096,-0.4287943976944843,-0.502881219560027,0.4679595790725613,0.983502992865949,0.13599760284044365,0.011997305239021532,0.11867004555647344,2.942000000000008,2.0,-0.0906151735530376,0.1708454204505666,0.960700646732905,-0.1647064189409536,-1.08341130454545,-0.0956480889167279,0.9797742719333946,0.140335477389165,0.04464032815072562,0.1354827330176688,2.942000000000008,3.0,0.1901991348501153,-0.1998742929972966,0.9398151712443774,0.7832103487373879,-0.2353201134648053,-0.0116099125252601,0.8331952024267433,-0.02680273659412444,-0.13258977230061364,0.5361784406756726,2.9429999999997563,4.0,0.2255651251137892,-0.2570971588934704,0.9180623209898696,0.7593582716486489,-0.2046766588248433,-0.5843127117477077,0.8385494145149907,-0.06598577071033276,-0.16409866813796384,0.5153177510970063,2.94399999999996,5.0,-0.4254023296065481,0.4229680638888785,0.7747656903189604,-0.2206818621344644,-0.7859044718703948,0.0976091030447351,0.9383387460492695,0.2646318580779289,0.06409958168126521,-0.21302962465627706,2.94399999999996,6.0,-0.4547156532621538,0.0163485423230647,0.8673363821737698,0.8707664198355803,-1.2879792423593264,0.4499474822390678,0.623669549607423,0.12772057506783546,0.2556059468685876,-0.7275914702099168,2.94399999999996,7.0,0.2566104716081835,-0.1335117323290144,0.9358945897864412,0.5637628160177801,0.6840134580698931,0.2839952936202767,0.9813698487139266,0.12839348555166089,0.11375964178387091,0.08652789610469792,2.94399999999996,8.0,0.4163572196986635,0.0132268681297245,0.886816618903975,-1.0486322629023153,-3.626384213244284,-0.5669664813199684,-0.41804947678294624,-0.46223096565817345,0.11593203256200875,-0.7733931297692388
44,2.998000000000048,0.0,0.0623353275536544,0.0840083574910113,0.974774795945423,0.5591276271533625,0.2134256490402228,0.4951541922246588,0.9832923949584158,0.08585561047927195,-0.023650450607520933,0.15876251557668,2.998000000000048,1.0,0.0156833314981107,0.153907645270533,0.967340410527959,-1.1218723305997491,-0.1319682880910547,0.4962825272151516,0.9869158519370702,0.0757567115502652,-0.004096697727817561,0.1422717080734746,2.998000000000048,2.0,0.0044088214033305,0.1654199270947137,0.9653915319774734,-0.2454737631551208,-1.569559722743001,1.1229594894560273,0.9736316341494649,0.13526129026392117,-0.0446967852118302,0.17817974556977356,2.998000000000048,3.0,0.1869647698330012,-0.1321406942344246,0.9532203374711102,1.4569088317575254,0.3196524108836224,-0.5633745035367987,0.8515982341840319,0.03262587505383434,-0.07734107643838724,0.5174305341849879,2.998000000000048,4.0,0.2258543753990763,-0.178316778025061,0.9372864705029376,1.368832565798356,0.2815801524574944,-0.3723387462195271,0.8548086308150991,-0.00677345817516074,-0.11504346249672981,0.505985500469261,2.987999999999829,5.0,-0.3810407083163628,0.516676875714701,0.7403897518925149,-1.5203136181448675,1.069135541093183,3.2867773195499383,0.9708857238584025,0.21390853736855667,0.10285468818769883,-0.03232587147474637,2.987999999999829,6.0,-0.2469338151602235,0.1148558182042503,0.940582708726377,0.2256534292744169,-3.429237871618306,4.712695575519226,0.8380344674701127,0.0764708509302719,0.061341867438139804,-0.5367379393980704,2.987999999999829,7.0,0.0515563845133437,-0.0372120343228267,0.9775981811140348,1.9301124180845737,4.144082762852844,0.0781378487145661,0.9306490453710006,0.18546210885134834,0.2989246870932569,0.10069852023070906,2.9890000000000327,8.0,0.5496558282496415,-0.0360441764551885,0.8103519530518006,-0.2448934079589474,-0.4136969141110835,-4.363895648774269,-0.5924139578058053,-0.4768358438317915,0.03400464721338007,-0.6484727940337809
45,3.0729999999998654,0.0,0.0793074039524424,0.1022907230012943,0.9708120022260728,0.0995062026332064,-0.3156693572356073,0.4170785417998011,0.9790478616384571,0.08995885757498688,-0.04098056387820765,0.1780260709817302,3.074000000000069,1.0,0.0483731331422198,0.1152966210131293,0.9717637208565464,0.0984556131602048,-0.6889625001695563,0.392789638918472,0.9829138034938006,0.08397403809805887,-0.04009122365322265,0.15881281312552536,3.074000000000069,2.0,0.0728312156920853,0.1378276165047361,0.9678492455694928,-0.5274544891009865,0.1546323014332409,1.373269692716753,0.963696854806714,0.09923686728868708,-0.04660140572680712,0.2434516896442914,3.074000000000069,3.0,0.1648791522821744,-0.0390726587718952,0.9657329819775272,0.3876676822261152,0.6438721983922171,-3.572744512335824,0.9362206080194276,0.046979203924182554,-0.0286199403758378,0.3470804323658519,3.074000000000069,4.0,0.1763566394870997,-0.0592535820366841,0.9617595066983426,1.94192615574912,1.6029606198680757,-2.477469541871376,0.9188296107870554,0.05931203156180152,0.017927497699942768,0.3897599698264799,3.018000000000029,5.0,-0.2760335858355588,0.5180107556272356,0.7845567643869137,-0.7830707132732267,0.8257309404434341,4.708127931241159,0.9527740879728775,0.2022037252466406,0.09645508124831978,0.20501611664747824,3.018000000000029,6.0,-0.0467415736254555,0.05617290852017,0.9766989452453608,-0.6929346363986458,-1.9812816378584264,-0.4407034930930698,0.8333839742768658,-0.010889006808226473,-0.008641545186973383,-0.5525195966171772,3.018000000000029,7.0,-0.2395582668193575,0.07016233480881,0.947184292296215,1.4816588052335715,4.860113269998062,0.3537137953285105,0.8370643321386164,0.21214016314892964,0.48681660151612893,0.13164137468427003,3.018000000000029,8.0,0.7738329563233599,-0.241623561677035,0.5502659449305882,-1.5702121603206207,-3.6761163982231095,2.783184642602076,-0.5201696127899147,-0.5350521788748468,0.284817544623322,-0.6016823963570906
46,3.132999999999811,0.0,0.0856554343449856,0.095036394905305,0.9718499010704148,-0.1422016801297913,-0.0034019808074153,0.0122239843620195,0.9798392482911075,0.07956780496264024,-0.041795891286668274,0.17842958104893317,3.132999999999811,1.0,0.0621805349445851,0.1263273027936745,0.9684957375450244,-0.0051594603007064,-0.1136776996217569,-0.3675853822142312,0.985672518391616,0.08384072823630476,-0.042292605518396,0.14011336229925073,3.132999999999811,2.0,0.0645965317539226,0.1159468201567927,0.9705733475533382,0.3237637244805518,-0.4800020042230447,2.555864724762609,0.9239396042159853,0.11015448471554697,-0.07586231021162604,0.35839434586446217,3.132999999999811,3.0,0.0934245085104797,0.0556310622907804,0.9738840003398634,1.0431351119421763,1.301038109901169,-3.49755976277794,0.9796548833898652,0.07961162820463967,0.06666551339308517,0.1717381944386067,3.132999999999811,4.0,0.0994868102620703,0.085358449591019,0.9710001594579152,1.8524966975722128,1.085770850671537,-1.4765779761582292,0.9347859754942768,0.12321642611896272,0.1086624277972998,0.31493708758874406,3.0789999999997235,5.0,-0.1449409196977528,0.4859349881786106,0.8380157021566023,-1.933764182272389,-1.416258512040404,1.7919081089533586,0.9509539809771345,0.1347287467542335,-0.00033626061024248817,0.27845031476113563,3.0789999999997235,6.0,0.0079510846576231,0.0619609585014648,0.9771589532283612,0.171836102294758,-0.6517111917906644,0.4405690887984786,0.8450763812845135,-0.018272216476988963,-0.0417326223840573,-0.5327010645090166,3.0789999999997235,7.0,-0.4200320073355911,0.1048155940442023,0.8784138000161397,0.0566536830596735,2.228068885179992,1.3808807237266505,0.7875067869566851,0.2175092421646678,0.5376899021289702,0.20835632752246455,3.0789999999997235,8.0,0.7699365666638136,-0.2145422223870175,0.5668918046039988,-0.1324798813616353,1.285797977790336,0.6221663628511706,-0.5217289144116182,-0.46391765005232316,0.27509850206638287,-0.6609842418678655
47,3.181999999999789,0.0,0.0864572593104565,0.0789368409101745,0.9729276013453652,-0.3544492417773494,0.0088217817979901,0.1078802065726744,0.9803555402456473,0.058684700672155005,-0.04427184644064105,0.18302765973868745,3.181999999999789,1.0,0.0680326257005336,0.102563471244542,0.9723730231791508,-0.5910783348064278,-0.0236233022305542,-0.6559743848596794,0.9919476017609713,0.053273512885308356,-0.044277190819290504,0.106025556158262,3.181999999999789,2.0,0.0696139357670054,0.098971372465764,0.9727320121077904,-0.4589432713432416,-0.1126714250426183,-1.338925213661338,0.9491084645084134,0.09020369840784259,-0.0770037825293378,0.29176503023529615,3.181999999999789,3.0,-0.0100665010980991,0.1120269137778721,0.9735392319496154,0.4492975697369362,1.679196363701304,-2.296288804078368,0.9828961331423332,0.0766473496173357,0.15602100154497442,0.060809722309756745,3.181999999999789,4.0,0.0082204891202948,0.2017291869003023,0.9590707787807772,1.5898704788329954,1.115924477151969,-2.699528660538467,0.9499816304635895,0.16287511222228057,0.1990142685483463,0.17720022718519893,3.1539999999999964,5.0,-0.0396243958054597,0.4293416470570729,0.8796645140957841,-1.022225769106497,-1.2228036848040391,-0.2341518899102331,0.9583215621635149,0.11018482777969885,-0.06380221976703598,0.2557505893882506,3.1539999999999964,6.0,0.0478539942935425,0.0688787667928627,0.9762093580350722,0.3773809915708643,-0.5213545918825794,0.9684174782014426,0.8693724171568579,-0.014187107177940932,-0.07343901827291346,-0.4884639565739467,3.1539999999999964,7.0,-0.4997462030829349,0.1121407377484524,0.8357524678045662,-0.526154486015656,1.316737316989507,0.7075657003814342,0.7684686116212274,0.18449247697186977,0.5539031607553595,0.26193473881665585,3.1549999999997453,8.0,0.6484300834082487,-0.3158863772094764,0.6625920491710143,0.5177649461266934,3.3602467084264167,2.6545210707686384,-0.46823752202805385,-0.3090617460286292,0.22695041676333189,-0.7960703288263624
48,3.2529999999997017,0.0,0.081911995115138,0.0527394711789009,0.974670699896138,-0.3906342034525606,0.0791437446727668,0.2044008426684619,0.979703417732196,0.035912936920886755,-0.04351475439116209,0.1923484868561425,3.2529999999997017,1.0,0.0763980486471293,0.0712970261861727,0.9747030687444864,-0.5471873896980983,-0.2025792561486699,-0.7641759485893803,0.995910474394501,0.027428968289558826,-0.055221445163635294,0.06603461731493555,3.2529999999997017,2.0,0.0586399801775165,0.059719599818405,0.9763195799134164,-0.9077143566126472,0.1720901168089908,-2.257923220399751,0.980804289715816,0.04592264464392502,-0.07008356442829597,0.17607484198767973,3.2539999999999054,3.0,-0.1321585467924179,0.096262367489016,0.965922706594646,0.0330854396216086,1.3961844818872582,-0.8894628967521073,0.9735750722725036,0.0638072915589562,0.21816154214989475,0.022039730494702644,3.2539999999999054,4.0,-0.0944633770308632,0.2763721780814903,0.9354181362270128,1.5311783151093363,1.098271610296079,-1.4251378003155293,0.936138887502695,0.20674710819161096,0.2654232994307827,0.10222567524306089,3.23299999999972,5.0,0.072067929297959,0.3204733107440765,0.922948574226882,-2.234345025285044,-1.2959612728837815,2.029821746174702,0.9323532936510399,0.020891399224493346,-0.1476429385533366,0.3293667377739231,3.23299999999972,6.0,0.1050060812459033,0.0612948595556968,0.972071326134778,0.0997502223781212,-0.8110642764768908,2.218456814342275,0.9168162582004371,-0.03584500616844978,-0.10755507586920278,-0.3828772517229294,3.23299999999972,7.0,-0.5113311417673712,0.0973778955088874,0.8307677226067083,-0.2456567578557743,-0.3677479446647879,0.6010688463710747,0.7926588268585634,0.17802920253943808,0.5076037024405393,0.2869426223394394,3.23299999999972,8.0,0.3344707245176134,-0.37446863195498,0.8414205714875459,0.8577437772280799,4.18731852747632,2.864869451624693,-0.3942845603730122,-0.1073919211176506,0.13233772527561946,-0.9030467248149431
49,3.35799999999972,0.0,0.0790173839166265,0.0292382707407494,0.9764913602091227,-0.4035116661595725,0.0767805145523492,0.3535833965901063,0.9769218850492413,0.013339367404049902,-0.04318510911795906,0.2087600012923133,3.358999999999924,1.0,0.0818972317805375,0.0416817316350322,0.9760043425490432,-0.5016254558536126,-0.0737416775536124,-0.3854079520778727,0.9972285725612451,0.003366074650578177,-0.058969317820361355,0.04523785101781124,3.3609999999998763,2.0,0.059286058425414,0.0206803450854583,0.9781955257531724,-0.4619728650184592,-0.2348057985029948,-0.1686661126866359,0.9825844257093639,0.02285466084332487,-0.08125485864773199,0.16553899473318473,3.3640000000000327,3.0,-0.1840036211979337,0.1087856646090122,0.9565282779728068,0.1757081419880971,0.343056020727001,0.5876924047742696,0.9709612246715686,0.077336125779159,0.22070961625645377,0.05040524898943465,3.3640000000000327,4.0,-0.1987165169657832,0.3090722520961543,0.9078502568536284,0.4797549055598245,0.7335970024335319,-2.299822745594376,0.932450664272992,0.1881610934056583,0.30841303934533204,-0.003543837893828083,3.289999999999964,5.0,0.1558647360794723,0.2261074519917352,0.94053208568378,-1.1299352302027652,-0.8151452233663665,1.2722575027287086,0.9067180722943196,-0.015319435736366818,-0.1917394638867561,0.37531803880444126,3.289999999999964,6.0,0.1688371172722559,0.0402907411271969,0.964427645814146,-0.2128368269835365,-0.910519818673238,1.153201664954259,0.9321404779209537,-0.06713439487031957,-0.1398523443948056,-0.32718255487413833,3.289999999999964,7.0,-0.3562612983782481,0.2070520361346,0.8892307583582347,0.8513873045104987,-2.6758821862840545,3.201897001869737,0.8153764135610163,0.31704185342026137,0.32958242067270804,0.35499464132820113,3.289999999999964,8.0,-0.0900286329257259,-0.2960728916276933,0.9297121533554032,1.126196074070537,6.138322975337232,1.6127714453629485,-0.3692776834392714,0.18781460884318227,-0.04490565772096155,-0.9090341836935812
50,3.4029999999997926,0.0,0.0714253953223788,0.0156875676917094,0.9773516834399786,-0.2228307333264775,0.1308644155675707,0.4654623857140331,0.9722327371430961,0.00034154815081962437,-0.03822844073549597,0.23087220380772724,3.4029999999997926,1.0,0.089847099188697,0.0166460550030971,0.97588391093419,-0.4317588075115672,-0.1322598867780388,0.2166895597093942,0.9962297897437832,-0.01776345285162214,-0.0649780347750261,0.0546673647309003,3.4039999999999964,2.0,0.0764535928270487,-0.0009703035265489,0.976960545086086,-0.3723116490605014,-0.2598759327196613,0.4712860077747178,0.9780054290173896,0.0031994484566554705,-0.09284771125785661,0.1867470129781531,3.4039999999999964,3.0,-0.1824897298547409,0.1039793327307238,0.9573075769377452,-0.5685254169070267,-0.0619723826190365,0.3867264817427543,0.9749413831277561,0.051123139403589875,0.20289697893296568,0.0755548808637437,3.4039999999999964,4.0,-0.2243183474540852,0.3507326847622582,0.8871149096001751,1.1339318850792837,-0.2704298670068268,0.7772114566723877,0.929999103086936,0.25189251536522156,0.26718952197407486,0.01617369184019905,3.380000000000109,5.0,0.2201278633296107,0.1573700023781604,0.9423796507445594,-0.5894914837203596,-0.734461017821764,1.024347398380976,0.8823122357711766,-0.02478990909779447,-0.22290544337867754,0.41379190703485974,3.380000000000109,6.0,0.2473361248669058,-0.0121311429582493,0.9472563943866248,-0.555773751752472,-1.2899196470385863,2.0436034137798704,0.9498117331473475,-0.12645548101426787,-0.1761691013062385,-0.22545760275944277,3.380000000000109,7.0,-0.2237925540128571,0.2958744216960305,0.9073032675761958,1.8668657582553905,0.4612516641038702,4.581242123667008,0.7037158205053163,0.43035677288790297,0.2646497299296474,0.4995373984480079,3.380000000000109,8.0,-0.556489046526606,0.1207473390286503,0.7973543887214825,-0.3949322449368446,0.5974571826987423,5.674247420674996,-0.10738967281733963,0.22075722328332803,-0.10333888479185416,-0.9638748785140089
51,3.4890000000000327,0.0,0.0574299110071857,-0.0099004023668211,0.9785273564671976,-0.4538951648058732,0.2625525707961534,0.2516783864300959,0.9695115262414442,-0.025021636436663615,-0.029557593292113254,0.24196625151825318,3.4890000000000327,1.0,0.0946360317672472,-0.0115495352570422,0.9756103882835068,-0.4058196710132077,0.0260035923866833,0.1059500067397112,0.9956150851457164,-0.03693003063410673,-0.06295019201436833,0.058515368861573096,3.4899999999997817,2.0,0.0872390479209302,-0.0228580952281231,0.9761868960400932,-0.4441016648315209,0.2372192571372817,-0.8281442752057864,0.9861262493103499,-0.017698436637859756,-0.08119729336604513,0.14369685212872976,3.4899999999997817,3.0,-0.1608181430782954,0.0678096589062502,0.9641703039483568,-0.9251490500131274,-0.5855946456237568,0.1514989082159648,0.9831604302685204,0.00701040626626821,0.15850560709306377,0.09067742320036863,3.4899999999997817,4.0,-0.2092275247821153,0.354599634789868,0.8889352855413277,-0.9336811372257382,-0.3038517690627597,-0.4068092792644678,0.9506555468818946,0.19517902352964678,0.24103296669597607,0.007892333142725257,3.490999999999985,5.0,0.2606472892056802,0.0701693119036375,0.9419152075939216,-0.8459237673248862,-0.1515861674318947,2.315227287313001,0.8330072776139763,-0.07223504667056574,-0.22723533104333207,0.49924450703065354,3.490999999999985,6.0,0.3172643553360756,-0.1345689883522937,0.917073342872327,-1.134534783872582,-1.2789083258508769,3.9235077373158593,0.9583043583759585,-0.22449263716182177,-0.17434441255216815,-0.029323001033533972,3.490999999999985,7.0,-0.236618009190774,0.3517323514840579,0.8828206333373103,-0.3151874480000173,1.0419563913205716,1.6557283420261728,0.6698337087335364,0.3866711495311023,0.2538570367930468,0.580831154153447,3.490999999999985,8.0,-0.4803371540492841,0.0888392760483888,0.8488302548042407,-2.620451365044417,-4.095255328968428,-0.043270067808256,-0.10542652797702204,0.040729266628480615,0.04766606632888035,-0.9924486486258859
52,3.5229999999996835,0.0,0.0253955078773852,-0.0388793730584675,0.9786549251550468,-0.3193496171853816,0.771818403539525,0.5226879029940383,0.9629487873970531,-0.04958714548714467,0.0062821333321211046,0.26501185379861586,3.5229999999996835,1.0,0.0835507081871948,-0.0491792278803578,0.975261340721814,-0.6392972254736662,0.2582913069651038,-0.0708640155402429,0.9950515964342586,-0.06781518024714173,-0.0502896583361789,0.052386754300218615,3.5239999999998872,2.0,0.019008540512702,-0.0992003669494797,0.9749804934380306,-1.3306620671387088,1.1929912672321126,-1.5408625348661515,0.9938017135921497,-0.08908856246397412,-0.031185160009564138,0.05872706271036578,3.5239999999998872,3.0,-0.1212620709125492,-0.0031829918454611,0.9717439882607516,-0.9135414791487172,-0.8799416465740733,-0.2051565221502948,0.9904546121701164,-0.037321790039036816,0.1003711373734048,0.0867892850621296,3.5239999999998872,4.0,-0.1308581323010062,0.2581178326125363,0.93586608748159,-1.9091654049240327,-1.5902699426443292,1.4144957545268209,0.9810867762247253,0.11042762124966948,0.13504031486329396,0.08389631305211193,3.5720000000001164,5.0,0.2257118892322122,0.0459311245424794,0.9527331603641646,0.290553463374631,1.1394095534410604,0.4082082853979693,0.8406483654543547,-0.07831895139393064,-0.15721921313749648,0.5123071212972774,3.5720000000001164,6.0,0.3263753394972729,-0.3304041418300119,0.863160611259349,-1.9881600279809568,-0.9333107427809164,3.5144695399905705,0.9188992280852794,-0.33940290516003835,-0.15115128006481426,0.1326015351644618,3.5720000000001164,7.0,-0.2388758989188072,0.3204390237442762,0.8934803506387518,-0.4927673873667475,-0.9255934338358526,-0.5152043377453944,0.7210138078565212,0.35958039202359826,0.21230318224960804,0.5529632802990491,3.5729999999998654,8.0,-0.3312800864699459,0.0230977048627259,0.9225800780087002,-0.3246098183836271,-2.252311596171268,0.3054543193826683,-0.08373293003715715,-0.056324904894146856,0.06735564830062027,-0.9926124712888011
53,3.587999999999738,0.0,0.005524873093832,-0.0782086710616793,0.9765658603228272,-0.7249334687560504,0.1328230165428482,-0.1276954654804322,0.9623433070170299,-0.08506095805107902,0.0005649144302709735,0.25818534762190826,3.588999999999942,1.0,0.0336409699190477,-0.0493826935745645,0.977902671393338,0.8087378014702733,1.1185337520475114,2.150234253497527,0.9872229550226049,-0.031300182919851316,0.01394749741173049,0.15561684658663838,3.588999999999942,2.0,-0.0446566740373939,-0.1698406056444752,0.9639942687268612,0.2694195358729484,0.6778629869553855,2.7522310148003566,0.9782018999222608,-0.08117075707433746,0.018995128127279284,0.1901881602305631,3.588999999999942,3.0,-0.0476608322371275,0.0029947148867677,0.978503692764218,0.353576153934939,-0.7578219009323521,0.7572145031676852,0.9906618556228078,-0.009019963376546451,0.056975254069240096,0.12353764000662393,3.588999999999942,4.0,-0.0120666175480167,0.1175397865639492,0.9720929972566674,-2.4059985128882446,-1.4275551750159194,0.7889045994931091,0.9908237479920934,-0.003955804964046191,0.04082338464540969,0.1287870462743833,3.5899999999996908,5.0,-0.0516814221404732,0.2815652615268865,0.9370645837437428,4.111904096271654,4.794619506514731,-3.19816327318235,0.930923207579285,0.04480643560882869,0.20504500293101854,0.29888277249006145,3.5899999999996908,6.0,0.1553020920666286,-0.5429391854093379,0.8014532432692333,-2.487426051851273,1.138743657626608,3.79872874842581,0.8447850386555398,-0.4671343287474875,-0.02478147082814696,0.2598261651046457,3.5909999999998945,7.0,-0.2541220217494739,0.2602654136052746,0.9103235208116044,-0.9868197644987856,0.930943335832648,-0.667522255988081,0.7596254573609632,0.25969529137443453,0.22685321639597567,0.5514210173523456,3.5909999999998945,8.0,-0.1715326043427919,-0.0169338244582476,0.9644754072741288,-1.054418103147203,-2.8735256578930306,-0.9078386598457616,-0.12279309861625622,-0.1833770404191696,0.12332923813386999,-0.967514658804012
54,3.6729999999997744,0.0,0.0184915951746212,-0.1079459059265449,0.9736399448983156,-0.1902765113494732,-0.334978026692472,0.4078788482590604,0.9562734469375903,-0.086403948915778,-0.018513326247592006,0.2788058626447973,3.6729999999997744,1.0,-0.015682805297553,0.0461114195537423,0.978922257691967,1.8644345022565925,0.6508184554309195,4.059191909329071,0.9374172465648866,0.05963720957751456,0.046025045975271975,0.3399617687615597,3.6729999999997744,2.0,-0.105016831899605,-0.021866558356924,0.9745456985916018,1.9618402663181809,0.283086343674442,5.47227335470159,0.9028965002513178,0.01801103866550479,0.04712576423199779,0.4268871919672242,3.6729999999997744,3.0,-0.0436313195446025,-0.0217591461735548,0.9784067904060124,-0.4621410136087222,0.0620645000967122,0.5688038208963052,0.9862839935888459,-0.031039036196639506,0.054421909097814754,0.15270467587002717,3.6729999999997744,4.0,-0.0134560683429248,0.0007934018376366,0.9794653157403148,-1.2845526372424074,0.6653548910856935,-0.7485130527200538,0.9912151892182002,-0.07305704355885134,0.059303402250113074,0.09294204393668808,3.692999999999756,5.0,-0.3388121782432037,0.4980528217654497,0.7729150629956493,0.2173001475352014,1.0891927722587629,-2.097919794585727,0.9423400913634952,0.03198874915482905,0.2676942951701888,0.19827162295670225,3.692999999999756,6.0,0.3079247295394233,-0.6196103609512957,0.6937134578050782,-0.9874731370341292,-1.6729378880516104,-2.217995389267335,0.846762343845129,-0.4651450166209819,-0.17913243752423125,0.18586343477186956,3.692999999999756,7.0,-0.2655274559314095,0.2167009424280658,0.9182008885300544,-0.1569946581840667,-0.3452215697684677,-1.1765793744513622,0.8061935216869872,0.2258932183421132,0.21778565974175954,0.5015911341997805,3.69399999999996,8.0,-0.0242285774693002,-0.1202674419123386,0.9721361625048603,0.4630831869141687,-0.5659045875571376,2.2556525264251275,-0.005205292681078384,-0.17836581710305788,0.11830885470850483,-0.9768119343634294
55,3.737999999999829,0.0,0.0273391065953078,-0.0937083414411599,0.9737552669921314,0.1760021445294108,-0.4167593191456917,0.6874792459468092,0.9467160355711619,-0.06846212300999109,-0.03422529499770004,0.3128423163315791,3.737999999999829,1.0,-0.0145404272255259,0.1544183944373227,0.9668270452544748,1.2883148553827446,-0.0811048433593227,3.2172020442879425,0.8707801182239784,0.12503146736594944,0.042530821078735424,0.47360347035523326,3.7390000000000327,2.0,-0.0920456263469507,0.1257627364784642,0.967593063629461,0.894913213493816,-0.0405551039521515,5.691830660744541,0.7673888974488652,0.06771229780666439,0.0463930848291771,0.6359064447526769,3.7390000000000327,3.0,-0.0292463389011321,-0.0070207340573227,0.9797675035201854,0.5750331903498552,-0.3742821713735505,1.2340519510160413,0.9767188663996798,0.00581405749450226,0.03606249990415437,0.2113905126892836,3.7390000000000327,4.0,-0.0058380165692583,0.0084286657364836,0.978647983268979,-0.8278917949152294,-0.0904344401873518,-0.8345612483763685,0.9917931231763768,-0.10841675565362265,0.040825902608516866,0.05408746240850182,3.7529999999997017,5.0,-0.4265818763793264,0.538403191500752,0.6976466914753465,1.6652252946116397,2.06518520490731,2.3535865987287914,0.8779912724968968,0.13357281151006817,0.359704206860902,0.286186150977201,3.7529999999997017,6.0,0.2065366881888563,-0.5810551987236765,0.7611520560756359,2.295323949899072,1.2661541163183192,2.616919084863115,0.883446129501199,-0.37454287272235115,-0.0493402123362576,0.2771391639751634,3.7529999999997017,7.0,-0.2603351002678831,0.169410802578118,0.929632516394704,-0.3554406393730815,-1.6160705842481415,-2.4044719468082056,0.8907730868062534,0.2009987568878741,0.15530025434273045,0.3768350282978896,3.7529999999997017,8.0,0.0329890663796721,-0.1425567200722226,0.9689222378816824,-0.4176381835438212,-0.8570421415022477,0.8237948571670942,0.03750557902172538,-0.20054558585807633,0.14192526693324503,-0.9686237753333403
56,3.778999999999997,0.0,0.0524481574209876,-0.0894391250291047,0.9743114664711544,0.0639942258353757,-0.4213784369955133,0.5584854675035227,0.9372315583311068,-0.05648782401169597,-0.05191068243292835,0.3401638029773544,3.778999999999997,1.0,0.0092487848039779,0.1737661141993972,0.9646500907249697,-0.3711073605029324,0.0972637484614314,2.093266120931105,0.8215630878084857,0.1073443375993151,0.02589981851864239,0.559321450810401,3.778999999999997,2.0,-0.0206433716338508,0.1503079799618879,0.9687106701009148,-0.4853724315681357,-0.2437870383023681,3.1436206261488424,0.6692518857145944,0.06498189495547263,0.013461877889311028,0.74006624341281,3.778999999999997,3.0,0.0047141596115037,0.0114333152646998,0.9801316523820744,0.3278410442645575,-0.3550716283674713,0.81863911902878,0.9677192757865275,0.026940217121827963,0.017522135161126943,0.2499732040680009,3.778999999999997,4.0,0.0336211827745673,0.0863926098728683,0.9748276427288024,2.549723242057748,-0.5016147077041939,3.9337911934755256,0.9696276086993824,0.04204627504120983,0.00846252401330043,0.2407961729147723,3.835,5.0,-0.410666181423383,0.6086525711566968,0.6418818700193042,1.609834897369416,1.7396318547536576,2.53212448858598,0.795048299238815,0.227556141741624,0.4194395798558408,0.3744153350004367,3.835,6.0,0.1610100679226471,-0.5004174255941811,0.8192737077370643,3.002919185178332,1.1268001431069938,1.2471347792262,0.9210216695840882,-0.23747521278751846,0.04976909166205766,0.30470911535954354,3.836,7.0,-0.2124941887937768,0.1436743465067056,0.9437173315589504,-0.5225817220242823,-2.0031652396491357,-1.3762458504783872,0.9366658733823036,0.18489589244407303,0.061350269137291275,0.2910441462648886,3.836,8.0,0.0694589125188467,-0.1663488419627833,0.9622412754862162,-0.6347626785426168,-0.8212936596645972,-0.5495810383057865,0.011643335723904046,-0.2294582509823787,0.16015695603544114,-0.9599807775277533
57,3.867999999999938,0.0,0.0727331044381242,-0.0858825906412621,0.9733776636760976,0.1600588119277866,-0.2505364118032469,0.4219232138092226,0.9297924283288118,-0.04310450452114912,-0.05970269650949225,0.3606433556048037,3.867999999999938,1.0,0.0213811406511888,0.1220215160030863,0.9722199321433204,-0.9351794012668188,-0.2285286606081255,-0.4692793406025324,0.840049199299986,0.06876942365434323,-0.00818329750943923,0.5380716892455635,3.867999999999938,2.0,0.0015497998954269,0.1109032016646238,0.9736832534150006,-0.9592434294169346,-0.3101308315287439,-2.1090344999332427,0.750890920436367,0.03642796627605512,-0.02674322115704833,0.6588783112239783,3.867999999999938,3.0,0.0046348775267661,0.0237847048612395,0.9794706762966292,0.203835034860642,0.1597800065094883,0.665614689599135,0.9585514816983982,0.03384055589353537,0.024926000185213702,0.2818023566711048,3.867999999999938,4.0,0.0653264901849809,0.184323143673196,0.96046157048918,1.0373046535893082,-0.0635164938755778,0.2199154292441268,0.9631554993266309,0.09853318783648694,0.014981024523621066,0.24979644496243367,3.91800000000012,5.0,-0.3947504864674398,0.6789019508126417,0.5861170485632619,1.5544445001271918,1.4140785046000053,2.710662378443168,0.6981111407127191,0.31441400129865854,0.45130191897992616,0.4583789359527655,3.91800000000012,6.0,0.1154834476564379,-0.4197796524646858,0.8773953593984928,3.7105144204575913,0.9874461698956686,-0.1226495264107149,0.9535666293934651,-0.06856466480628995,0.1356710182531697,0.2600056631178161,3.918999999999869,7.0,-0.1646532773196705,0.1179378904352933,0.9578021467231967,-0.6897228046754831,-2.3902598950501286,-0.3480197541485687,0.9521826361058154,0.16953776284848707,-0.05606278705473709,0.24791558719565376,3.918999999999869,8.0,0.1059287586580213,-0.1901409638533441,0.95556031309075,-0.8518871735414125,-0.7855451778269469,-1.9229569337786672,-0.08319121980767626,-0.26453913271310187,0.17240161633004566,-0.9451856700654631
58,3.929999999999836,0.0,0.0802611654414328,-0.0760198005197989,0.9731459989389633,0.1425435590068833,-0.2356139484427359,0.0126721329989439,0.929252587175292,-0.030105007339844666,-0.06731448647709425,0.3620111568327962,3.929999999999836,1.0,0.0242614897176564,0.0682707745132305,0.9770739385860436,-0.8837239947388149,-0.2785104919657764,-1.52381191039048,0.882471302264636,0.034399616506542836,-0.03978314862726647,0.467416696480625,3.929999999999836,2.0,-0.0110933131810714,0.0274508097852918,0.9791467670603824,-1.3816396116798189,0.110099016108132,-3.349038372209514,0.859342540599612,-0.02518091950594097,-0.06680409665810073,0.5063926657035375,3.929999999999836,3.0,0.0089340497473851,0.028927242904242,0.979737922800312,0.0013724356249459,-0.2589401401229901,-0.4827855385555885,0.9654525692173674,0.03508659724877593,0.010760547037400628,0.25798154568213305,3.929999999999836,4.0,0.0751351781935917,0.217818497894775,0.9524708956039976,-0.0633927592214569,-0.4702428148067697,-1.5186127747636091,0.9797209620442764,0.10184023441036956,-0.0035947969681956408,0.17251805882584037,3.9349999999999454,5.0,-0.4048388234702192,0.6521077946304273,0.6091452628014841,-0.3448675993675902,-1.1317422980346137,-3.044848063839728,0.8056775500331831,0.24484888473991848,0.4277642246494565,0.32855817920757246,3.9349999999999454,6.0,0.0378482309136243,-0.0722621010522465,0.9765836882562724,5.731903966125862,1.4059589721286778,-2.091280800516241,0.9432208347622105,0.17782959282072858,0.2689876932235705,0.07972900151108853,3.9349999999999454,7.0,-0.0351942073366932,0.0680995476341587,0.9762544849484506,-0.9827861385782088,-1.5111959890611366,1.1113782190710686,0.9413083506204423,0.12462772570023897,-0.13814366424984398,0.2816431200413658,3.9349999999999454,8.0,0.1715116756332203,-0.2018731455293951,0.9434261911965096,-0.4450299557014675,-0.972149832498596,-0.4445437418311436,-0.10073129050141881,-0.29486213842946335,0.18589391189306118,-0.9318545916374601
59,3.98700000000008,0.0,0.0959157650159698,-0.0633393433460492,0.9727724778209408,0.2573011831968942,-0.1975822690970194,-0.4077532740185867,0.9362650795706771,-0.011323945743916798,-0.07113123758901654,0.3438310865357546,3.987999999999829,1.0,0.0482121585086511,0.0379244353603946,0.978284378376008,-0.1728114143256837,-0.3795128122847874,-0.8951458479918258,0.9024368868210848,0.03665867515748805,-0.05651571473501189,0.4255229498256907,3.987999999999829,2.0,0.0042216165901536,-0.015843492085092,0.980174556756048,0.120135340559405,-0.3920418497597647,-0.7243908115646024,0.8765611949186928,-0.005559791453338886,-0.07499135761981975,0.47537969725688245,3.987999999999829,3.0,0.0459797959725218,0.0451041886078032,0.9780293812214218,0.5029249218247477,-0.8714519442928139,0.2153133708237565,0.96112433735399,0.06988533582458302,-0.0281441629285435,0.26563876613851056,3.987999999999829,4.0,0.108419715638424,0.2190837182447822,0.9490740169559612,0.9356743077973348,-1.0457522683953178,1.730346850813287,0.9538133818002288,0.15636494453005387,-0.06203727584124657,0.24888031908353273,3.938000000000102,5.0,-0.4226176351745939,0.6459598337573625,0.6042344144548489,2.0539458298548072,-0.0968475364272184,0.7356874959766545,0.7712187382994673,0.3407802184790478,0.43806189147585467,0.3117567635605473,3.938000000000102,6.0,-0.1505215730146154,0.3039544654829113,0.919812991303234,4.43342379328291,3.42316514627592,-2.6241414910033183,0.8383138073877576,0.3074004807726381,0.44345981167196047,-0.07796345423120994,3.938000000000102,7.0,0.0106198360371117,0.0209890078229747,0.980213079199187,-0.6042072548480336,-0.453607137091354,0.6639118004827725,0.9349206196355438,0.08721254290846978,-0.1575634262309184,0.3057632647230579,3.938000000000102,8.0,0.2454273789700392,-0.2168361877317494,0.9240722208474064,-0.4570864758466085,-0.9105765518702932,-0.3483656306234334,-0.11445781498976566,-0.3211829073319667,0.20095783309675122,-0.9183446509576959
