Timestamp,Ax,Ay,Az,Rx,Ry,Rz,EMG
0,-1.8315,-0.9895,0.5859,4.1313,2.6635,1.1236,1950
0,-0.2043,-2.0,0.9297,3.7137,4.1013,0.7104,2099
0,0.0684,-1.6538,0.2737,3.0869,3.5063,2.1838,2186
0,-1.1279,-1.1194,0.512,3.1056,2.7719,1.5737,2139
0,-0.3894,-1.3472,0.3909,3.581,2.7561,0.7247,2295
0,-0.0396,-1.4602,0.501,3.5553,2.7054,0.7416,1919
0,0.2241,-1.084,0.2632,3.6652,1.6313,0.6549,2246
0,0.7173,-1.7424,0.6489,3.1883,0.4352,0.9389,2151
0,0.4331,-1.0757,0.6445,3.9309,-0.695,-0.1257,1971
0,0.7078,-1.9905,0.6389,3.2287,0.3113,-0.7584,1868
0,-0.0674,-1.3291,0.1667,3.4031,0.0683,-1.2259,1811
0,0.2673,-1.5256,0.2053,3.2531,-0.0615,-1.5707,1947
0,0.4004,-1.8167,0.166,2.9124,-0.3646,-2.1418,1760
0,-0.0159,-1.1924,-0.3645,3.1258,-0.7689,-2.8191,1804
0,0.0518,-1.1951,-0.6655,3.3907,-0.8313,-4.0094,1983
0,0.3208,-1.3191,-0.6211,3.2099,-0.8569,-3.7881,1957
0,0.0869,-1.2249,-0.5942,2.8461,-0.3681,-3.4637,1877
0,-0.1199,-1.1736,-0.5449,2.7611,0.8733,-3.2614,2051
0,-0.488,-0.9758,-0.6169,2.8345,2.2595,-3.2843,2083
0,-0.647,-0.8071,-0.1274,2.487,2.7819,-3.3373,2223
0,-0.7222,-0.6843,-0.1042,2.2605,2.8538,-3.2681,2175
0,-0.636,-0.6572,-0.4114,2.145,2.9446,-3.1572,2074
0,-0.5396,-0.8765,-0.5554,2.0503,2.9352,-3.1657,2046
0,-0.8669,-0.9392,-0.4285,1.9779,2.5926,-2.7203,2085
0,-1.2004,-0.7922,-0.3213,1.6793,2.6999,-2.4647,2068
0,-1.1841,-0.8752,-0.4233,1.2793,2.7235,-2.6061,2048
0,-0.814,-0.9177,-0.7617,1.0232,2.6974,-2.4842,2068
0,-1.0598,-0.9663,-1.3323,1.061,2.93,-2.7213,2150
0,-1.4749,-0.8894,-1.5811,0.7124,3.1086,-2.1786,2110
0,-1.3481,-0.9839,-1.9226,0.2887,3.4998,-1.7064,2077
0,-1.6462,-0.9526,-1.7532,0.0072,3.381,-0.9151,2111
0,-1.9724,-0.5881,-1.4434,-0.0084,3.1424,-0.6411,2018
0,-2.0,-0.5989,-1.1152,-0.0662,2.5625,-0.433,2170
0,-1.6465,-0.8496,-0.9089,-0.5223,1.5926,-0.5673,2073
0,-1.2559,-0.6516,-0.7822,-0.7494,-0.3802,-0.649,2096
0,-1.2588,-0.5359,-0.843,-0.5625,-1.346,-0.7215,2123
0,-1.5527,-0.6787,-0.5032,-0.4518,-1.7038,-0.3962,1999
0,-1.4453,-0.7209,-0.1692,-0.4934,-1.955,0.0968,2009
0,-1.7844,-0.7449,-0.0959,-0.5016,-1.568,0.5823,1961
0,-1.8337,-0.9734,-0.1028,-0.5741,-0.2091,0.6927,1981
0,-1.4302,-0.9319,-0.2302,-0.49,0.8002,0.2605,2041
0,-0.5132,-0.9871,-0.427,-0.6195,1.2018,-0.1635,2045
0,0.0874,-0.9778,-0.5442,-0.6003,0.5398,-0.1582,2033
0,-0.2483,-1.0776,-0.6665,-0.7629,0.0217,0.1708,2015
0,-0.5535,-1.0002,-0.6921,-1.0653,-0.2337,0.4771,2013
0,-1.0981,-0.8948,-0.6018,-1.2047,0.0538,0.6689,2036
0,-1.5132,-0.7744,-0.531,-1.0475,0.8039,0.5345,2019
0,-1.219,-0.6172,-0.6357,-1.0384,1.0596,0.3432,2069
0,-0.894,-0.6379,-0.6216,-0.859,0.8086,0.218,2084
0,-0.6628,-0.4988,-0.3909,-0.4582,0.1736,0.0353,2074
0,-0.5369,-0.4709,-0.0571,-0.1442,-0.875,-0.1342,2097
0,-0.6445,-0.4321,0.2446,0.1056,-1.8004,-0.0477,2064
0,-0.8313,-0.4712,0.4314,0.1638,-2.1928,0.2998,2035
0,-1.1462,-0.5901,0.4456,0.0457,-1.812,0.5691,2022
0,-0.7483,-0.7324,0.2798,-0.2434,-1.0593,0.4163,2036
0,-0.2732,-0.6204,-0.1306,-0.2077,-0.5931,0.1811,2031
0,0.0002,-0.8145,-0.2798,-0.198,-0.4012,0.0996,2040
0,-0.5476,-0.8076,-0.4138,-0.2121,-0.1891,0.2641,2014
0,-0.6643,-0.8096,-0.5437,-0.229,0.3852,0.2272,2029
0,-0.7166,-0.8047,-0.686,-0.0325,0.651,0.157,2032
0,-0.6296,-0.7649,-0.6589,0.2446,0.6181,0.0292,2053
0,-0.4758,-0.676,-0.6455,0.4757,0.3886,-0.1369,2060
0,-0.4006,-1.0127,-0.4365,0.6014,0.3551,-0.1523,2098
0,-0.5166,-0.7852,-0.4468,0.6959,-0.177,-0.1007,2057
0,-0.2832,-0.9553,-0.1389,0.7977,-0.0517,-0.2037,2101
0,-0.5842,-0.834,0.0161,0.7291,-0.276,-0.0771,2045
0,-0.6074,-0.9856,-0.0076,0.5954,-0.3814,0.0166,2074
0,-0.74,-1.0608,-0.0071,0.4855,-0.3047,-0.0397,2021
0,-0.4116,-1.0051,-0.2883,0.3701,-0.3593,-0.4219,2027
0,-0.697,-0.9949,-0.4023,0.2706,0.3803,-0.4964,2046
0,-0.5835,-0.9365,-0.5156,0.1842,0.9682,-0.6288,2008
0,-0.614,-1.0166,-0.7974,0.018,1.3897,-0.6693,2037
0,-0.7222,-1.0706,-0.8535,-0.1924,1.6771,-0.6517,2069
0,-0.8582,-1.0493,-0.9319,-0.3143,1.6628,-0.6119,2016
0,-0.9705,-1.062,-0.8772,-0.339,1.423,-0.5385,2037
0,-1.0425,-1.0422,-0.873,-0.3133,1.1607,-0.5046,2028
0,-0.9829,-0.8989,-0.8237,-0.2029,1.0086,-0.5473,2067
0,-0.9504,-0.8625,-0.6611,-0.2188,0.9194,-0.5076,2053
0,-1.0481,-0.6758,-0.5322,-0.1599,0.4827,-0.3043,2065
0,-1.0417,-0.9766,-0.2712,-0.1878,0.0955,-0.0835,2070
0,-1.0906,-1.2021,-0.168,-0.3852,0.0502,-0.0972,2034
0,-0.9316,-1.1523,-0.2534,-0.5335,0.245,-0.1099,2063
0,-0.283,-1.8535,-0.1208,-0.5192,0.5839,-0.3209,2069
0,-0.8115,-1.0654,-0.7261,-0.6605,0.8348,-0.0265,2014
0,-0.7566,-1.0962,-0.8496,-0.8921,1.3316,0.037,2013
0,-0.7891,-1.0754,-1.0068,-1.0776,1.4342,0.1274,2069
0,-0.8269,-1.0896,-0.9512,-1.1256,1.4296,0.2883,2034
0,-0.9231,-1.032,-0.7898,-1.118,1.3645,0.3265,2051
0,-0.8467,-0.9763,-0.7639,-1.0873,0.9509,0.2578,2073
0,-0.6558,-0.8047,-0.5667,-0.836,0.5034,0.1,2042
0,-0.7136,-0.7007,-0.6218,-0.6448,-0.0394,0.053,2039
0,-0.6914,-0.7791,-0.436,-0.4401,-0.5576,0.0384,1999
0,-0.6252,-1.0964,-0.2278,-0.4284,-0.8561,0.0358,2056
0,-0.1191,-1.6931,0.0969,-0.5004,-0.9804,-0.167,2115
0,-0.0759,-1.5713,0.0627,-0.6038,-0.9423,-0.2188,2055
0,-0.2026,-1.2803,-0.4456,-0.9018,-1.2773,-0.3538,2048
0,-0.5781,-0.9924,-0.5249,-1.4908,-1.76,-0.1432,2047
0,-0.8027,-0.9209,-0.9978,-1.2423,-0.599,0.0494,2063
0,-0.7656,-0.8838,-1.0349,-1.0552,0.7621,0.2354,2025
0,-1.5017,0.0146,-1.4253,-0.8516,1.4331,0.2936,2110
0,-0.6162,-0.8098,-0.7473,-0.8272,1.6243,0.618,2036
0,-0.2727,-1.2344,-0.583,-0.5365,1.178,0.4193,2040
0,-1.2385,-0.478,-0.6672,-0.3567,1.2593,0.3354,2065
1,-1.0874,-0.9768,-0.4937,-0.3717,1.6439,0.0703,1964
1,-0.6978,-0.9412,-0.5935,-0.6833,1.2003,-0.3317,2156
1,-0.2424,-1.0054,-0.3311,-0.6128,0.7617,-0.3207,2103
1,-0.1631,-0.8923,-0.405,-0.913,-0.8064,-0.4626,1976
1,-0.1714,-1.1294,-0.593,-1.1062,-1.9152,-0.2518,2024
1,-0.2915,-1.1633,-0.8977,-1.1332,-2.8405,-0.027,2116
1,-0.5154,-0.7969,-0.6589,-1.6261,-3.7025,0.1349,1891
1,-1.0647,-0.2744,-0.7876,-1.375,-2.7883,0.0848,1996
1,-1.187,-0.7859,-1.095,-0.5315,-1.3428,-0.0033,2114
1,-0.8643,-0.8032,-0.813,-0.6449,-0.3454,-0.2095,2110
1,-0.7036,-0.8967,-0.6008,-0.4825,-0.118,-0.2306,2025
1,-0.7124,-0.8848,-0.571,-0.3747,-0.1778,-0.2484,2029
1,-0.5725,-1.2476,-0.5957,-0.3502,-0.801,-0.3256,2064
1,-0.6624,-1.1316,-0.5188,-0.3476,-1.6049,-0.2207,1983
1,-0.3899,-0.9819,-0.384,-0.4304,-2.1196,-0.1707,2054
1,-0.521,-0.9575,-0.426,-0.4514,-2.0798,-0.1378,2085
1,-0.6333,-0.8447,-0.4951,-0.7742,-2.4824,-0.2513,2010
1,-0.9414,-0.802,-0.7129,-0.911,-2.55,-0.0368,2009
1,-1.2288,-0.7456,-0.9258,-0.5185,-1.7229,-0.0675,1885
1,-1.0898,-0.7495,-0.9636,-0.4501,-0.9493,0.0481,1932
1,-1.0293,-0.582,-0.9001,-0.1115,-0.2804,0.2262,2105
1,-0.7681,-0.7266,-0.8804,0.0115,-0.1056,0.3755,2249
1,-1.1028,-0.5364,-0.7222,0.1754,-0.6401,0.6826,1909
1,-0.7349,-0.7002,-0.6807,0.0856,-0.5685,0.7656,1995
1,-0.8672,-0.947,-0.5461,0.1586,-0.9756,0.9116,1992
1,-0.9451,-1.3008,-0.5535,0.0075,-0.9549,1.0565,2145
1,-1.2488,-0.9719,-0.6123,0.0887,-0.4131,0.4376,1948
1,-0.8403,-0.5811,-0.4465,0.1238,-0.3364,0.439,2086
1,-0.9976,0.1523,-0.5073,0.3372,-0.3049,0.3867,2144
1,-0.4824,0.0073,-0.5432,0.6679,-0.6815,0.7168,1948
1,-0.5376,-0.6387,-0.7334,0.5975,-1.3138,1.4989,1909
1,-0.8914,-1.0671,-0.8762,0.6819,-0.7395,1.1005,1864
1,-1.0999,-1.0513,-0.9282,0.4894,-0.2449,0.7016,2116
1,-1.1045,-0.3896,-0.9614,0.505,0.0437,0.4051,2146
1,-0.6689,-0.228,-0.8164,0.4579,0.0708,0.6368,2086
1,-0.738,-0.1089,-0.9915,0.2393,-0.5172,0.7159,2079
1,-0.5188,-0.0391,-0.9248,0.1948,-0.8387,0.5802,1808
1,-0.4666,-0.6814,-0.7937,-0.0166,-1.2284,0.7668,2187
1,-0.6216,-1.0986,-0.9749,-0.0059,-0.9533,0.7019,1936
1,-0.3123,-1.677,-0.7327,-0.0711,-0.6564,0.8224,2073
1,-0.49,-1.6941,-0.7136,-0.2654,-0.4754,0.8011,2075
1,-0.6658,-1.1497,-0.7837,-0.5019,-0.2711,0.919,2128
1,-0.7952,-0.7131,-0.5999,-0.3088,0.2571,0.9676,2107
1,-0.7742,-0.1377,-0.71,0.0208,0.4894,0.8722,1970
1,-0.3877,0.1067,-0.5371,0.4065,0.618,0.6841,2100
1,-0.5728,0.426,-0.6204,0.5923,0.8646,0.6881,2110
1,-0.3943,0.2937,-0.572,0.7364,0.7289,0.4734,2167
1,-0.6838,0.4907,-0.772,0.7646,0.597,0.2444,1867
1,-0.5254,0.8535,-0.8259,0.6863,-0.2064,-0.1673,1965
1,-0.8125,0.9128,-0.7664,0.5366,-0.7457,-0.5803,2038
1,-1.1028,0.8999,-0.8862,0.6328,-1.3319,-1.0935,2121
1,-1.126,0.5063,-0.8682,0.5207,-1.8911,-1.3053,2115
1,-1.2444,0.3528,-0.8787,-0.0238,-2.2134,-1.6384,1879
1,-1.6194,-0.0005,-0.9907,-0.477,-1.8702,-1.0909,2132
1,-1.489,-0.0913,-0.8806,-0.9022,-0.9572,-0.9982,2005
1,-0.9297,-0.2664,-0.7856,-1.025,-0.4533,-1.0911,2135
1,-0.5879,-0.2253,-0.5813,-0.9673,-0.3148,-1.0021,2125
1,-0.5464,-0.2935,-0.3943,-0.8361,-0.178,-0.8214,1760
1,-0.4324,-0.4358,-0.2593,-0.6819,-0.0985,-0.6554,2290
1,-0.6196,-0.4814,-0.2388,-0.4725,0.0842,-0.4121,2119
1,-0.905,-0.2737,-0.0303,-0.0055,0.4678,-0.4746,1950
1,-1.0037,-0.2957,-0.0732,0.2208,1.0453,-0.638,2022
1,-1.1492,-0.2642,-0.1919,0.5657,1.4837,-0.2157,1931
1,-1.3738,-0.1194,-0.1624,1.0543,1.585,0.0996,2096
1,-1.2307,-0.1838,-0.4336,1.0401,1.5466,0.4304,2090
1,-1.2878,-0.0525,-0.4897,1.0766,1.2564,0.5878,2017
1,-1.4668,0.2114,-0.365,1.0929,0.8669,0.5984,2146
1,-1.4407,0.2651,-0.4175,0.983,0.6837,0.8689,2010
1,-1.3853,0.1292,-0.4448,0.6106,0.5335,0.9653,2166
1,-1.3413,-0.0513,-0.4258,0.2784,0.2641,0.7998,2057
1,-1.2449,0.0359,-0.3411,-0.1898,0.0796,0.2385,2031
1,-1.2021,0.0962,-0.2354,-0.3759,0.0453,-0.2428,2099
1,-1.1772,0.2029,-0.2319,-0.5082,-0.035,-0.6674,2057
1,-1.0645,0.2915,-0.1519,-0.4354,0.092,-1.0496,2058
1,-1.1689,0.1907,0.0579,-0.047,0.1799,-1.156,2060
1,-1.2444,-0.0332,-0.0903,0.2666,0.4326,-1.0314,2055
1,-1.1472,-0.0227,-0.0894,0.5697,0.7307,-0.9967,2105
1,-1.1213,-0.156,-0.0864,0.8228,0.9825,-0.8907,2018
1,-1.0466,0.0586,-0.3274,1.1399,1.2242,-0.9309,2036
1,-1.0159,0.2849,-0.5452,1.4286,1.3376,-0.9617,2028
1,-1.0913,0.4773,-0.584,1.707,1.7318,-0.9654,2035
1,-1.1938,0.5195,-0.573,1.7562,1.7531,-0.7845,2041
1,-1.0742,0.6487,-0.6653,1.9303,1.4992,-0.62,2047
1,-1.0312,0.634,-0.668,2.0176,1.328,-0.7771,2046
1,-0.7534,0.5059,-0.6384,1.9246,0.5906,-0.5425,2033
1,-0.8374,0.625,-0.5713,1.7711,-0.7617,-0.2352,2037
1,-0.6548,0.7288,-0.7876,1.1737,-1.375,-0.1338,2081
1,-0.5215,0.6736,-1.1465,0.5132,-1.2825,-0.1008,2054
1,-0.677,0.8784,-1.3577,0.4801,-1.5448,-0.5047,2060
1,-0.5332,0.8655,-1.4814,0.4707,-3.0879,-1.0644,1954
1,-0.2788,0.5842,-1.2942,0.4038,-4.2209,-1.558,1997
1,-0.3748,-0.0676,-1.3228,-0.5734,-4.3635,-0.9151,2094
1,-0.6221,-0.4197,-1.2871,-0.8084,-4.3635,-0.4787,2047
1,-0.7703,-0.146,-0.9231,-1.0266,-4.3635,-1.0026,2037
1,-0.6973,-0.0859,-0.833,-1.301,-4.3635,-1.2087,2017
1,-0.8196,-0.418,-1.0718,-1.3271,-4.3635,-1.0318,2115
1,-1.1045,-0.7971,-0.9526,-1.4146,-4.3635,-0.6855,2015
1,-1.2483,-0.9561,-0.7336,-1.6898,-4.3635,-0.897,1994
1,-0.9353,-0.8855,-0.5549,-1.9892,-4.3635,-1.0492,1997
1,-0.9011,-1.0022,-0.5178,-2.1832,-4.3635,-0.8741,2000
1,-0.946,-0.9976,-0.6533,-2.1453,-4.3635,-0.8192,1964
1,-0.7744,-1.2261,-0.8931,-2.3704,-4.3635,0.4992,2140
2,-0.5984,-1.0562,-0.2686,-1.6193,-4.3635,-0.4918,2060
2,-2.0,-0.532,-0.6975,-1.9337,-4.3635,0.7168,2066
2,-1.8582,-1.6216,-1.1848,-2.0671,-4.3635,1.0295,2058
2,-1.7917,-1.4407,-0.9463,-2.2515,-4.3635,1.3372,2023
2,-1.1562,-1.3718,-0.6187,-2.1933,-4.3635,1.2837,2140
2,-1.0972,-1.8298,-0.8647,-2.4866,-4.0859,1.266,2074
2,-0.9565,-1.4087,-0.7827,-2.3515,-3.4961,1.242,2225
2,-0.9841,-1.1482,-0.8625,-1.3118,-3.5829,1.5174,2139
2,-1.127,-1.2554,-0.9373,-0.6889,-3.1164,2.1007,1971
2,-1.3154,-1.5222,-0.7732,-0.2353,-2.7647,2.6755,2224
2,-1.7468,-1.8552,-0.4207,-0.2221,-2.5671,2.8893,2109
2,-1.7061,-1.8936,-0.3423,-0.1149,-1.9005,2.7337,2034
2,-1.3411,-1.9458,-0.3713,0.0196,-0.9179,3.1323,2083
2,-0.2849,-2.0,-0.114,-0.1457,0.1808,3.4159,1792
2,0.2786,-2.0,-0.1196,-0.2868,-0.4974,3.4324,2318
2,0.4956,-1.5159,0.0068,0.096,-1.5328,2.8176,2464
2,-1.2654,-0.7302,0.1599,1.0926,-1.7847,3.1016,2006
2,-1.7234,-0.6763,0.51,2.124,0.6228,2.4537,1944
2,-1.5164,-0.9543,0.5032,2.6047,2.2515,1.7045,1890
2,-0.9214,-0.9832,0.5374,3.1026,3.6174,1.3395,2099
2,-0.5696,-0.8337,0.5652,3.7705,4.2552,0.9235,2053
2,0.0496,-1.4314,0.6851,3.5161,4.2483,1.1228,1988
2,-0.4561,-1.4465,0.5608,3.2573,4.3634,1.2865,1947
2,-1.3521,-1.144,0.762,3.837,4.2128,0.7433,2121
2,-0.4604,-1.5393,0.8401,4.1239,4.3634,0.3185,2290
2,0.0146,-1.5923,1.3047,4.0954,4.2746,-0.2226,2124
2,0.0708,-1.9988,1.2141,3.5941,3.2198,-0.4324,2143
2,0.3652,-1.7017,1.1809,3.5318,2.4321,-0.7636,2062
2,0.426,-2.0,0.6975,2.5566,1.1168,-0.4316,2004
2,-0.6604,-1.0928,0.0713,2.6144,0.1116,-0.5006,1997
2,-0.1592,-1.6538,-0.0242,2.4187,0.1035,-0.8159,1976
2,-0.2036,-1.1453,0.0847,2.4543,-0.1424,-0.5916,2118
2,-0.3694,-1.0598,0.0647,2.6649,-0.1607,-0.8945,2079
2,-0.3794,-0.8643,0.0579,2.9356,-0.2195,-1.2593,2010
2,-0.1052,-0.9148,0.0056,2.8986,-0.2956,-1.4792,2010
2,-0.2666,-0.9521,-0.3943,2.8813,0.0498,-1.8804,1884
2,-0.2827,-0.9541,-0.2854,2.7978,-0.09,-2.1848,2020
2,0.011,-1.0083,-0.3247,2.4346,-0.1047,-2.5313,1995
2,-0.0369,-1.0427,-0.3657,2.3412,0.2768,-2.8581,2120
2,0.0852,-1.073,-0.1953,2.2989,0.8371,-3.0051,2111
2,-0.0107,-1.1277,-0.0779,2.3213,1.4258,-3.107,2109
2,-0.1497,-0.8376,-0.3223,2.0744,1.9716,-3.1331,2075
2,-0.2532,-1.0505,-0.2163,2.0335,2.3096,-3.3139,2063
2,-0.0598,-1.1714,-0.4719,1.7426,1.8093,-3.3853,2079
2,-0.4006,-1.1057,-0.7893,1.2069,1.7058,-3.0873,2119
2,-1.1685,-1.022,-1.176,0.4759,2.19,-2.4972,2033
2,-1.5342,-1.0613,-1.4868,-0.3521,3.3728,-1.8759,1963
2,-1.5171,-0.7385,-1.241,-0.7269,3.4212,-1.2298,1902
2,-2.0,-0.8027,-0.9385,-0.4923,2.0722,-0.3968,1984
2,-2.0,-0.9209,-0.9055,-0.2854,0.7735,0.0481,2129
2,-2.0,-0.9077,-0.8049,0.1723,-0.4948,0.0975,2129
2,-1.7078,-0.9856,-0.7083,0.5257,-1.0493,-0.3163,2125
2,-1.5137,-0.9819,-0.5464,0.6899,-0.8529,-0.4587,2164
2,-1.5681,-1.0417,-0.4561,0.3229,-0.2328,-0.0123,2034
2,-1.3745,-1.1501,-0.4575,-0.2421,0.7632,0.2725,2013
2,-1.1277,-1.2637,-0.6265,-0.7789,1.8325,0.2892,2010
2,-1.1641,-1.3123,-0.8425,-1.4412,2.9578,0.4705,1961
2,-1.0972,-1.241,-0.9932,-2.0026,3.3128,0.6253,2032
2,-1.5479,-1.1926,-1.1099,-1.9656,3.3689,0.5667,1995
2,-0.7893,-0.9072,-0.7705,-1.7994,2.4011,1.3283,2054
2,-0.4155,-0.8567,-0.4375,-1.6804,1.2307,2.1112,2064
2,-1.0354,-0.9417,-0.5591,-1.2288,0.3812,1.8206,2130
2,-0.5745,-0.749,-0.3145,-0.816,-0.1344,1.3652,2222
2,-0.5913,-1.0679,-0.0935,-0.6177,-0.5881,0.3095,2060
2,-0.4077,-0.9514,0.0793,-0.4256,-0.0418,0.0266,2056
2,-0.3799,-0.9136,0.1965,-0.9468,-0.1973,-0.7064,2014
2,-0.2229,-1.2522,0.4602,-1.3474,-0.0216,-0.8411,2066
2,-0.3848,-1.0959,0.0728,-1.5237,0.3951,-0.8143,2028
2,-0.4438,-1.2739,-0.1626,-2.0509,0.3449,-0.9556,2090
2,-0.5715,-0.8645,-0.6125,-1.4938,0.6955,-0.4826,2130
2,-0.9504,-0.8569,-0.2881,-0.8653,0.6151,0.2242,2054
2,-1.1448,-1.0996,-0.0713,-0.4658,0.1465,0.5928,2159
2,-1.3665,-1.0415,0.1248,-0.803,-0.4623,0.1531,1936
2,-1.3191,-1.3997,0.3035,-0.5675,-0.1609,-0.5039,1998
2,-0.7297,-1.4194,0.6094,-0.4962,-0.932,-0.9309,2110
2,-1.0876,-1.7891,0.26,-0.141,-0.8866,-1.2131,1923
2,-0.6934,-1.3494,0.2883,-0.6424,-0.8684,-0.8453,2039
2,-0.5012,-1.2732,0.2114,-0.4438,-1.1284,-0.9042,2120
2,-0.7034,-1.0806,-0.1125,-0.3449,-1.531,-0.5635,2008
2,-0.7656,-0.9104,-0.125,-0.259,-1.4351,-0.4374,2060
2,-1.0388,-1.2847,-0.3218,-0.1366,-1.388,-0.2265,2163
2,-1.4436,-1.1365,-0.4668,-0.2163,-0.8384,-0.1055,2053
2,-0.9817,-1.1553,-0.5615,-0.1063,-0.5289,0.0846,2128
2,-0.9736,-1.7314,-0.1526,-0.536,-0.3919,0.6735,2128
2,-1.2903,-1.0083,-0.3306,-0.291,0.0447,-0.0292,1967
2,-0.4485,-1.4573,-0.2261,0.0832,-0.0795,0.1055,2119
2,-0.9155,-1.1235,-0.3057,0.1542,-0.3173,0.339,2069
2,-0.2878,-1.4341,-0.1538,0.2266,-0.0433,0.5213,2179
2,-1.0461,-0.9744,-0.4365,0.4725,0.0559,0.8425,1922
2,-0.3855,-1.1223,-0.3884,0.7781,0.4237,0.4595,2201
2,-0.8447,-0.9929,-0.8103,0.7079,0.4859,1.0974,1999
2,-0.5442,-0.9758,-0.7878,0.8257,0.6633,0.624,2064
2,-0.7393,-0.5344,-1.0129,0.6245,0.7614,1.0724,2121
2,-0.7693,-0.781,-1.106,0.5585,1.0532,1.374,1926
2,-0.9553,-0.9412,-0.9802,0.3538,1.4484,1.8664,1966
2,-0.8689,-1.1057,-1.145,0.1758,1.7761,1.8362,2083
2,-0.792,-0.5891,-0.896,0.0682,1.8672,1.5916,2082
2,-0.1682,-0.6074,-0.8169,0.2017,1.2552,1.5189,1832
2,-0.5291,-0.6118,-1.0266,0.5645,0.3187,1.4595,2125
2,-0.1819,-0.7837,-0.6443,0.5769,-0.0742,1.3597,1867
2,-0.4885,-0.5662,-0.844,0.6138,-0.2998,1.4143,2156
3,-0.7029,-0.5042,-0.9517,0.7283,-0.4149,1.1837,2177
3,-0.1924,-0.2939,-1.2302,0.7522,-0.4727,0.9399,2060
3,-0.6709,-0.5679,-1.2773,0.8003,-0.3808,0.901,2103
3,-0.9292,-0.301,-1.259,0.5861,-0.1185,0.2032,2151
3,-0.824,-0.176,-1.1956,0.7476,0.6083,0.1286,2277
3,-0.5505,-0.0449,-1.2346,0.4674,0.2751,0.0085,1742
3,-0.5483,-0.082,-1.1973,0.6159,0.5185,0.5497,2006
3,-0.5215,0.3013,-1.1729,0.6508,0.3858,0.6308,2078
3,-0.7693,-0.3696,-1.0403,0.6946,0.4402,1.0294,2147
3,-0.9954,-0.3264,-0.9111,0.7664,0.8315,1.1095,1653
3,-0.9048,-0.3779,-0.894,1.1362,1.0756,1.0484,2316
3,-0.9431,-0.4573,-0.7749,1.4049,1.6283,1.0445,2176
3,-0.9509,0.0015,-0.7576,1.6368,1.8056,0.9847,2001
3,-0.7363,0.1738,-0.6421,1.9821,1.6167,1.4181,1952
3,-1.0149,0.3054,-0.6438,2.3404,1.802,1.8227,2097
3,-1.2319,0.4111,-0.9192,2.4049,1.8519,2.1341,2165
3,-1.0698,0.1428,-1.1831,2.3738,1.5045,2.2923,1639
3,-0.6763,-0.4233,-1.0413,2.4334,1.4363,2.1535,2278
3,-0.3367,0.3455,-1.1023,2.2895,0.6422,1.8564,2148
3,-0.7417,0.6948,-1.2732,2.0774,-0.0931,2.2164,2153
3,-0.6628,0.6721,-0.8516,2.3156,-0.1903,1.8389,2373
3,-1.0144,0.8875,-1.312,2.2407,-0.4697,1.8148,2283
3,-1.0632,0.6418,-0.8926,2.1226,-0.2373,2.1931,1909
3,-1.136,0.9133,-0.7859,2.0723,-0.2602,2.3493,2121
3,-1.3081,1.0508,-0.6335,1.9338,-0.123,2.1897,2102
3,-1.1169,0.9797,-0.3372,1.8193,-0.1037,2.0571,1450
3,-1.2109,1.1545,-0.2209,1.633,-0.2253,1.9417,2157
3,-1.0479,1.0857,-0.2324,1.1923,-0.3642,1.5494,2070
3,-0.8755,1.033,-0.1484,0.7658,-0.5962,1.0693,1952
3,-1.0774,1.1655,-0.2041,0.4112,-0.5486,0.8741,1810
3,-1.0984,1.0173,-0.1875,0.2083,-0.4436,0.62,1987
3,-0.9766,0.8508,-0.1631,0.1541,-0.4252,0.2966,2045
3,-0.9907,0.687,-0.228,-0.1458,-0.2935,0.0193,1979
3,-0.7341,0.5354,-0.1855,-0.3059,-0.4396,-0.275,2091
3,-0.7805,0.1743,-0.4216,-0.5433,-0.5602,-0.6935,1984
3,-0.9712,0.1697,-0.6519,-0.8791,-0.7445,-0.7525,2003
3,-0.8479,0.0647,-0.1917,-0.4373,-0.5344,-0.8516,2002
3,-0.9417,-0.1919,-0.6072,-0.2928,-0.3799,-0.869,1953
3,-0.9729,-0.303,-0.3354,-0.0649,-0.055,-0.897,2282
3,-0.8479,-0.311,-0.3467,0.2798,0.0739,-0.9444,1867
3,-0.884,-0.292,-0.2119,0.6414,0.0132,-0.9415,1982
3,-0.9148,-0.3931,-0.3008,0.8293,0.0659,-1.1789,2247
3,-0.9016,-0.2783,-0.4121,0.848,0.0409,-1.5218,1968
3,-0.9851,-0.2402,-0.3904,0.9562,0.0265,-1.6815,2090
3,-1.0354,-0.1799,-0.6038,0.9927,0.1919,-1.7855,2053
3,-1.0493,0.054,-0.6074,0.822,0.4766,-1.8582,1951
3,-0.9399,0.0732,-0.6125,0.5932,0.6119,-1.9204,2085
3,-0.9104,0.2407,-0.541,0.4008,0.2976,-1.8967,1985
3,-0.896,0.4302,-0.3711,0.3743,-0.1089,-1.9307,2006
3,-0.9739,0.3997,-0.3381,0.3674,-0.2699,-1.8947,1955
3,-1.0149,0.4548,-0.2178,0.3682,-0.038,-1.8563,2016
3,-1.1038,0.4595,-0.1406,0.495,0.2543,-1.8543,2001
3,-1.3362,0.5312,-0.2944,0.6349,0.7978,-1.8101,2061
3,-0.7139,0.3855,-0.3843,0.2445,0.8895,-1.323,2059
3,-0.9949,0.6917,-0.6152,0.6825,0.9901,-1.6298,2067
3,-0.8198,0.7385,-0.8677,1.1147,0.1408,-1.5197,2060
3,-0.5786,0.7141,-0.7085,1.0128,0.1502,-1.3601,2050
3,-0.5637,0.6101,-0.8271,0.8644,0.0301,-1.2543,2035
3,-0.4585,0.4839,-0.7888,0.4216,-0.7522,-1.1202,2063
3,-0.3206,0.5842,-0.9233,-0.2428,-1.6254,-1.1838,2082
3,-0.6201,0.6365,-1.1074,-0.5281,-1.5233,-1.2291,2072
3,-0.5559,0.3323,-1.2366,-0.6273,-2.6919,-1.6355,2043
3,-0.4568,0.052,-1.6006,-0.9842,-4.1453,-1.3858,2100
3,-0.5374,0.0972,-1.9395,-1.7567,-4.3635,-1.6863,2060
3,-0.2427,-0.0002,-1.9702,-2.4218,-4.3635,-1.8628,2074
3,-0.1262,-0.3635,-1.7217,-3.4109,-4.3635,-1.5914,2036
3,-0.5491,-0.1763,-1.2856,-4.3635,-4.3635,-2.0489,1963
3,-0.4795,0.2642,-1.2336,-4.3635,-4.3635,-2.7316,2070
3,-0.0981,-0.0969,-1.1365,-4.3635,-4.3635,-2.4682,2001
3,-0.3442,0.0325,-0.8577,-4.3635,-4.3635,-2.596,1956
3,-0.5144,-0.0115,-0.8582,-3.9004,-4.3635,-2.3595,1973
3,-0.8533,-0.4705,-0.8003,-3.2263,-4.3635,-1.2145,2048
3,-1.0039,-0.7576,-1.0378,-2.7103,-4.3635,-0.7273,2149
3,-1.2954,-1.1418,-0.9736,-2.7264,-4.3635,0.3349,2157
3,-1.1833,-1.3599,-0.8958,-3.654,-4.3635,0.2835,1953
3,-1.5398,-0.6882,-0.9023,-4.2024,-4.3635,0.0372,2006
3,-1.4785,-0.3716,-0.77,-4.3635,-4.3635,-0.2927,2165
3,-1.6511,-0.7708,-1.02,-4.0171,-4.3635,-0.002,2052
3,-1.7354,-1.2476,-0.998,-3.6279,-4.3635,-0.0134,2017
3,-1.5371,-1.377,-1.0215,-3.1598,-4.3635,0.0674,2090
3,-1.4817,-1.3062,-1.0398,-2.8601,-4.3635,0.1919,2068
3,-1.2188,-1.4561,-0.8408,-2.5535,-4.3165,0.2641,2063
3,-1.3491,-1.3257,-0.8972,-2.213,-4.2941,0.3859,2312
3,-1.3704,-1.3503,-1.0962,-1.4873,-4.1145,-0.0168,1959
3,-1.1099,-1.5591,-0.9631,-0.8136,-4.1369,0.0258,1994
3,-1.0132,-1.6396,-1.0725,-0.1545,-3.6217,0.4504,2189
3,-0.7979,-1.8557,-0.9089,0.3184,-3.2429,1.0003,1918
3,-0.7432,-2.0,-0.5732,0.5881,-3.1678,1.7696,2101
3,-0.9702,-2.0,-0.4053,0.4641,-2.9897,2.3951,2206
3,-1.2688,-2.0,-0.2883,0.4216,-1.9815,2.8873,1983
3,-1.5903,-2.0,-0.0891,-0.7484,0.0747,4.3634,1734
3,0.5103,-2.0,0.0886,1.2399,1.4295,1.9663,2197
3,0.4963,-2.0,0.3457,0.4851,0.6811,4.2469,2139
3,-0.4265,-0.8572,-0.134,1.5656,0.7905,4.1686,2359
3,-1.4077,-0.8694,0.8621,2.6219,1.048,4.1012,2291
3,-1.5361,-0.6975,0.7952,2.9934,1.8828,3.7617,1982
3,-0.9976,-0.7551,0.9089,3.4114,3.2828,3.199,1960
3,-1.8767,-0.9553,0.8857,3.342,3.7495,3.28,2043
3,-1.6565,-0.5039,0.8591,3.3082,4.3634,2.5963,2153
3,-1.0481,-0.679,0.9905,3.9528,4.3634,2.2936,2075
3,-0.7017,-1.2476,1.0713,3.8267,4.3634,2.2862,2197
3,-0.1182,-1.1396,1.4065,4.1395,4.3634,2.2597,2281
3,-1.2136,-1.2292,1.2856,4.3634,4.3634,0.8279,1702
3,0.168,-2.0,0.9231,4.3634,4.1526,0.7894,2175
4,-0.2021,-2.0,1.3828,4.1737,2.9793,-0.1031,1958
4,0.9209,-2.0,0.9917,4.0831,1.4217,0.4631,2032
4,0.8396,-2.0,1.6123,3.3188,-0.0084,0.0366,1959
4,-0.6013,-1.2856,0.6472,3.4908,-0.7833,-1.028,1965
4,0.2058,-1.8303,0.4399,3.2756,-0.7416,-0.1936,1965
4,-0.1077,-1.5864,0.4517,3.2622,-0.8343,-0.2511,2002
4,0.115,-1.718,0.4888,3.603,-0.8506,-0.1872,2020
4,0.1909,-1.6194,0.1169,3.4965,-1.5464,-0.5177,1997
4,0.2683,-1.4036,-0.0398,3.6852,-1.347,-1.4755,1945
4,0.4915,-1.603,-0.1572,3.3339,-1.5948,-2.1823,1991
4,0.2627,-1.4043,-0.2476,2.9729,-2.0454,-2.8646,2020
4,0.1553,-1.3428,-0.3027,2.543,-1.8923,-3.3758,2063
4,-0.1511,-1.0828,-0.6851,2.4554,-1.2126,-3.7403,2025
4,-0.1914,-1.033,-0.7502,2.3489,-0.5268,-3.7312,2084
4,-0.4749,-1.0391,-0.7319,2.1639,-0.3598,-3.4878,2137
4,-0.7419,-1.2295,-0.6497,1.8622,-0.2751,-3.2969,2170
4,-0.8416,-1.2642,-0.7268,1.4536,-0.3733,-3.0751,2144
4,-0.4478,-1.0403,-0.5442,0.4968,-0.4777,-3.0351,2076
4,-0.9788,-1.1267,-0.8093,0.4682,-1.6113,-3.5981,2016
4,-1.5054,-1.0515,-0.95,0.0459,-2.5301,-3.4402,2051
4,-2.0,-0.323,-1.2588,-0.3875,-1.695,-1.9439,2121
4,-2.0,-0.3396,-1.4241,-0.8228,-0.9688,-0.8176,2101
4,-2.0,-0.7571,-1.7458,-0.6426,1.3039,-0.7669,2055
4,-1.8269,-0.6121,-0.9355,-0.4919,3.1953,-0.9013,2006
4,-1.9075,-0.5706,-0.5911,-0.0854,3.3339,-0.4626,2019
4,-1.7976,-0.7114,-0.5183,-0.155,2.8569,-0.2338,2114
4,-1.3018,-0.9067,-0.011,0.051,2.1339,-0.3662,2122
4,-1.3899,-1.0078,0.2717,-0.2045,1.0865,-0.0011,2132
4,-1.4526,-1.1633,0.1665,-0.5052,0.8999,0.4215,1788
4,-1.3386,-1.1377,0.0215,-0.7673,1.3226,0.8195,2088
4,-0.9924,-1.092,-0.1541,-0.819,1.816,1.1268,2134
4,-1.0269,-1.2339,-0.2351,-0.8532,2.035,1.0967,2055
4,-1.3733,-1.0125,-0.4377,-0.9753,2.0831,1.2234,1996
4,-1.5107,-0.7109,-0.5957,-1.4055,2.2941,1.5953,2099
4,-1.042,-0.4382,-0.5076,-1.3549,1.7587,1.5045,2014
4,-0.8662,-0.5771,-0.3513,-1.134,1.0833,1.3189,1973
4,-0.8391,-0.8501,-0.1121,-1.0557,0.4838,1.1363,2057
4,-0.7527,-1.1973,-0.1316,-0.9046,0.4141,0.916,2024
4,-0.5845,-1.3479,-0.0574,-0.5333,0.9262,0.5622,2052
4,-0.5664,-1.0569,0.2207,-0.3207,1.6824,0.4754,2047
4,-0.75,-0.894,0.3538,-0.1206,1.7747,0.405,2114
4,-0.9001,-0.875,0.5298,-0.1701,1.7932,0.3333,1993
4,-0.6763,-0.8315,0.5945,-0.2253,1.708,0.2131,2056
4,-0.8362,-1.1355,0.4412,0.0123,1.0678,-0.0282,2052
4,-0.7568,-1.2266,0.301,-0.6771,0.7317,-0.0501,2082
4,-1.135,-0.957,-0.3708,-0.9074,0.8795,0.4259,2002
4,-1.0212,-0.7812,-0.3687,-0.7239,0.8965,0.3344,2108
4,-0.9768,-0.7983,-0.2822,-0.3787,1.1006,0.2715,1999
4,-0.5471,-0.6997,0.0391,-0.189,1.2207,-0.1459,2011
4,-0.6038,-1.0171,0.2932,0.2585,1.0537,-0.3589,2103
4,-0.8613,-1.3008,0.438,0.1334,0.8653,-0.497,2046
4,-1.0071,-1.1995,0.2227,-0.0635,0.8787,-0.3219,2009
4,-1.0078,-1.3022,0.1753,-0.2582,0.5616,-0.0883,1988
4,-1.283,-1.1646,0.1687,-0.3647,0.4277,-0.3883,2032
4,-1.3145,-1.2312,-0.2031,-0.5898,0.1763,-0.2599,2032
4,-1.2393,-0.8564,-0.4138,-0.8317,0.296,-0.1561,1998
4,-1.0432,-0.6467,-0.5015,-0.6385,-0.0023,0.1894,2114
4,-0.9241,-1.0791,-0.2065,-0.4999,-0.9967,-0.0148,2004
4,-0.8718,-1.5281,-0.0774,-0.6167,-1.5878,-0.3864,2051
4,-0.7683,-1.5376,0.0198,-0.7227,-1.6536,-0.8259,2046
4,-0.8257,-1.2495,-0.1877,-0.7066,-1.2953,-0.8407,2170
4,-0.8835,-0.957,-0.1997,-0.3382,-0.9846,-0.7721,1981
4,-1.0781,-1.0496,-0.3662,-0.1529,-0.2434,-0.1129,2069
4,-1.0818,-1.0046,-0.2498,-0.1498,0.3321,0.1617,2039
4,-1.1477,-0.9238,-0.3162,0.267,0.3165,0.385,2143
4,-0.7056,-1.1123,-0.252,0.3541,-0.3095,0.3641,2066
4,-0.907,-1.1794,-0.3333,0.2978,-1.0676,0.3966,2143
4,-1.0508,-0.9558,-0.5796,-0.0166,-1.0051,0.4156,2106
4,-1.0869,-0.7227,-0.6743,0.0684,-0.7774,0.3974,2039
4,-1.2168,-1.1138,-0.7671,-0.0377,-0.2603,0.4329,2137
4,-0.8401,-1.127,-0.592,-0.1883,0.2464,0.2056,2034
4,-0.5889,-1.1143,-0.5828,-0.2294,0.7187,0.0204,1992
4,-0.5107,-0.8838,-0.6316,-0.1193,1.1391,0.1708,2006
4,-0.4185,-1.1125,-0.6921,-0.002,1.1548,0.6685,2036
4,-0.8918,-0.9763,-0.7151,-0.0193,0.9262,1.0364,2144
4,-0.5342,-0.9285,-0.6592,0.1792,1.0726,0.9226,1989
4,-0.6445,-0.6689,-0.6333,0.3737,0.8449,0.8207,2276
4,-0.4941,-1.124,-0.7002,0.39,0.2172,0.8004,1973
4,-0.6531,-0.8596,-0.9011,0.0851,0.5056,0.746,2087
4,-0.532,-0.5161,-0.9434,0.1469,0.3534,0.3265,2015
4,-0.3811,-0.2268,-0.8845,0.2922,-0.0782,0.3341,2023
4,-0.252,-0.4915,-0.9194,0.5569,-0.333,0.1715,2023
4,-0.2588,-0.6147,-0.9812,0.7538,-0.4133,0.3606,2102
4,-0.2878,-0.9988,-0.7764,0.7277,-0.1697,0.4627,1848
4,-0.7908,-0.5913,-0.8953,0.9525,0.8174,0.555,1843
4,-0.281,-0.7488,-0.7749,1.076,0.6542,0.762,2048
4,-0.6238,-0.5576,-0.7268,0.8248,1.0231,0.8773,2152
4,-0.5415,-0.521,-1.1677,1.27,0.5722,1.0134,2025
4,-0.5217,-0.7056,-0.9871,1.4613,0.2998,0.8869,2075
4,-0.3638,-0.6772,-1.1794,1.5299,0.1605,1.1127,2074
4,-0.5771,-0.4392,-1.002,1.4786,0.1001,1.3216,1907
4,-0.5383,-0.24,-0.9653,1.4792,0.6151,1.2497,2160
4,-0.0227,-1.6172,-0.854,1.0047,0.2948,1.9287,2046
4,-1.0491,-0.1716,-1.4343,0.8748,0.6343,1.7788,2040
4,-0.8079,-0.5154,-1.1892,1.3968,0.8055,2.3521,1880
4,-0.5593,0.0796,-1.189,1.6712,1.0136,2.9268,2023
4,-0.28,0.3877,-1.0781,2.1296,0.6593,3.0332,1878
4,-0.2554,1.3264,-0.9858,2.1985,-0.2561,3.2039,1865
4,-0.7861,1.6987,-0.8616,2.2509,0.1201,3.3128,2122
4,-0.6333,1.4089,-0.5469,2.0244,1.1937,3.576,2173
4,-0.5149,1.271,-0.6279,2.23,1.2141,2.8934,2045
5,-0.1348,1.9226,-0.8503,1.7925,0.712,2.2101,1960
5,-0.8328,0.7954,-0.6897,1.8499,-0.1262,2.3776,2153
5,-1.3101,0.561,-0.8228,1.6014,0.2258,2.2678,1812
5,-0.9424,0.9878,-0.8994,1.6145,0.3193,1.6994,2091
5,-0.7781,1.0771,-0.8525,2.0347,-0.2204,1.5667,2180
5,-0.9927,0.947,-0.8386,1.8207,-0.7437,1.2439,1796
5,-1.3394,0.844,-0.7114,1.9291,-0.7967,1.4499,1969
5,-1.5762,0.9224,-0.5715,1.801,-0.4823,1.2455,2024
5,-1.3713,0.9211,-0.4885,1.617,0.0702,1.3294,1795
5,-1.0859,0.5276,-0.761,1.0312,0.0862,0.5849,2072
5,-1.0557,0.4736,-0.8186,0.4775,0.3436,-0.1178,2011
5,-1.1416,0.7344,-0.489,0.2932,0.4671,-0.4971,2023
5,-0.8591,0.78,-0.3452,0.4191,0.6665,-0.7512,2145
5,-0.884,0.5085,0.0728,0.6781,0.5062,-0.9425,2002
5,-0.9863,0.6399,-0.0491,0.9376,-0.0537,-0.6014,2203
5,-0.8115,0.5962,0.0459,0.799,0.0069,-0.8227,2216
5,-0.9346,0.249,-0.1038,0.7401,0.0945,-1.4394,2059
5,-0.98,0.2871,-0.4114,0.3502,0.3003,-1.5548,2019
5,-1.1248,0.397,-0.3438,0.4915,0.7853,-1.6974,2105
5,-1.0845,0.4893,-0.2034,0.7757,0.8869,-1.464,2052
5,-1.1587,0.4453,-0.0889,1.0626,0.7739,-1.0031,2157
5,-1.1179,0.3987,0.0044,1.3021,0.3308,-0.648,2105
5,-1.0857,0.3604,0.0532,1.6032,-0.149,-0.4107,2120
5,-1.1387,0.325,-0.0923,1.5717,-0.4484,-0.3131,2128
5,-1.1577,0.2935,-0.2,1.4583,-0.4083,-0.5243,1987
5,-0.9875,0.4253,-0.3198,1.3073,-0.4729,-0.9388,2020
5,-1.0698,0.5413,-0.2532,1.3178,-0.3766,-1.4503,995
5,-1.0603,0.7419,-0.219,1.3519,-0.1218,-1.9044,72
5,-1.0007,0.8594,-0.3328,1.4735,-0.1349,-2.1141,2297
5,-0.9111,0.9583,-0.4287,1.2993,0.0292,-2.3799,2308
5,-0.946,1.1108,-0.551,1.1561,0.5401,-2.42,2166
5,-0.7634,1.1699,-0.6807,0.9244,0.3923,-2.3625,2027
5,-0.481,1.0701,-0.6826,0.3839,0.0751,-2.485,2042
5,-0.543,1.1326,-0.8677,-0.0402,-0.3574,-2.5582,2022
5,-0.1904,0.6016,-1.4841,-0.3349,-2.161,-2.4156,2024
5,-0.0354,0.1753,-1.5735,-0.7284,-3.9855,-2.3357,2103
5,-0.2937,0.0254,-1.9578,-1.3138,-4.3635,-1.6612,1954
5,-0.6343,0.0588,-2.0,-2.1361,-4.3635,-1.4169,2130
5,-1.0989,0.2842,-1.573,-2.9564,-4.3635,-1.7201,2035
5,-0.4941,0.5371,-1.6814,-3.7181,-4.3635,-1.6181,1933
5,-0.4028,0.4863,-1.4163,-4.3635,-4.3635,-1.8258,2044
5,-0.5938,-0.0999,-1.0925,-4.3635,-3.5328,-1.01,2074
5,-1.3506,0.1428,-1.2715,-4.3635,-4.2571,-2.802,1505
5,-0.699,0.1501,-1.4504,-4.3635,-4.176,-2.3626,3731
5,-0.2227,0.761,-1.2449,-4.214,-4.3635,-2.8774,769
5,-0.2546,0.366,-0.8984,-3.2792,-4.3635,-1.8628,1798
5,-0.4963,-0.4004,-1.1377,-3.225,-4.3635,-0.9239,2055
5,-1.1978,-0.9788,-1.2222,-3.5906,-4.3635,-0.594,2015
5,-1.3857,-1.2454,-1.0852,-4.3635,-4.3635,-0.8705,2364
5,-1.4539,-1.2561,-1.0791,-4.3635,-4.3635,-0.9131,2011
5,-1.4221,-1.1604,-1.177,-4.3635,-4.3635,-1.0238,1987
5,-1.3032,-1.1401,-0.7227,-4.0997,-4.3635,-0.555,1799
5,-1.3069,-1.0234,-0.8855,-3.9779,-4.3635,-0.1796,2197
5,-1.0,-1.0181,-0.6904,-3.7711,-4.3635,0.4275,2255
5,-1.251,-0.9407,-0.6558,-3.564,-4.3635,0.5272,1968
5,-1.0889,-1.1489,-0.709,-3.372,-4.3635,0.6191,2036
5,-1.1523,-1.3347,-0.7646,-3.4304,-4.3635,0.3839,2039
5,-0.814,-1.1992,-0.8245,-2.9016,-4.1704,0.2217,2154
5,-1.0056,-1.2949,-0.8972,-2.2511,-4.3635,0.2741,1995
5,-0.6763,-1.5728,-1.1064,-1.1741,-4.3635,0.7118,1775
5,-0.8672,-1.6006,-1.009,-0.532,-4.3635,1.182,1946
5,-1.2351,-1.5923,-0.5586,-0.4767,-3.8601,1.6403,2106
5,-1.3162,-1.8176,-0.5503,-0.4071,-3.4784,2.0987,2120
5,-1.1304,-1.813,-0.5039,-0.1972,-2.7211,2.2059,2124
5,-1.1489,-1.8274,-0.2068,-0.0736,-1.3161,2.4156,2143
5,-1.1013,-1.6765,-0.2517,0.4144,-0.8364,2.2775,2099
5,-0.6145,-1.7957,0.0479,0.4221,0.5613,2.5445,2090
5,-0.2952,-1.4788,0.4473,1.052,0.6841,2.5863,1945
5,-0.7625,-1.7649,0.5698,1.6049,0.3718,3.11,2278
5,-0.3274,-2.0,-0.3921,0.118,0.9889,4.3634,1933
5,-0.6135,-1.9558,-0.1831,0.1523,-1.6022,3.3857,1700
5,-0.9346,-0.8003,-0.1287,1.2448,-2.6581,3.5367,2216
5,-1.2583,-0.1602,0.2678,2.5258,-1.7598,2.8817,2232
5,-2.0,-0.0283,0.8479,3.5439,-0.2421,2.111,1974
5,-1.9729,-0.3481,0.9099,4.266,3.5094,0.6482,1704
5,-0.0129,-1.1965,1.147,3.8841,4.3634,1.2398,2026
5,-0.4714,-0.5513,1.0718,4.3634,4.3634,0.0752,2123
5,0.7402,-1.686,1.2092,4.1189,4.3634,2.2061,2101
5,-2.0,-0.6267,0.5276,4.3634,4.1971,0.7698,2015
5,-1.7393,-1.5381,1.4355,4.3634,4.3634,0.1068,2039
5,-0.5608,-2.0,1.3494,4.3634,4.3634,-0.3374,2140
5,-0.3008,-1.8289,1.1548,4.3634,4.3634,0.2225,2238
5,0.0813,-1.697,1.2966,4.1122,2.9791,-0.1294,2052
5,0.0088,-1.4368,1.3318,4.0068,2.5565,-0.7237,1936
5,0.7417,-1.9102,0.8262,3.4722,1.1347,-0.186,2061
5,0.6165,-1.5056,0.5977,3.6165,0.0189,-0.653,1981
5,-0.1848,-1.4597,0.3357,3.9989,-0.4268,-0.4007,2104
5,-0.2925,-1.187,0.405,3.4924,-0.611,-0.3401,1986
5,-0.0486,-1.1697,0.5071,3.2829,-0.6225,-0.6538,1917
5,-0.5081,-1.0117,0.0271,3.2364,-0.2217,-1.4276,1967
5,-0.1321,-0.8406,-0.2288,3.0002,-0.0542,-2.0698,1903
5,0.2295,-0.8696,-0.5076,2.4758,-0.0401,-2.6585,1902
5,0.9863,-1.0852,-0.8965,2.2883,-0.5596,-3.263,2075
5,1.2524,-1.5283,-0.988,2.106,-1.0601,-3.2023,2063
5,0.2312,-1.5691,-0.8835,2.0911,-2.1826,-3.3521,1968
5,-0.1228,-1.6584,-0.9045,1.7552,-2.059,-3.3178,2023
5,-0.5288,-1.4492,-0.6997,1.3553,-1.2963,-3.2231,2080
5,-0.8188,-1.3579,-0.6006,0.8669,-1.0836,-3.3131,2131
5,-0.7507,-1.1404,-0.5718,0.1878,-1.1937,-3.736,2161
5,-1.3052,-1.0991,-1.2734,-0.4382,-1.4182,-3.4969,2150
5,-2.0,-0.5488,-1.9761,-0.7381,-0.5689,-2.6843,2081
5,-2.0,-0.595,-1.6606,-0.8417,0.4237,-1.7038,2034
6,-2.0,-0.595,-1.439,-0.6241,2.0612,-1.3102,2105
6,-2.0,-0.8025,-0.9541,-0.0447,2.9331,-1.2544,2259
6,-2.0,-0.9727,-0.7261,0.0688,3.2714,-0.9954,2069
6,-2.0,-0.6633,-0.4197,-0.1286,3.7805,-1.1057,1640
6,-0.9404,-0.5317,0.1013,-0.1542,3.484,-1.5952,2171
6,-0.022,-0.8904,0.0271,-0.1434,2.5075,-0.9299,1929
6,0.365,-1.5144,0.2341,-0.1531,0.7962,-0.3852,2019
6,-0.7305,-1.0171,0.8066,-0.1993,1.3821,0.0651,1727
6,-1.03,-1.3992,0.696,-0.4271,1.5936,0.0419,2097
6,-1.6042,-1.6172,0.2498,-0.8,0.6345,-0.4691,2158
6,-1.4966,-1.1252,-0.5486,-1.2742,1.0046,-0.457,2133
6,-1.4922,-0.6162,-0.7979,-1.2692,1.3307,0.0009,2132
6,-1.3853,-0.4473,-0.8823,-0.9006,0.9336,0.4161,2062
6,-1.2903,-0.6052,-0.3154,-0.4015,0.4517,0.6336,2119
6,-1.1035,-1.2473,0.012,-0.5332,-0.0581,0.9176,2138
6,-1.4485,-1.2607,0.2288,-0.8842,-0.63,0.4537,1915
6,-0.8989,-0.9875,-0.0356,-0.9592,-0.5734,0.2939,1987
6,-0.5566,-0.4912,0.0029,-0.5703,-0.3221,-0.2385,2033
6,-0.0181,-0.8887,0.0129,-0.1157,-0.0768,-0.438,2121
6,-0.6433,-1.1074,0.2126,0.359,0.1428,-0.4038,1993
6,-0.687,-1.304,0.7104,0.3725,1.5796,-0.0933,2079
6,-1.0249,-1.4021,0.5859,-0.3165,2.8622,0.2223,2054
6,-1.2197,-1.2134,0.1611,-1.1499,3.5977,0.7249,2024
6,-1.1946,-1.0798,-0.4204,-1.2706,3.4396,0.9893,2090
6,-1.2573,-0.917,-0.5149,-0.7377,3.1617,0.9328,2004
6,-1.3533,-1.1748,-0.3489,-0.2791,2.6401,0.9644,2101
6,-1.1226,-1.1919,-0.0815,-0.597,2.6517,0.7958,2038
6,-0.5662,-0.8125,-0.0493,-0.5513,2.0162,0.3416,2027
6,0.1323,-0.7629,0.2117,-0.2614,1.1166,-0.1514,2046
6,0.1799,-1.1545,0.2271,0.0446,-0.1189,-0.4723,1891
6,-0.3552,-1.7761,0.4851,-0.2449,-0.7289,-0.5484,2027
6,-0.7178,-1.686,0.1284,-0.7541,-0.1887,-0.0617,2101
6,-0.667,-1.2217,-0.1799,-0.8794,0.9248,-0.241,2088
6,-0.9399,-0.623,-0.7961,-0.8949,1.1138,0.059,2136
6,-0.8286,-0.5061,-0.6958,-0.6573,0.8124,0.5622,1975
6,-0.9192,-0.5869,-0.4355,-0.3545,0.5129,0.7461,1925
6,-1.0195,-1.2761,-0.2361,-0.2919,-0.0131,0.903,2205
6,-1.2144,-1.7063,-0.0837,-0.6883,-0.5313,0.3733,2001
6,-1.1482,-1.2703,-0.2773,-0.94,-0.8516,-0.2741,1908
6,-0.7954,-0.9075,-0.3044,-0.5825,-1.295,-0.4827,2112
6,-0.4226,-0.8489,-0.176,-0.2109,-1.8093,-0.7505,2040
6,-0.2698,-1.196,-0.0769,-0.0145,-1.9763,-0.4239,2037
6,-0.4573,-1.4521,0.0684,0.0623,-1.9188,-0.2157,2124
6,-0.9363,-1.2297,-0.2295,0.07,-1.2591,-0.3397,1984
6,-1.1375,-1.0195,-0.4924,0.0084,-1.0485,0.1599,1906
6,-1.7214,-0.5542,-0.6235,0.1176,-0.403,0.3345,1973
6,-1.4788,-0.9441,-0.6272,0.0972,-0.0012,0.6176,2060
6,-1.4958,-1.291,-0.4048,0.1314,0.072,0.6978,2042
6,-1.3113,-1.4966,-0.4089,-0.0181,0.1413,0.6877,1987
6,-1.0205,-1.384,-0.4563,-0.1728,0.3745,0.7462,2211
6,-1.0464,-0.7742,-0.5708,-0.0549,0.3428,0.749,2064
6,-0.7144,-0.2302,-0.5474,0.2417,0.3703,0.8202,2064
6,-0.5142,-0.3787,-0.4531,0.6351,0.0204,1.0363,1923
6,-0.3828,-0.7996,-0.3269,0.7474,-0.609,1.1184,1932
6,-0.3684,-1.4785,-0.2576,0.724,-0.5476,1.2302,2055
6,-0.6101,-1.3057,-0.3079,0.5168,-0.6279,1.2954,1982
6,-0.7302,-1.1179,-0.4141,0.4221,-0.2843,1.5348,2051
6,-0.8069,-0.4739,-0.8638,0.3049,-0.0778,1.4667,2187
6,-0.6628,-0.2219,-0.8389,0.2521,-0.7485,1.4306,2053
6,-0.6758,-0.3818,-0.7754,0.0427,-0.9537,1.2492,2151
6,0.0669,-1.9785,-0.6565,-0.0053,-1.6311,1.0359,2044
6,-0.8621,-2.0,-0.6531,-0.63,-1.7781,0.9452,2147
6,-0.9463,-1.6653,-0.6416,-0.5189,-1.4825,0.8124,2202
6,-0.6482,-0.8608,-0.5908,-0.5023,-1.347,0.8909,2079
6,-0.531,-0.686,-0.429,-0.2807,-1.3135,0.8155,1968
6,-0.4158,-0.4221,-0.4978,-0.0736,-1.0856,0.9998,2070
6,-0.4302,-0.041,-0.5039,0.2641,-1.125,0.9405,2156
6,-0.6765,0.0164,-0.6252,0.5936,-0.8536,0.9617,2036
6,-0.5483,-0.2546,-0.6113,0.9805,-0.5062,1.1677,2170
6,-0.6941,0.676,-0.5837,1.068,0.3577,0.9018,2065
6,-0.1819,0.5183,-0.7383,1.3288,0.3456,1.3966,2119
6,-0.1189,1.1826,-0.9229,1.7219,0.4442,1.7339,2038
6,-0.293,0.7429,-1.2214,1.9678,0.28,2.5711,1813
6,-0.6638,0.3618,-1.1794,1.9535,0.3524,3.0526,2167
6,-0.7253,0.2454,-0.9126,1.8646,0.229,2.9582,1946
6,-0.8804,0.1086,-0.9431,1.3737,-0.0254,3.0415,2022
6,-0.9851,0.0261,-0.8101,0.9955,-0.4404,2.6267,1971
6,-0.636,-0.0444,-0.6765,0.8431,-0.95,2.1391,1753
6,-0.7207,-0.1514,-1.0083,0.5305,-0.9409,1.7407,2121
6,-0.4707,-0.3308,-0.5366,0.3563,-1.7784,0.8416,2132
6,-0.8591,-0.4092,-0.3982,0.0594,-1.2037,0.7433,2022
6,-1.4729,-0.0022,-0.1941,0.0116,-0.5966,0.1366,1881
6,-1.0825,0.3865,-0.384,-0.077,0.7441,-0.369,2037
6,-0.5718,0.6187,-0.3401,-0.0052,1.3842,-0.7058,2184
6,-0.2004,0.5474,-0.4414,0.1277,1.2315,-0.6955,2053
6,-0.0454,0.6909,-0.415,0.4095,0.6108,-0.6679,2101
6,-0.2866,0.79,-0.3262,0.9198,0.0109,-0.6438,2064
6,-0.7678,0.6519,-0.6387,1.0391,-0.2514,-0.6593,2104
6,-1.0291,0.5884,-0.7234,1.182,-0.127,-0.7758,2122
6,-1.2871,0.6338,-0.6147,1.4173,0.1535,-1.1206,1889
6,-1.2302,0.4255,-0.7734,1.3564,0.7304,-1.321,2158
6,-1.9563,0.4976,-0.4407,1.5285,1.9258,-0.8405,1935
6,-1.7388,0.6543,-0.7229,1.1977,2.7,-0.8373,2009
6,-1.3545,0.4531,-0.5208,0.8582,3.1344,-1.2299,2073
6,-1.1472,0.4299,-0.4341,0.6992,2.7838,-1.5191,1868
6,-1.3669,0.3225,-0.4834,0.44,2.327,-1.7179,2030
6,-1.4338,0.0525,-0.4456,0.0872,2.0748,-1.8835,2093
6,-1.4224,0.1042,-0.3613,-0.0635,1.8073,-1.968,2261
6,-1.623,0.3569,-0.1267,0.0372,1.4897,-1.7193,2041
6,-1.6086,0.3984,0.1204,0.285,0.9736,-0.7448,2049
6,-1.6658,0.1482,-0.0247,0.5095,1.062,-0.5821,1855
6,-1.4929,0.5796,0.052,0.9673,0.872,-0.0767,2070
6,-1.4343,-0.0962,0.2188,1.3902,0.5593,0.1364,2048
7,-1.5447,-0.0518,-0.2046,1.1906,0.5031,0.0607,2062
7,-1.4631,-0.168,-0.2063,0.9539,0.3734,-0.1189,2150
7,-1.3423,-0.0776,-0.3516,0.5725,0.0993,-0.4625,2117
7,-1.3811,-0.0354,-0.3867,0.1107,-0.0581,-0.8793,2198
7,-1.3906,0.0801,-0.3135,-0.3376,-0.084,-1.1413,1928
7,-1.2383,0.1929,-0.2317,-0.5446,-0.1771,-1.2403,1889
7,-1.1931,0.2256,-0.2058,-0.6875,-0.3638,-1.246,2035
7,-1.0725,0.2661,-0.1494,-0.681,-0.5031,-1.2471,1974
7,-1.0264,0.2629,-0.1294,-0.5189,-0.6311,-1.2644,2037
7,-0.999,0.2642,-0.1562,-0.3607,-0.7084,-1.3407,2060
7,-0.8938,0.177,-0.2178,-0.1844,-0.8532,-1.6103,2051
7,-0.8267,0.1497,-0.2336,-0.0519,-0.9588,-1.8438,2063
7,-0.8223,0.1201,-0.344,-0.0258,-1.1246,-2.003,2010
7,-0.8589,0.2019,-0.4165,0.1228,-1.1231,-2.1569,1967
7,-0.8096,0.3406,-0.4478,0.2052,-1.0455,-2.2794,1991
7,-0.6958,0.3586,-0.4556,0.3181,-0.9316,-2.3265,1927
7,-0.7905,0.3918,-0.4153,0.4054,-0.624,-2.4024,1819
7,-0.6963,0.325,-0.4546,0.3494,-0.5359,-2.3767,2034
7,-0.6062,0.3186,-0.541,0.3898,-0.5946,-2.3358,2166
7,-0.7285,0.397,-0.574,0.4097,-0.4147,-2.3309,2166
7,-0.6489,0.3708,-0.6548,0.2127,-0.395,-2.436,2101
7,-0.5271,0.3125,-0.7156,0.3141,-0.6087,-2.5951,2059
7,-0.405,0.2068,-0.7395,0.1016,-0.9584,-2.4618,2043
7,-0.4851,0.1765,-0.7026,-0.0583,-1.0801,-2.44,2018
7,-0.4902,0.1372,-0.9531,-0.2464,-1.4872,-2.2644,2058
7,-0.5332,-0.0486,-1.1831,-0.1212,-2.0494,-2.1304,2098
7,-0.2468,-0.1157,-1.1963,-0.0008,-3.014,-2.0453,1984
7,-0.3345,-0.1614,-0.96,-0.0526,-4.3635,-1.5743,2029
7,-0.363,-0.4373,-1.29,-0.9231,-4.3635,-1.4472,2113
7,-0.4441,-0.8818,-1.7449,-1.5986,-4.3635,-0.6604,2106
7,-0.6929,-1.1074,-1.5618,-2.603,-4.3635,0.1799,2078
7,-1.0256,-0.708,-1.1348,-3.3748,-4.3635,0.2517,2011
7,-0.967,-0.4673,-1.1685,-4.1698,-4.3635,0.2505,2035
7,1.136,0.2273,-0.6284,-4.3635,-1.7526,1.4934,2012
7,-0.8669,-0.1904,-0.8735,-3.1938,-4.3635,-0.1133,2055
7,-0.4343,-0.4053,-0.8457,-3.0036,-4.3635,0.2538,2022
7,-0.5608,-0.2986,-0.7212,-2.0602,-4.3635,-0.1404,2012
7,-0.5417,-0.3972,-0.5256,-1.7065,-4.3635,0.3159,1974
7,-0.9861,-0.9158,-0.5537,-2.0402,-4.3635,0.2433,1972
7,-1.0942,-1.1802,-0.5962,-2.2035,-4.3635,0.2276,1984
7,-1.1475,-1.186,-0.5352,-1.6291,-4.3635,0.0531,2047
7,-1.2224,-1.1418,-0.8184,-1.4382,-4.3635,0.1353,1972
7,-1.5337,-1.1655,-0.511,-0.8509,-4.3635,0.3999,1971
7,-1.6238,-1.543,-0.4521,-1.0718,-4.3635,0.72,2081
7,-2.0,-1.4314,-0.5183,-0.8594,-4.1156,0.761,2040
7,-2.0,-2.0,-0.5713,-1.2555,-3.0538,1.0796,2116
7,-1.2974,-2.0,-0.6243,-1.5498,-2.0544,1.0258,2119
7,-1.26,-1.7893,-0.562,-1.5962,-1.3639,0.6558,2145
7,-0.7434,-2.0,-0.5327,-1.707,-1.939,1.5206,2108
7,-0.7148,-1.6143,-0.646,-1.182,-1.8077,1.6623,2016
7,-0.8704,-1.6167,-0.5615,-0.7785,-2.4394,2.2364,1966
7,-1.033,-1.5901,-0.3618,-0.3549,-1.7828,2.6176,2121
7,-1.0356,-1.646,-0.0469,-0.165,-1.4912,2.8152,1982
7,-1.2871,-1.823,0.0806,-0.4706,-1.3708,3.3902,2113
7,-1.4067,-1.6313,-0.1301,0.2635,-1.8057,3.1744,1983
7,-0.7178,-1.916,-0.0269,0.5992,-1.6026,3.4889,2164
7,-1.4177,-1.6196,0.241,0.7713,0.2507,3.3983,2084
7,0.249,-2.0,0.1016,0.6926,1.289,4.3634,1749
7,-1.5051,-0.9829,-0.2312,1.1354,0.2192,3.2051,2288
7,-1.6721,-0.3767,-0.1321,2.5674,0.1249,2.9552,1809
7,-1.7715,-0.8621,0.3284,3.9683,1.3589,1.8189,2024
7,-1.2515,-0.6162,0.5137,4.3634,2.6766,1.5274,2070
7,-0.9692,-0.9006,1.0835,4.3634,3.5404,1.1761,2032
7,-1.0898,-1.4783,0.9277,4.3054,3.7817,0.9489,2010
7,-1.1755,-1.2544,0.6992,3.8744,4.3634,0.8911,2046
7,-0.9844,-1.2568,0.9285,3.8956,4.3634,0.5368,2054
7,-0.4839,-1.3682,0.9634,4.1881,4.3634,-0.0493,2148
7,-0.5737,-1.3613,0.8735,4.1022,4.2869,-0.4872,2147
7,0.4448,-1.7971,0.9351,3.6503,4.0763,-0.1366,2014
7,0.2781,-1.4749,0.6509,3.2456,2.0246,-0.5208,1792
7,-0.002,-1.3997,0.3713,2.8325,0.3109,-0.3481,2221
7,-0.4324,-1.6094,0.0034,2.9925,-1.1511,-1.2639,1995
7,0.0637,-1.2649,-0.0903,2.8705,-0.4805,-1.1997,2162
7,-0.7136,-1.0286,-0.2039,2.9553,-0.0269,-1.1977,2026
7,-0.2158,-0.9644,-0.1685,2.846,0.4031,-1.6157,1950
7,-0.2361,-0.8308,0.0928,2.8665,0.283,-1.7374,1972
7,-0.2117,-1.0029,-0.0723,2.5356,0.4665,-1.7964,1982
7,-0.2842,-0.9053,-0.2883,2.3673,0.4265,-1.8238,2006
7,-0.4253,-0.9187,-0.4954,2.1316,0.7369,-1.8864,2027
7,-0.4629,-0.97,-0.4541,1.8873,1.4552,-1.8911,2040
7,-0.074,-1.0093,-0.2656,1.7411,1.5888,-1.9646,2019
7,0.1213,-0.8792,-0.3167,2.0847,1.1176,-2.2707,1993
7,-0.0591,-1.0872,-0.3623,2.0182,0.2047,-2.2289,2048
7,-0.0869,-1.1257,-0.5518,1.4235,0.2815,-2.2104,2036
7,-0.3022,-1.0012,-0.8296,1.0224,0.6044,-2.393,2123
7,-0.5635,-1.0852,-1.0706,0.6717,1.5478,-2.2629,2132
7,-0.7869,-1.0142,-1.0632,0.3446,2.8771,-2.1008,2046
7,-0.9451,-0.8911,-1.0049,0.1802,3.5366,-1.8739,2032
7,-0.9783,-0.8005,-0.7639,-0.0051,3.1463,-1.5604,1994
7,-1.4526,-0.8472,-0.5796,-0.1478,2.0748,-1.1003,2030
7,-1.7532,-0.8755,-0.5212,-0.2571,0.4482,-0.8276,2045
7,-1.8313,-0.8408,-0.5767,0.0302,-1.1095,-0.7766,2078
7,-1.8362,-0.9343,-0.5732,0.3525,-2.2357,-0.9344,2060
7,-1.6174,-1.0601,-0.6472,0.6161,-2.4595,-1.2456,2060
7,-1.3784,-0.6865,-0.2864,0.6437,-1.6681,-1.0371,2052
7,-1.6543,-0.7952,-0.2017,0.3686,-1.1082,-0.3972,2032
7,-1.5059,-0.9189,-0.3987,-0.2293,-0.4971,0.0728,2024
7,-1.292,-1.0845,-0.6777,-0.7039,0.5295,0.1559,2112
7,-1.0281,-1.625,-1.0195,-1.0614,1.6306,0.0276,2011
7,-1.1016,-1.3071,-0.9341,-1.2159,2.8541,0.4737,1942
7,-1.3733,-1.199,-0.6113,-1.2623,3.0524,1.0164,1980
8,-1.0574,-0.8831,-0.2661,-1.1331,2.1943,1.2754,2023
8,-1.208,-0.9075,-0.0535,-0.7091,0.6691,1.5759,2042
8,-1.2188,-1.1084,0.1865,-0.7369,-0.4388,1.511,2065
8,-1.1248,-1.4136,0.0771,-0.9517,-1.0132,0.7673,2065
8,-0.5322,-1.1594,-0.262,-1.332,-0.3269,0.316,2028
8,-0.582,-0.9021,-0.3303,-1.3173,-0.142,0.5679,2061
8,-0.8027,-0.6418,-0.1338,-1.1575,-0.016,0.2543,2063
8,-0.8037,-0.9556,0.0315,-1.0866,0.0667,0.0914,2064
8,-0.574,-1.1367,0.0735,-1.3878,0.6403,0.1806,2037
8,-0.7234,-1.3093,-0.1509,-1.4735,0.8665,0.2674,2122
8,-1.217,-1.4028,-0.2747,-1.2371,0.488,0.5281,2106
8,-0.9087,-1.1035,-0.0742,-1.2129,0.8883,0.9293,2259
8,-1.1941,-0.9087,-0.1624,-0.7762,0.9188,1.1918,1987
8,-1.1582,-1.0413,0.2632,-0.2978,0.7287,0.8131,2028
8,-1.0183,-1.1914,0.4661,0.1958,0.4216,0.2951,2161
8,-1.0391,-1.3381,0.6646,0.2991,0.696,-0.3075,1938
8,-0.8687,-1.6338,0.7058,0.1221,0.4614,0.1204,2102
8,-0.6335,-1.5874,0.6846,-0.3739,0.3108,0.0581,2029
8,-0.4402,-1.4275,0.186,-0.6107,-0.3836,-0.3043,2038
8,-0.6399,-1.2444,-0.0237,-0.6546,-0.348,-0.4874,1950
8,-0.6223,-1.0664,-0.2419,-0.3397,-0.3187,-0.5268,2012
8,-0.9612,-0.9993,-0.2896,0.0051,-0.287,-0.1732,2021
8,-1.2051,-1.1436,-0.304,0.1738,-0.398,0.3398,1966
8,-1.4509,-1.2673,-0.2837,0.1891,-0.22,0.7399,2088
8,-1.4932,-1.3943,-0.3181,-0.0799,-0.0507,0.9096,2055
8,-1.5574,-1.2126,-0.4739,-0.1061,0.1487,0.5377,2082
8,-1.25,-1.0569,-0.374,0.0571,-0.1883,-0.0384,1986
8,-0.9641,-0.9458,-0.1719,0.3549,-0.0397,0.2318,2183
8,-0.6675,-1.0007,-0.301,0.5163,-0.281,0.0912,1885
8,-0.677,-1.0918,-0.2324,0.3382,0.1402,0.1989,1894
8,-0.7124,-1.3213,-0.5286,0.1021,0.0549,0.2589,2181
8,-0.6414,-1.365,-0.5889,0.0153,0.0495,0.072,1992
8,-0.5955,-1.0962,-0.8792,0.0269,0.3659,0.024,2073
8,-0.7415,-0.8777,-0.7561,0.143,0.7219,0.5292,2109
8,-0.8701,-0.8933,-0.8701,0.4147,1.1681,1.1729,2108
8,-0.8518,-0.8381,-0.7319,0.3248,1.3035,1.3251,1995
8,-0.8667,-0.8645,-0.7263,0.4432,1.643,1.5051,1989
8,-0.5005,-0.8237,-0.4563,0.4862,1.7909,1.481,1757
8,-0.2239,-0.957,-0.6091,0.7403,1.02,1.38,1818
8,-0.0603,-1.0225,-0.7395,0.8955,0.4878,1.169,2319
8,-0.0681,-1.1626,-0.561,0.7075,0.1728,1.0163,2330
8,-0.2898,-0.8374,-1.0464,0.7929,-0.3494,0.5978,2077
8,-0.2517,-0.4807,-1.157,0.6847,0.0656,0.4281,2205
8,-0.4905,-0.3767,-1.1223,0.8419,0.0238,0.5793,1696
8,-0.4529,-0.4302,-1.2773,0.7458,0.2436,0.6492,2229
8,-0.6143,-0.3489,-1.1511,0.6305,1.0078,0.8922,2264
8,-0.8896,-0.325,-1.1775,0.746,0.7123,0.6361,1831
8,-0.6421,-0.3879,-1.0481,0.748,0.7486,1.2168,2407
8,-0.8789,-0.1794,-1.1404,0.7984,0.7528,1.2111,1883
8,-0.8164,0.093,-0.991,1.2059,0.6602,0.903,2146
8,-0.7378,1.3984,-0.896,1.3254,0.2866,0.6873,2173
8,-0.1094,1.9999,-0.675,1.8526,-0.9706,-0.2051,1667
8,-0.2058,1.9999,-0.2219,2.3798,-0.8099,0.8496,2120
8,-1.0261,1.9999,-0.6072,2.3149,0.6717,2.1899,2155
8,-1.0479,1.9999,-0.5396,1.478,2.0245,2.0535,2103
8,-0.9883,0.6797,-0.7856,0.4886,3.0589,2.485,2100
8,-1.0659,-0.5405,-0.6775,-0.304,2.4328,1.8038,2026
8,-0.9575,-1.4082,-0.4053,-0.7215,1.8037,1.1559,2385
8,-1.4966,-0.5681,-0.1895,-1.1121,1.4817,0.0715,2103
8,-1.3276,-0.9722,-0.0991,-0.5472,1.2364,0.4871,2090
8,-1.4697,-1.717,-0.4011,-0.3605,0.5442,0.1264,2199
8,-1.4058,-1.3113,-0.2737,-0.1694,0.2651,-0.4533,2127
8,-1.3347,-1.6567,-0.7844,0.2027,-0.4172,0.338,2366
8,-1.5669,-1.0916,-0.4358,0.4032,-0.2713,0.1177,2390
8,-1.2783,-0.9663,-0.5667,1.1559,0.5694,0.2258,2096
8,-0.9214,-0.4973,-0.9458,1.3077,0.8261,0.112,1892
8,-0.3699,-0.4312,-0.8438,1.4442,0.7458,-0.0368,2298
8,-0.501,-0.3369,-1.0718,2.0383,0.4163,-0.1069,1807
8,-0.4368,0.0056,-1.1152,2.2703,-0.0085,-0.0481,1979
8,-0.9258,0.6282,-1.1055,2.4523,-0.2357,0.4348,2209
8,-0.9243,0.3835,-0.9868,2.4599,-0.2517,0.0241,2218
8,-1.3633,0.1184,-1.0049,2.273,0.2549,0.2168,1838
8,-1.3645,0.2705,-1.0923,1.9002,1.1491,-0.2574,1713
8,-1.1848,0.0967,-1.0352,1.7182,1.6214,-0.488,2325
8,-0.9888,0.333,-0.759,1.5475,1.6555,-0.7821,2189
8,-0.7834,0.1636,-0.6575,1.2785,1.3183,-0.9883,1880
8,-1.1443,0.0063,-0.4009,1.0479,1.1049,-1.0251,2066
8,-1.0,0.3108,-0.3198,0.9119,0.6678,-0.977,2052
8,-1.1677,0.2903,-0.1968,0.8938,0.0455,-0.7869,1660
8,-1.0991,0.3345,-0.0244,0.9962,-0.1446,-0.773,2131
8,-1.4771,0.3997,-0.1794,1.0685,0.4533,-0.1234,2218
8,-1.022,0.1787,-0.2302,1.0809,0.3462,-0.0977,2058
8,-1.1338,0.269,-0.0801,1.2339,0.1639,0.1338,2152
8,-1.2446,-0.0325,-0.292,1.1387,0.1218,0.0264,1564
8,-1.1768,0.0493,-0.2932,0.9295,0.1167,-0.0728,2130
8,-1.0195,-0.0723,-0.4702,0.5817,-0.1404,-0.1823,2065
8,-1.0044,-0.0227,-0.4802,0.2739,-0.4573,-0.3938,2171
8,-1.1042,-0.1182,-0.6433,-0.0772,-0.5581,-0.5115,1970
8,-1.0173,0.0625,-0.6711,-0.3422,-0.545,-0.7018,2160
8,-0.9854,0.0674,-0.4502,-0.2918,-0.5612,-0.7842,2050
8,-0.9717,0.0059,-0.5491,-0.2493,-0.6747,-0.8167,2048
8,-0.9644,0.0027,-0.4197,-0.1352,-0.7351,-0.7909,2041
8,-0.9688,-0.0435,-0.3779,-0.0683,-0.6883,-0.7858,2044
8,-0.9275,-0.0308,-0.3591,0.0093,-0.7059,-0.8901,2055
8,-0.7361,0.022,-0.3059,0.2111,-0.8321,-0.9782,2045
8,-0.7473,0.1035,-0.3352,0.3208,-0.8953,-1.0034,2077
8,-0.7864,0.1116,-0.3848,0.4501,-0.7661,-1.3428,2049
8,-0.8572,0.1267,-0.3762,0.467,-0.7328,-1.7,2066
8,-0.8064,0.2126,-0.4417,0.4083,-0.7107,-1.953,2019
8,-0.7937,0.2695,-0.5034,0.2839,-0.6516,-2.1535,2056
8,-0.7798,0.3274,-0.5386,0.3385,-0.5185,-2.2154,2050
8,-0.748,0.5173,-0.5845,0.4268,-0.4061,-2.1398,2000
9,-0.7524,0.6343,-0.6199,0.2645,-0.2906,-2.3645,2040
9,-0.7515,0.5649,-0.6023,0.4733,-0.6223,-2.1463,2069
9,-0.5376,0.3665,-0.7588,0.2895,-1.2259,-2.0395,2076
9,-0.6387,0.1458,-0.7612,0.5517,-1.532,-2.2599,2047
9,-0.8159,0.0332,-0.854,0.1437,-1.7408,-2.1253,2043
9,-0.8093,-0.0752,-1.012,0.2726,-2.0439,-2.4297,2044
9,-0.7319,-0.1057,-0.9375,0.2087,-2.3747,-2.3245,2056
9,-0.8079,-0.0735,-0.929,0.0925,-2.4601,-2.1399,2036
9,-0.7971,-0.1472,-0.9236,-0.138,-2.2407,-1.8907,1993
9,-0.9167,-0.324,-0.99,-0.55,-1.898,-1.6406,3702
9,-0.8882,-0.6887,-1.4062,-0.9336,-2.961,-1.7464,1582
9,-0.8474,-0.936,-1.6455,-1.4166,-3.9811,-1.7945,1859
9,-0.5742,-1.0247,-1.6101,-2.0961,-4.3635,-1.3017,1384
9,-0.4141,-0.9104,-1.3784,-2.4495,-4.3635,-0.2759,1677
9,-0.1011,-0.9331,-0.834,-3.6932,-4.1443,0.4585,1585
9,-1.0461,-0.4868,-1.0308,-3.4027,-4.3635,0.049,2031
9,-1.0457,-0.4326,-1.1931,-4.3635,-4.3635,0.0638,2100
9,-0.4731,-0.3118,-1.1624,-4.3635,-4.3635,-0.2258,1954
9,-0.6084,-0.1409,-0.8708,-4.0387,-3.9622,-0.29,2292
9,-0.4792,-0.2107,-0.6011,-3.7628,-3.4583,-0.1764,2005
9,-0.4402,-0.1545,-0.3977,-3.0726,-3.7408,-0.3205,2140
9,-0.5049,-0.009,-0.3811,-2.3453,-4.3563,-0.0129,1919
9,-0.3213,0.0173,-0.5916,-1.8245,-4.3635,0.3599,1900
9,-0.8318,-0.3735,-1.0049,-1.6303,-4.3635,1.0977,1948
9,-1.2395,-0.407,-0.9919,-1.0512,-4.3635,0.6116,1971
9,-1.6619,-0.729,-0.5098,-1.0657,-4.3635,1.1234,2036
9,-2.0,-0.8816,-0.3987,-0.9289,-4.3635,1.129,2190
9,-2.0,-1.6606,-0.7004,-1.229,-4.3635,1.9301,2200
9,-2.0,-1.6721,-0.5642,-1.5631,-4.3635,1.9639,1985
9,-1.875,-1.446,-0.5837,-1.8841,-3.7684,1.8062,2011
9,-1.7944,-1.3499,-0.5356,-2.1901,-3.1562,1.5143,2193
9,-1.5176,-1.4727,-0.5903,-2.0551,-3.0834,1.437,2066
9,-1.0571,-1.5637,-0.52,-1.9363,-2.7782,1.4652,1971
9,-1.0012,-1.4495,-0.6223,-0.9227,-3.1917,1.5187,2087
9,-0.9524,-1.4685,-0.3928,-0.5801,-3.4604,1.8792,2091
9,-1.1855,-1.4355,-0.2529,-0.2967,-3.6247,2.0913,2084
9,-1.1375,-1.6184,-0.2588,-0.036,-3.5135,2.2053,2099
9,-1.1765,-1.6545,-0.292,0.3442,-3.2034,2.1355,2021
9,-1.2053,-1.5505,-0.2773,0.85,-2.5918,2.0442,1859
9,-0.5193,-2.0,0.0439,1.4006,-1.5384,1.7793,1774
9,-0.3652,-1.7119,-0.1667,1.56,-0.8359,2.0018,2262
9,-0.5693,-1.6104,-0.147,2.2478,-0.2537,1.7407,2185
9,-0.2974,-1.3235,-0.1357,2.7155,0.4525,2.0964,1914
9,-0.6606,-1.0471,0.1292,3.3263,1.4292,2.0544,2016
9,-1.241,-0.6304,0.3037,3.8282,1.4822,1.2849,2108
9,-1.0964,-0.897,0.573,4.3634,2.7436,0.6857,2140
9,-0.2517,-1.5264,0.7725,3.9399,4.3634,1.1433,1946
9,-1.0125,-1.2485,0.2866,4.3634,3.9117,0.2639,2214
9,-0.4617,-1.1582,0.7478,4.3619,4.0715,-0.1606,2108
9,-0.2559,-1.7231,0.9824,3.9305,4.3634,-0.3735,2220
9,-0.374,-1.2136,0.8606,3.6355,4.0929,-0.6801,2166
9,0.0723,-1.7249,0.4595,3.5029,4.1371,-0.8042,2100
9,0.1772,-1.6387,0.6326,3.0284,2.1297,-0.8231,2049
9,0.6018,-1.6953,0.4001,3.1192,1.544,-1.0123,1783
9,0.2712,-1.855,0.1528,1.9668,0.9653,-0.8825,1970
9,0.3254,-1.554,0.061,2.1832,-0.4558,-0.9274,1940
9,0.1272,-1.2371,0.3301,2.1461,-0.6131,-1.2272,2159
9,0.0796,-1.2314,0.2117,2.0405,-0.9428,-1.6965,2707
9,-0.1448,-1.2327,-0.1414,1.9999,-0.9536,-2.0181,1772
9,-0.2617,-1.1785,-0.2703,1.8511,-0.3777,-1.95,1840
9,-0.4626,-1.0334,-0.241,1.6692,0.5861,-2.0003,2011
9,-0.4521,-0.7268,-0.4065,1.6032,0.5713,-2.2413,1941
9,-0.084,-0.8914,-0.1616,1.8395,0.7317,-2.6155,2064
9,-0.1152,-1.0654,-0.377,1.6522,-0.0369,-2.8141,2135
9,0.2507,-1.0874,-0.2292,1.4841,-0.3084,-3.0544,2048
9,0.0867,-0.9727,-0.3091,1.4504,0.051,-3.0781,1990
9,-0.156,-1.1089,-0.377,1.0713,0.2005,-2.6846,2003
9,-0.5779,-1.1138,-0.5608,0.4307,0.3405,-2.3117,2045
9,-1.2109,-1.2261,-0.8145,-0.1157,-0.0076,-1.9002,1996
9,-1.1536,-1.0239,-0.9565,-0.3302,0.4137,-2.1142,1997
9,-1.4712,-0.8071,-0.9866,0.0629,0.6733,-2.1927,2045
9,-1.8921,-0.7546,-0.3657,0.2229,-0.1578,-1.9755,2018
9,-2.0,-0.8301,-0.1428,0.1453,-0.5179,-1.3511,2027
9,-1.9688,-0.8801,0.0293,0.2434,-0.7665,-0.8903,2070
9,-1.7334,-1.0369,0.1523,0.3546,-0.4995,-0.5031,2059
9,-1.5317,-1.1416,0.3464,0.5197,-0.5617,-0.5348,1987
9,-1.4326,-1.2288,0.1584,0.4582,-0.7465,-0.5722,2060
9,-1.1733,-1.198,0.1067,0.2207,-0.7577,-0.6501,2096
9,-1.0322,-0.9932,-0.0884,0.1356,-0.4051,-0.6245,2079
9,-0.9961,-0.8652,-0.3269,-0.1004,0.0558,-0.5477,2078
9,-0.9622,-0.8979,-0.6423,-0.2257,0.4972,-0.1599,2052
9,-1.0173,-1.0195,-0.6389,-0.3243,0.8437,0.008,2009
9,-0.98,-1.0911,-0.6572,-0.2469,1.5343,0.2534,2008
9,-1.0908,-1.1958,-0.5439,-0.3726,1.956,0.4719,2021
9,-1.2136,-1.0857,-0.4419,-0.3902,1.9437,0.6569,1992
9,-1.387,-0.9944,-0.0635,-0.6082,1.872,1.1938,2065
9,-1.458,-0.9783,-0.0457,-0.7048,1.3002,1.3782,2141
9,-1.5542,-1.1211,0.1663,-0.6726,1.0505,1.2632,2049
9,-1.3179,-1.166,0.0405,-0.7034,0.9527,1.1198,2039
9,-1.0544,-1.1179,0.1675,-0.5482,0.6411,0.8694,2011
9,-0.792,-1.0979,0.137,-0.6646,0.3016,0.7947,2045
9,-0.8152,-1.0383,0.1353,-0.5276,0.3635,0.7901,2029
9,-0.8733,-0.9678,-0.1208,-0.6288,0.8542,0.7536,2053
9,-0.5999,-1.1838,-0.3123,-0.8845,1.5681,0.961,2060
9,-0.5542,-1.104,-0.2642,-0.9605,2.6014,1.2737,2002
9,-0.7612,-1.1433,-0.1292,-0.9227,3.0014,1.5054,2017
9,-0.8286,-1.0767,-0.1057,-0.7565,3.032,1.5113,2090
9,-0.8367,-1.0051,0.0945,-0.5332,2.7221,1.3764,2058
9,-0.7532,-0.9233,0.2122,-0.1886,2.2212,0.9255,2034
9,-0.4966,-1.0352,0.5342,0.2189,1.8476,0.6763,2070
9,-0.4868,-1.3213,0.6191,0.3372,1.4467,0.3241,2112
9,-0.1311,-1.541,0.7058,0.1402,1.2258,-0.0348,2125
9,-0.1299,-1.5327,0.5483,-0.1866,1.0469,-0.1274,2073
10,-0.1841,-1.4275,0.3274,-0.5698,0.942,-0.2677,1976
10,-0.24,-1.1794,-0.2117,-0.6954,1.201,-0.2808,2142
10,-0.377,-1.0994,-0.0952,-0.5526,1.5221,-0.2123,1996
10,-0.5969,-1.1699,-0.2336,-0.5711,1.5652,0.1168,2106
10,-0.7944,-1.3857,0.0242,-0.7263,1.5828,0.4104,1933
10,-1.1221,-1.3423,-0.1331,-0.6441,1.2777,0.3143,1919
10,-1.1772,-1.197,-0.1953,-0.518,0.6723,0.0868,1900
10,-1.4192,-0.822,-0.3276,-0.3268,0.6268,0.0923,2058
10,-1.0674,-1.1523,0.0093,-0.141,-0.2927,0.1928,2346
10,-1.3369,-1.2583,0.0879,-0.0056,-0.6743,0.0345,1982
10,-1.0952,-1.3857,0.082,-0.1434,-0.8496,-0.2437,2279
10,-0.6692,-1.251,-0.0378,-0.2606,-1.1549,-0.5268,2075
10,-1.1165,-1.2937,-0.3704,-0.5413,-0.9126,-0.0194,1921
10,-1.0232,-1.1458,-0.637,-0.3493,-1.1931,-0.3164,2008
10,-1.0127,-1.0862,-0.7988,-0.3217,-0.7986,0.0551,2009
10,-0.9812,-0.9629,-0.707,-0.1814,-0.3814,0.2277,2116
10,-0.8674,-1.0894,-0.6782,-0.1401,0.3932,0.5681,1956
10,-1.0801,-1.094,-0.585,-0.0645,0.8982,0.8777,2008
10,-1.1213,-1.0293,-0.6602,0.1433,1.0495,0.9263,2459
10,-0.7715,-1.2107,-0.5974,0.1096,1.0587,1.2641,1887
10,-0.6409,-1.2107,-0.5591,0.1547,0.8609,1.1846,2121
10,-0.6516,-1.0288,-0.6956,0.2405,0.5203,1.2623,1899
10,-0.5276,-0.9695,-0.5942,0.2939,0.6509,1.1331,2011
10,-0.4216,-0.6409,-0.8665,0.3614,0.4069,0.8905,2199
10,-0.219,-0.6106,-0.9365,0.5261,0.0076,0.8793,2141
10,-0.3757,-0.635,-1.1411,0.5781,0.0606,0.6936,2138
10,-0.1721,-0.4597,-1.1335,0.6316,0.2677,0.5525,2069
10,-0.2271,-0.6111,-1.21,0.6722,-0.1886,0.6742,2411
10,-0.5237,-0.9065,-1.1018,0.5633,0.0622,0.7048,2029
10,-0.5693,-0.9211,-1.2034,0.4835,0.5565,0.5775,1915
10,-0.407,-0.7913,-1.1028,0.3998,0.5094,0.534,1947
10,-0.4155,-0.4492,-0.9685,0.371,-0.2398,0.5183,1947
10,-0.6187,-0.4431,-1.103,0.4296,-0.2478,0.4472,2092
10,-0.5034,-0.4688,-0.9172,0.7917,-0.1442,0.4406,2222
10,-0.5552,-0.4854,-0.9204,1.0669,0.8644,0.8444,2124
10,-0.7441,-0.4893,-0.9348,1.4422,1.0737,0.5634,1955
10,-0.2837,-0.708,-0.9045,1.6149,0.8363,0.406,2006
10,-0.384,-0.2463,-0.8567,1.6567,-0.2005,0.1246,2123
10,-0.2285,-0.2747,-0.7612,1.615,0.4348,0.2136,2064
10,-0.4912,-0.4495,-0.9536,1.6522,-0.77,0.5094,2002
10,-0.8098,-1.1267,-1.3723,1.8315,-0.6665,0.8831,1916
10,-0.6238,0.0547,-1.0515,1.6905,-0.082,1.0098,2172
10,-0.2524,0.1851,-1.0254,1.9274,0.1776,1.2426,1984
10,-0.9631,-0.5461,-0.9646,1.7873,0.6766,2.2433,2000
10,-0.4531,-0.3494,-1.0591,2.141,0.1968,2.5446,1765
10,-1.3794,0.6619,-1.0925,2.2372,0.6288,3.536,1875
10,-0.5107,0.4348,-1.2126,2.2433,0.9274,3.4613,1963
10,-0.0034,0.7578,-1.0962,2.1977,0.1238,3.815,2091
10,-0.4641,1.6477,-0.73,2.2743,-0.3123,4.1869,2115
10,-0.8335,1.1194,-0.6694,2.0579,-0.3685,4.0249,2001
10,-0.925,1.6252,-0.7227,2.1822,-0.081,3.693,1952
10,-1.0286,1.5369,-0.6733,1.7068,0.6432,3.3943,2010
10,-0.7727,1.3633,-0.3567,1.6161,0.768,2.8114,1889
10,-0.5583,1.0532,-0.4417,1.5346,0.5109,2.8743,1956
10,-0.761,0.8232,-0.4204,1.6395,0.5493,2.6914,2074
10,-0.657,0.8823,-0.5867,1.5605,0.0493,2.4176,2090
10,-0.9653,0.8806,-0.614,1.6784,-0.2019,2.2132,2043
10,-0.9292,0.9336,-0.6177,1.5731,-0.3579,2.0009,2128
10,-1.0874,0.7178,-0.4331,1.2529,-0.2586,1.8519,2082
10,-1.0327,0.8608,-0.4268,0.8645,0.0095,1.7638,2033
10,-1.1489,0.8086,-0.2795,0.5139,0.3147,1.527,2001
10,-0.9963,0.6299,-0.3333,0.0182,0.6149,1.1998,1979
10,-0.8335,0.3083,-0.5562,-0.7273,0.6769,0.3175,2165
10,-1.0598,0.4226,-0.335,-1.0314,0.5228,-0.2358,2269
10,-1.051,0.249,-0.4014,-1.0045,0.4896,-0.7291,2233
10,-1.0371,0.2134,-0.4097,-0.7978,0.4012,-1.0634,2120
10,-1.1833,0.083,-0.4294,-0.5105,0.5654,-1.3428,2109
10,-1.1106,-0.0164,-0.4028,-0.122,0.5351,-1.4125,2077
10,-1.2251,-0.0933,-0.4014,0.0971,0.7733,-1.6182,1956
10,-1.2358,-0.0957,-0.3469,0.3087,0.903,-1.757,1958
10,-1.1453,-0.1272,-0.3284,0.4492,0.8467,-1.7986,2207
10,-1.2249,-0.0283,-0.293,0.6902,0.6044,-1.6835,1929
10,-1.199,-0.0698,-0.4702,0.7668,0.3554,-1.6428,2252
10,-1.2927,0.0317,-0.4695,0.7205,0.1611,-1.5555,1939
10,-1.2939,-0.0095,-0.4248,0.7396,0.0525,-1.4522,2396
10,-1.1987,-0.0696,-0.4675,0.6099,-0.0321,-1.3945,1795
10,-1.0813,0.0105,-0.3674,0.5425,-0.3979,-1.6876,2072
10,-1.2126,-0.0032,-0.4136,0.3698,-0.3394,-1.733,2084
10,-1.1038,0.0088,-0.5793,0.1602,-0.3227,-1.8611,2034
10,-0.9736,0.1428,-0.5356,0.1205,-0.4833,-1.9746,2037
10,-0.8687,0.238,-0.3179,0.2942,-0.4536,-2.2016,2067
10,-0.8975,0.0872,-0.4585,0.2502,-0.4081,-2.3181,1946
10,-0.9456,0.0242,-0.6255,0.1385,-0.2329,-2.2876,1931
10,-0.957,0.1362,-0.6545,0.1161,-0.0415,-2.2509,2024
10,-0.9192,0.2151,-0.6406,0.0451,0.0959,-2.1487,2086
10,-0.8669,0.2288,-0.5046,0.0631,-0.0201,-2.0961,2085
10,-0.8755,0.2424,-0.4473,0.032,0.0704,-2.0184,2070
10,-0.8267,0.2649,-0.364,-0.0036,-0.3103,-2.0056,2031
10,-0.8276,0.3318,-0.2715,0.0506,-0.4912,-2.0116,1654
10,-0.8123,0.4106,-0.2654,0.1361,-0.709,-2.063,1769
10,-0.8188,0.4004,-0.2642,0.2859,-0.8524,-2.0196,1600
10,-0.7922,0.4922,-0.24,0.428,-0.7857,-2.0775,2070
10,-0.7949,0.49,-0.2681,0.5481,-0.6379,-1.8871,2031
10,-0.7356,0.4822,-0.3455,0.5976,-0.5667,-1.6488,2076
10,-0.7622,0.4153,-0.5166,0.6404,-0.4631,-1.5083,2080
10,-0.6929,0.4131,-0.6108,0.7825,-0.7194,-1.3282,2068
10,-0.6331,0.366,-0.572,0.5646,-0.9321,-1.3752,2059
10,-0.7666,0.4417,-0.6196,0.3884,-1.0728,-1.3455,2053
10,-0.45,0.5603,-0.6982,0.2135,-1.8024,-1.1674,1945
10,-0.5918,0.4282,-0.7732,-0.1518,-1.9261,-1.2171,2128
10,-0.7224,0.3545,-0.8301,-0.3488,-1.9438,-1.3571,2039
10,-0.6533,0.1621,-1.0686,-0.6933,-2.5231,-1.3894,2149
11,-0.3728,-0.0068,-1.3838,-0.8327,-3.7079,-1.3001,1866
11,-0.4089,-0.0576,-1.4033,-1.1688,-4.2833,-1.1175,1974
11,-0.6414,-0.0664,-1.5715,-1.7293,-4.3635,-1.0435,2100
11,-0.6226,-0.1492,-1.5742,-2.1835,-4.3635,-0.9818,2061
11,-0.604,-0.0352,-1.4348,-2.9356,-4.3635,-1.3466,2052
11,-0.6636,-0.0652,-1.4426,-3.8246,-4.3635,-1.2489,2117
11,-0.7258,-0.1331,-1.3562,-4.0721,-3.8099,-1.6516,1973
11,-0.4043,0.1431,-0.9011,-3.069,-3.719,-1.8901,2405
11,-0.4966,0.2158,-0.8022,-2.9851,-4.3635,-2.0433,2329
11,-0.1714,-0.5396,-0.6851,-2.6412,-4.3635,-1.5243,1956
11,-0.418,-0.7346,-0.7463,-3.2159,-4.3635,-1.2063,1703
11,-0.5137,-0.626,-1.0879,-2.4959,-4.3635,-1.1688,2120
11,-0.7217,-1.1038,-0.9617,-2.6974,-4.3635,-0.328,2136
11,-1.217,-1.2061,-0.843,-3.3541,-4.3635,-0.2168,2130
11,-1.8,-1.5552,-0.8342,-3.5934,-4.3635,-0.0156,1096
11,-1.7632,-1.1848,-0.9333,-3.3085,-4.3635,0.0824,2205
11,-2.0,-1.2939,-0.8608,-3.1516,-4.3635,1.0862,2144
11,-1.8254,-1.4714,-1.1729,-3.0609,-3.9299,1.2712,2137
11,-1.6597,-1.25,-1.0635,-2.9127,-2.9661,1.7026,2268
11,-1.5342,-1.4453,-0.957,-2.757,-2.7597,2.0101,2199
11,-1.0132,-1.8003,-0.8101,-2.3884,-2.031,1.9243,2161
11,-0.9705,-1.375,-0.7356,-2.6766,-2.8679,1.7519,2030
11,-1.4465,-1.5847,-0.7393,-1.809,-2.8016,1.5632,1993
11,-1.3936,-1.5281,-0.6365,-1.5046,-2.3128,1.8429,2162
11,-1.0295,-1.6006,-0.4832,-0.6257,-2.3707,2.3606,2185
11,-0.6667,-1.9778,-0.2756,-0.2525,-2.1324,2.3947,2198
11,-0.9133,-2.0,-0.1326,-0.0855,-1.8833,2.3036,2077
11,-0.9963,-1.9275,0.2864,0.2282,-1.8759,2.1951,1995
11,-1.0537,-1.8794,0.0969,0.2157,-1.8417,2.3352,2101
11,-0.8748,-1.7805,0.2507,0.853,-1.496,2.2696,1552
11,-0.6179,-1.675,0.2112,1.0788,-1.3119,2.4035,2118
11,-0.9641,-1.2239,0.25,1.5713,-0.8471,2.1822,2071
11,-1.6951,-0.8096,0.0349,2.1976,0.0708,2.952,2165
11,0.3516,-2.0,0.46,2.2342,0.5952,2.6903,2133
11,-1.0625,-0.782,0.021,2.9035,0.4219,1.9543,2078
11,-1.0623,-0.5186,0.1831,3.8701,1.4143,1.5508,2021
11,-1.2759,-0.8945,0.6033,4.3385,1.9736,0.7649,1846
11,-1.3206,-1.0278,0.7764,4.3634,2.5613,0.0851,2160
11,-0.5103,-1.4426,0.698,4.3634,3.5386,-0.418,2100
11,-1.2083,-1.2061,0.3979,3.7372,3.8498,-0.8136,2029
11,-0.7454,-1.2903,0.3457,3.7439,4.3634,-1.0467,1867
11,0.0059,-1.4495,0.27,3.3461,4.1081,-0.9722,2141
11,0.3464,-1.6682,0.2793,2.8974,2.9179,-0.6173,2036
11,0.1279,-1.7612,0.3706,2.3747,2.5253,-0.4996,2064
11,-0.1028,-1.5071,0.5691,2.6848,2.3485,-0.7657,1877
11,0.1292,-1.5466,0.5632,2.3242,1.8058,-1.0469,2203
11,0.2236,-1.5984,0.6028,2.0618,1.2852,-1.3527,2032
11,-0.0303,-1.4006,0.3381,1.9528,1.1162,-1.6214,2201
11,0.2151,-1.2009,-0.1475,1.7865,0.6058,-1.8247,2057
11,-0.0974,-0.8865,-0.2156,2.1901,0.5032,-1.9603,1998
11,-0.3181,-0.9111,-0.2532,2.0652,0.7686,-2.1668,2001
11,-0.4858,-0.8948,-0.2798,1.8756,1.0147,-2.2237,2034
11,-0.2581,-0.8386,-0.0283,1.7032,0.978,-2.3025,2031
11,-0.283,-0.781,-0.1367,1.8166,0.8297,-2.4389,2015
11,0.1975,-0.9944,-0.2729,1.7142,0.5633,-2.4799,2047
11,0.2195,-1.0942,-0.2266,1.8275,0.2491,-2.3557,2030
11,0.2107,-1.0808,-0.1921,1.7434,-0.1093,-2.6224,2046
11,0.2322,-1.2896,-0.4509,1.4912,-0.3575,-3.1196,2048
11,-0.8625,-1.0454,-0.8899,0.5051,-0.702,-2.4398,1994
11,-1.5203,-1.1726,-0.8223,0.0051,-0.157,-1.7968,2100
11,-2.0,-1.0181,-0.9258,-0.0366,0.7381,-1.8634,2121
11,-2.0,-1.395,-1.2817,-0.0417,1.5241,-1.9851,2159
11,-1.397,-0.9187,-1.082,0.4325,1.7904,-2.3854,2082
11,-1.937,-0.769,0.083,0.6424,1.1693,-1.5162,2118
11,-2.0,-1.1487,0.259,0.3047,0.0895,-0.7456,2098
11,-1.917,-1.1592,0.0891,-0.1108,0.2779,-0.4353,2011
11,-1.6226,-1.1284,-0.0366,-0.2373,-0.3088,-0.3634,2025
11,-1.4812,-1.0845,-0.1511,-0.0304,-0.3405,0.0245,2019
11,-1.2649,-0.8467,-0.0447,0.0972,0.387,-0.1221,1943
11,-0.8762,-1.2305,-0.6931,-0.2623,-0.2314,-0.3394,2018
11,-0.9358,-1.395,-0.3889,-0.6461,0.9174,0.6978,1979
11,-1.0398,-1.4089,-0.4575,-0.6173,1.6263,0.6894,2012
11,-0.9207,-1.3074,-0.3838,-0.516,2.5365,1.0501,2044
11,-0.8406,-1.354,-0.0166,-0.6291,2.6887,0.9554,2077
11,-0.876,-1.1282,0.2622,-0.7144,2.2352,0.9184,2009
11,-0.8792,-0.9924,0.2061,-1.0975,2.2442,1.3645,2037
11,-0.9978,-1.1714,0.1233,-1.3573,1.9644,1.5735,2105
11,-0.7651,-1.0071,0.1714,-1.3491,1.544,1.3946,1986
11,-0.792,-1.2231,-0.043,-1.232,0.5157,1.1519,2066
11,-0.7207,-0.6677,0.1677,-0.9079,0.9309,0.8369,2053
11,-0.6965,-1.2041,-0.4802,-1.0223,-0.0642,0.2357,2021
11,-0.3733,-0.8313,-0.3291,-0.9288,-0.2464,-0.0826,2127
11,-0.7341,-1.1238,-0.3362,-0.9228,0.5177,0.0466,2068
11,-0.6707,-1.0081,-0.05,-0.545,0.9167,0.0626,2050
11,-0.4285,-1.2996,0.3699,-0.6146,0.9893,0.5829,2132
11,-0.9534,-1.3542,0.2268,-0.5079,1.0618,0.6369,1962
11,-1.064,-1.29,0.1221,-0.691,0.9865,0.9001,2017
11,-1.1106,-1.3618,-0.2227,-0.7389,1.4737,1.0772,2101
11,-1.1741,-1.0632,-0.2976,-0.4742,1.7106,0.875,2019
11,-0.7017,-1.2188,-0.208,-0.2357,1.286,0.6554,2055
11,-0.873,-0.8555,0.3372,0.2847,1.2075,0.2144,2100
11,-0.78,-1.2664,-0.1514,-0.0859,-0.0874,0.1186,2103
11,-0.4917,-1.1521,-0.1011,-0.4065,-0.9658,-0.4594,1989
11,-0.5554,-0.9807,-0.2488,-0.5781,-0.8276,-0.128,2073
11,-0.6599,-1.085,-0.3057,-0.7052,-0.3366,0.3151,2068
11,-1.0857,-0.9431,-0.4351,-0.3751,-0.0407,0.3996,1994
11,-1.1887,-1.0227,-0.6128,-0.3185,0.3623,0.6614,2049
11,-1.176,-1.0588,-0.4292,-0.1453,0.7252,0.7036,2072
11,-1.2646,-1.1089,-0.6135,-0.1816,0.9062,0.9174,1963
11,-1.2712,-1.0715,-0.3062,-0.2132,0.7806,0.6508,2060
11,-0.9763,-1.1594,-0.5579,-0.3769,0.5176,0.7657,2074
12,-0.9607,-1.1011,-0.0903,-0.1955,0.2055,0.5781,2131
12,-0.5806,-1.1472,-0.5842,-0.3396,0.3237,0.4685,1992
12,-0.5881,-1.1438,-0.5647,-0.3151,-0.1515,0.3448,1986
12,-0.6045,-0.7437,-0.5232,-0.1168,-0.1712,0.2167,2076
12,-0.3032,-0.8818,-0.5657,0.112,-0.0627,0.608,1974
12,-0.6519,-0.9448,-0.47,0.1731,-0.0084,0.6335,2060
12,-0.7837,-0.7993,-0.6514,0.2211,0.3317,0.6023,2073
12,-0.5745,-0.7424,-0.5186,0.2964,0.4195,0.8429,2028
12,-0.541,-0.5908,-0.7332,0.277,0.3561,0.8592,2003
12,-0.5356,-0.5989,-0.699,0.2999,0.4823,1.1553,1921
12,-0.4402,-0.9683,-0.8298,0.3671,0.0816,1.1528,2032
12,-0.5974,-1.0752,-0.5022,0.3828,-0.1706,1.018,1910
12,-0.5747,-1.1287,-0.9487,0.261,0.4544,0.9154,2213
12,-0.2954,-0.7734,-0.8479,0.2663,-0.0493,0.6421,2197
12,-0.2107,-0.5239,-1.0237,0.3183,-0.2806,0.609,1897
12,-0.2297,-0.043,-0.8911,0.4462,-0.4983,0.558,2006
12,-0.3423,-0.3193,-0.8035,0.6814,-0.1165,0.591,1891
12,-0.6614,-0.7583,-0.8325,0.518,-0.1854,0.5639,2170
12,-1.1809,-0.4951,-0.9956,0.7355,-0.0914,-0.0374,2086
12,-0.6953,-0.5034,-0.8789,0.6188,0.2791,0.3069,2125
12,-0.6348,-0.5657,-0.8879,0.6341,-0.4366,0.5646,2052
12,-1.1296,-0.312,-1.1226,0.6528,-0.1024,0.2458,1752
12,-0.6836,1.3455,-0.8738,1.4989,0.5911,-0.073,1306
12,-0.7288,1.9999,-1.5269,1.7604,0.3151,-0.5592,2282
12,1.2957,1.9999,0.158,2.1161,1.0484,0.5023,1920
12,-0.7227,1.9999,-1.3066,1.2266,-2.0346,2.7621,2248
12,-2.0,-0.6118,-1.2026,-0.3137,2.3156,3.0871,2144
12,-2.0,-0.738,-0.595,-0.6016,3.1688,0.7415,2147
12,-1.3083,0.6985,-0.0745,0.1964,-0.5007,0.0224,2136
12,-0.1621,0.4185,-0.7666,-0.359,-1.115,-0.025,1990
12,-1.0735,0.6987,-0.1001,-1.0222,-2.0783,-0.6088,2067
12,-0.8545,0.8306,0.3083,-0.7935,-2.3147,-0.8725,1978
12,-1.2014,0.134,0.0222,-0.7645,-1.9888,-0.2928,2077
12,-1.2585,-0.5767,-0.2646,-0.2888,-1.5564,0.0103,2025
12,-1.4431,-0.8528,-0.6589,-0.0386,-1.0674,-0.0225,2012
12,-1.7051,-0.8804,-0.7217,0.0795,-0.512,-0.5718,2103
12,-1.468,-1.1565,-0.5808,-0.1218,0.0812,-1.225,2074
12,-0.8027,-0.9094,-0.2864,0.0858,-0.3611,-0.7261,2189
12,-0.4714,-0.7986,-0.1663,-0.1474,-0.1985,-0.5064,2122
12,-0.3816,-0.9702,-0.1416,0.1767,0.7277,-0.0284,2118
12,-0.6802,-0.6863,-0.2759,0.2998,0.1377,0.1954,1956
12,-0.6191,-0.2698,-0.3442,0.7548,0.5228,-0.8288,2044
12,-0.3789,-0.5784,-0.4446,0.6653,0.7006,-0.5955,2051
12,-0.9238,-0.9946,-0.3853,0.5251,0.8068,-0.7368,2160
12,-1.188,-0.9297,-0.7622,0.1521,1.3053,-0.9634,1935
12,-0.968,-0.5542,-0.5159,0.0988,1.062,-1.1065,2012
12,-0.7686,-0.375,-0.5452,0.1281,1.2481,-1.336,1914
12,-0.9966,-0.1421,-0.7256,-0.1783,1.4551,-1.4218,2103
12,-0.9783,-0.4385,-0.6924,-0.2808,1.0638,-1.1375,2065
12,-0.9111,-0.2771,-0.7236,-0.4099,0.7022,-1.2174,2032
12,-0.9963,0.3398,-0.7285,-0.7116,0.9212,-1.49,2122
12,-1.1716,0.3516,-0.4187,-0.6537,0.9308,-1.038,2050
12,-1.3782,-0.1404,-0.3936,-0.817,1.1461,-1.0082,2093
12,-0.9873,-0.6208,-0.6121,-0.9222,1.2071,-1.0242,1892
12,-0.8916,-0.6008,-0.5664,-1.1505,0.5698,-0.8584,2236
12,-0.8516,-0.4084,-0.7485,-1.2825,0.3067,-0.9994,2114
12,-0.6621,-0.6523,-0.6765,-1.3742,-0.3165,-0.8766,2145
12,-0.7195,-0.5295,-0.6462,-1.3812,-0.7544,-0.9479,2086
12,-0.8323,-0.4192,-0.6348,-1.3541,-1.2386,-0.9166,1915
12,-1.071,-0.2463,-0.457,-1.2327,-0.932,-0.7702,2202
12,-0.9612,-0.5181,-0.5627,-1.284,-0.5835,-0.504,2065
12,-1.0037,-0.6455,-0.5232,-1.12,-0.3685,-0.432,2174
12,-0.7944,-0.752,-0.5115,-1.1015,-0.028,-0.5446,1885
12,-0.657,-0.7036,-0.521,-1.054,-0.0579,-0.7279,2089
12,-0.574,-0.7319,-0.5151,-0.8016,-0.1577,-0.7681,2028
12,-0.6877,-0.6882,-0.5657,-0.7203,-0.2157,-0.7739,2121
12,-0.7913,-0.73,-0.5479,-0.5263,-0.187,-0.9404,2087
12,-0.9236,-0.7297,-0.637,-0.5256,-0.0407,-0.9268,2099
12,-0.9048,-0.8853,-0.6892,-0.4841,0.2364,-1.078,1977
12,-0.947,-0.8491,-0.658,-0.3888,0.4354,-1.0618,2053
12,-0.7524,-0.9028,-0.6484,-0.346,0.479,-1.0214,2010
12,-0.7764,-0.7332,-0.6338,-0.2477,0.4191,-0.8588,2141
12,-0.8582,-0.6189,-0.6208,-0.1446,0.3048,-0.6917,2076
12,-0.8738,-0.5984,-0.6741,-0.0345,0.1677,-0.4978,2089
12,-0.8904,-0.4495,-0.6416,0.0872,0.0855,-0.3149,2165
12,-0.937,-0.7227,-0.8115,0.0486,0.0282,-0.2634,2050
12,-0.8914,-0.7539,-0.6804,0.0633,-0.0855,-0.173,1996
12,-1.0596,-0.6848,-0.6643,-0.0494,-0.0107,0.1432,1985
12,-0.8726,-0.6292,-0.6746,-0.1413,0.1856,0.1736,2184
12,-0.8381,-0.5684,-0.6572,-0.1716,0.1349,0.188,1958
12,-0.7344,-0.3086,-0.6313,-0.1732,0.1065,0.2354,2040
12,-0.646,-0.2749,-0.6987,-0.1533,0.0017,0.2891,2061
12,-0.708,-0.2769,-0.668,-0.0032,-0.0867,0.2882,1964
12,-0.7429,-0.2136,-0.5649,0.1214,-0.177,0.2234,2100
12,-0.7141,-0.3386,-0.5081,0.1157,-0.3334,-0.0509,1981
12,-0.697,-0.4763,-0.5457,0.0273,-0.4292,-0.2924,2062
12,-0.7815,-0.4688,-0.6064,-0.0642,-0.3393,-0.5108,2063
12,-0.8406,-0.5603,-0.6313,-0.1152,-0.0824,-0.6055,2016
12,-0.8418,-0.5708,-0.5701,-0.3567,0.223,-0.7403,2069
12,-0.8091,-0.5083,-0.5557,-0.5104,0.4129,-0.8066,1906
12,-0.6587,-0.5144,-0.624,-0.5996,0.3029,-0.8641,1949
12,-0.7651,-0.3794,-0.5566,-0.5396,0.1159,-0.8417,2034
12,-0.6152,-0.3604,-0.6667,-0.4821,-0.0293,-0.6999,2012
12,-0.8198,-0.2502,-0.6025,-0.451,0.029,-0.7542,2098
12,-0.8821,-0.2314,-0.512,-0.3863,0.0399,-0.8082,2050
12,-0.937,-0.3154,-0.4424,-0.2868,-0.0776,-0.8192,2067
12,-0.96,-0.2922,-0.4646,-0.2035,0.0156,-0.7399,2048
12,-0.9875,-0.1685,-0.4106,-0.1329,0.0483,-0.7654,2053
12,-1.0325,-0.1858,-0.387,-0.0346,0.0759,-0.6775,2055
12,-1.0281,-0.2627,-0.4502,0.0419,0.0759,-0.6389,2044
12,-1.0332,-0.2178,-0.4133,0.2882,0.1569,-0.5924,2025
12,-0.9956,-0.21,-0.3979,0.2992,0.1597,-0.4746,2038
12,-1.0125,-0.032,-0.4348,0.3494,0.2284,-0.3432,2041
12,-0.8726,-0.0051,-0.5464,0.4362,0.0368,-0.4312,2067
12,-0.834,0.0308,-0.6289,0.4324,-0.3417,-0.1069,2065
13,-0.9167,0.2185,-0.6057,0.3468,-0.3085,-0.3085,2056
13,-0.7319,0.1128,-0.7554,0.0481,-0.6163,-0.1892,2049
13,-0.6084,0.1201,-0.8401,-0.1758,-0.6524,-0.2994,2052
13,-0.6592,0.1335,-1.1504,0.0349,-1.7518,-0.5781,2034
13,-0.5544,0.1611,-1.2278,0.0326,-3.0502,-1.0567,2042
13,-0.1221,0.0129,-1.5227,0.4176,-4.0415,-1.107,1905
13,0.0081,-0.2346,-1.115,0.2906,-4.2271,-0.6347,2020
13,-0.384,-0.0754,-1.1526,-0.1381,-4.3635,-0.5224,2156
13,-0.511,-0.0452,-1.2195,-0.3193,-4.3635,-0.6437,2091
13,-0.5884,-0.0559,-0.9802,-0.3398,-4.3635,-0.5854,1799
13,-0.6785,-0.1387,-0.8328,-0.0041,-4.3635,-0.7289,1917
13,-0.6587,-0.4949,-0.6953,0.3661,-4.3635,0.2041,1884
13,-0.7383,-0.9932,-0.6987,0.4681,-4.3635,-0.5546,1979
13,-1.0559,-0.9805,-0.2319,0.4521,-4.3635,-0.8869,1988
13,-1.3582,-1.1179,-0.6277,-0.2493,-4.3635,-0.7116,1854
13,-1.6616,-1.1455,-0.6458,0.0874,-4.3635,-0.406,2180
13,-1.3896,-1.3887,-0.3486,-0.4542,-4.3635,0.1394,1830
13,-1.115,-1.2043,-0.3464,-0.7147,-4.3635,-0.7166,2212
13,-1.4978,-1.6743,-0.3508,-1.0365,-4.3635,-0.5718,1962
13,-1.5522,-2.0,-0.4263,-1.3655,-4.3635,-0.5641,1506
13,-1.2969,-1.6406,-0.4895,-1.3628,-4.3635,-0.7339,2442
13,-1.1619,-1.55,-0.4575,-1.5198,-4.3635,0.2513,1466
13,-0.7588,-1.4475,-0.397,-1.3861,-4.3635,0.126,2364
13,-0.7761,-1.6477,-0.2773,-0.9488,-4.2433,0.7158,2125
13,-0.9497,-1.5188,-0.343,-0.7299,-4.0539,1.0195,2028
13,-0.6702,-1.4675,-0.2725,-0.1013,-3.6121,1.218,2163
13,-0.8369,-1.5049,-0.113,0.1987,-3.2441,1.564,1900
13,-1.0652,-1.3772,-0.1101,0.7361,-2.7044,1.6672,2081
13,-0.8948,-1.3181,-0.0994,1.1007,-1.9623,1.9592,2002
13,-1.3513,-1.1213,-0.106,1.5406,-1.1303,2.0216,1930
13,-1.2207,-1.0605,0.1572,1.8715,0.2562,1.9293,1996
13,-1.1152,-0.8772,0.1968,2.1877,0.6843,1.7464,2075
13,-1.1443,-0.832,0.3616,2.4486,1.0705,1.8864,1982
13,-1.2581,-0.8506,0.427,2.7604,1.8978,2.0224,1411
13,-0.7871,-0.9619,0.2312,2.9369,2.7236,1.2865,2328
13,-0.1196,-0.9023,0.0813,3.2891,2.0449,1.5584,2257
13,-0.4546,-0.959,0.1455,3.594,1.9093,1.3978,1942
13,-1.1951,-0.8369,0.6155,3.9564,2.2132,1.1545,2051
13,-1.2363,-0.9924,0.6538,3.9759,3.2294,0.504,1997
13,-0.53,-1.3237,0.6243,3.7339,3.6211,-0.227,2111
13,-0.6619,-1.2891,0.7302,3.4014,3.4279,-0.392,2184
13,-0.0989,-1.3896,0.6201,3.165,2.9529,-0.7343,1896
13,-0.2202,-1.3337,0.436,3.0321,2.7605,-0.6288,1919
13,-0.2356,-1.1934,0.0945,3.0887,2.3792,-0.6143,2060
13,0.3792,-1.1362,0.3435,1.8375,0.2349,-0.4727,2169
13,-0.6677,-0.8015,0.1414,1.5083,0.3063,-0.1125,1875
13,-0.481,-0.8733,0.2822,1.5111,0.5629,-0.4284,2086
13,-0.802,-0.5371,0.0591,2.4296,1.4019,-1.146,2089
13,-0.0005,-0.8691,0.2959,2.2846,1.3516,-1.3801,2286
13,-0.3323,-0.9258,0.2163,2.173,1.1239,-1.5082,1885
13,0.2559,-1.0969,-0.0051,1.9972,1.2089,-1.5838,2100
13,0.1228,-1.0173,-0.1643,1.7946,0.7508,-1.3074,1968
13,-0.1519,-0.8408,-0.1536,1.8788,0.5641,-1.13,2119
13,-0.3645,-0.9089,-0.0867,1.8832,0.4352,-1.1623,2125
13,-0.4792,-0.8149,-0.2861,1.7556,0.1515,-1.4456,2109
13,-0.3315,-0.8391,-0.4482,1.9343,0.0987,-1.3889,2011
13,-0.6045,-0.9126,-0.5977,1.5061,0.2288,-1.5305,2055
13,-0.5801,-0.959,-0.4846,1.4218,0.3288,-1.3561,2070
13,-0.4485,-0.8994,-0.3547,1.1697,0.1627,-1.3802,2020
13,-0.5007,-1.0947,-0.3574,0.8975,-0.077,-1.3904,2037
13,-0.6213,-1.0237,-0.2212,0.6208,-0.4597,-1.3174,2155
13,-0.7412,-0.875,-0.2827,0.355,-0.7658,-1.2877,2021
13,-0.8403,-0.8225,-0.3108,0.1109,-0.9821,-1.2706,2103
13,-0.9023,-0.8733,-0.2798,-0.0297,-0.9646,-1.1728,2031
13,-0.7839,-0.804,-0.5208,-0.1683,-0.7628,-1.0774,2018
13,-0.7781,-0.8042,-0.3936,-0.1045,-0.0726,-1.0114,2019
13,-0.8311,-0.9011,-0.4783,0.0537,0.426,-1.0798,2113
13,-0.8879,-0.6772,-0.3647,0.35,0.4458,-1.2316,2070
13,-1.1506,-0.7468,-0.2231,0.2036,0.2322,-1.3001,2082
13,-1.0684,-0.7922,-0.3274,-0.1682,0.6356,-1.3185,2068
13,-0.645,-0.7766,-0.3801,-0.4408,1.0758,-1.246,1980
13,-0.7627,-0.6521,-0.4519,-0.3789,1.399,-0.8973,1980
13,-0.7922,-0.9543,-0.2327,-0.1515,1.566,-0.6915,2060
13,-1.0825,-0.8914,-0.4531,-0.1165,1.6364,-0.7184,2034
13,-1.1682,-0.9614,-0.2249,0.0216,1.2015,-0.797,2055
13,-1.3513,-0.9497,-0.1433,0.0602,0.6679,-0.8295,2027
13,-1.6409,-1.0344,-0.0706,0.0658,0.3365,-0.695,2053
13,-1.4773,-1.1372,-0.0105,0.0124,0.4385,-0.5729,2047
13,-1.363,-1.032,-0.1165,0.0742,0.7741,-0.4681,2054
13,-1.0984,-1.1079,-0.0803,0.0649,1.1003,-0.2633,2023
13,-1.3174,-1.0898,0.1091,-0.0108,1.1676,0.031,2133
13,-1.0579,-1.1768,-0.0767,-0.1459,1.4552,0.2048,1964
13,-1.1067,-1.2173,-0.1482,-0.4666,1.472,0.4276,1997
13,-1.0886,-1.2209,-0.175,-0.4868,1.2788,0.4148,2022
13,-1.0474,-1.1318,-0.1519,-0.2252,0.887,0.2959,2049
13,-0.8474,-1.2356,0.0161,-0.0109,0.6086,0.247,2214
13,-0.7534,-1.2415,0.0518,0.028,0.3695,0.5064,2089
13,-0.9456,-1.4749,0.2288,-0.1904,0.4932,0.7874,2081
13,-0.9961,-1.5176,0.2271,-0.418,0.6452,0.9027,2278
13,-1.1345,-1.4158,-0.0344,-0.4926,0.7554,0.8586,1998
13,-1.1257,-1.1699,0.0725,-0.3843,0.9439,0.7253,1998
13,-0.9717,-1.0601,0.1196,-0.3197,0.9071,0.7431,1976
13,-0.7969,-1.1082,0.127,-0.4702,0.9809,0.7992,1972
13,-0.6721,-1.26,0.1677,-0.5066,1.0899,1.0945,1999
13,-0.7561,-1.437,0.0535,-0.229,1.3424,1.0955,2219
13,-0.7334,-1.1753,0.0056,0.03,1.5426,0.8024,1987
13,-0.8223,-1.0898,0.0378,0.3265,1.4695,0.5762,2005
13,-0.7549,-1.061,0.0315,0.5998,1.3205,0.4833,2165
13,-0.7451,-1.0654,0.0154,0.7215,1.1684,0.3682,1833
13,-0.8123,-1.2527,-0.1162,0.6357,1.3872,0.3376,2113
14,-0.6338,-1.408,-0.1462,0.4722,1.5624,0.2336,2056
14,-0.667,-1.2886,-0.0232,0.5028,1.6651,0.2457,2031
14,-0.5276,-1.4202,-0.0627,0.187,1.7627,0.082,2080
14,-0.6465,-1.0576,-0.084,0.0329,1.8184,-0.1414,2055
14,-0.5833,-0.9587,-0.1575,-0.0088,1.6784,-0.2776,2059
14,-0.6787,-1.0027,-0.261,0.0871,1.3929,-0.2927,1990
14,-0.6338,-1.1929,-0.332,-0.0405,1.2564,-0.4525,2074
14,-0.5847,-1.0923,-0.4436,0.0217,1.1685,-0.6596,2052
14,-0.467,-1.0742,-0.5132,0.1981,1.1475,-0.6171,2079
14,-0.686,-1.095,-0.4292,0.2445,1.3081,-0.4265,1951
14,-0.8506,-1.2456,-0.1277,-0.1258,1.2387,-0.267,2012
14,-0.9524,-1.207,-0.1355,-0.7094,1.1661,-0.2016,2012
14,-1.03,-1.3865,-0.02,-1.4776,0.9636,-0.349,1944
14,-1.0557,-1.1877,-0.002,-2.1325,0.5919,-0.5669,2103
14,-0.843,-0.7952,-0.5427,-1.6741,0.1579,-0.3002,2032
14,-0.8982,-0.5557,-0.7668,-1.1764,0.025,0.2386,2064
14,-0.9031,-0.9553,-0.6675,-0.9697,0.1912,0.4484,1898
14,-0.9185,-1.064,-0.5273,-1.0385,0.4143,0.4727,2078
14,-0.9211,-0.8477,-0.2712,-0.9895,0.4817,0.4089,2032
14,-0.8328,-0.7915,-0.3301,-1.0171,0.3373,0.5257,2123
14,-0.9624,-0.8218,-0.1907,-1.3244,0.0012,0.6882,2040
14,-0.8958,-0.8491,-0.3857,-1.3596,-0.4951,0.6669,1999
14,-0.6743,-1.1328,-0.3359,-1.3934,-1.0439,1.1808,1979
14,-0.7876,-0.8586,-0.6543,-0.8857,-1.0368,1.1754,2015
14,-0.7605,-0.7075,-0.7673,-0.5283,-0.5863,1.1021,2088
14,-0.6392,-0.5388,-0.7712,-0.1542,0.0409,1.2672,2053
14,-0.6201,-0.4988,-0.7371,0.1669,0.5817,1.1741,2146
14,-0.5134,-0.5771,-0.5972,0.4635,0.7789,1.067,2055
14,-0.4795,-0.8384,-0.4058,0.4625,0.5357,1.1431,2039
14,-0.5173,-1.0298,-0.4536,0.3911,-0.031,1.2611,1993
14,-0.1958,-1.3657,-0.3882,-0.1045,-1.008,1.0027,1928
14,-0.4465,-0.834,-0.6985,0.0495,-0.9895,1.2093,2064
14,-0.3125,-0.5168,-0.7791,0.2955,-1.0098,0.7486,2040
14,-0.4236,-0.3333,-1.1277,0.758,-0.4377,0.7742,2096
14,-0.531,-0.519,-1.0742,0.8927,-0.5426,0.8736,1991
14,-0.7493,-0.5623,-0.8997,1.0742,-0.2477,1.0314,2196
14,-0.5447,-0.7849,-0.7424,0.901,-0.3558,1.4261,2050
14,-0.5073,-0.9148,-0.7158,0.7369,-0.3907,1.3591,2029
14,-0.7087,-0.5457,-0.7554,0.7058,-0.6679,1.266,2231
14,-0.6497,-0.3857,-0.969,1.0051,-0.6532,1.0709,1971
14,-0.5544,-0.3777,-0.9514,1.0982,-0.6851,0.8762,1743
14,-0.7324,-0.5889,-0.9919,1.1483,-0.2975,1.0451,2338
14,-0.4951,-0.5339,-0.9067,1.1646,-0.5155,0.9287,1651
14,-0.604,-0.4529,-0.8025,1.2571,-0.4805,1.0419,2119
14,-0.7703,-0.4592,-0.8899,1.2716,-0.6718,1.0563,2017
14,-0.6255,-0.3596,-0.8672,1.1854,-0.7962,0.9001,2198
14,-0.7139,-0.1741,-0.9312,1.2477,-0.9071,0.9083,2283
14,-0.7178,-0.3179,-1.0659,1.3653,-0.8556,1.181,2163
14,-0.5486,-0.3845,-0.9727,1.421,-0.8392,1.1091,2024
14,-0.8474,-0.2517,-0.9761,1.6006,-0.7721,1.2396,2066
14,-0.9041,-0.0872,-0.9314,1.6346,-0.7265,1.1987,2445
14,-0.6831,0.0608,-0.7898,1.9956,-0.9264,1.2515,2081
14,-0.5679,0.0132,-0.804,2.0089,-0.9463,1.4051,2278
14,-0.6687,0.3552,-0.9089,2.2903,-0.8594,1.4727,2204
14,-0.4692,0.375,-0.7117,2.5645,-0.6275,1.853,1570
14,-0.5784,0.2578,-0.7209,2.7879,-0.4605,2.1491,1927
14,-0.6687,0.4602,-0.6086,2.9247,-0.0611,2.2354,2149
14,-0.6274,0.3696,-0.613,2.9205,0.2183,2.4264,1902
14,-0.918,0.2791,-0.5459,2.794,0.9578,2.5195,1981
14,-0.8801,0.2393,-0.8137,2.4907,1.4074,3.1147,1241
14,-0.7874,0.6343,-0.6277,2.2032,2.2478,3.2439,2448
14,-0.6731,0.615,-0.6992,1.7685,2.2403,3.4122,2444
14,-1.1851,-0.4456,-1.0334,0.9578,3.7719,4.0828,2187
14,-0.3474,1.019,-0.2427,1.6195,3.2573,3.2022,1982
14,0.0435,0.7332,-0.7515,0.8488,1.8101,3.9775,1915
14,-0.7812,1.178,-0.4832,1.3246,1.5914,3.7605,2056
14,0.042,1.4927,-0.3691,1.8803,0.2999,3.736,2065
14,-0.6887,1.4175,-0.4546,2.0152,-0.3145,3.8173,2046
14,-1.2744,0.9651,-0.3594,2.1426,0.0887,3.6986,2100
14,-1.2561,1.0413,-0.7544,1.7547,0.5164,3.7454,2090
14,-0.6924,0.8901,-0.29,1.8508,0.1611,3.5025,1862
14,-1.0068,0.9978,-0.2256,2.1506,-0.4532,3.0405,2203
14,-1.2561,0.6831,-0.4319,2.2822,-0.4582,2.691,1876
14,-1.0632,0.4919,-0.0828,2.2374,-0.6549,1.9772,2126
14,-1.0664,0.7407,-0.5146,2.1039,-1.1444,1.2884,2142
14,-1.2512,0.7009,-0.5442,1.5763,-0.98,0.5674,2003
14,-1.3013,0.6406,-0.9312,0.7866,-0.2666,-0.069,2195
14,-1.0105,0.999,-0.751,0.436,-0.0294,-0.5874,2195
14,-1.0691,0.8716,-0.7344,0.0668,0.5785,-0.7178,2009
14,-0.9702,0.7837,-0.5564,-0.3113,0.9536,-0.9722,1888
14,-1.0452,0.6992,-0.4404,-0.6866,0.7488,-1.0115,2101
14,-1.0706,0.5012,-0.3689,-0.8518,0.5554,-1.0456,2181
14,-1.1145,0.2373,-0.5132,-0.9921,0.4084,-1.2781,2032
14,-1.1721,0.1116,-0.5889,-1.0764,0.3239,-1.3957,1848
14,-1.2346,0.0381,-0.6746,-1.0625,0.4718,-1.4348,2242
14,-1.082,-0.0532,-0.6404,-1.048,0.3838,-1.3918,1743
14,-1.0596,0.0059,-0.6321,-0.9305,0.2481,-1.2802,1962
14,-1.1404,0.1555,-0.4373,-0.7698,0.1842,-1.1118,2191
14,-0.9775,0.1597,-0.2578,-0.5156,-0.1759,-1.0822,2265
14,-1.0913,0.1304,-0.3916,-0.322,-0.2714,-1.1717,1898
14,-0.9783,0.2705,-0.2603,-0.21,-0.277,-1.2639,2035
14,-0.9961,0.2119,-0.4792,-0.0675,-0.2127,-1.4917,2037
14,-0.9644,0.1111,-0.5552,-0.1457,-0.1459,-1.8006,1892
14,-0.9976,-0.0271,-0.6206,-0.2816,-0.1663,-2.1493,2046
14,-0.8984,-0.0715,-0.6782,-0.4185,-0.0997,-2.4509,1997
14,-1.0193,-0.0361,-0.6458,-0.5095,0.1342,-2.5888,2146
14,-0.8647,-0.0151,-0.6025,-0.5813,0.2413,-2.7919,1937
14,-0.8264,0.0408,-0.6277,-0.5328,0.3015,-2.8986,2099
14,-0.752,-0.0146,-0.6194,-0.7297,0.3759,-3.0178,2018
14,-0.8755,0.1978,-0.5999,-0.9116,0.5847,-2.9976,2162
14,-0.8552,0.2065,-0.4775,-0.844,0.7524,-2.8277,1947
14,-0.9238,0.2395,-0.6121,-0.9937,0.7735,-2.594,1960
14,-0.7107,0.3811,-0.564,-1.0055,0.6458,-2.4015,2069
15,-0.8423,0.2373,-0.571,-0.7598,0.4357,-2.349,2100
15,-0.9985,0.262,-0.4019,-0.4042,0.3021,-2.1598,2072
15,-0.9741,0.1689,-0.2966,-0.1352,0.1414,-1.923,2100
15,-1.0559,0.054,-0.4277,0.0048,-0.078,-1.8238,2081
15,-1.0042,0.1372,-0.4255,-0.0314,-0.2643,-1.8164,2065
15,-1.2422,0.0593,-0.4202,-0.0944,-0.2473,-1.6222,2064
15,-1.2063,-0.0071,-0.4937,-0.3456,-0.1341,-1.7278,2032
15,-1.1543,-0.0862,-0.3889,-0.4,-0.0324,-1.7606,2027
15,-1.1003,-0.1074,-0.4963,-0.4753,-0.3128,-1.7572,2005
15,-1.0588,-0.1399,-0.4919,-0.4429,-0.5088,-1.7723,2039
15,-1.0837,-0.144,-0.436,-0.3602,-0.7135,-1.766,2055
15,-1.0281,-0.1296,-0.5278,-0.2093,-0.8155,-1.6902,2097
15,-0.9314,-0.0542,-0.5042,-0.172,-0.8079,-1.6659,2112
15,-0.8484,0.0288,-0.5037,0.0401,-0.9251,-1.7251,2049
15,-0.78,0.053,-0.4629,0.3199,-0.8653,-1.7548,2084
15,-0.7488,0.0757,-0.5178,0.5473,-0.6901,-1.8305,1992
15,-0.7339,0.1423,-0.5676,0.6669,-0.5356,-1.7323,2003
15,-0.7207,0.1692,-0.5952,0.6605,-0.2199,-1.7695,2020
15,-0.5356,0.2712,-0.623,0.7252,-0.2208,-1.6719,2035
15,-0.5127,0.4734,-0.6492,0.7159,-0.1242,-1.6498,2120
15,-0.4573,0.5515,-0.6184,0.4606,-0.1716,-1.6769,2060
15,-0.3621,0.5464,-0.6787,0.1886,-0.3478,-1.6739,2056
15,-0.2461,0.6306,-0.6812,-0.0425,-0.5694,-1.6146,2017
15,0.4312,0.2607,-0.3208,-0.0393,-0.0579,-1.7251,2026
15,-0.1868,0.9116,-0.7026,-0.8188,-1.3105,-1.6761,2014
15,-0.199,0.8074,-0.9824,-1.2452,-2.3918,-1.4486,2009
15,-0.0889,0.6108,-1.1301,-1.1604,-2.5099,-1.5813,2031
15,-0.1675,0.509,-1.1257,-1.2978,-2.5697,-1.6364,2059
15,-0.197,0.3032,-1.2927,-1.7785,-2.7232,-1.5571,1904
15,-0.4556,0.3835,-1.324,-1.8644,-3.3615,-1.5226,1959
15,-0.3074,0.3215,-1.5557,-2.4229,-3.9739,-1.6017,2149
15,-0.2612,0.2205,-1.5266,-2.5654,-3.7728,-1.7795,2089
15,-0.5083,0.1699,-1.3796,-3.0729,-4.1602,-1.4739,2368
15,-0.3489,0.0657,-1.2847,-3.3202,-4.3635,-1.9265,1404
15,-0.4878,-0.3113,-1.1211,-3.4347,-4.3635,-1.6444,2176
15,-0.6323,0.0254,-1.2324,-2.8205,-4.3635,-1.4502,2004
15,-0.5413,-0.4082,-1.3435,-2.9347,-4.3635,-1.1445,2057
15,-1.0371,-1.1177,-1.2974,-2.5999,-4.3635,-1.2639,2122
15,-1.1423,-1.45,-1.1851,-2.8485,-4.3635,-1.1113,2121
15,-1.2307,-1.6226,-0.979,-2.9428,-4.3635,-0.8311,2135
15,-1.1985,-1.4897,-0.8655,-3.1483,-4.3635,-0.4826,2077
15,-0.9646,-1.3499,-0.8933,-3.0779,-4.3635,-0.4761,1765
15,-1.2756,-1.1733,-0.8997,-3.0391,-4.3635,-0.0043,1979
15,-1.1912,-1.2107,-0.6465,-2.6554,-4.3635,0.5232,2032
15,-1.6575,-1.2158,-0.7539,-2.1174,-4.3635,0.9095,1955
15,-1.8552,-1.3123,-0.6135,-1.5932,-4.3635,1.069,1990
15,-1.7395,-1.5881,-0.738,-1.3512,-4.3635,1.2765,2003
15,-1.7957,-1.8362,-0.4656,-1.1346,-4.3635,1.4291,2122
15,-1.6047,-1.8914,-0.1938,-1.1167,-4.3635,1.7472,2028
15,-1.4146,-1.6086,-0.1443,-0.7188,-3.7428,1.2451,2118
15,-1.5461,-1.679,-0.0889,-0.5019,-3.696,1.7321,1914
15,-1.5437,-1.501,-0.1882,0.2041,-2.898,1.2067,1987
15,-1.4185,-1.5212,0.1128,0.6537,-2.1826,0.8577,2117
15,-1.283,-1.6697,0.1648,0.6267,-1.899,1.2391,2144
15,-1.5581,-1.4595,0.1406,1.1852,-0.8846,1.5069,1882
15,-0.8074,-2.0,0.0366,1.9323,-0.1646,1.2444,2209
15,-0.0273,-2.0,-0.2358,2.1662,1.2006,1.5601,2212
15,-0.2004,-1.6318,-0.2505,2.9518,1.511,0.8046,2167
15,-0.1843,-1.198,-0.5525,3.5866,2.6236,0.4851,2044
15,-0.8503,-1.231,0.4065,3.853,2.7478,0.4085,2055
15,-1.2661,-1.3745,0.4885,3.8759,4.2783,0.494,2095
15,-0.7837,-1.5825,0.3474,3.7371,4.3634,0.6448,1834
15,0.5376,-1.4844,0.5623,3.3642,4.3634,-0.9092,2197
15,-1.0955,-1.041,0.5193,3.2839,3.7213,-0.3245,1967
15,-0.6443,-1.5037,0.3325,2.8658,3.7296,-0.3681,2106
15,-1.0046,-1.2236,0.5994,2.5297,4.3634,-0.0952,2280
15,-0.6475,-1.5815,0.7622,2.4426,4.3634,-0.545,2140
15,0.0676,-1.7346,0.3928,1.8257,4.0361,-0.008,2002
15,0.8252,-1.9214,0.5215,1.036,3.8375,-0.1665,2028
15,0.3586,-1.5427,0.1846,1.6274,2.6982,-0.4517,1908
15,0.4033,-1.7312,0.3606,1.6599,2.5678,-0.8582,1998
15,0.3469,-1.4636,0.3691,1.3673,2.218,-0.8329,2117
15,0.2717,-1.2776,0.1472,1.343,1.7174,-0.9084,2054
15,0.2878,-1.0857,-0.2119,1.5604,0.909,-1.2527,1888
15,0.0337,-1.0442,-0.3093,1.712,0.4081,-1.5748,2001
15,-0.0208,-0.9194,-0.2302,1.8788,0.5229,-2.0041,2075
15,-0.1047,-0.5781,-0.6121,1.8702,0.4831,-2.0181,1910
15,-0.6023,-0.4104,-0.1006,1.9707,1.0255,-2.1884,1988
15,-0.1721,-0.7297,0.2925,1.9979,0.6315,-2.5356,1954
15,0.1074,-0.7825,0.2852,2.1059,0.545,-2.4665,2090
15,0.468,-1.2109,0.0222,1.9473,0.0633,-2.341,2062
15,0.1479,-1.3008,-0.2192,1.9025,-0.2682,-2.2772,2037
15,-0.1873,-1.5562,-0.4985,1.7775,-0.3685,-2.0249,1911
15,-1.0605,-1.3972,-0.4592,1.7692,0.0896,-2.0977,2083
15,-1.478,-1.1089,-0.5845,1.4475,0.4779,-2.159,2134
15,-1.5142,-0.8933,-0.6531,1.1545,0.3441,-1.9237,2049
15,-1.8706,-0.9297,-0.6184,0.9778,-0.6283,-1.5187,2049
15,-2.0,-1.1316,-0.4456,1.1396,-1.0443,-1.2687,2069
15,-2.0,-1.2346,-0.4868,0.8648,-0.7261,-1.4717,2043
15,-1.8835,-1.2915,-0.72,0.6677,-0.9409,-1.1938,2030
15,-1.6484,-1.1096,-0.5237,0.6604,-0.6795,-0.8059,2066
15,-1.4851,-1.0388,-0.5056,0.4554,-0.8822,-0.4308,2019
15,-1.1611,-0.9722,-0.5249,0.5169,-0.9511,-0.3733,2080
15,-0.9141,-1.062,-0.2776,0.2782,-0.8807,-0.2734,2032
15,-1.1748,-1.3162,-0.7585,-0.1396,-0.607,0.4229,2031
15,-1.1628,-1.2205,-0.5686,-0.3091,0.077,0.5368,2025
15,-1.0486,-1.4441,-0.6704,-0.353,1.3448,0.5934,2072
15,-1.071,-1.0496,-0.5605,-0.1598,1.5639,0.4201,2039
15,-1.0603,-1.0996,-0.5339,0.0097,1.6785,0.2647,2052
15,-1.1809,-0.8965,-0.4919,0.1479,1.854,0.4637,2038
15,-1.2246,-1.0447,-0.248,-0.0032,1.8763,0.6446,2050
15,-1.0657,-1.0876,-0.1191,-0.335,1.8607,0.9397,1974
15,-0.9172,-1.2974,-0.0256,-0.351,1.8656,0.9211,2102
15,-0.9724,-1.2668,-0.1333,-0.2791,2.2513,0.9147,2082
16,-0.9185,-1.2249,-0.2639,-0.1666,2.6922,0.3796,2133
16,-0.4868,-0.7966,-0.2214,-0.1459,2.6802,0.1278,2130
16,-0.5435,-0.9844,-0.4485,-0.3127,2.6883,0.2586,2091
16,-0.6628,-1.2197,0.0046,-0.6654,2.6964,0.5486,1933
16,-0.593,-1.2517,0.1299,-0.924,3.1011,0.7749,2032
16,-0.7764,-1.3196,0.1089,-1.0584,3.3242,0.9758,2004
16,-1.0134,-1.1716,-0.2175,-0.9569,3.442,0.8304,2029
16,-1.0173,-1.0151,-0.1711,-0.7485,3.3652,0.5918,2051
16,-0.8779,-0.9648,-0.0918,-0.491,2.9622,0.6192,2058
16,-0.6375,-1.0247,0.356,-0.3836,2.5019,0.4275,2023
16,-0.6472,-1.2163,0.3562,-0.5261,2.3136,0.5516,2058
16,-0.5254,-1.2048,0.625,-0.532,2.0478,0.1386,2037
16,-0.2751,-1.3335,0.3523,-0.9271,1.423,0.1348,2032
16,-0.0991,-1.3787,-0.1165,-1.4962,0.2282,0.5241,2007
16,-0.5613,-1.1941,-0.3242,-1.1907,0.4741,0.8662,2020
16,-0.8342,-1.1086,-0.2178,-0.77,1.225,0.5627,1993
16,-0.7761,-1.0706,-0.2466,-0.5967,1.691,0.3003,2021
16,-0.7996,-1.1025,-0.1794,-0.7281,1.0854,0.4659,1944
16,-1.0266,-1.0564,-0.2754,-0.6806,0.8717,0.5779,2123
16,-0.9695,-1.1814,-0.448,-0.8491,0.4879,0.6577,2012
16,-0.9141,-1.2627,-0.4563,-0.8443,0.1116,0.6245,2073
16,-1.0857,-1.1575,-0.6365,-0.622,0.2004,0.6205,2159
16,-0.8164,-0.9956,-0.3032,-0.4201,-0.0146,0.2795,2001
16,-0.7253,-0.9351,-0.2451,-0.2693,-0.5705,-0.0381,2170
16,-0.675,-1.1079,-0.2258,-0.4148,-1.2402,-0.1827,1963
16,-0.7732,-1.0652,-0.2659,-0.5859,-1.9596,-0.1896,2003
16,-0.9766,-0.8582,-0.3708,-0.7056,-2.1358,0.03,2023
16,-1.0193,-0.9583,-0.4729,-0.5121,-1.8066,0.1667,2131
16,-1.155,-0.9978,-0.6221,-0.4299,-1.6243,0.2964,2103
16,-1.1494,-1.0806,-0.5757,-0.2866,-1.348,0.3831,2105
16,-1.0728,-1.0762,-0.656,-0.2236,-1.2399,0.5441,2168
16,-1.1846,-0.876,-0.6953,-0.1305,-1.1065,0.5841,2076
16,-1.0942,-0.9546,-0.6826,-0.0306,-0.9251,0.7164,2135
16,-0.958,-0.9883,-0.5093,-0.01,-0.783,0.7582,2079
16,-0.884,-0.8477,-0.5891,0.0368,-0.9138,0.8171,1891
16,-0.623,-1.0039,-0.4758,0.1316,-1.2485,0.5654,2114
16,-0.5508,-0.8574,-0.624,0.0494,-1.593,0.6412,2060
16,-0.5923,-0.835,-0.6443,0.1601,-1.4372,0.5781,1887
16,-0.4194,-0.7661,-0.8325,0.2634,-1.0694,0.7023,2104
16,-0.3716,-0.6177,-0.8594,0.2605,-1.0232,0.7709,2135
16,-0.5708,-0.5903,-0.8313,0.3157,-0.6296,0.9007,2209
16,-0.5322,-0.6675,-0.8538,0.4378,-0.4537,0.9266,2103
16,-0.771,-0.8308,-0.9512,0.4424,-0.2092,1.048,1921
16,-0.7231,-0.8193,-0.7568,0.3394,-0.2852,0.8708,2158
16,-0.6526,-0.8438,-0.8105,0.2662,-0.5283,0.7088,1992
16,-0.4539,-0.7478,-0.8281,0.2561,-0.9741,0.6112,1961
16,-0.5454,-0.8372,-0.7341,0.259,-1.1054,0.6805,1961
16,-0.4353,-0.8105,-0.7004,0.4108,-0.8782,0.5191,2050
16,-0.4456,-0.7153,-0.7734,0.3904,-0.7305,0.4442,2145
16,-0.5137,-0.5498,-0.9543,0.4806,-0.4396,0.204,2062
16,-0.416,-0.5032,-0.8494,0.571,-0.4508,0.3533,2207
16,-0.6182,-0.6484,-1.0332,0.5866,-0.7317,0.5562,2116
16,-0.7236,-0.7356,-0.7336,0.6646,-0.6946,0.4793,1941
16,-0.6252,-0.6462,-0.8799,0.6036,-0.4516,0.7349,2340
16,-0.8225,-0.1743,-0.7595,0.9696,-0.2862,0.5906,1991
16,-0.4932,-0.3167,-0.9041,0.6486,-0.7871,1.1643,1707
16,-0.4165,-0.3904,-0.7349,0.9973,-0.6846,0.8285,1958
16,-0.4771,0.0835,-0.9026,1.0698,-1.6231,1.1243,2359
16,-0.4241,-0.1199,-0.8213,1.5226,-0.9625,1.5466,2213
16,-0.7927,0.4597,-1.0796,1.8267,-0.4145,1.3278,1912
16,-0.5198,1.7727,-0.978,2.06,-0.2024,1.1334,2145
16,-0.3708,1.9999,-0.8435,2.2069,0.5725,1.0773,2228
16,-0.0049,1.9999,-0.6973,2.0182,0.8618,0.9597,1769
16,0.0142,1.9999,-0.5471,1.606,1.1705,1.309,2191
16,-0.3848,0.7991,-0.6194,0.6586,1.6175,1.3993,1951
16,-0.646,-0.0613,-0.3779,-0.1499,1.7659,1.6182,2148
16,-1.0391,-0.814,-0.2004,-0.5681,1.9748,1.7333,2253
16,-1.2168,-1.0095,0.0317,-0.5436,1.6757,1.4356,2240
16,-1.3877,-0.3765,0.0308,-0.2499,1.5471,1.1672,2056
16,-1.4246,-0.1843,0.2463,0.072,1.2786,1.1262,2039
16,-1.1619,-0.0703,-0.166,0.539,0.7618,0.736,1958
16,-1.4961,-0.1118,-0.447,0.9483,0.2557,1.1673,1759
16,-1.4387,-0.6382,-0.4592,1.3725,0.6335,0.9489,1968
16,-1.4443,-0.3752,-0.7866,1.7652,0.4252,1.0095,1901
16,-0.9841,0.0801,-0.5293,2.1361,0.3135,0.8207,1802
16,-0.9434,-0.4062,-0.9565,2.3214,-0.0088,0.8175,2349
16,-1.1738,-0.2393,-0.6797,2.4494,-0.088,0.5912,2262
16,-1.207,-0.1389,-0.8481,2.2316,0.0232,0.589,2262
16,-1.1079,-0.2214,-0.6121,2.3872,0.1012,0.7408,2038
16,-0.8708,0.3276,-0.8123,2.2454,0.0489,0.4424,2120
16,-1.1433,-0.0935,-0.854,1.9735,0.2028,0.4417,2617
16,-1.208,0.0959,-0.9714,1.6491,0.07,0.4401,1966
16,-1.2954,0.1807,-0.8169,1.603,0.394,0.6291,1302
16,-1.1599,0.4045,-0.7356,1.5098,0.384,0.4947,2013
16,-1.3376,0.395,-0.6582,1.2663,0.3421,0.5767,1924
16,-1.4302,0.8428,-0.6213,1.175,0.5829,0.3818,2042
16,-1.5852,0.9045,-0.2896,0.7704,0.5099,0.2195,1983
16,-1.4854,0.8904,-0.1619,0.5738,0.3681,-0.0603,2087
16,-1.4587,0.8384,-0.1084,0.1091,0.1005,-0.3625,1990
16,-1.4839,0.6123,-0.0981,-0.2645,-0.1562,-0.5414,2015
16,-1.5417,0.5095,0.0005,-0.4264,-0.3271,-0.6919,2046
16,-1.5571,0.2124,-0.1489,-0.4938,-0.5819,-0.6938,2120
16,-1.4795,-0.1738,-0.3472,-0.6245,-0.8641,-0.8167,1603
16,-1.3806,-0.2107,-0.5261,-0.7022,-0.9955,-0.922,2177
16,-0.9954,-0.292,-0.5266,-0.7974,-1.0167,-1.1123,2063
16,-0.9841,-0.2158,-0.4976,-0.8275,-1.134,-1.385,2270
16,-0.8452,-0.1094,-0.428,-0.8171,-0.9961,-1.5997,2019
16,-0.8596,0.0981,-0.408,-0.7953,-0.8441,-1.7041,2025
16,-0.8315,0.1736,-0.2917,-0.6829,-0.5978,-1.8437,2068
16,-0.9043,0.2466,-0.3794,-0.4954,-0.3464,-1.9556,2071
16,-0.7949,0.1409,-0.4197,-0.5209,-0.3255,-1.8724,2286
17,-0.8965,-0.0015,-0.4319,-0.4871,-0.23,-1.8184,2019
17,-0.8723,-0.115,-0.4585,-0.6169,-0.1626,-1.8536,2028
17,-0.8501,-0.1826,-0.5896,-0.999,-0.1248,-1.7029,1992
17,-0.9407,-0.144,-0.4602,-1.1527,-0.2376,-1.5904,2012
17,-0.9707,-0.2505,-0.5605,-1.3504,-0.3016,-1.4414,1939
17,-1.0142,-0.1726,-0.5168,-1.4079,-0.3239,-1.3258,1862
17,-0.9067,-0.3411,-0.5156,-1.4387,-0.3701,-1.2374,2101
17,-0.8982,-0.4119,-0.4839,-1.3711,-0.404,-1.1356,2097
17,-0.8545,-0.4348,-0.4819,-1.2098,-0.3866,-1.133,2017
17,-0.8779,-0.387,-0.5188,-1.0528,-0.349,-1.0922,2040
17,-0.8672,-0.4297,-0.4321,-0.8068,-0.2527,-1.1452,2046
17,-0.8804,-0.457,-0.448,-0.6253,-0.1735,-1.2178,2169
17,-0.9114,-0.4475,-0.479,-0.5291,-0.017,-1.3968,1937
17,-0.8787,-0.5261,-0.415,-0.4577,0.0898,-1.5424,2062
17,-0.9153,-0.5703,-0.4607,-0.443,0.0518,-1.6384,2075
17,-0.9636,-0.4858,-0.429,-0.4723,0.0691,-1.6982,2037
17,-0.9268,-0.4509,-0.353,-0.4424,-0.0008,-1.7331,1981
17,-0.9192,-0.3784,-0.3477,-0.4225,-0.1248,-1.7162,2048
17,-0.9055,-0.2756,-0.3203,-0.3276,-0.225,-1.6685,2043
17,-0.8701,-0.1892,-0.2566,-0.2171,-0.3211,-1.5336,2039
17,-0.8179,-0.1311,-0.2156,-0.0435,-0.4141,-1.4243,2029
17,-0.8325,-0.1086,-0.1724,0.1708,-0.4718,-1.317,2060
17,-0.814,-0.082,-0.1343,0.2924,-0.4585,-1.2432,2051
17,-0.7881,-0.0352,-0.1445,0.3754,-0.4442,-1.2175,2084
17,-0.7769,0.1206,-0.1646,0.451,-0.4775,-1.2018,2044
17,-0.7908,0.2417,-0.2344,0.4795,-0.5315,-1.195,1966
17,-0.7278,0.426,-0.3059,0.5345,-0.6228,-1.1007,1926
17,-0.76,0.5427,-0.3184,0.4113,-0.5758,-1.1464,1965
17,-0.7046,0.6799,-0.4041,0.3207,-0.6265,-1.0579,2043
17,-0.5386,0.6531,-0.4678,0.015,-0.8388,-0.9821,2073
17,-0.5044,0.7361,-0.3306,-0.2683,-0.8668,-1.0326,2133
17,-0.4658,0.5935,-0.4138,-1.0108,-1.1524,-1.2107,2231
17,-0.3542,0.4763,-0.7932,-1.1658,-1.795,-1.1967,2069
17,-0.0493,0.2881,-1.2283,-1.5583,-2.3949,-1.1921,2061
17,-0.0857,0.2937,-1.3145,-1.5546,-3.6296,-1.1399,2079
17,-0.3076,0.269,-1.3486,-1.6303,-4.3635,-1.0867,2022
17,-0.3386,0.1482,-1.3276,-2.1074,-4.3635,-0.6959,2005
17,-0.4324,0.1221,-1.2974,-2.4135,-4.3284,-0.4614,2121
17,-0.3999,-0.0222,-1.0747,-2.3091,-4.2981,-0.8949,2064
17,-0.7136,-0.1638,-1.0986,-2.4027,-4.3635,-0.4315,2019
17,-0.4456,-0.5305,-1.231,-2.6529,-4.3635,-0.4658,2002
17,-0.3987,-0.7078,-1.0769,-3.1569,-4.3635,-0.5975,2000
17,-0.9458,-0.365,-1.0544,-3.0376,-4.3635,-0.5982,2222
17,-0.9797,-0.7798,-1.0808,-3.3661,-4.3635,-0.8349,1987
17,-0.8188,-0.8484,-0.8303,-2.8897,-4.3635,-0.6038,2079
17,-1.1111,-0.8616,-0.5049,-2.6329,-4.3635,-0.6034,2245
17,-1.2549,-0.9795,-0.5659,-2.0844,-4.3635,-0.3834,2101
17,-1.4702,-1.1572,-0.4998,-1.5799,-4.3635,-0.5292,2074
17,-2.0,-1.4614,-0.3037,-1.5928,-4.3635,0.0908,1931
17,-2.0,-1.624,-0.5647,-1.3177,-4.3635,0.3689,2134
17,-2.0,-1.7388,-0.5205,-1.5788,-4.3635,1.0204,2072
17,-2.0,-1.9067,-0.4861,-1.5785,-3.4517,1.0592,2074
17,-1.29,-1.7324,-0.2756,-1.4261,-2.3981,1.168,2239
17,-0.9111,-1.7034,-0.0037,-0.9227,-3.1023,1.5113,1951
17,-0.9102,-1.717,-0.4036,-0.3882,-3.3182,1.9916,2117
17,-1.1064,-1.73,-0.2747,0.1344,-3.2155,2.1276,2067
17,-1.5281,-1.8345,-0.1499,0.6327,-2.6019,2.1828,2147
17,-1.3523,-1.6704,-0.0781,0.824,-1.6093,1.9783,2055
17,-1.0977,-1.6943,0.198,1.172,-1.2959,1.9805,2063
17,-1.4644,-1.5459,-0.1614,1.6532,-0.2276,2.3463,1986
17,-0.5076,-2.0,0.0327,1.9996,0.029,1.9419,2131
17,-0.8293,-1.9036,-0.2102,2.5021,1.007,1.8032,1782
17,-0.1357,-1.4919,0.2131,3.4963,1.4427,1.338,2209
17,-1.3164,-0.9773,0.2246,3.6181,1.4637,1.9287,2157
17,-1.3867,-1.1206,0.4551,4.2819,3.2056,1.6464,2133
17,-1.0491,-1.2551,0.6362,4.3634,4.3521,1.6507,2155
17,-0.3994,-1.4397,0.7344,4.0958,4.3634,1.4741,2050
17,-1.1196,-0.8821,0.9158,4.3634,4.3634,1.015,2168
17,-0.5935,-1.1985,0.8472,4.2256,4.3634,0.3171,2165
17,-0.6526,-1.4885,0.8633,3.4991,4.3634,0.0639,2045
17,-0.4116,-1.1091,0.8257,3.4232,4.2892,-0.7509,2086
17,-0.4041,-1.3745,0.6919,2.6284,3.2315,-0.8383,1911
17,0.5569,-1.2771,0.4268,3.338,2.484,-1.6459,2053
17,1.0811,-2.0,0.7041,1.9919,1.5203,-0.6185,2039
17,-0.2776,-0.9973,-0.259,1.5159,0.2135,-0.4512,1955
17,0.0996,-1.708,0.1846,1.8686,0.6405,-1.0412,2022
17,1.116,-2.0,0.3835,1.5277,0.9788,-1.1806,2109
17,0.3879,-1.1731,-0.0845,1.4809,0.6867,-0.9152,2022
17,0.2957,-0.9688,-0.1089,1.7665,-0.0107,-1.2796,2151
17,0.0063,-1.0063,-0.1802,1.6785,-0.0308,-1.4539,1982
17,-0.1606,-0.8347,-0.2563,1.4905,-0.444,-1.8361,2003
17,-0.2488,-0.8848,-0.2144,1.5957,-0.3096,-2.4136,2059
17,-0.1643,-0.8098,-0.1624,1.5664,-0.0746,-2.7219,2011
17,0.1177,-0.9395,-0.1692,1.4086,0.0304,-2.9364,1993
17,-0.0549,-0.9299,-0.2041,1.3852,-0.092,-2.6273,2082
17,-0.2883,-1.0361,-0.1038,1.275,-0.0438,-2.471,2031
17,0.1775,-1.271,-0.4272,1.4125,0.3123,-2.7259,2103
17,-0.3315,-1.283,-0.8357,1.5462,0.5686,-2.8304,1991
17,-0.6575,-1.127,-0.5381,1.6161,1.4587,-3.0392,2155
17,-0.8528,-1.1892,-0.7288,1.1144,1.4348,-2.6713,2086
17,-1.0183,-0.9653,-0.4143,0.777,1.4456,-2.4353,2006
17,-1.3081,-0.9866,-0.2498,0.2573,0.6681,-1.6956,2082
17,-1.4993,-1.0247,-0.156,-0.1041,0.1003,-1.3637,2078
17,-1.6003,-0.8916,-0.4409,-0.0747,-0.1144,-1.2948,2016
17,-1.6028,-0.9104,-0.4626,0.1537,-0.4476,-1.4103,2023
17,-1.5657,-0.9707,-0.2153,0.4516,-0.2992,-1.3254,2027
17,-1.5901,-1.1057,-0.1504,0.5239,-0.226,-1.1752,2019
17,-1.3533,-1.134,0.2007,0.2799,-0.3341,-0.7384,2124
17,-1.0977,-1.1382,0.4009,0.0121,-0.3738,-0.6148,2016
17,-1.1375,-1.2979,-0.2756,-0.3067,-0.4995,-0.1702,2074
17,-1.1882,-1.2559,-0.6279,-0.3334,-0.1593,0.0194,2012
17,-1.2134,-1.3032,-0.8218,-0.3061,0.6486,-0.0663,2050
18,-1.0837,-1.1992,-0.5618,0.0332,1.0678,-0.1004,2027
18,-1.2412,-1.4409,-0.2788,0.0221,1.0885,0.2258,2057
18,-1.5259,-1.2434,-0.042,-0.0948,0.8779,0.1898,2014
18,-1.4954,-1.0435,0.0791,-0.3231,1.0334,0.2213,2013
18,-1.3784,-0.9644,0.0645,-0.3438,0.8096,0.4579,2046
18,-1.2678,-0.988,0.0,-0.3726,0.9312,0.5373,2033
18,-1.0454,-1.2334,-0.0466,-0.3121,1.2894,0.9339,2050
18,-0.885,-1.3035,-0.033,-0.177,1.8323,0.7264,2065
18,-0.752,-1.1536,0.011,-0.2899,1.4949,0.6939,2004
18,-0.9067,-1.3218,-0.3362,-0.337,1.3003,0.7558,2024
18,-0.7537,-1.3608,-0.4407,-0.2784,1.7058,0.59,2117
18,-0.8394,-1.2727,-0.3416,-0.0449,2.0957,0.7142,2111
18,-0.8679,-1.1814,0.0728,-0.0794,2.4647,0.7387,2139
18,-0.9702,-1.2913,0.3628,-0.2856,2.5633,0.8935,2093
18,-0.8516,-1.2039,0.5276,-0.4874,2.7758,0.7726,2024
18,-0.9126,-1.1375,0.3289,-0.6906,2.5155,0.9857,2033
18,-0.7629,-1.0718,0.29,-0.6649,1.9845,0.77,2014
18,-0.7224,-0.8767,-0.1184,-0.279,1.7837,0.5912,2023
18,-0.635,-0.7258,0.2112,0.4056,1.8217,0.3778,2046
18,-0.5386,-1.0889,0.1379,0.2139,1.4037,0.2617,2090
18,-0.345,-1.2751,0.1765,-0.263,1.5243,0.4075,1999
18,-0.0635,-1.6084,0.3555,-0.8736,2.0345,1.1117,2048
18,-0.6555,-1.137,-0.1589,-1.1405,2.3073,1.3906,1969
18,-0.7107,-0.7051,-0.3579,-0.5894,2.4044,0.5983,2067
18,-0.9255,-0.5535,-0.4639,0.1063,2.6662,0.5177,2032
18,-0.9443,-0.5356,-0.2358,0.4623,2.3288,0.3686,2113
18,-0.9863,-0.7866,-0.0024,0.4887,1.595,0.4442,2102
18,-0.8743,-0.9785,-0.0229,0.2726,1.0244,0.2705,2020
18,-0.7429,-0.7983,-0.0154,0.0814,0.2111,0.1469,2002
18,-0.5208,-0.885,-0.2524,-0.4305,-0.7083,0.0932,1887
18,-0.4729,-0.675,-0.4194,-0.3823,-1.2256,0.2538,2055
18,-0.7671,-0.4148,-0.4656,-0.2474,-1.5502,0.5054,2069
18,-0.8589,-0.2812,-0.6448,0.0479,-1.6768,0.4232,2144
18,-0.8708,-0.6191,-0.3118,0.1948,-1.8913,0.5895,1856
18,-1.0916,-0.668,-0.6755,0.1619,-1.7371,0.3617,2128
18,-0.7715,-0.9795,-0.3965,0.3541,-1.9005,0.4789,2154
18,-0.9114,-2.0,0.249,0.4954,-1.6849,1.2633,2241
18,-1.5447,-1.5842,-1.123,-0.1348,0.6368,0.2285,1831
18,-0.1069,-0.3162,-0.0906,0.3729,0.7528,0.2847,1973
18,-0.3188,-1.1392,-0.6367,0.345,1.3143,0.8881,2068
18,-0.4451,-1.3088,0.1609,-0.0776,0.6047,0.771,1997
18,0.0449,-1.741,0.0833,-0.2617,0.5986,1.19,1943
18,0.0369,-2.0,0.4565,-1.4209,-0.6995,1.4856,2009
18,-0.3323,-2.0,0.0925,-1.7827,-0.1519,1.1085,2073
18,-0.3259,-1.8154,-0.1348,-1.7765,-0.562,0.9794,1950
18,-0.7539,-0.9517,-0.6379,-1.5948,-0.1539,0.3469,2065
18,-1.0547,-0.6213,-0.6069,-0.759,-0.2622,0.2599,2071
18,-1.2593,-0.2485,-0.7681,-0.2023,-0.2184,0.1274,2228
18,-1.4258,0.0178,-0.4924,0.5368,0.0902,0.0997,2234
18,-1.1206,-0.3291,-0.6609,0.5713,0.2686,0.5654,2075
18,-1.4048,-0.394,-0.7751,0.5165,-0.2984,0.3252,2110
18,-0.8657,-0.6406,-0.6479,0.2994,-1.0158,0.3996,2130
18,-0.7458,-0.6094,-0.9307,0.0609,-1.197,0.222,2048
18,-0.8582,-0.75,-0.8149,0.1076,-1.356,0.3863,1976
18,-0.7688,-0.6003,-0.9934,0.1397,-0.7333,0.3794,2039
18,-0.5352,-0.6646,-0.8274,0.2484,-0.9066,0.7712,1988
18,-0.6167,-0.8367,-1.0347,0.2089,-0.2755,0.9263,2098
18,-0.7358,-0.7537,-0.9329,0.2679,-0.5144,0.8288,1976
18,-0.6545,-0.6399,-0.9263,0.3272,-0.1272,1.0151,2347
18,-0.7251,-0.5032,-0.8669,0.5486,-0.2131,0.928,1726
18,-0.7532,-0.1392,-0.8782,0.4898,-0.0858,0.6084,2170
18,-0.5649,-0.3477,-0.9031,0.503,0.0878,0.9088,2376
18,-0.5,-0.2854,-0.7996,0.5904,-0.3842,0.6219,2111
18,-0.5203,-0.293,-0.7966,0.5605,-0.2285,0.7167,1896
18,-0.2524,-0.6851,-0.7705,0.5938,-0.5895,0.8589,2175
18,-0.4211,-0.4858,-0.8438,0.6116,-0.5908,0.5677,2253
18,-0.6091,-0.5974,-0.8792,0.9054,-0.5935,0.5914,1810
18,-0.8643,-0.2996,-0.8318,1.0902,0.0312,0.4133,2096
18,-0.4412,-0.3257,-0.8606,1.218,-0.0902,0.4425,1943
18,-0.4207,-0.3726,-0.801,1.4785,0.0545,0.3506,2012
18,-0.5427,-0.3372,-0.8716,1.5659,0.2526,0.3297,1778
18,-0.6306,-0.5308,-0.7786,1.816,0.5887,0.7413,2129
18,-0.9829,-0.5503,-0.9851,1.9426,0.9479,0.5418,2040
18,-0.5999,-0.1938,-0.832,2.1043,1.2961,0.9062,1991
18,-0.728,-0.1702,-1.1543,2.2057,1.3147,0.5357,2286
18,-0.4094,0.0964,-0.9666,2.5203,1.0315,0.8428,2214
18,-0.7019,0.3418,-0.7576,2.853,0.9802,1.1114,2198
18,-0.8083,0.4941,-0.9146,2.9723,1.3625,1.6817,2203
18,-0.5017,0.8013,-0.2175,3.2509,1.4673,2.4185,1942
18,-0.5083,0.9309,-0.6221,3.2745,1.8089,3.112,2019
18,0.0186,0.7319,-0.7249,3.099,1.3973,3.0898,1986
18,-0.6282,0.5657,-0.8259,2.9943,1.1119,3.8629,1960
18,-0.9565,1.1926,-0.5903,2.9835,1.2825,4.3355,2046
18,-1.0393,0.9102,-0.5854,2.4372,1.2874,4.3634,2223
18,-1.178,0.9126,-1.0745,2.2385,1.1001,3.827,2094
18,-1.3457,1.1345,-0.6355,2.1363,1.0967,3.9282,2302
18,-1.2546,0.4424,-1.2715,1.7133,0.5831,3.2678,2086
18,-0.8093,0.7344,-0.8174,1.395,0.0403,2.5914,2108
18,-1.1733,0.9163,-0.3967,1.4382,-0.053,2.4497,2033
18,-1.6545,0.4128,-0.498,1.4138,0.3765,2.3934,2211
18,-1.4263,0.1711,-0.5735,1.167,0.3229,2.2937,2025
18,-1.3984,0.3877,-0.3513,1.1858,0.3036,2.3674,2170
18,-1.1931,0.4106,-0.2234,1.488,-0.0923,2.2979,2214
18,-1.1453,0.2517,-0.6089,1.4765,-0.8436,2.0462,2332
18,-1.4363,0.4282,-0.4226,1.5026,-0.8632,1.7483,2073
18,-1.1958,0.7256,-0.5461,1.4708,-0.7502,1.4378,2081
18,-1.2432,0.7832,-0.4556,1.2384,-0.5538,0.8562,2168
18,-1.1594,0.9058,-0.5164,0.9706,-0.4693,0.3645,1997
18,-1.1777,1.167,-0.4106,0.6074,-0.2591,-0.2454,2105
18,-1.2021,1.2258,-0.186,0.2867,-0.2111,-0.6407,2018
18,-1.1348,1.0979,-0.1389,-0.0194,-0.1461,-0.832,1827
18,-1.1526,0.7581,-0.2144,-0.3196,-0.2152,-0.8811,2073
18,-1.1934,0.6101,-0.2407,-0.5078,-0.3894,-0.8371,2214
19,-1.0806,0.3259,-0.4414,-0.7162,-0.6317,-0.7668,1780
19,-1.116,0.1267,-0.4836,-0.846,-0.8252,-0.7806,2184
19,-1.0305,-0.197,-0.564,-1.1105,-0.9244,-0.9511,2111
19,-1.0039,-0.167,-0.479,-1.2407,-0.8833,-1.1384,1774
19,-0.9114,-0.0989,-0.4551,-1.2796,-0.8889,-1.3428,1792
19,-0.8877,-0.0112,-0.4414,-1.2099,-0.8106,-1.5404,2196
19,-0.8494,0.0627,-0.459,-1.0769,-0.6746,-1.6998,2157
19,-0.8472,0.1155,-0.4653,-0.9724,-0.4481,-1.8144,2006
19,-0.8225,0.1064,-0.4214,-0.8722,-0.2213,-1.9815,2221
19,-0.8569,0.0085,-0.4561,-0.8043,-0.0719,-2.1853,1865
19,-0.8105,0.054,-0.553,-0.6697,-0.016,-2.3973,2194
19,-0.7759,-0.0134,-0.5229,-0.8581,0.0581,-2.4236,1981
19,-0.9446,0.0454,-0.4207,-0.8802,0.1908,-2.3558,2135
19,-0.8323,0.0015,-0.3784,-0.9624,0.3614,-2.2894,2075
19,-0.8096,0.0554,-0.3918,-1.0741,0.339,-2.0463,2003
19,-0.8853,0.1499,-0.3416,-1.0601,0.2464,-1.8652,1998
19,-0.9495,0.0994,-0.4646,-1.091,0.2269,-1.7616,2067
19,-0.9634,0.1965,-0.4043,-0.8975,0.1819,-1.6474,2086
19,-0.9695,0.022,-0.4353,-0.8365,0.0952,-1.6624,2082
19,-1.1196,0.0105,-0.4568,-0.852,0.0794,-1.6049,2015
19,-1.0776,0.0781,-0.3943,-0.8633,0.1112,-1.7016,1955
19,-1.0911,-0.0017,-0.417,-0.8662,0.0442,-1.7399,2084
19,-1.124,-0.0574,-0.3984,-0.8693,0.0413,-1.7182,2012
19,-1.1145,-0.0876,-0.4148,-0.7917,-0.0759,-1.6579,2037
19,-1.1567,-0.1572,-0.2732,-0.5944,-0.2803,-1.5816,2063
19,-1.1277,-0.2078,-0.21,-0.35,-0.348,-1.5732,2026
19,-1.0735,-0.1775,-0.2898,-0.2252,-0.4408,-1.6114,2042
19,-1.021,-0.1851,-0.3281,-0.0948,-0.5847,-1.5749,2076
19,-0.9519,-0.0754,-0.281,0.0855,-0.6425,-1.6033,1985
19,-0.9089,0.0317,-0.3325,0.2127,-0.6866,-1.519,1970
19,-0.8647,0.165,-0.3491,0.3441,-0.5818,-1.5723,2073
19,-0.771,0.3066,-0.3635,0.4662,-0.4972,-1.6147,2069
19,-0.6938,0.4531,-0.3276,0.6114,-0.4762,-1.5506,2057
19,-0.6843,0.5366,-0.3933,0.6163,-0.3562,-1.4428,2099
19,-0.5789,0.637,-0.4253,0.6277,-0.338,-1.2728,2050
19,-0.4321,0.7461,-0.3745,0.4943,-0.4168,-1.0469,2030
19,-0.4873,0.7588,-0.4492,-0.0498,-0.6348,-1.0734,2001
19,-0.4473,0.7188,-0.6501,-0.5697,-0.8843,-1.027,2049
19,-0.3286,0.7805,-0.7244,-0.7782,-0.9685,-1.1841,2081
19,-0.3113,0.9038,-0.7317,-1.2025,-1.2134,-1.2537,2005
19,-0.2361,0.9043,-0.8169,-1.5645,-1.6729,-1.3969,2123
19,-0.188,0.5193,-1.1228,-1.9821,-2.1538,-1.4037,2109
19,-0.2224,0.4851,-1.3408,-2.2048,-3.026,-1.4332,2102
19,-0.1143,0.4365,-1.321,-2.5824,-3.3479,-1.2632,2038
19,-0.218,0.3467,-1.3274,-2.7734,-3.5756,-1.1939,2064
19,-0.1836,-0.0723,-1.3926,-3.1542,-3.7922,-1.5834,2082
19,-0.1733,-0.0659,-1.335,-3.3525,-3.9622,-1.2154,2026
19,-0.4626,0.1538,-1.1035,-3.7518,-3.741,-1.2206,1959
19,-0.5168,0.3657,-1.2981,-3.9825,-4.0695,-1.4523,1960
19,-0.4309,-0.4177,-1.3291,-3.7752,-4.3635,-1.122,1984
19,-1.0193,-0.7476,-1.0811,-4.0584,-4.1835,-1.2489,2069
19,-0.7615,-0.8162,-1.3181,-4.2736,-4.3635,-2.0252,2083
19,-0.647,-0.822,-1.124,-4.3301,-4.3635,-1.9608,2097
19,-0.7402,-0.9714,-1.127,-3.8728,-4.3635,-1.3576,2129
19,-0.7583,-1.2581,-1.0361,-2.8971,-4.3635,-0.2458,2043
19,-0.9343,-1.2551,-0.7,-2.5168,-4.3635,0.3904,2061
19,-1.4753,-0.959,-0.624,-2.1382,-4.3635,0.656,2015
19,-1.9153,-1.1658,-0.6719,-1.9471,-4.3635,0.6388,2202
19,-2.0,-1.2417,-0.7415,-1.9005,-4.3635,0.3422,2020
19,-2.0,-1.2336,-0.6614,-2.0117,-4.3635,0.3883,2090
19,-1.5747,-1.5959,-0.7908,-2.1324,-3.8597,0.4757,2109
19,-1.647,-1.8093,-0.6711,-2.2687,-2.9576,0.8199,2107
19,-1.5789,-1.9338,-0.4707,-1.9583,-3.0781,0.6968,2051
19,-1.2422,-1.877,-0.6086,-1.6375,-3.3601,1.0215,1966
19,-1.3435,-2.0,-0.5151,-1.1869,-3.138,1.3035,2034
19,-1.7197,-1.9263,-0.4651,-1.118,-2.3658,1.8417,2114
19,-0.7925,-1.7876,-0.4409,-0.4441,-2.2643,1.2033,2056
19,-0.7368,-1.4939,-0.1846,-0.3647,-2.3702,1.627,2091
19,-0.7173,-1.345,-0.1101,0.2654,-2.6293,1.5404,2069
19,-1.4973,-1.3423,-0.2588,0.6926,-2.1582,1.9536,1923
19,-1.77,-1.6379,-0.1243,0.8893,-1.1475,1.8442,1500
19,-1.0164,-1.9424,-0.1309,1.4494,-0.0204,1.5471,2237
19,-0.7402,-2.0,-0.1172,1.2081,0.3136,2.0226,2115
19,-0.731,-1.7751,-0.481,1.7743,2.0321,1.7238,2059
19,-0.8994,-0.8328,-0.021,1.8435,2.7068,1.4679,1998
19,-1.0083,-0.7993,0.2881,3.3106,3.6388,1.1139,1732
19,-0.4856,-1.0674,0.5361,3.0674,3.5507,1.4456,1997
19,-0.9597,-1.3809,0.7432,2.6412,4.3634,1.4912,2164
19,-0.155,-1.6423,1.0454,2.6328,4.3634,1.6944,2140
19,-0.8591,-1.4924,0.4749,2.469,4.3634,2.0901,2107
19,-1.4763,-1.0696,0.6973,2.4663,4.3634,1.9255,1945
19,-0.4392,-1.2053,0.9854,3.4627,4.3634,1.4776,2310
19,-0.8782,-1.3606,0.9851,3.1055,4.3634,1.2873,2131
19,-0.3291,-1.2471,0.9983,3.0801,3.5603,0.3719,2153
19,0.2834,-1.8735,0.8411,2.4127,2.8568,0.3755,2026
19,0.2966,-1.4585,0.7607,1.9221,1.4962,0.0863,1852
19,0.4565,-1.7437,0.4216,1.7813,0.1308,-0.4734,2097
19,0.0938,-1.4639,0.1128,1.3965,-0.4805,-0.7708,2066
19,0.0203,-1.1877,0.1794,1.9342,-1.0216,-1.1038,1955
19,-0.093,-1.0227,-0.0603,1.9907,-0.8477,-1.6302,1998
19,-0.3481,-1.0508,-0.4946,1.9869,-0.587,-1.5683,1724
19,-0.0559,-0.7883,-0.2571,2.2854,-0.6707,-1.7476,1958
19,-0.2068,-0.8542,-0.2852,2.8377,-0.6147,-2.0817,1938
19,-0.5793,-0.9595,-0.3113,2.8628,-0.1165,-2.2364,2012
19,-0.6487,-0.8115,-0.1572,3.321,0.966,-2.5838,1941
19,-0.1096,-0.9929,-0.2214,3.1401,1.2087,-2.6432,2019
19,-0.637,-0.8352,-0.2964,2.9303,1.0343,-2.6729,2038
19,-0.3757,-0.9426,-0.3472,3.0352,1.6543,-2.8119,2057
19,-0.3218,-1.0071,-0.2566,2.7327,2.0706,-2.6322,2016
19,-0.5667,-1.0371,-0.4524,2.5405,2.2578,-2.4542,2009
19,-0.5991,-0.9712,-0.4531,2.0256,1.7832,-2.281,2050
19,-0.4219,-1.0449,-0.5574,1.4884,1.2151,-2.0583,2067
20,-0.8701,-0.8679,-0.5618,1.1399,0.4663,-1.6793,2012
20,-1.1594,-1.0105,-0.3821,1.0572,-0.1345,-1.5713,2010
20,-1.2686,-0.9543,-0.3586,0.863,-0.385,-1.3918,2018
20,-1.7947,-0.8286,-0.4197,0.7456,-0.4353,-1.2794,2052
20,-1.4744,-0.9397,-0.3384,0.7887,-0.5425,-1.2926,2189
20,-1.4839,-0.9294,-0.4897,0.651,-0.7014,-1.2015,2154
20,-1.2261,-0.9421,-0.2439,0.4424,-0.8528,-1.093,2081
20,-0.9668,-0.9487,-0.3679,0.2177,-0.749,-0.9558,2077
20,-0.7097,-1.1262,-0.4592,-0.2484,-1.2659,-0.6984,2042
20,-1.1072,-1.1509,-0.811,-0.6425,-1.1382,-0.0148,2003
20,-1.522,-1.2661,-0.916,-0.8781,-0.2095,0.2181,2068
20,-1.6262,-1.2444,-1.0652,-0.8926,0.7664,0.2803,2063
20,-1.4219,-0.9746,-1.1331,-0.6485,1.3368,0.0687,1998
20,-1.6587,-0.6357,-0.8723,-0.2847,1.5708,0.1969,2037
20,-1.6104,-0.802,-0.3943,-0.2497,1.3707,0.1646,2037
20,-1.2729,-0.9626,-0.0557,-0.3528,1.2845,0.2414,2003
20,-1.0718,-1.2559,0.2012,-0.4964,1.3428,0.4569,2024
20,-1.0417,-1.3992,0.0327,-0.3793,1.6656,0.5508,1996
20,-0.9192,-1.196,0.0273,-0.4072,2.2431,0.4754,2110
20,-0.8088,-1.2595,-0.3628,-0.7196,1.923,0.0933,2127
20,-0.7903,-1.0906,-0.5981,-0.8465,2.023,0.3257,2023
20,-1.0027,-1.0173,-0.5627,-0.979,2.341,0.5261,2048
20,-1.1377,-1.0322,-0.4192,-0.8654,2.6121,0.6637,2085
20,-1.2036,-1.0386,-0.0818,-0.5968,3.0355,0.6502,2017
20,-1.0823,-1.0664,0.2422,-0.395,3.2867,0.4642,2098
20,-0.9119,-1.0059,0.5564,-0.4003,3.1925,0.4918,2026
20,-0.9741,-1.251,0.5542,-0.575,2.7184,0.5031,2065
20,-0.8218,-1.2419,0.3967,-0.6067,2.355,0.4287,2022
20,-0.8674,-1.1191,0.3765,-0.4107,2.412,0.5911,2072
20,-0.6265,-1.2273,0.176,-0.5635,1.9499,0.3017,2033
20,-0.1611,-1.3169,-0.063,-0.4665,1.2001,0.0796,2008
20,-0.3552,-1.4241,-0.1582,-0.638,0.8423,0.3031,1934
20,-0.7488,-1.3044,-0.0801,-0.6275,1.3993,0.4707,2141
20,-0.8372,-1.4126,0.2241,-0.6826,1.5098,0.6019,1939
20,-0.8235,-1.3933,0.2468,-1.0114,1.1267,0.643,1983
20,-0.8284,-1.0977,0.1416,-1.1061,0.8311,0.577,2066
20,-0.9919,-1.051,-0.3096,-0.9476,0.5473,0.8706,2045
20,-1.4185,-1.0229,-0.4976,-0.3401,1.0938,0.8079,1987
20,-1.3052,-1.0154,-0.4019,0.0117,1.538,0.597,2021
20,-1.0378,-0.9534,-0.2205,0.1168,1.0345,0.3368,2076
20,-0.5894,-1.2031,-0.1768,-0.0613,0.057,-0.0281,2045
20,-0.3623,-1.1133,-0.3147,-0.4619,-1.2391,-0.1254,2008
20,-0.8169,-0.8926,-0.4734,-0.4987,-1.7443,0.0308,2085
20,-1.0906,-1.1172,-0.6221,-0.4508,-1.7289,0.2165,1971
20,-1.0977,-1.3147,-0.6299,-0.5075,-1.5014,0.4223,2074
20,-1.1384,-1.1309,-0.7803,-0.5297,-1.4142,0.4537,2083
20,-1.3154,-1.0693,-0.6194,-0.4026,-0.9456,0.6051,2048
20,-1.1509,-1.071,-0.4734,-0.3053,-0.8915,0.62,2150
20,-1.0457,-0.8962,-0.4319,-0.2554,-1.0891,0.5171,2110
20,-1.0535,-1.1123,-0.3813,-0.0899,-1.1536,0.793,2015
20,-1.2002,-0.948,-0.5774,-0.2609,-1.1014,0.7545,2063
20,-0.8262,-1.0776,-0.6008,-0.4301,-1.5507,0.4342,2022
20,-0.5361,-0.7097,-0.7019,-0.4468,-2.3522,0.1523,1972
20,-0.5972,-0.9773,-0.5847,-0.2397,-2.5617,0.167,2160
20,-0.6484,-1.1685,-0.6809,0.0043,-1.9916,0.2274,1772
20,-0.4575,-0.8682,-0.678,0.1948,-1.8933,0.3244,2012
20,-0.3599,-0.6975,-0.6667,0.3786,-1.5257,0.5175,2073
20,-0.3938,-0.7407,-0.656,0.543,-1.2251,0.7219,2047
20,-0.3555,-0.79,-0.5603,0.6352,-0.9697,0.9104,2099
20,-0.3699,-0.8833,-0.7598,0.6883,-0.7148,0.9808,2098
20,-0.386,-0.7002,-0.7063,0.7331,-0.6284,0.9717,2042
20,-0.5073,-0.6853,-0.8992,0.8047,-0.6408,0.8219,1977
20,-0.4314,-0.7947,-0.967,0.6677,-0.7441,0.6164,2095
20,-0.2153,-0.6133,-1.0432,0.6064,-0.8465,0.4753,1870
20,-0.2244,-0.6599,-1.1304,0.5433,-0.9541,0.3159,2092
20,-0.4465,-0.6895,-1.1504,0.6277,-0.6056,0.4248,2012
20,-0.2156,-0.6743,-0.9658,0.6074,-0.3316,0.4884,2029
20,-0.2651,-0.6384,-0.8718,0.6231,-0.442,0.5438,2109
20,-0.6755,-0.7805,-0.7766,0.5627,-0.0479,0.4187,2047
20,-0.3525,-0.6753,-0.6943,0.5562,0.0077,0.4179,2098
20,-0.4199,-0.9871,-0.8013,0.4346,-0.4829,0.4011,2257
20,-1.176,-0.4402,-1.199,0.702,-0.3855,0.5236,1825
20,-0.636,0.425,-0.8481,1.2436,-0.1752,0.2181,1564
20,-0.4507,0.2354,-0.7332,1.4452,-0.2083,0.3478,2116
20,-1.134,-0.1787,-1.1013,1.7355,-0.0453,0.5046,2168
20,-1.0044,-0.5142,-0.9324,1.6403,0.5675,0.4854,2025
20,-0.8735,-0.4741,-0.876,1.8178,0.7348,0.8448,2247
20,-0.6675,0.0046,-1.0249,1.8528,0.8142,0.518,2240
20,-0.5054,0.082,-0.9255,2.0157,0.8106,0.5464,1684
20,-0.9678,1.1975,-1.2683,2.2043,0.3582,0.2844,2224
20,0.1304,1.9999,-1.3655,1.6261,0.4461,0.9709,2200
20,0.4976,1.4194,0.2229,2.3079,-0.9355,0.871,2173
20,-2.0,1.5596,-1.6978,1.1428,0.9475,2.8821,2083
20,0.7034,1.9999,0.667,1.1752,0.3416,1.8596,1980
20,-0.3003,1.9999,-0.2102,0.6244,0.6903,1.8132,2121
20,-1.4319,1.6709,0.1758,0.412,0.8487,2.6452,2144
20,-1.2942,1.0308,0.0117,0.1494,1.8977,2.0766,1992
20,-0.8223,0.6489,0.1455,0.1574,1.0484,0.9614,1970
20,-1.6321,-0.1226,0.0854,-0.6195,1.0367,-0.012,2144
20,-1.9919,-0.335,0.645,-0.0992,1.3768,0.2001,2207
20,-1.3396,0.1257,-0.2893,-0.5695,1.346,-0.3256,1834
20,-0.9978,-0.3074,0.1628,0.023,0.8028,-1.1332,2322
20,-1.1426,-0.7537,-0.5181,0.2401,0.5024,-1.16,2083
20,-1.4614,-0.7402,-0.7915,0.6935,0.5212,-0.9564,1772
20,-1.4365,-0.5181,-0.8911,0.7826,0.8967,-0.8166,1824
20,-1.4419,0.4209,-0.6558,0.8123,0.9734,-0.3141,1957
20,-0.7673,-0.0273,-0.4575,0.8995,0.4469,-0.1439,2076
20,-1.4363,0.1299,-0.5051,0.8504,0.6002,-0.2151,2126
20,-1.3967,0.3293,-0.2864,1.0037,0.804,-0.1163,1749
20,-1.4119,0.1235,-0.6138,0.8335,0.7047,-0.1039,2034
20,-1.4121,0.3838,-0.5293,0.6943,0.5975,-0.3597,1805
21,-1.5913,0.4556,-0.6926,0.4076,1.1603,-0.7187,2287
21,-1.7065,0.238,-0.2986,0.5036,0.848,-0.6556,2345
21,-1.6338,-0.0571,-0.3762,0.1948,0.5854,-0.7773,1986
21,-1.7947,-0.2258,-0.5103,-0.0443,0.3639,-0.8773,2146
21,-1.7053,-0.0574,-0.4492,-0.2791,-0.1317,-1.0705,1616
21,-1.7507,-0.21,-0.5073,-0.4081,-0.5693,-1.1105,2121
21,-1.676,-0.2598,-0.5181,-0.5635,-0.9815,-1.1513,1943
21,-1.3115,-0.2021,-0.5862,-0.8529,-1.3363,-1.2876,2112
21,-1.1377,-0.2524,-0.5862,-1.0524,-1.6174,-1.3696,2034
21,-0.9553,-0.2175,-0.6021,-1.1585,-1.9258,-1.4775,2040
21,-0.9524,-0.1743,-0.5229,-1.2493,-1.8225,-1.5483,2104
21,-0.9048,-0.2163,-0.5376,-1.2322,-1.5617,-1.5274,2409
21,-0.8315,-0.2603,-0.4509,-1.1182,-1.2834,-1.5199,2131
21,-0.7615,-0.3281,-0.4668,-1.0806,-1.0235,-1.4221,2266
21,-0.7771,-0.3503,-0.4077,-0.9949,-0.7305,-1.3415,1916
21,-0.8164,-0.3765,-0.3914,-0.9957,-0.5044,-1.3142,2188
21,-0.7971,-0.4214,-0.3721,-0.9678,-0.336,-1.3123,2384
21,-0.8464,-0.4211,-0.3289,-0.8689,-0.3063,-1.273,2021
21,-0.8997,-0.439,-0.3127,-0.8271,-0.2659,-1.2672,1982
21,-0.9587,-0.4224,-0.3735,-0.828,-0.2928,-1.1931,2140
21,-0.8879,-0.4822,-0.3103,-0.8056,-0.2317,-1.1704,1883
21,-0.9541,-0.4104,-0.3706,-0.7644,-0.261,-1.0563,2058
21,-0.8701,-0.5022,-0.3977,-0.7749,-0.2487,-1.0264,1825
21,-0.8713,-0.4885,-0.418,-0.84,-0.2533,-0.9993,2065
21,-0.908,-0.5007,-0.4778,-0.9147,-0.3008,-0.9397,2028
21,-0.8381,-0.4487,-0.4343,-0.9401,-0.2851,-0.9765,2016
21,-0.8464,-0.2993,-0.4795,-0.9361,-0.3336,-0.9425,2033
21,-0.8333,-0.2874,-0.4902,-0.8312,-0.2533,-0.9127,1964
21,-0.7312,-0.3179,-0.3418,-0.6422,-0.2369,-0.9361,2033
21,-0.7849,-0.4172,-0.3132,-0.4946,-0.2862,-0.9684,2077
21,-0.7959,-0.3999,-0.321,-0.3855,-0.347,-1.0702,2051
21,-0.7896,-0.3145,-0.3262,-0.2657,-0.3392,-1.1476,2049
21,-0.7236,-0.2195,-0.2554,-0.1485,-0.3983,-1.2383,2044
21,-0.7024,-0.0068,-0.2219,-0.0587,-0.4284,-1.2002,2032
21,-0.6733,0.0317,-0.1746,0.0329,-0.4381,-1.0845,2047
21,-0.5964,0.1367,-0.0962,0.2453,-0.4482,-1.0913,2047
21,-0.729,0.2385,-0.0801,0.324,-0.547,-1.2115,2007
21,-0.7205,0.2124,-0.1516,0.2049,-0.4637,-1.2734,2026
21,-0.72,0.2288,-0.1753,0.1818,-0.3417,-1.3407,2054
21,-0.5613,0.2649,-0.2561,-0.0008,-0.5179,-1.3946,2052
21,-0.6873,0.4929,-0.3196,-0.038,-0.6566,-1.5388,2046
21,-0.7053,0.6389,-0.302,-0.3195,-0.9689,-1.5154,1991
21,-0.707,0.6143,-0.384,-0.693,-1.0283,-1.6757,2025
21,-0.5627,0.4548,-0.6594,-0.9323,-1.4671,-1.8361,2071
21,-0.4619,0.5686,-0.897,-0.9831,-2.0877,-1.8636,2080
21,-0.3435,0.3528,-0.9893,-1.1027,-2.8304,-1.7434,2073
21,-0.3926,0.0461,-1.0583,-1.1223,-3.9721,-1.3712,2049
21,-0.5439,-0.1238,-1.1462,-1.7077,-4.3635,-1.2504,1997
21,-0.6602,-0.5049,-1.3647,-2.6701,-4.3635,-1.0587,2039
21,-0.6243,-0.7827,-1.3433,-3.1772,-4.3635,-1.0513,2058
21,-0.7922,-0.3528,-1.1562,-3.327,-4.3635,-0.653,2134
21,-0.6868,-0.1155,-1.0583,-3.2436,-4.2624,-0.5514,2000
21,-0.3848,-0.2124,-0.9429,-2.8948,-4.3635,-0.2895,2059
21,-0.3391,-0.2881,-0.8806,-2.6012,-4.3635,0.1499,2031
21,-0.3894,-0.606,-0.9138,-2.2707,-4.3635,0.4829,2050
21,-0.7732,-0.917,-0.7715,-1.5684,-4.3635,0.6339,2201
21,-1.1023,-1.2505,-0.75,-1.1756,-4.3635,1.1942,2032
21,-1.4983,-1.3037,-0.7666,-1.2516,-4.3635,1.5281,2078
21,-1.7302,-1.2107,-0.7905,-0.8084,-4.3635,1.3885,2078
21,-1.6628,-1.1758,-0.4624,-0.659,-4.3635,1.5348,2064
21,-1.741,-1.4285,-0.2869,-0.9411,-4.3635,1.4355,2173
21,-1.6353,-1.1707,-0.2825,-0.4139,-4.3635,1.9265,2049
21,-1.7615,-1.4827,-0.3218,-0.6237,-4.3635,2.165,2020
21,-1.7922,-1.6948,-0.3215,-0.4574,-3.8431,2.5493,2065
21,-1.7822,-1.3577,-0.4263,-0.381,-3.5103,2.3522,2098
21,-1.1677,-1.449,-0.2693,-0.0594,-3.2244,1.7763,2112
21,-1.2253,-1.3162,-0.2271,0.3754,-3.4845,1.9177,1983
21,-1.521,-1.1655,-0.0786,0.8609,-3.1166,1.958,2056
21,-1.7671,-1.1785,-0.0779,1.2778,-2.8296,1.7731,1587
21,-1.4739,-1.9351,-0.1577,0.9721,-2.4344,1.1497,1960
21,-1.4514,-1.4956,-0.438,0.8618,-0.8399,1.4822,2010
21,-0.6785,-2.0,0.1582,1.2026,-0.8733,0.8774,2161
21,-0.345,-1.0742,-0.707,2.0533,-1.0961,1.4202,2061
21,-1.8796,-0.5156,0.0715,3.1068,0.2943,1.3247,1206
21,-1.4971,-1.0029,0.104,3.3338,2.4023,0.4046,2540
21,-0.6311,-0.8621,0.3562,4.0594,3.4105,-0.151,1581
21,-1.1543,-0.7124,0.5281,4.3634,3.4597,-0.4882,2054
21,-1.2451,-1.0339,1.0151,4.3634,3.9042,-0.4595,2307
21,-0.6526,-1.604,0.7717,4.3634,4.2494,-1.2677,2187
21,0.302,-1.7761,1.3696,3.7784,3.9642,-0.9031,1921
21,0.0442,-1.8337,1.2222,3.3545,3.4264,-0.8574,2052
21,0.3511,-1.8748,1.0823,2.8028,2.5139,-0.8981,2119
