Timestamp,Ax,Ay,Az,Rx,Ry,Rz,EMG
0,0.1606,1.2737,-0.6326,-1.5367,0.433,-1.3789,2092
0,0.1494,1.2681,-0.571,-1.8129,0.5075,-1.4117,2047
0,0.1543,1.2852,-0.5291,-2.0774,0.4434,-1.4709,2013
0,0.1836,1.3413,-0.4976,-2.3406,0.3779,-1.5743,2093
0,0.2075,1.4539,-0.5376,-2.555,0.2414,-1.7138,2042
0,0.1812,1.491,-0.5728,-2.7188,0.116,-1.9536,2055
0,0.1196,1.489,-0.6479,-2.9091,0.068,-2.2097,2095
0,0.0476,1.4902,-0.6965,-3.0315,0.0498,-2.495,2032
0,-0.0964,1.4563,-0.7139,-3.109,0.2493,-2.7609,2159
0,-0.2507,1.3567,-0.6672,-3.2752,0.5023,-3.0887,2072
0,-0.197,1.2937,-0.623,-3.401,0.7287,-3.4203,2041
0,-0.0476,1.2212,-0.5605,-3.4344,0.8407,-3.679,2112
0,0.0547,1.145,-0.6121,-3.3764,0.853,-3.9068,2045
0,0.1548,1.0796,-0.6907,-3.2263,0.7954,-4.1234,2032
0,0.2131,1.0364,-0.7144,-2.9902,0.5385,-4.2511,1960
0,0.4741,0.7747,-0.751,-2.936,0.408,-3.9692,2003
0,0.1116,0.7754,-0.918,-2.5613,0.3302,-3.7813,2210
0,0.1555,0.9407,-1.1836,-2.0766,0.3059,-3.4082,2096
0,0.4968,0.7217,-1.3079,-1.5788,0.3187,-2.8544,2113
0,0.4307,0.6621,-1.3977,-1.0067,0.3334,-2.2882,2046
0,0.7549,0.5413,-1.8401,-0.0559,0.0884,-1.4518,2130
0,1.2786,0.2488,-1.4417,0.1478,-0.4096,-0.3518,2151
0,1.6096,-0.4146,-1.6899,0.3709,-0.8548,-0.035,1945
0,-2.0,-2.0,1.9999,-2.268,3.3813,1.3251,2002
0,-0.543,0.3767,-2.0,4.3634,-4.3635,-3.9125,1913
0,1.9999,1.9999,1.7148,0.6594,-4.3635,4.3634,2182
0,-2.0,1.9999,1.9999,-1.5787,4.3634,-1.1207,2001
0,-2.0,-0.2969,-0.1702,-0.5032,1.5016,-3.2034,1850
0,-0.9741,-2.0,-1.5281,0.3084,-0.7307,-0.1704,1975
0,1.9999,-1.2107,-1.2939,-0.1475,-0.6088,1.2344,2077
0,1.3806,0.5662,-0.8333,1.2227,-1.5205,3.8213,2183
0,-0.6609,1.3774,-1.1545,1.5414,-0.9493,2.9474,2231
0,-0.9465,1.4175,-0.7854,1.8733,-0.2743,2.3455,2035
0,-0.3062,0.7344,-0.3298,1.8574,0.7488,1.8166,2041
0,-0.0664,0.2302,-0.3508,2.0703,0.5947,1.7475,2027
0,0.0044,0.2441,-0.4214,1.9769,0.8657,1.8566,2056
0,0.0027,0.6267,-0.469,2.0314,0.4923,2.2875,2129
0,-0.2883,0.7761,-0.3328,1.7871,0.2998,2.3252,2046
0,-0.3706,0.96,-0.4067,1.9283,0.4297,2.3477,2064
0,-0.373,0.9375,-0.4805,1.8965,0.2974,2.4475,2097
0,-0.3911,0.7729,-0.4133,1.9165,0.1495,2.4385,2071
0,-0.2576,0.6206,-0.2979,1.7479,-0.1514,2.4446,2064
0,-0.1914,0.613,-0.3098,1.6978,-0.0662,2.4936,2075
0,-0.1697,0.5854,-0.3606,1.6572,-0.0771,2.4622,2058
0,-0.1934,0.4966,-0.4519,1.4474,-0.2923,2.3945,2127
0,-0.1807,0.5425,-0.4221,1.3856,-0.1996,2.2254,2042
0,-0.1248,0.502,-0.4277,1.2184,-0.3803,1.9608,2041
0,0.0227,0.4492,-0.4763,1.0215,-0.5691,1.7594,2507
0,0.0415,0.3894,-0.49,0.9882,-0.4168,1.7286,1922
0,0.0498,0.4048,-0.5156,0.8485,-0.6108,1.5432,1932
0,0.0652,0.291,-0.571,0.7947,-0.4609,1.2908,2047
0,0.009,0.1731,-0.4932,0.6581,-0.2803,1.0965,2012
1,0.168,0.0813,-0.5261,0.5424,-0.1216,1.011,1987
1,0.3755,0.1238,-0.6323,0.5232,0.171,1.1091,2216
1,0.5166,0.2983,-0.6011,0.4629,0.1891,1.0697,2148
1,0.5918,0.4348,-0.6519,0.5906,-0.0567,1.0969,2159
1,0.3789,0.49,-0.6448,0.507,0.0198,0.8562,2054
1,0.6208,0.5625,-0.6743,0.4904,-0.0196,0.83,2034
1,0.6211,0.6682,-0.751,0.6352,0.34,0.8809,2098
1,0.5576,0.8252,-0.7188,0.6648,0.0061,0.7849,2129
1,0.6379,0.8132,-0.6462,0.6886,0.1454,0.8175,2091
1,0.4268,0.8154,-0.7556,0.854,0.1439,0.7536,2112
1,0.5139,0.9543,-0.7461,0.8343,0.1001,0.6071,2069
1,0.6484,0.9924,-0.7354,0.8188,0.03,0.5854,2095
1,0.5496,1.0012,-0.7263,0.7716,0.0157,0.5297,2072
1,0.3896,0.9084,-0.5796,0.6919,0.1718,0.632,2072
1,0.2949,0.9197,-0.4541,0.389,0.3051,0.4765,2067
1,0.3945,0.9224,-0.4512,0.1928,0.297,0.3675,2047
1,0.5061,0.9944,-0.5193,0.1543,0.3554,0.3494,2008
1,0.4668,1.0764,-0.5488,0.1662,0.228,0.2326,2051
1,0.364,1.1072,-0.5847,0.134,0.2053,0.0419,2041
1,0.3594,1.1699,-0.6233,0.1143,0.1936,-0.0218,2032
1,0.3958,1.2656,-0.626,0.038,0.1595,0.0075,2298
1,0.2891,1.1992,-0.6125,-0.0527,0.2085,0.0017,2076
1,0.25,1.1431,-0.5986,-0.1815,0.1968,-0.0695,2021
1,0.2739,1.1782,-0.6045,-0.2438,0.1328,-0.2045,1990
1,0.2463,1.144,-0.6279,-0.3505,0.0419,-0.3666,2073
1,0.2083,1.084,-0.6172,-0.5285,0.0016,-0.4839,2017
1,0.1899,1.0408,-0.5942,-0.7139,0.0828,-0.5706,2062
1,0.1826,1.0542,-0.5872,-0.921,0.1497,-0.6862,2019
1,0.2014,1.094,-0.5593,-1.1258,0.1983,-0.8379,2062
1,0.2,1.1597,-0.5896,-1.2422,0.2258,-0.9917,2108
1,0.2319,1.1865,-0.624,-1.3922,0.2248,-1.1709,2057
1,0.2705,1.1733,-0.5972,-1.5294,0.3514,-1.3632,2068
1,0.2842,1.1895,-0.6116,-1.6668,0.4011,-1.5474,2036
1,0.2583,1.269,-0.6621,-1.7807,0.3521,-1.7199,2056
1,0.1609,1.303,-0.6804,-1.9354,0.295,-1.9118,2067
1,0.1313,1.3403,-0.718,-2.079,0.2601,-2.0475,2068
1,0.134,1.4275,-0.6548,-2.2539,0.224,-2.1931,1909
1,0.1335,1.457,-0.6221,-2.4538,0.2159,-2.3887,2129
1,0.1921,1.4333,-0.6001,-2.5203,0.1665,-2.5838,2089
1,0.1682,1.355,-0.6318,-2.5274,0.1156,-2.759,1923
1,0.1619,1.2261,-0.6748,-2.529,-0.0553,-2.9673,2135
1,0.123,1.0813,-0.637,-2.5569,-0.1462,-3.1455,2034
1,0.0442,0.9236,-0.6416,-2.8004,-0.2012,-3.3593,2172
1,-0.1011,0.9377,-0.6619,-2.6701,-0.2673,-3.6175,2030
1,0.0259,0.7358,-0.6638,-2.8636,-0.1732,-3.6688,2103
1,0.293,0.5913,-0.5466,-2.9557,-0.2136,-3.593,2049
1,0.1897,0.5352,-0.7695,-2.7044,-0.3302,-3.4825,2035
1,0.1409,0.6406,-1.0017,-2.3105,-0.7353,-3.3705,1959
1,0.1484,0.4939,-1.0686,-1.9066,-0.5855,-2.7895,1770
1,0.123,0.7505,-1.094,-1.5267,-0.816,-2.6232,2039
1,0.3308,0.5154,-1.2395,-1.2191,-0.9091,-2.2293,2143
1,0.3752,0.3374,-1.3071,-0.7103,-1.0825,-1.6914,2117
1,0.4004,0.0278,-1.1804,-0.2907,-1.38,-1.0766,2062
1,0.3735,-0.439,-1.0581,-0.3855,-1.4217,-0.4982,2075
1,-2.0,-2.0,1.9999,-4.1282,2.5816,0.2711,2077
1,1.9999,1.9999,-2.0,4.3634,-4.3635,-1.3769,2244
1,1.9999,1.9999,1.9999,-4.3635,0.0906,4.3634,1993
1,-1.1672,1.9999,1.9999,-1.0736,4.3634,-2.2611,1944
1,-2.0,-1.1589,-2.0,0.5295,-4.3635,-1.4571,2016
1,0.6453,-1.8508,-1.2451,-0.365,-1.5697,-1.2501,2073
1,1.054,-0.6755,-1.1042,1.1479,-0.2595,2.5794,2159
1,-0.9131,-0.0969,-1.0146,1.9146,-0.8067,1.8777,2117
1,-1.0835,0.782,-0.6982,2.2928,0.3075,1.5819,2050
1,-0.7866,1.3003,-0.3489,2.4306,1.7056,1.0933,2071
1,0.1865,0.8564,-0.322,2.4816,1.5017,0.6538,2014
1,0.5815,0.1843,-0.1389,2.3494,1.1425,1.0136,2005
1,0.3242,0.4211,-0.0725,2.1409,1.0801,1.2563,2090
1,0.1831,0.6116,-0.1521,1.9295,0.9015,1.5881,2103
1,-0.219,0.5969,-0.2976,1.8205,1.1572,1.8041,2067
1,-0.3342,0.7664,-0.5261,1.9325,1.2338,1.7193,2055
1,-0.1287,0.7788,-0.5352,1.9423,1.1306,1.7925,2051
1,-0.085,0.7134,-0.5054,2.0506,0.9283,1.8223,2058
1,-0.0818,0.709,-0.4736,2.0953,0.751,1.7816,2073
1,-0.019,0.7048,-0.4832,2.0909,0.5612,1.7343,2040
1,0.0085,0.6614,-0.4441,1.9859,0.3549,1.7611,2514
1,0.0242,0.6604,-0.4546,1.8293,0.1979,1.8048,1909
1,0.0376,0.6467,-0.4656,1.7132,0.1333,1.8209,2006
1,-0.0291,0.594,-0.4673,1.6183,-0.029,1.6954,2002
1,0.0117,0.5474,-0.4336,1.5418,-0.136,1.5687,2186
1,0.0417,0.4966,-0.4785,1.4788,-0.1167,1.5213,2057
1,0.0391,0.4634,-0.4998,1.3711,-0.1302,1.4529,2060
1,0.0693,0.4192,-0.5596,1.2901,-0.0654,1.4033,2058
1,0.0784,0.4082,-0.6411,1.2415,0.0731,1.3876,2066
1,0.0955,0.4402,-0.7056,1.1279,0.1345,1.3238,2126
1,0.0461,0.4336,-0.7004,1.0054,0.2036,1.315,2043
1,0.2112,0.4988,-0.7178,0.8534,0.0766,1.1078,2114
1,0.3821,0.5862,-0.7812,0.8,0.0591,1.1139,1970
1,0.4126,0.5969,-0.8643,0.8628,-0.1493,1.1167,2132
1,0.4038,0.5393,-0.8008,0.7453,-0.1851,1.0701,2099
1,0.3743,0.5127,-0.7954,0.694,-0.2081,1.0275,2042
1,0.3821,0.5659,-0.7852,0.6058,-0.1615,0.9954,2052
1,0.439,0.665,-0.7419,0.5682,-0.0316,0.9935,2067
1,0.4819,0.7368,-0.7771,0.6016,0.0828,0.9299,2073
1,0.5339,0.7996,-0.7239,0.6558,0.153,0.8858,2115
1,0.5659,0.7693,-0.7214,0.7925,0.2392,0.8352,2054
1,0.4182,0.7432,-0.6882,0.9581,0.3771,0.7436,2153
1,0.4141,0.8748,-0.7793,1.119,0.3088,0.6375,2066
1,0.4385,0.9285,-0.739,1.0565,0.2278,0.4888,2063
1,0.4143,0.9011,-0.6965,0.9323,0.3077,0.3272,2117
1,0.4119,0.9121,-0.6548,0.8353,0.3823,0.2398,2069
1,0.3462,0.9312,-0.6406,0.719,0.3546,0.159,2061
2,0.2739,0.9373,-0.6584,0.5705,0.2665,0.0944,2065
2,0.2542,0.9592,-0.6785,0.4052,0.2413,0.0494,2037
2,0.2222,0.9722,-0.6362,0.187,0.3116,0.0081,2048
2,0.1775,0.9729,-0.5935,-0.0499,0.2943,-0.0668,2054
2,0.2021,1.0161,-0.5952,-0.2224,0.2364,-0.1095,2109
2,0.2236,1.0432,-0.5737,-0.4169,0.1555,-0.1549,2038
2,0.2131,1.0596,-0.5752,-0.5437,0.0808,-0.2446,2074
2,0.1787,1.0808,-0.5642,-0.6954,0.0229,-0.3539,2087
2,0.1833,1.1301,-0.5342,-0.8004,0.0583,-0.4464,2054
2,0.229,1.0977,-0.5525,-0.9401,0.0502,-0.5922,2020
2,0.2317,1.0725,-0.5591,-1.0369,0.0036,-0.7517,2037
2,0.2231,1.1165,-0.604,-1.1387,0.087,-0.8971,2035
2,0.2412,1.1753,-0.6492,-1.1828,0.1686,-1.0899,2098
2,0.2209,1.1768,-0.6458,-1.2714,0.2013,-1.1921,2049
2,0.2085,1.1821,-0.6155,-1.4498,0.1317,-1.3435,2035
2,0.2227,1.1748,-0.5913,-1.6523,0.1558,-1.4623,2054
2,0.2429,1.1733,-0.5735,-1.8612,0.1168,-1.5591,1922
2,0.2603,1.1792,-0.5962,-2.11,0.1736,-1.7112,2110
2,0.2754,1.1948,-0.5728,-2.263,0.2899,-1.8853,2045
2,0.2109,1.3394,-0.6484,-2.3368,0.1847,-2.0568,2073
2,0.1667,1.4883,-0.656,-2.4898,0.1955,-2.2643,2059
2,0.0715,1.5806,-0.6829,-2.5855,0.237,-2.4346,1965
2,0.0181,1.6201,-0.665,-2.7085,0.2924,-2.6401,2052
2,0.0044,1.5723,-0.6177,-2.7942,0.3402,-2.734,2056
2,0.1101,1.4832,-0.6377,-2.8011,0.279,-2.7778,2159
2,0.2063,1.2463,-0.6675,-2.775,0.2332,-2.8337,2065
2,0.2498,1.0811,-0.7222,-2.7276,0.1377,-2.9911,2046
2,0.2778,0.9263,-0.7693,-2.614,-0.0269,-3.1344,2053
2,0.3064,0.8931,-0.7878,-2.5117,-0.1392,-3.2933,2142
2,-0.0217,0.8726,-1.0066,-2.2133,-0.11,-3.2453,2030
2,-0.0051,0.8228,-1.1145,-1.9813,0.03,-3.1046,2006
2,0.1765,0.6626,-1.2717,-1.7656,0.0406,-2.6878,2110
2,0.123,0.7188,-1.136,-1.4604,0.061,-2.3139,2227
2,0.364,0.6035,-1.1445,-1.1069,-0.4189,-2.1048,1990
2,0.5454,0.3684,-1.2083,-0.6521,-0.8967,-1.6277,2069
2,0.6167,0.1152,-1.1555,-0.2759,-1.4531,-0.9793,1941
2,0.9565,-0.4045,-0.6433,-0.7364,-2.0635,-0.1935,1936
2,0.7764,-0.8831,-0.1133,-0.8389,-1.5407,0.5413,2131
2,-2.0,-2.0,1.9999,-4.3635,1.0966,0.6574,1955
2,-0.0488,1.9999,-2.0,4.3634,-3.1329,-3.02,2344
2,1.9999,1.9999,1.9999,-2.3489,-4.3635,4.3634,1660
2,0.9146,1.9999,1.9999,-0.9207,2.3854,0.287,2040
2,-2.0,0.0222,-0.3816,-1.4354,0.8752,-1.0882,2127
2,-2.0,-1.3728,-1.2102,-0.1365,-2.4546,-1.026,2069
2,1.3354,-0.7852,-1.2986,0.0646,0.0161,0.4737,2183
2,0.2983,0.1125,-0.6924,0.7506,0.049,1.8736,1909
2,-0.9272,0.4355,-1.2073,1.7313,-0.5296,1.2781,1855
2,-0.6704,0.7524,-0.9231,1.5111,0.1555,1.3905,1976
2,-0.1565,0.9355,-0.5383,1.8186,0.9266,1.1961,2151
2,0.1865,0.5735,-0.4243,1.77,0.7831,1.3055,2005
2,0.291,0.4407,-0.3657,1.7113,0.346,1.4725,2038
2,0.0945,0.5742,-0.3945,1.4644,0.3843,1.8538,2220
2,0.0007,0.6624,-0.3882,1.4549,0.1096,2.132,2018
2,-0.144,0.7629,-0.3757,1.3569,0.1145,2.3079,2027
2,-0.1807,0.8396,-0.3511,1.4131,0.0237,2.3859,2225
2,-0.0659,0.8127,-0.3701,1.5009,-0.1075,2.44,2059
2,-0.0259,0.6829,-0.3105,1.5633,-0.2762,2.4515,2067
2,0.0618,0.6216,-0.3262,1.6354,-0.3634,2.4077,2019
2,0.0857,0.6262,-0.2744,1.6391,-0.42,2.3253,2054
2,0.0964,0.6658,-0.2781,1.6908,-0.3879,2.2025,2076
2,0.1763,0.6714,-0.2849,1.6757,-0.4305,2.0062,2069
2,0.1914,0.6646,-0.2712,1.6777,-0.4729,1.7881,2040
2,0.5566,0.7073,-0.2493,1.6532,-0.5147,1.7399,2060
2,0.6179,0.6423,-0.303,1.631,-0.652,1.87,2046
2,0.4287,0.5461,-0.2197,1.5214,-0.5829,1.7977,2088
2,0.334,0.5054,-0.2288,1.5158,-0.3413,1.5744,2048
2,0.2456,0.4465,-0.3044,1.5286,-0.0771,1.2555,2094
2,0.2498,0.3711,-0.3313,1.4267,0.0882,0.8313,2051
2,0.3896,0.3484,-0.4199,1.2963,0.2019,0.4883,2001
2,0.4336,0.3633,-0.5388,1.2244,0.2987,0.253,2106
2,0.3721,0.356,-0.5964,1.2066,0.3513,0.0281,2053
2,0.3123,0.3757,-0.5532,1.1417,0.5227,-0.1326,1951
2,0.5735,0.3877,-0.6675,1.17,0.6842,-0.0799,2243
2,0.5291,0.4438,-0.6782,1.441,0.9942,0.1049,2125
2,0.4348,0.4233,-0.6907,1.3836,0.8851,0.1625,2055
2,0.4893,0.4453,-0.7163,1.3523,0.6697,0.2009,2026
2,0.5557,0.6887,-0.6497,1.2994,0.4807,0.2278,2100
2,0.595,0.6538,-0.6433,1.0477,0.4023,0.2469,2048
2,0.4951,0.7258,-0.6792,1.0441,0.24,0.3139,2059
2,0.4192,0.8193,-0.7251,1.0543,0.1212,0.2057,2069
2,0.4663,0.8254,-0.7744,0.9937,0.0418,0.278,2098
2,0.3979,0.821,-0.7629,1.0428,0.0819,0.3501,2090
2,0.3501,0.8418,-0.7549,1.0116,0.071,0.288,2091
2,0.3901,0.8323,-0.6897,0.9851,0.1298,0.3691,2053
2,0.3955,0.9404,-0.7036,1.0753,0.1766,0.4255,2124
2,0.3364,1.23,-0.8401,1.1901,0.0776,0.4006,2159
2,0.2268,0.8972,-0.5398,0.6979,0.0531,0.0799,2017
2,0.2561,0.5608,-0.6616,0.6167,0.3926,0.0655,1752
2,0.448,0.6279,-0.7253,0.471,0.0822,0.0622,2123
2,0.5188,0.8848,-0.6985,0.2729,-0.1011,-0.0061,2103
2,0.2749,1.0889,-0.6816,0.3342,0.0352,-0.2081,2137
2,0.1174,1.136,-0.7065,0.3864,0.1147,-0.4337,2033
2,0.1433,1.1323,-0.6853,0.2574,0.1798,-0.5927,2108
2,0.2039,1.0896,-0.7095,0.0839,0.312,-0.6401,2039
2,0.239,1.1052,-0.7383,-0.049,0.1518,-0.6838,2058
2,0.2749,1.1252,-0.7747,-0.1708,-0.0614,-0.7739,2072
2,0.1929,1.063,-0.7515,-0.2903,-0.1167,-0.8051,2006
2,0.1016,1.0181,-0.7324,-0.4421,-0.0955,-0.852,1966
2,0.0701,0.9795,-0.7261,-0.6509,0.0077,-0.9267,2026
2,0.0679,0.9988,-0.7432,-0.8721,0.0136,-0.9842,2064
2,0.0803,1.0525,-0.7739,-1.0963,0.0149,-1.0497,2064
2,0.0415,1.0569,-0.7959,-1.3258,0.0707,-1.1709,2094
3,0.0691,1.0613,-0.7866,-1.5359,0.0991,-1.2505,2102
3,0.1277,1.1152,-0.7693,-1.7187,0.073,-1.3117,2091
3,0.1428,1.1594,-0.7737,-1.8749,-0.1013,-1.4114,2030
3,0.1462,1.228,-0.7964,-1.9813,-0.3012,-1.5158,2067
3,0.0869,1.2419,-0.8176,-2.0861,-0.408,-1.6725,2068
3,0.0701,1.1929,-0.8457,-2.1881,-0.4177,-1.8357,2071
3,0.031,1.1577,-0.8357,-2.3232,-0.3795,-2.0097,2089
3,-0.0027,1.1687,-0.7651,-2.4413,-0.1658,-2.1884,2124
3,-0.04,1.2327,-0.8162,-2.6789,-0.075,-2.353,2092
3,-0.0774,1.3357,-0.9407,-2.7669,-0.0366,-2.5477,2021
3,-0.0388,1.4138,-0.9773,-2.7855,-0.2481,-2.7584,2012
3,0.0071,1.252,-0.9236,-2.9986,-0.2888,-2.953,2047
3,-0.0642,1.1753,-0.9338,-2.803,-0.1153,-3.1122,2218
3,0.0376,1.1245,-0.8748,-2.6566,-0.1846,-3.2051,2011
3,0.113,1.011,-0.9189,-2.5514,-0.0768,-3.1974,2071
3,0.095,0.906,-1.0608,-2.3988,-0.2982,-3.0985,2053
3,0.1726,0.7285,-1.0994,-2.3774,-0.3842,-2.7857,1979
3,0.179,0.7119,-1.2151,-2.1735,-0.329,-2.5518,2090
3,0.3472,0.5942,-1.2485,-1.9483,-0.6863,-2.3827,2002
3,0.3279,0.4934,-1.2666,-1.5929,-0.8123,-2.0503,2100
3,0.3633,0.3176,-1.1965,-1.4632,-1.042,-1.7311,2067
3,0.4634,-0.0911,-0.9851,-1.2579,-1.0895,-1.3291,2016
3,0.1714,-0.4153,-0.729,-1.031,-0.9654,-0.8305,1988
3,0.332,-0.4382,-0.0481,-1.4135,-0.7696,-0.6383,1912
3,-0.2717,-1.0967,1.4932,-2.5041,0.7907,0.3882,2112
3,-2.0,0.7483,-1.7974,0.9405,1.5656,-0.3394,2176
3,1.9999,1.9999,-0.4395,3.3744,-4.3635,4.3634,1625
3,1.9999,1.9999,0.4771,-1.8852,0.659,3.3448,2200
3,-1.6248,1.136,1.4297,-1.8411,1.067,0.7103,1719
3,-2.0,-0.9829,-0.8223,0.1537,-1.2175,-1.1471,2038
3,0.2808,-0.782,-0.9399,0.282,0.5464,-0.4947,2172
3,1.2444,0.1099,-0.7446,0.8195,-0.2625,1.2742,2096
3,-0.2563,0.1235,-0.8447,1.2846,0.5526,0.9455,2204
3,-0.7097,0.1572,-0.699,1.7769,0.4068,0.5966,1965
3,0.0291,0.6323,-0.4817,1.8552,1.0074,1.0455,2060
3,0.231,0.6929,-0.2583,2.0048,1.3291,1.2062,2112
3,0.2805,0.6323,-0.1501,1.9864,1.0911,1.1363,2050
3,0.2483,0.6245,-0.2173,1.8052,1.1697,1.2411,2075
3,0.0244,0.5977,-0.2305,1.6009,1.3224,1.3472,2057
3,-0.0647,0.48,-0.2207,1.452,1.0372,1.3061,2072
3,-0.0618,0.509,-0.3096,1.45,0.7727,1.3712,2038
3,-0.075,0.5181,-0.4436,1.4444,0.7476,1.5938,2070
3,-0.0698,0.5295,-0.4412,1.4342,0.5759,1.756,2021
3,-0.0671,0.5344,-0.4399,1.4073,0.4015,1.8599,2056
3,-0.0469,0.6223,-0.4475,1.4708,0.4117,1.9122,2048
3,-0.0183,0.6638,-0.4668,1.4262,0.3888,1.9112,2062
3,0.0303,0.5945,-0.4841,1.2513,0.1455,1.8195,2067
3,0.1072,0.5386,-0.5779,1.2083,0.1704,1.8173,2072
3,0.1086,0.5439,-0.6238,1.2031,0.2878,1.6456,2065
3,-0.0264,0.4797,-0.8008,1.2886,-0.0634,1.6233,2061
3,0.1108,0.2668,-0.7578,1.2588,-0.49,1.4203,2103
3,0.2002,0.085,-0.6904,1.0694,-0.5257,1.4237,2074
3,0.2268,0.0999,-0.8318,1.056,-0.6807,1.3704,2046
3,0.2427,0.2751,-0.864,1.1389,-0.5458,1.3464,2106
3,0.1899,0.4058,-0.8818,1.2184,-0.2886,1.3986,2067
3,0.1697,0.5159,-0.8625,1.2062,-0.3007,1.3001,2071
3,0.1948,0.6287,-0.9238,1.2026,-0.5084,1.1086,2047
3,0.2473,0.7476,-0.9072,1.3011,-0.5568,0.8716,2064
3,0.2932,0.8706,-0.7544,1.1836,-0.5054,0.5015,2055
3,0.4009,0.9788,-0.572,0.887,-0.4566,0.2111,2047
3,0.4312,1.2131,-0.5742,0.6509,-0.1428,0.2875,2061
3,0.1475,1.6194,-0.6763,0.7801,0.5237,0.5201,2096
3,0.0327,1.8464,-0.7502,0.92,0.504,0.0762,2054
3,0.0825,1.6021,-0.6545,0.713,0.4063,-0.2489,2032
3,-0.1052,1.176,-0.4839,0.6514,0.5255,-0.6123,2092
3,-0.2466,1.1555,-0.6895,0.8781,0.8123,-0.8219,2048
3,-0.2153,1.1125,-0.5925,0.9906,1.1857,-0.9609,2039
3,0.0295,0.8364,-0.6499,0.7283,1.1022,-0.6026,2066
3,0.4556,0.6152,-1.3679,0.5835,0.3855,-0.0847,2047
3,0.7002,0.4136,-0.3853,0.1282,0.7055,0.2109,2019
3,0.6453,-0.1182,-0.6279,-0.326,0.2495,0.7565,2060
3,1.219,0.1907,-0.6394,0.155,-1.2809,1.2497,2149
3,1.1357,1.2019,-0.3992,-0.0891,-1.486,1.9465,2171
3,0.0637,1.9058,-0.2737,0.1084,-1.0142,1.3242,2098
3,-0.5701,1.6968,-0.4451,0.18,-0.7524,0.2903,1996
3,-0.0288,1.0925,-0.5322,-0.0746,-0.2839,-0.0803,2031
3,0.239,0.875,-0.4519,-0.3069,0.3785,-0.2334,2099
3,0.1914,0.9089,-0.3684,-0.4956,0.4914,-0.4272,2091
3,0.2019,1.0542,-0.2964,-0.7397,0.486,-0.6131,2099
3,0.1814,1.1592,-0.3276,-0.8878,0.4131,-0.7212,2039
3,0.2317,1.2231,-0.3928,-1.0957,0.3615,-0.7771,2060
3,0.219,1.2671,-0.418,-1.3576,0.5698,-0.8078,2051
3,0.1465,1.4033,-0.4561,-1.5419,0.4057,-0.9175,2068
3,0.0879,1.5042,-0.4302,-1.8498,0.3859,-1.0441,2030
3,0.0591,1.5815,-0.5461,-2.0804,0.2674,-1.1637,2147
3,0.1316,1.5049,-0.5347,-2.3151,0.4623,-1.2644,2072
3,0.1313,1.4148,-0.5833,-2.431,0.5797,-1.3703,2106
3,0.1548,1.3677,-0.5667,-2.5452,0.7336,-1.5375,2032
3,0.1711,1.3833,-0.6548,-2.6438,0.7765,-1.7153,2007
3,0.1631,1.3645,-0.7261,-2.6436,0.7632,-1.9435,2032
3,0.1189,1.2893,-0.801,-2.6805,0.7156,-2.1201,2042
3,0.0266,1.2063,-0.8262,-2.7051,0.7822,-2.3666,2110
3,-0.0234,1.2061,-0.7705,-2.7265,0.8345,-2.561,2071
3,-0.0918,1.2026,-0.8145,-2.6571,0.8609,-2.7952,2077
3,-0.0659,1.1799,-0.8567,-2.5566,0.6513,-2.9706,2105
3,-0.0315,0.917,-0.8826,-2.4177,0.6556,-2.8556,1970
3,-0.0396,0.9963,-0.7297,-2.4465,0.433,-3.0036,2039
3,-0.269,0.9185,-0.8018,-2.3579,0.2742,-3.2046,2031
3,-0.084,0.7576,-0.7739,-2.3059,0.2445,-3.0955,2061
3,0.1289,0.5642,-0.7183,-2.3594,-0.4665,-3.4905,2062
3,0.0862,0.4304,-0.7593,-2.2257,-0.6755,-3.3673,2102
3,-0.1296,0.4165,-0.7991,-1.9742,-0.8538,-3.3367,2012
3,-0.1104,0.5405,-0.9749,-1.7638,-1.0758,-3.2056,2024
4,0.0947,0.6606,-1.0303,-1.5878,-1.1439,-2.9861,2018
4,0.312,0.7209,-1.1897,-1.1054,-1.142,-2.4577,2115
4,0.4807,0.7615,-1.3347,-0.444,-1.3691,-1.6872,2096
4,0.5288,0.7043,-1.1343,-0.1704,-1.1808,-0.7855,2024
4,0.5457,0.104,-0.5767,0.1377,-1.9993,-0.2226,2108
4,0.415,-1.2375,0.9858,-0.4432,0.2613,0.1799,2134
4,-2.0,-1.5908,1.6064,-0.6666,-0.3228,-0.4309,2040
4,1.9999,1.9999,-1.3569,3.2834,-4.3635,3.0292,2354
4,0.8821,1.9999,1.9999,-0.5625,3.053,4.3054,2107
4,-1.2151,-0.2,-0.6416,-0.6317,-0.5424,-2.6797,1786
4,-2.0,-2.0,-1.3455,0.1691,-1.9728,0.2494,1959
4,0.0574,-1.79,-0.9844,0.4409,-0.2052,-0.2742,2242
4,0.2478,0.1375,-0.9541,1.3505,-0.1432,2.2297,2206
4,-0.8118,0.9265,-0.7988,1.7839,0.0277,0.9863,2220
4,-0.8762,1.4578,-0.6943,2.4454,1.1183,0.8638,1928
4,-0.2715,1.0452,-0.5518,2.4055,1.3031,0.9309,2257
4,0.2966,0.3792,-0.0762,2.2161,1.3375,1.437,2166
4,0.1868,0.2053,-0.0129,2.0053,1.2724,1.8885,2037
4,-0.2158,0.6282,-0.2141,1.751,1.1708,2.1134,2370
4,-0.125,1.0264,-0.4211,1.65,0.9336,2.049,2034
4,-0.0757,0.9404,-0.5076,1.5302,0.8871,2.1707,2010
4,-0.1816,0.8213,-0.6379,1.5808,0.5854,2.4177,2096
4,-0.1121,0.7861,-0.5996,1.6462,0.4065,2.5875,2135
4,-0.1003,0.7324,-0.5325,1.739,0.2197,2.6654,2023
4,-0.0767,0.7317,-0.5786,1.7406,0.0238,2.7014,2103
4,-0.1426,0.6887,-0.4917,1.7518,-0.0501,2.6015,2028
4,-0.0642,0.7268,-0.4897,1.7805,-0.0104,2.4736,2060
4,-0.1064,0.738,-0.4302,1.7213,0.0738,2.3013,1999
4,-0.1965,0.5786,-0.3665,1.6562,0.0904,1.9752,2117
4,0.0276,0.6025,-0.3745,1.7626,0.2366,1.5716,2015
4,0.0786,0.5239,-0.3772,1.5322,-0.0601,1.5451,2131
4,-0.0315,0.5303,-0.2256,1.4607,-0.0274,1.1954,1980
4,0.4666,0.5054,-0.3499,1.3418,0.3091,1.345,2032
4,0.415,0.6113,-0.4153,1.026,-0.0848,1.5319,2064
4,0.0925,0.5835,-0.6082,1.0074,0.0059,1.2303,1973
4,-0.1106,0.5068,-0.5986,1.0507,0.2735,0.9625,2135
4,-0.03,0.4734,-0.6277,0.8797,0.2791,0.563,1929
4,0.1455,0.3606,-0.6331,0.8331,0.4179,0.4506,2141
4,0.1296,0.3157,-0.6765,0.7512,0.5426,0.4438,2056
4,0.0564,0.3428,-0.6763,0.7348,0.4505,0.3995,2216
4,0.2134,0.5227,-0.6799,0.8871,0.3009,0.5926,2088
4,0.2034,0.6719,-0.7363,0.91,0.2605,0.7241,2059
4,0.4016,0.7522,-0.7991,0.7692,-0.073,0.8163,2070
4,0.6121,0.8508,-0.7129,0.8204,-0.1153,1.0541,1933
4,0.4436,0.8472,-0.7756,0.8835,-0.2051,1.0505,2035
4,0.2903,0.7529,-0.6833,0.8931,-0.1706,0.9351,1982
4,0.2878,0.7554,-0.7502,0.8164,-0.2013,0.6886,1912
4,0.322,0.7986,-0.7166,0.8078,0.0304,0.6087,2025
4,0.2107,0.8091,-0.7051,0.695,0.1055,0.4754,2035
4,0.2244,0.7969,-0.6641,0.5143,0.1958,0.4252,2127
4,0.2754,0.8032,-0.6196,0.3514,0.1975,0.3779,2054
4,0.3359,0.8608,-0.5767,0.2846,0.2248,0.3264,2034
4,0.427,0.989,-0.5479,0.2743,0.1987,0.3148,2023
4,0.5718,1.1099,-0.5212,0.3388,0.1446,0.3799,2123
4,0.3667,1.156,-0.6877,0.5625,0.0024,0.2882,2024
4,0.283,1.1299,-0.5901,0.454,-0.0111,0.1904,2131
4,0.1709,1.0095,-0.5928,0.347,0.1101,0.1386,2175
4,0.1067,0.998,-0.6104,0.1655,0.1285,0.02,2097
4,0.1418,0.9893,-0.5378,-0.0551,0.167,-0.131,2095
4,0.1245,0.97,-0.4641,-0.3292,0.2333,-0.2369,1950
4,0.1558,0.9482,-0.4341,-0.5809,0.1473,-0.375,1931
4,0.1848,0.9624,-0.394,-0.8207,0.192,-0.4686,2018
4,0.2214,0.9573,-0.4119,-1.099,0.1613,-0.5329,2099
4,0.196,1.0005,-0.4856,-1.2055,0.1603,-0.5959,2098
4,0.158,1.085,-0.5303,-1.3916,0.1398,-0.6925,2097
4,0.0974,1.1895,-0.5332,-1.59,0.2519,-0.7995,1952
4,0.0732,1.2083,-0.5161,-1.7775,0.1723,-0.9717,2073
4,0.082,1.1465,-0.502,-2.0375,0.2393,-1.0886,2020
4,0.1528,1.1653,-0.4924,-2.1814,0.2549,-1.1817,2086
4,0.1472,1.2317,-0.5696,-2.263,0.1838,-1.3097,2076
4,0.061,1.2422,-0.6462,-2.3478,0.0727,-1.4904,2014
4,0.0225,1.2849,-0.6831,-2.5163,-0.1755,-1.6424,2033
4,-0.1128,1.3208,-0.6624,-2.7809,-0.2847,-1.8,2025
4,-0.2686,1.3196,-0.7102,-3.1204,-0.3486,-1.9864,2049
4,-0.2178,1.3826,-0.7634,-3.2159,-0.3089,-2.1911,2005
4,-0.2249,1.4089,-0.6555,-3.2758,-0.2711,-2.3551,2065
4,-0.2524,1.3953,-0.5752,-3.2665,-0.2822,-2.5918,2045
4,-0.2361,1.3613,-0.5825,-3.1917,-0.2994,-2.7972,2057
4,-0.1763,1.3767,-0.6301,-3.1296,-0.5365,-3.0154,2061
4,-0.0876,1.4075,-0.6458,-3.1247,-0.6747,-3.1769,2045
4,-0.0945,1.2759,-0.7131,-3.0873,-0.8558,-3.2717,2000
4,-0.0364,1.1953,-0.8354,-2.9941,-1.0669,-3.3046,2022
4,0.0164,1.1995,-0.927,-2.7996,-1.0832,-3.25,2072
4,0.0227,1.1382,-1.0222,-2.4746,-1.1226,-3.1347,2047
4,0.199,1.1018,-0.9998,-2.1339,-1.2896,-2.9203,2025
4,0.303,0.9763,-1.0386,-1.6257,-1.0802,-2.2699,1956
4,0.4043,1.0508,-1.2778,-0.972,-1.2698,-1.9921,2045
4,0.8496,0.8801,-1.5117,-0.0398,-1.1949,-1.2623,2114
4,0.7996,0.467,-1.0896,-0.0799,-1.181,-0.5199,2113
4,0.52,-0.7861,1.2778,-1.4636,-0.3405,-0.1072,1972
4,0.127,-2.0,1.9999,-4.2065,0.6476,-0.206,2094
4,-0.4214,-1.6074,-0.2153,-1.9128,3.3045,0.976,2061
4,1.9999,1.9999,-2.0,4.3634,-4.3635,1.8952,2685
4,1.9999,1.9999,1.9999,-2.6024,0.4635,4.3634,1587
4,-2.0,-0.9915,1.3647,0.8103,4.3634,-0.4843,2006
4,-2.0,-1.5166,-1.0579,1.8724,-2.7903,-0.0863,1944
4,1.1257,-0.5664,-0.946,1.4059,1.4103,-0.3113,2146
4,1.4385,0.8564,-0.938,2.4069,0.64,2.8347,1994
4,-0.1553,0.9668,-0.4473,2.3961,0.1019,1.8763,1794
4,-1.4529,0.6423,-0.2546,2.6085,0.7451,1.3501,1837
4,-1.0374,0.5508,-0.4526,3.0071,2.0887,0.844,1915
4,0.0876,0.6121,-0.4358,2.8972,2.1502,1.0392,2096
4,0.4534,0.3892,-0.2004,2.6232,1.6612,1.3123,2050
5,0.4543,0.3486,0.1226,2.172,1.0601,1.6218,1432
5,0.2314,0.7588,-0.0735,1.9132,1.0942,2.0767,2255
5,-0.0149,1.0745,-0.2222,1.7154,0.8084,2.2577,2249
5,0.0703,0.8613,-0.3616,1.7309,0.7557,2.2348,2058
5,0.1228,0.5359,-0.4033,1.8073,0.4782,2.4874,2066
5,0.1707,0.5901,-0.3757,2.0584,0.2582,2.6317,2043
5,0.179,0.6665,-0.3103,2.0975,0.0497,2.6345,2064
5,0.0649,0.7793,-0.3372,2.2146,0.1716,2.5867,2096
5,0.0386,0.7942,-0.3286,2.1624,0.2289,2.3819,2051
5,0.1003,0.7651,-0.3882,2.0999,0.2826,2.1453,2068
5,0.1575,0.7791,-0.3799,2.0081,0.3326,1.8992,2058
5,0.2312,0.7493,-0.3613,1.8319,0.1772,1.6728,2064
5,0.3408,0.6638,-0.3127,1.702,0.0483,1.5206,2025
5,0.3975,0.6384,-0.3589,1.6151,-0.0099,1.4398,2073
5,0.385,0.6167,-0.3979,1.5563,-0.1237,1.3013,2130
5,0.3838,0.5691,-0.438,1.452,-0.2316,1.1266,2065
5,0.416,0.553,-0.5334,1.4109,-0.2009,0.9376,2038
5,0.439,0.5588,-0.522,1.3416,-0.189,0.7002,2041
5,0.5308,0.5081,-0.5767,1.1378,-0.2017,0.6313,2031
5,0.6189,0.5454,-0.6931,1.1567,-0.1633,0.561,2109
5,0.3748,0.5007,-0.6367,1.2263,0.245,0.4207,2051
5,0.1448,0.4404,-0.5886,1.2856,0.2189,0.1104,2063
5,0.3782,0.4346,-0.5271,1.2115,0.0952,-0.0788,2060
5,0.5896,0.6958,-0.7864,1.4977,0.6478,0.1702,2053
5,0.249,0.6455,-0.5928,1.2702,0.6494,0.1763,2095
5,0.2185,0.6973,-0.9346,1.2376,0.4678,-0.0535,2064
5,0.386,0.6289,-0.699,1.1753,0.6604,0.1739,2116
5,0.2139,0.6897,-0.9575,0.9718,0.9341,0.1911,2056
5,0.2021,0.8198,-1.0984,1.1717,0.1478,0.0495,2065
5,0.054,0.9023,-0.8855,1.0405,0.7638,0.0417,2062
5,-0.1157,0.5974,-0.8872,0.6641,0.4143,-0.1352,2075
5,0.3196,0.458,-0.708,0.4875,0.1499,-0.0555,2047
5,0.5603,0.4497,-0.6877,0.2033,0.2642,0.435,2063
5,0.4602,0.7239,-0.78,0.2695,0.0654,0.5528,2057
5,0.2268,1.0176,-0.7815,0.2751,-0.1525,0.3931,2055
5,0.2,0.9978,-0.7756,0.278,-0.1995,0.206,2144
5,0.1697,0.9229,-0.7834,0.3464,0.0158,0.0555,2051
5,0.1223,0.9099,-0.8,0.4145,0.0333,-0.0854,2072
5,0.0952,0.8945,-0.813,0.2988,0.1615,-0.1069,2075
5,0.1145,0.7969,-0.6174,-0.0091,0.3521,-0.1213,2201
5,0.1641,0.7468,-0.6934,0.0079,0.5377,-0.0629,2073
5,0.1616,0.8015,-0.6304,-0.1499,0.4071,-0.1691,2065
5,0.0999,0.8523,-0.6528,-0.3232,0.3227,-0.2012,2090
5,0.0466,0.97,-0.6555,-0.4484,0.2839,-0.3364,2016
5,0.0249,1.0466,-0.6841,-0.5376,0.1599,-0.448,2065
5,-0.0022,1.0886,-0.7117,-0.6371,0.2292,-0.492,2121
5,-0.0188,1.0615,-0.6497,-0.7922,0.2284,-0.5718,2014
5,0.0122,1.0691,-0.5962,-0.9744,0.3035,-0.6237,2103
5,0.1023,1.1228,-0.5842,-1.0951,0.2333,-0.6461,2046
5,0.2249,1.2119,-0.5935,-1.2768,-0.0166,-0.6807,2072
5,0.3262,1.2622,-0.5139,-1.4691,-0.051,-0.8257,2024
5,0.3545,1.2922,-0.5298,-1.637,-0.2107,-1.0082,2070
5,0.3567,1.3621,-0.5588,-1.7992,-0.2812,-1.1881,2106
5,0.2878,1.449,-0.6035,-1.9214,-0.1408,-1.4143,2044
5,0.2539,1.5134,-0.6738,-2.0567,0.0667,-1.6562,1968
5,0.1926,1.5166,-0.7327,-2.2838,0.2705,-1.9299,2089
5,0.1008,1.5061,-0.8091,-2.5314,0.4119,-2.222,1982
5,0.0603,1.512,-0.9214,-2.7679,0.3774,-2.5189,2047
5,0.0325,1.4907,-0.936,-3.0307,0.3653,-2.8498,2179
5,0.0081,1.4304,-0.937,-3.2557,0.3417,-3.2336,2099
5,0.0225,1.3862,-0.9695,-3.2935,0.3041,-3.5496,2029
5,0.1194,1.2837,-0.9175,-3.2991,0.3392,-3.7114,1954
5,0.1682,1.1162,-0.8286,-3.3174,0.3581,-3.8119,2093
5,0.2563,0.9954,-0.7754,-3.2452,0.2048,-3.8984,2012
5,0.3679,0.8884,-0.7568,-3.0985,0.0056,-3.811,2055
5,0.438,0.792,-0.8467,-2.9004,-0.2643,-3.6736,2072
5,0.355,0.676,-0.8962,-2.6289,-0.5022,-3.5129,2058
5,0.3303,0.5378,-1.0129,-2.3997,-0.8166,-3.2943,2102
5,0.3801,0.3499,-1.0828,-2.2216,-0.9596,-2.9953,1988
5,0.3992,0.208,-1.0964,-2.0306,-1.0163,-2.6839,2109
5,0.4526,0.1123,-1.1941,-1.715,-0.9806,-2.2202,2058
5,0.3767,-0.0178,-1.2954,-1.2208,-1.031,-1.7438,2012
5,0.446,-0.1191,-1.3984,-0.5316,-1.146,-1.166,1977
5,0.8044,-0.2339,-1.7014,-0.3793,-1.1505,-0.2806,1952
5,-1.8699,-1.1877,0.4316,-1.6779,2.0011,0.4699,2098
5,-0.2307,1.9999,-2.0,4.2382,-4.3635,-3.2283,2043
5,1.9999,1.9999,1.9999,0.7572,-2.7729,4.3634,2239
5,0.5095,1.9999,1.9999,-1.2609,2.9373,0.085,2018
5,-0.5239,-0.3025,0.4949,-1.484,-0.5055,1.1407,1857
5,-0.8164,-1.856,-1.2078,0.0999,-1.8869,0.9064,1977
5,0.9875,-0.8005,-1.5032,0.7926,-2.3422,0.469,2162
5,0.9119,0.6777,-0.7097,0.7606,-2.1542,3.2969,2143
5,-0.9629,0.9563,-0.678,1.796,-0.2677,1.7251,2073
5,-1.3591,0.8984,-0.812,2.2304,0.7068,1.4464,2035
5,-0.1724,0.7793,-0.5991,2.5067,1.7125,1.5703,2039
5,0.4456,0.4509,-0.4446,2.7205,1.7418,1.7905,2088
5,0.4924,0.2808,-0.1743,2.4,1.2529,2.0686,2030
5,0.1213,0.5403,-0.3669,2.4807,1.3185,2.1846,1982
5,0.0781,1.0066,-0.5295,2.4627,0.9067,2.457,2097
5,-0.1531,0.9712,-0.4922,2.4939,0.9855,2.4979,1993
5,-0.2622,0.8374,-0.5635,2.5338,0.8512,2.4509,2021
5,-0.1428,0.759,-0.3254,2.4131,0.8086,2.5048,2068
5,-0.0701,0.7375,-0.2668,2.2963,0.687,2.587,2041
5,-0.1113,0.7781,-0.3372,2.1296,0.7236,2.5215,2055
5,-0.1667,0.8013,-0.406,1.9957,0.6022,2.4048,2048
5,-0.1389,0.7163,-0.4683,1.8173,0.5533,2.298,2066
5,-0.0542,0.6897,-0.541,1.7139,0.4988,2.2005,2061
5,0.0405,0.7058,-0.5581,1.5775,0.3003,2.1093,2072
5,0.1479,0.6731,-0.5649,1.4157,-0.0084,2.021,2065
5,0.1609,0.6089,-0.5205,1.2736,-0.2671,1.9363,2047
5,0.1731,0.551,-0.5337,1.1557,-0.4518,1.7751,2051
5,0.1619,0.6108,-0.468,1.0656,-0.4805,1.6535,2129
6,0.1931,0.6787,-0.5115,0.901,-0.5189,1.5785,2052
6,0.2271,0.6008,-0.5986,0.8576,-0.3851,1.5002,2062
6,0.2568,0.4785,-0.626,0.8706,-0.1424,1.4299,2049
6,0.3657,0.4636,-0.6653,0.8372,-0.0996,1.3732,2099
6,0.5117,0.4885,-0.7471,0.8472,-0.0991,1.428,2114
6,0.4155,0.5078,-0.7224,0.9118,0.0302,1.4195,2058
6,0.3242,0.5349,-0.7107,0.8969,-0.0168,1.2427,2043
6,0.4568,0.5767,-0.7327,0.9315,-0.0921,1.0341,2043
6,0.5161,0.6311,-0.7429,0.9592,0.0625,0.9138,2044
6,0.4546,0.6821,-0.7847,0.9581,0.1043,0.753,2057
6,0.4617,0.7139,-0.7817,0.9733,0.1136,0.5689,2030
6,0.4775,0.6558,-0.7185,0.9584,0.2396,0.4528,2095
6,0.49,0.6553,-0.6484,0.9289,0.4055,0.4927,2049
6,0.5693,0.7844,-0.8091,1.0023,0.4292,0.596,2070
6,0.3025,0.7629,-0.7112,0.8259,0.3269,0.433,2089
6,0.343,0.772,-0.7295,0.7492,0.2786,0.2201,2066
6,0.3796,0.7512,-0.6797,0.585,0.2434,0.1197,2069
6,0.3403,0.7847,-0.6633,0.449,0.1591,0.0611,2157
6,0.334,0.8582,-0.6931,0.3992,0.196,0.0526,2052
6,0.282,0.8574,-0.6667,0.2852,0.2655,0.0526,2022
6,0.2937,0.8855,-0.6843,0.1866,0.2911,0.0254,2068
6,0.3232,0.8877,-0.5779,-0.0099,0.2741,0.0213,2032
6,0.2708,0.844,-0.5317,-0.2011,0.1942,-0.0217,2036
6,0.2419,0.8787,-0.4771,-0.3605,0.1595,-0.1386,2039
6,0.2463,0.8918,-0.4587,-0.5259,0.147,-0.267,2055
6,0.2505,0.884,-0.4421,-0.7361,0.1033,-0.38,2008
6,0.2192,0.906,-0.4619,-0.95,0.1732,-0.5513,2000
6,0.2109,1.0002,-0.5203,-1.074,0.2497,-0.734,1998
6,0.2297,1.1892,-0.627,-1.0808,0.403,-0.8811,2036
6,0.2405,1.28,-0.5938,-1.1298,0.6138,-1.0657,2245
6,0.2915,1.2312,-0.5623,-1.1648,0.7131,-1.1339,1908
6,0.3801,1.2183,-0.5059,-1.2651,0.6915,-1.2218,2144
6,0.4829,1.2493,-0.4758,-1.3511,0.5851,-1.3158,1926
6,0.4946,1.2905,-0.4968,-1.4459,0.3843,-1.476,2237
6,0.425,1.323,-0.5571,-1.602,0.2277,-1.6881,1961
6,0.3284,1.2827,-0.6213,-1.8289,0.1981,-1.9522,2073
6,0.3259,1.2791,-0.7048,-1.9562,0.2248,-2.1286,2071
6,0.2935,1.3147,-0.7908,-2.1357,0.3793,-2.2309,1995
6,0.2422,1.3242,-0.8323,-2.3196,0.551,-2.4424,2028
6,0.1682,1.4497,-0.7832,-2.3518,0.656,-2.6832,2044
6,0.1575,1.3562,-0.7397,-2.4931,0.7312,-2.851,2239
6,0.1499,1.2627,-0.6497,-2.6288,0.8249,-3.1654,2092
6,0.2151,1.3032,-0.6448,-2.5947,0.8564,-3.4043,2099
6,0.22,1.302,-0.7649,-2.5109,0.6654,-3.6455,2126
6,0.2566,1.2024,-0.7815,-2.4538,0.5753,-3.9175,2043
6,0.1467,1.1101,-0.8015,-2.4175,0.6879,-4.1176,2032
6,0.1709,1.1157,-0.8921,-2.1595,0.677,-4.219,2121
6,0.2268,0.8811,-0.8611,-2.1148,0.5814,-4.1301,2110
6,0.218,0.728,-0.8176,-2.0778,0.4549,-4.1072,2069
6,0.2063,0.6394,-0.8979,-1.9148,0.2254,-3.9839,2150
6,0.2954,0.4829,-0.927,-1.7439,-0.0253,-3.7764,2149
6,0.397,0.3464,-0.958,-1.6227,-0.1872,-3.4616,1963
6,0.4126,0.2693,-1.0881,-1.3316,-0.4739,-3.1075,2178
6,0.4614,0.1543,-1.1843,-1.0814,-0.8412,-2.6244,2061
6,0.7329,0.155,-1.2891,-0.6103,-1.0461,-1.7411,2052
6,0.855,0.1741,-1.1294,-0.3607,-1.2997,-0.5918,2282
6,0.9546,-0.3674,-1.3137,-0.1349,-1.1588,0.4484,1925
6,-2.0,-1.9021,1.7803,-2.3967,2.2904,1.0247,2119
6,0.5574,1.9999,-2.0,4.3634,-3.7471,-0.7981,2122
6,1.9999,1.9999,1.7744,-0.7941,-1.1543,4.3634,2357
6,0.0371,1.9999,1.6804,1.9036,4.3634,1.2268,1633
6,-2.0,-0.5122,0.418,1.7321,1.1796,-0.0662,1917
6,0.0088,-1.0779,-0.1863,1.3078,-0.2587,-1.2722,2128
6,1.9999,-0.6602,-0.231,0.3581,0.5292,1.6089,2170
6,1.3213,-0.4075,-0.5164,0.9688,-0.3738,3.2684,2151
6,-0.0332,0.3811,-1.02,1.4091,-1.9949,2.5153,2572
6,0.1191,0.7239,-0.918,1.3766,-1.9327,2.0101,1719
6,-0.2812,0.3118,-0.4614,1.483,-0.7854,2.3527,1916
6,-0.5452,0.3735,-0.7395,2.1393,0.0739,1.8606,2039
6,0.0068,0.6216,-0.3921,1.7182,-0.1178,2.1674,2125
6,-0.0115,0.6335,-0.1855,1.5697,0.2005,2.4433,2015
6,-0.3904,0.9136,-0.5764,1.5354,-0.1338,2.0531,2040
6,-0.3027,0.9087,-0.3899,1.3981,-0.5735,1.8658,2145
6,-0.3228,0.728,-0.5393,1.3885,-0.8187,1.5845,1966
6,-0.3367,0.9233,-0.2988,1.4439,-0.6889,1.4103,1949
6,-0.6404,0.6624,-0.4299,1.7697,0.2324,1.6102,2055
6,-0.4778,0.7754,-0.4709,1.6539,0.2549,1.3808,2035
6,-0.1125,0.688,-0.5662,1.6775,0.4189,1.3035,2066
6,0.0925,0.7134,-0.6792,1.637,0.4424,1.2107,2067
6,0.1643,0.7383,-0.7498,1.6135,0.2894,1.0777,2132
6,0.1133,0.7778,-0.7966,1.5499,-0.0174,0.9772,2062
6,0.1079,0.7732,-0.7942,1.507,-0.278,0.8785,2102
6,0.239,0.7354,-0.72,1.4515,-0.3156,0.9128,1999
6,0.3274,0.7129,-0.7239,1.4213,-0.3149,1.0319,2063
6,0.3789,0.6848,-0.6946,1.2944,-0.3876,1.1862,2037
6,0.4583,0.6387,-0.6973,1.2339,-0.3104,1.3328,2073
6,0.4526,0.6528,-0.7449,1.218,-0.1867,1.5384,2060
6,0.4167,0.7051,-0.8213,1.1308,-0.0543,1.6285,2059
6,0.3982,0.6934,-0.8489,1.0511,0.1117,1.7298,2041
6,0.4241,0.7595,-0.8989,1.0637,0.3247,1.78,2066
6,0.4983,0.6995,-0.8301,1.0528,0.3212,1.7191,2043
6,0.4668,0.7046,-0.8943,1.0898,0.2095,1.5456,2070
6,0.3103,0.6387,-0.7419,0.9313,0.0787,1.3069,2118
6,0.3472,0.4761,-0.8162,0.9379,0.073,1.0834,2051
6,0.2781,0.3687,-0.7007,0.8931,0.1677,0.9337,2039
6,0.2271,0.3538,-0.6304,0.6801,0.2495,0.7716,2120
6,0.3772,0.3923,-0.604,0.4758,0.4252,0.8375,2091
6,0.4431,0.5054,-0.7314,0.4943,0.4934,0.9588,2091
6,0.3259,0.6897,-0.8101,0.4895,0.5466,0.7941,2071
6,0.3413,0.7563,-0.8323,0.4938,0.4151,0.5653,2144
6,0.3635,0.7515,-0.8093,0.4975,0.5653,0.4698,2023
6,0.2646,0.7385,-0.6077,0.4919,0.7649,0.3674,2056
6,0.1499,0.6816,-0.5764,0.3488,0.8212,0.3008,2055
7,0.2539,0.604,-0.5227,0.1479,0.7142,0.3179,2034
7,0.4197,0.5845,-0.4338,-0.1234,0.7292,0.4583,2040
7,0.5007,0.7219,-0.4792,-0.2778,0.626,0.4039,2058
7,0.4758,0.9534,-0.6865,-0.2682,0.1252,0.2152,2114
7,0.3503,1.0737,-0.8276,-0.1457,-0.0898,0.0647,2056
7,0.2456,1.1785,-0.8977,-0.0635,-0.285,-0.0009,2064
7,0.1597,1.1086,-0.7864,-0.1989,-0.2216,0.0807,2095
7,0.0481,0.9451,-0.5457,-0.4586,0.1666,0.2069,2035
7,0.0049,0.9783,-0.3979,-0.4855,0.0706,0.1935,2055
7,0.1978,0.8833,-0.5125,-0.7427,0.2048,0.2049,2057
7,0.2126,0.915,-0.5698,-0.7714,-0.1079,0.0158,2089
7,0.2302,0.9973,-0.5454,-0.928,-0.4081,-0.2312,2135
7,0.083,1.1147,-0.4548,-0.8738,-0.3309,-0.5084,2124
7,-0.0613,1.2498,-0.4226,-0.9618,-0.4409,-0.8184,2019
7,-0.0112,1.127,-0.5227,-1.0637,0.0955,-1.0384,2108
7,0.0574,0.9373,-0.5688,-1.228,0.031,-1.0971,2102
7,0.2104,1.0413,-0.4731,-1.4597,-0.0959,-1.0778,2050
7,0.2646,1.1833,-0.4932,-1.5599,-0.1938,-1.0583,2196
7,0.2456,1.3245,-0.4119,-1.7371,-0.3707,-1.2045,1975
7,0.1904,1.4448,-0.4016,-1.8892,-0.4518,-1.4299,2147
7,0.1587,1.4844,-0.4922,-2.0768,-0.5412,-1.6832,2061
7,0.1372,1.5798,-0.752,-2.0197,-0.447,-1.8725,2029
7,0.2097,1.5889,-0.8318,-2.1019,-0.3139,-1.9933,2104
7,0.1594,1.467,-0.6765,-2.3599,0.0538,-2.2421,2046
7,-0.0627,1.5376,-0.6609,-2.5041,0.1678,-2.3257,2064
7,0.0432,1.6748,-0.7043,-2.5627,0.07,-2.5808,2058
7,0.1187,1.697,-0.5967,-2.7818,0.2187,-2.8709,2071
7,0.1189,1.4976,-0.5227,-3.0383,0.1499,-3.2283,2149
7,0.2634,1.4258,-0.6497,-3.1301,0.1519,-3.3915,2095
7,0.4155,1.4646,-0.7888,-3.0091,-0.0804,-3.3861,2061
7,0.2205,1.2903,-0.5999,-3.2774,-0.0092,-3.5547,2061
7,0.009,1.0295,-0.6614,-3.4585,-0.0651,-3.6463,1987
7,0.1589,0.9458,-0.709,-3.5762,-0.2147,-3.6946,2042
7,0.209,0.7917,-0.6826,-3.8094,-0.1328,-3.7503,2109
7,0.2485,0.636,-0.7532,-3.7833,-0.4524,-3.8068,2051
7,0.2629,0.6182,-0.9141,-3.5364,-0.6291,-3.6267,2057
7,0.251,0.6772,-1.1892,-3.2066,-0.7336,-3.2933,2130
7,0.3098,0.6062,-1.2827,-2.802,-0.6877,-2.9088,2014
7,0.3828,0.6858,-1.7742,-1.9622,-0.7813,-2.5145,1943
7,1.3628,1.0066,-1.9797,-1.0279,-1.3232,-1.4451,2014
7,1.2053,0.3948,-1.8921,-0.3765,-1.1776,-0.4967,1938
7,0.8572,-0.3098,-1.8726,0.2816,-2.1551,-0.0246,2026
7,-0.551,-2.0,0.6714,-0.8509,0.1598,1.0038,2027
7,-1.769,-2.0,-1.1655,1.7579,-1.22,-1.3676,2203
7,1.9999,1.9999,-1.2661,4.2433,-3.855,1.6037,2231
7,-2.0,1.9999,1.9999,-0.6355,4.3634,3.908,2340
7,-0.3855,-0.6848,-0.4458,-0.1197,-0.2396,-2.7148,1567
7,-0.0283,-2.0,-0.4924,1.3243,-0.8624,1.1979,1791
7,1.2939,-1.4741,-1.0093,1.7419,-0.4458,0.8316,2274
7,0.0786,0.1973,-0.7026,1.3118,-1.6681,3.0317,2249
7,-0.9893,1.2007,-0.5747,2.0791,-0.1923,1.1066,2260
7,-0.3145,1.261,-0.4644,2.4424,1.3054,1.2499,2097
7,0.0381,0.6323,-0.4373,2.1017,1.4633,1.6636,1991
7,0.1936,0.3098,-0.1987,1.9046,1.7365,1.8126,1984
7,0.2366,0.3982,-0.2991,2.074,1.3954,1.9773,1909
7,0.3359,0.7412,-0.3982,2.0092,0.9043,2.1128,1956
7,0.1533,0.9028,-0.4927,2.1204,0.8833,2.2802,2119
7,-0.0027,0.9424,-0.5562,2.269,0.6597,2.2964,2041
7,0.083,0.8374,-0.4468,2.222,0.5918,2.393,1944
7,0.0818,0.8359,-0.5,2.5164,0.6609,2.3843,1947
7,0.156,0.8774,-0.6299,2.6291,0.6834,2.3314,2106
7,0.0002,0.7886,-0.5972,2.6864,0.7548,2.2238,2023
7,0.0093,0.7268,-0.5002,2.6015,0.6938,2.1148,2036
7,0.1179,0.7856,-0.4749,2.6667,0.8349,2.1141,2040
7,0.0334,0.8328,-0.3428,2.3647,0.8335,2.0164,2020
7,0.0708,0.8232,-0.4194,2.1758,0.9074,1.9807,2032
7,-0.0005,0.7385,-0.4973,2.0351,1.0168,1.8109,2057
7,0.0991,0.6819,-0.5923,1.918,0.8568,1.6478,2051
7,0.1814,0.6294,-0.6497,1.7958,0.7138,1.5713,2050
7,0.1587,0.6101,-0.6821,1.6804,0.6624,1.4499,2047
7,0.1409,0.6091,-0.7288,1.5681,0.6199,1.3139,2059
7,0.1826,0.5398,-0.7712,1.447,0.7054,1.1423,2062
7,0.0808,0.5266,-0.7605,1.3066,0.595,1.1204,2103
7,0.2881,0.5444,-0.8843,1.2676,0.5841,1.0713,2055
7,0.3303,0.5039,-0.9253,1.2262,0.6006,1.0383,2061
7,0.2856,0.532,-0.9036,1.2256,0.5533,1.0057,2074
7,0.29,0.512,-0.8059,1.0701,0.3625,0.9768,2039
7,0.3945,0.5315,-0.9995,1.1095,0.433,1.0782,2052
7,0.2607,0.551,-0.9209,1.0637,0.5806,0.9737,2060
7,0.2458,0.5195,-0.865,0.9672,0.44,0.9011,2061
7,0.2817,0.4446,-0.7771,0.8688,0.3216,0.8649,2090
7,0.3821,0.4458,-0.7659,0.7564,0.2745,0.8782,2097
7,0.2866,0.5166,-0.8252,0.7609,0.2232,0.8652,2065
7,0.1536,0.5828,-0.7717,0.6933,0.1176,0.6568,2012
7,0.2932,0.6445,-0.73,0.6239,-0.1159,0.5801,2049
7,0.3362,0.6606,-0.9214,0.6719,-0.1955,0.7445,2036
7,0.0435,0.5515,-0.7014,0.5577,-0.1061,0.648,2028
7,0.0271,0.5078,-0.7188,0.5343,0.0205,0.5992,2089
7,0.1702,0.4878,-0.7026,0.4569,0.0854,0.6482,2112
7,0.1731,0.509,-0.7007,0.2951,0.2418,0.7244,2030
7,0.1194,0.5857,-0.7205,0.1012,-0.0047,0.6786,2049
7,0.0925,0.6375,-0.7129,-0.1352,-0.3061,0.5713,2098
7,0.0032,0.708,-0.665,-0.2494,-0.2768,0.5309,2077
7,0.0183,0.8677,-0.7732,-0.3453,-0.3682,0.4902,2065
7,-0.0203,0.7905,-0.6353,-0.6926,-0.383,0.5445,2074
7,-0.0449,0.7932,-0.7229,-0.7304,-0.2902,0.5066,2054
7,0.0476,0.8599,-0.687,-0.9068,-0.2686,0.5232,2091
7,0.1387,0.9348,-0.709,-1.0303,-0.2771,0.4631,2043
7,0.1633,1.0159,-0.6829,-1.0911,-0.3159,0.2772,2048
7,0.1487,1.011,-0.6025,-1.1909,-0.4378,0.036,1996
7,0.1685,1.0549,-0.5981,-1.2837,-0.3677,-0.0992,2101
7,0.1843,1.1599,-0.6309,-1.2963,-0.2741,-0.2161,2049
7,0.1829,1.2588,-0.6611,-1.3231,-0.3023,-0.3228,2107
8,0.2434,1.3157,-0.6125,-1.4126,-0.218,-0.4161,2012
8,0.2542,1.2695,-0.5791,-1.6211,-0.2482,-0.5135,2071
8,0.2793,1.2393,-0.5718,-1.8017,-0.3587,-0.6472,2050
8,0.3152,1.2188,-0.5527,-1.9967,-0.4625,-0.787,2064
8,0.3069,1.2319,-0.6038,-2.1916,-0.4866,-0.9493,2055
8,0.3076,1.2795,-0.6738,-2.4292,-0.4157,-1.1248,2022
8,0.2461,1.3308,-0.717,-2.7006,-0.3653,-1.3243,2018
8,0.1721,1.3838,-0.7825,-3.0018,-0.2962,-1.5783,2047
8,0.1604,1.4871,-0.8264,-3.2725,-0.2687,-1.8325,2052
8,0.1418,1.5894,-0.8098,-3.5207,-0.2068,-2.1128,2035
8,0.1912,1.6731,-0.7788,-3.6695,-0.0537,-2.4541,2103
8,0.2417,1.657,-0.7622,-3.8114,0.1209,-2.7155,1964
8,0.2634,1.6477,-0.7764,-3.876,0.2175,-2.9986,2059
8,0.2764,1.7053,-0.8125,-3.9119,0.1206,-3.2978,2074
8,0.3511,1.7148,-0.9465,-4.0046,0.0084,-3.5443,2072
8,0.2156,1.4722,-1.0337,-3.8543,0.2373,-3.7273,2214
8,0.429,1.3306,-1.0408,-3.7954,-0.0507,-3.8317,2053
8,0.5391,1.2502,-0.9727,-3.6013,0.2168,-3.7824,2122
8,0.498,1.1082,-1.1951,-3.3624,0.0232,-3.7283,2109
8,0.6929,0.8594,-1.2341,-3.0962,-0.0229,-3.6238,2045
8,0.6589,0.6646,-1.3381,-2.6454,0.0617,-3.4336,2189
8,0.6013,0.5156,-1.3931,-2.1903,0.2836,-3.1439,2006
8,0.6567,0.4531,-1.4026,-1.3774,0.5094,-2.7233,1931
8,0.8533,0.269,-1.3831,-0.5791,0.5582,-2.2101,2349
8,0.7561,-0.178,-1.1431,0.0393,0.3554,-1.6828,1948
8,0.4312,-0.8909,0.8169,-0.5131,-0.1084,-1.3758,2219
8,1.7703,-1.3757,1.2625,-1.8474,-0.3789,-0.7933,1993
8,-2.0,-1.792,1.9999,-3.868,4.3634,1.858,1919
8,1.9999,1.9999,-2.0,4.3634,-4.3635,-4.3635,1838
8,1.9999,1.9999,1.9999,-2.8181,-1.6688,4.3634,2446
8,-1.8445,1.9999,0.9109,0.7594,3.9843,-2.9331,1824
8,-2.0,-0.8291,-0.7349,-1.019,-1.5069,-0.1856,1904
8,0.0935,-1.9585,-1.2507,0.5324,0.9785,-0.8428,2008
8,1.8152,-0.7607,-0.5334,1.5114,0.6297,2.4068,2187
8,0.2544,-0.022,-0.6897,1.7181,-0.3808,2.3333,2123
8,-1.1917,0.7275,-0.5454,1.5547,-0.762,1.8355,2141
8,-0.7209,1.0173,-0.283,2.3687,0.9649,0.9966,2052
8,-0.155,0.6042,-0.1545,2.3443,1.511,0.8678,1972
8,-0.0161,-0.053,0.0264,2.0859,1.3932,1.2091,1874
8,0.0132,-0.0659,0.0342,1.957,1.6731,1.446,2124
8,0.0835,0.2048,-0.1428,1.7371,1.7283,1.9201,1883
8,-0.0496,0.6008,-0.4351,1.7114,1.5396,2.0885,2288
8,-0.0115,0.7708,-0.5442,1.8889,1.3387,2.0927,2200
8,-0.0486,0.7651,-0.457,2.0602,0.9331,2.2467,2060
8,-0.0703,0.6116,-0.4241,2.3027,0.7645,2.2075,2004
8,-0.1084,0.5281,-0.3469,2.3782,0.7584,2.2451,2007
8,-0.1384,0.5586,-0.3799,2.4148,0.7473,2.2069,2109
8,-0.1238,0.717,-0.4075,2.474,0.8112,2.157,1974
8,-0.0786,0.7754,-0.4871,2.4008,0.7894,1.9213,1963
8,0.011,0.8167,-0.6016,2.2887,0.7746,1.933,1918
8,0.1013,0.8071,-0.6919,2.2063,0.7569,1.9859,1977
8,0.1577,0.8386,-0.7952,2.002,0.2282,2.0224,1984
8,0.1643,0.8728,-0.7061,1.8575,-0.1823,1.9771,1992
8,0.2717,0.8347,-0.6016,1.607,-0.3141,2.0437,1954
8,0.2158,0.7637,-0.7522,1.5526,-0.2844,2.2193,2027
8,0.0317,0.6726,-0.6636,1.389,-0.4171,2.1048,2099
8,0.2183,0.6189,-0.7043,1.2519,-0.4786,1.9636,2198
8,0.229,0.5361,-0.6724,1.0836,-0.4542,1.8801,2090
8,0.2156,0.4946,-0.667,1.0143,-0.3867,1.7185,2016
8,0.4153,0.4417,-0.7048,0.9605,-0.3417,1.5713,2032
8,0.3879,0.449,-0.7024,0.9515,-0.2205,1.5344,2100
8,0.2942,0.2617,-0.7224,0.7493,-0.0892,1.2352,2137
8,0.208,0.3533,-0.7458,0.6441,-0.2421,1.0962,2047
8,0.4243,0.3735,-0.8049,0.6078,-0.1842,0.9544,2068
8,0.4446,0.4951,-0.9202,0.5891,-0.3662,0.8461,2005
8,0.4895,0.6274,-0.866,0.6558,-0.5356,0.5955,1972
8,0.5984,0.6541,-0.7017,0.6397,-0.5711,0.5193,2040
8,0.7678,0.6011,-0.9263,0.72,-0.6936,0.8589,2048
8,0.262,0.688,-0.9197,0.8915,-0.5807,0.9015,1933
8,0.3193,0.8203,-0.9163,0.8722,-0.4737,0.7749,2096
8,0.4646,0.8887,-0.8547,0.8467,-0.1803,0.9483,2044
8,0.3442,0.9231,-0.8521,0.8312,-0.1533,0.8319,2018
8,0.3723,0.9409,-0.7705,0.7048,-0.3008,0.5865,2030
8,0.4026,0.9133,-0.7307,0.5325,-0.3932,0.4976,2049
8,0.3098,0.8718,-0.6846,0.4504,-0.4927,0.3958,2049
8,0.2529,0.8328,-0.6218,0.3243,-0.4896,0.3436,2053
8,0.2488,0.8416,-0.561,0.2004,-0.3785,0.2876,2217
8,0.2366,0.8379,-0.4951,0.0401,-0.1997,0.2412,2021
8,0.2573,0.8835,-0.4844,-0.1021,-0.1807,0.1545,2104
8,0.259,0.9639,-0.4951,-0.2573,-0.2273,0.053,2061
8,0.2429,1.0388,-0.5232,-0.4063,-0.2219,-0.0671,2183
8,0.2852,1.0784,-0.5671,-0.5833,-0.2514,-0.2112,2032
8,0.2722,1.0303,-0.5547,-0.6951,-0.191,-0.3681,1989
8,0.2444,1.0115,-0.606,-0.7947,-0.0987,-0.5385,1991
8,0.3223,1.0527,-0.6135,-0.8821,-0.0236,-0.6866,1932
8,0.3237,1.0649,-0.6196,-0.9898,0.0474,-0.8007,2037
8,0.3362,1.0879,-0.5723,-1.0989,0.0377,-0.9151,2028
8,0.3672,1.1545,-0.5754,-1.1865,-0.0059,-1.0094,2180
8,0.3489,1.2227,-0.5842,-1.2635,-0.0695,-1.0529,1968
8,0.3235,1.248,-0.6045,-1.3414,-0.098,-1.1061,2112
8,0.3232,1.2485,-0.6548,-1.4351,-0.0704,-1.1367,2032
8,0.2883,1.2249,-0.6782,-1.5777,0.0117,-1.2238,2011
8,0.3115,1.2112,-0.7268,-1.6608,0.0643,-1.3479,2019
8,0.3472,1.198,-0.7114,-1.7877,0.0835,-1.5004,2034
8,0.3669,1.2036,-0.6973,-1.9008,0.1575,-1.712,2023
8,0.4187,1.2524,-0.6702,-2.0237,0.2581,-1.9058,2097
8,0.4424,1.2622,-0.687,-2.0933,0.4151,-2.082,2156
8,0.4089,1.2375,-0.7151,-2.1759,0.437,-2.2732,2253
8,0.3491,1.2261,-0.7637,-2.2451,0.3898,-2.461,2069
8,0.2727,1.2051,-0.6902,-2.422,0.3915,-2.6891,2015
8,0.2122,1.2095,-0.6555,-2.5512,0.5042,-2.9325,2090
8,0.1345,1.2129,-0.615,-2.6593,0.6224,-3.1524,2294
9,0.0447,1.1306,-0.6216,-2.7538,0.5774,-3.3722,1975
9,0.1309,1.0911,-0.6919,-2.9247,0.3754,-3.4753,2040
9,0.1091,1.0889,-0.6777,-3.0714,0.1457,-3.535,2476
9,0.0479,1.0593,-0.74,-3.2107,-0.0594,-3.6399,1787
9,0.0769,0.9304,-0.6238,-3.4005,-0.2511,-3.7351,1840
9,0.0481,0.8582,-0.7734,-3.3174,-0.2104,-3.5371,2074
9,-0.0994,0.8301,-0.8389,-3.062,-0.1728,-3.3758,2036
9,0.1104,0.8777,-0.9524,-2.9289,-0.291,-3.1319,2016
9,0.2112,0.8567,-1.0713,-2.6036,-0.1301,-2.9532,2135
9,0.168,0.6433,-1.2324,-2.1727,-0.4689,-2.814,2099
9,0.3604,0.5151,-1.2549,-1.8608,-0.824,-2.5165,2002
9,0.3291,0.4038,-1.3906,-1.4179,-1.0931,-2.2216,2035
9,0.2744,0.1501,-1.1543,-0.7461,-1.0909,-1.5651,2113
9,0.135,-0.0068,-1.4629,-0.0016,-0.7524,-0.9686,2073
9,-0.0657,-0.7576,-1.571,-0.4607,-0.2047,-0.3322,2292
9,-2.0,-2.0,1.6304,-1.5701,2.3683,-0.7401,1768
9,1.9999,1.9999,-2.0,4.3634,-4.3635,-4.3635,2631
9,1.9999,1.9999,1.9999,-1.0351,0.3181,4.3634,2549
9,-1.6799,1.9917,1.9999,-1.7017,2.1577,-4.3635,1779
9,-0.7263,-2.0,-1.1943,-0.5731,-2.6438,0.239,2153
9,1.345,-2.0,-1.0491,0.7452,-1.9528,0.0398,1982
9,1.9771,-0.5107,-1.0146,0.5349,-2.7775,3.7828,2456
9,-0.5889,1.1711,-0.8071,1.3235,-1.9883,3.4822,2396
9,-1.1709,1.6682,-0.8171,1.8001,-0.5031,1.4464,1813
9,-0.4021,0.7937,-0.561,2.0026,0.9515,1.8598,1917
9,0.0078,0.2617,-0.3086,1.8098,1.5977,1.8775,2241
9,0.261,0.011,-0.2192,1.9935,1.4416,1.8655,2144
9,0.2163,0.1409,-0.2727,1.9358,1.2271,1.8943,2169
9,0.074,0.5679,-0.3325,1.9385,1.0485,2.0698,2114
9,0.0344,0.8772,-0.4463,2.0594,0.9808,2.2228,2053
9,-0.1675,0.8384,-0.4814,2.0927,1.0995,2.2471,1995
9,-0.1516,0.7166,-0.4553,2.2566,1.2186,2.2373,2072
9,0.0317,0.6575,-0.5146,2.3655,1.2191,2.3233,2115
9,0.1433,0.6555,-0.6497,2.4867,1.1999,2.3285,2089
9,0.1006,0.8503,-0.5574,2.5241,1.0568,2.3914,2064
9,0.021,0.8716,-0.5574,2.3497,0.8082,2.3252,2090
9,-0.1042,0.8054,-0.4272,2.2365,0.7818,2.177,2061
9,-0.0571,0.8113,-0.4373,2.0764,0.6012,2.0161,2016
9,-0.1113,0.7151,-0.4175,1.886,0.481,1.8935,2017
9,-0.1741,0.6426,-0.4187,1.7498,0.3923,1.6756,2001
9,-0.0884,0.6296,-0.4758,1.6174,0.3084,1.4885,2133
9,-0.0198,0.634,-0.5332,1.4721,0.2069,1.3942,2107
9,-0.0061,0.5793,-0.5613,1.3595,0.07,1.2829,2072
9,0.0378,0.5503,-0.6257,1.3065,0.0663,1.2315,2049
9,0.0005,0.5435,-0.5833,1.2107,0.1296,1.1308,2054
9,0.0557,0.5239,-0.6196,1.1611,0.1436,1.0182,2042
9,0.1541,0.4827,-0.6169,1.0995,0.0916,0.9704,2097
9,0.2275,0.4402,-0.676,1.0685,0.1697,1.0476,2059
9,0.2412,0.4753,-0.7141,1.0618,0.271,1.0605,2139
9,0.2825,0.4968,-0.824,1.0746,0.223,1.0899,2057
9,0.2952,0.5073,-0.9055,1.0802,0.2286,1.1111,2103
9,0.4045,0.6418,-0.843,0.9459,0.1051,1.0162,2065
9,0.6169,0.6899,-0.9795,0.7256,-0.1795,1.0267,1986
9,0.426,0.6694,-0.8862,0.7574,-0.3473,0.9183,2052
9,0.292,0.6187,-0.7666,0.7802,-0.2955,0.6999,2009
9,0.3184,0.5479,-0.7527,0.6763,-0.2883,0.6512,2033
9,0.4656,0.4883,-0.752,0.5834,-0.1397,0.8051,2042
9,0.4968,0.5425,-0.7529,0.4717,0.0382,1.0194,2075
9,0.4641,0.7104,-0.7556,0.4964,0.2055,1.1087,2098
9,0.4238,0.8569,-0.7344,0.4639,0.1997,0.9893,2091
9,0.4155,0.905,-0.668,0.4386,0.1147,0.7845,2062
9,0.416,0.8965,-0.6196,0.4421,0.0398,0.5874,2038
9,0.3962,0.855,-0.5642,0.4172,0.0392,0.4649,1982
9,0.3362,0.8474,-0.5642,0.3615,0.0214,0.3932,1946
9,0.2869,0.8569,-0.6108,0.2904,0.0067,0.3077,2036
9,0.2747,0.897,-0.6365,0.195,0.1229,0.2852,2116
9,0.2671,0.9106,-0.6086,0.0197,0.24,0.1783,2104
9,0.2551,0.9043,-0.5938,-0.1095,0.2288,0.1262,2067
9,0.2429,0.9773,-0.5588,-0.2578,0.204,0.0473,2172
9,0.2507,1.0664,-0.5593,-0.3449,0.1224,-0.0348,2029
9,0.2454,1.0691,-0.5032,-0.5223,0.2117,-0.1257,2098
9,0.2444,1.0312,-0.4443,-0.6401,0.3493,-0.2497,2115
9,0.2656,1.012,-0.4316,-0.7938,0.2089,-0.4352,2071
9,0.2756,1.061,-0.4202,-1.0011,0.1546,-0.5988,2053
9,0.261,1.134,-0.4561,-1.1093,0.1828,-0.7341,2095
9,0.2512,1.1912,-0.5144,-1.2184,0.1224,-0.9275,2054
9,0.2842,1.207,-0.5164,-1.3848,0.2199,-1.0973,2108
9,0.3027,1.2041,-0.5271,-1.5346,0.237,-1.2556,1990
9,0.3247,1.2405,-0.4927,-1.7362,0.3482,-1.4709,1947
9,0.3311,1.2986,-0.4707,-1.8491,0.5785,-1.7575,2033
9,0.3669,1.3318,-0.4868,-1.9323,0.6569,-2.0234,2044
9,0.4143,1.3408,-0.5027,-2.0538,0.6397,-2.2635,2050
9,0.4163,1.4438,-0.5205,-2.1603,0.4846,-2.4151,2145
9,0.2925,1.5186,-0.5601,-2.3192,0.3762,-2.5631,2153
9,0.0789,1.5391,-0.6228,-2.3987,0.2923,-2.7766,2098
9,0.0635,1.5557,-0.719,-2.5372,0.1956,-2.8707,2025
9,0.094,1.5688,-0.7844,-2.6269,0.2326,-2.9787,1947
9,0.1147,1.4839,-0.7747,-2.7927,0.196,-3.0545,1918
9,0.189,1.3879,-0.749,-2.8781,0.2605,-3.1677,2144
9,0.2588,1.1741,-0.7561,-2.9521,0.4364,-3.2388,2070
9,0.0872,1.0862,-0.7622,-2.9026,0.335,-3.3496,2024
9,0.3113,1.0164,-0.771,-2.9028,0.1823,-3.4742,2037
9,0.4895,0.7764,-0.8118,-2.812,0.2538,-3.3724,1996
9,0.3604,0.7441,-0.9546,-2.4615,0.1059,-3.3336,2143
9,0.2852,0.7246,-1.0732,-2.0742,-0.0796,-3.2943,2140
9,0.2107,0.6262,-1.1248,-1.7611,-0.2001,-3.2481,2012
9,0.2046,0.4224,-1.2009,-1.3491,-0.2748,-3.0207,2056
9,0.1941,0.2021,-1.1846,-1.0379,-0.2839,-2.7446,2090
9,0.1609,0.0842,-1.3699,-0.524,-0.3979,-2.4041,2037
9,0.053,-0.0632,-1.4119,-0.1313,-0.6094,-2.0012,2107
9,0.0234,-0.2996,-1.3669,0.1338,-0.7866,-1.6286,2060
9,0.1438,-0.7764,-1.1038,0.0651,-0.928,-1.228,2145
9,-0.0054,-1.0439,-0.5259,0.1124,-0.7191,-0.8046,2042
10,-1.1184,-1.4045,0.7063,-1.2075,-0.224,-0.4951,2141
10,-2.0,0.6562,-0.8933,1.2411,0.3793,-2.63,2483
10,1.9999,1.9999,-0.5288,4.3634,-4.3635,2.9893,2634
10,1.9999,1.9999,1.9999,-0.7766,2.1608,4.3634,2038
10,-1.1204,0.7007,1.9999,-2.963,1.3984,0.2864,1865
10,-2.0,-1.9497,-1.6892,-0.4043,-3.386,-0.6637,1974
10,-0.2451,-2.0,-1.3171,-1.0963,-1.5077,-1.2453,2411
10,1.281,-0.3293,-1.2415,0.0352,-0.8901,2.9959,2228
10,0.377,0.4255,-0.6379,0.8485,-1.2535,2.6633,2101
10,-0.9456,0.7422,-0.9902,1.3784,-0.2788,2.3377,2140
10,-1.1135,1.231,-0.7393,1.8038,1.0476,1.621,1996
10,0.1567,0.9192,-0.7202,2.0074,1.5946,1.5411,1961
10,0.1785,0.1663,-0.6292,2.0194,1.4106,1.7331,2031
10,-0.0227,0.0461,-0.6658,2.13,1.2358,1.7226,2057
10,-0.1929,0.5413,-0.5715,2.2648,0.8602,1.8385,2133
10,-0.2122,0.8223,-0.3699,2.1827,0.561,1.9937,2229
10,-0.207,1.0742,-0.2373,1.964,0.271,2.2932,1856
10,-0.3037,1.009,-0.0439,1.6471,0.326,2.4768,1911
10,-0.3354,0.9487,-0.3218,1.6029,0.3633,2.6686,2113
10,-0.2043,0.7739,-0.3713,1.4121,0.1743,2.8119,2134
10,-0.1758,0.6121,-0.4475,1.2888,0.0427,2.7614,2056
10,-0.0427,0.5913,-0.511,1.3742,0.1952,2.6332,2268
10,-0.1033,0.6746,-0.573,1.3587,-0.0332,2.4691,2006
10,-0.0347,0.688,-0.53,1.3986,-0.0743,2.3752,2064
10,0.0947,0.6467,-0.4697,1.382,-0.125,2.2286,2123
10,0.1375,0.6133,-0.4087,1.37,-0.2029,2.1389,2262
10,0.1238,0.6292,-0.3928,1.4283,-0.2515,1.9972,2319
10,0.176,0.5652,-0.4067,1.4054,-0.2234,1.8375,1387
10,0.2517,0.521,-0.408,1.3529,-0.1948,1.7365,1974
10,0.3472,0.5139,-0.4353,1.3209,-0.1645,1.5878,1981
10,0.3584,0.5134,-0.4758,1.2464,-0.1543,1.4038,2072
10,0.3516,0.4653,-0.4211,1.1631,-0.1021,1.1754,2011
10,0.481,0.4514,-0.5044,1.0895,0.0079,1.1646,2250
10,0.4507,0.4568,-0.4431,1.0564,0.2372,1.152,2098
10,0.4583,0.4749,-0.5908,1.1105,0.2866,1.1595,2190
10,0.5193,0.5032,-0.5234,1.0947,0.4132,1.1098,2096
10,0.6809,0.5308,-0.6538,1.0757,0.3787,1.2769,2125
10,0.53,0.6436,-0.6023,1.0878,0.4848,1.2098,2098
10,0.5757,0.6697,-0.634,1.044,0.2896,1.0356,2013
10,0.6941,0.6968,-0.6052,1.0689,0.2385,0.9702,2059
10,0.7275,0.6523,-0.6636,1.1304,0.2725,0.9038,1993
10,0.6355,0.6638,-0.6816,1.1307,0.1977,0.8576,2187
10,0.7014,0.6978,-0.5935,1.0405,0.3136,0.7726,2145
10,1.0159,0.8242,-0.7024,0.9658,0.4461,0.817,2101
10,0.5959,0.8582,-0.6589,1.2161,0.8091,0.5691,2123
10,0.7693,0.9312,-0.6636,1.2581,0.5469,0.251,1961
10,0.8647,0.8752,-0.5723,1.1902,0.6865,0.23,2020
10,0.6985,0.8672,-0.5696,1.225,0.6146,0.0623,1960
10,0.7061,0.9355,-0.561,1.164,0.5381,-0.08,1764
10,0.6038,0.9307,-0.5447,1.0493,0.6414,-0.2036,2219
10,0.5479,0.8745,-0.592,0.9541,0.7087,-0.3044,2153
10,0.4988,0.8325,-0.5928,0.8239,0.7028,-0.3449,2091
10,0.4167,0.8225,-0.5725,0.7144,0.719,-0.3621,2186
10,0.2705,0.8345,-0.6443,0.6464,0.7132,-0.4591,2105
10,0.1665,0.8596,-0.6875,0.4959,0.6413,-0.552,1997
10,0.1462,0.8413,-0.7046,0.2236,0.4585,-0.6437,2025
10,0.0435,0.772,-0.7373,-0.0561,0.3318,-0.7263,2095
10,0.0156,0.7429,-0.7791,-0.3505,0.1373,-0.8307,2103
10,0.0212,0.7026,-0.7488,-0.592,0.0326,-0.9005,2136
10,-0.0029,0.6921,-0.7153,-0.8308,-0.1147,-0.9905,1989
10,0.0293,0.6841,-0.677,-1.0176,-0.2228,-0.9958,2066
10,-0.0542,0.7405,-0.7209,-1.033,-0.2075,-1.0264,2064
10,-0.0271,0.8022,-0.7432,-1.1183,-0.2412,-1.0664,2258
10,0.0247,0.8643,-0.7788,-1.1572,-0.2466,-1.0911,2058
10,-0.0125,0.9221,-0.7925,-1.1829,-0.269,-1.1468,2096
10,-0.0649,0.946,-0.7629,-1.3053,-0.3504,-1.26,2124
10,-0.0447,0.9292,-0.7476,-1.5034,-0.4349,-1.3525,2067
10,0.0242,0.9546,-0.7844,-1.6062,-0.5637,-1.4115,2151
10,0.0181,1.0154,-0.8125,-1.4992,-0.5805,-1.5022,2088
10,0.0046,1.002,-0.854,-1.5364,-0.6024,-1.6089,2051
10,0.022,1.0322,-0.8916,-1.6033,-0.5682,-1.7061,2117
10,0.0469,1.0945,-0.9338,-1.6147,-0.4112,-1.841,2072
10,0.0759,1.1614,-0.9346,-1.6455,-0.3914,-2.0571,2030
10,0.1389,1.2175,-0.9231,-1.6644,-0.4271,-2.3021,2092
10,0.1875,1.2527,-0.9192,-1.648,-0.5187,-2.5404,2161
10,0.1782,1.2529,-0.9055,-1.5942,-0.7533,-2.7722,2192
10,0.2964,1.2593,-0.687,-1.7827,-1.0757,-2.8986,2174
10,0.2712,1.158,-0.6047,-2.0683,-1.0473,-2.9088,2049
10,0.0522,1.0339,-0.7349,-2.0403,-1.0744,-3.051,1897
10,0.0847,0.9124,-0.6785,-2.4709,-1.1135,-3.2235,1927
10,0.2793,0.9165,-0.6951,-2.5625,-1.1275,-3.1301,2014
10,0.2429,0.9595,-0.7146,-2.6967,-1.0874,-3.0063,2077
10,0.0532,1.0291,-0.7068,-2.7228,-0.9515,-3.0351,1902
10,-0.082,1.0566,-0.7061,-2.7357,-0.7866,-3.0276,2120
10,-0.0684,0.9924,-0.7744,-2.7324,-0.7308,-2.9092,2154
10,0.0898,0.9553,-0.9563,-2.6462,-0.6948,-2.6521,2066
10,0.1128,0.9226,-1.021,-2.5005,-0.6172,-2.2864,2111
10,0.1812,0.7761,-1.0791,-2.279,-0.5187,-2.0586,2051
10,0.0991,0.6189,-1.1946,-1.8306,-0.589,-1.8241,2090
10,0.1462,0.3411,-1.1643,-1.4928,-0.7829,-1.5801,1989
10,0.1104,0.071,-1.1099,-1.1536,-0.9488,-1.3374,2090
10,-0.0591,-0.0859,-0.7905,-0.6304,-1.0108,-1.4776,2091
10,-1.1296,-0.5542,0.301,-0.9082,0.2312,-1.419,2089
10,-2.0,0.7563,-0.7104,-0.622,0.3535,-3.0263,2347
10,1.9999,1.9999,-1.2039,4.3634,-4.3635,1.6777,2472
10,1.9231,1.9999,1.9999,-3.3445,1.5138,3.639,1794
10,-0.0752,0.0657,1.1079,-2.1569,2.1684,-0.6578,2054
10,-1.4163,-1.4326,-1.9624,0.0923,-2.3876,-0.4667,2067
10,0.7981,-0.6033,-2.0,0.3942,-3.3204,-0.4177,2196
10,1.3958,0.4399,-1.1177,1.2235,-2.373,2.9051,2319
10,-0.5386,0.4651,-0.9722,1.4949,-1.069,2.6506,2140
10,-1.0752,0.3755,-0.6931,1.6732,-0.2116,2.2963,1926
11,-0.2388,0.7698,-0.5325,2.0471,1.0802,1.8627,2019
11,0.323,0.6125,-0.4314,1.9801,1.1785,1.7122,2035
11,0.4182,0.0698,-0.3389,1.8277,0.8179,1.7068,2061
11,0.3613,0.1421,-0.2151,1.7434,0.6038,2.0266,1993
11,0.1174,0.5164,-0.2666,1.7584,0.6295,2.359,2107
11,-0.1387,0.7109,-0.3584,1.6855,0.8613,2.3418,2070
11,-0.0659,0.8137,-0.5095,1.8056,1.0397,2.3798,2099
11,0.1101,0.8696,-0.7078,2.0907,1.1347,2.4918,2063
11,0.0703,0.9021,-0.6855,2.2406,1.0958,2.4839,2099
11,0.1013,0.845,-0.6384,2.3791,0.9902,2.3843,2050
11,0.0911,0.7949,-0.4854,2.391,0.913,2.2662,2059
11,0.156,0.8281,-0.4309,2.2905,0.8677,2.1903,2062
11,0.1121,0.8574,-0.3933,2.1735,0.9784,2.0951,2066
11,0.115,0.9084,-0.3784,1.9616,0.9231,1.97,2112
11,0.2239,0.9172,-0.4585,1.8008,0.8685,1.8837,2043
11,0.1899,0.854,-0.5366,1.6514,0.8292,1.8285,2066
11,0.137,0.7434,-0.5867,1.5376,0.7669,1.6709,2050
11,0.1099,0.6897,-0.6504,1.4763,0.7709,1.5552,2055
11,0.0486,0.6184,-0.6641,1.4182,0.7721,1.3451,2045
11,0.0635,0.5579,-0.6748,1.3467,0.764,1.1191,2053
11,0.0776,0.5398,-0.6155,1.2139,0.7534,0.927,2061
11,0.1309,0.5317,-0.6218,1.1528,0.7191,0.7766,2055
11,0.115,0.4954,-0.6475,1.1224,0.7232,0.7079,2034
11,0.0867,0.46,-0.7009,1.1069,0.7831,0.605,2062
11,0.115,0.469,-0.7466,1.1328,0.8726,0.5015,2067
11,0.1858,0.4683,-0.8064,1.0645,0.9014,0.4733,2068
11,0.2439,0.511,-0.8879,1.0877,0.8865,0.518,2073
11,0.2686,0.5574,-0.926,1.07,0.8437,0.492,2039
11,0.2942,0.562,-0.9224,1.0927,0.7875,0.4301,2032
11,0.3469,0.5862,-0.9338,1.0798,0.62,0.3687,2067
11,0.3823,0.6731,-0.9741,1.0954,0.4265,0.2557,2061
11,0.4517,0.7317,-0.9241,1.0579,0.0844,0.1714,2043
11,0.4114,0.6951,-0.9136,1.1737,-0.071,0.2019,2036
11,0.2703,0.6606,-0.719,1.2021,0.0573,0.1667,2155
11,0.084,0.5142,-0.4844,0.7604,0.2197,0.1369,1917
11,0.0227,0.3782,-0.3455,0.3818,0.4974,0.134,2233
11,0.217,0.3506,-0.4094,0.1895,0.6878,0.3273,2131
11,0.561,0.5581,-0.678,0.3494,0.6694,0.7716,2239
11,0.7305,0.8074,-0.8167,0.2654,0.2619,1.1432,2029
11,0.5229,0.8899,-0.8433,0.1281,-0.1661,1.0922,2111
11,0.4248,1.0015,-0.7605,0.129,-0.3884,0.9263,2041
11,0.25,1.0073,-0.6531,0.1084,-0.4034,0.7368,2049
11,0.0415,0.896,-0.5955,0.047,-0.2614,0.536,2021
11,0.1101,0.8296,-0.605,-0.0061,-0.1113,0.3525,2028
11,0.2493,0.7803,-0.6184,-0.1856,0.0465,0.236,2025
11,0.3525,0.7783,-0.6848,-0.3219,0.1505,0.1818,2054
11,0.4451,0.7979,-0.6196,-0.4249,0.2474,0.1218,2038
11,0.3267,0.8149,-0.5417,-0.5311,0.2775,-0.0683,2053
11,0.1797,0.8918,-0.5381,-0.6094,0.2413,-0.3027,2053
11,0.1772,0.9824,-0.5728,-0.7142,0.2417,-0.4052,1844
11,0.262,1.0449,-0.6135,-0.8724,0.1433,-0.5056,2142
11,0.3054,1.0552,-0.5464,-1.1013,0.1964,-0.6188,2088
11,0.229,1.0815,-0.5007,-1.229,0.2975,-0.7564,2039
11,0.218,1.1003,-0.5146,-1.3672,0.2085,-0.9203,2130
11,0.2883,1.1624,-0.6064,-1.5014,0.0727,-1.0512,2038
11,0.3279,1.2063,-0.5742,-1.6751,-0.0003,-1.105,2059
11,0.3374,1.2188,-0.6235,-1.8445,0.0593,-1.1615,2050
11,0.3674,1.2625,-0.6606,-1.9122,0.0365,-1.2099,2098
11,0.3679,1.3,-0.6455,-2.0386,0.0699,-1.3027,2025
11,0.3411,1.3171,-0.6038,-2.1487,0.1758,-1.5091,2096
11,0.312,1.3635,-0.5271,-2.2703,0.2653,-1.7524,2063
11,0.2581,1.4116,-0.5618,-2.3899,0.227,-1.9857,2031
11,0.2463,1.4229,-0.6191,-2.5884,0.0691,-2.2309,2065
11,0.196,1.4875,-0.6426,-2.746,-0.0112,-2.4147,2069
11,0.1143,1.5728,-0.707,-2.8614,0.0141,-2.6287,2086
11,0.0659,1.5439,-0.666,-3.0218,0.1414,-2.8528,2074
11,0.095,1.396,-0.6479,-3.1523,0.4163,-3.0494,2016
11,0.1729,1.2493,-0.6633,-3.2136,0.6918,-3.2114,2030
11,0.2646,1.1592,-0.7207,-3.1951,0.699,-3.4717,1975
11,0.4353,1.0547,-0.8254,-3.1781,0.5613,-3.7162,2052
11,0.3569,1.0959,-0.8801,-2.9124,0.7253,-3.8522,2036
11,0.2493,1.1602,-1.0764,-2.4582,0.5078,-3.9844,2129
11,0.3362,1.0959,-1.229,-2.239,0.2745,-3.8106,2128
11,0.3406,0.988,-1.2632,-1.8671,0.2457,-3.5664,2288
11,0.3564,0.7268,-1.2896,-1.3382,-0.0442,-3.2132,2037
11,0.4329,0.4653,-1.3438,-0.7565,-0.4568,-2.7335,2033
11,0.4614,0.2231,-1.3982,-0.1108,-0.8018,-2.1989,2185
11,0.4771,-0.0374,-1.5486,0.3702,-1.1601,-1.6177,1989
11,0.6775,-0.4294,-1.0974,0.4823,-1.5383,-0.954,1995
11,0.6885,-0.8586,-0.6995,0.2487,-1.3833,-0.1571,1987
11,-0.2517,-1.3652,0.2849,-0.7762,0.0896,0.437,2057
11,-2.0,-2.0,0.6252,-0.6822,0.4625,-1.201,1955
11,1.9999,1.9999,-2.0,4.3634,-4.3635,-1.4046,2362
11,1.9999,1.9999,1.9999,-3.6151,1.8386,4.3634,2001
11,-0.9417,1.9999,1.9999,-1.2605,3.3669,-2.066,2013
11,-2.0,-1.3262,-1.3181,-0.1567,-2.1545,-0.2726,2014
11,-0.2554,-1.686,-1.5149,-0.0419,-0.4565,-1.5091,2093
11,1.825,-0.3438,-0.978,0.2211,-0.2052,2.2059,2071
11,0.1641,-0.0793,-0.8555,1.2238,-0.2061,2.1489,2161
11,-0.9109,0.4619,-0.9421,1.646,-0.1598,1.9286,2076
11,-0.363,0.8176,-0.571,1.7215,0.8303,1.8787,2032
11,0.0928,0.8806,-0.5549,2.1534,1.3912,1.8375,2104
11,0.1445,0.4753,-0.5815,2.3852,1.2483,1.646,2041
11,0.1226,0.3706,-0.5439,2.3724,1.0155,1.599,2046
11,0.0488,0.4941,-0.3711,2.2888,0.7674,1.7122,2029
11,-0.0127,0.6614,-0.2192,2.1377,0.6829,1.7367,2352
11,-0.0845,0.8713,-0.3311,1.9498,0.8092,1.8801,2046
11,-0.1399,0.9045,-0.3181,1.8233,0.7941,1.9724,2038
11,-0.0178,0.8091,-0.4187,1.6539,0.6469,2.0604,2160
11,-0.019,0.6301,-0.5012,1.5763,0.6148,2.1483,2023
11,-0.0618,0.5552,-0.533,1.5865,0.5789,2.0883,2089
12,-0.1104,0.5212,-0.5132,1.5339,0.4598,1.9502,2071
12,-0.031,0.5281,-0.4934,1.4898,0.4256,1.7755,2051
12,0.0679,0.5691,-0.4756,1.4523,0.3653,1.6432,2054
12,0.1174,0.5662,-0.5281,1.4283,0.2377,1.5331,2044
12,0.1467,0.5586,-0.5493,1.3844,0.1878,1.4745,2072
12,0.1453,0.5269,-0.5793,1.3588,0.1123,1.3933,2048
12,0.1567,0.4639,-0.5872,1.3046,0.0304,1.3203,2053
12,0.158,0.4224,-0.5913,1.2551,0.0788,1.2306,2029
12,0.186,0.4065,-0.6084,1.1754,0.2033,1.1231,2057
12,0.2544,0.4346,-0.6816,1.1037,0.3414,1.0515,2073
12,0.3555,0.4949,-0.7734,1.1106,0.5084,1.0686,2048
12,0.3667,0.5403,-0.8101,1.1363,0.5119,1.0463,2041
12,0.3977,0.5457,-0.8022,1.0986,0.4433,1.0287,2101
12,0.4094,0.5171,-0.7961,1.0744,0.4594,0.9766,2054
12,0.4312,0.5271,-0.7932,1.022,0.4915,0.9842,2112
12,0.478,0.5398,-0.8352,0.9642,0.509,1.0444,2048
12,0.4954,0.6121,-0.7361,0.8661,0.5279,1.12,2043
12,0.6294,0.644,-0.7959,0.7697,0.555,1.2832,2052
12,0.5103,0.6763,-0.7908,0.8456,0.6512,1.3681,2096
12,0.4104,0.7297,-0.729,0.8238,0.7229,1.2027,2052
12,0.488,0.7134,-0.7207,0.8094,0.6834,1.048,2047
12,0.5386,0.6982,-0.7217,0.7271,0.5573,0.9601,2076
12,0.5134,0.7488,-0.7351,0.6778,0.49,0.8818,2090
12,0.4583,0.7996,-0.7424,0.6478,0.4389,0.77,2111
12,0.4126,0.8198,-0.738,0.6087,0.4607,0.6669,2061
12,0.3833,0.8149,-0.7417,0.5625,0.5188,0.5795,2073
12,0.3281,0.8208,-0.739,0.4709,0.5071,0.5032,2074
12,0.2993,0.8218,-0.7373,0.3272,0.4709,0.4425,2063
12,0.356,0.884,-0.7603,0.2324,0.4476,0.3907,2128
12,0.3328,0.8765,-0.7402,0.1432,0.4057,0.3164,2093
12,0.2441,0.9028,-0.707,0.0354,0.3927,0.2071,2042
12,0.2373,0.928,-0.697,-0.1202,0.2468,0.1017,2111
12,0.2712,0.9536,-0.665,-0.3027,0.177,0.0531,2065
12,0.2571,0.967,-0.6296,-0.498,-0.0154,-0.0491,2009
12,0.2034,0.9839,-0.6187,-0.6818,-0.1811,-0.1565,2020
12,0.187,0.9807,-0.6213,-0.8315,-0.2116,-0.2725,2109
12,0.1982,1.0007,-0.6133,-0.9335,-0.0732,-0.4152,2031
12,0.2341,0.9932,-0.5796,-1.0357,-0.0674,-0.5686,2045
12,0.2478,0.9854,-0.5518,-1.2063,-0.1189,-0.7444,2064
12,0.2683,1.0037,-0.5134,-1.3616,-0.086,-0.9194,2010
12,0.301,1.0571,-0.5117,-1.4704,-0.0602,-1.118,2088
12,0.3374,1.0891,-0.5588,-1.6251,-0.0747,-1.3138,2064
12,0.3357,1.1011,-0.5845,-1.8117,-0.0802,-1.4866,2040
12,0.3572,1.1631,-0.6404,-1.9374,-0.0916,-1.6784,2069
12,0.2959,1.2129,-0.6521,-2.1169,-0.1493,-1.8572,2092
12,0.1992,1.2622,-0.6411,-2.2168,-0.1163,-2.0294,2019
12,0.1582,1.3032,-0.6699,-2.3912,-0.0087,-2.1924,2094
12,0.1672,1.4131,-0.7656,-2.4916,0.0284,-2.3262,2103
12,0.1782,1.5054,-0.7927,-2.604,0.0438,-2.5366,2014
12,0.1304,1.5637,-0.8743,-2.7193,-0.1004,-2.8175,2111
12,0.1272,1.6152,-0.8816,-2.8135,-0.2745,-3.0673,2097
12,0.092,1.5918,-0.8586,-2.9356,-0.4089,-3.3091,2136
12,0.0767,1.5474,-0.7917,-3.0115,-0.4216,-3.4822,2056
12,0.0696,1.4424,-0.7153,-3.1138,-0.3998,-3.6042,2090
12,0.1448,1.3228,-0.6794,-3.2357,-0.4631,-3.697,2001
12,0.2151,1.136,-0.6501,-3.433,-0.5441,-3.7219,2072
12,0.1326,1.1565,-0.7273,-3.3939,-0.3807,-3.8661,2109
12,0.208,1.0264,-0.7151,-3.4304,-0.3525,-4.0414,2214
12,0.426,0.8826,-0.7122,-3.2756,-0.2044,-4.0064,2045
12,0.46,0.825,-0.8406,-2.9016,-0.1867,-3.7908,2126
12,0.4165,0.8047,-0.9712,-2.5036,-0.3915,-3.5876,2186
12,0.5242,0.8394,-1.1731,-2.0141,-0.6059,-3.3453,2113
12,0.7637,0.8655,-1.2549,-1.6319,-0.9616,-2.9464,2040
12,0.9099,0.759,-1.4021,-0.8797,-1.4471,-2.2198,2024
12,1.1753,0.4644,-1.3877,-0.2806,-1.6329,-1.2904,2111
12,1.0762,-0.1968,-1.0952,-0.2903,-1.7363,-0.6092,2055
12,0.6226,-0.6472,-1.0352,0.2538,-1.5495,0.3577,2139
12,0.2842,-1.5002,0.6494,-0.8847,-1.8692,0.5465,1892
12,-1.3076,-2.0,1.9999,-4.2323,1.3319,0.8411,2016
12,-1.6179,1.9999,-2.0,4.3634,-0.7849,0.0302,2349
12,1.9999,1.9999,1.918,1.3713,-4.3635,4.3634,2336
12,0.9524,1.7869,1.3186,-0.2376,4.2434,1.181,1951
12,-2.0,-0.6843,1.5735,-0.4231,2.2585,0.2217,2042
12,-2.0,-1.4919,-0.6448,1.4211,-1.1235,-1.3657,2148
12,0.9885,-1.0454,-1.0588,0.5283,0.6922,-0.5144,2211
12,1.2908,-0.0532,-0.9297,1.8807,-0.9965,2.6803,2028
12,-0.3118,0.2732,-0.8672,2.2952,-1.0286,2.6085,2177
12,-1.333,0.9175,-0.5017,2.1507,-0.0003,1.6828,1975
12,-0.6375,0.9441,-0.2358,2.128,0.8769,1.1033,1958
12,0.1179,0.6038,-0.0513,2.3278,1.0106,1.0642,1999
12,0.321,0.1958,-0.2664,2.1009,0.6248,1.0251,2097
12,0.2957,0.2363,-0.0757,1.9137,-0.0574,1.3643,2001
12,0.2485,0.4128,0.0264,1.851,-0.4637,1.5938,2045
12,0.1655,0.6631,0.1743,1.6952,-0.4874,1.8634,2059
12,0.0781,0.7922,-0.0327,1.6656,-0.1589,2.0494,2126
12,0.1921,0.7925,-0.2769,1.7333,0.0724,2.1268,2064
12,0.2288,0.6958,-0.3892,1.7404,0.0474,2.1542,2051
12,0.2888,0.6392,-0.4348,1.8402,0.0208,2.114,2070
12,0.2871,0.5669,-0.3945,1.857,-0.025,2.0345,2064
12,0.3513,0.5952,-0.4355,1.9378,0.082,1.9899,2106
12,0.3735,0.6904,-0.4282,2.008,0.0822,1.9185,2039
12,0.3359,0.6943,-0.4431,2.013,0.0101,1.8305,2071
12,0.3586,0.6521,-0.437,1.9848,0.0699,1.6929,2059
12,0.3921,0.6023,-0.4661,2.0041,0.1539,1.6114,2099
12,0.4299,0.5664,-0.5229,2.0052,0.2474,1.4793,2071
12,0.4033,0.5391,-0.5544,1.9552,0.3723,1.343,2066
12,0.3672,0.5349,-0.5554,1.8623,0.4749,1.1115,2055
12,0.3728,0.5544,-0.5979,1.8218,0.5578,0.9315,2076
12,0.353,0.5559,-0.6526,1.7656,0.6586,0.7774,2047
12,0.3027,0.5422,-0.696,1.7325,0.7313,0.6304,2104
12,0.2817,0.5205,-0.759,1.6757,0.8557,0.5639,1945
12,0.302,0.5303,-0.8162,1.6367,1.0174,0.6142,2124
12,0.2874,0.5378,-0.8762,1.6334,1.0588,0.7557,2097
12,0.2739,0.6011,-0.865,1.5512,0.9927,0.8132,2045
12,0.3679,0.6921,-0.8557,1.2194,0.8556,0.8126,2046
13,0.4363,0.7891,-0.9312,1.1081,0.712,0.8781,2048
13,0.2659,0.7595,-0.8958,0.9122,0.5762,0.7677,2072
13,0.2671,0.7634,-0.9033,0.7452,0.3236,0.5347,2064
13,0.3977,0.8142,-0.9446,0.7107,0.1111,0.6054,2066
13,0.3054,0.97,-0.9275,0.6292,0.2229,0.5461,2047
13,0.2361,0.9844,-0.8794,0.63,0.2896,0.4659,2076
13,0.2571,0.9233,-0.8208,0.5902,0.4309,0.3389,2027
13,0.293,0.9761,-0.7698,0.7178,0.6859,0.2863,1991
13,0.2629,0.9016,-0.6599,0.5813,0.7155,0.0746,2013
13,0.3433,0.8611,-0.7139,0.5984,0.802,0.0015,2042
13,0.3359,0.7356,-0.5503,0.3341,0.699,-0.1037,2046
13,0.4202,0.8318,-0.6899,0.2935,0.6313,-0.1178,2129
13,0.3271,0.9653,-0.6533,0.247,0.4449,-0.129,2032
13,0.0854,0.9968,-0.6665,0.1374,0.3446,-0.3024,2107
13,0.0696,0.9722,-0.6157,0.0176,0.2725,-0.2875,2047
13,0.1028,0.9946,-0.6384,-0.1843,0.3152,-0.1213,2173
13,0.0625,1.0713,-0.6741,-0.3786,0.3278,-0.0495,2102
13,0.022,1.0439,-0.6716,-0.5983,0.1771,-0.0487,2090
13,-0.0166,1.0383,-0.6809,-0.8156,0.0562,-0.0131,2114
13,-0.0056,1.0696,-0.6892,-0.9975,-0.0296,-0.023,2115
13,0.0042,1.1013,-0.7034,-1.1198,-0.121,-0.0792,2068
13,0.0071,1.1216,-0.6831,-1.2043,-0.1677,-0.2332,2101
13,0.0586,1.1392,-0.6892,-1.2178,-0.2414,-0.394,1966
13,0.0972,1.1575,-0.6787,-1.1967,-0.2268,-0.536,2059
13,0.1187,1.113,-0.6321,-1.2307,-0.24,-0.7111,2225
13,0.1306,1.0889,-0.6658,-1.2949,-0.3193,-0.857,1997
13,0.1628,1.1006,-0.6931,-1.4892,-0.4167,-0.9669,2039
13,0.1497,1.1167,-0.7329,-1.686,-0.4576,-1.1858,2042
13,0.1416,1.1846,-0.7871,-1.8359,-0.5169,-1.4062,2033
13,0.1394,1.2983,-0.7898,-1.9993,-0.5299,-1.6154,2109
13,0.1099,1.366,-0.8086,-2.1638,-0.5689,-1.9189,1821
13,0.0398,1.4543,-0.8589,-2.1871,-0.6228,-2.3217,2069
13,0.0093,1.4922,-0.9553,-2.2892,-0.6673,-2.7602,2191
13,0.0569,1.5488,-1.0059,-2.2438,-0.6767,-3.0043,2141
13,-0.0171,1.5823,-1.0845,-2.39,-0.7328,-3.2079,2090
13,-0.1274,1.5977,-1.1157,-2.544,-0.7167,-3.4552,2088
13,-0.0967,1.4973,-1.0183,-2.7505,-0.7777,-3.7399,2016
13,0.03,1.3376,-0.8967,-2.9392,-0.8006,-3.8779,2091
13,0.2981,1.1404,-0.8188,-3.2718,-1.1511,-3.9697,2041
13,0.4614,0.8904,-0.7324,-3.5834,-1.1861,-3.7565,2001
13,0.1016,1.0134,-0.6887,-3.4235,-0.9935,-3.8558,2157
13,0.304,1.0469,-0.6807,-3.5555,-1.3479,-3.9325,2031
13,0.4771,0.8596,-0.6262,-3.6557,-1.1635,-3.844,2148
13,0.4182,0.6816,-0.7576,-3.4412,-1.2047,-3.6984,1948
13,0.397,0.5679,-0.9314,-3.1349,-1.3318,-3.531,2164
13,0.4189,0.4392,-1.0835,-2.7203,-1.2236,-3.0834,2022
13,0.374,0.4731,-1.231,-2.3234,-1.2344,-2.7003,2164
13,0.6084,0.623,-1.5715,-1.3575,-0.8898,-1.9415,2117
13,1.2402,0.783,-1.8872,-0.2145,-1.3236,-0.7953,2221
13,0.9722,0.0974,-1.7256,0.1935,-1.0816,0.2037,2032
13,0.252,-1.074,-1.1116,0.2854,-0.8303,0.9784,2007
13,-2.0,-2.0,1.9999,-3.6765,2.0218,0.8987,1979
13,1.2087,1.5837,-2.0,4.3634,-4.3635,-1.8247,2373
13,1.9999,1.9999,1.9999,-2.6163,-1.1278,4.3634,2176
13,-0.3662,1.9999,1.9999,-1.0035,4.3634,-2.0379,1963
13,-2.0,-0.7544,0.551,0.5233,0.5686,0.3021,1995
13,-1.4819,-1.0422,-0.8203,2.0229,-1.8203,-1.7564,2078
13,1.4109,-0.6365,-0.8867,0.3452,-0.2509,-0.0029,2074
13,1.2043,-0.2822,-1.0017,1.2597,-0.9119,2.194,2120
13,-0.2485,-0.1628,-0.8694,2.0732,-0.263,2.0102,2097
13,-0.5347,0.3579,-0.6694,2.4129,0.2743,1.8445,1981
13,-0.2322,0.8416,-0.4395,2.1265,0.7562,1.7936,2602
13,0.1255,0.769,-0.126,2.0768,1.186,1.8556,1722
13,-0.0339,0.5422,0.0308,1.9157,0.757,1.8887,2003
13,-0.0798,0.6299,-0.0493,1.5729,0.3581,1.5289,2069
13,0.0359,0.7822,-0.2363,1.4463,0.119,1.6467,2075
13,-0.0442,0.8306,-0.4385,1.5403,-0.2049,1.9519,2133
13,-0.1191,0.9233,-0.5825,1.7434,-0.3394,2.1343,2063
13,-0.0627,0.8723,-0.6267,2.0283,-0.2996,2.3435,2067
13,-0.0903,0.781,-0.532,2.1304,-0.2823,2.4377,2101
13,-0.0386,0.7207,-0.4563,2.17,-0.2342,2.3942,2023
13,0.0161,0.7534,-0.4512,2.2158,-0.1008,2.2735,2050
13,0.0127,0.7559,-0.4971,2.1997,-0.0638,2.1126,2055
13,0.0071,0.6912,-0.5352,2.1541,-0.0023,2.0112,2052
13,-0.0784,0.6643,-0.5857,2.0618,0.1167,1.8827,2045
13,-0.0513,0.6929,-0.543,1.8901,0.2625,1.6973,2055
13,0.0254,0.717,-0.5601,1.7251,0.276,1.551,2058
13,0.0889,0.6897,-0.5549,1.5177,0.2064,1.3753,2056
13,0.1609,0.6399,-0.5317,1.3632,0.1467,1.2621,2062
13,0.2109,0.6394,-0.5925,1.2776,0.2205,1.2095,2032
13,0.2026,0.6052,-0.6392,1.2524,0.4088,1.2167,2049
13,0.2119,0.5483,-0.677,1.1997,0.6628,1.1925,2019
13,0.3425,0.5879,-0.7893,1.209,0.8092,1.2093,2041
13,0.439,0.5991,-0.855,1.1786,0.7194,1.3559,2058
13,0.3958,0.6038,-0.8652,1.0844,0.457,1.307,2069
13,0.4126,0.6353,-0.7744,0.9103,0.21,1.1785,2068
13,0.4412,0.6445,-0.7949,0.906,0.0776,1.1788,2051
13,0.3398,0.658,-0.7112,0.9417,0.1922,1.137,2058
13,0.2959,0.6147,-0.6877,0.923,0.4267,1.1397,1978
13,0.3413,0.6487,-0.7053,1.0334,0.6136,1.2856,2055
13,0.3142,0.8464,-0.7261,1.0076,0.6349,1.2342,2076
13,0.3623,0.8694,-0.6948,0.8985,0.7035,1.1539,2092
13,0.4304,0.8936,-0.7195,0.8107,0.5671,0.9737,2057
13,0.4216,0.9182,-0.6777,0.7817,0.5397,0.7452,2060
13,0.3574,0.8987,-0.6492,0.8143,0.4639,0.5332,2034
13,0.3394,0.9304,-0.5984,0.7834,0.4006,0.4107,2063
13,0.2522,0.9944,-0.5942,0.738,0.4093,0.4088,2053
13,0.22,0.8206,-0.5806,0.4328,0.5639,0.2079,2032
13,0.3347,0.7915,-0.6411,0.3868,0.6558,0.2711,2058
13,0.3682,0.8755,-0.6284,0.22,0.4876,0.1987,2025
13,0.3525,0.9683,-0.6323,0.0806,0.4564,0.1851,2050
13,0.3174,1.0403,-0.5847,-0.0413,0.3565,0.0109,2025
14,0.2742,1.0916,-0.554,-0.1503,0.2826,-0.1023,2048
14,0.1985,1.1523,-0.5439,-0.3281,0.1175,-0.2569,2112
14,0.1504,1.189,-0.6016,-0.4699,0.0401,-0.3274,2150
14,0.1443,1.1357,-0.6145,-0.607,-0.0866,-0.4854,2010
14,0.1743,1.0605,-0.5535,-0.6831,-0.0555,-0.6184,2126
14,0.2041,1.0386,-0.5723,-0.7432,0.0232,-0.8007,2098
14,0.2007,1.0413,-0.5571,-0.8044,0.0668,-1.0776,2063
14,0.2412,1.1328,-0.5984,-0.8409,0.1581,-1.3936,2041
14,0.251,1.2119,-0.6201,-0.9255,0.2021,-1.7361,2143
14,0.2148,1.1868,-0.5967,-1.0447,0.1944,-2.0519,1977
14,0.1626,1.1401,-0.5583,-1.2231,0.1221,-2.2278,2024
14,0.1067,1.1072,-0.5718,-1.4852,0.067,-2.3214,1975
14,0.1624,1.1675,-0.5889,-1.7404,-0.0225,-2.3623,1966
14,0.1489,1.1897,-0.5784,-2.0828,-0.0543,-2.4037,2097
14,0.1223,1.2253,-0.5996,-2.3241,0.0435,-2.5338,2199
14,0.115,1.2908,-0.5737,-2.596,0.1139,-2.6741,2132
14,0.1816,1.3506,-0.667,-2.8036,0.1872,-2.8247,2067
14,0.1414,1.2788,-0.6455,-3.1805,0.0593,-2.9549,2045
14,0.179,1.4082,-0.5559,-3.3009,0.1738,-3.0557,2159
14,0.1438,1.5706,-0.5657,-3.4182,0.1701,-3.1851,2031
14,0.1736,1.6296,-0.5967,-3.4764,0.2621,-3.2748,2097
14,0.238,1.5591,-0.6768,-3.4997,0.1677,-3.326,2110
14,0.2896,1.5291,-0.699,-3.4336,0.2276,-3.3367,2088
14,0.3623,1.4075,-0.7012,-3.3646,0.227,-3.3226,1947
14,0.2993,1.2261,-0.7083,-3.2871,0.35,-3.3624,2029
14,0.3228,1.0686,-0.8362,-3.1239,0.2156,-3.3864,2109
14,0.3723,0.8647,-0.9026,-2.9958,0.1148,-3.293,2124
14,0.3677,0.6765,-0.9622,-2.8558,0.1028,-3.1174,2034
14,0.365,0.5769,-1.1121,-2.5414,0.0486,-2.8517,2128
14,0.3757,0.6677,-1.1614,-2.0266,0.1027,-2.6026,2068
14,0.4482,0.6602,-1.3101,-1.5162,-0.0224,-2.3245,2055
14,0.5674,0.5945,-1.3901,-0.823,-0.124,-1.7337,2031
14,0.8677,0.5056,-1.6294,0.1032,-0.6947,-1.0074,2069
14,0.7371,-0.1167,-1.2117,-0.0205,-0.9026,-0.3476,2072
14,0.2141,-1.0203,-1.1255,0.4512,-0.6477,0.1437,2114
14,-2.0,-2.0,1.9999,-2.3876,2.6291,0.4402,2119
14,-0.1216,1.8916,-2.0,4.3634,-4.3635,-4.3635,2018
14,1.9999,1.9999,1.9999,-1.046,1.847,4.3634,1966
14,-2.0,1.9999,1.2693,0.5285,4.3634,-1.4925,2037
14,-0.6904,-0.4878,-0.2981,1.7249,-2.4254,-1.0473,2053
14,1.2058,-0.9854,-0.3159,0.7462,-2.3182,0.8913,2128
14,1.7476,-0.3889,-0.9148,1.5751,-1.4519,2.6902,2071
14,0.0449,0.5217,-0.875,1.5495,-2.5549,3.9163,2182
14,-1.4187,0.939,-0.6011,1.5123,-1.2143,2.2104,2114
14,-0.7913,0.9888,-0.668,2.3578,0.1794,1.974,1990
14,-0.103,0.6638,-0.595,2.3096,0.9594,2.127,2050
14,-0.0027,0.2427,-0.4062,2.1558,0.7669,2.1707,2023
14,0.2249,0.0293,-0.2327,2.1362,0.3828,2.2583,2109
14,-0.1018,0.1511,-0.1252,1.8735,0.2001,2.3068,2102
14,-0.1228,0.6235,-0.21,1.9022,-0.1093,2.2804,2214
14,-0.0986,0.9346,-0.436,2.0026,0.0695,2.465,2093
14,-0.3379,0.855,-0.4785,2.0142,0.2278,2.3673,2014
14,-0.1133,0.7422,-0.4497,2.1806,0.2998,2.2788,2054
14,0.0889,0.6851,-0.4944,2.1909,0.2618,2.2975,2189
14,0.0718,0.7053,-0.4182,2.1072,0.2804,2.2254,2097
14,0.0732,0.738,-0.4351,1.9616,0.231,2.1021,2017
14,0.2034,0.7461,-0.4792,1.8512,0.1459,2.0397,2032
14,0.0859,0.7009,-0.5037,1.7675,0.2368,1.9614,2115
14,0.1013,0.6953,-0.5146,1.5932,0.1278,1.735,2064
14,0.1479,0.5002,-0.5349,1.5214,0.2966,1.8302,2045
14,0.1711,0.6641,-0.4956,1.4221,0.3623,1.6033,2069
14,0.2275,0.5591,-0.6262,1.3965,0.3265,1.5203,2063
14,0.2578,0.6189,-0.6399,1.387,0.277,1.4994,2067
14,0.1863,0.5845,-0.604,1.2737,0.296,1.4442,2094
14,0.2546,0.623,-0.6931,1.2328,0.338,1.4154,2099
14,0.3127,0.6135,-0.8152,1.2011,0.3326,1.3731,2004
14,0.3171,0.6025,-0.8225,1.1379,0.3436,1.3271,2020
14,0.3132,0.5786,-0.8118,1.0824,0.2585,1.2375,2096
14,0.2761,0.5571,-0.8083,1.0304,0.196,1.1298,2160
14,0.2986,0.564,-0.7363,0.9116,0.2369,1.044,1990
14,0.3513,0.5759,-0.8074,0.8748,0.1944,1.042,2115
14,0.3345,0.5764,-0.8218,0.9453,0.2298,1.0797,2089
14,0.3123,0.5635,-0.6565,0.7789,0.2927,1.0465,2040
14,0.4209,0.5759,-0.7866,0.7363,0.4113,1.2651,2041
14,0.3267,0.6526,-0.7366,0.7405,0.4761,1.2121,2045
14,0.333,0.7593,-0.6875,0.5924,0.5227,0.999,2071
14,0.4211,0.8147,-0.7007,0.5629,0.4061,0.8279,2066
14,0.447,0.8291,-0.6997,0.5514,0.2995,0.754,2042
14,0.3669,0.8484,-0.6846,0.5374,0.3168,0.6449,2041
14,0.2764,0.8464,-0.7178,0.5086,0.3065,0.51,2092
14,0.2549,0.8354,-0.709,0.4473,0.3765,0.3705,2032
14,0.2463,0.8723,-0.7283,0.4184,0.449,0.2674,2061
14,0.2717,0.9282,-0.696,0.3398,0.475,0.1678,2005
14,0.301,0.9456,-0.6746,0.1602,0.3962,0.0831,2054
14,0.3025,0.8862,-0.6252,-0.0136,0.3751,0.0828,2054
14,0.2053,0.8857,-0.6174,-0.1372,0.4377,-0.02,2049
14,0.1702,0.9604,-0.6675,-0.2052,0.2484,-0.1518,2025
14,0.1965,0.9604,-0.6399,-0.4287,0.1374,-0.2413,2069
14,0.2141,0.9834,-0.6458,-0.5545,0.1995,-0.275,1989
14,0.1743,1.0225,-0.6169,-0.6098,0.1433,-0.35,2094
14,0.1809,1.0635,-0.6375,-0.7028,0.0582,-0.4285,2025
14,0.1689,1.0232,-0.5654,-0.8979,-0.0502,-0.5149,2063
14,0.1729,0.9966,-0.5298,-1.0485,-0.1328,-0.6349,2011
14,0.2058,1.0076,-0.5205,-1.2011,-0.175,-0.7797,2041
14,0.2446,1.0078,-0.5447,-1.2882,-0.1815,-0.9286,2025
14,0.251,0.9924,-0.5796,-1.3928,-0.2468,-1.064,2059
14,0.2549,1.0032,-0.5591,-1.5404,-0.2217,-1.2227,2128
14,0.2363,1.0618,-0.6069,-1.6406,-0.2208,-1.3151,2040
14,0.2312,1.1453,-0.6284,-1.7132,-0.157,-1.4319,2040
14,0.2212,1.1785,-0.6523,-1.8322,-0.0534,-1.5491,2069
14,0.2095,1.1995,-0.6638,-1.9812,0.0068,-1.674,2117
15,0.2397,1.2285,-0.6472,-2.151,0.0156,-1.7925,2073
15,0.2412,1.2722,-0.645,-2.3164,-0.0003,-1.9399,2022
15,0.2256,1.3054,-0.6455,-2.3939,-0.0232,-2.1648,1670
15,0.1982,1.333,-0.6943,-2.4464,-0.1546,-2.3838,2183
15,0.1851,1.3398,-0.6897,-2.5318,-0.1479,-2.6481,2141
15,0.0986,1.3203,-0.6704,-2.6524,-0.0818,-2.7795,2036
15,0.0063,1.3896,-0.6414,-2.8156,-0.2298,-2.9505,2013
15,-0.019,1.469,-0.5974,-3.0295,-0.3493,-3.0957,2058
15,0.0508,1.3691,-0.4958,-3.3515,-0.3962,-3.1906,2153
15,0.0962,1.1348,-0.4636,-3.4982,-0.1479,-3.1614,2036
15,0.0273,1.2451,-0.4973,-3.3595,0.0052,-3.2649,2121
15,0.1794,1.0745,-0.5806,-3.5042,-0.2036,-3.3852,2015
15,0.2446,0.9495,-0.6719,-3.4744,-0.119,-3.4346,2006
15,0.1077,0.9927,-0.7285,-3.1569,-0.1113,-3.3601,1997
15,-0.0144,1.0298,-0.8823,-2.953,-0.0341,-3.3585,2032
15,0.1362,1.0308,-1.2131,-2.4511,-0.0293,-3.1305,2091
15,0.2732,1.0078,-1.4351,-1.9006,0.1365,-2.8285,2059
15,0.3142,0.8635,-1.5813,-1.0765,-0.0345,-2.5468,1962
15,0.4902,0.5984,-1.533,-0.4406,-0.5698,-2.0695,1994
15,0.5142,0.2388,-1.4939,0.2421,-0.8608,-1.5226,2007
15,0.6028,-0.2083,-1.3103,0.4364,-1.576,-0.9756,2071
15,0.2273,-0.8438,-1.3018,0.5907,-1.4649,-0.3749,2279
15,-2.0,-2.0,1.9999,-2.9811,2.263,-0.2159,2110
15,1.7849,1.9999,-2.0,4.3634,-4.3635,-3.8012,2348
15,1.9999,1.9999,1.9999,-1.9089,0.1057,4.3634,2342
15,-0.5786,1.9999,1.9999,-0.1505,3.4411,-3.1487,1863
15,-2.0,-1.1655,-1.7078,-0.7301,-3.8988,-0.0546,2012
15,-1.5203,-2.0,-1.1079,-0.0933,-0.9264,-1.7773,2033
15,0.8965,-1.0469,-0.8992,1.3443,-0.4272,1.6001,2211
15,0.26,-0.1416,-0.5002,1.7442,-1.1749,2.553,1843
15,-1.2776,0.9714,-0.7131,2.2634,0.1414,2.1826,1852
15,-1.092,1.4802,-0.5515,2.5456,1.4619,1.2283,1945
15,0.2158,0.7336,-0.4395,2.6607,1.3382,1.0997,2069
15,0.1233,0.1379,-0.1802,2.5356,1.2513,1.2006,2040
15,-0.2195,-0.0415,0.0017,2.5468,0.9793,1.3487,2002
15,0.0322,0.4453,0.0972,2.2981,0.7901,1.6514,2057
15,0.2883,0.853,-0.031,2.0102,0.7205,2.1462,2003
15,0.041,0.991,-0.1216,1.8801,0.6755,2.4679,2075
15,-0.0518,0.8594,-0.2983,1.7976,0.5197,2.3143,2023
15,0.1365,0.6182,-0.4453,1.9097,0.4779,2.4526,2145
15,0.1958,0.5718,-0.4893,1.9546,0.2792,2.5408,1980
15,0.2263,0.4729,-0.4375,2.011,0.1538,2.5976,2064
15,0.2849,0.5386,-0.386,2.0423,0.1642,2.5081,2038
15,0.2578,0.6519,-0.4097,2.024,0.1075,2.404,2039
15,0.29,0.6831,-0.3994,1.9688,0.0756,2.2529,2065
15,0.269,0.7046,-0.3181,1.9148,-0.0264,1.9516,2036
15,0.3594,0.6577,-0.2893,1.8225,-0.067,1.7643,2051
15,0.4075,0.6301,-0.2842,1.747,-0.0292,1.5751,2037
15,0.4089,0.5981,-0.3047,1.6865,0.0798,1.4035,2105
15,0.4961,0.5955,-0.3286,1.6467,0.2124,1.2364,2034
15,0.5403,0.5593,-0.4382,1.5961,0.2996,1.1412,1962
15,0.4634,0.4832,-0.5227,1.5769,0.5241,1.0334,2021
15,0.4158,0.4619,-0.6326,1.5238,0.7766,0.8666,2035
15,0.47,0.5002,-0.7307,1.5572,0.9278,0.7351,2055
15,0.4319,0.5632,-0.7192,1.5218,1.0037,0.6887,2006
15,0.4324,0.5769,-0.6904,1.491,1.0897,0.6288,2111
15,0.408,0.5393,-0.7312,1.4997,1.1383,0.7122,2075
15,0.3291,0.4958,-0.7769,1.4793,1.1195,0.7431,2120
15,0.3013,0.4727,-0.7053,1.2773,0.9074,0.8052,1982
15,0.4402,0.533,-0.8813,1.2344,0.709,0.9705,1999
15,0.3083,0.7085,-0.9236,1.1754,0.5458,1.1132,2148
15,0.1865,0.7842,-0.9673,1.0187,0.1554,0.9535,2253
15,0.2324,0.7566,-0.9104,0.8369,0.0944,0.7959,2003
15,0.2437,0.7192,-0.9045,0.7098,-0.0033,0.6726,2039
15,0.115,0.7761,-0.9219,0.5601,-0.1176,0.5743,2012
15,0.1924,0.8655,-0.9612,0.4986,0.0216,0.4466,2093
15,0.1926,0.8472,-0.814,0.4908,0.2894,0.3442,2125
15,0.1697,0.8918,-0.7798,0.5556,0.3559,0.2834,2034
15,0.2571,0.8682,-0.6665,0.516,0.3955,0.1726,2089
15,0.4783,0.9019,-0.6003,0.4255,0.2125,0.0589,2099
15,0.4822,0.9766,-0.5698,0.4152,-0.1208,-0.1095,2046
15,0.0596,1.0325,-0.6919,0.4699,-0.185,-0.5022,1997
15,0.1672,0.9792,-0.7102,0.3566,-0.1007,-0.6628,2004
15,0.1826,0.9355,-0.7205,0.2365,0.0567,-0.5885,1876
15,0.1753,0.8381,-0.6472,-0.0614,0.1619,-0.3835,1986
15,0.1875,0.834,-0.5745,-0.326,0.2783,-0.2495,2051
15,0.2578,0.8718,-0.5444,-0.6613,0.1847,-0.1517,2097
15,0.2869,0.9712,-0.5422,-0.9116,0.0771,-0.1541,2020
15,0.3479,1.0159,-0.6909,-1.0644,-0.2373,-0.2931,2039
15,0.2544,1.0737,-0.7717,-1.0216,-0.3442,-0.39,2214
15,-0.0171,1.1831,-0.7822,-0.9317,-0.2629,-0.5542,2076
15,-0.0325,1.1067,-0.8447,-0.9815,-0.1076,-0.6241,2005
15,0.0776,1.2317,-0.7759,-1.0737,-0.2285,-0.9036,2177
15,0.2698,1.0989,-0.6577,-1.1754,-0.2421,-0.9501,2060
15,0.2483,0.9585,-0.5352,-1.3081,-0.2545,-0.9954,2041
15,0.301,1.082,-0.5361,-1.4715,-0.4747,-1.0167,2122
15,0.269,1.2295,-0.51,-1.7626,-0.4529,-1.1862,2019
15,0.2253,1.2947,-0.5938,-1.9655,-0.479,-1.4568,2045
15,0.2969,1.3162,-0.688,-2.2217,-0.4859,-1.6058,1758
15,0.2451,1.3152,-0.7332,-2.3637,-0.4107,-1.7516,2118
15,0.1792,1.3596,-0.833,-2.5932,-0.4052,-1.8211,2187
15,0.1467,1.271,-0.7998,-2.907,-0.0124,-2.0084,2068
15,0.0374,1.4922,-0.8264,-3.0717,0.1422,-2.3623,2017
15,0.0991,1.3877,-0.9685,-3.1777,0.3002,-2.74,2062
15,0.0608,1.3677,-0.991,-3.266,0.4147,-3.068,2058
15,0.1384,1.3237,-0.8779,-3.4943,0.3554,-3.3083,1918
15,0.2759,1.2554,-0.8994,-3.691,0.3804,-3.3804,2094
15,0.2703,1.2212,-0.9143,-3.6145,0.4372,-3.4005,2143
15,0.3235,1.2666,-0.9392,-3.3842,0.2412,-3.3496,2056
15,0.3491,1.1555,-0.9514,-3.0704,0.0863,-3.3093,2074
15,0.3342,0.937,-0.9797,-2.7651,-0.1123,-3.3014,1978
15,0.3862,0.7051,-1.0491,-2.4105,-0.1848,-3.0878,2175
15,0.3445,0.4727,-1.0032,-2.0619,-0.3524,-2.9031,2039
15,0.2432,0.2798,-1.063,-1.6941,-0.379,-2.6157,2072
16,0.2642,0.1284,-1.095,-1.2017,-0.5444,-2.3657,2027
16,0.2539,-0.0442,-0.9275,-0.9918,-0.5822,-1.9964,2206
16,0.1123,-0.1609,-0.9934,-0.549,-0.6187,-1.6246,2137
16,0.291,-0.2729,-1.1267,-0.0489,-1.0965,-1.415,2189
16,0.5188,-0.3284,-1.1711,0.0607,-1.0075,-0.7737,2049
16,-2.0,-1.9028,1.9999,-3.7328,2.4884,-0.6092,1982
16,-0.8169,1.9999,-2.0,4.3634,-4.3635,-4.121,1956
16,1.9999,1.9999,1.9999,-0.6794,0.7609,4.3634,1931
16,0.5308,1.1265,1.9999,-1.6592,4.3634,0.4498,2045
16,-1.2493,-0.8987,-0.8064,0.7469,-1.3018,-0.0475,2008
16,0.1599,-1.3684,-1.4417,0.0109,-2.009,-0.7211,2047
16,1.374,-0.2375,-1.1038,0.6449,-1.8302,2.4582,2179
16,0.0347,0.1545,-0.8276,1.5446,-1.7934,3.016,2046
16,-0.8931,0.4402,-0.7964,1.7547,-0.711,2.6626,2029
16,-0.6309,0.8745,-0.5718,2.0738,0.5469,2.1292,2002
16,0.0647,0.8655,-0.3455,2.2562,0.9403,1.8471,2166
16,0.3123,0.333,-0.4648,2.4172,0.8799,1.7337,2019
16,0.219,0.0452,-0.3054,2.3614,0.5861,1.6908,2024
16,-0.0518,0.2856,-0.1106,2.3878,0.4151,1.7333,2016
16,-0.1548,0.5618,-0.0613,2.3981,0.651,1.6222,2112
16,-0.1104,0.823,-0.0422,2.1722,0.871,1.6359,2075
16,-0.0505,0.9756,-0.0825,1.8607,0.9573,1.741,2029
16,-0.0261,0.8479,-0.2512,1.6816,1.0302,1.7744,2092
16,0.0703,0.7356,-0.4646,1.6985,0.7915,1.7793,2033
16,0.1814,0.7241,-0.5906,1.7217,0.5192,1.8583,2093
16,0.1389,0.6887,-0.6157,1.7572,0.3356,1.9307,2064
16,0.0459,0.6543,-0.5535,1.7869,0.2444,1.8971,2062
16,0.0615,0.6794,-0.5488,1.8395,0.2586,1.8491,2086
16,0.0623,0.6677,-0.5217,1.8193,0.2147,1.7602,2077
16,0.1169,0.6243,-0.5264,1.7462,0.1373,1.6546,2062
16,0.1582,0.5664,-0.5278,1.639,0.0723,1.5976,2073
16,0.1895,0.5508,-0.575,1.4639,0.0138,1.5278,2058
16,0.1753,0.5256,-0.6206,1.3194,-0.0053,1.4938,2053
16,0.1663,0.5195,-0.6541,1.1541,-0.0499,1.4237,2058
16,0.1787,0.5095,-0.6965,1.0704,-0.025,1.3885,2137
16,0.2344,0.5107,-0.7146,1.0063,0.0148,1.3691,2038
16,0.2451,0.4893,-0.7556,0.9544,0.0557,1.3744,2067
16,0.2705,0.5251,-0.7908,0.9413,0.1449,1.3014,2066
16,0.3518,0.5444,-0.7776,0.8954,0.1675,1.2516,2040
16,0.3806,0.5369,-0.8396,0.8911,0.034,1.26,2042
16,0.3489,0.5195,-0.7969,0.8813,-0.002,1.2563,2034
16,0.4316,0.5417,-0.7068,0.732,-0.0783,1.2607,2049
16,0.7412,0.7478,-0.8911,0.8112,-0.3898,1.3234,2049
16,0.3059,0.3279,-0.7915,0.7064,-0.0344,1.3344,2053
16,0.2534,0.4968,-0.6418,0.6565,0.006,1.2133,2074
16,0.4915,0.7317,-0.6982,0.6798,0.0376,1.1572,2048
16,0.5569,0.7361,-0.7292,0.6873,0.1027,1.0857,2054
16,0.4697,0.8118,-0.7456,0.6835,-0.0107,0.8548,2030
16,0.4751,0.8474,-0.7432,0.5755,-0.1322,0.5703,2099
16,0.4243,0.7905,-0.6667,0.6043,0.0623,0.497,2032
16,0.324,0.7202,-0.5779,0.4998,0.249,0.4215,2073
16,0.3552,0.7637,-0.6062,0.4585,0.389,0.3526,2071
16,0.3972,0.8491,-0.7007,0.408,0.33,0.2946,2050
16,0.3257,0.8225,-0.6133,0.1796,0.295,0.1405,2050
16,0.3171,0.8372,-0.6689,0.123,0.3806,0.0238,2047
16,0.3325,0.8755,-0.6401,0.1163,0.3269,-0.0543,2008
16,0.3125,0.9041,-0.6172,-0.0158,0.3271,-0.0656,2101
16,0.3113,0.9473,-0.6294,-0.1269,0.3276,-0.0495,2067
16,0.3137,1.0076,-0.6602,-0.2659,0.2155,-0.1402,2090
16,0.2805,1.0024,-0.6504,-0.4386,0.0161,-0.2393,2019
16,0.26,0.9958,-0.6238,-0.6156,-0.0848,-0.3822,2041
16,0.2305,1.0444,-0.636,-0.6867,-0.0806,-0.5051,2031
16,0.2534,1.0654,-0.6099,-0.7628,-0.1067,-0.6522,2071
16,0.2913,1.0564,-0.6196,-0.8767,-0.2208,-0.7482,2037
16,0.2922,1.0737,-0.6206,-0.9508,-0.2304,-0.8483,2021
16,0.2529,1.0776,-0.6221,-1.0247,-0.1601,-0.9934,2049
16,0.2573,1.103,-0.667,-1.1001,-0.2019,-1.185,1993
16,0.2251,1.1216,-0.6934,-1.2422,-0.2211,-1.3724,2022
16,0.2087,1.1628,-0.7195,-1.3641,-0.1846,-1.546,2047
16,0.2202,1.2356,-0.7263,-1.485,-0.2613,-1.6757,2065
16,0.2009,1.2817,-0.7024,-1.7467,-0.3723,-1.8052,2111
16,0.2495,1.2969,-0.6907,-1.9672,-0.4247,-1.9405,2090
16,0.3479,1.314,-0.6802,-2.1301,-0.5469,-1.9204,2069
16,0.3447,1.3904,-0.6448,-2.3397,-0.6397,-1.9844,2126
16,0.0396,1.4883,-0.7041,-2.4634,-0.8122,-2.3435,2014
16,0.1355,1.6665,-0.782,-2.5747,-0.8329,-2.5939,2007
16,0.1099,1.5947,-0.7097,-2.968,-0.7757,-2.7857,2073
16,-0.0906,1.4419,-0.7451,-3.2029,-0.8062,-3.001,2101
16,0.0444,1.5596,-0.6279,-3.4568,-1.0585,-3.1497,2014
16,0.0713,1.5085,-0.2861,-3.8383,-0.9347,-3.3372,2123
16,0.0632,1.3726,-0.415,-4.0976,-0.51,-3.2882,2058
16,0.0935,1.2803,-0.4644,-4.2483,-0.2843,-3.4544,2076
16,0.2449,1.2124,-0.5632,-4.2956,-0.2843,-3.7191,1991
16,0.2854,1.1729,-0.7505,-4.0821,-0.1738,-3.8582,2059
16,0.2966,1.1189,-0.8181,-3.8583,-0.2806,-3.9194,2010
16,0.22,1.0254,-0.9302,-3.5913,-0.3185,-3.8227,2137
16,0.0903,0.8899,-1.1038,-3.069,-0.2827,-3.6862,2045
16,0.3958,0.6453,-1.1467,-2.8003,-0.2441,-3.4166,1990
16,0.5291,0.4983,-1.2415,-2.2144,-0.141,-2.922,2058
16,0.929,0.8103,-2.0,-0.5382,-0.9329,-2.219,1999
16,1.4004,0.4927,-1.8218,-0.1615,-1.3625,-1.1798,2062
16,0.6306,-0.4736,-1.7974,0.2518,-0.2549,-0.3607,1963
16,-2.0,-2.0,1.9999,-3.0156,3.1685,0.3922,2146
16,-2.0,-2.0,-2.0,2.321,-1.1318,-4.0985,1875
16,1.9999,1.9999,0.1089,3.7382,-3.9981,2.6859,2200
16,0.3042,1.9999,1.9999,-1.9939,4.3634,4.3634,1944
16,-0.3716,0.4077,0.3875,1.9078,2.44,-3.1907,1920
16,-0.2749,-1.7344,-0.9626,2.0651,-3.0742,2.4792,2120
16,1.3513,-0.7227,-1.0725,2.2859,-0.2874,1.3989,2220
16,0.5024,0.2495,-0.8831,2.2735,-0.7489,3.2513,2200
16,-0.9185,0.3025,-0.8518,2.5896,-0.3976,2.6474,2026
17,-0.3672,0.8586,-0.749,3.0597,0.2697,2.1505,1951
17,0.1021,0.9429,-0.7578,2.9975,1.2165,2.1125,1958
17,-0.1082,0.4238,-0.4465,2.7109,1.1764,2.1518,1951
17,-0.4949,0.074,-0.3076,2.3804,1.3784,1.6439,2051
17,-0.0393,0.3679,-0.2429,2.3481,0.9729,1.6893,2000
17,-0.0203,0.5366,-0.4319,2.282,0.5514,1.906,2021
17,-0.3716,0.7063,-0.436,1.9238,0.2626,1.8768,2056
17,-0.3398,0.8774,-0.2781,2.068,0.3478,1.8913,2097
17,-0.3687,0.8345,-0.5195,2.1971,0.4131,1.8118,2074
17,-0.3132,0.7678,-0.3474,2.0739,0.3366,1.6894,2107
17,-0.2686,0.7495,-0.4592,2.1405,0.355,1.4822,2059
17,-0.2009,0.6738,-0.2588,1.9496,0.3721,1.2256,2019
17,0.0349,0.6985,-0.3662,1.7729,0.273,1.1545,2063
17,0.0576,0.6804,-0.4133,1.5376,0.2737,1.2122,2043
17,0.0261,0.6897,-0.4807,1.352,0.275,1.2238,2051
17,0.1045,0.7068,-0.5361,1.1489,0.2948,1.2476,2058
17,0.2192,0.7156,-0.6597,1.0135,0.326,1.3488,2061
17,0.2332,0.7141,-0.7937,0.9748,0.3326,1.4055,2056
17,0.155,0.6479,-0.791,0.9464,0.3196,1.3533,2049
17,0.2275,0.6379,-0.824,0.962,0.3404,1.2914,2056
17,0.3425,0.6799,-0.8403,0.9914,0.3494,1.2764,2097
17,0.3247,0.6799,-0.8999,1.0247,0.3352,1.2563,2022
17,0.2781,0.6819,-0.844,1.0244,0.3987,1.2583,2031
17,0.3342,0.6863,-0.8445,1.017,0.4239,1.2094,2113
17,0.407,0.7056,-0.8569,0.9573,0.3457,1.2174,2076
17,0.387,0.6948,-0.8555,0.8376,0.1964,1.1757,2054
17,0.2979,0.6746,-0.8271,0.7821,0.0581,1.0272,2067
17,0.2393,0.696,-0.7981,0.765,0.0282,0.8175,2058
17,0.2439,0.7131,-0.7222,0.7787,0.0257,0.6943,2032
17,0.2568,0.6694,-0.7053,0.7213,0.1108,0.6644,2054
17,0.3374,0.6372,-0.7292,0.7557,0.3083,0.7537,2111
17,0.3789,0.5962,-0.5964,0.6542,0.5136,0.927,2050
17,0.4414,0.7751,-0.5989,0.5874,0.5117,1.0327,2120
17,0.4653,0.9248,-0.7244,0.3627,0.035,0.9485,2089
17,0.4099,0.9021,-0.5894,0.2389,0.2424,0.8236,2094
17,0.3457,0.9426,-0.6672,0.4079,0.2836,0.7416,2026
17,0.3591,0.9658,-0.6897,0.4434,0.1119,0.689,2049
17,0.3164,0.9082,-0.7021,0.3832,0.1346,0.7074,2095
17,0.2334,0.9146,-0.6274,0.3345,0.3305,0.6064,2094
17,0.2124,0.9309,-0.6343,0.2252,0.3017,0.4898,2090
17,0.2068,0.9309,-0.6257,0.0625,0.1783,0.3711,2048
17,0.1921,0.9407,-0.6394,-0.1065,0.057,0.2378,2028
17,0.1506,0.9807,-0.613,-0.2201,0.1159,0.1386,2032
17,0.1045,0.9983,-0.6016,-0.2952,0.1724,0.0611,2106
17,0.103,1.021,-0.5911,-0.4217,0.0984,-0.0013,2050
17,0.0935,1.0334,-0.5659,-0.606,0.0498,-0.0736,2071
17,0.0901,1.011,-0.5371,-0.765,-0.0031,-0.2047,2141
17,0.1169,1.0396,-0.5249,-0.8894,-0.0714,-0.3449,1989
17,0.1526,1.0813,-0.5222,-0.991,-0.1293,-0.5054,2023
17,0.1941,1.0957,-0.5183,-1.0812,-0.2497,-0.6505,2124
17,0.1672,1.1599,-0.5576,-1.2236,-0.3039,-0.8179,2118
17,0.1882,1.2163,-0.6064,-1.325,-0.3117,-0.9749,2093
17,0.2134,1.2576,-0.6008,-1.4683,-0.3425,-1.0717,2049
17,0.2595,1.3037,-0.4944,-1.6594,-0.3101,-1.1266,2048
17,0.2629,1.3669,-0.4741,-1.8333,-0.3008,-1.1635,2071
17,0.2512,1.4294,-0.4434,-2.0698,-0.4338,-1.1451,2095
17,0.1729,1.5151,-0.5476,-2.2605,-0.6271,-1.171,2098
17,0.1326,1.5981,-0.6614,-2.5334,-0.7684,-1.2854,2101
17,0.0776,1.6147,-0.6882,-2.8452,-0.7103,-1.4049,2053
17,-0.0295,1.6016,-0.7324,-3.0827,-0.5677,-1.684,2174
17,-0.0437,1.5747,-0.7502,-3.3184,-0.3437,-2.0418,1971
17,-0.0156,1.5469,-0.7891,-3.4363,-0.061,-2.4433,1982
17,-0.0227,1.5378,-0.8276,-3.4674,0.0477,-2.9425,2013
17,0.0171,1.458,-0.759,-3.5499,0.0854,-3.3937,2068
17,0.0781,1.313,-0.7166,-3.6324,0.0756,-3.6724,2066
17,0.157,1.1851,-0.637,-3.8029,-0.0655,-3.8177,1996
17,0.2466,1.0896,-0.6289,-3.925,-0.1446,-3.8291,2100
17,0.2996,1.1633,-0.7407,-3.8929,-0.2626,-3.8572,2135
17,0.3601,1.0938,-0.8188,-3.8974,-0.367,-3.9005,1988
17,0.4199,0.9202,-0.8796,-3.4545,-0.2578,-3.7406,2102
17,0.3245,0.9038,-1.1023,-3.1614,-0.2561,-3.7046,2046
17,0.5852,0.7202,-1.2136,-2.7303,-0.5988,-3.6307,2103
17,1.0227,0.7395,-1.9644,-1.7685,-0.7986,-2.9662,2048
17,1.2595,0.791,-1.8845,-0.9608,-1.0099,-1.8978,2053
17,1.1152,0.1931,-1.6465,-0.4595,-0.9881,-1.0589,2036
17,0.4373,-0.5757,-1.6292,-0.0312,-0.7863,-0.4663,2007
17,0.5894,-1.2158,-1.5444,0.8843,-2.0679,-0.3112,1931
17,-1.489,-2.0,1.9999,-2.8167,2.3495,0.8323,2063
17,-2.0,-2.0,-1.9131,2.2768,-1.0587,-2.0699,2315
17,1.9999,1.9999,1.4167,4.3634,-4.3635,4.3137,2055
17,0.9065,1.9999,1.9999,-1.537,4.3634,4.3634,1687
17,-0.0557,-1.4058,-0.2383,0.5614,2.8476,-2.4623,2033
17,-1.2881,-2.0,-1.7412,0.9893,-4.3635,0.6438,2097
17,1.0725,-1.4116,-1.29,0.643,-1.3033,0.589,2224
17,-0.2661,0.5823,-0.866,2.1116,-1.8383,3.1288,2179
17,-1.2432,0.9795,-0.918,2.2824,-0.6757,1.5562,1929
17,-0.928,1.1382,-0.6133,2.6081,1.0933,0.9911,2058
17,-0.2932,1.0061,-0.6023,2.9558,1.5793,0.8079,2024
17,0.0862,0.2185,-0.3757,2.9054,1.548,0.922,2047
17,0.0544,-0.0085,-0.3276,2.7872,1.537,1.0987,2015
17,-0.1321,0.2537,-0.2402,2.7104,1.0829,1.3388,2132
17,-0.0972,0.4768,-0.0815,2.5149,0.7341,1.4921,2056
17,-0.0259,0.7832,-0.0491,2.3888,0.8275,1.6896,2063
17,0.0542,0.9653,-0.1428,2.1338,0.8179,1.905,1965
17,0.1213,0.9502,-0.2939,2.0369,0.7738,2.12,2010
17,0.0925,0.8223,-0.4702,2.0281,0.783,2.0718,2059
17,0.1489,0.7617,-0.5962,2.1133,0.7356,2.0379,2048
17,0.1558,0.7083,-0.624,2.1925,0.7288,1.9789,2075
17,0.1982,0.7493,-0.5496,2.2234,0.7337,1.8753,2069
17,0.1863,0.7371,-0.5049,2.2206,0.8689,1.829,2006
17,0.2085,0.689,-0.4951,2.1831,0.9726,1.7733,2039
17,0.3005,0.7109,-0.553,2.1486,1.0592,1.7596,2050
18,0.2454,0.6853,-0.5688,2.0796,1.1316,1.6917,2059
18,0.1995,0.7041,-0.561,2.0117,1.1347,1.5577,2053
18,0.207,0.7542,-0.6021,1.9611,1.1745,1.4081,2059
18,0.2297,0.7515,-0.646,1.8892,1.2439,1.2697,2050
18,0.2634,0.7473,-0.6602,1.8148,1.2129,1.1551,2062
18,0.269,0.7349,-0.7295,1.7086,1.1797,1.0718,2039
18,0.2959,0.7178,-0.7727,1.5894,1.1276,0.9617,2053
18,0.2891,0.7246,-0.8091,1.4885,1.0858,0.8646,2094
18,0.3379,0.7183,-0.8474,1.4022,0.9677,0.8291,2049
18,0.3684,0.6694,-0.8928,1.3133,0.7268,0.8333,2039
18,0.4043,0.6455,-0.8723,1.227,0.6201,0.8451,2048
18,0.3477,0.6326,-0.8916,1.1227,0.5498,0.8487,2049
18,0.2847,0.6533,-0.8555,1.0531,0.5851,0.8172,2049
18,0.2368,0.6697,-0.8616,0.9749,0.5642,0.7373,2059
18,0.2231,0.7024,-0.8477,0.8958,0.5908,0.6344,2062
18,0.2273,0.7061,-0.8174,0.7384,0.5568,0.5296,2030
18,0.3181,0.7139,-0.844,0.6434,0.4695,0.504,2092
18,0.2778,0.707,-0.8354,0.5304,0.3629,0.5026,2009
18,0.2522,0.7107,-0.7441,0.333,0.1827,0.4368,2063
18,0.2627,0.6392,-0.7507,0.2788,0.057,0.4655,2063
18,0.1099,0.6108,-0.6792,0.1892,0.1586,0.3714,2109
18,0.0952,0.7302,-0.7671,0.2531,0.3304,0.3247,2103
18,0.1323,0.7734,-0.7361,0.2238,0.2866,0.2197,2043
18,0.126,0.7429,-0.6853,0.0442,0.2353,0.1354,2103
18,0.1453,0.7798,-0.637,-0.0523,0.2587,0.1398,2074
18,0.1699,0.8289,-0.6343,-0.1622,0.2088,0.1766,2072
18,0.0603,0.8,-0.6187,-0.2972,0.2398,0.1924,2052
18,0.0007,0.8225,-0.6387,-0.4393,0.122,0.1361,2154
18,0.1111,0.8552,-0.6648,-0.6213,-0.0306,0.131,2108
18,0.144,0.928,-0.6846,-0.8148,-0.0917,0.1032,2039
18,0.0854,0.9607,-0.6887,-0.9545,-0.2192,0.0208,2068
18,0.1055,0.9771,-0.7239,-1.0381,-0.3535,-0.031,2019
18,0.127,1.0129,-0.7827,-1.0943,-0.4,-0.0518,2095
18,0.1367,1.0859,-0.8291,-1.1525,-0.3255,-0.0467,2017
18,0.1228,1.0503,-0.8159,-1.2724,-0.3935,-0.1378,2032
18,0.1443,0.9905,-0.7742,-1.3782,-0.4002,-0.1852,2049
18,0.2117,1.019,-0.7314,-1.4376,-0.4687,-0.2223,2069
18,0.2175,1.0696,-0.7141,-1.5226,-0.5754,-0.3522,1992
18,0.2119,1.0686,-0.7288,-1.6021,-0.6522,-0.4594,2104
18,0.1672,1.0315,-0.7307,-1.7045,-0.656,-0.5786,2061
18,0.1619,1.0378,-0.803,-1.8125,-0.7178,-0.6785,2089
18,0.1326,1.0793,-0.8147,-1.9847,-0.6425,-0.7926,2096
18,0.0703,1.1128,-0.8237,-2.1473,-0.5456,-0.9172,2058
18,0.0164,1.166,-0.812,-2.3702,-0.5522,-1.1282,2040
18,0.0212,1.2341,-0.8162,-2.5824,-0.5999,-1.2694,2058
18,0.0361,1.3259,-0.8457,-2.7199,-0.7363,-1.4231,2045
18,0.0325,1.4231,-0.8184,-2.914,-0.8785,-1.627,2116
18,0.0515,1.52,-0.8811,-3.0332,-1.0443,-1.8362,2115
18,0.1206,1.5627,-0.9028,-3.1903,-1.1463,-1.9943,1979
18,0.1335,1.5078,-0.8018,-3.3665,-1.1564,-2.1656,2102
18,0.1106,1.4548,-0.7759,-3.5047,-1.1572,-2.3666,2066
18,0.2156,1.4353,-0.6956,-3.6029,-1.1148,-2.5867,2090
18,0.3191,1.3621,-0.6084,-3.7697,-0.995,-2.7916,2051
18,0.4429,1.1978,-0.5166,-3.874,-0.811,-2.922,2043
18,0.552,1.084,-0.5361,-3.813,-0.6387,-3.0003,2062
18,0.6001,0.981,-0.4485,-3.6809,-0.6144,-3.0737,2143
18,0.6599,0.9822,-0.5698,-3.4326,-0.5496,-2.9023,2180
18,0.4673,0.876,-0.6707,-3.1227,-0.3325,-2.8319,2071
18,0.3962,0.7812,-0.7747,-2.6703,-0.4273,-2.752,2053
18,0.3667,0.6003,-0.7844,-2.3342,-0.4024,-2.5546,2116
18,0.3501,0.4692,-0.9175,-1.825,-0.4089,-2.2909,1976
18,0.3542,0.3201,-0.9888,-1.439,-0.2964,-2.0505,2055
18,0.3936,0.0908,-0.9624,-0.983,-0.1119,-1.7466,2133
18,0.3481,-0.176,-0.5562,-0.92,-0.1682,-1.3817,1981
18,1.0837,-0.488,0.437,-1.6985,-0.4215,-1.1477,2014
18,0.856,-0.6938,0.1135,-1.1252,1.4797,0.557,2170
18,-2.0,-1.3391,1.9999,-4.3635,2.4762,-1.3454,2178
18,1.9999,1.9999,-2.0,4.3634,-4.3635,-1.2684,2426
18,1.9999,1.9999,1.5413,-2.5775,1.4175,4.3634,1632
18,0.29,0.343,0.7151,-0.6313,2.3228,-0.5494,2109
18,-2.0,-1.1367,-0.6216,0.1362,-1.9564,-0.8745,2012
18,-1.1638,-1.2004,-1.071,0.8136,-2.2694,-0.9753,2072
18,1.0005,-0.2,-0.9966,1.3477,-0.1272,1.5302,2256
18,-0.127,0.0842,-0.8259,1.7277,0.2344,2.0885,2067
18,-1.0542,0.3955,-0.6514,1.9584,0.0694,1.6811,2622
18,-0.6792,0.8696,-0.4893,2.6273,1.6225,1.08,1812
18,-0.1919,0.6943,-0.4868,2.6208,1.9746,1.1852,2052
18,-0.012,0.3425,-0.2817,2.7422,1.4922,1.0926,1879
18,0.1123,0.1926,-0.043,2.8094,1.2251,1.1544,2177
18,0.0122,0.4314,0.106,2.73,1.0188,1.4737,2026
18,-0.075,0.6526,0.2627,2.3312,0.7431,1.848,2170
18,-0.1072,0.8286,0.0046,2.1036,0.7773,2.2321,2166
18,-0.2622,0.895,-0.2649,2.1345,0.8285,2.3896,2073
18,-0.2874,0.886,-0.4766,2.1487,0.7044,2.3708,2063
18,-0.0891,0.8108,-0.6299,2.2233,0.5252,2.5071,2007
18,-0.0078,0.7554,-0.5857,2.1583,0.3891,2.4743,2060
18,0.0103,0.76,-0.6753,2.1055,0.2349,2.4115,2051
18,-0.0051,0.8381,-0.7043,2.0683,0.0763,2.224,2108
18,0.0046,0.9399,-0.6658,2.0471,-0.0164,2.127,2040
18,0.0237,0.9143,-0.6294,1.9446,-0.065,1.9419,2065
18,0.064,0.842,-0.4795,1.8342,-0.0708,1.7113,2031
18,0.1819,0.7957,-0.3965,1.6797,-0.1202,1.5745,2152
18,0.231,0.728,-0.3398,1.56,-0.1665,1.436,2011
18,0.1396,0.6533,-0.3635,1.5047,-0.0529,1.326,2148
18,0.1064,0.5691,-0.4583,1.4474,0.1447,1.168,2030
18,0.2468,0.5044,-0.5623,1.3223,0.281,1.062,2035
18,0.3748,0.551,-0.7224,1.1808,0.3326,1.2081,2054
18,0.302,0.6238,-0.7998,1.0758,0.2947,1.1539,2051
18,0.2664,0.6028,-0.7708,1.0286,0.326,1.0388,2025
18,0.2808,0.6282,-0.7976,0.9652,0.2671,0.9425,2021
18,0.3159,0.583,-0.7751,0.9674,0.2892,0.8919,2154
18,0.3108,0.5994,-0.8286,1.0583,0.5141,0.9475,2020
18,0.2625,0.6013,-0.8301,1.0943,0.5212,0.8997,2130
18,0.4209,0.6543,-0.78,0.927,0.3221,0.8866,1959
18,0.6365,0.7607,-0.8826,0.8815,0.1551,1.0275,2088
19,0.3628,0.7805,-0.8669,0.8352,0.0992,0.8811,2104
19,0.3259,0.8479,-0.8157,0.924,0.0706,0.7267,2058
19,0.3098,0.8796,-0.7466,0.9854,0.0956,0.6458,2064
19,0.3091,0.8401,-0.7173,0.9769,0.0943,0.5679,2019
19,0.4058,0.813,-0.6794,0.9523,-0.0333,0.5421,2034
19,0.4153,0.8088,-0.6448,0.8773,-0.0704,0.441,2098
19,0.4131,0.7678,-0.6108,0.714,-0.1864,0.3388,2071
19,0.3459,0.7776,-0.6152,0.5622,-0.2772,0.2254,2031
19,0.3801,0.8108,-0.6348,0.4797,-0.1983,0.1189,2068
19,0.3787,0.8389,-0.6702,0.3482,-0.1724,0.0198,2045
19,0.2788,0.8555,-0.6877,0.2131,-0.137,-0.051,2172
19,0.2698,0.8794,-0.6448,0.0856,-0.083,-0.1619,2092
19,0.3806,0.8735,-0.6646,-0.0985,-0.03,-0.1843,2055
19,0.2812,0.7876,-0.5598,-0.2931,0.055,-0.2317,2069
19,0.2832,0.7947,-0.5276,-0.3872,-0.1445,-0.3729,2073
19,0.4309,0.8528,-0.47,-0.5359,-0.3615,-0.4943,2135
19,0.2925,0.9531,-0.4697,-0.6557,-0.4558,-0.5726,1987
19,0.2595,0.8723,-0.4541,-0.7412,-0.1557,-0.6541,2182
19,0.2517,1.0249,-0.625,-0.7593,-0.1192,-0.7215,2091
19,0.2871,1.0732,-0.5701,-0.8632,0.0823,-0.697,2055
19,0.3198,0.9634,-0.5984,-0.9107,0.0298,-0.8036,2046
19,0.2754,1.1191,-0.4695,-1.0014,0.0904,-0.9702,2069
19,0.3005,1.0579,-0.4937,-1.1263,-0.2482,-1.0592,2065
19,0.3413,1.0847,-0.4646,-1.233,-0.2404,-1.0905,2099
19,0.2515,1.0842,-0.5251,-1.347,-0.3137,-1.1226,2113
19,0.2627,1.0725,-0.5559,-1.5857,-0.4762,-1.2318,2013
19,0.2866,1.0093,-0.543,-1.8752,-0.4574,-1.3323,2154
19,0.2834,1.0012,-0.5508,-2.1466,-0.3129,-1.3577,1975
19,0.2893,1.1125,-0.6099,-2.3792,-0.2505,-1.3792,2129
19,0.2905,1.3291,-0.6467,-2.5966,-0.1469,-1.3864,2020
19,0.2163,1.4409,-0.5979,-2.7814,0.0264,-1.6101,2020
19,0.2092,1.5337,-0.489,-2.8737,0.1021,-1.7685,2044
19,0.2034,1.6035,-0.4653,-2.9568,0.2016,-1.8329,2053
19,0.2507,1.5698,-0.5659,-3.0022,0.1582,-2.0104,1990
19,0.3301,1.5732,-0.5569,-3.1469,0.1028,-2.1768,2092
19,0.1375,1.5801,-0.5129,-3.2935,0.2306,-2.4543,2099
19,-0.0908,1.4888,-0.6135,-3.4114,0.2028,-2.8035,2130
19,-0.0652,1.3965,-0.7542,-3.5464,0.1443,-3.0902,2062
19,-0.0364,1.3357,-0.8579,-3.4725,0.1473,-3.2958,2234
19,-0.1213,1.2339,-0.9172,-3.3872,0.1537,-3.4601,2176
19,-0.1755,1.0007,-0.9705,-3.215,0.2195,-3.4053,2124
19,-0.0881,1.0627,-1.6262,-2.6742,0.3856,-3.2525,2053
19,0.1624,1.3655,-1.0134,-2.5834,-0.1136,-3.4568,2094
19,0.1213,0.7329,-1.3789,-1.9551,0.1458,-3.1776,1952
19,0.2578,0.5991,-1.2397,-1.4872,-0.7401,-3.2529,2124
19,0.7974,0.4883,-1.4585,-1.1447,-0.9052,-2.5527,1993
19,0.9851,0.4688,-1.5488,-0.068,-1.2202,-1.6029,2130
19,1.1133,0.0503,-1.2446,-0.1463,-1.4114,-0.7598,1996
19,0.1345,-1.6602,0.4561,-1.1211,0.4767,-0.1954,2163
19,-2.0,-2.0,1.2083,-2.4053,2.6369,0.0631,2054
19,1.9999,1.9999,-2.0,4.3634,-4.3635,-2.5653,2621
19,0.8777,1.9999,1.9999,-2.0449,1.8092,4.3634,2178
19,-0.7808,0.6462,0.0308,-0.8802,2.2099,-4.3635,1869
19,-1.1096,-2.0,-1.3911,0.4377,-1.8245,1.6376,1598
19,0.7866,-1.9189,-1.0164,0.402,-0.5086,0.3032,2301
19,0.4705,0.147,-0.8147,0.9697,-1.3866,3.528,2122
19,-0.9036,0.9766,-0.5261,1.4139,-0.2031,1.966,2236
19,-0.9832,0.917,-0.5872,1.9246,0.9223,1.5994,2055
19,-0.3794,0.886,-0.5325,2.1979,1.1087,1.0652,2021
19,-0.0078,0.3889,-0.4351,2.255,1.4258,1.0279,1945
19,-0.0159,0.0869,-0.332,2.3479,1.1559,1.0577,2197
19,-0.0691,0.1433,-0.3474,2.2242,0.8512,1.2239,2134
19,-0.1702,0.3655,-0.2688,2.0493,0.6685,1.4864,2090
19,-0.1663,0.6648,-0.1194,1.9688,0.6987,1.739,2015
19,-0.1013,0.8652,-0.05,1.8102,0.6155,1.9671,2030
19,-0.1069,0.8889,-0.1111,1.5656,0.6842,2.0915,2066
19,-0.0742,0.7854,-0.2463,1.4737,0.6035,2.0507,2143
19,-0.0305,0.7388,-0.4272,1.4852,0.416,1.9787,2048
19,-0.0249,0.752,-0.5105,1.4553,0.2995,1.9323,2043
19,-0.0706,0.7566,-0.5669,1.5018,0.3177,1.8253,2186
19,-0.0393,0.7883,-0.5833,1.6082,0.2413,1.7899,2056
19,0.0364,0.7361,-0.5007,1.606,0.0816,1.7558,2157
19,0.1917,0.76,-0.4241,1.5712,-0.0593,1.8122,2058
19,0.2551,0.7844,-0.4319,1.5692,-0.1621,1.943,2094
19,0.1365,0.7449,-0.407,1.5301,-0.2691,1.9438,2064
19,0.093,0.6658,-0.4021,1.4865,-0.367,1.8393,2091
19,0.0916,0.647,-0.3821,1.4687,-0.2843,1.6894,2099
19,0.1184,0.6506,-0.4126,1.3615,-0.2212,1.5318,2032
19,0.1309,0.637,-0.4731,1.234,-0.2641,1.3647,2048
19,0.1433,0.6475,-0.5471,1.1619,-0.2388,1.1816,2020
19,0.1848,0.6304,-0.6458,1.1326,-0.2911,1.0396,2062
19,0.2205,0.6208,-0.689,1.0555,-0.4537,0.9487,2041
19,0.2551,0.6245,-0.7173,0.9589,-0.6095,0.9548,2131
19,0.2273,0.5803,-0.6816,0.8058,-0.6737,0.9652,2164
19,0.3303,0.5532,-0.7473,0.6962,-0.5569,1.0596,2065
19,0.2773,0.5759,-0.8154,0.6609,-0.5036,1.1485,2092
19,0.1848,0.6243,-0.7827,0.6522,-0.4884,1.0837,2075
19,0.2673,0.6353,-0.7515,0.545,-0.4513,1.0348,2057
19,0.3359,0.6392,-0.7241,0.5321,-0.4626,1.0152,2056
19,0.4009,0.6089,-0.6819,0.5369,-0.3642,1.0033,2015
19,0.3979,0.5745,-0.6899,0.6241,-0.3236,0.9207,2089
19,0.3962,0.6001,-0.6003,0.6682,-0.3112,0.8317,2046
19,0.5125,0.6909,-0.6782,0.7287,-0.2653,0.7682,2041
19,0.3926,0.7695,-0.7192,0.763,-0.3337,0.5817,2070
19,0.3484,0.7849,-0.7544,0.7986,-0.2786,0.3987,2113
19,0.3953,0.7324,-0.7483,0.8178,-0.169,0.1344,2088
19,0.323,0.6873,-0.6987,0.8718,0.1075,0.0012,2066
19,0.2896,0.6843,-0.6692,0.8552,0.2349,-0.106,2067
19,0.3474,0.7136,-0.6909,0.7941,0.3089,-0.1719,2019
19,0.396,0.6899,-0.6399,0.6544,0.3277,-0.2136,2162
19,0.3005,0.6753,-0.6353,0.5067,0.2133,-0.2863,2070
20,0.2244,0.6467,-0.573,0.3064,0.1069,-0.3947,2107
20,0.2085,0.6614,-0.605,0.1268,0.0906,-0.3955,2009
20,0.1787,0.783,-0.6973,0.0264,0.1458,-0.3474,2024
20,0.2144,0.8879,-0.7139,-0.0963,0.0842,-0.2951,2073
20,0.2395,0.9187,-0.6907,-0.2754,0.0008,-0.2503,2096
20,0.1533,0.9243,-0.6538,-0.4151,0.092,-0.2558,2059
20,0.1604,0.9814,-0.5916,-0.5062,-0.0767,-0.2681,2015
20,0.2349,0.9819,-0.561,-0.7062,-0.1145,-0.224,2037
20,0.292,0.946,-0.53,-0.8616,-0.2092,-0.267,2008
20,0.2725,0.9788,-0.5732,-0.9693,-0.4297,-0.3464,2071
20,0.2402,1.0942,-0.5574,-1.0465,-0.4962,-0.5492,2056
20,0.2102,1.1687,-0.6226,-1.0714,-0.3659,-0.7296,1912
20,0.231,1.2737,-0.5933,-1.0757,-0.2055,-0.8569,1894
20,0.158,1.3088,-0.5408,-1.2171,-0.0904,-0.9435,2103
20,0.2505,1.2727,-0.4905,-1.4182,-0.126,-1.0154,2158
20,0.3521,1.2864,-0.5334,-1.584,-0.1826,-1.1066,2061
20,0.3872,1.3696,-0.46,-1.7337,-0.2984,-1.2461,1871
20,0.3223,1.4658,-0.4883,-1.9764,-0.4926,-1.4549,2176
20,0.2104,1.541,-0.4751,-2.3049,-0.5159,-1.6523,2138
20,0.1116,1.5581,-0.6008,-2.608,-0.4506,-1.8463,2034
20,0.1296,1.6113,-0.563,-2.9428,-0.2938,-2.0182,1999
20,0.0537,1.6758,-0.4785,-3.1737,0.0193,-2.2092,2133
20,-0.0422,1.6743,-0.4634,-3.4665,0.1012,-2.4691,2006
20,0.0093,1.626,-0.479,-3.7395,0.1075,-2.6295,2195
20,0.0796,1.5498,-0.4934,-3.9564,0.1027,-2.7101,2050
20,0.0647,1.4697,-0.5193,-4.0286,0.2282,-2.8496,2090
20,-0.0012,1.3794,-0.5518,-4.1078,0.3615,-3.0395,2065
20,0.0278,1.3477,-0.6892,-4.147,0.3141,-3.2846,2161
20,0.0459,1.2354,-0.6707,-4.0642,0.4477,-3.4109,2020
20,0.0957,1.1089,-0.7971,-3.9386,0.3864,-3.4652,2062
20,0.1687,1.1382,-0.8811,-3.6495,0.4015,-3.3844,2101
20,0.2112,1.1938,-1.2031,-2.9248,0.2803,-3.3308,2174
20,0.2996,1.1101,-1.4048,-2.4286,0.0951,-3.0697,2189
20,0.4419,0.8428,-1.429,-1.7833,-0.0507,-2.7315,2063
20,0.6184,0.5847,-1.825,-0.8518,-0.4758,-2.1925,2137
20,0.7668,0.356,-1.8306,-0.2718,-1.0587,-1.4916,1946
20,0.8179,-0.0486,-1.4153,0.0061,-1.2725,-1.0709,1853
20,0.3904,-0.8943,-2.0,0.4392,-1.324,-0.5813,2000
20,-2.0,-2.0,1.9999,-4.2583,4.3634,-0.3763,1911
20,0.0293,-1.1965,-2.0,4.3634,-4.3635,-4.3635,1959
20,1.9999,1.9999,1.9999,-0.6381,-0.8835,4.3634,2022
20,-2.0,1.9999,1.9999,-0.0933,4.3634,-3.6974,2034
20,-1.1829,-1.2065,-1.6765,-1.4123,-4.2434,-2.5707,1728
20,-0.343,-2.0,-0.9902,-0.0011,-0.8404,0.2739,2115
20,1.4751,-1.2537,-1.1838,0.7311,-1.0009,1.5868,2237
20,0.1809,0.4097,-0.9971,1.7924,-2.1563,3.2524,2414
20,-0.8655,0.8442,-1.0281,2.3105,-0.4573,1.7456,2124
20,-0.9929,1.2466,-0.5198,2.5626,1.0906,1.5,2286
20,-0.5427,0.7839,-0.3235,2.7817,1.5825,0.8493,2016
20,-0.0671,0.2927,-0.2842,2.5863,1.9644,0.8901,1907
20,0.0012,0.1487,-0.1104,2.235,1.5016,1.095,2089
20,0.0518,0.3452,-0.2302,1.8711,1.2777,1.4189,1942
20,0.0129,0.7358,-0.3469,1.8639,0.8313,1.8323,2093
20,-0.2678,0.9062,-0.3831,1.7116,0.8375,2.0469,1939
20,-0.3713,0.8811,-0.4014,1.8763,0.8086,2.0212,2111
20,-0.1599,0.7534,-0.4438,2.0054,0.7401,2.1386,2037
20,-0.084,0.6465,-0.3992,2.0513,0.6918,2.1592,1809
20,0.0474,0.6965,-0.4016,2.0897,0.4833,2.2065,2135
20,0.0815,0.7947,-0.3574,1.9449,0.2996,2.2553,2157
20,0.0496,0.9521,-0.4243,1.9197,0.2566,2.155,2037
20,0.051,0.9233,-0.4297,1.7285,0.2136,1.9859,2029
20,0.0886,0.8828,-0.4104,1.5751,0.1595,1.9564,2048
20,0.1003,0.7888,-0.4771,1.5241,0.1824,1.8447,2041
20,0.1699,0.7644,-0.512,1.4877,0.182,1.7355,1959
20,0.1729,0.752,-0.4976,1.4514,0.1794,1.6261,2116
20,0.1365,0.7776,-0.4321,1.3864,0.173,1.5,2092
20,0.208,0.7295,-0.4731,1.2902,0.2714,1.3677,2023
20,0.1296,0.603,-0.585,1.2896,0.4876,1.4302,2046
20,0.0603,0.7415,-0.5479,1.3035,0.2968,1.1512,2444
20,0.262,0.5771,-0.7908,1.1637,0.1442,0.9572,1858
20,0.2239,0.6138,-0.7156,1.195,0.2533,0.9381,2009
20,0.1807,0.5256,-0.7454,1.2565,0.2935,0.9472,2037
20,0.2131,0.7622,-0.6245,1.2631,0.3721,0.6569,2050
20,0.3108,0.6638,-0.8521,1.1596,-0.0012,0.5438,2050
20,0.3381,0.6997,-0.6914,1.1083,-0.0109,0.5492,2055
20,0.3237,0.7004,-0.6348,1.0236,-0.138,0.5365,2022
20,0.2913,0.636,-0.6326,0.9337,-0.0799,0.5634,2066
20,0.2271,0.5981,-0.6189,0.8753,0.0293,0.5757,2065
20,0.2498,0.6089,-0.6233,0.8219,0.0594,0.5663,2049
20,0.3528,0.6428,-0.6621,0.8078,0.2292,0.5151,2050
20,0.4353,0.6516,-0.6694,0.7939,0.2823,0.5316,2066
20,0.4014,0.6553,-0.6516,0.6883,0.234,0.6004,2140
20,0.3213,0.6821,-0.6233,0.6163,0.2281,0.5645,2027
20,0.2852,0.5908,-0.5913,0.5617,0.4054,0.6094,2129
20,0.3284,0.6277,-0.6233,0.3551,0.261,0.4606,2072
20,0.4797,0.6682,-0.6465,0.3137,0.2939,0.5287,2100
20,0.281,0.677,-0.6257,0.2477,0.1393,0.4324,2113
20,0.1672,0.7732,-0.699,0.3035,0.2449,0.2779,2060
20,0.1489,0.7986,-0.7029,0.276,0.437,0.0957,2054
20,0.1396,0.7378,-0.6677,0.1521,0.5999,-0.0145,2028
20,0.2581,0.752,-0.6721,0.0254,0.6233,-0.0519,2057
20,0.3062,0.7668,-0.5967,-0.1535,0.4674,-0.0985,2075
20,0.2075,0.835,-0.5718,-0.3084,0.4022,-0.1449,2063
20,0.2192,0.9004,-0.5532,-0.4508,0.2336,-0.2388,2052
20,0.2102,0.9617,-0.5371,-0.6445,0.1354,-0.2606,2100
20,0.1719,1.0261,-0.531,-0.7994,0.1715,-0.3013,2098
20,0.144,1.0291,-0.479,-0.905,0.1009,-0.4128,2045
20,0.1482,1.0166,-0.4766,-1.065,0.0601,-0.4809,2017
20,0.2114,1.0422,-0.4985,-1.1712,0.0142,-0.5766,2110
20,0.2527,1.0647,-0.4922,-1.3182,-0.0411,-0.7122,2028
20,0.2437,1.1641,-0.5215,-1.3299,-0.0111,-0.8119,1959
20,0.2202,1.2219,-0.5046,-1.4307,-0.2309,-0.927,2074
21,0.2192,1.2451,-0.4893,-1.551,-0.2725,-1.0391,2050
21,0.1685,1.2722,-0.449,-1.6323,-0.226,-1.0893,2017
21,0.1687,1.2754,-0.481,-1.7254,-0.1463,-1.2011,2102
21,0.2322,1.2468,-0.4568,-1.8796,-0.1563,-1.3404,2011
21,0.2754,1.2471,-0.4763,-1.9792,-0.1441,-1.4552,2092
21,0.2703,1.2815,-0.4983,-2.1386,-0.2745,-1.5536,2068
21,0.2402,1.3699,-0.5122,-2.22,-0.3404,-1.684,2148
21,0.1736,1.5061,-0.5518,-2.2752,-0.4043,-1.8443,2145
21,0.0745,1.5974,-0.6143,-2.3321,-0.282,-2.0643,2044
21,-0.0242,1.6431,-0.6387,-2.4304,-0.1673,-2.3482,2140
21,-0.0071,1.5935,-0.6125,-2.5405,-0.122,-2.6264,2070
21,-0.0186,1.6069,-0.6038,-2.6541,-0.0928,-2.8612,2016
21,-0.0151,1.5662,-0.5872,-2.7858,-0.153,-3.063,2054
21,0.0615,1.5483,-0.7061,-2.8416,-0.123,-3.1737,2107
21,0.0459,1.4778,-0.6633,-2.9056,-0.0839,-3.2722,2003
21,0.0857,1.3293,-0.6133,-2.9621,0.0591,-3.2832,2151
21,0.1125,1.1868,-0.7249,-2.7682,0.123,-3.3069,2075
21,0.1687,1.0947,-0.834,-2.6083,-0.023,-3.2232,2032
21,0.2734,0.9504,-0.9502,-2.3099,-0.1681,-3.1199,2097
21,0.2139,0.8474,-1.1123,-2.0744,-0.1394,-2.951,2091
21,0.2083,0.6343,-1.0718,-1.8237,0.0088,-2.737,2056
21,0.2126,0.4316,-1.1931,-1.25,0.0748,-2.3246,2031
21,0.1689,0.3264,-1.0503,-0.9021,0.0213,-2.2521,2103
21,0.5642,-0.0681,-1.3149,-0.2799,-0.2778,-1.9829,2151
21,0.3528,-0.5271,-0.2986,-0.4572,-0.2701,-1.5311,2138
21,0.3965,-0.7649,-0.3408,-0.3506,0.0152,-0.8906,1898
21,-0.7573,-1.5896,1.9999,-3.2658,2.6006,-0.2994,2042
21,-1.8459,0.4978,-2.0,4.1086,-2.1688,-1.6407,2261
21,1.9999,1.9999,1.9999,1.0021,-4.3635,4.3634,1834
21,-0.3459,1.9999,1.9999,-0.3028,4.2437,-0.1109,2031
21,-2.0,-0.2148,-0.6809,-0.8194,-1.9402,-1.3451,1890
21,-1.4868,-2.0,-0.856,-0.5613,-1.0658,-0.4006,2037
21,0.5188,-1.7803,-0.9829,0.2731,0.645,0.9288,2210
21,0.2629,-0.1255,-0.7969,1.0223,-1.1284,2.9769,2567
21,-0.8669,1.0967,-0.8035,1.417,-0.3097,1.6179,1804
21,-1.2273,1.3167,-0.6375,1.644,0.8375,1.1363,1959
21,-0.4775,0.8523,-0.6399,1.9973,1.0134,0.4844,1921
21,0.0222,0.2849,-0.4155,1.8318,1.498,0.8799,2070
21,-0.1101,-0.0745,-0.2212,1.6335,1.2628,1.2199,2077
21,0.002,-0.0625,-0.0562,1.1689,0.822,1.4359,2101
21,0.1279,0.2407,-0.1484,0.8455,0.5401,1.9279,2030
21,-0.1399,0.4583,-0.1189,0.5356,0.3392,2.2044,2119
21,-0.3872,0.604,-0.2339,0.4699,0.132,2.0731,2037
21,-0.3203,0.6946,-0.3049,0.5678,-0.0443,1.9306,2061
21,-0.3438,0.5466,-0.2336,0.5517,-0.0535,1.5812,2021
21,-0.1851,0.45,-0.2607,0.5556,-0.0637,1.5346,2000
21,-0.2058,0.4758,-0.3804,0.5883,0.1115,1.4451,2134
21,0.1794,0.5745,-0.5908,0.6478,0.2615,1.4386,1993
21,0.6423,0.8965,-0.6255,0.6586,0.1977,1.9239,2030
21,0.5376,1.1077,-0.5728,0.5787,0.5129,2.2763,1921
21,0.0649,1.1809,-0.5066,0.6769,0.7489,2.0264,2133
21,-0.012,1.074,-0.4282,0.7224,0.7244,1.5909,2107
21,0.1365,1.0066,-0.4111,0.9015,0.8483,1.301,2034
21,0.1807,0.9736,-0.4619,0.9027,0.8644,1.1203,2072
21,0.1609,0.9976,-0.5132,0.9955,0.9432,0.9365,2053
21,0.2039,1.0002,-0.4666,0.8965,0.6715,0.9027,2054
21,0.3804,1.0027,-0.4395,0.9218,0.4113,0.9943,2063
21,0.3979,1.0857,-0.4302,0.9372,0.4038,1.2406,2062
21,0.3325,1.1045,-0.3726,0.8645,0.396,1.391,2046
21,0.3938,1.0244,-0.3799,0.7492,0.4633,1.4431,2052
21,0.4172,0.9749,-0.3557,0.5791,0.5805,1.4723,2040
21,0.459,0.9441,-0.3616,0.4123,0.4867,1.4639,2068
21,0.509,0.9514,-0.4023,0.1622,0.2373,1.4468,2075
21,0.5061,1.02,-0.405,0.0427,0.0649,1.3593,2012
21,0.4668,0.8708,-0.3706,-0.2538,0.1506,1.3965,2074
21,0.4175,0.8367,-0.3818,-0.3051,0.54,1.3388,2064
21,0.4946,0.5859,-0.4246,-0.3978,0.7597,1.5716,2032
21,0.5225,0.7031,-0.4673,-0.4089,0.9312,1.5831,2023
21,0.6074,0.885,-0.501,-0.4607,0.8958,1.3865,2071
21,0.4211,0.9453,-0.4294,-0.5504,0.9252,1.1208,2105
21,0.2625,0.8191,-0.4163,-0.6388,1.171,0.7911,2054
21,0.176,0.8337,-0.499,-0.6489,1.6017,0.6502,2034
21,0.2434,1.0032,-0.5745,-0.4554,2.0988,0.6644,2073
21,0.3955,0.9854,-0.5352,-0.499,1.9144,0.5629,2003
21,0.4893,0.8748,-0.6445,-0.6468,1.6313,0.446,2067
21,0.4207,0.833,-0.6113,-0.764,1.3155,0.4719,2057
21,0.2837,0.8525,-0.5613,-0.8132,1.0162,0.4842,2046
21,0.1956,0.8027,-0.5498,-1.0472,0.9417,0.6235,2116
21,0.2922,0.9734,-0.6123,-1.0622,1.0702,0.6128,2074
21,0.4736,0.9902,-0.6602,-1.0308,0.6208,0.3637,2065
21,0.4143,0.9187,-0.6616,-1.0824,0.4566,0.2944,2061
21,0.3484,1.0886,-0.6914,-1.0118,0.3011,0.1924,2066
21,0.2966,1.0037,-0.6089,-0.9236,-0.1254,0.0787,2059
21,0.3013,0.803,-0.4722,-0.9923,-0.5461,0.0517,2112
21,0.3203,0.9038,-0.5,-1.0826,-0.7825,-0.0607,2100
21,0.3657,0.9766,-0.4077,-1.0295,-1.0148,-0.239,2105
21,0.2473,0.9548,-0.3726,-1.0585,-1.132,-0.287,2125
21,0.0398,0.9309,-0.251,-1.2216,-1.1384,-0.2465,2046
21,0.207,0.9224,-0.2188,-1.2487,-1.0961,-0.2942,2029
21,0.2976,1.0283,-0.1697,-1.2322,-0.9305,-0.2063,2024
21,0.2751,1.0032,-0.1069,-1.2877,-0.6737,-0.1697,1999
21,0.2815,1.0681,-0.1797,-1.2403,-0.6826,-0.0751,1950
21,0.4006,0.9929,-0.1189,-1.2533,-0.6861,-0.1292,2032
21,0.5107,0.9653,-0.1252,-1.2982,-0.7803,-0.1368,2047
21,0.4683,1.0845,-0.0671,-1.289,-0.715,-0.1461,2112
21,0.4224,1.1208,-0.0708,-1.2637,-0.6456,-0.0764,2154
21,0.4248,1.0679,-0.0706,-1.3426,-0.6874,-0.0835,2017
21,0.4402,1.0627,-0.052,-1.4679,-0.5412,-0.0372,2042
21,0.5283,1.0933,-0.0999,-1.6265,-0.7411,-0.0312,2071
21,0.5737,1.1174,-0.0225,-1.7133,-0.8873,-0.1132,2057
21,0.5164,1.0679,-0.0066,-1.8306,-0.9777,-0.0623,2032
21,0.417,1.0688,0.0259,-1.8996,-0.9096,-0.1105,2056
21,0.4219,1.0435,0.0295,-1.9582,-0.8853,-0.1571,2063
21,0.4385,1.0232,0.0171,-2.055,-0.9859,-0.1542,2096
21,0.4424,1.0962,-0.002,-2.1455,-1.0122,-0.1157,2049
