Timestamp,Ax,Ay,Az,Rx,Ry,Rz,EMG
0,-0.0815,-1.5962,0.1833,-2.0847,4.3634,3.9632,2045
0,0.3491,-0.9453,0.0071,-2.0285,4.3634,4.3634,2040
0,0.2791,-0.6531,-0.1716,-1.9912,4.1988,4.1748,2057
0,-0.3337,-0.9248,-0.3618,-2.0173,2.6081,3.5489,2056
0,-0.5732,-0.9199,-0.4346,-2.027,2.22,3.3665,2062
0,-0.6182,-0.7812,-0.3076,-1.9475,1.9056,3.1163,2051
0,-0.6045,-0.6833,-0.1536,-2.0564,1.4423,2.9597,2062
0,-0.6445,-0.481,-0.0564,-2.1779,1.262,2.728,2051
0,-0.4954,-0.2266,0.0151,-2.1117,1.0371,2.5619,2051
0,-0.4524,-0.1577,0.1499,-2.0463,0.7142,2.1964,2050
0,-0.6313,-0.1133,0.2722,-1.9867,0.5169,1.8201,2053
0,-0.7415,0.0398,0.3179,-1.9799,0.8196,1.4387,2052
0,-0.7524,0.1138,0.396,-1.8182,1.0633,1.2051,2049
0,-0.7097,0.0066,0.4678,-1.4816,1.1282,0.9262,2056
0,-0.7375,-0.1116,0.5815,-1.2168,1.0425,0.3578,2045
0,-0.6467,-0.1443,0.7126,-1.0633,0.7375,-0.1846,2065
0,-0.7114,-0.1758,0.8047,-0.9584,0.518,-0.6577,2050
0,-0.9421,-0.1797,0.8875,-0.889,0.8303,-1.1886,2044
0,-1.0823,-0.1638,0.9504,-0.7241,1.5716,-1.543,2047
0,-0.6653,-0.1313,1.0168,-0.6047,2.035,-1.5807,2051
0,-0.4768,-0.0449,0.9688,-0.3482,2.006,-2.0346,2047
0,-0.5332,-0.0549,0.8315,-0.1523,2.121,-2.4428,2051
0,-0.5352,-0.0986,0.7629,0.0137,2.3453,-2.8356,2048
0,-0.4121,-0.0864,0.7124,0.1545,2.5493,-3.1781,2054
0,-0.3003,-0.0796,0.6643,0.3136,2.5492,-3.5065,2048
0,-0.1467,-0.0725,0.594,0.471,2.2297,-3.7752,2052
0,-0.1665,-0.2046,0.5544,0.5075,1.8674,-4.0964,2051
0,0.1797,0.0681,0.4336,0.764,1.2449,-4.0986,2042
0,0.1072,-0.0764,0.3828,0.6569,0.804,-4.3635,2052
0,0.0669,-0.1719,0.3071,0.6243,0.4936,-4.3635,2049
0,-0.0466,-0.1421,0.2361,0.6564,0.4496,-4.3635,2059
0,-0.1184,-0.1433,0.2346,0.7042,0.3561,-4.3635,2052
0,-0.053,-0.1812,0.2056,0.8195,-0.0803,-4.3635,2054
0,0.0349,-0.1523,0.1724,0.8207,-0.5028,-4.3635,2050
0,-0.0632,-0.1313,0.0354,0.7357,-0.6309,-4.3635,2051
0,-0.137,-0.0242,-0.0408,0.696,-0.8143,-4.3635,2053
0,-0.1101,-0.0178,-0.0535,0.663,-1.0923,-4.3635,2048
0,-0.0618,-0.0764,-0.0469,0.6605,-1.3717,-4.3635,2054
0,-0.0681,-0.1277,-0.0696,0.6948,-1.5402,-4.3635,2054
0,-0.0833,-0.1846,-0.1216,0.6882,-1.5641,-4.3635,2028
0,-0.0818,-0.2319,-0.2107,0.7712,-1.5151,-4.3635,2027
0,-0.1277,-0.3765,-0.2822,0.9917,-1.4994,-4.3635,2038
0,-0.1252,-0.5305,-0.1882,1.0978,-1.8331,-4.3635,2045
0,-0.364,-0.8076,-0.0742,0.7048,-2.1142,-4.3635,2046
0,-0.644,-1.2761,-0.1807,0.3155,-2.0999,-4.3635,2053
0,-0.8645,-1.3005,-0.1487,0.261,-1.4789,-4.3635,2050
0,-1.3235,-1.0796,-0.2742,0.7929,-0.8305,-4.3635,2044
0,-1.342,-1.1006,-0.4214,1.345,-0.0334,-4.3635,2050
0,-0.7627,-1.5437,-0.4451,1.9817,0.5679,-4.3635,2060
0,0.1123,-2.0,-0.2488,2.0696,-0.2955,-4.3635,2055
0,0.4128,-2.0,-0.3398,1.8037,-1.848,-3.7953,2051
0,0.2141,-2.0,-0.5317,0.9473,-2.6995,-3.2907,2055
0,0.1433,-2.0,-0.5635,0.4364,-3.2533,-2.4282,2057
0,0.2786,-1.7529,-0.3337,-0.0398,-3.7864,-2.0947,2060
0,-0.1707,-1.5913,-0.2788,0.4466,-3.6517,-1.485,2042
0,-0.5916,-1.4172,0.4541,-0.1206,-2.473,-0.4116,2051
0,-0.3352,-1.1709,0.5217,0.2377,-0.6054,0.659,2042
0,-0.2339,-1.6963,0.3801,-0.3512,0.5312,0.0846,2067
0,-0.3289,-1.5857,1.2356,0.1912,-1.5167,1.3045,2042
0,1.9999,-2.0,0.2693,-0.0872,-1.3496,0.6157,2036
0,1.9999,-2.0,-0.4717,0.0569,-0.8585,-1.3259,2037
0,1.3867,-2.0,-1.7966,-0.3694,4.1606,0.3766,2047
0,-0.1562,-1.7429,-1.5894,-0.9969,3.6597,-0.1494,2066
0,1.9999,-2.0,1.9999,-1.1836,4.3634,4.3634,2060
0,-2.0,-0.5779,0.1018,0.4316,1.393,-1.2243,2037
0,-0.2297,0.1021,-0.0552,0.1646,-1.0496,0.7747,2070
0,0.1592,-1.7229,0.2031,-0.6409,-3.2134,1.0287,2063
0,-1.0601,-1.198,0.4963,0.114,-0.3083,1.2804,2050
0,-1.0449,-0.8171,0.4707,-0.294,-0.1224,0.9215,2056
0,-0.7048,-1.1152,0.1382,-0.3227,-0.0309,0.8822,2053
0,0.0806,-1.2898,0.0251,-0.4602,-0.1232,1.2792,2026
0,0.6746,-1.1509,-0.4546,-0.6422,0.9547,1.0995,2050
0,1.0371,-0.9734,-0.7866,-0.5148,0.8248,1.0294,2041
0,0.6558,-0.8037,-0.6125,-0.198,-0.5753,1.1026,2068
0,0.0349,-0.8301,-0.5476,-0.0558,-1.1615,1.093,2033
0,0.2126,-0.9194,-0.3032,-0.1087,-1.0563,1.1752,2056
0,0.5557,-0.8918,-0.2937,-0.114,-0.5051,1.093,2084
0,0.6541,-0.8188,-0.3621,-0.0692,-0.3474,1.1579,2041
0,0.4443,-0.876,-0.2297,-0.1366,-0.4084,1.2254,2051
0,0.3271,-0.8938,-0.1597,-0.1633,-0.4181,1.2027,2020
0,0.2903,-0.9043,-0.1555,-0.2075,-0.3738,1.231,2055
0,-0.1167,-0.9407,-0.0513,-0.1426,0.24,1.1571,2055
0,-0.3838,-0.9043,-0.0012,-0.3201,0.2489,1.1573,2049
0,-0.188,-0.8777,-0.0698,-0.2368,0.2043,1.0999,2037
0,0.0884,-0.9751,-0.1575,-0.1155,0.0513,1.2878,2068
0,-0.2075,-1.0781,-0.2339,-0.216,-0.1505,1.162,2065
0,-0.2402,-0.9265,-0.3157,-0.2426,-0.6593,1.1641,2071
0,-0.1892,-0.853,-0.1885,-0.0403,-0.3846,1.1476,2036
0,-0.1453,-0.9497,-0.1621,-0.0101,-0.1808,1.1958,2050
0,0.0525,-1.0034,-0.0569,-0.092,1.0541,1.1294,2063
0,-0.1379,-1.0166,-0.4343,0.0952,-1.9217,0.8368,1990
0,0.0754,-1.0967,0.0222,0.1844,-0.0806,0.9521,2062
0,0.0244,-1.0156,-0.4033,0.0067,-0.7802,1.1459,2012
0,-0.0249,-0.9717,-0.2517,0.1586,-0.9792,1.0408,2124
0,0.0496,-1.0315,-0.1765,0.008,-0.9837,1.0274,2024
0,0.0779,-1.0422,-0.218,-0.0368,-0.944,1.0118,2085
0,0.0686,-0.947,-0.0332,-0.0294,-0.8726,1.0517,2053
0,-0.0027,-0.9592,-0.0056,-0.1025,-0.7095,1.1276,2033
0,0.0508,-1.0085,0.012,-0.1682,-0.6821,1.1412,2045
0,-0.0049,-1.0049,-0.0598,-0.1959,-0.4906,1.1318,2070
0,-0.0869,-1.012,-0.0864,-0.2033,-0.3988,1.1961,2035
0,-0.0488,-1.0703,-0.165,-0.3196,-0.3867,1.1778,2045
0,0.0627,-1.0364,-0.1797,-0.34,-0.5617,1.219,2022
1,-0.0049,-0.9995,-0.1775,-0.3334,-0.6376,1.2804,2016
1,-0.0146,-1.0012,-0.1792,-0.3875,-0.7332,1.3141,2017
1,-0.0029,-0.9319,-0.1494,-0.3984,-0.7265,1.3536,2021
1,-0.0789,-0.8865,-0.2136,-0.3971,-0.6743,1.3922,2144
1,-0.1189,-0.957,-0.2209,-0.3823,-0.7537,1.4488,2007
1,-0.1079,-1.0679,-0.3069,-0.3196,-0.6854,1.4719,1868
1,0.0022,-1.2,-0.2117,-0.4384,-0.5834,1.5279,1953
1,0.2197,-1.208,-0.1304,-0.5437,-0.6458,1.584,1887
1,0.1953,-1.282,-0.0647,-0.5042,-0.7548,1.6418,1991
1,0.1558,-1.3689,0.0728,-0.6297,-0.7305,1.8041,1924
1,0.2358,-1.3027,0.2083,-0.7143,-0.7601,1.8994,2036
1,0.0896,-1.3096,0.2698,-0.7774,-0.7031,1.9775,2182
1,0.0403,-1.2766,0.3279,-0.7786,-0.4189,2.1734,1996
1,0.1826,-1.2717,0.4207,-0.7594,-0.2099,2.3345,2014
1,0.3289,-1.2898,0.4016,-0.7811,-0.0975,2.527,2042
1,0.3782,-1.3276,0.2812,-0.7714,0.0513,2.6681,2034
1,0.5315,-1.5444,0.2329,-0.7396,0.071,2.9167,2040
1,0.9697,-1.8535,0.1926,-0.8874,0.0611,3.1071,2057
1,1.2922,-2.0,0.2742,-1.1447,-0.6263,3.3091,2046
1,1.2646,-2.0,0.5571,-1.2908,-1.5502,3.5011,2062
1,1.2542,-2.0,0.4617,-1.4173,-2.569,3.4629,2048
1,0.9829,-2.0,0.3203,-1.0716,-3.3725,3.4635,2049
1,0.0281,-2.0,-0.1521,-1.083,-2.9361,3.2839,2043
1,-0.5046,-2.0,-0.2273,-1.2422,-2.9867,3.7727,2055
1,-1.0425,-1.7903,-0.2742,-1.0023,-2.0949,4.0258,2056
1,-1.5649,-1.4575,0.0808,-0.549,-1.1067,4.1905,2048
1,-0.5505,-2.0,0.6389,-0.6094,-0.1261,4.3634,2037
1,-0.4202,-1.1738,0.0388,-0.9468,-1.1848,3.2443,2033
1,0.8528,0.2188,-0.3196,1.0481,-1.6954,2.0418,2049
1,-1.9531,-0.9324,-1.3176,-0.1629,-1.3842,2.4039,2060
1,-2.0,-0.21,0.0928,-1.5189,-1.4966,2.0109,2050
1,-2.0,-0.2952,0.6628,-1.8955,-1.7186,1.2212,2060
1,-1.927,-0.2439,0.4546,-1.5924,-2.8851,0.2056,2068
1,-0.5366,0.0422,0.1106,-1.2544,-3.2818,-0.116,2062
1,-0.5071,-0.0815,-0.0017,-1.5584,-3.3263,-0.7906,2052
1,-0.4607,0.1541,0.0906,-2.0353,-2.8658,-2.4397,2052
1,-0.1577,0.2561,0.2305,-2.0503,-2.2029,-3.7237,2046
1,-0.0601,0.0796,0.2083,-1.2544,-1.8951,-3.5147,2049
1,-0.5645,-0.1536,0.3877,-0.7853,-1.3382,-3.8482,2046
1,-0.5425,0.0293,0.4026,-0.581,-0.8693,-3.634,2050
1,-0.8132,-0.2239,0.364,-0.7156,-0.5444,-3.9712,2054
1,-0.4517,-0.3186,0.3091,-0.7217,-0.5602,-3.7768,2053
1,-0.365,0.0076,0.1616,-0.1911,-0.377,-3.6344,2051
1,-0.5449,0.04,0.199,0.1993,-0.0561,-3.9182,2052
1,-0.4192,-0.0156,0.2334,0.4868,-0.2784,-4.3025,2055
1,-0.5493,-0.2134,0.2246,0.302,-0.4071,-4.3635,2053
1,-0.7041,-0.2202,0.1711,-0.0229,-0.0336,-4.3635,2051
1,-0.5393,-0.0986,0.1399,-0.0052,0.1846,-4.3635,2054
1,-0.2864,-0.1682,0.115,0.1469,0.0955,-4.3635,2050
1,-0.1953,-0.2434,0.0701,0.4257,-0.0987,-4.3635,2051
1,-0.2786,-0.2617,0.053,0.5911,-0.3803,-4.3635,2046
1,-0.3645,-0.2944,-0.0115,0.6502,-0.375,-4.3635,2051
1,-0.5071,-0.2822,-0.0691,0.6323,-0.1108,-4.3635,2048
1,-0.5801,-0.3235,-0.1772,0.7565,0.0619,-4.3635,2049
1,-0.5576,-0.4011,-0.2803,1.032,0.2225,-4.3635,2052
1,-0.5183,-0.4702,-0.3069,1.1648,0.1716,-4.3635,2050
1,-0.5735,-0.7104,-0.2969,1.3677,-0.0079,-4.3635,2054
1,-0.7026,-0.8472,-0.1809,1.4966,-0.2103,-4.3635,2050
1,-0.7158,-0.905,-0.1636,1.3071,-0.3328,-4.3635,2050
1,-0.4902,-1.0173,-0.2378,1.4159,-0.506,-4.3635,2057
1,-0.1851,-1.5078,-0.3135,1.9433,-1.0224,-4.3635,2053
1,-0.0063,-2.0,-0.1575,0.9507,-2.0539,-4.3635,2048
1,0.9841,-1.854,-0.9517,1.2227,-3.464,-4.1377,2057
1,-0.5818,-1.6013,-0.5415,1.5757,-2.7446,-4.3635,2050
1,-1.2415,-1.5544,0.1863,0.3691,-4.1741,-3.5444,2056
1,0.1084,-2.0,-0.0474,-1.1464,-2.1574,-2.6457,2058
1,1.7017,-1.2859,0.3608,-1.4431,-0.6357,-0.5027,2044
1,1.5774,-1.2341,0.0659,-0.4139,0.404,0.5569,2052
1,-0.6421,-1.4202,-0.3149,-0.5593,-0.0409,1.6635,2020
1,0.4536,-0.3711,0.3213,-0.983,-2.795,3.0854,2019
1,-0.9294,-2.0,0.4539,-3.7202,-1.8148,-1.58,2080
1,-1.0806,0.3293,0.374,-1.0067,-0.8188,4.3634,2063
1,-0.1084,1.0588,0.5098,0.194,-0.3422,3.4292,2055
1,-0.123,-0.4187,1.0776,0.3742,0.9862,1.0958,2032
1,0.6028,-1.7646,1.1843,1.1517,2.6589,0.9898,2033
1,-0.9033,-2.0,0.509,0.2856,4.3634,1.9286,2046
1,-0.363,-2.0,0.3423,-0.0254,4.3634,2.1784,2068
1,-0.6809,-2.0,-0.1079,-2.9027,4.3634,1.268,2015
1,-1.3909,0.4175,-0.7024,-1.4912,2.9307,1.7953,2062
1,-1.0762,-1.752,-0.5938,-1.3161,2.533,2.643,2075
1,-0.5234,-1.5181,0.3354,-1.3661,-0.4283,2.911,2060
1,-1.1345,-0.8655,-0.2947,-1.709,0.7249,2.8271,2048
1,-0.2317,-0.2051,-0.8503,-1.4672,1.6532,2.9954,2046
1,-0.7029,-0.0898,-0.7349,-0.3009,1.7928,3.1561,2046
1,-0.8113,-1.2471,-0.3921,-0.5324,0.8256,2.1676,2049
1,-0.8081,-1.407,-0.5586,-1.073,-0.4344,1.183,2074
1,0.1028,-0.8301,-0.1313,-0.0451,-2.1538,1.0419,2068
1,-0.1426,-0.6589,0.2644,0.8195,-2.1482,1.0043,2051
1,-1.3257,-0.7649,-0.4275,0.3802,-0.7304,0.9216,2055
1,-1.3503,-1.0762,-0.0933,0.1975,-0.9096,0.8801,2063
1,-0.3677,-1.1792,0.0293,-0.1178,-0.3926,0.4337,2057
1,-0.033,-1.1028,-0.0942,0.0138,-0.708,0.6446,2064
1,-0.2788,-1.0386,-0.0835,0.1268,-0.9573,0.503,2032
1,-0.3691,-0.9741,-0.0911,0.2489,-0.8293,0.3365,2050
1,-0.2812,-1.0042,-0.1514,0.2188,-0.6052,0.3645,2025
1,-0.1978,-1.0708,-0.175,0.1173,-0.5671,0.3818,2048
1,-0.0798,-1.0376,-0.0991,0.0755,-0.5624,0.3396,2052
1,0.032,-0.9756,-0.1079,0.1077,-0.5472,0.3585,2051
1,0.1704,-0.9172,-0.1396,0.1282,-0.8273,0.3348,2048
1,0.1831,-0.9861,-0.1475,0.198,-1.0349,0.4797,2055
1,0.1184,-0.9487,-0.1479,0.1571,-0.899,0.5046,2053
2,0.0945,-0.8342,-0.1719,0.1844,-0.744,0.5442,2050
2,-0.0559,-0.8513,-0.0916,0.2156,-0.5351,0.5244,2071
2,-0.1277,-0.9573,-0.1101,0.2621,-0.5281,0.5743,2054
2,0.1191,-0.9543,-0.0139,0.1907,-0.4904,0.5148,2026
2,0.0115,-1.0142,-0.0881,0.1651,-0.4747,0.6843,2027
2,-0.1084,-0.9595,-0.001,0.0848,-0.3645,0.6805,2060
2,-0.2078,-0.9277,0.0632,0.1533,-0.1433,0.7204,2017
2,-0.0408,-1.0383,0.0325,0.0084,-0.2802,0.6958,2018
2,0.2004,-1.03,-0.0164,0.1248,-0.8713,0.75,2053
2,-0.0479,-1.092,-0.0139,0.1028,-0.9271,0.8212,2057
2,-0.3269,-1.0571,0.0356,-0.0069,-1.0784,0.7959,2063
2,-0.0657,-0.9854,0.0671,-0.0724,-0.6114,0.8212,2018
2,0.3467,-0.9587,0.1152,-0.1248,-0.5393,1.0254,1980
2,0.51,-0.9014,0.1333,-0.1012,-0.5473,1.179,2111
2,0.5291,-0.915,-0.0017,-0.1322,-0.6281,1.2985,2114
2,0.4961,-1.0505,-0.0723,-0.1406,-0.7516,1.4324,2074
2,0.3645,-1.2214,-0.0566,-0.2041,-0.6642,1.641,1984
2,0.2927,-1.2334,-0.0488,-0.2464,-0.2879,1.7851,2033
2,0.1702,-1.2476,-0.0205,-0.2575,-0.1252,1.912,2013
2,0.0542,-1.2766,-0.0337,-0.3181,0.0185,2.0666,1881
2,-0.0151,-1.0625,0.0452,-0.3904,-0.1674,2.3097,2022
2,0.0791,-1.4165,0.0942,-0.2874,0.2444,2.2348,2020
2,0.124,-1.5076,0.0459,-0.4466,0.0377,2.3839,2047
2,-0.0068,-1.2522,0.1638,-0.3714,0.1752,2.4072,2408
2,-0.0549,-1.2583,0.2637,-0.2547,0.1193,2.431,1899
2,0.3245,-1.3586,0.1628,-0.2774,0.2799,2.6847,1993
2,0.4175,-1.3262,0.2014,-0.204,0.2322,2.7677,2053
2,0.2715,-1.3865,0.2397,-0.2052,0.1778,3.0072,2032
2,0.4192,-1.6555,0.2739,-0.3691,0.4927,2.8733,2031
2,0.6228,-1.8152,0.2415,-0.4823,0.1792,3.2038,2062
2,0.7148,-1.9287,0.5815,-0.6344,0.006,3.7735,2064
2,1.2922,-2.0,0.6868,-1.1844,-0.391,4.0126,2053
2,1.3665,-2.0,0.5601,-0.9925,-1.7889,3.9476,2052
2,1.2168,-1.9116,0.3647,-0.5643,-2.887,4.1935,2045
2,1.4268,-1.7209,0.2815,0.0645,-3.9455,4.3634,2032
2,0.1853,-2.0,0.104,0.0707,-4.1005,3.2653,2052
2,-0.4685,-2.0,-0.136,0.4139,-4.0451,4.3634,2047
2,-0.9858,-1.0908,-0.1831,0.6083,-3.0875,4.3634,2053
2,-0.8691,-1.9792,0.2102,-1.0364,-2.6915,1.8572,2060
2,-1.4158,-1.1575,-0.2537,-1.7323,-1.9061,1.8138,2048
2,-2.0,0.8354,-0.5527,-0.3831,1.0001,3.3692,2043
2,-1.1848,0.5471,-0.1023,1.2408,2.8042,3.3858,2053
2,1.9999,-2.0,-0.6179,0.1663,-1.1587,4.3634,2053
2,-2.0,0.8472,-0.2542,1.601,-0.9572,1.4996,2044
2,-2.0,0.2424,0.0298,0.2076,-0.7843,1.2038,2051
2,-2.0,-0.4299,-0.0942,0.195,0.5054,-0.0654,2061
2,-1.1968,-0.2439,-0.0608,0.1955,0.4279,-1.0852,2056
2,-0.6208,0.2705,-0.0259,-0.6562,0.9132,-2.4252,2052
2,-0.2532,-0.0796,-0.1467,-0.4291,1.4314,-2.5247,2050
2,-0.1362,-0.2615,-0.0786,0.1981,1.4755,-2.2786,2046
2,0.1338,0.0081,-0.0818,0.7759,1.4685,-2.1165,2045
2,-0.1101,0.1768,-0.0559,1.0893,1.7523,-2.3573,2052
2,-0.3564,0.2051,0.0017,1.2086,1.8608,-2.6899,2054
2,-0.3577,0.1782,-0.0312,1.4332,1.5998,-2.7537,2053
2,-0.249,0.2168,-0.074,1.7518,1.2528,-2.7871,2051
2,-0.2625,0.2527,-0.0549,1.9799,0.8862,-3.0987,2054
2,-0.2434,0.2178,0.0286,2.1106,0.4686,-3.4623,2045
2,-0.3206,0.1523,0.0425,2.2257,0.2994,-3.857,2050
2,-0.281,0.1128,0.0645,2.2134,0.3052,-4.1329,2049
2,-0.3948,-0.0017,0.0872,2.196,0.4084,-4.3635,2053
2,-0.1702,-0.0398,0.0427,2.3288,0.5047,-4.2505,2056
2,-0.2449,-0.0354,0.0674,2.2385,0.2719,-4.3635,2068
2,-0.3914,0.0234,0.0369,2.0663,0.1236,-4.3635,2003
2,-0.4587,0.0603,0.1101,1.7961,0.0818,-4.3635,1998
2,-0.4148,-0.0527,0.1106,1.59,0.2203,-4.3635,2039
2,-0.6138,-0.0806,-0.1426,2.0188,0.4573,-4.3635,2079
2,-0.5715,-0.1768,-0.0613,2.6834,0.4758,-4.3635,2067
2,-0.4263,-0.5986,0.5471,1.4039,0.4438,-4.3635,2017
2,-1.0452,-1.1299,0.6458,0.7427,0.1988,-4.3635,2028
2,-1.0481,-0.6528,0.021,1.1733,1.0067,-4.3635,2058
2,-0.5925,-0.4556,0.1353,1.2946,1.4929,-4.3635,2054
2,-0.4827,-0.9954,0.158,1.7265,1.015,-4.3635,2057
2,-0.6973,-1.6924,0.3286,2.1675,0.5522,-4.3635,2072
2,-0.7019,-1.8159,0.5198,2.2658,0.2468,-4.3635,2037
2,-0.4316,-2.0,0.5427,2.2587,0.7135,-4.3635,2050
2,0.436,-2.0,0.4961,1.8777,0.7658,-4.3635,2050
2,0.7271,-2.0,0.0154,0.0778,-0.9862,-3.4672,2054
2,-0.8892,-1.1692,-0.771,-0.014,0.0165,-2.583,2053
2,0.1238,-0.6401,-0.377,-0.3256,0.6858,-1.5752,2059
2,0.5312,-0.9446,0.1982,0.1441,1.8698,0.0553,2055
2,0.5806,-1.6887,0.0312,-0.6112,0.8532,1.9686,2059
2,1.9999,-2.0,-0.3936,-2.5625,0.7277,1.2889,2074
2,-0.2561,-2.0,0.5747,-4.3286,3.7127,0.842,2026
2,1.313,1.9963,0.6638,-0.8708,-0.2706,3.6315,2029
2,-1.4346,-1.7642,0.5146,-2.3808,-0.7104,4.1831,2072
2,1.7827,0.1367,1.0283,-2.104,-1.6743,2.688,2085
2,0.6089,-2.0,-0.3115,-0.5253,0.8018,3.1756,1985
2,-2.0,-2.0,-2.0,-3.2072,3.8985,4.3634,2110
2,-2.0,-2.0,0.8296,-1.6864,1.504,3.9775,2152
2,1.9999,1.9999,1.9126,0.5857,0.3879,2.2372,2180
2,-1.4927,-2.0,0.0828,-0.039,3.1415,4.3634,1954
2,-2.0,-2.0,-0.7024,-0.2768,2.0028,2.8968,1982
2,-1.4458,0.6777,-0.4226,-1.1359,2.0659,1.0824,1989
2,-1.9841,0.8147,-1.2512,-0.9147,1.5002,-2.1533,2071
2,-0.6155,-0.4451,-0.7612,-0.2703,0.7156,-2.8082,2059
2,0.1194,-0.9648,-0.542,0.5055,0.6075,-1.2451,2032
2,-0.1265,-1.8667,-0.2366,0.8429,0.5248,0.8095,2097
2,-0.5278,-1.748,-0.2507,0.6132,0.5445,1.5289,2062
2,-0.6536,-1.0415,0.0154,0.5805,-0.0079,1.4825,2060
2,-0.7136,-0.8811,0.2192,0.7827,-0.6739,0.649,2053
2,-1.0244,-1.2075,0.3032,0.7934,-0.7131,-0.0127,2056
2,-1.1309,-1.1838,0.2986,0.6408,-0.5697,0.2731,2065
3,-0.7783,-1.2966,0.2354,0.3316,-0.8068,0.7187,2062
3,-0.9763,-1.3169,0.114,0.3105,-0.1073,-0.3931,2032
3,-0.6301,-0.8916,0.1467,0.0427,0.0526,-0.6686,2043
3,-0.4294,-0.5259,0.2029,0.0402,-0.2067,-0.4705,2053
3,1.1833,-0.4668,0.1282,0.0775,-0.3579,0.1703,2064
3,-0.7952,-1.0903,0.2449,0.3348,-0.6544,-1.537,2021
3,0.0154,-0.7366,0.4084,0.6209,-1.142,-0.7723,1983
3,0.2588,-1.0483,0.3899,0.52,-0.2456,-0.6307,2114
3,0.1697,-0.8821,0.3281,0.6221,0.0784,-0.3248,2065
3,0.4185,-0.6106,0.3286,0.4313,0.454,-0.0274,2044
3,0.7612,-0.8987,0.1165,-0.0353,0.5626,0.026,2114
3,1.207,-1.1675,0.0234,-0.3352,0.6086,0.3012,2030
3,1.1909,-1.1343,0.0305,-0.4721,0.5164,0.6444,2047
3,0.8584,-0.9336,0.1946,-0.3389,0.1222,1.1001,1996
3,0.1079,-1.0566,0.2354,-0.2595,0.0142,1.1828,2098
3,-0.2703,-1.1223,0.364,-0.1119,-0.3559,1.3077,2070
3,-0.3281,-1.1531,0.4753,0.0731,-0.61,1.4531,1986
3,-0.3772,-1.1799,0.5759,-0.0471,-0.6277,1.5364,1905
3,-0.5688,-0.938,0.5176,-0.1451,0.0445,1.3937,1889
3,-0.7563,-0.6929,0.3745,-0.2031,1.0895,1.1074,2183
3,-0.6155,-0.7622,0.3118,-0.231,2.231,0.9317,1929
3,0.2041,-1.1699,0.1707,-0.3084,2.5517,1.0853,2010
3,0.6104,-1.2856,0.0061,-0.2832,2.2284,1.2928,1865
3,0.3232,-1.186,-0.1299,-0.2169,1.7607,1.3729,1943
3,0.1599,-1.1206,-0.2061,-0.1971,1.3972,1.6275,1661
3,0.2554,-1.2483,-0.1492,-0.2057,0.8039,1.8282,1910
3,0.1699,-1.2224,-0.1409,-0.1079,0.6059,2.2611,2228
3,0.342,-1.4124,0.0596,-0.1497,0.1438,2.2664,1967
3,0.2834,-1.4619,0.1982,-0.234,-0.0912,2.0825,2056
3,0.0513,-1.2805,0.4993,-0.2707,-0.0338,2.2979,1733
3,0.1091,-1.2029,0.5891,-0.2924,0.1072,2.2111,2166
3,0.1067,-1.1951,0.4199,-0.2101,0.3099,2.3127,1964
3,-0.0857,-0.9788,0.2178,-0.0253,0.399,2.43,1954
3,-0.1802,-1.0046,0.0339,0.2245,0.5553,2.5153,2063
3,-0.0706,-1.2549,-0.0371,0.244,0.5887,2.5217,1990
3,0.3411,-1.2664,-0.0808,0.2823,0.3686,2.8454,2030
3,0.5198,-1.2773,-0.0356,0.3963,0.0663,2.993,2072
3,0.5083,-1.4475,0.0491,0.463,-0.3802,3.281,2026
3,0.7688,-1.5833,0.1772,0.4822,-0.3613,3.7098,2054
3,0.843,-1.7253,0.3252,0.5167,-0.1926,3.788,2046
3,1.0747,-2.0,0.2292,0.4787,-0.7708,3.756,2047
3,1.0105,-2.0,0.1304,1.0058,-1.3038,3.8225,2046
3,0.5527,-2.0,0.3083,1.3665,-1.2162,3.7251,2024
3,0.5151,-2.0,0.061,1.3178,-1.06,3.9327,2046
3,0.5457,-1.3894,-0.5803,1.7289,-1.0541,3.825,2053
3,-0.2703,-2.0,-0.5334,0.4976,-1.686,2.7884,2046
3,-1.0627,-1.9221,-0.6145,-0.1491,-1.8773,1.5179,2053
3,-2.0,-0.8267,-0.6465,0.0506,0.8492,2.2442,2042
3,-1.6584,-0.2771,-0.0056,1.6078,3.2198,3.9785,2098
3,1.9999,-2.0,-0.2754,1.8484,-1.0967,4.3634,2054
3,-2.0,-0.1489,-0.5894,3.5509,2.91,3.1726,2028
3,-2.0,0.0081,-0.4236,1.3817,2.0556,2.5975,2055
3,-2.0,-0.5481,0.4102,1.7109,4.3634,1.1368,2057
3,-2.0,-0.5945,0.5186,1.691,4.3634,-0.0032,2066
3,-0.8413,-0.3816,0.1995,0.9839,3.3473,-0.669,2043
3,-0.0872,-0.3364,-0.0244,0.1381,2.8536,-0.861,2037
3,-0.0862,0.0764,-0.0537,-0.6894,2.6859,-2.4273,2056
3,0.3394,-0.0288,-0.2095,-0.223,2.8332,-2.9304,2055
3,0.2485,-0.1431,-0.23,0.9416,3.0395,-2.135,2058
3,0.0222,-0.1543,-0.1992,1.3387,3.2043,-2.0407,2056
3,-0.1406,-0.0984,-0.3208,1.3978,3.2479,-2.0078,2038
3,-0.3225,0.0649,-0.4326,1.6408,2.9846,-1.9499,2043
3,-0.5266,0.1594,-0.4607,1.937,2.4916,-2.1322,2045
3,-0.5664,0.1226,-0.4287,2.2888,2.2169,-2.2811,2098
3,-0.4001,0.0222,-0.3315,2.4385,1.966,-2.6485,2046
3,-0.4114,0.0381,-0.2581,2.4324,1.5518,-3.22,2049
3,-0.5032,0.1079,-0.2625,2.3669,1.3488,-3.7736,2051
3,-0.4771,0.1089,-0.2905,2.3244,1.2754,-4.227,2054
3,-0.4746,0.105,-0.262,2.5,1.2459,-4.3635,2058
3,-0.2732,0.0117,-0.1423,2.65,0.4867,-4.3635,2032
3,-0.0493,-0.1213,-0.1802,2.6763,0.3504,-4.3635,2032
3,-0.2485,-0.3794,-0.0745,2.335,-0.1366,-4.3635,2057
3,0.5071,-0.2661,-0.1672,2.3184,-0.4595,-4.3635,2031
3,-0.113,-0.3582,-0.1028,2.017,-1.2612,-4.3635,2003
3,-0.7368,-0.4124,-0.1296,1.7271,-1.3203,-4.3635,2078
3,-0.863,-0.5396,-0.1951,1.4207,-0.8885,-4.3635,2038
3,-0.8472,-0.396,-0.3684,1.4431,-0.7264,-4.3635,2044
3,-0.6318,-0.3757,-0.0393,1.3608,-1.3101,-4.3635,2053
3,-0.5649,-0.8005,0.2322,0.4173,-1.762,-4.3635,2057
3,-0.8413,-0.9153,-0.0129,0.6815,-1.7041,-4.3635,2042
3,-0.6067,-0.8577,-0.1924,0.6363,-1.319,-4.3635,2046
3,-0.4028,-1.1792,0.2656,-0.2165,-1.5351,-4.3635,2027
3,-0.4346,-1.9021,-0.2361,0.3147,-1.3818,-4.3635,2079
3,-0.3857,-2.0,-0.4731,0.8014,-1.6052,-4.3635,2064
3,-0.2412,-2.0,-0.3184,0.0786,-2.9104,-4.3635,2050
3,-0.1694,-1.1108,-0.8335,0.9618,-3.3395,-4.1217,2050
3,0.0371,-1.6492,-0.9722,-0.2645,-2.9209,-4.2314,2045
3,0.6887,-1.9729,-1.071,-0.2663,-1.9319,-2.4625,2043
3,1.0837,-1.4016,0.1426,-0.8576,-1.3085,-0.2871,2027
3,1.175,-1.9761,1.187,-1.9366,-0.0053,0.7735,2038
3,0.4575,-1.8521,0.488,-2.1819,0.2473,0.959,2060
3,-0.8264,-1.1719,0.3523,-2.4342,0.4043,1.4905,2052
3,-0.7153,-0.4204,0.3459,-1.9836,-0.287,2.6116,2047
3,-0.5029,-2.0,0.5625,-2.5044,-0.6894,1.6045,2079
3,0.3953,-0.7427,0.3345,-2.8175,-0.5261,1.4735,2039
3,-0.0974,0.1841,1.6533,-0.8767,-2.6934,2.7346,2048
3,0.8193,0.2583,1.1697,-0.2183,-1.221,2.0214,2044
3,-0.2603,-1.0662,1.155,1.074,3.6111,-0.4735,2024
3,-1.636,-1.4954,0.9316,-0.2464,4.3634,2.4369,2049
3,-2.0,-1.3301,1.1431,0.0252,4.3634,2.4912,2037
3,-0.3369,-1.7373,0.8481,-0.2143,3.0979,3.1708,2049
3,0.2725,-2.0,0.3025,-3.9941,2.9022,3.391,2028
3,1.7688,-0.0796,-1.7075,-1.193,0.6488,1.0138,2040
4,-0.0203,-1.0916,-1.2026,-2.0325,1.7716,2.5284,2071
4,-1.165,-1.353,-0.2976,-0.1285,0.544,3.167,2059
4,-2.0,-1.3972,0.0596,-1.2691,1.4035,2.6212,2041
4,-1.0195,0.2681,-0.9185,-1.2882,1.892,2.1414,2065
4,-0.3044,-0.2642,-0.9128,-1.1276,1.5418,2.2446,2054
4,-0.6047,-0.8679,-0.4546,-0.3766,0.5149,2.1302,2110
4,-0.8464,-1.239,-0.1528,0.0192,0.083,1.1712,2071
4,-0.376,-0.7681,0.209,0.3725,-1.8012,0.4362,1987
4,-0.2034,-0.8101,0.3369,1.0549,-2.3953,0.6255,2054
4,-0.7161,-0.8906,0.0625,0.7891,-0.757,0.0064,2053
4,-1.1257,-1.2937,-0.22,0.0917,0.1264,0.7757,2044
4,-0.7051,-1.3865,-0.0999,-0.142,0.1483,0.781,2060
4,-0.0896,-1.0439,-0.1829,-0.2224,-0.2156,0.6241,2048
4,-0.0894,-0.9299,-0.2473,0.0284,-0.7244,0.5787,2051
4,-0.2471,-0.9673,-0.2695,0.1904,-0.9339,0.5317,2050
4,-0.3093,-1.0562,-0.2319,0.1241,-0.8207,0.5058,2059
4,-0.3052,-1.0125,-0.1111,0.0032,-0.6377,0.4544,2051
4,-0.3618,-1.0549,-0.052,0.0041,-0.6201,0.3209,2030
4,-0.2385,-0.9802,-0.0256,-0.0634,-0.3907,0.3187,2058
4,0.0652,-0.9797,-0.0261,0.0392,-0.4103,0.5261,2079
4,0.2566,-0.9788,-0.0774,0.123,-0.6161,0.5851,2017
4,0.1184,-1.0066,-0.0728,0.1563,-0.9102,0.6408,2030
4,-0.0332,-0.9768,-0.0513,0.1266,-0.928,0.6208,2134
4,-0.0188,-0.9004,-0.0559,-0.0523,-0.7055,0.6909,2045
4,-0.0237,-0.8513,-0.0591,-0.1045,-0.2747,0.8082,2015
4,0.1858,-0.8333,-0.0173,-0.0744,-0.0774,0.7576,2037
4,0.4504,-1.031,-0.0044,-0.0193,-0.5402,0.8953,1996
4,0.2991,-1.0652,-0.0703,0.0089,-0.4422,0.9634,2040
4,-0.1162,-1.0225,0.0256,-0.1049,-0.5493,1.0274,2035
4,-0.4053,-0.9485,0.1235,-0.136,-0.2033,1.0067,1972
4,-0.3628,-0.9619,0.0,-0.1466,-0.1079,1.0511,2061
4,-0.2871,-1.0154,0.0522,-0.1479,-0.0067,1.056,2005
4,-0.272,-0.9912,0.0261,-0.1197,-0.1182,1.1087,2080
4,-0.1182,-0.9402,0.0225,-0.116,-0.247,1.154,2173
4,0.0759,-0.9568,-0.0002,-0.0703,-0.4176,1.2117,1963
4,0.1233,-0.9956,-0.0635,-0.1025,-0.4982,1.2688,2040
4,0.1741,-1.0315,-0.0779,-0.0917,-0.4453,1.3458,1892
4,0.2007,-1.1438,-0.1333,-0.0957,-0.3878,1.3912,2121
4,-0.498,-0.7925,-0.0928,-0.1814,-0.1633,0.912,2127
4,0.2488,-1.1677,-0.0916,-0.1614,-0.0366,1.9516,2133
4,0.4153,-1.3052,-0.0972,-0.0615,0.0654,1.9905,2326
4,-0.002,-1.3101,-0.0813,-0.1835,-0.1317,1.8181,2301
4,-0.0298,-1.156,-0.085,-0.2622,-0.2634,2.0539,1971
4,0.135,-1.228,-0.0339,-0.3119,-0.125,2.0081,2000
4,0.2388,-1.314,0.0498,-0.2807,-0.3247,2.2414,2070
4,0.1008,-1.2854,0.145,-0.232,-0.1834,2.3949,2124
4,0.0693,-1.2175,0.1921,-0.1557,0.0858,2.4848,2166
4,0.085,-1.2144,0.1819,-0.0626,0.3155,2.6875,2069
4,0.1353,-1.2275,0.1174,0.0226,0.4136,2.8438,2054
4,0.301,-1.3398,0.0662,0.0045,0.4337,2.9048,2036
4,0.4429,-1.5105,-0.0366,-0.0486,0.418,3.0336,2032
4,0.5386,-1.7405,-0.0212,-0.202,0.3107,3.1965,2060
4,0.5842,-1.874,-0.0442,-0.347,0.0694,3.444,2021
4,0.8396,-2.0,0.2939,-0.6654,-0.2096,3.8093,2038
4,1.2224,-2.0,0.0437,-0.9745,-0.2653,4.0187,2043
4,1.1038,-2.0,0.0535,-0.5331,-1.2418,4.117,2043
4,1.5637,-2.0,0.3113,-0.1934,-2.4065,4.2972,2030
4,0.9866,-1.9087,0.166,0.1843,-3.9735,4.3634,2040
4,0.1174,-2.0,0.1094,0.0649,-4.2088,3.3015,2064
4,-0.209,-1.4583,-0.2273,0.6574,-4.1279,4.3634,2060
4,-0.3481,-1.7146,-0.1428,-0.1466,-3.363,2.947,2038
4,-0.9277,-1.917,-0.0332,-1.9727,-3.719,1.4392,2046
4,-2.0,0.1104,-0.4683,-0.9278,-1.766,3.5492,2040
4,-1.7971,0.5876,-0.0007,0.908,0.7352,3.9444,2061
4,1.9999,-2.0,-1.2305,-0.22,-4.3635,4.3634,2064
4,-2.0,0.8757,0.4563,0.5892,-0.9589,2.0583,2038
4,-2.0,0.0083,0.5864,-0.547,0.2234,0.7998,2064
4,-2.0,-0.6909,0.5066,-0.3417,-0.844,-0.3498,2070
4,-0.8491,-0.2356,0.3025,-0.6283,-1.395,-0.8939,2053
4,-0.6665,0.1116,0.3069,-1.3817,-0.4297,-2.1808,2040
4,-0.4485,0.0762,0.1526,-1.6659,0.2968,-3.2196,2055
4,-0.054,-0.054,0.1138,-0.9353,0.652,-2.5848,2079
4,-0.0432,-0.022,0.168,-0.4693,1.2412,-3.0355,2041
4,-0.1143,0.0151,0.1331,-0.3746,1.5928,-2.9815,2046
4,-0.2791,-0.0134,0.0652,-0.2852,1.846,-2.9987,2049
4,-0.4419,-0.0122,0.0784,-0.0549,1.7471,-2.9384,2047
4,-0.5498,-0.0283,0.0835,0.1149,1.6371,-3.1586,2053
4,-0.7075,-0.0171,0.1301,0.0744,1.8065,-3.5688,2047
4,-0.5974,0.0903,0.1177,-0.023,2.0096,-3.8388,2050
4,-0.6021,0.1206,0.1184,0.1192,2.2696,-4.2214,2050
4,-0.5479,0.1064,0.1069,0.2541,2.3619,-4.3635,2050
4,-0.4651,0.0215,0.0901,0.4179,2.2989,-4.3635,2050
4,-0.2854,-0.0271,-0.0112,0.7496,2.2904,-4.3635,2054
4,-0.4001,-0.2124,0.0022,0.8429,2.0523,-4.3635,2052
4,-0.188,0.0527,-0.095,1.06,1.8797,-4.3635,2056
4,0.0144,-0.1284,-0.106,1.2858,1.5792,-4.3635,2032
4,-0.0845,-0.2676,-0.1204,1.2061,1.2252,-4.3635,2036
4,-0.4153,-0.1108,-0.1035,1.2025,0.8479,-4.3635,2013
4,-0.335,-0.1794,-0.2466,1.4396,0.9547,-4.3635,2055
4,-0.1299,-0.2783,-0.3665,1.9499,0.9873,-4.3635,2049
4,-0.0188,-0.4639,-0.2029,1.7357,0.8823,-4.3635,2047
4,-0.2529,-0.6472,-0.0901,1.9101,0.1412,-4.3635,2042
4,-0.4163,-0.7964,-0.0879,1.975,-0.3967,-4.3635,2048
4,-0.4934,-1.2134,0.2502,1.2315,-1.1459,-4.3635,2047
4,-0.667,-1.5295,0.2593,1.069,-1.1961,-4.3635,2014
4,-0.5872,-1.6335,0.0364,1.5346,-0.904,-4.3635,2069
4,-0.5281,-1.9839,0.0278,1.3688,-0.701,-4.3635,2055
4,-0.4346,-2.0,0.1814,0.6883,-0.6813,-4.3635,2050
4,0.0173,-2.0,-0.053,0.0585,-1.0314,-4.3635,2050
4,-0.0698,-1.5894,0.0105,-0.5288,-2.1596,-3.9403,2042
4,0.4639,-1.5117,-0.5625,-0.695,-2.5389,-3.2092,2024
4,0.0488,-1.2449,-0.8049,0.0443,-1.8592,-1.7681,2053
5,0.2883,-1.1409,0.3127,-0.0895,-1.4918,-0.4701,2058
5,1.0938,-1.8181,0.3374,-0.0603,-0.3133,1.0674,2078
5,-0.2681,-1.5559,0.1667,-0.7803,1.2528,1.9041,2214
5,-0.7983,-1.3918,0.2886,-1.7086,1.6041,2.388,1980
5,-1.2119,-2.0,0.6221,-3.9889,0.6747,-1.9429,2057
5,0.2317,0.2927,0.3752,-1.9955,-0.3691,3.8291,2037
5,0.354,1.3757,0.1245,-0.3892,-0.5474,3.6747,2058
5,-0.4541,-0.3528,1.2236,0.7842,0.7381,1.8744,2036
5,-0.3125,-2.0,0.8716,0.6658,2.6759,1.0604,2036
5,-0.6509,-2.0,0.5691,-0.0692,4.3634,1.8032,2045
5,1.9999,-2.0,1.9999,-2.7396,4.3634,4.3634,2066
5,-1.6475,-2.0,-0.1052,-3.0413,2.8546,-0.62,2051
5,-1.2551,-0.0835,-0.1145,-1.3936,3.1107,3.2582,2046
5,-1.1536,-1.8413,0.0452,-2.5872,2.1049,3.6739,2065
5,-1.2041,-1.1873,-0.0767,-1.1448,-0.0751,3.6424,2057
5,-1.5908,0.0356,-0.533,-1.0838,0.8705,2.7894,2070
5,-1.0371,-0.0046,-1.1792,-1.2463,2.6036,2.4698,2047
5,-0.7083,-0.6074,-1.0508,-1.4002,2.2586,2.0164,2056
5,-0.3103,-1.2209,-0.3755,-1.222,0.5834,1.9216,2053
5,-0.324,-1.2844,-0.426,0.123,-0.6516,0.8855,2004
5,0.3809,-0.4658,0.4517,1.2484,-3.4106,0.4127,2048
5,-1.2285,-0.6704,0.0308,0.7135,-1.2579,0.667,2041
5,-1.72,-0.9797,-0.2634,0.0519,0.0276,0.1075,2020
5,-0.9958,-1.407,-0.0728,-0.0265,0.2872,1.115,2078
5,-0.4255,-1.4319,-0.158,-0.3133,0.3545,0.911,2093
5,-0.0056,-1.1321,-0.1479,-0.1535,-0.4448,0.5769,2014
5,0.0166,-0.9834,-0.1646,0.1734,-1.1955,0.6569,2049
5,-0.6172,-0.9976,-0.2104,0.2084,-0.8164,0.5244,2060
5,-0.7017,-0.9072,-0.1074,0.0847,-0.4883,0.3253,2055
5,-0.4263,-1.0237,-0.1125,0.0748,-0.0641,0.4044,2048
5,-0.2378,-1.1243,-0.0208,-0.018,-0.2269,0.3352,2071
5,0.1438,-0.9368,-0.074,-0.0491,-0.3995,0.3132,2022
5,0.231,-1.0308,-0.0879,0.0535,-0.713,0.4299,2006
5,0.0591,-0.9492,-0.1116,0.0397,-0.948,0.4737,2054
5,0.0718,-0.8584,-0.1003,0.0554,-0.8921,0.4882,2043
5,0.0337,-0.8833,-0.0398,0.0835,-0.5803,0.469,2025
5,-0.0581,-0.9604,-0.0103,0.0613,-0.2036,0.6674,2081
5,0.2559,-0.9287,-0.0107,-0.0943,-0.3867,0.5854,1983
5,0.5754,-1.0366,0.0159,-0.1,-0.5862,0.8793,2017
5,0.1343,-1.0034,-0.1426,-0.1325,-0.4565,0.8672,2032
5,-0.1143,-0.9304,0.0056,-0.1665,-0.7104,0.9364,1997
5,-0.1553,-0.8835,0.0015,-0.1324,-0.1799,0.956,2074
5,-0.0095,-0.959,-0.0254,-0.1499,-0.0883,1.028,2056
5,0.0122,-1.0415,-0.0159,-0.1127,-0.0256,0.973,2041
5,-0.1389,-0.9973,0.0337,-0.057,-0.1689,1.1047,2083
5,-0.0818,-1.0208,0.0315,-0.0638,-0.3201,1.0945,2100
5,-0.0522,-1.0923,0.0232,-0.1582,-0.6227,1.1951,1958
5,0.0676,-1.123,0.053,-0.2489,-0.5839,1.3001,1970
5,0.2595,-1.0498,0.0793,-0.2296,-0.6516,1.3894,2019
5,0.3044,-1.0491,0.0317,-0.2422,-0.6058,1.5214,2065
5,0.2964,-1.0789,0.0032,-0.2811,-0.5448,1.6353,2453
5,-0.3655,-1.0657,0.0198,-0.4633,-0.2735,1.3209,2537
5,0.1262,-1.0205,-0.0598,-0.418,-0.223,2.3265,2207
5,0.5059,-1.4871,-0.1895,-0.316,-0.0574,2.1278,2476
5,0.1501,-1.4568,-0.1118,-0.4553,-0.1985,2.2542,2117
5,0.1074,-1.3547,-0.0012,-0.4368,-0.3386,2.1742,2054
5,0.1562,-1.3584,0.0759,-0.388,0.0374,2.4064,2040
5,0.1995,-1.3828,0.2461,-0.435,-0.0562,2.4614,2011
5,-0.0027,-1.2737,0.1865,-0.3637,0.1525,2.6105,2083
5,0.0413,-1.2983,0.1807,-0.2911,0.2605,2.7604,2015
5,0.304,-1.4111,0.1597,-0.2567,0.3734,2.9031,2032
5,0.459,-1.5303,0.1277,-0.2978,0.4554,3.0644,2046
5,0.6855,-1.7319,0.0913,-0.4107,0.443,3.3395,2061
5,0.8088,-1.8601,-0.0173,-0.5042,0.4071,3.601,2049
5,0.8359,-2.0,0.2075,-0.6602,0.0413,4.0148,2051
5,1.5735,-2.0,0.1165,-0.9282,-0.7058,4.1748,2045
5,1.6907,-2.0,0.1199,-0.3554,-2.1871,4.3634,2036
5,1.1609,-2.0,0.4707,-0.2064,-3.3174,3.6472,2026
5,0.9229,-2.0,0.2883,-0.0478,-4.3367,4.3437,2051
5,-0.1267,-1.759,0.2314,0.3136,-4.253,4.3634,2061
5,0.3931,-1.6309,-0.1304,-0.703,-3.371,3.4424,2056
5,-0.6172,-1.4539,-0.3716,-2.2318,-3.8101,1.493,2100
5,-2.0,-0.6372,-0.2319,-1.3187,-3.7258,3.0343,2033
5,-1.8618,-0.2471,0.082,0.4003,-1.1481,4.3634,2049
5,1.9999,-1.5884,0.8149,0.9938,0.0158,4.3634,2098
5,-2.0,-0.5618,-1.0195,1.6649,-0.0029,1.8335,2044
5,-2.0,0.3118,0.592,-0.8513,-0.8379,2.2559,2054
5,-2.0,-0.533,1.001,-1.0786,-1.5115,0.9091,2060
5,-2.0,-0.4136,0.6643,-0.8786,-2.3147,-0.4887,2061
5,-0.9431,-0.1938,0.374,-0.9353,-2.3746,-0.9646,2046
5,-1.0676,-0.054,0.2773,-1.7136,-2.0061,-1.888,2032
5,-0.521,0.2317,0.1038,-2.7325,-0.7834,-3.4549,2068
5,-0.041,-0.0784,0.0532,-2.1542,0.355,-3.423,2055
5,0.0232,-0.0652,0.0322,-1.3374,1.3587,-3.3832,2032
5,-0.134,0.0352,-0.0596,-0.9662,2.3071,-3.2379,2046
5,-0.2686,0.0745,-0.0459,-0.6633,2.7056,-2.9277,2053
5,-0.3286,0.146,0.0117,-0.1591,2.4318,-2.7866,2046
5,-0.4353,0.033,0.0488,0.2738,1.9442,-3.006,2047
5,-0.6177,-0.1606,0.0654,0.3956,1.8033,-3.503,2049
5,-0.6729,-0.0747,0.0427,0.2903,2.0747,-3.8142,2050
5,-0.6638,0.1025,0.071,0.3286,2.4613,-4.1033,2055
5,-0.4788,0.085,0.0627,0.4621,2.5601,-4.3635,2051
5,-0.3542,0.0234,0.0396,0.715,2.5131,-4.3635,2054
5,-0.4275,0.0212,0.0579,0.9436,2.2326,-4.3635,2053
5,-0.4531,-0.0649,0.0037,1.0299,2.1574,-4.3635,2048
5,-0.157,-0.0852,-0.1299,1.2746,2.3003,-4.3635,2052
5,0.2812,-0.2898,-0.0679,1.3352,2.1035,-4.3635,2050
5,-0.032,-0.2302,-0.1252,1.23,1.1794,-4.3635,2045
5,-0.3423,-0.2188,-0.2,1.3143,1.0188,-4.3635,2048
5,-0.5334,-0.2126,-0.269,1.5014,1.3187,-4.3635,2046
5,-0.4412,-0.1719,-0.3206,1.7065,1.4352,-4.3635,2056
6,-0.2432,-0.2742,-0.3396,2.1897,1.1453,-4.3635,2039
6,-0.2046,-0.4988,-0.2603,2.5533,0.5843,-4.3635,2048
6,-0.3777,-0.885,-0.1057,2.5481,0.0185,-4.3635,2051
6,-0.7793,-1.2463,0.2063,1.751,-0.624,-4.3635,2042
6,-0.8372,-1.5842,0.3914,0.6919,-0.9276,-4.3635,2053
6,-0.3223,-2.0,0.6755,0.2495,-1.3599,-4.3635,2048
6,0.7336,-2.0,0.4854,-0.9353,-1.646,-4.3635,2054
6,0.6541,-2.0,-1.2141,0.0563,-0.5418,-3.9535,2060
6,-0.9541,-1.9624,-0.4587,-0.0402,-1.6247,-3.6949,2040
6,0.1719,-0.5911,0.0654,2.1935,-4.3635,-4.2165,2026
6,-1.9507,-1.8579,-0.2629,-0.1907,-2.5192,-3.1452,2052
6,-1.1736,-1.8467,-0.1802,-1.2921,-1.5218,-2.0192,2074
6,0.7634,-1.1289,0.3823,-1.0054,1.3806,-0.8252,2055
6,1.5759,-1.3181,0.7068,-1.1057,3.1628,0.7913,2041
6,0.595,-1.9563,0.1794,-1.1227,1.4616,0.5971,2052
6,0.3433,-1.6111,-0.1418,-1.7085,-0.4924,1.6534,2051
6,-1.0381,-0.604,-1.082,-1.7599,-0.0959,2.2055,2051
6,-2.0,-0.7781,1.9807,1.0841,-0.8096,4.3634,2047
6,0.2463,-1.4241,1.9999,0.483,-1.7909,2.6295,2051
6,1.9999,-2.0,0.8525,-0.1298,2.7758,1.537,2031
6,0.9907,-2.0,-1.1089,-0.907,4.3634,-0.4301,2050
6,-0.926,0.6946,-0.3875,-0.9898,4.3634,1.2814,2039
6,-2.0,-1.5957,1.6138,-1.3331,3.7347,4.3634,2069
6,-1.9121,-1.6343,1.1599,-1.0234,-0.8947,4.3634,2048
6,-0.6099,-0.8289,0.1436,-3.1602,-2.122,3.64,2049
6,-0.6816,-0.4604,-1.0183,-2.7693,0.0065,3.0472,2044
6,-1.3555,-0.4417,-1.4866,-1.428,2.6726,2.9075,2081
6,-0.6619,0.041,-0.8674,-0.8255,3.0008,2.0574,2065
6,-0.3093,-0.7639,-0.125,-0.9999,0.7933,2.2674,2080
6,0.3325,-1.2744,-0.7664,-0.035,0.3374,1.486,2042
6,-0.1943,-0.6072,-0.1052,1.0247,-1.9286,0.6373,2038
6,-0.7874,-0.6467,0.0942,1.0172,-2.7368,1.1806,2036
6,-1.571,-0.8208,0.0935,0.2535,0.1242,-0.0501,2062
6,-1.2236,-1.1902,-0.1743,0.2491,-0.3635,0.8054,2075
6,-0.6555,-1.4797,-0.0208,0.0951,-0.2718,1.219,2051
6,0.0259,-1.2622,-0.05,-0.1258,-0.2811,0.7224,2053
6,0.1533,-1.0247,-0.1543,0.1007,-0.9335,0.8669,2059
6,-0.2234,-1.04,-0.1917,0.1718,-1.2043,0.92,2039
6,-0.6309,-0.9333,-0.2026,0.1139,-0.6794,0.6585,2055
6,-0.6628,-0.9309,-0.1033,0.0186,-0.0559,0.4651,2055
6,-0.3186,-0.9866,-0.0642,0.0104,0.2313,0.5642,2039
6,0.1057,-1.1492,-0.0449,0.0583,-0.1461,0.4485,2056
6,0.2676,-0.8193,-0.0171,-0.0437,-0.3868,0.337,2057
6,0.0288,-0.7644,-0.0498,0.1513,-0.4155,0.591,2057
6,-0.0796,-1.063,-0.0447,0.1851,-0.6179,0.6183,2069
6,0.1736,-1.0103,-0.0725,0.0176,-0.8333,0.6232,2037
6,0.189,-0.9863,0.0125,0.0659,-0.8052,0.7498,2035
6,-0.1763,-0.9783,0.0295,-0.078,-0.4165,0.7363,2053
6,-0.1404,-0.8918,-0.0337,-0.0455,-0.1714,0.7877,2053
6,0.2869,-1.0125,0.0674,-0.032,-0.3432,0.8846,2022
6,0.0593,-1.145,-0.093,-0.2264,-0.1791,0.865,2035
6,-0.116,-1.0137,-0.082,-0.1341,-0.3029,1.022,2131
6,-0.0686,-0.8608,-0.0044,-0.1109,-0.1848,1.0047,2033
6,0.0786,-0.895,-0.0813,-0.0858,-0.2551,1.0854,1981
6,0.0859,-0.9587,-0.0991,-0.2109,-0.4402,1.0303,2037
6,-0.0876,-0.8967,-0.071,-0.2273,-0.4839,1.1307,2032
6,-0.2061,-0.9131,-0.0105,-0.1802,-0.4786,1.1352,2180
6,-0.1309,-1.0391,-0.0427,-0.192,-0.2814,1.1852,2086
6,-0.0474,-1.1318,0.0024,-0.163,-0.2607,1.1793,1943
6,-0.0315,-1.1912,0.0312,-0.2139,-0.2888,1.2611,2286
6,0.0837,-1.1497,0.0352,-0.2132,-0.2441,1.3616,1934
6,0.1643,-1.1055,0.043,-0.2567,-0.4048,1.4878,2236
6,-0.7195,-0.885,0.052,-0.3027,-0.3125,0.9676,1928
6,0.2109,-1.2932,0.0032,-0.3027,-0.2927,2.1539,2220
6,0.7864,-1.5698,-0.1057,-0.1653,-0.023,2.1394,1975
6,0.2522,-1.438,0.0286,-0.1771,-0.3984,2.2326,2017
6,0.2131,-1.4258,0.0933,-0.1723,-0.0902,2.2059,2027
6,0.2778,-1.4839,0.217,-0.1325,0.1743,2.3467,2226
6,0.2551,-1.4111,0.2607,-0.1409,0.4382,2.5665,2245
6,0.3281,-1.3093,0.2554,-0.0935,0.3856,2.7735,2055
6,0.1602,-1.3008,0.1604,0.0037,0.5873,2.8469,2078
6,0.3596,-1.4763,0.1064,-0.022,0.7016,3.016,2060
6,0.6738,-1.5676,0.0476,-0.1087,0.6059,3.1704,2063
6,0.7432,-1.7324,0.0383,-0.2808,0.5011,3.3022,2060
6,0.7981,-1.8237,0.0515,-0.4837,0.2337,3.6463,2050
6,0.7729,-1.875,0.094,-0.432,-0.2348,4.0674,2034
6,1.3828,-2.0,0.1704,-0.9509,-0.3663,4.3634,2044
6,1.8469,-2.0,0.0244,-0.0364,-1.931,4.3634,2034
6,0.969,-2.0,0.2385,0.3958,-3.2705,4.1168,2030
6,0.2756,-2.0,0.0471,0.2758,-3.381,3.6352,2056
6,0.0046,-1.7434,-0.2422,0.6982,-3.5215,4.3634,2059
6,0.397,-1.6365,-0.4812,-0.2775,-2.4196,3.3961,2099
6,-0.4766,-1.7227,0.136,-1.5804,-4.3125,1.1216,2030
6,-1.7781,-0.8364,-0.4507,-1.3454,-2.7635,2.2759,2040
6,-2.0,-0.0168,-0.0867,0.5072,-0.2983,4.3407,2047
6,-1.3433,-0.3574,-0.5176,2.1353,2.1096,3.5097,2081
6,1.9999,-2.0,-1.959,0.3606,-4.3635,3.952,2079
6,-2.0,1.2095,1.1768,0.8485,-1.236,2.2523,2047
6,-2.0,0.0916,0.4253,-0.2495,-0.607,0.7688,2067
6,-2.0,-0.582,0.2656,-0.683,-0.9464,-0.542,2060
6,-0.8606,-0.2217,0.178,-0.816,-1.2816,-1.0955,2054
6,-0.8442,-0.1489,0.2251,-1.1973,-1.0409,-1.8919,2052
6,-0.4653,0.1418,0.1648,-2.168,-0.1384,-3.3686,2050
6,0.0327,-0.0427,0.0947,-1.7431,0.6829,-3.4869,2046
6,0.1812,0.0322,-0.0015,-0.7714,1.2079,-3.2801,2047
6,0.0979,0.1445,-0.0559,-0.2643,1.8146,-3.2321,2046
6,-0.0298,0.1921,-0.0466,0.1791,1.747,-3.1014,2051
6,-0.3542,-0.0635,0.0198,0.3137,1.4789,-3.3922,2049
6,-0.5208,-0.1743,0.0745,0.2108,1.1689,-3.702,2049
6,-0.5627,-0.1299,0.1108,0.1225,1.074,-3.9369,2046
6,-0.5325,0.0291,0.1152,0.2099,1.3884,-4.0169,2053
6,-0.5488,0.1465,0.1206,0.3072,1.7757,-4.3635,2051
6,-0.4656,0.0708,0.0762,0.4372,1.735,-4.3635,2054
7,-0.5896,0.0217,0.1079,0.5255,1.5996,-4.3635,2055
7,-0.5557,-0.1111,-0.0168,0.559,1.6114,-4.3635,2053
7,-0.3469,0.0518,-0.0447,0.7642,1.4953,-4.3635,2049
7,0.0027,-0.1963,-0.1018,1.0452,2.011,-4.3635,2048
7,-0.0913,-0.2366,-0.0476,0.8787,1.2806,-4.3635,2049
7,-0.2908,-0.1521,-0.1511,0.9357,1.1091,-4.3635,2047
7,-0.4016,-0.2188,-0.2402,1.1941,1.3183,-4.3635,2050
7,-0.4851,-0.178,-0.3633,1.3766,1.4059,-4.3635,2030
7,-0.3816,-0.1567,-0.4819,2.0655,1.3508,-4.3635,2097
7,-0.2126,-0.5486,-0.3779,2.4157,0.8786,-4.3635,2051
7,-0.3762,-0.9392,-0.0322,2.2953,0.1169,-4.3635,2049
7,-0.6775,-1.1667,0.1067,1.6287,-0.9556,-4.3635,2043
7,-0.6077,-1.2239,0.2124,1.0805,-1.4057,-4.3635,2052
7,-0.2646,-1.5232,-0.0571,1.2516,-0.9152,-4.3635,2025
7,-0.303,-2.0,-0.1382,1.5017,-0.9673,-4.3635,2050
7,-0.3557,-2.0,-0.0056,1.026,-1.3981,-4.3635,2073
7,-0.3025,-2.0,-0.2778,0.4822,-1.8652,-4.3635,2063
7,-0.3391,-1.6035,0.0195,-0.3643,-2.8913,-4.0954,2051
7,0.2622,-1.6421,-0.6023,-0.5799,-2.053,-3.3423,2019
7,0.5894,-1.6411,-0.4612,-0.6071,-1.4047,-1.5792,2044
7,0.6646,-1.5554,0.5388,-1.3861,-0.336,0.0164,2054
7,0.8401,-1.2778,0.1772,0.0241,0.5903,1.1818,2085
7,-0.2432,-1.9375,0.1777,-1.1045,0.8296,2.3139,2105
7,-0.7358,-1.3105,0.1438,-1.9291,0.5669,2.6193,1971
7,-1.9573,-2.0,0.5142,-3.448,0.5211,-1.462,2054
7,0.3228,-0.0146,0.4448,-1.65,-0.6442,4.1835,2043
7,0.019,0.6992,0.6809,-0.512,-0.269,2.8304,2067
7,0.2126,-0.5283,1.1282,0.5188,2.8674,0.7319,2048
7,-0.0757,-1.6367,0.7183,0.5877,3.8028,1.6627,2018
7,-2.0,-2.0,0.6597,0.0972,4.3634,2.0221,2050
7,-1.3362,-2.0,1.0166,0.5733,4.3634,2.5952,2073
7,1.9999,-2.0,1.166,-3.6407,3.2664,4.3634,2109
7,-0.9692,-0.0454,-1.0552,-1.4571,3.6302,1.9116,2014
7,-0.2427,-1.1409,-0.728,-2.2346,2.6228,3.3278,2068
7,-0.5496,-0.6929,-0.0361,-1.389,-0.7946,3.271,2051
7,-1.1868,-0.6084,0.1448,-1.0641,-0.397,2.9703,2053
7,-1.4404,-0.4121,-0.552,-0.9646,0.4593,2.5245,2056
7,-0.9873,-0.3594,-0.8704,-1.2668,2.8082,2.1136,2059
7,-0.8923,-0.7058,-0.6633,-1.4653,2.0125,1.7763,2061
7,-0.3411,-1.2935,-0.2178,-0.9898,-0.5372,1.7715,2054
7,0.0364,-0.9353,-0.6169,0.4506,-1.4715,-0.0092,2037
7,0.0352,-0.427,-0.0037,1.0817,-2.4064,0.4858,2023
7,-1.2749,-0.7896,-0.0879,0.2169,-0.5966,0.594,2042
7,-1.1958,-1.1418,-0.2903,0.0928,-0.4272,0.5094,2001
7,-0.4492,-1.4998,0.0388,0.0208,-0.4967,1.189,2105
7,-0.2756,-1.2163,-0.0115,-0.1602,-0.6074,0.758,2049
7,-0.2383,-1.0005,-0.0325,-0.0868,-1.2101,0.7914,2068
7,-0.4504,-1.071,0.0383,0.0599,-1.2504,0.7194,2058
7,-0.6208,-1.0491,0.0476,-0.1119,-0.4654,0.5919,2040
7,-0.6299,-0.97,0.0203,-0.2898,0.0148,0.4312,2049
7,-0.2778,-0.8774,-0.0942,-0.2804,-0.0844,0.2764,2049
7,0.1233,-0.9417,-0.0603,-0.1615,-0.3836,0.2067,2044
7,0.2292,-1.0107,-0.0901,-0.0955,-0.4904,0.4442,2035
7,0.178,-1.0769,-0.1348,-0.0393,-0.6806,0.5155,2070
7,0.1196,-0.9822,-0.167,-0.0539,-0.9009,0.5906,2069
7,0.0269,-0.887,-0.145,-0.0931,-0.7501,0.5911,2027
7,-0.0427,-0.8708,-0.1023,-0.0625,-0.5525,0.5257,2024
7,-0.124,-0.9026,-0.0945,-0.0692,-0.3638,0.63,2070
7,0.0981,-0.8875,-0.0396,-0.1677,-0.5344,0.6161,2027
7,0.1541,-1.0291,0.0344,0.0722,-0.3369,0.8002,2082
7,-0.0803,-1.0366,0.0332,-0.0759,-0.1274,0.8794,2013
7,-0.0735,-0.9304,0.0881,-0.1029,-0.0549,0.8749,2043
7,-0.0171,-0.9712,0.0115,-0.1549,-0.1019,0.9166,2032
7,-0.0728,-1.0786,-0.1445,-0.2084,-0.2474,0.8758,2041
7,-0.0845,-0.9927,-0.0518,-0.1788,-0.3891,0.9344,2075
7,-0.2048,-0.9424,-0.0115,-0.2108,-0.3793,0.9028,2055
7,-0.0339,-0.9888,0.0295,-0.1649,-0.4191,1.0589,2115
7,0.3567,-1.1079,0.0305,-0.1871,-0.4083,1.1636,2075
7,0.6401,-1.2188,0.0906,-0.3245,-0.5311,1.3505,2004
7,0.5803,-1.1433,0.051,-0.393,-0.6462,1.5119,2163
7,0.3999,-1.0698,0.0239,-0.4582,-0.4837,1.6113,1857
7,0.1252,-1.1108,-0.1055,-0.4876,-0.3421,1.7412,1893
7,-0.0359,-0.7686,-0.157,-0.4529,-0.1976,2.0236,2104
7,0.0688,-1.3191,-0.2239,-0.4028,0.1718,2.0841,2361
7,0.0903,-1.4243,-0.2454,-0.4243,0.0695,2.0656,2004
7,-0.0872,-1.2244,-0.2002,-0.5952,-0.02,2.0808,2234
7,0.1199,-1.2791,-0.0242,-0.4806,-0.1906,2.1076,2171
7,0.0637,-1.3572,0.0974,-0.3991,-0.2752,2.3265,2044
7,-0.0457,-1.3311,0.2231,-0.4362,-0.08,2.3684,2013
7,-0.0623,-1.2004,0.2134,-0.3942,-0.0517,2.4811,2100
7,-0.0344,-1.2676,0.1592,-0.3444,0.1629,2.5157,2034
7,0.1646,-1.3794,0.2058,-0.3369,0.3149,2.6394,2034
7,0.4126,-1.4763,0.1379,-0.3914,0.2844,2.769,2023
7,0.5579,-1.5735,0.0864,-0.473,0.2059,2.902,2004
7,0.7688,-1.6882,0.0242,-0.5577,-0.002,3.2505,2063
7,0.8372,-1.7966,0.1372,-0.5076,-0.3851,3.6688,2058
7,1.2185,-2.0,0.2112,-0.7897,-0.8617,3.8478,2056
7,1.5547,-2.0,0.2261,-0.3613,-1.823,4.0707,2043
7,1.4885,-2.0,0.4685,-0.2578,-3.4455,3.9283,2024
7,1.188,-2.0,0.3174,-0.4203,-3.741,3.4573,2020
7,0.332,-1.7239,0.1357,-0.3557,-4.3635,4.2788,2076
7,-0.2559,-1.6243,-0.1077,-0.2272,-4.2214,4.1535,2055
7,0.2771,-1.2683,-0.3748,-1.2292,-3.754,2.7773,2051
7,-1.373,-1.1125,0.1204,-1.3246,-4.131,1.9912,2104
7,-1.9768,-0.7927,-0.146,-0.2559,-2.8694,4.0213,2034
7,-1.1824,-0.6377,0.3206,1.0842,-0.624,4.3634,2054
7,1.9999,-1.9702,-0.0625,0.9871,-3.5045,4.3634,2061
7,-2.0,-0.1462,-0.4692,0.789,-0.4454,2.0851,2032
7,-2.0,-0.1111,0.4641,-1.1941,-1.376,2.1856,2061
7,-2.0,-0.6104,0.8655,-1.0322,-1.7134,0.9124,2061
7,-1.7397,-0.3748,0.6274,-0.7498,-2.1246,-0.42,2056
7,-0.8821,-0.1687,0.3127,-0.8669,-2.1778,-0.8082,2046
8,-1.0005,-0.0176,0.2173,-1.6765,-1.9808,-1.6847,2050
8,-0.5681,0.2102,0.0999,-2.6999,-0.8236,-3.191,2062
8,-0.0737,-0.0598,0.0425,-2.1081,0.2402,-3.3108,2045
8,0.0349,-0.1428,0.0093,-1.1428,1.2669,-3.106,2047
8,-0.1226,-0.0413,0.0186,-0.7349,2.1088,-3.0237,2050
8,-0.3027,-0.0417,0.0632,-0.6193,2.269,-2.9759,2048
8,-0.4102,0.0208,0.0891,-0.3714,1.9631,-2.8468,2050
8,-0.4045,-0.0039,0.1533,-0.0583,1.5251,-2.9256,2048
8,-0.5693,-0.1155,0.175,0.0423,1.5311,-3.411,2050
8,-0.6123,-0.0605,0.1313,0.0999,1.9443,-3.6838,2053
8,-0.6255,-0.002,0.1282,0.1876,2.3485,-4.0506,2052
8,-0.5874,0.0217,0.1375,0.2788,2.4666,-4.3635,2055
8,-0.5312,-0.042,0.1545,0.4416,2.396,-4.3635,2054
8,-0.3772,0.0398,0.0803,0.6569,2.2478,-4.3635,2053
8,-0.3438,-0.3279,0.1179,0.6889,2.0762,-4.3635,2050
8,0.0085,-0.219,-0.1243,1.0203,2.1285,-4.3635,2050
8,-0.0437,-0.2703,-0.0569,0.961,1.8821,-4.3635,2049
8,-0.1641,-0.2664,-0.0693,0.8207,1.4077,-4.3635,2050
8,-0.0952,-0.3279,-0.1587,0.9741,1.1854,-4.3635,2049
8,-0.2791,-0.3816,-0.1692,1.0923,0.965,-4.3635,2055
8,-0.5732,-0.2695,-0.2063,1.2732,1.0444,-4.3635,2057
8,-0.4287,-0.2747,-0.2568,1.5609,1.0644,-4.3635,2056
8,-0.2791,-0.4417,-0.3413,2.0262,0.9254,-4.3635,2051
8,-0.2227,-0.6565,-0.3584,2.4083,0.5237,-4.3635,2051
8,-0.5093,-0.9788,-0.2168,2.5484,0.0039,-4.3635,2053
8,-0.8245,-1.2852,0.2537,1.7431,-0.8698,-4.3635,2041
8,-0.6792,-1.5051,0.2854,0.5008,-1.1982,-4.3635,2046
8,-0.4106,-1.7805,-0.1003,0.7038,-0.6789,-4.3635,2052
8,0.0007,-2.0,-0.0554,0.9188,-0.5605,-4.3635,2051
8,0.3689,-2.0,0.3372,-0.7488,-1.6468,-4.3635,2053
8,0.5388,-1.3259,-0.6794,0.7889,-2.3868,-2.948,2051
8,-0.7651,-1.4119,-0.3577,0.4501,-3.3802,-3.3919,2041
8,-1.1628,-1.5129,-0.1833,-0.1212,-2.3449,-2.2037,2052
8,-0.1738,-1.8315,0.3691,-0.9503,0.8777,-1.3146,2038
8,1.9999,-0.7976,0.4978,-0.435,0.475,0.5846,2032
8,-0.2585,-1.3896,0.0342,-0.3952,2.045,1.1232,2078
8,-0.7505,-2.0,0.0105,-1.0983,0.7686,1.7921,2052
8,1.6982,-2.0,-0.2739,-3.5485,-0.6083,-1.5017,2076
8,-1.0398,0.7041,-0.5034,-1.6737,0.7287,4.0209,2053
8,-0.489,1.0559,0.8186,0.707,-0.4101,4.3634,2051
8,-0.668,-1.1782,1.8445,1.2691,-0.3691,1.6235,2046
8,0.5979,-2.0,0.978,0.3795,3.8668,1.5238,2036
8,-0.0642,-2.0,0.3718,-0.9857,4.3634,1.7137,2044
8,1.9999,-2.0,1.9999,-1.7712,4.3634,4.288,2069
8,-1.5212,-2.0,0.168,-2.6338,2.6757,1.4225,2061
8,-1.8669,-0.1423,0.2144,-1.4988,2.2461,3.5782,2044
8,-1.7681,-1.179,-0.0396,-2.1895,1.9516,3.4986,2058
8,-0.9097,-0.4526,-0.1033,-1.4772,-0.5626,3.1063,2060
8,-1.3943,-0.8108,-0.2263,-1.4551,-0.3448,2.8637,2051
8,-1.4124,-0.3604,-1.1667,-1.343,2.0097,2.5771,2058
8,-0.7478,-0.1719,-1.0776,-0.7542,2.9361,1.9544,2056
8,-0.1758,-0.9675,-0.4092,-1.2234,0.7156,1.6162,2067
8,0.0645,-1.3274,-0.7788,-0.1531,-0.2229,0.9642,2051
8,-0.1042,-0.5181,-0.3887,0.8975,-1.4378,-0.1302,2032
8,-0.4172,-0.6128,0.4314,1.3435,-2.2114,0.9815,2042
8,-1.4421,-1.1265,-0.0039,0.3144,-0.0285,0.7417,2044
8,-1.1943,-1.4434,-0.1228,0.2627,-0.8658,1.0083,2045
8,-0.7246,-1.3577,0.1775,-0.1631,-0.645,0.916,2045
8,-0.3206,-1.0784,0.0579,-0.2752,-0.5086,0.7015,2071
8,-0.1416,-1.022,-0.0596,-0.0253,-1.1609,0.6634,2065
8,-0.4451,-1.0969,-0.0691,0.0623,-1.0577,0.6731,2047
8,-0.6387,-1.0833,-0.1028,-0.0672,-0.3698,0.5305,2060
8,-0.4763,-0.9495,-0.0872,-0.1361,0.0483,0.4723,2052
8,-0.1995,-0.8928,-0.1243,-0.1252,0.1216,0.2995,2051
8,0.0679,-0.9753,-0.1067,-0.0778,-0.0518,0.2381,2053
8,0.2329,-1.0332,-0.0725,-0.0091,-0.3838,0.2378,2051
8,0.2668,-0.8413,-0.0867,0.0164,-0.6418,0.4679,2136
8,0.1885,-0.873,-0.1399,0.1942,-0.9262,0.4334,1996
8,0.2366,-1.0066,-0.1682,0.119,-1.0708,0.5236,2042
8,0.0598,-1.0339,-0.052,-0.127,-0.8079,0.5645,1929
8,0.0354,-0.8916,-0.0127,-0.1201,-0.9938,0.5875,2079
8,0.1145,-0.8843,0.1609,-0.0815,-0.6217,0.7183,2011
8,-0.022,-0.9883,0.0383,-0.0466,-0.636,0.7088,2055
8,-0.0725,-1.0398,0.0232,0.0188,-0.3793,0.9704,1984
8,0.1707,-1.0437,0.0186,-0.1491,-0.0478,0.9758,2049
8,0.3115,-0.9548,0.0178,-0.1485,-0.0174,1.0043,2025
8,0.105,-1.0422,-0.0398,-0.1969,-0.0979,1.0662,2320
8,-0.0293,-1.042,0.0217,-0.273,0.0361,1.1378,1995
8,-0.0659,-1.01,-0.031,-0.2687,-0.0112,1.2167,1986
8,-0.02,-1.0139,-0.0425,-0.2378,-0.1277,1.275,2065
8,-0.0352,-1.0498,-0.0085,-0.2256,-0.3152,1.3484,2141
8,-0.0266,-1.0413,-0.001,-0.2161,-0.1645,1.383,1861
8,0.0525,-1.0574,0.0059,-0.2461,-0.1088,1.4507,2010
8,-0.2676,-0.9504,0.1177,-0.3233,-0.0638,1.178,2233
8,0.2019,-1.0916,0.0364,-0.2878,0.0664,1.8275,2198
8,0.3428,-1.3088,-0.0066,-0.2634,0.2035,1.8913,2622
8,0.0413,-1.3235,-0.1074,-0.3571,-0.1144,1.918,1955
8,0.0869,-1.3145,-0.126,-0.3642,-0.1353,2.0176,2112
8,0.1545,-1.3486,-0.0696,-0.3373,-0.3117,2.024,2574
8,0.1606,-1.3232,-0.0327,-0.2804,-0.2551,2.1228,2371
8,0.1804,-1.364,0.1082,-0.3109,-0.0641,2.2883,1849
8,0.2024,-1.2988,0.1877,-0.2867,-0.0712,2.4501,2023
8,0.1045,-1.2686,0.177,-0.2168,0.096,2.5442,2057
8,0.1472,-1.2964,0.179,-0.1478,0.2659,2.7253,2065
8,0.2385,-1.3816,0.1252,-0.125,0.4774,2.8317,2046
8,0.4185,-1.542,0.093,-0.2236,0.4986,2.9127,2062
8,0.5913,-1.5872,0.0103,-0.2786,0.555,3.1978,2076
8,0.6885,-1.6704,-0.0586,-0.3547,0.5281,3.3862,2057
8,0.7336,-1.946,-0.0247,-0.2996,-0.0735,3.634,2043
8,1.231,-2.0,0.2146,-0.853,-0.3703,3.9933,2036
8,1.6851,-2.0,0.2024,-0.4255,-1.7277,4.2169,2039
8,1.2803,-1.9751,0.197,0.1866,-3.0998,4.3634,2032
8,0.6467,-2.0,0.1431,0.2506,-3.2947,3.3126,2032
9,0.2539,-1.8765,0.1716,0.503,-4.233,4.3634,2060
9,0.1956,-2.0,-0.387,-0.2836,-2.4499,3.4049,2073
9,0.2476,-1.7644,0.251,-1.4826,-4.3635,2.1798,2047
9,-1.5916,-1.2007,-0.1091,-1.7539,-4.3635,1.7908,2033
9,-1.925,-0.2908,0.1074,-0.5434,-1.9683,3.9265,2040
9,-0.707,-0.0366,-0.0073,1.3029,-0.3512,4.0401,2074
9,1.9999,-2.0,-1.1411,0.5167,-4.3635,4.3634,2076
9,-2.0,0.6677,0.4956,0.3428,-2.1028,2.5378,2034
9,-2.0,-0.2861,0.6555,-1.0484,-0.2582,1.442,2056
9,-2.0,-0.5432,0.7861,-0.762,-1.1519,0.1682,2065
9,-1.2849,-0.2283,0.552,-0.8871,-2.0026,-0.8694,2054
9,-0.9661,-0.0933,0.3892,-1.337,-1.7688,-1.3576,2051
9,-0.928,0.1306,0.3181,-2.5918,-0.9969,-3.054,2052
9,-0.051,0.0728,0.2151,-2.3525,0.0308,-3.5153,2062
9,0.0706,-0.249,0.2505,-1.5917,0.8999,-3.3824,2037
9,-0.0627,-0.1179,0.1265,-1.1179,1.8924,-3.4107,2047
9,-0.1311,0.0129,0.0505,-0.9116,2.4482,-3.1957,2050
9,-0.1404,0.0933,0.0706,-0.6854,2.2507,-2.9196,2049
9,-0.2522,0.0359,0.0876,-0.3781,1.6644,-3.0961,2053
9,-0.3669,-0.145,0.1401,-0.1762,1.2603,-3.4487,2049
9,-0.5818,-0.1978,0.157,-0.0796,1.4438,-3.7286,2049
9,-0.6548,-0.0994,0.1592,-0.0774,1.8329,-4.0175,2052
9,-0.574,-0.0288,0.1392,0.037,2.0066,-4.3514,2056
9,-0.4673,-0.083,0.1096,0.223,2.0419,-4.3635,2053
9,-0.4202,-0.0918,0.0708,0.3781,1.7859,-4.3635,2053
9,-0.3582,-0.0366,0.0134,0.498,1.7559,-4.3635,2052
9,-0.1833,-0.1421,-0.0242,0.5787,1.4613,-4.3635,2047
9,-0.1672,-0.2317,0.0469,0.6461,0.9515,-4.3635,2054
9,-0.3303,-0.2097,0.0,0.7917,0.7983,-4.3635,2051
9,-0.3962,-0.2153,-0.1128,0.9718,1.1286,-4.3635,2051
9,-0.4524,-0.2327,-0.1682,1.2231,1.4802,-4.3635,2052
9,-0.3979,-0.2354,-0.1802,1.4443,1.4977,-4.3635,2061
9,-0.3777,-0.291,-0.2502,1.8607,1.2861,-4.3635,2058
9,-0.2966,-0.4961,-0.2444,2.3108,0.9782,-4.3635,2049
9,-0.4221,-0.7705,-0.2703,2.596,0.5498,-4.3635,2045
9,-0.625,-1.1389,-0.0317,2.1792,-0.0322,-4.3635,2052
9,-0.6819,-1.2859,0.092,1.4312,-0.2477,-4.3635,2050
9,-0.5925,-1.3728,-0.0669,1.5324,-0.1693,-4.3635,2044
9,-0.2485,-2.0,0.0447,1.9082,-0.1935,-4.3635,2051
9,1.085,-2.0,0.8176,-1.1367,-2.6791,-4.3635,2050
9,0.3894,-0.552,-0.9805,1.2687,-1.4604,-1.9659,2064
9,-1.5435,-1.9158,0.0859,0.6509,-1.6909,-4.2933,2042
9,-0.7549,-2.0,0.4077,-0.3151,-3.3424,-2.5377,2039
9,-0.8215,-1.4946,0.1553,-0.8484,-1.2126,-1.6301,2057
9,0.1125,-1.2705,-0.2307,-1.3343,0.8461,-0.9756,2062
9,0.4722,-1.2092,-0.2461,-0.4014,3.1906,0.5841,2028
9,1.4983,-0.9861,-0.0354,0.106,1.0299,2.0768,2048
9,1.3257,-2.0,-0.1724,-3.8672,0.595,-3.5708,2077
9,-1.1589,0.1033,-0.7068,-2.2019,1.478,3.789,2039
9,-0.4099,1.1953,-0.1973,0.0858,-0.881,4.3634,2062
9,-1.3787,-0.5625,1.9999,1.2572,-1.018,2.8498,2047
9,1.6123,-2.0,1.3672,0.7898,2.5895,1.0816,2044
9,1.2649,-2.0,0.2825,-0.6052,4.3634,1.2579,2032
9,1.9999,-2.0,0.1494,-3.7035,1.3824,4.3634,2041
9,-0.6816,-0.4089,-0.0479,-0.2968,2.5,1.6222,2047
9,-2.0,-0.519,0.8555,-1.0219,2.5116,3.4722,2071
9,-2.0,-1.1748,0.7087,-1.7399,0.7669,2.8534,2061
9,-0.3369,-1.1448,0.1384,-2.1816,-1.4804,2.6212,2050
9,-0.5864,-1.166,-0.5208,-1.7245,-1.0251,2.477,2052
9,-1.4873,-1.1379,-1.2095,-2.0995,2.533,2.8493,2057
9,-0.4004,-0.1418,-1.3474,-1.2584,3.4314,2.3736,2065
9,-0.0261,-0.5071,-0.5469,-0.7135,1.4814,3.0909,2037
9,-0.4294,-1.3386,-0.5847,-0.6947,0.1449,2.4595,2060
9,-0.8472,-0.8235,-0.3064,-0.1404,0.1151,1.4387,2037
9,-0.7874,-0.1213,0.0649,0.7243,-0.6086,0.1747,2035
9,-0.8647,-0.4065,-0.1372,0.8275,-0.9055,-0.0381,2028
9,-0.7297,-0.9526,0.2419,1.2746,-1.1825,-0.0487,2050
9,-0.5928,-1.7969,0.1987,0.577,-0.1337,0.7983,2063
9,-0.439,-1.7881,-0.0261,-0.0609,-0.4211,0.8204,2001
9,-0.2578,-1.114,0.0334,-0.3192,-0.447,0.7921,2055
9,-0.0896,-0.7571,-0.0371,-0.0894,-0.7889,0.711,2062
9,-0.3699,-0.9204,-0.0981,0.051,-0.8091,0.5705,2063
9,-0.4387,-0.9937,-0.0518,-0.0537,-0.6177,0.363,2067
9,-0.1506,-0.9648,-0.0574,-0.0229,-0.4032,0.4035,2068
9,0.0935,-0.9893,-0.0115,0.0266,-0.5026,0.4697,2054
9,0.1665,-1.0176,0.0164,0.0409,-0.6594,0.4827,2048
9,0.0281,-1.0112,-0.019,0.0115,-0.6762,0.5309,2052
9,0.001,-0.9172,-0.0588,-0.0876,-0.7981,0.5518,2039
9,0.0427,-0.8457,-0.0657,-0.0732,-0.6662,0.5711,2099
9,-0.0071,-0.8325,-0.0723,0.0778,-0.6331,0.5645,2060
9,-0.1448,-0.9272,-0.0308,0.0976,-0.5718,0.6108,2064
9,-0.1423,-1.0095,0.0073,-0.006,-0.3344,0.6208,2032
9,0.0127,-1.0181,0.0581,-0.0716,0.0522,0.7328,2033
9,0.1282,-0.9568,0.0818,-0.0711,-0.0884,0.7839,2049
9,0.1628,-0.9978,0.0264,-0.0626,-0.0606,0.8598,2079
9,0.1692,-1.0706,-0.0781,-0.1293,-0.1951,0.9644,2020
9,0.1309,-1.0566,-0.0686,-0.2104,-0.2709,0.9508,2073
9,0.053,-0.9927,-0.0085,-0.1884,-0.2461,1.0515,2098
9,-0.0754,-0.9561,0.0193,-0.1424,-0.2802,1.0961,2051
9,-0.0552,-1.0286,0.0435,-0.1324,-0.1577,1.1653,2141
9,0.0996,-1.1301,0.0173,-0.1505,-0.1602,1.2517,2077
9,0.2378,-1.1611,0.0369,-0.1907,-0.2585,1.3312,2320
9,0.2556,-1.1172,0.0559,-0.1731,-0.4,1.4427,2330
9,0.2795,-1.0735,-0.0525,-0.2278,-0.2641,1.5731,2388
9,0.2402,-1.1587,-0.0437,-0.3136,-0.2633,1.65,2178
9,0.0273,-1.1992,-0.0579,-0.3345,-0.1915,1.7616,2230
9,-0.2002,-1.1248,0.0383,-0.3055,-0.135,1.7889,2055
9,0.1113,-1.3169,-0.002,-0.2695,-0.3288,2.2935,2020
9,0.4463,-1.6433,-0.0117,-0.3856,-0.4201,2.077,2028
9,0.1084,-1.2913,0.0811,-0.3545,-0.1814,2.3015,2031
9,-0.0347,-1.1975,0.2732,-0.1806,-0.1241,2.4683,2056
9,0.3096,-1.4456,0.2861,-0.1962,0.057,2.5338,2122
10,0.2002,-1.2319,0.2288,-0.0795,0.2277,2.6789,2061
10,0.0962,-1.3008,0.1665,-0.0573,0.5769,2.7015,2050
10,0.2622,-1.3914,0.1028,-0.0807,0.8732,2.801,2056
10,0.4543,-1.4631,0.0518,-0.1171,0.8597,3.0163,2055
10,0.7231,-1.6099,-0.0281,-0.2208,0.8347,3.2769,2053
10,0.8086,-1.7124,-0.0979,-0.3322,0.543,3.5957,2075
10,0.8005,-1.9065,0.0305,-0.2898,-0.0507,3.7767,2053
10,1.3958,-2.0,0.0552,-0.6046,-0.4781,4.0873,2037
10,1.6296,-2.0,0.1714,-0.0839,-1.7855,4.3634,2033
10,0.8284,-2.0,0.2153,0.3263,-2.9131,4.1026,2018
10,0.6289,-2.0,0.2688,0.2666,-3.2641,4.1176,2064
10,0.3389,-2.0,-0.0046,0.5036,-3.0376,4.3634,2052
10,0.9036,-1.6558,-0.4197,-0.756,-2.8601,2.7674,2045
10,-0.9265,-2.0,0.1108,-1.92,-4.3635,1.4471,2048
10,-2.0,-1.0198,-0.1482,-1.3996,-3.3001,2.5388,2044
10,-1.7031,-0.0664,0.3813,0.3188,-0.7927,4.3634,2053
10,0.7056,-0.6697,-0.1306,1.491,0.4103,3.9201,2083
10,-1.8069,-1.0964,-1.9099,1.5649,-1.5122,2.537,2078
10,-2.0,0.8435,0.7341,0.4163,-2.6053,2.8208,2040
10,-2.0,-0.3333,0.844,-0.7697,0.0513,1.1935,2064
10,-2.0,-0.4526,0.7576,-0.7167,-1.1216,0.0148,2068
10,-1.1328,-0.1235,0.4434,-0.9516,-1.9274,-0.8263,2054
10,-1.0503,-0.0762,0.3777,-1.5659,-1.5569,-1.4295,2047
10,-0.7444,0.1692,0.3328,-2.7277,-0.7336,-3.1218,2057
10,-0.0227,0.1094,0.2656,-2.2483,0.2529,-3.738,2055
10,0.0146,-0.1836,0.1877,-1.3804,1.1459,-3.3202,2040
10,-0.1284,-0.1333,0.0642,-0.9531,2.2481,-3.2453,2045
10,-0.2004,-0.0049,0.0415,-0.8188,2.7264,-3.0541,2048
10,-0.2878,0.0271,0.0376,-0.7184,2.7215,-2.9478,2050
10,-0.2866,0.1013,0.0293,-0.4156,2.4352,-2.9313,2049
10,-0.3528,-0.0686,0.1025,-0.0912,1.9311,-3.2801,2054
10,-0.4854,-0.1648,0.0972,0.0337,1.7472,-3.6442,2049
10,-0.6086,-0.0532,0.0645,0.09,1.9226,-3.933,2049
10,-0.6001,0.0039,0.012,0.2417,2.1936,-4.3386,2054
10,-0.7429,-0.0178,-0.0432,0.4846,2.5867,-4.3635,2049
10,-0.4309,0.062,0.0354,0.758,2.5416,-4.3635,2054
10,-0.2678,0.1445,-0.061,0.8664,2.1521,-4.3635,2054
10,-0.3577,-0.1226,-0.1575,1.0846,2.2871,-4.3635,2050
10,0.1748,-0.2322,-0.011,1.0343,1.4691,-4.3635,2045
10,-0.1233,-0.1687,-0.0603,1.0752,0.9007,-4.3635,2053
10,-0.3391,-0.2329,-0.1587,1.3213,0.9028,-4.3635,2051
10,-0.4851,-0.2566,-0.1785,1.4808,1.0472,-4.3635,2054
10,-0.4966,-0.2417,-0.2322,1.6496,1.1617,-4.3635,2054
10,-0.4399,-0.3115,-0.2136,1.8616,1.1537,-4.3635,2055
10,-0.3411,-0.4209,-0.323,2.3316,0.8873,-4.3635,2055
10,-0.3118,-0.7898,-0.2583,2.4513,0.5372,-4.3635,2050
10,-0.6079,-0.9858,-0.0864,2.3657,0.0029,-4.3635,2046
10,-0.8418,-1.3013,0.1731,1.7178,-0.6393,-4.3635,2046
10,-0.6584,-1.4761,0.1689,0.8905,-0.7147,-4.3635,2051
10,-0.251,-1.9316,-0.0024,0.9835,-0.4569,-4.3635,2055
10,0.9375,-2.0,0.6572,-1.2331,-1.8913,-4.3635,2049
10,1.2322,-0.6243,-1.0154,1.3416,-2.8564,-2.514,2063
10,-1.2356,-1.8611,0.064,0.6375,-3.0335,-4.3635,2038
10,-0.4561,-2.0,0.1768,-0.9582,-4.0096,-2.5402,2049
10,-1.3948,-1.1772,-0.106,-0.1723,-0.7597,-1.3209,2060
10,0.6174,-1.3347,0.1812,-1.5583,1.7904,-0.4199,2024
10,1.6633,-1.6519,0.1321,-0.292,4.0012,0.8859,2056
10,0.2246,-2.0,1.4031,-2.7967,0.4549,-3.8748,2106
10,0.4919,-1.0769,-0.7446,-3.2585,0.9146,2.6217,1992
10,-0.6299,1.8005,-0.8555,-1.5295,0.1497,4.3634,1968
10,-2.0,0.3042,1.9999,2.2177,-3.579,4.3634,2045
10,0.1438,-2.0,1.9999,0.836,1.1202,1.4443,2056
10,1.9999,-2.0,0.3589,-0.1859,4.3634,0.7897,2058
10,1.9999,-2.0,-0.0452,-3.3093,3.5126,4.3634,2052
10,-0.3323,0.1045,-0.2458,-0.6196,1.3322,1.3286,2038
10,-2.0,0.0508,1.1125,-0.0687,2.2571,2.3808,2033
10,-1.8816,-2.0,0.5845,-1.0726,1.431,3.1427,2080
10,0.1128,-1.6687,0.2078,-2.5642,-0.3084,2.9466,2053
10,-0.7903,-1.2903,-0.5776,-2.9787,-0.7973,2.9873,2049
10,-1.6763,-1.0403,-1.2488,-2.5417,2.1214,2.9074,2058
10,-0.3223,0.5222,-1.5396,-1.5613,2.4551,2.2611,2063
10,0.0918,-0.0461,-0.7046,-0.4528,0.9508,3.0449,2047
10,-0.6221,-1.4226,-0.6599,-0.4237,0.7845,2.2583,2056
10,-0.4402,-1.2244,-0.3865,-0.4517,0.1911,0.9503,2052
10,-0.5442,-0.2368,-0.1438,0.8771,-1.2264,1.3699,2059
10,-1.1609,-0.4011,0.125,1.1294,-1.0726,0.8933,2051
10,-1.0933,-0.8186,0.2151,1.2025,-1.5569,-0.0166,2013
10,-0.885,-1.4041,0.188,0.7613,-0.6745,0.2238,2039
10,-0.5813,-1.7617,0.1152,-0.0984,-0.2083,0.6927,2096
10,-0.248,-1.4233,0.0149,-0.2776,-0.4413,0.5683,2046
10,-0.0691,-0.8838,-0.0872,-0.1591,-0.8138,0.4568,2052
10,-0.311,-0.8147,-0.1169,0.0108,-0.7308,0.4654,2044
10,-0.4016,-0.9277,-0.1426,0.0545,-0.4408,0.2686,2062
10,-0.26,-1.0188,-0.0884,0.0517,-0.3408,0.2228,2064
10,-0.0459,-0.9736,-0.061,0.1236,-0.1985,0.245,2041
10,0.0574,-0.9824,-0.0549,0.0695,-0.4128,0.2591,2032
10,0.1748,-1.0693,-0.0701,0.087,-0.6754,0.3096,2055
10,0.2554,-0.9775,-0.084,0.0172,-0.7269,0.4193,1985
10,0.2673,-0.8809,-0.0767,0.0173,-0.7642,0.5163,2059
10,0.2295,-0.8823,-0.0371,0.0136,-0.696,0.571,2036
10,0.2405,-0.9644,0.0217,-0.0514,-0.4767,0.8389,2057
10,0.4421,-0.979,-0.0808,-0.0664,-0.1723,0.997,2044
10,0.6802,-0.9644,-0.0847,-0.0921,-0.1836,1.0395,2099
10,0.6943,-1.073,0.0164,-0.177,-0.3177,1.152,2048
10,0.312,-1.0437,0.0188,-0.246,-0.2378,1.1774,2065
10,-0.106,-1.0061,0.0913,-0.2088,-0.1887,1.2764,2037
10,-0.3853,-1.0483,0.0837,-0.2105,-0.0284,1.2814,2029
10,-0.4448,-1.0474,0.0654,-0.2685,0.1145,1.3644,2041
10,-0.2065,-1.0095,0.0559,-0.2377,0.0947,1.3886,2120
10,-0.0801,-1.0249,0.0383,-0.2368,0.0052,1.4372,2043
10,0.0015,-1.0293,0.0139,-0.2304,-0.0521,1.4868,2073
10,0.0044,-1.0168,0.0403,-0.2274,-0.1477,1.5022,2149
10,-0.105,-1.0256,-0.0381,-0.248,0.0949,1.4821,2150
11,-0.092,-1.113,-0.094,-0.3216,0.2962,1.535,2222
11,0.1614,-1.1731,-0.0737,-0.3883,0.2657,1.6691,2472
11,0.1179,-1.1389,-0.1326,-0.3506,0.1257,1.6797,2628
11,-0.5376,-1.0132,0.0022,-0.5449,-0.1324,1.4101,2111
11,0.1653,-1.2759,-0.1038,-0.4972,-0.1368,2.151,1927
11,0.585,-1.5913,-0.1414,-0.343,-0.1093,2.1587,2074
11,0.4055,-1.4409,0.071,-0.3457,-0.4485,2.2806,2202
11,0.2119,-1.3123,0.1382,-0.3212,-0.2812,2.3895,1881
11,0.2371,-1.356,0.2783,-0.333,0.0261,2.3541,1943
11,0.1465,-1.2534,0.2793,-0.3105,0.1802,2.5995,1950
11,0.1501,-1.1741,0.2615,-0.2449,0.3261,2.6799,2116
11,0.1567,-1.2227,0.1804,-0.1723,0.5448,2.8596,2065
11,0.2034,-1.3716,0.144,-0.2334,0.6283,2.9541,2023
11,0.4016,-1.5552,0.0444,-0.304,0.6614,3.1605,2032
11,0.7681,-1.6702,-0.0681,-0.4324,0.5078,3.4432,2037
11,0.8171,-1.8479,-0.0039,-0.4657,-0.3127,3.5942,2047
11,1.4744,-2.0,-0.0366,-0.7347,-0.8931,4.1539,2045
11,1.6265,-2.0,0.0635,-0.0499,-2.1679,4.3634,2028
11,1.0483,-2.0,0.259,0.2856,-3.3162,3.9823,2019
11,0.9509,-2.0,0.2825,0.4342,-3.217,4.1254,2063
11,0.0684,-2.0,0.0825,-0.1135,-3.1067,3.9769,2061
11,0.6956,-1.5269,-0.4377,-0.8697,-3.3592,3.4334,2058
11,-0.2495,-1.5146,-0.2893,-1.6606,-4.08,2.043,2037
11,-2.0,-1.0205,0.2273,-0.9965,-4.3635,2.8934,2040
11,-2.0,-0.429,-0.012,0.2156,-1.248,4.3634,2098
11,-0.4834,-0.5105,0.136,1.2019,-0.5071,4.3634,2061
11,1.9999,-1.8757,-1.4897,1.6206,-4.3635,4.1017,2079
11,-2.0,0.6995,0.2761,0.6586,-1.9668,2.5526,2032
11,-2.0,-0.5591,0.7837,-0.9847,-0.3286,1.8243,2057
11,-2.0,-0.7,1.0613,-0.5859,-1.3326,0.5402,2071
11,-1.5708,-0.2212,0.6624,-0.483,-1.9519,-0.8147,2048
11,-0.9976,-0.0469,0.2981,-1.0694,-1.968,-1.0879,2038
11,-0.8977,0.176,0.2637,-2.4143,-1.3925,-2.6649,2037
11,-0.3289,0.2749,0.1389,-2.6113,-0.0567,-3.6113,2070
11,-0.0137,-0.1768,0.1721,-1.6721,0.9034,-3.4829,2037
11,0.03,-0.2952,0.0881,-0.9804,1.8921,-3.3307,2052
11,-0.2034,-0.0361,0.0847,-0.7927,2.4561,-3.2192,2049
11,-0.2642,0.032,0.0862,-0.7558,2.4526,-3.0359,2049
11,-0.2754,0.0994,0.0671,-0.5549,2.1377,-2.8594,2050
11,-0.3533,0.1204,0.0913,-0.1417,1.7764,-3.0698,2046
11,-0.4124,-0.0696,0.2043,0.0563,1.5186,-3.5304,2050
11,-0.4978,-0.0532,0.1562,0.1661,1.7357,-3.8139,2047
11,-0.5007,-0.0039,0.1248,0.2406,1.9618,-4.1502,2051
11,-0.5923,0.0193,0.0566,0.3466,2.2091,-4.3635,2052
11,-0.5486,0.0708,0.073,0.5962,2.2896,-4.3635,2055
11,-0.2522,-0.1689,-0.0217,0.703,2.109,-4.3635,2050
11,-0.3865,0.0183,-0.01,1.0764,2.0471,-4.3635,2050
11,-0.4094,-0.0981,-0.0674,1.1925,2.2193,-4.3635,2046
11,-0.0732,-0.1865,0.0222,1.0551,1.5845,-4.3635,2049
11,-0.0952,-0.177,-0.093,1.1439,1.1115,-4.3635,2049
11,-0.2458,-0.2625,-0.1504,1.3424,1.0865,-4.3635,2051
11,-0.3887,-0.2358,-0.2161,1.5282,1.0702,-4.3635,2050
11,-0.4009,-0.2729,-0.2673,1.7663,1.0874,-4.3635,2048
11,-0.4026,-0.3713,-0.3184,2.1442,1.0214,-4.3635,2058
11,-0.2971,-0.5291,-0.4404,2.7702,0.6514,-4.3635,2045
11,-0.3677,-0.8167,-0.3,3.1212,0.0854,-4.3635,2051
11,-0.5364,-1.178,0.1235,2.3222,-0.9572,-4.3635,2050
11,-0.5527,-1.519,0.2419,1.1334,-1.4781,-4.3635,2049
11,-0.4019,-1.7827,-0.0393,1.0873,-1.3214,-4.3635,2038
11,0.0974,-2.0,0.1689,1.2821,-1.7444,-4.3635,2025
11,0.873,-2.0,0.0747,-1.9532,-2.8821,-4.3635,2066
11,-0.48,-0.0752,-0.6091,2.4569,-2.5577,-2.8911,2067
11,-1.0854,-2.0,0.1023,-0.1433,-3.6974,-4.2955,2053
11,-0.3728,-2.0,0.0166,-0.9866,-2.8698,-1.71,2065
11,-0.7534,-1.0576,0.2073,-1.1047,-0.128,-1.0467,2042
11,1.334,-1.5229,0.1584,-1.5736,1.7784,-0.0068,2018
11,0.7434,-1.5854,0.0391,-0.3405,3.4162,1.2653,2055
11,0.0071,-2.0,1.3318,-3.7105,0.3436,-4.3635,2067
11,0.2432,-0.6172,-0.6331,-3.2575,1.3356,3.3387,2106
11,-0.0022,1.969,-0.5928,-0.9794,0.0874,4.3634,2079
11,-2.0,0.1191,1.9999,2.281,-2.9074,4.3134,1994
11,-0.1699,-2.0,1.7424,0.6436,1.8358,1.2693,2041
11,1.9999,-2.0,0.2739,-0.2065,4.3634,1.2856,2038
11,0.9949,-2.0,0.0071,-3.6834,3.117,3.7285,2042
11,0.2415,0.5471,-0.3914,-0.2278,0.6126,2.5686,2030
11,-2.0,-0.354,0.834,0.0598,1.8843,1.7972,2036
11,-1.7505,-2.0,0.5251,-1.0597,1.1762,3.0835,2078
11,0.3584,-1.6409,0.2566,-1.7235,-0.2766,3.0974,2053
11,-0.7107,-1.0962,-0.3708,-2.4714,-0.2768,3.056,2048
11,-1.5513,-1.5493,-0.9888,-2.5843,2.2554,2.8775,2049
11,-0.2456,0.2178,-1.3196,-1.9912,2.4727,2.2699,2050
11,0.0918,0.0229,-0.8367,-0.893,1.0993,3.3234,2055
11,-0.6116,-1.1316,-0.4846,-0.4833,0.6111,2.7755,2047
11,-0.6509,-0.9343,-0.0459,-0.2048,0.0201,0.8835,2057
11,-0.678,-0.5437,0.1079,0.8018,-1.2175,1.3913,2054
11,-1.2175,-0.531,-0.0447,0.9784,-0.7838,0.7704,2025
11,-1.0896,-0.7715,0.1211,1.1701,-1.0369,0.1441,2065
11,-0.8467,-1.2913,0.1318,0.3874,-0.1242,0.2806,2084
11,-0.4009,-1.6873,-0.0295,-0.0093,-0.2394,0.7423,2067
11,-0.2214,-1.4744,-0.0142,-0.1558,-0.2642,0.7934,2031
11,-0.0969,-0.9358,-0.0862,-0.0852,-0.6617,0.6536,2052
11,-0.2019,-0.8628,-0.1648,0.0774,-1.0375,0.6789,2071
11,-0.4675,-0.9668,-0.1233,0.1152,-0.744,0.5204,2052
11,-0.428,-1.0266,-0.031,0.0329,-0.4883,0.3228,2056
11,-0.2058,-0.9651,0.0422,-0.0264,-0.3184,0.3421,2048
11,-0.084,-0.9402,0.0078,-0.0156,-0.3671,0.3701,2059
11,0.0413,-1.0273,-0.1018,0.0129,-0.5794,0.4364,2039
11,0.1174,-1.05,-0.1167,0.0067,-0.7004,0.5673,2031
11,0.1753,-0.9937,-0.0635,-0.0358,-0.663,0.5919,2271
11,0.1426,-0.8596,-0.0276,-0.0637,-0.8309,0.5837,2056
12,0.1062,-0.876,0.0002,-0.0117,-0.5602,0.6791,2020
12,-0.0066,-1.022,0.0532,-0.1131,-0.4018,0.6777,2052
12,-0.0449,-1.0293,-0.0273,-0.0674,-0.1748,0.8122,2020
12,0.2246,-0.9114,0.0168,-0.0812,0.1216,0.9359,2074
12,0.365,-0.9265,-0.0249,-0.0866,0.0859,0.9642,2021
12,0.137,-1.0601,0.009,-0.019,0.0481,1.0413,2031
12,-0.054,-1.0591,0.0322,-0.0232,0.0494,1.0793,2105
12,0.0222,-1.0549,0.0425,-0.1416,-0.1446,1.2019,1952
12,0.0625,-1.0706,-0.0479,-0.1959,-0.4546,1.2267,1975
12,-0.0908,-1.0208,0.0405,-0.2597,-0.6225,1.3197,2092
12,-0.1907,-0.8875,0.0322,-0.2282,-0.391,1.3147,2070
12,-0.0369,-0.9619,0.0686,-0.1589,-0.0924,1.3157,1948
12,0.0942,-1.1433,0.0854,-0.2404,0.1278,1.4122,2142
12,0.0498,-1.1763,0.0466,-0.3408,0.2783,1.4998,2090
12,-0.3257,-0.8796,0.019,-0.3625,0.0808,1.3408,2506
12,0.1614,-1.146,-0.064,-0.263,0.1356,2.0069,2160
12,0.3123,-1.3501,-0.0576,-0.2605,0.1309,1.9415,2001
12,0.0762,-1.4141,-0.1814,-0.3666,-0.1242,2.0389,1971
12,0.1335,-1.3997,-0.052,-0.3468,-0.2763,2.1249,1921
12,0.1877,-1.3538,0.0547,-0.3285,-0.2472,2.1951,2003
12,0.1587,-1.2771,0.0969,-0.2655,-0.1708,2.3401,1984
12,0.1458,-1.3105,0.1819,-0.2405,0.0727,2.4111,1991
12,0.1431,-1.2854,0.2114,-0.2001,0.3097,2.5936,2108
12,0.158,-1.2568,0.196,-0.1597,0.538,2.6615,2000
12,0.303,-1.3042,0.1589,-0.1337,0.5221,2.8416,2073
12,0.3247,-1.3655,0.0762,-0.1514,0.6325,2.9542,2059
12,0.3999,-1.4705,0.0493,-0.2012,0.7712,3.1471,2058
12,0.6665,-1.594,0.0034,-0.277,0.6139,3.4573,2057
12,0.7842,-1.8289,-0.0771,-0.2131,-0.1221,3.676,2055
12,1.084,-2.0,0.2014,-0.5204,-0.4101,4.0021,2041
12,1.7268,-2.0,0.1516,-0.2436,-1.3372,4.3634,2036
12,1.0308,-2.0,0.2236,0.1892,-2.334,4.3634,2025
12,0.761,-2.0,0.1421,0.3593,-2.7995,3.9134,2034
12,0.4272,-1.9282,0.0247,0.558,-3.1479,4.3634,2055
12,0.5525,-2.0,-0.4375,-0.5641,-1.8134,2.8833,2066
12,0.2205,-1.6853,-0.0154,-1.3223,-4.3635,2.3526,2058
12,-1.6562,-1.364,-0.0938,-1.6527,-4.0218,1.5495,2075
12,-1.8635,-0.2888,0.0898,-0.2581,-1.6974,4.3154,2040
12,-1.0464,0.0408,0.217,1.3258,0.2803,4.3572,2071
12,1.9999,-2.0,-0.927,0.3354,-4.3635,4.3634,2070
12,-2.0,0.6982,0.1438,1.1864,-1.9682,2.7113,2000
12,-2.0,-0.104,0.5527,-0.5056,0.3361,1.8231,2058
12,-2.0,-0.6458,0.8083,-0.6967,-0.6458,0.5988,2072
12,-1.5408,-0.2783,0.6155,-0.664,-1.7984,-0.6091,2059
12,-0.8633,-0.1023,0.2751,-1.0256,-1.8369,-0.8597,2043
12,-1.1023,0.011,0.3242,-2.282,-1.0583,-2.6169,2066
12,-0.1519,0.2163,0.2192,-2.3922,-0.0858,-3.9213,2055
12,0.0498,-0.1492,0.1301,-1.504,0.821,-3.3893,2043
12,-0.1028,-0.1824,0.0889,-0.8653,1.587,-3.2867,2025
12,-0.2542,-0.0835,0.0044,-0.8242,2.2036,-3.3098,2051
12,-0.3757,-0.0769,-0.0298,-0.7107,2.2956,-3.1254,2048
12,-0.3586,0.0093,-0.0178,-0.5279,2.0339,-3.0369,2050
12,-0.4304,0.0647,0.0178,-0.19,1.8753,-3.1939,2048
12,-0.4832,-0.0391,0.0759,0.1317,1.8157,-3.6018,2051
12,-0.5981,-0.115,0.092,0.3658,1.959,-3.9475,2048
12,-0.6875,-0.0374,0.0559,0.4902,2.2862,-4.2608,2047
12,-0.6108,0.0134,0.075,0.6116,2.4318,-4.3635,2052
12,-0.49,0.0205,0.0583,0.8903,2.1623,-4.3635,2051
12,-0.1792,-0.2544,-0.051,1.0427,2.2144,-4.3635,2054
12,-0.001,-0.1802,-0.1018,1.3165,1.8217,-4.3635,2050
12,0.0459,-0.1724,-0.0845,1.2198,1.2021,-4.3635,2045
12,-0.2563,-0.1655,-0.0947,1.01,0.9616,-4.3635,2052
12,-0.0898,-0.2861,-0.1785,1.1693,0.5986,-4.3635,2054
12,-0.3345,-0.3521,-0.1545,1.2459,0.5088,-4.3635,2048
12,-0.6685,-0.2727,-0.1836,1.4532,0.7167,-4.3635,2052
12,-0.5454,-0.249,-0.2129,1.6744,1.1832,-4.3635,2055
12,-0.4373,-0.3701,-0.2913,2.0001,1.1579,-4.3635,2054
12,-0.3022,-0.5503,-0.2495,2.1807,0.9106,-4.3635,2047
12,-0.5322,-0.8196,-0.1506,2.217,0.4128,-4.3635,2049
12,-0.7976,-1.0979,0.0732,1.892,-0.2025,-4.3635,2044
12,-0.8069,-1.4897,0.2151,1.0718,-0.4927,-4.3635,2036
12,-0.4841,-1.5164,-0.0422,0.7311,-0.2856,-4.3635,2046
12,0.0034,-2.0,0.1221,0.7809,-0.616,-4.3635,2077
12,0.9351,-2.0,0.0496,-1.2824,-2.7108,-4.3635,2056
12,-0.28,-0.2832,-1.1606,2.1634,-2.0579,-1.8199,2029
12,-1.2681,-1.8477,-0.2073,0.9384,-3.6853,-4.2694,2051
12,-1.116,-2.0,0.1487,-0.5743,-2.2041,-1.9691,2070
12,-0.0588,-1.6665,0.2549,-1.2154,1.4656,-1.6335,2034
12,1.1375,-1.4529,0.5029,-1.3715,2.7556,0.1673,2068
12,1.335,-1.2397,-0.0063,0.0784,1.303,1.9939,2048
12,-1.7246,-2.0,0.6943,-3.2839,-0.2649,-2.1161,2049
12,1.1353,-0.8796,-0.5459,-3.0243,-0.7513,2.255,2061
12,-1.0903,1.9106,-0.0364,-1.9225,-0.3261,4.3349,2057
12,-1.55,0.6814,1.9999,1.8592,-1.4235,4.3634,2069
12,0.2024,-2.0,1.9999,1.3936,2.2362,0.4978,2041
12,1.0476,-2.0,0.4287,-0.7395,4.3634,1.4665,2024
12,0.0229,-2.0,-0.1023,-0.5442,3.0401,2.0776,2052
12,1.9999,-1.8989,0.1196,-1.878,1.0653,4.3634,2080
12,-2.0,0.3936,0.5574,-1.026,3.856,2.6424,2021
12,-2.0,-1.2854,0.1106,-1.8058,2.6727,2.9954,2053
12,-0.4194,-1.561,0.4048,-3.1953,-0.6605,2.9304,2061
12,-0.5566,-0.9426,-0.6189,-1.953,-1.234,2.8853,2052
12,-1.439,-0.9114,-1.397,-2.5966,1.654,3.2885,2049
12,-0.7686,0.135,-1.7114,-1.3944,3.4139,2.7853,2059
12,-0.054,-0.125,-0.7805,-0.8023,1.7034,2.9357,2036
12,0.3633,-1.2056,-0.678,-0.4296,0.0482,2.1863,2087
12,-0.3757,-0.9631,-0.6326,0.0491,-0.1037,1.0154,2051
12,-0.4849,-0.1682,0.2148,1.0208,-1.9909,1.3034,1977
12,-1.4583,-0.6514,0.1614,1.1593,-2.0241,1.04,2099
12,-1.3828,-1.0559,0.3657,0.7809,-1.5135,0.2916,2076
12,-1.0564,-1.3865,0.1587,0.159,-0.7565,0.4385,2055
12,-0.616,-1.5371,0.0789,-0.1141,-0.7122,0.9764,2051
12,-0.3828,-1.2319,0.0413,-0.2517,-0.7248,0.5468,2030
12,-0.168,-0.9468,-0.0725,-0.069,-1.0485,0.7019,2021
12,-0.292,-0.9958,-0.0842,0.0427,-1.0934,0.6894,2049
13,-0.4763,-1.0112,-0.1431,-0.0124,-0.7011,0.49,2048
13,-0.3833,-0.9844,-0.1741,-0.0478,-0.3376,0.3951,2046
13,-0.1926,-0.9531,-0.178,0.0288,-0.2685,0.3025,2116
13,0.0542,-0.8979,-0.1343,-0.0846,-0.2611,0.4233,2039
13,0.0989,-0.9358,-0.0845,-0.0811,-0.4063,0.3655,2254
13,0.1462,-1.0122,-0.0356,-0.2217,-0.4365,0.5189,2045
13,0.2241,-0.9434,-0.145,-0.0439,-0.6106,0.6181,2141
13,0.2881,-0.9104,0.0554,-0.1609,-0.9786,0.6183,2041
13,0.147,-0.957,0.0432,-0.0503,-1.019,0.704,1971
13,-0.0376,-0.9937,0.0425,-0.0545,-0.8156,0.8911,2023
13,0.0981,-0.9604,-0.0054,-0.1589,-0.404,0.8929,2074
13,0.1577,-0.9868,0.0159,-0.1485,-0.0132,0.9909,2033
13,0.0107,-0.9939,-0.002,-0.1381,0.1348,1.0103,1909
13,0.0176,-1.0566,0.0488,-0.2035,0.2426,1.0633,2066
13,0.1094,-1.0923,0.1084,-0.2942,-0.018,1.2399,2028
13,0.0034,-1.022,0.0178,-0.3025,-0.1898,1.2637,2027
13,-0.2075,-0.968,-0.0076,-0.2317,-0.3575,1.2661,2110
13,-0.2485,-0.9319,0.0098,-0.2175,-0.2121,1.3219,2165
13,-0.0339,-0.9927,0.0195,-0.2353,-0.0373,1.3414,2023
13,0.1169,-1.0874,0.0522,-0.2742,0.2219,1.4071,2102
13,0.178,-1.0811,0.0452,-0.3195,0.1119,1.4884,1766
13,-0.3003,-0.8279,-0.0571,-0.2392,0.4189,1.1573,2017
13,0.2769,-1.2268,-0.0579,-0.3549,0.1847,1.7518,1847
13,0.3711,-1.2954,-0.1184,-0.3135,0.1864,1.9719,1632
13,0.0237,-1.2483,-0.1206,-0.3701,-0.1252,2.1824,1905
13,0.0854,-1.4385,-0.0823,-0.3762,-0.2152,2.1154,2073
13,0.1541,-1.449,-0.0432,-0.3781,-0.1915,2.1776,2208
13,0.1951,-1.292,0.0276,-0.3053,-0.1988,2.3178,1976
13,0.011,-1.3291,0.1875,-0.2682,-0.0618,2.3755,1977
13,0.1462,-1.3613,0.2773,-0.2831,0.1718,2.5788,2048
13,0.1602,-1.1973,0.1807,-0.1486,0.503,2.7167,2047
13,0.2219,-1.2634,0.1284,-0.0784,0.6147,2.8159,1936
13,0.2756,-1.4419,0.0349,-0.1432,0.6806,2.8652,2046
13,0.4885,-1.4614,-0.0769,-0.1871,0.7265,3.1505,2107
13,0.6465,-1.5789,-0.0366,-0.2983,0.5184,3.3283,2056
13,0.7791,-1.8267,-0.0051,-0.4023,-0.4473,3.6099,2037
13,1.2751,-2.0,0.2173,-0.7837,-0.7919,4.0948,2043
13,1.668,-2.0,0.0723,-0.4056,-1.7298,4.3205,2039
13,1.3435,-2.0,0.1282,0.1486,-3.2227,4.1977,2032
13,0.9495,-2.0,0.252,0.5426,-3.6235,3.6094,2026
13,-0.2605,-2.0,0.2583,0.3365,-2.9835,4.0434,2080
13,0.0732,-2.0,-0.0764,-0.4556,-2.5288,3.8078,2051
13,0.6165,-1.6553,-0.1746,-1.4266,-4.2465,2.7348,2049
13,-1.3782,-1.2581,-0.0957,-1.535,-4.0554,1.6311,2029
13,-2.0,-0.4363,-0.217,-0.5753,-1.8952,4.2261,2051
13,-1.5469,-0.2029,0.4302,0.744,-0.1285,4.3634,2068
13,1.9999,-2.0,-0.1326,0.1948,-2.5362,4.3634,2043
13,-2.0,-0.2166,-0.7551,1.2748,-0.0499,2.2076,2047
13,-2.0,0.0757,0.5649,-0.4305,0.0388,2.0454,2056
13,-2.0,-0.7544,0.8428,-0.7107,-1.0508,0.6376,2057
13,-1.4724,-0.3489,0.543,-0.3831,-1.9062,-0.5056,2051
13,-1.0439,-0.1211,0.3818,-0.7694,-1.8511,-0.918,2037
13,-1.0071,0.0615,0.3042,-2.1932,-1.3884,-2.6895,2038
13,-0.2144,-0.0591,0.1196,-2.3547,-0.559,-3.2288,2056
13,-0.0642,-0.2258,0.1121,-1.635,0.3408,-3.0256,2061
13,-0.1348,-0.0059,0.0493,-0.9122,1.3106,-3.0012,2052
13,-0.2256,0.0488,0.0527,-0.6581,1.9346,-2.9783,2069
13,-0.2117,0.0791,0.0874,-0.4928,1.886,-2.7924,2050
13,-0.281,0.0569,0.1238,-0.1642,1.4327,-2.7185,2041
13,-0.3374,-0.0588,0.1592,0.0892,1.1487,-2.998,2048
13,-0.4995,-0.1755,0.1716,0.2228,1.1455,-3.3919,2048
13,-0.6267,-0.1782,0.1821,0.212,1.4585,-3.7227,2050
13,-0.6531,-0.0637,0.1863,0.1997,1.7331,-4.0354,2055
13,-0.5413,-0.0149,0.1594,0.2069,1.8274,-4.3635,2059
13,-0.4028,-0.0728,0.0867,0.3737,1.8817,-4.3635,2053
13,-0.415,-0.094,0.0806,0.5899,1.7982,-4.3635,2056
13,-0.2573,-0.1772,-0.0366,0.7175,1.8904,-4.3635,2055
13,-0.2427,-0.1711,-0.0671,0.7955,1.6534,-4.3635,2054
13,-0.1995,-0.2146,-0.0371,0.805,1.4368,-4.3635,2053
13,-0.2668,-0.2373,-0.0078,0.8728,1.1854,-4.3635,2053
13,-0.2834,-0.2754,-0.0774,0.9909,1.1808,-4.3635,2053
13,-0.396,-0.2727,-0.1482,1.1982,1.3026,-4.3635,2049
13,-0.3833,-0.3118,-0.1875,1.4557,1.2625,-4.3635,2053
13,-0.3984,-0.3054,-0.2827,1.7452,1.1575,-4.3635,2057
13,-0.3425,-0.3574,-0.3542,2.2868,0.9054,-4.3635,2052
13,-0.302,-0.6196,-0.3647,2.7621,0.5608,-4.3635,2047
13,-0.4167,-0.9973,-0.0925,2.7492,-0.0688,-4.3635,2048
13,-0.6184,-1.2327,0.1968,1.8423,-0.6902,-4.3635,2052
13,-0.6504,-1.3804,0.0574,1.283,-0.7626,-4.3635,2051
13,-0.4788,-1.8342,-0.0513,1.5844,-0.4607,-4.3635,2049
13,0.5791,-2.0,0.4727,-0.6576,-1.4529,-4.3635,2039
13,1.8325,-1.262,-0.7012,0.2175,-2.9236,-2.848,2051
13,-1.8728,-1.2026,-0.2554,1.4347,-0.9162,-3.2417,2047
13,-1.2656,-1.8259,0.3408,-0.236,-3.1003,-2.8123,2061
13,-0.667,-1.2849,-0.0032,-0.505,-1.4964,-1.5432,2054
13,-0.2234,-1.3823,-0.1094,-1.1384,0.0073,-1.1673,2040
13,0.262,-1.6653,-0.0576,-0.8441,2.5533,-0.5055,2032
13,-0.624,-2.0,0.7544,-2.2169,0.7719,-3.0501,2030
13,1.9999,-0.582,-0.9751,-2.1652,1.3719,2.5332,2108
13,-0.7156,1.2554,-0.9236,-2.6698,-0.1011,4.1185,2045
13,-2.0,0.1694,1.3667,2.5926,-0.7548,4.3634,2062
13,-0.8535,-1.998,1.9999,0.6681,1.0151,3.0313,2068
13,1.9999,-2.0,1.2651,-3.4655,2.8604,4.3634,2005
13,1.9999,-1.1865,-1.1665,-2.4619,0.1015,-0.9537,2051
13,0.8379,0.7068,-1.3279,1.0408,0.9447,1.0302,2074
13,-2.0,-1.5859,1.2202,-0.3621,2.7765,3.8976,2038
13,-2.0,-1.7754,1.6638,-0.1455,1.6459,4.1354,2101
13,-0.7627,-1.0181,0.8616,-1.8153,-1.1545,3.5742,2038
13,-0.8237,-1.2185,-0.6213,-3.5448,-0.9216,3.0441,2039
13,-1.2812,-1.4961,-1.042,-3.0486,1.309,2.559,2048
14,-0.5635,0.0754,-1.6475,-2.6593,2.9371,2.0686,2065
14,0.1626,0.2898,-1.0588,-0.9013,1.6319,3.4383,2052
14,-0.4583,-0.592,-0.6765,0.3575,0.971,2.718,2071
14,-0.6458,-0.7678,-0.5007,0.4837,0.5436,0.9586,2071
14,-0.8381,-0.9683,0.1245,0.587,-0.5128,1.4306,2053
14,-1.3337,-0.8079,-0.051,0.6035,-0.3662,0.985,2055
14,-0.8728,-0.5046,0.1064,1.1497,-0.7769,0.075,2057
14,-0.8164,-0.8496,0.2708,0.8921,-0.5525,0.0513,2062
14,-0.7554,-1.6406,0.1394,0.1141,-0.1417,0.5031,2047
14,-0.4604,-1.7852,0.0991,-0.0866,-0.4631,0.8589,2039
14,-0.2676,-1.179,-0.0378,-0.1754,-0.4631,0.6091,2053
14,-0.1602,-0.7991,-0.1436,-0.0127,-0.9252,0.5999,2058
14,-0.4868,-0.8687,-0.1555,0.0435,-0.7275,0.3698,2050
14,-0.583,-0.998,-0.127,0.004,-0.2698,0.2133,2055
14,-0.3015,-0.9949,-0.1091,-0.0226,-0.1028,0.2401,2043
14,0.0256,-0.967,-0.1084,-0.0176,-0.1815,0.2244,2076
14,0.2065,-1.0337,-0.0547,-0.034,-0.4036,0.267,2102
14,0.1807,-1.0361,-0.032,-0.0621,-0.5633,0.4136,2102
14,0.0996,-1.002,-0.0212,-0.1337,-0.7361,0.4581,2007
14,0.1387,-0.8525,0.0291,-0.1392,-0.7217,0.5212,2041
14,0.2363,-0.928,0.0742,-0.022,-0.7281,0.6763,2125
14,0.1543,-0.988,0.0608,-0.082,-0.6281,0.6917,2125
14,0.2305,-0.9492,-0.0637,-0.0912,0.0137,0.8505,1993
14,0.4246,-0.9075,-0.0603,-0.1052,0.1145,0.9401,2016
14,0.4756,-0.9912,-0.0215,-0.0826,0.2731,1.0143,2018
14,0.3123,-1.1089,-0.0244,-0.1995,0.2016,1.0545,2114
14,0.0378,-1.0571,-0.0037,-0.2448,0.1084,1.1335,2033
14,-0.2537,-0.99,0.05,-0.2711,-0.0443,1.1774,2026
14,-0.3328,-0.9954,0.0527,-0.2461,-0.0695,1.2444,2059
14,-0.2859,-1.0137,0.0776,-0.2422,-0.1301,1.2833,2072
14,-0.1594,-0.9934,0.0168,-0.1946,-0.161,1.3161,2080
14,0.0239,-1.0193,0.0522,-0.1956,-0.0783,1.3673,2121
14,0.1006,-1.0532,0.0466,-0.2317,-0.0892,1.4041,2483
14,0.0386,-1.0981,0.0166,-0.3617,0.1364,1.4715,2112
14,0.0659,-1.1318,0.0139,-0.3073,0.1569,1.5379,2060
14,-0.1021,-1.1389,0.0803,-0.457,-0.0863,1.3645,2204
14,-0.0159,-0.9937,-0.052,-0.3445,0.1337,1.9446,2069
14,0.426,-1.4851,-0.1523,-0.3665,0.0565,2.0493,2208
14,0.1938,-1.4236,-0.179,-0.353,-0.1469,2.1126,2045
14,0.022,-1.3633,-0.0957,-0.3741,-0.4308,2.0116,2172
14,0.2136,-1.3901,-0.0261,-0.4168,-0.2702,2.2261,2083
14,0.2878,-1.2996,0.1675,-0.3886,-0.1918,2.3001,1926
14,0.1748,-1.3052,0.2522,-0.3558,0.0017,2.3955,1972
14,0.1448,-1.2935,0.3279,-0.3227,0.3611,2.5581,2031
14,0.26,-1.2803,0.2913,-0.283,0.5574,2.6982,2057
14,0.281,-1.2683,0.2205,-0.2571,0.7186,2.8424,2062
14,0.3889,-1.3757,0.1252,-0.2673,0.7002,2.9573,2045
14,0.54,-1.5168,0.0398,-0.3024,0.6737,3.2646,2045
14,0.8005,-1.7036,-0.0593,-0.3252,0.0019,3.522,2049
14,1.106,-2.0,0.2097,-0.5574,-0.5039,3.8484,2046
14,1.7573,-2.0,0.1082,-0.2707,-1.6576,4.3634,2032
14,1.2888,-2.0,0.2878,0.2386,-3.0736,4.1297,2035
14,0.9436,-2.0,0.3562,0.6652,-2.9926,4.3634,2025
14,0.3831,-2.0,0.2468,0.3486,-2.5179,4.3634,2056
14,0.1802,-2.0,-0.3577,-0.9003,-1.554,3.2893,2062
14,0.8118,-1.7456,-0.3301,-1.4543,-4.3635,1.7984,2053
14,-1.0525,-1.1211,0.0601,-0.8692,-4.3317,2.2439,2040
14,-2.0,-0.6895,0.0088,-0.4228,-2.1579,4.1903,2041
14,-1.3733,-0.3882,0.3562,0.9817,-0.4606,4.3634,2098
14,1.9999,-2.0,-0.4636,1.0046,-2.76,4.3634,2047
14,-2.0,0.1682,-0.614,2.0483,-0.397,2.5216,2034
14,-2.0,0.3682,0.3635,-0.3998,-0.4409,2.476,2055
14,-2.0,-0.5598,1.009,-0.7408,0.0754,1.0457,2054
14,-2.0,-0.4067,0.6826,-0.4116,-1.4696,-0.3428,2054
14,-0.7654,-0.1235,0.2344,-0.6272,-1.9297,-0.8277,2040
14,-1.1042,-0.0698,0.2515,-1.8638,-1.4141,-2.0519,2036
14,-0.3848,0.3093,0.1143,-2.8124,-0.821,-3.8287,2046
14,0.1794,-0.092,0.0815,-2.0688,0.2127,-3.8099,2064
14,0.0425,-0.2834,0.0747,-1.1668,0.9638,-3.5446,2057
14,-0.2505,-0.0525,0.0242,-0.7432,1.6594,-3.4531,2063
14,-0.4226,-0.0161,0.0063,-0.6018,1.9021,-3.3492,2048
14,-0.3623,0.0225,-0.0176,-0.4315,1.7078,-3.1295,2048
14,-0.3865,0.0806,-0.0083,-0.2041,1.4551,-3.229,2048
14,-0.438,0.0217,0.0522,0.0373,1.4153,-3.6173,2048
14,-0.408,-0.051,0.0747,0.3069,1.5179,-3.9755,2049
14,-0.5149,-0.0317,0.0645,0.4798,1.7527,-4.2876,2046
14,-0.6631,-0.0198,0.0408,0.5062,1.9704,-4.3635,2053
14,-0.6448,0.0161,-0.0645,0.702,2.1555,-4.3635,2050
14,-0.4229,-0.1123,0.0029,1.0355,1.9113,-4.3635,2047
14,-0.2466,-0.0127,-0.0823,1.3603,2.2268,-4.3635,2053
14,-0.156,-0.1694,-0.0703,1.341,1.9859,-4.3635,2051
14,0.0,-0.2004,0.0286,1.1509,1.1051,-4.3635,2052
14,-0.2107,-0.2937,-0.0659,1.1496,0.7937,-4.3635,2050
14,-0.2744,-0.3933,-0.1467,1.1814,0.8889,-4.3635,2052
14,-0.5208,-0.344,-0.217,1.2358,1.0705,-4.3635,2052
14,-0.5925,-0.3108,-0.2341,1.515,1.1974,-4.3635,2048
14,-0.5298,-0.3818,-0.3245,1.9327,1.2114,-4.3635,2047
14,-0.4041,-0.5559,-0.3223,2.4651,1.0901,-4.3635,2055
14,-0.4641,-0.79,-0.2502,2.7706,0.6086,-4.3635,2056
14,-0.7168,-1.1531,0.072,2.4384,-0.1977,-4.3635,2050
14,-0.7229,-1.623,0.4746,1.1302,-1.0184,-4.3635,2052
14,-0.3115,-1.6506,0.0247,0.4132,-0.7644,-4.3635,2050
14,0.7661,-2.0,0.3242,-1.2174,-1.7676,-4.3635,2041
14,1.7649,-0.4717,-1.4114,0.9572,-2.645,-2.7561,2065
14,-1.9529,-1.6577,-0.1462,1.7094,-1.5621,-4.3635,2048
14,-1.1106,-2.0,0.4587,-0.52,-4.1299,-3.2106,2072
14,-1.3926,-1.2559,-0.248,-0.2673,-0.658,-1.7799,2051
14,1.062,-1.5981,0.1094,-1.8937,1.1864,-1.3248,2002
14,1.9453,-1.5503,0.0144,-0.6067,3.3308,0.6819,2031
14,1.9999,-0.5115,0.071,0.4663,0.5691,3.0716,2534
14,-1.8843,-2.0,0.8591,-4.2286,-0.4682,-3.5384,1935
14,0.3853,-0.3896,-0.5891,-2.885,-0.9774,3.102,2013
14,-0.51,1.9999,0.176,-1.823,-1.2728,4.3634,2053
15,-1.4375,0.7561,1.9999,1.904,-1.3318,4.3634,2034
15,0.1848,-2.0,1.9236,1.4239,3.0143,-0.1483,2017
15,-0.0725,-2.0,0.2705,-0.438,3.6383,1.8612,2029
15,1.9999,-2.0,1.9999,-2.2164,3.6836,4.3634,2061
15,-0.3811,-1.449,-0.1733,-1.7274,-0.0005,-0.2458,2100
15,-2.0,0.635,0.269,0.0799,2.7486,1.5126,2024
15,-1.9561,-2.0,0.0596,-2.0696,3.02,3.0955,2070
15,0.1189,-1.522,0.5947,-2.0893,-0.9305,3.3182,2052
15,-1.4333,-1.5715,-0.2734,-2.4583,-0.594,2.9079,2045
15,-1.106,-0.4441,-1.5952,-2.6155,1.7892,3.2219,2064
15,-0.1001,1.1047,-1.561,-1.0295,2.5574,3.0007,2032
15,-0.1365,-0.665,-0.3252,-0.8046,1.4015,3.0954,2026
15,-0.2688,-1.4053,-0.8218,-0.7094,0.8222,2.1181,2020
15,-0.4155,-0.8118,-0.2456,0.2127,-0.9688,1.1978,2044
15,-0.1272,-0.2812,0.1841,0.9718,-2.0342,1.5029,2086
15,-1.3293,-0.7488,0.1194,1.1303,-1.7459,1.0748,2046
15,-1.6504,-0.9216,0.2739,0.4739,-0.9075,0.6118,2072
15,-1.1404,-1.3413,0.0349,0.1103,-0.6793,0.6388,2070
15,-0.4917,-1.5144,0.0759,-0.1,-0.592,0.8433,2042
15,-0.2441,-1.1985,0.0574,-0.208,-0.7827,0.7022,2048
15,-0.1621,-0.9653,-0.0608,-0.0541,-1.1568,0.8043,2071
15,-0.3972,-0.9329,-0.1514,0.0248,-0.9843,0.6895,2019
15,-0.5369,-0.9583,-0.1975,-0.0316,-0.4412,0.4552,2061
15,-0.3638,-1.0,-0.1663,0.0497,-0.3265,0.4131,2052
15,-0.0627,-0.9243,-0.1265,0.0656,-0.2657,0.4109,2113
15,-0.0151,-0.9419,-0.1521,0.0471,-0.3432,0.3306,1994
15,0.0532,-0.9968,-0.0676,0.0899,-0.6703,0.4401,1978
15,0.1331,-1.0422,-0.0205,-0.0691,-0.6538,0.5228,2049
15,0.0999,-0.9958,-0.0625,-0.0726,-0.7941,0.5966,2124
15,-0.0681,-0.9399,0.0801,-0.0735,-0.9553,0.5377,2081
15,-0.1616,-0.9163,0.0991,-0.0919,-0.7528,0.6612,2133
15,-0.05,-0.9502,0.0164,-0.1121,-0.2886,0.789,2048
15,0.2466,-0.9863,0.0039,-0.1256,-0.0411,0.8861,2056
15,0.3848,-0.981,0.0242,-0.1381,0.0975,0.9586,2046
15,0.3435,-1.0173,0.0068,-0.1045,0.0217,1.0339,2064
15,0.1221,-1.0369,-0.0183,-0.1537,0.0827,1.0793,2194
15,0.0854,-0.998,0.0095,-0.1615,-0.1119,1.1813,2004
15,-0.002,-1.0039,-0.0352,-0.1474,-0.244,1.2083,1935
15,-0.1699,-1.0615,-0.0168,-0.1406,-0.3381,1.2334,2045
15,-0.2803,-0.9983,0.0852,-0.1617,-0.1772,1.2908,2101
15,-0.1128,-0.9939,0.0847,-0.1526,-0.0005,1.3392,2035
15,0.0579,-1.1392,0.1541,-0.2021,-0.024,1.4241,2101
15,0.0938,-1.1401,0.0637,-0.2681,0.0658,1.488,2281
15,0.1755,-1.0862,0.0422,-0.2358,-0.0148,1.5831,1714
15,0.165,-1.0906,-0.0701,-0.2421,-0.0301,1.6326,2049
15,-0.1648,-1.1868,-0.032,-0.379,0.0578,1.5699,1721
15,0.0254,-1.1738,-0.0886,-0.3172,0.0939,2.0429,1692
15,0.417,-1.5752,-0.114,-0.2699,-0.0166,2.1249,2299
15,0.3848,-1.46,-0.0315,-0.3203,-0.1035,2.3919,2006
15,0.2478,-1.2998,0.0737,-0.3155,-0.2317,2.3481,1899
15,0.1824,-1.3464,0.1841,-0.2361,0.0019,2.5136,2114
15,0.166,-1.2524,0.2776,-0.1424,0.3276,2.6441,1941
15,0.0979,-1.1697,0.2966,-0.1017,0.5731,2.7946,2041
15,0.3098,-1.3474,0.2065,-0.0823,0.6114,2.9409,2055
15,0.3533,-1.4661,0.0266,-0.0766,0.8889,2.9942,2053
15,0.384,-1.4893,-0.0796,-0.063,1.0397,3.174,2049
15,0.707,-1.7688,-0.1777,-0.172,0.8596,3.3184,2054
15,1.0576,-2.0,0.0728,-0.1687,-0.1517,3.6925,2049
15,1.906,-2.0,0.2224,-0.6472,-1.0565,4.3522,2036
15,1.8428,-2.0,0.231,0.2266,-2.5281,4.3634,2029
15,1.0649,-1.9661,0.053,1.0674,-3.646,4.1282,2030
15,0.1599,-2.0,0.0491,1.0714,-2.6702,3.7854,2064
15,0.1011,-2.0,-0.208,-0.2013,-2.1406,4.1722,2054
15,1.3433,-0.8279,-0.4668,-0.4919,-3.3447,3.7807,2051
15,-1.085,-1.7595,0.1233,-1.5217,-3.542,1.9913,2024
15,-1.8657,-0.8311,0.0439,-0.7758,-2.4072,3.0594,2055
15,-1.5801,-0.0061,0.4131,0.6612,-0.6066,4.3634,2060
15,1.9999,-2.0,-0.3752,1.114,-3.8913,4.3634,2062
15,-2.0,0.0234,-1.0447,1.427,-0.1732,2.4718,2018
15,-2.0,-0.0479,0.365,-0.4614,0.0686,2.3739,2055
15,-2.0,-0.5146,0.9714,-0.7749,-0.3412,1.0413,2065
15,-1.9973,-0.4497,0.7297,-0.553,-1.7166,-0.3405,2063
15,-0.7786,-0.2378,0.3613,-0.7933,-2.0061,-0.9613,2036
15,-0.9246,-0.0261,0.3457,-1.9439,-1.884,-2.1907,2041
15,-0.4126,0.3057,0.0935,-2.7911,-0.9776,-3.6042,2059
15,-0.0886,0.0125,0.0098,-2.0647,0.5285,-3.6925,2051
15,0.0422,-0.2146,-0.0481,-1.226,1.494,-3.4476,2046
15,-0.0295,-0.1279,-0.0425,-0.9636,2.0325,-3.4284,2048
15,-0.2915,-0.0156,-0.0535,-0.7108,2.3101,-3.1826,2052
15,-0.4006,0.0859,-0.0391,-0.4462,2.2174,-2.9882,2046
15,-0.4333,0.1223,0.0225,-0.0846,1.9243,-3.0889,2043
15,-0.4402,0.0305,0.0837,0.3133,1.5728,-3.4367,2052
15,-0.5171,-0.0999,0.1265,0.4637,1.5528,-3.9126,2051
15,-0.6301,-0.0503,0.0725,0.5288,1.9666,-4.3178,2053
15,-0.6633,0.0444,0.1074,0.6375,2.173,-4.3635,2057
15,-0.5364,0.095,0.0476,0.8252,1.9921,-4.3635,2055
15,-0.197,0.0752,-0.012,0.9527,2.1045,-4.3635,2051
15,-0.1626,-0.0703,-0.0725,1.1624,1.7266,-4.3635,2049
15,-0.1228,-0.126,-0.0115,1.1238,1.14,-4.3635,2048
15,-0.3523,-0.1387,-0.0469,1.1336,0.9115,-4.3635,2052
15,-0.3213,-0.2744,-0.1045,1.2941,1.0481,-4.3635,2050
15,-0.3843,-0.3188,-0.1387,1.3485,1.0818,-4.3635,2052
15,-0.478,-0.2551,-0.1851,1.5404,1.2077,-4.3635,2054
15,-0.5549,-0.2512,-0.1934,1.7966,1.2535,-4.3635,2050
15,-0.5203,-0.2544,-0.3315,2.4064,1.1946,-4.3635,2070
15,-0.4241,-0.6863,-0.2307,2.7239,1.0083,-4.3635,2050
15,-0.7227,-0.9971,-0.1042,2.7239,0.6845,-4.3635,2055
15,-0.9194,-1.3291,0.2859,1.9218,0.0455,-4.3635,2044
15,-0.7517,-1.426,0.2214,1.1231,-0.1838,-4.3635,2050
15,0.1606,-2.0,-0.043,-0.4775,0.5203,-4.3635,2032
15,1.7739,-2.0,-0.8689,0.2,-2.1885,-4.3635,2068
15,-1.0613,-1.9934,-0.4338,1.6908,-0.8384,-4.3635,2043
15,-1.1096,-1.6367,0.7036,1.4763,-4.3635,-3.4801,2019
16,-1.2969,-1.2798,-0.1809,-0.6601,-1.8885,-3.5794,2079
16,0.0242,-2.0,-0.7527,-1.184,-1.5805,-1.2342,2063
16,0.6787,-1.0198,0.0066,-1.4978,-0.7178,0.1886,2049
16,0.8528,-1.4104,0.2744,-0.6901,3.0393,0.8451,2033
16,0.1536,-2.0,0.3713,-2.2025,3.2582,-0.7349,2066
16,-0.0029,-1.1274,-0.7832,-3.1275,1.4519,1.5781,2049
16,0.2556,0.2947,-0.2261,-2.7284,-1.0156,3.0457,2049
16,-2.0,0.0439,1.9999,2.9315,-0.3758,4.3634,2061
16,0.6023,-1.8809,1.9999,-0.3618,1.6516,0.3486,2046
16,1.9999,-2.0,0.5408,-2.5788,4.3634,4.3634,2044
16,-0.1619,-0.1895,-0.8362,0.1589,3.478,-4.3635,2034
16,-2.0,-0.2949,1.4526,-0.1171,2.9665,3.7331,2034
16,-2.0,-2.0,1.8313,-0.8352,1.6191,4.1516,2105
16,-0.8699,-1.4946,0.7341,-2.4597,-1.6291,3.4962,2056
16,-0.4482,-1.3735,-0.7151,-4.3635,-1.061,3.099,2055
16,-0.6155,-2.0,-1.5916,-3.1596,1.8454,4.0022,2062
16,-0.2051,0.5378,-1.8215,-2.6115,3.7708,2.9954,2100
16,0.7568,1.0979,-0.7502,-0.7506,1.6657,3.8419,2055
16,-0.0947,-0.8938,-0.6213,-0.3418,0.6867,3.0769,1987
16,-0.1816,-0.5469,-0.7,-0.0158,-0.1345,1.242,2038
16,-0.9465,-0.666,0.0901,0.7158,-1.9727,1.6572,2079
16,-1.4089,-0.8972,-0.0159,0.8875,-0.8111,1.5768,2032
16,-1.3918,-0.9163,-0.0627,0.8428,-1.0987,0.762,2055
16,-1.1438,-1.0645,0.3945,0.3356,-0.8557,0.8396,2052
16,-0.7756,-1.3752,0.1282,-0.0446,-0.534,0.8468,2052
16,-0.511,-1.4082,0.1216,-0.1987,-0.7723,0.8,2047
16,-0.4175,-1.116,0.0613,-0.2486,-0.9463,0.712,2062
16,-0.387,-0.929,-0.0913,-0.1214,-1.1437,0.7746,2050
16,-0.4827,-0.8762,-0.136,0.0128,-0.8642,0.5476,2037
16,-0.4414,-0.9568,-0.2053,0.1004,-0.463,0.3477,2065
16,-0.1665,-1.0303,-0.1526,-0.0614,-0.3193,0.3697,2055
16,0.0137,-1.0422,-0.0872,-0.0776,-0.3755,0.3257,2146
16,-0.0178,-1.0308,-0.0352,-0.1278,-0.6914,0.4099,2100
16,0.0859,-0.9382,-0.0461,-0.1922,-0.6863,0.4907,2011
16,0.1387,-0.9497,-0.0574,-0.1305,-0.9609,0.5196,2260
16,-0.0261,-1.011,0.0339,-0.192,-1.1555,0.4922,2016
16,-0.0347,-0.9736,0.0339,-0.1241,-0.8425,0.7178,1998
16,0.0603,-0.959,-0.0029,-0.0908,-0.5149,0.7918,2110
16,0.2952,-0.9429,-0.0449,-0.1254,-0.1121,0.94,2144
16,0.4663,-0.9172,-0.0332,-0.0936,0.0146,0.9332,2060
16,0.3379,-0.9917,-0.0051,-0.0695,0.1641,1.0571,2037
16,0.0691,-1.0537,-0.001,-0.1918,0.1063,1.0661,2022
16,0.1045,-0.9919,0.0525,-0.1973,-0.0782,1.2308,2074
16,0.1135,-0.9688,-0.0332,-0.2329,-0.3878,1.2852,1985
16,-0.0303,-0.968,0.0046,-0.2653,-0.6588,1.3728,1925
16,-0.2461,-0.9187,0.0217,-0.2326,-0.5378,1.3992,1983
16,-0.302,-0.9724,0.0618,-0.2021,-0.2398,1.3038,1988
16,-0.2424,-1.1013,0.0615,-0.225,-0.0003,1.3524,1992
16,-0.1394,-1.1189,0.0784,-0.3053,0.1935,1.3846,2211
16,-0.0029,-1.1479,0.1155,-0.3972,-0.0389,1.4697,1948
16,-0.0581,-0.98,0.0662,-0.365,-0.0373,1.4631,1971
16,-0.0168,-1.0337,0.0371,-0.3649,0.1073,1.7355,2041
16,0.0803,-1.2412,-0.0117,-0.328,0.2381,1.7397,1902
16,0.2534,-1.3433,-0.115,-0.3385,0.0152,2.0852,1966
16,0.2275,-1.3784,-0.1624,-0.3028,-0.1338,2.1214,1876
16,0.1772,-1.4023,-0.0588,-0.3277,-0.1145,2.2715,1974
16,0.2693,-1.405,0.0691,-0.3685,-0.0334,2.3724,2176
16,0.3252,-1.4048,0.2427,-0.332,0.1284,2.5051,2066
16,0.3091,-1.3701,0.3462,-0.2911,0.4438,2.6757,2109
16,0.3042,-1.3303,0.3701,-0.2646,0.6357,2.8011,2036
16,0.2571,-1.3245,0.3008,-0.2171,0.8665,2.9051,2041
16,0.3567,-1.3862,0.2178,-0.2172,0.8733,3.1508,2050
16,0.5447,-1.5833,0.05,-0.3011,0.8745,3.2927,2045
16,0.907,-1.8389,-0.0706,-0.4781,0.3149,3.684,2048
16,1.0466,-2.0,0.1001,-0.5634,-0.4914,3.96,2044
16,1.7319,-2.0,-0.0542,-0.6391,-1.2801,4.3634,2044
16,1.6208,-2.0,0.1272,0.2143,-2.8038,4.3634,2028
16,1.0186,-2.0,0.1702,0.6437,-3.303,4.172,2024
16,0.2483,-2.0,0.1592,0.6221,-3.0965,4.3634,2058
16,0.1973,-2.0,-0.3206,-0.5384,-2.2031,3.0517,2072
16,0.4224,-1.811,-0.1821,-1.5944,-4.353,2.9429,2058
16,-1.4863,-1.1426,0.0522,-0.9801,-3.8125,2.1639,2025
16,-2.0,-0.5737,-0.095,-0.395,-1.5508,3.9632,2046
16,-1.3486,-0.231,0.1973,1.2242,-0.169,4.3634,2067
16,1.9999,-1.9675,-0.3813,1.0037,-2.3818,4.3634,2068
16,-2.0,-0.3445,-1.0364,2.064,-0.3586,2.4015,2028
16,-2.0,0.3875,0.5901,0.1714,-0.4055,2.3883,2062
16,-2.0,-0.5679,0.9839,-0.4711,-0.2278,0.9158,2059
16,-2.0,-0.4292,0.5649,-0.3477,-1.4518,-0.5481,2061
16,-0.9692,-0.0862,0.2251,-0.5307,-1.8835,-1.1665,2039
16,-1.0872,0.1187,0.2839,-1.8451,-1.4226,-2.7028,2045
16,-0.3398,0.2161,0.113,-2.5177,-0.5156,-3.8266,2102
16,-0.106,-0.1174,-0.0264,-1.6274,0.7396,-3.6651,2041
16,-0.0791,-0.1985,-0.0037,-0.6902,1.5861,-3.393,2051
16,-0.2771,0.0073,0.0007,-0.4283,2.2956,-3.4167,2053
16,-0.324,0.1116,-0.0444,-0.2645,2.493,-3.2333,2048
16,-0.406,0.1458,-0.0876,-0.0566,2.4368,-3.1396,2048
16,-0.4248,0.177,-0.0176,0.1874,2.1278,-3.32,2049
16,-0.3391,0.1433,0.0625,0.4948,1.7767,-3.6984,2048
16,-0.3413,-0.0107,0.1101,0.7688,1.6396,-4.1314,2050
16,-0.4385,0.0093,0.0645,0.8841,1.8467,-4.3635,2051
16,-0.3809,0.0481,-0.01,0.8885,1.9204,-4.3635,2051
16,-0.3472,0.0322,-0.0769,1.1573,1.9891,-4.3635,2053
16,-0.3376,-0.094,-0.0103,1.3841,1.6447,-4.3635,2055
16,-0.1697,-0.1558,-0.0957,1.4058,1.5647,-4.3635,2055
16,-0.0093,-0.179,-0.0547,1.2873,1.2978,-4.3635,2051
16,-0.0649,-0.2014,-0.0525,1.1705,0.8139,-4.3635,2064
16,-0.3093,-0.2773,-0.1016,1.1668,0.6207,-4.3635,2050
16,-0.3367,-0.3408,-0.1948,1.2744,0.7632,-4.3635,2052
16,-0.4697,-0.342,-0.2175,1.3922,0.9897,-4.3635,2054
16,-0.4656,-0.3252,-0.219,1.5083,1.0015,-4.3635,2052
16,-0.4141,-0.3369,-0.2966,1.8433,0.7746,-4.3635,2058
17,-0.3069,-0.5303,-0.2412,2.0583,0.3835,-4.3635,2050
17,-0.3767,-0.6819,-0.2454,2.2373,-0.0423,-4.3635,2049
17,-0.6355,-1.0747,-0.0581,2.0809,-0.7244,-4.3635,2053
17,-0.7126,-1.4119,0.2461,1.1931,-1.2676,-4.3635,2048
17,-0.5149,-1.5178,0.1367,0.3426,-1.1488,-4.3635,2050
17,0.1697,-2.0,0.2415,-0.867,-1.6705,-4.3635,2037
17,1.6008,-2.0,-0.5833,-0.7124,-3.648,-4.3635,2058
17,-1.1084,-0.6489,-0.7908,2.6404,-2.4569,-3.26,2052
17,-1.8538,-2.0,0.6475,0.8877,-4.3635,-3.9913,2027
17,-0.5825,-1.6687,-0.0474,-0.7425,-2.5389,-2.2959,2081
17,-0.0146,-1.407,0.0696,-0.9815,-0.2072,-1.0075,2060
17,0.7109,-1.6252,0.0854,-1.7516,2.618,0.4851,2035
17,0.7317,-2.0,0.3369,-0.9586,4.0213,-0.1205,2031
17,-0.489,-2.0,0.3435,-3.0877,0.647,-1.793,2065
17,0.0664,-0.5664,0.0039,-4.3635,-0.314,1.597,2067
17,-0.561,1.9999,-0.4231,2.0201,-0.1165,4.3634,2074
17,-2.0,-0.4644,1.9999,1.9218,-1.4685,1.554,2045
17,1.4148,-2.0,0.6753,0.6445,3.1328,1.7475,2051
17,1.2004,-2.0,-0.5396,-2.433,4.3634,1.686,2053
17,0.8594,1.9999,-0.9392,0.6556,3.2087,-0.1824,2026
17,-2.0,-1.875,0.6819,-0.7443,3.1421,3.7185,2064
17,-1.6482,-2.0,1.5508,-0.558,0.5902,4.0154,2056
17,-0.396,-1.2473,0.6018,-1.8454,-1.3323,3.772,2035
17,-1.0779,-1.6086,-0.8262,-3.827,-0.2895,3.4319,2069
17,-1.593,-1.5046,-1.4548,-3.7897,2.6848,3.3106,2097
17,0.425,0.7297,-1.604,-2.4036,2.5072,2.7649,2062
17,0.1777,0.1294,-0.5532,-0.7553,0.4179,4.1331,2063
17,-0.5757,-0.7661,-0.6472,0.0123,0.392,2.3795,2037
17,-0.6042,-0.53,0.1565,0.2851,-0.7457,1.2336,2037
17,-1.4578,-0.7366,-0.0671,0.8074,-1.221,2.1146,2007
17,-1.447,-0.8083,0.1511,1.1319,-0.8164,0.9031,2093
17,-0.8303,-0.7947,0.2656,0.7072,-0.3567,0.032,2071
17,-1.0542,-1.1582,-0.1194,0.1987,-0.0767,0.4601,2078
17,-0.4285,-1.5776,0.0251,0.1059,-0.7014,0.8913,2038
17,-0.0813,-1.4656,-0.075,-0.0145,-0.5661,0.8163,2052
17,-0.0842,-1.1506,-0.1179,0.087,-1.029,0.8883,2052
17,-0.436,-0.9973,-0.1804,0.1549,-1.281,1.0425,2045
17,-0.6455,-0.9221,-0.1682,0.1132,-0.8099,0.801,2058
17,-0.6514,-1.0,-0.1301,0.1057,-0.1542,0.5805,2054
17,-0.3733,-1.0105,-0.1335,0.0446,0.1788,0.4733,2064
17,-0.0652,-1.0283,-0.1111,0.0928,0.0406,0.5207,2079
17,0.0884,-0.8938,0.0083,-0.0021,-0.2065,0.4088,2055
17,0.0554,-0.8269,0.0989,-0.0537,-0.2615,0.3884,2045
17,0.0403,-0.9758,0.0952,0.0256,-0.4807,0.438,2209
17,0.0881,-1.1301,0.0762,0.0233,-0.7059,0.5769,2050
17,0.1221,-1.0669,0.0825,-0.2153,-0.5426,0.6645,2010
17,-0.0232,-0.9026,-0.002,-0.2402,-0.638,0.6589,2024
17,-0.0095,-0.781,-0.0159,-0.2071,-0.5698,0.6585,2004
17,0.166,-0.8826,0.0537,-0.1563,-0.3244,0.799,2069
17,0.0703,-0.968,-0.009,-0.182,-0.0031,0.8321,2095
17,-0.0713,-0.9531,0.022,-0.2582,0.0625,0.8425,2032
17,0.0391,-0.8745,0.1016,-0.1763,0.024,0.9558,2052
17,0.0461,-0.905,0.0317,-0.1804,-0.2234,1.054,2072
17,0.0352,-0.9678,-0.124,-0.2894,-0.652,1.0733,2070
17,-0.0881,-0.9546,-0.0708,-0.1931,-0.9798,1.0164,2008
17,-0.4619,-0.9116,0.0261,-0.1778,-1.0709,0.9371,2119
17,-1.0227,-0.6553,-0.043,-0.0936,-0.2297,0.3771,1945
17,0.1155,-1.1792,0.157,-0.3248,0.012,1.217,2141
17,0.3191,-1.061,0.0876,-0.1867,0.034,1.241,2165
17,-0.113,-0.9539,0.1821,-0.1931,0.0988,1.0527,2072
17,0.0317,-1.0947,0.1282,-0.2585,0.4193,1.1532,1993
17,0.4944,-1.1948,0.0068,-0.2958,0.461,1.3981,2384
17,0.699,-1.3069,-0.1594,-0.3008,0.3185,1.7646,1871
17,0.4465,-1.3906,-0.1943,-0.2527,-0.0423,2.215,1850
17,0.4199,-1.5637,-0.2517,-0.2513,-0.3512,2.4398,1935
17,0.1907,-1.5908,-0.1423,-0.2494,-0.2635,2.3213,2300
17,0.146,-1.4736,0.0491,-0.2389,-0.1935,2.2774,2295
17,0.1255,-1.4795,0.2158,-0.265,0.1904,2.3143,2006
17,0.1987,-1.3994,0.3181,-0.2365,0.1984,2.4721,2147
17,0.0376,-1.2163,0.2849,-0.1289,0.3352,2.6032,1976
17,-0.0125,-1.2559,0.2893,-0.0668,0.5027,2.6936,2042
17,0.1868,-1.3486,0.231,-0.0385,0.5996,2.8652,2039
17,0.3682,-1.4006,0.1401,-0.0886,0.5879,3.1002,2057
17,0.5813,-1.5544,0.0674,-0.2077,0.4288,3.3122,2057
17,0.709,-1.6741,-0.0417,-0.2631,0.1148,3.6264,2051
17,0.8689,-1.9387,0.2292,-0.2751,-0.5293,3.95,2039
17,1.614,-2.0,0.1353,-0.5928,-1.0622,4.2647,2032
17,1.7544,-2.0,0.2654,0.0888,-2.7995,4.3634,2030
17,1.1709,-2.0,0.4036,0.5558,-3.8334,4.2354,2028
17,-0.0083,-2.0,0.3687,0.705,-3.5507,4.2413,2053
17,-0.2634,-2.0,-0.0916,0.1702,-1.9983,3.9558,2060
17,0.8213,-1.0598,-0.5757,-0.6313,-2.4882,3.5784,2132
17,-0.6135,-1.5337,-0.0063,-1.4543,-4.0856,1.7161,2044
17,-1.8928,-1.0938,-0.2017,-1.2011,-3.1898,2.5064,2026
17,-1.7783,-0.0994,0.1379,0.2694,-0.7091,4.3634,2057
17,-0.7642,-0.0161,-0.2244,1.5672,1.0175,3.8619,2064
17,1.9999,-2.0,-0.8167,-0.1547,-4.3635,4.3634,2037
17,-2.0,0.3689,0.0913,1.6548,-1.2733,2.4827,2027
17,-2.0,-0.1335,0.467,0.2373,0.4759,1.5536,2051
17,-2.0,-0.7043,0.4702,-0.3116,-0.1543,0.3808,2065
17,-1.3772,-0.385,0.1619,-0.1779,-1.1423,-0.7902,2054
17,-1.3574,-0.0957,0.1023,-0.6677,-1.0069,-1.6627,2043
17,-0.874,0.1438,0.1394,-1.9166,-0.4393,-3.13,2055
17,-0.167,0.0972,0.0054,-1.8152,0.6797,-3.6065,2059
17,-0.0754,-0.2007,-0.0493,-0.8477,1.3434,-3.2234,2045
17,-0.1292,-0.0708,-0.1384,-0.2137,2.0634,-3.0506,2047
17,-0.3101,0.0225,-0.1414,-0.0123,2.3029,-3.156,2053
17,-0.3779,0.1335,-0.1448,0.1946,2.2566,-3.1235,2053
17,-0.3904,0.1675,-0.1018,0.3076,1.807,-3.2802,2050
17,-0.4316,0.1514,-0.0413,0.5233,1.595,-3.5461,2049
18,-0.45,0.1121,0.0645,0.7107,1.6135,-3.9582,2040
18,-0.3989,0.0571,0.0979,0.8977,1.8021,-4.2731,2052
18,-0.2957,0.0388,0.033,1.058,1.9929,-4.3635,2052
18,-0.2615,0.0425,-0.0403,1.2785,2.0347,-4.3635,2051
18,-0.2935,-0.1267,-0.1069,1.5442,1.8788,-4.3635,2052
18,-0.5259,-0.1631,-0.0994,1.8696,1.9243,-4.3635,2057
18,-0.0479,-0.2305,-0.1467,1.7701,1.9909,-4.3635,2054
18,-0.0144,-0.2139,-0.1638,1.7515,2.4019,-4.3635,2045
18,0.0527,-0.3525,-0.0671,1.4436,1.8241,-4.3635,2050
18,-0.2693,-0.2942,-0.2068,1.4804,1.6334,-4.3635,2060
18,-0.2593,-0.3491,-0.3215,1.6454,1.713,-4.3635,2060
18,-0.4138,-0.3457,-0.3625,1.8642,1.8217,-4.3635,2052
18,-0.3245,-0.3809,-0.4082,2.2332,1.5756,-4.3635,2054
18,-0.2561,-0.5378,-0.3354,2.5241,1.0824,-4.3635,2052
18,-0.2161,-0.6714,-0.3694,2.6975,0.3879,-4.3635,2048
18,-0.3538,-1.052,-0.2651,2.6571,-0.3353,-4.3635,2048
18,-0.6477,-1.4058,-0.0859,2.3181,-1.0784,-4.3635,2050
18,-0.7373,-1.6948,0.2454,1.4492,-1.8476,-4.3635,2044
18,-0.0996,-2.0,0.6379,-2.0542,-2.4614,-4.3635,2027
18,1.2957,-2.0,-0.5327,-1.4665,-3.4421,-4.3635,2061
18,-0.9795,-1.0073,-0.7673,1.3774,-1.061,-4.3635,2043
18,-1.4231,-2.0,0.9675,0.6829,-4.3635,-3.2684,2021
18,-2.0,-0.0706,-0.8464,0.2013,-0.3675,-4.3635,2066
18,-0.3977,-1.7051,-0.5647,-0.5861,0.2191,-2.1106,2080
18,0.104,-1.4929,-0.6553,-1.1477,-1.4218,-1.2469,2062
18,1.0964,-1.3818,-0.0566,-1.0385,0.4713,0.1593,2048
18,0.7825,-2.0,0.2771,-2.2497,2.1222,0.5777,2042
18,0.73,-2.0,0.6196,-3.0862,0.5706,-1.1927,2026
18,0.2756,-0.3416,-0.6643,-2.6698,-1.1501,2.0022,2061
18,-0.6116,0.6572,0.0669,-0.0362,-1.1258,4.3634,2054
18,-2.0,-1.6421,1.9999,1.6792,-0.4312,3.8916,2055
18,1.9999,-2.0,1.9999,-1.7681,2.4424,4.3634,2046
18,0.0857,-2.0,-0.366,-1.878,3.9439,-2.9139,2013
18,1.9999,1.5415,-0.8743,1.0387,4.3634,-2.6004,2048
18,-1.6042,-2.0,0.6882,-0.9517,4.3634,4.3634,2039
18,-0.7537,-1.5015,1.5627,-0.0784,1.6325,4.1322,2077
18,-1.6326,-1.281,1.0457,-1.6452,-0.5959,3.8193,2039
18,-1.4153,-1.9219,-0.8625,-4.3635,-0.2489,3.5442,2042
18,-1.4734,-2.0,-1.4951,-4.3635,1.4452,3.2782,2081
18,0.812,1.0833,-1.8481,-3.2584,2.3569,3.3685,2066
18,0.467,1.095,-0.9873,-0.6231,0.4077,3.9989,2054
18,0.2178,-0.3298,-0.8152,0.5144,0.0682,0.855,2037
18,-0.3813,-1.4053,-0.0049,0.0146,-0.2806,2.0374,2032
18,-1.4871,-1.196,0.21,0.4842,-1.0818,2.4555,2041
18,-1.3445,-0.7495,0.0793,0.55,-0.2707,1.8113,2076
18,-1.0603,-0.3293,0.1638,1.1649,-1.0495,0.3065,2075
18,-1.1589,-0.8091,0.3245,0.5723,-0.23,0.2938,2055
18,-0.9104,-1.5022,0.0178,0.0044,-0.1461,0.3406,2053
18,-0.3508,-1.6687,0.0493,-0.1818,-0.5263,0.8096,2040
18,0.0818,-1.3127,-0.104,-0.2328,-0.5502,0.6865,2049
18,-0.0229,-1.0203,-0.2256,-0.0189,-1.0757,0.9408,2036
18,-0.4419,-0.856,-0.2214,0.0649,-0.9019,0.8206,2097
18,-0.6367,-0.9395,-0.2388,-0.1163,-0.1525,0.4844,2102
18,-0.3396,-1.0193,-0.2188,-0.1459,-0.1023,0.4189,1983
18,0.0317,-1.0315,-0.2229,-0.092,-0.2658,0.2918,2044
18,0.2468,-1.0266,-0.0884,-0.2147,-0.2675,0.4582,2096
18,0.1189,-0.6841,-0.1279,-0.1443,-0.5871,0.399,2115
18,0.0129,-0.9026,0.0215,0.0807,-0.8717,0.4669,2008
18,0.0061,-1.1882,0.0527,0.0843,-1.0849,0.5912,2024
18,0.0869,-1.1118,-0.0781,-0.0162,-0.8742,0.7958,1922
18,0.2026,-0.981,-0.0388,-0.0838,-0.81,0.7472,2051
18,0.2231,-0.9272,0.0088,-0.0586,-0.8099,0.8348,2028
18,0.2478,-0.9624,0.0276,0.0206,-0.7486,0.9214,2122
18,0.1597,-0.9785,-0.0081,0.008,-0.5245,1.0898,2146
18,-0.0457,-0.9587,0.0437,-0.0289,-0.1152,1.0761,2199
18,-0.207,-0.9729,0.0686,-0.0806,0.3444,1.1144,2101
18,-0.0674,-0.9565,-0.0554,-0.1048,0.4574,1.1424,1970
18,0.2949,-1.1423,-0.0251,-0.2697,0.0165,1.4523,2032
18,0.1597,-0.9795,-0.0403,-0.2844,-0.6425,1.2477,1975
18,-0.3301,-0.8513,-0.0054,-0.2101,-0.8202,1.3997,1861
18,-0.8142,-0.7339,0.093,-0.2077,-0.2575,0.9761,2021
18,-0.323,-0.8674,0.1213,-0.1748,0.3151,1.3985,1959
18,0.0518,-1.1355,0.083,-0.2047,0.1691,1.4536,2115
18,-0.041,-1.0435,0.1082,-0.1634,0.2578,1.4406,2106
18,-0.0793,-1.0076,0.1003,-0.1762,0.1581,1.5143,1747
18,-0.0037,-1.1096,0.0217,-0.1277,0.322,1.6657,2140
18,0.1243,-1.2805,-0.0762,-0.1017,0.1525,1.8992,1839
18,0.2329,-1.4771,-0.0898,-0.1276,0.1438,2.017,2137
18,0.3577,-1.5322,-0.012,-0.2208,-0.1178,2.1848,1887
18,0.3975,-1.4438,0.0774,-0.2406,-0.045,2.2747,2038
18,0.3125,-1.5078,0.2517,-0.2396,0.1374,2.4039,2041
18,0.3015,-1.4604,0.3684,-0.2803,0.396,2.5373,2065
18,0.2734,-1.2246,0.3271,-0.2249,0.6983,2.6024,2069
18,0.1758,-1.1675,0.2302,-0.068,0.8379,2.8252,2055
18,0.1184,-1.4077,0.1353,-0.0638,1.0126,2.8363,2035
18,0.4302,-1.5286,0.0417,-0.1037,0.9003,3.2561,2082
18,0.6753,-1.6775,0.0249,-0.2244,0.5694,3.3801,2081
18,0.7969,-1.7483,0.085,-0.3976,0.1792,3.6617,2049
18,1.0947,-1.9775,-0.002,-0.4153,-0.5863,3.9185,2048
18,1.1777,-2.0,0.3843,-0.7192,-1.0497,4.3634,2035
18,1.6189,-2.0,0.1799,-0.1595,-2.4253,4.2519,2032
18,1.0051,-2.0,0.2612,0.6384,-3.5331,4.2409,2032
18,0.0652,-2.0,-0.0127,0.7401,-3.3344,3.7909,2043
18,-0.0146,-2.0,-0.4285,-0.1205,-2.4284,3.6873,2032
18,0.3931,-1.3579,-0.3396,-0.7187,-3.7424,3.0256,2065
18,-1.394,-1.5828,0.0129,-0.9375,-3.7243,1.9112,2045
18,-1.8481,-0.9285,-0.1697,-0.3884,-1.8311,3.8767,2052
18,-0.9517,-0.0698,0.2673,1.0219,-0.0318,4.3634,2059
18,0.1516,-0.7773,-0.5959,1.1852,1.2885,3.2134,2067
18,1.9999,-2.0,-1.5945,0.6859,-4.361,3.909,2103
18,-2.0,0.9448,0.6545,1.0236,-2.0643,2.7693,2026
18,-2.0,-0.3584,0.6428,-0.2,-0.2762,1.1918,2062
18,-2.0,-0.6147,0.3762,-0.284,-0.7581,0.0146,2067
18,-1.2222,-0.2737,0.1101,-0.3392,-1.5029,-0.7184,2056
18,-1.2314,-0.0295,0.2454,-1.2714,-1.4131,-2.0695,2051
19,-0.6448,0.1279,0.1992,-2.2157,-0.8686,-3.3312,2073
19,-0.2146,-0.0938,0.0603,-1.7656,0.2008,-3.6165,2045
19,-0.1587,-0.1245,0.0066,-0.7742,1.2091,-3.2072,2044
19,-0.3232,-0.0076,-0.0015,-0.2468,1.8518,-3.0877,2051
19,-0.375,0.0249,0.0112,-0.1486,1.903,-3.2078,2049
19,-0.3606,0.0747,-0.0081,-0.039,1.725,-3.1979,2050
19,-0.394,0.0933,-0.0115,0.0715,1.4906,-3.4123,2048
19,-0.4172,0.0864,0.0583,0.2077,1.4233,-3.7496,2053
19,-0.45,-0.0039,0.1135,0.4382,1.4436,-4.1672,2052
19,-0.4277,0.0598,0.1345,0.7367,1.7538,-4.2855,2050
19,-0.3799,0.0425,0.1216,0.7931,1.8646,-4.3635,2052
19,-0.3875,-0.0022,0.043,0.9183,1.9413,-4.3635,2050
19,-0.4453,-0.1257,0.011,1.081,1.8976,-4.3635,2052
19,-0.3359,-0.094,-0.0554,1.2322,1.9907,-4.3635,2050
19,-0.3943,-0.1489,-0.0447,1.1179,1.8928,-4.3635,2049
19,-0.2402,-0.0249,0.0127,1.1183,1.5842,-4.3635,2052
19,-0.1646,-0.1975,0.0254,1.1525,1.2794,-4.3635,2050
19,-0.2629,-0.231,-0.0601,1.2105,1.0814,-4.3635,2049
19,-0.3975,-0.2502,-0.1794,1.3921,1.1601,-4.3635,2050
19,-0.4456,-0.281,-0.1599,1.5723,1.1967,-4.3635,2060
19,-0.4717,-0.3279,-0.2195,1.8088,1.137,-4.3635,2055
19,-0.4678,-0.3779,-0.2217,2.2728,0.9584,-4.3635,2053
19,-0.488,-0.4834,-0.2271,2.4629,0.8313,-4.3635,2049
19,-0.5239,-0.9829,0.095,2.4623,0.2256,-4.3635,2043
19,-0.6396,-1.4976,0.4092,1.6937,-0.3294,-4.3635,2047
19,-0.3901,-1.4937,0.2693,1.1472,-0.5406,-4.3635,2045
19,0.9395,-2.0,-0.0686,0.5203,-0.3061,-4.3635,2059
19,1.9999,-2.0,-0.7188,0.3358,-2.9152,-4.3635,2062
19,-2.0,-2.0,0.4939,2.4534,-2.6734,-4.3594,2032
19,-0.3147,-2.0,1.4878,-0.881,-4.3635,-3.8584,2040
19,-1.5125,-0.4944,-1.1387,0.016,-0.91,-4.1062,2075
19,-0.0754,-1.866,-0.667,-0.9535,-0.3482,-0.6675,2097
19,1.8408,-1.6099,0.2695,-0.5822,0.1467,0.5148,2053
19,0.6975,-2.0,0.3127,-1.8856,1.7139,0.0591,2032
19,0.9761,-1.978,-0.4299,-2.8561,-0.1097,0.1591,2024
19,-0.9995,-0.8435,0.2512,-4.3635,-0.8495,1.7378,2051
19,-1.895,0.8357,0.9116,2.9032,-1.9598,4.3634,2045
19,1.9999,-2.0,1.9999,0.3462,1.4122,4.3634,2056
19,-0.0537,-2.0,0.3872,-1.8977,-0.8534,-1.2107,2057
19,0.7246,1.9766,-1.385,2.8261,3.0383,-4.3635,2038
19,0.0398,-2.0,-0.0293,-0.7733,4.3634,3.7571,2077
19,-1.1841,-1.2183,1.7708,-1.4587,4.0773,4.3634,2065
19,-2.0,-1.2092,1.8218,0.6055,0.0581,4.3634,1998
19,-1.5469,-1.9312,0.2419,-3.847,-0.5675,4.1479,2070
19,-0.7268,-2.0,-1.3284,-4.2731,1.7294,4.3634,2105
19,0.646,-0.1694,-1.6445,-3.6111,3.0002,3.2182,2036
19,0.7305,0.9402,-1.4165,-1.8957,1.6422,4.3634,2053
19,-0.2,0.4768,-1.1868,0.0497,0.7891,2.2961,2058
19,-0.4524,-0.812,-0.8948,0.8407,0.6232,1.7484,2031
19,-1.3508,-1.1118,0.4153,0.8175,0.2107,2.5638,2031
19,-1.3394,-0.7847,0.2122,0.4002,0.9401,1.9166,2030
19,-0.7773,-0.4309,0.2864,1.3308,-0.0145,0.5596,2067
19,-0.9116,-0.8718,0.4258,1.2218,-0.3524,0.7099,2058
19,-1.384,-1.6033,0.2261,0.0831,0.224,0.7668,2061
19,-0.8496,-1.675,0.2573,-0.3516,-0.193,1.03,2052
19,-0.24,-1.2554,0.1174,-0.5554,-0.1392,0.8533,2055
19,0.0867,-0.9595,-0.0088,-0.3223,-0.4995,0.8997,2040
19,-0.197,-1.0061,-0.0542,-0.123,-1.2548,0.9757,2049
19,-0.6047,-1.0325,-0.0083,-0.1535,-1.2837,0.7363,2107
19,-0.7068,-1.0273,-0.0884,-0.2269,-0.8415,0.4313,1955
19,-0.427,-1.0471,-0.1416,-0.1965,-0.4428,0.45,2011
19,-0.2441,-1.2268,-0.0889,-0.5264,-0.0059,0.5003,2029
19,-0.1333,-1.1069,-0.0588,-0.4872,-0.1928,0.5521,2156
19,0.0151,-0.6216,0.0569,-0.4783,-0.2697,0.5018,1985
19,0.1416,-0.7327,-0.1179,-0.0991,-0.3856,0.3988,2139
19,0.301,-1.3523,0.0271,-0.2223,-1.0753,0.2811,2122
19,0.1873,-1.1816,-0.1108,-0.2879,-1.1421,0.7806,2120
19,0.167,-0.7627,-0.0334,-0.3533,-1.313,0.6921,2111
19,0.0864,-0.7314,-0.0276,-0.2922,-1.1292,0.6456,2059
19,-0.2556,-0.8074,-0.1331,-0.2241,-0.7068,0.4526,2173
19,0.0645,-0.8286,-0.1189,-0.1979,-0.3468,0.8035,2027
19,0.9404,-1.2949,0.0518,-0.2721,-0.4995,1.5107,2341
19,0.0173,-0.8696,0.074,-0.508,-1.9512,0.9132,2038
19,-0.5293,-0.7539,-0.3525,-0.2055,-0.1417,0.8561,2106
19,-0.4492,-0.9443,-0.0847,-0.1627,1.2471,1.0732,1956
19,0.0986,-1.1465,0.0193,-0.4734,0.1007,0.5019,2081
19,0.0928,-0.7893,0.0571,-0.3663,-0.2091,1.172,2007
19,-0.4683,-0.8296,0.0388,-0.1859,-0.4311,0.7316,1999
19,-0.5854,-0.9663,0.0735,-0.0867,0.0344,1.3557,2098
19,0.0632,-1.1938,0.0496,-0.1382,-0.0382,1.9691,2148
19,-0.2117,-0.9958,0.1809,-0.1799,-0.0117,1.3889,2056
19,-0.282,-1.0061,0.1414,-0.1751,0.0084,1.2167,1745
19,-0.1016,-0.9663,0.0842,-0.1613,0.2842,1.3189,1698
19,0.1846,-1.1826,-0.033,-0.1686,0.1193,1.3549,1846
19,0.282,-1.2656,-0.1321,-0.193,-0.0651,1.5326,2142
19,0.1165,-1.2532,-0.1685,-0.1595,-0.2123,1.8274,2023
19,0.1147,-1.3135,-0.1592,-0.0249,-0.2426,2.0414,2107
19,0.1772,-1.448,-0.1086,-0.0322,-0.3032,2.1288,2179
19,0.198,-1.4165,0.0173,-0.0839,-0.2792,2.0815,2403
19,0.134,-1.4141,0.1292,-0.1007,-0.2474,2.1301,1964
19,0.1731,-1.4128,0.241,-0.0703,0.0072,2.2839,2106
19,0.26,-1.3247,0.2373,0.0182,0.2643,2.4041,2103
19,0.2808,-1.3247,0.1462,0.142,0.4261,2.6137,2080
19,0.3945,-1.4392,0.1042,0.1678,0.6798,2.7658,2030
19,0.6777,-1.4263,0.0283,0.1358,0.8617,3.1011,2050
19,0.8721,-1.5334,-0.0876,0.1119,0.4436,3.2471,2061
19,1.0525,-1.8933,-0.1099,0.0506,0.4338,3.548,2046
19,1.1672,-2.0,-0.0806,-0.0168,0.2876,3.8463,2054
19,1.075,-2.0,0.4033,-0.129,-0.6558,4.322,2032
19,1.615,-2.0,0.1077,-0.4365,-1.3641,4.3634,2035
19,0.8298,-2.0,0.1118,0.2009,-1.6696,4.3634,2015
