Timestamp,Ax,Ay,Az,Rx,Ry,Rz,HR_value
0,-1.05,0.2551,-0.0449,-0.1362,-0.0479,-0.2878,169
0,-1.0775,0.3143,-0.0265,-0.1362,-0.0479,-0.2878,169
0,-1.0775,0.3143,-0.0265,-0.1711,-0.0337,-0.3205,169
0,-1.0918,0.301,-0.0122,-0.2617,-0.0217,-0.3542,169
0,-1.0969,0.252,-0.0255,-0.363,-0.0185,-0.3663,169
0,-1.1316,0.2296,0.0,-0.3968,-0.0053,-0.3586,169
0,-1.2531,0.1449,0.0908,-0.4307,0.0076,-0.338,169
0,-1.353,0.1735,0.1755,-0.4557,0.0162,-0.3052,169
0,-1.454,0.1,0.1775,-0.52,0.0087,-0.2682,169
0,-1.5143,0.0734,0.201,-0.4982,-0.0065,-0.2605,169
0,-1.603,0.0571,0.2071,-0.5374,-0.0392,-0.267,169
0,-1.652,-0.0408,0.1612,-0.5374,-0.0392,-0.267,169
0,-1.652,-0.0408,0.1612,-0.6454,-0.0479,-0.3434,169
0,-1.6571,-0.1204,0.1418,-0.6116,-0.0643,-0.4,169
0,-1.6377,-0.1122,0.1928,-0.4841,-0.0631,-0.4317,169
0,-1.651,-0.0602,0.2561,-0.4099,-0.0511,-0.4252,169
0,-1.6346,-0.0693,0.249,-0.4643,-0.0435,-0.4295,169
0,-1.6785,-0.1744,0.1265,-0.5647,-0.0534,-0.5179,169
0,-1.6449,-0.203,0.0928,-0.4469,-0.1297,-0.5385,169
0,-1.4918,-0.0571,0.1979,-0.4807,-0.2201,-0.5593,169
0,-1.4112,-0.1,0.2173,-0.6312,-0.3489,-0.5647,169
0,-1.3051,-0.1765,0.2092,-0.6312,-0.3489,-0.5647,169
0,-1.2173,-0.1785,0.2357,-0.64,-0.4578,-0.545,169
0,-1.2173,-0.1785,0.2357,-0.5734,-0.5494,-0.507,169
0,-1.0398,-0.1398,0.2388,-0.5996,-0.6171,-0.4818,169
0,-0.9418,-0.1683,0.2408,-0.5996,-0.6171,-0.4818,169
0,-0.8887,-0.2397,0.25,-0.6629,-0.6356,-0.4677,169
0,-0.7336,-0.2561,0.2795,-0.6333,-0.653,-0.4012,169
0,-0.6489,-0.2397,0.3591,-0.5408,-0.6377,-0.3717,169
0,-0.5969,-0.2459,0.3806,-0.5255,-0.5734,-0.3302,169
0,-0.5867,-0.2867,0.3846,-0.5255,-0.5734,-0.3302,169
0,-0.5153,-0.3296,0.3908,-0.569,-0.5189,-0.2802,169
0,-0.5234,-0.3428,0.3877,-0.569,-0.5189,-0.2802,169
0,-0.5336,-0.3724,0.3561,-0.5767,-0.4763,-0.193,169
0,-0.5336,-0.3724,0.3561,-0.6203,-0.387,-0.1297,169
0,-0.5786,-0.3867,0.2795,-0.6192,-0.1984,-0.1297,169
0,-0.6837,-0.3336,0.152,-0.6192,-0.1984,-0.1297,169
0,-0.6908,-0.1898,0.1898,-0.4187,-0.1373,-0.1352,169
0,-0.7377,-0.1163,0.1918,-0.2495,-0.1198,-0.085,169
0,-0.7847,-0.0939,0.1765,-0.3128,-0.0948,-0.0599,169
0,-0.7959,-0.0724,0.1367,-0.4164,-0.0948,-0.0621,169
0,-0.7898,-0.004,0.153,-0.4055,-0.11,-0.0664,169
0,-0.7795,0.0265,0.1439,-0.4055,-0.11,-0.0664,169
0,-0.7826,0.0193,0.1418,-0.3729,-0.1341,-0.0577,169
0,-0.7826,0.0193,0.1418,-0.4469,-0.1537,-0.0511,169
0,-0.7571,-0.0928,0.1163,-0.5919,-0.1602,-0.0806,169
0,-0.754,-0.1102,0.1357,-0.6257,-0.1732,-0.0959,169
0,-0.7449,-0.1581,0.1387,-0.6333,-0.181,-0.0948,169
0,-0.751,-0.2265,0.1275,-0.6737,-0.1711,-0.1047,169
0,-0.7643,-0.2612,0.1296,-0.6606,-0.1646,-0.1068,169
0,-0.7693,-0.252,0.1398,-0.5799,-0.1515,-0.0992,169
0,-0.7714,-0.2653,0.1234,-0.5799,-0.1515,-0.0992,169
0,-0.7714,-0.2653,0.1234,-0.5538,-0.1581,-0.0883,169
0,-0.8193,-0.2847,0.1357,-0.5614,-0.1482,-0.0904,169
0,-0.8193,-0.2847,0.1357,-0.5374,-0.1526,-0.098,169
0,-0.7826,-0.2724,0.1306,-0.4655,-0.1428,-0.0925,169
0,-0.8081,-0.2571,0.1357,-0.4361,-0.1526,-0.0872,169
0,-0.7969,-0.2388,0.1337,-0.4175,-0.1384,-0.0828,169
0,-0.8286,-0.2214,0.1377,-0.4044,-0.1373,-0.0698,169
0,-0.8081,-0.2245,0.1337,-0.3979,-0.1286,-0.0523,169
0,-0.8367,-0.2245,0.1265,-0.4065,-0.1286,-0.0414,169
0,-0.8469,-0.2133,0.1255,-0.3958,-0.1198,-0.0294,169
0,-0.8663,-0.2122,0.1337,-0.3958,-0.1198,-0.0294,169
0,-0.8663,-0.2122,0.1337,-0.3848,-0.1209,-0.0162,169
0,-0.8653,-0.2275,0.1255,-0.3903,-0.1198,0.0,169
0,-0.8898,-0.2438,0.1265,-0.4088,-0.1167,0.0043,169
0,-0.9132,-0.2836,0.1214,-0.4143,-0.1198,0.0162,169
0,-0.9203,-0.299,0.1122,-0.4023,-0.1242,0.0349,169
0,-0.9306,-0.3204,0.0979,-0.3935,-0.1274,0.0479,169
0,-0.9438,-0.3398,0.0908,-0.3815,-0.1264,0.0708,169
0,-0.951,-0.3643,0.1082,-0.3619,-0.1308,0.0969,169
0,-0.9347,-0.3683,0.105,-0.3281,-0.1329,0.1274,169
0,-0.9265,-0.3683,0.103,-0.3281,-0.1329,0.1274,169
0,-0.9265,-0.3683,0.103,-0.2998,-0.1329,0.1635,169
0,-0.9244,-0.3673,0.105,-0.2703,-0.1209,0.1984,169
0,-0.9571,-0.4071,0.0867,-0.2583,-0.1144,0.2289,169
0,-0.9704,-0.3949,0.0847,-0.2442,-0.0915,0.2714,169
0,-0.9816,-0.3673,0.0939,-0.1842,-0.0839,0.3161,169
0,-0.9928,-0.3673,0.0908,-0.1537,-0.0751,0.3575,169
0,-1.0479,-0.4153,0.0786,-0.1667,-0.0664,0.3903,169
0,-1.0755,-0.3969,0.0857,-0.1428,-0.0621,0.4208,169
0,-1.0826,-0.3591,0.0979,-0.0664,-0.0643,0.4578,169
0,-1.0989,-0.3255,0.1306,-0.0206,-0.0698,0.4862,169
0,-1.1551,-0.3347,0.2265,-0.0206,-0.0698,0.4862,169
0,-1.1551,-0.3347,0.2265,-0.0206,-0.0686,0.5015,169
0,-1.2101,-0.3489,0.2581,-0.0425,-0.0545,0.507,169
0,-1.2755,-0.3367,0.2765,-0.0097,-0.0282,0.5265,169
0,-1.3163,-0.3296,0.3255,0.0719,-0.0097,0.581,169
0,-1.449,-0.3214,0.3632,0.1264,0.024,0.5799,169
0,-1.5204,-0.2867,0.3408,0.1776,0.0621,0.5952,169
0,-1.5306,-0.2377,0.2938,0.2093,0.073,0.6051,169
0,-1.5153,-0.2438,0.2,0.1581,0.049,0.5778,169
0,-1.4816,-0.2551,0.1765,0.1089,0.0326,0.5549,169
0,-1.4275,-0.2418,0.1673,0.1089,0.0326,0.5549,169
0,-1.353,-0.1908,0.1837,0.1286,-0.0108,0.5429,169
0,-1.353,-0.1908,0.1837,0.2321,-0.0708,0.5374,169
0,-1.1694,-0.103,0.2397,0.3336,-0.1406,0.5124,169
0,-1.0684,-0.0806,0.3143,0.3434,-0.2321,0.4458,169
0,-0.9653,-0.0479,0.3316,0.3586,-0.2354,0.4317,169
0,-0.8643,0.0204,0.3949,0.4414,-0.2453,0.4338,169
0,-0.7979,0.0459,0.3877,0.5287,-0.2213,0.4655,169
0,-0.7224,0.0316,0.4102,0.5353,-0.1646,0.4338,169
0,-0.7163,0.0408,0.4306,0.5287,-0.0795,0.3685,169
0,-0.6479,0.0612,0.4408,0.557,-0.0631,0.3685,169
0,-0.7,0.0153,0.4265,0.5364,0.024,0.3619,169
0,-0.6673,0.0459,0.4244,0.5364,0.024,0.3619,169
0,-0.6673,0.0459,0.4244,0.532,0.0959,0.3729,169
0,-0.7092,0.0449,0.3683,0.4731,0.1274,0.3771,169
0,-0.7765,0.0112,0.2775,0.3456,0.1831,0.3815,169
0,-0.8143,-0.0092,0.2408,0.1907,0.2213,0.3761,169
1,-0.8204,0.0295,0.2285,0.1831,0.2256,0.3891,169
1,-0.8428,0.0622,0.2275,0.2169,0.218,0.4044,169
1,-0.8377,0.052,0.1867,0.1831,0.2169,0.4,169
1,-0.8439,0.0684,0.1735,0.1515,0.218,0.3891,169
1,-0.8245,0.1,0.1703,0.181,0.2093,0.3838,169
1,-0.8224,0.1194,0.1765,0.181,0.2093,0.3838,169
1,-0.8224,0.1194,0.1765,0.1732,0.2049,0.3771,169
1,-0.8173,0.1,0.1663,0.1329,0.2039,0.3663,169
1,-0.8173,0.1102,0.1744,0.1144,0.2027,0.3542,169
1,-0.8286,0.1306,0.1724,0.1341,0.2016,0.3477,169
1,-0.8622,0.1143,0.15,0.1188,0.2071,0.3336,169
1,-0.8806,0.1122,0.1418,0.0839,0.2005,0.3151,169
1,-0.8816,0.1214,0.1418,0.0839,0.1842,0.2987,169
1,-0.8887,0.1316,0.1469,0.0904,0.1526,0.2834,169
1,-0.8877,0.1102,0.1234,0.0621,0.1232,0.2617,169
1,-0.8837,0.1122,0.1234,0.0402,0.0937,0.2398,169
1,-0.8765,0.1194,0.1255,0.0402,0.0937,0.2398,169
1,-0.8765,0.1194,0.1255,0.0501,0.0555,0.2213,169
1,-0.8816,0.1194,0.1255,0.0501,0.0272,0.2071,169
1,-0.8816,0.103,0.103,0.0294,0.0043,0.194,169
1,-0.8724,0.1194,0.102,0.0381,-0.0228,0.1842,169
1,-0.8714,0.1398,0.1102,0.0523,-0.0479,0.1766,169
1,-0.8663,0.1428,0.1102,0.0381,-0.073,0.1646,169
1,-0.8591,0.1551,0.1194,0.0162,-0.0937,0.1515,169
1,-0.8622,0.1622,0.1183,0.0141,-0.1047,0.1482,169
1,-0.8765,0.1592,0.1153,-0.0097,-0.1188,0.1373,169
1,-0.8816,0.1428,0.105,-0.0097,-0.1188,0.1373,169
1,-0.9092,0.1479,0.1,-0.0446,-0.1286,0.1286,169
1,-0.9092,0.1479,0.1,-0.0577,-0.1318,0.1155,169
1,-0.9265,0.1612,0.101,-0.0545,-0.1417,0.1047,169
1,-0.9306,0.1642,0.0959,-0.0664,-0.1581,0.0894,169
1,-0.9337,0.1703,0.0867,-0.0839,-0.1776,0.0675,169
1,-0.9377,0.1806,0.105,-0.0915,-0.193,0.0414,169
1,-0.9377,0.1806,0.1122,-0.1112,-0.2093,0.0131,169
1,-0.9285,0.1755,0.1143,-0.1308,-0.2224,-0.0152,169
1,-0.9265,0.1796,0.1214,-0.1417,-0.2333,-0.0425,169
1,-0.9071,0.1714,0.1306,-0.1417,-0.2333,-0.0425,169
1,-0.9,0.1592,0.1326,-0.1537,-0.2354,-0.0698,169
1,-0.9,0.1592,0.1326,-0.1732,-0.2354,-0.098,169
1,-0.902,0.1561,0.1449,-0.1852,-0.231,-0.1264,169
1,-0.902,0.15,0.1418,-0.1951,-0.2213,-0.1581,169
1,-0.9265,0.151,0.1245,-0.2027,-0.2005,-0.181,169
1,-0.9418,0.151,0.1275,-0.2049,-0.1787,-0.2081,169
1,-0.95,0.1571,0.1326,-0.2049,-0.1591,-0.231,169
1,-0.9734,0.1918,0.1428,-0.2016,-0.1428,-0.255,169
1,-0.9806,0.2255,0.1581,-0.2016,-0.1428,-0.255,169
1,-0.9938,0.2459,0.1735,-0.1907,-0.1286,-0.2779,169
1,-1.001,0.2377,0.1735,-0.1907,-0.1198,-0.3063,169
1,-1.001,0.2377,0.1735,-0.2234,-0.1057,-0.3456,169
1,-1.051,0.1765,0.2806,-0.2594,-0.0904,-0.3903,169
1,-1.102,0.1428,0.3439,-0.2812,-0.0708,-0.4252,169
1,-1.1979,0.0857,0.3785,-0.2987,-0.037,-0.4404,169
1,-1.2938,0.0092,0.3541,-0.339,0.0174,-0.4404,169
1,-1.4347,-0.1041,0.2602,-0.3357,0.0545,-0.4219,169
1,-1.4653,-0.1367,0.2408,-0.2998,0.0872,-0.3924,169
1,-1.4775,-0.1275,0.2531,-0.2398,0.0774,-0.3609,169
1,-1.4337,-0.1245,0.2673,-0.2398,0.0774,-0.3609,169
1,-1.4337,-0.1245,0.2673,-0.1798,0.0479,-0.3412,169
1,-1.3857,0.0438,0.3071,-0.1341,0.0534,-0.3477,169
1,-1.3857,0.0438,0.3071,-0.049,0.0501,-0.3542,169
1,-1.3398,0.1112,0.3163,-0.0087,0.0686,-0.3695,169
1,-1.3755,0.1245,0.302,-0.0784,0.1035,-0.4012,169
1,-1.3571,0.1541,0.2704,-0.1417,0.1133,-0.4263,169
1,-1.351,0.1653,0.2622,-0.1798,0.0948,-0.4448,169
1,-1.2877,0.1367,0.251,-0.2812,0.0446,-0.4622,169
1,-1.2459,0.0684,0.2459,-0.4077,-0.0087,-0.483,169
1,-1.0643,-0.0632,0.2571,-0.4862,-0.0828,-0.483,169
1,-0.9928,-0.0745,0.3275,-0.4862,-0.0828,-0.483,169
1,-0.9928,-0.0745,0.3275,-0.4807,-0.1242,-0.4753,169
1,-0.8643,-0.1204,0.3734,-0.4731,-0.1602,-0.4568,169
1,-0.8234,-0.1816,0.3959,-0.5299,-0.1396,-0.4448,169
1,-0.6806,-0.2857,0.401,-0.556,-0.1057,-0.4295,169
1,-0.7163,-0.3184,0.351,-0.5353,-0.0621,-0.3968,169
1,-0.6959,-0.3061,0.3459,-0.4219,0.036,-0.3477,169
1,-0.6744,-0.2316,0.3428,-0.3346,0.0698,-0.2998,169
1,-0.6632,-0.2622,0.303,-0.3761,0.1112,-0.2725,169
1,-0.7051,-0.3224,0.2663,-0.4328,0.1623,-0.231,169
1,-0.7183,-0.3214,0.2643,-0.4328,0.1623,-0.231,169
1,-0.7183,-0.3214,0.2643,-0.3521,0.2016,-0.1886,169
1,-0.8173,-0.2663,0.2071,-0.2365,0.2409,-0.1471,169
1,-0.8683,-0.2561,0.1703,-0.2027,0.2714,-0.1297,169
1,-0.8857,-0.2479,0.1275,-0.1678,0.2747,-0.0925,169
1,-0.9092,-0.1765,0.1387,-0.0894,0.2605,-0.0708,169
1,-0.8816,-0.0959,0.1275,-0.0534,0.2365,-0.0643,169
1,-0.855,-0.0775,0.0979,-0.0795,0.2104,-0.0664,169
1,-0.8357,-0.0479,0.0908,-0.0925,0.1896,-0.0751,169
1,-0.8245,-0.0081,0.1061,-0.0948,0.1787,-0.0795,169
1,-0.8245,-0.0347,0.1041,-0.0948,0.1787,-0.0795,169
1,-0.8143,-0.0591,0.0989,-0.1493,0.1711,-0.0872,169
1,-0.8143,-0.0591,0.0989,-0.2147,0.1711,-0.0925,169
1,-0.8204,-0.0571,0.1,-0.2234,0.1547,-0.0883,169
1,-0.8275,-0.0326,0.1194,-0.2081,0.1384,-0.0784,169
1,-0.8398,-0.0939,0.105,-0.2649,0.1274,-0.0828,169
1,-0.8439,-0.1163,0.0948,-0.3063,0.1144,-0.0883,169
1,-0.853,-0.0898,0.1102,-0.2518,0.1013,-0.0883,169
1,-0.8582,-0.0602,0.1285,-0.231,0.0883,-0.0883,169
1,-0.8673,-0.1275,0.0948,-0.2932,0.0784,-0.1003,169
1,-0.8734,-0.1082,0.1041,-0.2583,0.0392,-0.1068,169
1,-0.8673,-0.1071,0.1082,-0.2768,0.0196,-0.1177,169
1,-0.8796,-0.1877,0.0591,-0.2768,0.0196,-0.1177,169
1,-0.8796,-0.1877,0.0591,-0.3183,0.0065,-0.1384,169
1,-0.8755,-0.1663,0.053,-0.2605,-0.0108,-0.1449,169
1,-0.8918,-0.1245,0.0622,-0.182,-0.0228,-0.1503,169
1,-0.8877,-0.1255,0.0541,-0.1984,-0.0381,-0.1602,169
1,-0.9,-0.1796,0.0449,-0.2213,-0.0555,-0.1678,169
1,-0.9051,-0.1775,0.052,-0.1886,-0.0784,-0.169,169
1,-0.9081,-0.1673,0.0622,-0.1526,-0.0904,-0.1646,169
1,-0.9173,-0.2061,0.0357,-0.1581,-0.1079,-0.1635,169
1,-0.9214,-0.2265,0.0377,-0.1537,-0.1232,-0.1635,169
2,-0.9449,-0.2234,0.0612,-0.1133,-0.1318,-0.1558,169
2,-0.9449,-0.2234,0.0612,-0.1133,-0.1318,-0.1558,169
2,-0.9469,-0.2245,0.0847,-0.0774,-0.1428,-0.1461,169
2,-0.9683,-0.202,0.0898,-0.061,-0.1471,-0.1274,169
2,-0.9816,-0.1775,0.0918,-0.0392,-0.1602,-0.1057,169
2,-0.999,-0.1581,0.0948,-0.0414,-0.1613,-0.085,169
2,-1.0153,-0.1714,0.0775,-0.0774,-0.1613,-0.074,169
2,-1.0316,-0.203,0.0643,-0.098,-0.1657,-0.061,169
2,-1.0336,-0.2163,0.0693,-0.0925,-0.1732,-0.0469,169
2,-1.0367,-0.2469,0.0673,-0.1013,-0.1831,-0.0349,169
2,-1.0295,-0.2928,0.053,-0.1089,-0.1972,-0.0206,169
2,-1.0092,-0.3418,0.0724,-0.1089,-0.1972,-0.0206,169
2,-1.0092,-0.3418,0.0724,-0.0719,-0.2104,-0.0011,169
2,-0.999,-0.3377,0.0908,-0.0108,-0.2115,0.0316,169
2,-0.9806,-0.3428,0.0948,0.0261,-0.2093,0.0631,169
2,-0.9694,-0.3622,0.0887,0.0435,-0.1972,0.0969,169
2,-0.9653,-0.3765,0.1041,0.0784,-0.1831,0.1406,169
2,-0.9847,-0.3816,0.1112,0.1188,-0.1558,0.182,169
2,-1.0051,-0.3877,0.0939,0.1493,-0.1308,0.2234,169
2,-1.0173,-0.3704,0.1214,0.2049,-0.1047,0.255,169
2,-1.1469,-0.3602,0.2561,0.242,-0.0719,0.2856,169
2,-1.249,-0.3714,0.2938,0.242,-0.0719,0.2856,169
2,-1.3469,-0.3418,0.3193,0.2485,-0.0337,0.3052,169
2,-1.3469,-0.3418,0.3193,0.2834,0.012,0.3151,169
2,-1.4255,-0.2857,0.3265,0.3445,0.024,0.3281,169
2,-1.5479,-0.1755,0.3051,0.3771,0.0162,0.3401,169
2,-1.5602,-0.1316,0.2806,0.3903,-0.0076,0.3554,169
2,-1.5459,-0.1214,0.2388,0.3663,-0.0589,0.3685,169
2,-1.5316,-0.1265,0.2101,0.3314,-0.0948,0.3619,169
2,-1.4203,-0.1541,0.1979,0.3357,-0.1396,0.3542,169
2,-1.3591,-0.1489,0.1918,0.3706,-0.1852,0.3271,169
2,-1.2908,-0.1561,0.1928,0.3706,-0.1852,0.3271,169
2,-1.1449,-0.1918,0.2408,0.3891,-0.2354,0.2943,169
2,-1.1449,-0.1918,0.2408,0.3914,-0.2779,0.2649,169
2,-1.0684,-0.1796,0.3081,0.4361,-0.3172,0.2474,169
2,-0.9938,-0.1439,0.3622,0.5047,-0.3466,0.2485,169
2,-0.9041,-0.0816,0.4081,0.5604,-0.3532,0.2594,169
2,-0.7745,-0.0092,0.4704,0.5734,-0.3161,0.2605,169
2,-0.7081,0.0102,0.4694,0.5669,-0.2682,0.2659,169
2,-0.6673,0.0438,0.4867,0.5919,-0.1951,0.2725,169
2,-0.6357,0.05,0.4642,0.5887,-0.1057,0.2725,169
2,-0.6663,0.0541,0.4183,0.5887,-0.1057,0.2725,169
2,-0.6459,0.0418,0.401,0.5767,-0.0011,0.2583,168
2,-0.6663,0.0571,0.4081,0.5353,0.0337,0.2649,168
2,-0.6663,0.0571,0.4081,0.4568,0.0795,0.2617,168
2,-0.6703,0.0193,0.3694,0.3891,0.1232,0.2649,168
2,-0.6938,0.0275,0.3296,0.3968,0.1646,0.2714,168
2,-0.7183,0.05,0.3255,0.4208,0.1995,0.2747,168
2,-0.7296,0.0204,0.2857,0.3597,0.2388,0.267,168
2,-0.7459,-0.0102,0.2612,0.3357,0.2703,0.2649,168
2,-0.7683,0.0193,0.2632,0.3739,0.2823,0.2758,168
2,-0.7847,0.0193,0.2612,0.3739,0.2823,0.2758,168
2,-0.7898,0.0061,0.2397,0.3729,0.3019,0.2802,168
2,-0.8041,0.0265,0.2133,0.3575,0.3205,0.2802,168
2,-0.8041,0.0265,0.2133,0.3924,0.326,0.2878,168
2,-0.8143,0.101,0.2214,0.4273,0.3336,0.2954,168
2,-0.8245,0.0989,0.2122,0.3924,0.3489,0.2943,168
2,-0.8439,0.0948,0.2,0.3641,0.3575,0.2878,168
2,-0.852,0.1122,0.1898,0.3717,0.3663,0.2802,168
2,-0.8816,0.1183,0.1642,0.3466,0.363,0.2649,168
2,-0.8969,0.0959,0.1428,0.3019,0.35,0.242,168
2,-0.8908,0.0898,0.1387,0.2976,0.3271,0.2213,168
2,-0.8949,0.0928,0.1285,0.2976,0.3271,0.2213,168
2,-0.8949,0.0928,0.1285,0.3052,0.3085,0.206,168
2,-0.8898,0.0857,0.1153,0.2954,0.2768,0.1896,168
2,-0.8653,0.0714,0.103,0.2867,0.2518,0.1766,168
2,-0.852,0.0714,0.1163,0.2932,0.2245,0.1623,168
2,-0.9,0.0561,0.1091,0.2834,0.2169,0.1581,168
2,-0.9326,0.1082,0.1082,0.3128,0.1995,0.1558,168
2,-0.9224,0.1571,0.1214,0.3466,0.169,0.1657,168
2,-0.9122,0.1449,0.1163,0.2834,0.1384,0.157,168
2,-0.9122,0.0857,0.0836,0.2213,0.1188,0.1362,168
2,-0.9387,0.1357,0.103,0.2213,0.1188,0.1362,168
2,-0.9387,0.1357,0.103,0.2693,0.1003,0.1297,168
2,-0.95,0.1898,0.1163,0.2954,0.0654,0.1209,168
2,-0.9633,0.1714,0.0979,0.206,0.0425,0.1024,168
2,-0.9408,0.1367,0.0612,0.1602,0.0131,0.0959,168
2,-0.9244,0.1847,0.0836,0.2039,-0.0294,0.1024,168
2,-0.9142,0.1877,0.0959,0.1711,-0.0599,0.0915,168
2,-0.9132,0.1541,0.0826,0.086,-0.0818,0.0751,168
2,-0.9112,0.1653,0.0908,0.0959,-0.1035,0.0719,168
2,-0.9061,0.2101,0.1061,0.1297,-0.1112,0.0686,168
2,-0.8959,0.1979,0.1112,0.1297,-0.1112,0.0686,168
2,-0.9102,0.1459,0.0898,0.0621,-0.1198,0.049,168
2,-0.9102,0.1459,0.0898,-0.0076,-0.1167,0.0282,168
2,-0.9357,0.1703,0.1082,0.024,-0.1242,0.0174,168
2,-0.9561,0.1908,0.1234,0.0217,-0.1209,0.0108,168
2,-0.95,0.1469,0.0918,-0.0479,-0.1242,-0.0032,168
2,-0.9704,0.1173,0.0806,-0.0675,-0.1264,-0.0196,168
2,-0.9908,0.1418,0.0826,-0.0272,-0.1373,-0.0217,168
2,-0.9969,0.1346,0.0775,-0.0316,-0.1428,-0.0414,168
2,-1.0122,0.1082,0.0693,-0.0686,-0.1526,-0.0654,168
2,-1.0193,0.1459,0.0898,-0.0261,-0.1613,-0.085,168
2,-1.0286,0.1877,0.1041,-0.0261,-0.1613,-0.085,168
2,-1.0367,0.1979,0.1061,0.0185,-0.1722,-0.1057,168
2,-1.0367,0.1979,0.1061,-0.0196,-0.1776,-0.1428,168
2,-1.051,0.1928,0.0989,-0.0534,-0.1831,-0.1787,168
2,-1.049,0.2531,0.1428,-0.0511,-0.194,-0.2147,168
2,-1.0612,0.2133,0.1673,-0.1623,-0.1962,-0.2998,168
2,-1.0612,0.2133,0.1673,-0.182,-0.1852,-0.3357,168
2,-1.052,0.2173,0.1887,-0.1744,-0.1766,-0.3695,168
2,-1.0571,0.1837,0.2673,-0.2039,-0.1537,-0.3946,168
2,-1.1245,0.1265,0.3152,-0.2245,-0.1123,-0.3979,168
2,-1.2101,0.1091,0.3867,-0.2027,-0.0795,-0.375,168
2,-1.3837,0.049,0.3306,-0.2224,-0.0326,-0.3434,168
2,-1.4285,-0.0173,0.2479,-0.2899,-0.0043,-0.3172,168
2,-1.5051,-0.0734,0.1949,-0.2954,0.0141,-0.2998,168
2,-1.4969,-0.049,0.2051,-0.2954,0.0141,-0.2998,168
2,-1.4061,0.0183,0.2877,-0.2027,-0.0305,-0.2812,168
2,-1.4061,0.0183,0.2877,-0.1787,-0.0589,-0.2878,168
2,-1.3408,0.0255,0.3041,-0.2016,-0.0621,-0.3128,168
3,-1.3163,0.0561,0.3102,-0.1722,-0.0589,-0.339,168
3,-1.2653,0.1285,0.3224,-0.1842,-0.0621,-0.3761,168
3,-1.2693,0.1194,0.2928,-0.2737,-0.0162,-0.4164,168
3,-1.2101,0.1204,0.2704,-0.3073,-0.0282,-0.4426,168
3,-1.1928,0.1377,0.299,-0.3532,-0.0349,-0.4622,168
3,-1.1163,0.0826,0.3091,-0.4841,-0.0643,-0.4786,168
3,-1.0286,-0.0745,0.3193,-0.4841,-0.0643,-0.4786,168
3,-0.9673,-0.1091,0.3479,-0.5505,-0.0894,-0.4862,168
3,-0.9673,-0.1091,0.3479,-0.5091,-0.1167,-0.4721,168
3,-0.9244,-0.1255,0.3928,-0.5145,-0.1198,-0.4568,168
3,-0.8448,-0.1735,0.3908,-0.5669,-0.1057,-0.4414,168
3,-0.7806,-0.2531,0.355,-0.5418,-0.0545,-0.4088,168
3,-0.7081,-0.2581,0.3541,-0.4448,-0.0131,-0.3641,168
3,-0.703,-0.2316,0.3582,-0.4088,0.0294,-0.3357,168
3,-0.6663,-0.3112,0.3071,-0.4568,0.0795,-0.3161,168
3,-0.6775,-0.3265,0.3163,-0.4229,0.1308,-0.2693,168
3,-0.6969,-0.3061,0.3214,-0.4229,0.1308,-0.2693,168
3,-0.6969,-0.3061,0.3214,-0.3227,0.1798,-0.2234,168
3,-0.8,-0.3132,0.252,-0.2834,0.2256,-0.1886,168
3,-0.8,-0.3132,0.252,-0.2649,0.2714,-0.1537,168
3,-0.8245,-0.2622,0.2357,-0.1623,0.3052,-0.1253,168
3,-0.8439,-0.2101,0.2051,-0.0795,0.3161,-0.1035,168
3,-0.8571,-0.1796,0.1857,-0.0784,0.3172,-0.0992,168
3,-0.8357,-0.1367,0.1581,-0.0763,0.2987,-0.1047,168
3,-0.8132,-0.1041,0.1663,-0.0589,0.2867,-0.1089,168
3,-0.7755,-0.0765,0.1735,-0.0654,0.2703,-0.1167,168
3,-0.7377,-0.0755,0.1714,-0.1013,0.2791,-0.1297,168
3,-0.7377,-0.0755,0.1714,-0.1013,0.2791,-0.1297,168
3,-0.7061,-0.0755,0.1744,-0.1318,0.2922,-0.1341,168
3,-0.7408,-0.0724,0.1847,-0.1547,0.3183,-0.1329,168
3,-0.7428,-0.0959,0.1744,-0.181,0.338,-0.1308,168
3,-0.7653,-0.1122,0.1561,-0.1864,0.3597,-0.1274,168
3,-0.7704,-0.1173,0.1346,-0.181,0.3641,-0.1167,168
3,-0.7765,-0.1285,0.1316,-0.1907,0.375,-0.11,168
3,-0.7775,-0.1571,0.1234,-0.2049,0.3695,-0.1112,168
3,-0.8,-0.1785,0.1163,-0.1864,0.3685,-0.1089,168
3,-0.8377,-0.1653,0.1163,-0.1449,0.363,-0.1013,168
3,-0.8663,-0.1561,0.1163,-0.1449,0.363,-0.1013,168
3,-0.8663,-0.1561,0.1163,-0.1308,0.3575,-0.0937,168
3,-0.8673,-0.1735,0.0948,-0.1352,0.3368,-0.0904,168
3,-0.8663,-0.1735,0.0857,-0.1123,0.3151,-0.0872,168
3,-0.8969,-0.1326,0.0959,-0.0806,0.2932,-0.0872,168
3,-0.8908,-0.1408,0.0969,-0.086,0.2725,-0.098,168
3,-0.9265,-0.1479,0.0928,-0.0959,0.2638,-0.11,168
3,-0.9337,-0.153,0.0734,-0.0675,0.231,-0.1144,168
3,-0.9775,-0.1122,0.0581,-0.0523,0.218,-0.1155,168
3,-0.9642,-0.1326,0.05,-0.0904,0.1852,-0.1297,168
3,-0.9836,-0.1642,0.0561,-0.0904,0.1852,-0.1297,168
3,-0.9622,-0.1735,0.0775,-0.1112,0.1646,-0.1362,168
3,-0.9622,-0.1735,0.0775,-0.074,0.1341,-0.1373,168
3,-0.9734,-0.1612,0.0786,-0.0469,0.1144,-0.1352,168
3,-0.9642,-0.1857,0.0571,-0.073,0.1003,-0.1428,168
3,-0.9816,-0.2112,0.0255,-0.073,0.086,-0.1406,168
3,-0.9949,-0.2,0.0286,-0.025,0.0621,-0.1286,168
3,-1.002,-0.199,0.0326,-0.0053,0.0511,-0.1177,168
3,-1.0051,-0.2142,0.0265,-0.0141,0.036,-0.1167,168
3,-1.0163,-0.2204,0.0224,0.0131,0.0108,-0.1047,168
3,-1.0275,-0.1826,0.0357,0.0131,0.0108,-0.1047,168
3,-1.0245,-0.1979,0.0367,0.0425,-0.0032,-0.098,168
3,-1.0245,-0.1979,0.0367,0.0217,-0.0162,-0.098,168
3,-1.0336,-0.2173,0.0326,0.0141,-0.0272,-0.0894,168
3,-1.0295,-0.2224,0.0286,0.0457,-0.0381,-0.0784,168
3,-1.0418,-0.1979,0.0122,0.0686,-0.0457,-0.0664,168
3,-1.0418,-0.1969,0.0,0.0654,-0.0631,-0.0523,168
3,-1.0469,-0.203,-0.0132,0.0686,-0.0751,-0.0392,168
3,-1.0398,-0.1918,-0.0102,0.0948,-0.0937,-0.0162,168
3,-1.0367,-0.1703,0.0112,0.0925,-0.1167,-0.0032,168
3,-1.0265,-0.1867,0.0132,0.0763,-0.1352,0.0053,168
3,-1.0234,-0.1969,0.0122,0.0763,-0.1352,0.0053,168
3,-1.0122,-0.1979,0.0143,0.0828,-0.1515,0.0131,168
3,-1.0122,-0.1979,0.0143,0.0992,-0.1722,0.0228,168
3,-0.9857,-0.2234,0.0081,0.098,-0.1852,0.0294,168
3,-0.949,-0.2428,0.002,0.1155,-0.2016,0.0435,168
3,-0.954,-0.2357,0.0102,0.1678,-0.2039,0.0686,168
3,-0.9561,-0.2133,0.0224,0.1842,-0.2104,0.0839,168
3,-0.9479,-0.2449,0.0112,0.1657,-0.2081,0.0959,168
3,-0.9398,-0.2724,0.004,0.1776,-0.2136,0.1057,168
3,-0.9398,-0.2632,0.0071,0.1776,-0.2136,0.1057,168
3,-0.9653,-0.2397,0.0428,0.2354,-0.2289,0.1297,168
3,-0.9785,-0.2643,0.0469,0.267,-0.2344,0.1503,168
3,-0.9785,-0.2643,0.0469,0.2605,-0.2409,0.1657,168
3,-1.0031,-0.2908,0.0571,0.267,-0.2376,0.1831,168
3,-1.0224,-0.2979,0.0591,0.314,-0.2398,0.2039,168
3,-1.0541,-0.2795,0.0438,0.35,-0.2485,0.231,168
3,-1.0581,-0.2704,0.0449,0.3717,-0.2562,0.255,168
3,-1.0643,-0.2581,0.0775,0.399,-0.2529,0.2791,168
3,-1.0867,-0.2285,0.1214,0.4219,-0.243,0.2987,168
3,-1.1561,-0.1653,0.1877,0.4175,-0.2278,0.3183,168
3,-1.1561,-0.1653,0.1877,0.4175,-0.2278,0.3183,168
3,-1.1959,-0.1387,0.1857,0.399,-0.2125,0.3336,168
3,-1.2194,-0.1132,0.1826,0.3935,-0.193,0.3521,168
3,-1.2653,-0.0673,0.1918,0.3979,-0.1896,0.3641,168
3,-1.3132,-0.0183,0.2336,0.3771,-0.193,0.3771,168
3,-1.3316,-0.0193,0.2408,0.3237,-0.1896,0.3771,168
3,-1.3377,-0.0367,0.2347,0.2791,-0.1875,0.3783,168
3,-1.3643,-0.052,0.2336,0.2464,-0.1732,0.375,168
3,-1.4061,-0.1234,0.2245,0.2049,-0.1701,0.3663,168
3,-1.4296,-0.2071,0.1928,0.1787,-0.1886,0.3477,168
3,-1.4102,-0.2173,0.1949,0.2485,-0.2213,0.3445,168
3,-1.3245,-0.1867,0.204,0.3346,-0.2573,0.3466,168
3,-1.2632,-0.1418,0.2255,0.3346,-0.2573,0.3466,168
3,-1.199,-0.101,0.2551,0.4044,-0.2844,0.3314,168
3,-1.199,-0.101,0.2551,0.4307,-0.3117,0.3183,168
3,-1.105,-0.0796,0.2847,0.4273,-0.3302,0.3096,168
3,-0.953,-0.0755,0.3357,0.4361,-0.3346,0.3019,168
3,-0.8785,-0.0388,0.3806,0.4807,-0.3183,0.2998,168
3,-0.8184,-0.0153,0.3959,0.5026,-0.2812,0.3041,168
3,-0.7795,0.0031,0.3989,0.5004,-0.2245,0.314,168
3,-0.7183,0.0275,0.3969,0.4797,-0.157,0.3117,168
4,-0.6918,0.0418,0.3714,0.4611,-0.0948,0.3172,168
4,-0.6837,0.0591,0.353,0.4382,-0.0349,0.3161,168
4,-0.6744,0.0836,0.3428,0.4382,-0.0349,0.3161,168
4,-0.6877,0.0928,0.3591,0.4208,0.0141,0.3052,168
4,-0.6877,0.0928,0.3591,0.3815,0.0643,0.2899,168
4,-0.7051,0.0898,0.3571,0.3434,0.1057,0.2737,168
4,-0.7306,0.1041,0.3448,0.314,0.1482,0.2594,168
4,-0.7643,0.0969,0.2928,0.2802,0.1852,0.2474,168
4,-0.7786,0.0847,0.2724,0.2539,0.2093,0.2354,168
4,-0.7888,0.0928,0.2683,0.2573,0.2278,0.2365,168
4,-0.8041,0.102,0.2581,0.2495,0.2442,0.2388,168
4,-0.8193,0.0836,0.2245,0.2495,0.2442,0.2388,168
4,-0.8112,0.0734,0.2101,0.2245,0.2594,0.242,168
4,-0.8143,0.0775,0.2071,0.2201,0.2638,0.255,168
4,-0.8143,0.0775,0.2071,0.2278,0.2627,0.2638,168
4,-0.803,0.0806,0.201,0.2224,0.2638,0.2649,168
4,-0.7908,0.0734,0.1785,0.2081,0.267,0.2573,168
4,-0.7908,0.0663,0.1642,0.2027,0.2638,0.2539,168
4,-0.7928,0.0673,0.1683,0.193,0.2617,0.2507,168
4,-0.8,0.051,0.1581,0.1787,0.2594,0.242,168
4,-0.8184,0.0245,0.1285,0.1919,0.2507,0.2409,168
4,-0.8255,0.0459,0.1245,0.2278,0.2344,0.242,168
4,-0.8265,0.0663,0.1275,0.2278,0.2344,0.242,168
4,-0.8265,0.0663,0.1275,0.2344,0.218,0.2398,168
4,-0.8336,0.0734,0.1326,0.2147,0.2093,0.2344,168
4,-0.8418,0.0755,0.1306,0.2201,0.1907,0.2333,168
4,-0.855,0.0989,0.1326,0.2354,0.169,0.2354,168
4,-0.8622,0.1214,0.1346,0.2191,0.1526,0.2333,168
4,-0.8683,0.1265,0.1449,0.1766,0.1373,0.2321,168
4,-0.8837,0.1102,0.1346,0.1657,0.1264,0.231,168
4,-0.8949,0.1387,0.1377,0.1842,0.1024,0.2354,168
4,-0.901,0.1653,0.1387,0.1602,0.0883,0.2289,168
4,-0.9296,0.1541,0.1275,0.1602,0.0883,0.2289,168
4,-0.9296,0.1541,0.1275,0.1177,0.073,0.2289,168
4,-0.949,0.1653,0.1306,0.1079,0.0511,0.2289,168
4,-0.9561,0.1796,0.1357,0.0883,0.0217,0.2256,168
4,-0.9642,0.1714,0.1316,0.049,0.0,0.2191,168
4,-0.9673,0.1449,0.1194,0.0206,-0.0337,0.2125,168
4,-0.9673,0.1408,0.1143,0.0131,-0.061,0.2071,168
4,-0.9581,0.1367,0.1122,0.0087,-0.0795,0.1995,168
4,-0.9592,0.1306,0.1122,0.0087,-0.0795,0.1995,168
4,-0.9694,0.1173,0.1163,0.0065,-0.0904,0.1919,168
4,-0.9755,0.1224,0.1234,0.0065,-0.0904,0.1919,167
4,-0.9867,0.1428,0.1255,0.0228,-0.1047,0.1766,167
4,-0.9867,0.1428,0.1255,0.0228,-0.1047,0.1766,167
4,-1.002,0.1724,0.1275,0.0381,-0.1155,0.1503,167
4,-1.0173,0.2092,0.1224,0.0381,-0.1155,0.1503,167
4,-1.0204,0.2224,0.1153,0.0217,-0.1188,0.1274,167
4,-1.0336,0.2428,0.1153,0.0032,-0.1396,0.098,167
4,-1.0245,0.2531,0.1122,-0.0174,-0.1547,0.0751,167
4,-0.9918,0.2245,0.0908,-0.11,-0.1798,0.0326,167
4,-1.0295,0.2367,0.0775,-0.11,-0.1798,0.0326,167
4,-1.0081,0.2643,0.0796,-0.1133,-0.194,0.0141,167
4,-1.002,0.2745,0.0877,-0.1133,-0.194,0.0141,167
4,-0.9704,0.251,0.0765,-0.1274,-0.2159,-0.0021,167
4,-0.9704,0.251,0.0765,-0.193,-0.218,-0.0534,167
4,-0.9642,0.2449,0.1143,-0.2159,-0.231,-0.1013,167
4,-0.949,0.2326,0.1285,-0.193,-0.2344,-0.1308,167
4,-0.9377,0.2296,0.1439,-0.2016,-0.2485,-0.1787,167
4,-0.9092,0.1653,0.1367,-0.2354,-0.2409,-0.2093,167
4,-0.9081,0.1296,0.1367,-0.2758,-0.218,-0.2376,167
4,-0.903,0.1132,0.1449,-0.2802,-0.2027,-0.2539,167
4,-0.9224,0.1112,0.1632,-0.2802,-0.2027,-0.2539,167
4,-0.9357,0.103,0.1653,-0.2573,-0.1852,-0.2617,167
4,-0.9459,0.1102,0.1735,-0.2474,-0.1667,-0.2703,167
4,-0.9459,0.1102,0.1735,-0.2507,-0.1449,-0.2802,167
4,-0.949,0.1255,0.1683,-0.2354,-0.1274,-0.2932,167
4,-0.9867,0.1346,0.2061,-0.2245,-0.1057,-0.3052,167
4,-0.9816,0.1316,0.2438,-0.2485,-0.0751,-0.3085,167
4,-1.0255,0.1642,0.2867,-0.2289,-0.0457,-0.3128,167
4,-1.0745,0.1796,0.3245,-0.2016,-0.0131,-0.2976,167
4,-1.1867,0.1337,0.2847,-0.267,0.0392,-0.2932,167
4,-1.2602,0.1112,0.2704,-0.267,0.0392,-0.2932,167
4,-1.2816,0.0775,0.2316,-0.3445,0.0784,-0.2987,167
4,-1.3234,0.0612,0.2265,-0.3859,0.11,-0.2911,167
4,-1.3234,0.0612,0.2265,-0.3946,0.0992,-0.2823,167
4,-1.3387,0.0051,0.2204,-0.4034,0.0937,-0.2823,167
4,-1.3479,0.001,0.2255,-0.3979,0.0828,-0.2911,167
4,-1.3367,0.0204,0.2397,-0.3521,0.0795,-0.2954,167
4,-1.3357,0.0551,0.2663,-0.2911,0.0806,-0.3008,167
4,-1.3428,0.0755,0.2786,-0.2823,0.0818,-0.3151,167
4,-1.35,0.0775,0.2918,-0.2998,0.0915,-0.3357,167
4,-1.3561,0.0918,0.2908,-0.3031,0.0937,-0.35,167
4,-1.3255,0.1102,0.2857,-0.3031,0.0937,-0.35,167
4,-1.3255,0.1102,0.2857,-0.3128,0.0828,-0.3706,167
4,-1.2347,0.1296,0.3051,-0.3445,0.0708,-0.3946,167
4,-1.1755,0.1224,0.3234,-0.4023,0.0469,-0.4197,167
4,-1.1091,0.0969,0.3214,-0.4753,0.025,-0.4393,167
4,-1.0408,0.0765,0.3255,-0.5309,0.0021,-0.4513,167
4,-0.9112,0.0122,0.3816,-0.5757,-0.0108,-0.4546,167
4,-0.8602,-0.0469,0.4,-0.6377,-0.0065,-0.4492,167
4,-0.8152,-0.1173,0.3908,-0.7163,0.0174,-0.4513,167
4,-0.7561,-0.1908,0.3418,-0.7489,0.0599,-0.4469,167
4,-0.7285,-0.1959,0.3173,-0.7489,0.0599,-0.4469,167
4,-0.7285,-0.1959,0.3173,-0.7075,0.1089,-0.4219,167
4,-0.7153,-0.2183,0.2898,-0.6606,0.1602,-0.4077,167
4,-0.6949,-0.2377,0.2908,-0.64,0.2169,-0.388,167
4,-0.703,-0.3051,0.2918,-0.6323,0.2627,-0.3422,167
4,-0.7418,-0.3653,0.2693,-0.5635,0.3597,-0.2998,167
4,-0.7816,-0.3724,0.249,-0.483,0.4132,-0.2737,167
4,-0.8439,-0.3673,0.1622,-0.4077,0.4655,-0.2539,167
4,-0.8724,-0.3132,0.1387,-0.3019,0.495,-0.2333,167
4,-0.8826,-0.2602,0.1224,-0.157,0.5015,-0.193,167
4,-0.8816,-0.2,0.1306,-0.0795,0.4916,-0.1744,167
4,-0.851,-0.1449,0.1255,-0.0686,0.4786,-0.1711,167
4,-0.8326,-0.1132,0.1173,-0.0621,0.4578,-0.1711,167
4,-0.8184,-0.0816,0.1194,-0.0469,0.4372,-0.1711,167
4,-0.7959,-0.0652,0.1173,-0.0555,0.4229,-0.1766,167
4,-0.7806,-0.0796,0.105,-0.0555,0.4229,-0.1766,167
4,-0.7806,-0.0796,0.105,-0.0992,0.4187,-0.1907,167
5,-0.7775,-0.0928,0.0928,-0.1253,0.4187,-0.1962,167
5,-0.7847,-0.0979,0.0948,-0.1286,0.4132,-0.1972,167
5,-0.7888,-0.105,0.0918,-0.1373,0.412,-0.1951,167
5,-0.8091,-0.1234,0.0918,-0.1515,0.4109,-0.193,167
5,-0.8204,-0.1285,0.0877,-0.1547,0.4044,-0.1831,167
5,-0.8347,-0.1377,0.0877,-0.1493,0.3946,-0.181,167
5,-0.8489,-0.1439,0.0847,-0.1449,0.3838,-0.1798,167
5,-0.8714,-0.1683,0.0449,-0.1428,0.3619,-0.1831,167
5,-0.8775,-0.1694,0.0306,-0.1428,0.3619,-0.1831,167
5,-0.8806,-0.1561,0.0347,-0.1286,0.3336,-0.181,167
5,-0.8806,-0.1561,0.0347,-0.0948,0.3063,-0.1787,167
5,-0.8796,-0.152,0.0398,-0.0774,0.2802,-0.1798,167
5,-0.8877,-0.1744,0.0347,-0.086,0.2573,-0.1852,167
5,-0.8928,-0.1806,0.0295,-0.0795,0.2376,-0.194,167
5,-0.9061,-0.1816,0.0295,-0.0577,0.2268,-0.1984,167
5,-0.9377,-0.2071,0.0112,-0.0511,0.2136,-0.2005,167
5,-0.9592,-0.2255,0.0061,-0.0511,0.1951,-0.2016,167
5,-0.9775,-0.2306,0.0,-0.0511,0.1951,-0.2016,167
5,-0.9959,-0.2255,-0.002,-0.0326,0.1842,-0.1984,167
5,-1.0173,-0.2092,0.004,0.0053,0.1613,-0.1864,167
5,-1.0173,-0.2092,0.004,0.0402,0.1308,-0.1732,167
5,-1.0306,-0.2081,0.0081,0.0599,0.1035,-0.1635,167
5,-1.0469,-0.2061,0.0051,0.0643,0.0883,-0.1526,167
5,-1.0428,-0.199,0.0081,0.085,0.0577,-0.1384,167
5,-1.0449,-0.1663,0.0102,0.1057,0.0282,-0.1253,167
5,-1.0377,-0.1551,0.0122,0.1177,0.0065,-0.1167,167
5,-1.0408,-0.1551,0.0051,0.1035,-0.012,-0.1155,167
5,-1.0316,-0.1571,0.001,0.1035,-0.012,-0.1155,167
5,-1.0214,-0.1683,0.0,0.0925,-0.0305,-0.1123,167
5,-1.0163,-0.1806,0.0,0.086,-0.0469,-0.1112,167
5,-1.0163,-0.1806,0.0,0.0818,-0.0599,-0.11,167
5,-1.0163,-0.1959,0.001,0.0806,-0.074,-0.1024,167
5,-1.0092,-0.2071,-0.001,0.086,-0.0883,-0.0937,167
5,-1.0,-0.2133,-0.0102,0.1024,-0.1024,-0.0806,167
5,-0.9949,-0.2112,-0.0112,0.1167,-0.1112,-0.0631,167
5,-0.9918,-0.2142,-0.0173,0.1297,-0.1253,-0.0469,167
5,-0.9867,-0.2153,-0.0102,0.1318,-0.1352,-0.0349,167
5,-0.9847,-0.2275,0.0061,0.1362,-0.1417,-0.024,167
5,-0.9704,-0.2234,-0.0071,0.1362,-0.1417,-0.024,167
5,-0.9704,-0.2234,-0.0071,0.157,-0.1493,-0.012,167
5,-0.9704,-0.1949,-0.0061,0.1907,-0.1701,0.0053,167
5,-0.9938,-0.1663,0.0092,0.218,-0.1722,0.0217,167
5,-0.9867,-0.199,-0.001,0.1852,-0.182,0.0272,167
5,-0.9745,-0.204,-0.002,0.1678,-0.182,0.036,167
5,-0.9734,-0.1867,0.0,0.2005,-0.2005,0.0469,167
5,-0.9775,-0.1755,0.004,0.2093,-0.206,0.0621,167
5,-0.9816,-0.2255,-0.0081,0.1776,-0.2159,0.073,167
5,-0.9734,-0.2479,-0.0081,0.1701,-0.2224,0.0872,167
5,-0.9785,-0.251,0.001,0.2027,-0.2376,0.1047,167
5,-0.9785,-0.251,0.001,0.2027,-0.2376,0.1047,167
5,-0.9836,-0.2724,-0.002,0.231,-0.2474,0.1264,167
5,-0.9918,-0.2755,0.0031,0.255,-0.255,0.1471,167
5,-0.9928,-0.2775,0.002,0.2899,-0.2659,0.1766,167
5,-1.0102,-0.2724,0.0071,0.3172,-0.2703,0.2039,167
5,-1.0306,-0.2602,0.0092,0.3456,-0.2758,0.2333,167
5,-1.0428,-0.2428,0.0092,0.3706,-0.2878,0.2573,167
5,-1.05,-0.2204,0.0255,0.3946,-0.2987,0.2768,167
5,-1.0704,-0.2,0.0622,0.4065,-0.3008,0.2867,167
5,-1.1275,-0.2071,0.1234,0.387,-0.3041,0.2943,167
5,-1.152,-0.1959,0.1479,0.387,-0.3041,0.2943,167
5,-1.152,-0.1959,0.1479,0.3815,-0.3008,0.3008,167
5,-1.202,-0.1602,0.1735,0.4197,-0.2888,0.3096,167
5,-1.2693,-0.0918,0.2061,0.4666,-0.2682,0.3368,167
5,-1.3102,-0.0469,0.2092,0.4372,-0.2737,0.339,167
5,-1.3479,-0.0684,0.1867,0.3706,-0.2779,0.35,167
5,-1.355,-0.0857,0.1703,0.3302,-0.2627,0.3597,167
5,-1.3561,-0.0684,0.1826,0.35,-0.2725,0.3695,167
5,-1.3561,-0.0887,0.2438,0.3368,-0.2812,0.3674,167
5,-1.3479,-0.1571,0.2347,0.2682,-0.2823,0.3422,167
5,-1.3561,-0.2173,0.2173,0.2682,-0.2823,0.3422,167
5,-1.3448,-0.2459,0.2092,0.2289,-0.2911,0.3183,167
5,-1.3448,-0.2459,0.2092,0.2737,-0.3019,0.314,167
5,-1.2786,-0.2418,0.202,0.338,-0.3161,0.3172,167
5,-1.2316,-0.2357,0.1918,0.3848,-0.3248,0.326,167
5,-1.1357,-0.1949,0.2194,0.4601,-0.3575,0.35,167
5,-1.0908,-0.1194,0.2581,0.544,-0.3771,0.3489,167
5,-0.953,-0.0602,0.3306,0.5582,-0.3826,0.3401,167
5,-0.8928,-0.0163,0.355,0.5778,-0.3729,0.3422,167
5,-0.7918,0.05,0.3877,0.6356,-0.3521,0.3456,167
5,-0.7214,0.105,0.4112,0.6356,-0.3521,0.3456,167
5,-0.7214,0.102,0.4316,0.6225,-0.2922,0.339,167
5,-0.7214,0.102,0.4316,0.5734,-0.2321,0.3314,167
5,-0.6683,0.0622,0.4214,0.4807,-0.1537,0.2998,167
5,-0.6867,0.102,0.4122,0.4643,-0.0839,0.3117,167
5,-0.6632,0.0551,0.3459,0.4023,-0.0228,0.3151,167
5,-0.6724,0.053,0.3479,0.3346,0.0589,0.3031,167
5,-0.6735,0.0459,0.352,0.3183,0.1221,0.2943,167
5,-0.6918,0.0612,0.3479,0.3063,0.1776,0.2911,167
5,-0.7275,0.049,0.2918,0.2747,0.2278,0.2768,167
5,-0.7531,0.0469,0.2673,0.2747,0.2278,0.2768,167
5,-0.7888,0.049,0.2531,0.2507,0.2812,0.2682,167
5,-0.7928,0.051,0.2377,0.2507,0.3216,0.2659,167
5,-0.7928,0.051,0.2377,0.242,0.3346,0.2737,167
5,-0.7938,0.0347,0.202,0.2234,0.3554,0.2823,167
5,-0.7867,0.0347,0.1908,0.2224,0.3717,0.2954,167
5,-0.7734,0.0326,0.1837,0.2354,0.3859,0.3085,167
5,-0.7612,0.0295,0.1857,0.2321,0.3903,0.3183,167
5,-0.7531,0.0336,0.1714,0.2365,0.399,0.3237,167
5,-0.7663,0.0459,0.1561,0.2518,0.4229,0.3314,167
5,-0.7816,0.0561,0.152,0.2485,0.4382,0.3314,167
5,-0.8193,0.0622,0.1367,0.242,0.4426,0.3292,167
5,-0.8377,0.0673,0.1316,0.2376,0.4492,0.326,167
5,-0.8643,0.0775,0.1275,0.2376,0.4492,0.326,167
5,-0.8643,0.0775,0.1275,0.2376,0.4448,0.3216,167
5,-0.8826,0.0857,0.1224,0.2321,0.4349,0.3205,167
5,-0.9163,0.0979,0.1082,0.2201,0.4153,0.3151,167
5,-0.9265,0.105,0.0969,0.2081,0.3891,0.3096,167
5,-0.9408,0.1194,0.0979,0.206,0.3619,0.3052,167
6,-0.9438,0.1316,0.0948,0.2016,0.3325,0.2998,167
6,-0.9571,0.1592,0.0959,0.1907,0.3041,0.2878,167
6,-0.9592,0.1653,0.0959,0.1646,0.2768,0.2768,167
6,-0.9592,0.1694,0.0948,0.1373,0.2495,0.2638,167
6,-0.9592,0.1775,0.0857,0.1373,0.2495,0.2638,167
6,-0.9622,0.1744,0.0816,0.1144,0.2234,0.2518,167
6,-0.9622,0.1744,0.0816,0.086,0.2005,0.2376,167
6,-0.9663,0.1673,0.0847,0.0621,0.1787,0.2245,167
6,-0.9673,0.1632,0.0908,0.0435,0.1602,0.2147,167
6,-0.9724,0.151,0.0857,0.0282,0.1438,0.206,167
6,-0.9755,0.152,0.0826,0.0185,0.1308,0.1962,167
6,-0.9796,0.1581,0.0887,0.0185,0.1167,0.1896,167
6,-0.9867,0.1541,0.0836,0.0043,0.1035,0.1852,167
6,-0.9867,0.1428,0.0561,-0.0185,0.0883,0.1766,167
6,-0.9836,0.1459,0.0459,-0.0185,0.0883,0.1766,167
6,-0.9867,0.1459,0.0357,-0.0228,0.0751,0.1711,167
6,-0.9867,0.1459,0.0357,-0.0261,0.0643,0.1623,167
6,-0.9826,0.1367,0.0295,-0.0392,0.0457,0.1493,167
6,-0.9928,0.1469,0.0286,-0.0316,0.0381,0.1329,167
6,-0.9969,0.1612,0.0428,-0.0228,0.0217,0.1188,167
6,-1.002,0.1581,0.0408,-0.0349,0.0032,0.1035,167
6,-1.0031,0.1489,0.0316,-0.0523,-0.0174,0.085,167
6,-0.999,0.1775,0.0367,-0.0414,-0.0392,0.0698,167
6,-0.9938,0.1898,0.0357,-0.0402,-0.061,0.0599,167
6,-0.9908,0.1847,0.0275,-0.0698,-0.0774,0.0425,167
6,-0.9775,0.1847,0.0143,-0.0698,-0.0774,0.0425,167
6,-0.949,0.2397,0.0081,-0.0795,-0.0959,0.0261,167
6,-0.949,0.2397,0.0081,-0.0643,-0.1112,0.0087,167
6,-0.9357,0.2643,0.0132,-0.0631,-0.1297,-0.0206,167
6,-0.9357,0.2714,0.0265,-0.1024,-0.1428,-0.061,167
6,-0.9459,0.2571,0.049,-0.1581,-0.1515,-0.1155,167
6,-0.951,0.2183,0.0806,-0.1875,-0.1503,-0.1558,167
6,-0.954,0.2081,0.101,-0.1951,-0.1406,-0.1482,167
6,-0.9724,0.1938,0.0959,-0.2453,-0.1297,-0.169,167
6,-0.9888,0.1479,0.0684,-0.2899,-0.1264,-0.1896,167
6,-0.9888,0.1479,0.0684,-0.2899,-0.1264,-0.1896,167
6,-1.0132,0.1571,0.052,-0.2768,-0.1198,-0.2027,167
6,-1.0132,0.1571,0.052,-0.2714,-0.1286,-0.2213,167
6,-1.0286,0.1418,0.0367,-0.2976,-0.1209,-0.2507,167
6,-1.0438,0.1785,0.0214,-0.2725,-0.1274,-0.2834,167
6,-1.0347,0.2112,0.0295,-0.2344,-0.1253,-0.3073,167
6,-1.0265,0.2224,0.0336,-0.2594,-0.1286,-0.3401,167
6,-1.0183,0.2051,0.0286,-0.3031,-0.1352,-0.375,166
6,-1.0081,0.1908,0.0571,-0.3227,-0.1417,-0.4034,166
6,-1.0051,0.1796,0.0541,-0.3357,-0.1362,-0.4208,166
6,-1.0092,0.1622,0.0684,-0.3357,-0.1362,-0.4208,166
6,-1.0092,0.1622,0.0684,-0.3554,-0.1417,-0.4361,166
6,-1.0193,0.1204,0.0755,-0.3859,-0.1308,-0.4404,166
6,-1.0939,0.0663,0.1234,-0.3859,-0.1232,-0.4393,166
6,-1.1387,0.0591,0.1449,-0.3685,-0.1133,-0.4295,166
6,-1.1683,0.0989,0.199,-0.3771,-0.1013,-0.4252,166
6,-1.2704,-0.0183,0.1204,-0.4546,-0.0751,-0.4295,166
6,-1.2949,-0.0418,0.1622,-0.4153,-0.0948,-0.4263,166
6,-1.3041,-0.0612,0.153,-0.339,-0.1047,-0.388,166
6,-1.2602,0.0214,0.2061,-0.2966,-0.1133,-0.3815,166
6,-1.2888,-0.0071,0.15,-0.2966,-0.1133,-0.3815,166
6,-1.2888,-0.0071,0.15,-0.3073,-0.098,-0.3935,166
6,-1.2061,0.0989,0.2388,-0.2714,-0.0959,-0.3783,166
6,-1.2459,0.1337,0.2592,-0.2812,-0.0664,-0.3717,166
6,-1.1898,0.1173,0.252,-0.3729,-0.0446,-0.3729,166
6,-1.2775,0.1071,0.2397,-0.4284,-0.0053,-0.375,166
6,-1.3571,0.0684,0.25,-0.4698,0.0228,-0.3958,166
6,-1.3704,0.0367,0.2255,-0.5015,0.0479,-0.4077,166
6,-1.3673,0.0214,0.2306,-0.5189,0.0457,-0.4229,166
6,-1.3806,0.0,0.199,-0.5396,0.024,-0.4404,166
6,-1.3224,-0.0755,0.1612,-0.556,-0.0076,-0.4578,166
6,-1.2479,-0.1,0.15,-0.556,-0.0076,-0.4578,166
6,-1.2479,-0.1,0.15,-0.5516,-0.0555,-0.4677,166
6,-1.1918,-0.1153,0.1683,-0.5528,-0.1013,-0.4698,166
6,-1.0398,-0.1398,0.2061,-0.5538,-0.1373,-0.4643,166
6,-0.9888,-0.151,0.2592,-0.5408,-0.1613,-0.4502,166
6,-0.9235,-0.2,0.2683,-0.5549,-0.1646,-0.4252,166
6,-0.8989,-0.2173,0.2908,-0.5364,-0.1482,-0.3946,166
6,-0.7847,-0.1816,0.3224,-0.4884,-0.1406,-0.363,166
6,-0.7857,-0.1755,0.3173,-0.4731,-0.086,-0.3445,166
6,-0.7367,-0.1775,0.2959,-0.4698,-0.037,-0.3292,166
6,-0.7163,-0.1551,0.2928,-0.4698,-0.037,-0.3292,166
6,-0.6622,-0.1673,0.2795,-0.4513,0.0108,-0.3172,166
6,-0.6622,-0.1673,0.2795,-0.4589,0.0566,-0.3063,166
6,-0.6571,-0.2101,0.2745,-0.483,0.1155,-0.2998,166
6,-0.6592,-0.2438,0.2653,-0.4546,0.1776,-0.2856,166
6,-0.6735,-0.2428,0.2571,-0.387,0.2365,-0.2649,166
6,-0.7163,-0.2438,0.2061,-0.338,0.2888,-0.242,166
6,-0.7377,-0.2571,0.1592,-0.3008,0.3456,-0.2224,166
6,-0.7622,-0.2449,0.1387,-0.2398,0.3859,-0.2027,166
6,-0.7847,-0.2224,0.1306,-0.2398,0.3859,-0.2027,166
6,-0.8061,-0.2296,0.1173,-0.1852,0.4065,-0.1852,166
6,-0.7979,-0.2367,0.1112,-0.1787,0.4153,-0.1798,166
6,-0.7979,-0.2367,0.1112,-0.1537,0.4153,-0.1711,166
6,-0.8051,-0.2112,0.1082,-0.098,0.4099,-0.1701,166
6,-0.7938,-0.1867,0.0867,-0.061,0.4023,-0.169,166
6,-0.7857,-0.1571,0.0673,-0.049,0.3946,-0.169,166
6,-0.7724,-0.1408,0.0734,-0.0414,0.388,-0.1722,166
6,-0.7663,-0.1346,0.0867,-0.0446,0.3914,-0.1755,166
6,-0.7693,-0.1337,0.0847,-0.0501,0.3903,-0.181,166
6,-0.7724,-0.1296,0.0989,-0.0501,0.3903,-0.181,166
6,-0.7765,-0.1377,0.0959,-0.0479,0.3903,-0.1875,166
6,-0.7867,-0.1479,0.0918,-0.0589,0.3914,-0.1951,166
6,-0.7867,-0.1479,0.0918,-0.0698,0.3891,-0.2016,166
6,-0.8041,-0.1642,0.0806,-0.0631,0.3848,-0.2027,166
6,-0.8439,-0.1918,0.0377,-0.0631,0.3794,-0.1951,166
6,-0.8785,-0.1928,0.0153,-0.0545,0.3729,-0.1864,166
6,-0.8785,-0.1928,0.0153,-0.0381,0.3586,-0.1787,166
6,-0.902,-0.1918,0.0122,-0.0294,0.3434,-0.1722,166
6,-0.9214,-0.1918,0.0112,-0.0228,0.3193,-0.1678,166
6,-0.9387,-0.2,0.001,-0.0162,0.2932,-0.169,166
6,-0.9714,-0.204,-0.0051,-0.0032,0.2638,-0.169,166
6,-0.9836,-0.2071,-0.0122,0.012,0.2344,-0.1657,166
6,-0.9938,-0.2122,-0.0132,0.0217,0.2104,-0.1602,166
7,-1.0,-0.2173,-0.0183,0.0326,0.1852,-0.1515,166
7,-1.0071,-0.2173,-0.0255,0.0326,0.1852,-0.1515,166
7,-1.0071,-0.2173,-0.0255,0.0479,0.1547,-0.1384,166
7,-1.0081,-0.2133,-0.0245,0.0664,0.1221,-0.1253,166
7,-1.0081,-0.2133,-0.0245,0.0818,0.098,-0.1068,166
7,-1.0081,-0.2122,-0.0224,0.0883,0.0751,-0.0959,166
7,-1.001,-0.203,-0.0326,0.0937,0.0534,-0.0828,166
7,-1.0051,-0.1918,-0.0275,0.0904,0.0316,-0.0784,166
7,-1.0132,-0.1918,-0.0265,0.0402,0.0162,-0.0872,166
7,-1.0153,-0.2071,-0.0183,-0.0217,-0.0021,-0.1035,166
7,-1.0102,-0.2938,-0.052,-0.0305,-0.0206,-0.1013,166
7,-1.0326,-0.2265,-0.0561,0.1089,-0.0795,-0.0228,166
7,-1.0326,-0.2265,-0.0561,0.1089,-0.0795,-0.0228,166
7,-1.0132,-0.2142,-0.0469,0.1962,-0.0839,-0.0065,166
7,-0.999,-0.1969,-0.0438,0.206,-0.0948,-0.0043,166
7,-0.9704,-0.2071,-0.051,0.2016,-0.1123,0.0011,166
7,-0.9561,-0.203,-0.0295,0.2104,-0.1209,0.0065,166
7,-0.9377,-0.2092,-0.0234,0.2234,-0.1297,0.0141,166
7,-0.9235,-0.2122,-0.0388,0.2464,-0.1362,0.025,166
7,-0.949,-0.1979,-0.0286,0.2779,-0.1428,0.037,166
7,-0.952,-0.2,-0.0336,0.2737,-0.1493,0.0446,166
7,-0.952,-0.2092,-0.0469,0.2834,-0.157,0.0589,166
7,-0.9694,-0.1622,-0.0122,0.2834,-0.157,0.0589,166
7,-0.9694,-0.1622,-0.0122,0.3183,-0.1635,0.0763,166
7,-0.9694,-0.1632,-0.0071,0.3117,-0.1732,0.086,166
7,-0.9969,-0.1673,-0.004,0.2867,-0.1798,0.0915,166
7,-1.0092,-0.1755,-0.0051,0.2911,-0.1886,0.098,166
7,-1.0418,-0.1632,0.0,0.2987,-0.194,0.1013,166
7,-1.051,-0.1806,-0.0051,0.2834,-0.2093,0.1003,166
7,-1.0612,-0.2,-0.0173,0.2714,-0.2245,0.1047,166
7,-1.0602,-0.2051,-0.0234,0.2888,-0.2485,0.1167,166
7,-1.049,-0.2092,-0.0357,0.2943,-0.2594,0.1373,166
7,-1.0326,-0.2296,-0.051,0.2943,-0.2594,0.1373,166
7,-1.0122,-0.2428,-0.053,0.2779,-0.2768,0.1581,166
7,-1.0122,-0.2428,-0.053,0.2922,-0.2856,0.182,166
7,-1.0,-0.2377,-0.0398,0.3237,-0.3008,0.2125,166
7,-0.9897,-0.251,-0.0377,0.3314,-0.2998,0.2409,166
7,-0.9918,-0.2602,-0.0408,0.338,-0.2998,0.2703,166
7,-0.9928,-0.252,-0.0428,0.3771,-0.3073,0.3085,166
7,-1.0,-0.2265,-0.0275,0.4109,-0.3063,0.3445,166
7,-0.9938,-0.1938,-0.0051,0.4077,-0.3085,0.3739,166
7,-0.999,-0.1938,0.0183,0.3914,-0.3161,0.3903,166
7,-1.0102,-0.2071,0.0561,0.3914,-0.3161,0.3903,166
7,-1.0428,-0.2112,0.0806,0.3804,-0.3183,0.4055,166
7,-1.0428,-0.2112,0.0806,0.3935,-0.3073,0.4164,166
7,-1.0979,-0.1755,0.0724,0.4404,-0.2932,0.4295,166
7,-1.1173,-0.1224,0.0673,0.4971,-0.2878,0.4492,166
7,-1.1346,-0.0643,0.0755,0.5015,-0.2844,0.4589,166
7,-1.1551,-0.0408,0.0948,0.4481,-0.2737,0.4589,166
7,-1.2214,-0.0326,0.1571,0.424,-0.2539,0.4721,166
7,-1.2479,-0.0061,0.1908,0.4153,-0.242,0.4753,166
7,-1.2734,0.0132,0.204,0.3826,-0.2268,0.4655,166
7,-1.3224,0.0449,0.2153,0.3063,-0.2136,0.4437,166
7,-1.3979,0.0255,0.1775,0.3063,-0.2136,0.4437,166
7,-1.4153,0.0265,0.2081,0.2409,-0.2159,0.4099,166
7,-1.4153,0.0265,0.2081,0.218,-0.2256,0.388,166
7,-1.4326,0.0173,0.2581,0.1558,-0.2485,0.3565,166
7,-1.4469,-0.0714,0.2551,0.085,-0.2649,0.3271,166
7,-1.4377,-0.0877,0.2153,0.0872,-0.2791,0.3096,166
7,-1.3939,-0.0693,0.1857,0.1274,-0.2998,0.3052,166
7,-1.3357,-0.053,0.1816,0.11,-0.3172,0.2954,166
7,-1.1816,-0.1082,0.1979,0.0904,-0.3346,0.2802,166
7,-1.1194,-0.105,0.2306,0.1384,-0.3609,0.2682,166
7,-1.1194,-0.105,0.2306,0.1384,-0.3609,0.2682,166
7,-0.9867,-0.0939,0.2908,0.1886,-0.3685,0.2617,166
7,-0.9867,-0.0939,0.2908,0.2049,-0.3771,0.2682,166
7,-0.8898,-0.0979,0.3234,0.2256,-0.3532,0.2682,166
7,-0.8347,-0.0561,0.3561,0.2888,-0.3336,0.2867,166
7,-0.7683,-0.0183,0.3734,0.3063,-0.3151,0.3161,166
7,-0.7622,-0.0224,0.3714,0.2649,-0.2605,0.3216,166
7,-0.7224,0.0092,0.3469,0.2844,-0.2136,0.3281,166
7,-0.7071,0.0643,0.35,0.3434,-0.157,0.338,166
7,-0.6867,0.102,0.353,0.3412,-0.1035,0.3346,166
7,-0.6959,0.1204,0.351,0.3412,-0.1035,0.3346,166
7,-0.6959,0.1204,0.351,0.3031,-0.0414,0.3172,166
7,-0.7183,0.1306,0.3602,0.242,0.0076,0.2834,166
7,-0.7255,0.1602,0.3602,0.2016,0.0435,0.2659,166
7,-0.7693,0.1703,0.3398,0.1438,0.086,0.2485,166
7,-0.7979,0.1541,0.3061,0.0828,0.1232,0.2354,166
7,-0.8316,0.1275,0.2612,0.0501,0.1438,0.23,166
7,-0.8448,0.1132,0.249,0.0185,0.1547,0.2289,166
7,-0.8286,0.0836,0.2296,-0.0011,0.1667,0.2256,166
7,-0.8214,0.0652,0.2255,0.0,0.181,0.2278,166
7,-0.799,0.0388,0.2112,0.0,0.181,0.2278,166
7,-0.799,0.0388,0.2112,0.0065,0.1886,0.23,166
7,-0.7918,0.0245,0.201,0.0043,0.1995,0.2365,166
7,-0.7918,0.0081,0.1857,0.024,0.2147,0.2398,166
7,-0.7928,0.0102,0.1765,0.0589,0.2365,0.2474,166
7,-0.8112,0.0367,0.1724,0.0751,0.2562,0.2518,166
7,-0.8234,0.0367,0.1551,0.0719,0.2682,0.2507,166
7,-0.8408,0.0438,0.1459,0.0828,0.2768,0.2507,166
7,-0.8571,0.0745,0.1408,0.0948,0.2703,0.2495,166
7,-0.8602,0.0714,0.1469,0.0698,0.2638,0.2453,166
7,-0.851,0.0551,0.1428,0.0698,0.2638,0.2453,166
7,-0.8632,0.0581,0.1234,0.0566,0.2474,0.2398,166
7,-0.8632,0.0581,0.1234,0.0818,0.23,0.2376,166
7,-0.8541,0.1041,0.1245,0.0839,0.2147,0.2365,166
7,-0.8591,0.0806,0.0989,0.0425,0.2081,0.2278,166
7,-0.8622,0.0734,0.1041,0.0392,0.1972,0.2245,166
7,-0.8683,0.0745,0.0969,0.0654,0.182,0.2268,166
7,-0.8969,0.0948,0.1071,0.0589,0.1711,0.2245,166
7,-0.9296,0.0765,0.1,0.0425,0.1461,0.2268,166
7,-0.9377,0.0877,0.102,0.0555,0.1264,0.2256,166
7,-0.9387,0.1122,0.0836,0.0501,0.1057,0.2268,166
7,-0.9398,0.1296,0.0704,0.0446,0.0894,0.2234,166
7,-0.9326,0.15,0.0652,0.0392,0.0719,0.2191,166
7,-0.9326,0.15,0.0652,0.0392,0.0719,0.2191,166
7,-0.9449,0.1775,0.0734,0.0228,0.0577,0.2071,166
7,-0.9449,0.1775,0.0734,0.0043,0.0469,0.1907,166
7,-0.9469,0.1898,0.0775,-0.0021,0.0349,0.1701,166
7,-0.9612,0.2081,0.0877,-0.0228,0.0217,0.1547,166
8,-0.9673,0.2061,0.0816,-0.0631,0.0021,0.1329,166
8,-0.9796,0.1877,0.0652,-0.0818,-0.0141,0.1068,166
8,-0.9785,0.1918,0.0684,-0.0784,-0.0294,0.086,166
8,-0.9775,0.1969,0.0745,-0.0883,-0.0425,0.0621,166
8,-0.9734,0.1969,0.0745,-0.1144,-0.0501,0.0446,166
8,-0.9775,0.1847,0.0571,-0.1144,-0.0501,0.0446,166
8,-0.9775,0.1847,0.0571,-0.1308,-0.0545,0.0305,166
8,-0.9806,0.1918,0.0469,-0.1297,-0.0675,0.0141,166
8,-0.9806,0.1969,0.0408,-0.1428,-0.0751,-0.0097,166
8,-0.9928,0.1755,0.0551,-0.1591,-0.0883,-0.037,166
8,-0.9918,0.1653,0.0612,-0.1602,-0.0992,-0.0621,166
8,-0.9897,0.1571,0.0714,-0.1591,-0.1123,-0.0818,166
8,-0.9806,0.1541,0.0826,-0.1558,-0.1242,-0.0969,166
8,-0.9612,0.1398,0.0806,-0.1623,-0.1274,-0.1112,166
8,-0.95,0.1387,0.0786,-0.1547,-0.1242,-0.1221,166
8,-0.9438,0.15,0.0867,-0.1547,-0.1242,-0.1221,166
8,-0.9438,0.15,0.0867,-0.1515,-0.1167,-0.1341,166
8,-0.9316,0.1581,0.0826,-0.1623,-0.1003,-0.1547,166
8,-0.9418,0.1703,0.0602,-0.1732,-0.0883,-0.1798,166
8,-0.9551,0.1898,0.0632,-0.1667,-0.0828,-0.2049,166
8,-0.9622,0.2112,0.0765,-0.1875,-0.0795,-0.231,166
8,-0.9816,0.2133,0.0826,-0.2234,-0.0818,-0.2539,166
8,-1.0122,0.2142,0.0979,-0.2464,-0.0894,-0.2747,166
8,-1.0255,0.2245,0.1102,-0.2627,-0.0948,-0.2878,166
8,-1.0255,0.2204,0.1143,-0.2987,-0.0883,-0.3085,166
8,-1.0367,0.203,0.1234,-0.2987,-0.0883,-0.3085,166
8,-1.0826,0.2,0.1673,-0.3183,-0.0774,-0.3302,166
8,-1.0826,0.2,0.1673,-0.3117,-0.0675,-0.3357,166
8,-1.1346,0.2051,0.1898,-0.3271,-0.0523,-0.3456,166
8,-1.1765,0.1755,0.1918,-0.3903,-0.0294,-0.3597,166
8,-1.2714,0.1275,0.1673,-0.4437,-0.0282,-0.3674,166
8,-1.3398,0.0571,0.1234,-0.4153,-0.0457,-0.363,166
8,-1.3734,0.0786,0.1326,-0.3532,-0.0751,-0.3619,166
8,-1.352,0.1082,0.1694,-0.3575,-0.1079,-0.3619,166
8,-1.3439,0.103,0.203,-0.4229,-0.1253,-0.3771,166
8,-1.2959,0.0561,0.2061,-0.4229,-0.1253,-0.3771,166
8,-1.2724,0.0806,0.2194,-0.4338,-0.1188,-0.3891,166
8,-1.2571,0.105,0.2388,-0.3968,-0.1089,-0.3968,166
8,-1.2571,0.105,0.2388,-0.4055,-0.0904,-0.4055,166
8,-1.2755,0.0541,0.2795,-0.4524,-0.0774,-0.4197,166
8,-1.3091,0.0286,0.301,-0.4568,-0.0589,-0.424,166
8,-1.3173,0.0286,0.3041,-0.4372,-0.049,-0.4229,166
8,-1.3275,0.0326,0.2765,-0.4492,-0.0435,-0.4307,166
8,-1.2745,0.0081,0.2224,-0.4753,-0.0501,-0.4426,166
8,-1.2173,0.0061,0.2347,-0.4982,-0.0675,-0.4633,166
8,-1.1479,-0.001,0.2581,-0.5364,-0.0894,-0.4775,166
8,-1.0775,-0.0153,0.2673,-0.5364,-0.0894,-0.4775,166
8,-0.9428,-0.0357,0.3061,-0.5757,-0.1079,-0.4862,166
8,-0.9428,-0.0357,0.3061,-0.6051,-0.1188,-0.4807,166
8,-0.8755,-0.0612,0.3224,-0.6465,-0.1253,-0.4753,166
8,-0.8255,-0.0928,0.3173,-0.6694,-0.1155,-0.4677,166
8,-0.7612,-0.1071,0.3143,-0.6432,-0.0915,-0.4524,166
8,-0.6703,-0.0989,0.3448,-0.6051,-0.0282,-0.4328,166
8,-0.6326,-0.1173,0.3296,-0.6181,0.036,-0.4219,166
8,-0.6245,-0.1337,0.3184,-0.6388,0.098,-0.4,166
8,-0.6041,-0.1632,0.3184,-0.6388,0.098,-0.4,166
8,-0.6204,-0.2704,0.3102,-0.6552,0.1635,-0.3848,166
8,-0.6541,-0.3224,0.2826,-0.6606,0.2388,-0.3565,166
8,-0.6541,-0.3224,0.2826,-0.6171,0.3019,-0.3205,166
8,-0.6867,-0.355,0.2551,-0.5211,0.3619,-0.2856,166
8,-0.7255,-0.3469,0.2265,-0.4338,0.4164,-0.2529,166
8,-0.8081,-0.3418,0.1479,-0.3695,0.4611,-0.2213,166
8,-0.8418,-0.3275,0.1245,-0.3008,0.4851,-0.1962,166
8,-0.8694,-0.2959,0.1183,-0.2485,0.4971,-0.1776,166
8,-0.8959,-0.2653,0.1194,-0.2224,0.4841,-0.1744,166
8,-0.8898,-0.2347,0.0745,-0.1886,0.4557,-0.1755,166
8,-0.8898,-0.2347,0.0745,-0.1886,0.4557,-0.1755,166
8,-0.8734,-0.202,0.0693,-0.1362,0.4229,-0.1755,166
8,-0.8377,-0.1571,0.0786,-0.1362,0.4229,-0.1755,166
8,-0.8071,-0.1224,0.1,-0.1112,0.3914,-0.1732,166
8,-0.7592,-0.1357,0.1132,-0.181,0.3826,-0.1732,166
8,-0.7499,-0.1398,0.1071,-0.1722,0.3935,-0.1623,166
8,-0.7459,-0.1255,0.102,-0.1591,0.412,-0.1482,166
8,-0.7826,-0.1296,0.0867,-0.1591,0.412,-0.1482,166
8,-0.7969,-0.1694,0.0704,-0.1852,0.4153,-0.1352,166
8,-0.8224,-0.1877,0.0643,-0.2125,0.4143,-0.1264,166
8,-0.8428,-0.1775,0.0714,-0.2125,0.4143,-0.1264,166
8,-0.8428,-0.1775,0.0714,-0.1852,0.4099,-0.1089,166
8,-0.8867,-0.1908,0.051,-0.1482,0.388,-0.0948,166
8,-0.902,-0.2224,0.0204,-0.1711,0.3685,-0.0925,166
8,-0.9224,-0.2081,0.0122,-0.1711,0.3456,-0.0969,166
8,-0.9244,-0.1796,0.0132,-0.1133,0.3128,-0.0883,166
8,-0.9326,-0.1847,0.0092,-0.0937,0.2703,-0.0915,166
8,-0.9367,-0.1979,0.0051,-0.1198,0.2376,-0.1047,166
8,-0.9408,-0.1796,0.0132,-0.1024,0.2081,-0.1112,166
8,-0.9347,-0.152,0.0224,-0.0511,0.1755,-0.1155,166
8,-0.9551,-0.1928,0.0102,-0.0589,0.1503,-0.1188,166
8,-0.9653,-0.2142,0.0061,-0.0589,0.1503,-0.1188,166
8,-0.9653,-0.2142,0.0061,-0.0948,0.1286,-0.1232,166
8,-0.9642,-0.2101,0.0081,-0.0763,0.0992,-0.1198,166
8,-0.9704,-0.2092,0.004,-0.036,0.0708,-0.1133,166
8,-0.9796,-0.251,-0.0183,-0.0381,0.0511,-0.1068,166
8,-0.9847,-0.2592,-0.0183,-0.036,0.0272,-0.1003,166
8,-0.9857,-0.2438,-0.004,0.0032,0.0053,-0.0784,166
8,-0.9959,-0.2316,0.0031,0.0392,-0.0152,-0.0577,166
8,-1.0112,-0.2336,0.004,0.0469,-0.0272,-0.0414,166
8,-1.0204,-0.2153,0.0031,0.0664,-0.0349,-0.025,166
8,-1.0347,-0.1959,-0.004,0.0664,-0.0349,-0.025,166
8,-1.0275,-0.1837,-0.0132,0.0959,-0.0337,-0.0087,166
8,-1.0275,-0.1837,-0.0132,0.1089,-0.0523,0.0141,166
8,-1.0255,-0.1683,-0.0561,0.1035,-0.0925,0.0457,166
8,-1.0255,-0.1683,-0.0561,0.1318,-0.1155,0.0555,166
8,-1.0081,-0.1744,-0.0357,0.1341,-0.1438,0.0664,166
8,-1.0071,-0.1714,-0.0377,0.1242,-0.169,0.0751,166
8,-1.0092,-0.153,-0.0347,0.1318,-0.1798,0.086,166
8,-0.9938,-0.1337,-0.0398,0.1547,-0.1962,0.1013,166
8,-1.0357,-0.1245,-0.0286,0.1493,-0.2191,0.1068,166
8,-1.0398,-0.1428,-0.0265,0.1373,-0.242,0.1133,166
8,-1.0469,-0.1571,-0.0132,0.11,-0.2725,0.11,166
9,-1.0459,-0.1735,-0.004,0.11,-0.2725,0.11,166
9,-1.0459,-0.1735,-0.004,0.1133,-0.3096,0.1079,166
9,-1.0591,-0.2051,0.0153,0.1253,-0.3401,0.1057,166
9,-1.0643,-0.2234,0.0102,0.1264,-0.3706,0.1057,166
9,-1.0459,-0.2255,0.0132,0.1461,-0.3848,0.1057,166
9,-1.0286,-0.2265,0.0092,0.1776,-0.3968,0.1133,166
9,-0.9836,-0.2316,0.002,0.2005,-0.4044,0.1274,166
9,-0.9704,-0.2245,0.0081,0.2201,-0.4132,0.1449,166
9,-0.9428,-0.203,0.0132,0.2562,-0.4109,0.1701,166
9,-0.9377,-0.1898,0.0234,0.2823,-0.4034,0.1984,166
9,-0.95,-0.1877,0.0398,0.2823,-0.4034,0.1984,166
9,-0.95,-0.1877,0.0398,0.2779,-0.387,0.2256,166
9,-0.9642,-0.1837,0.0388,0.2638,-0.3597,0.2453,166
9,-0.9847,-0.1724,0.0469,0.2758,-0.3456,0.2682,166
9,-1.0306,-0.1622,0.0724,0.2844,-0.3248,0.2834,166
9,-1.1316,-0.204,0.0867,0.2627,-0.3216,0.2922,166
9,-1.1632,-0.203,0.1041,0.2627,-0.3096,0.3031,166
9,-1.2173,-0.1775,0.1367,0.3063,-0.2998,0.3085,166
9,-1.2214,-0.1551,0.1428,0.3412,-0.2954,0.3237,166
9,-1.2194,-0.1275,0.1122,0.3456,-0.3107,0.3357,166
9,-1.199,-0.1214,0.1173,0.3422,-0.3151,0.3422,166
9,-1.1898,-0.1102,0.1408,0.3422,-0.3151,0.3422,166
9,-1.1898,-0.1102,0.1408,0.3401,-0.326,0.3434,166
9,-1.1816,-0.105,0.1673,0.3357,-0.3205,0.3368,166
9,-1.1949,-0.0826,0.202,0.3325,-0.314,0.3314,166
9,-1.1908,-0.0684,0.1949,0.314,-0.2899,0.3227,166
9,-1.2163,-0.0775,0.1949,0.2823,-0.2682,0.3128,166
9,-1.2296,-0.0887,0.2326,0.255,-0.255,0.3063,166
9,-1.2285,-0.101,0.2612,0.2518,-0.2453,0.3041,166
9,-1.2377,-0.1224,0.2806,0.2278,-0.2376,0.3041,166
9,-1.2296,-0.1326,0.2734,0.2125,-0.2159,0.3031,166
9,-1.199,-0.1143,0.251,0.2125,-0.2159,0.3031,166
9,-1.1694,-0.1102,0.2693,0.2388,-0.2016,0.3096,166
9,-1.1694,-0.1102,0.2693,0.2649,-0.1907,0.3151,166
9,-1.1439,-0.103,0.2979,0.2747,-0.1852,0.3205,166
9,-1.103,-0.0867,0.3245,0.2888,-0.1875,0.3193,166
9,-1.0245,-0.0398,0.3275,0.3128,-0.1776,0.3107,166
9,-0.9826,-0.0163,0.3418,0.3281,-0.1678,0.2976,166
9,-0.9469,0.0286,0.3632,0.3542,-0.1515,0.2878,166
9,-0.8949,0.053,0.3826,0.3565,-0.1449,0.2768,166
9,-0.8143,0.0224,0.3887,0.3008,-0.1253,0.2638,166
9,-0.7928,0.0163,0.3837,0.3008,-0.1253,0.2638,166
9,-0.7653,0.0347,0.3775,0.255,-0.0904,0.2594,166
9,-0.7653,0.0347,0.3775,0.2737,-0.0402,0.2617,166
9,-0.7347,0.0632,0.3663,0.2932,0.0043,0.2605,166
9,-0.7122,0.05,0.3622,0.2583,0.0589,0.255,166
9,-0.6938,0.0581,0.3745,0.2234,0.1133,0.2453,166
9,-0.7051,0.0836,0.3969,0.2256,0.1581,0.2409,166
9,-0.7183,0.0755,0.3724,0.1919,0.2147,0.2344,166
9,-0.7724,0.101,0.3102,0.1635,0.2693,0.2245,166
9,-0.7918,0.1275,0.3,0.1667,0.3085,0.2213,166
9,-0.8132,0.1255,0.2847,0.1667,0.3085,0.2213,166
9,-0.8326,0.0979,0.2551,0.1221,0.35,0.218,166
9,-0.8326,0.0979,0.2551,0.0534,0.3815,0.2125,166
9,-0.8612,0.1041,0.2112,0.0457,0.4065,0.2136,166
9,-0.8704,0.1194,0.1928,0.0599,0.4197,0.2213,166
9,-0.8734,0.1041,0.1755,0.0337,0.4295,0.2213,166
9,-0.8846,0.0887,0.1571,0.0053,0.4317,0.2201,166
9,-0.8775,0.0989,0.1387,0.0087,0.4197,0.2268,166
9,-0.8582,0.0918,0.1296,0.0087,0.4099,0.23,166
9,-0.8632,0.0734,0.1183,-0.0206,0.3979,0.2256,166
9,-0.85,0.0449,0.1061,-0.0206,0.3979,0.2256,166
9,-0.85,0.0449,0.1061,-0.0392,0.3903,0.2191,166
9,-0.8541,0.0398,0.1061,-0.025,0.3794,0.2191,166
9,-0.851,0.0255,0.0969,-0.0217,0.363,0.2201,166
9,-0.853,0.0234,0.0898,-0.0196,0.3445,0.2245,166
9,-0.8612,0.053,0.0806,0.0053,0.3281,0.2289,166
9,-0.8724,0.0693,0.0847,0.0228,0.3096,0.2365,166
9,-0.8734,0.0734,0.0836,0.0152,0.2932,0.2354,166
9,-0.8837,0.0847,0.0786,0.0131,0.2714,0.231,166
9,-0.8959,0.1224,0.0765,0.0174,0.2485,0.23,166
9,-0.9081,0.1479,0.0765,0.0185,0.2201,0.2245,166
9,-0.9081,0.1479,0.0765,0.0185,0.2201,0.2245,166
9,-0.9051,0.15,0.0745,-0.012,0.1864,0.2213,166
9,-0.8989,0.1408,0.0734,-0.0599,0.1635,0.2191,166
9,-0.8939,0.1398,0.0428,-0.0883,0.1373,0.2201,166
9,-0.8826,0.1479,0.0336,-0.0948,0.1133,0.2234,166
9,-0.8796,0.1541,0.0388,-0.1079,0.0883,0.2256,166
9,-0.8734,0.1398,0.0469,-0.1384,0.0686,0.2268,166
9,-0.8775,0.1306,0.0571,-0.1558,0.0523,0.2256,166
9,-0.8928,0.1561,0.0561,-0.1438,0.0402,0.2234,166
9,-0.9224,0.1847,0.0561,-0.1384,0.0316,0.2213,166
9,-0.9398,0.1938,0.0336,-0.1384,0.0316,0.2213,166
9,-0.9398,0.1938,0.0336,-0.1722,0.0152,0.2104,166
9,-0.9592,0.199,0.0132,-0.2081,-0.0162,0.1972,166
9,-0.9734,0.2051,0.0153,-0.2409,-0.0425,0.1755,166
9,-0.9847,0.1949,0.0173,-0.2758,-0.0686,0.1482,166
9,-0.9918,0.1918,0.0173,-0.2976,-0.1003,0.1209,166
9,-0.999,0.2122,0.0214,-0.3052,-0.1318,0.1024,166
9,-1.0071,0.2092,0.0153,-0.3434,-0.1558,0.0795,166
9,-1.0183,0.2092,0.0061,-0.3739,-0.1732,0.0566,166
9,-1.0286,0.2142,0.0092,-0.3838,-0.1972,0.0337,166
9,-1.0286,0.1928,0.0153,-0.3838,-0.1972,0.0337,166
9,-1.0306,0.1755,0.0245,-0.3979,-0.2191,0.0021,166
9,-1.0306,0.1755,0.0245,-0.4143,-0.2453,-0.0282,166
9,-1.0193,0.1744,0.0428,-0.4109,-0.2682,-0.0545,166
9,-1.0102,0.151,0.0643,-0.4175,-0.2834,-0.0719,166
9,-1.0,0.1398,0.0551,-0.4372,-0.2856,-0.0839,166
9,-0.9949,0.1439,0.049,-0.4317,-0.2758,-0.0948,166
9,-0.9908,0.1642,0.0388,-0.4109,-0.2539,-0.1079,166
9,-0.9949,0.1602,0.0224,-0.4219,-0.2409,-0.1318,166
9,-1.0153,0.1796,0.0173,-0.4361,-0.23,-0.182,166
9,-1.0061,0.1949,0.0204,-0.424,-0.2388,-0.1962,166
9,-1.0071,0.2122,0.0388,-0.4338,-0.2453,-0.2115,166
9,-1.0173,0.2173,0.05,-0.4338,-0.2453,-0.2115,166
9,-1.0173,0.2173,0.05,-0.4753,-0.2518,-0.2321,166
9,-1.0071,0.2112,0.0591,-0.5036,-0.2529,-0.242,166
9,-1.0061,0.2112,0.0734,-0.5211,-0.2617,-0.2539,166
9,-0.9755,0.2071,0.0652,-0.5473,-0.2474,-0.2659,166
9,-0.9714,0.2112,0.0877,-0.5604,-0.2388,-0.2747,166
10,-0.9938,0.1979,0.1265,-0.5843,-0.2224,-0.2834,166
10,-1.0255,0.1744,0.1642,-0.6291,-0.1984,-0.2823,166
10,-1.1439,0.1459,0.2255,-0.6497,-0.169,-0.2758,166
10,-1.2051,0.1285,0.204,-0.6814,-0.1384,-0.2627,166
10,-1.2775,0.102,0.1439,-0.7293,-0.1188,-0.2573,166
10,-1.2775,0.102,0.1439,-0.7293,-0.1188,-0.2573,166
10,-1.3255,0.0989,0.1163,-0.7283,-0.1198,-0.2539,166
10,-1.3255,0.0234,0.1367,-0.7718,-0.1558,-0.2507,166
10,-1.3377,-0.0551,0.1775,-0.8285,-0.1755,-0.2659,166
10,-1.3286,-0.0806,0.2245,-0.7686,-0.1798,-0.2725,166
10,-1.3265,0.0377,0.3122,-0.6356,-0.1831,-0.2627,166
10,-1.3316,0.0143,0.2857,-0.6323,-0.1646,-0.2495,166
10,-1.3541,-0.0602,0.2408,-0.7533,-0.1341,-0.2539,166
10,-1.3714,-0.0765,0.2255,-0.7403,-0.1155,-0.2464,166
10,-1.3989,-0.0398,0.2765,-0.6454,-0.1089,-0.2376,166
10,-1.4051,-0.0887,0.2397,-0.6454,-0.1089,-0.2376,166
10,-1.4051,-0.0887,0.2397,-0.6562,-0.0992,-0.2485,166
10,-1.3775,-0.0765,0.2255,-0.6421,-0.1013,-0.2605,166
10,-1.3265,-0.0061,0.2296,-0.5538,-0.1329,-0.2573,166
10,-1.2275,0.0031,0.2806,-0.5757,-0.1678,-0.2659,166
10,-1.1775,-0.0479,0.2683,-0.6966,-0.2071,-0.2943,166
10,-1.1234,-0.0173,0.2826,-0.7075,-0.2453,-0.3031,166
10,-1.0408,0.0377,0.3326,-0.6835,-0.2802,-0.3052,166
10,-0.9367,-0.0918,0.3622,-0.8199,-0.2954,-0.3205,166
10,-0.8724,-0.151,0.3806,-0.9267,-0.2966,-0.3248,166
10,-0.8459,-0.1479,0.4122,-0.9267,-0.2966,-0.3248,166
10,-0.7551,-0.1275,0.4377,-0.8809,-0.2932,-0.3052,166
10,-0.7551,-0.1275,0.4377,-0.8395,-0.2802,-0.2725,166
10,-0.7183,-0.2183,0.3857,-0.8983,-0.2169,-0.2594,166
10,-0.6571,-0.2377,0.3582,-0.9027,-0.1646,-0.2191,166
10,-0.6214,-0.2133,0.3826,-0.8427,-0.1144,-0.193,166
10,-0.5796,-0.2367,0.3918,-0.8329,-0.0501,-0.193,166
10,-0.5898,-0.2867,0.3887,-0.8395,0.0349,-0.1646,166
10,-0.5898,-0.3152,0.3622,-0.8067,0.1177,-0.1581,166
10,-0.6194,-0.3132,0.3275,-0.7512,0.1972,-0.1755,166
10,-0.6469,-0.3316,0.2775,-0.7512,0.1972,-0.1755,166
10,-0.7153,-0.3234,0.2194,-0.6944,0.2605,-0.1678,166
10,-0.7153,-0.3234,0.2194,-0.6203,0.3237,-0.1558,166
10,-0.7377,-0.2786,0.2153,-0.5211,0.3641,-0.1449,166
10,-0.7581,-0.2285,0.2,-0.4382,0.3958,-0.1274,166
10,-0.7734,-0.1837,0.1949,-0.4109,0.4109,-0.1242,166
10,-0.7693,-0.1173,0.1765,-0.4034,0.4197,-0.1242,166
10,-0.7571,-0.0765,0.1703,-0.3958,0.4197,-0.1286,166
10,-0.7459,-0.0459,0.1642,-0.4055,0.4197,-0.1384,167
10,-0.7183,-0.0469,0.1735,-0.4536,0.4263,-0.1526,167
10,-0.7101,-0.0693,0.1735,-0.4536,0.4263,-0.1526,167
10,-0.704,-0.0836,0.1775,-0.5112,0.4372,-0.1646,167
10,-0.704,-0.0836,0.1775,-0.532,0.4568,-0.1722,167
10,-0.699,-0.0877,0.1898,-0.5331,0.4731,-0.1732,167
10,-0.6826,-0.1275,0.1581,-0.5614,0.4992,-0.1755,167
10,-0.6908,-0.1367,0.1387,-0.5799,0.5341,-0.1732,167
10,-0.6714,-0.1408,0.1234,-0.5538,0.5494,-0.1722,167
10,-0.6735,-0.1387,0.1265,-0.5473,0.5713,-0.169,167
10,-0.6898,-0.1724,0.1316,-0.5669,0.5963,-0.1646,167
10,-0.7092,-0.1673,0.1234,-0.5549,0.6192,-0.1482,167
10,-0.7234,-0.1346,0.1143,-0.5549,0.6192,-0.1482,167
10,-0.7234,-0.1346,0.1143,-0.5189,0.64,-0.1318,167
10,-0.8143,-0.1306,0.0479,-0.5265,0.6541,-0.1133,167
10,-0.8143,-0.1306,0.0479,-0.556,0.664,-0.098,167
10,-0.8643,-0.1275,0.0438,-0.5679,0.6562,-0.0894,167
10,-0.9,-0.1285,0.0336,-0.569,0.6377,-0.0828,167
10,-0.9306,-0.1357,0.0306,-0.5833,0.6106,-0.0806,167
10,-0.9755,-0.1479,0.0255,-0.5919,0.581,-0.0784,167
10,-1.0602,-0.1663,0.002,-0.6106,0.5549,-0.0828,167
10,-1.051,-0.1785,0.0112,-0.6127,0.5135,-0.0751,167
10,-1.0602,-0.1755,-0.004,-0.6039,0.4578,-0.0643,167
10,-1.0602,-0.1755,-0.004,-0.6039,0.4578,-0.0643,167
10,-1.0459,-0.1775,-0.0286,-0.6018,0.4077,-0.0523,167
10,-1.049,-0.1755,-0.0347,-0.6007,0.3586,-0.0479,167
10,-1.0449,-0.1796,-0.0479,-0.6072,0.326,-0.036,167
10,-1.0275,-0.1837,-0.0459,-0.6051,0.2867,-0.0228,167
10,-1.0081,-0.1928,-0.0571,-0.6018,0.2573,-0.0108,167
10,-1.0081,-0.203,-0.0561,-0.5996,0.2256,0.0076,167
10,-1.001,-0.2071,-0.0643,-0.5865,0.1984,0.0282,167
10,-1.0204,-0.201,-0.0541,-0.569,0.1722,0.0501,167
10,-1.049,-0.2133,-0.0367,-0.5647,0.1373,0.0708,167
10,-1.0734,-0.2224,-0.0214,-0.5647,0.1373,0.0708,167
10,-1.0734,-0.2224,-0.0214,-0.5505,0.1144,0.086,167
10,-1.102,-0.2306,-0.0173,-0.5299,0.0883,0.0925,167
10,-1.1703,-0.2581,-0.0418,-0.5156,0.0664,0.0925,167
10,-1.2,-0.2551,-0.0632,-0.507,0.0316,0.0915,167
10,-1.1959,-0.249,-0.0693,-0.4862,-0.0174,0.0948,167
10,-1.1622,-0.25,-0.0806,-0.4721,-0.0654,0.0969,167
10,-1.1173,-0.2112,-0.0684,-0.4536,-0.1123,0.1035,167
10,-1.0765,-0.2081,-0.0643,-0.4229,-0.1438,0.1123,167
10,-1.0479,-0.2122,-0.0857,-0.4393,-0.1678,0.1089,167
10,-1.0081,-0.1938,-0.0887,-0.4393,-0.1678,0.1089,167
10,-0.9633,-0.105,-0.0428,-0.4088,-0.1875,0.1133,167
10,-0.9633,-0.105,-0.0428,-0.3575,-0.2049,0.1286,167
10,-0.949,-0.1061,-0.0408,-0.3935,-0.2005,0.1352,167
10,-0.9449,-0.1316,-0.0479,-0.4536,-0.1907,0.1373,167
10,-0.9428,-0.1449,-0.0449,-0.4601,-0.1875,0.1406,167
10,-0.9418,-0.1632,-0.0367,-0.4481,-0.1852,0.1461,167
10,-0.9418,-0.2,-0.0561,-0.4666,-0.1776,0.1461,167
10,-0.9418,-0.2275,-0.0684,-0.4611,-0.1678,0.1526,167
10,-0.9337,-0.2245,-0.0663,-0.4109,-0.169,0.1744,167
10,-0.9408,-0.2224,-0.0591,-0.4109,-0.169,0.1744,167
10,-0.953,-0.2377,-0.0602,-0.3848,-0.1602,0.193,167
10,-0.9581,-0.2397,-0.0612,-0.388,-0.1526,0.1984,167
10,-0.9581,-0.2397,-0.0612,-0.3586,-0.1515,0.2093,167
10,-0.9642,-0.2224,-0.0643,-0.3107,-0.1482,0.218,167
10,-1.0,-0.1908,-0.0684,-0.2834,-0.1493,0.23,167
10,-1.0081,-0.1867,-0.0724,-0.2682,-0.1537,0.2376,167
10,-1.0102,-0.1724,-0.0652,-0.2474,-0.1667,0.2485,167
10,-0.9938,-0.1581,-0.0652,-0.2365,-0.181,0.2539,167
10,-0.9806,-0.1612,-0.0673,-0.242,-0.194,0.2605,167
10,-0.9633,-0.1694,-0.0734,-0.2344,-0.1962,0.267,167
10,-0.9235,-0.1806,-0.0663,-0.2224,-0.2039,0.2714,167
10,-0.9092,-0.1908,-0.0704,-0.2136,-0.1995,0.2802,167
10,-0.8928,-0.1979,-0.0796,-0.2136,-0.1995,0.2802,167
11,-0.8928,-0.1979,-0.0796,-0.1962,-0.193,0.2932,167
11,-0.8775,-0.201,-0.0765,-0.169,-0.1886,0.3073,167
11,-0.8541,-0.2142,-0.0541,-0.1406,-0.1798,0.326,167
11,-0.8418,-0.2183,-0.0469,-0.1188,-0.1623,0.3456,167
11,-0.853,-0.2163,-0.0418,-0.0872,-0.1384,0.3695,167
11,-0.8582,-0.2133,-0.0438,-0.0511,-0.1232,0.3946,167
11,-0.8704,-0.2153,-0.0581,-0.025,-0.1047,0.4099,167
11,-0.8714,-0.2092,-0.0612,0.012,-0.0894,0.4338,167
11,-0.8714,-0.1867,-0.0438,0.0545,-0.0698,0.4568,167
11,-0.8591,-0.1867,-0.0163,0.0545,-0.0698,0.4568,167
11,-0.8591,-0.1867,-0.0163,0.0599,-0.0555,0.471,167
11,-0.8683,-0.2296,-0.0071,0.0555,-0.0305,0.4884,167
11,-0.8887,-0.2183,0.001,0.1057,-0.0087,0.5047,167
11,-0.9265,-0.1908,0.0081,0.1755,0.0381,0.5221,167
11,-0.9694,-0.1642,0.0,0.2136,0.0751,0.5331,167
11,-1.0796,-0.0663,0.001,0.2495,0.1242,0.544,167
11,-1.1285,0.0143,0.0143,0.2758,0.1438,0.5429,167
11,-1.1581,0.0591,0.0092,0.2333,0.1449,0.52,167
11,-1.1642,0.1091,0.004,0.1896,0.1089,0.5189,167
11,-1.101,0.2153,0.0673,0.1896,0.1089,0.5189,167
11,-1.0745,0.2092,0.1122,0.1471,0.086,0.4807,167
11,-1.0745,0.2092,0.1122,0.0555,0.0511,0.4328,167
11,-0.9867,0.1949,0.152,-0.0566,0.0294,0.3663,167
11,-1.0183,0.1744,0.1949,-0.1951,0.0675,0.3302,167
11,-0.95,0.0796,0.151,-0.2605,0.1047,0.3052,167
11,-0.9122,0.002,0.1061,-0.2812,0.1722,0.2878,167
11,-0.9347,-0.0367,0.1071,-0.2844,0.2529,0.2758,167
11,-0.9306,-0.0193,0.0847,-0.2888,0.3117,0.2594,167
11,-0.9612,-0.1541,0.0796,-0.3008,0.3815,0.2605,167
11,-0.9469,-0.1122,0.0867,-0.3008,0.3815,0.2605,167
11,-0.9806,-0.053,0.1265,-0.1558,0.3958,0.2812,167
11,-0.9806,-0.053,0.1265,-0.0925,0.4284,0.3052,167
11,-0.9959,-0.0643,0.0684,-0.1417,0.4372,0.2998,167
11,-1.0275,-0.0418,0.0786,-0.0959,0.4589,0.2714,167
11,-1.0132,0.049,0.1,0.0174,0.4513,0.2703,167
11,-1.0367,0.1224,0.1163,0.0425,0.4536,0.2464,167
11,-1.0551,0.1622,0.1265,-0.0097,0.4393,0.2191,167
11,-1.0918,0.2153,0.1581,0.0043,0.4143,0.1995,167
11,-1.0693,0.2795,0.201,0.0108,0.3783,0.1766,167
11,-1.1449,0.2918,0.1785,-0.0708,0.3729,0.1396,167
11,-1.1622,0.3132,0.1479,-0.0708,0.3729,0.1396,167
11,-1.1806,0.3214,0.1234,-0.1493,0.3281,0.1024,167
11,-1.1806,0.3214,0.1234,-0.2147,0.3073,0.061,167
11,-1.1428,0.3143,0.0786,-0.2779,0.2594,-0.0011,167
11,-1.1214,0.3152,0.0632,-0.3128,0.218,-0.0555,167
11,-1.0102,0.2938,0.0857,-0.3903,0.1766,-0.0654,167
11,-0.9622,0.2234,0.0714,-0.5233,0.1581,-0.0894,167
11,-0.9357,0.152,0.0602,-0.5822,0.1515,-0.1047,167
11,-0.9214,0.1387,0.0704,-0.557,0.1537,-0.098,167
11,-0.8959,0.1214,0.0398,-0.557,0.1537,-0.098,167
11,-0.8959,0.1214,0.0398,-0.5931,0.1722,-0.0915,167
11,-0.8898,0.0898,0.002,-0.6454,0.1831,-0.0763,167
11,-0.8898,0.0898,0.002,-0.6225,0.1842,-0.0545,167
11,-0.8877,0.1091,0.0092,-0.6171,0.181,-0.0381,167
11,-0.9,0.0928,0.0112,-0.6574,0.1831,-0.0294,167
11,-0.8969,0.101,0.0132,-0.6606,0.1776,-0.0217,167
11,-0.9061,0.1214,0.0204,-0.6562,0.1701,-0.0162,167
11,-0.9122,0.1694,0.0479,-0.7075,0.169,-0.0272,167
11,-0.8908,0.0836,0.0143,-0.7359,0.1623,-0.0206,167
11,-0.9571,0.1224,0.0143,-0.6901,0.1657,-0.0228,167
11,-0.9357,0.1561,0.0193,-0.6901,0.1657,-0.0228,167
11,-0.9357,0.1561,0.0193,-0.6955,0.1602,-0.0217,167
11,-0.999,0.1642,0.0163,-0.7806,0.1732,-0.0414,167
11,-1.0132,0.0847,-0.0367,-0.7947,0.1711,-0.0631,167
11,-1.0061,0.1316,-0.0245,-0.7272,0.1581,-0.0763,167
11,-0.9857,0.1428,-0.0286,-0.7686,0.1503,-0.0948,167
11,-1.0163,0.0398,-0.105,-0.8319,0.1482,-0.1253,167
11,-1.0459,0.0612,-0.0561,-0.7664,0.1352,-0.1188,167
11,-1.053,0.0939,-0.0806,-0.7184,0.1264,-0.1232,167
11,-1.0652,0.0887,-0.0898,-0.7686,0.1057,-0.1297,167
11,-1.0673,0.0418,-0.1428,-0.7686,0.1057,-0.1297,167
11,-1.0673,0.0418,-0.1428,-0.8012,0.0828,-0.1274,167
11,-1.0724,0.0959,-0.1061,-0.7478,0.0621,-0.1198,167
11,-1.0663,0.1143,-0.1143,-0.7447,0.0457,-0.1253,167
11,-1.0684,0.1071,-0.1102,-0.7981,0.0305,-0.1308,167
11,-1.0612,0.1275,-0.1102,-0.8002,0.0021,-0.1384,167
11,-1.0408,0.151,-0.0928,-0.8012,-0.0196,-0.1581,167
11,-1.0408,0.1346,-0.1143,-0.8601,-0.0326,-0.1732,167
11,-1.0438,0.1245,-0.1245,-0.8863,-0.0577,-0.1864,167
11,-1.0143,0.1541,-0.1143,-0.8885,-0.0828,-0.194,167
11,-0.9938,0.1337,-0.1143,-0.9517,-0.0992,-0.2039,167
11,-0.9745,0.0948,-0.1173,-0.9517,-0.0992,-0.2039,167
11,-0.9745,0.0948,-0.1173,-0.9986,-0.1079,-0.2256,167
11,-0.9592,0.0847,-0.1112,-0.9681,-0.1068,-0.2256,167
11,-0.953,0.1255,-0.0877,-0.9496,-0.1024,-0.2321,167
11,-0.9622,0.0908,-0.1183,-1.016,-0.0969,-0.2388,167
11,-0.9612,0.0479,-0.1449,-1.0412,-0.0883,-0.2365,167
11,-0.9561,0.0479,-0.15,-0.9845,-0.085,-0.2224,167
11,-0.9653,0.0796,-0.1418,-0.9746,-0.0883,-0.2136,167
11,-0.9683,0.0581,-0.1428,-1.0095,-0.0872,-0.2104,167
11,-0.9663,0.0581,-0.1398,-0.9965,-0.0959,-0.2005,167
11,-0.9714,0.0918,-0.1285,-0.9965,-0.0959,-0.2005,167
11,-0.9592,0.1449,-0.1224,-0.9702,-0.1024,-0.1951,167
11,-0.9592,0.1449,-0.1224,-1.0019,-0.0894,-0.2005,167
11,-0.952,0.1612,-0.1357,-1.0423,-0.0828,-0.2071,167
11,-0.9398,0.1908,-0.1428,-1.0618,-0.0763,-0.2213,167
11,-0.9275,0.2255,-0.1326,-1.123,-0.0621,-0.2333,167
11,-0.9132,0.1979,-0.15,-1.2232,-0.0511,-0.2529,167
11,-0.9071,0.1694,-0.1581,-1.2668,-0.0337,-0.2638,167
11,-0.9041,0.1837,-0.1581,-1.2777,-0.0141,-0.2638,167
11,-0.8857,0.1367,-0.1867,-1.3432,-0.0032,-0.2747,167
11,-0.8867,0.0979,-0.203,-1.3834,0.024,-0.2682,167
11,-0.8939,0.0816,-0.1714,-1.4031,0.0402,-0.2627,167
11,-0.9398,0.0153,-0.1949,-1.4031,0.0402,-0.2627,167
11,-0.9398,0.0153,-0.1949,-1.4173,0.0577,-0.2539,167
11,-0.9765,0.0112,-0.1796,-1.3781,0.0751,-0.2365,167
11,-1.0081,0.0153,-0.1612,-1.3454,0.086,-0.2201,167
11,-1.0581,0.0183,-0.1469,-1.3508,0.0883,-0.2049,167
11,-1.103,0.0347,-0.1632,-1.341,0.085,-0.194,167
11,-1.1041,0.0826,-0.1541,-1.3115,0.0643,-0.1842,167
12,-1.0979,0.1183,-0.1377,-1.3344,0.0446,-0.2016,167
12,-1.0887,0.1183,-0.102,-1.425,0.036,-0.2365,167
12,-1.1337,0.0408,-0.0459,-1.499,0.0457,-0.2659,167
12,-1.1703,0.0234,-0.0602,-1.499,0.0457,-0.2659,167
12,-1.1703,0.0234,-0.0602,-1.5099,0.0654,-0.2844,167
12,-1.1928,0.0316,-0.101,-1.5133,0.0751,-0.2954,167
12,-1.2133,0.0388,-0.1489,-1.5514,0.0664,-0.3096,167
12,-1.201,-0.0193,-0.1581,-1.6146,0.0282,-0.3346,167
12,-1.1959,-0.0622,-0.105,-1.6703,-0.0131,-0.3597,167
12,-1.1775,-0.1337,-0.0796,-1.7052,-0.0316,-0.3729,167
12,-1.1816,-0.1857,-0.053,-1.6539,-0.0457,-0.3575,167
12,-1.1857,-0.1887,-0.0561,-1.5743,-0.0511,-0.3336,167
12,-1.1622,-0.1857,-0.0755,-1.5362,-0.0457,-0.3117,167
12,-1.1826,-0.202,-0.0928,-1.5165,-0.0589,-0.2758,167
12,-1.153,-0.1908,-0.1071,-1.5165,-0.0589,-0.2758,167
12,-1.153,-0.1908,-0.1071,-1.4358,-0.0774,-0.2562,167
12,-1.1122,-0.0887,-0.0836,-1.3998,-0.1112,-0.2474,167
12,-1.1122,-0.0551,-0.0479,-1.4402,-0.1297,-0.2617,167
12,-1.0693,-0.0571,-0.0602,-1.4828,-0.1732,-0.2802,167
12,-1.0132,0.0286,-0.0632,-1.4816,-0.2136,-0.3063,167
12,-0.9734,0.0612,-0.0561,-1.5198,-0.2594,-0.3336,167
12,-0.954,0.0714,-0.0388,-1.6289,-0.2888,-0.3575,167
12,-0.9153,0.0428,-0.0438,-1.7367,-0.3216,-0.3794,167
12,-0.8428,0.0,-0.0092,-1.8,-0.3401,-0.3935,167
12,-0.8347,-0.0408,-0.004,-1.8,-0.3401,-0.3935,167
12,-0.8132,-0.0989,-0.0204,-1.8578,-0.3346,-0.399,167
12,-0.8132,-0.0989,-0.0204,-1.884,-0.3183,-0.4077,167
12,-0.8132,-0.1224,-0.0031,-1.8796,-0.3107,-0.4044,167
12,-0.7938,-0.2183,-0.0183,-1.8992,-0.2911,-0.4077,167
12,-0.8214,-0.2949,-0.0632,-1.9046,-0.2627,-0.4,167
12,-0.8081,-0.3561,-0.0714,-1.8403,-0.255,-0.375,167
12,-0.8275,-0.3612,-0.0663,-1.7476,-0.2268,-0.3434,167
12,-0.8479,-0.4092,-0.0989,-1.7215,-0.2213,-0.338,167
12,-0.8663,-0.4326,-0.1224,-1.7215,-0.2213,-0.338,167
12,-0.9041,-0.403,-0.1296,-1.6583,-0.2201,-0.3052,167
12,-0.9051,-0.3898,-0.1163,-1.5471,-0.2125,-0.2834,167
12,-0.9051,-0.3898,-0.1163,-1.5024,-0.2159,-0.2747,167
12,-0.9551,-0.401,-0.1214,-1.4641,-0.2224,-0.267,167
12,-0.9663,-0.3816,-0.1143,-1.3813,-0.2289,-0.2507,167
12,-0.9806,-0.3336,-0.105,-1.3006,-0.2562,-0.2245,167
12,-0.9888,-0.2755,-0.0979,-1.2636,-0.2747,-0.2104,167
12,-0.9745,-0.203,-0.0826,-1.2788,-0.3008,-0.1919,167
12,-0.9663,-0.1796,-0.0775,-1.2941,-0.3107,-0.1776,167
12,-0.9479,-0.1551,-0.0693,-1.3039,-0.3227,-0.1602,167
12,-0.949,-0.1275,-0.0673,-1.3039,-0.3227,-0.1602,167
12,-0.9398,-0.1326,-0.0745,-1.3378,-0.3193,-0.1461,167
12,-0.9398,-0.1326,-0.0745,-1.3922,-0.3117,-0.1406,167
12,-0.9469,-0.153,-0.0765,-1.4479,-0.3128,-0.1341,167
12,-0.9459,-0.1755,-0.0877,-1.4761,-0.3161,-0.1221,167
12,-0.9561,-0.1898,-0.0928,-1.4904,-0.3151,-0.1112,167
12,-0.9633,-0.2296,-0.1091,-1.5099,-0.3216,-0.1013,167
12,-0.9601,-0.249,-0.1122,-1.5285,-0.3325,-0.0894,167
12,-0.9601,-0.2714,-0.1102,-1.5318,-0.3401,-0.0751,167
12,-0.9551,-0.3061,-0.1061,-1.5154,-0.3466,-0.0589,167
12,-0.9561,-0.3091,-0.1183,-1.5154,-0.3466,-0.0589,167
12,-0.9561,-0.3091,-0.1183,-1.4849,-0.3542,-0.037,167
12,-0.952,-0.3091,-0.1357,-1.4576,-0.3575,-0.0152,167
12,-0.952,-0.3091,-0.1357,-1.449,-0.3619,0.0032,167
12,-0.9357,-0.3326,-0.1306,-1.437,-0.3641,0.0272,167
12,-0.9316,-0.3357,-0.1326,-1.3944,-0.3651,0.049,167
12,-0.9255,-0.3306,-0.1224,-1.3485,-0.363,0.074,167
12,-0.9265,-0.3193,-0.1194,-1.3224,-0.3619,0.1013,167
12,-0.9214,-0.3275,-0.1143,-1.3061,-0.3674,0.1264,167
12,-0.9255,-0.3255,-0.1153,-1.2722,-0.3554,0.1537,167
12,-0.9132,-0.3255,-0.1194,-1.2243,-0.3477,0.1852,167
12,-0.9132,-0.3255,-0.1194,-1.2243,-0.3477,0.1852,167
12,-0.9081,-0.3071,-0.1306,-1.184,-0.3412,0.2071,167
12,-0.901,-0.2847,-0.1459,-1.1524,-0.3445,0.2289,167
12,-0.9,-0.2745,-0.1408,-1.1207,-0.339,0.2495,167
12,-0.9092,-0.2745,-0.1316,-1.0967,-0.3357,0.2659,167
12,-0.9235,-0.2816,-0.1204,-1.0673,-0.3314,0.2779,167
12,-0.9775,-0.2898,-0.0969,-1.0303,-0.3216,0.2899,167
12,-1.0112,-0.2888,-0.0908,-1.0303,-0.3216,0.2899,167
12,-1.0367,-0.2949,-0.0887,-0.9954,-0.3205,0.2998,167
12,-1.0336,-0.3163,-0.0979,-0.9616,-0.3434,0.3085,167
12,-1.0714,-0.3152,-0.0816,-0.9616,-0.3434,0.3085,167
12,-1.0714,-0.3152,-0.0816,-0.9202,-0.3641,0.314,167
12,-1.0551,-0.3326,-0.0948,-0.9212,-0.3838,0.3019,167
12,-1.0275,-0.3612,-0.1091,-0.9212,-0.3838,0.3019,167
12,-0.9694,-0.3846,-0.1316,-0.9017,-0.3946,0.2878,167
12,-0.8908,-0.3347,-0.1296,-0.8176,-0.4,0.2812,167
12,-0.8612,-0.3041,-0.1061,-0.7239,-0.4044,0.2888,167
12,-0.8234,-0.3081,-0.1082,-0.6596,-0.363,0.3172,167
12,-0.8122,-0.3051,-0.0867,-0.6596,-0.363,0.3172,167
12,-0.7888,-0.2877,-0.0561,-0.628,-0.326,0.3434,167
12,-0.8,-0.2928,-0.05,-0.628,-0.326,0.3434,167
12,-0.8152,-0.303,-0.0591,-0.5898,-0.2823,0.3717,167
12,-0.8152,-0.303,-0.0591,-0.5734,-0.231,0.3935,167
12,-0.8582,-0.2724,-0.0469,-0.545,-0.1875,0.4187,167
12,-0.8898,-0.2786,-0.0388,-0.5091,-0.1602,0.4481,167
12,-0.903,-0.3193,-0.0357,-0.5179,-0.1362,0.4742,167
12,-0.9469,-0.3459,-0.0255,-0.507,-0.1089,0.4927,167
12,-1.0551,-0.2602,-0.0183,-0.4143,-0.061,0.5221,167
12,-1.0989,-0.1612,-0.0234,-0.2844,-0.0196,0.557,167
12,-1.1346,-0.0377,0.004,-0.2081,-0.0076,0.5854,167
12,-1.1653,0.0745,0.0234,-0.2081,-0.0076,0.5854,167
12,-1.1459,0.0928,0.0755,-0.2354,-0.012,0.5963,167
12,-1.1459,0.0928,0.0755,-0.4065,-0.0349,0.5778,167
12,-1.105,0.1061,0.1408,-0.52,-0.0402,0.5484,167
12,-1.0704,0.1561,0.1857,-0.4797,-0.0501,0.5189,167
12,-1.0755,0.3193,0.2816,-0.399,-0.037,0.4677,167
12,-1.1816,-0.0652,0.2234,-0.7991,0.0654,0.3401,167
12,-1.1816,-0.0652,0.2234,-0.8078,0.1461,0.2922,167
12,-1.1969,-0.204,0.1765,-0.8046,0.1667,0.2605,167
12,-1.1806,-0.2877,0.1224,-0.7991,0.2027,0.2758,167
12,-1.1194,-0.1806,0.1724,-0.5843,0.1635,0.314,167
12,-1.0704,-0.1571,0.2081,-0.4284,0.1417,0.3456,167
12,-1.001,-0.1387,0.1887,-0.4546,0.1264,0.351,167
12,-0.9408,-0.002,0.2142,-0.4208,0.1047,0.35,167
12,-0.8887,0.1234,0.2571,-0.2966,0.1144,0.3554,167
13,-0.9255,0.203,0.3041,-0.2737,0.1144,0.3412,167
13,-0.8663,0.2173,0.351,-0.2737,0.1144,0.3412,167
13,-0.9316,0.2428,0.3347,-0.3968,0.1286,0.314,167
13,-0.9316,0.2428,0.3347,-0.52,0.1701,0.2779,167
13,-0.9704,0.3204,0.3091,-0.4884,0.1962,0.2594,167
13,-1.0051,0.3622,0.2724,-0.5179,0.2256,0.2409,167
13,-0.9888,0.303,0.2347,-0.6869,0.2321,0.2049,167
13,-0.9806,0.201,0.2133,-0.8199,0.2507,0.1744,167
13,-0.9938,0.2234,0.2265,-0.8384,0.2474,0.1602,167
13,-0.9601,0.2092,0.2071,-0.8427,0.2594,0.1493,167
13,-0.9694,0.105,0.105,-0.9311,0.2779,0.1352,167
13,-0.9816,0.102,0.0887,-0.9311,0.2779,0.1352,167
13,-0.9888,0.0887,0.0714,-0.9746,0.2922,0.1264,167
13,-0.9888,0.0887,0.0714,-0.9582,0.2966,0.1209,167
13,-0.9796,0.0663,0.0602,-0.978,0.2768,0.1209,167
13,-0.9622,0.0479,0.052,-0.9889,0.2617,0.1155,167
13,-0.9673,0.053,0.05,-0.9702,0.2333,0.1242,167
13,-0.9418,0.0275,0.0367,-0.9714,0.2104,0.1297,167
13,-0.954,0.0143,0.0245,-0.9822,0.1875,0.1373,167
13,-0.9316,0.051,0.0377,-0.9397,0.1581,0.1384,167
13,-0.9194,0.0336,0.0163,-0.9278,0.1428,0.1471,167
13,-0.9203,0.0398,0.0326,-0.9278,0.1428,0.1471,167
13,-0.9235,0.0591,0.0153,-0.9256,0.1242,0.1526,167
13,-0.9235,0.0591,0.0153,-0.9005,0.1013,0.1657,167
13,-0.9306,0.0693,0.0347,-0.8874,0.086,0.1744,167
13,-0.952,0.0622,0.0357,-0.9158,0.0686,0.1852,167
13,-0.9724,0.0673,0.0428,-0.9332,0.0555,0.1798,167
13,-0.999,0.105,0.0541,-0.9124,0.0326,0.1896,167
13,-1.0704,0.2092,0.0479,-0.8939,0.0141,0.1864,167
13,-1.0775,0.1938,0.0438,-0.9397,-0.0141,0.1711,167
13,-1.1091,0.1765,0.0163,-1.0183,-0.0414,0.1449,167
13,-1.1153,0.1826,0.0112,-1.0183,-0.0414,0.1449,167
13,-1.1153,0.1826,0.0112,-1.0345,-0.0839,0.1274,167
13,-1.0969,0.2,0.0061,-1.027,-0.1297,0.11,167
13,-1.0745,0.1796,-0.0081,-1.0553,-0.1701,0.0806,167
13,-1.0541,0.151,-0.0153,-1.1087,-0.1962,0.0511,167
13,-1.0316,0.1194,-0.0234,-1.1501,-0.206,0.0206,167
13,-1.0081,0.0643,-0.0326,-1.1611,-0.2169,-0.0097,167
13,-0.9908,0.0265,-0.0469,-1.1654,-0.2169,-0.024,167
13,-0.9826,0.002,-0.0479,-1.1524,-0.2191,-0.0272,167
13,-0.9775,-0.0214,-0.0652,-1.1284,-0.2201,-0.0272,167
13,-0.9765,-0.0051,-0.0693,-1.0848,-0.2093,-0.0196,167
13,-0.9765,-0.0051,-0.0693,-1.0848,-0.2093,-0.0196,167
13,-0.9796,0.0193,-0.0693,-1.0379,-0.2093,-0.0097,167
13,-0.9745,0.0388,-0.0673,-1.0118,-0.2039,-0.0021,167
13,-0.953,0.102,-0.0622,-0.9997,-0.2049,-0.0021,167
13,-0.9561,0.1418,-0.0418,-0.9855,-0.206,-0.0065,167
13,-0.9449,0.1489,-0.0326,-0.9965,-0.2005,-0.0152,167
13,-0.9469,0.1439,-0.0347,-1.0433,-0.1896,-0.0282,167
13,-0.9438,0.1418,-0.0388,-1.0816,-0.1776,-0.0381,167
13,-0.952,0.1439,-0.0286,-1.0923,-0.1766,-0.0446,167
13,-0.9408,0.1122,-0.0316,-1.1196,-0.1701,-0.0599,167
13,-0.953,0.0796,-0.0398,-1.1196,-0.1701,-0.0599,167
13,-0.953,0.0796,-0.0398,-1.1535,-0.1602,-0.0784,167
13,-0.9581,0.0847,-0.0408,-1.1272,-0.1558,-0.0915,167
13,-0.9571,0.0765,-0.0388,-1.0967,-0.1449,-0.1079,167
13,-0.9622,0.05,-0.052,-1.1077,-0.1471,-0.1274,167
13,-0.9663,0.0347,-0.0591,-1.1121,-0.1417,-0.1417,167
13,-0.9653,0.0724,-0.0367,-1.0706,-0.1581,-0.1493,167
13,-0.9551,0.0765,-0.0336,-1.0488,-0.1701,-0.1558,167
13,-0.9438,0.0622,-0.0286,-1.0673,-0.1798,-0.169,167
13,-0.9285,0.0551,-0.0295,-1.0782,-0.1831,-0.1842,167
13,-0.953,0.1163,-0.0449,-1.0782,-0.1831,-0.1842,167
13,-0.9694,0.1469,-0.0316,-1.052,-0.1776,-0.1919,167
13,-0.9694,0.1469,-0.0316,-1.0335,-0.1732,-0.1951,167
13,-0.9897,0.1326,-0.0092,-1.0772,-0.1623,-0.2039,167
13,-1.0245,0.1102,-0.0051,-1.1295,-0.1602,-0.2159,167
13,-1.1683,0.1541,0.0388,-1.1196,-0.1526,-0.2169,167
13,-1.2469,0.152,0.0438,-1.1098,-0.1547,-0.2191,167
13,-1.3143,0.1071,0.0204,-1.1774,-0.1581,-0.2453,167
13,-1.4296,0.0449,-0.0112,-1.209,-0.1842,-0.2823,167
13,-1.449,0.0031,-0.0081,-1.209,-0.1842,-0.2823,167
13,-1.4449,-0.0745,-0.0031,-1.1993,-0.242,-0.2922,167
13,-1.4275,-0.1775,0.0122,-1.2386,-0.3172,-0.3128,167
13,-1.4275,-0.1775,0.0122,-1.2952,-0.4023,-0.3248,167
13,-1.3694,-0.2938,0.0918,-1.2625,-0.4524,-0.3237,167
13,-1.3336,-0.2836,0.1449,-1.123,-0.4841,-0.3019,167
13,-1.3265,-0.2745,0.1837,-0.9746,-0.4568,-0.2823,167
13,-1.2959,-0.2673,0.2183,-0.8819,-0.4317,-0.2442,167
13,-1.2938,-0.1765,0.2551,-0.7958,-0.3771,-0.2159,167
13,-1.3265,-0.1265,0.2765,-0.7632,-0.3052,-0.2039,167
13,-1.3326,-0.0765,0.2551,-0.7031,-0.2344,-0.1896,167
13,-1.3837,0.0183,0.2786,-0.7031,-0.2344,-0.1896,167
13,-1.403,0.0061,0.2622,-0.6672,-0.1722,-0.1972,167
13,-1.3602,-0.0122,0.2704,-0.7293,-0.1581,-0.231,167
13,-1.3602,-0.0122,0.2704,-0.8067,-0.1449,-0.2834,167
13,-1.3439,0.0,0.2704,-0.8155,-0.181,-0.3336,167
13,-1.2867,0.0031,0.2693,-0.8067,-0.2256,-0.387,167
13,-1.1234,-0.0551,0.2888,-0.87,-0.2878,-0.4284,167
13,-1.0286,-0.1428,0.2918,-0.954,-0.3434,-0.4643,167
13,-0.9203,-0.199,0.3224,-0.978,-0.3619,-0.4841,167
13,-0.8541,-0.2112,0.3612,-0.9038,-0.3685,-0.4698,167
13,-0.7163,-0.2245,0.401,-0.9038,-0.3685,-0.4698,167
13,-0.7163,-0.2245,0.401,-0.8678,-0.35,-0.4524,167
13,-0.6622,-0.2836,0.3918,-0.9092,-0.2998,-0.4328,167
13,-0.6622,-0.2836,0.3918,-0.895,-0.2365,-0.3815,167
13,-0.6296,-0.2561,0.3837,-0.846,-0.1951,-0.3357,167
13,-0.5847,-0.3143,0.3541,-0.8634,-0.1352,-0.3609,167
13,-0.5786,-0.352,0.3306,-0.8678,-0.0631,-0.3336,167
13,-0.5796,-0.3561,0.3582,-0.7937,-0.0011,-0.3041,167
13,-0.5948,-0.3571,0.3571,-0.7327,0.0589,-0.2725,167
13,-0.6602,-0.3837,0.2683,-0.6541,0.1875,-0.2605,167
13,-0.7,-0.3347,0.2745,-0.5484,0.2464,-0.2321,167
13,-0.7653,-0.299,0.2296,-0.4992,0.2911,-0.2081,167
13,-0.7969,-0.2898,0.201,-0.5036,0.3151,-0.1896,167
13,-0.7969,-0.249,0.1816,-0.5036,0.3151,-0.1896,167
13,-0.7928,-0.1908,0.1847,-0.4536,0.3302,-0.1667,167
13,-0.7928,-0.1908,0.1847,-0.3848,0.3237,-0.1384,167
14,-0.7653,-0.1275,0.1775,-0.3761,0.3128,-0.1264,167
14,-0.7571,-0.1337,0.1663,-0.4175,0.2966,-0.1232,167
14,-0.7438,-0.1255,0.1642,-0.4469,0.3019,-0.1188,167
14,-0.7397,-0.1255,0.1592,-0.4622,0.2976,-0.1133,167
14,-0.7367,-0.1703,0.1489,-0.4916,0.3031,-0.1057,167
14,-0.7499,-0.2071,0.1449,-0.52,0.3107,-0.1003,167
14,-0.7142,-0.2275,0.1265,-0.5015,0.3227,-0.0915,167
14,-0.751,-0.1938,0.1367,-0.5015,0.3227,-0.0915,167
14,-0.7745,-0.2316,0.1428,-0.4492,0.3325,-0.0795,167
14,-0.7745,-0.2316,0.1428,-0.4338,0.338,-0.0719,167
14,-0.8255,-0.302,0.1153,-0.4938,0.339,-0.0784,167
14,-0.8286,-0.3286,0.0796,-0.4731,0.3466,-0.0698,167
14,-0.8643,-0.2551,0.0898,-0.3302,0.339,-0.037,167
14,-0.8724,-0.2377,0.0612,-0.2943,0.326,-0.0206,167
14,-0.9041,-0.299,0.0214,-0.3826,0.314,-0.0282,167
14,-0.8949,-0.3051,0.0092,-0.3565,0.2943,-0.0272,167
14,-0.9265,-0.2285,0.0428,-0.2268,0.2693,-0.0131,167
14,-0.9428,-0.2163,0.0438,-0.2268,0.2693,-0.0131,167
14,-0.9561,-0.2531,0.0163,-0.2201,0.2354,-0.0174,167
14,-0.9561,-0.2531,0.0163,-0.2932,0.2234,-0.0316,167
14,-0.9469,-0.2316,0.0132,-0.2583,0.1864,-0.0316,167
14,-0.9592,-0.1703,0.0326,-0.1875,0.1526,-0.0162,167
14,-0.9469,-0.1938,0.0224,-0.2289,0.1177,-0.0174,167
14,-0.9408,-0.2469,0.0092,-0.3008,0.098,-0.0294,167
14,-0.95,-0.25,0.0143,-0.267,0.0664,-0.0272,167
14,-0.9724,-0.1765,0.0438,-0.2005,0.0392,-0.0131,167
14,-1.0163,-0.1744,0.053,-0.2125,0.0131,-0.0076,167
14,-0.9734,-0.2255,0.0245,-0.2125,0.0131,-0.0076,167
14,-0.9734,-0.2255,0.0245,-0.2682,-0.0162,-0.0032,167
14,-0.9479,-0.25,0.0102,-0.2768,-0.0435,-0.0043,167
14,-0.9479,-0.25,0.0102,-0.2278,-0.0708,-0.0021,167
14,-0.9673,-0.2765,0.0122,-0.2125,-0.0784,-0.0021,167
14,-0.9704,-0.3193,-0.0061,-0.23,-0.1013,0.0053,167
14,-0.9918,-0.3143,0.0,-0.1852,-0.1089,0.0261,167
14,-0.9592,-0.252,0.0102,-0.1079,-0.1362,0.0523,167
14,-0.9438,-0.2643,0.004,-0.0948,-0.1482,0.061,167
14,-0.9367,-0.2786,-0.0092,-0.1024,-0.1678,0.0686,167
14,-0.9387,-0.252,0.0031,-0.049,-0.1766,0.0828,167
14,-0.9449,-0.1918,0.0469,-0.049,-0.1766,0.0828,167
14,-0.9449,-0.1918,0.0469,-0.012,-0.1864,0.1047,167
14,-0.9428,-0.2112,0.049,-0.0402,-0.193,0.1232,167
14,-0.9469,-0.2133,0.0347,-0.0501,-0.193,0.1396,167
14,-0.949,-0.1796,0.0449,-0.0087,-0.1972,0.1547,167
14,-1.0163,-0.1816,0.0602,-0.0141,-0.1984,0.1678,167
14,-1.0265,-0.2479,0.0295,-0.0806,-0.2016,0.1667,167
14,-1.0418,-0.2745,0.0183,-0.0925,-0.2125,0.1701,167
14,-1.0388,-0.2745,0.0102,-0.036,-0.2256,0.1787,167
14,-1.0255,-0.302,0.0102,-0.0152,-0.2376,0.1886,167
14,-1.0102,-0.3469,0.0031,-0.0152,-0.2376,0.1886,167
14,-1.0102,-0.3469,0.0031,-0.0316,-0.2518,0.1962,167
14,-1.0092,-0.3591,0.0102,0.0185,-0.2594,0.2245,167
14,-0.9959,-0.3479,0.0173,0.0872,-0.255,0.2617,167
14,-0.9806,-0.355,0.0153,0.1144,-0.2388,0.2932,167
14,-0.999,-0.3653,0.0388,0.1438,-0.218,0.3248,167
14,-1.0479,-0.3632,0.0877,0.1995,-0.1852,0.3609,167
14,-1.1061,-0.3612,0.1306,0.2495,-0.1461,0.3958,167
14,-1.2459,-0.249,0.1663,0.3183,-0.1035,0.4361,167
14,-1.2734,-0.1377,0.1785,0.3935,-0.0774,0.483,167
14,-1.3326,-0.0887,0.1887,0.3935,-0.0774,0.483,167
14,-1.351,-0.0408,0.2163,0.3826,-0.0457,0.5059,167
14,-1.351,-0.0408,0.2163,0.3489,-0.0305,0.5179,167
14,-1.4224,0.0388,0.25,0.3107,-0.0206,0.5221,167
14,-1.4347,0.051,0.249,0.2365,-0.0294,0.5385,167
14,-1.4734,0.0326,0.2326,0.1341,-0.0294,0.5309,167
14,-1.499,-0.0551,0.2112,0.0435,-0.036,0.5179,167
14,-1.501,-0.0847,0.201,0.0108,-0.0534,0.5004,167
14,-1.4999,-0.0775,0.2265,0.0425,-0.0763,0.4862,167
14,-1.4592,-0.0867,0.2347,0.0457,-0.1079,0.4666,167
14,-1.3357,-0.103,0.1867,0.0305,-0.1274,0.4307,167
14,-1.2571,-0.0786,0.1755,0.0305,-0.1274,0.4307,167
14,-1.1755,-0.0541,0.1775,0.0719,-0.1537,0.4034,167
14,-1.1755,-0.0541,0.1775,0.1133,-0.1787,0.3783,167
14,-1.0928,-0.052,0.2061,0.1089,-0.2104,0.3521,167
14,-0.9347,-0.1071,0.3061,0.0806,-0.231,0.339,167
14,-0.853,-0.101,0.3459,0.1133,-0.2321,0.338,167
14,-0.799,-0.0316,0.3643,0.1962,-0.2169,0.3477,167
14,-0.7775,0.0193,0.3561,0.2115,-0.1701,0.3542,167
14,-0.749,0.004,0.3367,0.1623,-0.1079,0.3575,167
14,-0.7194,0.0551,0.355,0.2071,-0.0698,0.3685,167
14,-0.7163,0.1122,0.3796,0.2071,-0.0698,0.3685,167
14,-0.702,0.1041,0.3541,0.2388,-0.0402,0.3695,167
14,-0.702,0.1041,0.3541,0.1667,0.0021,0.3434,167
14,-0.6949,0.0979,0.3122,0.1264,0.0425,0.3193,167
14,-0.699,0.1449,0.3255,0.157,0.0784,0.3041,167
14,-0.7194,0.1489,0.3214,0.11,0.1144,0.2834,167
14,-0.7367,0.0877,0.2745,0.0141,0.1493,0.2539,167
14,-0.8041,0.0541,0.203,0.0174,0.1852,0.2398,167
14,-0.8296,0.0867,0.1928,0.085,0.194,0.2365,167
14,-0.8367,0.0734,0.1775,0.085,0.194,0.2365,167
14,-0.8367,0.0734,0.1775,0.0643,0.2005,0.2234,167
14,-0.8398,0.0479,0.1439,0.0425,0.1972,0.2115,167
14,-0.8398,0.0479,0.1439,0.0925,0.1776,0.2115,167
14,-0.8398,0.0775,0.151,0.1318,0.1635,0.2125,167
14,-0.8357,0.0684,0.1357,0.1024,0.1503,0.2071,167
14,-0.8377,0.052,0.1091,0.0904,0.1461,0.1962,167
14,-0.8489,0.0847,0.1102,0.1341,0.1274,0.1972,167
14,-0.8459,0.1,0.103,0.1406,0.1167,0.1896,167
14,-0.8479,0.0877,0.0969,0.1035,0.1035,0.1755,167
14,-0.8612,0.0877,0.0939,0.0992,0.0839,0.1701,167
14,-0.8785,0.105,0.102,0.0992,0.0839,0.1701,167
14,-0.8785,0.105,0.102,0.1167,0.0631,0.1613,167
14,-0.8694,0.105,0.0928,0.1112,0.0402,0.1537,167
14,-0.8796,0.101,0.0867,0.0959,0.0131,0.1428,167
14,-0.8837,0.1132,0.1132,0.1123,-0.0479,0.1352,167
14,-0.8837,0.1132,0.1132,0.0818,-0.0708,0.1242,167
14,-0.8989,0.0939,0.1112,0.061,-0.0883,0.1167,167
14,-0.9081,0.1041,0.1173,0.0784,-0.1079,0.1155,167
14,-0.8785,0.0867,0.0969,0.0698,-0.1188,0.1123,167
14,-0.9173,0.0714,0.0734,0.0414,-0.1297,0.1057,167
14,-0.9041,0.0673,0.053,0.0719,-0.1471,0.1035,167
15,-0.9194,0.1102,0.0724,0.1112,-0.1646,0.1035,167
15,-0.9224,0.105,0.0806,0.0948,-0.1842,0.0925,167
15,-0.9224,0.1,0.0786,0.0937,-0.2039,0.0795,167
15,-0.9061,0.1377,0.0928,0.0937,-0.2039,0.0795,167
15,-0.9061,0.1377,0.0928,0.1384,-0.23,0.074,167
15,-0.8796,0.199,0.1183,0.1308,-0.2388,0.0566,167
15,-0.8949,0.1744,0.1194,0.0621,-0.231,0.0337,167
15,-0.8796,0.1653,0.1173,0.037,-0.2409,0.012,167
15,-0.8857,0.1938,0.1204,0.0479,-0.2388,-0.0043,167
15,-0.8673,0.2285,0.1173,0.0217,-0.2398,-0.0261,167
15,-0.8785,0.204,0.1132,-0.0446,-0.23,-0.0566,167
15,-0.8877,0.1867,0.1122,-0.073,-0.2213,-0.0883,167
15,-0.903,0.1867,0.1245,-0.0675,-0.2147,-0.1155,167
15,-0.8989,0.1653,0.1316,-0.0751,-0.2115,-0.1526,167
15,-0.8806,0.1449,0.1316,-0.0751,-0.2115,-0.1526,167
15,-0.8806,0.1449,0.1316,-0.0839,-0.2081,-0.182,167
15,-0.8755,0.1398,0.1428,-0.074,-0.194,-0.2104,167
15,-0.8602,0.0948,0.1551,-0.0719,-0.181,-0.2354,167
15,-0.852,0.0591,0.1541,-0.0795,-0.1515,-0.2573,167
15,-0.8673,0.0347,0.1469,-0.0511,-0.1155,-0.2682,167
15,-0.8816,0.0428,0.1602,0.0097,-0.0795,-0.2703,167
15,-0.8816,0.0428,0.1602,0.0097,-0.0795,-0.2703,167
15,-0.9826,0.0428,0.1561,0.0523,0.0011,-0.2844,167
15,-1.049,0.0745,0.1744,0.1167,0.0337,-0.2823,167
15,-1.0939,0.1153,0.2081,0.1167,0.0337,-0.2823,167
15,-1.1867,0.1143,0.2592,0.1537,0.0599,-0.2812,167
15,-1.1867,0.1143,0.2592,0.1362,0.0904,-0.2823,167
15,-1.2367,0.1265,0.3387,0.1396,0.1089,-0.2802,167
15,-1.3184,0.1642,0.4112,0.1787,0.1341,-0.2725,167
15,-1.401,0.1877,0.4214,0.1308,0.1623,-0.267,167
15,-1.4785,0.151,0.2795,0.0282,0.1842,-0.2737,167
15,-1.4714,0.1632,0.2285,-0.0162,0.2027,-0.2856,167
15,-1.4633,0.152,0.2326,-0.0784,0.2005,-0.3193,167
15,-1.4633,0.0918,0.2357,-0.1667,0.1962,-0.3641,167
15,-1.4918,0.049,0.2979,-0.1667,0.1962,-0.3641,167
15,-1.4999,0.0857,0.3071,-0.1461,0.2071,-0.4023,167
15,-1.4999,0.0857,0.3071,-0.0915,0.1972,-0.4109,167
15,-1.5102,0.1132,0.2928,-0.1155,0.1787,-0.4284,167
15,-1.4683,0.101,0.2275,-0.1711,0.1308,-0.4557,167
15,-1.3377,0.1194,0.2234,-0.194,0.0621,-0.4841,167
15,-1.2449,0.0786,0.2561,-0.2779,-0.0087,-0.5112,167
15,-1.1326,0.0031,0.2918,-0.3783,-0.061,-0.545,167
15,-1.0428,-0.052,0.3367,-0.4034,-0.0872,-0.5604,168
15,-0.8571,-0.1387,0.3969,-0.4034,-0.0872,-0.5604,168
15,-0.8306,-0.1826,0.3969,-0.424,-0.1003,-0.557,168
15,-0.7622,-0.1918,0.3877,-0.4546,-0.0708,-0.5549,168
15,-0.7622,-0.1918,0.3877,-0.4666,-0.0511,-0.5374,168
15,-0.7561,-0.249,0.352,-0.4458,0.0316,-0.5156,168
15,-0.6877,-0.2367,0.3489,-0.3434,0.0992,-0.4622,168
15,-0.6714,-0.2071,0.352,-0.3314,0.1373,-0.4437,168
15,-0.699,-0.2551,0.302,-0.4055,0.2027,-0.4338,168
15,-0.6969,-0.3081,0.2561,-0.3914,0.242,-0.3968,168
15,-0.6979,-0.3,0.2734,-0.3096,0.2791,-0.351,168
15,-0.7347,-0.3163,0.2469,-0.2943,0.3248,-0.3248,168
15,-0.7438,-0.3632,0.2071,-0.2943,0.3248,-0.3248,168
15,-0.7438,-0.3632,0.2071,-0.2714,0.3641,-0.3063,168
15,-0.8265,-0.2357,0.1581,-0.1515,0.3935,-0.2649,168
15,-0.8265,-0.2357,0.1581,-0.0196,0.4023,-0.2344,168
15,-0.8357,-0.1959,0.153,-0.0185,0.4065,-0.2256,168
15,-0.8387,-0.2153,0.1245,-0.0523,0.4044,-0.2213,168
15,-0.802,-0.1316,0.1234,0.0108,0.3804,-0.2081,168
15,-0.7857,-0.0948,0.1377,0.0305,0.3554,-0.1984,168
15,-0.7786,-0.1102,0.1163,-0.0501,0.3597,-0.2005,168
15,-0.7734,-0.1296,0.101,-0.0828,0.3609,-0.193,168
15,-0.7795,-0.0877,0.1082,-0.0457,0.3586,-0.1701,168
15,-0.7795,-0.0877,0.1082,-0.0457,0.3586,-0.1701,168
15,-0.7806,-0.0867,0.1082,-0.0698,0.35,-0.1581,168
15,-0.7959,-0.1306,0.0775,-0.1438,0.3477,-0.1558,168
15,-0.7908,-0.1744,0.0479,-0.1318,0.3281,-0.1428,168
15,-0.7918,-0.1541,0.05,-0.0784,0.3019,-0.1308,168
15,-0.8,-0.1703,0.0398,-0.0969,0.2834,-0.1264,168
15,-0.8143,-0.2101,0.0224,-0.1188,0.2638,-0.1221,168
15,-0.8347,-0.2092,0.0204,-0.0631,0.2409,-0.1089,168
15,-0.8591,-0.1632,0.0286,-0.0228,0.2071,-0.1057,168
15,-0.8775,-0.1612,0.0193,-0.0381,0.1875,-0.1144,168
15,-0.8775,-0.1581,0.0132,-0.0381,0.1875,-0.1144,168
15,-0.8775,-0.1581,0.0132,-0.0294,0.1558,-0.1242,168
15,-0.9,-0.1428,0.0336,-0.0228,0.1221,-0.1286,168
15,-0.9398,-0.1551,0.0347,-0.049,0.098,-0.1286,168
15,-0.9398,-0.1816,0.0224,-0.0621,0.0719,-0.1232,168
15,-0.9663,-0.1796,0.0163,-0.0402,0.0545,-0.1177,168
15,-0.9857,-0.1703,0.0173,-0.024,0.0294,-0.1155,168
15,-1.0061,-0.1837,0.0102,-0.0381,0.0131,-0.1198,168
15,-1.0031,-0.2081,-0.0061,-0.0435,-0.0131,-0.1167,168
15,-1.0122,-0.2163,-0.0193,-0.0272,-0.0349,-0.1057,168
15,-1.0163,-0.2357,-0.0234,-0.0272,-0.0349,-0.1057,168
15,-1.0245,-0.2602,-0.0122,-0.0076,-0.0664,-0.0883,168
15,-1.0245,-0.2602,-0.0122,-0.0043,-0.0894,-0.0763,168
15,-1.0275,-0.2816,-0.0102,0.0196,-0.1155,-0.0599,168
15,-1.0347,-0.2663,-0.0061,0.0883,-0.1341,-0.0349,168
15,-1.0388,-0.1898,-0.0031,0.1297,-0.1503,-0.0174,168
15,-1.0336,-0.1969,-0.004,0.1047,-0.1678,-0.0065,168
15,-1.0306,-0.2061,-0.0112,0.098,-0.1766,0.0076,168
15,-1.0286,-0.1816,0.0031,0.1329,-0.1886,0.0261,168
15,-1.0336,-0.1326,0.0132,0.1264,-0.1972,0.0414,168
15,-1.0326,-0.1418,-0.0061,0.1264,-0.1972,0.0414,168
15,-1.0347,-0.1459,-0.0183,0.0839,-0.2093,0.0501,168
15,-1.0347,-0.1459,-0.0183,0.074,-0.2224,0.0599,168
15,-1.0214,-0.1439,-0.0204,0.0784,-0.2495,0.0621,168
15,-1.0081,-0.1857,-0.0183,0.0555,-0.2758,0.0664,168
15,-0.9897,-0.2204,-0.0132,0.0425,-0.2966,0.0686,168
15,-0.9714,-0.2234,-0.0061,0.0818,-0.3151,0.086,168
15,-0.9438,-0.2133,0.0061,0.1123,-0.3292,0.1047,168
15,-0.901,-0.2357,0.0265,0.1384,-0.3096,0.1482,168
15,-0.901,-0.2326,0.0469,0.1646,-0.2899,0.1766,168
15,-0.9112,-0.2459,0.0469,0.1547,-0.2617,0.1962,168
15,-0.9296,-0.2704,0.0388,0.1907,-0.2453,0.2213,168
15,-0.9561,-0.2357,0.0408,0.2529,-0.2201,0.2507,168
15,-0.9704,-0.1949,0.0541,0.2529,-0.2201,0.2507,168
15,-0.9704,-0.1949,0.0541,0.2617,-0.2081,0.2758,168
16,-1.1,-0.2745,0.1724,0.2136,-0.1886,0.2867,168
16,-1.1,-0.2745,0.1724,0.1678,-0.169,0.2966,168
16,-1.1744,-0.2888,0.2122,0.1984,-0.1341,0.3172,168
16,-1.2775,-0.2581,0.2183,0.2627,-0.0904,0.3434,168
16,-1.3255,-0.1296,0.1602,0.2998,-0.1035,0.3848,168
16,-1.3796,-0.0887,0.1561,0.3031,-0.1013,0.4034,168
16,-1.3806,-0.0336,0.1847,0.3052,-0.1396,0.4229,168
16,-1.3755,0.0031,0.2214,0.2747,-0.1701,0.4317,168
16,-1.3928,0.0102,0.303,0.2027,-0.1896,0.4307,168
16,-1.4142,-0.0143,0.3071,0.2027,-0.1896,0.4307,168
16,-1.4142,-0.0143,0.3071,0.1264,-0.1907,0.4109,168
16,-1.4194,-0.0591,0.2867,0.0883,-0.2005,0.3914,168
16,-1.3979,-0.0551,0.2786,0.0698,-0.206,0.363,168
16,-1.3602,-0.1214,0.2428,0.0698,-0.2071,0.3456,168
16,-1.3051,-0.1275,0.2255,0.1035,-0.2321,0.3346,168
16,-1.252,-0.1346,0.2214,0.1286,-0.2485,0.3193,168
16,-1.1785,-0.1306,0.2204,0.1678,-0.2714,0.3107,168
16,-1.0122,-0.0959,0.2693,0.2201,-0.2856,0.2966,168
16,-0.9275,-0.0816,0.3184,0.2485,-0.2932,0.2834,168
16,-0.8541,-0.0652,0.3673,0.2485,-0.2932,0.2834,168
16,-0.8541,-0.0652,0.3673,0.2659,-0.2834,0.2779,168
16,-0.8173,-0.0541,0.3806,0.3031,-0.2344,0.2779,168
16,-0.7551,0.0479,0.4122,0.3412,-0.1886,0.2911,168
16,-0.7388,0.0867,0.4142,0.3248,-0.1297,0.3031,168
16,-0.7214,0.1,0.4092,0.2703,-0.0751,0.3041,168
16,-0.7224,0.105,0.3867,0.2256,-0.0206,0.2998,168
16,-0.7347,0.1337,0.3408,0.2093,0.0294,0.2987,168
16,-0.7428,0.1398,0.3377,0.1732,0.0719,0.2844,168
16,-0.7581,0.1285,0.3296,0.1198,0.11,0.2617,168
16,-0.7867,0.1153,0.3245,0.1198,0.11,0.2617,168
16,-0.8367,0.0918,0.2888,0.0828,0.1352,0.2388,168
16,-0.8367,0.0918,0.2888,0.074,0.1581,0.2125,168
16,-0.8561,0.0887,0.2643,0.0654,0.1744,0.193,168
16,-0.851,0.0836,0.2428,0.0469,0.1722,0.1798,168
16,-0.8122,0.0469,0.2234,0.0217,0.1852,0.1701,168
16,-0.8132,0.0153,0.2092,0.0021,0.1919,0.1623,168
16,-0.8102,-0.0122,0.1837,0.0217,0.2016,0.1602,168
16,-0.8184,-0.0132,0.1724,0.0751,0.2093,0.169,168
16,-0.8367,0.0102,0.1602,0.11,0.2159,0.1722,168
16,-0.8357,0.0163,0.1449,0.1308,0.2125,0.1744,168
16,-0.8489,0.0295,0.1387,0.1308,0.2125,0.1744,168
16,-0.855,0.0336,0.1337,0.1438,0.2081,0.1711,168
16,-0.855,0.0336,0.1337,0.1482,0.2027,0.1623,168
16,-0.8846,0.0326,0.1224,0.1526,0.1972,0.1482,168
16,-0.8846,0.0418,0.1214,0.1701,0.1787,0.1341,168
16,-0.8949,0.051,0.1153,0.1787,0.1635,0.1167,168
16,-0.8908,0.0561,0.1082,0.1776,0.1406,0.1047,168
16,-0.8796,0.0581,0.1082,0.1732,0.1221,0.0904,168
16,-0.8663,0.0428,0.101,0.1667,0.1003,0.0774,168
16,-0.8755,0.0449,0.1061,0.1667,0.1003,0.0774,168
16,-0.8489,0.0469,0.1082,0.1787,0.086,0.0643,168
16,-0.8643,0.0316,0.1071,0.1962,0.073,0.0545,168
16,-0.8643,0.0316,0.1071,0.1907,0.0664,0.0469,168
16,-0.8704,0.0214,0.101,0.1984,0.0686,0.0414,168
16,-0.8846,0.0275,0.1041,0.2344,0.0664,0.036,168
16,-0.8806,0.0398,0.0939,0.2617,0.0654,0.0272,168
16,-0.8969,0.0724,0.0918,0.2714,0.0469,0.0162,168
16,-0.9255,0.0887,0.0918,0.2758,0.0425,0.0087,168
16,-0.9183,0.0979,0.0939,0.2768,0.0272,-0.0032,168
16,-0.9316,0.1122,0.0989,0.2583,0.0272,-0.0108,168
16,-0.9561,0.1041,0.0908,0.2583,0.0272,-0.0108,168
16,-0.9704,0.1112,0.0796,0.2388,0.0174,-0.0174,168
16,-0.9704,0.1112,0.0796,0.2442,0.0021,-0.0185,168
16,-0.9775,0.1296,0.0765,0.2474,-0.0011,-0.0174,168
16,-0.9867,0.1398,0.0663,0.2191,-0.0087,-0.0228,168
16,-1.0092,0.1285,0.0571,0.1919,-0.0196,-0.036,168
16,-1.0183,0.1285,0.052,0.1972,-0.037,-0.0511,168
16,-1.0275,0.1479,0.052,0.2039,-0.0621,-0.061,168
16,-1.0051,0.1632,0.049,0.1744,-0.0806,-0.085,168
16,-1.002,0.1541,0.0469,0.1396,-0.0959,-0.1003,168
16,-1.0051,0.15,0.0469,0.1396,-0.0959,-0.1003,168
16,-1.0051,0.15,0.0469,0.1318,-0.1079,-0.1242,168
16,-1.0061,0.1561,0.0479,0.1264,-0.1264,-0.1449,168
16,-1.0173,0.1694,0.0367,0.1047,-0.1438,-0.1417,168
16,-1.0173,0.1714,0.0224,0.0828,-0.1602,-0.1515,168
16,-1.0071,0.2051,0.0173,0.0839,-0.194,-0.1635,168
16,-0.9836,0.2326,0.0245,0.0523,-0.2245,-0.1864,168
16,-0.9571,0.2071,0.0469,-0.0043,-0.2485,-0.2191,168
16,-0.9408,0.1806,0.0622,-0.0294,-0.2627,-0.2485,168
16,-0.9285,0.1703,0.0877,-0.0305,-0.2627,-0.2617,168
16,-0.9142,0.1683,0.1082,-0.0643,-0.2453,-0.267,168
16,-0.9142,0.1683,0.1082,-0.0643,-0.2453,-0.267,168
16,-0.9173,0.0898,0.0979,-0.1013,-0.2115,-0.2693,168
16,-0.9408,0.0847,0.1112,-0.086,-0.1886,-0.2605,168
16,-0.9408,0.0326,0.1224,-0.0774,-0.1547,-0.255,168
16,-1.0173,0.0102,0.1408,-0.0261,-0.1329,-0.2453,168
16,-1.1091,0.0347,0.2592,0.0381,-0.1024,-0.2321,168
16,-1.15,0.0755,0.303,0.0392,-0.0774,-0.2268,168
16,-1.2428,0.0449,0.2898,0.0392,-0.0774,-0.2268,168
16,-1.2959,0.0092,0.252,-0.0152,0.0282,-0.255,168
16,-1.4153,-0.0316,0.1541,-0.0228,0.0282,-0.2573,168
16,-1.3745,-0.0652,0.1428,-0.0228,0.0282,-0.2573,168
16,-1.3745,-0.0652,0.1428,-0.0392,0.0065,-0.267,168
16,-1.3898,-0.1163,0.1367,-0.0206,-0.0097,-0.2812,168
16,-1.3439,-0.1285,0.1765,-0.0206,-0.0097,-0.2812,168
16,-1.3061,-0.0704,0.249,0.0545,-0.0392,-0.2758,168
16,-1.2918,-0.0428,0.2949,0.1068,-0.0599,-0.2627,168
16,-1.3081,-0.0428,0.3357,0.0883,-0.074,-0.2529,168
16,-1.3204,0.0092,0.3704,0.0698,-0.0839,-0.2344,168
16,-1.3214,0.0796,0.3663,0.0774,-0.0784,-0.2245,168
16,-1.3224,0.1663,0.3673,0.1035,-0.061,-0.2104,168
16,-1.3102,0.2112,0.3622,0.1035,-0.061,-0.2104,168
16,-1.2561,0.2101,0.3041,0.0698,-0.0457,-0.2321,168
16,-1.1255,0.1428,0.2653,-0.2605,-0.1079,-0.3783,168
16,-1.0316,0.0734,0.2928,-0.2605,-0.1079,-0.3783,168
16,-0.9061,-0.1551,0.3561,-0.3838,-0.1547,-0.4219,168
16,-0.9061,-0.1551,0.3561,-0.5059,-0.2049,-0.4622,168
16,-0.802,-0.2479,0.3622,-0.5745,-0.2191,-0.4862,168
16,-0.7898,-0.2918,0.3663,-0.557,-0.2169,-0.496,168
16,-0.7704,-0.303,0.3775,-0.4992,-0.1602,-0.4797,168
16,-0.7316,-0.4112,0.2898,-0.495,-0.1188,-0.5135,168
17,-0.7,-0.401,0.2816,-0.4557,-0.0381,-0.4677,168
17,-0.6837,-0.3877,0.3112,-0.3466,-0.0196,-0.4273,168
17,-0.7051,-0.4408,0.2928,-0.3466,-0.0196,-0.4273,168
17,-0.7173,-0.5081,0.252,-0.338,0.0162,-0.4557,168
17,-0.7071,-0.5214,0.2183,-0.3674,0.0414,-0.4404,168
17,-0.7071,-0.5214,0.2183,-0.3008,0.0839,-0.3804,168
17,-0.7306,-0.5061,0.199,-0.206,0.1242,-0.3422,168
17,-0.7275,-0.4601,0.1979,-0.0784,0.1678,-0.3325,168
17,-0.7683,-0.3612,0.1826,0.0174,0.1896,-0.2966,168
17,-0.751,-0.3214,0.1785,0.0414,0.2136,-0.2682,168
17,-0.7602,-0.2388,0.1837,0.0992,0.2201,-0.2518,168
17,-0.751,-0.1735,0.1765,0.1461,0.2256,-0.2474,168
17,-0.7296,-0.1204,0.152,0.1155,0.2278,-0.2562,168
17,-0.7122,-0.1173,0.1398,0.1155,0.2278,-0.2562,168
17,-0.7122,-0.1173,0.1398,0.0566,0.23,-0.267,168
17,-0.7081,-0.1102,0.153,0.0131,0.2333,-0.2725,168
17,-0.701,-0.1173,0.1469,-0.0261,0.2409,-0.2573,168
17,-0.7163,-0.1581,0.1398,-0.0763,0.2518,-0.2365,168
17,-0.7285,-0.1724,0.1275,-0.1079,0.2594,-0.2147,168
17,-0.752,-0.1826,0.1245,-0.1089,0.2649,-0.1842,168
17,-0.8071,-0.2367,0.0939,-0.1167,0.2594,-0.1581,168
17,-0.8387,-0.2632,0.0786,-0.1274,0.2474,-0.1373,168
17,-0.8663,-0.2693,0.0734,-0.1112,0.23,-0.1133,168
17,-0.8898,-0.2551,0.0745,-0.0675,0.2027,-0.0883,168
17,-0.8898,-0.2551,0.0745,-0.0675,0.2027,-0.0883,168
17,-0.9132,-0.2438,0.0673,-0.0435,0.1722,-0.0675,168
17,-0.902,-0.2336,0.0745,-0.0337,0.1373,-0.0501,168
17,-0.903,-0.2214,0.0796,-0.0196,0.1013,-0.0392,168
17,-0.9051,-0.202,0.0969,-0.0032,0.0751,-0.0326,168
17,-0.9183,-0.2173,0.1061,-0.0065,0.0599,-0.0305,168
17,-0.9357,-0.2428,0.0959,-0.0272,0.0511,-0.0294,168
17,-0.951,-0.251,0.0857,-0.024,0.0446,-0.0261,168
17,-0.9622,-0.249,0.0765,-0.0032,0.036,-0.0108,168
17,-1.0,-0.3061,0.049,-0.0021,0.0217,0.0,168
17,-1.0031,-0.3357,0.0245,-0.0021,0.0217,0.0,168
17,-1.0031,-0.3357,0.0245,-0.0174,0.0065,0.0053,168
17,-1.0102,-0.3418,0.0153,0.0185,-0.0162,0.0217,168
17,-1.0183,-0.3234,0.0173,0.0904,-0.0457,0.0435,168
17,-1.0163,-0.3143,0.0102,0.1384,-0.0795,0.0664,168
17,-1.004,-0.3163,0.0061,0.1591,-0.1047,0.0883,168
17,-1.0051,-0.2949,0.0173,0.1972,-0.1341,0.1133,168
17,-1.001,-0.2724,0.0326,0.2376,-0.1547,0.1406,168
17,-1.0112,-0.2408,0.0561,0.2518,-0.1711,0.1657,168
17,-0.9938,-0.2224,0.0449,0.2627,-0.181,0.1864,168
17,-0.9877,-0.1918,0.0469,0.2627,-0.181,0.1864,168
17,-0.9755,-0.1571,0.0388,0.2802,-0.193,0.2093,168
17,-0.9755,-0.1571,0.0388,0.2823,-0.1984,0.218,168
17,-0.9673,-0.153,0.05,0.2659,-0.2081,0.2245,168
17,-0.9592,-0.1449,0.0541,0.2518,-0.2147,0.2278,168
17,-0.9428,-0.1245,0.0663,0.2453,-0.2213,0.2321,168
17,-0.9183,-0.1122,0.0734,0.231,-0.2213,0.2354,168
17,-0.8939,-0.1377,0.0693,0.1787,-0.2213,0.2376,168
17,-0.9122,-0.1683,0.0632,0.1198,-0.2213,0.2398,168
17,-0.9316,-0.1724,0.0796,0.1198,-0.2213,0.2398,168
17,-0.9306,-0.2245,0.0928,0.1112,-0.2169,0.2594,168
17,-0.9235,-0.2459,0.0948,0.1035,-0.2115,0.2714,168
17,-0.9235,-0.2459,0.0948,0.0806,-0.1951,0.2856,168
17,-0.9316,-0.2459,0.0877,0.1024,-0.1678,0.3031,168
17,-0.9449,-0.2265,0.0877,0.1417,-0.1384,0.3227,168
17,-0.9949,-0.2275,0.0928,0.1396,-0.1089,0.339,168
17,-1.0388,-0.2602,0.1306,0.1112,-0.0969,0.3532,168
17,-1.1041,-0.3081,0.1785,0.0839,-0.0818,0.3586,168
17,-1.1775,-0.3796,0.1949,0.0589,-0.0523,0.3695,168
17,-1.2969,-0.3591,0.1632,0.1123,-0.0162,0.3914,168
17,-1.3122,-0.249,0.1765,0.1123,-0.0162,0.3914,168
17,-1.3377,-0.1724,0.1775,0.2583,-0.0174,0.4382,168
17,-1.3377,-0.1724,0.1775,0.3717,-0.0479,0.495,168
17,-1.3582,-0.1082,0.1887,0.3717,-0.0664,0.5145,168
17,-1.301,0.0132,0.2612,0.3619,-0.1286,0.5265,168
17,-1.254,0.0673,0.3306,0.3706,-0.1461,0.5309,168
17,-1.252,0.0571,0.3734,0.3041,-0.1537,0.508,168
17,-1.2683,-0.0245,0.3622,0.1678,-0.1253,0.4687,168
17,-1.3245,-0.0979,0.3336,0.1144,-0.1003,0.4393,168
17,-1.3224,-0.1112,0.3336,0.0969,-0.0381,0.4099,168
17,-1.3184,-0.1285,0.3041,0.0915,-0.0185,0.3859,168
17,-1.3653,-0.1653,0.2479,0.0915,-0.0185,0.3859,168
17,-1.2755,-0.1163,0.2336,0.0925,0.0053,0.3706,168
17,-1.2755,-0.1163,0.2336,0.1526,-0.025,0.375,168
17,-1.2183,-0.0979,0.2316,0.206,-0.0446,0.3597,168
17,-1.1153,-0.0806,0.2336,0.2442,-0.0806,0.3554,168
17,-1.051,-0.0347,0.2816,0.2987,-0.1112,0.3532,168
17,-0.9092,0.0408,0.3796,0.3434,-0.1396,0.3619,168
17,-0.8469,0.0591,0.401,0.3368,-0.1406,0.3641,168
17,-0.8214,0.0775,0.4081,0.3205,-0.1232,0.3729,168
17,-0.7857,0.0928,0.4051,0.3085,-0.0872,0.3761,168
17,-0.7724,0.1194,0.3949,0.3085,-0.0872,0.3761,168
17,-0.7724,0.1194,0.3949,0.3183,-0.0479,0.3804,168
17,-0.7765,0.1541,0.3887,0.3532,-0.0043,0.3804,168
17,-0.7857,0.1755,0.3704,0.3445,0.0425,0.3695,168
17,-0.8152,0.2234,0.3785,0.3193,0.0784,0.35,168
17,-0.8428,0.2357,0.3561,0.2867,0.1047,0.3271,168
17,-0.8765,0.2479,0.3336,0.2388,0.1242,0.2976,168
17,-0.9153,0.2479,0.2949,0.1907,0.1362,0.2627,168
17,-0.9347,0.2306,0.249,0.1449,0.1341,0.2147,168
17,-0.9337,0.2397,0.2531,0.1123,0.1198,0.1635,168
17,-0.9122,0.2581,0.2571,0.1123,0.1198,0.1635,168
17,-0.9122,0.2581,0.2571,0.0883,0.1035,0.1852,168
17,-0.8918,0.2122,0.2316,0.0011,0.0894,0.1776,168
17,-0.8316,0.1561,0.2194,-0.0621,0.0795,0.1591,168
17,-0.8122,0.153,0.2194,-0.0469,0.0774,0.1503,168
17,-0.799,0.1428,0.2101,-0.0402,0.0774,0.1461,168
17,-0.7979,0.1316,0.199,-0.0589,0.0872,0.1471,168
17,-0.8112,0.1194,0.1785,-0.0664,0.0883,0.1526,168
17,-0.8367,0.1,0.1622,-0.085,0.086,0.1428,168
17,-0.8204,0.0796,0.1479,-0.085,0.0915,0.1308,168
17,-0.8214,0.0632,0.1408,-0.0589,0.0784,0.1167,168
17,-0.8234,0.0561,0.1357,-0.0402,0.0698,0.1057,168
17,-0.8204,0.053,0.1296,-0.0402,0.0698,0.1057,168
17,-0.8204,0.0652,0.1296,-0.0196,0.0501,0.1068,168
18,-0.8306,0.0745,0.1265,0.0032,0.0272,0.1112,168
18,-0.8306,0.0745,0.1265,0.0206,0.0087,0.1123,168
18,-0.8367,0.0857,0.1245,0.0316,-0.0076,0.1133,168
18,-0.8448,0.1082,0.1275,0.0545,-0.0217,0.1112,168
18,-0.8428,0.15,0.1469,0.074,-0.0381,0.1013,168
18,-0.8459,0.1602,0.1479,0.0631,-0.0511,0.0959,168
18,-0.8448,0.1653,0.152,0.0457,-0.061,0.0839,168
18,-0.8561,0.1744,0.1642,0.0305,-0.0698,0.0751,168
18,-0.8785,0.1877,0.152,0.0305,-0.0698,0.0751,168
18,-0.8785,0.1877,0.152,0.0087,-0.0839,0.0698,168
18,-0.8898,0.2112,0.1367,-0.0076,-0.0872,0.0664,168
18,-0.8898,0.2112,0.1367,-0.0217,-0.1003,0.0555,168
18,-0.8887,0.204,0.1275,-0.0664,-0.1144,0.0425,168
18,-0.9041,0.2245,0.1489,-0.0915,-0.1232,0.0305,168
18,-0.9122,0.2163,0.1602,-0.1232,-0.1352,0.0131,168
18,-0.9061,0.1806,0.153,-0.1755,-0.1449,-0.0076,168
18,-0.8989,0.153,0.1418,-0.2071,-0.1547,-0.0261,168
18,-0.8806,0.1887,0.15,-0.181,-0.1613,-0.036,168
18,-0.8765,0.1837,0.1551,-0.1755,-0.1526,-0.0555,168
18,-0.8745,0.1479,0.1357,-0.1755,-0.1526,-0.0555,168
18,-0.8745,0.1479,0.1357,-0.2224,-0.1362,-0.0763,168
18,-0.8846,0.1255,0.1224,-0.2365,-0.1198,-0.0992,168
18,-0.9122,0.1653,0.1204,-0.1962,-0.1112,-0.1144,168
18,-0.9265,0.1744,0.1265,-0.1875,-0.1035,-0.1341,168
18,-0.9438,0.1847,0.1326,-0.1972,-0.1047,-0.1602,168
18,-0.9449,0.2051,0.1408,-0.1864,-0.1068,-0.1907,168
18,-0.9357,0.2347,0.1541,-0.1864,-0.1035,-0.2333,168
18,-0.9347,0.2285,0.153,-0.2191,-0.0925,-0.2768,168
18,-0.9347,0.2449,0.1622,-0.2321,-0.0719,-0.3107,168
18,-0.9347,0.2653,0.1765,-0.2321,-0.0719,-0.3107,168
18,-0.9347,0.2653,0.1765,-0.2409,-0.0577,-0.3368,168
18,-0.95,0.2224,0.1642,-0.2987,-0.0326,-0.363,168
18,-0.9714,0.1744,0.1796,-0.3597,-0.0076,-0.3891,168
18,-1.0143,0.1306,0.2214,-0.3717,0.0087,-0.4044,168
18,-1.1469,0.0724,0.3173,-0.3542,0.025,-0.4143,168
18,-1.2296,0.049,0.3357,-0.3412,0.0545,-0.4197,168
18,-1.2918,0.0275,0.301,-0.338,0.0828,-0.424,168
18,-1.3336,0.004,0.2581,-0.3554,0.0959,-0.4187,168
18,-1.3489,-0.0438,0.2153,-0.3565,0.1057,-0.4055,168
18,-1.3051,-0.1061,0.2347,-0.3565,0.1057,-0.4055,168
18,-1.3224,-0.1806,0.2561,-0.3815,0.0698,-0.3968,168
18,-1.3224,-0.1806,0.2561,-0.4012,0.0675,-0.4077,168
18,-1.301,-0.1867,0.301,-0.2976,0.085,-0.4065,168
18,-1.3051,-0.0143,0.4102,-0.1428,0.1144,-0.3935,168
18,-1.3745,-0.0336,0.3806,-0.1515,0.1329,-0.3924,168
18,-1.4051,-0.0602,0.3724,-0.231,0.1919,-0.399,168
18,-1.4285,-0.0081,0.3663,-0.1831,0.1852,-0.4012,168
18,-1.4244,0.0745,0.303,-0.1623,0.181,-0.4153,168
18,-1.3949,0.051,0.2612,-0.2409,0.1711,-0.4524,168
18,-1.3061,0.0479,0.203,-0.2409,0.1711,-0.4524,168
18,-1.2347,0.0714,0.2183,-0.2844,0.1329,-0.4797,168
18,-1.2347,0.0714,0.2183,-0.2932,0.0904,-0.495,168
18,-1.0693,-0.0561,0.2795,-0.3903,0.0316,-0.5047,168
18,-1.0051,-0.15,0.2724,-0.4916,-0.0032,-0.5091,168
18,-0.9398,-0.1449,0.3152,-0.4307,-0.0414,-0.4862,168
18,-0.8989,-0.1143,0.35,-0.3489,-0.0523,-0.4578,168
18,-0.752,-0.1898,0.3663,-0.4023,-0.0545,-0.4458,168
18,-0.7469,-0.2479,0.3755,-0.4895,0.0076,-0.4361,168
18,-0.6949,-0.2643,0.3408,-0.4546,0.0381,-0.4273,168
18,-0.6663,-0.2255,0.3541,-0.4546,0.0381,-0.4273,168
18,-0.6694,-0.2571,0.3,-0.3674,0.0806,-0.4372,168
18,-0.6826,-0.3,0.2908,-0.3761,0.1471,-0.4513,168
18,-0.6826,-0.3,0.2908,-0.4109,0.2289,-0.4502,168
18,-0.6959,-0.3102,0.2908,-0.3739,0.2758,-0.4469,168
18,-0.7306,-0.3193,0.2847,-0.3302,0.3216,-0.4328,168
18,-0.7898,-0.3653,0.2051,-0.2987,0.3565,-0.4187,168
18,-0.7969,-0.3479,0.1775,-0.206,0.388,-0.4044,168
18,-0.8091,-0.2969,0.1673,-0.1024,0.399,-0.3771,168
18,-0.7898,-0.2275,0.153,-0.0511,0.4077,-0.363,168
18,-0.7806,-0.2163,0.1449,-0.0511,0.4077,-0.363,168
18,-0.7806,-0.2163,0.1449,-0.0577,0.4132,-0.3554,168
18,-0.7602,-0.1571,0.1428,-0.0501,0.4099,-0.3412,168
18,-0.7602,-0.1571,0.1428,-0.0206,0.412,-0.3281,168
18,-0.7326,-0.1602,0.1387,-0.0294,0.4109,-0.3193,168
18,-0.7316,-0.1898,0.1194,-0.0883,0.4164,-0.3193,168
18,-0.7133,-0.1887,0.1285,-0.0828,0.4153,-0.3117,168
18,-0.7071,-0.1949,0.1285,-0.0686,0.4143,-0.2998,168
18,-0.7142,-0.2418,0.1153,-0.0904,0.4252,-0.2922,168
18,-0.7296,-0.2408,0.1122,-0.0818,0.4349,-0.2791,168
18,-0.7397,-0.2265,0.1132,-0.0381,0.4481,-0.2627,168
18,-0.751,-0.2357,0.1071,-0.0381,0.4481,-0.2627,168
18,-0.751,-0.2357,0.1071,-0.0337,0.4589,-0.2539,168
18,-0.7602,-0.3275,0.0652,-0.0621,0.4655,-0.2474,168
18,-0.7836,-0.3377,0.0652,-0.0326,0.4797,-0.231,168
18,-0.7847,-0.3306,0.0612,0.0326,0.4742,-0.2049,168
18,-0.8041,-0.3377,0.0591,0.0631,0.4807,-0.1852,168
18,-0.9081,-0.3643,0.0377,0.0686,0.496,-0.1646,168
18,-0.9418,-0.3541,0.0255,0.1188,0.4797,-0.1286,168
18,-0.9979,-0.3081,0.0388,0.1732,0.4643,-0.0839,168
18,-1.0357,-0.2551,0.0479,0.1984,0.4219,-0.0523,168
18,-1.0224,-0.1979,0.0234,0.1984,0.4219,-0.0523,168
18,-1.0224,-0.1979,0.0234,0.1907,0.3729,-0.0349,168
18,-0.9928,-0.2438,0.0,0.1449,0.3401,-0.0392,168
18,-1.0306,-0.2571,0.0081,0.1079,0.3336,-0.0435,168
18,-0.9765,-0.2795,0.0132,0.1613,0.3031,-0.0337,168
18,-0.9592,-0.3234,0.0336,0.1907,0.3031,-0.0196,168
18,-0.8989,-0.3622,-0.0092,0.193,0.3008,-0.0108,168
18,-0.9592,-0.3193,-0.001,0.2834,0.3107,0.0261,168
18,-0.9347,-0.3265,-0.0071,0.3073,0.2954,0.0534,168
18,-0.9398,-0.4,-0.0326,0.242,0.3128,0.0664,168
18,-0.9377,-0.4285,-0.0541,0.242,0.3128,0.0664,168
18,-0.9704,-0.3887,-0.0224,0.255,0.3063,0.0708,168
18,-0.9704,-0.3887,-0.0224,0.3979,0.3052,0.0904,168
18,-0.9244,-0.2612,0.0132,0.5528,0.314,0.0577,168
18,-0.9244,-0.2612,0.0132,0.6835,0.3456,0.0282,168
18,-0.9714,-0.1102,0.0398,0.8525,0.3848,0.0108,168
18,-1.0234,0.0224,0.0622,0.8405,0.412,-0.0272,168
18,-1.0643,-0.0326,-0.0061,0.6562,0.424,-0.1003,168
18,-1.0877,-0.0479,-0.0745,0.5789,0.3891,-0.1438,168
18,-1.1551,0.0316,-0.1346,0.6291,0.2954,-0.1667,168
19,-1.1622,0.1561,-0.1663,0.5822,0.1318,-0.1798,168
19,-1.0255,0.0428,-0.2133,0.4361,-0.0686,-0.1722,168
19,-1.0786,-0.0204,-0.2704,0.2844,-0.1972,-0.193,168
19,-1.0786,-0.0204,-0.2704,0.2844,-0.1972,-0.193,168
19,-0.9235,-0.1214,0.0122,0.2147,-0.3227,-0.2125,168
19,-0.9235,-0.1214,0.0122,0.0097,-0.4382,-0.2268,168
19,-0.9592,-0.3,0.0398,-0.1406,-0.4492,-0.2485,168
19,-0.9377,-0.3632,0.1071,-0.0555,-0.4437,-0.2268,168
19,-0.9724,-0.2867,0.1826,0.1123,-0.4273,-0.1907,168
19,-0.9816,-0.3122,0.1377,0.0577,-0.4229,-0.1722,168
19,-1.0286,-0.4102,0.0398,-0.074,-0.363,-0.1907,168
19,-0.9796,-0.451,-0.0571,-0.0174,-0.3477,-0.1852,168
19,-0.999,-0.3928,-0.0939,0.1221,-0.3117,-0.1406,168
19,-0.9153,-0.5357,-0.1387,0.1221,-0.3117,-0.1406,168
19,-0.9153,-0.5357,-0.1387,0.1167,-0.2823,-0.0654,168
19,-1.0061,-0.5449,-0.204,0.1732,-0.255,0.0261,168
19,-0.8939,-0.5918,-0.0745,0.242,-0.2693,0.1286,168
19,-0.9704,-0.6061,-0.1245,0.4284,-0.2562,0.2638,168
19,-0.9653,-0.3724,0.0092,0.6367,-0.2758,0.3761,168
19,-1.0652,-0.3316,-0.0479,0.6312,-0.2834,0.4273,168
19,-1.0684,-0.302,-0.0357,0.6018,-0.2976,0.4862,168
19,-1.1091,-0.1683,-0.0234,0.6367,-0.3107,0.5353,168
19,-1.0652,-0.1694,-0.0081,0.6062,-0.3314,0.5604,168
19,-1.1143,-0.2071,0.0081,0.6062,-0.3314,0.5604,168
19,-1.1143,-0.2071,0.0081,0.4982,-0.3434,0.569,168
19,-1.1204,-0.254,0.0092,0.471,-0.3651,0.5723,168
19,-1.203,-0.1683,0.0652,0.5494,-0.375,0.5919,168
19,-1.2214,-0.1071,0.0745,0.5898,-0.3848,0.6116,168
19,-1.2275,-0.0765,0.0765,0.5385,-0.3761,0.6116,168
19,-1.2449,-0.0643,0.0632,0.4763,-0.3783,0.5996,168
19,-1.2531,-0.0286,0.1857,0.4372,-0.3783,0.5898,168
19,-1.2632,-0.0561,0.2377,0.3489,-0.3771,0.5767,168
19,-1.2836,-0.1041,0.2367,0.2659,-0.3651,0.5593,168
19,-1.3224,-0.0632,0.2306,0.2659,-0.3651,0.5593,168
19,-1.3571,-0.0153,0.2122,0.2844,-0.3489,0.5538,168
19,-1.3571,-0.0153,0.2122,0.2485,-0.3368,0.5505,168
19,-1.3734,-0.0704,0.1755,0.1274,-0.326,0.5341,168
19,-1.35,-0.1102,0.1867,0.085,-0.3346,0.5265,168
19,-1.3479,-0.1275,0.1694,0.1286,-0.3542,0.5211,168
19,-1.2693,-0.103,0.2551,0.1613,-0.3935,0.5287,168
19,-1.301,-0.1785,0.2224,0.0948,-0.4153,0.5102,168
19,-1.1581,-0.2101,0.2224,0.1373,-0.4458,0.4895,168
19,-1.0652,-0.1571,0.2683,0.3216,-0.4557,0.4677,168
19,-0.8632,-0.0204,0.3785,0.3815,-0.4502,0.4338,168
19,-0.8041,-0.0031,0.4153,0.3815,-0.4502,0.4338,168
19,-0.7938,0.0275,0.451,0.3041,-0.399,0.388,168
19,-0.7938,0.0275,0.451,0.2583,-0.35,0.3695,168
19,-0.6683,0.0071,0.4387,0.2376,-0.3117,0.3804,168
19,-0.7418,0.1306,0.4663,0.2682,-0.1919,0.4012,168
19,-0.6816,0.0704,0.4153,0.2583,-0.1318,0.3216,168
19,-0.7418,0.1408,0.4051,0.2725,-0.0523,0.3073,168
19,-0.7255,0.1806,0.4041,0.2834,-0.0076,0.2823,168
19,-0.7643,0.2153,0.4,0.1787,0.049,0.2779,168
19,-0.8132,0.1479,0.3694,0.024,0.0948,0.2485,168
19,-0.8541,0.1132,0.3439,0.024,0.0948,0.2485,168
19,-0.9183,0.1285,0.3041,-0.024,0.1264,0.2224,168
19,-0.9183,0.1285,0.3041,-0.0206,0.1396,0.206,168
19,-0.9316,0.0816,0.2602,-0.0883,0.1428,0.1842,168
19,-0.9357,0.0388,0.2296,-0.1362,0.1438,0.1722,168
19,-0.9163,0.0479,0.2265,-0.0948,0.1297,0.1711,168
19,-0.8908,0.0786,0.2347,-0.0904,0.1297,0.1701,168
19,-0.8837,0.0541,0.2204,-0.1352,0.1297,0.157,168
19,-0.8632,0.052,0.2142,-0.1341,0.1253,0.1558,168
19,-0.8622,0.0765,0.2194,-0.1123,0.1297,0.1515,168
19,-0.855,0.0469,0.1959,-0.1123,0.1297,0.1515,168
19,-0.851,0.0051,0.1703,-0.1602,0.1221,0.1493,168
19,-0.851,0.0051,0.1703,-0.2093,0.1242,0.1461,168
19,-0.8561,0.0,0.151,-0.1852,0.1144,0.1493,168
19,-0.8591,0.0112,0.152,-0.1558,0.0937,0.1537,168
19,-0.8663,-0.0132,0.1153,-0.1678,0.0698,0.1482,168
19,-0.8622,-0.0265,0.0908,-0.1646,0.0501,0.1428,168
19,-0.8612,-0.0081,0.0908,-0.1123,0.0174,0.1461,168
19,-0.8694,0.0102,0.0948,-0.0839,-0.0162,0.1438,168
19,-0.8785,0.0061,0.0948,-0.086,-0.0435,0.1428,168
19,-0.8653,0.0153,0.103,-0.086,-0.0435,0.1428,168
19,-0.8653,0.0153,0.103,-0.0631,-0.0818,0.1471,168
19,-0.8673,0.0388,0.1112,-0.0337,-0.1167,0.1581,168
19,-0.8571,0.0571,0.1265,-0.0381,-0.1537,0.1732,168
19,-0.8408,0.05,0.1418,-0.0686,-0.1831,0.1852,168
19,-0.8326,0.0479,0.1428,-0.0925,-0.2027,0.1962,168
19,-0.8214,0.0479,0.1469,-0.1003,-0.2191,0.2039,168
19,-0.8296,0.0561,0.1428,-0.1047,-0.2169,0.2147,168
19,-0.8398,0.0816,0.1275,-0.1079,-0.2256,0.2201,168
19,-0.8571,0.0939,0.1183,-0.11,-0.2213,0.2201,168
19,-0.8765,0.1091,0.1204,-0.11,-0.2213,0.2201,168
19,-0.8765,0.1091,0.1204,-0.1177,-0.2245,0.2136,168
19,-0.9214,0.1377,0.1337,-0.1384,-0.2321,0.2049,168
19,-0.95,0.1285,0.1326,-0.1864,-0.2453,0.1842,168
19,-0.9601,0.1122,0.1224,-0.2201,-0.2627,0.1646,168
19,-0.9683,0.1122,0.1153,-0.2201,-0.2779,0.1406,168
19,-0.952,0.1255,0.0939,-0.2159,-0.2932,0.1177,168
19,-0.954,0.1255,0.0775,-0.2159,-0.3041,0.085,168
19,-0.9459,0.1316,0.0684,-0.2005,-0.3128,0.0469,168
19,-0.951,0.153,0.0745,-0.1657,-0.3292,0.0076,168
19,-0.9479,0.1744,0.1377,-0.1646,-0.3466,-0.0381,168
19,-0.9428,0.1459,0.1683,-0.1646,-0.3466,-0.0381,168
19,-0.9428,0.1459,0.1683,-0.1984,-0.3565,-0.086,168
19,-0.9326,0.1224,0.1969,-0.2049,-0.3434,-0.1318,168
19,-0.9285,0.1122,0.2255,-0.1657,-0.3172,-0.1602,168
19,-0.9214,0.1703,0.2663,-0.1286,-0.2779,-0.1798,168
19,-0.9112,0.1887,0.2571,-0.1537,-0.23,-0.1972,168
19,-0.9163,0.1928,0.2561,-0.1995,-0.1646,-0.2147,168
19,-0.9337,0.2,0.252,-0.231,-0.1047,-0.2333,168
19,-1.0438,0.151,0.3163,-0.2966,0.0206,-0.2844,168
19,-1.1163,0.1082,0.3755,-0.3096,0.073,-0.2998,168
19,-1.2397,0.0867,0.4418,-0.2659,0.1144,-0.2966,168
19,-1.4326,0.0714,0.5,-0.2659,0.1144,-0.2966,168
19,-1.5214,0.0357,0.4367,-0.2878,0.1373,-0.2878,168
19,-1.5428,0.0051,0.3571,-0.3609,0.1438,-0.2888,168
19,-1.5428,0.0051,0.3571,-0.3434,0.1308,-0.2878,168
20,-1.5836,0.0663,0.3448,-0.2725,0.1167,-0.2932,168
20,-1.4979,0.0775,0.4194,-0.3783,0.1089,-0.3314,168
20,-1.4459,-0.0326,0.3908,-0.5124,0.1177,-0.3804,168
20,-1.3989,-0.0183,0.4092,-0.4164,0.1373,-0.4023,168
20,-1.3357,0.0989,0.3979,-0.3161,0.1264,-0.4143,168
20,-1.1642,0.1775,0.3152,-0.496,0.1232,-0.4458,168
20,-1.1061,0.0663,0.2938,-0.701,0.1286,-0.4906,168
20,-0.9908,0.0132,0.3643,-0.701,0.1286,-0.4906,168
20,-0.9908,0.0132,0.3643,-0.7686,0.1167,-0.5059,168
20,-0.8806,-0.1387,0.4051,-0.8078,0.1362,-0.5156,168
20,-0.8408,-0.1908,0.3877,-0.8078,0.157,-0.507,168
20,-0.8316,-0.1663,0.3908,-0.7566,0.1732,-0.4851,168
20,-0.7326,-0.201,0.3775,-0.7751,0.2159,-0.4677,168
20,-0.7499,-0.2336,0.3326,-0.7435,0.2737,-0.4437,168
20,-0.7397,-0.1887,0.3632,-0.6791,0.3041,-0.4187,168
20,-0.7581,-0.1898,0.3152,-0.6911,0.3368,-0.4077,168
20,-0.7265,-0.2163,0.2888,-0.7249,0.3771,-0.399,168
20,-0.7561,-0.2643,0.2704,-0.7249,0.3771,-0.399,168
20,-0.7561,-0.2643,0.2704,-0.6726,0.4065,-0.3761,168
20,-0.7724,-0.2316,0.2765,-0.6007,0.4273,-0.363,168
20,-0.7734,-0.249,0.254,-0.6181,0.4481,-0.363,168
20,-0.7938,-0.2938,0.1938,-0.6106,0.4731,-0.3575,168
20,-0.801,-0.2612,0.1561,-0.4992,0.4753,-0.3466,168
20,-0.8173,-0.2051,0.1632,-0.4338,0.4698,-0.3401,168
20,-0.7918,-0.2388,0.1296,-0.4818,0.4611,-0.3434,168
20,-0.7806,-0.2673,0.1183,-0.4666,0.4426,-0.3314,168
20,-0.7388,-0.2408,0.1183,-0.399,0.4273,-0.314,168
20,-0.7194,-0.2316,0.1204,-0.3783,0.4153,-0.2922,168
20,-0.7194,-0.2377,0.1143,-0.3783,0.4153,-0.2922,168
20,-0.7194,-0.2377,0.1143,-0.3958,0.4109,-0.2802,168
20,-0.7275,-0.2245,0.1173,-0.4132,0.4109,-0.2779,168
20,-0.7194,-0.2612,0.0816,-0.4349,0.4143,-0.2899,168
20,-0.7336,-0.2092,0.0857,-0.3489,0.4034,-0.2409,168
20,-0.7592,-0.2275,0.0724,-0.3096,0.3914,-0.2224,168
20,-0.7499,-0.2142,0.0714,-0.2747,0.3685,-0.2071,168
20,-0.7632,-0.1735,0.0847,-0.2703,0.3456,-0.1919,168
20,-0.7908,-0.1785,0.0826,-0.3031,0.3271,-0.182,168
20,-0.803,-0.1898,0.0724,-0.3161,0.3063,-0.1667,168
20,-0.8316,-0.1969,0.0908,-0.3161,0.3063,-0.1667,168
20,-0.8377,-0.2194,0.0796,-0.3161,0.2856,-0.1493,168
20,-0.8377,-0.2194,0.0796,-0.3302,0.2649,-0.1428,168
20,-0.8622,-0.2438,0.0551,-0.3357,0.2507,-0.1417,168
20,-0.8745,-0.2581,0.0357,-0.3117,0.2354,-0.1384,168
20,-0.9112,-0.2673,0.0214,-0.2899,0.2201,-0.1384,168
20,-0.9296,-0.2786,0.0214,-0.2791,0.1972,-0.1373,168
20,-0.9459,-0.2918,0.0204,-0.2583,0.1798,-0.1297,168
20,-0.9551,-0.2949,0.0224,-0.231,0.1613,-0.1167,168
20,-0.9918,-0.303,0.0347,-0.2191,0.1318,-0.1024,168
20,-0.9724,-0.3418,0.0224,-0.2191,0.1318,-0.1024,168
20,-0.9704,-0.3765,0.0102,-0.2321,0.1013,-0.0959,168
20,-0.9704,-0.3765,0.0102,-0.2016,0.0795,-0.0915,168
20,-0.9836,-0.3561,0.0153,-0.1232,0.0446,-0.0675,168
20,-0.9816,-0.3316,0.0204,-0.1079,0.0337,-0.0643,168
20,-0.9438,-0.3918,0.004,-0.1352,0.0185,-0.0664,168
20,-0.9683,-0.403,-0.001,-0.0763,0.0087,-0.0479,168
20,-0.9571,-0.3928,0.004,0.0032,-0.0108,-0.0282,168
20,-0.9775,-0.3857,0.0061,0.0162,-0.0152,-0.012,168
20,-0.9816,-0.4224,-0.004,0.0228,-0.0272,0.0,168
20,-0.9949,-0.4092,-0.0061,0.0228,-0.0272,0.0,168
20,-0.9785,-0.3653,-0.002,0.1057,-0.0414,0.0228,168
20,-0.9785,-0.3653,-0.002,0.181,-0.0555,0.0414,168
20,-0.9633,-0.3489,-0.0031,0.1711,-0.0686,0.0425,168
20,-0.9694,-0.3663,-0.0061,0.182,-0.0719,0.0511,168
20,-0.9592,-0.35,-0.0061,0.2562,-0.0828,0.0686,168
20,-0.9581,-0.303,0.002,0.2888,-0.0925,0.0872,168
20,-0.9571,-0.3071,-0.0245,0.2594,-0.0959,0.0883,168
20,-0.9724,-0.3234,-0.0398,0.2758,-0.11,0.098,168
20,-0.9347,-0.301,-0.0377,0.3542,-0.1384,0.1188,168
20,-0.954,-0.25,-0.001,0.3542,-0.1384,0.1188,168
20,-0.954,-0.25,-0.001,0.3739,-0.1602,0.1362,168
20,-0.9203,-0.3071,-0.0061,0.3292,-0.1864,0.1396,168
20,-0.9203,-0.3071,-0.0061,0.3739,-0.2005,0.1558,168
20,-0.9,-0.2857,0.0061,0.4414,-0.2169,0.1864,168
20,-0.8959,-0.2673,0.0306,0.4414,-0.2159,0.2071,168
20,-0.9194,-0.2857,0.0275,0.4372,-0.2104,0.2213,168
20,-0.9275,-0.2938,0.0193,0.4818,-0.2159,0.2442,168
20,-0.953,-0.2816,0.0245,0.52,-0.2125,0.2693,168
20,-1.0,-0.301,0.0153,0.5112,-0.2115,0.2899,168
20,-1.0357,-0.3132,0.0092,0.5341,-0.2081,0.3161,168
20,-1.0438,-0.2938,-0.002,0.5341,-0.2081,0.3161,168
20,-1.0438,-0.2938,-0.002,0.5931,-0.2213,0.3412,168
20,-1.0571,-0.2428,0.0031,0.6171,-0.2321,0.3619,168
20,-1.0867,-0.2551,0.0347,0.5679,-0.2376,0.3771,168
20,-1.1183,-0.2806,0.0652,0.557,-0.2354,0.3979,168
20,-1.151,-0.2602,0.0826,0.6333,-0.2289,0.4328,168
20,-1.1663,-0.1816,0.0979,0.6901,-0.218,0.4655,168
20,-1.2449,-0.0684,0.1183,0.6541,-0.2027,0.4862,168
20,-1.2683,-0.0438,0.1224,0.5865,-0.2081,0.5026,168
20,-1.2908,-0.0295,0.151,0.5364,-0.2104,0.5102,168
20,-1.3051,-0.0275,0.1703,0.5364,-0.2104,0.5102,168
20,-1.3051,-0.0275,0.1703,0.4698,-0.2159,0.5124,168
20,-1.3336,-0.0479,0.1959,0.4175,-0.2093,0.5091,168
20,-1.3459,-0.0581,0.2092,0.3794,-0.206,0.5059,168
20,-1.3632,-0.0826,0.2122,0.3227,-0.2039,0.4906,168
20,-1.3632,-0.1204,0.2183,0.2899,-0.1972,0.4763,168
20,-1.4122,-0.1847,0.2693,0.2888,-0.1842,0.471,168
20,-1.4316,-0.2122,0.2724,0.3019,-0.1831,0.4687,168
20,-1.4428,-0.2336,0.2469,0.3325,-0.1919,0.4841,168
20,-1.4265,-0.2245,0.2051,0.4132,-0.2125,0.5015,168
20,-1.3184,-0.1112,0.2092,0.4132,-0.2125,0.5015,168
20,-1.25,-0.0551,0.2388,0.4862,-0.2573,0.5059,168
20,-1.25,-0.0551,0.2388,0.5036,-0.2911,0.4862,168
20,-1.1653,-0.0295,0.2755,0.4916,-0.326,0.4536,168
