Timestamp,Ax,Ay,Az,Rx,Ry,Rz,HR_value
0,-0.8163,0.4918,0.251,0.6825,0.495,-0.4557,166
0,-0.8316,0.5173,0.2326,0.6596,0.5167,-0.4492,166
0,-0.853,0.5265,0.2081,0.6333,0.5604,-0.4568,166
0,-0.85,0.5081,0.2101,0.6333,0.5604,-0.4568,166
0,-0.852,0.4867,0.1908,0.6007,0.5877,-0.4666,166
0,-0.852,0.4867,0.1908,0.5635,0.5908,-0.4698,166
0,-0.8479,0.4592,0.1653,0.5287,0.5984,-0.4698,166
0,-0.7959,0.4153,0.1418,0.5211,0.6236,-0.471,166
0,-0.8,0.4142,0.1204,0.5233,0.6421,-0.4643,166
0,-0.803,0.4224,0.1163,0.5179,0.6585,-0.4655,166
0,-0.7877,0.4408,0.1163,0.4851,0.6661,-0.4677,166
0,-0.7959,0.45,0.1,0.4492,0.677,-0.4807,166
0,-0.7979,0.4612,0.103,0.424,0.702,-0.5026,166
0,-0.801,0.4561,0.1082,0.424,0.702,-0.5026,166
0,-0.7816,0.4203,0.1337,0.3859,0.726,-0.5255,166
0,-0.7816,0.4203,0.1337,0.3281,0.7403,-0.5505,166
0,-0.7673,0.3898,0.1275,0.2844,0.7577,-0.5734,166
0,-0.7224,0.3173,0.1428,0.2693,0.8252,-0.5919,166
0,-0.7163,0.302,0.1439,0.2888,0.8569,-0.5942,166
0,-0.7101,0.2877,0.1306,0.3096,0.8897,-0.5963,166
0,-0.7081,0.2847,0.1387,0.3422,0.9168,-0.6051,166
0,-0.7142,0.3143,0.1194,0.3815,0.9473,-0.6225,166
0,-0.7224,0.3398,0.1132,0.4109,0.967,-0.6323,166
0,-0.7255,0.3622,0.1306,0.4197,0.9921,-0.6454,166
0,-0.7469,0.3734,0.1183,0.4153,1.0118,-0.6552,166
0,-0.7806,0.3612,0.1245,0.4153,1.0118,-0.6552,166
0,-0.7806,0.3612,0.1245,0.4109,1.0226,-0.6749,166
0,-0.7786,0.3367,0.1449,0.4219,1.0477,-0.6955,166
0,-0.8102,0.3132,0.1194,0.4622,1.0706,-0.7152,166
0,-0.8479,0.2938,0.103,0.5145,1.0728,-0.7369,166
0,-0.853,0.2888,0.1143,0.5635,1.0761,-0.7609,166
0,-0.8887,0.302,0.0806,0.6388,1.0738,-0.7882,166
0,-0.9306,0.3428,0.0561,0.7163,1.0662,-0.8264,166
0,-1.004,0.4255,0.0,0.7348,1.0379,-0.871,166
0,-1.0286,0.4142,-0.0449,0.6966,1.015,-0.9256,166
0,-1.0561,0.3837,-0.1143,0.6966,1.015,-0.9256,166
0,-1.0479,0.2928,-0.1571,0.6869,0.9877,-0.9736,166
0,-1.0479,0.2928,-0.1571,0.6803,0.9855,-1.0204,166
0,-1.1234,0.2867,-0.2449,0.6726,0.9899,-1.0608,166
0,-1.1622,0.2826,-0.301,0.6944,0.9267,-1.0935,166
0,-1.1724,0.2867,-0.3622,0.8012,0.8668,-1.1196,166
0,-1.2153,0.352,-0.4255,0.8569,0.9256,-1.1316,166
0,-1.0775,0.102,-0.3439,0.9082,0.9954,-1.1262,166
0,-1.3081,0.4449,-0.6653,0.8361,1.0379,-1.0717,166
0,-1.2245,0.2959,-0.1928,0.8361,1.0379,-1.0717,166
0,-0.9071,0.0765,-0.6908,0.4219,0.9202,-1.0368,166
0,-0.9071,0.0765,-0.6908,0.3237,0.8296,-0.9114,166
0,-0.9959,0.1735,-0.6,0.388,1.0891,-0.8035,166
0,-1.1061,0.2888,-0.5765,0.2998,1.1459,-0.7937,166
0,-0.8989,0.45,-0.6418,0.0305,1.0215,-0.7163,166
0,-0.8377,0.4244,-0.5571,-0.375,1.0139,-0.6617,166
0,-0.803,0.3439,-0.6561,-0.689,1.0706,-0.6051,166
0,-0.85,0.2888,-0.7745,-0.8111,1.0652,-0.5647,166
0,-0.7959,0.4061,-0.6744,-0.8918,0.9397,-0.5265,166
0,-0.7928,0.4122,-0.7101,-0.8918,0.9397,-0.5265,166
0,-0.7928,0.4122,-0.7101,-1.0923,0.8994,-0.5255,166
0,-0.8102,0.3591,-0.6867,-1.2537,0.8395,-0.5341,166
0,-0.7775,0.351,-0.6703,-1.2788,0.7544,-0.5364,166
0,-0.7745,0.3846,-0.5928,-1.3258,0.7064,-0.5516,166
0,-0.7826,0.3653,-0.5847,-1.438,0.6791,-0.5757,165
0,-0.7847,0.3255,-0.5887,-1.5187,0.6388,-0.5931,165
0,-0.7673,0.2908,-0.5326,-1.5459,0.6192,-0.6062,165
0,-0.7734,0.2745,-0.5306,-1.5797,0.6421,-0.6106,165
0,-0.8,0.2612,-0.5183,-1.6157,0.6508,-0.5996,165
0,-0.8152,0.2561,-0.5286,-1.6157,0.6508,-0.5996,165
0,-0.8152,0.2561,-0.5286,-1.6277,0.6432,-0.5865,165
0,-0.8336,0.2673,-0.5153,-1.6386,0.6682,-0.5723,165
0,-0.8489,0.2673,-0.5316,-1.6637,0.6999,-0.5658,165
0,-0.8806,0.2847,-0.5561,-1.6779,0.7064,-0.5604,165
0,-0.8439,0.2786,-0.5347,-1.7215,0.6978,-0.556,165
0,-0.8591,0.2612,-0.5428,-1.7847,0.7174,-0.5516,165
0,-0.8653,0.2632,-0.5438,-1.8239,0.7249,-0.545,165
0,-0.8673,0.2816,-0.5765,-1.8502,0.7054,-0.5418,165
0,-0.8112,0.3112,-0.5336,-1.921,0.701,-0.5494,165
0,-0.8234,0.2836,-0.5541,-1.921,0.701,-0.5494,165
0,-0.8418,0.2438,-0.5643,-1.9984,0.7163,-0.5614,165
0,-0.8418,0.2438,-0.5643,-2.0017,0.6988,-0.5658,165
0,-0.8163,0.2663,-0.5255,-1.9614,0.6749,-0.5713,165
0,-0.8347,0.2693,-0.5204,-1.9461,0.6835,-0.5898,165
0,-0.852,0.25,-0.499,-1.9351,0.6825,-0.5984,165
0,-0.8561,0.2408,-0.4857,-1.8937,0.6497,-0.5952,165
0,-0.8387,0.2683,-0.4326,-1.8556,0.64,-0.5898,165
0,-0.8561,0.2428,-0.4316,-1.8512,0.6541,-0.5789,165
0,-0.8694,0.2112,-0.4173,-1.825,0.6486,-0.5614,165
0,-0.8846,0.203,-0.4102,-1.825,0.6486,-0.5614,165
0,-0.8704,0.2204,-0.3959,-1.7727,0.6007,-0.5331,165
0,-0.8704,0.2204,-0.3959,-1.7313,0.5767,-0.5059,165
0,-0.8734,0.2214,-0.3775,-1.7018,0.5593,-0.4753,165
0,-0.8816,0.2255,-0.4081,-1.6625,0.5179,-0.4448,165
0,-0.8734,0.2612,-0.4235,-1.6277,0.4786,-0.412,165
0,-0.8643,0.2653,-0.4326,-1.6037,0.4524,-0.3859,165
0,-0.8683,0.2786,-0.4551,-1.57,0.4197,-0.3597,165
0,-0.8622,0.3132,-0.451,-1.5623,0.388,-0.3456,165
0,-0.8326,0.3571,-0.4418,-1.5623,0.388,-0.3456,165
0,-0.8326,0.3571,-0.4418,-1.5917,0.3783,-0.3445,165
0,-0.8051,0.3632,-0.4142,-1.6037,0.3935,-0.3477,165
0,-0.8051,0.3632,-0.4142,-1.5841,0.4099,-0.3554,165
0,-0.7734,0.3734,-0.3367,-1.607,0.4361,-0.375,165
0,-0.7622,0.3275,-0.3408,-1.6386,0.4797,-0.3891,165
0,-0.7592,0.2949,-0.3347,-1.5776,0.508,-0.3914,165
0,-0.7388,0.2888,-0.2979,-1.4675,0.5538,-0.3903,165
0,-0.7531,0.2745,-0.2551,-1.3737,0.6072,-0.4023,165
0,-0.7693,0.2724,-0.254,-1.2734,0.6323,-0.4099,165
0,-0.7775,0.2663,-0.2561,-1.184,0.6268,-0.4175,165
0,-0.7928,0.2153,-0.2653,-1.184,0.6268,-0.4175,165
0,-0.7928,0.2153,-0.2653,-1.1011,0.6312,-0.4307,165
0,-0.8122,0.203,-0.2795,-0.9866,0.6127,-0.4437,165
0,-0.8214,0.2092,-0.3163,-0.8569,0.5679,-0.4589,165
0,-0.8102,0.2306,-0.2969,-0.7272,0.5233,-0.4763,165
0,-0.8122,0.2377,-0.3102,-0.6356,0.496,-0.4938,165
1,-0.8347,0.2204,-0.3102,-0.5461,0.4601,-0.4982,165
1,-0.8347,0.199,-0.3081,-0.4414,0.4164,-0.4841,165
1,-0.8316,0.1806,-0.3132,-0.3248,0.3838,-0.4643,165
1,-0.8673,0.1663,-0.303,-0.2027,0.3609,-0.4372,165
1,-0.8694,0.1775,-0.303,-0.2027,0.3609,-0.4372,165
1,-0.8694,0.1775,-0.303,-0.0969,0.3325,-0.399,165
1,-0.901,0.1816,-0.3591,-0.0206,0.2878,-0.3554,165
1,-0.9285,0.2204,-0.3908,0.0654,0.2191,-0.3151,165
1,-0.9102,0.2367,-0.3673,0.1155,0.1537,-0.2693,165
1,-0.9061,0.2122,-0.3846,0.1264,0.1057,-0.2245,165
1,-0.9203,0.1816,-0.4194,0.182,0.0577,-0.1776,165
1,-0.901,0.2153,-0.4377,0.2888,0.0021,-0.1253,165
1,-0.8796,0.2571,-0.4214,0.35,-0.0174,-0.0818,165
1,-0.8796,0.2755,-0.4459,0.35,-0.0174,-0.0818,165
1,-0.8785,0.2377,-0.4836,0.339,-0.0326,-0.0425,165
1,-0.8785,0.2377,-0.4836,0.3237,-0.0599,-0.0065,165
1,-0.8387,0.2183,-0.4949,0.3532,-0.074,0.0217,165
1,-0.7928,0.2081,-0.4806,0.4012,-0.0392,0.0534,165
1,-0.7928,0.2081,-0.4806,0.3958,-0.0501,0.0511,165
1,-0.7418,0.1887,-0.4959,0.4034,-0.0425,0.0469,165
1,-0.7296,0.1744,-0.501,0.4458,0.0087,0.0469,165
1,-0.7336,0.1683,-0.4857,0.4851,0.0457,0.0414,165
1,-0.6979,0.1602,-0.4775,0.4851,0.0577,0.0305,165
1,-0.6755,0.1561,-0.4877,0.4622,0.0795,0.0217,165
1,-0.6541,0.1398,-0.5081,0.4622,0.1112,0.0305,165
1,-0.6632,0.1551,-0.5173,0.4622,0.1112,0.0305,165
1,-0.6632,0.1551,-0.5173,0.4687,0.1428,0.0305,165
1,-0.6592,0.1663,-0.5347,0.471,0.1438,0.0305,165
1,-0.6653,0.1735,-0.5275,0.4698,0.1297,0.0294,165
1,-0.6592,0.1622,-0.5102,0.4633,0.1133,0.0272,165
1,-0.6612,0.1326,-0.4785,0.4655,0.0992,0.024,165
1,-0.65,0.1143,-0.4642,0.4731,0.0795,0.0206,165
1,-0.6387,0.0969,-0.4622,0.4895,0.0686,0.0152,165
1,-0.6306,0.0632,-0.4387,0.5233,0.0643,0.0,165
1,-0.6183,0.0541,-0.4479,0.5898,0.0545,-0.025,165
1,-0.6091,0.0459,-0.4551,0.5898,0.0545,-0.025,165
1,-0.602,0.0336,-0.4203,0.6879,0.0511,-0.074,165
1,-0.602,0.0336,-0.4203,0.7533,0.0675,-0.1308,165
1,-0.603,-0.0704,-0.4377,0.821,0.0719,-0.1515,165
1,-0.6153,-0.0857,-0.4357,0.9267,0.0774,-0.1352,165
1,-0.6204,-0.0959,-0.4347,1.0345,0.1188,-0.1581,165
1,-0.6714,-0.1143,-0.501,1.1425,0.1362,-0.2136,165
1,-0.7153,-0.0245,-0.5173,1.2897,0.1144,-0.2245,165
1,-0.6581,0.0102,-0.5479,1.3649,0.1722,-0.1919,165
1,-0.7806,0.0775,-0.5224,1.3649,0.1722,-0.1919,165
1,-0.951,0.1632,-0.5612,1.3607,0.2659,-0.1635,165
1,-1.1153,0.2133,-0.6551,1.293,0.2594,-0.1362,165
1,-1.1153,0.2133,-0.6551,1.2636,0.2627,-0.1133,165
1,-1.2632,0.3132,-0.7142,1.3944,0.2659,-0.1144,165
1,-1.4132,0.3939,-0.7734,1.6169,0.3859,-0.1962,165
1,-1.802,0.5541,-0.5948,1.5471,0.6541,-0.2966,165
1,-1.7112,0.5234,-0.2867,0.9582,0.6661,-0.1396,165
1,-1.8887,0.1918,-0.4418,0.2136,0.4851,0.0511,165
1,-1.454,-0.1357,-0.6459,0.2039,0.3717,0.3674,165
1,-1.5224,-0.1683,-0.553,0.3434,0.5179,0.6333,165
1,-1.2326,-0.3541,-0.7336,0.3434,0.5179,0.6333,165
1,-1.2296,-0.0704,-0.6082,0.4721,0.5255,0.64,165
1,-1.2296,-0.0704,-0.6082,0.8056,0.5461,0.7915,165
1,-0.9745,0.3826,-0.5092,0.5625,0.4338,0.8395,165
1,-0.9642,0.2377,-0.7051,0.2583,0.5331,0.8787,165
1,-1.0684,0.2898,-0.6826,0.3641,0.5822,0.9801,165
1,-1.0061,0.4102,-0.6571,0.3794,0.5822,0.9746,165
1,-1.0143,0.4755,-0.5786,0.074,0.5593,0.9431,165
1,-0.9132,0.3877,-0.5836,-0.2027,0.4655,0.9648,165
1,-0.8163,0.3143,-0.6367,-0.3073,0.4753,0.9746,165
1,-0.8163,0.3143,-0.6367,-0.3073,0.4753,0.9746,165
1,-0.7979,0.3816,-0.5265,-0.3542,0.5026,1.0074,165
1,-0.7551,0.4051,-0.5183,-0.5167,0.4643,1.028,165
1,-0.704,0.4041,-0.4969,-0.7174,0.4273,1.0259,165
1,-0.6735,0.3816,-0.5183,-0.834,0.4252,1.0171,165
1,-0.6755,0.3816,-0.5377,-0.8481,0.4273,1.0139,165
1,-0.6632,0.4347,-0.5132,-0.8504,0.3848,1.003,165
1,-0.652,0.4714,-0.5051,-0.9168,0.3445,0.9769,165
1,-0.6724,0.4203,-0.4836,-1.0238,0.3031,0.942,165
1,-0.6724,0.3846,-0.4642,-1.0238,0.3031,0.942,165
1,-0.6581,0.3908,-0.4275,-1.0717,0.2518,0.9234,165
1,-0.6581,0.3908,-0.4275,-1.0641,0.2081,0.9048,165
1,-0.6571,0.4235,-0.3775,-1.1022,0.206,0.8744,165
1,-0.6622,0.4337,-0.3643,-1.1905,0.1951,0.8514,165
1,-0.6622,0.3928,-0.3622,-1.2657,0.1896,0.8384,165
1,-0.6632,0.3479,-0.3336,-1.341,0.1852,0.8569,165
1,-0.7397,0.2571,-0.3632,-1.3344,0.1776,0.883,165
1,-0.7081,0.2918,-0.2755,-1.2069,0.1482,0.9158,165
1,-0.702,0.3694,-0.2367,-1.1524,0.1907,0.9463,165
1,-0.7336,0.3928,-0.2101,-1.1524,0.1907,0.9463,165
1,-0.7632,0.3561,-0.2408,-1.2264,0.2495,0.9769,165
1,-0.7632,0.3561,-0.2408,-1.2712,0.2409,1.0204,165
1,-0.7367,0.3357,-0.2438,-1.2821,0.2191,1.0652,165
1,-0.7326,0.2949,-0.2683,-1.2472,0.2594,1.1022,165
1,-0.749,0.2826,-0.2551,-1.1392,0.2998,1.1251,165
1,-0.7388,0.352,-0.2153,-1.0564,0.3161,1.1567,165
1,-0.7377,0.3469,-0.2081,-1.0477,0.3401,1.1796,165
1,-0.7081,0.2959,-0.2051,-1.027,0.3848,1.2188,165
1,-0.7,0.2602,-0.2275,-1.027,0.3848,1.2188,165
1,-0.7142,0.252,-0.2285,-0.9299,0.4414,1.2854,165
1,-0.7377,0.2357,-0.2388,-0.8361,0.4992,1.3584,165
1,-0.7377,0.2357,-0.2388,-0.7861,0.5167,1.438,165
1,-0.7234,0.2326,-0.2551,-0.701,0.4971,1.5285,165
1,-0.7173,0.3694,-0.2316,-0.5898,0.5156,1.6016,165
1,-0.7163,0.4092,-0.2204,-0.5287,0.5604,1.643,165
1,-0.7081,0.454,-0.2255,-0.4557,0.5877,1.6713,165
1,-0.6744,0.4816,-0.2449,-0.3914,0.6192,1.7018,165
1,-0.6306,0.5357,-0.2847,-0.3346,0.6901,1.7237,165
1,-0.6071,0.5265,-0.302,-0.3271,0.7327,1.7466,165
1,-0.5673,0.5143,-0.3398,-0.3271,0.7327,1.7466,165
1,-0.5673,0.5143,-0.3398,-0.3281,0.7544,1.7934,165
1,-0.5326,0.5163,-0.3939,-0.338,0.7512,1.8556,165
1,-0.5122,0.5438,-0.4051,-0.3422,0.7512,1.92,165
1,-0.5122,0.5734,-0.4092,-0.3466,0.7522,1.957,165
1,-0.4938,0.5928,-0.4265,-0.3357,0.738,1.9723,165
2,-0.4408,0.6703,-0.4122,-0.3085,0.7228,1.9624,165
2,-0.3918,0.6908,-0.402,-0.2976,0.7413,1.9275,165
2,-0.3745,0.6959,-0.3949,-0.3073,0.7773,1.9057,165
2,-0.2898,0.6949,-0.4041,-0.3314,0.7947,1.896,165
2,-0.2449,0.7051,-0.3928,-0.3314,0.7947,1.896,165
2,-0.2449,0.7051,-0.3928,-0.3641,0.8199,1.8708,165
2,-0.1979,0.6908,-0.4224,-0.4284,0.8439,1.8447,165
2,-0.1612,0.6744,-0.4357,-0.4437,0.8929,1.8207,165
2,-0.1306,0.7275,-0.4601,-0.399,0.9082,1.7891,165
2,-0.1377,0.8091,-0.4714,-0.339,0.9191,1.7247,165
2,-0.1551,0.8663,-0.5,-0.2899,0.9256,1.6049,165
2,-0.1775,0.9949,-0.5326,-0.2081,0.9179,1.4794,165
2,-0.1755,1.0734,-0.5336,-0.1242,0.9038,1.3607,165
2,-0.1898,1.1234,-0.5571,-0.1057,0.8973,1.268,165
2,-0.1479,1.1663,-0.502,-0.1057,0.8973,1.268,165
2,-0.0939,1.201,-0.5643,-0.1406,0.8863,1.2123,165
2,-0.0939,1.201,-0.5643,-0.2649,0.8754,1.16,165
2,-0.1255,1.0438,-0.6785,-0.4524,0.8242,1.0738,165
2,-0.1255,1.0438,-0.6785,-0.3445,0.7489,0.9965,165
2,-0.0652,1.1408,-0.7275,-0.2398,0.6737,0.8907,165
2,-0.0684,1.1663,-0.7234,-0.2256,0.6213,0.7762,165
2,-0.051,1.1571,-0.7428,-0.2398,0.5341,0.6606,165
2,0.0214,1.153,-0.7643,-0.2201,0.4361,0.5516,165
2,0.0571,1.15,-0.7693,-0.2049,0.3685,0.4458,165
2,0.0612,1.1377,-0.7663,-0.23,0.3183,0.3456,165
2,0.0469,1.1102,-0.7673,-0.2529,0.2169,0.2627,165
2,0.0469,1.1102,-0.7673,-0.2529,0.2169,0.2627,165
2,0.0693,1.1061,-0.802,-0.2256,0.0915,0.1886,165
2,0.0459,1.1418,-0.7755,-0.1995,0.0141,0.1177,165
2,-0.0061,1.1632,-0.7704,-0.2039,-0.0751,0.0457,165
2,-0.0551,1.1449,-0.7122,-0.2333,-0.2201,-0.0206,165
2,-0.0092,1.0918,-0.6908,-0.2659,-0.3586,-0.0894,165
2,0.0112,1.0459,-0.6469,-0.2409,-0.4229,-0.1602,165
2,0.0204,1.0153,-0.6306,-0.1798,-0.4633,-0.2365,165
2,0.051,1.0061,-0.5693,-0.1352,-0.5124,-0.338,165
2,0.0959,1.002,-0.5479,-0.1352,-0.5124,-0.338,165
2,0.1214,0.9938,-0.5561,-0.1308,-0.545,-0.471,165
2,0.1214,0.9938,-0.5561,-0.1123,-0.5341,-0.628,165
2,0.1153,0.9897,-0.5643,-0.0795,-0.5255,-0.7937,165
2,0.1744,1.0143,-0.5459,-0.074,-0.5473,-0.9463,165
2,0.1683,1.0,-0.5602,-0.1264,-0.556,-1.0923,165
2,0.1755,0.9826,-0.5867,-0.1373,-0.5898,-1.2188,165
2,0.2296,0.9969,-0.6102,-0.0675,-0.6072,-1.3334,165
2,0.2081,0.9704,-0.6489,-0.0228,-0.5679,-1.498,165
2,0.1265,0.9765,-0.651,0.0751,-0.52,-1.6125,165
2,0.0388,1.0153,-0.6214,0.0751,-0.52,-1.6125,165
2,-0.1102,0.9918,-0.5928,0.1221,-0.495,-1.7378,165
2,-0.1102,0.9918,-0.5928,0.0435,-0.5004,-1.8414,165
2,-0.1816,0.9142,-0.5928,-0.0784,-0.508,-1.8905,165
2,-0.2367,0.8204,-0.6112,-0.1417,-0.5189,-1.908,165
2,-0.3622,0.7204,-0.6306,-0.1438,-0.5221,-1.8893,165
2,-0.4418,0.699,-0.6398,-0.1417,-0.5276,-1.8611,165
2,-0.4959,0.6744,-0.6346,-0.1667,-0.5713,-1.813,165
2,-0.5286,0.651,-0.6122,-0.242,-0.6333,-1.7455,165
2,-0.5816,0.5939,-0.6143,-0.3477,-0.6923,-1.6463,165
2,-0.5816,0.5939,-0.6143,-0.3477,-0.6923,-1.6463,165
2,-0.4775,0.5663,-0.5581,-0.4284,-0.7566,-1.5438,165
2,-0.4775,0.5663,-0.5581,-0.4611,-0.7304,-1.5024,165
2,-0.6744,0.5061,-0.5755,-0.4404,-0.7958,-1.3769,165
2,-0.5183,0.5663,-0.4683,-0.4393,-0.871,-1.2962,165
2,-0.5602,0.5551,-0.4601,-0.5091,-0.834,-1.2331,165
2,-0.501,0.5245,-0.4387,-0.52,-0.7903,-1.1513,165
2,-0.5347,0.5714,-0.3796,-0.5102,-0.7632,-1.1077,165
2,-0.4683,0.6163,-0.355,-0.5244,-0.7588,-1.0477,165
2,-0.4806,0.6551,-0.3102,-0.5745,-0.6476,-0.9921,165
2,-0.5193,0.6316,-0.2959,-0.5745,-0.6476,-0.9921,165
2,-0.5193,0.6316,-0.2959,-0.6454,-0.556,-0.9191,165
2,-0.6214,0.5734,-0.3071,-0.6291,-0.5091,-0.8361,165
2,-0.605,0.5438,-0.2857,-0.5854,-0.4568,-0.7554,165
2,-0.6387,0.5245,-0.2795,-0.5124,-0.3336,-0.6825,165
2,-0.7357,0.5347,-0.2734,-0.4284,-0.2321,-0.6083,165
2,-0.7428,0.5714,-0.2367,-0.3903,-0.1493,-0.5309,165
2,-0.7275,0.602,-0.203,-0.4338,-0.0708,-0.4524,165
2,-0.699,0.5898,-0.203,-0.557,0.0316,-0.3729,165
2,-0.6735,0.5,-0.2061,-0.6672,0.1144,-0.2823,165
2,-0.6122,0.4836,-0.1918,-0.6672,0.1144,-0.2823,165
2,-0.6122,0.4836,-0.1918,-0.7217,0.1657,-0.1667,165
2,-0.5571,0.499,-0.1337,-0.7609,0.2562,-0.0708,165
2,-0.5581,0.5367,-0.15,-0.8395,0.3565,-0.0196,165
2,-0.5193,0.5357,-0.1683,-0.8885,0.4252,0.0349,165
2,-0.5122,0.553,-0.1612,-0.8863,0.4481,0.0894,165
2,-0.4775,0.5796,-0.1041,-0.9082,0.4677,0.1362,165
2,-0.4724,0.5551,-0.105,-0.979,0.508,0.1581,165
2,-0.502,0.5316,-0.1234,-1.0084,0.5112,0.1864,165
2,-0.5214,0.5295,-0.1489,-0.978,0.4393,0.231,165
2,-0.5193,0.5418,-0.1163,-0.978,0.4393,0.231,165
2,-0.5877,0.5275,-0.101,-0.9485,0.3597,0.2747,165
2,-0.5877,0.5275,-0.101,-0.9528,0.2911,0.3193,165
2,-0.6387,0.502,-0.105,-0.9234,0.1711,0.3794,165
2,-0.6724,0.4877,-0.0622,-0.8809,0.0152,0.4414,165
2,-0.702,0.4357,-0.0449,-0.8416,-0.1515,0.507,165
2,-0.6959,0.4357,-0.0306,-0.713,-0.3041,0.5723,165
2,-0.6592,0.4857,0.0255,-0.5265,-0.4404,0.6465,165
2,-0.6163,0.5541,0.1214,-0.4252,-0.5331,0.7249,165
2,-0.5581,0.5295,0.2255,-0.4252,-0.5331,0.7249,165
2,-0.5295,0.4408,0.1796,-0.4065,-0.5745,0.797,165
2,-0.5132,0.4224,0.204,-0.3128,-0.556,0.8678,165
2,-0.5132,0.4224,0.204,-0.0719,-0.5167,0.9551,165
2,-0.2571,0.2918,0.3582,0.0141,-0.4721,0.9605,165
2,-0.4112,0.4142,-0.0591,0.4132,-0.1471,1.1175,165
2,-0.2673,0.5255,0.2816,0.6901,0.0795,1.1098,165
2,-0.3541,0.4826,0.1765,0.8939,0.3859,1.1131,165
2,-0.1581,0.5479,0.0143,1.0444,0.5221,1.1709,165
2,-0.2122,0.5734,-0.1041,1.1808,0.8187,1.2308,165
2,-0.1326,0.653,-0.1714,1.1808,0.8187,1.2308,165
2,-0.1326,0.653,-0.1714,1.2014,1.0761,1.2821,165
2,-0.2204,0.7224,-0.1867,1.0543,1.2745,1.2962,165
2,-0.1489,0.7306,-0.2908,0.7653,1.2897,1.3344,165
2,-0.1541,0.7173,-0.3694,0.4763,1.3715,1.4261,165
2,-0.2296,0.6816,-0.4214,0.2442,1.4227,1.4969,165
3,-0.2816,0.5541,-0.6724,0.3237,1.4358,1.5362,165
3,-0.3448,0.8459,-0.3234,0.2278,1.3039,1.5906,165
3,-0.2571,0.8122,-0.2581,-0.0904,1.124,1.5961,165
3,-0.1847,0.5816,-0.601,-0.1842,1.0694,1.6375,165
3,-0.1928,0.6214,-0.3255,-0.1842,1.0694,1.6375,165
3,-0.1928,0.6214,-0.3255,0.0108,1.0051,1.6932,165
3,-0.1785,0.7051,-0.5163,0.2039,0.9965,1.7281,165
3,-0.2245,0.7683,-0.3377,0.2136,1.0051,1.7487,165
3,-0.2296,0.702,-0.5255,0.2453,0.9954,1.7727,165
3,-0.2183,0.754,-0.4449,0.4219,1.0194,1.788,165
3,-0.2847,0.8152,-0.4755,0.5833,1.0782,1.7771,165
3,-0.2592,0.8663,-0.5306,0.6333,1.0652,1.7323,165
3,-0.2265,0.9714,-0.5877,0.628,1.0128,1.6867,165
3,-0.1418,0.999,-0.7092,0.6705,0.9681,1.631,165
3,-0.1489,1.0989,-0.7581,0.6705,0.9681,1.631,165
3,-0.1387,1.2071,-0.7888,0.8078,0.9736,1.5797,165
3,-0.1387,1.2071,-0.7888,0.9212,0.9769,1.4805,165
3,-0.0826,1.4663,-0.8265,1.003,0.8395,1.2418,165
3,-0.0826,1.4663,-0.8265,0.8111,0.7871,1.1152,165
3,0.0295,1.3857,-0.9275,0.6028,0.7075,1.0477,165
3,0.051,1.3398,-0.8561,0.5211,0.6454,1.0357,165
3,0.0275,1.3459,-0.8184,0.5396,0.6181,0.9572,165
3,0.0255,1.3724,-0.8704,0.6442,0.4786,0.7806,165
3,0.1775,1.4867,-0.5612,0.701,0.4109,0.5745,165
3,0.2388,1.4601,-0.5326,0.5952,0.3903,0.4175,165
3,0.2153,1.4071,-0.4704,0.3717,0.388,0.3041,165
3,0.3,1.101,-0.4357,0.3717,0.388,0.3041,165
3,0.3,1.101,-0.4357,0.2409,0.3073,0.2169,165
3,0.3132,0.9244,-0.351,0.2365,0.3368,0.2071,165
3,0.2704,0.7438,-0.1122,0.1787,0.4753,0.2998,165
3,0.0551,0.6204,-0.103,-0.1341,0.5374,0.3838,165
3,0.3214,0.2581,-0.7224,-0.1003,0.1886,0.5473,165
3,0.5469,0.5643,-0.7183,0.7915,0.1613,0.5713,165
3,-0.152,0.799,-1.2051,1.8773,0.3968,0.351,165
3,0.0377,1.3989,-1.5183,2.9219,0.1352,0.0076,165
3,-0.1826,1.9938,-1.5357,3.8017,-0.4077,-0.822,165
3,0.1571,1.9999,-1.2397,3.8017,-0.4077,-0.822,165
3,0.1571,1.9999,-1.2397,3.6884,-0.8525,-1.1808,165
3,0.3734,1.9999,-0.902,2.706,-0.8111,-1.2428,165
3,0.5928,1.9999,-0.6337,0.967,-0.6596,-1.0084,165
3,0.4122,1.6765,-0.7918,-0.6911,-0.3466,-0.6257,165
3,0.4938,1.2275,-0.7643,-1.7401,-0.2245,-0.471,165
3,0.453,0.7826,-0.9592,-1.7771,-0.2027,-0.4807,165
3,-0.0816,0.3448,-0.8939,-1.1915,-0.7447,-0.6999,165
3,0.152,0.4418,-0.9418,-0.3826,-1.5438,-1.1066,165
3,0.4836,0.5561,-0.6694,0.0261,-1.8185,-1.5688,165
3,0.3561,0.6041,-0.7183,0.0261,-1.8185,-1.5688,165
3,0.4367,0.7275,-0.5551,0.3401,-1.6146,-1.8534,165
3,0.4367,0.7275,-0.5551,0.5833,-1.3552,-1.9853,165
3,0.2183,0.8755,-0.5979,0.6388,-1.0477,-2.0572,165
3,-0.1663,0.9633,-0.3939,0.5124,-1.3061,-1.9591,165
3,-0.0428,1.0908,-0.5408,0.037,-1.7106,-1.921,165
3,0.1459,0.8357,-0.4857,-0.4938,-1.6518,-1.9679,165
3,-0.204,0.7265,-0.7316,-0.5102,-1.3933,-1.8098,165
3,-0.3418,0.7092,-0.6479,-0.4763,-1.449,-1.8054,165
3,-0.5377,0.6755,-0.6898,-0.4763,-1.449,-1.8054,165
3,-0.3265,0.6683,-0.3316,-0.4677,-1.5459,-1.8916,165
3,-0.4061,0.4734,-0.6857,-0.6803,-1.7672,-1.8611,165
3,-0.4061,0.4734,-0.6857,-0.8329,-1.6888,-1.7498,165
3,-0.5979,0.302,-0.6551,-0.6672,-1.5297,-1.5427,165
3,-0.5908,0.3336,-0.4938,-0.3434,-1.5263,-1.4271,165
3,-0.5836,0.4041,-0.501,-0.1449,-1.5514,-1.3998,165
3,-0.5948,0.5357,-0.3989,-0.2245,-1.5122,-1.317,165
3,-0.5836,0.4244,-0.4592,-0.3968,-1.4227,-1.2537,165
3,-0.5877,0.4203,-0.4592,-0.3663,-1.3813,-1.185,165
3,-0.449,0.4877,-0.3765,-0.3663,-1.3813,-1.185,165
3,-0.449,0.4877,-0.3765,-0.3575,-1.3191,-1.1295,165
3,-0.4051,0.3806,-0.449,-0.3575,-1.3191,-1.1295,165
3,-0.3959,0.2826,-0.4979,-0.5036,-1.1621,-1.0816,165
3,-0.2898,0.2581,-0.5336,-0.3063,-1.0357,-0.8775,165
3,-0.2418,0.3275,-0.4755,-0.0751,-0.8329,-0.7947,165
3,-0.3152,0.5255,-0.4285,-0.0097,-0.6388,-0.8056,165
3,-0.3184,0.6071,-0.4704,-0.0097,-0.6388,-0.8056,165
3,-0.3745,0.6071,-0.5336,-0.0523,-0.4992,-0.8155,165
3,-0.453,0.5684,-0.5204,-0.3151,-0.3368,-0.858,165
3,-0.4183,0.4347,-0.6479,-0.3151,-0.3368,-0.858,165
3,-0.4183,0.4347,-0.6479,-0.3292,-0.255,-0.883,165
3,-0.4142,0.4224,-0.5796,-0.2539,-0.1558,-0.8853,165
3,-0.4428,0.4387,-0.5786,-0.2539,-0.1558,-0.8853,165
3,-0.4959,0.4428,-0.4918,-0.2005,-0.0784,-0.8481,165
3,-0.5,0.3745,-0.5112,-0.495,0.025,-0.726,165
3,-0.4979,0.3091,-0.5326,-0.495,0.025,-0.726,165
3,-0.5398,0.2847,-0.5071,-0.6039,0.1852,-0.5549,165
3,-0.5939,0.3489,-0.4959,-0.6039,0.1852,-0.5549,165
3,-0.602,0.4071,-0.4377,-0.6181,0.2573,-0.4763,165
3,-0.6265,0.4255,-0.4316,-0.6181,0.2573,-0.4763,165
3,-0.6275,0.449,-0.4132,-0.8405,0.3706,-0.314,165
3,-0.6275,0.449,-0.4132,-0.9114,0.4295,-0.2213,165
3,-0.6408,0.4867,-0.4357,-0.9288,0.496,-0.1133,165
3,-0.6744,0.502,-0.4061,-0.9288,0.496,-0.1133,165
3,-0.7908,0.4826,-0.3837,-1.016,0.5745,0.0087,165
3,-0.8184,0.451,-0.3755,-1.1415,0.4818,0.2823,165
3,-0.8347,0.5173,-0.3275,-1.123,0.4372,0.4109,165
3,-0.8694,0.5183,-0.2979,-1.2145,0.4382,0.5135,165
3,-0.8837,0.4714,-0.2795,-1.2145,0.4382,0.5135,165
3,-0.7959,0.4408,-0.2051,-1.2145,0.4382,0.5135,165
3,-0.7133,0.4387,-0.1642,-1.256,0.3739,0.5952,165
3,-0.7133,0.4387,-0.1642,-1.2232,0.2594,0.6749,165
3,-0.6755,0.4347,-0.0948,-1.1066,0.2201,0.7958,165
3,-0.5112,0.3694,-0.0132,-1.0194,0.1798,0.8733,165
3,-0.4653,0.3826,0.001,-1.0194,0.1798,0.8733,165
3,-0.4255,0.3949,0.0234,-0.8787,0.182,0.9626,165
3,-0.3837,0.3979,0.0826,-0.713,0.1972,1.173,165
3,-0.3265,0.402,0.0786,-0.6039,0.2136,1.28,165
3,-0.3152,0.4367,0.1102,-0.6039,0.2136,1.28,165
3,-0.3,0.4806,0.15,-0.4851,0.2398,1.3846,165
3,-0.2531,0.5071,0.1714,-0.4851,0.2398,1.3846,165
4,-0.2531,0.5071,0.1714,-0.4175,0.2464,1.4784,165
4,-0.254,0.4775,0.1602,-0.4088,0.3445,1.6223,165
4,-0.249,0.4683,0.1398,-0.3161,0.3706,1.668,165
4,-0.2194,0.5071,0.1275,-0.1766,0.4,1.7041,165
4,-0.2,0.6112,0.1071,-0.1766,0.4,1.7041,165
4,-0.2051,0.6245,0.0765,-0.0839,0.4589,1.7302,165
4,-0.2112,0.6326,0.0326,0.0162,0.5255,1.7804,165
4,-0.2142,0.6296,-0.004,0.061,0.532,1.8283,165
4,-0.2194,0.5948,-0.0214,0.061,0.532,1.8283,165
4,-0.2194,0.5948,-0.0214,0.0872,0.5484,1.884,165
4,-0.2214,0.5602,-0.0459,0.0872,0.5484,1.884,165
4,-0.2224,0.549,-0.0816,0.1428,0.5723,1.945,165
4,-0.1908,0.6479,-0.0581,0.3314,0.6018,2.1194,165
4,-0.1785,0.6877,-0.0622,0.3248,0.6301,2.2111,165
4,-0.1765,0.6847,-0.102,0.2922,0.6781,2.2928,165
4,-0.1785,0.6887,-0.1428,0.2922,0.6781,2.2928,165
4,-0.1663,0.8448,-0.2081,0.3542,0.7152,2.3756,165
4,-0.1469,0.9163,-0.2388,0.5745,0.7947,2.3876,165
4,-0.1459,0.9663,-0.3051,0.5745,0.7947,2.3876,165
4,-0.1459,0.9663,-0.3051,0.6606,0.846,2.3538,165
4,-0.0877,1.2081,-0.5806,0.7249,0.8722,2.3386,165
4,-0.1132,1.2867,-0.6683,0.809,0.8668,2.2939,165
4,-0.1132,1.2867,-0.6683,0.9899,0.8361,1.957,165
4,0.1408,1.2816,-0.6337,0.966,0.7064,1.7739,165
4,0.1857,1.2918,-0.7418,0.9168,0.714,1.7182,165
4,0.2622,1.3051,-0.6377,0.9168,0.714,1.7182,165
4,0.2081,1.3326,-0.702,0.7642,0.7621,1.7607,165
4,0.2571,1.3387,-0.8571,0.5179,0.6236,1.7793,165
4,0.2836,1.3867,-0.8408,0.6018,0.6148,1.6898,165
4,0.25,1.4949,-0.8439,0.6018,0.6148,1.6898,165
4,0.25,1.4949,-0.8439,0.6869,0.628,1.5328,165
4,0.2061,1.65,-0.7969,0.6869,0.628,1.5328,165
4,0.2908,1.6592,-0.7612,0.4763,0.3227,1.0891,165
4,0.3959,1.6602,-0.6428,0.3096,0.2693,0.9321,165
4,0.3694,1.651,-0.5265,0.3096,0.2693,0.9321,165
4,0.35,1.3286,-0.4479,-0.1341,0.2213,0.6857,165
4,0.3765,1.0969,-0.3286,-0.1341,0.2213,0.6857,165
4,0.4214,0.855,-0.2449,-0.2747,0.1396,0.6333,165
4,0.353,0.5551,0.004,-0.2834,0.1581,0.7184,165
4,0.3694,0.451,0.0255,-0.2834,0.1581,0.7184,165
4,0.3694,0.451,0.0255,-0.3445,0.1438,0.6367,165
4,0.3785,0.3571,-0.4438,-0.182,-0.0534,0.5299,165
4,0.5969,0.3377,-1.151,-0.182,-0.0534,0.5299,165
4,0.2786,1.2561,-1.0663,2.5501,-0.5102,0.3193,165
4,0.1969,1.7806,-1.2959,3.4845,-0.7184,-0.1972,165
4,0.3439,1.9999,-1.4561,3.6676,-1.0673,-0.5996,165
4,0.6694,1.9999,-1.0051,3.214,-1.3388,-0.665,165
4,0.5449,1.9999,-1.0551,3.214,-1.3388,-0.665,165
4,0.6449,1.9999,-0.7581,2.4095,-1.3366,-0.338,165
4,0.6112,1.8418,-0.703,2.4095,-1.3366,-0.338,165
4,0.5908,1.0122,-0.9275,-0.1493,-1.2188,-0.3292,165
4,0.5908,1.0122,-0.9275,-0.7827,-1.2188,-0.5604,165
4,0.5734,0.7959,-0.9836,-0.8122,-1.2516,-0.7991,165
4,0.5857,0.6571,-1.0183,-0.8122,-1.2516,-0.7991,165
4,0.5367,0.6398,-0.999,-0.3031,-1.4141,-1.2069,165
4,0.5989,0.5591,-0.8785,-0.1362,-1.4719,-1.4914,165
4,0.6153,0.5663,-0.8428,0.0774,-1.4511,-1.7041,165
4,0.6581,0.6102,-0.7581,0.3019,-1.3475,-1.8262,165
4,0.4928,0.8714,-0.6541,0.3019,-1.3475,-1.8262,165
4,0.4714,0.9326,-0.6082,0.3019,-1.3475,-1.8262,165
4,0.4061,0.9142,-0.6173,0.4284,-1.1284,-1.9765,165
4,0.4061,0.9142,-0.6173,0.2049,-0.4797,-2.1925,165
4,0.3673,0.8673,-0.6377,0.025,-0.0686,-2.1358,165
4,0.1796,0.7357,-0.6459,-0.1438,0.3597,-2.0421,165
4,-0.7449,0.5663,-0.5214,-0.1438,0.3597,-2.0421,165
4,-1.2285,0.3479,-0.8275,-0.2495,0.1602,-2.0289,165
4,0.3489,0.6541,-0.5295,0.0228,-2.2394,-2.0595,165
4,-0.1153,0.402,-0.801,0.0053,-1.437,-2.0366,165
4,-0.3377,0.602,-0.8877,0.1373,-0.9441,-1.9156,165
4,-0.3377,0.602,-0.8877,0.1373,-0.9441,-1.9156,165
4,-0.5,0.605,-0.7092,0.1373,-0.9441,-1.9156,165
4,-0.5,0.605,-0.7092,-0.0305,-0.7947,-1.8817,165
4,-0.1306,0.5224,-0.3448,-0.859,-1.425,-1.6398,165
4,-0.2888,0.2316,-0.8622,-0.9931,-1.0848,-1.3922,165
4,-0.3612,0.2,-0.8214,-0.7773,-0.9311,-1.135,165
4,-0.703,0.2745,-0.9051,-0.7773,-0.9311,-1.135,165
4,-0.2112,0.3571,-0.5918,-0.5778,-0.9376,-1.2691,165
4,-0.5449,0.4357,-0.6949,-0.2125,-1.0858,-1.2603,165
4,-0.1744,0.5745,-0.4857,-0.3804,-0.8012,-1.3813,165
4,-0.2693,0.4836,-0.4122,-0.3804,-0.8012,-1.3813,165
4,-0.2693,0.4836,-0.4122,-0.6127,-0.5757,-1.3475,165
4,-0.1887,0.4836,-0.4755,-0.6127,-0.5757,-1.3475,165
4,-0.1183,0.4724,-0.5143,-0.6737,-0.6007,-1.2483,165
4,-0.0877,0.4041,-0.5438,-0.7392,-0.3325,-1.1873,165
4,-0.1775,0.3806,-0.5632,-0.6388,-0.1428,-1.1938,165
4,-0.2326,0.3683,-0.5071,-0.5244,-0.0969,-1.2439,165
4,-0.1796,0.502,-0.5092,-0.5244,-0.0969,-1.2439,165
4,-0.2888,0.5255,-0.4765,-0.4404,-0.0469,-1.2374,165
4,-0.35,0.5316,-0.501,-0.5757,0.1951,-1.2342,165
4,-0.3949,0.5643,-0.499,-0.5757,0.1951,-1.2342,165
4,-0.3949,0.5643,-0.499,-0.6661,0.2125,-1.2025,165
4,-0.3959,0.5693,-0.453,-0.7882,0.2321,-1.148,165
4,-0.4194,0.5684,-0.4571,-0.7882,0.2321,-1.148,165
4,-0.4969,0.5877,-0.3846,-0.883,0.2899,-1.0575,165
4,-0.5357,0.5939,-0.3683,-1.1066,0.3597,-0.858,165
4,-0.5857,0.5428,-0.3234,-1.2439,0.3128,-0.713,165
4,-0.6275,0.4908,-0.3683,-1.3258,0.3183,-0.5679,165
4,-0.6469,0.4357,-0.3357,-1.3258,0.3183,-0.5679,165
4,-0.7469,0.4194,-0.2836,-1.3224,0.351,-0.4273,165
4,-0.754,0.4132,-0.2632,-1.3224,0.351,-0.4273,165
4,-0.754,0.4132,-0.2632,-1.2712,0.3489,-0.3052,165
4,-0.7581,0.3939,-0.2347,-1.3039,0.2039,-0.073,165
4,-0.7194,0.3622,-0.2142,-1.2461,0.1667,0.0272,165
4,-0.6877,0.3745,-0.1541,-1.2461,0.1667,0.0272,165
4,-0.65,0.4367,-0.0714,-1.1001,0.1341,0.1384,165
4,-0.6255,0.4734,-0.0193,-0.979,0.0511,0.3891,165
4,-0.5551,0.3724,0.0326,-1.003,0.0282,0.5179,165
4,-0.5163,0.2867,0.0265,-1.003,0.0282,0.5179,165
4,-0.4592,0.2602,0.051,-0.9311,0.0206,0.6596,165
4,-0.4612,0.2888,0.0836,-0.9311,0.0206,0.6596,165
5,-0.4612,0.4071,0.1285,-0.6988,0.0337,0.8187,165
5,-0.4612,0.4071,0.1285,-0.2943,0.1123,1.0793,165
5,-0.4153,0.5153,0.1612,-0.2987,0.1112,1.1894,165
5,-0.3877,0.3979,0.2673,-0.206,0.1417,1.281,165
5,-0.2693,0.5071,0.0449,-0.206,0.1417,1.281,165
5,-0.4694,0.6,0.1306,-0.0589,0.2987,1.3366,165
5,-0.3734,0.6183,0.0796,-0.0839,0.3096,1.4751,165
5,-0.2643,0.5908,0.0286,-0.1177,0.3302,1.4958,165
5,-0.303,0.5193,-0.0214,-0.1177,0.3302,1.4958,165
5,-0.303,0.5193,-0.0214,-0.0402,0.4088,1.5601,165
5,-0.3286,0.5867,-0.1622,-0.0402,0.4088,1.5601,165
5,-0.3091,0.6949,-0.0388,0.157,0.412,1.6419,165
5,-0.3173,0.699,-0.0908,0.11,0.3685,1.7258,165
5,-0.2826,0.6204,-0.1479,0.1329,0.3434,1.7891,165
5,-0.2643,0.6826,-0.1642,0.255,0.3346,1.8523,165
5,-0.2336,0.7377,-0.0877,0.255,0.3346,1.8523,165
5,-0.2101,0.754,-0.0989,0.2844,0.3804,1.8916,165
5,-0.1887,0.7357,-0.1439,0.1526,0.4338,1.957,165
5,-0.153,0.751,-0.1867,0.1526,0.4338,1.957,165
5,-0.153,0.751,-0.1867,0.1744,0.4742,1.9929,165
5,-0.049,1.0969,-0.4949,0.2354,0.5494,1.9843,165
5,-0.0377,1.1826,-0.5969,0.2976,0.5908,1.908,165
5,-0.0377,1.1826,-0.5969,0.4099,0.6236,1.8033,165
5,0.0193,1.251,-0.6041,0.5908,0.689,1.6757,165
5,0.1194,1.2357,-0.5459,0.8187,0.9267,1.7476,165
5,-0.299,1.5132,-0.5673,0.8187,0.9267,1.7476,165
5,-0.0388,1.3418,-0.3949,0.5516,0.966,1.751,165
5,-0.0255,1.2285,-0.8051,0.0872,0.6988,1.7564,165
5,-0.0867,1.3122,-0.6837,0.3401,0.7108,1.6245,165
5,-0.0316,1.4092,-0.6735,0.4164,0.6442,1.4685,165
5,-0.052,1.4806,-0.5989,0.4164,0.6442,1.4685,165
5,0.0234,1.3949,-0.5847,0.4164,0.6442,1.4685,165
5,0.0234,1.3949,-0.5847,0.2812,0.5582,1.3508,165
5,0.1367,1.3347,-0.6204,0.11,0.2147,1.1142,165
5,0.1694,1.2959,-0.6234,0.11,0.2147,1.1142,165
5,0.2275,1.3571,-0.5,0.4568,0.1013,0.8024,165
5,0.3041,1.3296,-0.449,0.4568,0.1013,0.8024,165
5,0.4235,1.252,-0.4551,0.4742,-0.0414,0.6345,165
5,0.5632,1.1571,-0.4571,0.5974,-0.1329,0.4622,165
5,0.3806,0.9704,-0.1928,0.557,-0.1167,0.3205,165
5,0.2979,0.8152,-0.1744,0.557,-0.1167,0.3205,165
5,0.2979,0.8152,-0.1744,0.544,-0.1341,0.2878,165
5,0.2133,0.7112,-0.201,0.544,-0.1341,0.2878,165
5,0.249,0.5918,-0.2285,0.5112,-0.1755,0.3031,165
5,-0.1346,1.5714,-0.9928,1.3039,-0.3891,-0.0326,165
5,0.0081,1.901,-1.6622,2.2165,-0.6291,-0.8132,165
5,-0.0786,1.8837,-1.9847,3.1247,-1.0303,-1.0902,165
5,0.6561,1.8122,-0.8448,3.1247,-1.0303,-1.0902,165
5,0.3857,1.7734,-0.9214,3.2457,-1.4424,-0.8601,165
5,0.5204,1.7397,-0.9102,1.5274,-1.4456,-0.483,165
5,0.3846,1.6663,-0.9622,1.5274,-1.4456,-0.483,165
5,0.3846,1.6663,-0.9622,0.9005,-1.57,-0.8449,165
5,0.4571,1.3979,-1.1724,0.665,-1.7781,-1.3258,165
5,0.454,1.4306,-1.102,0.665,-1.7781,-1.3258,165
5,0.5826,1.3204,-1.0183,0.4546,-1.9122,-1.5808,165
5,0.5388,1.0479,-0.8479,0.0272,-1.9526,-1.5808,165
5,0.4877,0.8939,-0.7949,-0.8395,-1.6855,-1.4609,165
5,0.3908,0.803,-0.8398,-0.895,-1.4042,-1.5633,165
5,0.3857,0.7234,-0.7888,-0.895,-1.4042,-1.5633,165
5,0.2704,0.6949,-0.6592,-0.895,-1.4042,-1.5633,165
5,0.2306,0.6928,-0.6449,-0.7609,-1.0477,-1.7739,165
5,0.2306,0.6928,-0.6449,-0.5908,-0.6083,-2.102,165
5,0.2224,0.6449,-0.6642,-0.4633,-0.1667,-2.4269,165
5,-1.1285,0.5031,-0.2949,-0.1613,0.2213,-2.6821,165
5,-0.9938,0.7296,-0.6979,-0.1613,0.2213,-2.6821,165
5,0.3143,1.0357,-0.25,0.1558,-1.5055,-2.5011,165
5,0.4449,0.4092,-0.4847,-0.5908,-2.5294,-2.5272,165
5,-0.6724,0.2857,-0.2888,-0.4818,-1.0248,-2.0061,165
5,-0.9785,0.5663,-0.6316,-0.1297,-1.4435,-2.1074,165
5,-0.3112,0.5132,-0.5143,-0.1297,-1.4435,-2.1074,165
5,-0.2847,0.3683,-0.3653,-0.1297,-1.4435,-2.1074,165
5,-0.2847,0.3683,-0.3653,-0.4328,-1.7171,-2.5011,165
5,-0.5887,0.2418,-0.5286,-0.3325,-1.3334,-2.4116,165
5,-0.4418,0.3184,-0.2459,-0.3325,-1.3334,-2.4116,165
5,-0.4938,0.3591,-0.4653,-0.5593,-1.2493,-2.2142,165
5,-0.5224,0.0643,-0.5081,-0.5593,-1.2493,-2.2142,165
5,-0.4714,0.0704,-0.553,-0.7392,-1.2712,-2.0867,165
5,-0.5959,0.1602,-0.3694,-0.3227,-1.003,-1.8185,165
5,-0.6449,0.153,-0.4428,-0.2213,-0.9408,-1.7596,165
5,-0.6173,0.2622,-0.3745,-0.2213,-0.9408,-1.7596,165
5,-0.6173,0.2622,-0.3745,-0.1842,-0.9038,-1.6419,165
5,-0.5765,0.2806,-0.3643,-0.1842,-0.9038,-1.6419,165
5,-0.5428,0.2724,-0.4,-0.231,-0.8132,-1.5339,165
5,-0.6132,0.3091,-0.3775,-0.3073,-0.5015,-1.3454,165
5,-0.5877,0.3582,-0.4326,-0.3586,-0.4338,-1.2592,165
5,-0.5479,0.3663,-0.4041,-0.4851,-0.3161,-1.1959,165
5,-0.5561,0.3173,-0.453,-0.4851,-0.3161,-1.1959,165
5,-0.5214,0.3439,-0.4265,-0.5255,-0.0937,-1.0575,165
5,-0.4734,0.3796,-0.3806,-0.5723,-0.0053,-1.0063,165
5,-0.4734,0.3612,-0.3969,-0.5723,-0.0053,-1.0063,165
5,-0.4734,0.3612,-0.3969,-0.7075,0.1112,-0.9637,165
5,-0.501,0.3204,-0.4153,-0.7642,0.182,-0.9092,165
5,-0.5377,0.3989,-0.4683,-0.7642,0.182,-0.9092,165
5,-0.5632,0.4418,-0.45,-0.7283,0.2583,-0.8569,165
5,-0.6326,0.5081,-0.4112,-0.6726,0.3586,-0.8056,165
5,-0.6887,0.6306,-0.2255,-0.738,0.4536,-0.6083,165
5,-0.7367,0.6214,-0.2194,-1.0118,0.5124,-0.4643,165
5,-0.8122,0.5796,-0.2234,-1.0118,0.5124,-0.4643,165
5,-0.8867,0.5102,-0.2183,-1.2941,0.5473,-0.231,165
5,-0.9122,0.353,-0.2479,-1.2941,0.5473,-0.231,165
5,-0.9061,0.3439,-0.2347,-1.5307,0.5102,0.0818,165
5,-0.9061,0.3439,-0.2347,-1.5307,0.5102,0.0818,165
5,-0.9153,0.3602,-0.202,-1.3628,0.544,0.3019,165
5,-0.8837,0.4061,-0.0826,-1.3628,0.544,0.3019,165
5,-0.8265,0.3928,-0.1082,-1.3475,0.5004,0.4,165
5,-0.7795,0.3387,-0.0939,-1.3628,0.3641,0.6203,165
5,-0.7326,0.3316,-0.05,-1.1959,0.338,0.7501,165
5,-0.6806,0.3316,0.0796,-1.0694,0.2932,0.8733,165
5,-0.6337,0.2908,0.049,-1.0694,0.2932,0.8733,165
5,-0.5806,0.2693,0.0948,-1.0694,0.2932,0.8733,165
6,-0.5908,0.2969,0.1132,-0.9463,0.2388,1.0084,165
6,-0.5908,0.2969,0.1132,-0.4546,0.2583,1.2571,165
6,-0.5479,0.4918,0.3081,-0.3445,0.2005,1.3344,165
6,-0.4459,0.4122,0.1663,-0.2442,0.2725,1.3944,165
6,-0.4663,0.4275,0.0326,-0.2442,0.2725,1.3944,165
6,-0.6204,0.5571,0.0786,-0.036,0.4229,1.4195,165
6,-0.4071,0.5652,0.1847,0.0969,0.3031,1.5165,165
6,-0.3296,0.5459,0.0581,0.0894,0.4197,1.5318,165
6,-0.4479,0.4949,0.0102,0.1657,0.496,1.5372,165
6,-0.4479,0.4949,0.0102,0.1657,0.496,1.5372,165
6,-0.3102,0.6132,0.0306,0.1657,0.496,1.5372,165
6,-0.3102,0.6132,0.0306,0.3085,0.4742,1.582,165
6,-0.355,0.6377,-0.0173,0.2737,0.5179,1.6321,165
6,-0.2592,0.6489,-0.0684,0.2594,0.5211,1.6331,165
6,-0.2561,0.6724,-0.101,0.2823,0.5484,1.6451,165
6,-0.2438,0.7092,-0.1061,0.3031,0.5625,1.6604,165
6,-0.2316,0.7306,-0.1204,0.2758,0.5757,1.6625,165
6,-0.2051,0.7092,-0.1551,0.2823,0.6062,1.6779,165
6,-0.2326,0.7592,-0.1673,0.2823,0.6062,1.6779,165
6,-0.2326,0.7592,-0.1673,0.3542,0.6312,1.7052,165
6,-0.2224,0.7653,-0.1551,0.2529,0.7064,1.7466,165
6,-0.2388,0.7571,-0.1744,0.2529,0.7064,1.7466,165
6,-0.2388,0.7571,-0.1744,0.2464,0.7217,1.7781,165
6,-0.2234,0.7775,-0.1969,0.2922,0.7228,1.7836,165
6,-0.2051,0.851,-0.2418,0.3227,0.7522,1.7607,165
6,-0.2316,0.8643,-0.3071,0.3434,0.7861,1.7281,165
6,-0.2581,0.9092,-0.3398,0.4012,0.7762,1.6974,165
6,-0.2602,0.9683,-0.3979,0.471,0.7403,1.6223,165
6,-0.2142,1.0612,-0.5245,0.6062,0.7327,1.5568,165
6,-0.203,0.9622,-0.4734,0.6062,0.7327,1.5568,165
6,-0.4142,1.203,-0.601,0.8439,0.8481,1.4391,165
6,-0.2571,1.0826,-0.6234,0.8264,0.7708,1.3693,165
6,-0.2571,1.0826,-0.6234,0.7359,0.6051,1.3683,165
6,-0.2194,1.1346,-0.6479,0.7337,0.5647,1.45,165
6,-0.1735,1.1346,-0.5693,0.7098,0.6661,1.425,165
6,-0.3061,1.1071,-0.7418,0.8144,0.6791,1.3683,165
6,-0.2683,1.251,-0.6428,0.8525,0.5179,1.3017,165
6,-0.2418,1.2683,-0.7683,0.7697,0.4481,1.1676,165
6,-0.2469,1.3091,-0.7795,0.7457,0.4284,1.0183,165
6,-0.2592,1.4633,-0.8724,0.797,0.3271,0.8002,165
6,-0.1877,1.5612,-0.799,0.797,0.3271,0.8002,165
6,-0.1877,1.5612,-0.799,0.8166,0.1232,0.5528,165
6,-0.0796,1.6,-0.7877,0.714,-0.0414,0.3085,165
6,0.0265,1.5989,-0.8163,0.5516,-0.1373,0.1722,165
6,0.1061,1.452,-0.7367,0.424,-0.2453,0.1515,165
6,0.1632,1.3091,-0.6969,0.3532,-0.3848,0.1274,165
6,0.2081,1.1877,-0.6214,0.3597,-0.5015,0.073,165
6,0.2306,1.0663,-0.5398,0.4187,-0.532,-0.0185,165
6,0.1796,0.7908,-0.3347,0.4841,-0.5091,-0.0872,165
6,0.1561,0.6265,-0.2581,0.5221,-0.52,-0.0457,165
6,0.3184,0.5765,0.3398,0.5221,-0.52,-0.0457,165
6,0.3184,0.5765,0.3398,0.6236,-0.314,-0.0032,165
6,-0.0183,0.4092,-0.2051,0.35,-0.23,-0.0577,165
6,-0.05,0.3591,-1.0652,0.6857,-0.4589,-0.025,165
6,0.0061,0.7571,-1.1847,2.2928,-0.4175,-0.0643,165
6,-0.3796,1.2388,-1.2194,3.6087,-0.255,-0.5364,165
6,-0.1796,1.4,-1.8663,4.1201,-0.5429,-1.027,165
6,-0.5459,1.7081,-1.8469,4.3523,-0.9158,-1.0923,165
6,-0.0684,1.8357,-1.3306,4.0383,-1.4097,-1.2842,165
6,0.0347,1.9999,-1.2469,3.214,-1.631,-1.2308,165
6,0.3591,1.8602,-0.9561,3.214,-1.631,-1.2308,165
6,0.2163,1.3632,-1.3979,1.6211,-1.8338,-1.1753,165
6,0.2163,1.3632,-1.3979,0.0883,-1.9494,-1.0335,165
6,0.25,0.9938,-1.4183,-0.556,-2.1947,-0.7031,165
6,0.0051,0.8643,-1.3969,-0.5461,-2.367,-0.7098,165
6,-0.0306,0.8102,-1.4071,-0.3891,-2.5217,-1.0782,165
6,0.0724,0.7786,-1.1041,-0.2234,-2.5402,-1.6102,165
6,0.1387,0.6632,-1.0275,-0.0948,-2.3103,-2.0158,165
6,0.204,0.6622,-0.8204,-0.1133,-1.9614,-2.1598,165
6,0.1735,0.601,-0.749,-0.1133,-1.9614,-2.1598,165
6,0.1969,0.4949,-0.7122,-0.4012,-1.511,-2.2535,165
6,0.049,0.3102,-0.7061,-0.6923,-1.0444,-2.235,165
6,0.049,0.3102,-0.7061,-0.8819,-0.5582,-2.1806,165
6,-0.9306,0.0867,-0.4704,-0.8024,-0.6759,-2.2252,165
6,-1.1163,0.0704,-0.8683,-0.4807,-2.0158,-2.2905,165
6,-0.1061,0.5336,-0.4459,-0.8024,-2.5818,-2.4139,165
6,-0.4224,-0.1439,-0.7979,-1.0259,-1.6016,-2.441,165
6,-0.9203,0.2347,-0.6826,-0.652,-1.6102,-2.0791,165
6,-0.2949,0.3653,-0.1183,-0.8035,-1.7476,-2.1413,165
6,-0.7643,0.153,-0.6785,-0.8035,-1.7476,-2.1413,165
6,-0.7643,0.153,-0.6785,-1.0848,-1.5024,-2.2241,165
6,-0.5204,0.0898,-0.3949,-1.0564,-1.6125,-2.0257,165
6,-0.5561,0.153,-0.5143,-1.0106,-1.4881,-1.945,165
6,-0.7204,0.1316,-0.4255,-1.0553,-1.4173,-1.8622,165
6,-0.6571,0.0561,-0.4622,-0.9866,-1.4195,-1.7586,165
6,-0.6194,0.051,-0.3377,-0.9017,-1.3126,-1.6518,165
6,-0.7122,0.0581,-0.3439,-0.7991,-1.1698,-1.5568,165
6,-0.6959,0.0979,-0.3152,-0.7447,-1.1055,-1.4675,165
6,-0.6775,0.1663,-0.3193,-0.7413,-1.0204,-1.3769,165
6,-0.6387,0.1479,-0.3163,-0.7413,-1.0204,-1.3769,165
6,-0.6387,0.1479,-0.3163,-0.7392,-0.9071,-1.2974,165
6,-0.6183,0.1459,-0.3326,-0.689,-0.7653,-1.2222,165
6,-0.5643,0.1703,-0.3041,-0.6682,-0.652,-1.1392,165
6,-0.5347,0.1796,-0.3071,-0.6966,-0.5353,-1.0587,165
6,-0.5214,0.1877,-0.3173,-0.7272,-0.4065,-0.9877,165
6,-0.5265,0.2133,-0.3571,-0.713,-0.2823,-0.9179,165
6,-0.5867,0.3255,-0.3939,-0.7075,-0.1711,-0.8689,165
6,-0.6214,0.3745,-0.4183,-0.7205,-0.0806,-0.8307,165
6,-0.6663,0.4224,-0.4357,-0.7392,0.0021,-0.8024,165
6,-0.7194,0.4622,-0.3561,-0.7392,0.0021,-0.8024,165
6,-0.7745,0.4918,-0.2918,-0.7708,0.0818,-0.7392,165
6,-0.7745,0.4918,-0.2918,-0.8929,0.1558,-0.6377,165
6,-0.7836,0.4836,-0.2765,-1.1131,0.181,-0.5331,165
6,-0.803,0.4387,-0.3081,-1.2941,0.2289,-0.4187,165
6,-0.855,0.3949,-0.3102,-1.3464,0.2747,-0.3096,165
6,-0.855,0.4408,-0.2857,-1.3214,0.3085,-0.2125,165
6,-0.8704,0.4704,-0.2255,-1.3846,0.3477,-0.1264,165
6,-0.8602,0.4285,-0.1959,-1.4948,0.3706,-0.0402,165
6,-0.8377,0.401,-0.1959,-1.4948,0.3706,-0.0402,165
6,-0.8184,0.3887,-0.153,-1.5482,0.3739,0.0457,165
7,-0.8265,0.3765,-0.1551,-1.5372,0.399,0.1318,165
7,-0.8265,0.3765,-0.1551,-1.5099,0.4132,0.2147,165
7,-0.8173,0.3582,-0.0745,-1.4784,0.412,0.2932,165
7,-0.8132,0.3591,-0.0898,-1.4326,0.3771,0.3859,165
7,-0.7755,0.3316,-0.0438,-1.3355,0.363,0.4797,165
7,-0.7755,0.3296,-0.0275,-1.2113,0.3685,0.5877,165
7,-0.7693,0.3489,0.0908,-1.0837,0.3739,0.6988,165
7,-0.7571,0.3612,0.1173,-0.979,0.3717,0.8002,165
7,-0.7469,0.3591,0.1082,-0.8569,0.3826,0.9038,165
7,-0.7938,0.4183,0.1204,-0.8569,0.3826,0.9038,165
7,-0.7061,0.4969,0.1816,-0.7098,0.4263,0.9931,165
7,-0.7061,0.4969,0.1816,-0.6846,0.3609,1.0618,165
7,-0.6265,0.2765,0.0459,-0.5734,0.4437,1.1196,165
7,-0.6489,0.3357,-0.052,-0.1667,0.5942,1.1741,165
7,-0.7745,0.6316,0.1285,-0.0992,0.532,1.2134,165
7,-0.5989,0.5367,0.0928,-0.3357,0.3979,1.2472,165
7,-0.6071,0.3796,-0.105,-0.2888,0.4481,1.3388,165
7,-0.6479,0.5081,0.0541,-0.0087,0.483,1.3443,165
7,-0.5591,0.6132,-0.0193,0.0414,0.4055,1.3672,165
7,-0.5591,0.6132,-0.0193,0.0414,0.4055,1.3672,165
7,-0.4704,0.5102,-0.0061,0.0196,0.3685,1.4675,165
7,-0.4377,0.5275,0.0234,0.0196,0.3685,1.4675,165
7,-0.4306,0.5081,0.002,0.0206,0.3826,1.499,165
7,-0.4306,0.5081,0.002,0.0326,0.4,1.5328,165
7,-0.4255,0.5286,-0.0326,0.1057,0.4132,1.5633,165
7,-0.4163,0.5684,0.0081,0.1461,0.4361,1.5917,165
7,-0.3898,0.5663,-0.0122,0.1722,0.4426,1.6169,165
7,-0.4132,0.5571,-0.0295,0.2289,0.4677,1.6321,165
7,-0.4092,0.5092,-0.0428,0.3052,0.4753,1.6572,165
7,-0.4122,0.501,-0.0347,0.3924,0.4938,1.6713,165
7,-0.3908,0.5061,-0.0408,0.3924,0.4938,1.6713,165
7,-0.3582,0.5071,-0.0724,0.4492,0.4971,1.7008,165
7,-0.3582,0.5071,-0.0724,0.5102,0.5124,1.7564,165
7,-0.2592,0.5663,-0.0408,0.5593,0.5461,1.837,165
7,-0.2449,0.5673,-0.0652,0.5516,0.6333,1.9166,165
7,-0.2816,0.5408,-0.0612,0.5494,0.7424,2.0017,165
7,-0.2928,0.5755,-0.1275,0.6127,0.8122,2.0627,165
7,-0.2898,0.6703,-0.1592,0.6781,0.8787,2.0911,165
7,-0.2724,0.7285,-0.1703,0.6454,0.9582,2.0671,165
7,-0.2806,0.749,-0.2296,0.5757,1.0204,2.0421,165
7,-0.2745,0.7979,-0.3347,0.5757,1.0204,2.0421,165
7,-0.2745,0.7979,-0.3347,0.5374,1.0171,2.0584,165
7,-0.2847,0.8408,-0.3683,0.5309,1.0128,2.0747,165
7,-0.3061,0.8939,-0.4194,0.5418,1.0194,2.0715,165
7,-0.3377,0.903,-0.4601,0.701,1.0618,2.0377,165
7,-0.5163,1.1387,-0.504,0.785,1.0118,1.9385,165
7,-0.3377,1.0316,-0.4153,0.6476,0.8329,1.7793,165
7,-0.3143,1.0255,-0.7571,0.8285,0.7283,1.8458,165
7,-0.3122,1.1877,-0.6285,0.8842,0.7915,1.7542,165
7,-0.3765,1.2204,-0.8255,0.9353,0.7577,1.6234,165
7,-0.2898,1.2949,-0.8347,0.9353,0.7577,1.6234,165
7,-0.2898,1.2949,-0.8347,1.0335,0.6345,1.498,165
7,-0.2663,1.3152,-0.8694,1.1382,0.6051,1.3258,165
7,-0.2418,1.5122,-0.8694,1.173,0.5364,1.1654,165
7,-0.2643,1.6204,-0.9387,1.0074,0.4578,0.9223,165
7,-0.2183,1.6816,-1.0357,0.714,0.2922,0.6759,165
7,0.0326,1.6275,-1.1306,0.4633,0.1396,0.4851,165
7,0.1163,1.5173,-1.0092,0.3193,0.0774,0.3958,165
7,0.1071,1.4081,-0.8571,0.2027,0.0152,0.3575,165
7,0.1306,1.2775,-0.7142,-0.0076,-0.1253,0.2485,165
7,0.2663,0.902,-0.5755,-0.0076,-0.1253,0.2485,165
7,0.2959,0.7581,-0.4316,-0.1732,-0.2617,0.1711,165
7,0.2959,0.7581,-0.4316,-0.1701,-0.2725,0.206,165
7,0.1714,0.6,-0.3184,-0.1417,-0.2518,0.2802,165
7,0.2786,0.451,0.249,-0.0643,-0.1449,0.3336,165
7,-0.0408,0.3326,-0.05,-0.0654,-0.1537,0.3597,165
7,-0.1673,0.5816,-0.5816,0.6999,-0.2453,0.2812,165
7,-0.351,0.9551,-1.0581,2.1554,-0.2954,0.0425,165
7,-0.4203,1.6275,-1.0632,3.6993,-0.2856,-0.6585,165
7,-0.7142,1.9999,1.7643,3.6993,-0.2856,-0.6585,165
7,-0.0908,1.3714,1.9562,4.3208,-0.5528,-1.0553,165
7,0.1765,1.3286,1.9939,4.2662,-1.2734,-1.0869,165
7,0.1765,1.3286,1.9939,4.3634,-1.413,-0.6846,165
7,0.5459,1.7571,-0.9642,3.3002,-1.4479,-1.0074,165
7,0.2234,1.5418,-1.801,2.3756,-1.3268,-1.2298,165
7,0.2714,1.7234,-1.4275,1.4282,-1.7836,-1.1884,165
7,0.2255,1.4357,-1.6581,0.1471,-2.0824,-1.3781,165
7,0.2734,1.0469,-1.7755,-0.7239,-2.4542,-1.4282,165
7,0.2377,0.9601,-1.4857,-0.8744,-2.8303,-1.1982,165
7,0.2602,0.9071,-1.1744,-0.8744,-2.8303,-1.1982,165
7,0.2663,0.6082,-1.0112,-1.0706,-2.9906,-1.2571,165
7,0.2918,0.3663,-1.0326,-1.4805,-2.9328,-1.5078,165
7,0.2918,0.3663,-1.0326,-1.6768,-2.6777,-1.7247,165
7,0.2918,0.2581,-0.9571,-1.4936,-2.3004,-1.8491,165
7,0.3163,0.2683,-0.754,-1.3399,-1.7498,-2.0246,165
7,0.2071,0.2142,-0.7479,-1.3366,-1.0902,-2.3342,165
7,0.1816,0.1877,-0.6979,-1.1709,-0.4361,-2.586,165
7,0.1367,0.1908,-0.651,-0.9845,0.2659,-2.7213,165
7,-0.0979,0.2122,-0.5857,-0.9202,0.9594,-2.7867,165
7,-1.6316,-0.0928,-0.1581,-0.6759,0.5408,-2.681,165
7,-1.6316,-0.0928,-0.1581,-0.6759,0.5408,-2.681,165
7,-1.7775,0.3489,-0.7898,-0.6159,-2.0421,-2.3702,165
7,-0.1285,1.053,-0.303,-1.7367,-2.6199,-2.9546,165
7,-0.5438,-0.4653,-0.9622,-1.7106,-1.4599,-3.0528,165
7,-0.6877,0.301,-0.2531,-1.0694,-1.4685,-2.1751,165
7,-0.9316,0.3428,-0.5,-1.2102,-1.4162,-2.5392,165
7,-0.4622,0.2683,-0.249,-1.4424,-1.5154,-2.5021,165
7,-0.6357,-0.0132,-0.5071,-1.7313,-1.2636,-2.3712,165
7,-0.7388,-0.1387,-0.4235,-1.582,-1.1121,-2.1739,165
7,-0.7857,-0.05,-0.2928,-1.582,-1.1121,-2.1739,165
7,-0.7092,-0.0224,-0.2867,-1.3607,-1.1371,-2.0638,165
7,-0.7092,-0.0224,-0.2867,-1.2985,-1.1055,-1.9363,165
7,-0.7296,0.0,-0.2643,-1.1894,-0.9889,-1.8174,165
7,-0.7336,0.0663,-0.2683,-1.0128,-0.87,-1.7117,165
7,-0.7643,0.1632,-0.2765,-0.8645,-0.7598,-1.6245,165
7,-0.754,0.301,-0.2142,-0.8439,-0.7075,-1.57,165
7,-0.6887,0.249,-0.2051,-0.9397,-0.6028,-1.5002,165
7,-0.7693,0.1346,-0.2479,-1.0095,-0.5015,-1.4162,165
7,-0.7531,0.1459,-0.3275,-0.8809,-0.4818,-1.3137,165
7,-0.752,0.2928,-0.2928,-0.8809,-0.4818,-1.3137,165
8,-0.8184,0.3683,-0.2653,-0.7152,-0.4132,-1.2037,165
8,-0.8184,0.3683,-0.2653,-0.7478,-0.3096,-1.1404,165
8,-0.8193,0.3479,-0.2551,-0.8689,-0.2627,-1.0183,165
8,-0.8796,0.3316,-0.2204,-1.04,-0.231,-0.8493,165
8,-0.8806,0.2765,-0.2561,-1.1741,-0.206,-0.7075,165
8,-0.9092,0.251,-0.254,-1.1392,-0.1449,-0.5822,165
8,-0.9224,0.3755,-0.1806,-1.0858,-0.0806,-0.4775,165
8,-0.9438,0.3877,-0.1377,-1.1579,-0.0162,-0.3968,165
8,-0.9316,0.3469,-0.1224,-1.2527,0.0097,-0.3183,165
8,-0.8683,0.301,-0.1122,-1.2527,0.0097,-0.3183,165
8,-0.8336,0.3081,-0.0479,-1.2537,0.0479,-0.2365,165
8,-0.8336,0.3081,-0.0479,-1.2243,0.1428,-0.1635,165
8,-0.8448,0.2847,-0.0245,-1.2243,0.206,-0.086,165
8,-0.8122,0.2479,0.0102,-1.2428,0.2125,-0.0032,165
8,-0.752,0.2122,0.0265,-1.2079,0.2495,0.0795,165
8,-0.7714,0.2571,0.0714,-1.0858,0.3107,0.1678,165
8,-0.7693,0.2734,0.0806,-0.9889,0.3456,0.2638,165
8,-0.751,0.3071,0.1132,-0.9246,0.3903,0.3521,165
8,-0.8316,0.299,0.102,-0.8613,0.4317,0.4536,165
8,-0.8846,0.3541,0.053,-0.8613,0.4317,0.4536,165
8,-0.7734,0.2438,0.0336,-0.4393,0.5244,0.7609,165
8,-0.9265,0.499,0.1959,-0.4393,0.5244,0.7609,165
8,-0.853,0.4265,0.1703,-0.3346,0.4841,0.8525,165
8,-0.853,0.4265,0.1703,-0.5276,0.351,0.9212,165
8,-0.7847,0.2663,0.0745,-0.4927,0.3422,0.9943,165
8,-0.8806,0.3602,0.1326,-0.267,0.3815,1.0499,165
8,-0.7255,0.3775,0.1224,-0.1919,0.2747,1.0902,165
8,-0.6949,0.3214,0.0734,-0.1123,0.3292,1.1131,165
8,-0.7531,0.3612,0.1082,0.0392,0.351,1.1392,165
8,-0.6459,0.4367,0.0989,0.1286,0.2605,1.1633,165
8,-0.6163,0.4387,0.0898,0.1526,0.2888,1.1796,165
8,-0.6653,0.403,0.0551,0.1526,0.2888,1.1796,165
8,-0.5877,0.4337,0.0245,0.1951,0.3117,1.1959,165
8,-0.5877,0.4337,0.0245,0.2899,0.2693,1.2211,165
8,-0.5867,0.4398,0.0367,0.3227,0.2899,1.2386,165
8,-0.6296,0.4275,0.0143,0.2976,0.2888,1.2625,165
8,-0.5939,0.352,0.0122,0.3117,0.2191,1.3334,165
8,-0.5612,0.4418,0.0102,0.3859,0.2605,1.3552,165
8,-0.5816,0.4316,-0.0357,0.3575,0.2605,1.4063,165
8,-0.5153,0.3857,-0.0591,0.4034,0.2039,1.5198,165
8,-0.4622,0.3653,-0.0908,0.4034,0.2039,1.5198,165
8,-0.4622,0.3653,-0.0908,0.5723,0.2693,1.6321,165
8,-0.549,0.3582,-0.1265,0.7239,0.4328,1.7171,165
8,-0.549,0.3582,-0.1265,0.9408,0.5604,1.7815,165
8,-0.4877,0.4653,-0.0724,1.0488,0.6606,1.825,165
8,-0.4203,0.602,-0.0979,0.9027,0.7773,1.8327,165
8,-0.352,0.5438,-0.1479,0.6225,0.871,1.8556,165
8,-0.3582,0.5183,-0.2306,0.4307,0.9311,1.9765,165
8,-0.3622,0.5224,-0.2163,0.3031,0.9485,2.0999,165
8,-0.3989,0.5571,-0.299,0.2245,0.9387,2.1543,165
8,-0.3224,0.4755,-0.2898,0.2245,0.9387,2.1543,165
8,-0.3224,0.4755,-0.2898,0.2888,0.9223,2.1577,165
8,-0.502,0.6479,-0.4704,0.4536,0.9202,2.1445,165
8,-0.4857,0.6275,-0.2531,0.2922,0.821,2.0584,165
8,-0.3561,0.5031,-0.3837,0.2768,0.6966,2.0835,165
8,-0.3041,0.5061,-0.1949,0.4099,0.701,2.0921,165
8,-0.4153,0.5193,-0.2632,0.5757,0.7217,2.1194,165
8,-0.4357,0.5928,-0.2806,0.6367,0.7108,2.1369,165
8,-0.4745,0.5816,-0.3051,0.6737,0.7086,2.1467,165
8,-0.5092,0.5836,-0.2888,0.834,0.665,2.1522,165
8,-0.4897,0.7704,-0.3989,0.834,0.665,2.1522,165
8,-0.5112,0.8612,-0.4418,1.0826,0.6694,2.1282,165
8,-0.5112,0.8612,-0.4418,1.2461,0.7424,2.0093,165
8,-0.4775,0.9244,-0.5275,1.3639,0.7609,1.8479,165
8,-0.4244,1.0081,-0.5867,1.449,0.7697,1.6779,165
8,-0.2928,1.0796,-0.7326,1.4904,0.7838,1.5482,165
8,-0.2734,1.1346,-0.7755,1.5165,0.8307,1.4904,165
8,-0.2806,1.2326,-0.8439,1.5253,0.8405,1.4816,165
8,-0.299,1.3602,-0.8898,1.4784,0.8252,1.4675,165
8,-0.3357,1.6357,-1.0143,1.4784,0.8252,1.4675,165
8,-0.3286,1.6296,-1.1673,1.3203,0.7827,1.3497,165
8,-0.2745,1.5806,-1.203,1.1284,0.6978,1.1436,165
8,-0.2745,1.5806,-1.203,0.9921,0.5799,0.9845,165
8,-0.201,1.4601,-1.1265,0.9321,0.4742,0.8307,165
8,-0.1265,1.4296,-1.0765,0.8002,0.3271,0.6791,165
8,-0.0316,1.3724,-0.9408,0.6454,0.1951,0.5124,165
8,0.0551,1.2653,-0.9745,0.4797,0.086,0.4153,165
8,0.1898,1.0357,-0.6337,0.255,0.0795,0.3729,165
8,0.2336,0.9163,-0.4041,0.0185,0.1503,0.3401,165
8,0.201,0.7551,-0.454,0.0185,0.1503,0.3401,165
8,-0.052,0.5275,-0.3826,-0.181,0.182,0.3292,165
8,-0.2112,0.4816,-0.6694,-0.3542,0.3368,0.2998,165
8,-0.2112,0.4816,-0.6694,-0.1919,0.3739,0.2747,165
8,-0.4459,0.6132,-1.2133,0.5767,0.1776,0.1667,165
8,-0.6398,1.0622,-1.5989,1.97,-0.2278,-0.1198,165
8,-0.5877,1.9734,-1.9633,3.2392,-0.3128,-0.8231,165
8,-0.3265,1.6041,1.9868,3.4027,-0.64,-1.3017,165
8,-0.1398,1.703,-1.3357,2.9185,-1.04,-1.0706,165
8,0.3428,1.7418,-0.9826,1.9603,-1.0957,-0.7751,165
8,0.252,1.7357,-0.9642,0.6171,-1.1306,-0.471,165
8,0.252,1.7357,-0.9642,0.6171,-1.1306,-0.471,165
8,0.2101,1.4908,-1.0051,-0.6268,-1.2657,-0.4404,165
8,0.1449,1.1653,-1.3367,-1.1327,-1.4326,-0.4775,165
8,0.153,0.8683,-1.1071,-1.0194,-1.511,-0.6018,165
8,0.1428,0.7632,-1.049,-0.7903,-1.499,-0.8187,165
8,0.199,0.6928,-0.8837,-0.581,-1.3846,-1.0509,165
8,0.1837,0.5826,-0.7857,-0.3903,-1.124,-1.3039,165
8,-0.402,0.553,-0.5908,-0.0217,-1.2331,-1.5503,165
8,-0.2173,0.6581,-0.6265,0.037,-1.8065,-1.7945,165
8,0.153,0.6867,-0.5326,-0.2081,-1.9788,-1.9668,165
8,-0.2622,0.3785,-0.6,-0.2081,-1.9788,-1.9668,165
8,-0.2622,0.3785,-0.6,-0.2693,-1.6266,-1.9875,165
8,-0.3745,0.4449,-0.6703,-0.0784,-1.6986,-1.9548,165
8,-0.2112,0.504,-0.6163,-0.0349,-1.8731,-2.0082,165
8,-0.3418,0.4683,-0.5908,-0.1471,-1.8403,-2.0311,165
8,-0.3653,0.351,-0.5663,-0.1406,-1.9559,-2.0061,165
8,-0.5153,0.3234,-0.6387,-0.1167,-1.8807,-1.9755,165
8,-0.6285,0.303,-0.55,-0.1646,-1.8905,-1.933,165
8,-0.6387,0.3041,-0.6214,-0.2104,-1.9461,-1.8916,165
8,-0.9285,0.3275,-0.6234,-0.2104,-1.9461,-1.8916,165
9,-0.5867,0.35,-0.5693,-0.2147,-1.8611,-1.8425,165
9,-0.5867,0.35,-0.5693,-0.1787,-2.0181,-1.7411,165
9,-0.5459,0.3989,-0.4469,-0.3063,-1.8447,-1.7096,165
9,-0.553,0.2622,-0.4459,-0.3783,-1.8044,-1.6408,165
9,-0.5867,0.2908,-0.4959,-0.3151,-1.7062,-1.5633,165
9,-0.5918,0.3163,-0.3591,-0.3542,-1.6125,-1.5055,165
9,-0.549,0.2847,-0.4235,-0.4229,-1.5002,-1.4424,165
9,-0.5418,0.2724,-0.3969,-0.4536,-1.4021,-1.3922,165
9,-0.5122,0.2786,-0.4734,-0.4382,-1.3071,-1.3464,165
9,-0.5071,0.3122,-0.4704,-0.4382,-1.3071,-1.3464,165
9,-0.5143,0.351,-0.4673,-0.4284,-1.1741,-1.329,165
9,-0.5143,0.351,-0.4673,-0.4633,-1.0684,-1.3246,165
9,-0.5183,0.3489,-0.4826,-0.5364,-0.979,-1.3137,165
9,-0.5224,0.3296,-0.4459,-0.6171,-0.8798,-1.3105,165
9,-0.5,0.3051,-0.4612,-0.6759,-0.7664,-1.2962,165
9,-0.5265,0.2826,-0.3908,-0.7478,-0.664,-1.2734,165
9,-0.5061,0.2408,-0.3979,-0.8678,-0.5822,-1.2516,165
9,-0.5234,0.2051,-0.4142,-0.9485,-0.496,-1.2069,165
9,-0.5541,0.2092,-0.4745,-0.8962,-0.4219,-1.1764,165
9,-0.6112,0.3857,-0.4469,-0.8962,-0.4219,-1.1764,165
9,-0.754,0.4918,-0.3908,-0.9256,-0.1798,-1.0848,165
9,-0.8275,0.4551,-0.3234,-0.9256,-0.1798,-1.0848,165
9,-0.8806,0.4428,-0.3265,-1.0455,-0.1461,-0.9931,165
9,-0.8806,0.4428,-0.3265,-1.1654,-0.0631,-0.9048,165
9,-0.9224,0.4449,-0.2632,-1.3029,0.0392,-0.809,165
9,-1.0265,0.403,-0.3071,-1.5143,0.1209,-0.7174,165
9,-1.0724,0.2388,-0.3316,-1.7291,0.1417,-0.6138,165
9,-1.0612,0.203,-0.3173,-1.7781,0.1155,-0.5004,165
9,-1.0122,0.2581,-0.2765,-1.7029,0.1341,-0.4055,165
9,-0.9571,0.401,-0.1265,-1.7323,0.1766,-0.3216,165
9,-0.9173,0.3877,-0.0765,-1.8981,0.1744,-0.2388,165
9,-0.8989,0.3224,-0.0479,-1.8981,0.1744,-0.2388,165
9,-0.8245,0.25,-0.0398,-2.0671,0.1341,-0.1493,165
9,-0.8245,0.25,-0.0398,-2.1009,0.1232,-0.0479,165
9,-0.7826,0.2081,0.05,-1.9832,0.1667,0.0523,165
9,-0.7918,0.2173,0.1245,-1.8437,0.1919,0.1547,165
9,-0.7836,0.1826,0.1867,-1.751,0.181,0.2627,165
9,-0.7408,0.1265,0.2061,-1.5328,0.181,0.4012,165
9,-0.7479,0.2122,0.2877,-1.2962,0.1852,0.5353,165
9,-0.6541,0.3582,0.3928,-1.2386,0.3096,0.628,165
9,-0.8683,0.0245,0.2061,-0.9267,0.3958,0.7205,165
9,-0.8683,0.0245,0.2061,-0.9267,0.3958,0.7205,165
9,-0.855,0.499,0.3694,-0.3609,0.4295,0.8252,165
9,-0.855,0.499,0.3694,-0.351,0.5004,0.8775,165
9,-0.8448,0.3846,0.2459,-0.508,0.3968,0.9397,165
9,-0.7224,0.2775,0.1459,-0.3281,0.399,1.0051,165
9,-0.7632,0.4,0.1326,-0.0435,0.4895,1.0694,165
9,-0.8255,0.4459,0.1449,-0.0152,0.4698,1.1164,165
9,-0.7816,0.4173,0.0939,-0.1003,0.3586,1.1644,165
9,-0.7122,0.3796,0.05,-0.0326,0.3368,1.2222,165
9,-0.7459,0.3489,0.0336,0.0894,0.3314,1.2756,165
9,-0.6551,0.4102,0.0847,0.0894,0.3314,1.2756,165
9,-0.6551,0.4102,0.0847,0.1657,0.3172,1.3258,165
9,-0.7122,0.4296,0.0459,0.157,0.3368,1.3683,165
9,-0.6581,0.4326,0.0541,0.1613,0.2888,1.4217,165
9,-0.6153,0.4214,0.05,0.1646,0.2878,1.4761,165
9,-0.6041,0.3796,0.0234,0.1972,0.3205,1.5536,165
9,-0.5,0.3398,0.0112,0.3216,0.363,1.6528,165
9,-0.5173,0.3051,0.0306,0.4263,0.4677,1.7552,165
9,-0.5193,0.2418,-0.0153,0.5287,0.5778,1.8382,165
9,-0.4897,0.2469,-0.0796,0.7413,0.6944,1.896,165
9,-0.451,0.451,-0.0591,0.7413,0.6944,1.896,165
9,-0.451,0.451,-0.0591,0.8994,0.8144,1.9363,165
9,-0.449,0.55,-0.102,0.834,0.9071,1.9624,165
9,-0.4132,0.5622,-0.1224,0.6083,0.9387,1.9919,165
9,-0.4051,0.5265,-0.2296,0.4492,0.9681,2.0584,165
9,-0.3765,0.5295,-0.2949,0.4601,1.003,2.1478,165
9,-0.3989,0.6061,-0.2969,0.4458,0.9855,2.1293,165
9,-0.2786,0.4387,-0.254,0.4187,0.9975,2.1173,165
9,-0.355,0.6153,-0.2101,0.3532,0.9124,2.1238,165
9,-0.2745,0.5295,-0.2397,0.3532,0.9124,2.1238,165
9,-0.2377,0.5367,-0.4265,0.2136,0.8024,2.1413,165
9,-0.2377,0.5367,-0.4265,0.3041,0.8035,2.1947,165
9,-0.2408,0.6143,-0.2285,0.3445,0.8918,2.2023,165
9,-0.2928,0.6694,-0.2724,0.2617,0.8471,2.1794,165
9,-0.3041,0.653,-0.4,0.2388,0.8275,2.1543,165
9,-0.3193,0.6408,-0.3061,0.3466,0.8285,2.1457,165
9,-0.3387,0.7847,-0.355,0.5265,0.785,2.1325,165
9,-0.4041,0.855,-0.355,0.6203,0.8122,2.0463,165
9,-0.3928,0.8653,-0.4265,0.6694,0.8199,1.933,165
9,-0.4051,0.9387,-0.499,0.6694,0.8199,1.933,165
9,-0.3959,1.1082,-0.5571,0.8111,0.821,1.8588,165
9,-0.3959,1.1082,-0.5571,0.9048,0.8155,1.7705,165
9,-0.4071,1.1551,-0.6091,0.9114,0.8471,1.6844,165
9,-0.4,1.1653,-0.6561,0.871,0.8744,1.6506,165
9,-0.3816,1.1918,-0.6969,0.8264,0.8798,1.6877,165
9,-0.352,1.2602,-0.7377,0.7098,0.8819,1.6932,165
9,-0.3541,1.303,-0.7153,0.6028,0.9114,1.6451,165
9,-0.402,1.3224,-0.8377,0.5036,0.9082,1.5601,165
9,-0.402,1.3969,-0.8479,0.3946,0.8504,1.4653,165
9,-0.3326,1.4203,-0.8347,0.3946,0.8504,1.4653,165
9,-0.3326,1.4203,-0.8347,0.2812,0.7533,1.3748,165
9,-0.2877,1.4153,-0.8184,0.1308,0.6682,1.2952,165
9,-0.2683,1.3541,-0.7877,-0.0698,0.5799,1.1927,165
9,-0.101,1.1969,-0.7408,-0.1581,0.4524,1.0935,165
9,-0.0316,1.1489,-0.6826,-0.1919,0.3695,1.0139,165
9,0.0122,1.0571,-0.6765,-0.2605,0.2943,0.9637,165
9,0.049,0.8316,-0.5591,-0.2966,0.1842,0.9212,165
9,0.0898,0.7459,-0.355,-0.194,0.1013,0.883,165
9,0.0469,0.6449,-0.2745,-0.1057,0.0828,0.858,165
9,-0.0153,0.5816,-0.1234,-0.1057,0.0828,0.858,165
9,-0.0153,0.5816,-0.1234,-0.1253,0.1198,0.7915,165
9,-0.1918,0.5459,-0.3602,0.0435,0.037,0.7457,165
9,-0.1316,0.8989,-0.6928,0.6476,-0.2224,0.7806,165
9,-0.102,1.254,-1.0132,1.6986,-0.339,0.6039,165
9,-0.1326,1.5388,-0.8826,2.7224,-0.23,0.2333,165
9,0.0663,1.6602,-1.4642,2.6743,-0.4578,0.0402,165
9,0.3224,1.4745,-1.1122,2.1772,-0.628,0.2409,165
9,0.2194,1.4449,-1.2081,2.0224,-0.6617,0.4742,165
9,0.2377,1.5143,-1.0622,1.8534,-0.8285,0.2725,165
10,0.3398,1.7428,-1.0663,1.8534,-0.8285,0.2725,165
10,0.6683,1.5786,-0.9796,1.3443,-1.0564,-0.074,165
10,0.6683,1.5786,-0.9796,1.0303,-1.3977,-0.424,165
10,0.3193,1.5928,-1.1479,0.5625,-1.6234,-0.6138,165
10,0.4306,1.4296,-1.0622,0.182,-1.6768,-0.6051,165
10,0.4224,1.3846,-1.0214,-0.1274,-1.7106,-0.6411,165
10,0.3286,1.2214,-1.0948,-0.3063,-1.6713,-0.8885,165
10,0.4224,0.9306,-0.8387,-0.2213,-1.606,-1.1621,165
10,0.2765,0.9387,-0.8408,-0.0545,-1.3573,-1.3781,165
10,0.3336,0.9092,-0.7153,-0.1079,-1.0543,-1.643,165
10,0.3051,0.8775,-0.6357,-0.1079,-1.0543,-1.643,165
10,0.254,0.7551,-0.6082,-0.2442,-0.6508,-1.884,165
10,0.254,0.7551,-0.6082,-0.3346,-0.2125,-2.0421,165
10,-0.6837,0.6091,-0.3081,-0.3031,-0.2844,-2.1009,165
10,-0.8785,0.7194,-0.6642,-0.0698,-1.7161,-2.1249,165
10,-0.1367,0.9132,-0.4102,-0.2856,-2.6504,-2.1903,165
10,0.1755,0.5408,-0.6703,-0.5974,-2.078,-2.2525,165
10,-0.1255,0.5693,-0.6418,-0.4099,-1.4009,-2.0518,165
10,-0.6337,0.6255,-0.153,-0.1537,-1.5351,-2.1335,165
10,-0.1285,0.5765,-0.501,-0.1537,-1.5351,-2.1335,165
10,-0.902,0.5234,-0.4642,-0.2093,-1.8502,-2.2666,165
10,-0.7857,0.4081,-0.5275,-0.2093,-1.8502,-2.2666,165
10,-0.7377,0.6255,-0.4102,-0.0053,-2.3069,-2.1041,165
10,-0.7377,0.6255,-0.4102,0.2725,-2.198,-1.9853,165
10,-1.0173,0.6255,-0.3908,0.1667,-2.0802,-1.8851,165
10,-0.9285,0.4745,-0.4694,0.0305,-2.2819,-1.7357,165
10,-0.549,0.5153,-0.3071,-0.1242,-2.3189,-1.6474,165
10,-1.1163,0.2153,-0.3643,-0.2453,-2.1216,-1.5154,165
10,-0.5796,0.4244,-0.3081,-0.0915,-2.3626,-1.3159,165
10,-0.4959,0.352,-0.2643,-0.1657,-2.0976,-1.3071,165
10,-0.5224,0.1826,-0.3051,-0.0545,-1.9156,-1.1938,165
10,-0.452,0.3224,-0.252,-0.0545,-1.9156,-1.1938,165
10,-0.3939,0.3418,-0.3469,0.1831,-1.8599,-1.124,165
10,-0.3939,0.3418,-0.3469,0.1461,-1.7258,-1.2058,165
10,-0.4122,0.351,-0.4306,0.1406,-1.5656,-1.2188,165
10,-0.3989,0.3898,-0.4918,0.2344,-1.4664,-1.2396,165
10,-0.4071,0.4959,-0.4867,0.2583,-1.3802,-1.2832,165
10,-0.4306,0.5295,-0.5265,0.1438,-1.3006,-1.3519,165
10,-0.3694,0.4969,-0.5704,-0.0032,-1.1959,-1.425,165
10,-0.4163,0.4612,-0.6,-0.1341,-1.0761,-1.4729,165
10,-0.3959,0.4561,-0.5652,-0.2605,-1.0238,-1.5122,165
10,-0.3979,0.45,-0.5816,-0.2605,-1.0238,-1.5122,165
10,-0.4244,0.3469,-0.5551,-0.4437,-0.9496,-1.5404,165
10,-0.4244,0.3469,-0.5551,-0.6301,-0.8275,-1.5536,165
10,-0.4285,0.3255,-0.5031,-0.7184,-0.7304,-1.5362,165
10,-0.4551,0.3316,-0.449,-0.8012,-0.6072,-1.5034,165
10,-0.5418,0.3061,-0.4071,-0.942,-0.4698,-1.4587,165
10,-0.5826,0.2918,-0.401,-1.0717,-0.3674,-1.4118,165
10,-0.6082,0.2918,-0.4142,-1.1611,-0.2823,-1.354,165
10,-0.6265,0.2786,-0.3918,-1.2451,-0.1787,-1.292,165
10,-0.704,0.2479,-0.3898,-1.33,-0.0959,-1.2342,165
10,-0.7194,0.2326,-0.3837,-1.33,-0.0959,-1.2342,165
10,-0.7194,0.2326,-0.3837,-1.3933,-0.0511,-1.1688,165
10,-0.7418,0.2245,-0.3541,-1.4217,0.0,-1.1087,165
10,-0.7898,0.2296,-0.3683,-1.4304,0.0402,-1.0412,165
10,-0.8347,0.2377,-0.3387,-1.4227,0.0915,-0.9769,165
10,-0.8694,0.2693,-0.3122,-1.3846,0.1352,-0.8907,165
10,-0.9265,0.3336,-0.3418,-1.3388,0.1776,-0.7947,165
10,-1.0377,0.5286,-0.2755,-1.3464,0.2976,-0.6955,165
10,-1.0286,0.5275,-0.1449,-1.5547,0.4109,-0.5767,166
10,-1.152,0.45,-0.1224,-1.8393,0.5015,-0.3946,166
10,-1.2173,0.2847,-0.151,-1.8393,0.5015,-0.3946,166
10,-1.2173,0.2847,-0.151,-2.0845,0.4763,-0.1852,166
10,-1.2183,0.0571,-0.103,-2.1663,0.424,0.0217,166
10,-1.1673,0.0612,-0.0602,-2.0987,0.3946,0.23,166
10,-1.1173,0.0928,-0.0122,-2.0017,0.424,0.3794,166
10,-1.0969,0.0061,0.0704,-1.9014,0.4143,0.4938,166
10,-0.8734,-0.049,0.1,-1.6419,0.35,0.6978,166
10,-0.9112,0.0388,0.2051,-1.2941,0.4448,0.9027,166
10,-0.8632,0.1183,0.2724,-1.1186,0.4971,0.9517,166
10,-0.751,0.0918,0.2388,-0.9397,0.5167,1.0629,166
10,-0.7092,0.1949,0.2316,-0.9397,0.5167,1.0629,166
10,-0.7898,0.2867,0.451,-0.7098,0.5963,1.1818,166
10,-0.7898,0.2867,0.451,-0.7403,0.5919,1.2657,166
10,-0.5132,0.2275,0.1663,-0.4721,0.726,1.4467,166
10,-0.7663,0.3193,0.1755,-0.1864,1.0782,1.486,166
10,-0.8122,0.4337,0.1806,-0.2344,0.9179,1.5568,166
10,-0.5704,0.4102,0.1459,-0.4404,0.785,1.6484,166
10,-0.6132,0.2479,0.0326,-0.388,0.9387,1.7367,166
10,-0.6969,0.4306,0.103,-0.1995,0.9626,1.8239,166
10,-0.6234,0.4,0.0796,-0.1995,0.9626,1.8239,166
10,-0.4551,0.3591,0.1132,-0.2583,0.8155,1.9057,166
10,-0.6377,0.3193,0.0632,-0.2987,0.8656,1.9668,166
10,-0.6377,0.3193,0.0632,-0.2234,0.8973,2.0289,166
10,-0.5398,0.3316,0.0898,-0.1329,0.7838,2.0867,166
10,-0.5163,0.355,0.105,-0.11,0.7981,2.1228,166
10,-0.5581,0.3316,0.1082,-0.1035,0.7718,2.1522,166
10,-0.4704,0.3469,0.1061,-0.0282,0.6749,2.1925,166
10,-0.4398,0.3632,0.1173,0.049,0.689,2.2317,166
10,-0.4694,0.3622,0.1245,0.1286,0.7031,2.272,166
10,-0.403,0.3561,0.102,0.1286,0.7031,2.272,166
10,-0.403,0.3561,0.102,0.2256,0.6497,2.3135,166
10,-0.3816,0.3694,0.0847,0.3368,0.6552,2.3527,166
10,-0.4041,0.3867,0.052,0.4448,0.665,2.3899,166
10,-0.3275,0.4071,0.0336,0.5582,0.6486,2.4214,166
10,-0.3112,0.4235,0.0153,0.6486,0.6715,2.4574,166
10,-0.2816,0.4459,0.0143,0.7152,0.7043,2.4956,166
10,-0.2693,0.4847,-0.0581,0.7621,0.7075,2.5555,166
10,-0.1908,0.5847,-0.1082,0.8166,0.7424,2.6253,166
10,-0.2112,0.6245,-0.0898,0.8024,0.7991,2.6461,166
10,-0.2133,0.6183,-0.1306,0.8024,0.7991,2.6461,166
10,-0.2133,0.6183,-0.1306,0.7249,0.8351,2.6406,166
10,-0.2265,0.5908,-0.2204,0.7359,0.8405,2.6678,166
10,-0.1581,0.7163,-0.2888,0.8035,0.8558,2.6569,166
10,-0.1561,0.8041,-0.3387,0.8504,0.9278,2.561,166
10,-0.0867,0.7979,-0.3663,0.9626,1.0051,2.429,166
10,-0.1245,1.0377,-0.355,0.9059,0.9463,2.2949,166
10,-0.1918,1.1346,-0.603,0.8481,0.9223,2.2699,166
10,-0.204,1.2612,-0.6673,0.7958,0.9834,2.2503,166
10,-0.3143,1.3408,-0.6796,0.7554,1.04,2.1806,166
11,-0.3694,1.449,-0.7101,0.7554,1.04,2.1806,166
11,-0.3132,1.3846,-0.6642,0.6541,0.9017,2.1467,166
11,-0.3132,1.3846,-0.6642,0.4307,0.7871,2.078,166
11,-0.2806,1.2816,-0.6867,0.2932,0.7293,2.0355,166
11,-0.2296,1.2979,-0.7101,0.3794,0.7369,1.9853,166
11,-0.2265,1.4265,-0.603,0.4698,0.7621,1.9189,166
11,-0.2602,1.4306,-0.7938,0.3794,0.7392,1.7989,166
11,-0.2479,1.4683,-0.7438,0.3216,0.6934,1.6735,166
11,-0.1908,1.5867,-0.8265,0.387,0.5833,1.5503,166
11,-0.1255,1.605,-0.7745,0.3903,0.5135,1.3454,166
11,-0.004,1.5765,-0.7081,0.3903,0.5135,1.3454,166
11,0.1061,1.4622,-0.6245,0.2714,0.4601,1.135,166
11,0.1061,1.4622,-0.6245,0.1167,0.4,1.0215,166
11,0.1847,1.351,-0.5939,-0.0915,0.3422,0.9124,166
11,0.2367,1.1561,-0.6163,-0.2333,0.2529,0.8668,166
11,0.2592,1.0224,-0.4633,-0.3346,0.1995,0.8548,166
11,0.1949,0.8112,-0.2806,-0.3237,0.1428,0.8405,166
11,0.0969,0.7153,-0.2245,-0.3227,0.0904,0.7741,166
11,-0.0673,0.8306,-0.2142,-0.1919,0.1003,0.6171,166
11,-0.3122,1.0357,-0.4806,0.1875,-0.0141,0.3052,166
11,-0.1224,1.9999,-1.2265,2.0541,-0.5516,-0.5211,166
11,0.2938,1.6183,-1.553,2.1652,-0.846,-0.5135,166
11,0.3796,1.703,-0.9337,2.1652,-0.846,-0.5135,166
11,0.3796,1.703,-0.9337,2.0355,-0.822,0.0131,166
11,0.5234,1.5959,-1.1214,1.5339,-0.8819,0.2758,166
11,0.2683,1.7499,-1.0939,1.185,-1.0749,0.2104,166
11,0.4653,1.7683,-0.9102,0.9877,-1.4304,-0.3227,166
11,0.4704,1.7877,-1.0459,0.9866,-1.6812,-0.8493,166
11,0.7112,1.7438,-0.7826,0.6726,-1.8458,-1.1459,166
11,0.6877,1.6387,-0.7847,0.1352,-1.7804,-1.1121,166
11,0.7408,1.5102,-0.6489,-0.5091,-1.631,-1.0248,166
11,0.6234,0.9704,-0.7204,-1.015,-1.4456,-1.1251,166
11,0.5836,0.7551,-0.7336,-1.015,-1.4456,-1.1251,166
11,0.5143,0.6071,-0.8193,-1.0652,-1.2722,-1.3029,166
11,0.5143,0.6071,-0.8193,-0.6367,-1.0543,-1.5187,166
11,0.35,0.7683,-0.5908,-0.061,-0.7838,-1.8992,166
11,0.3459,0.8193,-0.5265,0.1962,-0.4622,-2.4803,166
11,0.3887,0.7663,-0.502,0.2474,-0.085,-2.9534,166
11,0.3316,0.7112,-0.6112,0.3477,0.2922,-3.0538,166
11,-1.0887,0.8071,-0.403,0.4536,-0.4219,-2.7453,166
11,-0.2173,1.0581,-0.4357,0.1177,-2.0322,-2.561,166
11,0.4194,0.9296,-0.4214,0.1177,-2.0322,-2.561,166
11,-0.4438,0.3877,-0.8245,-0.7729,-2.1173,-2.6852,166
11,-0.4438,0.3877,-0.8245,-0.6345,-1.2537,-2.3996,166
11,-0.8122,0.4316,-0.449,-0.2812,-1.3715,-2.1379,166
11,-0.4418,0.4979,-0.6041,-0.0784,-1.8239,-2.4454,166
11,-0.5388,0.5092,-0.6112,-0.2573,-1.8828,-2.6984,166
11,-0.5836,0.3143,-0.6541,-0.2605,-1.9504,-2.6766,166
11,-0.6398,0.3857,-0.6398,-0.0894,-1.8599,-2.6341,166
11,-0.9592,0.4765,-0.3255,-0.0806,-1.9156,-2.537,166
11,-0.6153,0.4612,-0.2867,-0.3521,-2.1903,-2.416,166
11,-0.6061,0.2765,-0.302,-0.3521,-2.1903,-2.416,166
11,-0.6061,0.2765,-0.302,-0.6541,-2.0921,-2.3147,166
11,-0.5581,0.1959,-0.2959,-0.6333,-1.9112,-2.1772,166
11,-0.5775,0.2163,-0.2459,-0.4927,-1.7619,-2.0453,166
11,-0.4745,0.2214,-0.1867,-0.4938,-1.6463,-1.9319,166
11,-0.4683,0.1571,-0.2336,-0.4906,-1.4893,-1.8174,166
11,-0.4653,0.1408,-0.1857,-0.339,-1.3311,-1.7171,166
11,-0.4704,0.202,-0.202,-0.1864,-1.1764,-1.6594,166
11,-0.4673,0.2092,-0.2418,-0.1308,-1.0084,-1.6255,166
11,-0.5245,0.2194,-0.299,-0.0523,-0.8689,-1.5808,166
11,-0.4836,0.2428,-0.2745,-0.0523,-0.8689,-1.5808,166
11,-0.4836,0.2428,-0.2745,0.0282,-0.7676,-1.5459,166
11,-0.5928,0.3785,-0.3112,0.0402,-0.628,-1.5177,166
11,-0.5622,0.3816,-0.3173,-0.0806,-0.6039,-1.498,166
11,-0.5,0.35,-0.4296,-0.1831,-0.5374,-1.4816,166
11,-0.552,0.3326,-0.3898,-0.2333,-0.4034,-1.4641,166
11,-0.5867,0.3489,-0.449,-0.2409,-0.3368,-1.4304,166
11,-0.6041,0.403,-0.3755,-0.3227,-0.2987,-1.3901,166
11,-0.5836,0.3816,-0.3591,-0.4971,-0.2365,-1.3464,166
11,-0.6387,0.2632,-0.3816,-0.6312,-0.1362,-1.2962,166
11,-0.652,0.2653,-0.4255,-0.6312,-0.1362,-1.2962,166
11,-0.6694,0.3173,-0.4357,-0.6454,-0.0915,-1.2145,166
11,-0.6694,0.3173,-0.4357,-0.6083,-0.0272,-1.1272,166
11,-0.6969,0.3673,-0.3959,-0.6039,0.0719,-1.0324,166
11,-0.8112,0.4377,-0.3785,-0.6333,0.1613,-0.9278,166
11,-0.851,0.4724,-0.3193,-0.7184,0.2224,-0.8046,166
11,-0.8908,0.4938,-0.2949,-0.8613,0.3008,-0.6682,166
11,-0.901,0.5295,-0.1847,-1.0597,0.4143,-0.5156,166
11,-1.0408,0.3826,-0.2643,-1.3203,0.4698,-0.3695,166
11,-1.1122,0.301,-0.3081,-1.4261,0.4601,-0.2147,166
11,-1.0887,0.2734,-0.299,-1.4261,0.4601,-0.2147,166
11,-1.0469,0.2979,-0.1867,-1.3802,0.4284,-0.0654,166
11,-1.0469,0.2979,-0.1867,-1.341,0.4633,0.0555,166
11,-1.004,0.2592,-0.1418,-1.3693,0.4622,0.1776,166
11,-0.9367,0.2153,-0.1112,-1.3748,0.4317,0.3041,166
11,-0.8928,0.1969,-0.103,-1.3105,0.4349,0.4349,166
11,-0.8184,0.2142,-0.0561,-1.1884,0.4655,0.5528,166
11,-0.7938,0.2438,-0.0163,-1.0662,0.5167,0.6574,166
11,-0.7959,0.25,0.0326,-0.9965,0.5385,0.7478,166
11,-0.702,0.2357,0.0745,-0.9965,0.5385,0.7478,166
11,-0.702,0.2357,0.0745,-0.9246,0.5287,0.8416,166
11,-0.6837,0.3152,0.1061,-0.8067,0.557,0.9299,166
11,-0.6837,0.3152,0.1061,-0.6999,0.6247,1.0118,166
11,-0.7408,0.3632,0.1245,-0.6421,0.6072,1.0946,166
11,-0.6,0.301,0.1489,-0.665,0.6028,1.1753,166
11,-0.6632,0.2428,0.0398,-0.4818,0.713,1.2352,166
11,-0.7469,0.3245,0.0877,-0.1886,0.7327,1.2941,166
11,-0.7612,0.4173,0.1377,-0.1558,0.6062,1.3552,166
11,-0.6642,0.3051,0.001,-0.1722,0.5364,1.4086,166
11,-0.6979,0.3582,0.002,0.0217,0.5233,1.4719,166
11,-0.6622,0.4296,0.0255,0.0217,0.5233,1.4719,166
11,-0.6622,0.4296,0.0255,0.2169,0.4524,1.5165,166
11,-0.6082,0.6296,0.0153,0.1852,0.4731,1.5351,166
11,-0.5969,0.5591,-0.0061,0.0097,0.4404,1.5732,166
11,-0.5255,0.4551,-0.0275,0.0217,0.3619,1.6539,166
11,-0.4459,0.4938,-0.0265,0.1493,0.4088,1.6855,166
11,-0.5173,0.4734,0.0836,0.0937,0.4611,1.7084,166
11,-0.4673,0.3326,0.0581,0.0076,0.4426,1.763,166
11,-0.4877,0.2867,-0.0245,0.1875,0.4622,1.8218,166
12,-0.4265,0.4235,0.0398,0.3542,0.5299,1.8611,166
12,-0.4714,0.4326,0.0081,0.3542,0.5299,1.8611,166
12,-0.4714,0.4326,0.0081,0.3979,0.6072,1.9112,166
12,-0.4183,0.4418,0.0306,0.3946,0.6039,1.9799,166
12,-0.4132,0.3846,-0.0581,0.4361,0.6442,2.065,166
12,-0.4235,0.4235,-0.0877,0.5473,0.6999,2.1587,166
12,-0.4255,0.4694,-0.0806,0.5942,0.7163,2.259,166
12,-0.4194,0.4734,-0.0877,0.5658,0.7359,2.355,166
12,-0.4122,0.4592,-0.1337,0.5734,0.7751,2.4345,166
12,-0.4285,0.5438,-0.152,0.5822,0.8046,2.4988,166
12,-0.3846,0.5714,-0.1775,0.5822,0.8046,2.4988,166
12,-0.3439,0.5806,-0.2449,0.5549,0.8046,2.5774,166
12,-0.3439,0.5806,-0.2449,0.5658,0.8439,2.6417,166
12,-0.3571,0.6346,-0.2663,0.5942,0.8819,2.693,166
12,-0.3459,0.6255,-0.3132,0.6106,0.8853,2.7376,166
12,-0.2888,0.6653,-0.3448,0.6715,0.8722,2.7899,166
12,-0.2898,0.7316,-0.3877,0.7478,0.9103,2.7802,166
12,-0.251,0.7949,-0.4704,0.8111,0.9463,2.7409,166
12,-0.2285,0.8428,-0.5031,0.8994,0.9877,2.7201,166
12,-0.2112,0.8989,-0.5061,0.9517,0.9769,2.6907,166
12,-0.0826,1.0591,-0.5877,1.0009,0.9866,2.5938,166
12,-0.0948,1.1183,-0.6183,1.0357,0.9899,2.5173,166
12,-0.0673,1.1796,-0.6602,1.0357,0.9899,2.5173,166
12,-0.0673,1.1796,-0.6602,1.0804,0.9769,2.4324,166
12,-0.0408,1.2745,-0.7173,1.1164,0.9877,2.3069,166
12,-0.0224,1.3051,-0.6867,1.0488,0.8819,2.1587,166
12,0.1439,1.3132,-0.752,0.9877,0.7621,2.0301,166
12,0.3041,1.3234,-0.8143,0.9648,0.7359,1.8676,166
12,0.2561,1.3602,-0.8152,1.0357,0.7205,1.7542,166
12,0.3152,1.3632,-0.7683,1.0564,0.6181,1.6223,166
12,0.3673,1.3398,-0.7469,0.9692,0.5221,1.4555,166
12,0.4337,1.2877,-0.5704,0.8678,0.4643,1.3115,166
12,0.4337,1.2765,-0.5214,0.8678,0.4643,1.3115,166
12,0.4265,1.2204,-0.3704,0.7708,0.4252,1.1633,166
12,0.4265,1.2204,-0.3704,0.5385,0.4349,1.0324,166
12,0.4122,1.1143,-0.4592,0.2899,0.4252,0.9507,166
12,0.2173,1.4122,-0.7622,0.2583,0.3815,0.8514,166
12,0.1449,1.8132,-1.1785,0.5221,0.2562,0.4643,166
12,-0.1082,1.7724,1.8021,1.1272,-0.2649,0.0162,166
12,0.2602,1.352,-1.7245,1.908,-1.1491,0.0294,166
12,0.3867,1.5173,-1.452,2.5741,-1.7117,0.1013,166
12,0.2836,1.7632,-1.1938,2.4193,-1.9744,-0.2234,166
12,0.5459,1.6938,-1.0234,2.4193,-1.9744,-0.2234,166
12,0.851,1.8448,-0.8694,1.7215,-2.1325,-0.677,166
12,0.851,1.8448,-0.8694,0.9158,-2.4585,-0.5582,166
12,0.6949,1.6592,-1.2234,-0.0894,-2.5512,-0.581,166
12,0.65,1.501,-1.151,-0.8199,-2.6548,-0.3804,166
12,0.6959,1.3143,-1.001,-1.2439,-2.561,-0.1722,166
12,0.504,0.9102,-1.0479,-1.462,-2.3876,-0.2768,166
12,0.4306,0.7255,-1.0214,-1.3279,-2.0944,-0.5189,166
12,0.4673,0.6255,-0.8877,-0.9714,-1.6747,-0.8885,166
12,0.4061,0.6867,-0.7847,-0.9714,-1.6747,-0.8885,166
12,0.4061,0.6867,-0.7847,-0.6171,-1.148,-1.3802,166
12,0.4826,0.7499,-0.6275,-0.3586,-0.6203,-1.8905,166
12,0.4826,0.7499,-0.6275,-0.1678,-0.0534,-2.2296,166
12,0.451,0.7898,-0.6703,-0.0828,0.5091,-2.3309,166
12,0.4469,0.9337,-0.4867,-0.1396,1.1022,-2.2884,166
12,0.3857,0.9244,-0.4796,-0.3935,1.6877,-2.1848,166
12,0.3489,0.8694,-0.4704,-0.6629,2.1619,-2.0181,166
12,1.7307,0.4459,-0.6449,-0.4307,0.5179,-1.9624,166
12,-0.5581,1.1337,-0.8653,-0.0872,-3.0942,-1.7968,166
12,1.2438,1.1837,0.0163,-1.1121,-3.5913,-1.8992,166
12,0.4255,0.3296,-1.105,-1.1121,-3.5913,-1.8992,166
12,0.4255,0.3296,-1.105,-0.8024,-1.6867,-1.6506,166
12,-0.0051,0.6847,-0.3081,-0.3848,-0.8035,-1.3443,166
12,-1.4622,0.5428,-0.6285,-0.2159,-0.822,-1.5917,166
12,-0.6551,1.0388,-0.2316,-0.4568,-2.234,-1.7357,166
12,-0.2061,0.4714,-0.3582,-0.6213,-2.2306,-1.92,166
12,-0.4642,0.4132,-0.5581,-0.4481,-1.9309,-1.8622,166
12,-0.4142,0.4601,-0.4877,-0.1438,-2.0104,-1.7913,166
12,-0.4163,0.452,-0.3694,-0.0141,-2.0137,-1.7367,166
12,-0.5336,0.4449,-0.3673,-0.1079,-1.9963,-1.6768,166
12,-0.403,0.3051,-0.4112,-0.1079,-1.9963,-1.6768,166
12,-0.403,0.3051,-0.4112,-0.1177,-1.9864,-1.595,166
12,-0.4142,0.3582,-0.3796,0.1678,-1.7956,-1.4948,166
12,-0.4826,0.4969,-0.2867,0.2495,-1.6135,-1.4456,166
12,-0.402,0.5234,-0.202,0.0469,-1.4914,-1.3846,166
12,-0.3949,0.4673,-0.2347,-0.1972,-1.33,-1.3334,166
12,-0.3081,0.3561,-0.3673,-0.2878,-1.1436,-1.2777,166
12,-0.3622,0.3683,-0.3898,-0.2039,-0.9507,-1.2178,166
12,-0.3143,0.3959,-0.4601,-0.1232,-0.8307,-1.2222,166
12,-0.3132,0.453,-0.4387,-0.1232,-0.8307,-1.2222,166
12,-0.2867,0.4734,-0.4561,-0.1144,-0.7184,-1.2232,166
12,-0.2867,0.4734,-0.4561,-0.1798,-0.6116,-1.2243,166
12,-0.2949,0.451,-0.5398,-0.2081,-0.496,-1.2276,166
12,-0.2847,0.4642,-0.5398,-0.1972,-0.3903,-1.2374,166
12,-0.3143,0.4857,-0.5377,-0.23,-0.267,-1.2505,166
12,-0.3765,0.4949,-0.5398,-0.3368,-0.1852,-1.2548,166
12,-0.3846,0.4592,-0.5704,-0.4677,-0.1188,-1.256,166
12,-0.4102,0.4255,-0.5459,-0.5528,-0.0392,-1.2428,166
12,-0.454,0.4051,-0.5632,-0.5898,0.037,-1.2178,166
12,-0.5153,0.4296,-0.5275,-0.5898,0.037,-1.2178,166
12,-0.4806,0.4377,-0.5245,-0.6596,0.0828,-1.1905,166
12,-0.4806,0.4377,-0.5245,-0.7598,0.1198,-1.1589,166
12,-0.5234,0.4235,-0.5275,-0.8307,0.2159,-1.1251,166
12,-0.5663,0.4306,-0.5428,-0.8471,0.2529,-1.0738,166
12,-0.5847,0.4714,-0.4306,-0.9059,0.242,-1.0095,166
12,-0.5388,0.4459,-0.3908,-1.0389,0.2867,-0.9408,166
12,-0.6071,0.3887,-0.4653,-1.0848,0.388,-0.8558,166
12,-0.7051,0.4306,-0.4285,-0.978,0.4175,-0.7403,166
12,-0.701,0.5286,-0.3408,-0.9059,0.4263,-0.6148,166
12,-0.7255,0.5734,-0.2836,-0.9059,0.4263,-0.6148,166
12,-0.7255,0.5734,-0.2836,-1.0335,0.495,-0.4916,166
12,-0.7928,0.5388,-0.2745,-1.2352,0.5516,-0.3521,166
12,-0.8745,0.4408,-0.2571,-1.3607,0.5647,-0.2039,166
12,-0.8806,0.3887,-0.2755,-1.437,0.556,-0.0751,166
12,-0.9061,0.3336,-0.2704,-1.474,0.5679,0.0425,166
12,-0.8571,0.2836,-0.1938,-1.4173,0.545,0.1558,166
12,-0.8071,0.3061,-0.15,-1.3334,0.5145,0.2638,166
12,-0.7592,0.3306,-0.1143,-1.2777,0.5112,0.3619,166
13,-0.7275,0.3459,-0.0836,-1.2079,0.5179,0.4546,166
13,-0.6735,0.3816,-0.0163,-1.2079,0.5179,0.4546,166
13,-0.6735,0.3816,-0.0163,-1.1262,0.52,0.5494,166
13,-0.6408,0.3918,0.0234,-1.052,0.5276,0.6356,166
13,-0.6204,0.3561,0.0173,-0.978,0.5385,0.7327,166
13,-0.5887,0.355,0.0745,-0.8514,0.5582,0.8242,166
13,-0.5336,0.3214,0.105,-0.6869,0.5843,0.9136,166
13,-0.5449,0.3347,0.1071,-0.5331,0.6552,1.0084,166
13,-0.6316,0.3143,0.1398,-0.4349,0.6486,1.1043,166
13,-0.4694,0.2908,0.0193,-0.3554,0.6585,1.2025,166
13,-0.5887,0.3724,0.0438,-0.1286,0.8351,1.268,166
13,-0.6612,0.4663,0.0693,-0.1286,0.8351,1.268,166
13,-0.6224,0.5398,0.0969,0.0469,0.8242,1.3083,166
13,-0.6224,0.5398,0.0969,-0.0316,0.7228,1.3639,166
13,-0.5693,0.3928,-0.0377,-0.0686,0.713,1.4304,166
13,-0.6,0.451,-0.051,0.0925,0.7031,1.4773,166
13,-0.5939,0.5286,-0.0377,0.1274,0.6486,1.5318,166
13,-0.5714,0.4408,-0.1234,0.0654,0.5984,1.5928,166
13,-0.5581,0.451,-0.1,0.1406,0.5408,1.6495,166
13,-0.5388,0.5153,-0.0796,0.2365,0.4841,1.7062,166
13,-0.4592,0.4745,-0.0652,0.1558,0.4361,1.8611,166
13,-0.4428,0.4969,-0.0632,0.2169,0.4372,1.9559,166
13,-0.4316,0.5183,-0.053,0.2627,0.4775,2.065,166
13,-0.4316,0.5183,-0.053,0.2627,0.4775,2.065,166
13,-0.4347,0.504,-0.0693,0.2844,0.5135,2.1707,166
13,-0.4163,0.4765,-0.1428,0.3794,0.5528,2.271,166
13,-0.3796,0.5357,-0.1234,0.5189,0.6007,2.3691,166
13,-0.3582,0.6265,-0.1255,0.5745,0.6454,2.4498,166
13,-0.2653,0.7438,-0.152,0.5124,0.7043,2.4934,166
13,-0.2204,0.7622,-0.2326,0.4611,0.7697,2.5282,166
13,-0.1632,0.8234,-0.252,0.5233,0.8242,2.549,166
13,-0.1612,0.9337,-0.3347,0.6225,0.9168,2.4879,166
13,-0.1551,1.0847,-0.5673,0.7337,1.0139,2.4019,166
13,-0.1703,1.1316,-0.5602,0.7337,1.0139,2.4019,166
13,-0.1703,1.1316,-0.5602,0.8525,1.0749,2.3321,166
13,-0.1694,1.1622,-0.5806,1.0259,1.111,2.2415,166
13,-0.2602,1.3979,-0.5857,1.1055,1.136,2.1413,166
13,-0.1459,1.3193,-0.5612,0.8285,0.9702,1.9755,166
13,-0.0989,1.3214,-0.8939,0.834,0.8395,2.0007,166
13,-0.0347,1.4408,-0.7622,0.8722,0.8787,1.8796,166
13,-0.2,1.6041,-0.9745,0.9365,0.7937,1.6625,166
13,-0.1194,1.6887,-0.9663,0.9692,0.5233,1.4021,166
13,-0.0469,1.6938,-1.001,0.9692,0.5233,1.4021,166
13,0.0316,1.7122,-1.0428,0.9017,0.3117,1.0902,166
13,0.0316,1.7122,-1.0428,0.8002,0.0774,0.9147,166
13,0.351,1.6377,-0.9235,0.6715,-0.1221,0.7871,166
13,0.4112,1.4867,-0.8184,0.5418,-0.2289,0.7086,166
13,0.4337,1.3816,-0.7245,0.4502,-0.3848,0.6661,166
13,0.6173,1.201,-0.5734,0.5822,-0.4698,0.5244,166
13,0.4612,1.3479,-0.3071,0.6737,-0.3292,0.375,166
13,0.2867,1.1592,-0.3989,0.507,-0.1471,-0.0402,166
13,0.2592,1.1173,-0.2836,0.507,-0.1471,-0.0402,166
13,-0.0459,1.7438,-0.4765,0.6846,-0.206,-0.1755,166
13,-0.2683,1.9428,-1.1346,0.6606,-0.2027,-0.4721,166
13,-0.2683,1.9428,-1.1346,0.6257,-0.3073,-0.9702,166
13,-0.1377,1.6132,1.8602,1.0259,-0.8056,-1.1306,166
13,0.204,0.9796,-1.2826,1.7869,-1.185,-0.7501,166
13,0.3152,0.9785,-0.9796,2.1806,-1.3977,-0.5877,166
13,0.2673,1.0959,-0.8826,1.9788,-1.4195,-0.9431,166
13,0.1428,1.3051,-0.8734,1.4511,-1.5165,-1.6092,166
13,0.1877,1.501,-1.3255,1.0455,-1.6211,-2.0682,166
13,0.3163,1.5673,-1.1898,0.6749,-1.7422,-2.0366,166
13,0.4163,1.5316,-1.0163,0.6749,-1.7422,-2.0366,166
13,0.4163,1.5316,-1.0163,0.0326,-1.7291,-1.6451,166
13,0.3357,1.355,-0.8928,-0.8046,-1.5339,-1.1862,166
13,0.3367,0.8275,-0.5979,-1.4271,-1.1436,-1.0215,166
13,0.25,0.5918,-0.7234,-1.6157,-0.7337,-1.1295,166
13,0.2214,0.4183,-0.7204,-1.2722,-0.4349,-1.3334,166
13,-0.5806,0.4092,-0.8,-0.5757,-1.0641,-1.7607,166
13,-0.0602,0.801,-0.4275,0.0032,-2.0562,-2.1565,166
13,0.3428,0.7602,-0.252,-0.2409,-1.9286,-2.6461,166
13,0.2653,0.4826,-0.5826,-0.1864,-1.2952,-2.5589,166
13,-0.4357,0.6857,-0.2592,-0.1864,-1.2952,-2.5589,166
13,-0.4357,0.6857,-0.2592,0.0011,-1.3258,-2.1293,166
13,-0.101,0.5652,-0.4061,-0.1123,-1.5601,-2.115,166
13,-0.3969,0.5734,-0.6,-0.3041,-1.5285,-2.0802,166
13,-0.5316,0.4683,-0.6255,-0.4055,-1.6146,-2.0692,166
13,-0.451,0.4326,-0.4306,-0.3575,-1.6016,-1.9843,166
13,-0.6592,0.3918,-0.502,-0.2321,-1.4097,-1.957,166
13,-0.8041,0.3939,-0.5122,-0.0589,-1.4206,-1.9559,166
13,-0.8837,0.5081,-0.3612,-0.1079,-1.6583,-1.8611,166
13,-0.6337,0.3367,-0.4326,-0.3739,-1.7575,-1.7084,166
13,-0.7214,0.3479,-0.2908,-0.3739,-1.7575,-1.7084,166
13,-1.15,0.3275,-0.2,-0.3685,-1.5078,-1.6114,166
13,-1.15,0.3275,-0.2,-0.2943,-1.3497,-1.4914,166
13,-0.5051,0.4,-0.3846,-0.2758,-1.7607,-1.2451,166
13,-0.5071,0.0408,-0.4163,-0.3357,-1.4238,-1.1535,166
13,-0.7888,0.3734,-0.2602,-0.1035,-1.2352,-1.1098,166
13,-0.5132,0.4449,-0.3102,0.0316,-1.3203,-1.1033,166
13,-0.549,0.4928,-0.3724,0.0097,-1.1741,-1.1131,166
13,-0.5652,0.4745,-0.4459,-0.1602,-1.0553,-1.1415,166
13,-0.55,0.3734,-0.504,-0.1602,-1.0553,-1.1415,166
13,-0.4806,0.4244,-0.5234,-0.1864,-1.0095,-1.1621,166
13,-0.504,0.4928,-0.553,-0.0763,-1.0051,-1.1753,166
13,-0.504,0.4928,-0.553,-0.1047,-0.9202,-1.2079,166
13,-0.4673,0.504,-0.5765,-0.2747,-0.8351,-1.2386,166
13,-0.5449,0.5051,-0.602,-0.4524,-0.7817,-1.2712,166
13,-0.4836,0.5031,-0.5948,-0.6345,-0.7598,-1.3006,166
13,-0.5214,0.4847,-0.6204,-0.7991,-0.6726,-1.3311,166
13,-0.5898,0.4663,-0.6102,-0.9246,-0.6454,-1.3573,166
13,-0.5357,0.4377,-0.5,-1.0292,-0.6268,-1.3834,166
13,-0.5479,0.3918,-0.4337,-1.1611,-0.545,-1.3998,166
13,-0.5479,0.3918,-0.4337,-1.1611,-0.545,-1.3998,166
13,-0.5867,0.3214,-0.3714,-1.2439,-0.4851,-1.3944,166
13,-0.5867,0.3214,-0.3714,-1.2842,-0.4404,-1.3792,166
13,-0.5836,0.3112,-0.3877,-1.3279,-0.3826,-1.3693,166
13,-0.6,0.2724,-0.3622,-1.3563,-0.3063,-1.3475,166
13,-0.6132,0.2234,-0.2847,-1.3824,-0.2474,-1.3029,166
13,-0.7122,0.2194,-0.3582,-1.3846,-0.2104,-1.2636,166
13,-0.7275,0.251,-0.3816,-1.3039,-0.2005,-1.2254,166
14,-0.7449,0.3,-0.3541,-1.1688,-0.1449,-1.1579,166
14,-0.7836,0.355,-0.2765,-1.1688,-0.1449,-1.1579,166
14,-0.7836,0.355,-0.2765,-1.0967,-0.0534,-1.0738,166
14,-0.951,0.4387,-0.2204,-1.2396,0.0675,-0.9822,166
14,-0.949,0.3796,-0.153,-1.5209,0.0795,-0.8481,166
14,-0.9714,0.3061,-0.152,-1.6223,0.0992,-0.702,166
14,-1.0265,0.303,-0.1245,-1.5917,0.1461,-0.556,166
14,-1.0948,0.2755,-0.1163,-1.619,0.23,-0.4307,166
14,-1.1469,0.2245,-0.0918,-1.6506,0.231,-0.3107,166
14,-1.0989,0.1877,-0.0765,-1.5808,0.1591,-0.1852,166
14,-0.9469,0.2,-0.0031,-1.4532,0.1951,-0.0654,166
14,-0.9428,0.2173,0.0541,-1.4532,0.1951,-0.0654,166
14,-0.9438,0.2101,0.0796,-1.3475,0.2867,0.0425,166
14,-0.9438,0.2101,0.0796,-1.2766,0.2954,0.1558,166
14,-0.8398,0.2408,0.1398,-1.2167,0.2867,0.2693,166
14,-0.8336,0.1857,0.1408,-1.1524,0.339,0.3674,166
14,-0.8347,0.2092,0.152,-0.9889,0.3489,0.4807,166
14,-0.8081,0.2612,0.1837,-0.8199,0.3292,0.5865,166
14,-0.754,0.2653,0.1938,-0.7697,0.4382,0.664,166
14,-0.7632,0.2643,0.1887,-0.5877,0.5255,0.7501,166
14,-0.7704,0.3857,0.2397,-0.3826,0.5614,0.9332,166
14,-0.7622,0.3336,0.1663,-0.3794,0.5625,1.016,166
14,-0.7561,0.3571,0.1735,-0.2888,0.5757,1.1001,166
14,-0.7581,0.3071,0.1316,-0.2888,0.5757,1.1001,166
14,-0.7581,0.3071,0.1316,-0.1787,0.5669,1.1862,166
14,-0.7234,0.3398,0.1439,-0.0534,0.5908,1.2657,166
14,-0.7531,0.3683,0.1408,0.0349,0.5877,1.3443,166
14,-0.7122,0.3949,0.15,0.0654,0.532,1.4141,166
14,-0.6755,0.3979,0.1367,0.0904,0.5255,1.4816,166
14,-0.65,0.3541,0.1479,0.1438,0.5408,1.5438,166
14,-0.6418,0.3398,0.1204,0.2224,0.544,1.6037,166
14,-0.6275,0.3336,0.1275,0.3063,0.5505,1.6615,166
14,-0.5959,0.3459,0.1082,0.3903,0.5287,1.7106,166
14,-0.5571,0.3694,0.0908,0.3903,0.5287,1.7106,166
14,-0.5571,0.3694,0.0908,0.471,0.5145,1.7542,166
14,-0.5214,0.3785,0.0806,0.5385,0.5429,1.7924,166
14,-0.502,0.3816,0.0826,0.5865,0.5723,1.825,166
14,-0.45,0.3582,0.0449,0.6018,0.5843,1.8632,166
14,-0.4092,0.3387,0.0255,0.6301,0.5919,1.9145,166
14,-0.3745,0.3469,-0.0031,0.6879,0.6106,1.9799,166
14,-0.3398,0.3816,-0.0265,0.7566,0.6432,2.0682,166
14,-0.2969,0.4265,-0.0551,0.797,0.6944,2.1772,166
14,-0.3224,0.4122,-0.0734,0.834,0.7773,2.2949,166
14,-0.3775,0.3387,-0.1346,0.834,0.7773,2.2949,166
14,-0.4132,0.5183,-0.1357,0.9299,0.8787,2.3942,166
14,-0.4132,0.5183,-0.1357,1.1001,0.979,2.4301,166
14,-0.3612,0.6245,-0.1082,1.0869,1.0782,2.4214,166
14,-0.3316,0.6612,-0.1877,0.9387,1.1764,2.4269,166
14,-0.2949,0.6663,-0.2449,0.8231,1.2516,2.4836,166
14,-0.3316,0.7602,-0.2888,0.6486,1.3378,2.5294,166
14,-0.35,0.7479,-0.3826,0.4492,1.366,2.5654,166
14,-0.2632,0.7101,-0.4612,0.507,1.4086,2.5915,166
14,-0.5163,1.1061,-0.504,0.507,1.4086,2.5915,166
14,-0.3408,0.9683,-0.5632,0.6432,1.4118,2.4662,166
14,-0.2693,0.9581,-0.7857,0.4851,1.2178,2.2154,166
14,-0.2693,0.9581,-0.7857,0.5145,1.1087,2.2634,166
14,-0.1418,1.0632,-0.401,0.4536,1.1785,2.3429,166
14,-0.2959,1.052,-0.6581,0.2932,1.1698,2.3004,166
14,-0.2234,1.0643,-0.6255,0.2878,1.0423,2.2623,167
14,-0.3041,1.0806,-0.7786,0.532,1.016,2.1696,167
14,-0.2795,1.1826,-0.7449,0.8307,1.0324,2.0038,167
14,-0.3663,1.3561,-0.6449,0.9702,1.0314,1.7552,167
14,-0.3,1.4041,-0.6265,0.9528,0.9626,1.4805,167
14,-0.3,1.4041,-0.6265,0.9528,0.9626,1.4805,167
14,-0.1755,1.4999,-0.7632,0.8842,0.8765,1.293,167
14,-0.1755,1.4999,-0.7632,0.7947,0.8525,1.2483,167
14,-0.1541,1.4969,-0.6714,0.556,0.7861,1.3017,167
14,-0.1214,1.3336,-0.7367,0.2779,0.6562,1.2722,167
14,-0.0214,1.201,-0.7704,0.2867,0.5091,1.2493,167
14,0.1245,1.1663,-0.6387,0.3979,0.4611,1.1491,167
14,0.0632,1.1337,-0.553,0.363,0.4263,0.9353,167
14,0.1183,1.0112,-0.5204,0.3161,0.3096,0.7359,167
14,0.1592,0.9214,-0.3152,0.3161,0.3096,0.7359,167
14,0.1592,0.9214,-0.3152,0.3674,0.255,0.6585,167
14,0.152,0.803,-0.1867,0.3609,0.2812,0.6323,167
14,0.1938,0.7581,-0.1061,0.267,0.3216,0.6749,167
14,-0.0479,0.7959,-0.504,0.3903,0.2245,0.6432,167
14,-0.049,1.2979,-0.8367,1.2516,-0.0992,0.5833,167
14,-0.2071,1.9745,-1.303,2.4487,-0.0719,0.2638,167
14,-0.1153,1.5806,1.9174,2.7747,-0.556,-0.2169,167
14,0.1489,1.3255,-1.5796,2.7954,-1.0368,-0.0097,167
14,0.2795,1.6459,-1.1275,2.7649,-1.1993,-0.0643,167
14,0.1847,1.7816,-1.301,2.7649,-1.1993,-0.0643,167
14,0.2581,1.8989,-1.1898,2.2001,-1.3649,-0.5059,167
14,0.2581,1.8989,-1.1898,1.3191,-1.7432,-0.9921,167
14,0.5132,1.5948,-1.5102,0.6672,-2.1129,-1.1404,167
14,0.5734,1.6102,-1.2255,0.1744,-2.4095,-0.8395,167
14,0.5898,1.4826,-1.0234,-0.52,-2.5261,-0.5908,167
14,0.4387,1.2296,-1.1346,-1.0684,-2.5097,-0.5309,167
14,0.4428,0.8204,-0.8887,-1.2025,-2.3527,-0.7304,167
14,0.4112,0.6959,-0.8846,-0.9812,-2.0137,-1.0345,167
14,0.3826,0.7673,-0.7581,-0.665,-1.5591,-1.4336,167
14,0.3887,0.7724,-0.6785,-0.665,-1.5591,-1.4336,167
14,0.4132,0.7683,-0.55,-0.5091,-1.0238,-1.9538,167
14,0.4132,0.7683,-0.55,-0.4077,-0.4557,-2.2655,167
14,0.4142,0.7438,-0.504,-0.4055,0.218,-2.3451,167
14,0.3673,0.7306,-0.4612,-0.5549,0.9038,-2.2557,167
14,0.0347,0.5908,-0.5102,-0.726,1.5732,-2.1467,167
14,-1.8163,0.3152,-0.0632,-0.5287,0.7195,-2.1423,167
14,-1.5275,0.2643,-1.0286,0.1232,-2.151,-2.1205,167
14,0.7826,0.5979,-0.1224,-0.7108,-3.056,-2.2819,167
14,0.0183,0.0153,-1.1663,-0.8416,-1.5133,-2.3103,167
14,0.0183,0.0153,-1.1663,-0.8416,-1.5133,-2.3103,167
14,-1.6112,0.2949,-0.5326,-0.2605,-0.5353,-1.6637,167
14,-1.6112,0.2949,-0.5326,-0.1602,-1.0618,-1.9101,167
14,-0.3745,0.3643,-0.6979,-0.5276,-2.1096,-2.0812,167
14,-0.1622,0.4102,-0.5816,-0.5167,-1.837,-1.9297,167
14,-0.8255,0.3806,-0.5989,-0.338,-1.2995,-1.8708,167
14,-0.9071,0.4918,-0.4163,-0.2583,-1.6005,-1.7226,167
14,-0.4888,0.5336,-0.302,-0.6159,-1.7651,-1.6169,167
15,-0.4969,0.2438,-0.3612,-0.9027,-1.5656,-1.5133,167
15,-0.4469,0.1581,-0.4132,-0.6411,-1.3693,-1.3378,167
15,-0.4622,0.2928,-0.3143,-0.6411,-1.3693,-1.3378,167
15,-0.4622,0.2928,-0.3143,-0.4044,-1.2854,-1.3137,167
15,-0.3571,0.2898,-0.3377,-0.2899,-1.1982,-1.3039,167
15,-0.4102,0.3816,-0.2928,-0.2016,-0.9702,-1.305,167
15,-0.454,0.3694,-0.4102,-0.2136,-0.8645,-1.3126,167
15,-0.3949,0.3694,-0.4949,-0.1526,-0.7174,-1.3235,167
15,-0.3887,0.4153,-0.5092,-0.086,-0.5908,-1.3334,167
15,-0.3694,0.4581,-0.5316,-0.1013,-0.4655,-1.3552,167
15,-0.4102,0.4836,-0.551,-0.2333,-0.3771,-1.3704,167
15,-0.3979,0.452,-0.6459,-0.3794,-0.3128,-1.3628,167
15,-0.4153,0.4561,-0.6561,-0.3794,-0.3128,-1.3628,167
15,-0.4153,0.4561,-0.6561,-0.4786,-0.2474,-1.3388,167
15,-0.4316,0.4571,-0.6714,-0.5658,-0.1701,-1.3159,167
15,-0.5143,0.4959,-0.6102,-0.6955,-0.1133,-1.2985,167
15,-0.5295,0.4867,-0.6102,-0.8809,-0.0937,-1.2745,167
15,-0.551,0.4561,-0.5918,-1.0608,-0.0589,-1.2472,167
15,-0.5775,0.4051,-0.6132,-1.1327,-0.0108,-1.2211,167
15,-0.6398,0.4244,-0.5081,-1.0913,0.037,-1.1764,167
15,-0.7306,0.5663,-0.4928,-1.16,0.1242,-1.0423,167
15,-0.7194,0.6796,-0.2459,-1.1993,0.182,-0.9485,167
15,-0.8806,0.6979,-0.2775,-1.305,0.3717,-0.8264,167
15,-0.8469,0.6346,-0.1581,-1.305,0.3717,-0.8264,167
15,-0.8469,0.6346,-0.1581,-1.6974,0.4513,-0.5931,167
15,-1.0173,0.4867,-0.2101,-2.1325,0.4382,-0.3281,167
15,-0.9806,0.1245,-0.2612,-2.2481,0.3466,-0.0872,167
15,-0.9581,0.2,-0.2153,-2.0845,0.3008,0.1537,167
15,-0.9122,0.2653,-0.1408,-2.0072,0.3248,0.2016,167
15,-0.8377,0.3561,-0.0643,-1.8393,0.3096,0.206,167
15,-0.751,0.4183,-0.0612,-1.6637,0.2191,0.2518,167
15,-0.6775,0.4969,0.0071,-1.6179,0.2104,0.2737,167
15,-0.6928,0.4235,0.0204,-1.5568,0.2354,0.2823,167
15,-0.6418,0.401,0.0959,-1.5568,0.2354,0.2823,167
15,-0.6418,0.401,0.0959,-1.3366,0.2115,0.3151,167
15,-0.6091,0.4102,0.1735,-1.1829,0.1995,0.3597,167
15,-0.6449,0.3837,0.1918,-1.0946,0.2016,0.4414,167
15,-0.6837,0.4755,0.1979,-1.0412,0.1646,0.5036,167
15,-0.5581,0.3357,0.2622,-0.7359,0.181,0.5647,167
15,-0.6439,0.4908,0.2377,-0.4349,0.35,0.5887,167
15,-0.8081,0.5295,0.25,-0.424,0.3804,0.6377,167
15,-0.7081,0.4377,0.1765,-0.3903,0.2737,0.6911,167
15,-0.6959,0.3887,0.1398,-0.2573,0.3008,0.7424,167
15,-0.7326,0.3816,0.1265,-0.2573,0.3008,0.7424,167
15,-0.7133,0.4051,0.105,-0.049,0.3586,0.7827,167
15,-0.7133,0.4051,0.105,0.1035,0.3575,0.8329,167
15,-0.6959,0.4163,0.0928,0.1537,0.3456,0.8973,167
15,-0.6337,0.4214,0.0673,0.2147,0.2932,0.9746,167
15,-0.5898,0.4561,0.049,0.2911,0.3063,1.0509,167
15,-0.6194,0.501,0.0418,0.3193,0.3489,1.1218,167
15,-0.5928,0.4918,0.0367,0.3193,0.3248,1.197,167
15,-0.5663,0.5102,0.051,0.3161,0.338,1.2537,167
15,-0.5684,0.4714,0.0418,0.3161,0.338,1.2537,167
15,-0.5265,0.3928,-0.0275,0.2725,0.3619,1.2941,167
15,-0.4683,0.4428,0.0204,0.3151,0.388,1.3519,167
15,-0.4683,0.4428,0.0204,0.4382,0.399,1.4238,167
15,-0.4244,0.4969,0.0449,0.4807,0.4568,1.4958,167
15,-0.4347,0.4724,0.0092,0.4317,0.5299,1.5711,167
15,-0.4255,0.4357,-0.0193,0.4393,0.5713,1.6474,167
15,-0.3908,0.4265,-0.0275,0.5102,0.6181,1.7302,167
15,-0.4,0.4132,-0.0357,0.5679,0.7119,1.7934,167
15,-0.3939,0.3561,-0.0693,0.6062,0.7806,1.8611,167
15,-0.3479,0.3683,-0.0969,0.6062,0.7806,1.8611,167
15,-0.2806,0.4387,-0.103,0.6803,0.8166,1.9319,167
15,-0.254,0.5173,-0.1041,0.7522,0.8853,2.0192,167
15,-0.254,0.5173,-0.1041,0.7249,1.0118,2.1085,167
15,-0.2755,0.5632,-0.1735,0.6236,1.1164,2.1913,167
15,-0.2581,0.5643,-0.2112,0.5276,1.1644,2.2852,167
15,-0.2214,0.5948,-0.25,0.4655,1.2308,2.3746,167
15,-0.2826,0.6969,-0.3357,0.4132,1.3006,2.4269,167
15,-0.3184,0.7704,-0.4122,0.3729,1.3334,2.4356,167
15,-0.2836,0.749,-0.4816,0.4731,1.3977,2.3942,167
15,-0.4745,1.002,-0.6296,0.4721,1.3683,2.3004,167
15,-0.4745,1.002,-0.6296,0.4721,1.3683,2.3004,167
15,-0.3582,0.9408,-0.5714,0.2812,1.1459,2.2088,167
15,-0.2336,0.9734,-0.5347,0.2758,1.0858,2.3418,167
15,-0.2938,1.0928,-0.2377,0.2081,1.2821,2.3712,167
15,-0.3857,0.9888,-0.5541,0.1406,1.2298,2.3298,167
15,-0.3132,1.0612,-0.5092,0.2714,1.0738,2.2819,167
15,-0.2112,1.1306,-0.5959,0.4992,0.9822,2.2154,167
15,-0.2234,1.2438,-0.5786,0.7086,1.0412,2.0343,167
15,-0.2071,1.3704,-0.7051,0.8656,0.9594,1.7945,167
15,-0.1122,1.4683,-0.6908,1.0509,0.7981,1.5558,167
15,0.0388,1.5255,-0.7877,1.0509,0.7981,1.5558,167
15,0.0388,1.5255,-0.7877,1.1491,0.7031,1.3378,167
15,0.1714,1.5857,-0.7499,1.1011,0.7359,1.2243,167
15,0.1928,1.5939,-0.7632,0.8558,0.7337,1.2157,167
15,0.2081,1.4836,-0.8469,0.5635,0.5734,1.209,167
15,0.3398,1.3846,-0.8469,0.4469,0.3848,1.1087,167
15,0.3286,1.1459,-0.7602,0.5931,0.2823,0.9746,167
15,0.3765,1.2806,-0.4285,0.7861,0.2888,0.8351,167
15,0.1918,1.3234,-0.4142,0.8548,0.2867,0.5091,167
15,0.105,1.453,-0.1683,0.8548,0.2867,0.5091,167
15,0.1214,1.6653,-0.6143,0.4687,0.2659,0.2071,167
15,0.1214,1.6653,-0.6143,0.2333,0.074,0.0511,167
15,-0.15,1.9999,-0.6071,0.5036,0.049,-0.194,167
15,-0.0816,1.9867,-1.8245,0.677,-0.3041,-0.5931,167
15,0.3112,1.152,-1.3173,1.0128,-0.8078,-0.3619,167
15,0.4224,0.9775,-1.1071,1.4675,-1.1087,-0.1286,167
15,0.3245,1.0714,-1.1275,1.7859,-1.2461,-0.3151,167
15,0.3204,1.3347,-0.951,1.7193,-1.449,-0.8939,167
15,0.4132,1.5908,-1.153,1.4424,-1.6855,-1.5688,167
15,0.4337,1.701,-1.1418,1.4424,-1.6855,-1.5688,167
15,0.5652,1.7826,-0.9306,1.185,-1.8458,-1.7672,167
15,0.5652,1.7826,-0.9306,0.6083,-1.8349,-1.5351,167
15,0.5765,1.6837,-0.7836,-0.4208,-1.595,-1.1033,167
15,0.4755,1.1255,-0.6612,-1.4304,-1.2505,-0.7664,167
15,0.3724,0.7928,-0.7357,-1.8468,-0.8395,-0.7871,167
15,0.2775,0.5367,-0.8908,-1.6037,-0.5015,-0.991,167
15,0.203,0.4704,-0.6642,-0.9452,-0.1776,-1.3214,167
16,-0.0714,0.4683,-0.6143,-0.3597,0.1123,-1.8916,167
16,-0.8306,0.454,-0.3459,0.157,-0.7697,-2.2678,167
16,-0.4765,0.8704,-0.4908,0.157,-0.7697,-2.2678,167
16,-0.4765,0.8704,-0.4908,0.206,-2.1598,-2.4618,167
16,0.5388,0.4479,-0.3714,-0.3357,-2.1947,-2.912,167
16,0.1612,0.454,-0.8306,0.024,-1.4664,-2.549,167
16,-0.2612,0.8112,-0.2153,0.2039,-1.209,-2.102,167
16,-0.3,0.5734,-0.3683,-0.255,-1.6026,-2.102,167
16,0.105,0.4041,-0.5948,-0.3935,-1.8523,-1.9712,167
16,-0.6847,0.6153,-0.3877,-0.3128,-1.3595,-1.9777,167
16,-0.9398,0.2908,-0.5541,-0.2627,-1.6747,-2.1216,167
16,-0.549,0.3979,-0.6204,-0.0305,-1.8458,-2.1009,167
16,-0.9275,0.3347,-0.3152,-0.0305,-1.8458,-2.1009,167
16,-0.9275,0.3347,-0.3152,0.0664,-1.5862,-2.053,167
16,-0.7602,0.4622,-0.4836,0.2104,-1.8076,-1.933,167
16,-0.7336,0.5673,-0.3582,-0.0032,-1.751,-1.8611,167
16,-0.6479,0.2745,-0.3724,-0.2191,-1.6572,-1.7476,167
16,-0.6847,0.2755,-0.3163,-0.1198,-1.5656,-1.6092,167
16,-0.5806,0.3163,-0.2438,-0.0806,-1.4914,-1.4838,167
16,-0.5816,0.2428,-0.2938,-0.1428,-1.3519,-1.3813,167
16,-0.4745,0.303,-0.3448,0.1449,-1.1621,-1.2418,167
16,-0.454,0.4071,-0.254,0.2039,-0.9702,-1.28,167
16,-0.5112,0.3908,-0.401,0.0894,-0.87,-1.3083,167
16,-0.4857,0.3428,-0.4551,0.0643,-0.8645,-1.3246,167
16,-0.4112,0.3357,-0.4969,0.0643,-0.8645,-1.3246,167
16,-0.504,0.401,-0.4714,0.1581,-0.7861,-1.329,167
16,-0.504,0.401,-0.4714,0.2191,-0.6323,-1.3529,167
16,-0.5153,0.4214,-0.4847,0.1482,-0.5799,-1.3649,167
16,-0.5143,0.4112,-0.4959,-0.0217,-0.5745,-1.3672,167
16,-0.504,0.3683,-0.5286,-0.1461,-0.508,-1.3595,167
16,-0.5765,0.3887,-0.5347,-0.1602,-0.4143,-1.3399,167
16,-0.6132,0.45,-0.5295,-0.2016,-0.3739,-1.3181,167
16,-0.6173,0.4581,-0.4826,-0.3609,-0.3521,-1.2974,167
16,-0.6194,0.4102,-0.4765,-0.508,-0.3031,-1.2668,167
16,-0.6194,0.4102,-0.4765,-0.508,-0.3031,-1.2668,167
16,-0.6663,0.3653,-0.5163,-0.5364,-0.2256,-1.2188,167
16,-0.7051,0.402,-0.4847,-0.5287,-0.1678,-1.1589,167
16,-0.749,0.4469,-0.4979,-0.5582,-0.1373,-1.0913,167
16,-0.7561,0.4734,-0.4387,-0.6051,-0.11,-1.0019,167
16,-0.754,0.5204,-0.2336,-0.6585,0.0065,-0.8897,167
16,-0.7765,0.454,-0.2888,-0.9027,0.1264,-0.7642,167
16,-0.9296,0.3296,-0.3785,-1.1404,0.1406,-0.5996,167
16,-0.8806,0.1969,-0.3918,-1.1382,0.0435,-0.4284,167
16,-0.8816,0.2561,-0.3755,-0.9616,0.0719,-0.2768,167
16,-0.901,0.3275,-0.3122,-0.9616,0.0719,-0.2768,167
16,-0.901,0.3275,-0.3122,-0.846,0.1602,-0.157,167
16,-0.8989,0.3898,-0.2469,-0.8361,0.1558,-0.0479,167
16,-0.8091,0.3846,-0.2428,-0.8668,0.1035,0.0511,167
16,-0.7592,0.3653,-0.249,-0.8416,0.1623,0.1362,167
16,-0.7724,0.352,-0.2347,-0.7566,0.2659,0.2136,167
16,-0.7479,0.4122,-0.1703,-0.7086,0.3008,0.2976,167
16,-0.7112,0.3898,-0.1551,-0.7653,0.3357,0.3771,167
16,-0.6735,0.3214,-0.1694,-0.7806,0.4153,0.4601,167
16,-0.6735,0.3122,-0.1632,-0.7806,0.4153,0.4601,167
16,-0.6408,0.4244,-0.0928,-0.6803,0.507,0.556,167
16,-0.6408,0.4244,-0.0928,-0.6301,0.5723,0.6486,167
16,-0.6489,0.4306,-0.0989,-0.6923,0.6377,0.7403,167
16,-0.6275,0.4081,-0.1102,-0.713,0.6726,0.8264,167
16,-0.6132,0.4479,-0.0796,-0.6726,0.7283,0.9124,168
16,-0.6245,0.453,-0.0775,-0.665,0.7827,0.9899,168
16,-0.6275,0.4694,-0.0612,-0.6737,0.8056,1.0543,168
16,-0.6163,0.4928,-0.053,-0.6737,0.8078,1.1207,168
16,-0.5847,0.5081,-0.0326,-0.6737,0.8078,1.1207,168
16,-0.5979,0.4897,-0.0102,-0.677,0.8242,1.1884,168
16,-0.5877,0.4561,-0.0122,-0.6934,0.8416,1.2527,168
16,-0.5877,0.4561,-0.0122,-0.6923,0.8275,1.3181,168
16,-0.5479,0.4092,0.0122,-0.6476,0.822,1.3878,168
16,-0.5581,0.3928,0.0224,-0.5799,0.8329,1.4576,168
16,-0.5673,0.3908,0.0183,-0.5102,0.8111,1.5339,168
16,-0.55,0.4102,0.0153,-0.4252,0.7827,1.6081,168
16,-0.5388,0.4704,0.0193,-0.3422,0.7632,1.6747,168
16,-0.5357,0.4734,0.0183,-0.2693,0.7489,1.7335,168
16,-0.5224,0.4438,0.0193,-0.2136,0.7195,1.7924,168
16,-0.4969,0.3979,0.0163,-0.2136,0.7195,1.7924,168
16,-0.4969,0.3979,0.0163,-0.1198,0.701,1.8437,168
16,-0.4601,0.3877,0.0143,0.0196,0.6988,1.8916,168
16,-0.4347,0.4071,0.0234,0.1352,0.6923,1.9286,168
16,-0.3918,0.4285,0.0234,0.1886,0.6966,1.969,168
16,-0.3152,0.4755,-0.0173,0.2464,0.714,2.0224,168
16,-0.3102,0.5143,-0.049,0.2987,0.7457,2.0824,168
16,-0.2949,0.5388,-0.0449,0.314,0.7664,2.1489,168
16,-0.3061,0.5561,-0.105,0.3357,0.7915,2.2033,168
16,-0.2836,0.6112,-0.1653,0.3946,0.8285,2.2426,168
16,-0.3336,0.6826,-0.2,0.3946,0.8285,2.2426,168
16,-0.3336,0.6826,-0.2,0.4295,0.8689,2.2678,168
16,-0.3224,0.7357,-0.1847,0.3903,0.8493,2.271,168
16,-0.301,0.8091,-0.3204,0.3357,0.8689,2.2437,168
16,-0.2816,0.8582,-0.3336,0.3172,0.8842,2.2067,168
16,-0.2581,0.9244,-0.3561,0.3216,0.8722,2.1718,168
16,-0.2071,0.9867,-0.3571,0.2518,0.8689,2.1434,168
16,-0.1449,1.052,-0.3887,0.1646,0.9005,2.1631,168
16,-0.1541,1.0806,-0.4235,0.1198,0.9616,2.2033,168
16,-0.1867,1.1082,-0.4724,0.1221,1.0095,2.2317,168
16,-0.1837,1.1337,-0.5306,0.1221,1.0095,2.2317,168
16,-0.1653,1.153,-0.5367,0.1831,1.0324,2.2012,168
16,-0.1653,1.153,-0.5367,0.2812,1.0587,2.1379,168
16,-0.1694,1.1969,-0.5408,0.3946,1.0858,2.053,168
16,-0.1765,1.2755,-0.4551,0.4731,1.111,1.9254,168
16,-0.1918,1.3336,-0.5632,0.496,1.0869,1.7586,168
16,-0.203,1.3745,-0.5551,0.5156,1.0118,1.6495,168
16,-0.1214,1.3724,-0.5632,0.5309,0.8918,1.6049,168
16,-0.0918,1.4244,-0.5673,0.5167,0.7795,1.5852,168
16,0.0051,1.3571,-0.6612,0.5167,0.7795,1.5852,168
16,0.0724,1.3806,-0.5663,0.5211,0.6585,1.4751,168
16,0.1041,1.3469,-0.6296,0.6955,0.556,1.3311,168
16,0.1041,1.3469,-0.6296,0.7718,0.4643,1.1644,168
16,0.2397,1.2653,-0.3714,0.785,0.3107,1.028,168
16,0.301,1.1928,-0.5877,0.7893,0.1907,0.846,168
16,0.4285,1.0775,-0.5908,0.7566,0.1308,0.713,168
16,0.3632,0.9775,-0.3286,0.7806,0.1384,0.5908,168
17,0.4826,0.9041,0.0826,0.9092,0.1057,0.5408,168
17,0.1234,0.9775,-0.5081,0.7283,0.1253,0.3554,168
17,0.2867,1.2255,-0.2265,0.7283,0.1253,0.3554,168
17,0.2867,1.2255,-0.2265,0.7827,-0.0131,0.1701,168
17,-0.2775,1.9999,1.4164,1.4522,-0.1089,-0.5996,168
17,-0.0092,1.5459,1.7327,2.247,-1.1043,-1.0935,168
17,0.4112,1.502,-1.3061,2.7998,-1.8491,-0.7043,168
17,0.6082,1.3622,-0.9785,2.669,-1.9744,-0.2453,168
17,0.4387,1.6571,-0.8704,1.8741,-1.9406,-0.3237,168
17,0.3132,1.5939,-1.0786,1.136,-1.9929,-0.8962,168
17,0.3816,1.5479,-1.3775,0.7817,-2.1859,-1.2691,168
17,0.3806,1.6326,-1.3102,0.5614,-2.2481,-1.3552,168
17,0.5265,1.4428,-1.0398,0.5614,-2.2481,-1.3552,168
17,0.5265,1.4428,-1.0398,0.0011,-2.1379,-1.2363,168
17,0.4377,1.3152,-0.8918,-0.6345,-1.8458,-0.9452,168
17,0.4622,1.0918,-0.7388,-1.1785,-1.4522,-0.967,168
17,0.3898,0.6265,-0.8296,-1.2897,-0.9997,-1.1459,168
17,0.3714,0.6061,-0.7296,-0.991,-0.5549,-1.3475,168
17,0.2745,0.6581,-0.6806,-0.6192,-0.0599,-1.6953,168
17,0.2551,0.6938,-0.5918,-0.399,0.4077,-2.1522,168
17,-0.5408,0.499,-0.5714,-0.0043,0.8787,-2.5871,168
17,-1.7438,0.4326,-0.5081,0.5505,-1.3039,-2.271,168
17,0.8163,0.9255,-0.2296,-0.3151,-2.8227,-2.3441,168
17,0.4041,-0.001,-0.9173,-0.3151,-2.8227,-2.3441,168
17,-0.699,0.3173,-0.6867,-0.966,-1.6037,-2.5173,168
17,-0.8867,0.5826,-0.2296,-0.1297,-1.0204,-1.7771,168
17,-0.8867,0.5826,-0.2296,0.2234,-1.764,-1.9723,168
17,-0.2051,0.5826,-0.4092,-0.1144,-2.1314,-2.3658,168
17,-0.499,0.4387,-0.5031,-0.2125,-1.8981,-2.3266,168
17,-0.6326,0.3928,-0.7795,-0.0566,-1.9864,-2.2808,168
17,-0.5652,0.3357,-0.6041,0.2278,-2.1194,-2.2426,168
17,-0.6122,0.4694,-0.5234,0.0349,-2.1173,-2.2394,168
17,-0.602,0.35,-0.4438,-0.1972,-2.1707,-2.1762,168
17,-0.55,0.2683,-0.4551,-0.1198,-2.2154,-2.0965,168
17,-0.5265,0.3541,-0.3775,-0.1198,-2.2154,-2.0965,168
17,-0.5265,0.3541,-0.3775,0.0196,-2.1118,-2.0377,168
17,-0.5663,0.3694,-0.3326,0.0457,-1.9853,-1.9995,168
17,-0.5275,0.3663,-0.301,-0.0228,-1.9254,-1.97,168
17,-0.4622,0.3051,-0.3704,-0.0795,-1.8207,-1.933,168
17,-0.4918,0.25,-0.4387,0.0032,-1.6703,-1.8763,168
17,-0.5132,0.2867,-0.4765,0.1198,-1.5547,-1.8687,168
17,-0.5081,0.3071,-0.5,0.1623,-1.474,-1.9068,168
17,-0.5193,0.3439,-0.5336,0.1558,-1.3901,-1.9046,168
17,-0.5388,0.3479,-0.5367,0.0992,-1.2962,-1.8916,168
17,-0.5541,0.352,-0.5173,0.0992,-1.2962,-1.8916,168
17,-0.5541,0.352,-0.5173,0.0053,-1.2102,-1.8817,168
17,-0.5786,0.3694,-0.5193,-0.1428,-1.1251,-1.8666,168
17,-0.6377,0.3469,-0.5602,-0.3227,-1.0543,-1.8447,168
17,-0.652,0.3459,-0.5948,-0.4601,-0.9986,-1.8185,168
17,-0.6622,0.3582,-0.603,-0.544,-0.9397,-1.7913,168
17,-0.6877,0.3632,-0.5551,-0.6411,-0.8601,-1.7596,168
17,-0.6908,0.3102,-0.4102,-0.7991,-0.7762,-1.7138,168
17,-0.7153,0.2714,-0.3877,-0.9986,-0.7075,-1.655,168
17,-0.7418,0.2347,-0.4459,-1.1164,-0.6454,-1.5928,168
17,-0.8041,0.2888,-0.5286,-1.1164,-0.6454,-1.5928,168
17,-0.8204,0.3459,-0.4918,-1.0902,-0.5984,-1.5274,168
17,-0.8204,0.3459,-0.4918,-0.9921,-0.5374,-1.4587,168
17,-0.7908,0.4183,-0.3163,-0.9921,-0.4611,-1.3802,169
17,-0.8734,0.4969,-0.2071,-1.2058,-0.3237,-1.3017,169
17,-0.954,0.299,-0.2888,-1.5394,-0.2844,-1.1785,169
17,-0.9867,0.2296,-0.2581,-1.6506,-0.2649,-1.0412,169
17,-0.9867,0.2316,-0.2571,-1.6125,-0.2376,-0.9059,169
17,-1.0684,0.2285,-0.1867,-1.6364,-0.1591,-0.8002,169
17,-1.0704,0.1642,-0.1683,-1.6364,-0.1591,-0.8002,169
17,-1.0286,0.1306,-0.1296,-1.6921,-0.1755,-0.6879,169
17,-1.0286,0.1306,-0.1296,-1.7018,-0.2191,-0.5669,169
17,-0.9551,0.1255,-0.0948,-1.631,-0.2115,-0.4546,169
17,-0.901,0.1908,-0.0081,-1.5503,-0.1274,-0.351,169
17,-0.9071,0.2449,0.0255,-1.4958,-0.0698,-0.2464,169
17,-0.901,0.249,0.0714,-1.4664,-0.0545,-0.1274,169
17,-0.8489,0.2581,0.0816,-1.4021,0.0261,-0.0011,169
17,-0.8887,0.2,0.1694,-1.3922,0.1417,0.1144,169
17,-0.8765,0.1755,0.1703,-1.3497,0.1984,0.2659,169
17,-0.8979,0.1887,0.2204,-1.3497,0.1984,0.2659,169
17,-0.8979,0.1887,0.2204,-1.3388,0.2125,0.4065,169
17,-0.7755,0.0408,0.1459,-1.3083,0.2922,0.5528,169
17,-0.7204,0.1112,0.1612,-1.0379,0.4426,0.7239,169
17,-0.8112,0.252,0.2347,-0.8122,0.5952,0.8395,169
17,-0.8275,0.3582,0.2316,-0.8078,0.5952,0.9365,169
17,-0.7734,0.3408,0.1796,-0.8601,0.6301,1.0314,169
17,-0.7928,0.3469,0.1724,-0.7697,0.6944,1.1152,169
17,-0.803,0.3663,0.1796,-0.7152,0.6978,1.1927,169
17,-0.7418,0.2479,0.1357,-0.7108,0.713,1.2571,169
17,-0.7775,0.2265,0.1183,-0.7108,0.713,1.2571,169
17,-0.7775,0.2265,0.1183,-0.5778,0.7642,1.3203,169
17,-0.7836,0.2908,0.1489,-0.4153,0.7447,1.3857,169
17,-0.7459,0.3418,0.1785,-0.3891,0.7152,1.438,169
17,-0.749,0.2479,0.1194,-0.3771,0.7327,1.4784,169
17,-0.7336,0.2469,0.1224,-0.2737,0.7064,1.5274,169
17,-0.6908,0.2704,0.1357,-0.1864,0.6694,1.5776,169
17,-0.65,0.2194,0.1132,-0.1362,0.665,1.6375,169
17,-0.6408,0.2,0.1122,-0.0675,0.652,1.7018,169
17,-0.603,0.1938,0.1112,0.0043,0.6018,1.7749,169
17,-0.5724,0.1918,0.1041,0.0043,0.6018,1.7749,169
17,-0.5377,0.1979,0.1071,0.0675,0.581,1.8512,169
17,-0.5377,0.1979,0.1071,0.1352,0.5625,1.9275,169
17,-0.5081,0.203,0.1082,0.2115,0.5461,2.0049,169
17,-0.4796,0.2051,0.1071,0.3008,0.5538,2.077,169
17,-0.4653,0.2163,0.1132,0.3838,0.5679,2.139,169
17,-0.4183,0.3214,0.1439,0.4492,0.5996,2.2023,169
17,-0.3867,0.3214,0.1,0.4568,0.6268,2.2557,169
17,-0.3316,0.3163,0.0877,0.5276,0.6803,2.3113,169
17,-0.3398,0.4275,0.0581,0.5276,0.6803,2.3113,169
17,-0.302,0.4571,0.0857,0.6596,0.7544,2.3832,169
17,-0.3336,0.4387,0.0061,0.6955,0.8035,2.4542,169
17,-0.3336,0.4387,0.0061,0.665,0.8897,2.5108,169
17,-0.3602,0.4081,-0.0153,0.7205,0.9605,2.5654,169
18,-0.3541,0.4265,-0.0755,0.8132,0.9965,2.6167,169
18,-0.3387,0.551,-0.1439,0.871,1.0303,2.681,169
18,-0.3796,0.6234,-0.1296,0.821,1.0902,2.6852,169
18,-0.2683,0.6143,-0.254,0.6988,1.0761,2.7006,169
18,-0.2979,0.6357,-0.3193,0.6944,1.1218,2.7333,169
18,-0.251,0.6979,-0.2959,0.7272,1.1371,2.7693,169
18,-0.2204,0.7194,-0.3591,0.7272,1.1371,2.7693,169
18,-0.4112,1.004,-0.5479,0.7522,1.2003,2.755,169
18,-0.4112,1.004,-0.5479,0.8046,1.2821,2.7092,169
18,-0.2826,1.0163,-0.4214,0.6562,1.1993,2.5457,169
18,-0.3234,1.0989,-0.8214,0.7621,1.1808,2.4978,169
18,-0.3306,1.2877,-0.7306,0.7991,1.2102,2.3626,169
18,-0.3846,1.3826,-0.7602,0.7348,1.184,2.2634,169
18,-0.2469,1.4673,-0.6326,0.5461,1.0761,2.3244,169
18,-0.3418,1.5295,-0.6735,0.3183,1.0749,2.3462,169
18,-0.2949,1.4796,-0.7622,0.1896,0.9473,2.247,169
18,-0.2949,1.4796,-0.7622,0.1896,0.9473,2.247,169
18,-0.2357,1.4755,-0.7499,0.3031,0.859,2.0856,169
18,-0.1357,1.5367,-0.6724,0.3848,0.7741,1.9363,169
18,-0.1234,1.603,-0.7101,0.3346,0.6857,1.752,169
18,0.0714,1.5684,-0.7867,0.2725,0.5026,1.5471,169
18,0.1346,1.4908,-0.8306,0.2823,0.3609,1.3595,169
18,0.1796,1.4908,-0.7724,0.3761,0.2354,1.1741,169
18,0.3408,1.1408,-0.553,0.5299,-0.0326,0.8252,169
18,0.3184,1.1439,-0.4551,0.7031,-0.0795,0.7991,169
18,0.2357,1.1194,-0.0102,0.6955,0.0589,0.6106,169
18,0.1357,1.0316,-0.204,0.3542,0.0555,0.3946,169
18,-0.0306,1.3102,-0.4285,0.3542,0.0555,0.3946,169
18,-0.3224,1.9999,-0.1245,0.1417,-0.0589,0.3128,169
18,-0.3224,1.9999,-0.1245,0.7762,-0.0948,-0.074,169
18,-0.6377,1.9999,1.4133,1.2897,-0.9246,-0.8787,169
18,0.4296,1.4071,-1.1847,2.09,-1.6844,-0.5374,169
18,0.3612,1.3775,-0.7602,2.2056,-1.8305,-0.1221,169
18,0.4449,1.2204,-1.0724,1.8262,-1.7575,-0.2518,169
18,0.1377,1.6887,-1.049,1.5808,-1.7313,-0.7184,169
18,0.3643,1.6428,-1.3775,1.3454,-1.9483,-1.3683,169
18,0.1959,1.7183,-1.5398,1.3105,-2.1282,-1.5002,169
18,0.4398,1.7949,-1.053,1.3105,-2.1282,-1.5002,169
18,0.4398,1.7949,-1.053,0.7086,-2.1652,-1.4522,169
18,0.4326,1.3469,-1.0081,-0.2104,-1.9309,-1.1295,169
18,0.4714,1.1459,-0.7071,-1.0345,-1.6299,-0.7621,169
18,0.3418,0.8643,-0.7836,-1.4641,-1.2352,-0.8384,169
18,0.2459,0.4663,-0.8949,-1.2493,-0.8983,-1.0455,169
18,0.2194,0.5081,-0.7449,-0.6181,-0.5593,-1.3889,169
18,0.1877,0.5336,-0.6551,-0.0915,-0.181,-1.9417,169
18,0.1785,0.5571,-0.5367,0.194,0.1667,-2.4934,169
18,-1.0724,0.3357,-0.5948,0.4992,-0.6007,-2.6003,169
18,-0.3041,1.0153,-0.4745,0.4992,-0.6007,-2.6003,169
18,-0.3041,1.0153,-0.4745,0.5582,-2.3746,-2.2786,169
18,0.6908,0.7061,-0.049,-0.4382,-2.3048,-2.7136,169
18,0.1744,0.0581,-1.0643,-0.1297,-1.2308,-2.4225,169
18,-0.8785,0.5245,-0.2224,0.363,-1.1207,-1.9646,169
18,-0.5591,0.7408,-0.8704,0.169,-1.7281,-2.2852,169
18,-0.1102,0.6469,-0.4255,-0.4361,-1.7117,-2.4324,169
18,-0.4102,0.2377,-0.7867,-0.5429,-1.6016,-2.3712,169
18,-0.2806,0.3418,-0.5714,-0.2495,-1.5601,-2.2569,169
18,-0.7112,0.355,-0.5786,-0.2344,-1.45,-2.3495,169
18,-0.5122,0.403,-0.3326,-0.2344,-1.45,-2.3495,169
18,-0.3622,0.2592,-0.3541,-0.4065,-1.6572,-2.3201,169
18,-0.3622,0.2592,-0.3541,-0.6257,-1.6135,-2.2764,169
18,-0.4357,0.1724,-0.4316,-0.5974,-1.3878,-2.2067,169
18,-0.5204,0.1949,-0.4173,-0.4208,-1.2451,-2.1358,169
18,-0.549,0.2826,-0.2867,-0.4229,-1.185,-2.0845,169
18,-0.4836,0.2142,-0.3234,-0.5484,-1.1196,-2.0268,169
18,-0.5143,0.1469,-0.3979,-0.5221,-0.9376,-1.9658,169
18,-0.551,0.1785,-0.3765,-0.3575,-0.8187,-1.909,169
18,-0.5377,0.3214,-0.3408,-0.3575,-0.8187,-1.909,169
18,-0.5132,0.2765,-0.3857,-0.35,-0.7533,-1.8763,169
18,-0.5061,0.1857,-0.4918,-0.5408,-0.7217,-1.8479,169
18,-0.5061,0.1857,-0.4918,-0.6159,-0.6715,-1.8229,169
18,-0.5541,0.2949,-0.5887,-0.4633,-0.6159,-1.7945,169
18,-0.6234,0.454,-0.5469,-0.3434,-0.581,-1.7771,169
18,-0.6694,0.5347,-0.5153,-0.4731,-0.5931,-1.8088,169
18,-0.6765,0.5377,-0.4949,-0.6966,-0.628,-1.8065,169
18,-0.7133,0.5745,-0.4449,-0.8819,-0.6432,-1.739,169
18,-0.7836,0.553,-0.4183,-1.0891,-0.5865,-1.6877,169
18,-0.8387,0.5051,-0.3714,-1.3039,-0.5635,-1.6375,169
18,-0.8387,0.5051,-0.3714,-1.3039,-0.5635,-1.6375,169
18,-0.8612,0.3286,-0.2418,-1.4685,-0.569,-1.5928,169
18,-0.8612,0.3286,-0.2418,-1.5776,-0.5244,-1.5427,169
18,-0.9275,0.3316,-0.3224,-1.6135,-0.4404,-1.4849,169
18,-0.9092,0.3765,-0.2142,-1.6921,-0.3739,-1.437,169
18,-0.9337,0.3867,-0.1326,-1.8317,-0.339,-1.3868,169
18,-0.8704,0.401,-0.0673,-1.9526,-0.3357,-1.3268,169
18,-0.8489,0.402,-0.0193,-2.0692,-0.2714,-1.2636,169
18,-0.8408,0.3724,0.0459,-2.2056,-0.1831,-1.185,169
18,-0.8846,0.2449,0.1449,-2.2056,-0.1831,-1.185,169
18,-0.8846,0.2449,0.1449,-2.2557,-0.1537,-1.0848,169
18,-0.8949,0.1673,0.1908,-2.2056,-0.1438,-0.978,169
18,-0.8643,0.0786,0.2704,-2.0028,-0.0992,-0.8471,169
18,-0.9704,0.0591,0.3928,-1.668,-0.0751,-0.7064,169
18,-0.7969,0.2255,0.6102,-1.4609,-0.1123,-0.5494,169
18,-1.0224,-0.101,0.5051,-1.4347,0.0784,-0.5331,169
18,-0.7949,-0.2643,0.3193,-0.6694,0.0534,-0.3717,169
18,-0.9745,0.3234,0.5591,0.0021,0.2256,-0.3586,169
18,-0.951,0.3143,0.4561,0.0087,0.182,-0.4458,169
18,-0.8561,0.201,0.3479,0.0087,0.182,-0.4458,169
18,-0.855,0.1449,0.2592,0.073,0.1112,-0.4382,169
18,-0.855,0.1449,0.2592,0.4164,0.1503,-0.4219,169
18,-0.9092,0.2795,0.252,0.6682,0.1329,-0.4055,169
18,-0.9673,0.2592,0.1908,0.6694,0.0555,-0.399,169
18,-0.9601,0.203,0.1265,0.6672,-0.1221,-0.375,169
18,-0.8602,0.2245,0.0836,0.7359,-0.2518,-0.3466,169
18,-0.8765,0.2928,0.0796,0.7882,-0.3096,-0.3107,169
18,-0.9,0.3336,0.0989,0.7554,-0.4197,-0.2627,169
18,-0.8306,0.2612,0.1255,0.6203,-0.5528,-0.1995,169
18,-0.7592,0.1377,0.1173,0.6203,-0.5528,-0.1995,169
18,-0.7786,0.2459,0.0857,0.6465,-0.5745,-0.1123,169
18,-0.7786,0.2459,0.0857,0.8166,-0.5952,0.0011,169
18,-0.7479,0.4836,0.1735,0.9441,-0.5582,0.0828,169
19,-1.0061,0.502,0.0918,0.9288,-0.3979,0.1232,169
19,-1.1969,0.4347,0.0591,1.003,-0.2823,0.3151,169
19,-1.3489,0.2173,0.0214,1.0095,-0.1329,0.4807,169
19,-1.451,-0.1112,-0.1316,1.0826,-0.0446,0.6508,169
19,-1.2265,-0.0143,-0.2428,1.3922,0.012,0.8601,169
19,-1.0122,0.3112,-0.2326,1.3922,0.012,0.8601,169
19,-0.8877,0.553,-0.1744,1.631,0.1591,0.9605,169
19,-0.7949,0.5143,-0.3091,1.354,0.3729,1.0379,169
19,-0.7949,0.5143,-0.3091,0.9092,0.5877,1.0837,169
19,-0.7428,0.6398,-0.3632,0.6923,0.7664,1.2331,169
19,-0.6255,0.254,-0.5357,0.5167,0.8918,1.2363,169
19,-0.8122,0.6887,-0.8643,0.314,0.9267,1.2167,169
19,-0.8582,0.3418,-0.6408,-0.1678,0.726,1.1579,169
19,-0.401,0.2602,-0.6245,-0.2682,0.5418,1.1633,169
19,-0.6744,0.3816,-0.5081,-0.0621,0.8155,1.1218,169
19,-0.7551,0.4214,-0.4622,-0.0414,0.7664,0.9769,169
19,-0.7551,0.4214,-0.4622,-0.0414,0.7664,0.9769,169
19,-0.6765,0.5693,-0.3714,-0.2071,0.6301,0.8973,169
19,-0.5459,0.4337,-0.3,-0.4982,0.5931,0.8176,169
19,-0.5775,0.2663,-0.4847,-0.4589,0.701,0.7708,169
19,-0.5745,0.3837,-0.2704,-0.2529,0.7621,0.7348,169
19,-0.5561,0.3704,-0.2397,-0.3085,0.7838,0.6934,169
19,-0.5612,0.2755,-0.2112,-0.4382,0.8319,0.6749,169
19,-0.5286,0.2928,-0.152,-0.2224,1.0063,0.7163,169
19,-0.5652,0.2979,-0.1418,-0.2093,1.1131,0.7348,169
19,-0.5847,0.3051,-0.15,-0.1766,1.184,0.7871,169
19,-0.704,0.3448,-0.1796,-0.1558,1.2625,0.8439,169
19,-0.7388,0.3377,-0.1928,-0.1657,1.2897,0.9114,169
19,-0.7643,0.3286,-0.2285,-0.1657,1.2897,0.9114,169
19,-0.8184,0.3204,-0.2428,-0.1896,1.2952,0.9954,169
19,-0.8184,0.3204,-0.2428,-0.2289,1.2625,1.0935,169
19,-0.8173,0.2857,-0.2561,-0.2888,1.1915,1.2003,169
19,-0.8132,0.2898,-0.2449,-0.3325,1.124,1.3115,169
19,-0.7877,0.2786,-0.252,-0.3663,1.0629,1.4292,169
19,-0.7775,0.2826,-0.2438,-0.3641,1.0171,1.5351,169
19,-0.6847,0.2683,-0.2,-0.3586,0.9702,1.6375,169
19,-0.6663,0.251,-0.2051,-0.3445,0.966,1.7357,169
19,-0.6275,0.251,-0.1928,-0.3445,0.966,1.7357,169
19,-0.6275,0.251,-0.1928,-0.2758,0.9746,1.8305,169
19,-0.5734,0.3071,-0.1877,-0.2016,1.016,1.9242,169
19,-0.5867,0.3143,-0.2081,-0.1744,1.0761,2.0192,169
19,-0.5847,0.3041,-0.2285,-0.1635,1.1077,2.1184,169
19,-0.5877,0.3152,-0.2397,-0.1297,1.1316,2.2142,169
19,-0.5989,0.3826,-0.3081,-0.0992,1.1392,2.3157,169
19,-0.6387,0.4316,-0.3265,-0.1047,1.1535,2.4029,169
19,-0.6703,0.452,-0.3591,-0.1602,1.1272,2.4847,169
19,-0.6837,0.5418,-0.4081,-0.1896,1.0575,2.561,169
19,-0.6541,0.6143,-0.4235,-0.1896,1.0575,2.561,169
19,-0.6541,0.6143,-0.4235,-0.1864,1.003,2.5948,169
19,-0.6346,0.6969,-0.4224,-0.1526,0.9931,2.5784,169
19,-0.5877,0.7581,-0.4367,-0.0872,0.9812,2.5217,169
19,-0.4796,0.8734,-0.4601,0.0043,0.9812,2.4629,169
19,-0.4408,0.9367,-0.4877,0.0925,1.0095,2.429,169
19,-0.4571,1.0561,-0.499,0.2125,1.0226,2.4301,169
19,-0.451,1.1724,-0.5459,0.3314,0.9997,2.3353,169
19,-0.4071,1.3336,-0.6337,0.4862,0.9681,2.1478,169
19,-0.3428,1.4122,-0.6683,0.7054,0.9387,1.9406,169
19,-0.3112,1.4969,-0.7112,0.7054,0.9387,1.9406,169
19,-0.2101,1.5561,-0.6744,0.8819,0.9431,1.7619,169
19,-0.2101,1.5561,-0.6744,0.8601,0.9103,1.6659,169
19,-0.2194,1.4847,-0.5816,0.6028,0.8504,1.6583,169
19,-0.2112,1.2908,-0.6847,0.2562,0.7795,1.5732,169
19,-0.1612,1.152,-0.8704,0.1962,0.5865,1.4828,169
19,-0.0245,1.1653,-0.8091,0.338,0.4109,1.2668,169
19,-0.0193,1.2367,-0.7775,0.5593,0.3422,0.8874,169
19,0.0459,1.2561,-0.7459,0.6454,0.255,0.5102,169
19,-0.1061,1.101,-0.4847,0.6454,0.255,0.5102,169
19,-0.0255,1.0643,0.0693,0.4786,0.2234,0.3073,169
19,-0.249,0.7979,-0.5571,0.1547,0.2464,0.2747,169
19,-0.249,0.7979,-0.5571,-0.3609,0.2039,0.2966,169
19,-0.0071,0.6703,-0.6398,-0.496,-0.0174,0.4807,169
19,0.0173,1.102,-0.9888,0.3422,-0.2136,0.6291,169
19,-0.2928,1.5163,-1.1806,1.4936,-0.0698,0.4851,169
19,-0.3959,1.6928,-1.4142,1.813,-0.0872,0.0511,169
19,-0.4071,1.7357,-1.4999,1.8185,-0.4643,-0.2507,169
19,0.0459,1.6826,-1.1877,1.8076,-0.6846,-0.4546,169
19,-0.0775,1.7408,-0.9663,1.8076,-0.6846,-0.4546,169
19,-0.0081,1.7653,-0.8132,1.5972,-0.6988,-0.569,169
19,0.2204,1.2653,-0.9745,0.8939,-0.9223,-0.7337,169
19,0.2204,1.2653,-0.9745,-0.0032,-1.1644,-0.822,169
19,0.249,1.0143,-0.9745,-0.4797,-1.3388,-0.6705,169
19,0.2592,0.8673,-0.9592,-0.5124,-1.4315,-0.5059,169
19,0.1337,0.7949,-0.8152,-0.4252,-1.4881,-0.6072,169
19,0.0265,0.7347,-0.7531,-0.2737,-1.7476,-0.9234,169
19,0.2081,0.7592,-0.6224,-0.0457,-1.945,-1.1938,169
19,0.1367,0.7734,-0.553,0.1646,-1.8567,-1.3258,169
19,0.0816,0.9203,-0.303,0.0545,-1.9297,-1.4576,169
19,0.0816,0.9203,-0.303,0.0545,-1.9297,-1.4576,169
19,0.0836,0.8152,-0.4051,-0.2474,-2.0028,-1.5831,169
19,0.1439,0.6245,-0.4244,-0.4578,-1.9908,-1.6942,169
19,0.0898,0.501,-0.454,-0.3073,-1.9275,-1.7029,169
19,0.0,0.5306,-0.3694,-0.0872,-1.8916,-1.7432,169
19,-0.0153,0.5255,-0.3439,0.0206,-1.8502,-1.8502,169
19,-0.0255,0.5347,-0.3286,0.085,-1.7859,-1.8773,169
19,-0.101,0.5265,-0.3724,0.1253,-1.6768,-1.8731,169
19,-0.2275,0.5316,-0.353,0.1471,-1.5732,-1.8741,169
19,-0.2826,0.5541,-0.3816,0.1274,-1.4707,-1.8927,169
19,-0.3286,0.5969,-0.3826,0.1274,-1.4707,-1.8927,169
19,-0.3286,0.5969,-0.3826,0.0555,-1.3508,-1.9036,169
19,-0.3939,0.6928,-0.4601,-0.0294,-1.2188,-1.9341,169
19,-0.45,0.7,-0.5092,-0.0795,-1.04,-1.9984,169
19,-0.4826,0.6857,-0.4592,-0.1657,-0.9463,-1.9984,169
19,-0.452,0.6959,-0.3796,-0.2617,-0.8449,-1.8773,169
19,-0.6091,0.5928,-0.4734,-0.4164,-0.6171,-1.8382,169
19,-0.5295,0.6255,-0.3367,-0.4437,-0.569,-1.7323,169
19,-0.5591,0.7571,-0.4561,-0.5221,-0.5276,-1.6669,169
19,-0.605,0.7418,-0.4122,-0.5221,-0.5276,-1.6669,169
19,-0.5714,0.6806,-0.3979,-0.8329,-0.4034,-1.6474,169
19,-0.5714,0.6806,-0.3979,-1.0608,-0.3532,-1.6016,169
19,-0.5734,0.6551,-0.4,-1.1818,-0.3565,-1.5841,169
20,-0.5602,0.6469,-0.3653,-1.2668,-0.351,-1.5656,169
20,-0.6143,0.6245,-0.2918,-1.3311,-0.3368,-1.5579,169
20,-0.5541,0.6316,-0.1194,-1.4292,-0.3586,-1.5547,169
20,-0.6398,0.5724,-0.2459,-1.5438,-0.3314,-1.5372,169
20,-0.6867,0.4663,-0.1091,-1.5994,-0.3205,-1.5034,169
20,-0.7122,0.4132,-0.1367,-1.5743,-0.3575,-1.4576,169
20,-0.7449,0.4163,-0.0745,-1.5743,-0.3575,-1.4576,169
20,-0.7979,0.4377,-0.0061,-1.5133,-0.3946,-1.3912,169
20,-0.7979,0.4377,-0.0061,-1.4675,-0.4263,-1.3214,169
20,-0.9,0.4622,0.0347,-1.4141,-0.4601,-1.2451,169
20,-0.9367,0.4755,0.1143,-1.3235,-0.4786,-1.1611,169
20,-0.9765,0.4337,0.1877,-1.2974,-0.4906,-1.0575,169
20,-1.001,0.3152,0.2428,-1.2668,-0.5233,-0.9191,169
20,-0.9867,0.0081,0.2592,-1.0455,-0.5723,-0.6879,169
20,-0.9704,-0.0071,0.3785,-0.6814,-0.64,-0.3859,169
20,-0.954,0.1112,0.3683,-0.3914,-0.6835,-0.1493,169
20,-1.0898,-0.0551,0.2081,-0.3914,-0.6835,-0.1493,169
20,-1.0898,-0.0551,0.2081,-0.3325,-0.5757,-0.0272,169
20,-0.8163,0.0745,0.1622,0.1123,-0.6291,0.0435,169
20,-0.8275,0.4653,0.2133,0.6978,-0.6159,0.194,169
20,-0.9285,0.6367,0.2571,0.4971,-0.5745,0.2562,169
20,-0.7918,0.2326,-0.0541,0.3924,-0.6879,0.3281,169
20,-0.7745,0.2632,-0.0816,0.7861,-0.6411,0.4065,169
20,-0.7867,0.2918,-0.0898,1.0499,-0.5287,0.5255,169
20,-0.7388,0.2622,-0.105,1.0597,-0.5221,0.5963,169
20,-0.7,0.351,-0.204,1.2025,-0.4536,0.6682,169
20,-0.6928,0.4398,-0.2173,1.2581,-0.3161,0.7348,169
20,-0.749,0.4398,-0.3561,1.2581,-0.3161,0.7348,169
20,-0.7245,0.3275,-0.3826,1.2897,-0.193,0.8035,169
20,-0.6346,0.2051,-0.3102,1.3573,-0.0523,0.8722,169
20,-0.6346,0.2051,-0.3102,1.5154,0.1438,0.9408,169
20,-0.5612,0.2847,-0.3643,1.6277,0.4044,1.003,169
20,-0.5214,0.4337,-0.301,1.4261,0.6225,1.0303,169
20,-0.4173,0.451,-0.3918,1.1339,0.7174,1.0629,169
20,-0.3357,0.5286,-0.5602,0.9485,0.8994,1.0553,169
20,-0.4469,0.6245,-0.6847,0.8722,1.1011,1.0292,169
20,-0.4571,0.6469,-0.7367,0.7773,1.1676,0.9855,169
20,-0.3653,0.5652,-0.7112,0.6062,1.2079,0.9473,169
20,-0.4959,0.5724,-0.6928,0.6062,1.2079,0.9473,169
20,-0.3591,0.4581,-0.6489,0.363,1.2047,0.9528,169
20,-0.3591,0.4581,-0.6489,0.1068,1.1043,0.9528,169
20,-0.4163,0.449,-0.6377,-0.0795,1.1829,0.954,169
20,-0.4734,0.4551,-0.5581,-0.2453,1.2211,0.9387,169
20,-0.4785,0.5541,-0.5602,-0.4109,1.1425,0.9431,169
20,-0.4601,0.5612,-0.4979,-0.6106,1.0804,0.9551,169
20,-0.4826,0.5163,-0.4959,-0.7512,1.0957,0.9746,169
20,-0.5234,0.4622,-0.4612,-0.8056,1.0891,1.0051,169
20,-0.5193,0.3959,-0.3275,-0.7903,1.0292,1.0499,169
20,-0.5193,0.3959,-0.3275,-0.7903,1.0292,1.0499,169
20,-0.5132,0.3877,-0.3245,-0.7926,0.9997,1.1055,169
20,-0.5316,0.3745,-0.3286,-0.7478,0.9997,1.1927,169
20,-0.5449,0.3887,-0.2898,-0.6442,1.0183,1.2865,169
20,-0.6377,0.4908,-0.2428,-0.5604,1.028,1.3998,169
20,-0.7,0.5204,-0.2397,-0.5418,1.0455,1.5122,169
20,-0.7561,0.5316,-0.2428,-0.545,1.0183,1.6364,169
20,-0.7653,0.4847,-0.1469,-0.5528,0.9986,1.7607,169
20,-0.8408,0.4337,-0.2316,-0.5604,1.027,1.8666,169
20,-0.7683,0.3622,-0.1857,-0.5604,1.027,1.8666,169
20,-0.7214,0.3184,-0.2418,-0.5364,0.9921,1.9624,169
20,-0.7214,0.3184,-0.2418,-0.3663,0.9801,2.0541,169
20,-0.5612,0.4663,-0.152,-0.2191,0.9931,2.1467,169
20,-0.5071,0.4969,-0.2204,-0.1907,1.0118,2.2306,169
20,-0.4244,0.5367,-0.1867,-0.1329,1.0618,2.3124,169
20,-0.3857,0.7275,-0.2663,-0.0643,1.1142,2.3637,169
20,-0.3398,0.7734,-0.3091,-0.0414,1.1436,2.3712,169
20,-0.3745,0.8204,-0.3694,0.0174,1.1982,2.3429,169
20,-0.3408,0.8591,-0.3347,0.0784,1.2123,2.2949,169
20,-0.3071,0.9612,-0.3918,0.0784,1.2123,2.2949,169
20,-0.3041,1.0224,-0.3806,0.1406,1.2287,2.2546,169
20,-0.3041,1.0224,-0.3806,0.1526,1.2472,2.2045,169
20,-0.3071,1.0775,-0.4408,0.1297,1.2493,2.1358,169
20,-0.2836,1.2142,-0.5326,0.1428,1.2134,2.0311,169
20,-0.252,1.2898,-0.55,0.2321,1.173,1.8752,169
20,-0.2275,1.3347,-0.5806,0.3281,1.1415,1.7041,169
20,-0.201,1.3959,-0.5673,0.3586,1.0772,1.5753,169
20,-0.1377,1.5377,-0.5765,0.3445,0.9746,1.4816,169
20,-0.1112,1.5898,-0.5948,0.3445,0.9746,1.4816,169
20,-0.1112,1.5898,-0.5948,0.2474,0.8819,1.3998,169
20,-0.1,1.4857,-0.6469,0.1362,0.7947,1.2952,169
20,-0.1,1.4857,-0.6469,0.0992,0.6759,1.1207,169
20,0.0398,1.3102,-0.703,0.1547,0.5004,0.9431,169
20,0.1224,1.2479,-0.6418,0.2125,0.338,0.797,169
20,0.201,1.1612,-0.5459,0.2005,0.2495,0.6814,169
20,0.2561,0.9673,-0.3255,0.1274,0.2268,0.6072,169
20,0.3143,0.8357,-0.25,-0.0446,0.2485,0.5461,169
20,0.1561,0.7163,-0.2531,-0.1253,0.3073,0.545,169
20,0.0877,0.6612,-0.1796,-0.0282,0.2779,0.5091,169
20,0.0347,0.9694,-0.7612,-0.0282,0.2779,0.5091,169
20,0.0347,0.9694,-0.7612,0.2659,0.1089,0.3935,169
20,0.0143,1.403,-0.7806,0.8252,-0.1079,0.1591,169
20,-0.0571,1.8887,-1.1071,1.5732,-0.1831,-0.4143,169
20,0.204,1.7265,-1.4163,1.9275,-0.4916,-0.7686,169
20,0.4969,1.7908,-0.9071,1.9973,-0.8307,-0.6106,169
20,0.4122,1.7306,-0.8806,1.5831,-0.6825,-0.4448,169
20,0.2479,1.701,-0.9081,0.8395,-0.7217,-0.3979,169
20,0.4173,1.4255,-0.9969,0.0282,-0.7947,-0.5963,169
20,0.3765,1.1551,-0.9704,-0.1972,-0.846,-0.8144,169
20,0.4142,1.2388,-0.8163,-0.1972,-0.846,-0.8144,169
20,0.4142,1.2388,-0.8163,-0.1167,-0.883,-0.942,169
20,0.3694,1.1744,-0.6479,-0.2159,-0.7043,-1.1796,169
20,0.0755,0.7836,-0.4551,-0.2932,-0.6901,-1.2625,169
20,-0.0214,0.6847,-0.6449,-0.2027,-1.0935,-1.2952,169
20,0.2724,0.6163,-0.5877,-0.1428,-1.4969,-1.3704,169
20,0.2826,0.551,-0.4836,-0.049,-1.3258,-1.4021,169
20,0.0214,0.5071,-0.5295,0.0818,-1.1098,-1.5143,169
20,0.0388,0.4949,-0.5847,0.3848,-1.2047,-1.7684,169
20,0.0755,0.6387,-0.6337,0.726,-1.2493,-2.0453,169
20,0.0388,0.8683,-0.499,0.726,-1.2493,-2.0453,169
20,0.0398,0.8673,-0.6153,0.7435,-1.2734,-2.284,169
20,0.0398,0.8673,-0.6153,0.6225,-1.2113,-2.3473,169
21,-0.0693,0.8918,-0.5541,0.4513,-1.1371,-2.2296,169
21,-0.1775,0.8357,-0.6183,0.1995,-1.1829,-2.1108,169
21,-0.2234,0.7857,-0.652,-0.0087,-1.2178,-2.0955,169
21,-0.2479,0.7622,-0.603,-0.0795,-1.172,-2.0921,169
21,-0.3061,0.7204,-0.6592,-0.0948,-1.0761,-2.1402,169
21,-0.4051,0.8398,-0.5377,-0.1396,-1.1055,-2.1478,169
