Timestamp,Ax,Ay,Az,Rx,Ry,Rz,EMG
0,0.1021,-0.7371,-0.6372,0.0089,0.2069,0.0041,2047
0,0.0986,-0.731,-0.6233,0.0688,0.1654,-0.0028,2051
0,0.0894,-0.75,-0.5908,0.0903,0.13,0.0309,2054
0,0.105,-0.762,-0.5618,0.0955,0.0923,0.015,2047
0,0.1035,-0.7754,-0.5596,0.1775,0.0398,0.0248,2055
0,0.0901,-0.7866,-0.5518,0.269,-0.0581,0.0266,2053
0,0.0842,-0.804,-0.5256,0.2641,-0.2164,0.0124,2051
0,0.0833,-0.8191,-0.5422,0.2607,-0.3015,-0.0071,2051
0,0.05,-0.842,-0.585,0.2767,-0.259,-0.0344,2050
0,0.0039,-0.8472,-0.5945,0.2482,-0.2324,-0.049,2058
0,-0.0085,-0.8335,-0.6091,0.3057,-0.157,-0.061,2043
0,0.0005,-0.8262,-0.6196,0.318,-0.0386,-0.082,2047
0,0.0298,-0.8259,-0.6221,0.2959,0.0469,-0.0649,2054
0,0.0488,-0.8303,-0.6318,0.3004,0.0896,-0.0587,2049
0,0.0688,-0.8694,-0.6218,0.2562,0.1136,-0.0545,2050
0,0.0544,-0.8984,-0.5828,0.1559,0.0899,-0.0514,2054
0,0.0466,-0.8909,-0.5806,0.0691,0.0699,-0.0482,2052
0,0.0388,-0.8564,-0.5549,0.0161,0.0313,-0.0477,2047
0,0.0117,-0.8333,-0.5359,-0.0437,0.0374,-0.0679,2050
0,-0.0056,-0.8313,-0.5444,-0.0627,0.0461,-0.0834,2045
0,-0.0073,-0.8538,-0.5728,-0.0431,0.0305,-0.1005,2051
0,0.0188,-0.8318,-0.5784,0.0003,0.0276,-0.0411,2053
0,0.0227,-0.8755,-0.5537,0.0093,0.0265,-0.0727,2053
0,0.0283,-0.8755,-0.5581,-0.0368,0.0193,-0.0941,2051
0,0.0396,-0.8408,-0.5547,-0.0374,0.0486,-0.0613,2050
0,0.0525,-0.8267,-0.5796,-0.035,0.0382,-0.0453,2050
0,0.0632,-0.8088,-0.5996,-0.0353,0.0065,-0.0196,2050
0,0.0728,-0.7903,-0.6152,0.0075,0.0001,0.0089,2049
0,0.0752,-0.8025,-0.6155,0.0498,-0.0032,0.0165,2045
0,0.0789,-0.804,-0.6091,0.0557,-0.0364,0.032,2048
0,0.0901,-0.8135,-0.5886,0.0581,-0.0707,0.0192,2056
0,0.0742,-0.8235,-0.5845,0.0451,-0.0718,0.0036,2045
0,0.0769,-0.8142,-0.563,0.0293,-0.0598,-0.0093,2051
0,0.0732,-0.8174,-0.5735,0.016,-0.0454,-0.0272,2053
0,0.0667,-0.8218,-0.5815,0.0253,-0.0368,-0.0174,2051
0,0.0681,-0.8188,-0.5886,0.0253,-0.0277,0.0051,2049
0,0.0681,-0.8135,-0.5957,0.0324,-0.0273,0.0115,2051
0,0.0691,-0.8105,-0.6057,0.0684,-0.0149,0.0073,2048
0,0.0701,-0.8181,-0.5828,0.0787,-0.032,0.0156,2044
0,0.0769,-0.8215,-0.5322,0.0481,-0.1007,0.0348,2054
0,0.05,-0.804,-0.5386,-0.0035,-0.13,0.0698,2048
0,0.0471,-0.8113,-0.5872,-0.02,-0.0802,0.0843,2049
0,0.0283,-0.8101,-0.5808,-0.0336,-0.1551,0.0985,2052
0,0.0159,-0.802,-0.5693,-0.0663,-0.2573,0.1305,2050
0,0.0359,-0.8049,-0.5977,-0.0555,-0.3068,0.1774,2061
0,0.0322,-0.793,-0.6704,-0.0036,-0.2219,0.2068,2055
0,0.0059,-0.7961,-0.6509,0.0366,-0.195,0.1894,2049
0,-0.0251,-0.8164,-0.6021,0.065,-0.1594,0.1353,2041
0,-0.0522,-0.8496,-0.5471,-0.0206,-0.0952,0.0947,2046
0,-0.0879,-0.8801,-0.5374,-0.0438,-0.0866,0.0127,2047
0,-0.0415,-0.8962,-0.5625,-0.051,-0.081,-0.0543,2046
0,0.0867,-0.8945,-0.5542,-0.1551,-0.1972,-0.027,2048
0,0.1531,-0.8535,-0.5752,-0.1754,-0.3402,0.0507,2057
0,0.0959,-0.8225,-0.5972,-0.1989,-0.5303,0.0999,2065
0,0.0122,-0.8027,-0.5505,-0.1381,-0.7031,0.1418,2027
0,-0.0195,-0.8254,-0.5474,-0.2286,-0.6942,0.2304,2052
0,-0.0679,-0.8113,-0.5908,-0.183,-0.6484,0.3141,2000
0,-0.085,-0.8157,-0.6147,-0.0981,-0.5285,0.2762,2047
0,-0.0784,-0.8118,-0.5669,-0.135,-0.4883,0.1593,2062
0,-0.0347,-0.7808,-0.5815,-0.0992,-0.4655,0.0631,2081
0,0.0217,-0.7292,-0.5886,-0.0117,-0.502,0.0451,2031
0,0.0374,-0.7422,-0.571,0.0973,-0.5432,0.0406,2045
0,0.0254,-0.7949,-0.5552,0.136,-0.5324,0.0634,2047
0,-0.0044,-0.8308,-0.5793,0.1637,-0.4982,0.1341,2058
0,-0.05,-0.8379,-0.5762,0.2195,-0.4232,0.1892,2024
0,-0.0837,-0.8125,-0.5706,0.2884,-0.3088,0.2043,2048
0,-0.0508,-0.7839,-0.5881,0.3386,-0.238,0.2017,2058
0,-0.0327,-0.7708,-0.5769,0.3611,-0.216,0.2441,2056
0,-0.0327,-0.793,-0.5964,0.3581,-0.2167,0.3035,2065
0,-0.0527,-0.8057,-0.5842,0.3185,-0.2557,0.334,2059
0,-0.0774,-0.7991,-0.5757,0.3016,-0.2586,0.3466,2063
0,-0.0916,-0.8184,-0.5542,0.228,-0.2269,0.298,2042
0,-0.1016,-0.8901,-0.5828,0.1365,-0.1615,0.2699,2040
0,-0.113,-1.0186,-0.6326,-0.0196,-0.0883,0.2566,2070
0,-0.1111,-0.8308,-0.5491,0.2456,-0.1712,0.3039,2046
0,0.0002,-0.7627,-0.5132,0.1573,-0.1884,0.1754,2072
0,0.095,-0.8486,-0.5549,0.1776,-0.2713,-0.0056,2051
0,0.0969,-0.9314,-0.5669,0.1441,-0.4362,-0.0633,2054
0,0.0745,-0.8796,-0.501,0.1947,-0.5916,-0.0089,2049
0,0.0447,-0.8794,-0.5063,0.116,-0.6906,0.0008,2044
0,-0.0161,-0.8857,-0.4968,0.0822,-0.7689,0.0297,2053
0,-0.0654,-0.8928,-0.4717,0.1495,-0.6233,-0.0051,2046
0,-0.0769,-0.8777,-0.4956,0.0495,-0.3697,-0.0364,2053
0,-0.0737,-0.8179,-0.553,0.0562,-0.1798,-0.0858,2057
0,-0.0657,-0.7859,-0.5801,0.0598,-0.0309,-0.041,2050
0,-0.0837,-0.8091,-0.5603,0.0614,0.1687,0.0115,2057
0,-0.074,-0.8162,-0.5659,0.1037,0.3693,0.0185,2055
0,-0.0398,-0.8147,-0.5474,0.1814,0.4659,0.0469,2054
0,0.0061,-0.8621,-0.541,0.2155,0.3926,-0.0389,2050
0,0.0427,-0.8867,-0.5376,0.1983,0.2678,-0.0774,2044
0,0.0149,-0.9136,-0.5569,0.1229,0.1265,-0.0969,2052
0,-0.0322,-0.8755,-0.5652,0.1148,0.0285,-0.0868,2052
0,-0.0791,-0.8367,-0.5623,0.1045,0.031,-0.0907,2050
0,-0.1338,-0.8069,-0.5486,0.0949,0.091,-0.0832,2056
0,-0.1638,-0.7959,-0.5439,0.088,0.1995,-0.0589,2052
0,-0.1753,-0.7998,-0.5481,0.0975,0.345,-0.068,2050
0,-0.1541,-0.8188,-0.543,0.1321,0.4657,-0.0706,2049
0,-0.1436,-0.8257,-0.5071,0.1751,0.5895,-0.0784,2052
0,-0.1086,-0.8206,-0.489,0.2297,0.66,-0.0854,2051
0,-0.0669,-0.8394,-0.4902,0.2382,0.6553,-0.1129,2049
0,-0.0286,-0.8525,-0.499,0.2381,0.6044,-0.1153,2046
0,-0.0125,-0.8638,-0.5076,0.2695,0.5164,-0.1478,2047
0,0.0237,-0.8699,-0.4888,0.2514,0.4072,-0.1655,2059
1,0.0154,-0.8545,-0.4944,0.2602,0.297,-0.1759,2052
1,0.0056,-0.8616,-0.4927,0.2816,0.1864,-0.1831,2050
1,0.0029,-0.843,-0.4927,0.2891,0.1738,-0.1962,2049
1,0.0017,-0.8391,-0.4802,0.3215,0.1446,-0.1862,2048
1,-0.0222,-0.8494,-0.4792,0.3613,0.1397,-0.1501,2051
1,-0.0527,-0.8884,-0.4565,0.3617,0.1679,-0.1216,2054
1,-0.0544,-0.9158,-0.429,0.3699,0.1626,-0.0597,2049
1,-0.0344,-0.8899,-0.4141,0.3874,0.0774,0.0253,2048
1,-0.0137,-0.8965,-0.4785,0.3069,0.1975,-0.0049,2051
1,-0.0229,-0.9163,-0.51,0.2204,0.1947,-0.022,2050
1,-0.0322,-0.937,-0.5024,0.2004,0.1541,-0.0116,2050
1,-0.0344,-0.9236,-0.4717,0.1959,0.1485,-0.0087,2054
1,-0.0457,-0.9104,-0.437,0.1609,0.1338,0.0276,2044
1,-0.0698,-0.9136,-0.4102,0.1005,0.1372,0.0369,2051
1,-0.0911,-0.8965,-0.4287,0.0967,0.1828,0.0378,2053
1,-0.1099,-0.8948,-0.4114,0.1346,0.2168,0.0214,2053
1,-0.0947,-0.8882,-0.405,0.1811,0.2484,0.0133,2056
1,-0.0759,-0.8711,-0.3862,0.2503,0.2593,0.0145,2042
1,-0.0669,-0.8569,-0.3848,0.3276,0.2458,0.0146,2048
1,-0.0452,-0.8599,-0.3794,0.4191,0.1826,0.0069,2052
1,-0.0327,-0.8877,-0.3855,0.4496,0.1538,-0.0238,2050
1,-0.0232,-0.9006,-0.4204,0.4364,0.1057,-0.0634,2049
1,-0.0132,-0.9028,-0.4143,0.4625,0.0254,-0.0883,2052
1,0.0034,-0.8733,-0.3801,0.5405,-0.0258,-0.0931,2048
1,0.0005,-0.884,-0.3572,0.6104,-0.0643,-0.0675,2052
1,-0.0195,-0.8618,-0.313,0.6568,-0.0975,0.0073,2054
1,-0.0378,-0.8494,-0.2959,0.7087,-0.1218,0.0899,2052
1,-0.0793,-0.8445,-0.2874,0.783,-0.0742,0.1454,2047
1,-0.1021,-0.8521,-0.2915,0.8188,0.0356,0.236,2052
1,-0.1162,-0.8533,-0.2866,0.9086,0.1237,0.292,2045
1,-0.1196,-0.8723,-0.2991,1.0111,0.2462,0.3322,2053
1,-0.1106,-0.8943,-0.2927,1.0937,0.3884,0.3866,2052
1,-0.0999,-0.9092,-0.2949,1.1623,0.5252,0.4155,2051
1,-0.0972,-0.9219,-0.2881,1.227,0.6473,0.4486,2046
1,-0.0747,-0.9531,-0.2876,1.2591,0.7508,0.4735,2051
1,-0.0503,-0.9834,-0.2827,1.2684,0.8305,0.4741,2048
1,-0.0286,-0.989,-0.2905,1.2866,0.8706,0.469,2051
1,-0.0195,-1.0266,-0.2876,1.2633,0.8645,0.4352,2055
1,0.0063,-1.0371,-0.2888,1.2149,0.8367,0.3816,2052
1,0.0293,-1.0393,-0.2683,1.1741,0.7657,0.3278,2049
1,0.0513,-1.0225,-0.2639,1.0979,0.6687,0.2593,2050
1,0.0701,-1.03,-0.2646,1.0408,0.5159,0.1896,2055
1,0.0715,-1.0334,-0.2568,0.9812,0.3701,0.1198,2054
1,0.0825,-1.0293,-0.2668,0.9819,0.2575,0.0602,2046
1,0.0747,-1.0208,-0.2693,1.0087,0.1683,0.0048,2048
1,0.054,-1.0012,-0.2651,1.0135,0.0914,-0.0376,2046
1,0.0359,-0.9841,-0.2515,1.0463,0.0692,-0.0449,2051
1,0.0132,-0.9766,-0.2319,1.0898,0.0674,-0.0308,2049
1,-0.0303,-0.9646,-0.1965,1.1278,0.1084,-0.0056,2049
1,-0.0479,-0.9458,-0.1851,1.1748,0.1614,0.0288,2051
1,-0.0757,-0.9617,-0.1714,1.1982,0.2081,0.0574,2049
1,-0.0667,-0.9697,-0.1619,1.2339,0.2863,0.0614,2052
1,-0.0715,-0.9812,-0.1453,1.2509,0.3569,0.0806,2049
1,-0.075,-1.0037,-0.1345,1.2467,0.3999,0.0824,2049
1,-0.0757,-1.0283,-0.116,1.2306,0.4516,0.0818,2050
1,-0.0671,-1.0339,-0.1174,1.2107,0.4477,0.0776,2053
1,-0.0693,-1.0422,-0.1125,1.1943,0.4233,0.0775,2052
1,-0.0637,-1.0566,-0.0986,1.1544,0.396,0.081,2050
1,-0.0681,-1.0674,-0.0823,1.1155,0.3747,0.0683,2047
1,-0.0623,-1.0684,-0.0791,1.0419,0.3277,0.0609,2055
1,-0.084,-1.0696,-0.0688,0.9701,0.3079,0.0317,2056
1,-0.0811,-1.0537,-0.0811,0.9025,0.2638,0.02,2051
1,-0.0745,-1.0605,-0.0752,0.8269,0.2092,-0.0056,2048
1,-0.071,-1.0544,-0.0803,0.7561,0.1719,-0.0174,2053
1,-0.0664,-1.0544,-0.0698,0.6737,0.1314,-0.038,2052
1,-0.0696,-1.0449,-0.0791,0.6157,0.0895,-0.0414,2053
1,-0.0623,-1.04,-0.0791,0.5441,0.067,-0.0542,2050
1,-0.0603,-1.0403,-0.0928,0.4753,0.0435,-0.0554,2055
1,-0.0605,-1.0261,-0.0989,0.4225,0.023,-0.0678,2048
1,-0.0481,-1.0322,-0.1069,0.3571,0.0105,-0.0726,2049
1,-0.0537,-1.0352,-0.1189,0.2998,-0.0023,-0.0758,2049
1,-0.0559,-1.0312,-0.1245,0.2404,-0.0061,-0.0795,2050
1,-0.0464,-1.0195,-0.1189,0.1939,0.0007,-0.0786,2051
1,-0.0496,-1.0247,-0.1296,0.1442,0.0079,-0.0766,2054
1,-0.0476,-1.0381,-0.1372,0.086,-0.0088,-0.0758,2045
1,-0.0625,-1.0466,-0.1277,-0.016,0.0077,-0.0671,2048
1,-0.0688,-1.0498,-0.1152,-0.1506,0.0676,-0.0216,2045
1,-0.074,-1.0498,-0.1233,-0.2666,0.2294,0.0684,2048
1,-0.1033,-1.0801,-0.155,-0.3304,0.4743,0.1589,2047
1,-0.1377,-1.1182,-0.1895,-0.3827,0.7545,0.2249,2052
1,-0.1768,-1.166,-0.2148,-0.3633,1.0523,0.3298,2040
1,-0.2185,-1.2146,-0.1912,-0.3967,1.4053,0.3185,2045
1,-0.1841,-1.2898,-0.1746,-0.5333,1.6567,0.322,2055
1,-0.2131,-1.3735,-0.1492,-0.7708,1.9671,0.3416,2075
1,-0.2439,-1.4075,-0.0964,-0.9336,2.527,0.4809,2047
1,-0.3369,-1.3879,-0.0574,-0.912,3.4206,0.6851,2061
1,-0.5259,-1.3484,0.0232,-0.8636,4.3634,0.8606,2054
1,-0.6074,-1.2683,0.0413,-0.7731,4.3634,0.8325,2051
1,-0.4788,-1.2327,0.0864,-0.7255,4.3634,0.4576,2059
1,-0.1382,-1.2859,0.2161,-0.9167,4.3634,-0.0651,2024
1,0.1594,-1.3433,0.3162,-1.2484,4.3634,-0.3518,2046
1,0.2542,-1.3406,0.2996,-1.5237,4.3634,-0.4213,2074
1,0.209,-1.3596,0.2864,-1.8218,4.3634,-0.6083,2047
1,0.1396,-1.2874,0.0654,-1.8306,4.3634,-1.0485,2049
1,0.2935,-1.1895,0.0376,-2.1724,3.5362,-1.205,2045
1,0.293,-1.1814,-0.0198,-2.018,2.6081,-1.4106,2048
1,0.2065,-1.1846,-0.1003,-1.9927,1.6129,-1.7029,2051
1,0.179,-1.1287,-0.1462,-1.8279,0.7315,-1.9275,2016
1,0.145,-1.1057,-0.1768,-1.6705,-0.069,-2.1873,2036
1,0.0811,-1.0793,-0.2058,-1.4912,-0.675,-2.3957,2087
2,0.061,-1.0718,-0.2615,-1.4063,-1.1319,-2.5669,2039
2,0.0354,-1.1182,-0.3027,-1.3279,-1.3388,-2.7109,2059
2,0.0728,-1.1047,-0.3699,-1.2146,-1.5169,-2.9321,2029
2,0.0525,-1.1133,-0.4612,-1.2878,-1.5948,-3.1084,2070
2,-0.0071,-1.0928,-0.512,-1.1957,-1.863,-3.3075,2051
2,-0.0251,-0.9683,-0.512,-0.954,-1.8965,-3.5612,2059
2,0.0254,-0.8638,-0.5413,-0.6731,-1.653,-3.7725,2052
2,0.1729,-0.7458,-0.6172,-0.2946,-1.4885,-3.8575,2051
2,0.3379,-0.7346,-0.5344,-0.0626,-1.3667,-3.9058,2058
2,0.4509,-0.7629,-0.4937,-0.0039,-1.4022,-3.8827,2054
2,0.5918,-0.7185,-0.4932,0.1906,-1.691,-3.895,2043
2,0.7007,-0.689,-0.3716,0.3027,-2.1525,-3.8936,2050
2,0.7261,-0.5808,-0.301,0.4264,-2.7002,-4.0145,2051
2,0.3872,-0.2729,-0.2151,1.1973,-2.8777,-4.2485,2055
2,0.4082,-0.3237,-0.1924,0.9802,-2.9227,-3.9353,2052
2,0.3418,-0.1626,-0.1331,1.1694,-2.6892,-3.8492,2043
2,0.2644,-0.0801,-0.1536,1.4419,-2.6071,-3.5643,2051
2,0.2905,-0.1436,-0.1406,2.0861,-3.0473,-3.5396,2037
2,0.3579,-0.3052,-0.1868,2.3783,-3.8691,-3.3054,2046
2,0.585,-0.3005,-0.2144,2.2489,-4.0676,-3.0368,2048
2,0.6045,-0.2195,-0.3359,2.0297,-4.0875,-3.0516,2044
2,0.8655,-0.1531,-0.3167,2.1839,-4.3635,-2.4713,2042
2,0.6792,-0.0994,-0.123,2.8179,-4.3635,-2.2393,2038
2,0.5796,0.0833,0.3142,3.5945,-4.3635,-1.5949,2046
2,0.5044,0.1174,0.5959,3.5173,-4.3635,-1.0906,2047
2,0.168,0.4944,0.76,3.8932,-4.3635,-0.2133,2048
2,-0.3369,0.7048,0.5735,4.3634,-4.3635,1.2523,2059
2,-1.0393,0.5627,0.2085,4.3634,-4.3635,2.6484,2064
2,-1.27,0.3916,-0.5327,4.3634,-4.3635,3.0618,2067
2,-1.1458,0.376,-1.1465,4.3634,-2.9289,3.4183,2039
2,-1.4189,-0.1206,-0.731,4.3634,0.4956,2.7456,2048
2,-0.7266,-1.0928,-0.1184,4.3634,2.4241,1.9202,2046
2,-0.6257,-1.5901,0.4209,4.3634,4.3634,1.3211,2063
2,-0.8169,-1.6682,0.1624,4.3634,4.3634,0.8313,2043
2,-0.3838,-2.0,-0.0427,4.3634,4.3634,0.2502,2101
2,-0.3484,-2.0,0.1208,4.3634,4.3634,0.6718,2062
2,-0.543,-2.0,0.0916,2.892,4.3634,1.3203,2051
2,-0.0356,-2.0,-0.21,2.5033,4.3634,1.8462,2078
2,0.019,-2.0,-0.1521,0.8353,4.3634,1.0577,2012
2,-0.011,-1.8418,-0.0432,-1.1842,4.3634,0.618,2028
2,-0.4963,-1.5334,0.376,-2.2905,4.3634,0.4464,2063
2,-1.0537,-1.3694,0.9402,-2.4615,1.8173,0.9838,2049
2,-1.1948,-1.1863,1.9587,-0.1446,-0.0438,0.7289,2042
2,-0.4072,-0.9463,1.9999,1.1043,0.6177,-0.6119,2041
2,0.4331,-1.1804,1.6174,0.5818,0.3338,-1.1686,2040
2,1.2292,-1.437,1.344,-0.2618,-0.6142,-2.4705,2050
2,1.9999,-1.7646,1.5483,-1.5546,-3.8416,-3.1379,2055
2,1.877,-1.136,1.1272,-2.491,-4.3635,-2.9799,2038
2,1.2,-0.6865,0.9155,-2.3282,-4.3635,-2.278,2066
2,0.5469,-0.4175,0.9021,-1.9447,-4.3635,-1.7795,2069
2,0.1367,-0.1848,0.8428,-1.5577,-4.3635,-1.3953,2045
2,-0.1177,0.1116,0.4456,-0.4926,-4.3635,-0.7809,2064
2,-0.231,0.5142,-0.1855,1.5643,-4.3635,-0.0321,2057
2,-0.1716,0.812,-0.7266,2.6995,-4.3635,1.0641,2034
2,-0.751,1.0911,-1.3787,3.7122,-4.3635,1.4507,2040
2,-2.0,0.522,-1.2241,4.2952,-4.3635,1.5479,2049
2,-2.0,-1.3313,-0.6973,4.3634,-4.361,1.9062,2078
2,-2.0,-2.0,-0.4812,4.3634,1.8452,0.1724,2048
2,0.1304,-2.0,0.6099,3.9281,4.3634,-1.6632,2062
2,0.6013,-1.6887,0.0591,2.9807,4.3634,-0.9232,2060
2,0.2776,-1.4543,-0.2068,3.1862,4.3634,-0.1918,2044
2,0.2778,-1.3855,0.0835,3.5318,4.3634,-0.3428,2037
2,0.2192,-1.3235,0.1648,2.469,4.3634,-0.1751,2047
2,0.0918,-1.0459,-0.0156,1.5122,4.3634,0.3814,2060
2,-0.1262,-1.1482,0.1106,-0.136,4.3634,0.752,2048
2,-0.0137,-1.2007,0.063,-1.093,4.3634,1.2339,2048
2,0.0625,-1.3101,0.0427,-1.6289,4.3634,1.427,2046
2,-0.0095,-1.0959,-0.0801,-2.5888,4.3634,1.2046,2038
2,-0.0164,-0.9832,0.0178,-2.8642,4.3634,1.1083,2050
2,-0.3101,-1.0076,-0.0583,-2.7305,4.3634,1.1039,2061
2,-1.1411,-1.1682,0.0698,-1.8049,4.3634,1.4229,2056
2,-1.6548,-1.4214,0.594,-0.2802,4.3634,1.7375,2054
2,-1.3711,-1.5266,1.3145,0.3512,4.3634,0.8071,2047
2,-0.0439,-1.0415,1.3364,0.7472,4.3634,0.4713,2046
2,0.4216,-0.8484,1.0115,0.3123,4.3634,0.3044,2043
2,0.5144,-0.6641,0.5227,0.1716,4.3634,0.0138,2047
2,0.8477,-0.8406,0.26,0.0638,3.8627,-0.0272,2047
2,0.8062,-0.8232,0.188,-0.3594,1.4693,-0.0786,2052
2,0.6509,-0.8545,0.2085,-0.8039,-0.6035,-0.1923,2053
2,0.3499,-0.8491,0.2354,-1.0734,-1.8448,-0.3561,2053
2,0.1472,-0.8477,0.3228,-1.1111,-2.5432,-0.5008,2053
2,-0.01,-0.8926,0.3237,-1.1139,-3.036,-0.5946,2052
2,-0.1399,-1.0093,0.292,-1.0926,-3.3373,-0.6199,2053
2,-0.2107,-1.1655,0.218,-1.1923,-3.4441,-0.6343,2048
2,-0.3086,-1.1797,0.1289,-1.3045,-3.1991,-0.6849,2054
2,-0.2971,-1.2634,0.031,-1.5765,-2.7999,-0.7726,2055
2,-0.2993,-1.2664,-0.0745,-1.6953,-2.296,-0.8204,2051
2,-0.2092,-1.1687,-0.1372,-1.6749,-1.816,-0.7763,2050
2,-0.1301,-1.0596,-0.1736,-1.6655,-1.4712,-0.6741,2051
2,-0.042,-1.0166,-0.1543,-1.6731,-1.1741,-0.738,2049
2,0.0073,-0.9932,-0.1331,-1.5282,-0.9794,-0.7759,2049
2,0.0073,-1.0112,-0.0906,-1.3936,-0.8533,-0.736,2047
2,-0.0071,-0.9897,-0.0916,-1.4573,-0.7291,-0.6164,2050
2,-0.0361,-0.9399,-0.105,-1.5298,-0.6573,-0.5232,2053
2,-0.0234,-0.9028,-0.1135,-1.5285,-0.5537,-0.5557,2050
2,0.0059,-0.8843,-0.1174,-1.4671,-0.5152,-0.5972,2057
2,-0.0237,-0.9199,-0.1387,-1.3994,-0.4148,-0.6295,2050
2,-0.0447,-1.0159,-0.1387,-1.4235,-0.3205,-0.6719,2048
2,-0.0801,-1.0293,-0.127,-1.4876,-0.2534,-0.5956,2051
2,-0.1143,-1.0432,-0.113,-1.6253,-0.1858,-0.5145,2050
2,-0.1804,-1.0334,-0.1355,-1.6347,-0.0297,-0.5436,2075
2,-0.1777,-1.0125,-0.1477,-1.4976,0.087,-0.6107,2052
2,-0.1382,-0.9854,-0.0862,-1.4107,0.1461,-0.6331,2046
3,-0.1084,-0.979,-0.0898,-1.392,0.1309,-0.6369,2052
3,-0.0627,-0.9822,-0.1101,-1.3525,0.0959,-0.6456,2061
3,-0.0229,-0.9958,-0.1299,-1.2854,0.0262,-0.6492,2047
3,-0.0039,-1.0205,-0.0986,-1.2429,-0.066,-0.6488,2044
3,-0.0142,-1.0422,-0.1001,-1.2948,-0.212,-0.6349,2046
3,-0.0125,-1.0735,-0.1135,-1.3905,-0.3593,-0.6388,2048
3,-0.0012,-1.0706,-0.1582,-1.439,-0.5424,-0.6588,2057
3,0.0518,-1.0403,-0.1536,-1.4026,-0.6865,-0.6625,2049
3,0.0396,-1.0217,-0.1597,-1.3386,-0.7557,-0.6681,2046
3,-0.0405,-1.0142,-0.1558,-1.3451,-0.6871,-0.6126,2047
3,-0.1233,-1.0232,-0.1641,-1.273,-0.5183,-0.4999,2050
3,-0.1826,-1.0381,-0.1145,-1.1507,-0.3884,-0.3396,2051
3,-0.1838,-1.0017,-0.0818,-0.989,-0.3229,-0.0844,2043
3,-0.1912,-1.022,-0.0635,-0.8288,-0.1872,0.1081,2055
3,-0.1885,-1.0818,-0.0933,-0.872,-0.0526,0.1619,2049
3,-0.1472,-1.1509,-0.1653,-0.9531,0.0886,0.1249,2045
3,-0.0676,-1.2019,-0.2371,-1.0559,0.1525,0.0695,2057
3,0.001,-1.2202,-0.2646,-1.1493,0.1245,-0.0119,2051
3,0.0388,-1.2173,-0.2756,-1.2453,0.0487,-0.0876,2062
3,0.053,-1.2393,-0.2654,-1.3319,-0.0625,-0.0394,2053
3,0.0483,-1.2234,-0.2769,-1.4793,-0.0937,0.0634,2049
3,-0.0044,-1.1865,-0.2869,-1.5755,-0.2354,0.153,2047
3,-0.0007,-1.1821,-0.3513,-1.739,-0.3458,0.1693,2047
3,-0.0425,-1.1758,-0.4463,-1.8678,-0.3867,0.2181,2056
3,-0.1245,-1.1863,-0.5054,-2.0346,-0.3449,0.2594,2058
3,-0.1096,-1.1648,-0.5325,-2.1409,-0.3247,0.2663,2053
3,-0.1316,-1.103,-0.5532,-2.2121,-0.2503,0.2036,2053
3,-0.083,-1.0957,-0.5625,-2.3936,-0.206,0.2212,2056
3,-0.0093,-0.999,-0.6189,-2.4404,-0.0832,0.2653,2058
3,0.0068,-0.894,-0.666,-2.381,-0.0803,0.2687,2059
3,0.0205,-0.8093,-0.6899,-2.2381,-0.1515,0.234,2040
3,0.0237,-0.6765,-0.7009,-2.1185,-0.2241,0.1815,2053
3,0.0117,-0.585,-0.7502,-1.9875,-0.344,0.1803,2048
3,0.0454,-0.4893,-0.7842,-1.8721,-0.4501,0.179,2047
3,-0.0015,-0.4395,-0.7739,-1.8085,-0.5386,0.1859,2053
3,-0.0242,-0.3821,-0.7766,-1.8274,-0.7921,0.2224,2055
3,-0.0547,-0.1536,-0.7458,-1.6467,-0.8693,0.1511,2049
3,-0.092,-0.0908,-0.6841,-1.5556,-0.8448,0.1886,2051
3,-0.197,0.0225,-0.6479,-1.3197,-0.785,0.2338,2056
3,-0.2913,0.0259,-0.595,-1.1564,-0.7316,0.3509,2052
3,-0.3477,0.0029,-0.6003,-0.9488,-0.558,0.4566,2052
3,-0.2732,-0.0039,-0.6287,-0.7795,-0.4127,0.4405,2053
3,-0.1787,-0.0354,-0.6399,-0.5526,-0.3137,0.4164,2044
3,-0.0977,-0.1465,-0.6233,-0.3398,-0.3045,0.3215,2051
3,-0.0159,-0.2004,-0.6104,-0.1483,-0.3555,0.1796,2045
3,0.0779,-0.2529,-0.6238,0.0953,-0.5838,0.0253,2050
3,0.095,-0.3091,-0.5955,0.3398,-0.8187,-0.0796,2048
3,0.0063,-0.3828,-0.5471,0.5376,-0.9688,-0.1439,2056
3,-0.1001,-0.4946,-0.5256,0.7022,-1.0809,-0.182,2052
3,-0.1323,-0.6304,-0.573,0.7842,-1.0842,-0.2385,2057
3,-0.1008,-0.7842,-0.6267,0.7789,-0.9645,-0.388,2050
3,-0.0955,-0.8755,-0.6711,0.7719,-0.9214,-0.5309,2052
3,-0.0833,-0.9075,-0.7222,0.8124,-0.9313,-0.6384,2053
3,-0.0259,-0.8789,-0.7197,0.915,-1.0423,-0.7188,2044
3,-0.0083,-0.9043,-0.6682,1.0079,-1.0493,-0.6869,2048
3,0.0166,-1.0352,-0.5857,1.0079,-0.9329,-0.5759,2048
3,0.0334,-1.1438,-0.5073,0.8295,-0.8352,-0.5433,2044
3,0.0186,-1.1997,-0.4417,0.6818,-0.771,-0.5287,2049
3,0.0256,-1.1682,-0.4329,0.532,-0.7945,-0.4524,2047
3,-0.0388,-1.1011,-0.4282,0.471,-0.7958,-0.3167,2054
3,-0.0764,-1.0547,-0.436,0.3936,-0.6613,-0.2344,2049
3,-0.1262,-0.9998,-0.4763,0.4683,-0.5127,-0.1445,2046
3,-0.1707,-0.9568,-0.4824,0.6424,-0.3015,-0.1128,2056
3,-0.1755,-0.938,-0.4465,0.7614,0.0071,-0.0959,2045
3,-0.1389,-0.9602,-0.4241,0.7059,0.3056,-0.0253,2048
3,-0.0552,-0.9727,-0.4019,0.6837,0.3529,0.0181,2053
3,-0.0012,-1.0295,-0.4836,0.5183,0.2225,-0.0244,2055
3,0.0293,-1.061,-0.5774,0.4149,-0.0189,-0.1824,2048
3,-0.0095,-1.1042,-0.5906,0.4318,-0.1874,-0.4334,2035
3,-0.0354,-1.1472,-0.5728,0.3659,-0.0715,-0.708,2048
3,-0.0454,-1.1365,-0.5393,0.3179,0.0373,-0.7869,2058
3,-0.1062,-1.0549,-0.4788,0.2073,0.0672,-0.6905,2043
3,-0.189,-1.0198,-0.4707,0.1932,0.0784,-0.6056,2044
3,-0.179,-1.0356,-0.4839,0.2237,0.061,-0.5924,2057
3,-0.1445,-1.0728,-0.4988,0.1748,0.0723,-0.5488,2043
3,-0.1287,-1.1055,-0.53,0.1495,0.0538,-0.5734,2052
3,-0.1272,-1.1042,-0.5796,0.0177,-0.0072,-0.6289,2064
3,-0.1426,-1.0596,-0.6128,-0.1879,-0.1352,-0.7678,2038
3,-0.1189,-0.9971,-0.6157,-0.3207,-0.3123,-0.94,2042
3,-0.1052,-0.9409,-0.6597,-0.4619,-0.2796,-1.0232,2056
3,-0.1726,-0.8125,-0.7256,-0.455,-0.0425,-0.9439,2039
3,-0.2949,-0.7163,-0.6997,-0.3313,0.1818,-0.8574,2044
3,-0.3638,-0.6487,-0.6482,-0.3534,0.5888,-0.803,2056
3,-0.3232,-0.6189,-0.7271,-0.2196,1.1019,-0.7593,2032
3,-0.2678,-0.6223,-0.7832,-0.1036,1.4962,-0.705,2049
3,-0.1582,-0.6501,-0.7722,-0.1378,1.7993,-0.632,2062
3,-0.0481,-0.6572,-0.7981,-0.1434,1.9562,-0.5293,2042
3,0.0164,-0.676,-0.8054,-0.202,1.9909,-0.4063,2049
3,0.0479,-0.6663,-0.7725,-0.3103,1.9009,-0.3594,2059
3,0.0813,-0.6255,-0.7495,-0.3593,1.7279,-0.3412,2063
3,0.1147,-0.5598,-0.7144,-0.4056,1.6194,-0.3992,2040
3,0.1348,-0.5415,-0.6375,-0.4601,1.6436,-0.4418,2050
3,0.1514,-0.5012,-0.6387,-0.422,1.7028,-0.4,2046
3,0.1501,-0.5339,-0.5969,-0.3271,1.7579,-0.4133,2058
3,0.2075,-0.5869,-0.5388,-0.279,1.5552,-0.3364,2052
3,0.4109,-0.6592,-0.5266,-0.3975,0.928,-0.4042,2053
3,0.4312,-0.6199,-0.6682,-0.4707,0.5589,-0.5059,2044
3,0.3325,-0.6069,-0.7471,-0.45,0.4054,-0.7106,2049
3,0.2783,-0.6389,-0.8198,-0.5586,0.3828,-0.8887,2047
3,0.2463,-0.6062,-0.907,-0.6217,0.3906,-1.0062,2053
3,0.2302,-0.5933,-0.8865,-0.6183,0.299,-1.0604,2055
3,0.2546,-0.6033,-0.8379,-0.6755,0.2485,-1.0732,2052
3,0.2217,-0.6448,-0.7517,-0.7621,0.3418,-1.0604,2052
3,0.2051,-0.6174,-0.6711,-0.9035,0.3408,-0.9946,2048
3,0.248,-0.5359,-0.6484,-0.862,0.1743,-0.9545,2055
4,0.2583,-0.4861,-0.6523,-0.8191,0.0617,-0.9208,2054
4,0.2625,-0.4927,-0.6665,-0.6927,-0.0312,-0.9163,2049
4,0.2986,-0.5786,-0.686,-0.6822,-0.1322,-0.8356,2056
4,0.2793,-0.7024,-0.6821,-0.7608,-0.2839,-0.6843,2051
4,0.2524,-0.8369,-0.6819,-0.8962,-0.6139,-0.6004,2045
4,0.1931,-0.9111,-0.6382,-1.1584,-0.8472,-0.5192,2045
4,0.134,-0.8469,-0.6211,-1.3105,-0.9784,-0.562,2045
4,-0.0732,-0.6306,-0.6968,-1.3043,-0.5643,-0.1979,2055
4,-0.1926,-0.5583,-0.7458,-1.1513,-0.2846,-0.076,2037
4,-0.1907,-0.5869,-0.7046,-0.7869,-0.0131,0.0023,2046
4,-0.2368,-0.7554,-0.6543,-0.7842,0.4257,0.1443,2052
4,-0.125,-0.7908,-0.6636,-0.6822,0.6813,0.2135,2053
4,-0.063,-0.8477,-0.594,-0.544,0.8351,0.2787,2048
4,0.051,-0.9446,-0.6355,-0.7498,0.8814,0.165,2051
4,0.127,-0.9521,-0.7249,-0.889,0.7399,0.1322,2032
4,0.187,-0.9089,-0.7915,-0.8865,0.4649,0.0879,2063
4,0.1597,-0.8672,-0.7947,-0.8078,0.2503,0.1221,2055
4,0.2249,-0.8015,-0.8223,-0.7961,0.0234,0.2032,2048
4,0.1533,-0.8579,-0.7195,-0.7934,-0.2551,0.183,2055
4,0.2766,-0.804,-0.7605,-0.9084,-0.4846,0.1726,2061
4,0.2312,-0.7817,-0.7739,-0.922,-0.7709,0.1265,2042
4,0.2559,-0.7559,-0.77,-0.9738,-1.0397,0.0581,2061
4,0.27,-0.6719,-0.7322,-0.9765,-1.2798,0.01,2055
4,0.2839,-0.5828,-0.7134,-0.887,-1.3568,-0.0338,2054
4,0.2065,-0.4993,-0.6853,-0.6747,-1.2756,-0.0925,2052
4,-0.4907,-0.4895,-0.6819,-0.3213,-0.1635,0.1051,2053
4,-0.4717,-0.6606,-0.5542,-0.2136,0.9878,-0.143,2053
4,0.2244,-0.5032,-0.5813,0.138,0.7601,-0.0755,2045
4,0.2883,-0.5737,-0.5317,-0.0718,0.9329,-0.114,2049
4,0.377,-0.5969,-0.771,-0.198,0.9323,-0.0077,2066
4,0.4033,-0.6421,-0.8162,-0.0462,0.6456,0.072,2039
4,0.4639,-0.6494,-0.7893,-0.0609,0.4,0.0655,2042
4,0.426,-0.7722,-0.697,-0.1137,0.2223,0.0093,2024
4,0.4453,-0.7417,-0.7603,-0.3027,-0.2839,0.0534,2037
4,0.2361,-0.6782,-0.75,-0.2385,-0.2537,-0.1593,2054
4,0.1746,-0.5557,-0.8335,-0.2605,-0.0663,-0.2722,2066
4,0.1978,-0.521,-0.8228,-0.1571,0.2723,-0.3385,2043
4,0.2585,-0.4561,-0.8416,-0.0876,0.5193,-0.371,2018
4,0.2524,-0.4805,-0.833,-0.0609,0.5464,-0.3373,2077
4,0.2104,-0.5127,-0.814,0.0601,0.4474,-0.2679,2059
4,0.2336,-0.5706,-0.9312,-0.0551,0.2068,-0.2582,2058
4,0.3521,-0.6096,-0.9788,-0.2045,-0.0004,-0.2035,2035
4,0.3467,-0.6047,-0.958,-0.2843,-0.3195,-0.1967,2063
4,0.2993,-0.5364,-0.9053,-0.1714,-0.6165,-0.2426,2041
4,0.1389,-0.5117,-0.7993,-0.1858,-0.6094,-0.2081,2024
4,0.022,-0.4062,-0.7917,0.0148,-0.6263,-0.2936,2036
4,0.0405,-0.4568,-0.6777,0.3558,-0.4838,-0.4366,2121
4,0.1143,-0.5371,-0.6196,0.5161,-0.2862,-0.6134,2040
4,0.2148,-0.5576,-0.6521,0.7375,-0.1882,-0.7275,2063
4,0.3513,-0.5486,-0.7549,0.8095,-0.1414,-0.7831,2043
4,0.4207,-0.6401,-0.9253,0.5416,-0.2348,-0.8234,2046
4,0.4038,-0.7361,-0.9792,0.1246,-0.3863,-0.7154,2038
4,0.2148,-0.7991,-0.8284,-0.2314,-0.0053,-0.4135,2096
4,0.0881,-0.4424,-0.6638,-0.2718,0.3611,-0.0993,2056
4,0.1858,-0.2739,-0.6045,-0.3088,0.4482,0.0613,2061
4,0.2622,-0.3315,-0.6096,-0.1954,0.7556,0.1562,2055
4,0.4116,-0.2512,-0.6062,0.0486,0.8082,0.2112,2081
4,0.323,-0.6235,-0.5645,-0.0688,0.7961,0.1922,2069
4,0.2522,-0.8018,-0.7134,-0.1863,0.73,0.3405,2083
4,0.1938,-0.8528,-0.7893,-0.2368,0.4923,0.4103,2052
4,0.1895,-0.8218,-0.8074,-0.222,0.4851,0.2717,2060
4,0.1777,-0.7598,-0.7429,-0.1988,0.542,0.174,2039
4,0.1147,-0.7183,-0.7502,-0.194,0.3767,0.1348,2057
4,0.1077,-0.7222,-0.7781,-0.1935,0.2133,0.1642,2044
4,0.1575,-0.7317,-0.8276,-0.3433,-0.0003,0.2084,2050
4,0.1729,-0.6655,-0.9475,-0.3561,-0.1462,0.2191,2067
4,0.1843,-0.5515,-1.0261,-0.2914,-0.4173,0.1001,2070
4,0.2847,-0.3455,-1.0925,-0.1843,-0.6349,0.157,2044
4,0.2493,-0.467,-0.9919,-0.3286,-0.5386,-0.0975,2044
4,0.2625,-0.4597,-0.8745,-0.316,-0.3808,-0.1944,2061
4,0.2795,-0.3884,-0.6785,-0.282,-0.3328,-0.1589,2046
4,0.3916,-0.3171,-0.6917,-0.3558,-0.5709,0.1063,2061
4,0.2981,-0.4888,-0.7339,-0.4444,-0.4619,0.1695,2050
4,0.2266,-0.5132,-0.7585,-0.4746,-0.5099,0.3799,2051
4,0.1824,-0.5413,-0.7952,-0.4896,-0.4068,0.5976,2049
4,0.0818,-0.5681,-0.6731,-0.2328,-0.2566,0.6421,2052
4,0.0859,-0.6514,-0.8071,-0.2372,-0.1662,0.5966,2058
4,0.1758,-0.7205,-0.8633,-0.2316,-0.2755,0.4219,2047
4,0.1946,-0.79,-0.7485,-0.1125,-0.3903,0.3875,2047
4,0.1523,-0.791,-0.7771,-0.2157,-0.2774,0.1245,2042
4,0.127,-0.7383,-0.7786,-0.151,-0.1589,0.0899,2052
4,0.1099,-0.6597,-0.7412,-0.1152,-0.1099,0.1023,2059
4,0.1606,-0.5996,-0.8081,-0.2024,-0.2252,0.1565,2047
4,0.1082,-0.5049,-0.8381,-0.1878,-0.2314,0.2036,2048
4,0.0513,-0.4429,-0.8005,-0.0581,-0.3573,0.2284,2054
4,0.0691,-0.395,-0.7727,0.0799,-0.4542,0.2691,2048
4,0.1438,-0.3669,-0.7817,0.1956,-0.56,0.3248,2060
4,0.1506,-0.4155,-0.7261,0.3092,-0.6233,0.3991,2045
4,0.1829,-0.4272,-0.7476,0.4436,-0.7642,0.4579,2040
4,0.1663,-0.4922,-0.73,0.4663,-0.7709,0.5121,2038
4,0.0891,-0.5513,-0.7764,0.5502,-0.7163,0.4879,2059
4,0.033,-0.6343,-0.8032,0.5422,-0.649,0.4333,2056
4,0.0291,-0.7244,-0.7986,0.4831,-0.5195,0.4263,2069
4,0.0176,-0.7461,-0.8091,0.3891,-0.2703,0.385,2042
4,-0.0178,-0.7778,-0.78,0.3124,0.0585,0.278,2053
4,-0.0413,-0.8232,-0.719,0.2434,0.2816,0.1618,2048
4,0.0134,-0.8318,-0.7,0.1892,0.3976,-0.0218,2057
4,0.0813,-0.813,-0.7634,0.2125,0.5693,-0.0525,2059
4,0.134,-0.8169,-0.7927,0.2883,0.6484,-0.1069,2032
4,0.2014,-0.8203,-0.8098,0.2456,0.4325,-0.1983,2029
4,0.2283,-0.7896,-0.7966,0.2156,0.1609,-0.3643,2057
5,0.2405,-0.7122,-0.7561,0.349,0.0336,-0.4622,2053
5,0.1802,-0.6575,-0.709,0.5927,0.0253,-0.596,2058
5,0.2019,-0.5557,-0.6677,0.8139,0.1661,-0.7352,2049
5,0.1472,-0.4995,-0.6387,1.0644,0.5131,-0.8787,2050
5,0.1104,-0.5112,-0.6379,1.2959,0.917,-0.9435,2047
5,0.2449,-0.5505,-0.6567,1.4187,1.1214,-0.9448,2037
5,0.3616,-0.5859,-0.7139,1.4922,1.1904,-0.8902,2049
5,0.3467,-0.5811,-0.7808,1.4584,1.2331,-0.7481,2044
5,0.2935,-0.5752,-0.814,1.448,1.1577,-0.6652,2045
5,0.3225,-0.5615,-0.7788,1.5074,0.711,-0.5898,2048
5,0.3962,-0.5701,-0.7292,1.5002,0.4444,-0.4987,2063
5,0.3735,-0.5674,-0.6658,1.4857,0.5224,-0.3848,2037
5,0.3394,-0.5952,-0.5972,1.4972,0.4514,-0.2232,2044
5,0.3103,-0.6558,-0.5562,1.3812,0.4654,-0.049,2054
5,0.4082,-0.7625,-0.645,1.1417,0.1639,0.088,2046
5,0.4583,-0.8613,-0.7068,0.8915,-0.3453,0.1201,2047
5,0.4304,-0.9248,-0.7217,0.6385,-0.7514,0.1284,2052
5,0.4072,-0.9678,-0.7581,0.342,-1.1712,0.1527,2062
5,0.3608,-0.9866,-0.7722,0.1501,-1.6732,0.2125,2048
5,0.249,-0.999,-0.7974,-0.0927,-2.0728,0.2262,2055
5,0.0742,-0.968,-0.791,-0.3298,-2.3613,0.176,2057
5,-0.0154,-0.9536,-0.7659,-0.6268,-2.6477,0.0839,2045
5,-0.1472,-0.9229,-0.8206,-0.8706,-2.693,0.088,2064
5,-0.217,-0.8201,-0.7629,-1.0648,-2.6466,-0.0578,2042
5,-0.2058,-0.7532,-0.7998,-1.2051,-2.6296,-0.1302,2037
5,-0.2825,-0.7346,-0.7427,-1.0874,-2.3601,-0.0804,2053
5,-0.3337,-0.6199,-0.7253,-0.8506,-1.8447,-0.0631,2049
5,-0.3625,-0.5164,-0.8679,-0.6749,-1.4444,0.0276,2056
5,-0.3513,-0.5168,-0.9658,-0.6405,-1.0845,0.2484,2048
5,-0.3445,-0.6055,-0.9417,-0.879,-0.71,0.4721,2049
5,-0.2683,-0.6667,-1.0176,-1.2881,-0.3832,0.7237,2048
5,-0.197,-0.6145,-1.1228,-1.6162,-0.1217,0.9139,2048
5,-0.1304,-0.5691,-1.1465,-1.9028,0.0461,0.8994,2047
5,-0.0444,-0.4768,-1.1226,-1.9947,0.2551,0.7536,2048
5,0.165,-0.4082,-1.0339,-1.9853,0.4493,0.5469,2057
5,0.4612,-0.3179,-0.9548,-1.9803,0.1607,0.5058,2048
5,0.1868,-0.4741,-0.8931,-2.1985,0.0645,0.7332,2049
5,0.4419,-0.2917,-0.8354,-2.1116,-0.4456,0.6811,2063
5,0.196,-0.5874,-0.7568,-2.4792,-0.6678,0.6927,2048
5,0.2627,-0.3889,-0.8965,-2.3629,-1.0146,0.699,2065
5,0.2708,-0.3423,-0.8547,-2.2606,-1.3632,0.714,2045
5,-0.1565,-0.2898,-0.7639,-2.0864,-1.1314,0.8188,2046
5,-0.4053,-0.2454,-0.6428,-1.4514,-0.8003,0.8927,2051
5,-0.2773,-0.3513,-0.4485,-1.1175,-0.3493,0.8214,2042
5,-0.1934,-0.447,-0.5823,-0.8281,-0.0127,0.765,2074
5,-0.1201,-0.5369,-0.6155,-0.3798,0.1601,0.5869,2074
5,0.1067,-0.6089,-0.5405,0.1164,0.4726,0.2863,2040
5,0.1772,-0.7222,-0.5947,0.2204,0.5713,-0.1238,1986
5,0.2273,-0.803,-0.7048,0.2141,0.5903,-0.3422,2053
5,0.2986,-0.822,-0.8337,0.1388,0.2734,-0.2746,2034
5,0.2549,-0.7998,-0.8508,0.07,0.1436,-0.1521,2050
5,0.0457,-0.7932,-0.9111,-0.151,0.0481,-0.1073,2036
5,-0.1187,-0.6648,-0.9778,-0.3231,-0.0577,-0.0617,2064
5,-0.1951,-0.5439,-1.0544,-0.3892,-0.0911,0.0683,2054
5,-0.1926,-0.467,-1.1287,-0.4561,-0.0678,0.2368,2029
5,-0.1697,-0.4048,-1.0979,-0.4653,-0.1144,0.3296,2034
5,-0.23,-0.4395,-1.0496,-0.6235,-0.1001,0.4283,2054
5,-0.2695,-0.353,-1.0359,-0.6513,0.0637,0.5678,2029
5,-0.1946,-0.2573,-0.9414,-0.6545,-0.1216,0.4232,2076
5,-0.0959,-0.3164,-0.8652,-0.6709,-0.0883,0.3686,2040
5,-0.0688,-0.3408,-0.8308,-0.6095,-0.0144,0.3982,2099
5,-0.0249,-0.3459,-0.7825,-0.5813,-0.1449,0.3272,2006
5,-0.1023,-0.363,-0.7219,-0.392,0.1546,0.3862,2044
5,-0.0024,-0.3652,-0.6653,-0.1836,0.2507,0.2618,2064
5,-0.0576,-0.49,-0.6975,-0.0684,0.5513,0.2233,2055
5,0.1831,-0.542,-0.7634,0.0115,0.2441,0.073,2062
5,0.1213,-0.5459,-0.8464,0.0245,0.1594,0.0154,2110
5,-0.0505,-0.4983,-0.9839,-0.0304,0.0238,-0.0226,2012
5,-0.1426,-0.4316,-1.0696,-0.0455,0.0141,-0.0011,2062
5,-0.2107,-0.4189,-1.0715,-0.0874,0.2699,0.1051,2051
5,-0.2131,-0.4514,-1.1108,-0.1703,0.3361,0.1606,2025
5,-0.1211,-0.4595,-1.0129,-0.2428,0.3288,0.1934,1972
5,-0.1033,-0.4485,-1.0002,-0.3212,0.2522,0.1992,2080
5,-0.134,-0.3965,-0.9426,-0.3189,0.2661,0.2185,2137
5,-0.0796,-0.3384,-0.8813,-0.3133,0.127,0.2465,2155
5,-0.0383,-0.4104,-0.8518,-0.3253,0.1579,0.2927,1951
5,-0.1003,-0.4143,-0.8926,-0.2314,0.2175,0.3123,2131
5,0.0232,-0.458,-0.7952,-0.151,0.1947,0.4264,2005
5,-0.001,-0.5525,-0.8313,-0.2879,0.0478,0.2521,2037
5,-0.0964,-0.4963,-0.8308,-0.2766,0.0206,0.2121,1997
5,-0.061,-0.3645,-0.8479,-0.2016,0.2487,0.3175,2018
5,-0.002,-0.3862,-0.8906,-0.1477,0.2312,-0.0101,2099
5,0.0667,-0.2971,-0.8718,0.0486,0.6325,0.0565,2001
5,0.1902,-0.4097,-0.8884,0.0511,0.3101,-0.1716,1972
5,0.063,-0.3906,-0.9023,0.0467,0.3281,-0.1859,2103
5,-0.0344,-0.375,-0.9307,-0.0087,0.2172,-0.175,2029
5,-0.0498,-0.3828,-0.8931,0.0338,0.2228,-0.1404,2060
5,-0.1182,-0.3752,-0.9497,0.0254,0.22,-0.1067,1934
5,-0.1045,-0.3318,-0.9458,0.0537,0.2402,-0.1075,2092
5,-0.0798,-0.3218,-0.9446,0.012,0.2748,-0.1116,2074
5,-0.0127,-0.3469,-0.9417,-0.0433,0.2489,-0.1304,2119
5,-0.0281,-0.3608,-0.9426,-0.079,0.3613,-0.0915,2122
5,0.022,-0.356,-0.925,-0.1151,0.2009,-0.1697,2112
5,-0.0354,-0.3342,-0.8728,-0.0875,0.2099,-0.1344,2053
5,-0.1516,-0.3518,-0.8547,-0.0405,0.293,-0.1663,2042
5,0.0305,-0.4995,-0.8718,-0.0502,0.1609,-0.0581,2014
5,-0.0078,-0.4133,-0.9182,-0.0032,0.1602,-0.0686,2060
5,-0.0073,-0.4084,-0.946,0.0134,0.1451,-0.1261,1941
5,-0.0173,-0.4714,-0.916,0.0679,0.2389,-0.104,2038
5,-0.0471,-0.5498,-0.8733,-0.0184,0.0961,-0.0281,2060
5,-0.0332,-0.5039,-0.9031,-0.0522,0.0019,-0.0353,2075
5,-0.0398,-0.4661,-0.9194,-0.0952,-0.029,-0.0077,2060
6,-0.04,-0.4302,-0.8779,-0.1164,-0.0213,0.0471,2033
6,-0.0854,-0.396,-0.8362,-0.124,0.1023,0.0638,2028
6,-0.0237,-0.3923,-0.8853,-0.065,0.2337,0.1152,2114
6,0.0166,-0.4541,-0.8354,-0.0635,0.4149,0.1563,2052
6,0.1162,-0.5254,-0.8174,-0.1613,0.4295,0.1989,2063
6,0.1548,-0.5518,-0.8037,-0.2245,0.4081,0.1707,2058
6,0.0742,-0.4609,-0.8757,-0.2392,0.3725,0.1156,2047
6,0.042,-0.387,-0.8943,-0.2148,0.2814,0.0069,2006
6,0.0359,-0.3735,-0.8215,-0.1646,0.2914,-0.0627,2029
6,-0.0217,-0.395,-0.7842,-0.0732,0.4032,-0.1025,2057
6,-0.0405,-0.3982,-0.7979,0.03,0.4859,-0.1482,2070
6,-0.054,-0.3733,-0.7671,0.2141,0.5978,-0.1894,2058
6,-0.0547,-0.3374,-0.7917,0.3725,0.7637,-0.2452,2056
6,-0.022,-0.4409,-0.8831,0.4474,0.9308,-0.2128,2058
6,0.0142,-0.6238,-0.9316,0.558,1.1061,-0.2856,2042
6,0.1096,-0.6609,-0.9832,0.5791,1.2347,-0.5393,2055
6,0.1489,-0.6123,-1.0239,0.5177,1.122,-0.7502,2047
6,0.1221,-0.5076,-1.0894,0.5622,0.8966,-0.8982,2047
6,0.2529,-0.366,-1.0339,0.7743,0.7388,-1.0132,2051
6,0.2751,-0.4055,-0.9109,0.8781,0.4855,-1.0459,2042
6,0.2085,-0.4814,-0.8386,1.0001,0.3002,-1.0552,2055
6,0.1104,-0.5366,-0.8101,1.1977,0.2254,-1.0634,2054
6,-0.0098,-0.5151,-0.7791,1.4352,0.1896,-1.0119,2049
6,-0.043,-0.4495,-0.7434,1.6092,0.1968,-0.9464,2051
6,-0.0491,-0.4653,-0.7468,1.7483,0.4018,-0.8324,2048
6,-0.0852,-0.4268,-0.8059,1.8579,0.7154,-0.679,2048
6,-0.1467,-0.4265,-0.7913,1.9594,1.0875,-0.5775,2050
6,-0.0728,-0.3899,-0.7537,1.9508,1.3627,-0.5105,2062
6,-0.0503,-0.3066,-0.7908,1.8992,1.5199,-0.2619,2052
6,-0.063,-0.2051,-0.7625,2.0559,1.6811,-0.0712,2054
6,0.115,-0.1692,-0.8315,2.3751,1.7351,-0.0413,2051
6,0.2952,-0.3201,-0.8552,2.6836,1.6005,-0.0531,2054
6,0.4397,-0.4829,-0.8245,2.8693,1.5033,-0.1117,2046
6,0.439,-0.592,-0.6443,2.9652,1.4794,-0.1558,2057
6,0.4614,-0.6531,-0.5137,2.828,1.1107,-0.3143,2044
6,0.5715,-0.5664,-0.5142,2.8642,0.6352,-0.2855,2052
6,0.5635,-0.5359,-0.5447,2.8145,0.124,-0.1393,2049
6,0.5256,-0.6106,-0.5386,2.6876,-0.3514,0.1049,2047
6,0.5493,-0.7622,-0.5513,2.5055,-0.7999,0.2188,2047
6,0.5312,-0.8994,-0.5762,2.2815,-1.2758,0.2784,2056
6,0.3555,-0.9243,-0.5667,1.9391,-1.5261,0.3405,2049
6,0.1643,-0.8557,-0.6228,1.5868,-1.761,0.3699,2049
6,0.0,-0.7693,-0.7266,1.5159,-1.819,0.4988,2058
6,-0.1963,-0.7522,-0.7227,1.5161,-1.5909,0.6789,2046
6,-0.2854,-0.8088,-0.7239,1.5475,-1.1696,0.8764,2055
6,-0.2583,-0.9463,-0.7026,1.6773,-0.7194,1.0315,2055
6,-0.2009,-1.0728,-0.6738,1.4905,-0.4583,1.0859,2057
6,-0.0981,-1.1104,-0.6792,1.2149,-0.4265,1.1105,2057
6,0.0244,-1.0762,-0.7236,1.1041,-0.493,1.009,2052
6,0.2561,-1.0986,-0.75,1.0206,-0.8463,0.6881,2056
6,0.5132,-1.2319,-0.8599,0.2822,-1.6467,0.4225,2047
6,0.5886,-1.2349,-1.0488,-0.7604,-2.118,0.438,2043
6,0.3418,-0.8647,-0.9248,-0.5159,-2.4075,0.3995,2049
6,0.0552,-0.6597,-0.5789,-0.3362,-3.0369,0.5307,2075
6,-0.231,-0.5957,-0.4705,-0.64,-3.2559,0.7208,2039
6,-0.3608,-0.5791,-0.55,-0.6731,-3.0521,0.8506,2041
6,-0.3989,-0.5923,-0.6362,-0.3366,-2.512,0.8821,2063
6,-0.4324,-0.6809,-0.6743,-0.1337,-1.9539,0.8006,2055
6,-0.4795,-0.7437,-0.6602,-0.0037,-1.2126,0.742,2040
6,-0.4241,-0.7622,-0.6375,0.1193,-0.5015,0.6584,2066
6,-0.2722,-0.7151,-0.6233,0.2147,-0.0518,0.632,2051
6,-0.1682,-0.7935,-0.583,0.2207,0.285,0.6604,2026
6,0.0076,-0.7856,-0.5557,0.4329,0.5406,0.548,2069
6,0.2246,-0.9282,-0.5813,0.2156,0.2491,0.4472,2050
6,0.3503,-1.0676,-0.6304,0.0711,-0.2187,0.3043,2059
6,0.2966,-1.0139,-0.6458,0.0156,-0.4374,0.059,2062
6,0.1677,-0.8062,-0.6519,-0.039,-0.4838,-0.1466,2033
6,-0.0435,-0.8118,-0.5801,-0.1975,-0.5084,-0.2412,2051
6,-0.1121,-0.7534,-0.5444,-0.2127,-0.4113,-0.1011,2050
6,-0.075,-0.7402,-0.5835,-0.2089,-0.233,0.0746,2056
6,0.0034,-0.9351,-0.4971,-0.3151,-0.12,0.1818,2056
6,-0.0986,-0.9548,-0.4177,-0.0482,0.2211,0.082,2056
6,0.0476,-1.0938,-0.3391,-0.0103,0.2236,-0.0457,2045
6,0.0217,-1.0974,-0.2869,0.0866,0.2405,-0.273,2049
6,0.009,-0.9883,-0.2568,0.3007,0.293,-0.4151,2053
6,-0.0364,-0.9036,-0.3601,0.1471,0.2859,-0.4079,2054
6,-0.0884,-0.8176,-0.4934,0.0282,0.2189,-0.3045,2044
6,-0.0789,-0.8074,-0.5767,-0.043,0.1049,-0.1651,2056
6,-0.0769,-0.7888,-0.5664,-0.0924,0.136,-0.0513,2044
6,-0.1169,-0.7727,-0.571,-0.1156,0.2185,0.0694,2053
6,-0.2034,-0.7488,-0.5762,-0.1406,0.2871,0.1962,2042
6,-0.261,-0.7317,-0.6003,-0.1167,0.3906,0.3011,2054
6,-0.26,-0.741,-0.6003,-0.0173,0.4815,0.3721,2046
6,-0.2378,-0.7529,-0.593,0.0972,0.6003,0.3935,2054
6,-0.2212,-0.7698,-0.5854,0.1879,0.6669,0.4064,2050
6,-0.2046,-0.7788,-0.5859,0.2468,0.6913,0.4175,2052
6,-0.1462,-0.7856,-0.5874,0.3137,0.7437,0.4591,2048
6,-0.1001,-0.8293,-0.5513,0.3164,0.7545,0.4797,2049
6,-0.0588,-0.853,-0.5278,0.2722,0.6699,0.4157,2053
6,-0.0142,-0.8655,-0.5142,0.2618,0.547,0.3241,2047
6,0.0012,-0.8572,-0.5212,0.2493,0.4446,0.2362,2054
6,-0.0054,-0.8533,-0.5256,0.2735,0.3298,0.1719,2048
6,-0.0015,-0.8623,-0.5059,0.2808,0.2537,0.1205,2048
6,-0.0078,-0.8577,-0.4634,0.2847,0.1976,0.0878,2060
6,-0.0125,-0.8479,-0.45,0.2771,0.1462,0.0708,2045
6,-0.0249,-0.8508,-0.457,0.3044,0.1197,0.0668,2053
6,-0.0198,-0.8582,-0.4338,0.2962,0.1326,0.0985,2047
6,-0.043,-0.9058,-0.4707,0.1807,0.1305,0.0864,2052
6,-0.0593,-0.9746,-0.5127,0.0623,0.1361,0.0407,2055
6,-0.0681,-0.9951,-0.5994,-0.0149,0.2657,-0.0314,2053
6,-0.0571,-0.978,-0.6228,-0.0491,0.3192,-0.1103,2049
6,-0.0347,-0.9587,-0.6262,-0.0948,0.3346,-0.1615,2052
6,-0.0288,-0.9233,-0.6414,-0.1072,0.3177,-0.1421,2051
7,-0.0544,-0.9238,-0.5994,-0.1822,0.2756,-0.0822,2056
7,-0.0623,-0.929,-0.6057,-0.2449,0.239,0.0055,2053
7,-0.0984,-0.9639,-0.6233,-0.2539,0.2497,0.0912,2052
7,-0.1089,-1.0132,-0.6233,-0.2546,0.2354,0.1461,2043
7,-0.1067,-1.0566,-0.6255,-0.3133,0.1975,0.1418,2055
7,-0.0906,-1.0862,-0.624,-0.3799,0.184,0.1545,2049
7,-0.085,-1.0752,-0.6453,-0.4263,0.1852,0.1147,2047
7,-0.0662,-1.0676,-0.6479,-0.3964,0.1554,0.0545,2053
7,-0.0327,-1.0959,-0.6042,-0.4197,0.0979,-0.0059,2054
7,-0.0212,-1.1155,-0.5762,-0.5196,0.0361,-0.0445,2052
7,-0.0337,-1.1233,-0.5696,-0.5542,0.0059,-0.0818,2047
7,-0.0698,-1.1189,-0.5757,-0.5478,-0.0281,-0.1149,2053
7,-0.0906,-1.1189,-0.5781,-0.6738,-0.0109,-0.1583,2065
7,-0.0845,-1.1147,-0.6099,-0.7945,0.0787,-0.1384,2054
7,-0.0935,-1.1003,-0.6543,-0.8564,0.1712,-0.1242,2048
7,-0.0833,-1.051,-0.6917,-0.8989,0.2381,-0.1233,2046
7,-0.0686,-1.0188,-0.719,-0.9104,0.3087,-0.1261,2052
7,-0.0532,-1.0046,-0.7175,-0.9283,0.4368,-0.124,2051
7,-0.0457,-0.9915,-0.7075,-0.9778,0.5305,-0.1417,2046
7,-0.0427,-0.9868,-0.7063,-1.0086,0.6399,-0.1573,2047
7,-0.0439,-0.9614,-0.7036,-1.0951,0.6987,-0.1997,2039
7,-0.0359,-0.9229,-0.7065,-1.1164,0.7443,-0.2597,2054
7,-0.0303,-0.9285,-0.6863,-1.128,0.8028,-0.2651,2048
7,-0.0249,-0.9409,-0.6934,-1.1808,0.824,-0.2602,2043
7,-0.0244,-0.9087,-0.6855,-1.1199,0.8436,-0.2822,2055
7,-0.0444,-0.8984,-0.6951,-1.0489,0.9088,-0.2745,2050
7,-0.0295,-0.8633,-0.6609,-1.1347,0.9733,-0.2846,2065
7,-0.0315,-0.8503,-0.7004,-1.2117,0.9561,-0.4501,2014
7,-0.0579,-0.866,-0.7429,-1.2118,0.9894,-0.5803,2068
7,-0.0427,-0.8645,-0.7134,-1.3055,1.1729,-0.6767,2058
7,-0.0527,-0.8066,-0.7607,-1.27,1.3833,-0.7367,2048
7,-0.0774,-0.751,-0.7305,-1.1999,1.539,-0.8444,2062
7,-0.0652,-0.6812,-0.6987,-1.0838,1.7178,-1.0002,2041
7,0.0518,-0.6277,-0.7261,-0.7656,1.8154,-1.1738,2051
7,0.1848,-0.6943,-0.7515,-0.5565,1.8503,-1.2041,2069
7,0.1499,-0.8074,-0.7273,-0.5753,1.954,-1.2685,2031
7,0.103,-0.8022,-0.7666,-0.4733,1.9803,-1.4182,2044
7,0.2034,-0.803,-0.6958,-0.561,1.8631,-1.5155,2046
7,0.3447,-0.6948,-0.7385,-0.5879,1.7887,-1.5708,2046
7,0.3748,-0.7219,-0.7185,-0.5952,1.6719,-1.5816,2057
7,0.3569,-0.7231,-0.7546,-0.6456,1.3736,-1.4916,2038
7,0.312,-0.698,-0.7207,-0.6071,1.042,-1.4483,2059
7,0.3467,-0.6025,-0.676,-0.4333,0.7574,-1.4089,2048
7,0.3003,-0.6101,-0.6128,-0.3916,0.7624,-1.2161,2044
7,0.21,-0.6711,-0.6697,-0.4006,0.7564,-1.0266,2102
7,0.1416,-0.5923,-0.7351,-0.3213,0.8404,-1.0559,2004
7,0.241,-0.5649,-0.7485,-0.2091,1.0527,-1.0172,2071
7,0.2812,-0.6455,-0.6804,-0.1007,1.0824,-0.9926,2063
7,0.2688,-0.6594,-0.6306,0.0013,1.0519,-1.0255,2078
7,0.3167,-0.6721,-0.6157,-0.0394,1.0862,-1.0491,2050
7,0.3196,-0.6885,-0.666,-0.1667,1.1832,-1.0045,2038
7,0.3262,-0.6223,-0.7512,-0.2462,1.266,-0.9527,2055
7,0.29,-0.615,-0.7195,-0.3408,1.2575,-0.8975,2041
7,0.2671,-0.4583,-0.7534,-0.3613,1.2539,-1.009,2058
7,0.4792,-0.2761,-0.6575,-0.3137,1.0595,-1.1176,2058
7,0.5354,-0.2368,-0.6855,-0.3116,0.9401,-1.0156,2037
7,0.5439,-0.1458,-0.5959,0.0819,0.6436,-0.8419,2058
7,0.3264,-0.1536,-0.4951,0.3547,0.537,-0.7485,2058
7,0.3147,-0.156,-0.4561,0.6593,0.4466,-0.7036,2050
7,0.342,-0.1125,-0.3987,1.0083,0.5576,-0.6177,2062
7,0.366,-0.1099,-0.3394,1.3324,0.5349,-0.5343,2053
7,0.2517,-0.4155,-0.2854,1.2921,0.8562,-0.2334,2032
7,0.3521,-0.5171,-0.4082,1.0862,0.9218,-0.0965,2066
7,0.2961,-0.6262,-0.5923,0.7435,1.1698,-0.1035,2055
7,0.2527,-0.7476,-0.7058,0.4963,1.2484,-0.1835,2053
7,0.3621,-0.7468,-0.7173,0.193,1.3213,-0.2887,2057
7,0.5149,-0.6401,-0.7402,-0.0462,1.3414,-0.3807,2047
7,0.5994,-0.4966,-0.73,-0.0957,1.1857,-0.4183,2047
7,0.6272,-0.4131,-0.7063,-0.0939,1.0769,-0.4176,2053
7,0.5393,-0.3276,-0.6504,0.0286,0.9324,-0.3807,2046
7,0.48,-0.3013,-0.583,0.1958,0.7761,-0.4015,2047
7,0.4968,-0.323,-0.5845,0.2304,0.7186,-0.4582,2039
7,0.4802,-0.2659,-0.6975,0.2752,0.7399,-0.553,2049
7,0.6401,-0.2356,-0.5793,0.3899,0.6931,-0.7336,2063
7,0.5569,-0.1785,-0.4617,0.4237,0.8967,-0.8517,2038
7,0.719,-0.0581,-0.4182,0.6913,0.9399,-0.8797,2043
7,0.7754,-0.0173,-0.3674,0.9152,0.9461,-0.6275,2049
7,0.8054,0.0227,-0.3701,1.0573,0.8533,-0.4472,2036
7,0.8462,0.1138,-0.3623,1.3173,0.5854,-0.3665,2055
7,0.7998,0.1343,-0.3843,1.3936,0.3874,-0.0554,2044
7,0.6406,0.0146,-0.4121,1.2107,0.6602,0.5149,2051
7,0.4766,-0.1482,-0.3113,0.9359,0.9697,1.1066,2053
7,0.2664,-0.3811,-0.2568,0.437,0.8716,1.5848,2068
7,0.2075,-0.6331,-0.5237,0.3105,0.7887,1.9873,2059
7,0.0212,-0.9551,-0.748,0.7203,1.5254,2.0262,2056
7,-0.0869,-1.3096,-0.4949,0.9785,2.07,1.6279,2059
7,0.0583,-1.5432,-0.3198,0.5099,2.4685,0.9413,2065
7,0.426,-1.491,-0.5178,0.0438,2.7183,0.5486,2048
7,0.5515,-1.0071,-0.6941,-0.1731,3.3457,0.3128,2063
7,0.6494,-0.7222,-0.7263,-0.4272,3.4407,0.5537,2039
7,0.6987,-0.6572,-0.6992,-0.3836,3.4007,0.5012,2040
7,0.8699,-0.6987,-0.5076,-0.1888,3.5114,0.2104,2050
7,0.8096,-0.7095,-0.1794,0.1077,3.532,0.0874,2057
7,0.843,-0.5676,-0.1316,0.2642,3.1859,0.0332,2048
7,0.9241,-0.5122,-0.0601,0.6522,2.7604,0.2199,2054
7,0.9834,-0.615,0.0413,0.9375,2.2245,0.4538,2039
7,1.0579,-0.8149,0.0928,0.6851,1.3368,0.6092,2044
7,0.9373,-0.7837,-0.0637,0.4296,0.4342,0.6372,2062
7,0.8052,-0.7739,-0.1255,0.355,-0.0903,0.5729,2059
7,0.6965,-0.822,-0.1504,0.2902,-0.3336,0.4807,2055
7,0.5005,-0.8848,-0.1047,0.0894,-0.2461,0.451,2056
7,0.3911,-0.9146,-0.0862,0.2904,0.0751,0.3613,2059
8,0.4861,-0.9036,-0.1501,0.2004,0.2818,0.2438,2037
8,0.5603,-0.8547,-0.2212,0.2085,0.4477,0.2049,2049
8,0.6277,-0.8242,-0.1799,0.1433,0.5119,0.1165,2051
8,0.6843,-0.7764,-0.1404,0.1024,0.4205,0.1117,2047
8,0.6726,-0.7744,-0.1572,0.0398,0.3679,0.1348,2053
8,0.6184,-0.769,-0.1184,0.014,0.3047,0.1422,2059
8,0.5603,-0.7251,-0.1177,-0.0787,0.2081,0.1465,2050
8,0.5195,-0.7024,-0.1592,-0.1489,0.2093,0.151,2051
8,0.5049,-0.6733,-0.2063,-0.179,0.2384,0.1752,2051
8,0.4763,-0.6919,-0.1997,-0.1928,0.2795,0.2077,2054
8,0.4858,-0.6885,-0.208,-0.1687,0.3099,0.1908,2049
8,0.4731,-0.7034,-0.1936,-0.1184,0.2963,0.1927,2049
8,0.4292,-0.7551,-0.1746,-0.1254,0.3707,0.2017,2052
8,0.4548,-0.7195,-0.2019,-0.0466,0.2372,0.1589,2052
8,0.4663,-0.76,-0.228,-0.0645,0.1959,0.1566,2035
8,0.5283,-0.7795,-0.2361,-0.0336,0.1631,0.1252,2059
8,0.55,-0.7424,-0.2244,-0.0621,0.0921,0.0145,2056
8,0.5933,-0.7319,-0.1648,0.0529,-0.1715,0.0117,2053
8,0.5625,-0.719,-0.1204,0.1181,-0.3135,-0.07,2051
8,0.592,-0.7671,-0.1367,0.0314,-0.5261,-0.1489,2048
8,0.5493,-0.7363,-0.1223,-0.0551,-0.8022,-0.2073,2054
8,0.5142,-0.74,-0.1433,-0.0205,-0.8403,-0.1963,2050
8,0.5337,-0.7415,-0.157,0.0334,-0.7051,-0.1494,2054
8,0.5044,-0.7522,-0.1804,0.0708,-0.5566,-0.1023,2049
8,0.5276,-0.7607,-0.2327,0.1157,-0.4855,-0.1093,2055
8,0.5508,-0.7471,-0.2432,0.139,-0.4209,-0.1613,2047
8,0.6025,-0.7476,-0.2524,0.1152,-0.4227,-0.2032,2046
8,0.6738,-0.751,-0.2463,0.1131,-0.5544,-0.2854,2046
8,0.7041,-0.7217,-0.2246,0.1553,-0.6412,-0.3484,2047
8,0.7268,-0.7024,-0.1899,0.1101,-0.7853,-0.3553,2052
8,0.7341,-0.7039,-0.1785,0.076,-0.8949,-0.3232,2056
8,0.7241,-0.7009,-0.1833,0.0538,-0.9745,-0.3252,2050
8,0.7007,-0.7312,-0.1821,0.047,-0.9436,-0.2569,2050
8,0.6724,-0.7505,-0.2278,0.0511,-0.8549,-0.226,2048
8,0.6592,-0.7529,-0.2668,0.0602,-0.7609,-0.2215,2052
8,0.6631,-0.7639,-0.2961,0.1131,-0.6564,-0.1947,2053
8,0.6768,-0.7534,-0.3135,0.1884,-0.5549,-0.2084,2052
8,0.7104,-0.7549,-0.3074,0.2794,-0.4482,-0.1878,2053
8,0.7268,-0.7507,-0.2937,0.3567,-0.3535,-0.1767,2047
8,0.729,-0.7544,-0.2603,0.3844,-0.2621,-0.1365,2046
8,0.7158,-0.7544,-0.2593,0.3831,-0.1852,-0.0979,2052
8,0.696,-0.7502,-0.2693,0.3719,-0.1003,-0.0566,2052
8,0.644,-0.7493,-0.2605,0.3717,0.0141,-0.0405,2055
8,0.6384,-0.7542,-0.2385,0.3341,0.1075,-0.0388,2053
8,0.6018,-0.7417,-0.2317,0.2879,0.153,-0.0461,2050
8,0.6062,-0.7227,-0.2427,0.2629,0.2181,-0.0313,2051
8,0.6057,-0.7095,-0.2527,0.2595,0.2855,-0.0104,2052
8,0.5762,-0.6956,-0.229,0.2631,0.2835,0.0071,2049
8,0.5811,-0.6997,-0.2036,0.2452,0.2262,0.0185,2055
8,0.5876,-0.7039,-0.1929,0.2191,0.163,0.033,2049
8,0.5884,-0.7019,-0.1843,0.1802,0.0928,0.0373,2049
8,0.5918,-0.7126,-0.1948,0.1458,0.012,0.036,2047
8,0.5999,-0.7168,-0.2273,0.1336,-0.0581,0.0305,2052
8,0.6038,-0.7468,-0.2512,0.106,-0.0953,0.0158,2053
8,0.6082,-0.752,-0.2625,0.0638,-0.0808,-0.0059,2049
8,0.6201,-0.7568,-0.2603,0.0265,-0.082,-0.0256,2050
8,0.6218,-0.7412,-0.2686,0.0064,-0.0754,-0.0445,2056
8,0.6384,-0.7307,-0.2612,0.0141,-0.0443,-0.0641,2049
8,0.626,-0.7158,-0.2307,0.0622,-0.0019,-0.0481,2050
8,0.6702,-0.731,-0.2061,0.0514,0.008,0.0055,2051
8,0.7334,-0.7322,-0.25,0.0213,-0.0991,-0.0201,2051
8,0.7175,-0.7332,-0.251,0.0533,-0.1425,-0.0357,2051
8,0.6604,-0.7334,-0.2124,0.1338,-0.0947,0.0293,2053
8,0.6965,-0.7517,-0.1926,0.1392,-0.1701,0.0534,2052
8,0.6877,-0.7395,-0.2085,0.1736,-0.2502,0.0498,2052
8,0.6655,-0.7422,-0.2207,0.2024,-0.2217,0.0723,2053
8,0.6479,-0.7302,-0.2302,0.1333,-0.2334,0.1005,2050
8,0.6418,-0.7283,-0.2463,0.1421,-0.2409,0.075,2052
8,0.6365,-0.7578,-0.2344,0.1539,-0.1662,0.0707,2056
8,0.6208,-0.7383,-0.2463,0.206,-0.0758,0.0808,2052
8,0.6128,-0.7507,-0.2107,0.1451,-0.0232,0.0503,2054
8,0.5889,-0.761,-0.2036,0.1364,0.0353,0.0956,2050
8,0.5815,-0.7224,-0.2026,0.2043,0.091,0.0882,2050
8,0.6069,-0.7197,-0.1968,0.2173,0.0887,0.1004,2052
8,0.6003,-0.7283,-0.1948,0.236,0.0719,0.1011,2050
8,0.6077,-0.7458,-0.2046,0.2312,0.0172,0.1047,2052
8,0.6089,-0.75,-0.2039,0.2049,-0.0446,0.1133,2053
8,0.5798,-0.7351,-0.2058,0.2121,-0.0875,0.0814,2048
8,0.5513,-0.7446,-0.2117,0.1934,-0.1029,0.0754,2050
8,0.5391,-0.7451,-0.2004,0.198,-0.0759,0.0565,2050
8,0.5396,-0.7576,-0.1936,0.1722,-0.0248,0.024,2048
8,0.5574,-0.7593,-0.2009,0.1509,0.0132,-0.0017,2050
8,0.5828,-0.769,-0.1963,0.1376,0.0399,-0.0154,2057
8,0.5872,-0.7651,-0.1924,0.1385,0.0202,-0.0501,2051
8,0.5974,-0.761,-0.1934,0.1144,-0.018,-0.0683,2050
8,0.6201,-0.7666,-0.1875,0.1276,-0.0811,-0.0834,2049
8,0.626,-0.7727,-0.1838,0.125,-0.1083,-0.076,2054
8,0.6118,-0.7744,-0.1675,0.1117,-0.1063,-0.053,2053
8,0.5991,-0.77,-0.179,0.1193,-0.0947,-0.0346,2051
8,0.6072,-0.7834,-0.1853,0.1229,-0.061,-0.0075,2051
8,0.6111,-0.7874,-0.1838,0.1246,-0.0318,0.0116,2051
8,0.6255,-0.7825,-0.1816,0.135,-0.014,0.0354,2052
8,0.6238,-0.7896,-0.1943,0.1196,0.0059,0.0405,2050
8,0.6221,-0.7983,-0.2166,0.0959,0.0136,0.0493,2053
8,0.6389,-0.7974,-0.2217,0.0824,0.0116,0.0521,2051
8,0.636,-0.7869,-0.2349,0.0774,0.0298,0.0493,2048
8,0.6399,-0.7869,-0.2241,0.0621,0.0514,0.0602,2049
8,0.6377,-0.7766,-0.2222,0.0538,0.0629,0.07,2044
8,0.6357,-0.7661,-0.208,0.0489,0.0786,0.0899,2048
8,0.6343,-0.7634,-0.22,0.0322,0.0895,0.1059,2050
8,0.626,-0.7651,-0.2285,0.0293,0.078,0.1297,2049
8,0.6328,-0.7678,-0.2375,0.049,0.0511,0.1405,2050
8,0.6272,-0.7744,-0.2327,0.0555,0.0397,0.1511,2045
9,0.6226,-0.7822,-0.2175,0.0241,0.0455,0.1639,2051
9,0.6084,-0.7908,-0.2231,-0.0029,0.053,0.1679,2048
9,0.6101,-0.7827,-0.2295,-0.0053,0.0463,0.1482,2046
9,0.6301,-0.7959,-0.2422,-0.0049,0.0071,0.1491,2052
9,0.6062,-0.781,-0.2239,-0.0216,-0.0142,0.1386,2048
9,0.5916,-0.7668,-0.2058,-0.0298,-0.0583,0.1507,2051
9,0.5918,-0.7668,-0.2175,-0.0403,-0.1053,0.1453,2050
9,0.595,-0.7698,-0.2078,-0.0591,-0.1424,0.1455,2047
9,0.582,-0.7646,-0.2048,-0.089,-0.1828,0.1539,2050
9,0.5713,-0.7681,-0.199,-0.1071,-0.2196,0.1597,2057
9,0.5657,-0.7805,-0.208,-0.1099,-0.2294,0.1691,2052
9,0.5732,-0.7949,-0.2229,-0.0971,-0.2306,0.1792,2052
9,0.5786,-0.804,-0.2222,-0.0752,-0.2196,0.1898,2052
9,0.5901,-0.814,-0.2446,-0.0316,-0.2005,0.1948,2055
9,0.5991,-0.8179,-0.248,0.0216,-0.1876,0.1899,2048
9,0.5896,-0.8145,-0.2419,0.038,-0.1701,0.171,2051
9,0.5835,-0.813,-0.2244,0.0374,-0.1689,0.1469,2053
9,0.5671,-0.7988,-0.2109,0.0386,-0.1706,0.1365,2049
9,0.5549,-0.7837,-0.1982,0.0109,-0.181,0.1133,2047
9,0.5269,-0.7595,-0.1758,-0.0197,-0.1856,0.0879,2045
9,0.5261,-0.7485,-0.1658,-0.0541,-0.1912,0.066,2052
9,0.4907,-0.7305,-0.1533,-0.0939,-0.1996,0.0517,2049
9,0.4626,-0.7122,-0.1309,-0.1151,-0.1694,0.0513,2047
9,0.4561,-0.686,-0.1311,-0.119,-0.1056,-0.0061,2054
9,0.4478,-0.697,-0.125,-0.1064,-0.0352,-0.0101,2045
9,0.4497,-0.6943,-0.1125,-0.0856,0.0328,-0.0619,2051
9,0.4529,-0.7183,-0.0791,-0.092,0.0523,-0.0719,2048
9,0.4758,-0.7327,-0.0867,-0.1035,0.03,-0.125,2048
9,0.5012,-0.7498,-0.0806,-0.1079,-0.019,-0.1567,2043
9,0.512,-0.7598,-0.1025,-0.1121,-0.0863,-0.1831,2053
9,0.5452,-0.7776,-0.1309,-0.1099,-0.1408,-0.1935,2050
9,0.5605,-0.7805,-0.145,-0.0581,-0.1666,-0.1969,2052
9,0.5759,-0.7781,-0.1755,-0.0337,-0.2557,-0.2205,2055
9,0.562,-0.7988,-0.1741,-0.0003,-0.2702,-0.2185,2049
9,0.584,-0.7871,-0.1982,0.0029,-0.3143,-0.2643,2047
9,0.5952,-0.7766,-0.2268,0.0437,-0.3165,-0.2506,2050
9,0.5872,-0.7734,-0.2366,0.065,-0.3179,-0.2175,2063
9,0.5955,-0.782,-0.2607,0.0795,-0.3109,-0.2161,2053
9,0.6382,-0.7783,-0.2927,0.1129,-0.3674,-0.1818,2053
9,0.644,-0.7981,-0.3118,0.1124,-0.3942,-0.1778,2047
9,0.6638,-0.8171,-0.3591,0.1433,-0.4521,-0.1366,2053
9,0.7021,-0.8181,-0.3706,0.1447,-0.5272,-0.1101,2047
9,0.7029,-0.8464,-0.3596,0.1147,-0.5148,-0.0981,2051
9,0.6589,-0.8655,-0.3589,0.0812,-0.4141,-0.0597,2048
9,0.6401,-0.8723,-0.3721,0.0739,-0.3075,-0.0173,2050
9,0.6245,-0.8596,-0.4094,0.1141,-0.1788,0.0189,2053
9,0.6274,-0.8867,-0.3843,0.1393,-0.032,0.0707,2049
9,0.6099,-0.8706,-0.356,0.1289,0.1454,0.124,2058
9,0.5969,-0.8496,-0.3118,0.0878,0.2978,0.1412,2052
9,0.5623,-0.8108,-0.2712,0.0433,0.4325,0.1896,2051
9,0.5542,-0.7937,-0.2229,0.0027,0.5284,0.2412,2050
9,0.5532,-0.783,-0.165,-0.0535,0.596,0.2574,2053
9,0.5559,-0.7769,-0.1382,-0.1523,0.6072,0.2804,2050
9,0.5686,-0.782,-0.1255,-0.2084,0.5916,0.3043,2053
9,0.5679,-0.7876,-0.1174,-0.2713,0.5754,0.3101,2043
9,0.543,-0.7878,-0.1328,-0.3285,0.5498,0.3039,2054
9,0.5137,-0.7656,-0.1418,-0.351,0.5116,0.2846,2050
9,0.5042,-0.7515,-0.1543,-0.3341,0.4838,0.2542,2052
9,0.4841,-0.7422,-0.1697,-0.3398,0.4579,0.2188,2053
9,0.4773,-0.7385,-0.1772,-0.3314,0.4416,0.1772,2046
9,0.4897,-0.7375,-0.1987,-0.3476,0.436,0.1341,2049
9,0.5022,-0.7393,-0.1794,-0.3396,0.3979,0.0939,2055
9,0.5164,-0.7402,-0.1851,-0.347,0.3004,0.0563,2052
9,0.5164,-0.728,-0.1848,-0.3332,0.2265,0.0209,2053
9,0.5352,-0.73,-0.1904,-0.3293,0.1157,0.0107,2052
9,0.5486,-0.7302,-0.2046,-0.2818,0.0134,-0.0234,2050
9,0.5781,-0.7271,-0.2319,-0.2152,-0.088,-0.0439,2053
9,0.5811,-0.74,-0.2373,-0.1503,-0.1875,-0.0595,2048
9,0.6194,-0.7805,-0.2368,-0.1019,-0.2988,-0.0581,2050
9,0.6248,-0.7988,-0.2471,-0.0489,-0.3741,-0.0712,2051
9,0.6245,-0.8149,-0.2612,-0.0411,-0.3975,-0.0653,2051
9,0.6072,-0.8164,-0.2654,-0.0186,-0.3703,-0.0349,2052
9,0.5977,-0.8196,-0.2791,-0.0395,-0.3326,-0.0386,2052
9,0.5869,-0.8245,-0.2878,-0.0433,-0.2577,-0.0224,2049
9,0.5793,-0.8232,-0.3,-0.0384,-0.1683,0.0008,2055
9,0.5752,-0.8247,-0.29,-0.0411,-0.0699,0.0304,2049
9,0.5669,-0.8245,-0.293,-0.0317,0.0354,0.0645,2051
9,0.5613,-0.8147,-0.2944,-0.0298,0.1262,0.0791,2048
9,0.5581,-0.804,-0.2849,-0.0222,0.1948,0.0856,2046
9,0.5835,-0.8274,-0.2598,-0.0506,0.235,0.1144,2050
9,0.554,-0.8318,-0.2603,-0.0768,0.2691,0.1313,2054
9,0.5403,-0.8064,-0.2395,-0.08,0.2951,0.1289,2053
9,0.5198,-0.8066,-0.2156,-0.1264,0.2914,0.1599,2053
9,0.5095,-0.8049,-0.2166,-0.1574,0.2775,0.151,2050
9,0.5081,-0.8069,-0.2107,-0.1642,0.3017,0.1451,2058
9,0.5085,-0.7832,-0.2114,-0.1687,0.3438,0.1344,2050
9,0.5054,-0.7749,-0.2107,-0.1561,0.3582,0.1289,2054
9,0.5137,-0.7761,-0.2131,-0.1521,0.3406,0.1116,2052
9,0.5024,-0.772,-0.2217,-0.1249,0.3072,0.0822,2057
9,0.5012,-0.7542,-0.2302,-0.1465,0.2926,0.0457,2049
9,0.4995,-0.7527,-0.2129,-0.1539,0.2727,0.0145,2052
9,0.5129,-0.7546,-0.2112,-0.1665,0.2017,-0.0306,2052
9,0.5186,-0.7478,-0.2131,-0.1611,0.1386,-0.0702,2049
9,0.5249,-0.7368,-0.2078,-0.1646,0.068,-0.0908,2052
9,0.5447,-0.7415,-0.2153,-0.1573,-0.0003,-0.1013,2048
9,0.5701,-0.7788,-0.2412,-0.1288,-0.0602,-0.0807,2051
9,0.5823,-0.7942,-0.2444,-0.0854,-0.0964,-0.0775,2054
9,0.5898,-0.8035,-0.2756,-0.049,-0.136,-0.0666,2053
9,0.5957,-0.8159,-0.2839,-0.0228,-0.165,-0.0679,2049
9,0.603,-0.8174,-0.2776,0.0156,-0.1883,-0.0852,2051
9,0.5906,-0.8191,-0.2637,0.0376,-0.195,-0.0995,2048
9,0.5806,-0.811,-0.2664,0.0385,-0.191,-0.1061,2052
9,0.5779,-0.7979,-0.2612,0.0461,-0.1784,-0.1071,2046
10,0.5627,-0.7903,-0.2576,0.0559,-0.1376,-0.09,2053
10,0.564,-0.7866,-0.2461,0.0549,-0.0991,-0.0643,2050
10,0.5508,-0.7837,-0.2346,0.0602,-0.0487,-0.0344,2050
10,0.5508,-0.7881,-0.2231,0.0423,-0.0148,-0.0246,2051
10,0.5486,-0.7754,-0.23,0.0332,0.0264,-0.0193,2053
10,0.5605,-0.7617,-0.2314,0.0298,0.0559,-0.0178,2055
10,0.5747,-0.7551,-0.2251,0.0205,0.0571,-0.0162,2055
10,0.5627,-0.7578,-0.2227,0.0153,0.0654,-0.0256,2051
10,0.5537,-0.7534,-0.2266,-0.0028,0.0759,-0.0506,2050
10,0.5464,-0.749,-0.2432,-0.02,0.0783,-0.0675,2046
10,0.5522,-0.76,-0.2327,-0.0401,0.1242,-0.067,2048
10,0.55,-0.771,-0.2285,-0.0682,0.1623,-0.0633,2047
10,0.5479,-0.7681,-0.2271,-0.0378,0.1782,-0.071,2048
10,0.5464,-0.7761,-0.2478,-0.0429,0.2325,-0.0561,2051
10,0.5435,-0.7971,-0.262,-0.0378,0.2713,-0.0582,2048
10,0.5598,-0.8071,-0.2607,-0.0425,0.284,-0.0842,2052
10,0.5691,-0.811,-0.2632,-0.0457,0.3184,-0.1085,2048
10,0.5913,-0.8081,-0.2388,-0.0535,0.2964,-0.135,2054
10,0.6189,-0.7957,-0.2156,-0.0366,0.2152,-0.1587,2052
10,0.6501,-0.7871,-0.1736,-0.0081,0.0983,-0.1416,2047
10,0.6587,-0.7947,-0.1687,0.0069,-0.0111,-0.1185,2048
10,0.667,-0.7898,-0.1858,0.0076,-0.1393,-0.1095,2053
10,0.6418,-0.7888,-0.1943,-0.0008,-0.2184,-0.0739,2051
10,0.6174,-0.7925,-0.2256,-0.0043,-0.234,-0.0637,2057
10,0.6125,-0.7805,-0.2336,0.0084,-0.2107,-0.0699,2047
10,0.6184,-0.7769,-0.2422,0.0178,-0.183,-0.0433,2045
10,0.6003,-0.7803,-0.2537,0.03,-0.1334,-0.0237,2052
10,0.5745,-0.7661,-0.2476,0.047,-0.0603,0.0051,2050
10,0.564,-0.7629,-0.2356,0.0495,0.0208,0.0209,2047
10,0.5698,-0.7739,-0.2261,0.0549,0.0999,0.0312,2051
10,0.5696,-0.7717,-0.207,0.0356,0.1856,0.0304,2052
10,0.5618,-0.7778,-0.1997,0.0056,0.2272,0.0274,2055
10,0.5535,-0.781,-0.2041,-0.0258,0.2434,0.0144,2054
10,0.5649,-0.7839,-0.1956,-0.0246,0.2642,0.0134,2047
10,0.5769,-0.78,-0.2026,-0.0286,0.2526,0.0051,2049
10,0.5784,-0.7744,-0.2034,-0.037,0.2191,0.0023,2049
10,0.5986,-0.772,-0.2183,-0.0392,0.1784,0.0039,2054
10,0.594,-0.7712,-0.2134,-0.0417,0.125,0.0088,2049
10,0.5906,-0.7812,-0.2222,-0.045,0.0784,0.0117,2054
10,0.5752,-0.7849,-0.2361,-0.0541,0.0606,0.0023,2048
10,0.5706,-0.7922,-0.2588,-0.0483,0.0911,-0.0111,2053
10,0.5728,-0.7898,-0.2542,-0.0531,0.1238,-0.004,2046
10,0.5659,-0.7852,-0.2368,-0.047,0.1449,-0.0021,2049
10,0.5713,-0.7788,-0.2246,-0.0333,0.1565,-0.0004,2053
10,0.5679,-0.7847,-0.2241,-0.0333,0.1424,0.0079,2050
10,0.5857,-0.7876,-0.2183,-0.0284,0.1204,0.0124,2049
10,0.5791,-0.7898,-0.2163,-0.0158,0.1032,0.0115,2051
10,0.5713,-0.7856,-0.2029,-0.0113,0.0904,0.0131,2050
10,0.5652,-0.7869,-0.2163,-0.017,0.0629,0.0127,2050
10,0.5554,-0.782,-0.1997,-0.0212,0.0324,0.0043,2051
10,0.55,-0.7764,-0.2102,-0.0332,0.0173,-0.002,2051
10,0.5513,-0.7734,-0.2029,-0.0413,0.0134,-0.012,2052
10,0.5535,-0.7786,-0.2151,-0.0473,0.0164,-0.021,2060
10,0.5581,-0.769,-0.2075,-0.0392,0.0206,-0.0293,2049
10,0.5571,-0.7627,-0.2087,-0.0369,0.0097,-0.0317,2055
10,0.5627,-0.7673,-0.1948,-0.0399,-0.0063,-0.0334,2050
10,0.5642,-0.7659,-0.2053,-0.0372,-0.0254,-0.0381,2048
10,0.5649,-0.7664,-0.2063,-0.0423,-0.0503,-0.0457,2051
10,0.5659,-0.7593,-0.2136,-0.0487,-0.067,-0.0526,2053
10,0.5662,-0.7644,-0.2307,-0.051,-0.0779,-0.0569,2052
10,0.5598,-0.7793,-0.2217,-0.0627,-0.0921,-0.0503,2050
10,0.5708,-0.7783,-0.2312,-0.0613,-0.1036,-0.057,2045
10,0.5759,-0.7854,-0.2234,-0.0559,-0.106,-0.0567,2051
10,0.5862,-0.7869,-0.2407,-0.055,-0.1045,-0.0534,2058
10,0.5791,-0.7886,-0.2471,-0.0474,-0.0937,-0.0663,2054
10,0.5796,-0.7922,-0.2314,-0.0414,-0.0602,-0.0798,2048
10,0.5784,-0.7974,-0.2302,-0.0298,-0.0334,-0.0886,2052
10,0.5793,-0.7976,-0.2458,-0.0254,-0.0507,-0.0996,2054
10,0.5764,-0.7866,-0.2222,-0.0109,-0.0537,-0.1063,2056
10,0.5852,-0.7795,-0.2271,-0.0127,-0.0427,-0.0956,2047
10,0.592,-0.7754,-0.2183,-0.0115,-0.0377,-0.0971,2053
10,0.5898,-0.772,-0.2026,-0.0228,-0.0406,-0.0827,2055
10,0.583,-0.7686,-0.2085,-0.0453,-0.0407,-0.0627,2048
10,0.5823,-0.7695,-0.21,-0.053,-0.0413,-0.0543,2048
10,0.5903,-0.7705,-0.228,-0.0547,-0.0405,-0.0481,2050
10,0.5847,-0.7771,-0.2288,-0.0535,-0.0483,-0.0308,2052
10,0.5972,-0.7883,-0.2246,-0.0585,-0.0478,-0.0193,2051
10,0.5681,-0.7788,-0.2339,-0.0578,-0.0233,-0.0214,2051
10,0.5674,-0.7849,-0.2285,-0.0569,-0.0021,-0.0333,2050
10,0.5847,-0.78,-0.2329,-0.0515,0.0096,-0.0384,2050
10,0.5859,-0.7878,-0.2332,-0.0413,0.0318,-0.0441,2047
10,0.5886,-0.7773,-0.2458,-0.0378,0.0655,-0.0447,2053
10,0.5769,-0.7747,-0.2244,-0.0345,0.0807,-0.0377,2045
10,0.5847,-0.7769,-0.2305,-0.024,0.0864,-0.0394,2049
10,0.5872,-0.77,-0.2253,-0.0202,0.0891,-0.0369,2051
10,0.594,-0.7729,-0.2173,-0.0216,0.074,-0.032,2049
10,0.5925,-0.7688,-0.2178,-0.0189,0.0531,-0.0237,2052
10,0.585,-0.7727,-0.2144,-0.021,0.0431,-0.0134,2050
10,0.5825,-0.771,-0.228,-0.0276,0.0272,-0.0085,2049
10,0.5808,-0.7646,-0.2246,-0.0324,0.0244,-0.0107,2053
10,0.5798,-0.7705,-0.2217,-0.038,0.0329,-0.0073,2052
10,0.5811,-0.7781,-0.2205,-0.0362,0.033,-0.012,2049
10,0.5823,-0.7712,-0.2251,-0.033,0.0328,-0.0186,2049
10,0.5901,-0.771,-0.2302,-0.0357,0.0365,-0.0222,2055
10,0.5784,-0.7754,-0.2395,-0.0414,0.0329,-0.0309,2050
10,0.5735,-0.7676,-0.2327,-0.0318,0.0384,-0.0322,2051
10,0.5779,-0.7639,-0.2273,-0.0454,0.0305,-0.0284,2049
10,0.5864,-0.7664,-0.2224,-0.0499,0.0063,-0.0293,2054
10,0.5842,-0.7646,-0.2283,-0.0454,-0.0019,-0.0208,2051
10,0.5862,-0.7612,-0.2261,-0.0479,-0.004,-0.0156,2051
10,0.5852,-0.7678,-0.2249,-0.0477,-0.0202,-0.02,2053
10,0.5798,-0.7703,-0.2158,-0.0525,-0.0401,-0.0234,2049
11,0.5845,-0.7695,-0.2356,-0.0587,-0.0465,-0.0332,2049
11,0.6011,-0.7622,-0.2346,-0.0551,-0.0523,-0.0434,2050
11,0.5981,-0.7581,-0.25,-0.0494,-0.0558,-0.0571,2048
11,0.6045,-0.7683,-0.2502,-0.0471,-0.0718,-0.0643,2049
11,0.6179,-0.762,-0.2458,-0.0585,-0.096,-0.0754,2047
11,0.6211,-0.7649,-0.2493,-0.0406,-0.1168,-0.0613,2053
11,0.6079,-0.7673,-0.2488,-0.0415,-0.1169,-0.0499,2051
11,0.6138,-0.7771,-0.252,-0.0406,-0.1161,-0.0297,2050
11,0.6033,-0.7781,-0.2722,-0.0166,-0.09,-0.016,2053
11,0.5964,-0.7832,-0.2461,-0.0181,-0.0551,0.0032,2051
11,0.6067,-0.7898,-0.2361,-0.017,-0.0373,0.0224,2052
11,0.5938,-0.7905,-0.2373,-0.0117,-0.0293,0.0316,2048
11,0.5881,-0.79,-0.2222,-0.0169,-0.0216,0.0502,2050
11,0.5818,-0.7861,-0.2295,-0.0427,-0.0337,0.0518,2053
11,0.5818,-0.7847,-0.2336,-0.0646,-0.0559,0.0545,2048
11,0.5854,-0.7854,-0.2378,-0.0812,-0.0746,0.0577,2049
11,0.5718,-0.7825,-0.2449,-0.0919,-0.0956,0.0646,2049
11,0.561,-0.7783,-0.2617,-0.1017,-0.1,0.0642,2053
11,0.5532,-0.7717,-0.2634,-0.0932,-0.0919,0.0641,2052
11,0.5474,-0.7637,-0.2681,-0.0767,-0.0776,0.0599,2049
11,0.5442,-0.7656,-0.2563,-0.0615,-0.065,0.0541,2053
11,0.5396,-0.7563,-0.2488,-0.0625,-0.0467,0.0483,2056
11,0.5344,-0.7593,-0.2554,-0.0626,-0.03,0.0406,2051
11,0.5293,-0.7593,-0.2473,-0.0515,-0.0181,0.0361,2049
11,0.5317,-0.7605,-0.248,-0.0563,-0.022,0.0145,2051
11,0.5337,-0.7603,-0.2407,-0.0517,-0.0037,0.0131,2047
11,0.5542,-0.77,-0.2324,-0.0467,-0.002,0.0095,2049
11,0.5608,-0.7729,-0.23,-0.0369,-0.0184,-0.0023,2051
11,0.5647,-0.7837,-0.2341,-0.036,-0.0425,-0.0105,2048
11,0.5754,-0.7786,-0.2356,-0.0316,-0.0615,-0.0148,2053
11,0.5728,-0.7883,-0.2397,-0.0197,-0.0726,-0.0113,2053
11,0.5754,-0.7927,-0.2363,-0.0104,-0.0706,-0.0076,2053
11,0.5847,-0.7969,-0.2375,-0.0349,-0.073,-0.0276,2052
11,0.5854,-0.7944,-0.2622,-0.0399,-0.0879,-0.0166,2048
11,0.5852,-0.7993,-0.2573,-0.0306,-0.0647,-0.0084,2049
11,0.5854,-0.7888,-0.2729,-0.0224,-0.0353,0.0073,2050
11,0.5823,-0.7942,-0.2756,-0.0348,-0.0402,0.0176,2051
11,0.573,-0.7925,-0.2783,-0.0401,-0.0176,0.0312,2054
11,0.5671,-0.7983,-0.2759,-0.0288,0.0201,0.0426,2050
11,0.5537,-0.7915,-0.2712,-0.0274,0.053,0.0525,2048
11,0.5544,-0.7876,-0.2712,-0.0268,0.0796,0.0607,2051
11,0.5493,-0.7849,-0.2678,-0.031,0.1129,0.0613,2051
11,0.5447,-0.7808,-0.2627,-0.0342,0.1328,0.0502,2047
11,0.5386,-0.7808,-0.2446,-0.0378,0.1458,0.0401,2052
11,0.5549,-0.7742,-0.2415,-0.0427,0.1485,0.0288,2052
11,0.5662,-0.7708,-0.2363,-0.0534,0.1237,0.0245,2051
11,0.5688,-0.7749,-0.2346,-0.0646,0.0776,0.0237,2053
11,0.5613,-0.7791,-0.2266,-0.068,0.0459,0.025,2046
11,0.561,-0.7693,-0.2324,-0.0662,0.0471,0.0258,2049
11,0.5647,-0.7737,-0.2478,-0.0598,0.0429,0.0206,2055
11,0.5732,-0.78,-0.2622,-0.0507,0.0329,0.0229,2047
11,0.5779,-0.7722,-0.2603,-0.0358,0.0148,0.0232,2052
11,0.571,-0.772,-0.2637,-0.0298,0.02,0.0342,2052
11,0.5635,-0.7793,-0.2722,-0.0334,0.0345,0.0333,2048
11,0.5652,-0.7805,-0.2698,-0.0317,0.0333,0.0253,2049
11,0.5615,-0.7847,-0.269,-0.026,0.0362,0.0202,2051
11,0.5637,-0.7852,-0.2627,-0.03,0.0433,0.0232,2052
11,0.5532,-0.7876,-0.2607,-0.0226,0.0515,0.029,2049
11,0.553,-0.783,-0.2539,-0.0213,0.0611,0.036,2048
11,0.5449,-0.7874,-0.2471,-0.0341,0.0585,0.0407,2055
11,0.5486,-0.7891,-0.2524,-0.0459,0.0566,0.0386,2045
11,0.5544,-0.7964,-0.2556,-0.0477,0.0567,0.0308,2049
11,0.5483,-0.7891,-0.2515,-0.0502,0.0647,0.0281,2050
11,0.554,-0.7839,-0.2532,-0.0514,0.0642,0.0205,2058
11,0.553,-0.782,-0.2539,-0.0473,0.0595,0.0169,2052
11,0.5479,-0.7866,-0.2415,-0.0499,0.0479,0.0132,2047
11,0.5459,-0.7754,-0.248,-0.0494,0.0398,0.0104,2045
11,0.5457,-0.7705,-0.2373,-0.0438,0.0253,-0.0017,2049
11,0.5461,-0.7627,-0.2537,-0.0409,-0.0056,-0.0095,2054
11,0.5527,-0.7705,-0.2537,-0.0349,-0.0373,-0.0138,2054
11,0.5564,-0.7656,-0.2517,-0.0329,-0.0571,-0.0156,2044
11,0.5566,-0.7683,-0.2437,-0.0278,-0.0621,-0.0173,2056
11,0.5452,-0.7764,-0.2568,-0.03,-0.0541,-0.0148,2051
11,0.5386,-0.7798,-0.2593,-0.0348,-0.0425,-0.0186,2050
11,0.5442,-0.7847,-0.2537,-0.0268,-0.0272,-0.0289,2051
11,0.5461,-0.7874,-0.2639,-0.0409,-0.0129,-0.0403,2053
11,0.5515,-0.7822,-0.2498,-0.0298,-0.0081,-0.0465,2053
11,0.5605,-0.7834,-0.2417,-0.0321,-0.0121,-0.0498,2051
11,0.5698,-0.7861,-0.2483,-0.0361,-0.0202,-0.0526,2049
11,0.5708,-0.7832,-0.2463,-0.0116,-0.0173,-0.0454,2051
11,0.5667,-0.7917,-0.2493,-0.0218,-0.0229,-0.0526,2052
11,0.5593,-0.7795,-0.259,-0.0176,-0.0152,-0.0491,2047
11,0.5564,-0.7883,-0.2676,-0.0218,0.002,-0.0395,2050
11,0.5417,-0.7888,-0.2546,-0.0238,0.0246,-0.0491,2053
11,0.5378,-0.7864,-0.2598,-0.0322,0.0553,-0.0676,2049
11,0.551,-0.7786,-0.2581,-0.0242,0.0695,-0.0764,2053
11,0.5684,-0.7705,-0.26,-0.0093,0.0647,-0.0822,2051
11,0.5713,-0.7773,-0.2581,0.0029,0.0459,-0.08,2057
11,0.5708,-0.7817,-0.2529,0.0103,0.0146,-0.079,2051
11,0.5642,-0.7783,-0.2549,0.0182,-0.0047,-0.0826,2052
11,0.5684,-0.7769,-0.2542,0.0236,-0.0029,-0.0899,2051
11,0.5642,-0.7832,-0.2563,0.0334,0.0009,-0.0977,2054
11,0.5662,-0.7905,-0.2637,0.0337,-0.0039,-0.1099,2055
11,0.5583,-0.7764,-0.2808,0.0513,0.0023,-0.1282,2043
11,0.5522,-0.7708,-0.2664,0.0555,0.0233,-0.1384,2050
11,0.561,-0.7712,-0.2646,0.0478,0.0441,-0.1348,2050
11,0.5647,-0.7683,-0.2515,0.0337,0.031,-0.1398,2051
11,0.5725,-0.7612,-0.2383,0.053,0.027,-0.1312,2053
11,0.5776,-0.7739,-0.2358,0.0431,-0.0144,-0.1153,2055
11,0.5847,-0.78,-0.2373,0.0083,-0.0654,-0.1196,2050
11,0.5952,-0.7778,-0.2449,0.0148,-0.066,-0.1115,2052
12,0.5974,-0.783,-0.2383,0.0169,-0.068,-0.1015,2050
12,0.5947,-0.7898,-0.2466,0.0128,-0.0466,-0.0814,2054
12,0.5986,-0.7822,-0.2388,0.0075,-0.0269,-0.0686,2051
12,0.5786,-0.7864,-0.2378,-0.0032,-0.0027,-0.0489,2053
12,0.5796,-0.7905,-0.2437,-0.0108,0.0266,-0.039,2053
12,0.574,-0.783,-0.2444,-0.0293,0.0575,-0.0245,2049
12,0.5713,-0.7764,-0.2488,-0.0346,0.0739,-0.0178,2053
12,0.562,-0.7773,-0.2527,-0.0418,0.0848,-0.0091,2046
12,0.5618,-0.7732,-0.2466,-0.0494,0.0927,-0.0017,2048
12,0.5635,-0.7722,-0.2568,-0.0434,0.0969,-0.0065,2049
12,0.5596,-0.7744,-0.2563,-0.0433,0.0852,-0.0109,2055
12,0.5579,-0.7756,-0.2612,-0.038,0.0751,-0.0188,2057
12,0.5505,-0.7795,-0.2466,-0.0377,0.0653,-0.0261,2051
12,0.5505,-0.7781,-0.2595,-0.0312,0.0469,-0.0462,2047
12,0.5532,-0.7727,-0.2583,-0.0314,0.0469,-0.0659,2051
12,0.5662,-0.7717,-0.2583,-0.0296,0.028,-0.0742,2051
12,0.571,-0.7764,-0.2581,-0.021,0.0128,-0.0767,2051
12,0.5627,-0.7668,-0.2424,-0.0112,-0.0029,-0.076,2048
12,0.573,-0.7722,-0.2527,-0.0145,-0.0184,-0.0651,2051
12,0.5715,-0.7788,-0.251,-0.0049,-0.0218,-0.0617,2051
12,0.5767,-0.7817,-0.2458,0.0028,-0.0249,-0.0626,2051
12,0.5791,-0.7791,-0.2524,-0.0011,-0.0276,-0.0633,2052
12,0.5742,-0.7749,-0.24,0.0009,-0.0281,-0.0617,2050
12,0.5793,-0.7739,-0.2417,-0.0011,-0.0306,-0.0615,2051
12,0.5779,-0.7749,-0.2437,-0.0099,-0.0198,-0.0539,2049
12,0.5706,-0.7722,-0.2429,-0.022,-0.0214,-0.0581,2052
12,0.5635,-0.7654,-0.2483,-0.0332,-0.0149,-0.0531,2047
12,0.5684,-0.7686,-0.2539,-0.0382,-0.0008,-0.0507,2052
12,0.571,-0.77,-0.2544,-0.0381,-0.0036,-0.0486,2049
12,0.5803,-0.7725,-0.2556,-0.0357,-0.0072,-0.0462,2049
12,0.5835,-0.7668,-0.2563,-0.0385,-0.0031,-0.0462,2056
12,0.5786,-0.7676,-0.2461,-0.0438,-0.0036,-0.0395,2058
12,0.5837,-0.77,-0.2578,-0.0298,-0.0121,-0.0413,2051
12,0.5842,-0.7778,-0.2563,-0.0322,-0.0273,-0.0413,2050
12,0.574,-0.7744,-0.2764,0.0017,-0.03,-0.0358,2053
12,0.5693,-0.7639,-0.2551,-0.0001,-0.0193,-0.026,2048
12,0.5698,-0.7678,-0.2439,-0.006,-0.0234,-0.0318,2052
12,0.5706,-0.7634,-0.2585,-0.0369,-0.0696,-0.0499,2043
12,0.5654,-0.7795,-0.2371,-0.0121,-0.0332,-0.0361,2050
12,0.5605,-0.7737,-0.2444,-0.0425,-0.0407,-0.0594,2060
12,0.5684,-0.7681,-0.261,-0.0365,-0.0569,-0.0622,2050
12,0.5813,-0.7703,-0.2712,-0.028,-0.0458,-0.0746,2052
12,0.5854,-0.771,-0.2603,-0.0253,-0.0493,-0.0775,2053
12,0.5806,-0.7681,-0.2581,-0.0153,-0.0554,-0.0804,2053
12,0.5879,-0.7607,-0.2517,-0.0048,-0.0563,-0.0814,2057
12,0.582,-0.7654,-0.2427,-0.006,-0.0691,-0.0775,2046
12,0.5762,-0.7639,-0.2434,-0.0201,-0.083,-0.0892,2050
12,0.5779,-0.7617,-0.2471,-0.0177,-0.0678,-0.0804,2046
12,0.575,-0.7683,-0.2546,-0.0124,-0.0558,-0.0767,2055
12,0.5764,-0.771,-0.2502,-0.0214,-0.0423,-0.0739,2050
12,0.5894,-0.7742,-0.2605,-0.0201,-0.0356,-0.0724,2050
12,0.5955,-0.7751,-0.2617,-0.0356,-0.031,-0.0631,2063
12,0.5852,-0.7727,-0.271,-0.0368,-0.0382,-0.063,2048
12,0.5879,-0.7632,-0.2717,-0.0427,-0.038,-0.0609,2047
12,0.5852,-0.7661,-0.2776,-0.035,-0.0316,-0.0519,2052
12,0.5828,-0.7622,-0.2612,-0.0314,-0.0338,-0.0474,2049
12,0.5796,-0.7712,-0.2688,-0.0336,-0.0349,-0.0477,2051
12,0.5769,-0.7661,-0.2595,-0.0304,-0.0241,-0.047,2047
12,0.5757,-0.7664,-0.2556,-0.0398,-0.0324,-0.0591,2052
12,0.5801,-0.769,-0.2634,-0.0192,-0.0296,-0.0517,2055
12,0.5774,-0.7625,-0.2542,-0.0282,-0.0104,-0.0495,2052
12,0.5781,-0.7634,-0.2507,-0.0262,-0.01,-0.0461,2047
12,0.5825,-0.7637,-0.2493,-0.0329,-0.0105,-0.0503,2048
12,0.5786,-0.761,-0.2566,-0.0314,-0.0197,-0.0526,2048
12,0.5786,-0.76,-0.2554,-0.0258,-0.0329,-0.0551,2051
12,0.5828,-0.7581,-0.2607,-0.0329,-0.045,-0.0529,2054
12,0.5862,-0.762,-0.2578,-0.0395,-0.0551,-0.0519,2045
12,0.5759,-0.7551,-0.2542,-0.0461,-0.0787,-0.0537,2049
12,0.5806,-0.7563,-0.2712,-0.0555,-0.0917,-0.0602,2052
12,0.5894,-0.7568,-0.2705,-0.0491,-0.0957,-0.0647,2050
12,0.594,-0.7554,-0.2839,-0.0534,-0.1107,-0.0599,2052
12,0.5967,-0.7581,-0.281,-0.0535,-0.128,-0.0482,2049
12,0.5806,-0.7583,-0.2749,-0.0591,-0.1337,-0.0461,2050
12,0.5728,-0.752,-0.2751,-0.0562,-0.1269,-0.0481,2046
12,0.5818,-0.7637,-0.2747,-0.053,-0.1137,-0.0497,2047
12,0.5852,-0.7734,-0.2832,-0.0543,-0.1067,-0.0505,2046
12,0.5835,-0.7686,-0.3074,-0.023,-0.0956,-0.0518,2049
12,0.5776,-0.7556,-0.2793,-0.0101,-0.0682,-0.0433,2053
12,0.5828,-0.7664,-0.2747,-0.0125,-0.0625,-0.0489,2048
12,0.585,-0.7664,-0.2759,0.0009,-0.0517,-0.0534,2050
12,0.5942,-0.7676,-0.2666,0.0056,-0.0494,-0.057,2052
12,0.5906,-0.7664,-0.2612,-0.0065,-0.0515,-0.0533,2047
12,0.5884,-0.7705,-0.2739,-0.0129,-0.0667,-0.0554,2050
12,0.5952,-0.7561,-0.2664,-0.0197,-0.0719,-0.0475,2050
12,0.5938,-0.7576,-0.269,-0.0332,-0.0774,-0.043,2051
12,0.5908,-0.7524,-0.2676,-0.0401,-0.0866,-0.0336,2050
12,0.584,-0.7593,-0.2683,-0.0395,-0.096,-0.0282,2047
12,0.583,-0.7593,-0.2717,-0.0426,-0.0775,-0.0278,2058
12,0.5847,-0.7517,-0.2795,-0.0421,-0.0547,-0.0172,2051
12,0.5874,-0.7561,-0.2688,-0.0415,-0.0342,-0.0101,2050
12,0.5889,-0.7576,-0.2793,-0.0458,-0.0242,0.0051,2052
12,0.584,-0.7556,-0.2793,-0.0446,-0.0197,0.0101,2052
12,0.5854,-0.7559,-0.2791,-0.0509,-0.0222,0.0176,2052
12,0.5879,-0.7642,-0.292,-0.0465,-0.0278,0.0246,2046
12,0.5791,-0.7622,-0.2874,-0.0423,-0.0345,0.0301,2053
12,0.5801,-0.7671,-0.29,-0.0392,-0.0505,0.031,2049
12,0.5701,-0.7651,-0.2881,-0.03,-0.0467,0.0341,2052
12,0.5701,-0.759,-0.2827,-0.0312,-0.0356,0.0342,2051
12,0.5708,-0.7705,-0.2856,-0.0258,-0.0309,0.0386,2049
12,0.5569,-0.7571,-0.2854,-0.0182,-0.0194,0.034,2050
12,0.5542,-0.7646,-0.2866,-0.0217,-0.0121,0.0301,2053
12,0.5642,-0.7551,-0.2844,-0.0165,-0.0048,0.0313,2049
12,0.5627,-0.762,-0.2725,-0.0174,0.0052,0.0292,2046
12,0.5574,-0.7646,-0.261,-0.0352,-0.0178,0.0264,2047
13,0.564,-0.7532,-0.2585,-0.0651,-0.0613,0.0286,2056
13,0.5737,-0.7544,-0.2776,-0.0766,-0.0659,0.0274,2050
13,0.5715,-0.7534,-0.292,-0.07,-0.0507,0.0197,2049
13,0.5725,-0.75,-0.2957,-0.0619,-0.0738,0.0204,2056
13,0.5786,-0.7493,-0.2888,-0.0348,-0.08,0.03,2052
13,0.5933,-0.7444,-0.2878,-0.0325,-0.091,0.0234,2056
13,0.5859,-0.7368,-0.2886,-0.0115,-0.0906,0.0162,2055
13,0.5681,-0.7512,-0.28,0.0104,-0.0941,0.0154,2050
13,0.5615,-0.7583,-0.2976,-0.0076,-0.0723,0.0001,2054
13,0.552,-0.7498,-0.3179,-0.028,-0.0629,-0.0035,2048
13,0.5525,-0.7603,-0.3259,-0.0517,-0.0505,0.0013,2049
13,0.5642,-0.7644,-0.3457,-0.0334,-0.0059,-0.0071,2052
13,0.5862,-0.751,-0.3354,-0.0152,0.0274,-0.0072,2053
13,0.5803,-0.7444,-0.3174,0.0015,0.0192,0.0061,2047
13,0.5793,-0.7527,-0.3093,0.019,0.0036,0.016,2050
13,0.5715,-0.7517,-0.293,0.0249,0.0047,0.0354,2050
13,0.5771,-0.7468,-0.303,0.0439,0.0019,0.0443,2053
13,0.5645,-0.7449,-0.2847,0.0378,-0.0152,0.0678,2051
13,0.5681,-0.7625,-0.2812,0.0115,-0.0405,0.0739,2051
13,0.5659,-0.7449,-0.2742,0.0373,0.0043,0.0586,2048
13,0.5686,-0.7646,-0.2544,-0.0107,-0.0113,0.0641,2046
13,0.5691,-0.7764,-0.2686,-0.0233,-0.0258,0.0715,2047
13,0.554,-0.7466,-0.2949,-0.0178,-0.0165,0.0653,2057
13,0.5586,-0.7576,-0.2952,-0.0253,-0.0453,0.0633,2054
13,0.5662,-0.7683,-0.2981,-0.0623,-0.0776,0.0778,2051
13,0.5452,-0.7651,-0.3003,-0.1033,-0.0859,0.0995,2060
13,0.531,-0.7683,-0.3159,-0.1562,-0.0376,0.1277,2048
13,0.5007,-0.7749,-0.3223,-0.2016,-0.012,0.1349,2052
13,0.4927,-0.7944,-0.3647,-0.2265,0.1112,0.1597,2052
13,0.4661,-0.7627,-0.3687,-0.1904,0.2372,0.1192,2049
13,0.4915,-0.7734,-0.3435,-0.1505,0.3466,0.1314,2053
13,0.5107,-0.8098,-0.311,-0.1653,0.3524,0.1682,2056
13,0.5085,-0.7485,-0.3079,-0.1447,0.3418,0.0459,2056
13,0.5544,-0.7661,-0.3169,-0.2473,0.2866,0.0867,2054
13,0.5591,-0.7544,-0.3398,-0.2904,0.2759,0.0637,2051
13,0.5359,-0.7437,-0.3428,-0.2794,0.2514,0.0815,2053
13,0.5269,-0.7227,-0.3352,-0.2462,0.2033,0.0638,2046
13,0.5259,-0.7214,-0.3179,-0.1477,0.2028,0.087,2052
13,0.5217,-0.7224,-0.3047,-0.0546,0.2139,0.0835,2050
13,0.5186,-0.7317,-0.2871,-0.034,0.2244,0.076,2046
13,0.5278,-0.7266,-0.3025,-0.0438,0.2208,0.0633,2051
13,0.5469,-0.7197,-0.3035,-0.0573,0.2228,0.0482,2048
13,0.5505,-0.7339,-0.304,-0.0641,0.2019,0.0557,2050
13,0.55,-0.7529,-0.2898,-0.0984,0.1752,0.022,2043
13,0.533,-0.7671,-0.3049,-0.1701,0.2241,-0.0176,2056
13,0.5193,-0.7419,-0.3223,-0.2111,0.2581,-0.0768,2051
13,0.509,-0.7036,-0.3533,-0.1506,0.324,-0.1015,2055
13,0.5447,-0.6873,-0.3645,-0.0542,0.2838,-0.0831,2046
13,0.511,-0.6492,-0.3562,0.0372,0.2269,-0.0607,2051
13,0.5037,-0.6069,-0.3516,0.1707,0.2904,-0.0929,2048
13,0.5427,-0.655,-0.3381,0.33,0.231,-0.0831,2051
13,0.5386,-0.6565,-0.3108,0.3406,0.1252,-0.1445,2050
13,0.5469,-0.6353,-0.3215,0.3304,0.0663,-0.294,2045
13,0.5696,-0.6721,-0.3684,0.3077,-0.0458,-0.4264,2054
13,0.6096,-0.728,-0.4119,0.2864,-0.2404,-0.5325,2062
13,0.6545,-0.7427,-0.396,0.2666,-0.314,-0.6146,2049
13,0.6189,-0.7891,-0.3914,0.3219,-0.4283,-0.6858,2051
13,0.5686,-0.8306,-0.3228,0.5159,-0.4113,-0.6719,2044
13,0.5146,-0.8696,-0.2302,0.8433,-0.3866,-0.593,2050
13,0.4883,-0.927,-0.1667,1.033,-0.4272,-0.5842,2047
13,0.5161,-0.9104,-0.1929,0.9676,-0.5066,-0.628,2053
13,0.6094,-0.8215,-0.2725,0.9155,-0.7123,-0.7026,2042
13,0.6763,-0.7603,-0.2842,0.9114,-0.9268,-0.7313,2065
13,0.6992,-0.7437,-0.2683,0.8885,-1.0228,-0.7124,2052
13,0.6584,-0.7632,-0.2439,0.7199,-1.012,-0.6381,2051
13,0.5671,-0.7727,-0.2842,0.5011,-0.9537,-0.5509,2056
13,0.5054,-0.7383,-0.3516,0.3827,-0.8779,-0.4544,2048
13,0.4944,-0.6985,-0.3699,0.439,-0.7826,-0.3836,2059
13,0.5278,-0.6956,-0.3418,0.5862,-0.673,-0.3528,2059
13,0.5713,-0.7253,-0.2688,0.6983,-0.5731,-0.3247,2037
13,0.5947,-0.7593,-0.2427,0.7634,-0.5144,-0.2935,2051
13,0.5908,-0.8137,-0.2146,0.7737,-0.4613,-0.2649,2049
13,0.5925,-0.8538,-0.2122,0.7136,-0.3967,-0.2498,2054
13,0.5869,-0.8601,-0.2192,0.5755,-0.3804,-0.2487,2053
13,0.593,-0.8367,-0.2388,0.4514,-0.4107,-0.2595,2051
13,0.6211,-0.7881,-0.2402,0.4397,-0.4213,-0.2266,2050
13,0.6289,-0.7781,-0.1641,0.403,-0.4141,-0.1874,2051
13,0.5947,-0.7708,-0.0881,0.3229,-0.3998,-0.1934,2049
13,0.5811,-0.7659,-0.0652,0.2505,-0.4722,-0.2294,2050
13,0.6218,-0.7444,-0.0378,0.2217,-0.5622,-0.2888,2062
13,0.6589,-0.7297,0.0034,0.2175,-0.6482,-0.3389,2051
13,0.6819,-0.7063,0.0022,0.1946,-0.7533,-0.3514,2051
13,0.7405,-0.6724,-0.019,0.1791,-0.9116,-0.398,2044
13,0.7407,-0.6682,-0.1489,-0.0229,-1.0388,-0.4369,2053
13,0.6843,-0.6902,-0.3289,-0.3151,-1.0069,-0.4221,2059
13,0.6626,-0.7163,-0.376,-0.3362,-0.8207,-0.3783,2052
13,0.6533,-0.7471,-0.3022,-0.2157,-0.6312,-0.3386,2060
13,0.689,-0.7576,-0.1763,-0.066,-0.5067,-0.3514,2047
13,0.6995,-0.7417,-0.0564,-0.0577,-0.3741,-0.3677,2056
13,0.6855,-0.7205,-0.0376,-0.2189,-0.3682,-0.388,2054
13,0.6775,-0.7317,-0.0852,-0.3296,-0.44,-0.4124,2049
13,0.6938,-0.7437,-0.0977,-0.3987,-0.5095,-0.4449,2055
13,0.7175,-0.7512,-0.0796,-0.4647,-0.5195,-0.4485,2052
13,0.6851,-0.7366,-0.0493,-0.6078,-0.4782,-0.4026,2056
13,0.6265,-0.6941,-0.0369,-0.7922,-0.4247,-0.3125,2056
13,0.5422,-0.6653,-0.1089,-0.9737,-0.236,-0.2647,2045
13,0.5161,-0.6414,-0.167,-1.003,-0.0333,-0.2915,2054
13,0.5903,-0.6567,-0.1978,-0.924,0.072,-0.3601,2050
13,0.7334,-0.6794,-0.2107,-0.8685,0.1458,-0.3725,2051
13,0.802,-0.7122,-0.1914,-0.8395,0.2273,-0.3053,2055
13,0.7996,-0.7488,-0.178,-0.9636,0.3361,-0.1988,2049
14,0.7644,-0.7324,-0.1641,-1.1573,0.3533,-0.1558,2058
14,0.7229,-0.6985,-0.1917,-1.3063,0.251,-0.1611,2046
14,0.6951,-0.6863,-0.1855,-1.4515,0.1511,-0.1724,2036
14,0.6567,-0.6763,-0.1943,-1.5524,0.1338,-0.1574,2053
14,0.6055,-0.6147,-0.2151,-1.5721,0.1823,-0.1418,2047
14,0.564,-0.6042,-0.2371,-1.5129,0.222,-0.1943,2050
14,0.6543,-0.6086,-0.217,-1.1274,-0.0288,-0.2217,2053
14,0.6233,-0.7224,-0.2646,-1.3214,0.0822,-0.2846,2055
14,0.6521,-0.7185,-0.3528,-1.4486,-0.0033,-0.3132,2053
14,0.6873,-0.6514,-0.5042,-1.5431,0.0336,-0.2947,2049
14,0.6536,-0.5786,-0.6313,-1.4595,0.2606,-0.1206,2048
14,0.5667,-0.522,-0.6721,-1.2326,0.5072,0.0168,2045
14,0.5591,-0.5322,-0.6545,-1.1017,0.6383,0.0645,2051
14,0.571,-0.5181,-0.6179,-0.9018,0.6637,0.1264,2053
14,0.6272,-0.448,-0.5886,-0.8218,0.5983,0.1362,2048
14,0.6868,-0.3359,-0.6057,-0.8325,0.5067,0.0599,2045
14,0.8157,-0.2969,-0.6382,-0.9833,0.3666,-0.0788,2058
14,0.8552,-0.355,-0.6794,-0.9172,0.1336,-0.0439,2050
14,0.8132,-0.4443,-0.6868,-0.8971,0.067,0.0146,2052
14,0.7356,-0.4297,-0.6838,-0.8265,0.1001,0.0747,2051
14,0.7004,-0.3657,-0.6821,-0.7223,0.2036,0.1016,2051
14,0.7134,-0.3467,-0.6667,-0.7231,0.3116,0.0772,2054
14,0.7373,-0.3218,-0.7241,-0.7293,0.3065,0.1192,2057
14,0.7495,-0.3643,-0.7146,-0.6111,0.2554,0.1301,2053
14,0.7876,-0.4453,-0.7119,-0.5508,0.2171,0.1382,2050
14,0.7363,-0.5232,-0.667,-0.4219,0.2093,0.143,2050
14,0.7222,-0.5278,-0.6377,-0.3851,0.1567,0.0072,2057
14,0.7356,-0.5083,-0.6287,-0.3015,0.0916,-0.1708,2031
14,0.801,-0.4858,-0.6233,-0.177,0.0473,-0.4315,2053
14,0.7842,-0.4817,-0.6133,-0.1163,0.0024,-0.5377,2050
14,0.7439,-0.5601,-0.627,-0.1313,-0.0517,-0.5534,2049
14,0.6873,-0.6021,-0.6494,-0.0578,-0.0647,-0.5062,2049
14,0.6707,-0.5869,-0.6587,0.0218,-0.1763,-0.4621,2041
14,0.6548,-0.5791,-0.6995,0.0085,-0.3231,-0.3866,2052
14,0.646,-0.5815,-0.7415,0.041,-0.377,-0.2871,2052
14,0.6289,-0.6208,-0.7053,0.1137,-0.3649,-0.2396,2050
14,0.5935,-0.6108,-0.6462,0.1555,-0.4128,-0.1915,2046
14,0.5659,-0.6018,-0.6277,0.1975,-0.4147,-0.2189,2047
14,0.5349,-0.5859,-0.6086,0.2274,-0.4085,-0.2546,2051
14,0.5164,-0.5769,-0.6157,0.2714,-0.4087,-0.3076,2055
14,0.5286,-0.5652,-0.5769,0.3011,-0.4317,-0.3785,2052
14,0.6045,-0.5603,-0.5476,0.3329,-0.439,-0.4344,2048
14,0.6318,-0.5496,-0.5063,0.3679,-0.4745,-0.4508,2046
14,0.623,-0.5344,-0.4917,0.3735,-0.5589,-0.4043,2053
14,0.6216,-0.5281,-0.5132,0.3863,-0.6151,-0.3967,2053
14,0.6221,-0.5405,-0.5579,0.4063,-0.6146,-0.4177,2053
14,0.6191,-0.5212,-0.5874,0.4823,-0.6236,-0.455,2055
14,0.6289,-0.4973,-0.5967,0.562,-0.6313,-0.483,2051
14,0.6289,-0.4917,-0.606,0.6348,-0.6267,-0.4927,2051
14,0.624,-0.4976,-0.6067,0.6963,-0.608,-0.505,2056
14,0.6125,-0.4978,-0.6062,0.7249,-0.5501,-0.5127,2049
14,0.6096,-0.4822,-0.6123,0.7365,-0.5413,-0.5502,2056
14,0.6143,-0.4849,-0.6328,0.7713,-0.561,-0.5827,2051
14,0.624,-0.478,-0.6223,0.814,-0.5988,-0.598,2050
14,0.6321,-0.4854,-0.625,0.8279,-0.6155,-0.6062,2051
14,0.6421,-0.4893,-0.6367,0.8316,-0.6108,-0.6028,2053
14,0.656,-0.4985,-0.678,0.8686,-0.599,-0.6074,2049
14,0.6443,-0.4968,-0.6548,0.9203,-0.6,-0.5906,2044
14,0.6431,-0.5002,-0.6272,0.9551,-0.6064,-0.5875,2049
14,0.6421,-0.4866,-0.6296,0.9557,-0.5948,-0.5616,2050
14,0.624,-0.47,-0.6216,0.9749,-0.56,-0.5155,2051
14,0.6296,-0.4924,-0.6045,0.9776,-0.6181,-0.5456,2050
14,0.6436,-0.4712,-0.5601,0.9927,-0.6677,-0.5325,2053
14,0.6411,-0.4602,-0.5227,1.0027,-0.6987,-0.5245,2051
14,0.6492,-0.4539,-0.4932,0.9873,-0.7392,-0.5725,2051
14,0.6553,-0.4529,-0.5125,0.9808,-0.7716,-0.5992,2054
14,0.6711,-0.4504,-0.5046,1.0086,-0.777,-0.6411,2049
14,0.6772,-0.4446,-0.5056,1.0383,-0.7686,-0.6747,2050
14,0.6902,-0.4531,-0.5051,1.0938,-0.7447,-0.7096,2053
14,0.71,-0.4688,-0.519,1.0903,-0.6878,-0.7299,2056
14,0.7144,-0.4819,-0.5483,1.1388,-0.6296,-0.7112,2045
14,0.7422,-0.5105,-0.5244,1.0821,-0.5609,-0.696,2048
14,0.77,-0.5161,-0.5339,1.0752,-0.5418,-0.6438,2050
14,0.7991,-0.5422,-0.4929,1.0258,-0.5248,-0.5729,2047
14,0.8281,-0.564,-0.4412,0.9315,-0.5484,-0.5163,2049
14,0.8662,-0.5571,-0.4128,0.8862,-0.6147,-0.4163,2051
14,0.8936,-0.5977,-0.365,0.7554,-0.6721,-0.349,2049
14,0.8899,-0.6133,-0.3508,0.5396,-0.6802,-0.2112,2060
14,0.8623,-0.6123,-0.3396,0.4569,-0.636,-0.0827,2056
14,0.8494,-0.6216,-0.3367,0.3693,-0.5417,0.014,2056
14,0.8081,-0.6409,-0.3091,0.2571,-0.3565,0.1088,2050
14,0.7983,-0.678,-0.2642,0.0313,-0.1127,0.1956,2049
14,0.7844,-0.6826,-0.2498,-0.1333,0.0486,0.3358,2050
14,0.7981,-0.7217,-0.217,-0.096,0.2019,0.4505,2058
14,0.8284,-0.7544,-0.1326,-0.0699,0.2296,0.4971,2046
14,0.7708,-0.7349,-0.126,-0.1348,0.2603,0.5649,2046
14,0.7297,-0.6865,-0.1528,-0.2958,0.3229,0.5703,2053
14,0.7585,-0.6672,-0.2292,-0.4048,0.3948,0.5529,2050
14,0.7937,-0.6296,-0.2751,-0.4348,0.4886,0.5821,2049
14,0.7937,-0.5703,-0.303,-0.5173,0.5536,0.6376,2052
14,0.7795,-0.5576,-0.3284,-0.6102,0.6593,0.6854,2051
14,0.7527,-0.5229,-0.3337,-0.6943,0.7648,0.7178,2049
14,0.7366,-0.5032,-0.3486,-0.7719,0.8404,0.742,2049
14,0.7183,-0.4766,-0.3345,-0.8548,0.8927,0.7541,2043
14,0.7153,-0.4741,-0.3289,-0.9286,0.9011,0.7754,2050
14,0.7051,-0.4766,-0.3281,-0.9879,0.9108,0.7737,2049
14,0.7063,-0.4761,-0.3711,-0.9949,0.9146,0.7735,2052
14,0.7258,-0.4924,-0.4058,-0.966,0.9126,0.7766,2047
14,0.7361,-0.5181,-0.4578,-0.9002,0.9456,0.7814,2052
14,0.7566,-0.5322,-0.5017,-0.7883,1.0033,0.785,2058
14,0.7747,-0.5544,-0.5513,-0.6441,1.0521,0.7949,2052
14,0.7893,-0.5732,-0.5635,-0.4888,1.0951,0.7919,2057
15,0.801,-0.5796,-0.5718,-0.353,1.1065,0.7552,2048
15,0.7998,-0.5867,-0.5613,-0.2824,1.079,0.6909,2048
15,0.7742,-0.5615,-0.5432,-0.2562,1.0255,0.6356,2048
15,0.7139,-0.554,-0.5125,-0.2392,0.9429,0.5624,2052
15,0.6482,-0.5493,-0.4812,-0.2513,0.8392,0.4532,2050
15,0.6003,-0.543,-0.4578,-0.2381,0.7436,0.3448,2048
15,0.5703,-0.5298,-0.4282,-0.2232,0.6268,0.2537,2048
15,0.5488,-0.5188,-0.4163,-0.177,0.5244,0.1964,2048
15,0.532,-0.4995,-0.4236,-0.118,0.4488,0.153,2049
15,0.5198,-0.4827,-0.4185,-0.041,0.3717,0.0964,2051
15,0.5374,-0.4905,-0.4182,0.0422,0.2963,0.0202,2052
15,0.554,-0.502,-0.4392,0.0985,0.2277,-0.061,2053
15,0.6318,-0.4817,-0.4966,0.3156,0.0258,-0.2505,2053
15,0.7061,-0.5845,-0.4373,0.7361,-0.2338,-0.4318,2051
15,0.677,-0.5605,-0.4321,0.5179,-0.1499,-0.2466,2051
15,0.5842,-0.5601,-0.5083,0.3356,-0.1742,-0.1019,2048
15,0.554,-0.6025,-0.5415,0.2693,-0.0784,-0.0244,2049
15,0.5588,-0.5525,-0.5342,0.1788,0.1859,0.0345,2056
15,0.6877,-0.6477,-0.4697,0.2191,0.2141,-0.3421,2054
15,0.741,-0.6931,-0.4124,0.133,0.1531,-0.3749,2050
15,0.6987,-0.6428,-0.4006,0.0929,-0.0293,-0.2428,2060
15,0.6157,-0.5981,-0.3975,0.0647,-0.2037,-0.1316,2054
15,0.5288,-0.6165,-0.384,0.0605,-0.3155,-0.125,2050
15,0.4177,-0.7107,-0.4592,-0.2116,-0.1942,-0.0521,2051
15,0.28,-0.7244,-0.4836,-0.2115,0.1027,-0.0189,2061
15,0.2852,-0.6865,-0.519,-0.5283,0.3707,-0.0426,2050
15,0.2986,-0.6348,-0.6299,-0.6192,0.6259,0.0377,2053
15,0.4343,-0.6619,-0.6882,-0.6758,0.6705,0.0421,2050
15,0.5349,-0.6877,-0.6836,-0.6235,0.6936,0.1378,2049
15,0.584,-0.6633,-0.6704,-0.705,0.6239,0.2943,2042
15,0.6519,-0.5803,-0.7024,-0.7088,0.3429,0.2221,2048
15,0.6606,-0.6086,-0.7104,-0.7698,0.0537,0.2269,2051
15,0.6282,-0.5295,-0.7168,-0.3907,-0.1788,0.2324,2052
15,0.6611,-0.5322,-0.6416,-0.2329,-0.4625,0.0814,2053
15,0.6323,-0.5093,-0.6108,-0.1292,-0.5578,-0.0112,2051
15,0.6533,-0.5593,-0.5618,-0.1016,-0.6058,-0.1899,2053
15,0.6768,-0.5828,-0.5933,-0.0634,-0.7004,-0.2932,2049
15,0.665,-0.5632,-0.6265,0.0173,-0.7552,-0.3231,2048
15,0.6736,-0.5486,-0.6165,0.1284,-0.7937,-0.3586,2053
15,0.668,-0.5408,-0.5239,0.1969,-0.7739,-0.3537,2051
15,0.6516,-0.5312,-0.4475,0.1936,-0.7688,-0.3498,2048
15,0.6309,-0.5339,-0.4326,0.159,-0.7909,-0.3429,2050
15,0.6365,-0.5579,-0.428,0.1171,-0.8071,-0.3231,2050
15,0.6648,-0.5564,-0.4487,0.1088,-0.8166,-0.3099,2049
15,0.6875,-0.5603,-0.4551,0.1127,-0.7702,-0.2926,2057
15,0.7275,-0.5918,-0.4229,0.1836,-0.7818,-0.4686,2053
15,0.6865,-0.6292,-0.3564,0.2571,-0.5549,-0.278,2052
15,0.688,-0.5952,-0.375,0.0708,-0.4183,-0.2478,2049
15,0.6821,-0.5891,-0.3999,0.0473,-0.2904,-0.2069,2048
15,0.6821,-0.6099,-0.3901,0.0097,-0.1831,-0.1618,2050
15,0.6953,-0.6423,-0.3821,-0.0156,-0.0479,-0.1595,2050
15,0.7141,-0.6377,-0.3982,-0.1168,0.0517,-0.124,2050
15,0.6995,-0.5842,-0.4482,-0.1562,0.1145,-0.0694,2052
15,0.6978,-0.5386,-0.4824,-0.1008,0.1246,-0.0498,2047
15,0.7271,-0.5784,-0.4829,-0.1554,0.0688,-0.1317,2047
15,0.7119,-0.5444,-0.4978,-0.0511,0.0278,-0.0704,2051
15,0.6819,-0.5317,-0.4695,0.0033,0.0036,-0.071,2054
15,0.6555,-0.542,-0.4807,0.0137,-0.034,-0.1341,2052
15,0.6611,-0.5376,-0.4966,0.0716,-0.0527,-0.2128,2047
15,0.6787,-0.542,-0.5071,0.1442,-0.0529,-0.3047,2051
15,0.6719,-0.5217,-0.5002,0.2358,-0.0569,-0.3304,2051
15,0.6558,-0.5508,-0.4705,0.2657,-0.061,-0.3561,2052
15,0.675,-0.5515,-0.4612,0.2223,-0.0948,-0.363,2051
15,0.6553,-0.5454,-0.4465,0.2653,-0.0989,-0.3895,2047
15,0.6514,-0.5603,-0.4338,0.2862,-0.0965,-0.4056,2055
15,0.6448,-0.5718,-0.4524,0.3032,-0.0691,-0.4406,2053
15,0.6487,-0.5869,-0.4233,0.2517,-0.0672,-0.4558,2048
15,0.6414,-0.5989,-0.429,0.2637,-0.0388,-0.4691,2049
15,0.6426,-0.6194,-0.4314,0.2372,-0.0131,-0.5143,2055
15,0.6436,-0.5986,-0.4487,0.2731,-0.0134,-0.4553,2050
15,0.6462,-0.6384,-0.4338,0.2663,-0.0061,-0.4868,2058
15,0.6426,-0.6121,-0.4487,0.2499,0.0422,-0.4392,2059
15,0.6313,-0.5916,-0.4641,0.2783,0.0887,-0.4334,2040
15,0.6394,-0.6125,-0.4583,0.265,0.0878,-0.4587,2048
15,0.6489,-0.6172,-0.4524,0.231,0.0847,-0.4538,2049
15,0.6624,-0.5898,-0.4507,0.2561,0.1008,-0.4332,2053
15,0.6716,-0.6008,-0.4517,0.2338,0.098,-0.4484,2052
15,0.6946,-0.574,-0.4739,0.212,0.0895,-0.4445,2052
15,0.6858,-0.5337,-0.4924,0.2213,0.1289,-0.4076,2054
15,0.655,-0.6025,-0.5374,0.0361,0.1707,-0.3267,2053
15,0.6404,-0.6011,-0.5615,-0.0485,0.236,-0.2721,2047
15,0.6499,-0.4863,-0.5835,-0.0874,0.3243,-0.2173,2050
15,0.6841,-0.4004,-0.6272,-0.1498,0.3882,-0.0823,2051
15,0.7144,-0.4563,-0.6104,-0.2268,0.3629,-0.0389,2050
15,0.7458,-0.4648,-0.5964,-0.2783,0.3087,0.0794,2054
15,0.7046,-0.5569,-0.5686,-0.4151,0.1852,0.1382,2051
15,0.6919,-0.5444,-0.5845,-0.3039,0.0656,0.0969,2052
15,0.7383,-0.5056,-0.5581,-0.1884,0.0063,0.0149,2048
15,0.7166,-0.4907,-0.5605,-0.1125,0.0145,-0.0575,2051
15,0.7405,-0.488,-0.5564,-0.125,-0.0345,-0.1097,2052
15,0.7144,-0.4885,-0.5222,-0.0161,-0.0372,-0.1084,2052
15,0.6975,-0.4832,-0.5022,0.0076,-0.0403,-0.1222,2052
15,0.6831,-0.469,-0.4905,-0.0177,-0.0573,-0.1229,2049
15,0.6809,-0.4807,-0.4756,-0.0218,-0.0707,-0.1226,2047
15,0.6741,-0.4863,-0.4751,0.0037,-0.0992,-0.1147,2059
15,0.6963,-0.4536,-0.4912,0.0726,-0.1065,-0.1072,2056
15,0.6926,-0.5076,-0.4653,0.1354,-0.0915,-0.0957,2053
15,0.6931,-0.5439,-0.4597,0.1092,-0.0807,-0.1091,2048
15,0.7068,-0.5571,-0.468,0.0968,-0.0803,-0.1338,2053
15,0.7163,-0.5518,-0.4778,0.1262,-0.0637,-0.1148,2047
15,0.7251,-0.5767,-0.4651,0.0981,-0.0631,-0.1069,2051
15,0.7346,-0.5845,-0.4514,0.0871,-0.069,-0.1075,2050
15,0.7251,-0.583,-0.4438,0.0708,-0.065,-0.114,2051
15,0.7119,-0.5798,-0.4543,0.0699,-0.0515,-0.1056,2051
15,0.7144,-0.5784,-0.4497,0.0459,-0.0346,-0.0949,2054
16,0.7104,-0.5642,-0.4653,0.0575,0.0077,-0.0599,2043
16,0.7129,-0.573,-0.4729,0.0478,0.0515,-0.0483,2052
16,0.7212,-0.5583,-0.4824,0.0646,0.0549,-0.0325,2046
16,0.7456,-0.5769,-0.4644,0.0129,0.0244,-0.0338,2052
16,0.7354,-0.5598,-0.4712,-0.0055,0.036,0.0079,2050
16,0.7144,-0.5554,-0.4534,-0.0047,0.0549,0.0273,2048
16,0.6921,-0.5405,-0.4583,-0.0237,0.0522,0.0386,2051
16,0.7092,-0.5471,-0.4568,-0.0433,0.0545,0.0458,2050
16,0.7124,-0.5378,-0.4602,-0.0542,0.0272,0.0768,2054
16,0.718,-0.5298,-0.4651,-0.0754,0.0008,0.1051,2049
16,0.7056,-0.5276,-0.4741,-0.092,0.0252,0.1289,2051
16,0.6921,-0.5269,-0.4861,-0.0816,0.0613,0.13,2050
16,0.676,-0.5327,-0.4976,-0.0606,0.0699,0.114,2050
16,0.6887,-0.5308,-0.4866,-0.0617,0.0708,0.0858,2061
16,0.7036,-0.5374,-0.4873,-0.0819,0.0859,0.0746,2050
16,0.7051,-0.5369,-0.4976,-0.1001,0.0995,0.068,2052
16,0.7073,-0.5105,-0.512,-0.0808,0.1,0.0493,2050
16,0.7153,-0.4971,-0.4963,-0.0645,0.0823,0.0397,2050
16,0.6899,-0.4868,-0.468,-0.0756,0.0919,0.0618,2051
16,0.6782,-0.4839,-0.4719,-0.0808,0.088,0.0724,2054
16,0.6775,-0.488,-0.4736,-0.0731,0.0585,0.0585,2048
16,0.6921,-0.5007,-0.4741,-0.0603,0.0361,0.0542,2048
16,0.7014,-0.5063,-0.4915,-0.0513,0.0441,0.0487,2052
16,0.7097,-0.5134,-0.4971,-0.0354,0.0419,0.0344,2050
16,0.7217,-0.5205,-0.4856,-0.0145,0.0392,0.0322,2048
16,0.7224,-0.5264,-0.4819,-0.0177,0.0329,0.0272,2047
16,0.7136,-0.519,-0.4683,-0.0264,0.0206,0.019,2049
16,0.7031,-0.5212,-0.4778,-0.0366,0.0162,0.0035,2049
16,0.7109,-0.5176,-0.4688,-0.0348,0.0197,-0.0084,2050
16,0.7136,-0.511,-0.4602,-0.0298,0.0182,-0.0044,2051
16,0.7075,-0.5129,-0.4434,-0.0309,0.02,0.0016,2051
16,0.6938,-0.5173,-0.4575,-0.0372,0.0256,0.0033,2049
16,0.7029,-0.5193,-0.4519,-0.0502,0.0182,0.0052,2048
16,0.698,-0.5203,-0.4541,-0.0482,0.0232,-0.0008,2050
16,0.7122,-0.5193,-0.4644,-0.0435,0.0254,-0.0029,2051
16,0.7097,-0.5244,-0.4541,-0.0342,0.0088,-0.0218,2050
16,0.7031,-0.52,-0.4563,-0.038,0.0161,-0.0088,2059
16,0.6743,-0.5149,-0.4546,-0.032,0.0385,-0.0112,2054
16,0.6689,-0.5076,-0.4551,-0.0144,0.0405,-0.0373,2048
16,0.688,-0.5168,-0.4651,-0.0132,0.0254,-0.0679,2056
16,0.6982,-0.5256,-0.4739,-0.0024,0.0357,-0.0739,2050
16,0.6843,-0.5134,-0.4905,0.0318,0.0409,-0.068,2052
16,0.6892,-0.5222,-0.4888,0.091,0.0546,-0.0768,2047
16,0.7075,-0.5334,-0.4724,0.0519,0.0318,-0.1084,2053
16,0.6997,-0.512,-0.4927,0.0392,0.0119,-0.1173,2050
16,0.6826,-0.4932,-0.4958,0.0273,0.0209,-0.0987,2054
16,0.6714,-0.53,-0.4907,-0.0146,0.012,-0.1069,2048
16,0.6738,-0.5396,-0.4846,-0.0173,-0.0069,-0.1024,2047
16,0.668,-0.5354,-0.4814,0.0065,-0.0081,-0.0941,2054
16,0.6814,-0.5417,-0.4956,0.0091,0.0033,-0.088,2051
16,0.6865,-0.5603,-0.4944,-0.0029,0.015,-0.08,2053
16,0.678,-0.5559,-0.4985,0.0276,0.0285,-0.0739,2047
16,0.6638,-0.6003,-0.5068,0.0129,0.0393,-0.0394,2050
16,0.6479,-0.6123,-0.5032,0.0158,0.0802,0.0182,2054
16,0.6602,-0.6233,-0.4958,-0.0067,0.1045,0.0549,2048
16,0.6843,-0.6152,-0.5022,-0.0746,0.0814,0.066,2048
16,0.7122,-0.5811,-0.5225,-0.1446,0.0213,0.0571,2052
16,0.7339,-0.5603,-0.5374,-0.1418,-0.0582,0.0582,2050
16,0.738,-0.5571,-0.5154,-0.0696,-0.1008,0.0597,2050
16,0.7214,-0.5452,-0.4692,-0.0205,-0.1043,0.059,2053
16,0.6621,-0.5349,-0.4421,-0.0286,-0.0746,0.0486,2050
16,0.6482,-0.5237,-0.4487,-0.0554,-0.0368,0.0141,2050
16,0.6565,-0.5198,-0.4761,-0.0521,-0.0095,-0.0073,2053
16,0.6902,-0.5254,-0.48,-0.0265,0.0008,-0.0048,2054
16,0.7114,-0.5281,-0.4805,-0.0213,0.0172,0.0161,2051
16,0.718,-0.5259,-0.4719,-0.0362,0.0233,0.0268,2047
16,0.7173,-0.5361,-0.4634,-0.0662,0.0123,0.0381,2046
16,0.6985,-0.532,-0.4746,-0.0924,0.0065,0.0449,2054
16,0.6931,-0.5325,-0.478,-0.1021,0.0028,0.0345,2050
16,0.6924,-0.5464,-0.4592,-0.0996,0.006,0.0306,2051
16,0.6936,-0.5334,-0.4734,-0.0989,0.0276,0.027,2055
16,0.7007,-0.5288,-0.4685,-0.1061,0.0457,0.0294,2047
16,0.6941,-0.5261,-0.479,-0.102,0.0478,0.0324,2050
16,0.6978,-0.5352,-0.4763,-0.0882,0.0579,0.0393,2045
16,0.6899,-0.5381,-0.4885,-0.08,0.0662,0.0442,2050
16,0.6885,-0.5427,-0.49,-0.0712,0.0774,0.0485,2053
16,0.6948,-0.5435,-0.498,-0.0679,0.0925,0.0482,2051
16,0.6936,-0.5496,-0.4841,-0.0692,0.0995,0.0538,2045
16,0.6838,-0.5496,-0.4836,-0.079,0.0999,0.0531,2047
16,0.6802,-0.5417,-0.4817,-0.0739,0.0868,0.0521,2064
16,0.6841,-0.5339,-0.4766,-0.0899,0.0759,0.051,2043
16,0.6714,-0.5413,-0.4814,-0.1081,0.0803,0.057,2045
16,0.6704,-0.5474,-0.4685,-0.1132,0.0684,0.0478,2048
16,0.6729,-0.5479,-0.4802,-0.0856,0.0583,0.0461,2051
16,0.6768,-0.5508,-0.4871,-0.0763,0.0486,0.0429,2051
16,0.678,-0.5493,-0.498,-0.0622,0.0602,0.0531,2050
16,0.6772,-0.5522,-0.4973,-0.0501,0.0764,0.047,2052
16,0.678,-0.5603,-0.5088,-0.0353,0.0666,0.0377,2049
16,0.6943,-0.5742,-0.4988,-0.0393,0.0471,0.0362,2050
16,0.6885,-0.5796,-0.5007,-0.0521,0.0531,0.0401,2048
16,0.6733,-0.574,-0.5051,-0.0587,0.0474,0.0382,2049
16,0.6707,-0.5596,-0.4832,-0.0674,0.0273,0.0406,2053
16,0.6797,-0.5435,-0.4746,-0.065,0.0204,0.0418,2051
16,0.6753,-0.5249,-0.4819,-0.0716,0.0222,0.0443,2047
16,0.6697,-0.5142,-0.4741,-0.0752,0.0232,0.0301,2053
16,0.6787,-0.4963,-0.4827,-0.0653,0.0003,0.0145,2049
16,0.6804,-0.4993,-0.4932,-0.0718,0.0016,0.0196,2051
16,0.6846,-0.4971,-0.4734,-0.0366,0.0005,0.0117,2051
16,0.689,-0.4968,-0.4763,-0.0534,0.0099,0.0212,2050
16,0.6643,-0.511,-0.4814,-0.0284,0.0103,0.0278,2047
16,0.6753,-0.5188,-0.4854,-0.03,0.0027,0.006,2045
17,0.6807,-0.5342,-0.5081,-0.0364,0.02,-0.0049,2052
17,0.696,-0.5491,-0.5186,-0.0242,0.0341,-0.0077,2049
17,0.6941,-0.5691,-0.51,-0.0357,0.0418,-0.0035,2051
17,0.6885,-0.5679,-0.5042,-0.0525,0.043,0.0088,2049
17,0.6956,-0.5684,-0.5029,-0.0618,0.0192,0.0057,2055
17,0.689,-0.5579,-0.4907,-0.0637,0.0005,0.0144,2051
17,0.6687,-0.5486,-0.4841,-0.0635,-0.002,0.0257,2048
17,0.6609,-0.5454,-0.4746,-0.0686,-0.0113,0.0293,2049
17,0.666,-0.5432,-0.4639,-0.0649,-0.012,0.0184,2056
17,0.6697,-0.5383,-0.4731,-0.0566,-0.0077,0.0178,2051
17,0.679,-0.5476,-0.4658,-0.0517,-0.008,0.0136,2052
17,0.6833,-0.5449,-0.4648,-0.0493,-0.0097,0.0072,2050
17,0.6685,-0.5388,-0.4648,-0.0595,0.0041,0.0124,2051
17,0.6702,-0.5344,-0.4805,-0.0671,0.0186,0.0081,2050
17,0.6736,-0.5303,-0.4878,-0.0743,0.0156,-0.0015,2048
17,0.6912,-0.5364,-0.4861,-0.0609,0.0128,0.0012,2050
17,0.6938,-0.5369,-0.5085,-0.0755,0.0232,0.0021,2051
17,0.6924,-0.5298,-0.5085,-0.0594,0.0376,0.0055,2051
17,0.7004,-0.5366,-0.5149,-0.0695,0.0368,0.0069,2045
17,0.6951,-0.5354,-0.5127,-0.0507,0.0441,0.0105,2052
17,0.6855,-0.5386,-0.4949,-0.0474,0.039,0.0068,2049
17,0.6851,-0.5281,-0.4875,-0.0443,0.0336,0.0105,2051
17,0.675,-0.5327,-0.4875,-0.0575,0.0284,0.0091,2050
17,0.6685,-0.5361,-0.4832,-0.07,0.0233,0.0084,2054
17,0.6653,-0.5403,-0.4839,-0.0674,0.0103,0.0084,2046
17,0.6636,-0.5344,-0.4863,-0.0706,-0.0045,0.0027,2052
17,0.667,-0.5344,-0.4949,-0.0692,-0.0142,0.0041,2055
17,0.6731,-0.5356,-0.4866,-0.068,0.0052,-0.0019,2046
17,0.668,-0.5378,-0.5056,-0.0653,0.0296,-0.0008,2050
17,0.679,-0.5491,-0.5269,-0.0494,0.025,-0.0129,2050
17,0.6812,-0.5537,-0.5254,-0.0353,0.0137,-0.0225,2049
17,0.6873,-0.5486,-0.5132,-0.0314,0.0166,-0.027,2053
17,0.6772,-0.5464,-0.5007,-0.0332,0.0222,-0.0206,2047
17,0.6758,-0.5332,-0.4988,-0.0368,0.01,-0.0228,2057
17,0.6812,-0.5325,-0.4946,-0.0409,0.0121,-0.0148,2055
17,0.6768,-0.5215,-0.5012,-0.0376,0.0124,-0.0152,2047
17,0.666,-0.519,-0.5095,-0.0285,0.008,-0.0144,2050
17,0.6826,-0.5251,-0.5103,-0.0085,0.0017,-0.021,2051
17,0.6926,-0.5234,-0.4907,-0.0015,0.002,-0.0266,2050
17,0.6748,-0.5166,-0.4875,-0.0028,0.0208,-0.0104,2049
17,0.6748,-0.5137,-0.4766,0.0036,0.0145,-0.0121,2041
17,0.6648,-0.5178,-0.4851,-0.0185,0.006,-0.0262,2049
17,0.6692,-0.5085,-0.5088,-0.0075,0.0073,-0.0284,2049
17,0.6855,-0.5061,-0.5281,0.0134,-0.0047,-0.0237,2052
17,0.7146,-0.4905,-0.5476,0.0513,-0.0268,0.0129,2055
17,0.7397,-0.4841,-0.6108,0.0618,-0.098,0.0699,2045
17,0.8186,-0.511,-0.6921,0.1353,-0.2175,0.1446,2050
17,0.8755,-0.5684,-0.6567,0.1891,-0.1899,0.2601,2066
17,0.8545,-0.6028,-0.5735,0.1236,-0.0373,0.3617,2044
17,0.8025,-0.6108,-0.4695,-0.0238,0.0458,0.4221,2055
17,0.7061,-0.6021,-0.501,-0.2112,-0.031,0.4745,2051
17,0.6824,-0.5742,-0.5881,-0.2097,-0.1969,0.4581,2051
17,0.6584,-0.522,-0.6184,-0.1092,-0.2558,0.4356,2046
17,0.6497,-0.5049,-0.5757,0.0289,-0.1064,0.4212,2048
17,0.6912,-0.5002,-0.541,0.1115,0.0297,0.4615,2054
17,0.718,-0.5142,-0.5503,0.1848,0.1297,0.5509,2058
17,0.7212,-0.5718,-0.5691,0.1923,0.1647,0.6006,2048
17,0.7253,-0.6272,-0.5811,0.1392,0.0859,0.5871,2049
17,0.7358,-0.6707,-0.6216,0.0991,-0.0027,0.5741,2053
17,0.7407,-0.6948,-0.5991,0.0336,-0.0654,0.5486,2050
17,0.6846,-0.7073,-0.5481,0.0522,-0.1278,0.6192,2049
17,0.5601,-0.7534,-0.4231,0.2886,-0.0895,0.7915,2050
17,0.4465,-0.8027,-0.3489,0.4111,-0.1457,0.8728,2066
17,0.4749,-0.7585,-0.4653,0.3647,-0.2436,0.7899,2050
17,0.6204,-0.7205,-0.5718,0.444,-0.1764,0.6263,2036
17,0.7483,-0.7227,-0.5889,0.5078,-0.0589,0.51,2046
17,0.8088,-0.6941,-0.542,0.4919,0.0194,0.4545,2047
17,0.7588,-0.635,-0.5146,0.4904,0.0104,0.5506,2052
17,0.7019,-0.5742,-0.4873,0.4886,-0.1027,0.6717,2050
17,0.6646,-0.5811,-0.4863,0.4389,-0.1478,0.7423,2058
17,0.6367,-0.6045,-0.51,0.424,-0.1107,0.7889,2054
17,0.615,-0.6282,-0.5203,0.4854,-0.0096,0.8067,2055
17,0.6162,-0.6462,-0.4817,0.526,0.1208,0.8112,2057
17,0.6094,-0.686,-0.4468,0.4806,0.228,0.7807,2052
17,0.5867,-0.6833,-0.4377,0.532,0.3193,0.7797,2032
17,0.584,-0.7087,-0.4038,0.5035,0.3434,0.7508,2050
17,0.5918,-0.7239,-0.4338,0.481,0.3281,0.7554,2051
17,0.6042,-0.7449,-0.4536,0.5477,0.3144,0.7558,2048
17,0.5911,-0.7571,-0.4282,0.5786,0.3786,0.7632,2051
17,0.5781,-0.7634,-0.3921,0.5457,0.4148,0.7593,2052
17,0.5667,-0.7671,-0.3923,0.548,0.4059,0.7236,2047
17,0.5569,-0.793,-0.385,0.5359,0.395,0.6873,2047
17,0.5408,-0.8105,-0.3928,0.4793,0.4293,0.6498,2047
17,0.5205,-0.7769,-0.3665,0.5043,0.4292,0.6185,2050
17,0.5298,-0.7307,-0.342,0.4962,0.4432,0.6389,2053
17,0.4922,-0.7485,-0.3467,0.4303,0.4936,0.6454,2052
17,0.4785,-0.7458,-0.386,0.4639,0.5169,0.6754,2054
17,0.4709,-0.7739,-0.3945,0.503,0.5843,0.6703,2047
17,0.47,-0.8174,-0.3486,0.4548,0.6906,0.6233,2044
17,0.4607,-0.833,-0.3408,0.3727,0.7869,0.5424,2042
17,0.4651,-0.8374,-0.3584,0.3535,0.8469,0.4854,2048
17,0.4412,-0.8328,-0.3484,0.3211,0.8871,0.4191,2052
17,0.4709,-0.8027,-0.3391,0.3406,0.8891,0.3205,2053
17,0.5015,-0.7871,-0.3291,0.3232,0.9071,0.3052,2051
17,0.4792,-0.762,-0.3118,0.3176,0.9124,0.3145,2040
17,0.4753,-0.7551,-0.2937,0.3112,0.9396,0.351,2050
17,0.4563,-0.7483,-0.2859,0.2143,0.978,0.3385,2047
17,0.4224,-0.7454,-0.2896,0.18,1.0123,0.3155,2050
17,0.3994,-0.7349,-0.2876,0.1341,1.0962,0.2452,2042
17,0.4155,-0.7332,-0.2683,0.1625,1.1897,0.233,2060
17,0.4192,-0.7302,-0.2239,0.1922,1.262,0.2238,2052
17,0.415,-0.7361,-0.1895,0.1409,1.3093,0.2372,2046
18,0.4136,-0.7373,-0.178,0.0968,1.3541,0.2076,2048
18,0.4392,-0.7725,-0.1719,0.077,1.3896,0.1763,2046
18,0.4731,-0.7603,-0.1743,0.0097,1.3512,0.13,2045
18,0.4875,-0.759,-0.1743,-0.0332,1.3372,0.0964,2045
18,0.5002,-0.762,-0.1714,-0.0649,1.2517,0.0138,2056
18,0.4705,-0.7693,-0.2004,-0.1016,1.2186,-0.0542,2047
18,0.384,-0.7979,-0.1992,-0.1649,1.3105,-0.0819,2055
18,0.3557,-0.8176,-0.209,-0.1487,1.4209,-0.0037,2051
18,0.3625,-0.7788,-0.1555,-0.0286,1.5478,0.0067,2050
18,0.3894,-0.7517,-0.1611,-0.0103,1.6342,0.0599,2056
18,0.4753,-0.7319,-0.1309,0.0581,1.6406,0.1107,2049
18,0.5535,-0.7266,-0.0854,0.0774,1.5382,0.0999,2053
18,0.5837,-0.7493,-0.0537,0.0289,1.3636,0.0879,2041
18,0.5823,-0.7722,-0.0999,0.0105,1.2001,0.1131,2040
18,0.5781,-0.741,-0.1746,0.0555,1.0025,0.0802,2049
18,0.603,-0.7712,-0.2756,0.1846,0.8043,0.1302,2058
18,0.5918,-0.7966,-0.3145,0.277,0.6807,0.1578,2047
18,0.5498,-0.8066,-0.2837,0.344,0.818,0.1649,2038
18,0.5403,-0.7922,-0.2466,0.291,0.9865,0.1196,2054
18,0.6262,-0.8364,-0.2612,0.0936,0.9094,0.1033,2049
18,0.6489,-0.8777,-0.3059,-0.131,0.9163,0.0683,2062
18,0.6426,-0.8591,-0.2549,-0.1385,0.9329,0.0127,2070
18,0.6201,-0.8596,-0.2102,-0.1622,0.9588,0.0067,2052
18,0.5535,-0.8958,-0.2734,-0.223,0.9889,0.0511,2059
18,0.5432,-0.8259,-0.3496,-0.0973,1.0702,-0.0099,2047
18,0.7124,-0.7747,-0.2117,-0.1836,1.0877,0.0914,2052
18,0.5935,-0.7957,-0.0693,-0.2213,1.1079,0.2304,2040
18,0.46,-0.8372,-0.0186,-0.2257,1.101,0.2928,2054
18,0.4124,-0.8538,-0.0352,-0.1852,1.024,0.3247,2052
18,0.4282,-0.8926,-0.0447,-0.2792,1.1262,0.2284,2052
18,0.5535,-0.8843,-0.0081,-0.2954,1.1236,0.1093,2039
18,0.6023,-0.8435,0.0557,-0.3187,1.0528,0.0119,2050
18,0.6284,-0.8281,0.0747,-0.3883,0.8833,-0.037,2052
18,0.6567,-0.8428,0.0295,-0.4081,0.6905,-0.0826,2055
18,0.6633,-0.8472,-0.0249,-0.3727,0.5562,-0.0719,2047
18,0.5845,-0.8223,-0.0425,-0.3097,0.5357,-0.023,2060
18,0.4626,-0.8135,-0.0381,-0.2702,0.514,0.02,2051
18,0.3918,-0.8093,-0.063,-0.2762,0.5952,0.0487,2066
18,0.416,-0.792,-0.0854,-0.2338,0.6829,-0.016,2055
18,0.4631,-0.783,-0.0474,-0.2846,0.8514,-0.0663,2045
18,0.5078,-0.7637,-0.0247,-0.373,0.8786,-0.089,2063
18,0.5339,-0.729,-0.0107,-0.4293,0.8745,-0.1113,2093
18,0.5969,-0.7197,-0.0312,-0.379,0.8222,-0.1113,2052
18,0.6926,-0.7292,-0.0742,-0.3163,0.6695,-0.069,2035
18,0.7429,-0.7329,-0.0928,-0.2685,0.4938,0.0055,2053
18,0.7083,-0.7603,-0.0618,-0.2033,0.3575,0.0779,2050
18,0.6282,-0.8005,-0.0374,-0.1832,0.2758,0.1133,2051
18,0.5383,-0.8628,-0.0813,-0.2125,0.2738,0.1306,2053
18,0.5503,-0.9182,-0.1013,-0.2441,0.399,0.0975,2048
18,0.554,-0.908,-0.103,-0.2585,0.5819,0.0453,2054
18,0.5835,-0.9133,-0.0806,-0.2673,0.7044,0.0376,2072
18,0.6384,-0.9216,-0.0874,-0.2489,0.6842,0.0695,2052
18,0.6851,-0.9272,-0.0806,-0.2392,0.6425,0.1357,2053
18,0.7229,-0.9602,-0.095,-0.196,0.5984,0.2209,2053
18,0.7288,-0.9983,-0.0994,-0.1671,0.4023,0.2499,2045
18,0.6777,-1.0496,-0.0957,-0.1526,0.3087,0.3092,2045
18,0.5608,-1.0405,-0.1208,-0.1658,0.3171,0.3719,2050
18,0.4077,-1.0078,-0.0674,-0.2734,0.4444,0.4125,2050
18,0.2866,-0.9202,-0.0054,-0.4221,0.7227,0.4197,2035
18,0.2727,-0.8452,0.0347,-0.4758,0.962,0.4052,2046
18,0.3164,-0.7922,0.042,-0.5255,1.1087,0.434,2049
18,0.3674,-0.7754,0.0645,-0.5361,1.2178,0.496,2052
18,0.4187,-0.7002,0.0254,-0.4822,1.1742,0.5472,2048
18,0.4558,-0.6758,0.0229,-0.3984,0.9609,0.5855,2049
18,0.4702,-0.6768,0.0598,-0.2579,0.8162,0.6014,2050
18,0.4231,-0.6511,0.0139,-0.1887,0.6143,0.7751,2053
18,0.3489,-0.6233,-0.1108,-0.2354,0.3452,0.6482,2039
18,0.3577,-0.6729,-0.1597,-0.3059,0.3353,0.6018,2053
18,0.3613,-0.6904,-0.1357,-0.3433,0.367,0.4879,2071
18,0.3489,-0.7266,-0.1218,-0.4232,0.5003,0.4722,2050
18,0.4844,-0.7046,-0.1318,-0.3856,0.4394,0.2164,2051
18,0.6274,-0.6187,-0.1284,-0.2756,0.1439,0.0069,2048
18,0.6008,-0.5752,-0.0244,-0.2282,-0.1349,-0.1453,2047
18,0.5364,-0.5818,0.0305,-0.2144,-0.2802,-0.2152,2034
18,0.4614,-0.5876,0.0447,-0.1787,-0.4211,-0.2804,2044
18,0.4207,-0.6133,-0.0229,-0.1792,-0.4948,-0.347,2062
18,0.4172,-0.6521,-0.1145,-0.233,-0.4807,-0.4191,2040
18,0.4561,-0.7129,-0.2,-0.3365,-0.3694,-0.5245,2053
18,0.4951,-0.76,-0.2126,-0.408,-0.1471,-0.6195,2054
18,0.5012,-0.7822,-0.272,-0.4232,0.0784,-0.6841,2045
18,0.5374,-0.7878,-0.3748,-0.3538,0.1934,-0.6799,2044
18,0.6389,-0.8191,-0.4417,-0.2547,0.1513,-0.6464,2058
18,0.7673,-0.9617,-0.3447,-0.2798,-0.0048,-0.5713,2052
18,0.606,-1.0286,-0.228,-0.3201,0.0,-0.439,2041
18,0.4485,-1.0066,-0.1008,-0.1726,-0.1868,-0.3217,2048
18,0.4072,-0.907,0.0093,-0.075,-0.3582,-0.3223,2042
18,0.4958,-0.8726,-0.011,-0.127,-0.3662,-0.3655,2049
18,0.5662,-0.9375,0.0933,-0.0943,-0.1627,-0.4229,2047
18,0.5552,-1.0034,0.1409,-0.1116,-0.0981,-0.4067,2047
18,0.5994,-1.0398,0.1191,-0.1381,-0.2155,-0.3922,2087
18,0.6733,-1.009,0.082,-0.1738,-0.2983,-0.3891,2046
18,0.6602,-1.0217,0.0752,-0.2449,-0.2896,-0.3506,2051
18,0.6162,-1.0056,0.0264,-0.2928,-0.2613,-0.3,2055
18,0.5515,-0.9846,-0.0283,-0.3209,-0.1479,-0.2465,2045
18,0.4709,-0.937,-0.1067,-0.3181,0.0035,-0.1912,2053
18,0.427,-0.8921,-0.166,-0.3032,0.1663,-0.1356,2049
18,0.4275,-0.8503,-0.1404,-0.284,0.2986,-0.0957,2052
18,0.3931,-0.8311,-0.1084,-0.2654,0.377,-0.079,2045
18,0.4099,-0.8064,-0.0945,-0.2001,0.3492,-0.0664,2049
18,0.4602,-0.7812,-0.1008,-0.1241,0.2212,-0.0862,2050
18,0.5098,-0.793,-0.0879,-0.0656,0.0467,-0.1064,2051
18,0.5435,-0.7729,-0.0955,-0.0204,-0.1213,-0.1268,2057
18,0.5532,-0.7874,-0.1013,0.0651,-0.2213,-0.1417,2045
19,0.5435,-0.7842,-0.103,0.1384,-0.3155,-0.1529,2049
19,0.509,-0.8062,-0.168,0.1475,-0.4591,-0.1754,2043
19,0.5059,-0.835,-0.2324,0.1903,-0.597,-0.2429,2045
19,0.521,-0.8306,-0.2209,0.2071,-0.5359,-0.3077,2057
19,0.5098,-0.8101,-0.1543,0.2333,-0.4711,-0.3278,2045
19,0.5269,-0.8027,-0.0796,0.2085,-0.4658,-0.3268,2040
19,0.5322,-0.7983,-0.0354,0.176,-0.4461,-0.3268,2048
19,0.5466,-0.7793,-0.0154,0.1748,-0.4204,-0.3629,2043
19,0.553,-0.7847,-0.0034,0.1654,-0.4117,-0.3931,2051
19,0.5938,-0.7231,-0.054,0.2381,-0.4318,-0.5059,2054
19,0.7385,-0.5874,-0.0376,0.3317,-0.5092,-0.4611,2051
19,0.7227,-0.615,-0.1233,-0.0631,-0.4976,-0.4591,2050
19,0.752,-0.7744,-0.1797,-0.2638,-0.5879,-0.5353,2051
19,0.6265,-0.8281,-0.1228,-0.2461,-0.4691,-0.7685,2049
19,0.5339,-0.8306,-0.1899,-0.3267,-0.4525,-0.7431,2060
19,0.5735,-0.7654,-0.2417,-0.2952,-0.3031,-0.7774,2048
19,0.5637,-0.7283,-0.1802,-0.2928,-0.0423,-0.7464,2056
19,0.5603,-0.7146,-0.1721,-0.2591,0.1176,-0.7186,2063
19,0.5889,-0.686,-0.1877,-0.1553,0.2623,-0.7849,2053
19,0.6897,-0.7017,-0.199,-0.0936,0.1455,-0.7432,2036
19,0.729,-0.7053,-0.2256,0.0089,-0.0153,-0.7357,2050
19,0.7366,-0.7031,-0.2505,0.1132,-0.2578,-0.6711,2054
19,0.7266,-0.7124,-0.271,0.2665,-0.4195,-0.6388,2051
19,0.7183,-0.7273,-0.2493,0.3541,-0.4679,-0.5983,2058
19,0.6863,-0.7498,-0.2524,0.3539,-0.5252,-0.5556,2045
19,0.6763,-0.7571,-0.2849,0.3871,-0.5317,-0.5227,2048
19,0.6821,-0.7666,-0.28,0.3964,-0.4798,-0.4472,2049
19,0.6543,-0.7795,-0.2947,0.4072,-0.4488,-0.3405,2050
19,0.656,-0.8682,-0.2651,0.3808,-0.4251,-0.2175,2061
19,0.6116,-0.9343,-0.2136,0.2819,-0.3133,-0.1244,2042
19,0.5649,-0.8984,-0.2207,0.3274,-0.2622,-0.0389,2052
19,0.5659,-0.853,-0.2021,0.339,-0.1934,0.0309,2056
19,0.5833,-0.8464,-0.1362,0.318,-0.0317,0.1031,2047
19,0.6035,-0.8562,-0.0969,0.2481,0.1324,0.1436,2042
19,0.6309,-0.8186,-0.1077,0.1515,0.1653,0.1828,2053
19,0.6572,-0.8203,-0.1414,0.0796,0.138,0.2272,2048
19,0.6729,-0.8389,-0.155,-0.0134,0.1233,0.2485,2060
19,0.6604,-0.8464,-0.1538,-0.0719,0.1029,0.2141,2054
19,0.6111,-0.8359,-0.1807,-0.1244,0.0242,0.1726,2045
19,0.5732,-0.8123,-0.2163,-0.1649,0.0646,0.157,2050
19,0.521,-0.7769,-0.2175,-0.2266,0.0964,0.1463,2051
19,0.4839,-0.6968,-0.2161,-0.2228,0.1976,0.1216,2049
19,0.5266,-0.6621,-0.2112,-0.2072,0.2147,0.1439,2048
19,0.5522,-0.6614,-0.208,-0.2481,0.2651,0.1824,2051
19,0.5239,-0.6968,-0.2104,-0.2565,0.2836,0.2414,2052
19,0.4937,-0.6975,-0.1687,-0.1751,0.196,0.3129,2055
19,0.5227,-0.6841,-0.1575,-0.1655,0.0467,0.3139,2049
19,0.6143,-0.6992,-0.1448,-0.1762,-0.0563,0.3195,2050
19,0.6069,-0.7595,-0.1279,-0.1996,-0.0823,0.3039,2048
19,0.626,-0.7571,-0.136,-0.2025,-0.1645,0.2577,2049
19,0.6487,-0.7639,-0.1177,-0.1545,-0.2653,0.2061,2053
19,0.6809,-0.7595,-0.0955,-0.1461,-0.3305,0.1669,2047
19,0.7192,-0.7603,-0.0823,-0.1136,-0.3268,0.128,2049
19,0.7268,-0.7656,-0.0691,-0.0739,-0.2795,0.1409,2051
19,0.7363,-0.7424,-0.0984,-0.0296,-0.2763,0.1658,2047
19,0.7253,-0.7444,-0.0835,0.0554,-0.2675,0.1895,2053
19,0.6838,-0.7488,-0.0579,0.1013,-0.2571,0.2069,2050
19,0.6484,-0.75,-0.0732,0.1115,-0.2972,0.2565,2050
19,0.6328,-0.7495,-0.124,0.1125,-0.4088,0.2924,2047
19,0.6489,-0.762,-0.144,0.1839,-0.4245,0.3133,2049
19,0.6287,-0.7812,-0.1213,0.2013,-0.3715,0.3309,2051
19,0.574,-0.7693,-0.1399,0.2104,-0.2721,0.3582,2048
19,0.5339,-0.7825,-0.2019,0.187,-0.2116,0.3771,2054
19,0.5332,-0.7708,-0.2588,0.1846,-0.1649,0.3117,2046
19,0.5474,-0.7654,-0.2649,0.2025,0.0154,0.2482,2050
19,0.5784,-0.748,-0.2385,0.1931,0.1073,0.1613,2048
19,0.5996,-0.7068,-0.2234,0.2049,0.1197,0.089,2048
19,0.6182,-0.7024,-0.1794,0.2031,0.1171,0.0993,2052
19,0.5911,-0.7004,-0.1704,0.227,0.0925,0.1254,2053
19,0.5698,-0.7051,-0.1648,0.2807,0.0064,0.1719,2051
19,0.53,-0.7378,-0.1543,0.3119,-0.0502,0.2237,2055
19,0.5142,-0.7529,-0.1716,0.32,-0.1089,0.2578,2052
19,0.4949,-0.7549,-0.1519,0.3201,-0.1606,0.2779,2054
19,0.4944,-0.7778,-0.1748,0.3546,-0.1838,0.3132,2053
19,0.4819,-0.8115,-0.1665,0.3791,-0.1647,0.2923,2051
19,0.4958,-0.8096,-0.1736,0.3449,-0.1365,0.2476,2051
19,0.522,-0.8052,-0.1895,0.3357,-0.1447,0.1935,2049
19,0.5676,-0.8022,-0.2,0.3498,-0.1895,0.149,2051
19,0.6121,-0.8245,-0.177,0.351,-0.2812,0.1261,2041
19,0.6135,-0.8225,-0.1626,0.3132,-0.3516,0.0828,2052
19,0.616,-0.8145,-0.1589,0.2778,-0.4315,0.063,2045
19,0.5952,-0.8347,-0.1714,0.2238,-0.4892,0.0503,2054
19,0.5911,-0.8589,-0.1868,0.2103,-0.5113,0.0515,2055
19,0.5388,-0.8403,-0.167,0.1626,-0.4476,0.0305,2053
19,0.5188,-0.8267,-0.1614,0.118,-0.3731,0.006,2045
19,0.5466,-0.8411,-0.1455,0.094,-0.2772,0.0011,2050
19,0.533,-0.7844,-0.1433,0.1429,-0.1204,-0.0401,2052
19,0.5808,-0.8455,-0.1592,0.0009,-0.1513,-0.0044,2047
19,0.5715,-0.8274,-0.1689,0.0189,-0.1425,-0.0154,2054
19,0.5203,-0.7202,-0.1814,0.0703,0.0214,-0.1155,2051
19,0.5679,-0.8525,-0.1558,-0.0459,0.038,-0.0569,2053
19,0.6064,-0.8813,-0.1738,-0.0649,0.0043,-0.0659,2050
19,0.5923,-0.8438,-0.1575,-0.0442,-0.0013,-0.0664,2046
19,0.5601,-0.8147,-0.1477,-0.0304,-0.0228,-0.0517,2049
19,0.573,-0.7959,-0.1523,-0.0152,-0.0843,-0.053,2048
19,0.593,-0.8035,-0.1548,0.0308,-0.1068,-0.0498,2046
19,0.5896,-0.8171,-0.1487,0.0341,-0.1218,-0.0454,2050
19,0.5867,-0.8096,-0.1465,0.0485,-0.1398,-0.0526,2054
19,0.5925,-0.8215,-0.1448,0.0521,-0.1514,-0.0362,2045
19,0.585,-0.8254,-0.1375,0.0538,-0.1928,-0.045,2053
19,0.5916,-0.8311,-0.1316,0.0415,-0.2135,-0.0312,2054
19,0.5781,-0.8181,-0.146,0.0224,-0.188,-0.0297,2052
19,0.5649,-0.8035,-0.1489,0.0085,-0.132,-0.0234,2049
20,0.5449,-0.8032,-0.136,-0.0009,-0.0499,-0.024,2050
20,0.5657,-0.7952,-0.1353,-0.0216,-0.0057,-0.0156,2050
20,0.5798,-0.8064,-0.1255,-0.0441,0.0278,-0.0016,2052
20,0.583,-0.8049,-0.1086,-0.071,0.0344,0.0129,2048
20,0.575,-0.7942,-0.1094,-0.0766,0.0481,0.0192,2050
20,0.5833,-0.7976,-0.1023,-0.0981,0.0481,0.041,2050
20,0.5674,-0.8132,-0.0989,-0.0953,0.0919,0.0549,2055
20,0.5769,-0.8064,-0.1196,-0.0989,0.1061,0.0523,2049
20,0.5684,-0.8005,-0.1233,-0.1033,0.1079,0.0567,2047
20,0.6011,-0.8318,-0.1245,-0.1049,0.0848,0.082,2048
20,0.5791,-0.8118,-0.1394,-0.0975,0.0879,0.071,2051
20,0.5757,-0.7766,-0.1531,-0.0594,0.085,0.041,2044
20,0.5757,-0.8262,-0.1438,-0.079,0.1028,0.0599,2050
20,0.5493,-0.7854,-0.165,-0.0672,0.1168,0.0177,2061
20,0.5598,-0.7878,-0.1528,-0.0581,0.1224,0.0037,2048
20,0.5698,-0.7908,-0.1584,-0.0574,0.1056,-0.0059,2049
20,0.5703,-0.792,-0.1575,-0.0398,0.0831,-0.0334,2053
20,0.5723,-0.7864,-0.1416,-0.0494,0.0655,-0.0372,2050
20,0.5544,-0.7915,-0.1287,-0.0695,0.0366,-0.0385,2051
20,0.5652,-0.8022,-0.1296,-0.0823,0.0164,-0.0386,2053
20,0.5535,-0.7917,-0.1379,-0.0571,0.0049,-0.0462,2051
20,0.5686,-0.814,-0.1377,-0.0517,-0.0212,-0.0366,2049
20,0.5967,-0.8174,-0.1548,-0.0281,-0.0558,-0.0543,2051
20,0.5869,-0.8069,-0.1609,-0.0029,-0.0746,-0.0459,2054
20,0.5786,-0.8108,-0.1387,-0.0342,-0.0743,-0.0507,2051
20,0.563,-0.8086,-0.1487,-0.0309,-0.0798,-0.0559,2052
20,0.5693,-0.8083,-0.1589,-0.0322,-0.0836,-0.0499,2052
20,0.5676,-0.7993,-0.1482,-0.0268,-0.0614,-0.0595,2052
20,0.5537,-0.7815,-0.1672,-0.032,-0.0698,-0.0523,2050
20,0.5371,-0.7932,-0.1606,-0.0487,-0.0672,-0.0511,2052
20,0.52,-0.7966,-0.1506,-0.0703,-0.0502,-0.0419,2052
20,0.5312,-0.7925,-0.1599,-0.0826,-0.0539,-0.0591,2048
20,0.5481,-0.7988,-0.1824,-0.0791,-0.0676,-0.0784,2060
20,0.5942,-0.8123,-0.1699,-0.0336,-0.0874,-0.0925,2049
20,0.5723,-0.8086,-0.1592,-0.0629,-0.0646,-0.085,2049
20,0.5527,-0.8159,-0.1641,-0.0653,-0.0802,-0.0762,2049
20,0.563,-0.8091,-0.1841,-0.0245,-0.1067,-0.0822,2057
20,0.5737,-0.8108,-0.1821,-0.0134,-0.0963,-0.073,2054
20,0.5486,-0.8025,-0.1758,0.0198,-0.07,-0.0742,2051
20,0.5569,-0.8118,-0.1682,0.0214,-0.0747,-0.0575,2049
20,0.5654,-0.812,-0.1685,0.015,-0.1028,-0.0557,2043
20,0.5549,-0.8196,-0.1599,-0.0141,-0.1045,-0.0382,2051
20,0.5376,-0.8105,-0.1772,-0.026,-0.1289,-0.0561,2046
20,0.5564,-0.8237,-0.165,-0.0301,-0.1575,-0.0796,2050
20,0.562,-0.8132,-0.1609,-0.0328,-0.133,-0.0924,2052
20,0.5532,-0.8157,-0.1558,-0.057,-0.1214,-0.0866,2053
20,0.5498,-0.8171,-0.1697,-0.057,-0.1182,-0.0834,2051
20,0.5439,-0.8123,-0.1709,-0.0475,-0.1008,-0.0828,2049
20,0.551,-0.8008,-0.1804,-0.0385,-0.0775,-0.0824,2051
20,0.5496,-0.8123,-0.1785,-0.0435,-0.0762,-0.0743,2049
20,0.5266,-0.7876,-0.197,-0.0354,-0.0599,-0.0686,2051
20,0.5322,-0.7947,-0.188,-0.0407,-0.0402,-0.0589,2054
20,0.5347,-0.7881,-0.1892,-0.0366,-0.034,-0.0618,2048
20,0.53,-0.7908,-0.1956,-0.0551,-0.0575,-0.0675,2050
20,0.5522,-0.7942,-0.175,-0.0506,-0.0674,-0.066,2051
20,0.571,-0.7905,-0.1902,-0.0614,-0.1011,-0.0566,2047
20,0.5461,-0.7893,-0.1804,-0.0294,-0.0888,-0.0523,2048
20,0.5437,-0.7905,-0.1948,-0.0398,-0.1163,-0.0507,2051
20,0.5603,-0.7922,-0.1797,-0.0005,-0.1316,-0.0723,2054
20,0.5715,-0.8086,-0.1772,-0.0061,-0.1436,-0.0635,2053
20,0.5781,-0.8064,-0.2014,-0.0107,-0.1655,-0.082,2049
20,0.5823,-0.8083,-0.1924,-0.0121,-0.1719,-0.0842,2054
20,0.5823,-0.8076,-0.1948,-0.0218,-0.1393,-0.0859,2049
20,0.5784,-0.7983,-0.1794,-0.0113,-0.1181,-0.0955,2050
20,0.5771,-0.803,-0.1697,-0.0115,-0.1053,-0.0899,2050
20,0.575,-0.7991,-0.1873,-0.0071,-0.0985,-0.0856,2049
20,0.5686,-0.7974,-0.1951,0.0081,-0.0842,-0.075,2053
20,0.5623,-0.7881,-0.1912,-0.0019,-0.0718,-0.0571,2050
20,0.5566,-0.7859,-0.1829,0.0052,-0.0345,-0.041,2052
20,0.5435,-0.7932,-0.1877,0.0105,0.0116,-0.0229,2050
20,0.5493,-0.7847,-0.1904,0.0209,0.0212,-0.0252,2050
20,0.5471,-0.7825,-0.1902,0.0181,0.0421,-0.0188,2046
20,0.5557,-0.7913,-0.1729,0.0083,0.0407,-0.0136,2051
20,0.5496,-0.7822,-0.176,0.0096,0.0178,-0.021,2052
20,0.5649,-0.7942,-0.1804,0.0119,0.0233,-0.0317,2048
20,0.5596,-0.7976,-0.1877,0.0001,0.0244,-0.0437,2051
20,0.5586,-0.793,-0.1821,0.0023,0.0112,-0.0505,2042
20,0.5608,-0.7996,-0.1924,0.0065,-0.0072,-0.0654,2053
20,0.5698,-0.804,-0.1948,0.0133,-0.0061,-0.0799,2053
20,0.5671,-0.8071,-0.1904,0.0152,-0.0103,-0.0874,2052
20,0.5667,-0.8074,-0.1895,0.0037,-0.0274,-0.0975,2051
20,0.5696,-0.8066,-0.1799,0.0185,-0.0437,-0.1061,2050
20,0.5779,-0.7981,-0.1907,0.0149,-0.0641,-0.1127,2051
20,0.582,-0.7979,-0.1926,0.0134,-0.039,-0.1055,2050
20,0.5811,-0.7937,-0.1912,0.0138,-0.0559,-0.0914,2060
20,0.5847,-0.7905,-0.1895,0.0168,-0.0583,-0.0818,2050
20,0.5911,-0.7959,-0.1948,0.0213,-0.0658,-0.0655,2052
20,0.592,-0.7859,-0.1926,0.029,-0.0678,-0.0543,2048
20,0.594,-0.7917,-0.1882,0.0177,-0.0798,-0.0214,2052
20,0.5596,-0.7971,-0.1877,0.0257,-0.0638,-0.0141,2050
20,0.5664,-0.8022,-0.178,0.0125,-0.0322,-0.0237,2048
20,0.5728,-0.7915,-0.1716,-0.0073,0.0087,-0.0185,2050
20,0.5701,-0.7908,-0.1843,-0.0304,0.0282,-0.0105,2050
20,0.5708,-0.7917,-0.1873,-0.0494,0.0277,-0.0133,2052
20,0.5835,-0.79,-0.1816,-0.0413,0.0201,-0.0201,2052
20,0.5713,-0.7881,-0.168,-0.0501,0.0158,-0.0229,2052
20,0.5684,-0.793,-0.175,-0.0543,-0.0036,-0.0274,2050
20,0.5654,-0.7896,-0.179,-0.0443,-0.0125,-0.0406,2047
20,0.571,-0.7837,-0.187,-0.0312,-0.0304,-0.0482,2046
20,0.574,-0.7791,-0.1938,-0.0209,-0.0535,-0.0497,2050
20,0.5676,-0.7896,-0.2,-0.0047,-0.0828,-0.0547,2056
20,0.5583,-0.7861,-0.1958,0.02,-0.0832,-0.059,2052
21,0.5583,-0.7771,-0.208,0.0459,-0.0795,-0.0533,2050
21,0.5647,-0.793,-0.2131,0.0433,-0.0795,-0.055,2052
21,0.5698,-0.7844,-0.2246,0.035,-0.1088,-0.0662,2050
21,0.5747,-0.7844,-0.2007,0.0357,-0.1288,-0.0778,2048
21,0.5784,-0.7971,-0.1887,0.0205,-0.1258,-0.085,2052
21,0.574,-0.8086,-0.1865,0.0064,-0.1324,-0.0759,2051
21,0.5642,-0.7935,-0.2065,0.0256,-0.1365,-0.0691,2053
21,0.5435,-0.7859,-0.1985,0.0177,-0.1304,-0.0627,2051
21,0.5635,-0.7944,-0.1919,0.0264,-0.1198,-0.0577,2051
21,0.5632,-0.7979,-0.1772,0.0328,-0.1013,-0.0514,2053
21,0.5757,-0.7942,-0.1846,0.0174,-0.0924,-0.0403,2053
21,0.5798,-0.8044,-0.1841,-0.0045,-0.0948,-0.0399,2054
21,0.5886,-0.8027,-0.1836,-0.0186,-0.0866,-0.047,2053
21,0.5757,-0.7971,-0.1782,-0.0286,-0.0658,-0.0503,2048
21,0.5764,-0.7954,-0.1829,-0.0368,-0.0551,-0.0474,2050
21,0.5781,-0.7991,-0.1919,-0.0326,-0.0282,-0.0506,2051
21,0.5693,-0.7935,-0.1858,-0.0317,0.0073,-0.0433,2047
21,0.5654,-0.783,-0.1877,-0.0277,0.0286,-0.0298,2052
21,0.5747,-0.7871,-0.1841,-0.0097,0.0214,-0.0253,2049
21,0.5625,-0.7812,-0.1934,0.0015,0.0293,-0.0222,2052
21,0.5608,-0.7837,-0.197,0.0108,0.0388,-0.0265,2051
21,0.5715,-0.7861,-0.2097,0.0115,0.0197,-0.0225,2061
21,0.5728,-0.7844,-0.2009,0.0258,0.0292,-0.0258,2056
21,0.5757,-0.7837,-0.2158,0.0071,0.0141,-0.03,2049
21,0.5718,-0.7878,-0.2007,0.0048,-0.0093,-0.026,2050
21,0.5693,-0.7896,-0.1912,0.0,-0.029,-0.0368,2051
21,0.5637,-0.7957,-0.1914,-0.027,-0.0285,-0.037,2048
21,0.5637,-0.7979,-0.2156,-0.0265,-0.0469,-0.0405,2050
21,0.5715,-0.7937,-0.2031,-0.0154,-0.0473,-0.0439,2048
21,0.5696,-0.7898,-0.2024,-0.0092,-0.0325,-0.0398,2050
21,0.5713,-0.7942,-0.1975,-0.0068,-0.0308,-0.0378,2058
21,0.563,-0.801,-0.2034,-0.008,-0.0128,-0.0353,2049
21,0.5618,-0.7932,-0.2065,0.0015,-0.0117,-0.034,2046
21,0.5847,-0.7903,-0.2053,-0.0056,-0.0177,-0.0332,2053
21,0.5769,-0.7917,-0.1948,-0.0141,-0.017,-0.0386,2052
21,0.5664,-0.79,-0.1943,-0.0149,-0.0076,-0.0361,2052
21,0.5669,-0.7935,-0.1931,-0.0264,-0.0123,-0.0285,2047
21,0.5615,-0.7944,-0.2031,-0.0308,-0.0196,-0.031,2049
21,0.5559,-0.8027,-0.1934,-0.0308,-0.0023,-0.025,2050
21,0.5601,-0.7937,-0.189,-0.0345,0.0008,-0.0226,2050
21,0.5554,-0.7932,-0.1931,-0.0407,0.0041,-0.024,2049
21,0.5581,-0.7861,-0.1975,-0.0274,0.0028,-0.0201,2050
21,0.5745,-0.7834,-0.2236,-0.0161,-0.0045,-0.0222,2052
21,0.5862,-0.7961,-0.2141,-0.0076,-0.0115,-0.0145,2050
21,0.5935,-0.8022,-0.2151,-0.0276,-0.0313,-0.0107,2052
21,0.5823,-0.791,-0.2019,-0.0362,-0.0256,-0.0198,2048
21,0.5708,-0.8025,-0.2026,-0.0425,-0.0049,-0.0253,2046
21,0.564,-0.7874,-0.2009,-0.0459,-0.0103,-0.051,2050
21,0.5898,-0.7976,-0.2288,-0.0356,-0.0186,-0.063,2051
21,0.5823,-0.8032,-0.2021,-0.0457,0.0043,-0.0728,2052
21,0.5803,-0.7844,-0.1914,-0.0674,-0.0011,-0.0674,2053
21,0.5728,-0.7722,-0.2,-0.0513,-0.0178,-0.0582,2057
21,0.5681,-0.7698,-0.1904,-0.0344,-0.012,-0.0321,2051
21,0.5649,-0.7761,-0.186,-0.0374,-0.0075,-0.0157,2056
21,0.5525,-0.7703,-0.1926,-0.0321,-0.0067,-0.0088,2050
21,0.5688,-0.7756,-0.1968,-0.0268,-0.0186,-0.0097,2051
21,0.5674,-0.7925,-0.1838,-0.0421,-0.0065,-0.0087,2050
21,0.542,-0.7959,-0.1846,-0.035,0.0237,-0.0284,2050
21,0.5708,-0.7966,-0.1987,-0.0499,0.0164,-0.0274,2053
21,0.571,-0.7861,-0.2092,-0.0531,-0.0109,-0.0543,2050
21,0.5972,-0.8,-0.2,-0.0531,-0.0193,-0.0587,2048
21,0.5867,-0.7893,-0.1973,-0.0553,-0.027,-0.0642,2051
21,0.5825,-0.7869,-0.2122,-0.0605,-0.0668,-0.0582,2048
21,0.5881,-0.8059,-0.2183,-0.0788,-0.0614,-0.0495,2051
21,0.5752,-0.781,-0.2363,-0.0285,-0.0549,-0.0627,2049
21,0.5942,-0.7854,-0.2146,-0.0237,-0.035,-0.0684,2053
21,0.5881,-0.7939,-0.2104,-0.0345,-0.0172,-0.0547,2054
21,0.574,-0.7776,-0.2241,-0.0197,-0.0186,-0.0594,2056
21,0.5781,-0.7788,-0.2173,-0.0004,0.0076,-0.0393,2049
21,0.5769,-0.7869,-0.2224,0.0093,0.0249,-0.0293,2050
21,0.5989,-0.7822,-0.2317,0.0152,0.0385,-0.0232,2052
21,0.6035,-0.7812,-0.2097,0.016,0.0356,-0.0214,2055
21,0.5942,-0.7842,-0.196,0.0011,0.022,-0.0145,2053
21,0.5835,-0.7898,-0.2056,-0.0186,0.0156,-0.0043,2049
21,0.5864,-0.7976,-0.2041,-0.0158,0.0354,-0.0133,2060
21,0.592,-0.7874,-0.2029,-0.0115,0.0712,-0.019,2048
21,0.6011,-0.7971,-0.2036,-0.0313,0.0863,-0.0145,2051
21,0.593,-0.7842,-0.1982,-0.016,0.1101,-0.0212,2049
21,0.5898,-0.7769,-0.1792,-0.0112,0.1284,-0.0173,2051
21,0.5811,-0.7812,-0.1887,-0.0044,0.1206,-0.0128,2049
21,0.5627,-0.7771,-0.1819,0.0076,0.1159,-0.0043,2046
21,0.563,-0.7705,-0.1843,0.0085,0.1127,0.0024,2048
21,0.5466,-0.7744,-0.1787,0.014,0.1169,0.0182,2048
21,0.5466,-0.7683,-0.1909,0.0089,0.1069,0.0246,2050
21,0.5457,-0.7778,-0.1899,0.0297,0.1186,0.0258,2052
