Timestamp,Ax,Ay,Az,Rx,Ry,Rz,EMG
0,-0.3201,-1.0366,-0.2068,0.977,-3.3407,-0.7516,2040
0,-0.3264,-1.0203,-0.1277,1.1014,-3.3862,-0.636,2040
0,-0.4014,-1.0801,-0.1069,1.1967,-3.4218,-0.5043,2039
0,-0.4502,-1.0938,-0.1086,1.2078,-3.4955,-0.3914,2042
0,-0.5903,-1.0339,-0.1204,1.3324,-3.4228,-0.339,2039
0,-0.6499,-0.9998,-0.0752,1.5905,-3.13,-0.2422,2040
0,-0.6357,-1.1006,-0.0022,1.7899,-2.8212,-0.0619,2040
0,-0.6714,-1.1587,0.0349,1.8915,-2.429,0.0563,2043
0,-0.6726,-1.1848,0.0557,1.9397,-2.004,0.1088,2040
0,-0.5828,-1.1653,0.0266,1.9128,-1.64,0.1716,2041
0,-0.5137,-1.1741,-0.0132,1.8997,-1.3035,0.296,2036
0,-0.4758,-1.1589,-0.0261,1.8442,-1.1013,0.4152,2042
0,-0.4355,-1.1387,-0.0596,1.8646,-1.0322,0.4823,2045
0,-0.4407,-1.0784,-0.0845,2.0061,-1.0765,0.6152,2038
0,-0.5422,-1.0837,-0.0447,2.1627,-1.025,0.7111,2040
0,-0.6157,-1.1267,-0.0195,2.3184,-0.8949,0.7528,2042
0,-0.6289,-1.1948,0.0149,2.4152,-0.7721,0.7486,2041
0,-0.6057,-1.2551,0.0093,2.4457,-0.6697,0.7513,2044
0,-0.5425,-1.3096,-0.0061,2.4304,-0.5572,0.7505,2038
0,-0.4978,-1.3792,-0.032,2.4591,-0.5067,0.7778,2045
0,-0.4875,-1.4517,-0.0273,2.4844,-0.4794,0.8112,2043
0,-0.4851,-1.5349,0.0237,2.3641,-0.4884,0.8433,2042
0,-0.4961,-1.5686,0.0791,2.1774,-0.5506,0.82,2040
0,-0.5232,-1.5427,0.1482,1.9976,-0.6835,0.8018,2042
0,-0.5425,-1.5042,0.1899,1.7885,-0.8335,0.7763,2043
0,-0.5203,-1.3843,0.1794,1.6006,-0.9749,0.7688,2041
0,-0.5205,-1.3208,0.1328,1.479,-1.0331,0.7833,2043
0,-0.5505,-1.2451,0.1145,1.3723,-1.0712,0.762,2038
0,-0.5425,-1.1309,0.0872,1.3065,-1.0979,0.6991,2041
0,-0.55,-1.0715,0.0815,1.2991,-1.1456,0.6521,2039
0,-0.4998,-1.012,0.0999,1.2437,-1.3234,0.5793,2040
0,-0.4426,-0.9387,0.0764,1.1741,-1.4956,0.5131,2039
0,-0.4141,-0.8564,0.0476,1.0685,-1.6306,0.4457,2042
0,-0.3911,-0.7888,0.0232,0.9562,-1.7262,0.4131,2045
0,-0.3447,-0.7454,0.0012,0.8989,-1.8329,0.3424,2042
0,-0.2927,-0.741,-0.0247,0.8666,-2.0225,0.2669,2042
0,-0.2529,-0.7871,-0.022,0.7815,-2.2124,0.192,2044
0,-0.2336,-0.8027,-0.0508,0.6694,-2.4027,0.155,2041
0,-0.2051,-0.7593,-0.0542,0.5525,-2.5992,0.0937,2044
0,-0.1941,-0.7102,-0.0818,0.444,-2.8012,0.0562,2040
0,-0.1921,-0.6345,-0.0813,0.3747,-2.9609,0.0209,2040
0,-0.1604,-0.5747,-0.0728,0.3133,-3.0839,-0.0028,2042
0,-0.1482,-0.5405,-0.064,0.3365,-3.1913,-0.0174,2041
0,-0.1624,-0.5762,-0.0198,0.3603,-3.1742,-0.0308,2044
0,-0.217,-0.634,0.0459,0.2737,-3.0857,-0.0766,2042
0,-0.2239,-0.6394,0.0723,0.147,-2.9564,-0.089,2041
0,-0.2014,-0.605,0.0764,0.1079,-2.8078,-0.0386,2041
0,-0.1384,-0.5916,0.0662,0.0743,-2.6864,-0.006,2043
0,-0.0732,-0.5933,0.0884,0.0704,-2.5567,0.0651,2044
0,-0.0464,-0.6133,0.1138,0.0868,-2.4035,0.1615,2039
0,-0.0171,-0.6616,0.1487,0.071,-2.2216,0.2651,2041
0,-0.0195,-0.7168,0.1873,0.0063,-2.0265,0.3438,2043
0,-0.0254,-0.7358,0.229,-0.1127,-1.8737,0.3424,2046
0,0.0342,-0.7417,0.2461,-0.2217,-1.7305,0.3936,2041
0,0.0569,-0.7537,0.2712,-0.3208,-1.6448,0.4085,2040
0,0.0786,-0.7368,0.303,-0.4265,-1.5547,0.4018,2039
0,0.1089,-0.7251,0.3247,-0.4959,-1.4953,0.3454,2042
0,0.1545,-0.7502,0.324,-0.5381,-1.4837,0.3057,2043
0,0.1934,-0.7979,0.3384,-0.5498,-1.5147,0.312,2048
0,0.1995,-0.8103,0.3354,-0.528,-1.5191,0.3341,2042
0,0.1997,-0.8252,0.3516,-0.5031,-1.4207,0.3646,2045
0,0.1785,-0.8359,0.3862,-0.5167,-1.3122,0.3486,2040
0,0.1855,-0.8635,0.406,-0.4991,-1.2109,0.2951,2034
0,0.2419,-0.9016,0.4194,-0.4779,-1.1649,0.2304,2045
0,0.2688,-0.9575,0.4399,-0.4737,-1.1648,0.1562,2042
0,0.3081,-1.0022,0.469,-0.5319,-1.1665,0.125,2043
0,0.3157,-0.9731,0.4946,-0.6353,-1.1315,0.0902,2040
0,0.314,-0.9048,0.4973,-0.7255,-1.0688,0.035,2038
0,0.322,-0.8523,0.51,-0.7176,-1.0254,-0.0474,2042
0,0.3313,-0.8601,0.5125,-0.6589,-0.9801,-0.1794,2041
0,0.3525,-0.8899,0.5083,-0.6216,-0.9778,-0.2851,2042
0,0.365,-0.9268,0.4988,-0.5731,-0.9901,-0.3926,2042
0,0.3887,-0.9597,0.4939,-0.5197,-0.9694,-0.4576,2041
0,0.4167,-0.9778,0.4963,-0.5086,-0.91,-0.5197,2040
0,0.4385,-1.0027,0.519,-0.5428,-0.8367,-0.5851,2041
0,0.4631,-1.0132,0.533,-0.6153,-0.7174,-0.662,2041
0,0.4919,-1.0098,0.5322,-0.693,-0.5601,-0.758,2041
0,0.4971,-1.0249,0.5024,-0.7164,-0.3631,-0.86,2044
0,0.4714,-1.0703,0.4863,-0.6959,-0.1487,-0.9657,2039
0,0.4646,-1.115,0.457,-0.6778,0.0724,-1.0681,2041
0,0.4548,-1.1482,0.4602,-0.6893,0.282,-1.1697,2040
0,0.4717,-1.1604,0.4851,-0.6994,0.5496,-1.2761,2041
0,0.5093,-1.1628,0.509,-0.7428,0.8628,-1.4194,2042
0,0.5425,-1.1799,0.4927,-0.7656,1.1054,-1.6114,2045
0,0.5354,-1.2275,0.4751,-0.7978,1.2603,-1.8018,2038
0,0.4692,-1.2891,0.4597,-0.8533,1.4105,-2.0148,2043
0,0.4436,-1.3035,0.4463,-0.9194,1.5079,-2.1747,2037
0,0.3948,-1.2397,0.3987,-0.9336,1.6261,-2.3658,2043
0,0.3916,-1.1597,0.3511,-0.8689,1.745,-2.5416,2040
0,0.3926,-1.1147,0.2622,-0.7131,1.8759,-2.6598,2040
0,0.4224,-1.1099,0.1836,-0.5135,1.9691,-2.7593,2042
0,0.4336,-1.0967,0.0979,-0.3485,2.1406,-2.7661,2040
0,0.4592,-1.0959,0.0005,-0.1831,2.2551,-2.7615,2042
0,0.509,-1.1133,-0.064,-0.0455,2.2852,-2.6903,2039
0,0.5171,-1.1038,-0.1091,0.0642,2.1985,-2.6494,2039
0,0.5073,-1.0747,-0.1169,0.1248,2.053,-2.635,2045
0,0.5271,-1.0559,-0.1189,0.1321,1.858,-2.6229,2042
0,0.5425,-1.0698,-0.1243,0.1675,1.59,-2.6059,2044
0,0.5833,-1.1055,-0.0876,0.1661,1.1994,-2.6177,2042
0,0.5393,-1.1401,-0.0723,0.1739,0.9102,-2.6251,2041
0,0.4846,-1.146,-0.0532,0.1282,0.6743,-2.6318,2039
0,0.3833,-1.145,-0.0247,0.1309,0.5189,-2.6874,2041
0,0.3237,-1.1455,0.0247,0.0846,0.403,-2.7313,2039
0,0.2458,-1.1541,0.062,0.0178,0.3445,-2.7509,2042
1,0.2231,-1.1516,0.1086,-0.0638,0.3301,-2.6876,2039
1,0.2256,-1.1597,0.1438,-0.1639,0.2173,-2.7103,2041
1,0.2202,-1.1665,0.1853,-0.2983,0.1052,-2.6706,2041
1,0.2114,-1.1704,0.2451,-0.4576,-0.0418,-2.6638,2040
1,0.1685,-1.1609,0.2666,-0.6375,-0.1348,-2.5922,2041
1,0.1331,-1.1296,0.2898,-0.8071,-0.1875,-2.5409,2042
1,0.1011,-1.0979,0.302,-0.9608,-0.1967,-2.4774,2040
1,0.0547,-1.0469,0.3525,-1.1533,-0.1096,-2.4631,2041
1,-0.0083,-0.9785,0.3721,-1.372,0.0422,-2.3758,2041
1,-0.0251,-0.9663,0.375,-1.4898,0.1514,-2.404,2040
1,-0.0505,-0.969,0.3472,-1.5676,0.3173,-2.3322,2044
1,-0.0154,-0.9978,0.3103,-1.6084,0.4027,-2.2475,2040
1,-0.0061,-1.0081,0.2607,-1.6398,0.5184,-2.1233,2040
1,0.0286,-1.03,0.2319,-1.6277,0.6754,-1.954,2040
1,0.063,-1.0764,0.2361,-1.6327,0.9058,-1.7474,2038
1,0.1311,-1.1074,0.2771,-1.6607,1.0606,-1.5743,2044
1,0.1934,-1.1187,0.314,-1.7478,1.1612,-1.368,2042
1,0.2366,-1.1077,0.3306,-1.8134,1.1781,-1.1708,2039
1,0.2749,-1.0708,0.3188,-1.9096,1.1308,-0.976,2041
1,0.3188,-1.0371,0.2944,-1.9893,1.0364,-0.7594,2041
1,0.3467,-0.9929,0.2561,-2.0491,0.9388,-0.5389,2041
1,0.3337,-0.9604,0.238,-2.0539,0.8035,-0.3276,2042
1,0.3494,-0.9517,0.2026,-2.0082,0.6103,-0.0995,2041
1,0.3591,-0.9836,0.1836,-1.9466,0.3967,0.132,2040
1,0.3833,-1.0132,0.1594,-1.7837,0.2109,0.396,2041
1,0.407,-1.0562,0.1423,-1.5842,-0.0968,0.669,2039
1,0.4504,-1.1008,0.1785,-1.4446,-0.3125,1.0049,2042
1,0.5002,-1.1323,0.2705,-1.4223,-0.2442,1.3964,2047
1,0.5027,-1.0989,0.3293,-1.4729,0.026,1.754,2042
1,0.5432,-1.1079,0.3057,-1.544,0.1806,2.0249,2046
1,0.5449,-1.0972,0.2546,-1.5416,0.2199,2.4784,2039
1,0.5315,-1.1218,0.2515,-1.5203,0.1973,2.891,2043
1,0.4927,-1.0854,0.2739,-1.5363,0.1778,3.2015,2041
1,0.3672,-0.9697,0.2908,-1.5305,0.1595,3.3861,2040
1,0.2869,-0.8726,0.2827,-1.5214,0.1033,3.4459,2043
1,0.2156,-0.7871,0.2085,-1.3952,0.002,3.4533,2039
1,0.1721,-0.7388,0.1313,-1.1766,-0.1025,3.411,2042
1,0.155,-0.7075,0.0481,-0.8909,-0.1293,3.4138,2044
1,0.1479,-0.6919,-0.0259,-0.5622,-0.0222,3.448,2039
1,0.1616,-0.6882,-0.0847,-0.2109,0.1675,3.5279,2036
1,0.1565,-0.7207,-0.0935,0.0878,0.3737,3.4986,2042
1,0.1548,-0.7644,-0.0896,0.2803,0.4613,3.422,2045
1,0.1833,-0.8159,-0.0583,0.3783,0.3762,3.3689,2038
1,0.207,-0.8586,-0.0466,0.4101,0.2208,3.3212,2042
1,0.2324,-0.9023,-0.052,0.4279,0.1001,3.3588,2044
1,0.2385,-0.9436,-0.0645,0.4936,0.0125,3.3335,2042
1,0.2642,-0.9661,-0.0876,0.5766,-0.1121,3.3035,2042
1,0.2869,-0.9563,-0.0603,0.6042,-0.3811,3.2561,2043
1,0.1948,-0.9397,-0.0225,0.6596,-0.549,3.168,2042
1,0.125,-0.9353,0.0398,0.7588,-0.5277,3.0408,2039
1,0.0845,-0.9373,0.0847,0.8954,-0.4422,2.8734,2032
1,0.0789,-0.9038,0.1868,1.0106,-0.3345,2.6687,2043
1,0.1328,-0.8765,0.2932,1.0829,-0.3333,2.4976,2046
1,0.1584,-0.9109,0.3389,1.2366,-0.2878,2.3281,2041
1,0.1936,-0.9597,0.4321,1.3941,-0.1551,2.133,2043
1,0.2961,-0.9971,0.5334,1.3712,0.0988,1.9815,2039
1,0.3335,-1.0112,0.5703,1.376,0.353,1.774,2039
1,0.4136,-1.0093,0.6013,1.3712,0.6192,1.6166,2042
1,0.5007,-1.0164,0.6619,1.2785,0.6726,1.4541,2042
1,0.5396,-1.0161,0.6555,1.2484,0.7428,1.2664,2044
1,0.5583,-1.0242,0.6545,1.2884,0.7979,1.1005,2041
1,0.554,-1.012,0.6694,1.2844,0.857,0.8463,2042
1,0.531,-1.0012,0.6255,1.3479,0.9204,0.5428,2040
1,0.5044,-1.0073,0.5898,1.449,0.9877,0.2277,2039
1,0.4956,-1.0215,0.5332,1.5375,0.9162,-0.0788,2043
1,0.5056,-1.0083,0.5295,1.572,0.7799,-0.3388,2043
1,0.512,-1.0125,0.5369,1.5739,0.7272,-0.5389,2043
1,0.554,-1.012,0.5364,1.5542,0.7811,-0.7445,2039
1,0.5525,-0.9858,0.5146,1.5491,0.8668,-0.9429,2041
1,0.5405,-0.9602,0.4902,1.5522,0.8875,-1.177,2042
1,0.5674,-0.9575,0.4868,1.5087,0.8455,-1.3866,2040
1,0.5752,-0.9954,0.4819,1.4304,0.8071,-1.6408,2042
1,0.5498,-1.1208,0.427,1.4235,0.9256,-1.8849,2042
1,0.5293,-1.28,0.3923,1.4419,1.017,-2.1503,2043
1,0.4927,-1.3862,0.3738,1.3489,0.9893,-2.4342,2037
1,0.4514,-1.4668,0.365,1.2355,0.9813,-2.7454,2043
1,0.4626,-1.5947,0.3215,1.1469,0.9705,-3.051,2043
1,0.5081,-1.7493,0.2764,1.0846,0.8544,-3.2262,2043
1,0.4873,-1.7036,0.2266,0.946,0.7468,-3.2168,2042
1,0.4036,-1.5205,0.1892,0.7984,0.6052,-3.3284,2041
1,0.3137,-1.3418,0.144,0.7689,0.5862,-3.5738,2042
1,0.3005,-1.26,0.0422,0.925,0.7379,-3.8503,2043
1,0.3423,-1.3247,-0.1006,1.2182,0.9377,-4.0407,2043
1,0.3755,-1.4604,-0.2324,1.5215,1.0676,-4.0724,2038
1,0.3782,-1.5925,-0.3052,1.6833,0.9424,-4.0547,2042
1,0.3838,-1.6602,-0.3005,1.6546,0.6055,-4.0977,2042
1,0.3772,-1.7124,-0.2253,1.4623,0.2196,-4.1587,2042
1,0.4368,-1.7175,-0.1145,1.1499,-0.2037,-4.1998,2040
1,0.3674,-1.6797,-0.012,0.8472,-0.5204,-4.3033,2042
1,0.3594,-1.6909,0.0354,0.4462,-1.0031,-4.2742,2043
1,0.3977,-1.6702,0.0845,0.1377,-1.4783,-4.2748,2042
1,0.3176,-1.686,0.1406,-0.1384,-1.8215,-4.3635,2042
1,0.2803,-1.7126,0.2329,-0.522,-2.1537,-4.3635,2044
1,0.0688,-1.6746,0.2773,-0.9254,-2.1646,-4.3635,2040
1,0.0269,-1.6289,0.3115,-1.2741,-2.0429,-4.3635,2039
1,0.073,-1.5698,0.3687,-1.5885,-1.9285,-4.3635,2041
1,-0.1284,-1.4832,0.3787,-1.8202,-1.5739,-4.3635,2039
1,-0.1423,-1.4292,0.4026,-2.0786,-1.2453,-4.2973,2041
2,-0.1882,-1.3638,0.4443,-2.3237,-0.8484,-4.2501,2039
2,-0.2341,-1.3123,0.4612,-2.5673,-0.4215,-4.1323,2040
2,-0.3147,-1.2173,0.4331,-2.7449,0.0914,-4.0223,2044
2,-0.2966,-1.1768,0.4038,-2.8972,0.4994,-3.9093,2040
2,-0.3088,-1.113,0.3735,-3.0071,0.866,-3.8419,2046
2,-0.2964,-1.0654,0.3503,-3.1127,1.1785,-3.8074,2043
2,-0.2471,-1.0332,0.3086,-3.1678,1.4307,-3.6805,2045
2,-0.2065,-0.9895,0.3108,-3.2323,1.6809,-3.5312,2041
2,-0.1333,-0.9939,0.3069,-3.3164,1.7861,-3.4721,2038
2,-0.0808,-0.957,0.2827,-3.3644,1.7616,-3.231,2041
2,-0.0039,-0.8818,0.2173,-3.3548,1.6836,-2.9484,2040
2,0.0291,-0.8,0.1235,-3.2524,1.3154,-2.6099,2040
2,0.0657,-0.7617,0.0967,-3.2092,0.7504,-2.1893,2042
2,0.1057,-0.7253,0.1167,-3.174,0.2653,-1.7282,2038
2,0.1213,-0.6421,0.1765,-2.9245,-0.3578,-1.0846,2040
2,0.0962,-0.6008,0.3149,-2.6071,-0.7465,-0.3533,2039
2,0.0535,-0.6941,0.4644,-2.2134,-0.9058,0.2269,2042
2,0.0742,-0.8123,0.5579,-1.9366,-0.8367,0.7862,2041
2,0.1272,-0.9211,0.5586,-1.6689,-0.5456,1.2977,2040
2,0.2065,-1.0959,0.5337,-1.5059,-0.1425,1.6524,2046
2,0.2595,-1.251,0.5298,-1.3331,0.2388,1.9732,2044
2,0.3801,-1.3604,0.5295,-1.1676,0.2416,2.2546,2043
2,0.5266,-1.3777,0.5515,-0.9997,0.0154,2.6589,2044
2,0.7083,-1.344,0.5708,-0.9051,-0.1449,3.0533,2043
2,0.8003,-1.2952,0.5042,-0.8372,-0.0727,3.466,2044
2,0.7991,-1.3079,0.4233,-0.7885,0.1321,3.8181,2042
2,0.793,-1.3044,0.3584,-0.6913,0.336,4.2022,2043
2,0.7512,-1.2329,0.3171,-0.7879,0.359,4.3634,2038
2,0.6052,-1.0623,0.2954,-0.9887,0.0136,4.3634,2040
2,0.5066,-0.9485,0.2322,-1.0151,-0.5087,4.3634,2044
2,0.4487,-0.8894,0.1238,-0.8461,-0.8022,4.3634,2039
2,0.3916,-0.8621,-0.0498,-0.537,-0.7983,4.3634,2040
2,0.3018,-0.8586,-0.1777,-0.2113,-0.5448,4.3634,2041
2,0.1738,-0.8347,-0.2849,0.1248,-0.2389,4.3634,2044
2,0.0383,-0.8376,-0.3091,0.4896,-0.1065,4.3634,2043
2,-0.0283,-0.8892,-0.3096,0.8468,-0.2613,4.3634,2042
2,-0.0542,-0.9592,-0.2793,1.138,-0.5032,4.3634,2038
2,-0.0327,-1.0503,-0.269,1.3724,-0.6311,4.3634,2040
2,0.019,-1.1748,-0.2341,1.619,-0.6497,4.3634,2044
2,0.0251,-1.2761,-0.1748,1.7241,-0.7536,4.3634,2043
2,0.051,-1.3784,-0.0967,1.7857,-1.0461,4.3634,2044
2,0.0684,-1.3879,0.0549,1.6534,-1.4029,4.1052,2039
2,0.0938,-1.3293,0.1494,1.5241,-1.9088,3.8454,2044
2,0.1125,-1.3308,0.1484,1.6554,-2.289,3.617,2039
2,0.2109,-1.3767,0.2505,1.8339,-2.6486,3.356,2043
2,0.2971,-1.3179,0.3042,1.8382,-3.0216,3.2166,2039
2,0.3711,-1.283,0.3857,1.8299,-3.2979,3.0666,2043
2,0.488,-1.2515,0.4841,1.7977,-3.5276,2.9887,2042
2,0.5833,-1.1748,0.5525,1.7727,-3.6287,2.9554,2043
2,0.6367,-1.0627,0.6294,1.7234,-3.4693,2.8469,2043
2,0.687,-0.9929,0.656,1.719,-3.1981,2.6402,2048
2,0.7136,-0.9585,0.6104,1.8951,-2.8771,2.4635,2041
2,0.7314,-0.9934,0.5464,2.0699,-2.4233,2.2487,2047
2,0.7083,-1.0085,0.5056,2.1655,-1.9528,1.9992,2039
2,0.6851,-0.9866,0.5247,2.1462,-1.5277,1.6448,2037
2,0.7612,-1.0266,0.5706,2.0339,-1.2059,1.3157,2042
2,0.8401,-1.0701,0.6033,1.9772,-1.0088,1.0308,2039
2,0.8589,-1.0906,0.6489,1.8883,-0.8215,0.8207,2039
2,0.8828,-1.0549,0.6531,1.7579,-0.6401,0.6348,2042
2,0.856,-0.957,0.6262,1.7299,-0.4161,0.3703,2041
2,0.8965,-0.8557,0.6245,1.702,-0.2211,0.0639,2042
2,0.9849,-0.7756,0.5889,1.6656,-0.112,-0.3041,2044
2,1.1123,-0.7544,0.5618,1.5661,-0.1237,-0.6698,2040
2,1.1267,-0.8542,0.4878,1.397,-0.1983,-1.0959,2042
2,0.9912,-1.0854,0.4194,1.2192,-0.3368,-1.5644,2039
2,0.8018,-1.2983,0.3992,0.9416,-0.5261,-1.9995,2039
2,0.6597,-1.3716,0.4158,0.6417,-0.6737,-2.4163,2033
2,0.542,-1.3259,0.3958,0.4212,-0.6456,-2.8208,2040
2,0.4741,-1.2939,0.3608,0.3009,-0.4686,-3.276,2038
2,0.4397,-1.314,0.2734,0.2365,-0.153,-3.6601,2043
2,0.4766,-1.4341,0.1421,0.2737,0.1755,-3.9351,2045
2,0.4819,-1.5767,0.043,0.3043,0.4659,-4.0712,2038
2,0.4375,-1.6736,-0.0242,0.2144,0.7075,-4.0923,2042
2,0.4397,-1.646,-0.0303,0.0747,0.8039,-4.108,2037
2,0.4907,-1.5662,0.0352,-0.1495,0.7565,-4.1385,2045
2,0.5239,-1.4644,0.0916,-0.3662,0.7807,-4.2382,2041
2,0.5688,-1.4297,0.137,-0.581,0.7998,-4.247,2046
2,0.4756,-1.4226,0.1284,-0.6434,0.9048,-4.3379,2039
2,0.4238,-1.4216,0.1594,-0.6613,1.0238,-4.3635,2043
2,0.3818,-1.4055,0.2019,-0.7076,1.1086,-4.3635,2042
2,0.3259,-1.3682,0.2302,-0.7344,1.114,-4.3635,2039
2,0.251,-1.3638,0.2913,-0.8068,1.1223,-4.3635,2040
2,0.231,-1.3972,0.3486,-0.9642,1.0946,-4.3635,2040
2,0.1587,-1.4307,0.4001,-1.2114,0.9539,-4.3635,2043
2,0.0908,-1.4438,0.4041,-1.4583,0.7761,-4.3635,2039
2,0.0491,-1.429,0.3833,-1.6748,0.5734,-4.3635,2044
2,-0.0684,-1.3899,0.3503,-1.8943,0.4299,-4.3635,2041
2,-0.1074,-1.3228,0.2603,-2.0391,0.2542,-4.3635,2040
2,-0.1604,-1.2781,0.147,-2.0904,0.0674,-4.3635,2041
2,-0.2078,-1.2642,0.0283,-2.1224,-0.2103,-4.3635,2043
2,-0.2361,-1.2747,-0.0471,-2.0588,-0.4287,-4.3635,2037
2,-0.3081,-1.3088,-0.0266,-1.9738,-0.6405,-4.3635,2038
2,-0.4031,-1.3181,0.0808,-1.9475,-0.8239,-4.3635,2040
2,-0.436,-1.2795,0.1997,-1.9544,-0.813,-4.0759,2045
2,-0.4688,-1.116,0.3127,-1.9616,-0.7187,-3.7404,2040
2,-0.4968,-0.8521,0.3455,-1.8166,-0.7793,-3.3567,2042
2,-0.3931,-0.7639,0.3435,-1.6143,-1.1682,-3.0293,2041
2,-0.3704,-0.6379,0.4045,-1.26,-1.6141,-2.404,2041
2,-0.3616,-0.832,0.5227,-1.0945,-1.5419,-1.7227,2041
2,-0.3716,-1.1064,0.6724,-1.2055,-1.162,-0.9897,2043
2,-0.3706,-1.2686,0.8262,-1.3408,-0.7228,-0.2792,2042
3,-0.3311,-1.3179,1.0042,-1.3238,-0.2646,0.3208,2042
3,-0.2583,-1.3381,1.1348,-1.2702,0.2344,0.8127,2043
3,-0.1289,-1.2214,1.1714,-1.1722,0.7068,1.4077,2044
3,0.0232,-1.2119,1.1628,-1.1097,1.1428,1.8454,2043
3,0.3191,-1.2778,1.0664,-1.0347,1.4163,2.3341,2047
3,0.5688,-1.4441,0.9919,-0.9702,1.4575,2.8022,2044
3,0.5979,-1.5791,0.9556,-1.0556,1.523,3.1578,2043
3,0.4971,-1.5481,0.917,-1.34,1.6084,3.3816,2042
3,0.3855,-1.2881,0.8149,-1.6291,1.5735,3.6115,2032
3,0.2903,-1.0249,0.7358,-1.799,1.2936,3.5051,2047
3,0.3013,-0.76,0.6072,-1.6551,0.7988,3.3156,2040
3,0.3184,-0.5754,0.4531,-1.4131,0.5665,3.1632,2040
3,0.343,-0.3997,0.248,-1.1326,0.5613,3.2078,2043
3,0.3296,-0.3599,0.0801,-0.8564,0.6086,3.3314,2039
3,0.2498,-0.4619,-0.0508,-0.7367,0.8448,3.5633,2043
3,0.1006,-0.5752,-0.1028,-0.5654,1.0922,3.898,2037
3,-0.103,-0.6108,-0.0422,-0.1989,0.9813,4.1213,2038
3,-0.1008,-0.6475,0.0564,0.3297,0.6542,4.0205,2040
3,0.0698,-0.7639,0.178,0.81,0.4409,3.6603,2045
3,0.2283,-0.8833,0.2993,1.0834,0.2135,3.3239,2044
3,0.3491,-1.0085,0.4336,1.1199,0.0232,3.0048,2036
3,0.4614,-1.0127,0.5439,1.065,-0.1665,2.7753,2046
3,0.636,-1.0027,0.5938,1.0315,-0.4228,2.5372,2046
3,0.7061,-0.8796,0.6272,1.0706,-0.7231,2.4715,2045
3,0.6995,-0.74,0.708,1.2054,-0.9921,2.3758,2042
3,0.7341,-0.6616,0.8457,1.4125,-1.1411,2.2009,2036
3,0.8042,-0.676,0.9602,1.554,-1.0549,2.0049,2043
3,0.8967,-0.7803,1.0073,1.5552,-0.7761,1.8189,2046
3,0.9468,-0.8149,0.9849,1.4379,-0.5473,1.7809,2042
3,0.9163,-0.7815,0.8743,1.3946,-0.4307,1.6447,2041
3,0.832,-0.71,0.7732,1.58,-0.2863,1.4315,2040
3,0.7622,-0.6611,0.7268,1.7116,-0.1598,1.1604,2039
3,0.7148,-0.6438,0.752,1.7572,0.0879,0.903,2044
3,0.6948,-0.7209,0.8005,1.7876,0.3898,0.5356,2043
3,0.6794,-0.8052,0.8181,1.823,0.6058,0.206,2043
3,0.6631,-0.8943,0.7925,1.8389,0.6163,-0.114,2040
3,0.6709,-0.9634,0.7817,1.7552,0.4907,-0.3641,2044
3,0.71,-1.0039,0.7688,1.5937,0.2706,-0.6026,2040
3,0.7581,-0.9885,0.7422,1.4486,0.0916,-0.812,2041
3,0.8362,-0.9719,0.7158,1.2647,-0.0256,-1.0661,2044
3,0.8657,-0.968,0.6792,1.1211,-0.1253,-1.3481,2040
3,0.928,-0.98,0.6348,0.9507,-0.3041,-1.6325,2043
3,0.9421,-1.0515,0.5923,0.7465,-0.4811,-1.9097,2044
3,0.9429,-1.1487,0.5833,0.5317,-0.6574,-2.1736,2042
3,0.9229,-1.2915,0.5898,0.2165,-0.7425,-2.4089,2039
3,0.8247,-1.3677,0.5286,-0.0835,-0.614,-2.5582,2042
3,0.7083,-1.5056,0.4763,-0.2575,-0.3144,-2.8082,2038
3,0.6924,-1.636,0.4414,-0.5181,-0.1996,-3.0036,2038
3,0.6707,-1.6118,0.426,-0.8765,-0.2571,-3.0614,2044
3,0.647,-1.4822,0.4458,-1.2689,-0.3745,-3.1818,2039
3,0.6218,-1.3982,0.4062,-1.4724,-0.2192,-3.3866,2040
3,0.4927,-1.4131,0.3201,-1.535,0.1342,-3.5878,2042
3,0.3206,-1.3914,0.1936,-1.4604,0.4713,-3.7676,2042
3,0.2405,-1.3088,0.1147,-1.2796,0.8151,-3.9414,2041
3,0.2192,-1.2703,0.0332,-0.989,1.167,-4.1246,2041
3,0.2722,-1.2307,0.0273,-0.7891,1.3346,-4.2041,2040
3,0.3208,-1.1929,0.1018,-0.8582,1.5073,-4.2098,2040
3,0.3286,-1.1768,0.1304,-1.024,1.6002,-4.1884,2041
3,0.3064,-1.1814,0.1265,-1.2411,1.6046,-4.1283,2042
3,0.2844,-1.1882,0.1189,-1.4913,1.4414,-4.1052,2041
3,0.283,-1.1594,0.1211,-1.7546,1.2207,-4.0744,2040
3,0.2473,-1.1455,0.106,-1.9462,1.0341,-4.068,2040
3,0.2227,-1.1382,0.0925,-2.0821,0.7542,-4.1154,2039
3,0.1614,-1.1399,0.0854,-2.1883,0.5231,-4.1156,2043
3,0.0776,-1.1462,0.0791,-2.2431,0.3691,-4.1254,2036
3,0.0403,-1.2314,0.106,-2.3125,0.224,-4.1386,2041
3,-0.043,-1.3557,0.2019,-2.5132,0.0695,-4.2552,2041
3,-0.1597,-1.4531,0.3135,-2.8135,0.0125,-4.3635,2041
3,-0.2188,-1.4219,0.4387,-3.2425,-0.0125,-4.3635,2042
3,-0.2307,-1.3611,0.5596,-3.5057,-0.0177,-4.3635,2041
3,-0.2039,-1.3691,0.6497,-3.8809,0.0521,-4.3635,2039
3,-0.3152,-1.4065,0.738,-4.2485,0.1527,-4.2767,2040
3,-0.3904,-1.3767,0.7378,-4.3635,0.2285,-4.2471,2042
3,-0.3618,-1.3113,0.7185,-4.3635,0.2109,-4.102,2041
3,-0.3711,-1.1882,0.6335,-4.3635,0.1328,-3.8566,2043
3,-0.374,-1.1147,0.5798,-4.3635,-0.0947,-3.7217,2041
3,-0.3022,-1.0417,0.4944,-4.3635,-0.3505,-3.4081,2043
3,-0.2832,-1.0188,0.4524,-4.3635,-0.5538,-3.069,2045
3,-0.2214,-1.0029,0.4204,-4.3635,-0.5841,-2.6778,2040
3,-0.1414,-0.9661,0.4272,-4.3635,-0.4591,-2.1359,2043
3,-0.1467,-0.8584,0.4517,-4.3635,-0.1627,-1.4346,2043
3,-0.0442,-0.7507,0.4724,-4.1884,-0.0558,-0.7332,2043
3,0.0669,-0.7271,0.5027,-3.699,-0.079,0.1309,2043
3,0.1069,-0.7776,0.6838,-3.074,-0.0202,0.9036,2040
3,0.1377,-0.8418,0.874,-2.6388,0.2641,1.7194,2046
3,0.1465,-0.9414,0.8127,-2.4546,0.386,2.4248,2041
3,0.1973,-1.0701,0.5745,-1.9955,0.2341,3.0823,2043
3,0.2659,-1.2422,0.3369,-1.5829,-0.0337,3.4866,2042
3,0.3706,-1.3376,0.0146,-0.8994,-0.4321,3.6763,2045
3,0.6121,-1.3325,-0.2051,-0.1506,-0.8633,3.957,2044
3,0.8582,-1.3433,-0.3186,0.5671,-1.0531,4.3558,2047
3,1.1089,-1.4724,-0.2297,1.0306,-1.1431,4.3634,2047
3,1.1799,-1.6226,-0.0134,1.1785,-1.1999,4.3634,2046
3,0.9277,-1.6865,0.2776,0.9991,-1.1436,4.3634,2042
3,0.7925,-1.5015,0.4746,0.761,-1.4672,4.3634,2036
3,0.7732,-1.3726,0.551,0.4911,-2.4735,4.3634,2039
3,0.6394,-1.1184,0.5515,0.2442,-3.7242,4.3634,2040
3,0.5786,-0.8418,0.3347,0.4165,-4.3635,4.3634,2045
3,0.4421,-0.74,0.0232,0.9693,-4.3635,4.3634,2040
3,0.3684,-0.7092,-0.2268,1.721,-4.3635,4.3634,2037
3,0.281,-0.7522,-0.3877,2.5276,-4.0947,4.3634,2038
3,0.0498,-0.8452,-0.4312,3.3903,-3.5991,4.3634,2039
3,-0.0884,-0.937,-0.2966,4.0592,-3.3487,4.3634,2042
3,-0.1851,-1.061,-0.0972,4.3634,-3.0749,4.3634,2043
3,-0.2786,-1.3044,-0.0249,4.3634,-2.9018,4.3634,2042
3,-0.248,-1.5063,0.0342,4.3634,-2.6855,4.3634,2041
3,-0.0173,-1.7039,-0.0779,4.3634,-2.5783,4.3634,2042
3,0.1528,-1.7808,0.0686,4.3634,-2.7173,4.3634,2046
3,0.2788,-1.6118,0.2839,4.2598,-2.9642,4.2216,2037
4,0.1372,-1.552,0.6074,3.8876,-3.3664,3.715,2038
4,0.0623,-1.6096,0.8091,3.558,-3.533,3.4888,2041
4,0.1672,-1.5776,0.9709,3.1726,-3.4368,3.53,2035
4,0.1929,-1.4006,0.9814,2.6787,-3.211,3.4569,2041
4,0.2615,-1.2319,0.9946,2.147,-2.8072,3.3581,2042
4,0.28,-1.1399,0.9446,1.6679,-2.3808,3.1415,2045
4,0.291,-0.9863,0.8604,1.3043,-2.0182,2.913,2043
4,0.239,-0.8254,0.7507,1.0548,-1.7407,2.7223,2042
4,0.2227,-0.6738,0.6206,0.9718,-1.4089,2.4151,2041
4,0.2092,-0.5835,0.4434,1.0375,-0.9453,2.0269,2041
4,0.2458,-0.5808,0.2856,1.1583,-0.5084,1.7034,2041
4,0.334,-0.6392,0.1631,1.2667,-0.1084,1.5008,2042
4,0.4133,-0.7092,0.0662,1.411,0.2155,1.3804,2044
4,0.489,-0.7358,0.0017,1.5298,0.3675,1.2741,2044
4,0.5815,-0.7295,-0.0105,1.5993,0.1322,1.1569,2040
4,0.6721,-0.739,-0.0244,1.5733,-0.3039,0.9582,2044
4,0.8071,-0.7869,0.0464,1.3616,-0.7516,0.7664,2045
4,0.8997,-0.8191,0.1938,1.0074,-1.2198,0.5584,2041
4,0.8887,-0.7729,0.3474,0.6118,-1.613,0.3117,2041
4,0.8281,-0.6814,0.5212,0.2601,-1.7884,0.0601,2038
4,0.7278,-0.6226,0.6472,0.0535,-1.7386,-0.1967,2043
4,0.6768,-0.5776,0.6584,0.1091,-1.4322,-0.3654,2043
4,0.6179,-0.5894,0.6829,0.2922,-0.8943,-0.5639,2046
4,0.6719,-0.6694,0.6895,0.45,-0.3145,-0.8373,2042
4,0.7463,-0.8027,0.6755,0.5094,0.1578,-1.1396,2044
4,0.8022,-1.0022,0.6855,0.34,0.335,-1.4347,2040
4,0.8311,-1.2356,0.7122,-0.0542,0.2345,-1.7667,2044
4,0.8164,-1.4397,0.8037,-0.5741,-0.0439,-2.0925,2040
4,0.7012,-1.5635,0.8677,-1.116,-0.2392,-2.4023,2037
4,0.5117,-1.5281,0.9114,-1.6179,-0.1772,-2.6422,2039
4,0.3223,-1.3701,0.8943,-1.9568,0.2073,-2.8827,2042
4,0.2407,-1.1428,0.7883,-2.1233,0.7462,-3.2385,2043
4,0.2234,-1.0479,0.6218,-2.0501,1.3125,-3.6719,2042
4,0.2107,-1.0732,0.4067,-1.8712,1.8088,-4.0231,2045
4,0.2322,-1.1396,0.2009,-1.6331,2.2253,-4.256,2034
4,0.2915,-1.168,0.0747,-1.3635,2.5843,-4.3635,2040
4,0.3782,-1.2119,0.0073,-1.1191,2.8377,-4.3635,2043
4,0.4553,-1.2874,0.0105,-1.0046,2.9781,-4.3635,2043
4,0.4944,-1.3604,0.0276,-0.9877,3.0203,-4.3635,2042
4,0.5259,-1.4304,0.0559,-1.0852,2.975,-4.3635,2042
4,0.5198,-1.4075,0.0918,-1.1762,2.8106,-4.3635,2040
4,0.4458,-1.3562,0.1074,-1.1946,2.6287,-4.3635,2041
4,0.4338,-1.2891,0.1194,-1.1934,2.3515,-4.3635,2039
4,0.448,-1.2559,0.1074,-1.0822,1.898,-4.3635,2041
4,0.3972,-1.3181,0.1052,-1.0202,1.4137,-4.3635,2043
4,0.2812,-1.4211,0.0999,-1.0676,1.225,-4.3635,2039
4,0.271,-1.4985,0.074,-1.0993,1.034,-4.3635,2039
4,0.2517,-1.5256,0.0781,-1.1403,0.7873,-4.3635,2038
4,0.1787,-1.5334,0.1277,-1.2874,0.581,-4.3635,2042
4,0.1477,-1.5371,0.1562,-1.4231,0.3787,-4.3635,2042
4,0.1069,-1.5605,0.2102,-1.5737,0.1637,-4.3635,2043
4,-0.0686,-1.533,0.271,-1.8218,0.1175,-4.3635,2037
4,-0.0854,-1.4814,0.3445,-2.0879,0.1107,-4.3635,2039
4,-0.1636,-1.4409,0.3967,-2.3111,0.0649,-4.3635,2041
4,-0.3201,-1.3994,0.3884,-2.4908,0.1848,-4.3635,2037
4,-0.3679,-1.3486,0.3584,-2.5878,0.2448,-4.3635,2040
4,-0.3801,-1.2456,0.2622,-2.5385,0.1501,-4.3635,2042
4,-0.3853,-1.2444,0.249,-2.4033,0.0663,-4.3635,2040
4,-0.4512,-1.3154,0.2258,-2.4225,0.1171,-4.3635,2043
4,-0.3853,-1.3469,0.2256,-2.4732,0.0949,-4.3635,2040
4,-0.2361,-1.2258,0.2102,-2.5173,-0.0618,-4.3635,2038
4,-0.1912,-1.1025,0.1982,-2.4882,-0.3729,-4.3635,2042
4,-0.1409,-1.0801,0.2229,-2.3413,-0.9865,-4.0233,2045
4,-0.0923,-1.0764,0.3201,-2.2451,-1.6073,-3.4575,2042
4,-0.1262,-1.0178,0.5444,-2.2049,-1.8559,-2.7337,2040
4,-0.2007,-0.8889,0.7344,-2.0511,-1.9089,-1.9853,2043
4,-0.1658,-0.7795,0.8982,-1.8459,-1.7772,-1.1206,2039
4,-0.1411,-0.8105,0.9988,-1.7705,-1.2805,-0.1599,2045
4,-0.1006,-0.8784,1.0383,-1.3489,-0.4742,0.6863,2042
4,-0.03,-0.9043,1.0598,-0.976,0.3225,1.3668,2042
4,0.0649,-0.947,0.9338,-0.634,0.8279,1.9001,2043
4,0.2451,-1.0703,0.7786,-0.2167,0.926,2.2886,2040
4,0.5044,-1.2749,0.5957,0.2898,0.8384,2.8248,2046
4,0.6941,-1.5107,0.4856,0.7221,0.9613,3.2883,2044
4,0.8623,-1.73,0.5259,0.8688,1.2909,3.698,2042
4,0.8884,-1.8247,0.6541,0.5398,1.5771,4.0229,2044
4,0.8484,-1.5774,0.7063,-0.0593,1.2243,4.2361,2043
4,0.8032,-1.3203,0.6443,-0.4878,0.4935,4.3029,2042
4,0.7588,-1.0676,0.4773,-0.8439,-0.4565,4.3634,2040
4,0.647,-0.8323,0.2683,-1.0227,-1.2758,4.3634,2047
4,0.554,-0.7183,0.0596,-0.9002,-1.6093,4.3634,2043
4,0.3621,-0.6848,-0.1514,-0.4542,-1.5162,4.3634,2040
4,0.1802,-0.761,-0.3259,0.0871,-1.2702,4.3634,2041
4,-0.0015,-0.842,-0.4038,0.6142,-0.8099,4.3634,2040
4,-0.1399,-0.9194,-0.3242,1.1152,-0.2988,4.3634,2034
4,-0.1294,-0.9863,-0.2017,1.4701,0.0498,4.3634,2042
4,-0.0659,-0.9819,-0.1221,1.7237,0.1358,4.3634,2043
4,0.0881,-0.99,-0.0376,1.8852,-0.2907,4.3538,2043
4,0.0522,-0.9939,-0.012,1.9873,-0.6765,3.9094,2045
4,0.2195,-1.0713,0.0449,2.1526,-0.9119,3.4557,2046
4,0.4153,-1.1792,0.1938,2.2996,-1.091,3.1982,2044
4,0.5869,-1.2507,0.3845,2.3782,-1.3155,2.951,2043
4,0.7004,-1.2351,0.5857,2.3987,-1.6869,2.8594,2045
4,0.7563,-1.1858,0.7183,2.4638,-1.9726,2.7259,2040
4,0.8826,-1.1223,0.9424,2.2944,-2.412,2.5076,2040
4,1.0713,-1.0776,0.9666,2.1798,-2.7537,2.4705,2043
4,1.1868,-1.0254,1.0063,2.0828,-2.7384,2.388,2041
4,1.2488,-0.937,1.0684,1.8776,-2.524,2.3751,2044
4,1.2378,-0.8083,1.0796,1.8049,-2.0845,2.2178,2040
4,1.1426,-0.7148,1.0618,1.7727,-1.58,1.996,2044
4,1.0054,-0.6165,0.9929,1.9475,-1.0481,1.6105,2038
5,0.8413,-0.6072,0.9114,2.1766,-0.4852,1.0732,2039
5,0.78,-0.6658,0.8518,2.4228,-0.0194,0.5268,2039
5,0.8379,-0.7952,0.8281,2.5145,0.3629,0.0558,2042
5,0.8525,-0.8704,0.7981,2.4658,0.6177,-0.3675,2039
5,0.8347,-0.9592,0.8113,2.3489,0.6568,-0.7806,2040
5,0.8179,-0.9468,0.7891,2.2226,0.516,-1.191,2039
5,0.8955,-1.0034,0.7854,2.0052,0.0577,-1.6299,2043
5,0.9607,-0.9878,0.7522,1.7673,-0.4995,-2.0078,2041
5,1.075,-0.9502,0.7454,1.4284,-1.1306,-2.312,2038
5,1.1277,-0.9087,0.675,1.0805,-1.6974,-2.6277,2043
5,1.0193,-0.895,0.5718,0.7965,-2.047,-2.9713,2039
5,0.9292,-0.908,0.5066,0.5313,-2.1731,-3.3195,2038
5,0.8606,-1.0144,0.4031,0.3124,-2.0955,-3.6174,2043
5,0.7708,-1.1252,0.2786,0.077,-1.8576,-3.7784,2044
5,0.696,-1.2302,0.1675,-0.1581,-1.586,-3.8376,2037
5,0.6167,-1.2551,0.0659,-0.4412,-1.4376,-3.8199,2043
5,0.5071,-1.2661,0.0022,-0.6221,-1.2652,-3.7862,2040
5,0.4468,-1.3125,-0.0146,-0.6678,-0.9297,-3.8366,2044
5,0.4121,-1.3779,-0.0063,-0.6863,-0.6754,-3.9471,2038
5,0.3938,-1.4001,0.0212,-0.7285,-0.4782,-4.017,2038
5,0.3894,-1.3655,0.0645,-0.9134,-0.397,-3.9801,2042
5,0.2539,-1.252,0.0864,-1.0861,-0.1466,-4.0434,2042
5,0.2742,-1.1736,0.0935,-1.2315,-0.0285,-3.9763,2039
5,0.311,-1.1067,0.0857,-1.3693,0.0822,-3.9523,2042
5,0.3098,-1.082,0.0842,-1.5978,0.0886,-3.8721,2043
5,0.2776,-1.0522,0.0671,-1.8943,0.0878,-3.7528,2041
5,0.2563,-1.0439,0.0549,-2.1481,0.0306,-3.7103,2048
5,0.2686,-1.0247,0.0557,-2.4088,-0.0804,-3.6585,2046
5,0.2317,-0.989,0.0608,-2.6332,-0.1392,-3.5672,2042
5,0.187,-0.9253,0.0417,-2.7795,-0.1025,-3.4734,2041
5,0.1123,-0.812,0.0667,-2.8889,-0.0047,-3.3223,2042
5,-0.0151,-0.7036,0.0999,-2.9863,0.2087,-3.2914,2042
5,-0.0269,-0.6174,0.127,-3.0938,0.3952,-3.2609,2037
5,-0.0344,-0.6255,0.1753,-3.2082,0.5494,-3.2721,2037
5,-0.0547,-0.6978,0.2163,-3.3915,0.552,-3.3364,2040
5,-0.0701,-0.7849,0.2585,-3.6125,0.3838,-3.3419,2042
5,-0.1042,-0.8733,0.2605,-3.8299,0.1088,-3.3372,2041
5,-0.1658,-0.9551,0.2842,-4.0539,-0.2304,-3.3058,2040
5,-0.1973,-1.0286,0.3501,-4.2995,-0.647,-3.238,2038
5,-0.1975,-1.0659,0.3975,-4.3635,-1.0063,-3.0002,2039
5,-0.2053,-1.0603,0.4412,-4.3635,-1.207,-2.7247,2044
5,-0.1816,-1.0076,0.4653,-4.3635,-1.3395,-2.2513,2040
5,-0.1445,-0.9768,0.4893,-4.3635,-1.4408,-1.6431,2041
5,-0.0974,-1.001,0.5635,-4.2643,-1.3371,-0.9975,2038
5,-0.0303,-1.0051,0.6873,-4.0106,-1.1419,-0.2795,2041
5,0.062,-1.0129,0.8193,-3.7109,-0.9886,0.6613,2043
5,0.1167,-1.0371,1.0171,-3.2798,-0.6738,1.6205,2042
5,0.0754,-1.0408,1.2026,-2.771,0.1265,2.4878,2043
5,0.011,-1.0691,1.2532,-2.3025,1.0552,3.1512,2044
5,-0.0684,-1.1108,1.1233,-2.0041,1.9897,3.6587,2040
5,0.0754,-1.1208,0.9331,-1.7395,2.4678,4.0484,2039
5,0.1941,-1.1118,0.6389,-1.3623,2.0491,4.3398,2041
5,0.3044,-1.2761,0.322,-0.6761,1.1612,4.3152,2039
5,0.4624,-1.6487,0.179,0.2004,0.6027,4.3634,2041
5,0.5881,-2.0,0.1521,0.7787,0.4883,4.3634,2043
5,0.689,-2.0,0.1384,0.7345,0.4597,4.3634,2044
5,0.6646,-2.0,0.155,0.1115,0.1631,4.3634,2038
5,0.5505,-1.8816,0.1677,-0.3421,-0.8718,4.3634,2039
5,0.4158,-1.6743,0.3059,-0.8202,-2.379,4.3634,2042
5,0.2598,-1.3774,0.2786,-0.9345,-3.6627,4.3634,2044
5,0.1555,-1.1497,0.1787,-0.6853,-4.2077,4.3634,2041
5,-0.1023,-1.0432,-0.0576,0.0892,-3.7647,4.3634,2038
5,-0.1943,-1.0691,-0.2705,1.0421,-2.9743,4.3634,2040
5,-0.0938,-1.219,-0.478,1.8191,-2.5523,4.3634,2045
5,-0.1121,-1.302,-0.5779,2.3071,-2.0865,4.3634,2039
5,0.0264,-1.3792,-0.5647,2.8269,-1.9719,4.3634,2043
5,0.1982,-1.4651,-0.4197,3.117,-2.4904,4.3634,2043
5,0.3154,-1.5413,-0.1663,2.9693,-3.2496,4.3634,2045
5,0.3423,-1.5674,-0.0542,2.915,-3.9045,4.2702,2040
5,0.3718,-1.6746,0.2271,2.6986,-4.3635,3.7972,2041
5,0.3523,-1.8088,0.3516,2.8853,-4.3635,3.2543,2038
5,0.4377,-1.8433,0.6111,3.0791,-4.3635,3.0777,2039
5,0.4343,-1.8013,0.8542,3.1491,-4.3635,2.9369,2041
5,0.5054,-1.7166,1.0991,3.0174,-4.3635,2.8137,2042
5,0.6082,-1.5266,1.1885,2.8381,-4.3635,2.8682,2038
5,0.7957,-1.3931,1.1653,2.6429,-4.3635,2.8666,2044
5,0.8862,-1.1992,1.0388,2.379,-4.3635,2.9565,2047
5,0.842,-0.9619,0.8479,2.3783,-3.6818,2.8818,2043
5,0.7734,-0.7441,0.6536,2.5023,-2.3884,2.6888,2039
5,0.6455,-0.6414,0.4592,2.8874,-1.2752,2.3546,2040
5,0.6067,-0.5728,0.2976,3.485,-0.7333,2.1081,2037
5,0.7295,-0.698,0.1963,3.8868,-0.4067,1.7847,2037
5,0.8838,-0.8472,0.1724,3.9359,-0.1169,1.4399,2044
5,1.0076,-0.8831,0.2224,3.6776,-0.1494,1.0852,2044
5,0.9878,-0.801,0.3438,3.3773,-0.5639,0.8095,2042
5,1.009,-0.8086,0.4167,3.342,-1.1046,0.5556,2044
5,1.2156,-0.9287,0.4055,3.1733,-1.5853,0.1952,2041
5,1.2324,-1.002,0.4187,2.7699,-2.1815,-0.1144,2038
5,1.1509,-1.0432,0.47,2.2047,-2.8737,-0.552,2040
5,1.0557,-1.1174,0.533,1.5246,-3.6549,-1.0846,2043
5,0.9116,-1.1775,0.6304,0.8562,-4.3608,-1.6037,2034
5,0.8445,-1.2222,0.688,0.2312,-4.3635,-1.9871,2041
5,0.8108,-1.2422,0.6584,-0.1712,-4.0438,-2.2358,2040
5,0.7148,-1.2307,0.5869,-0.5654,-3.5736,-2.3555,2038
5,0.5967,-1.1362,0.5132,-1.0239,-3.2017,-2.453,2043
5,0.5266,-0.9131,0.4788,-1.487,-2.8967,-2.5974,2037
5,0.4529,-0.7332,0.3545,-1.6813,-2.3593,-2.8022,2042
5,0.3691,-0.6418,0.2048,-1.7147,-1.6049,-3.0231,2040
5,0.2219,-0.644,-0.0042,-1.6334,-0.6803,-3.2563,2043
5,0.23,-0.7092,-0.2285,-1.3476,0.2876,-3.4146,2038
6,0.2869,-0.8555,-0.3735,-0.9991,1.1821,-3.4311,2040
6,0.3154,-0.9604,-0.3777,-0.7779,1.7812,-3.4674,2039
6,0.364,-1.0254,-0.2678,-0.9116,1.9949,-3.5121,2043
6,0.47,-1.0486,-0.2131,-1.1007,2.0269,-3.5394,2040
6,0.5569,-1.0903,-0.1858,-1.3013,1.9185,-3.5611,2039
6,0.6377,-1.1345,-0.1599,-1.4974,1.5315,-3.4754,2041
6,0.6194,-1.2102,-0.1431,-1.6391,1.1457,-3.4022,2041
6,0.5425,-1.2825,-0.0532,-1.7864,0.702,-3.3537,2044
6,0.4783,-1.3223,0.0471,-2.0056,0.4322,-3.3861,2039
6,0.4553,-1.3127,0.1758,-2.178,0.1301,-3.3343,2043
6,0.3223,-1.3118,0.2966,-2.3965,-0.0672,-3.3756,2042
6,0.2488,-1.3352,0.4292,-2.7701,-0.2605,-3.4142,2042
6,0.1436,-1.3848,0.5427,-3.1933,-0.5132,-3.4114,2041
6,-0.0168,-1.4534,0.6897,-3.6516,-0.5914,-3.488,2045
6,-0.1589,-1.5273,0.8545,-4.1913,-0.4843,-3.5994,2043
6,-0.2922,-1.5391,0.9409,-4.3635,-0.2409,-3.691,2042
6,-0.4929,-1.5059,1.0134,-4.3635,0.1294,-3.737,2043
6,-0.6311,-1.4373,1.0,-4.3635,0.3304,-3.8149,2039
6,-0.6948,-1.3162,0.9119,-4.3635,0.3938,-3.7102,2035
6,-0.6848,-1.2229,0.8042,-4.3635,0.395,-3.4961,2041
6,-0.5034,-1.2366,0.717,-4.3635,0.2738,-3.2479,2043
6,-0.4536,-1.2759,0.5557,-4.3635,0.3741,-2.7883,2041
6,-0.364,-1.1831,0.4114,-4.3635,0.5426,-2.2085,2041
6,-0.3035,-1.1704,0.3159,-4.322,0.3976,-1.6757,2039
6,-0.0991,-1.1755,0.2905,-4.0634,-0.023,-0.7221,2039
6,-0.1121,-1.147,0.3394,-3.8241,-0.4046,0.3719,2041
6,-0.0828,-1.1418,0.4795,-3.405,-0.4536,1.3013,2043
6,-0.0764,-1.0054,0.5779,-2.6422,-0.3449,1.9582,2039
6,0.0276,-1.0073,0.6665,-1.8688,-0.2874,2.636,2043
6,-0.1108,-1.3162,0.7114,-1.4676,-0.3064,2.9528,2041
6,0.0986,-1.3691,0.6038,-0.9692,-0.7558,2.7504,2039
6,0.4277,-1.3936,0.4929,-0.5613,-1.4267,3.0336,2046
6,0.6326,-1.3809,0.3308,-0.0169,-1.7227,3.3075,2040
6,0.8491,-1.4744,0.2227,0.4972,-1.592,3.7687,2043
6,0.939,-1.6565,0.2297,0.7496,-1.3338,4.3161,2043
6,0.9829,-1.7646,0.2095,0.785,-1.3794,4.3634,2038
6,1.0747,-1.6936,0.1504,0.8256,-1.7877,4.3634,2039
6,1.0806,-1.5325,0.2144,0.754,-2.5384,4.3634,2042
6,0.9062,-1.2964,0.2505,0.5605,-3.1411,4.3634,2043
6,0.7905,-1.0378,0.1643,0.6339,-3.3706,4.3634,2037
6,0.6165,-0.7993,0.0671,0.8501,-3.2361,4.3634,2040
6,0.2842,-0.564,-0.0303,1.27,-3.1982,4.3634,2039
6,0.0271,-0.4299,-0.1663,1.969,-3.2316,4.3634,2041
6,-0.0911,-0.4067,-0.2544,2.7758,-3.1441,4.3634,2038
6,-0.197,-0.4675,-0.2634,3.3942,-2.788,4.3634,2042
6,-0.2002,-0.6021,-0.2556,3.91,-2.2999,4.3634,2041
6,-0.2119,-0.6929,-0.2319,4.2755,-1.6948,4.3634,2038
6,-0.2131,-0.897,-0.2356,4.3634,-1.0569,4.3634,2035
6,-0.0652,-1.3096,-0.0049,4.3634,-0.6927,4.3634,2043
6,0.0305,-1.49,0.2839,4.3634,-0.9066,4.3634,2041
6,-0.0112,-1.5532,0.4658,4.3634,-1.3066,4.0201,2043
6,0.0352,-1.5857,0.6018,4.1656,-1.8217,3.6057,2042
6,0.0432,-1.6487,0.7449,3.6793,-2.3028,3.3184,2038
6,0.0767,-1.4761,0.8845,3.0429,-2.7578,3.2276,2042
6,0.0837,-1.3188,1.0649,2.5131,-3.2186,3.1339,2045
6,0.0178,-1.2361,1.2712,2.0132,-3.4117,2.9665,2043
6,-0.1228,-1.1677,1.3298,1.7173,-3.2939,2.8028,2039
6,-0.2476,-1.0432,1.2654,1.8281,-3.0264,2.6815,2039
6,-0.3005,-0.9775,1.0693,2.2269,-2.7829,2.5983,2036
6,-0.2747,-0.9268,0.8105,2.6462,-2.3039,2.5398,2042
6,-0.1624,-0.887,0.6418,2.8942,-1.7841,2.5209,2046
6,0.0286,-0.8518,0.5439,2.9248,-1.3577,2.5502,2042
6,0.2605,-0.8569,0.4702,2.8554,-1.0816,2.4575,2046
6,0.5535,-0.8657,0.448,2.7861,-1.0935,2.392,2044
6,0.8359,-0.8872,0.4399,2.6978,-1.4123,2.3354,2044
6,0.9404,-0.9133,0.5237,2.3666,-2.0671,2.2044,2040
6,0.7515,-0.8452,0.6091,1.9278,-2.599,1.8427,2041
6,0.7285,-0.8105,0.7441,1.5471,-2.9046,1.4039,2041
6,0.822,-0.7468,0.8477,1.2143,-3.0725,1.0507,2034
6,0.9287,-0.6357,0.8379,1.0412,-3.0273,0.7062,2046
6,0.9407,-0.5225,0.7612,0.9429,-2.756,0.2838,2040
6,0.9565,-0.4956,0.656,0.9042,-2.5035,-0.2199,2041
6,1.0659,-0.5398,0.6018,0.7649,-2.3618,-0.6683,2042
6,1.1316,-0.7107,0.5493,0.4562,-2.2455,-1.1571,2043
6,1.1709,-0.939,0.4797,0.0146,-2.1056,-1.5856,2045
6,1.0938,-0.9937,0.4771,-0.5513,-2.1534,-1.9393,2040
6,0.9255,-1.0256,0.5066,-1.1432,-2.3005,-2.4011,2039
6,0.7993,-1.0405,0.4927,-1.5372,-2.07,-2.7181,2039
6,0.5742,-0.967,0.3801,-1.6596,-1.3218,-2.9152,2036
6,0.4412,-0.8525,0.2136,-1.5617,-0.4313,-3.2315,2038
6,0.4426,-0.8079,0.0391,-1.3844,0.2587,-3.5921,2038
6,0.4495,-0.8687,-0.051,-1.0797,1.0127,-3.8289,2044
6,0.5012,-1.0474,-0.0867,-0.8974,1.6708,-4.0353,2038
6,0.5852,-1.2034,-0.053,-0.9393,2.0501,-4.1359,2044
6,0.6414,-1.2971,-0.0398,-1.0296,2.2304,-4.2234,2044
6,0.6672,-1.3477,-0.0005,-1.1685,2.2888,-4.2615,2040
6,0.6423,-1.3423,-0.0034,-1.2057,2.2346,-4.3104,2041
6,0.5933,-1.387,0.0334,-1.2449,2.0714,-4.3635,2041
6,0.4868,-1.3931,0.1013,-1.3549,1.9081,-4.3635,2042
6,0.4497,-1.3875,0.1736,-1.4668,1.7484,-4.3635,2040
6,0.4084,-1.3613,0.2227,-1.5472,1.5568,-4.3635,2043
6,0.3479,-1.3433,0.2805,-1.6379,1.3519,-4.3635,2039
6,0.2864,-1.3374,0.2786,-1.7716,1.1548,-4.3635,2042
6,0.2231,-1.2961,0.3147,-1.9996,0.938,-4.3635,2040
6,0.1367,-1.2681,0.3064,-2.2345,0.7408,-4.3635,2039
6,0.0293,-1.251,0.3005,-2.4137,0.61,-4.3635,2042
6,-0.0728,-1.2966,0.3469,-2.6681,0.5003,-4.3635,2037
6,-0.1299,-1.3264,0.3425,-2.8488,0.3947,-4.3635,2043
6,-0.2532,-1.3945,0.3457,-2.9915,0.3918,-4.3635,2038
6,-0.3521,-1.3799,0.3501,-3.262,0.3734,-4.3635,2041
7,-0.3926,-1.3118,0.2603,-3.4292,0.2752,-4.3635,2040
7,-0.4504,-1.2651,0.1145,-3.3746,0.1591,-4.3635,2039
7,-0.5122,-1.2461,0.0269,-3.212,-0.1589,-4.3635,2040
7,-0.5396,-1.3154,-0.0024,-3.0243,-0.8072,-4.3635,2039
7,-0.6111,-1.5,0.0803,-2.8638,-1.197,-4.3635,2045
7,-0.6025,-1.6636,0.2598,-2.7994,-1.1772,-4.3635,2038
7,-0.5278,-1.6785,0.4563,-2.8577,-1.0592,-3.8765,2040
7,-0.6201,-1.5859,0.6323,-2.7401,-1.0184,-2.9854,2039
7,-0.6609,-1.5024,0.9229,-2.6722,-1.24,-2.0426,2041
7,-0.6609,-1.5178,1.3284,-2.8119,-1.2339,-1.1094,2045
7,-0.7791,-1.5054,1.6357,-3.2123,-1.1183,-0.4777,2039
7,-0.8291,-1.3687,1.7014,-3.3997,-1.0324,-0.0285,2038
7,-0.5505,-1.2463,1.5181,-3.3527,-1.0035,0.4299,2046
7,-0.1394,-1.3137,1.0842,-2.846,-0.8075,1.056,2045
7,0.2749,-1.561,0.749,-2.1027,-0.1143,1.704,2048
7,0.4858,-1.9216,0.6777,-1.555,0.7486,2.2454,2048
7,0.5801,-2.0,0.7637,-1.5214,1.542,2.8392,2039
7,0.6516,-1.7976,0.8474,-1.9554,2.077,3.7106,2041
7,0.6584,-1.3516,0.7715,-2.0734,1.7796,4.28,2043
7,0.6741,-1.1643,0.6189,-2.2419,1.2328,4.3634,2043
7,0.5586,-1.0417,0.4214,-2.5919,0.7554,4.3634,2040
7,0.5845,-0.8142,0.2144,-2.7277,-0.0948,4.3634,2040
7,0.4404,-0.6292,0.0181,-2.5932,-0.5892,4.3634,2037
7,0.1428,-0.511,-0.1316,-2.1502,-0.1912,4.3634,2037
7,0.0681,-0.571,-0.1758,-1.5539,0.3326,4.3634,2036
7,0.0149,-0.6641,-0.2256,-0.8544,0.5392,4.3634,2046
7,0.0085,-0.8113,-0.1985,-0.2521,0.6586,4.3634,2040
7,0.0112,-0.8999,-0.155,0.1446,0.8525,4.3634,2043
7,0.0737,-0.9917,-0.1575,0.4201,0.8871,4.1941,2042
7,0.2034,-1.095,-0.1787,0.5624,0.6163,3.9645,2041
7,0.3618,-1.1948,-0.1731,0.6227,0.0156,3.7287,2045
7,0.5703,-1.2754,-0.1243,0.6259,-0.9028,3.5228,2041
7,0.678,-1.3149,0.0068,0.6365,-1.8606,3.16,2042
7,0.7925,-1.3567,0.179,0.3887,-2.3487,3.0728,2045
7,0.7031,-1.3491,0.3689,0.237,-2.5852,2.9538,2041
7,0.6421,-1.2507,0.469,0.246,-2.7823,2.8364,2039
7,0.5735,-1.209,0.5769,0.369,-2.834,2.6935,2043
7,0.5427,-1.2512,0.6538,0.3769,-2.8164,2.5007,2038
7,0.562,-1.2373,0.72,0.1525,-2.7731,2.3121,2042
7,0.6433,-1.1316,0.7373,-0.0313,-2.608,2.2756,2034
7,0.6541,-0.9868,0.7319,-0.0892,-2.1318,2.1603,2042
7,0.6006,-0.8962,0.7666,-0.0855,-1.493,1.8813,2042
7,0.4795,-0.8613,0.7896,0.0039,-0.8448,1.56,2040
7,0.4104,-0.926,0.8472,0.1044,-0.0823,1.2527,2040
7,0.49,-1.0276,0.8662,0.1277,0.7465,0.9878,2041
7,0.5618,-1.0056,0.8489,0.1602,1.5788,0.8087,2043
7,0.6362,-0.9595,0.7708,0.2549,2.2501,0.5911,2037
7,0.708,-0.9111,0.6526,0.4326,2.7868,0.3346,2043
7,0.7493,-0.8774,0.5339,0.5779,3.1443,0.0728,2041
7,0.7842,-0.8984,0.4456,0.6753,3.3476,-0.1976,2040
7,0.8369,-0.9263,0.3794,0.7316,3.435,-0.4859,2042
7,0.8647,-0.9163,0.333,0.755,3.366,-0.7431,2043
7,0.9045,-0.8774,0.3142,0.7957,3.1284,-0.9243,2039
7,0.9458,-0.8572,0.2861,0.8846,2.6775,-1.0567,2046
7,0.9355,-0.8779,0.2522,1.0047,2.0808,-1.2196,2044
7,0.8289,-1.0247,0.2041,1.2037,1.4776,-1.4906,2038
7,0.6145,-1.3286,0.1675,1.4894,0.9511,-1.8741,2038
7,0.3711,-1.6562,0.1965,1.6396,0.5344,-2.2695,2036
7,0.1638,-1.8254,0.3235,1.5227,0.1615,-2.5233,2039
7,0.0237,-1.8196,0.5369,1.1865,-0.2065,-2.8118,2039
7,-0.0352,-1.752,0.6594,0.8985,-0.4915,-3.0755,2043
7,-0.1003,-1.7666,0.7117,0.7718,-0.6018,-3.2947,2040
7,-0.2036,-1.72,0.6211,0.7249,-0.3936,-3.3865,2042
7,-0.3445,-1.698,0.4895,0.8475,-0.0637,-3.4589,2038
7,-0.2756,-1.6838,0.3887,0.9112,0.0337,-3.5749,2043
7,-0.3152,-1.6082,0.2966,0.9782,0.3356,-3.4497,2043
7,-0.2927,-1.5413,0.2554,1.0579,0.5289,-3.2302,2037
7,-0.231,-1.49,0.228,1.1085,0.5505,-3.1316,2040
7,-0.1187,-1.4268,0.2271,1.1069,0.4116,-3.0945,2041
7,-0.0706,-1.323,0.1965,1.0696,0.2722,-3.0429,2041
7,-0.0759,-1.3296,0.1248,1.201,0.2507,-3.0279,2045
7,-0.0256,-1.4292,0.0833,1.3272,0.2526,-2.912,2039
7,0.0303,-1.5127,0.0535,1.3607,0.2645,-2.7675,2042
7,-0.0132,-1.4814,0.0735,1.3146,0.375,-2.686,2040
7,-0.0281,-1.425,0.1399,1.1463,0.4071,-2.6512,2039
7,-0.021,-1.4138,0.1914,0.8891,0.4077,-2.7044,2040
7,0.009,-1.3896,0.2327,0.601,0.2959,-2.757,2043
7,0.0293,-1.2878,0.2515,0.3659,0.1176,-2.7609,2043
7,0.0046,-1.2258,0.2612,0.1728,-0.0292,-2.7861,2044
7,-0.0332,-1.1633,0.2576,-0.0298,-0.1007,-2.8344,2045
7,-0.0488,-1.0903,0.2073,-0.2225,-0.1354,-2.8859,2044
7,-0.032,-0.9949,0.1387,-0.3344,-0.1139,-2.959,2046
7,0.043,-0.8872,0.0833,-0.4181,-0.1171,-3.0429,2041
7,0.1323,-0.7576,0.0291,-0.5291,-0.1649,-3.1801,2043
7,0.21,-0.6421,-0.0483,-0.63,-0.2405,-3.3372,2044
7,0.3147,-0.5635,-0.1089,-0.7051,-0.304,-3.4682,2039
7,0.439,-0.5779,-0.1626,-0.826,-0.2928,-3.5276,2044
7,0.4937,-0.665,-0.2275,-0.9656,-0.0362,-3.4917,2046
7,0.5024,-0.7993,-0.2966,-1.0138,0.3615,-3.4019,2042
7,0.5129,-0.9148,-0.2847,-1.0491,0.5514,-3.2475,2040
7,0.5352,-0.9844,-0.2087,-1.2215,0.4682,-3.0933,2038
7,0.5186,-0.9551,-0.1316,-1.4576,0.5165,-2.8964,2038
7,0.5266,-0.8293,-0.1086,-1.6297,0.7578,-2.7091,2042
7,0.543,-0.7478,-0.0623,-1.7791,0.9139,-2.5662,2044
7,0.5537,-0.7471,0.0208,-1.9839,0.9741,-2.518,2042
7,0.5239,-0.8948,0.0967,-2.0759,0.9565,-2.5514,2039
7,0.4067,-1.1274,0.1418,-2.1278,0.9835,-2.6847,2042
7,0.3081,-1.2307,0.239,-2.3752,0.8815,-2.7907,2042
7,0.2773,-1.0925,0.3696,-2.6995,0.7771,-2.7942,2039
7,0.3052,-0.9067,0.4414,-3.0245,0.7023,-2.7686,2045
7,0.2449,-0.8225,0.4768,-3.3243,0.6881,-2.7833,2042
7,0.2415,-0.8359,0.4946,-3.64,0.5441,-2.7883,2042
7,0.2446,-0.8816,0.4922,-4.0198,0.3671,-2.7635,2045
8,0.2021,-0.9104,0.5068,-4.3635,0.3133,-2.707,2041
8,0.2026,-0.9307,0.4578,-4.3635,0.3587,-2.638,2044
8,0.2092,-0.9097,0.3899,-4.3635,0.5119,-2.5767,2042
8,0.2568,-0.8579,0.3713,-4.3635,0.7187,-2.4663,2043
8,0.3096,-0.8281,0.3381,-4.3635,0.8798,-2.332,2041
8,0.3794,-0.793,0.3191,-4.3635,1.0499,-2.1771,2039
8,0.4448,-0.7373,0.313,-4.3635,1.2619,-1.9772,2040
8,0.4585,-0.7122,0.301,-4.3635,1.5197,-1.8446,2036
8,0.4778,-0.6541,0.2776,-4.3635,1.8106,-1.7113,2041
8,0.512,-0.6135,0.3071,-4.3635,1.9612,-1.6379,2043
8,0.5671,-0.5474,0.3254,-4.3635,2.0217,-1.4599,2042
8,0.5867,-0.4536,0.3135,-4.3635,2.1702,-1.2913,2040
8,0.5527,-0.3928,0.3103,-4.3635,2.3716,-1.1485,2046
8,0.5559,-0.3618,0.2634,-4.3635,2.5428,-1.0583,2041
8,0.5857,-0.365,0.2026,-4.3635,2.6305,-0.9352,2039
8,0.5884,-0.354,0.1179,-4.2153,2.6639,-0.791,2040
8,0.6182,-0.3718,0.0786,-4.0435,2.5554,-0.6584,2042
8,0.6428,-0.4099,0.0437,-3.9062,2.2997,-0.5095,2041
8,0.7019,-0.4705,0.0022,-3.7246,2.0008,-0.2887,2046
8,0.7319,-0.54,-0.0454,-3.5655,1.7257,-0.0493,2041
8,0.7473,-0.5913,-0.1357,-3.3737,1.5323,0.2031,2042
8,0.7954,-0.6558,-0.239,-3.1054,1.4314,0.4878,2039
8,0.8435,-0.7656,-0.3386,-2.75,1.4752,0.8138,2042
8,0.8555,-0.9197,-0.3337,-2.412,1.6799,1.1344,2045
8,0.8032,-1.0183,-0.2612,-2.1449,1.8622,1.3717,2039
8,0.7332,-1.0374,-0.168,-1.9194,1.8259,1.589,2040
8,0.6921,-1.0867,-0.0713,-1.696,1.6166,1.6889,2048
8,0.6257,-1.1504,0.0046,-1.5862,1.4368,1.7973,2041
8,0.5474,-1.1858,0.1125,-1.5681,1.258,1.8872,2048
8,0.449,-1.2117,0.1836,-1.5386,1.069,1.8868,2037
8,0.3728,-1.2332,0.2185,-1.4165,0.8297,1.8567,2042
8,0.2927,-1.28,0.2178,-1.2844,0.712,1.8327,2035
8,0.2681,-1.3286,0.1997,-1.1548,0.7126,1.8142,2044
8,0.3206,-1.334,0.1682,-1.0099,0.7726,1.8503,2043
8,0.3787,-1.3423,0.1216,-0.8431,0.7439,1.8456,2041
8,0.3818,-1.4165,0.0996,-0.7325,0.6087,1.8048,2041
8,0.3652,-1.4792,0.1631,-0.7104,0.4516,1.7723,2041
8,0.3784,-1.4753,0.2585,-0.809,0.2308,1.7603,2038
8,0.3948,-1.4321,0.3232,-0.8729,-0.1398,1.6878,2045
8,0.3889,-1.3972,0.3354,-0.9002,-0.4831,1.6147,2039
8,0.3645,-1.3025,0.2893,-0.9082,-0.7364,1.5761,2041
8,0.4199,-1.2344,0.2,-0.8328,-1.0754,1.4914,2041
8,0.4841,-1.1726,0.1348,-0.718,-1.4456,1.45,2042
8,0.499,-1.1152,0.0864,-0.5585,-1.6906,1.4419,2042
8,0.4897,-1.0962,0.1147,-0.4742,-1.7426,1.4223,2043
8,0.4929,-1.0437,0.1392,-0.4089,-1.7161,1.4054,2039
8,0.543,-0.9807,0.166,-0.3153,-1.6331,1.4276,2043
8,0.5627,-0.9468,0.1846,-0.1977,-1.4402,1.4434,2042
8,0.5762,-0.9294,0.1648,-0.0389,-1.2202,1.4636,2038
8,0.5728,-0.9048,0.1548,0.1228,-0.9537,1.4428,2042
8,0.6172,-0.8748,0.1602,0.3293,-0.6469,1.4727,2043
8,0.592,-0.8643,0.2178,0.4378,-0.3911,1.401,2041
8,0.5767,-0.8484,0.2678,0.5107,-0.1892,1.2539,2044
8,0.5847,-0.8425,0.2727,0.6028,-0.0201,1.115,2041
8,0.6326,-0.8691,0.2935,0.7035,-0.0457,0.963,2043
8,0.6863,-0.8743,0.335,0.7544,-0.1224,0.8154,2044
8,0.7546,-0.8394,0.3967,0.7132,-0.1602,0.6693,2045
8,0.8181,-0.7749,0.4707,0.643,-0.0566,0.5866,2038
8,0.8381,-0.7395,0.4849,0.5402,0.136,0.5542,2041
8,0.8525,-0.7515,0.4099,0.5352,0.3864,0.607,2041
8,0.8269,-0.7485,0.3455,0.5103,0.6481,0.6387,2039
8,0.7424,-0.7314,0.2847,0.4948,0.8287,0.6299,2039
8,0.6357,-0.7773,0.2676,0.496,0.885,0.5426,2040
8,0.4817,-0.8379,0.2991,0.5131,0.8746,0.3585,2039
8,0.3486,-0.884,0.3796,0.5197,0.7793,0.0684,2040
8,0.2969,-0.9304,0.4529,0.4837,0.4476,-0.3029,2042
8,0.3115,-0.9854,0.4604,0.4751,-0.0676,-0.7008,2042
8,0.2996,-0.9509,0.4087,0.4412,-0.5461,-0.952,2040
8,0.2786,-0.8821,0.3477,0.4872,-0.8084,-1.1207,2042
8,0.3979,-0.8694,0.3083,0.4723,-1.0917,-1.2713,2043
8,0.4543,-0.7964,0.3071,0.4279,-1.3319,-1.3059,2042
8,0.4783,-0.7434,0.2983,0.3129,-1.4755,-1.2734,2041
8,0.4856,-0.6921,0.2642,0.2081,-1.5751,-1.2105,2043
8,0.4993,-0.6489,0.2043,0.1429,-1.6255,-1.1709,2039
8,0.5112,-0.5911,0.1475,0.1178,-1.6379,-1.135,2043
8,0.5095,-0.5247,0.137,0.1173,-1.6153,-1.0997,2040
8,0.4709,-0.4871,0.1694,0.1033,-1.5367,-1.068,2039
8,0.4436,-0.4573,0.1951,0.1309,-1.4038,-1.0347,2041
8,0.4121,-0.418,0.1599,0.1744,-1.2617,-1.0006,2046
8,0.4011,-0.3799,0.1106,0.2304,-1.1364,-0.9183,2042
8,0.3933,-0.3682,0.0627,0.3208,-1.0563,-0.8094,2043
8,0.386,-0.3823,0.0459,0.4253,-0.9664,-0.7032,2042
8,0.3635,-0.4253,0.0354,0.5316,-0.8207,-0.5983,2038
8,0.3579,-0.4873,0.0476,0.5936,-0.6638,-0.5003,2040
8,0.3557,-0.5732,0.0503,0.6219,-0.5486,-0.3864,2044
8,0.3679,-0.686,0.0425,0.6529,-0.4755,-0.2678,2039
8,0.375,-0.7983,0.0237,0.6786,-0.479,-0.1406,2038
8,0.4084,-0.9172,0.0142,0.7138,-0.5441,0.0055,2043
8,0.4358,-1.0232,-0.0063,0.7758,-0.6181,0.1791,2040
8,0.4612,-1.1223,-0.0251,0.864,-0.7281,0.3639,2043
8,0.4644,-1.2383,-0.0439,0.9994,-0.8839,0.5099,2044
8,0.4727,-1.3816,-0.0498,1.124,-1.0011,0.6438,2040
8,0.5085,-1.5076,-0.0479,1.256,-1.0983,0.8287,2040
8,0.4797,-1.6199,0.0029,1.3126,-1.1686,0.9497,2044
8,0.48,-1.6399,0.0908,1.2653,-1.2226,1.1051,2042
8,0.4312,-1.6201,0.2249,1.2029,-1.3513,1.1794,2038
8,0.4148,-1.5183,0.3611,1.0762,-1.6471,1.236,2044
8,0.4131,-1.375,0.3906,0.9825,-1.8825,1.292,2036
8,0.4294,-1.342,0.3376,0.9395,-2.0654,1.4407,2044
8,0.4102,-1.3335,0.2563,1.0088,-2.0319,1.5508,2049
8,0.4944,-1.3784,0.1699,1.1134,-1.9871,1.7118,2042
8,0.5005,-1.3979,0.1067,1.2042,-1.8974,1.9036,2038
8,0.5178,-1.3525,0.0645,1.237,-1.7576,2.0853,2041
8,0.5237,-1.3027,0.0159,1.2517,-1.5603,2.2931,2043
8,0.51,-1.261,-0.0312,1.2694,-1.4575,2.4152,2041
8,0.4902,-1.1936,-0.0723,1.3466,-1.4572,2.4858,2043
8,0.48,-1.1436,-0.084,1.4531,-1.5233,2.5254,2040
9,0.4377,-1.1001,-0.0615,1.5751,-1.5508,2.5381,2039
9,0.364,-1.0352,-0.019,1.6724,-1.503,2.5049,2040
9,0.2971,-0.9792,0.0127,1.7189,-1.4348,2.3854,2040
9,0.2668,-0.8914,0.0193,1.7994,-1.4821,2.2762,2041
9,0.228,-0.8401,-0.0056,1.8704,-1.6025,2.1481,2039
9,0.2676,-0.8042,-0.0708,1.9419,-1.7086,1.9702,2040
9,0.3438,-0.7627,-0.137,2.1082,-1.9098,1.9675,2042
9,0.4456,-0.7712,-0.1816,2.2414,-2.0173,1.9298,2038
9,0.4465,-0.7944,-0.2227,2.3443,-2.1706,1.8845,2042
9,0.4636,-0.8162,-0.238,2.3924,-2.3987,1.778,2046
9,0.4722,-0.8267,-0.2065,2.3871,-2.6484,1.6354,2040
9,0.4788,-0.8174,-0.1658,2.3481,-2.8885,1.4693,2039
9,0.4446,-0.8149,-0.1194,2.2832,-3.0431,1.2829,2038
9,0.4185,-0.8005,-0.1113,2.2694,-3.0285,1.1391,2036
9,0.3926,-0.8193,-0.1047,2.289,-2.9488,0.9694,2043
9,0.324,-0.8372,-0.0764,2.3417,-2.8357,0.8044,2041
9,0.2747,-0.9185,-0.0081,2.3806,-2.7633,0.6492,2032
9,0.2615,-1.001,0.0708,2.3887,-2.7769,0.4643,2048
9,0.3088,-1.1299,0.177,2.3703,-3.0244,0.2217,2038
9,0.4658,-1.3447,0.3318,2.0951,-3.6182,0.0093,2046
9,0.6123,-1.4258,0.4875,1.5067,-4.1844,0.0419,2039
9,0.6362,-1.3225,0.6013,0.6944,-4.2233,0.293,2039
9,0.5103,-1.0913,0.5581,0.1487,-3.6271,0.5239,2042
9,0.5095,-0.927,0.4724,-0.0507,-3.0106,0.6376,2041
9,0.5168,-0.8835,0.3821,-0.2149,-2.3589,0.6837,2040
9,0.4011,-0.7834,0.2451,-0.3289,-1.6825,0.7425,2039
9,0.4048,-0.7334,0.1792,-0.3204,-0.9934,0.6927,2043
9,0.5012,-0.7534,0.1953,-0.3253,-0.3683,0.5859,2044
9,0.5674,-0.748,0.2451,-0.4072,0.122,0.5024,2043
9,0.5815,-0.7258,0.2715,-0.4992,0.4159,0.3402,2038
9,0.6096,-0.7244,0.2754,-0.5863,0.5747,0.2397,2042
9,0.5825,-0.738,0.2366,-0.6739,0.604,0.1589,2036
9,0.5525,-0.7898,0.1968,-0.7837,0.4735,0.0706,2043
9,0.5159,-0.8367,0.1289,-0.9068,0.3546,-0.0226,2043
9,0.5098,-0.8384,0.062,-1.022,0.3196,-0.1145,2044
9,0.5344,-0.7981,0.0522,-1.1405,0.2469,-0.2164,2041
9,0.5496,-0.7095,0.0725,-1.2488,0.0698,-0.3115,2044
9,0.5369,-0.6086,0.0908,-1.3097,-0.0924,-0.3611,2041
9,0.4814,-0.4944,0.1084,-1.2932,-0.1898,-0.4092,2040
9,0.4238,-0.4287,0.0906,-1.1412,-0.2113,-0.4441,2041
9,0.4294,-0.408,0.0496,-0.9279,-0.196,-0.4068,2043
9,0.4429,-0.4507,0.0325,-0.707,-0.138,-0.3232,2042
9,0.4595,-0.5146,0.0342,-0.5389,-0.0582,-0.1922,2041
9,0.4758,-0.5798,0.0857,-0.4445,0.0206,-0.0699,2044
9,0.4937,-0.6096,0.1462,-0.4352,0.0656,0.019,2043
9,0.5042,-0.625,0.2019,-0.4496,0.092,0.0747,2041
9,0.502,-0.6243,0.2461,-0.4735,0.1161,0.0975,2037
9,0.4802,-0.6313,0.2952,-0.4839,0.1779,0.092,2042
9,0.4934,-0.6687,0.3394,-0.4734,0.239,0.0924,2040
9,0.522,-0.6982,0.3564,-0.4508,0.2791,0.102,2043
9,0.5518,-0.7539,0.3806,-0.4324,0.2996,0.1312,2038
9,0.5852,-0.8169,0.385,-0.4464,0.3508,0.186,2042
9,0.5791,-0.8994,0.3743,-0.4908,0.4421,0.2181,2041
9,0.5876,-0.9751,0.3745,-0.5498,0.4932,0.2381,2038
9,0.5647,-1.0198,0.3733,-0.6497,0.5597,0.2211,2042
9,0.5581,-1.0117,0.3574,-0.7051,0.6372,0.184,2039
9,0.5483,-0.9897,0.3347,-0.6983,0.7123,0.1173,2041
9,0.5381,-0.9966,0.3396,-0.6814,0.7361,0.0443,2045
9,0.5254,-1.0105,0.3503,-0.6693,0.7472,-0.023,2038
9,0.4556,-1.0557,0.3555,-0.628,0.785,-0.0945,2039
9,0.3738,-1.1602,0.3237,-0.5542,0.7893,-0.1571,2037
9,0.3127,-1.2441,0.293,-0.4829,0.7111,-0.216,2040
9,0.3022,-1.2979,0.2637,-0.4072,0.5766,-0.2072,2044
9,0.2976,-1.3623,0.1934,-0.351,0.6227,-0.139,2043
9,0.3076,-1.3862,0.1257,-0.2629,0.7108,-0.0605,2045
9,0.2891,-1.3862,0.093,-0.1706,0.7857,0.0107,2045
9,0.2656,-1.396,0.0962,-0.0788,0.8542,0.0714,2044
9,0.2407,-1.3884,0.1306,-0.0182,0.8762,0.0923,2040
9,0.2053,-1.3557,0.1743,0.0095,0.8505,0.085,2038
9,0.1636,-1.2913,0.2268,0.0088,0.7766,0.0606,2040
9,0.1292,-1.2268,0.2961,-0.0281,0.6466,0.0441,2043
9,0.0989,-1.2227,0.3228,-0.0547,0.5257,0.0278,2042
9,0.1191,-1.3188,0.2881,-0.049,0.454,0.0443,2040
9,0.106,-1.3367,0.2207,-0.0234,0.4012,0.0831,2043
9,0.0847,-1.29,0.1938,-0.0457,0.3356,0.122,2041
9,0.0664,-1.2432,0.2146,-0.0875,0.2264,0.1225,2041
9,0.0574,-1.2126,0.2341,-0.1519,0.1248,0.0995,2042
9,0.0613,-1.1965,0.2405,-0.2109,0.0634,0.0688,2039
9,0.0601,-1.1831,0.1946,-0.2113,0.0276,0.049,2042
9,0.0652,-1.1538,0.1562,-0.176,-0.0025,0.0433,2042
9,0.0671,-1.1189,0.1289,-0.1059,-0.0517,0.0515,2037
9,0.071,-1.0454,0.1072,-0.0037,-0.1232,0.081,2039
9,0.0764,-1.0156,0.1106,0.0895,-0.1807,0.12,2043
9,0.094,-1.0317,0.114,0.1458,-0.2264,0.1595,2043
9,0.1111,-1.0676,0.1008,0.1302,-0.2661,0.1815,2042
9,0.1277,-1.0725,0.0881,0.0831,-0.2495,0.2176,2043
9,0.1614,-1.0742,0.0679,0.0587,-0.2228,0.2365,2042
9,0.1802,-1.093,0.0513,0.085,-0.2225,0.2362,2043
9,0.2236,-1.127,0.0371,0.1049,-0.2578,0.1843,2046
9,0.2874,-1.1294,0.0256,0.0775,-0.3148,0.1385,2039
9,0.343,-1.1147,0.0525,-0.0226,-0.3924,0.0684,2043
9,0.3442,-1.1113,0.0894,-0.1689,-0.3944,-0.0302,2040
9,0.3262,-1.1421,0.0989,-0.2745,-0.3129,-0.1056,2041
9,0.302,-1.1597,0.0974,-0.3145,-0.1374,-0.1698,2043
9,0.2793,-1.1436,0.1101,-0.3469,0.0794,-0.2494,2037
9,0.2832,-1.0994,0.1431,-0.3868,0.2474,-0.3361,2040
9,0.3118,-1.0527,0.1794,-0.441,0.4179,-0.4269,2044
9,0.3484,-1.0103,0.2034,-0.4932,0.5655,-0.5272,2044
9,0.3826,-0.9946,0.2295,-0.5473,0.6693,-0.6245,2040
9,0.4333,-0.9878,0.2383,-0.5594,0.7464,-0.7304,2041
9,0.5046,-1.0444,0.229,-0.5513,0.7855,-0.7923,2042
9,0.6079,-1.1038,0.2058,-0.5638,0.7901,-0.7714,2045
9,0.6843,-1.1768,0.1956,-0.6448,0.7621,-0.7253,2041
10,0.7737,-1.196,0.1843,-0.7779,0.7696,-0.6393,2038
10,0.8152,-1.1348,0.1826,-0.9071,0.797,-0.5855,2041
10,0.7852,-1.0754,0.2163,-1.0998,0.8982,-0.5879,2042
10,0.7166,-0.9937,0.2583,-1.2497,0.957,-0.5931,2039
10,0.6094,-0.8813,0.292,-1.3021,0.9926,-0.6815,2041
10,0.532,-0.8428,0.3157,-1.3374,1.0441,-0.7945,2041
10,0.4436,-0.8176,0.3149,-1.2878,1.1694,-0.9279,2043
10,0.3689,-0.8245,0.2974,-1.2214,1.2776,-1.0411,2038
10,0.3047,-0.814,0.2432,-1.133,1.2631,-1.2114,2041
10,0.2661,-0.7817,0.1821,-1.0563,1.0425,-1.4017,2039
10,0.2886,-0.7117,0.093,-0.972,0.7353,-1.5057,2044
10,0.3442,-0.6206,0.0366,-0.9106,0.4852,-1.5149,2041
10,0.4119,-0.5515,-0.042,-0.8379,0.2763,-1.4118,2044
10,0.5054,-0.52,-0.0967,-0.7329,0.0784,-1.3228,2040
10,0.5693,-0.4968,-0.1343,-0.6556,-0.0768,-1.1455,2043
10,0.5835,-0.4419,-0.136,-0.5916,-0.2394,-0.9483,2042
10,0.5237,-0.3938,-0.1057,-0.4948,-0.2658,-0.7743,2042
10,0.4785,-0.4036,-0.0413,-0.379,-0.2028,-0.61,2041
10,0.4358,-0.4302,0.0464,-0.2755,-0.0823,-0.4687,2041
10,0.3862,-0.4622,0.0925,-0.177,0.0768,-0.3722,2045
10,0.3345,-0.5137,0.1558,-0.1164,0.2079,-0.3073,2037
10,0.3193,-0.5417,0.2009,-0.0751,0.2614,-0.2494,2042
10,0.3149,-0.5762,0.2427,-0.0329,0.2867,-0.18,2041
10,0.3342,-0.5991,0.2625,-0.0012,0.2859,-0.0863,2043
10,0.3479,-0.6296,0.2634,-0.0201,0.3113,0.0025,2041
10,0.3267,-0.6641,0.2644,-0.0774,0.3381,0.07,2039
10,0.2976,-0.6799,0.2913,-0.1204,0.3808,0.0992,2041
10,0.332,-0.6704,0.302,-0.184,0.433,0.1318,2041
10,0.3999,-0.6599,0.304,-0.2462,0.4517,0.1768,2042
10,0.4485,-0.6672,0.3049,-0.3045,0.4739,0.2139,2039
10,0.4995,-0.6558,0.3071,-0.338,0.5216,0.2503,2045
10,0.562,-0.6274,0.3125,-0.3462,0.5719,0.2912,2043
10,0.6165,-0.6189,0.3169,-0.3456,0.7028,0.3424,2042
10,0.6523,-0.6106,0.2986,-0.3236,0.9481,0.4281,2041
10,0.6653,-0.626,0.2603,-0.2759,1.2655,0.5481,2042
10,0.6357,-0.6677,0.2351,-0.2225,1.6062,0.6255,2041
10,0.5872,-0.7356,0.2336,-0.163,1.8624,0.6988,2037
10,0.5593,-0.7903,0.2424,-0.121,2.0162,0.7095,2040
10,0.5432,-0.8521,0.2649,-0.0727,2.1189,0.6774,2039
10,0.5361,-0.9255,0.2729,-0.0288,2.2036,0.653,2040
10,0.5254,-1.0042,0.2432,0.0489,2.268,0.6227,2045
10,0.5078,-1.0837,0.1865,0.1482,2.3329,0.5766,2041
10,0.4932,-1.1555,0.1104,0.3055,2.3446,0.5251,2042
10,0.4583,-1.2732,0.0405,0.4597,2.2539,0.4156,2043
10,0.416,-1.4326,0.009,0.6155,2.0423,0.2333,2040
10,0.3799,-1.6228,0.0276,0.7576,1.6805,0.0222,2041
10,0.3706,-1.7358,0.0945,0.7397,1.179,-0.1626,2038
10,0.343,-1.7866,0.1868,0.6518,0.5614,-0.3231,2043
10,0.3979,-1.6597,0.2422,0.4235,0.0904,-0.2983,2043
10,0.4099,-1.4041,0.2229,0.2711,-0.1651,-0.2804,2040
10,0.3328,-1.2617,0.1697,0.2854,-0.3321,-0.3357,2045
10,0.2979,-1.2351,0.1379,0.3449,-0.5044,-0.4052,2040
10,0.302,-1.2073,0.1169,0.3623,-0.6795,-0.3807,2044
10,0.2896,-1.1182,0.0776,0.3702,-0.7134,-0.3183,2042
10,0.2954,-1.0854,0.0579,0.3757,-0.6433,-0.2591,2040
10,0.2852,-1.1274,0.0237,0.4163,-0.5612,-0.2165,2041
10,0.3132,-1.1831,-0.0208,0.455,-0.5098,-0.1599,2041
10,0.3303,-1.2241,-0.0347,0.5086,-0.5145,-0.1127,2044
10,0.3101,-1.2917,0.0022,0.5307,-0.5485,-0.0827,2041
10,0.2708,-1.3586,0.0415,0.5064,-0.4613,-0.0437,2041
10,0.2468,-1.3574,0.0691,0.5143,-0.3354,0.0214,2039
10,0.2229,-1.3379,0.1216,0.485,-0.3091,0.0326,2039
10,0.1924,-1.3289,0.1653,0.414,-0.4054,0.0056,2040
10,0.1672,-1.3142,0.21,0.2919,-0.4954,-0.0241,2043
10,0.1316,-1.2974,0.2537,0.1388,-0.5125,-0.0542,2039
10,0.1265,-1.2092,0.3105,0.0,-0.5235,-0.0751,2044
10,0.1023,-1.1301,0.3499,-0.2133,-0.599,-0.1792,2043
10,0.1108,-1.0286,0.3591,-0.3581,-0.6556,-0.2276,2040
10,0.1023,-0.9844,0.3098,-0.3852,-0.5261,-0.2197,2041
10,0.1099,-0.9717,0.2532,-0.418,-0.386,-0.1818,2043
10,0.1072,-0.9619,0.1951,-0.4643,-0.2959,-0.2133,2038
10,0.1199,-0.9202,0.1379,-0.4743,-0.1767,-0.2701,2043
10,0.1245,-0.8806,0.0979,-0.4549,-0.0395,-0.3414,2042
10,0.1787,-0.8354,0.085,-0.4128,0.0653,-0.3794,2041
10,0.239,-0.8179,0.0623,-0.3844,0.0482,-0.4073,2043
10,0.3052,-0.8235,0.0469,-0.4095,-0.0386,-0.4002,2043
10,0.3611,-0.8289,0.0171,-0.4404,-0.1667,-0.384,2043
10,0.4036,-0.833,0.0056,-0.4835,-0.3003,-0.3573,2042
10,0.4048,-0.865,0.0056,-0.5846,-0.3462,-0.35,2039
10,0.4236,-0.8999,0.001,-0.7361,-0.3145,-0.3293,2046
10,0.4182,-0.9175,-0.03,-0.8798,-0.3316,-0.3032,2043
10,0.3557,-0.9153,-0.0681,-1.0043,-0.3793,-0.3887,2041
10,0.2708,-0.8782,-0.114,-1.1019,-0.3265,-0.5339,2037
10,0.3054,-0.8384,-0.1323,-1.1299,-0.2384,-0.5426,2049
10,0.3628,-0.8506,-0.1121,-1.1408,-0.1782,-0.5108,2045
10,0.4368,-0.8882,-0.1016,-1.1362,-0.0969,-0.448,2041
10,0.5056,-0.9287,-0.0835,-1.0909,-0.0728,-0.3492,2043
10,0.5842,-0.9827,-0.0249,-1.1543,-0.1047,-0.2538,2044
10,0.6758,-1.0112,0.0259,-1.278,-0.11,-0.1246,2043
10,0.7375,-1.0022,0.0637,-1.4303,-0.1252,-0.0129,2045
10,0.7329,-0.9929,0.0828,-1.6289,-0.1848,0.0029,2041
10,0.7859,-0.9563,0.0891,-1.8729,-0.2495,0.0915,2042
10,0.7739,-0.8796,0.0693,-2.0061,-0.2678,0.1752,2043
10,0.7209,-0.7332,0.0071,-2.0832,-0.1932,0.1477,2045
10,0.6567,-0.614,-0.0488,-2.0525,-0.1322,0.1119,2041
10,0.6104,-0.5488,-0.0862,-1.9937,-0.1305,0.0623,2034
10,0.5781,-0.5212,-0.1001,-1.9499,-0.1258,0.0696,2032
10,0.5293,-0.4922,-0.0908,-1.8909,-0.0848,0.043,2044
10,0.4912,-0.5437,-0.0823,-1.9025,-0.0134,0.0666,2040
10,0.4727,-0.5796,-0.1057,-1.9081,0.0579,0.0834,2040
11,0.4812,-0.5676,-0.1001,-1.9446,0.0364,0.0567,2042
11,0.5037,-0.53,-0.1008,-2.0112,-0.0755,0.0675,2044
11,0.542,-0.5339,-0.1294,-2.0481,-0.2191,0.0772,2043
11,0.5393,-0.5537,-0.1655,-2.012,-0.3424,0.0943,2037
11,0.543,-0.5625,-0.178,-1.9904,-0.4926,0.0925,2041
11,0.5447,-0.5693,-0.1682,-1.9374,-0.6905,0.1286,2042
11,0.5215,-0.5745,-0.1484,-1.8998,-0.906,0.1346,2039
11,0.4788,-0.6128,-0.1321,-1.8184,-1.1037,0.1525,2041
11,0.4451,-0.6152,-0.0928,-1.7486,-1.2568,0.1417,2037
11,0.447,-0.5854,-0.0439,-1.7064,-1.3856,0.1398,2038
11,0.4507,-0.5354,-0.0083,-1.6398,-1.4808,0.1382,2043
11,0.4604,-0.501,0.0081,-1.606,-1.48,0.1479,2047
11,0.4758,-0.4924,0.0056,-1.5484,-1.385,0.184,2045
11,0.4973,-0.5068,0.0303,-1.4818,-1.2981,0.2476,2045
11,0.5234,-0.531,0.0386,-1.4055,-1.1483,0.2894,2040
11,0.5471,-0.5354,0.0283,-1.2949,-1.0231,0.2896,2031
11,0.5466,-0.5884,0.0571,-1.2671,-0.8596,0.2238,2043
11,0.5645,-0.6089,0.0381,-1.2038,-0.7634,0.173,2042
11,0.5872,-0.6348,0.0081,-1.0938,-0.6612,0.1238,2037
11,0.6238,-0.6597,0.0122,-1.0427,-0.5622,0.0899,2042
11,0.6604,-0.7073,0.0215,-1.0427,-0.4801,0.0622,2037
11,0.6924,-0.7544,0.0039,-1.0581,-0.4006,0.037,2041
11,0.7266,-0.7671,-0.0078,-1.075,-0.3562,0.0214,2037
11,0.7546,-0.7676,0.0093,-1.1107,-0.3132,-0.0237,2034
11,0.7737,-0.7502,-0.0173,-1.1552,-0.3181,-0.0747,2044
11,0.7969,-0.7434,-0.0505,-1.1769,-0.3563,-0.1314,2045
11,0.8098,-0.7407,-0.1238,-1.148,-0.3751,-0.1617,2045
11,0.8059,-0.7737,-0.2034,-1.1065,-0.2854,-0.1658,2034
11,0.7788,-0.8357,-0.291,-1.0899,-0.0759,-0.1163,2049
11,0.7253,-0.9097,-0.3831,-1.0483,0.1883,-0.0406,2044
11,0.6775,-0.9861,-0.4636,-0.9737,0.4181,0.033,2039
11,0.6604,-1.0417,-0.543,-0.8704,0.5892,0.0847,2032
11,0.6624,-1.1086,-0.6028,-0.762,0.7024,0.0916,2044
11,0.6653,-1.1731,-0.6631,-0.6806,0.7477,0.0723,2043
11,0.646,-1.1919,-0.6956,-0.5819,0.7509,0.0409,2041
11,0.6182,-1.1831,-0.7046,-0.4809,0.6974,-0.0035,2040
11,0.6169,-1.1914,-0.769,-0.333,0.6341,0.0111,2048
11,0.5579,-1.2612,-0.8384,-0.1846,0.6695,0.0111,2040
11,0.5183,-1.312,-0.877,-0.0129,0.7548,-0.0461,2047
11,0.4421,-1.2991,-0.8884,0.1352,0.9119,-0.0775,2040
11,0.405,-1.2788,-0.8159,0.2268,0.899,-0.1453,2042
11,0.4365,-1.2192,-0.7808,0.248,0.7605,-0.2388,2048
11,0.5054,-1.0491,-0.7827,0.398,0.6409,-0.2168,2043
11,0.5027,-1.0137,-0.7231,0.4826,0.4265,-0.2092,2044
11,0.4829,-0.96,-0.7249,0.5886,0.3271,-0.2107,2040
11,0.5605,-0.8625,-0.7283,0.7136,0.1776,-0.2007,2048
11,0.5942,-0.8086,-0.7844,0.7934,0.0369,-0.1703,2032
11,0.6333,-0.8096,-0.8008,0.8673,-0.049,-0.0892,2044
11,0.6306,-0.8269,-0.8259,0.9232,-0.0522,-0.0009,2044
11,0.6057,-0.8159,-0.8262,0.9963,0.0101,0.0691,2040
11,0.593,-0.7981,-0.8015,1.064,0.0611,0.1095,2049
11,0.6003,-0.8125,-0.7729,1.0931,0.1049,0.1511,2036
11,0.5798,-0.8335,-0.7466,1.0766,0.1354,0.1981,2048
11,0.5156,-0.8665,-0.7502,1.0689,0.2115,0.1606,2040
11,0.4622,-0.9297,-0.7864,1.1026,0.3312,0.1015,2039
11,0.4609,-0.9727,-0.7935,1.0991,0.4718,0.0695,2048
11,0.4622,-1.0017,-0.7998,1.0866,0.5934,0.0296,2047
11,0.468,-1.0127,-0.8018,1.0674,0.655,-0.0181,2040
11,0.479,-0.9907,-0.7766,1.0455,0.6617,-0.0783,2042
11,0.4543,-0.9402,-0.7366,1.0071,0.6284,-0.1551,2045
11,0.4309,-0.8811,-0.6614,0.9267,0.5621,-0.2537,2038
11,0.4163,-0.8076,-0.5891,0.8146,0.4682,-0.3301,2041
11,0.4084,-0.7402,-0.5718,0.7373,0.3791,-0.4096,2044
11,0.3853,-0.6738,-0.5691,0.6879,0.2931,-0.4565,2043
11,0.386,-0.6138,-0.584,0.6481,0.2048,-0.4984,2042
11,0.3838,-0.574,-0.6104,0.6295,0.178,-0.5213,2041
11,0.4172,-0.4771,-0.6995,0.6448,0.3542,-0.5171,2053
11,0.3318,-0.6929,-1.0229,0.6079,1.1005,-1.1384,2042
11,-0.1804,-0.5737,-1.2998,0.0089,3.1167,-0.8216,2033
11,-0.2737,0.2463,-0.6709,0.1457,2.1743,0.124,2030
11,0.4558,-0.3806,-0.1609,0.5967,-0.2381,-0.0507,2044
11,1.0071,-0.9414,-0.374,1.1118,-1.0108,-0.2955,2050
11,0.8953,-0.9216,-0.5381,0.6438,-0.9602,-0.1214,2049
11,0.7715,-0.6252,-0.7024,0.1144,-0.8854,-0.3072,2032
11,0.4795,-0.7156,-0.7258,-0.3352,-0.8088,-0.4786,2040
11,0.2573,-0.6162,-0.5059,-0.2249,-0.5962,-0.5522,2035
11,0.3042,-0.5576,-0.3079,-0.143,-0.7718,-0.4726,2034
11,0.3457,-0.6709,-0.3223,-0.1714,-0.6437,-0.5189,2042
11,0.3059,-0.689,-0.4136,-0.291,-0.2506,-0.3846,2039
11,0.2051,-0.6111,-0.4985,-0.3679,0.2357,-0.2313,2042
11,0.217,-0.5378,-0.4895,-0.373,0.4694,-0.0755,2042
11,0.3083,-0.564,-0.4478,-0.3927,0.5687,0.0373,2043
11,0.4392,-0.5908,-0.4204,-0.3991,0.6634,0.151,2045
11,0.5212,-0.6213,-0.4407,-0.4338,0.7014,0.2682,2044
11,0.5864,-0.6492,-0.5183,-0.4316,0.6176,0.4124,2043
11,0.6301,-0.6868,-0.5776,-0.4117,0.4377,0.5669,2049
11,0.6821,-0.7424,-0.5459,-0.408,0.2409,0.7746,2041
11,0.7878,-0.8203,-0.4294,-0.4737,-0.072,0.9594,2040
11,0.9229,-0.7976,-0.3384,-0.5546,-0.496,1.1603,2036
11,0.6641,-0.7253,-0.4104,-0.4621,-0.5723,1.2268,2047
11,0.5339,-1.1895,-0.3958,-0.7297,-0.3506,1.3785,2040
11,0.7197,-1.1069,-0.4934,-0.7144,-0.4081,1.6547,2040
11,0.5481,-0.9524,-0.3491,-0.6263,-0.2159,2.0411,2039
11,0.5,-0.9797,-0.2427,-0.7018,0.0736,2.2415,2043
11,0.4373,-1.0317,-0.1189,-0.8704,0.3235,2.402,2037
11,0.396,-1.0056,-0.0332,-1.0058,0.4847,2.543,2038
11,0.3816,-0.9561,0.0444,-0.9397,0.6293,2.6854,2042
11,0.3911,-0.9277,0.1367,-0.8971,0.8067,2.8308,2040
11,0.3384,-0.8662,0.155,-1.0179,1.08,3.026,2040
11,0.3467,-0.8228,0.1528,-1.0652,1.1933,3.1505,2047
11,0.3994,-0.7605,0.1401,-1.0468,1.3539,3.3184,2044
