Timestamp,Ax,Ay,Az,Rx,Ry,Rz,HR_value
0,-0.95,0.1143,0.2183,-0.6465,-0.1242,0.1984,171
0,-0.8826,0.1826,0.2296,-0.5919,-0.0839,0.2464,171
0,-0.8826,0.1826,0.2296,-0.6268,-0.0523,0.243,171
0,-0.7826,0.1806,0.2275,-0.8122,-0.0162,0.1852,171
0,-0.7602,0.1316,0.1887,-1.0095,0.0621,0.1068,171
0,-0.6928,-0.0163,0.1214,-1.1131,0.1242,0.0577,171
0,-0.6918,-0.0316,0.102,-1.0923,0.194,0.0599,171
0,-0.6663,-0.0265,0.0979,-1.0314,0.2659,0.0631,171
0,-0.6959,-0.0051,0.0224,-1.0368,0.3609,0.0795,171
0,-0.7285,-0.0286,-0.0132,-1.1098,0.3729,0.085,171
0,-0.7214,-0.052,-0.0377,-1.1415,0.3619,0.098,171
0,-0.7592,-0.051,-0.0612,-1.124,0.339,0.1112,171
0,-0.7765,-0.0571,-0.0734,-1.1556,0.2878,0.1144,171
0,-0.8204,-0.1265,-0.1132,-1.1556,0.2878,0.1144,171
0,-0.8204,-0.1265,-0.1132,-1.2222,0.2388,0.1013,171
0,-0.8214,-0.1602,-0.1173,-1.1905,0.1722,0.1035,171
0,-0.8541,-0.1724,-0.1183,-1.1055,0.1297,0.1024,171
0,-0.9081,-0.1806,-0.1071,-1.0837,0.0435,0.1013,171
0,-0.9367,-0.2347,-0.1214,-1.1043,-0.0316,0.0872,171
0,-0.9714,-0.2724,-0.1204,-1.0694,-0.0925,0.085,171
0,-0.9642,-0.303,-0.1163,-0.9702,-0.1537,0.1024,171
0,-1.001,-0.2888,-0.1061,-0.8842,-0.2039,0.1274,171
0,-1.0092,-0.2938,-0.1112,-0.8439,-0.2583,0.1537,171
0,-1.002,-0.303,-0.1183,-0.8056,-0.2888,0.1886,171
0,-1.0122,-0.3,-0.1255,-0.8056,-0.2888,0.1886,171
0,-1.0122,-0.3,-0.1255,-0.7447,-0.3008,0.2234,171
0,-1.0163,-0.2683,-0.1224,-0.6944,-0.3117,0.2649,171
0,-0.9949,-0.2745,-0.1275,-0.6803,-0.3205,0.2932,171
0,-1.0112,-0.2847,-0.1296,-0.6345,-0.2998,0.3117,171
0,-0.9897,-0.2673,-0.1194,-0.5429,-0.2823,0.3325,171
0,-0.9755,-0.2122,-0.053,-0.5036,-0.2583,0.3401,171
0,-0.9745,-0.2377,-0.0255,-0.5221,-0.2321,0.3336,171
0,-0.954,-0.2673,-0.0081,-0.5026,-0.2005,0.3346,171
0,-0.9673,-0.2693,0.0193,-0.4328,-0.1547,0.3434,171
0,-0.9755,-0.2734,0.0122,-0.4328,-0.1547,0.3434,171
0,-0.9755,-0.2734,0.0122,-0.3761,-0.0992,0.3357,171
0,-0.9785,-0.2734,0.004,-0.3281,-0.0446,0.3314,171
0,-0.9745,-0.2765,-0.0081,-0.2495,0.0196,0.3237,171
0,-0.9908,-0.2367,0.0102,-0.1678,0.0795,0.3271,171
0,-1.0479,-0.2561,0.0398,-0.1384,0.1515,0.3292,171
0,-1.1306,-0.2918,0.0826,-0.1035,0.2278,0.3401,171
0,-1.2418,-0.2979,0.1234,-0.0435,0.3041,0.3695,171
0,-1.3459,-0.1071,0.0928,-0.0065,0.3554,0.4437,171
0,-1.4897,0.0153,0.1439,0.0719,0.3729,0.5713,171
0,-1.4836,-0.0286,0.2949,0.0719,0.3729,0.5713,171
0,-1.4571,-0.0153,0.2806,0.1526,0.3281,0.5865,171
0,-1.4571,-0.0153,0.2806,0.0282,0.2409,0.6072,171
0,-1.2745,0.1928,0.1663,0.1886,0.1526,0.628,171
0,-1.2397,0.3459,0.1949,0.4546,0.0948,0.6138,171
0,-1.2,0.4347,0.2479,0.4065,0.0479,0.5102,171
0,-1.2265,0.4153,0.2724,0.0501,-0.0174,0.2987,171
0,-1.2898,0.0948,0.2877,-0.1667,-0.1068,0.0839,171
0,-1.3224,0.0786,0.2928,-0.0152,-0.1318,-0.0217,171
0,-1.3489,0.1183,0.3275,0.1972,-0.1089,-0.074,171
0,-1.3255,0.1642,0.3214,0.1972,-0.1089,-0.074,171
0,-1.2122,0.1337,0.2418,0.2256,-0.1112,-0.1155,171
0,-1.2122,0.1337,0.2418,0.169,-0.1558,-0.1253,171
0,-1.1224,0.1183,0.2,0.1755,-0.1831,-0.098,171
0,-1.1173,0.1735,0.1959,0.2278,-0.2159,-0.049,171
0,-0.9704,0.2377,0.2326,0.2159,-0.2365,-0.0228,171
0,-0.9398,0.2622,0.2347,0.169,-0.2191,0.0065,171
0,-0.9203,0.2959,0.2459,0.1635,-0.1962,0.0326,171
0,-0.903,0.3398,0.2531,0.1297,-0.1591,0.0446,171
0,-0.8734,0.3724,0.2561,-0.0011,-0.1123,0.0053,171
0,-0.7949,0.3234,0.1918,-0.1493,-0.0675,-0.0577,171
0,-0.7908,0.2928,0.1653,-0.1493,-0.0675,-0.0577,171
0,-0.7449,0.2194,0.1479,-0.2529,-0.0206,-0.0937,171
0,-0.7449,0.2194,0.1479,-0.3597,-0.0032,-0.1755,171
0,-0.7306,0.1449,0.1082,-0.4317,0.012,-0.2333,171
0,-0.6908,0.0643,0.0652,-0.4109,0.0021,-0.2529,171
0,-0.6837,0.0459,0.0469,-0.3575,0.012,-0.2617,171
0,-0.6867,0.0347,0.0398,-0.326,0.0162,-0.2474,171
0,-0.6775,0.0295,0.0286,-0.2976,0.0141,-0.2495,171
0,-0.6908,0.0173,0.0265,-0.2899,0.0076,-0.2507,171
0,-0.703,0.0,0.0295,-0.2899,0.0076,-0.2507,171
0,-0.7092,-0.0245,0.0255,-0.2899,-0.0087,-0.2388,171
0,-0.7163,-0.0336,0.0286,-0.2693,-0.0305,-0.2147,171
0,-0.7163,-0.0336,0.0286,-0.2027,-0.0621,-0.1798,171
0,-0.7306,-0.0051,0.0224,-0.1274,-0.0992,-0.1352,171
0,-0.7397,0.0326,0.0193,-0.0523,-0.1253,-0.0904,171
0,-0.7449,0.0765,0.0255,-0.0152,-0.1482,-0.0534,171
0,-0.749,0.1132,0.0408,-0.025,-0.1657,-0.0349,171
0,-0.7459,0.1775,0.0561,-0.0228,-0.1591,-0.0272,171
0,-0.7347,0.2092,0.0469,-0.0206,-0.1308,-0.0381,171
0,-0.7377,0.2438,0.0388,-0.0402,-0.0969,-0.061,171
0,-0.7316,0.2367,0.0163,-0.0402,-0.0969,-0.061,171
0,-0.7316,0.2367,0.0163,-0.1047,-0.0566,-0.1024,171
0,-0.7397,0.2061,-0.004,-0.1842,-0.0131,-0.1461,171
0,-0.7581,0.1622,-0.0122,-0.2191,0.0261,-0.182,171
0,-0.7704,0.1326,-0.0183,-0.2071,0.0654,-0.2005,171
0,-0.8377,0.102,-0.0071,-0.1842,0.1024,-0.2081,171
0,-0.8765,0.0867,0.0051,-0.181,0.1232,-0.2039,171
0,-0.9285,0.0745,0.0173,-0.1722,0.1449,-0.1896,171
0,-0.9775,0.0622,0.0183,-0.1144,0.1537,-0.1581,171
0,-1.0939,0.1367,-0.0092,-0.0217,0.1744,-0.1123,171
0,-1.1326,0.1938,-0.0204,-0.0217,0.1744,-0.1123,171
0,-1.1326,0.1938,-0.0204,0.049,0.1776,-0.0915,171
0,-1.1581,0.203,-0.0275,0.0402,0.1842,-0.1133,171
0,-1.1898,0.1949,-0.0112,-0.0032,0.1896,-0.1264,171
0,-1.2724,0.0979,0.0214,-0.0643,0.206,-0.1657,171
0,-1.2724,0.0193,0.0153,-0.0654,0.2278,-0.2049,171
0,-1.2479,-0.0326,-0.0061,0.0053,0.2605,-0.2289,171
0,-1.2418,-0.0388,-0.0122,0.1232,0.2943,-0.2256,171
0,-1.1581,0.0745,-0.0724,0.2398,0.3357,-0.206,171
0,-1.1173,0.1735,-0.0255,0.2888,0.3838,-0.1875,171
0,-1.153,0.2194,0.0591,0.2888,0.3838,-0.1875,171
0,-1.2336,0.2153,0.1,0.2049,0.4349,-0.1919,171
0,-1.2336,0.2153,0.1,0.1057,0.4971,-0.1896,171
0,-1.352,0.2704,0.1224,0.1013,0.5538,-0.1537,171
0,-1.3469,0.2704,0.1173,0.0686,0.5833,-0.1623,171
0,-1.3653,0.2786,0.1581,-0.0457,0.5635,-0.1384,171
1,-1.4203,0.2224,0.1714,-0.2495,0.4611,-0.1264,171
1,-1.3622,0.0418,0.1143,-0.3205,0.3183,-0.1232,171
1,-1.3479,0.0908,0.15,-0.2583,0.1787,-0.0883,171
1,-1.35,0.1316,0.1755,-0.3052,0.0479,-0.0719,171
1,-1.3152,0.1102,0.2275,-0.4797,-0.0631,-0.0643,171
1,-1.2786,-0.0143,0.2469,-0.4797,-0.0631,-0.0643,171
1,-1.2959,-0.0622,0.2755,-0.7031,-0.1384,-0.0719,171
1,-1.2101,0.0275,0.2775,-0.5723,-0.1396,0.098,171
1,-1.1183,0.0398,0.1857,-0.5723,-0.1396,0.098,171
1,-1.0398,0.0193,0.1326,-0.6411,-0.1253,0.1035,171
1,-1.0398,0.0193,0.1326,-0.7098,-0.1274,0.086,171
1,-1.001,-0.0326,0.0979,-0.7468,-0.1144,0.0577,171
1,-0.9612,-0.0469,0.1,-0.738,-0.1047,-0.0065,171
1,-0.9367,-0.1959,0.0684,-0.7228,-0.074,-0.0316,171
1,-0.8826,-0.2347,0.0367,-0.5974,-0.0402,-0.0162,171
1,-0.8918,-0.2061,0.0336,-0.4557,-0.0087,0.0097,171
1,-0.8479,-0.1837,0.0234,-0.3783,0.0162,0.0206,171
1,-0.8214,-0.1387,-0.0214,-0.3783,0.0162,0.0206,171
1,-0.8061,-0.1122,-0.0377,-0.3325,0.024,0.0446,171
1,-0.8,-0.0806,-0.0561,-0.2888,0.0174,0.0621,171
1,-0.8,-0.0806,-0.0561,-0.2594,0.0,0.0664,171
1,-0.7898,-0.0561,-0.0652,-0.255,-0.0228,0.0577,171
1,-0.7898,-0.049,-0.0684,-0.255,-0.0228,0.0577,171
1,-0.8102,-0.0275,-0.0622,-0.2398,-0.0992,0.0196,171
1,-0.7806,-0.0224,-0.0326,-0.2398,-0.0992,0.0196,171
1,-0.8091,-0.0602,-0.0347,-0.2834,-0.1449,-0.0131,171
1,-0.8,-0.1071,-0.0071,-0.3019,-0.181,-0.0425,171
1,-0.8081,-0.103,0.0031,-0.2529,-0.2081,-0.0589,171
1,-0.8051,-0.1245,0.0051,-0.2529,-0.2081,-0.0589,171
1,-0.8051,-0.1245,0.0051,-0.2365,-0.2453,-0.0937,171
1,-0.8265,-0.1765,-0.0092,-0.2365,-0.2453,-0.0937,171
1,-0.8622,-0.1561,-0.0102,-0.193,-0.2682,-0.0948,171
1,-0.8673,-0.1265,-0.0061,-0.1047,-0.2747,-0.085,171
1,-0.8826,-0.1122,-0.0061,-0.0599,-0.2976,-0.073,171
1,-0.8898,-0.1408,-0.0295,-0.0806,-0.3172,-0.0675,171
1,-0.9041,-0.1214,-0.0245,-0.0763,-0.3357,-0.0511,171
1,-0.902,-0.0928,-0.0183,-0.0141,-0.3445,-0.0174,171
1,-0.9203,-0.0796,-0.0132,0.0141,-0.351,0.0162,171
1,-0.9255,-0.1061,0.0,0.0141,-0.351,0.0162,171
1,-0.9255,-0.1061,0.0,-0.0131,-0.3489,0.0402,171
1,-0.9367,-0.103,0.0306,-0.0228,-0.3445,0.0686,171
1,-0.9337,-0.1082,0.0449,0.0011,-0.3302,0.1035,171
1,-0.9418,-0.1163,0.0459,0.0043,-0.3161,0.1329,171
1,-0.9551,-0.1112,0.0295,0.0152,-0.3008,0.1581,171
1,-0.9551,-0.0836,0.0255,0.0469,-0.2802,0.181,171
1,-0.9785,-0.0969,0.0081,0.0599,-0.2693,0.1984,171
1,-1.001,-0.1071,-0.0081,0.0545,-0.218,0.1951,171
1,-1.0245,-0.0786,0.0092,0.0828,-0.1951,0.2027,171
1,-1.0469,-0.0755,0.0234,0.1013,-0.1482,0.2016,171
1,-1.0693,-0.0847,0.0347,0.1013,-0.1482,0.2016,171
1,-1.0693,-0.0847,0.0347,0.0872,-0.1003,0.2039,171
1,-1.0786,-0.1082,0.0428,0.0828,-0.0479,0.2081,171
1,-1.2133,-0.1326,0.1153,0.1155,0.0196,0.2159,171
1,-1.3347,-0.1082,0.1418,0.1613,0.0795,0.2388,171
1,-1.4244,-0.0612,0.153,0.1962,0.1167,0.2703,172
1,-1.4816,0.0132,0.1602,0.2136,0.1318,0.3151,172
1,-1.5071,0.1173,0.1898,0.1984,0.1253,0.3542,172
1,-1.4551,0.1887,0.2673,0.2878,0.098,0.4229,172
1,-1.4398,0.2265,0.2571,0.3073,0.0479,0.4557,172
1,-1.3796,0.2693,0.2367,0.3073,0.0479,0.4557,172
1,-1.2194,0.3367,0.3306,0.255,0.0108,0.4263,172
1,-1.2194,0.3367,0.3306,0.2495,-0.0272,0.3838,172
1,-1.1439,0.2449,0.3275,0.1493,-0.0555,0.2976,172
1,-1.0847,0.1173,0.3102,-0.0162,-0.0818,0.1701,172
1,-1.0224,0.0459,0.3163,-0.0349,-0.0894,0.0599,172
1,-0.9959,-0.0571,0.352,0.0555,-0.0839,-0.0162,172
1,-0.9979,-0.105,0.3428,0.1362,-0.0839,-0.0675,172
1,-0.9938,-0.1234,0.3193,0.1995,-0.0818,-0.1079,172
1,-0.9755,-0.1,0.3051,0.3096,-0.0698,-0.1089,172
1,-0.9275,0.0061,0.2908,0.3096,-0.0698,-0.1089,172
1,-0.9112,0.0551,0.2775,0.424,-0.0469,-0.0872,172
1,-0.9112,0.0551,0.2775,0.4742,-0.0043,-0.0675,172
1,-0.8653,0.102,0.2561,0.4862,0.0337,-0.0469,172
1,-0.8377,0.1377,0.2397,0.4884,0.0654,-0.0337,172
1,-0.8061,0.2081,0.2367,0.4992,0.1047,-0.024,172
1,-0.8275,0.2336,0.2397,0.5102,0.1547,-0.0261,172
1,-0.8377,0.2347,0.2306,0.4655,0.193,-0.0402,172
1,-0.8459,0.1765,0.1622,0.3794,0.23,-0.0664,172
1,-0.8459,0.1571,0.1296,0.3073,0.2617,-0.0915,172
1,-0.8428,0.15,0.103,0.3073,0.2617,-0.0915,172
1,-0.8367,0.1337,0.0786,0.2998,0.2791,-0.1133,172
1,-0.8367,0.1337,0.0786,0.3031,0.2758,-0.1362,172
1,-0.8163,0.1082,0.0418,0.2966,0.2617,-0.1602,172
1,-0.8061,0.1,0.0286,0.3019,0.2354,-0.182,172
1,-0.7898,0.0928,0.0214,0.3161,0.2027,-0.2039,172
1,-0.7836,0.0796,0.0173,0.3172,0.1646,-0.2169,172
1,-0.7724,0.0367,0.0051,0.3161,0.1373,-0.2256,172
1,-0.7693,0.0163,-0.001,0.3205,0.1003,-0.2245,172
1,-0.7704,0.0061,-0.0051,0.3456,0.073,-0.2147,172
1,-0.7775,0.0153,-0.0092,0.4055,0.0446,-0.1919,172
1,-0.7775,0.0153,-0.0092,0.4055,0.0446,-0.1919,172
1,-0.8152,0.1071,0.0163,0.4677,0.0162,-0.1613,172
1,-0.8152,0.1071,0.0163,0.5059,-0.0131,-0.1341,172
1,-0.8316,0.1439,0.0234,0.5167,-0.0392,-0.1133,172
1,-0.8489,0.1796,0.0265,0.5145,-0.0643,-0.11,172
1,-0.8765,0.2388,0.0265,0.495,-0.0784,-0.1155,172
1,-0.8826,0.249,0.0092,0.4578,-0.0904,-0.1362,172
1,-0.8826,0.2377,-0.002,0.3935,-0.098,-0.1766,172
1,-0.8867,0.2142,-0.0122,0.3248,-0.1035,-0.2159,172
1,-0.9,0.1816,-0.0193,0.3019,-0.0992,-0.2529,172
1,-0.9,0.1816,-0.0193,0.3019,-0.0992,-0.2529,172
1,-0.9173,0.1775,-0.0265,0.3063,-0.0806,-0.2802,172
1,-0.9398,0.1806,-0.0306,0.314,-0.0545,-0.2987,172
1,-0.9551,0.1857,-0.0336,0.314,-0.037,-0.3063,172
1,-0.9724,0.1622,-0.0459,0.2834,-0.0217,-0.3151,172
1,-0.9734,0.1581,-0.0408,0.242,-0.0131,-0.314,172
1,-0.9857,0.1683,-0.0295,0.2268,-0.0097,-0.3041,172
1,-0.9897,0.1796,-0.0122,0.2115,-0.0108,-0.2878,172
1,-1.0357,0.2051,0.0336,0.193,-0.0108,-0.267,172
2,-1.0571,0.2285,0.0398,0.1766,-0.0011,-0.2388,172
2,-1.0643,0.2714,0.0377,0.1766,-0.0011,-0.2388,172
2,-1.0643,0.2714,0.0377,0.1635,0.0196,-0.2039,172
2,-1.0704,0.2888,0.0306,0.1264,0.0511,-0.1732,172
2,-1.0887,0.2806,0.0132,0.0589,0.0948,-0.1547,172
2,-1.1234,0.2663,0.004,-0.0087,0.1493,-0.1471,172
2,-1.1459,0.2357,0.0,-0.0643,0.1972,-0.1406,172
2,-1.1377,0.1867,-0.0193,-0.1341,0.2485,-0.1406,172
2,-1.1418,0.051,0.0173,-0.231,0.3052,-0.1384,172
2,-1.1959,0.0459,0.0786,-0.2147,0.3346,-0.1362,172
2,-1.2795,0.0765,0.1234,-0.1646,0.3674,-0.1177,172
2,-1.3857,0.2,0.1816,-0.1167,0.3859,-0.085,172
2,-1.3714,0.1979,0.203,-0.1167,0.3859,-0.085,172
2,-1.3989,0.1255,0.2122,-0.1515,0.3729,-0.0589,172
2,-1.3561,0.0275,0.1735,-0.2954,0.3565,-0.0577,172
2,-1.3561,0.0275,0.1735,-0.4414,0.2834,-0.0599,172
2,-1.2949,-0.0163,0.2153,-0.4557,0.193,-0.0414,172
2,-1.3102,0.0234,0.254,-0.3968,0.0925,-0.0065,172
2,-1.3367,0.0428,0.2836,-0.4317,-0.0108,0.0196,172
2,-1.3694,0.001,0.3255,-0.5865,-0.1274,0.0392,172
2,-1.3275,-0.0051,0.3255,-0.7369,-0.1962,0.0675,172
2,-1.2826,0.0388,0.3091,-0.7773,-0.2256,0.1188,172
2,-1.2122,0.0857,0.2693,-0.7566,-0.2039,0.1711,172
2,-1.0469,0.0551,0.2204,-0.7566,-0.2039,0.1711,172
2,-1.0469,0.0551,0.2204,-0.785,-0.193,0.206,172
2,-0.9928,0.0398,0.1796,-0.8678,-0.181,0.1896,172
2,-0.9928,0.0398,0.1796,-0.9485,-0.1461,0.1722,172
2,-0.9663,-0.0031,0.1683,-1.016,-0.1177,0.1373,172
2,-0.9224,-0.1194,0.0989,-1.0608,-0.0774,0.0904,172
2,-0.8959,-0.1735,0.05,-1.0641,-0.0479,0.061,172
2,-0.8602,-0.2,-0.004,-1.0106,-0.0185,0.0414,172
2,-0.8479,-0.1561,-0.0245,-0.858,0.0152,0.0654,172
2,-0.7979,-0.0153,-0.0193,-0.714,0.0337,0.11,172
2,-0.7867,-0.0214,-0.0193,-0.7413,0.0141,0.1286,172
2,-0.7867,-0.0214,-0.0193,-0.7413,0.0141,0.1286,172
2,-0.7632,-0.0734,-0.0408,-0.859,0.0011,0.1242,172
2,-0.7469,-0.1,-0.053,-0.8733,-0.0196,0.1318,172
2,-0.7316,0.0255,-0.0092,-0.7544,-0.037,0.1515,172
2,-0.7438,0.0143,-0.0193,-0.7327,-0.0751,0.1417,172
2,-0.7245,-0.0286,-0.0326,-0.8111,-0.1013,0.0992,172
2,-0.7306,-0.0234,-0.0388,-0.7991,-0.1384,0.0708,172
2,-0.751,0.0306,-0.0143,-0.7403,-0.169,0.0392,172
2,-0.7877,-0.0224,-0.0306,-0.7991,-0.2039,-0.012,172
2,-0.7663,-0.0989,-0.0367,-0.8885,-0.2409,-0.0675,172
2,-0.8275,-0.1337,-0.0316,-0.8885,-0.2409,-0.0675,172
2,-0.8275,-0.1337,-0.0316,-0.8787,-0.2573,-0.1047,172
2,-0.8428,-0.1796,-0.0347,-0.8264,-0.3085,-0.1123,172
2,-0.8071,-0.201,-0.0408,-0.7806,-0.3205,-0.1155,172
2,-0.8286,-0.2133,-0.053,-0.7205,-0.3477,-0.098,172
2,-0.8296,-0.1796,-0.0438,-0.652,-0.3565,-0.0664,172
2,-0.8683,-0.15,-0.0224,-0.5963,-0.3771,-0.0272,172
2,-0.8418,-0.153,-0.0143,-0.5898,-0.3695,0.0065,172
2,-0.9041,-0.1703,-0.0081,-0.5865,-0.3542,0.0392,172
2,-0.9081,-0.1816,0.0193,-0.5767,-0.3401,0.0751,172
2,-0.9938,-0.2245,0.0122,-0.5767,-0.3401,0.0751,172
2,-0.9877,-0.2183,0.0092,-0.5528,-0.3041,0.1079,172
2,-0.9877,-0.2183,0.0092,-0.496,-0.2768,0.1493,172
2,-1.0357,-0.204,-0.001,-0.424,-0.2485,0.181,172
2,-1.0449,-0.1938,-0.0081,-0.3826,-0.2245,0.2039,172
2,-1.0928,-0.1837,-0.0643,-0.3542,-0.2081,0.2191,172
2,-1.102,-0.1673,-0.0693,-0.3073,-0.193,0.2245,172
2,-1.1163,-0.1551,-0.0652,-0.2617,-0.1798,0.2234,172
2,-1.1357,-0.1469,-0.053,-0.2388,-0.1558,0.2136,172
2,-1.1796,-0.1632,-0.0143,-0.2234,-0.1308,0.2071,172
2,-1.2061,-0.1541,-0.0102,-0.2234,-0.1308,0.2071,172
2,-1.2449,-0.1275,0.0112,-0.1875,-0.0904,0.2115,172
2,-1.2449,-0.1275,0.0112,-0.1253,-0.0523,0.2234,172
2,-1.4,-0.1204,0.1153,-0.0784,-0.0021,0.231,172
2,-1.5326,-0.1143,0.1153,-0.0751,0.0643,0.2388,172
2,-1.5581,-0.0867,0.0918,-0.0523,0.0708,0.2638,172
2,-1.603,0.0102,0.101,0.0599,0.0555,0.3216,172
2,-1.5816,0.2214,0.2306,0.1787,0.0294,0.3565,172
2,-1.5755,0.2326,0.2612,0.1362,-0.0261,0.3336,172
2,-1.5245,0.1765,0.2449,-0.0577,-0.1177,0.2966,172
2,-1.4337,0.153,0.2867,-0.1537,-0.1907,0.23,172
2,-1.2081,0.0887,0.3571,-0.1537,-0.1907,0.23,172
2,-1.0786,-0.0132,0.355,-0.1678,-0.2333,0.1503,172
2,-1.0786,-0.0132,0.355,-0.2245,-0.2453,0.0555,172
2,-0.9897,-0.0939,0.3306,-0.2159,-0.2201,-0.0349,172
2,-0.9071,-0.1204,0.3479,-0.1123,-0.1798,-0.0894,172
2,-0.8152,-0.2112,0.3571,-0.0511,-0.1482,-0.1198,172
2,-0.7836,-0.2898,0.3163,-0.0599,-0.1253,-0.1352,172
2,-0.7745,-0.3112,0.2908,0.0141,-0.1112,-0.1167,172
2,-0.7765,-0.299,0.2806,0.193,-0.0925,-0.1123,172
2,-0.803,-0.2122,0.299,0.388,-0.0479,-0.1417,172
2,-0.8071,-0.1602,0.2959,0.388,-0.0479,-0.1417,172
2,-0.8357,-0.1082,0.2795,0.5396,0.012,-0.1133,172
2,-0.8357,-0.1082,0.2795,0.6171,0.0654,-0.0894,172
2,-0.8265,-0.0581,0.2449,0.6857,0.1144,-0.0698,172
2,-0.8479,0.0826,0.2316,0.7598,0.1711,-0.0555,172
2,-0.8632,0.1449,0.2245,0.7861,0.2027,-0.049,172
2,-0.8612,0.1796,0.2224,0.7447,0.2213,-0.073,172
2,-0.8612,0.1673,0.2101,0.6726,0.2474,-0.1133,172
2,-0.8602,0.1735,0.1949,0.6301,0.2823,-0.1274,172
2,-0.8643,0.1592,0.1612,0.6018,0.2932,-0.1493,172
2,-0.8643,0.1592,0.1612,0.6018,0.2932,-0.1493,172
2,-0.85,0.1173,0.1173,0.5189,0.2856,-0.1755,172
2,-0.8489,0.0724,0.0745,0.4742,0.2703,-0.1907,172
2,-0.8296,0.0418,0.0306,0.5036,0.2409,-0.1896,172
2,-0.8173,0.0306,0.0173,0.5353,0.1951,-0.1787,172
2,-0.8081,0.0245,0.0193,0.5528,0.1591,-0.1602,172
2,-0.7847,0.0183,0.0316,0.5723,0.1167,-0.1449,172
2,-0.751,0.0193,0.0357,0.5789,0.0818,-0.1329,172
2,-0.7133,0.0,0.0275,0.5757,0.0555,-0.1221,172
2,-0.7163,-0.0061,0.0081,0.5789,0.0349,-0.0915,172
2,-0.7051,-0.001,0.0061,0.5789,0.0349,-0.0915,172
2,-0.7051,-0.001,0.0061,0.6203,0.024,-0.0577,172
2,-0.7092,0.049,0.004,0.6672,0.0087,-0.0305,172
2,-0.7204,0.0714,0.0112,0.6999,0.0011,-0.012,172
2,-0.7408,0.103,0.0112,0.7098,-0.012,0.0,172
2,-0.7622,0.1285,0.0193,0.7043,-0.0228,-0.0021,172
3,-0.8163,0.1755,0.0204,0.6923,-0.025,-0.0108,172
3,-0.8541,0.1928,0.0153,0.6835,-0.025,-0.0185,172
3,-0.8857,0.2071,0.004,0.6705,-0.0261,-0.0326,172
3,-0.9275,0.2275,-0.002,0.6661,-0.0316,-0.061,172
3,-0.9785,0.2622,-0.0234,0.665,-0.0392,-0.1112,172
3,-0.9938,0.2867,-0.0255,0.665,-0.0392,-0.1112,172
3,-0.9938,0.2867,-0.0255,0.6617,-0.0457,-0.1623,172
3,-0.9928,0.2673,-0.0245,0.5505,-0.0631,-0.1711,172
3,-0.999,0.2449,-0.0112,0.4492,-0.0795,-0.1787,172
3,-0.999,0.2449,-0.0112,0.3783,-0.1089,-0.2147,172
3,-1.0204,0.2255,0.0071,0.351,-0.1286,-0.2289,172
3,-1.0816,0.2081,0.0163,0.3401,-0.1264,-0.2278,172
3,-1.0918,0.2142,0.0153,0.339,-0.1155,-0.2136,172
3,-1.103,0.2306,0.0224,0.3281,-0.0894,-0.194,172
3,-1.101,0.2296,0.0153,0.2867,-0.0589,-0.1875,172
3,-1.1296,0.2101,0.0286,0.2539,-0.0097,-0.1972,172
3,-1.1642,0.1612,0.0316,0.2159,0.0425,-0.2213,172
3,-1.1867,0.0877,0.0602,0.2159,0.0425,-0.2213,172
3,-1.2551,0.0081,0.1173,0.1635,0.1035,-0.2583,172
3,-1.2551,0.0081,0.1173,0.1297,0.1537,-0.2911,172
3,-1.4857,-0.1091,0.0969,0.1537,0.1972,-0.3019,172
3,-1.5204,-0.0857,0.0867,0.2737,0.2245,-0.2747,172
3,-1.6377,-0.0143,0.1479,0.4034,0.2442,-0.2464,172
3,-1.6959,-0.004,0.3051,0.375,0.2268,-0.2562,172
3,-1.8143,-0.1592,0.2745,0.1864,0.1722,-0.2943,172
3,-1.6775,-0.1428,0.1979,0.193,0.1089,-0.2899,172
3,-1.4775,0.0,0.1908,0.4164,0.0021,-0.2289,172
3,-1.352,0.1663,0.2316,0.4164,0.0021,-0.2289,172
3,-1.352,0.1663,0.2316,0.496,-0.1035,-0.1886,172
3,-1.0418,0.2326,0.2592,0.3052,-0.2224,-0.1798,172
3,-0.954,0.2551,0.2612,0.0959,-0.2834,-0.1613,172
3,-0.8275,0.3275,0.3214,0.0228,-0.3161,-0.1123,172
3,-0.7979,0.3908,0.3612,-0.0904,-0.3085,-0.0806,172
3,-0.7081,0.3643,0.4102,-0.3117,-0.2812,-0.074,172
3,-0.7133,0.3306,0.4081,-0.5244,-0.2234,-0.025,172
3,-0.699,0.3428,0.4041,-0.6442,-0.1613,0.0021,172
3,-0.6918,0.3755,0.403,-0.7205,-0.0774,0.0261,172
3,-0.7163,0.3989,0.355,-0.7205,-0.0774,0.0261,172
3,-0.7163,0.3989,0.355,-0.8481,0.0152,0.0217,172
3,-0.7449,0.3306,0.3377,-1.0477,0.1264,-0.0076,172
3,-0.7847,0.1949,0.3224,-1.2854,0.2147,-0.0566,172
3,-0.801,0.0183,0.303,-1.5394,0.2627,-0.1188,172
3,-0.9092,-0.1265,0.1826,-1.5994,0.3052,-0.1526,172
3,-0.9459,-0.1306,0.1653,-1.4261,0.3368,-0.1264,172
3,-0.9775,-0.1306,0.1439,-1.2418,0.3554,-0.1308,172
3,-1.0398,-0.1439,0.1214,-1.1993,0.351,-0.1362,172
3,-1.051,-0.2306,0.0183,-1.268,0.2987,-0.1503,172
3,-1.0591,-0.2663,-0.0295,-1.2548,0.2539,-0.1352,172
3,-1.0816,-0.2194,-0.0347,-1.2548,0.2539,-0.1352,172
3,-1.0816,-0.2194,-0.0347,-1.135,0.2005,-0.0969,172
3,-1.0306,-0.1796,-0.0306,-1.1131,0.1013,-0.0774,172
3,-0.9908,-0.2775,-0.0755,-1.1764,0.0414,-0.0959,172
3,-0.9724,-0.3061,-0.0796,-1.1415,-0.0337,-0.1003,172
3,-0.9377,-0.2908,-0.0652,-1.016,-0.0894,-0.0904,172
3,-0.9173,-0.2734,-0.053,-0.9278,-0.1362,-0.0675,172
3,-0.8816,-0.2928,-0.0561,-0.8907,-0.1907,-0.0992,173
3,-0.855,-0.2959,-0.05,-0.8155,-0.231,-0.1274,173
3,-0.8367,-0.2765,-0.0438,-0.7163,-0.2605,-0.1198,173
3,-0.8316,-0.2765,-0.0367,-0.7163,-0.2605,-0.1198,173
3,-0.8398,-0.3081,-0.0418,-0.6672,-0.2725,-0.1188,173
3,-0.8398,-0.3081,-0.0418,-0.665,-0.2987,-0.1177,173
3,-0.8377,-0.3326,-0.0561,-0.628,-0.3183,-0.1047,173
3,-0.8377,-0.3408,-0.0581,-0.5408,-0.3325,-0.0698,173
3,-0.8336,-0.3255,-0.0581,-0.4481,-0.3445,-0.0316,173
3,-0.8357,-0.3214,-0.0581,-0.375,-0.3542,0.0097,173
3,-0.8184,-0.3122,-0.0581,-0.3052,-0.3565,0.0457,173
3,-0.8152,-0.302,-0.0704,-0.2333,-0.3619,0.0839,173
3,-0.7979,-0.2602,-0.0561,-0.2333,-0.3619,0.0839,173
3,-0.7918,-0.2388,-0.0336,-0.1623,-0.3706,0.1144,173
3,-0.7816,-0.2347,-0.0092,-0.0948,-0.3706,0.1417,173
3,-0.7816,-0.2347,-0.0092,-0.0599,-0.3619,0.1613,173
3,-0.7734,-0.2245,0.0173,-0.037,-0.35,0.1831,173
3,-0.7755,-0.2388,0.0918,-0.0152,-0.326,0.2071,173
3,-0.7888,-0.2377,0.103,0.0174,-0.2834,0.2398,173
3,-0.8061,-0.2194,0.0989,0.0654,-0.2191,0.2791,173
3,-0.7888,-0.1816,0.102,0.1079,-0.1461,0.314,173
3,-0.8418,-0.1183,0.0836,0.1417,-0.0392,0.339,173
3,-0.8724,-0.0796,0.101,0.1613,0.0479,0.3695,173
3,-0.9061,-0.0724,0.1082,0.1613,0.0479,0.3695,173
3,-0.9347,-0.1091,0.1122,0.11,0.1362,0.387,173
3,-0.9347,-0.1091,0.1122,0.036,0.2201,0.3958,173
3,-1.1112,-0.1898,0.2245,0.0131,0.2987,0.4132,173
3,-1.2755,-0.2224,0.3041,0.0185,0.387,0.4426,173
3,-1.402,-0.2704,0.2786,0.0021,0.4513,0.4862,173
3,-1.4683,-0.2806,0.2071,0.0818,0.4982,0.5647,173
3,-1.4408,-0.0898,0.2275,0.35,0.483,0.6857,173
3,-1.4398,-0.0031,0.2367,0.5625,0.4273,0.6955,173
3,-1.3846,0.0877,0.203,0.5625,0.3193,0.6791,173
3,-1.3582,0.1622,0.2285,0.5625,0.3193,0.6791,173
3,-1.3582,0.1622,0.2285,0.545,0.1864,0.6072,173
3,-1.4112,0.2092,0.2877,0.532,0.0523,0.5124,173
3,-1.4244,0.1602,0.3347,0.4578,-0.0621,0.3477,173
3,-1.4102,0.0469,0.3694,0.3368,-0.1438,0.1732,173
3,-1.3857,-0.0541,0.3724,0.4175,-0.1732,0.0457,173
3,-1.2755,0.0265,0.3908,0.6312,-0.1635,-0.0272,173
3,-1.204,0.0418,0.3541,0.6825,-0.1318,-0.0992,173
3,-1.1306,0.0031,0.3,0.6159,-0.0937,-0.1547,173
3,-1.0357,0.0143,0.254,0.6541,-0.0589,-0.1613,173
3,-0.9194,0.1408,0.2592,0.7108,-0.0043,-0.1396,173
3,-0.9194,0.1408,0.2592,0.7108,-0.0043,-0.1396,173
3,-0.8918,0.1459,0.252,0.6476,0.061,-0.1274,173
3,-0.8918,0.1122,0.2408,0.5549,0.1308,-0.1221,173
3,-0.902,0.0959,0.2275,0.557,0.2005,-0.0937,173
3,-0.9132,0.1428,0.1612,0.5713,0.2834,-0.0839,173
3,-0.9112,0.1357,0.1143,0.5341,0.3434,-0.0948,173
3,-0.8877,0.1204,0.0714,0.5156,0.3619,-0.1079,173
3,-0.8846,0.1102,0.0398,0.5429,0.3729,-0.1232,173
3,-0.8479,0.1367,0.0204,0.5669,0.3542,-0.1449,173
3,-0.8306,0.1204,0.004,0.5461,0.3227,-0.1657,173
4,-0.8152,0.1061,-0.0061,0.5461,0.3227,-0.1657,173
4,-0.8152,0.1061,-0.0061,0.5408,0.2899,-0.181,173
4,-0.7653,0.0989,-0.0102,0.545,0.2376,-0.1919,173
4,-0.7408,0.0826,-0.0092,0.532,0.1875,-0.1984,173
4,-0.7194,0.0622,-0.0061,0.5059,0.1461,-0.2027,173
4,-0.6949,0.0377,-0.004,0.4906,0.1068,-0.206,173
4,-0.6663,-0.0081,-0.002,0.4992,0.0784,-0.2005,173
4,-0.6653,0.0,-0.002,0.5385,0.0555,-0.181,173
4,-0.6775,0.0367,0.0193,0.6062,0.0272,-0.1308,173
4,-0.702,0.053,0.0224,0.5996,0.0196,-0.1089,173
4,-0.7122,0.0734,0.0163,0.6159,0.0131,-0.0883,173
4,-0.7296,0.1112,0.0132,0.6476,0.0162,-0.0719,173
4,-0.7499,0.1459,0.0204,0.6476,0.0162,-0.0719,173
4,-0.8122,0.2101,0.0306,0.6596,0.0228,-0.0599,173
4,-0.8122,0.2101,0.0306,0.6377,0.0349,-0.0631,173
4,-0.852,0.2388,0.0316,0.5952,0.037,-0.073,173
4,-0.8949,0.2531,0.0255,0.544,0.0545,-0.0894,173
4,-0.9438,0.2734,0.0112,0.4992,0.0751,-0.1089,173
4,-1.0193,0.2928,-0.0061,0.4382,0.0828,-0.1352,173
4,-1.049,0.2745,-0.0245,0.3597,0.0784,-0.1623,173
4,-1.0663,0.2918,-0.0367,0.3205,0.0511,-0.1907,173
4,-1.0745,0.3051,-0.0234,0.3073,0.0185,-0.2049,173
4,-1.1071,0.2908,-0.0061,0.3073,0.0185,-0.2049,173
4,-1.1071,0.2908,-0.0061,0.2278,-0.0053,-0.193,173
4,-1.105,0.2602,-0.0163,0.1417,-0.0217,-0.1755,173
4,-1.102,0.2581,-0.0224,0.1232,-0.025,-0.1581,173
4,-1.0847,0.2765,-0.0112,0.1329,0.0065,-0.1449,173
4,-1.0887,0.2683,0.0092,0.1035,0.0621,-0.1461,173
4,-1.1061,0.2306,0.0122,0.037,0.1274,-0.1602,173
4,-1.1153,0.1816,0.0061,-0.0131,0.1984,-0.1667,173
4,-1.1224,0.1224,-0.0193,-0.0349,0.2703,-0.1787,173
4,-1.1561,-0.0183,0.0122,-0.0206,0.3314,-0.1776,173
4,-1.251,-0.0796,0.0581,0.0032,0.387,-0.1722,173
4,-1.251,-0.0796,0.0581,0.0032,0.387,-0.1722,173
4,-1.355,-0.1183,0.0112,0.0806,0.4132,-0.1581,173
4,-1.453,-0.1173,-0.0132,0.2573,0.4208,-0.1274,173
4,-1.552,0.0469,0.0989,0.3542,0.4,-0.1089,173
4,-1.5786,0.0051,0.1887,0.2081,0.3456,-0.1362,173
4,-1.6122,-0.1346,0.1775,0.025,0.2583,-0.1766,173
4,-1.5693,-0.2101,0.1663,0.0839,0.1581,-0.1646,173
4,-1.3622,-0.1377,0.1316,0.2605,0.086,-0.1232,173
4,-1.2388,-0.05,0.1612,0.3489,0.0043,-0.0763,173
4,-1.1724,0.0173,0.1928,0.2747,-0.0763,-0.0469,173
4,-1.1,0.049,0.2408,0.2747,-0.0763,-0.0469,173
4,-1.1,0.049,0.2408,0.1471,-0.1384,-0.0228,173
4,-1.0989,0.0989,0.3316,-0.0162,-0.1657,-0.0162,173
4,-1.0714,0.0877,0.3561,-0.1798,-0.181,0.0282,173
4,-1.0806,0.0347,0.3184,-0.2737,-0.1798,0.061,173
4,-0.952,0.0163,0.2347,-0.3085,-0.1602,0.086,173
4,-0.9244,0.0316,0.2112,-0.2802,-0.1079,0.0992,173
4,-0.8448,0.0408,0.2142,-0.2474,-0.0915,0.1047,173
4,-0.8173,0.0541,0.2255,-0.3227,-0.073,0.0795,173
4,-0.7755,-0.0857,0.1979,-0.4775,-0.0511,0.0435,173
4,-0.7806,-0.1592,0.1653,-0.4775,-0.0511,0.0435,173
4,-0.802,-0.2204,0.1479,-0.5473,-0.0217,0.0349,173
4,-0.802,-0.2204,0.1479,-0.4687,0.0196,0.0282,174
4,-0.7979,-0.2469,0.1306,-0.3205,0.0589,0.0316,174
4,-0.8132,-0.2081,0.0673,-0.1701,0.0959,0.0272,174
4,-0.8112,-0.15,0.05,-0.0425,0.1264,0.0566,174
4,-0.8234,-0.0836,0.0388,-0.0076,0.1318,0.0872,174
4,-0.8081,-0.051,0.0306,-0.0719,0.1177,0.0969,174
4,-0.7979,-0.0469,0.0051,-0.1221,0.0969,0.0969,174
4,-0.8081,-0.0234,0.0,-0.1013,0.0784,0.0904,174
4,-0.8102,-0.001,-0.0031,-0.1013,0.0784,0.0904,174
4,-0.8071,-0.0061,-0.0102,-0.0915,0.0555,0.0708,174
4,-0.8071,-0.0061,-0.0102,-0.1221,0.036,0.0326,174
4,-0.8459,-0.0132,-0.0204,-0.1352,0.0076,-0.0011,174
4,-0.8296,-0.0377,-0.0193,-0.1623,-0.0349,-0.0402,174
4,-0.8796,-0.0826,-0.0265,-0.1962,-0.0566,-0.0763,174
4,-0.8469,-0.1265,-0.0428,-0.1646,-0.0763,-0.0925,174
4,-0.8837,-0.1683,-0.0357,-0.1057,-0.0937,-0.0948,174
4,-0.9092,-0.1877,-0.0398,-0.0698,-0.1144,-0.085,174
4,-0.9275,-0.1959,-0.0581,-0.0174,-0.1406,-0.0621,174
4,-0.9224,-0.1724,-0.0469,-0.0174,-0.1406,-0.0621,174
4,-0.9673,-0.1489,-0.0652,0.0501,-0.157,-0.0261,174
4,-0.9673,-0.1489,-0.0652,0.074,-0.1766,0.0021,174
4,-0.949,-0.1449,-0.0622,0.0664,-0.2147,0.0414,174
4,-0.9642,-0.1489,-0.0786,0.0959,-0.2201,0.0654,174
4,-0.9704,-0.1245,-0.0755,0.1503,-0.2333,0.0969,174
4,-0.9867,-0.0918,-0.0632,0.1547,-0.2278,0.1144,174
4,-0.9765,-0.0989,-0.0622,0.1318,-0.2388,0.1253,174
4,-0.9897,-0.1173,-0.0591,0.1329,-0.2289,0.1396,174
4,-0.9704,-0.1183,-0.0479,0.1623,-0.2268,0.1537,174
4,-0.9969,-0.1153,-0.0143,0.1711,-0.2191,0.1623,174
4,-1.0092,-0.1326,-0.0051,0.1711,-0.2191,0.1623,174
4,-1.0255,-0.1541,-0.001,0.1591,-0.2159,0.1646,174
4,-1.0255,-0.1541,-0.001,0.157,-0.2093,0.1646,174
4,-1.0245,-0.1694,-0.001,0.1984,-0.1842,0.169,174
4,-1.0459,-0.15,-0.001,0.2507,-0.1482,0.1755,174
4,-1.0591,-0.1214,0.0061,0.2878,-0.1013,0.1776,174
4,-1.0693,-0.1173,0.0112,0.2899,-0.0469,0.1798,174
4,-1.1173,-0.1326,0.0132,0.2998,0.012,0.1875,174
4,-1.1898,-0.0796,0.0438,0.3434,0.0577,0.2071,174
4,-1.2724,-0.0316,0.0918,0.3597,0.11,0.2224,174
4,-1.2724,-0.0316,0.0918,0.3597,0.11,0.2224,174
4,-1.3245,-0.0092,0.1153,0.2899,0.1396,0.2365,174
4,-1.355,0.0122,0.0643,0.2562,0.1558,0.2758,174
4,-1.2969,0.1285,0.0979,0.339,0.1352,0.339,174
4,-1.3234,0.1581,0.1908,0.2725,0.1112,0.339,174
4,-1.3918,0.1041,0.2224,0.1089,0.0948,0.3031,174
4,-1.4796,0.0438,0.1898,0.1188,0.0774,0.2737,174
4,-1.4377,0.0745,0.1622,0.2169,0.0261,0.2388,174
4,-1.3714,0.1091,0.1439,0.2812,-0.037,0.194,174
4,-1.2734,0.1296,0.153,0.2779,-0.1274,0.1155,174
4,-1.1,-0.0081,0.1703,0.2779,-0.1274,0.1155,174
4,-1.1,-0.0081,0.1703,0.2213,-0.23,0.025,174
4,-1.0602,-0.0816,0.1969,0.2071,-0.326,-0.0654,174
4,-1.0204,-0.1683,0.203,0.2823,-0.3815,-0.1286,174
4,-0.9897,-0.1949,0.1979,0.4797,-0.3848,-0.1591,174
4,-0.9745,-0.0979,0.2275,0.6411,-0.351,-0.1744,174
4,-0.9551,-0.0673,0.2265,0.702,-0.314,-0.1896,174
5,-0.9316,-0.0295,0.2255,0.726,-0.2768,-0.2016,174
5,-0.9,0.0132,0.2183,0.7817,-0.2333,-0.1995,174
5,-0.8622,0.1622,0.2367,0.8199,-0.1875,-0.1896,174
5,-0.8448,0.201,0.2714,0.8199,-0.1875,-0.1896,174
5,-0.85,0.1867,0.2632,0.7544,-0.1591,-0.1831,174
5,-0.85,0.1867,0.2632,0.6497,-0.1352,-0.1787,174
5,-0.8673,0.1765,0.2459,0.6268,-0.0894,-0.1635,174
5,-0.8734,0.2194,0.1275,0.5778,0.0021,-0.1503,174
5,-0.8734,0.2194,0.1275,0.4884,0.0196,-0.1678,174
5,-0.8653,0.1724,0.0877,0.424,0.024,-0.1951,174
5,-0.8316,0.0918,0.0612,0.3826,-0.0032,-0.2268,174
5,-0.8122,0.0183,0.0357,0.351,-0.024,-0.2583,174
5,-0.7816,-0.0418,0.0286,0.3979,-0.036,-0.2747,174
5,-0.7734,-0.0714,0.0255,0.507,-0.0402,-0.2812,174
5,-0.754,-0.0663,0.0408,0.5887,-0.0511,-0.2714,174
5,-0.7367,-0.0847,0.0388,0.5887,-0.0511,-0.2714,174
5,-0.7367,-0.0847,0.0388,0.6159,-0.0523,-0.2659,174
5,-0.7296,-0.1194,0.0143,0.6476,-0.0469,-0.2464,174
5,-0.7296,-0.1194,0.0143,0.7195,-0.049,-0.2027,174
5,-0.7612,-0.0796,0.0234,0.7991,-0.0469,-0.1471,174
5,-0.7704,-0.0612,0.0377,0.8285,-0.0501,-0.1003,174
5,-0.7908,-0.049,0.0295,0.8733,-0.0501,-0.0577,174
5,-0.8122,-0.0112,0.0336,0.954,-0.0479,-0.0196,174
5,-0.8612,0.1214,0.05,0.9965,-0.0425,0.0032,174
5,-0.8837,0.1694,0.0428,0.9714,-0.0435,0.0021,174
5,-0.903,0.1775,0.0295,0.9256,-0.0501,-0.0021,174
5,-0.903,0.1775,0.0295,0.9256,-0.0501,-0.0021,174
5,-0.9306,0.2204,0.0214,0.87,-0.0631,-0.025,174
5,-0.9408,0.2296,0.0153,0.7718,-0.074,-0.0545,174
5,-0.9377,0.203,0.0031,0.7195,-0.073,-0.074,174
5,-0.9479,0.2285,0.004,0.7348,-0.061,-0.0872,174
5,-0.9459,0.2724,0.004,0.6857,-0.0698,-0.1003,174
5,-0.9275,0.2643,-0.0081,0.5865,-0.0795,-0.1177,174
5,-0.9142,0.2592,-0.0031,0.5124,-0.0915,-0.1286,174
5,-0.9102,0.2612,0.0224,0.4557,-0.098,-0.1297,174
5,-0.9612,0.2418,0.0939,0.3924,-0.085,-0.1253,174
5,-0.9928,0.2316,0.0898,0.3924,-0.085,-0.1253,174
5,-0.9928,0.2316,0.0898,0.35,-0.0577,-0.1112,174
5,-1.0081,0.2479,0.0877,0.3336,-0.0174,-0.0839,174
5,-1.0153,0.2571,0.0745,0.3172,0.036,-0.0686,174
5,-1.0541,0.2734,0.0806,0.2932,0.0937,-0.0664,174
5,-1.0939,0.2704,0.0806,0.2562,0.1526,-0.0883,174
5,-1.1418,0.2418,0.0765,0.1842,0.2081,-0.1264,174
5,-1.1765,0.1867,0.0561,0.0959,0.2495,-0.1701,174
5,-1.301,0.0286,0.105,0.0414,0.2888,-0.2093,174
5,-1.4051,-0.0418,0.1122,0.037,0.314,-0.2234,174
5,-1.5092,-0.0643,0.0796,0.037,0.314,-0.2234,174
5,-1.5398,-0.0295,0.0693,0.1417,0.3237,-0.206,174
5,-1.5398,-0.0295,0.0693,0.2518,0.2932,-0.1766,174
5,-1.5673,0.0183,0.2051,0.1919,0.2409,-0.181,174
5,-1.6153,-0.0612,0.2438,0.0446,0.1635,-0.1907,174
5,-1.6724,-0.1143,0.2336,0.0828,0.0883,-0.1558,174
5,-1.6449,-0.0673,0.2163,0.231,-0.0076,-0.0774,174
5,-1.4092,0.101,0.201,0.2081,-0.1035,-0.0305,174
5,-1.2592,0.15,0.1908,0.0915,-0.2234,0.0152,174
5,-1.1275,0.2,0.2275,-0.012,-0.3031,0.0675,174
5,-1.0336,0.2408,0.2622,-0.012,-0.3031,0.0675,174
5,-0.8816,0.3602,0.352,-0.012,-0.3031,0.0675,174
5,-0.8122,0.3398,0.3724,-0.2714,-0.3739,0.1471,174
5,-0.8122,0.3398,0.3724,-0.2714,-0.3739,0.1471,174
5,-0.8,0.2959,0.35,-0.7228,-0.3151,0.1373,174
5,-0.7306,0.2316,0.3357,-0.7228,-0.3151,0.1373,174
5,-0.699,0.2275,0.2938,-0.8144,-0.2583,0.1471,174
5,-0.6938,0.254,0.2959,-0.8319,-0.1972,0.1352,174
5,-0.6592,0.251,0.2836,-0.8613,-0.1286,0.1188,174
5,-0.6428,0.1949,0.2693,-1.1404,0.0131,0.0349,174
5,-0.6694,0.0092,0.2428,-1.1404,0.0131,0.0349,174
5,-0.6847,-0.0847,0.2163,-1.1404,0.0131,0.0349,174
5,-0.701,-0.1592,0.1928,-1.2451,0.0675,0.0,174
5,-0.701,-0.1592,0.1928,-1.305,0.1177,-0.0032,174
5,-0.7449,-0.203,0.1663,-1.2537,0.182,0.0217,174
5,-0.8132,-0.1551,0.1122,-1.1055,0.2529,0.0402,174
5,-0.8398,-0.1082,0.0898,-0.9463,0.2976,0.0621,174
5,-0.8785,-0.0755,0.052,-0.8809,0.3292,0.085,174
5,-0.8887,-0.0704,0.0214,-0.8983,0.3271,0.0894,174
5,-0.9071,-0.051,-0.0102,-0.9321,0.3063,0.0925,174
5,-0.9102,-0.0541,-0.0061,-0.9321,0.3063,0.0925,174
5,-0.9102,-0.0541,-0.0061,-0.9278,0.2768,0.086,174
5,-0.9316,-0.0388,-0.0112,-0.9256,0.2464,0.074,174
5,-0.9316,-0.0388,-0.0112,-0.9267,0.1984,0.0469,174
5,-0.951,-0.1306,-0.0153,-0.9681,0.1406,0.0141,174
5,-0.9255,-0.1541,-0.0183,-0.9746,0.1068,-0.0162,174
5,-0.9663,-0.1571,-0.0132,-0.9005,0.0664,-0.0337,174
5,-0.9592,-0.1551,-0.0061,-0.8329,0.0425,-0.0566,174
5,-0.9949,-0.2051,-0.0173,-0.8035,0.0131,-0.0818,174
5,-1.001,-0.2296,-0.0193,-0.7817,-0.0185,-0.0992,174
5,-1.0224,-0.249,-0.0275,-0.7424,-0.0555,-0.1035,174
5,-1.0163,-0.2418,-0.0438,-0.7424,-0.0555,-0.1035,174
5,-1.0163,-0.2418,-0.0438,-0.6835,-0.0872,-0.0937,174
5,-1.0071,-0.2306,-0.0632,-0.6236,-0.1167,-0.0751,174
5,-0.9908,-0.2081,-0.0673,-0.5679,-0.1482,-0.0555,174
5,-0.9357,-0.2122,-0.0704,-0.5635,-0.1951,-0.0228,174
5,-0.901,-0.2234,-0.0643,-0.557,-0.2005,-0.0011,174
5,-0.9142,-0.2224,-0.053,-0.5276,-0.2115,0.0326,174
5,-0.8898,-0.2336,-0.0428,-0.4927,-0.2049,0.0643,174
5,-0.8969,-0.25,-0.0306,-0.4753,-0.1962,0.0925,174
5,-0.8918,-0.2449,-0.004,-0.4317,-0.1732,0.1209,174
5,-0.9183,-0.254,0.0112,-0.4317,-0.1732,0.1209,174
5,-0.9183,-0.254,0.0112,-0.3794,-0.1591,0.1581,174
5,-0.9194,-0.2755,0.0224,-0.3554,-0.1406,0.1875,174
5,-0.9428,-0.2969,0.0214,-0.339,-0.1297,0.2104,174
5,-0.9857,-0.3193,-0.0031,-0.2899,-0.1003,0.2344,174
5,-0.9918,-0.3224,-0.0183,-0.2147,-0.0719,0.2507,174
5,-1.0061,-0.3081,-0.0224,-0.1188,-0.0414,0.2693,174
5,-1.0173,-0.2857,-0.0214,-0.0152,-0.0076,0.2867,174
5,-1.0428,-0.2704,0.0051,0.0621,0.025,0.3096,174
5,-1.0836,-0.2571,0.053,0.1024,0.0643,0.3445,174
5,-1.1449,-0.2469,0.1245,0.1024,0.0643,0.3445,174
5,-1.2418,-0.254,0.1581,0.1635,0.1057,0.3924,174
6,-1.2418,-0.254,0.1581,0.2005,0.1515,0.4317,174
6,-1.3734,-0.152,0.1632,0.2201,0.2081,0.4841,174
6,-1.35,-0.0255,0.1346,0.3041,0.2583,0.5647,174
6,-1.4785,0.0541,0.1908,0.3586,0.2888,0.6574,174
6,-1.4,0.0673,0.25,0.4219,0.2737,0.7054,174
6,-1.3571,0.1826,0.1561,0.363,0.2201,0.713,174
6,-1.3173,0.2561,0.1857,0.3695,0.1581,0.6857,174
6,-1.2479,0.3061,0.1949,0.4109,0.1003,0.6268,174
6,-1.0591,0.0316,0.252,0.1449,-0.0446,0.3346,174
6,-1.0581,-0.0398,0.3204,0.073,-0.1047,0.1755,174
6,-1.1,-0.1224,0.3275,0.073,-0.1047,0.1755,174
6,-1.1,-0.1224,0.3275,0.1657,-0.11,0.061,174
6,-1.0786,-0.0663,0.2367,0.3031,-0.1068,-0.0043,174
6,-1.0786,-0.0663,0.2367,0.4414,-0.0915,-0.0414,174
6,-1.049,-0.0163,0.2133,0.5265,-0.0686,-0.0589,174
6,-1.0,0.0336,0.1837,0.5625,-0.0479,-0.0643,174
6,-0.951,0.0836,0.1765,0.5822,-0.0501,-0.0523,174
6,-0.8816,0.2051,0.2194,0.5865,-0.037,-0.0349,174
6,-0.8837,0.2377,0.2204,0.5528,-0.0152,-0.0152,174
6,-0.8694,0.2388,0.2388,0.4481,-0.0011,-0.0032,174
6,-0.8867,0.2469,0.2397,0.3685,0.037,0.0076,174
6,-0.8989,0.2908,0.2296,0.3685,0.037,0.0076,174
6,-0.8989,0.2908,0.2296,0.3422,0.086,0.0097,174
6,-0.8928,0.2704,0.1887,0.2737,0.1406,-0.0076,174
6,-0.8816,0.2336,0.1469,0.1711,0.1776,-0.0381,174
6,-0.8734,0.202,0.1082,0.0992,0.194,-0.0621,174
6,-0.8357,0.1275,0.0632,0.0402,0.1886,-0.0915,174
6,-0.8286,0.0714,0.0398,-0.012,0.1646,-0.1188,174
6,-0.8193,0.0418,0.0316,-0.0087,0.1396,-0.1274,174
6,-0.7979,0.0265,0.0234,0.0425,0.1133,-0.1221,174
6,-0.7836,0.0081,0.0102,0.0719,0.0806,-0.1133,174
6,-0.7704,-0.0163,0.004,0.0719,0.0806,-0.1133,174
6,-0.7704,-0.0163,0.004,0.0719,0.0523,-0.0992,174
6,-0.7561,-0.0336,-0.0061,0.0904,0.0305,-0.085,174
6,-0.7459,-0.0183,-0.0153,0.1428,0.0162,-0.0599,174
6,-0.7551,0.001,-0.0173,0.2093,0.0,-0.0316,174
6,-0.7632,0.0245,-0.0183,0.2617,-0.0152,-0.0131,174
6,-0.7786,0.0591,-0.0173,0.3107,-0.0294,0.0,174
6,-0.8051,0.1592,0.0,0.363,-0.0457,0.0011,174
6,-0.8204,0.1918,0.0,0.388,-0.0589,-0.0065,174
6,-0.8296,0.2204,0.0,0.3761,-0.0566,-0.0337,174
6,-0.8347,0.2449,-0.001,0.3761,-0.0566,-0.0337,174
6,-0.852,0.2592,-0.0081,0.3554,-0.0577,-0.0664,174
6,-0.852,0.2592,-0.0081,0.3183,-0.0479,-0.1079,174
6,-0.8622,0.2449,-0.0132,0.2638,-0.0349,-0.1482,174
6,-0.8745,0.2285,-0.0234,0.2136,-0.0152,-0.1907,174
6,-0.8887,0.2153,-0.0295,0.1875,0.0032,-0.2147,174
6,-0.9,0.2071,-0.0357,0.1755,0.025,-0.23,174
6,-0.8939,0.199,-0.0357,0.1558,0.0523,-0.2453,174
6,-0.901,0.1979,-0.0132,0.1329,0.0708,-0.2507,174
6,-0.9235,0.1918,0.0112,0.1068,0.0872,-0.2507,174
6,-1.0336,0.1735,0.0408,0.0784,0.0948,-0.2398,174
6,-1.0847,0.1857,0.0428,0.0784,0.0948,-0.2398,174
6,-1.1245,0.1949,0.0204,0.0675,0.1144,-0.2159,174
6,-1.1245,0.1949,0.0204,0.0631,0.1188,-0.1755,174
6,-1.1449,0.2204,0.0,0.0566,0.1221,-0.1384,174
6,-1.1928,0.2734,0.0051,0.061,0.1188,-0.1047,174
6,-1.2296,0.2142,0.001,0.0011,0.1188,-0.1089,175
6,-1.2806,0.1387,-0.0061,-0.1068,0.1253,-0.1406,175
6,-1.2949,0.0887,-0.0112,-0.1242,0.1318,-0.157,175
6,-1.3173,0.0,0.0418,-0.0818,0.1503,-0.1591,175
6,-1.3673,-0.0591,0.0591,-0.0621,0.1787,-0.169,175
6,-1.4214,-0.0959,0.0214,-0.0621,0.1787,-0.169,175
6,-1.4173,-0.0847,-0.0143,-0.0349,0.1972,-0.1701,175
6,-1.4173,-0.0847,-0.0143,0.0675,0.206,-0.1329,175
6,-1.35,-0.049,0.0071,0.1798,0.2104,-0.1024,175
6,-1.3336,-0.0959,0.0459,0.1701,0.2071,-0.0959,175
6,-1.3887,-0.1602,0.0796,0.1198,0.2005,-0.1047,175
6,-1.4235,-0.1755,0.0928,0.193,0.1995,-0.086,175
6,-1.4051,-0.002,0.1418,0.3456,0.1787,-0.0381,175
6,-1.3765,0.0561,0.1439,0.4164,0.1362,-0.0011,175
6,-1.2959,0.1285,0.152,0.3685,0.0523,0.0305,175
6,-1.2234,0.1959,0.1479,0.3685,0.0523,0.0305,175
6,-1.0652,0.3122,0.1867,0.2922,-0.0555,0.0643,175
6,-1.0652,0.3122,0.1867,0.1972,-0.1406,0.1003,175
6,-1.0367,0.3683,0.202,0.0621,-0.2081,0.1209,175
6,-0.9459,0.3877,0.2479,-0.1384,-0.2747,0.1123,175
6,-0.9337,0.2255,0.2755,-0.3739,-0.2899,0.0719,175
6,-0.8653,0.1581,0.301,-0.5179,-0.2888,0.0337,175
6,-0.952,0.1642,0.249,-0.6388,-0.2703,-0.0425,175
6,-0.85,0.1204,0.2592,-0.6486,-0.2365,-0.049,175
6,-0.7979,0.0612,0.2275,-0.6737,-0.2071,-0.0446,175
6,-0.7683,-0.0051,0.2173,-0.6737,-0.2071,-0.0446,175
6,-0.7683,-0.0051,0.2173,-0.7653,-0.1776,-0.061,175
6,-0.749,-0.0765,0.202,-0.8307,-0.1526,-0.0719,175
6,-0.7469,-0.1285,0.1785,-0.834,-0.1167,-0.074,175
6,-0.7734,-0.15,0.1592,-0.7827,-0.085,-0.0555,175
6,-0.802,-0.1408,0.151,-0.6999,-0.0414,-0.0261,175
6,-0.8255,-0.1275,0.1398,-0.6476,0.0087,-0.0053,175
6,-0.8408,-0.1387,0.1082,-0.6411,0.0446,0.0131,175
6,-0.8591,-0.1316,0.0561,-0.6291,0.0784,0.0294,175
6,-0.8663,-0.1,0.0388,-0.5789,0.1003,0.049,175
6,-0.8694,-0.0684,0.0336,-0.5789,0.1003,0.049,175
6,-0.8694,-0.0684,0.0336,-0.5385,0.1089,0.0589,175
6,-0.8734,-0.0571,0.0102,-0.5341,0.1003,0.0599,175
6,-0.8846,-0.05,-0.0081,-0.5473,0.0818,0.049,175
6,-0.903,-0.0612,-0.0122,-0.5505,0.0545,0.0349,175
6,-0.9051,-0.0816,-0.0122,-0.5494,0.0261,0.0174,175
6,-0.9255,-0.0979,-0.0092,-0.5396,-0.0032,-0.0011,175
6,-0.9235,-0.1296,-0.0071,-0.5233,-0.036,-0.0206,175
6,-0.9387,-0.1714,-0.0092,-0.5276,-0.0698,-0.036,175
6,-0.9235,-0.199,-0.0153,-0.496,-0.1035,-0.0469,175
6,-0.9459,-0.2194,-0.0163,-0.4404,-0.1264,-0.0479,175
6,-0.9449,-0.2397,-0.0306,-0.4404,-0.1264,-0.0479,175
6,-0.9449,-0.2397,-0.0306,-0.375,-0.1602,-0.0326,175
6,-0.9469,-0.2142,-0.0357,-0.3073,-0.1787,-0.0131,175
6,-0.9296,-0.2224,-0.053,-0.2464,-0.2093,0.0087,175
6,-0.9612,-0.2092,-0.0561,-0.1907,-0.2234,0.0414,175
7,-0.954,-0.1581,-0.0438,-0.1198,-0.2474,0.0631,175
7,-0.9112,-0.1541,-0.0377,-0.1024,-0.2562,0.0828,175
7,-0.9275,-0.1602,-0.0388,-0.0969,-0.2594,0.0992,175
7,-0.9163,-0.151,-0.0408,-0.0686,-0.2485,0.1167,175
7,-0.9285,-0.1234,-0.0428,-0.0261,-0.2245,0.1352,175
7,-0.9163,-0.1285,-0.0367,-0.0261,-0.2245,0.1352,175
7,-0.9296,-0.1377,-0.0347,-0.0065,-0.2104,0.1482,175
7,-0.9296,-0.1377,-0.0347,0.0032,-0.1919,0.1591,175
7,-0.9285,-0.1398,-0.0245,0.024,-0.1787,0.1744,175
7,-0.9633,-0.15,0.0051,0.049,-0.1744,0.1831,175
7,-1.0234,-0.1735,0.0092,0.085,-0.1526,0.1896,175
7,-1.0234,-0.1735,0.0092,0.1264,-0.1329,0.193,175
7,-1.0347,-0.1837,0.0061,0.1678,-0.1013,0.1972,175
7,-1.051,-0.1765,-0.002,0.218,-0.0631,0.2104,175
7,-1.0541,-0.1173,-0.0031,0.2966,-0.0261,0.2344,175
7,-1.0367,-0.0469,0.001,0.3521,0.0097,0.2638,175
7,-1.0438,-0.053,0.0295,0.3314,0.0446,0.2768,175
7,-1.0806,-0.0612,0.0734,0.3073,0.0904,0.2878,175
7,-1.1489,-0.0449,0.1102,0.3073,0.0904,0.2878,175
7,-1.2602,-0.0234,0.1153,0.314,0.1396,0.3052,175
7,-1.2775,0.0143,0.1224,0.3193,0.1864,0.3248,175
7,-1.2775,0.0143,0.1224,0.3336,0.23,0.3477,175
7,-1.352,0.0836,0.153,0.3815,0.2649,0.3859,175
7,-1.2979,0.1377,0.2214,0.412,0.2605,0.4372,175
7,-1.3193,0.1163,0.1949,0.3281,0.2453,0.4044,175
7,-1.2979,0.1275,0.2051,0.2922,0.2049,0.3838,175
7,-1.2612,0.1744,0.2204,0.3434,0.1515,0.3445,175
7,-1.2255,0.1867,0.2336,0.3489,0.0806,0.2812,175
7,-1.1214,0.0643,0.2734,0.2834,-0.0021,0.181,175
7,-1.0887,0.0163,0.3122,0.2834,-0.0021,0.181,175
7,-1.0847,0.0,0.3204,0.231,-0.0818,0.0774,175
7,-1.0847,0.0,0.3204,0.3085,-0.1373,0.0065,175
7,-1.0693,0.0,0.3275,0.412,-0.1515,-0.0457,175
7,-1.0306,0.0806,0.3132,0.5211,-0.1329,-0.074,175
7,-0.999,0.1449,0.3091,0.5963,-0.0959,-0.098,175
7,-0.9673,0.1785,0.2806,0.5604,-0.0457,-0.098,175
7,-0.9337,0.1816,0.2347,0.4568,0.0065,-0.1155,175
7,-0.8846,0.1969,0.2224,0.399,0.0566,-0.1155,175
7,-0.8785,0.2163,0.2306,0.3794,0.098,-0.1068,175
7,-0.9,0.2194,0.2336,0.3794,0.098,-0.1068,175
7,-0.9,0.2194,0.2336,0.3292,0.1384,-0.1047,175
7,-0.9224,0.1796,0.1724,0.2758,0.1831,-0.1035,175
7,-0.9224,0.1796,0.1724,0.2365,0.2278,-0.1035,175
7,-0.9112,0.1744,0.1408,0.2289,0.2714,-0.1035,175
7,-0.903,0.1755,0.1194,0.2191,0.2976,-0.1057,175
7,-0.8806,0.1632,0.0959,0.193,0.3031,-0.1232,175
7,-0.8469,0.1132,0.0622,0.1602,0.3052,-0.1373,175
7,-0.8193,0.0939,0.0551,0.1471,0.2922,-0.1558,175
7,-0.802,0.0622,0.049,0.1482,0.2768,-0.1657,175
7,-0.7826,0.0326,0.0357,0.1558,0.2605,-0.1678,175
7,-0.7826,0.0326,0.0357,0.1558,0.2605,-0.1678,175
7,-0.7418,-0.0092,0.0183,0.1886,0.2442,-0.1623,175
7,-0.7265,-0.0204,0.0081,0.2245,0.231,-0.1515,175
7,-0.704,-0.0255,-0.004,0.2638,0.2104,-0.1318,175
7,-0.699,-0.0295,-0.0132,0.2976,0.1886,-0.1013,175
7,-0.7051,-0.0092,-0.0275,0.338,0.1722,-0.0686,175
7,-0.7296,0.0183,-0.0214,0.3783,0.1558,-0.036,175
7,-0.7388,0.0398,-0.0204,0.4,0.1362,-0.0076,175
7,-0.7592,0.0561,-0.0193,0.399,0.1188,0.0053,176
7,-0.7959,0.1041,-0.0295,0.4099,0.1035,0.0141,176
7,-0.8255,0.1296,-0.0388,0.4099,0.1035,0.0141,176
7,-0.8255,0.1296,-0.0388,0.424,0.0948,0.0032,176
7,-0.8479,0.1408,-0.0571,0.424,0.086,-0.0065,176
7,-0.8694,0.1653,-0.0684,0.4273,0.0675,-0.0228,176
7,-0.9306,0.2214,-0.0786,0.4328,0.0577,-0.0501,176
7,-0.954,0.2316,-0.0857,0.399,0.0392,-0.0839,176
7,-0.9877,0.2428,-0.102,0.3586,0.0316,-0.1188,176
7,-1.0224,0.2479,-0.1204,0.3193,0.0217,-0.157,176
7,-1.0377,0.2357,-0.1316,0.2768,0.012,-0.1951,176
7,-1.0428,0.2438,-0.1275,0.2562,-0.0043,-0.2191,176
7,-1.0418,0.2673,-0.1163,0.2562,-0.0043,-0.2191,176
7,-1.0796,0.2663,-0.0571,0.2518,-0.0402,-0.2453,176
7,-1.0796,0.2663,-0.0571,0.2234,-0.0643,-0.2583,176
7,-1.1245,0.3204,-0.0643,0.1635,-0.0763,-0.2737,176
7,-1.1102,0.3081,-0.0632,0.1297,-0.1079,-0.2779,176
7,-1.0867,0.3184,-0.0591,0.1035,-0.1079,-0.2768,176
7,-1.1082,0.3336,-0.0438,0.0457,-0.0751,-0.2507,176
7,-1.1387,0.3041,-0.0265,-0.0425,-0.036,-0.2321,176
7,-1.1571,0.2377,-0.0183,-0.1493,0.0131,-0.2365,176
7,-1.1877,0.1642,-0.0214,-0.2201,0.0708,-0.2495,176
7,-1.1489,0.0979,-0.0418,-0.2201,0.0708,-0.2495,176
7,-1.1541,0.0357,-0.0612,-0.2081,0.1177,-0.242,176
7,-1.1541,0.0357,-0.0612,-0.2039,0.1711,-0.2518,176
7,-1.1173,0.0163,-0.0398,-0.1951,0.2027,-0.255,176
7,-1.1816,0.0214,0.0051,-0.1482,0.2518,-0.2453,176
7,-1.2857,-0.0061,0.05,-0.1461,0.2998,-0.2333,176
7,-1.3306,-0.0214,0.0541,-0.1396,0.3445,-0.2093,176
7,-1.3418,-0.0245,0.049,-0.0904,0.3903,-0.1732,176
7,-1.3745,0.004,0.1041,-0.0392,0.4044,-0.1329,176
7,-1.454,-0.0663,0.152,-0.086,0.3804,-0.11,176
7,-1.4337,-0.1194,0.103,-0.086,0.3804,-0.11,176
7,-1.3755,-0.1061,0.0652,-0.1482,0.2943,-0.0872,176
7,-1.3193,-0.0153,0.0693,-0.0883,0.1766,-0.0349,176
7,-1.3193,-0.0153,0.0693,-0.0011,0.0326,0.0196,176
7,-1.2388,0.1346,0.1561,-0.0577,-0.1264,0.0589,176
7,-1.2397,0.1337,0.2194,-0.2409,-0.2594,0.0806,176
7,-1.2326,0.1153,0.2816,-0.424,-0.3422,0.1024,176
7,-1.202,0.1377,0.3377,-0.5255,-0.388,0.1264,176
7,-1.1541,0.1337,0.2571,-0.5908,-0.3695,0.1373,176
7,-1.0275,0.1214,0.2204,-0.6116,-0.3641,0.1613,176
7,-1.0163,0.0765,0.1796,-0.7239,-0.3019,0.1449,176
7,-0.9551,-0.052,0.1439,-0.7239,-0.3019,0.1449,176
7,-0.8653,-0.0684,0.2336,-0.7741,-0.2899,0.1286,176
7,-0.8653,-0.0684,0.2336,-0.7031,-0.2714,0.1286,176
7,-0.8908,-0.0786,0.1765,-0.809,-0.2256,0.1047,176
7,-0.8143,-0.1969,0.1622,-0.8439,-0.206,0.0196,176
7,-0.8041,-0.1928,0.1337,-0.8373,-0.1591,0.0457,176
7,-0.8224,-0.2632,0.0132,-0.7838,-0.073,0.0883,176
7,-0.7397,-0.201,0.0163,-0.5461,-0.037,0.0818,176
8,-0.7857,-0.1082,0.0163,-0.3565,-0.0021,0.1188,176
8,-0.7418,-0.0612,0.0245,-0.3532,0.0065,0.1493,176
8,-0.7418,-0.0612,0.0245,-0.3532,0.0065,0.1493,176
8,-0.7418,-0.0173,0.0122,-0.4099,0.024,0.1482,176
8,-0.7296,-0.0112,0.0031,-0.4426,0.025,0.1417,176
8,-0.754,0.0132,0.0092,-0.4164,0.0316,0.1396,176
8,-0.7938,0.0153,0.0031,-0.4143,0.025,0.1297,176
8,-0.7836,0.0357,0.0255,-0.4317,0.0043,0.1079,176
8,-0.8112,-0.0408,-0.0214,-0.5255,-0.0131,0.0631,176
8,-0.8408,-0.0663,-0.0071,-0.5265,-0.024,0.0479,176
8,-0.8908,-0.0612,-0.0081,-0.4643,-0.0479,0.037,176
8,-0.9132,-0.1255,-0.0224,-0.4992,-0.1057,-0.0065,176
8,-0.9255,-0.1622,-0.0295,-0.496,-0.1373,-0.0141,176
8,-0.9377,-0.1908,-0.0479,-0.4284,-0.1646,-0.0097,176
8,-0.9316,-0.1847,-0.053,-0.4284,-0.1646,-0.0097,176
8,-0.95,-0.1694,-0.0571,-0.339,-0.181,0.0043,176
8,-0.95,-0.1694,-0.0571,-0.2791,-0.2016,0.0185,176
8,-0.9244,-0.1653,-0.0632,-0.2594,-0.2245,0.0392,176
8,-0.9408,-0.1663,-0.0877,-0.2245,-0.2256,0.0589,176
8,-0.9347,-0.152,-0.0898,-0.1667,-0.2365,0.0894,176
8,-0.9642,-0.1306,-0.0898,-0.1188,-0.2365,0.1144,176
8,-0.951,-0.1234,-0.0775,-0.1013,-0.242,0.1318,176
8,-0.9897,-0.1234,-0.0673,-0.0925,-0.242,0.1406,176
8,-1.0081,-0.1224,-0.0541,-0.0925,-0.242,0.1406,176
8,-1.0357,-0.1285,-0.0541,-0.0774,-0.255,0.1482,176
8,-1.053,-0.1337,-0.0673,-0.0631,-0.2573,0.1482,176
8,-1.053,-0.1337,-0.0673,-0.049,-0.267,0.1438,176
8,-1.0673,-0.1153,-0.0867,-0.0141,-0.2638,0.1352,176
8,-1.0806,-0.0908,-0.0734,0.0349,-0.2539,0.1297,176
8,-1.0796,-0.0745,-0.0551,0.0511,-0.2474,0.1308,176
8,-1.101,-0.0734,-0.0245,0.024,-0.218,0.1329,176
8,-1.1255,-0.0561,0.0,0.0152,-0.1886,0.1526,176
8,-1.1306,-0.0438,0.0081,0.0196,-0.1461,0.1766,176
8,-1.1581,-0.0234,0.0183,-0.0065,-0.0915,0.1875,176
8,-1.1663,-0.0438,0.0612,-0.0065,-0.0915,0.1875,176
8,-1.1663,-0.0438,0.0612,-0.0294,-0.0402,0.206,176
8,-1.355,-0.0775,0.0928,0.0076,0.0185,0.2398,176
8,-1.355,-0.0775,0.0928,-0.0021,0.0523,0.2659,176
8,-1.3887,-0.0571,0.0652,0.025,0.0719,0.2768,176
8,-1.4163,-0.0193,0.0581,0.1177,0.0686,0.3019,176
8,-1.4337,0.0989,0.1826,0.181,0.0349,0.3161,176
8,-1.4367,0.1091,0.1928,0.1352,-0.0185,0.2987,176
8,-1.3887,0.1041,0.1928,0.0675,-0.0872,0.2682,176
8,-1.3459,0.1234,0.1949,0.0904,-0.1547,0.2268,176
8,-1.1837,0.1673,0.2081,0.0959,-0.231,0.1657,176
8,-1.0867,0.1163,0.2255,0.0959,-0.231,0.1657,176
8,-1.0867,0.1163,0.2255,0.0446,-0.3041,0.074,176
8,-1.0163,0.0714,0.2612,0.0545,-0.3641,-0.0097,176
8,-0.9581,0.0765,0.352,0.1047,-0.3946,-0.0795,176
8,-0.8887,0.0143,0.4173,0.0959,-0.387,-0.1406,176
8,-0.8673,-0.0081,0.3959,0.1373,-0.3586,-0.169,176
8,-0.8622,0.0234,0.3806,0.2638,-0.2856,-0.1798,176
8,-0.853,0.0724,0.3734,0.3565,-0.2027,-0.1776,176
8,-0.8653,0.1265,0.3041,0.3031,-0.1264,-0.1755,176
8,-0.855,0.105,0.25,0.206,-0.0631,-0.1766,176
8,-0.8673,0.102,0.2296,0.206,-0.0631,-0.1766,176
8,-0.8673,0.102,0.2296,0.2039,-0.0076,-0.1657,176
8,-0.9092,0.1561,0.2316,0.23,0.0381,-0.1547,176
8,-0.9275,0.1469,0.2224,0.1896,0.0818,-0.1515,176
8,-0.9428,0.1265,0.1918,0.1449,0.1133,-0.1537,176
8,-0.9357,0.1306,0.1612,0.1526,0.1461,-0.1558,176
8,-0.9316,0.1571,0.1234,0.1635,0.1732,-0.1646,176
8,-0.9203,0.1377,0.0959,0.1253,0.1635,-0.1831,176
8,-0.9214,0.0979,0.0602,0.0904,0.1438,-0.2049,176
8,-0.8949,0.0928,0.0469,0.1123,0.0925,-0.2201,176
8,-0.8591,0.0591,0.0469,0.1123,0.0925,-0.2201,176
8,-0.8204,0.0204,0.0551,0.1155,0.049,-0.2388,176
8,-0.8204,0.0204,0.0551,0.1035,0.0053,-0.2464,176
8,-0.801,-0.0051,0.0632,0.1198,-0.0261,-0.2485,176
8,-0.7612,-0.0234,0.0704,0.1515,-0.0446,-0.2409,176
8,-0.7092,-0.051,0.0816,0.181,-0.0545,-0.2256,176
8,-0.6959,-0.0632,0.0724,0.2093,-0.0457,-0.2115,176
8,-0.6785,-0.0643,0.0652,0.2605,-0.0402,-0.1875,176
8,-0.6663,-0.05,0.0591,0.3205,-0.0326,-0.1558,176
8,-0.6602,-0.0061,0.0541,0.3619,-0.0217,-0.1221,176
8,-0.6642,0.0051,0.0398,0.3619,-0.0217,-0.1221,176
8,-0.6785,0.0286,0.0408,0.3729,-0.0141,-0.098,176
8,-0.6785,0.0286,0.0408,0.399,-0.0011,-0.0806,176
8,-0.6918,0.0612,0.0428,0.4164,0.0152,-0.0686,176
8,-0.7316,0.1204,0.0469,0.4164,0.036,-0.074,176
8,-0.7622,0.1357,0.0428,0.3946,0.061,-0.0904,176
8,-0.7867,0.1337,0.0398,0.3609,0.0883,-0.1198,176
8,-0.8061,0.1683,0.051,0.3477,0.1177,-0.1482,176
8,-0.8683,0.1806,0.0449,0.3052,0.1461,-0.1896,176
8,-0.903,0.1949,0.0306,0.2888,0.1701,-0.2256,176
8,-0.9326,0.2428,0.0275,0.2888,0.1701,-0.2256,176
8,-0.952,0.2898,0.0428,0.2888,0.1864,-0.255,176
8,-0.9908,0.2765,0.0306,0.2234,0.1886,-0.2768,176
8,-0.9908,0.2765,0.0306,0.085,0.1798,-0.3052,176
8,-1.001,0.2418,0.0418,-0.0272,0.1515,-0.3248,176
8,-1.0326,0.2173,0.0551,-0.0795,0.1352,-0.3161,176
8,-1.053,0.1928,0.0265,-0.0925,0.1253,-0.2758,176
8,-1.0908,0.1796,-0.004,-0.0806,0.1167,-0.2213,176
8,-1.1122,0.1571,0.0132,-0.1144,0.1167,-0.1701,176
8,-1.1459,0.103,0.0398,-0.2224,0.1232,-0.1341,176
8,-1.1938,0.0092,0.0663,-0.2224,0.1232,-0.1341,176
8,-1.2847,-0.1224,0.0295,-0.3008,0.1341,-0.1144,176
8,-1.2898,-0.1255,-0.004,-0.2485,0.1646,-0.0894,176
8,-1.2898,-0.1255,-0.004,-0.1133,0.1875,-0.0654,176
8,-1.2786,-0.0734,-0.0153,0.0501,0.2104,-0.0326,176
8,-1.2592,0.0561,0.049,0.1024,0.231,-0.0272,176
8,-1.2561,0.0765,0.0959,0.037,0.255,-0.0469,176
8,-1.2857,0.0867,0.1214,0.0087,0.2867,-0.0469,176
8,-1.3173,0.1449,0.1337,0.037,0.3161,-0.0261,176
8,-1.4163,0.2051,0.2551,-0.0228,0.3368,-0.0294,176
8,-1.5275,0.103,0.2571,-0.1864,0.3466,-0.037,176
8,-1.5959,0.0061,0.2234,-0.1864,0.3466,-0.037,176
8,-1.5959,0.0061,0.2234,-0.3161,0.3085,-0.0326,176
8,-1.5867,-0.0612,0.1439,-0.2617,0.2365,0.0,176
8,-1.45,0.051,0.0857,-0.1602,0.1384,0.0402,176
8,-1.3265,0.1173,0.0939,-0.2005,-0.0053,0.0631,176
9,-1.1898,0.1479,0.1326,-0.3346,-0.1515,0.0818,176
9,-1.0979,0.1775,0.1847,-0.4568,-0.2573,0.1047,176
9,-0.9265,0.2296,0.2918,-0.5996,-0.3271,0.1198,176
9,-0.8949,0.2051,0.302,-0.7676,-0.3445,0.1308,176
9,-0.8602,0.1653,0.3081,-0.8613,-0.3281,0.1461,176
9,-0.7969,0.2112,0.3245,-0.8613,-0.3281,0.1461,176
9,-0.7969,0.2112,0.3245,-0.9321,-0.2812,0.1602,176
9,-0.7949,0.1132,0.2592,-1.0095,-0.1657,0.1438,176
9,-0.7888,0.0684,0.2459,-1.0553,-0.073,0.1308,176
9,-0.7877,0.0449,0.2316,-1.1207,-0.0053,0.1047,176
9,-0.8051,-0.2092,0.1346,-1.3029,0.0992,0.0282,176
9,-0.8479,-0.2531,0.0877,-1.2483,0.1471,0.025,176
9,-0.8489,-0.249,0.0581,-1.1121,0.181,0.0206,176
9,-0.8724,-0.2153,0.0286,-1.0074,0.1995,0.0545,176
9,-0.9051,-0.2571,-0.0357,-1.0248,0.2016,0.0566,176
9,-0.8683,-0.251,-0.0388,-0.9834,0.1787,0.0751,176
9,-0.9061,-0.2367,-0.0673,-0.8733,0.1667,0.1013,176
9,-0.8622,-0.1877,-0.0265,-0.8384,0.1079,0.1112,176
9,-0.855,-0.1969,-0.0286,-0.846,0.0795,0.0969,176
9,-0.8163,-0.1887,-0.0255,-0.846,0.0795,0.0969,176
9,-0.8469,-0.1337,-0.0122,-0.7861,0.0425,0.0959,176
9,-0.8469,-0.1337,-0.0122,-0.6803,0.0261,0.0969,176
9,-0.8387,-0.0979,-0.002,-0.6508,-0.0097,0.0925,176
9,-0.8714,-0.0591,0.0071,-0.6869,-0.0282,0.0763,176
9,-0.8673,-0.0643,0.0081,-0.738,-0.0555,0.0654,176
9,-0.8826,-0.1143,-0.0071,-0.7621,-0.0719,0.0381,176
9,-0.8704,-0.1337,-0.0193,-0.6791,-0.0839,0.0402,176
9,-0.9051,-0.0836,-0.0347,-0.5854,-0.0992,0.0425,176
9,-0.9153,-0.0786,-0.0459,-0.5833,-0.1188,0.0381,176
9,-0.9357,-0.101,-0.0673,-0.6148,-0.1493,0.0414,176
9,-0.9428,-0.1224,-0.0786,-0.6148,-0.1493,0.0414,176
9,-0.9918,-0.1377,-0.0816,-0.6018,-0.1732,0.0589,176
9,-0.9918,-0.1377,-0.0816,-0.5669,-0.193,0.0784,176
9,-1.0,-0.1479,-0.0867,-0.5429,-0.2016,0.0937,176
9,-1.0367,-0.1592,-0.1061,-0.508,-0.2093,0.1057,176
9,-1.0153,-0.1439,-0.1,-0.4797,-0.2365,0.1177,176
9,-1.0449,-0.152,-0.0867,-0.4513,-0.2268,0.1144,176
9,-1.0092,-0.1602,-0.0755,-0.4197,-0.2398,0.11,176
9,-1.0469,-0.1632,-0.0714,-0.3968,-0.23,0.1167,176
9,-1.0693,-0.1714,-0.0265,-0.3968,-0.23,0.1167,176
9,-1.0908,-0.1949,-0.0193,-0.4,-0.242,0.1308,176
9,-1.0969,-0.2163,-0.0275,-0.4164,-0.2474,0.1406,176
9,-1.0969,-0.2163,-0.0275,-0.4065,-0.2507,0.1482,176
9,-1.0979,-0.2112,-0.0377,-0.3434,-0.243,0.1667,176
9,-1.1224,-0.1653,0.002,-0.2583,-0.2159,0.181,176
9,-1.1367,-0.1602,0.0602,-0.218,-0.1875,0.1886,176
9,-1.1887,-0.1949,0.1296,-0.2245,-0.1318,0.1919,176
9,-1.2775,-0.2265,0.1592,-0.1776,-0.0631,0.206,176
9,-1.3643,-0.1561,0.102,-0.1123,-0.0065,0.2344,176
9,-1.4194,-0.0204,0.1857,0.0457,0.0469,0.2987,176
9,-1.4877,0.0092,0.2,0.0457,0.0469,0.2987,176
9,-1.5673,0.0398,0.2673,0.0643,0.0654,0.3073,176
9,-1.5673,0.0398,0.2673,-0.0282,0.0511,0.3031,176
9,-1.602,0.0112,0.1949,-0.0686,0.0065,0.3183,176
9,-1.4673,0.0806,0.0959,0.0228,-0.0589,0.3477,176
9,-1.355,0.2245,0.05,0.1875,-0.11,0.3434,177
9,-1.2367,0.355,0.0948,0.2147,-0.1886,0.2627,177
9,-1.0265,0.3326,0.1744,-0.0381,-0.242,0.1635,177
9,-0.8857,0.1439,0.2153,-0.3609,-0.3085,0.0053,177
9,-0.7969,-0.0693,0.2459,-0.3903,-0.3227,-0.1068,177
9,-0.7204,-0.0061,0.3428,-0.3903,-0.3227,-0.1068,177
9,-0.7204,-0.0061,0.3428,-0.2791,-0.2899,-0.1221,177
9,-0.6979,-0.1673,0.3846,-0.23,-0.2376,-0.1842,177
9,-0.6642,-0.2357,0.3612,-0.1396,-0.1842,-0.2518,177
9,-0.6816,-0.2265,0.3632,0.0185,-0.1089,-0.2485,177
9,-0.6683,-0.1837,0.3591,0.1112,-0.0162,-0.2245,177
9,-0.699,-0.2092,0.2724,0.1177,0.0784,-0.206,177
9,-0.7418,-0.2336,0.2122,0.218,0.1852,-0.1875,177
9,-0.7388,-0.1775,0.1979,0.4023,0.2605,-0.1471,177
9,-0.7592,-0.0939,0.2071,0.4753,0.3271,-0.1232,177
9,-0.8234,-0.0969,0.1959,0.4753,0.3271,-0.1232,177
9,-0.8234,-0.0969,0.1959,0.4426,0.375,-0.1112,177
9,-0.8949,-0.1132,0.1683,0.4698,0.4229,-0.0915,177
9,-0.9316,-0.0775,0.1581,0.544,0.4481,-0.0763,177
9,-0.9877,-0.049,0.1306,0.569,0.4568,-0.0872,177
9,-1.0398,-0.049,0.0704,0.581,0.4393,-0.1068,177
9,-1.0561,-0.0275,0.0347,0.6421,0.4012,-0.1274,177
9,-1.0561,0.001,0.0183,0.6955,0.351,-0.1428,177
9,-1.0408,0.0183,-0.002,0.714,0.2867,-0.1581,177
9,-0.9908,0.0469,-0.0286,0.7293,0.2245,-0.169,177
9,-0.954,0.0571,-0.0286,0.7424,0.1635,-0.1667,177
9,-0.9357,0.0714,-0.0357,0.7424,0.1635,-0.1667,177
9,-0.9357,0.0714,-0.0357,0.7609,0.1133,-0.1547,177
9,-0.9092,0.0969,-0.0173,0.7239,0.0719,-0.1493,177
9,-0.8653,0.053,0.002,0.6672,0.0435,-0.1493,177
9,-0.8377,0.0347,0.002,0.6835,0.0282,-0.1417,177
9,-0.8265,0.0459,0.0265,0.738,0.0228,-0.1286,177
9,-0.803,0.0745,0.0224,0.7588,0.0185,-0.1297,177
9,-0.801,0.0755,0.0102,0.7783,0.0272,-0.1297,177
9,-0.8152,0.1071,-0.0061,0.8439,0.036,-0.1089,177
9,-0.8316,0.1571,0.002,0.8754,0.0381,-0.0937,177
9,-0.8796,0.1867,-0.0092,0.8754,0.0381,-0.0937,177
9,-0.8857,0.1744,-0.0102,0.8199,0.0414,-0.1035,177
9,-0.8857,0.1744,-0.0102,0.7783,0.0337,-0.1362,177
9,-0.8908,0.1918,-0.0143,0.7806,0.037,-0.1515,177
9,-0.9,0.2336,-0.0132,0.7686,0.0446,-0.1297,177
9,-0.9306,0.2551,-0.0173,0.6999,0.0577,-0.1155,177
9,-0.9347,0.2643,-0.0183,0.6388,0.0566,-0.1068,177
9,-0.9316,0.2826,-0.0234,0.5843,0.049,-0.1068,177
9,-0.9255,0.303,-0.0163,0.5221,0.0469,-0.1112,177
9,-0.9337,0.3081,0.001,0.4622,0.0414,-0.1112,177
9,-0.9438,0.3367,0.0173,0.4622,0.0414,-0.1112,177
9,-0.953,0.353,0.0183,0.4132,0.0349,-0.0992,177
9,-0.953,0.353,0.0183,0.3281,0.0316,-0.1003,177
9,-0.95,0.3479,0.0234,0.2562,0.0392,-0.1396,177
9,-0.9235,0.3785,0.0418,0.2398,0.0599,-0.1732,177
9,-0.9398,0.4041,0.0704,0.1995,0.1024,-0.1766,177
9,-0.9836,0.4092,0.0684,0.0511,0.1613,-0.169,177
9,-1.0745,0.3541,0.0775,-0.1264,0.1995,-0.1864,177
10,-1.2071,0.1112,0.0663,-0.2627,0.23,-0.2049,177
10,-1.3173,0.0173,0.0684,-0.2954,0.2464,-0.1962,177
10,-1.4377,-0.0652,0.0388,-0.2954,0.2464,-0.1962,177
10,-1.5765,-0.1173,-0.0326,-0.2758,0.2409,-0.1875,177
10,-1.5765,-0.1173,-0.0326,-0.1558,0.1962,-0.1428,177
10,-1.6,-0.1163,0.0541,-0.1449,0.1471,-0.1461,177
10,-1.6469,-0.2438,0.0796,-0.2321,0.0828,-0.1515,177
10,-1.6735,-0.3204,0.05,-0.1722,0.0174,-0.1133,177
10,-1.6346,-0.3459,0.0806,0.025,-0.0774,-0.0872,177
10,-1.3602,-0.1714,0.0745,0.2365,-0.1167,-0.0217,177
10,-1.2326,0.0,0.103,0.3466,-0.1852,0.0457,177
10,-1.0459,0.2112,0.2194,0.1635,-0.2495,0.1112,177
10,-0.9071,0.3928,0.3612,-0.0131,-0.2888,0.1297,177
10,-0.9183,0.3561,0.3653,-0.2627,-0.267,0.1057,177
10,-0.8643,0.3612,0.3704,-0.2627,-0.267,0.1057,177
10,-0.8459,0.3091,0.3387,-0.4721,-0.2333,0.0806,177
10,-0.8459,0.3091,0.3387,-0.6301,-0.157,0.0402,177
10,-0.7898,0.2449,0.2888,-0.7283,-0.0719,-0.0108,177
10,-0.7755,0.2163,0.2724,-0.8144,0.0131,-0.0228,177
10,-0.7908,0.1622,0.2704,-0.9397,0.098,-0.061,177
10,-0.803,0.0438,0.249,-1.0816,0.1537,-0.0894,177
10,-0.8367,-0.204,0.1969,-1.173,0.1919,-0.11,177
10,-0.9,-0.2632,0.1755,-1.0717,0.2268,-0.0686,177
10,-0.9214,-0.2561,0.1622,-0.9147,0.2583,-0.0479,177
10,-0.9265,-0.299,0.1132,-0.797,0.3237,-0.0621,177
10,-0.9561,-0.2397,0.0245,-0.797,0.3237,-0.0621,177
10,-1.0398,-0.1367,0.0081,-0.5854,0.3085,-0.0076,177
10,-1.0398,-0.1367,0.0081,-0.5036,0.2888,0.0479,177
10,-1.0193,-0.103,-0.0061,-0.628,0.2278,0.0392,177
10,-1.0132,-0.1387,-0.0428,-0.701,0.1766,0.0305,177
10,-0.953,-0.152,-0.0479,-0.664,0.1155,0.0337,177
10,-0.9959,-0.1082,-0.0224,-0.6159,0.0534,0.0337,177
10,-0.9173,-0.0877,-0.0061,-0.653,-0.0011,-0.0065,177
10,-0.903,-0.1163,-0.0081,-0.6596,-0.0294,-0.036,177
10,-0.8622,-0.0959,0.001,-0.6596,-0.0294,-0.036,177
10,-0.8898,-0.0775,0.002,-0.6596,-0.0294,-0.036,177
10,-0.852,-0.0816,0.0031,-0.6181,-0.0599,-0.0545,177
10,-0.852,-0.0816,0.0031,-0.6236,-0.0818,-0.0708,177
10,-0.8582,-0.1326,-0.0102,-0.7184,-0.1297,-0.0915,177
10,-0.8326,-0.1398,-0.0061,-0.7205,-0.1591,-0.0774,177
10,-0.8489,-0.1459,-0.004,-0.7205,-0.1591,-0.0774,177
10,-0.8418,-0.1714,-0.0112,-0.7337,-0.1711,-0.0686,177
10,-0.855,-0.1949,-0.0377,-0.7424,-0.1864,-0.0555,177
10,-0.8275,-0.1703,-0.0357,-0.6846,-0.1831,-0.0326,177
10,-0.8193,-0.1796,-0.0632,-0.652,-0.1907,0.0043,177
10,-0.8377,-0.1765,-0.0765,-0.652,-0.1907,0.0043,177
10,-0.8398,-0.1561,-0.0939,-0.652,-0.1907,0.0043,177
10,-0.8398,-0.1561,-0.0939,-0.6106,-0.194,0.0272,177
10,-0.8224,-0.1571,-0.0959,-0.5625,-0.1875,0.0446,177
10,-0.8357,-0.1816,-0.0847,-0.5582,-0.1972,0.0545,177
10,-0.8643,-0.2234,-0.0765,-0.5679,-0.1907,0.0599,177
10,-0.8959,-0.2816,-0.0224,-0.5516,-0.2039,0.0654,177
10,-0.952,-0.3122,-0.0153,-0.5112,-0.2081,0.0828,177
10,-0.9561,-0.3377,-0.001,-0.4687,-0.206,0.0937,177
10,-0.9765,-0.3928,-0.0163,-0.4164,-0.2039,0.1089,177
10,-1.0122,-0.355,-0.0234,-0.4164,-0.2039,0.1089,177
10,-1.0122,-0.355,-0.0234,-0.3161,-0.1787,0.1417,177
10,-1.0561,-0.3184,-0.0204,-0.1766,-0.1515,0.206,177
10,-1.0796,-0.3112,-0.0153,-0.0948,-0.1079,0.2464,177
10,-1.1132,-0.3122,-0.0193,-0.0686,-0.0643,0.2747,177
10,-1.1622,-0.2877,-0.0591,-0.0185,-0.0282,0.3019,177
10,-1.1887,-0.252,-0.0745,0.0763,0.0032,0.3325,177
10,-1.2255,-0.2051,-0.0673,0.1766,0.0392,0.3706,177
10,-1.2847,-0.1612,-0.0388,0.2464,0.0589,0.4055,177
10,-1.3785,-0.1653,-0.0183,0.2453,0.0806,0.4263,177
10,-1.3898,-0.1632,-0.0163,0.2268,0.0937,0.4437,177
10,-1.3898,-0.1632,-0.0163,0.2268,0.0937,0.4437,177
10,-1.3826,-0.1306,-0.0132,0.2844,0.1047,0.4698,177
10,-1.3806,-0.0591,0.0275,0.4055,0.1167,0.4992,177
10,-1.4071,0.0204,0.1377,0.4742,0.1177,0.507,177
10,-1.3867,0.0051,0.1449,0.4284,0.0969,0.471,177
10,-1.355,0.004,0.1245,0.3804,0.0511,0.4099,177
10,-1.2826,0.0316,0.1132,0.4273,-0.0316,0.3489,177
10,-1.1173,0.0122,0.1602,0.4841,-0.1188,0.2737,177
10,-1.0704,-0.0286,0.2214,0.5112,-0.2213,0.1798,177
10,-1.0336,-0.0948,0.2551,0.5179,-0.3128,0.0872,177
10,-0.9765,-0.0632,0.3245,0.5179,-0.3128,0.0872,177
10,-0.9765,-0.0632,0.3245,0.5919,-0.3619,0.025,177
10,-0.9479,-0.0357,0.3387,0.6911,-0.3685,-0.0065,177
10,-0.9244,-0.0398,0.3143,0.7293,-0.3117,-0.036,177
10,-0.9041,-0.0306,0.3061,0.7195,-0.243,-0.0675,177
10,-0.8571,0.0071,0.252,0.7217,-0.1732,-0.0806,177
10,-0.851,0.0571,0.2326,0.7642,-0.0948,-0.0784,177
10,-0.8459,0.1622,0.2622,0.8548,-0.025,-0.0631,177
10,-0.8622,0.2408,0.3041,0.9212,0.025,-0.0337,177
10,-0.95,0.2388,0.254,0.7773,0.085,-0.0305,177
10,-0.9653,0.2469,0.2133,0.7773,0.085,-0.0305,177
10,-0.9642,0.2877,0.1775,0.5843,0.1373,-0.025,177
10,-0.9642,0.2877,0.1775,0.5112,0.1798,-0.0131,177
10,-0.9694,0.301,0.1265,0.4818,0.2201,-0.0162,177
10,-0.9592,0.2173,0.0122,0.3739,0.2365,-0.061,177
10,-0.9479,0.1857,0.0,0.2954,0.2333,-0.1024,177
10,-0.9203,0.1541,0.0,0.2409,0.1896,-0.1318,177
10,-0.902,0.0622,-0.0143,0.1623,0.1297,-0.1581,177
10,-0.8612,-0.0326,-0.0112,0.1352,0.0872,-0.1701,177
10,-0.8398,-0.0122,0.001,0.2245,0.0534,-0.1526,177
10,-0.8122,-0.0071,0.0132,0.2245,0.0534,-0.1526,177
10,-0.7959,-0.0224,0.0112,0.3117,0.0316,-0.1242,177
10,-0.7959,-0.0224,0.0112,0.3227,0.0032,-0.1047,177
10,-0.7499,-0.0336,0.0112,0.3161,-0.0174,-0.0828,177
10,-0.7428,0.001,0.0193,0.3565,-0.0261,-0.049,177
10,-0.7449,0.0398,0.0306,0.412,-0.0261,-0.0141,177
10,-0.7531,0.0765,0.0336,0.4338,-0.024,0.0076,177
10,-0.7745,0.1489,0.0541,0.4295,-0.0294,0.0261,177
10,-0.7938,0.1683,0.0571,0.4,-0.0217,0.0305,177
10,-0.8234,0.1724,0.0428,0.351,-0.0076,0.0261,177
10,-0.8387,0.1785,0.0347,0.351,-0.0076,0.0261,177
10,-0.901,0.1755,0.0112,0.2998,-0.0011,0.0206,177
10,-0.901,0.1755,0.0112,0.2495,0.0043,0.0196,177
10,-0.9306,0.1816,0.004,0.2115,-0.0021,0.0217,177
11,-0.949,0.1816,-0.0071,0.1623,-0.0108,0.0217,177
11,-0.9663,0.1806,-0.0183,0.1035,-0.0381,0.0228,177
11,-0.951,0.1489,-0.0367,0.0469,-0.061,0.0272,177
11,-0.9367,0.1306,-0.0418,-0.0065,-0.086,0.0261,177
11,-0.9061,0.1091,-0.0367,-0.0305,-0.1057,0.024,177
11,-0.8928,0.0857,-0.0275,-0.037,-0.1167,0.0196,177
11,-0.8898,0.0652,0.0112,-0.0272,-0.1232,0.0185,177
11,-0.9041,0.0612,0.0193,-0.0272,-0.1232,0.0185,177
11,-0.9214,0.0734,0.0092,-0.0053,-0.1003,0.0196,177
11,-0.9214,0.0734,0.0092,0.0272,-0.073,0.0381,177
11,-0.9265,0.0989,0.002,0.0763,-0.0337,0.0621,177
11,-1.0786,0.15,0.0193,0.0904,0.0545,0.085,177
11,-1.1959,0.1612,0.0367,0.1013,0.0959,0.086,177
11,-1.1959,0.1612,0.0367,0.1198,0.1352,0.086,177
11,-1.2571,0.1418,0.0163,0.0969,0.1581,0.0763,177
11,-1.2938,0.1408,0.002,0.0686,0.1635,0.061,177
11,-1.3051,0.151,-0.0173,0.0686,0.1602,0.0501,177
11,-1.2734,0.204,-0.0745,0.0818,0.1493,0.037,177
11,-1.2367,0.254,-0.0377,0.1047,0.1417,-0.0011,177
11,-1.2183,0.2898,0.0245,0.0969,0.1428,-0.0152,177
11,-1.2347,0.2938,0.0928,0.0043,0.1526,-0.0392,177
11,-1.2347,0.2938,0.0928,0.0043,0.1526,-0.0392,177
11,-1.2857,0.2653,0.1673,-0.1003,0.1744,-0.0664,177
11,-1.3122,0.2775,0.1928,-0.1318,0.2005,-0.061,177
11,-1.3734,0.254,0.2101,-0.1766,0.2409,-0.0501,177
11,-1.4326,0.1642,0.1969,-0.2987,0.2737,-0.0534,177
11,-1.4551,0.0071,0.1224,-0.3914,0.2573,-0.049,177
11,-1.4132,0.0092,0.0581,-0.3761,0.181,-0.0337,177
11,-1.3275,0.0734,0.0377,-0.2987,0.0839,-0.0053,177
11,-1.2469,0.1285,0.0612,-0.2856,-0.0337,0.0087,177
11,-1.0602,0.0939,0.1459,-0.3903,-0.1537,0.0076,177
11,-0.9653,0.153,0.2336,-0.3903,-0.1537,0.0076,177
11,-0.9653,0.153,0.2336,-0.4677,-0.2333,0.0152,177
11,-0.9051,0.1796,0.2928,-0.4938,-0.2878,0.0425,177
11,-0.8602,0.2377,0.3275,-0.5604,-0.2943,0.0698,177
11,-0.7877,0.1908,0.3204,-0.6934,-0.2649,0.0719,177
11,-0.7561,0.1653,0.3102,-0.8012,-0.1886,0.0577,177
11,-0.7347,0.1459,0.2888,-0.8514,-0.1112,0.0425,177
11,-0.7173,0.102,0.2602,-0.9179,-0.0261,0.012,177
11,-0.7204,-0.0357,0.1816,-0.9801,0.0631,-0.0326,177
11,-0.7245,-0.0745,0.1592,-0.978,0.1373,-0.0523,177
11,-0.7469,-0.103,0.1449,-0.978,0.1373,-0.0523,177
11,-0.7704,-0.1387,0.1183,-0.9267,0.1995,-0.061,177
11,-0.7704,-0.1387,0.1183,-0.8918,0.2507,-0.0698,177
11,-0.8275,-0.1898,0.0459,-0.8569,0.2844,-0.0719,177
11,-0.8643,-0.199,0.0163,-0.8012,0.3117,-0.0664,177
11,-0.8918,-0.1877,-0.0051,-0.7205,0.3193,-0.0392,177
11,-0.9122,-0.1887,-0.0224,-0.6596,0.3085,-0.0196,177
11,-0.9357,-0.1642,-0.0541,-0.5984,0.2856,0.0032,177
11,-0.9469,-0.1469,-0.0602,-0.5484,0.2464,0.012,177
11,-0.9449,-0.1346,-0.0652,-0.4862,0.2016,0.0053,177
11,-0.9673,-0.102,-0.0684,-0.4012,0.157,0.0011,177
11,-0.9601,-0.0347,-0.0316,-0.4012,0.157,0.0011,177
11,-0.9551,-0.0275,-0.0183,-0.3445,0.0915,-0.0141,177
11,-0.9551,-0.0275,-0.0183,-0.3554,0.0511,-0.0414,177
11,-0.9357,-0.0438,-0.0163,-0.3815,0.0097,-0.0643,177
11,-0.9428,-0.053,-0.0143,-0.3815,-0.012,-0.0828,177
11,-0.9092,-0.0173,-0.001,-0.3609,-0.0392,-0.085,177
11,-0.9622,-0.0622,-0.0255,-0.3958,-0.0501,-0.1068,177
11,-0.9203,-0.0765,-0.0234,-0.4065,-0.0469,-0.1133,177
11,-0.9622,-0.0673,-0.0316,-0.3685,-0.0589,-0.1089,177
11,-0.9561,-0.105,-0.0581,-0.3685,-0.0589,-0.1089,177
11,-0.999,-0.1316,-0.0826,-0.3685,-0.074,-0.1057,177
11,-0.951,-0.1408,-0.0847,-0.3935,-0.0959,-0.1035,177
11,-0.951,-0.1408,-0.0847,-0.363,-0.1133,-0.0883,177
11,-0.9653,-0.1132,-0.0847,-0.2954,-0.1198,-0.0589,177
11,-0.9775,-0.1275,-0.0979,-0.2812,-0.1373,-0.037,177
11,-0.9775,-0.1428,-0.1234,-0.2823,-0.1286,-0.025,177
11,-0.9581,-0.1194,-0.1214,-0.2278,-0.1396,-0.0032,177
11,-0.9581,-0.103,-0.1183,-0.1678,-0.1198,0.012,177
11,-0.9888,-0.1234,-0.1377,-0.1711,-0.1318,0.0108,177
11,-0.9694,-0.1428,-0.15,-0.1678,-0.1198,0.0108,177
11,-0.9816,-0.1408,-0.1326,-0.1678,-0.1198,0.0108,177
11,-1.0031,-0.1806,-0.0918,-0.1133,-0.1286,0.0185,177
11,-1.0031,-0.1806,-0.0918,-0.0839,-0.1308,0.0217,177
11,-1.0286,-0.2449,-0.0928,-0.1112,-0.1515,0.0152,177
11,-1.0347,-0.2888,-0.0989,-0.1003,-0.1493,0.0097,177
11,-1.0449,-0.303,-0.1071,0.0043,-0.1428,0.0196,177
11,-1.0418,-0.3152,-0.1326,0.1286,-0.1318,0.0316,177
11,-1.0316,-0.3439,-0.1439,0.1766,-0.1068,0.0425,177
11,-1.0469,-0.3122,-0.1449,0.3031,-0.0818,0.0708,177
11,-1.0551,-0.2622,-0.1265,0.4361,-0.0589,0.1209,177
11,-1.0561,-0.3041,-0.0786,0.4361,-0.0589,0.1209,177
11,-1.0561,-0.3041,-0.0786,0.4601,-0.0446,0.1635,177
11,-1.0959,-0.3275,-0.0153,0.4601,-0.0316,0.2191,177
11,-1.1826,-0.3173,0.0438,0.5789,0.0097,0.2779,177
11,-1.2336,-0.2704,0.0581,0.7228,0.049,0.3445,177
11,-1.3286,0.0153,0.1296,0.87,0.1013,0.4252,177
11,-1.3582,0.1173,0.1091,0.9572,0.1503,0.4971,177
11,-1.3224,0.1938,0.151,0.871,0.1537,0.5233,177
11,-1.2908,0.2296,0.1694,0.7609,0.1144,0.5255,177
11,-1.2531,0.3184,0.2081,0.6955,0.074,0.5026,177
11,-1.2224,0.2836,0.1908,0.6955,0.074,0.5026,177
11,-1.2224,0.2836,0.1908,0.6476,-0.012,0.4502,177
11,-1.1887,0.3071,0.2265,0.6159,-0.0894,0.3445,177
11,-1.1724,0.2571,0.2163,0.5549,-0.194,0.2224,177
11,-1.1581,0.0632,0.302,0.4731,-0.2823,0.0883,177
11,-1.201,0.0775,0.3387,0.508,-0.3412,0.0,177
11,-1.1857,0.1224,0.3724,0.6345,-0.3674,-0.0435,177
11,-1.1561,0.2449,0.4092,0.7293,-0.3542,-0.085,177
11,-1.0551,0.2938,0.3081,0.6606,-0.3216,-0.1438,177
11,-0.9785,0.2612,0.2316,0.5179,-0.2693,-0.2027,177
11,-0.8979,0.2051,0.1877,0.4426,-0.2234,-0.2388,177
11,-0.8663,0.2153,0.1612,0.4426,-0.2234,-0.2388,177
11,-0.8663,0.2153,0.1612,0.4633,-0.1831,-0.2583,177
11,-0.8643,0.2969,0.204,0.4884,-0.1526,-0.2573,177
11,-0.8898,0.303,0.2326,0.4252,-0.1068,-0.2474,177
11,-0.9275,0.2724,0.2397,0.3008,-0.061,-0.2278,177
11,-0.9194,0.2275,0.2204,0.1787,-0.0152,-0.2115,177
11,-0.8959,0.2224,0.1418,0.1341,0.0337,-0.193,177
12,-0.8826,0.2296,0.1041,0.1188,0.0686,-0.1896,177
12,-0.8745,0.2296,0.0673,0.0839,0.0839,-0.2005,177
12,-0.8622,0.1816,0.0193,0.0337,0.074,-0.2234,177
12,-0.8663,0.1296,-0.0061,0.0337,0.074,-0.2234,177
12,-0.8418,0.0857,-0.0031,-0.0108,0.0425,-0.2442,177
12,-0.8418,0.0857,-0.0031,-0.0686,-0.0021,-0.2758,177
12,-0.8316,0.0183,-0.0183,-0.085,-0.036,-0.2834,177
12,-0.7826,-0.0286,0.0,-0.0228,-0.0631,-0.2779,177
12,-0.7816,-0.0316,-0.002,0.0719,-0.0839,-0.2518,177
12,-0.7592,-0.0326,0.0163,0.1297,-0.098,-0.2321,177
12,-0.751,-0.0326,0.0143,0.1503,-0.1253,-0.2115,177
12,-0.7531,0.0326,0.0367,0.2278,-0.1362,-0.1428,177
12,-0.754,0.0643,0.05,0.2573,-0.1318,-0.1155,177
12,-0.7693,0.0989,0.052,0.2693,-0.1198,-0.098,177
12,-0.7775,0.1602,0.053,0.2627,-0.1079,-0.0894,177
12,-0.7775,0.1602,0.053,0.2627,-0.1079,-0.0894,177
12,-0.7765,0.1663,0.05,0.2354,-0.0925,-0.0969,177
12,-0.7928,0.1735,0.0326,0.194,-0.0795,-0.1167,177
12,-0.7949,0.1714,0.0234,0.1755,-0.0589,-0.1449,177
12,-0.8265,0.1806,0.0122,0.1667,-0.0337,-0.1711,177
12,-0.8398,0.1877,0.0051,0.1591,0.0021,-0.194,177
12,-0.8571,0.204,-0.001,0.157,0.0337,-0.218,177
12,-0.8602,0.204,-0.0102,0.1221,0.0589,-0.2398,177
12,-0.8724,0.1775,-0.0234,0.0664,0.085,-0.2573,177
12,-0.8908,0.1714,-0.0153,0.0326,0.0969,-0.2638,177
12,-0.9296,0.1683,0.0,0.0326,0.0969,-0.2638,177
12,-0.9296,0.1683,0.0,0.012,0.0992,-0.2562,177
12,-0.9826,0.1622,0.0153,-0.0217,0.1035,-0.2333,177
12,-1.0898,0.1479,0.0204,-0.049,0.0992,-0.1962,177
12,-1.1265,0.1847,0.0265,-0.0414,0.0992,-0.1482,177
12,-1.1387,0.2234,0.0459,-0.0282,0.1024,-0.0992,177
12,-1.1581,0.2142,0.0581,-0.0818,0.1123,-0.0915,177
12,-1.2183,0.0918,0.0245,-0.1503,0.1232,-0.1123,177
12,-1.2051,0.0734,0.0306,-0.1286,0.1493,-0.1221,177
12,-1.2183,0.0408,0.0051,-0.1003,0.1787,-0.1362,177
12,-1.2142,0.0214,0.0459,-0.1003,0.1787,-0.1362,177
12,-1.3428,-0.0449,0.0806,-0.0894,0.2093,-0.1635,177
12,-1.3428,-0.0449,0.0806,-0.0894,0.2539,-0.1919,177
12,-1.4061,-0.0408,0.0581,-0.0469,0.2899,-0.1984,177
12,-1.4173,0.0,0.0734,0.0457,0.3117,-0.1831,177
12,-1.449,0.0275,0.1112,0.0392,0.3216,-0.1875,177
12,-1.5316,-0.1143,0.2133,-0.0894,0.3052,-0.2125,177
12,-1.5684,-0.1806,0.1775,-0.1558,0.2649,-0.2201,177
12,-1.5316,-0.1969,0.1632,-0.0349,0.194,-0.1886,177
12,-1.453,-0.1541,0.1439,0.1047,0.1057,-0.1308,177
12,-1.2336,-0.0581,0.1,0.1286,-0.0065,-0.0751,177
12,-1.151,-0.0306,0.0959,0.1286,-0.0065,-0.0751,177
12,-1.0632,-0.0051,0.1326,0.061,-0.1167,-0.0217,177
12,-1.0632,-0.0051,0.1326,-0.0053,-0.1875,0.0402,177
12,-0.949,-0.0132,0.2367,-0.073,-0.2495,0.1112,177
12,-0.9387,-0.0112,0.2367,-0.2147,-0.2844,0.1286,177
12,-0.9071,-0.0214,0.2357,-0.267,-0.2823,0.1831,177
12,-0.85,0.053,0.2857,-0.2027,-0.2649,0.2169,177
12,-0.8326,0.0347,0.2663,-0.2245,-0.2071,0.2169,177
12,-0.8,0.0326,0.2459,-0.2791,-0.1428,0.1995,177
12,-0.7806,0.0388,0.2531,-0.2899,-0.0937,0.181,177
12,-0.7745,0.0143,0.2673,-0.2899,-0.0937,0.181,177
12,-0.8051,-0.1469,0.2122,-0.3336,-0.0469,0.1417,177
12,-0.8051,-0.1469,0.2122,-0.4197,0.0162,0.0925,177
12,-0.8234,-0.1387,0.2,-0.3717,0.0643,0.0839,177
12,-0.8632,-0.0622,0.2,-0.2256,0.1155,0.1144,177
12,-0.8918,-0.0214,0.1908,-0.2125,0.1711,0.1274,177
12,-0.949,-0.049,0.1122,-0.2966,0.2147,0.1318,177
12,-0.954,-0.0224,0.0979,-0.3172,0.2234,0.1449,177
12,-0.9673,0.002,0.0836,-0.3193,0.2268,0.1558,177
12,-0.9633,0.0092,0.0479,-0.3619,0.2093,0.1537,177
12,-0.9428,0.0071,0.0132,-0.3619,0.2093,0.1537,177
12,-0.952,0.0143,0.004,-0.4034,0.1766,0.1526,177
12,-0.952,0.0143,0.004,-0.4099,0.1264,0.1428,177
12,-0.9398,0.0265,0.0143,-0.4229,0.0818,0.1253,177
12,-0.9316,0.0255,0.0234,-0.4448,0.0381,0.1013,177
12,-0.9183,-0.001,0.0295,-0.4742,-0.0065,0.0795,177
12,-0.8969,0.0,0.0418,-0.4742,-0.0479,0.0555,177
12,-0.9092,-0.0143,0.0357,-0.4971,-0.0795,0.0337,177
12,-0.8857,-0.0316,0.0183,-0.4916,-0.1057,0.0152,177
12,-0.8918,-0.05,0.0092,-0.4841,-0.1297,-0.0065,177
12,-0.8989,-0.0928,-0.0071,-0.4841,-0.1297,-0.0065,177
12,-0.8989,-0.0928,-0.0071,-0.5004,-0.1537,-0.0261,177
12,-0.8949,-0.1275,-0.0204,-0.5102,-0.181,-0.036,177
12,-0.8898,-0.1541,-0.0357,-0.4786,-0.206,-0.0282,177
12,-0.8846,-0.1847,-0.0602,-0.4382,-0.2354,-0.0141,177
12,-0.8765,-0.2092,-0.0734,-0.4077,-0.2649,-0.0021,177
12,-0.853,-0.2377,-0.0877,-0.3609,-0.2823,0.0131,177
12,-0.8745,-0.2428,-0.0847,-0.2834,-0.2922,0.0457,177
12,-0.8439,-0.2724,-0.0643,-0.2485,-0.3216,0.074,177
12,-0.8653,-0.2673,-0.0316,-0.1798,-0.3019,0.1003,177
12,-0.8051,-0.2928,-0.0347,-0.1798,-0.3019,0.1003,177
12,-0.8051,-0.2928,-0.0347,-0.0959,-0.3085,0.1297,177
12,-0.8765,-0.2734,-0.0183,0.012,-0.2737,0.1635,177
12,-0.8796,-0.2347,0.0153,0.1112,-0.2605,0.194,177
12,-0.9051,-0.2122,0.004,0.1886,-0.2191,0.2071,177
12,-0.9173,-0.1908,0.0153,0.2234,-0.1864,0.2125,177
12,-0.9745,-0.1949,-0.0071,0.2714,-0.1297,0.2136,177
12,-1.0367,-0.1408,0.001,0.3532,-0.0774,0.2224,177
12,-1.0755,-0.1071,0.0357,0.4099,-0.0131,0.2344,177
12,-1.1071,-0.1091,0.0428,0.3935,0.0272,0.2365,177
12,-1.1744,-0.1132,0.0561,0.387,0.0654,0.2507,177
12,-1.2194,-0.0908,0.0918,0.387,0.0654,0.2507,177
12,-1.2194,-0.0908,0.0918,0.4197,0.1112,0.2791,177
12,-1.3224,-0.0551,0.1153,0.4481,0.1526,0.3117,177
12,-1.4102,-0.0408,0.0836,0.4252,0.1711,0.3422,177
12,-1.4306,0.0541,0.0428,0.4568,0.1646,0.4109,177
12,-1.4061,0.1316,0.1469,0.5484,0.1417,0.4643,177
12,-1.5061,0.1418,0.2296,0.4807,0.1286,0.4568,177
12,-1.5428,0.0857,0.2551,0.3597,0.0719,0.4229,177
12,-1.5581,0.0989,0.1887,0.3434,0.025,0.3958,177
12,-1.4622,0.1755,0.1653,0.4382,-0.0414,0.3586,177
12,-1.3439,0.2704,0.153,0.4382,-0.0414,0.3586,177
12,-1.1847,0.2908,0.1796,0.5473,-0.1209,0.3063,177
12,-1.1847,0.2908,0.1796,0.5047,-0.2278,0.2213,177
13,-1.004,0.1194,0.2245,0.3205,-0.3172,0.0969,177
13,-0.8643,-0.0367,0.2622,0.1886,-0.3935,-0.0305,177
13,-0.8173,-0.1326,0.2806,0.2485,-0.4088,-0.0948,177
13,-0.801,-0.1337,0.3071,0.4317,-0.3729,-0.0883,177
13,-0.7479,-0.1143,0.299,0.5778,-0.3128,-0.1274,177
13,-0.7285,-0.0847,0.2877,0.652,-0.2224,-0.1482,177
13,-0.7173,-0.0561,0.251,0.689,-0.1602,-0.1384,177
13,-0.7183,-0.0224,0.2326,0.689,-0.1602,-0.1384,177
13,-0.7602,0.0316,0.2316,0.701,-0.0894,-0.1274,177
13,-0.7602,0.0316,0.2316,0.7392,-0.0043,-0.1133,177
13,-0.7806,0.0877,0.2561,0.7947,0.061,-0.085,177
13,-0.8816,0.1367,0.2347,0.7554,0.181,-0.0501,177
13,-0.9704,0.1826,0.1622,0.7522,0.2268,-0.037,177
13,-1.001,0.2296,0.1326,0.7621,0.2442,-0.0217,177
13,-1.0173,0.2602,0.0979,0.7283,0.242,-0.0272,177
13,-1.0173,0.2643,0.0724,0.6574,0.206,-0.0457,177
13,-1.002,0.2306,0.0204,0.5898,0.1602,-0.0708,177
13,-0.9847,0.1877,0.0173,0.5669,0.1047,-0.0894,177
13,-0.9449,0.1724,0.0367,0.5429,0.0425,-0.1167,177
13,-0.9132,0.1255,0.0153,0.5429,0.0425,-0.1167,177
13,-0.9132,0.1255,0.0153,0.5179,-0.0032,-0.1449,177
13,-0.8428,0.0438,0.0428,0.5484,-0.0228,-0.1537,177
13,-0.8122,0.0357,0.053,0.5984,-0.0402,-0.1515,177
13,-0.7724,0.0193,0.0602,0.6333,-0.0425,-0.1547,177
13,-0.7632,0.004,0.0418,0.6715,-0.037,-0.1461,177
13,-0.7418,0.0357,0.0295,0.738,-0.0261,-0.1297,177
13,-0.752,0.0673,0.0306,0.8046,-0.0174,-0.1079,177
13,-0.7612,0.1,0.0234,0.8471,-0.0076,-0.0992,177
13,-0.7918,0.1449,0.0265,0.8689,0.0032,-0.0937,177
13,-0.8326,0.1898,0.0265,0.8689,0.0032,-0.0937,177
13,-0.8643,0.2101,0.0163,0.8493,0.0053,-0.098,177
13,-0.8643,0.2101,0.0163,0.8155,0.012,-0.1057,177
13,-0.8826,0.2214,0.0183,0.7882,0.0011,-0.1144,177
13,-0.8989,0.2336,0.0092,0.7544,-0.0087,-0.1274,177
13,-0.9326,0.2551,-0.0102,0.7348,-0.0217,-0.1362,177
13,-0.9438,0.2755,-0.0122,0.7205,-0.036,-0.1438,177
13,-0.95,0.2898,-0.0122,0.6759,-0.0511,-0.1602,177
13,-0.952,0.2898,-0.0143,0.6116,-0.0686,-0.181,177
13,-0.9428,0.2877,-0.0143,0.5505,-0.0818,-0.2005,177
13,-0.9316,0.2918,-0.0061,0.5059,-0.0925,-0.2169,177
13,-0.9244,0.2898,0.0071,0.5059,-0.0925,-0.2169,177
13,-0.9428,0.2734,0.0551,0.4524,-0.098,-0.2268,177
13,-0.9428,0.2734,0.0551,0.4023,-0.098,-0.231,177
13,-0.9745,0.2653,0.0643,0.3554,-0.0839,-0.2224,177
13,-1.004,0.2867,0.0663,0.3368,-0.0643,-0.1995,177
13,-1.0214,0.3071,0.0632,0.3063,-0.0261,-0.169,177
13,-1.0612,0.3316,0.0632,0.2409,0.0185,-0.1503,177
13,-1.0908,0.3122,0.0581,0.1493,0.0534,-0.1526,177
13,-1.1224,0.2632,0.05,0.0555,0.085,-0.1722,177
13,-1.152,0.2071,0.0316,-0.0011,0.1274,-0.1962,177
13,-1.1837,0.1285,0.0071,-0.0011,0.1274,-0.1962,177
13,-1.2112,0.1173,0.0347,-0.0065,0.1526,-0.2191,177
13,-1.2112,0.1173,0.0347,0.0021,0.1787,-0.2354,177
13,-1.2531,0.0826,0.0571,-0.0152,0.1984,-0.2573,177
13,-1.2959,0.0428,0.0684,-0.0196,0.2169,-0.2529,177
13,-1.4153,0.0898,0.1082,0.0305,0.231,-0.2191,177
13,-1.449,0.1173,0.1735,0.0414,0.23,-0.193,177
13,-1.5122,0.0836,0.2326,-0.0589,0.2213,-0.182,177
13,-1.5479,0.004,0.2326,-0.1461,0.1798,-0.1732,177
13,-1.4796,-0.0265,0.1959,-0.0992,0.1123,-0.1297,177
13,-1.4041,0.0602,0.1928,-0.0992,0.1123,-0.1297,177
13,-1.3061,0.1622,0.1928,0.0076,0.0206,-0.0719,177
13,-1.3061,0.1622,0.1928,0.0152,-0.0915,-0.0272,177
13,-1.2204,0.2347,0.2092,-0.1406,-0.2049,-0.0032,177
13,-1.0591,0.2296,0.2408,-0.3422,-0.2758,0.0065,177
13,-1.0061,0.2459,0.2653,-0.4666,-0.3151,0.0272,177
13,-0.9438,0.2663,0.2888,-0.569,-0.3216,0.0316,177
13,-0.9102,0.2388,0.2877,-0.7174,-0.3019,0.0282,177
13,-0.8439,0.1346,0.2857,-0.7991,-0.2725,0.025,177
13,-0.7908,0.102,0.3132,-0.8471,-0.2453,-0.0011,177
13,-0.7847,0.0602,0.2847,-0.8471,-0.2453,-0.0011,177
13,-0.7847,0.0602,0.2847,-0.8907,-0.1864,-0.0261,177
13,-0.7704,0.0765,0.2918,-0.871,-0.1318,0.0011,177
13,-0.7663,0.0081,0.2857,-0.9202,-0.0599,-0.024,177
13,-0.749,-0.0693,0.2622,-1.0139,-0.0076,-0.036,177
13,-0.7745,-0.1469,0.2234,-1.0423,0.0523,-0.049,177
13,-0.7816,-0.1877,0.1714,-0.9616,0.11,-0.0326,177
13,-0.8448,-0.1132,0.1183,-0.8067,0.1831,0.0065,177
13,-0.8734,-0.0724,0.0969,-0.7566,0.2191,0.036,177
13,-0.8857,-0.0724,0.0622,-0.8319,0.2321,0.0381,177
13,-0.8857,-0.0857,0.0479,-0.8787,0.2224,0.0337,177
13,-0.8857,-0.0857,0.0479,-0.8787,0.2224,0.0337,177
13,-0.8846,-0.0928,-0.0031,-0.8548,0.2115,0.0305,177
13,-0.8949,-0.0388,0.0031,-0.7686,0.1886,0.0402,177
13,-0.8908,-0.0102,0.0,-0.785,0.157,0.0217,177
13,-0.8877,-0.0316,-0.0102,-0.8449,0.1177,-0.0108,177
13,-0.8877,-0.0939,-0.0255,-0.8634,0.0915,-0.0337,177
13,-0.8724,-0.0877,-0.0071,-0.8307,0.0577,-0.0402,177
13,-0.8755,-0.1122,-0.0143,-0.8427,0.0316,-0.0523,177
13,-0.8663,-0.1796,-0.0183,-0.8384,0.0076,-0.0577,177
13,-0.8837,-0.1969,-0.0102,-0.7981,-0.0032,-0.0589,177
13,-0.8775,-0.2092,-0.0102,-0.7981,-0.0032,-0.0589,177
13,-0.8775,-0.2092,-0.0102,-0.7489,-0.0196,-0.0566,177
13,-0.8918,-0.2255,-0.0255,-0.6749,-0.0316,-0.0457,177
13,-0.9132,-0.1887,-0.0336,-0.6171,-0.0545,-0.0228,177
13,-0.9428,-0.2388,-0.051,-0.6476,-0.0719,-0.0032,177
13,-0.9357,-0.2898,-0.0836,-0.6236,-0.1089,0.0174,177
13,-0.9612,-0.2775,-0.0806,-0.5221,-0.1384,0.0654,177
13,-0.9765,-0.25,-0.0826,-0.4546,-0.1613,0.1047,177
13,-0.9724,-0.2571,-0.0847,-0.4317,-0.1744,0.1352,177
13,-0.9663,-0.2693,-0.0908,-0.3979,-0.194,0.1678,177
13,-0.9561,-0.2663,-0.0806,-0.3979,-0.194,0.1678,177
13,-0.954,-0.2561,-0.0622,-0.3412,-0.2093,0.1972,177
13,-0.954,-0.2561,-0.0622,-0.2649,-0.2005,0.2169,177
13,-0.9449,-0.249,-0.053,-0.1919,-0.2027,0.2354,177
13,-0.9765,-0.2459,-0.0295,-0.1384,-0.1886,0.243,177
13,-0.9816,-0.2459,-0.0295,-0.0969,-0.1831,0.2409,177
13,-1.0398,-0.2326,-0.0388,-0.0469,-0.1678,0.2365,177
13,-1.0581,-0.2326,-0.0449,0.0076,-0.157,0.2388,177
13,-1.1041,-0.2142,-0.0336,0.074,-0.1308,0.242,177
14,-1.1163,-0.203,-0.0265,0.1188,-0.1188,0.2495,177
14,-1.1581,-0.1724,-0.0408,0.1188,-0.1188,0.2495,177
14,-1.1847,-0.1377,-0.05,0.1646,-0.0904,0.2714,177
14,-1.1847,-0.1377,-0.05,0.2365,-0.061,0.2987,177
14,-1.1979,-0.0948,-0.049,0.2976,-0.037,0.3314,177
14,-1.2163,-0.0561,-0.0204,0.314,-0.0097,0.363,177
14,-1.2938,-0.0173,0.0755,0.2659,0.0108,0.3924,177
14,-1.3408,-0.0051,0.101,0.2191,0.0282,0.4099,177
14,-1.3989,0.0214,0.0948,0.2224,0.0381,0.4284,177
14,-1.4173,0.1122,0.1061,0.2518,0.0446,0.4568,177
14,-1.4285,0.2306,0.1581,0.2213,0.0479,0.4492,177
14,-1.4092,0.1877,0.1612,-0.0174,-0.0185,0.3489,177
14,-1.3765,0.1398,0.1275,-0.024,-0.0872,0.2878,177
14,-1.2142,0.1703,0.2163,-0.024,-0.0872,0.2878,177
14,-1.2142,0.1703,0.2163,-0.0228,-0.1461,0.2125,177
14,-1.1316,0.0847,0.2133,-0.1068,-0.2147,0.1209,177
14,-1.0183,-0.049,0.2265,-0.1547,-0.2758,0.0414,177
14,-0.9418,-0.1357,0.2306,-0.0469,-0.314,0.0032,177
14,-0.8234,-0.1541,0.3357,0.11,-0.3183,0.012,177
14,-0.8081,-0.1418,0.352,0.193,-0.3031,0.0,177
14,-0.7704,-0.1622,0.3357,0.2747,-0.2682,-0.0337,177
14,-0.7622,-0.1132,0.3245,0.4492,-0.1951,0.0032,177
14,-0.7755,0.105,0.3632,0.5287,-0.1112,0.0282,177
14,-0.8051,0.152,0.3479,0.4589,-0.036,0.0305,177
14,-0.803,0.1653,0.3357,0.4589,-0.036,0.0305,177
14,-0.803,0.1653,0.3357,0.3663,0.0381,0.025,177
14,-0.8734,0.2081,0.2959,0.3205,0.1024,0.025,177
14,-0.9,0.2479,0.2786,0.3031,0.1503,0.0206,177
14,-0.9469,0.2826,0.249,0.2485,0.1886,0.0053,177
14,-0.9765,0.2908,0.2183,0.1776,0.218,-0.0206,177
14,-1.004,0.3051,0.1541,0.1253,0.2376,-0.049,177
14,-0.9949,0.3,0.1285,0.0643,0.231,-0.0795,177
14,-0.9888,0.302,0.1285,-0.0337,0.206,-0.1167,177
14,-0.9561,0.2397,0.1112,-0.1558,0.1766,-0.1558,177
14,-0.9,0.1224,0.0816,-0.1558,0.1766,-0.1558,177
14,-0.8653,0.0734,0.0724,-0.1667,0.1417,-0.1701,177
14,-0.8653,0.0734,0.0724,-0.1188,0.11,-0.1744,177
14,-0.8448,0.0612,0.0786,-0.1068,0.086,-0.1635,177
14,-0.7969,0.0122,0.0724,-0.1112,0.0719,-0.1558,177
14,-0.7571,-0.0551,0.0367,-0.085,0.073,-0.1417,177
14,-0.7296,-0.0622,0.0295,-0.0152,0.0708,-0.1112,177
14,-0.7234,-0.0571,0.0193,0.0589,0.0631,-0.0784,177
14,-0.7214,-0.049,0.0173,0.0992,0.0577,-0.0501,177
14,-0.7183,-0.0377,0.0061,0.1384,0.0523,-0.0294,177
14,-0.7326,-0.0163,0.0081,0.1384,0.0523,-0.0294,177
14,-0.7438,0.0051,0.0204,0.194,0.0414,-0.0065,177
14,-0.7438,0.0051,0.0204,0.2354,0.0381,0.0053,177
14,-0.7612,0.0275,0.0224,0.2573,0.0272,0.0032,177
14,-0.8081,0.0684,0.0214,0.2737,0.0282,-0.0065,177
14,-0.8275,0.0816,0.0132,0.2802,0.0272,-0.0217,177
14,-0.85,0.102,0.0112,0.2856,0.0272,-0.0414,177
14,-0.8734,0.1173,0.004,0.2812,0.0196,-0.061,177
14,-0.9224,0.1439,0.0,0.2834,0.0196,-0.0839,177
14,-0.9398,0.1612,0.002,0.2802,0.012,-0.1089,177
14,-0.9633,0.1744,0.0061,0.2802,0.012,-0.1089,177
14,-0.9826,0.1775,-0.0031,0.2507,0.0108,-0.1341,177
14,-0.9826,0.1775,-0.0031,0.2289,0.0097,-0.1515,177
14,-0.9857,0.2255,-0.001,0.23,0.0,-0.1635,176
14,-0.9755,0.249,0.0031,0.1962,-0.0131,-0.1798,176
14,-0.9714,0.2571,0.0153,0.1242,-0.0272,-0.193,176
14,-0.9765,0.2397,0.0295,0.0425,-0.0381,-0.1984,176
14,-0.999,0.1979,0.0265,0.0011,-0.0349,-0.1886,176
14,-1.0092,0.1979,0.0377,-0.0053,-0.0032,-0.1635,176
14,-1.0163,0.1959,0.0428,-0.0414,0.0305,-0.1396,176
14,-1.0336,0.1744,0.0602,-0.0414,0.0305,-0.1396,176
14,-1.0336,0.1744,0.0602,-0.1123,0.0719,-0.1274,176
14,-1.1622,0.0061,0.0612,-0.1646,0.1308,-0.1167,176
14,-1.1622,0.0061,0.0612,-0.1515,0.1896,-0.1123,176
14,-1.204,-0.0286,0.0295,-0.073,0.2529,-0.1221,176
14,-1.2438,-0.0357,0.0102,0.0206,0.3008,-0.1297,176
14,-1.3989,0.0031,0.0684,0.0621,0.3302,-0.1362,176
14,-1.4806,0.0183,0.0663,0.0511,0.3368,-0.1341,176
14,-1.5286,0.052,0.0469,0.0555,0.3325,-0.1253,176
14,-1.5786,0.1153,0.1683,0.0381,0.3063,-0.1286,176
14,-1.6663,0.0704,0.2469,-0.0654,0.2693,-0.1547,176
14,-1.7347,-0.0071,0.2347,-0.0654,0.2693,-0.1547,176
14,-1.7347,-0.0071,0.2347,-0.157,0.2049,-0.1646,176
14,-1.7438,-0.0479,0.2,-0.1144,0.1057,-0.1417,176
14,-1.4836,0.0571,0.1163,-0.0011,-0.025,-0.0904,176
14,-1.3398,0.1744,0.1061,-0.0043,-0.1602,-0.0566,176
14,-1.1408,0.2296,0.1183,-0.1362,-0.2758,-0.0479,176
14,-1.0122,0.2612,0.152,-0.2911,-0.3271,-0.0326,176
14,-0.8489,0.3102,0.2795,-0.3979,-0.3412,-0.012,176
14,-0.7632,0.3418,0.3286,-0.5331,-0.3532,-0.025,176
14,-0.6592,0.3193,0.3632,-0.6879,-0.3052,-0.025,176
14,-0.6887,0.3112,0.3755,-0.6879,-0.3052,-0.025,176
14,-0.6887,0.3112,0.3755,-0.8078,-0.2256,0.0152,176
14,-0.6346,0.2765,0.3714,-0.8907,-0.1581,0.0162,176
14,-0.6398,0.2867,0.3398,-0.9561,-0.0675,0.012,176
14,-0.6337,0.2898,0.3275,-1.0597,0.0206,-0.0097,176
14,-0.6479,0.2388,0.3102,-1.2516,0.1112,-0.0698,176
14,-0.6877,0.0,0.2388,-1.4271,0.1896,-0.1264,176
14,-0.7163,-0.0775,0.2234,-1.4631,0.2518,-0.1493,176
14,-0.7571,-0.1694,0.1653,-1.3857,0.3151,-0.1503,176
14,-0.8184,-0.1938,0.1469,-1.2472,0.363,-0.1471,176
14,-0.9203,-0.2133,0.0867,-1.2472,0.363,-0.1471,176
14,-0.9551,-0.2245,0.053,-1.1339,0.4055,-0.1242,176
14,-0.9551,-0.2245,0.053,-1.0869,0.4153,-0.1035,176
14,-0.9897,-0.2204,0.0143,-1.0467,0.4044,-0.0751,176
14,-0.9918,-0.2122,-0.0081,-1.0084,0.3838,-0.0457,176
14,-0.9928,-0.1744,-0.0449,-0.9954,0.3216,-0.0196,176
14,-1.0326,-0.1653,-0.0612,-0.9855,0.2802,-0.0087,176
14,-1.004,-0.1581,-0.0745,-0.9507,0.2071,0.0021,176
14,-1.0092,-0.1357,-0.0724,-0.9059,0.1493,0.0087,176
14,-0.9673,-0.0898,-0.0643,-0.9059,0.1493,0.0087,176
14,-0.9683,-0.0989,-0.0643,-0.9059,0.1493,0.0087,176
14,-0.9203,-0.1234,-0.0591,-0.9147,0.0698,0.0043,176
14,-0.9203,-0.1234,-0.0591,-0.9572,0.0152,-0.0053,176
14,-0.9194,-0.1398,-0.0408,-0.9473,-0.0621,-0.0185,176
14,-0.8857,-0.1724,-0.0102,-0.9507,-0.085,-0.0261,176
15,-0.8775,-0.2061,-0.0173,-0.9507,-0.085,-0.0261,176
15,-0.8602,-0.2316,-0.0245,-0.9528,-0.1013,-0.0272,176
15,-0.8683,-0.2418,-0.0234,-0.9114,-0.1024,-0.0097,176
15,-0.8673,-0.25,-0.0551,-0.8613,-0.1013,0.0162,176
15,-0.8571,-0.2397,-0.0612,-0.7838,-0.1057,0.074,176
15,-0.853,-0.2479,-0.0786,-0.7838,-0.1057,0.074,176
15,-0.8602,-0.2622,-0.0877,-0.7838,-0.1057,0.074,176
15,-0.8704,-0.2551,-0.0765,-0.7544,-0.0904,0.1133,176
15,-0.8704,-0.2551,-0.0765,-0.6934,-0.0784,0.1547,176
15,-0.8898,-0.2734,-0.0836,-0.6606,-0.0698,0.1896,176
15,-0.8857,-0.2857,-0.0826,-0.5614,-0.0316,0.242,176
15,-0.9724,-0.2765,-0.0755,-0.4807,-0.024,0.2693,176
15,-1.0122,-0.2928,-0.0745,-0.4273,-0.0206,0.2725,176
15,-1.0245,-0.2928,-0.0643,-0.4055,-0.0349,0.2638,176
15,-1.1153,-0.3132,-0.103,-0.363,-0.0469,0.2539,176
15,-1.1091,-0.3122,-0.1112,-0.3205,-0.0675,0.2365,176
15,-1.1469,-0.3041,-0.1163,-0.2398,-0.0904,0.2201,176
15,-1.1561,-0.2857,-0.1091,-0.1406,-0.0894,0.2159,176
15,-1.1785,-0.1826,-0.0398,-0.1406,-0.0894,0.2159,176
15,-1.1785,-0.1826,-0.0398,-0.0589,-0.0992,0.2289,176
15,-1.1592,-0.1296,0.0183,0.0381,-0.0948,0.2682,176
15,-1.2306,-0.0836,0.0847,0.074,-0.086,0.314,176
15,-1.2724,-0.0571,0.1082,0.0402,-0.0349,0.3422,176
15,-1.3377,0.0357,0.0724,-0.0097,0.0097,0.3729,176
15,-1.3806,0.053,0.0684,-0.036,0.0501,0.4197,176
15,-1.3806,0.0969,0.1337,-0.0349,0.0784,0.4622,176
15,-1.4775,0.1183,0.1479,-0.0228,0.085,0.4426,176
15,-1.4969,0.1082,0.1296,-0.0392,0.0577,0.4219,176
15,-1.4918,0.1122,0.1163,-0.0392,0.0577,0.4219,176
15,-1.4459,0.0928,0.0939,-0.1035,0.024,0.3685,176
15,-1.4459,0.0928,0.0939,-0.1035,-0.024,0.2856,176
15,-1.3928,0.0714,0.0796,-0.0959,-0.098,0.1995,176
15,-1.199,-0.0388,0.0908,-0.1047,-0.1875,0.1112,176
15,-1.1091,-0.1082,0.1449,-0.1144,-0.2779,0.025,176
15,-1.0388,-0.1816,0.1979,-0.1013,-0.3542,-0.0479,176
15,-0.9785,-0.2316,0.2377,-0.0294,-0.4109,-0.1003,176
15,-0.903,-0.15,0.2877,0.1318,-0.4349,-0.1068,176
15,-0.8632,-0.0979,0.2867,0.2802,-0.4109,-0.0937,176
15,-0.8163,-0.0847,0.3091,0.2802,-0.4109,-0.0937,176
15,-0.8143,-0.0061,0.2969,0.3826,-0.3597,-0.0751,176
15,-0.8143,-0.0061,0.2969,0.4841,-0.2976,-0.0708,176
15,-0.7724,0.1275,0.2928,0.5255,-0.2365,-0.0392,176
15,-0.7938,0.1183,0.2561,0.4426,-0.194,-0.0272,176
15,-0.7898,0.1357,0.2531,0.339,-0.1341,-0.0316,176
15,-0.8102,0.1887,0.2724,0.3445,-0.0806,-0.0217,176
15,-0.8571,0.2173,0.2693,0.3248,-0.0217,-0.0272,176
15,-0.8785,0.1806,0.2285,0.2245,0.0294,-0.0545,176
15,-0.8877,0.1796,0.1928,0.1722,0.0763,-0.0806,176
15,-0.9142,0.2051,0.1653,0.1722,0.0763,-0.0806,176
15,-0.9265,0.1602,0.0979,0.1919,0.1274,-0.0969,176
15,-0.9265,0.1602,0.0979,0.1623,0.1471,-0.1198,176
15,-0.9173,0.1091,0.0643,0.0795,0.1449,-0.1493,176
15,-0.9173,0.0969,0.052,0.0555,0.1188,-0.1591,176
15,-0.903,0.1082,0.0561,0.0883,0.0872,-0.157,176
15,-0.8745,0.0377,0.0367,0.0675,0.0555,-0.1558,175
15,-0.8591,0.002,0.0214,0.0414,0.0196,-0.1482,175
15,-0.8398,0.0071,0.0357,0.0818,-0.0011,-0.1297,175
15,-0.8214,-0.001,0.0408,0.1297,-0.0228,-0.1112,175
15,-0.7745,-0.0388,0.0316,0.1396,-0.0392,-0.0992,175
15,-0.7632,-0.0469,0.0275,0.1396,-0.0392,-0.0992,175
15,-0.7561,-0.0265,0.0306,0.1537,-0.0457,-0.0872,175
15,-0.7561,-0.0265,0.0306,0.2213,-0.0446,-0.0631,175
15,-0.7612,0.0,0.0438,0.2943,-0.0381,-0.0392,175
15,-0.7653,-0.0092,0.0336,0.3008,-0.036,-0.0316,175
15,-0.7653,-0.0183,0.0193,0.2998,-0.0282,-0.0326,175
15,-0.7836,0.0071,0.0153,0.3456,-0.024,-0.0141,175
15,-0.8204,0.0734,0.049,0.4219,-0.0141,0.0097,175
15,-0.8418,0.0786,0.0357,0.4229,0.0,0.0162,175
15,-0.8571,0.0928,0.0347,0.4023,0.0097,0.0131,175
15,-0.8571,0.0928,0.0347,0.4023,0.0097,0.0131,175
15,-0.8755,0.1255,0.0326,0.4044,0.0196,0.0174,175
15,-0.8928,0.1724,0.0173,0.4065,0.0282,0.0131,175
15,-0.8928,0.1806,0.0061,0.3717,0.0337,-0.0021,175
15,-0.8969,0.1877,-0.0102,0.3292,0.037,-0.0196,175
15,-0.8816,0.203,-0.002,0.2998,0.0349,-0.0381,175
15,-0.8602,0.1826,0.0122,0.2495,0.0282,-0.0599,175
15,-0.851,0.1735,0.0295,0.1842,0.0141,-0.0751,175
15,-0.8448,0.1785,0.05,0.1581,0.0131,-0.0784,175
15,-0.8479,0.1847,0.0591,0.1428,0.0305,-0.0708,175
15,-0.8683,0.2071,0.0612,0.1428,0.0305,-0.0708,175
15,-0.8683,0.2071,0.0612,0.1155,0.073,-0.0555,175
15,-0.8877,0.2245,0.0632,0.0969,0.1221,-0.0435,175
15,-0.9275,0.2285,0.0673,0.0751,0.1875,-0.037,175
15,-0.9867,0.2357,0.0612,0.0435,0.2605,-0.0425,175
15,-1.1132,0.249,0.0295,0.0141,0.326,-0.0599,175
15,-1.1703,0.2571,0.0122,-0.0065,0.3771,-0.0925,175
15,-1.2245,0.25,0.0122,-0.049,0.412,-0.1428,175
15,-1.2581,0.2204,-0.0061,-0.1253,0.4263,-0.2093,175
15,-1.2234,0.1898,-0.0255,-0.1919,0.4219,-0.2649,175
15,-1.2092,0.1816,0.0122,-0.1919,0.4219,-0.2649,175
15,-1.2316,0.1653,0.0979,-0.2039,0.4252,-0.3041,175
15,-1.2316,0.1653,0.0979,-0.218,0.4448,-0.3357,175
15,-1.2847,0.1387,0.15,-0.2485,0.4721,-0.3586,175
15,-1.4051,0.0428,0.1979,-0.2834,0.5026,-0.3565,175
15,-1.4653,0.002,0.199,-0.2888,0.5374,-0.3128,175
15,-1.5204,-0.0275,0.1816,-0.2737,0.5429,-0.2507,175
15,-1.553,-0.053,0.1346,-0.2703,0.4982,-0.1732,175
15,-1.5245,-0.0031,0.1296,-0.2714,0.3706,-0.098,175
15,-1.4897,0.0102,0.1418,-0.3172,0.2125,-0.0501,175
15,-1.4244,-0.0081,0.1683,-0.4132,0.0305,-0.0217,175
15,-1.3602,-0.004,0.1714,-0.4132,0.0305,-0.0217,175
15,-1.1469,0.0591,0.2408,-0.4938,-0.1198,0.0,175
15,-1.1469,0.0591,0.2408,-0.532,-0.2398,0.0479,175
15,-1.0602,0.0581,0.251,-0.557,-0.2823,0.0818,175
15,-0.9796,0.1673,0.2816,-0.5593,-0.2943,0.1242,175
15,-0.8816,0.1173,0.2643,-0.6213,-0.2737,0.1493,175
15,-0.7867,0.001,0.2245,-0.7239,-0.1984,0.1417,175
15,-0.7612,-0.0092,0.2214,-0.7359,-0.1449,0.1428,175
