Timestamp,Ax,Ay,Az,Rx,Ry,Rz,EMG
0,-1.0581,-1.4895,-1.1355,0.3368,3.3967,-1.7773,2061
0,-0.0667,-1.5527,-0.8772,-0.6871,2.4509,-1.4635,2034
0,-0.031,-1.6584,-0.6052,-1.9459,1.5563,-1.1342,2003
0,-0.4961,-1.5291,-0.5044,-3.0264,-0.4613,-1.0126,1967
0,-0.8389,-1.4541,-0.4182,-3.5902,-1.4037,-1.1347,1947
0,-1.1394,-1.4131,-0.4114,-3.9113,-1.7956,-1.1098,2059
0,-1.3311,-1.2783,-0.5044,-4.2114,-2.1138,-1.2079,2121
0,-1.0747,-1.0288,-0.5967,-4.3194,-1.9566,-1.3066,2071
0,-0.5769,-0.8416,-0.9519,-4.2113,-2.3494,-1.1734,2106
0,-0.4514,-0.6475,-0.9985,-3.6894,-2.4659,-0.7371,2073
0,-0.574,-0.5559,-0.8206,-3.3051,-2.5774,-0.1987,2051
0,-0.8669,-0.3503,-0.5125,-2.695,-3.0488,-0.2209,2090
0,-0.9143,-0.127,-0.2068,-1.9574,-3.3099,-0.5959,2130
0,-1.0408,-0.3442,-0.4062,-1.6295,-2.7546,-0.7839,2064
0,-0.9419,-0.7534,-0.3799,-1.4348,-3.2604,-0.7992,2055
0,-0.626,-0.8542,-0.5789,-1.3882,-2.4497,-1.2007,2058
0,-0.5281,-0.6399,-0.4097,-1.1573,-1.8162,-0.9616,2076
0,-0.5979,-0.4419,-0.7827,-1.0678,-0.7498,-0.5755,1962
0,-0.2854,-0.5974,-0.364,-0.801,-0.7568,-0.0854,2038
0,-0.0425,-0.7954,-0.751,-0.9286,-0.9921,-0.1047,2049
0,-0.2817,-0.8545,-0.9023,-1.1443,-0.962,-0.0649,1990
0,-0.7515,-0.7588,-1.3052,-1.1772,-1.303,0.1135,2040
0,-0.8335,-0.377,-1.3384,-0.9508,-0.7931,-0.5584,2055
0,-0.3794,-0.2092,-1.3025,-0.8456,-0.4864,-0.3757,2076
0,-0.1797,-0.4509,-1.218,-0.7391,-0.4215,-0.2599,2141
0,-0.1667,-0.6914,-1.0063,-0.9135,-0.3514,-0.4163,2058
0,-0.2107,-0.7903,-0.8699,-1.1158,-0.3815,-0.2017,2122
0,-0.4048,-0.7971,-0.7314,-1.2688,-0.3252,0.0878,1998
0,-0.6641,-0.7188,-0.8018,-1.3099,-0.2954,0.172,2001
0,-0.7219,-0.4285,-0.9202,-1.1086,-0.4518,-0.1682,2077
0,-0.2444,-0.3943,-0.7913,-0.8309,-0.7858,0.1089,2111
0,-0.5029,-0.7881,-0.7375,-0.6072,-0.7493,0.0903,2036
0,-0.8008,-0.8882,-0.5754,-0.509,-0.6589,-1.0963,2074
0,-0.3989,-0.728,-0.4917,-0.3836,-0.3488,-1.0575,2050
0,-0.3438,-0.8096,-0.4866,-0.3188,-0.0546,-0.7634,2001
0,-0.4038,-0.9343,-0.5002,-0.4421,0.0495,-0.7018,2091
0,-0.5786,-0.9509,-0.5452,-0.1704,0.3237,-0.5994,2084
0,-0.804,-0.9978,-0.5488,0.1196,0.5733,0.1285,1963
0,-0.875,-1.1133,-0.7419,0.2393,0.7186,0.1892,2101
0,-0.8213,-1.241,-0.3787,0.5086,0.6883,0.3577,2069
0,-0.9014,-1.3513,-0.5669,0.4124,0.6613,0.4793,1994
0,-0.9446,-1.3311,-0.697,0.3456,0.7055,0.3597,2004
0,-0.9058,-1.1006,-0.6316,0.2322,0.4183,0.3388,2046
0,-0.8,-0.7866,-0.8086,-0.1898,0.0401,0.2201,1982
0,-0.3381,-0.7954,-1.219,-0.0742,-0.0738,-0.4228,2021
0,-0.6726,-0.7783,-1.1123,-0.0281,0.0276,0.2468,2067
0,-0.9353,-0.9353,-1.2095,-0.2682,0.352,0.4183,2105
0,-0.5459,-1.0913,-1.1602,-0.2191,0.7854,0.6854,2115
0,-0.6211,-0.8931,-1.021,-0.2309,0.8809,0.9926,1984
0,-0.7585,-0.8857,-0.9006,-0.2549,0.9592,1.2612,2100
0,-0.7764,-1.127,-0.9958,-0.3112,0.9958,1.4568,1778
0,-0.6289,-1.0137,-1.0591,-0.3207,0.7783,1.3687,1960
0,-0.2026,-0.947,-1.0623,-0.4533,0.232,1.4396,2130
0,-0.3953,-0.8999,-0.9709,-0.4899,-0.0766,0.9874,2100
0,-0.7432,-0.7349,-0.9507,-0.5743,0.1712,0.8609,2100
0,-0.6104,-0.6782,-0.9629,-0.5831,0.1685,0.8138,2201
0,-0.3945,-0.7498,-0.9692,-0.4582,0.0698,0.6341,2026
0,-0.5859,-0.8684,-1.0073,-0.4971,0.3326,0.5151,2053
0,-0.5933,-0.9182,-1.0481,-0.5723,0.4841,0.5268,1855
0,-0.3149,-0.9409,-1.0471,-0.6516,0.4526,0.6634,2039
0,-0.281,-0.9541,-1.2205,-0.7455,0.4215,0.7178,1999
0,-0.6162,-0.8118,-1.0115,-0.5606,0.4468,0.6668,2084
0,-0.8958,-0.3044,-0.9814,-0.284,0.5405,0.7553,1793
0,-0.9856,-0.2512,-0.8335,0.0575,0.7837,0.8196,2106
0,-0.9053,-0.0806,-0.9487,0.0158,1.0063,0.4299,2210
0,-0.5413,-0.3723,-0.7915,0.1858,0.507,0.5422,2094
0,-0.8293,-0.2769,-0.7703,0.3095,0.2188,1.0798,2099
0,-0.8005,-0.5254,-0.6685,0.247,-0.0329,0.9893,2236
0,-1.0212,-0.5317,-0.593,0.4277,-0.0553,0.9951,1968
0,-0.9033,-0.4087,-0.7148,0.503,-0.0531,1.0882,2160
0,-0.7227,-0.1904,-0.7017,0.4525,0.0184,0.9324,2000
0,-0.675,-0.364,-0.6858,0.5109,-0.4674,0.7762,1991
0,-0.9585,-0.6501,-1.0911,0.3874,-0.551,0.2868,1878
0,-0.6362,-0.3994,-1.1946,-0.0225,-0.7023,-0.2772,2139
0,-0.3413,-0.5999,-1.1589,-0.0148,-0.447,-0.5163,1953
0,-0.0447,-0.0103,-1.2058,0.2055,-0.175,-0.2665,2173
0,-0.1208,-0.2117,-1.1523,0.2152,-0.0129,-0.0005,1960
0,-0.0432,-0.0984,-0.8877,-0.017,-0.0209,-0.1579,2017
0,-0.4583,0.0959,-0.8206,0.0876,0.2582,0.4125,2059
0,-0.3354,0.0073,-0.7292,0.0578,0.2044,0.4968,2091
0,-0.3977,0.0254,-0.6855,-0.0285,0.0558,0.7028,2070
0,-0.4343,0.0713,-0.7175,0.0876,-0.3085,0.7612,2009
0,-0.5938,-0.4355,-0.8823,-0.002,-0.1333,1.0523,1894
0,-0.5681,-1.062,-1.0518,-0.1265,0.1791,0.9226,2072
0,-0.5342,-0.9873,-1.0461,0.0113,0.2035,0.6608,1862
0,-0.6606,-1.1082,-1.1399,0.0776,0.6399,0.7528,1913
0,-0.8442,-0.9319,-0.9121,0.3352,0.9553,0.7425,2077
0,-0.7283,-0.8435,-0.7395,0.7148,1.0199,0.7415,2154
0,-0.4761,-0.9026,-0.6877,1.0541,0.8569,0.6123,1926
0,-0.5535,-1.0488,-0.6504,1.3149,0.6516,0.345,2042
0,-0.6472,-1.0349,-0.9094,1.3149,0.5137,-0.1838,1808
0,-0.512,-0.7498,-1.0381,1.2861,0.1764,-0.5994,2117
0,-0.4087,-0.5354,-1.1953,1.2105,-0.1252,-0.5842,2120
0,-0.4023,-0.4692,-1.1541,1.3532,-0.5199,-0.6514,2030
0,-0.9275,-0.3291,-1.417,1.2924,0.0727,-0.3643,2077
0,-0.7346,-0.373,-1.1448,1.3525,0.6501,0.163,2000
0,-0.3313,-0.3755,-1.3037,1.385,0.8232,0.3614,2099
0,-0.4707,-0.6482,-1.1453,1.2595,0.6508,0.6743,1842
0,-0.4685,-0.7463,-0.895,1.1099,0.6998,0.7135,2196
0,-0.5051,-0.5881,-1.0742,1.1421,0.4261,0.6401,2112
1,-0.428,-0.5283,-0.8989,1.0985,0.2943,0.4028,2165
1,-0.4207,-0.4382,-0.8643,1.2949,0.2052,0.1626,2095
1,-0.3186,-0.5183,-0.9338,1.3881,0.1984,0.0479,2080
1,-0.6213,-0.3367,-0.9348,1.4459,0.1477,0.139,2066
1,-0.7759,-0.1687,-0.9019,1.6747,0.6601,0.1011,2080
1,-0.6641,-0.3162,-1.0042,1.7907,0.946,0.0798,2047
1,-0.5701,-0.2905,-0.9473,1.7748,0.9317,0.0775,2066
1,-0.6582,-0.1555,-0.854,1.7988,0.7353,-0.0766,2055
1,-0.8025,0.114,-0.9426,1.8901,0.906,-0.2012,2012
1,-0.6812,0.3572,-0.5334,2.2509,1.0183,-0.4096,2012
1,-0.9409,0.3477,-0.2795,2.9205,1.6262,-0.6637,2037
1,-0.8074,0.2395,-0.2339,3.3413,1.4981,-0.8817,2057
1,-0.7585,0.4697,-0.2449,3.5804,1.7354,-1.1684,2029
1,-0.5168,0.6003,-0.3213,3.7338,1.8399,-1.4635,2041
1,-0.5891,0.8894,-0.363,4.0146,2.0005,-1.7835,2042
1,-0.3357,1.0874,-0.5959,4.1482,1.6139,-1.4555,2068
1,0.0901,1.0054,-0.7683,4.1022,0.4193,-0.7086,2060
1,0.2751,0.9419,-0.9414,4.0012,-1.4684,-0.2342,2025
1,0.1243,0.9075,-1.0186,3.6713,-2.3666,0.1176,2040
1,0.0188,0.8726,-1.3328,3.4045,-3.3973,0.2108,2114
1,0.095,0.8127,-2.0,3.8322,-4.3635,-0.3405,2155
1,0.5579,-0.4448,-2.0,2.4752,-4.3635,0.6532,2100
1,0.1162,-1.5142,-2.0,-0.1764,-4.3635,1.3109,2004
1,-1.1641,-1.9741,-2.0,-2.3578,-4.3635,0.8035,1972
1,-1.5249,-1.1479,-2.0,-4.2935,-4.3635,-0.9039,1968
1,-1.7781,0.0911,-2.0,-4.3635,-4.3471,-1.3039,2159
1,-1.4224,1.1653,-1.012,-4.3635,-3.7306,-1.7982,2011
1,-0.7119,1.02,-0.6597,-3.3717,-2.8533,-1.1251,2021
1,-1.0603,-0.011,-1.5254,-2.7709,-4.3397,-0.5239,1615
1,-1.6033,-1.6372,-2.0,-3.3673,-4.3635,0.695,2001
1,-1.8823,-2.0,-1.8574,-4.3635,-4.3635,1.1057,2286
1,-2.0,-1.2288,-1.6709,-4.3635,-4.3635,0.9834,2127
1,-2.0,-1.3394,-1.8638,-4.3635,-4.3635,1.598,1873
1,-2.0,-0.918,-2.0,-4.3635,-4.3635,1.8382,2050
1,-1.6362,-0.5588,-1.9163,-4.3635,-4.3635,1.9953,2051
1,-1.7097,-0.4675,-1.7483,-4.3635,-4.3635,1.8647,1954
1,-1.7454,-0.6191,-1.4561,-4.3635,-4.3635,1.9951,2038
1,-1.8967,-0.6196,-1.4109,-4.3635,-4.3635,2.2324,1924
1,-2.0,-0.7183,-1.5854,-4.3635,-4.3635,2.1503,2057
1,-2.0,-0.9453,-1.6775,-4.3635,-4.3635,2.1873,2220
1,-2.0,-1.3474,-1.6062,-4.2544,-4.3635,1.9493,1980
1,-1.9756,-1.1736,-1.5742,-3.5194,-4.3635,2.5157,1912
1,-2.0,-1.4548,-1.4446,-2.9272,-4.3635,3.1096,2065
1,-1.9463,-1.4448,-1.3809,-2.1446,-4.3635,3.9141,2001
1,-1.4458,-1.8345,-1.2937,-1.7255,-3.7997,3.3198,2002
1,-0.499,-1.864,-1.1724,-1.3876,-2.7131,3.6276,2061
1,1.9999,-2.0,0.5361,0.7682,-4.3635,-0.9744,2253
1,0.2168,-2.0,-1.887,1.0238,-3.6203,2.4112,1488
1,-2.0,-0.9778,-0.604,1.9025,-2.893,3.2235,1917
1,-2.0,1.2139,0.416,3.5511,-1.1631,2.2145,2248
1,-1.4941,-1.6914,-0.3806,3.4437,0.9098,0.6699,2201
1,-0.4097,-1.0427,-0.468,3.917,2.6506,0.3432,2200
1,0.2866,-1.1892,-0.2097,4.3634,2.4518,1.277,1935
1,-0.051,-1.9517,0.3611,4.3634,2.7071,1.1529,1933
1,-0.9661,-1.6912,0.2769,4.3634,3.3761,1.4323,1945
1,-1.2593,-1.0483,0.5776,4.3634,4.1,1.2203,2163
1,-0.9233,-0.7249,0.7891,4.3634,4.1114,0.2888,2309
1,-0.7458,-1.2896,0.8162,4.3634,3.4732,0.4848,2148
1,-0.0974,-1.7839,0.8794,4.3634,2.9285,-0.2181,2103
1,0.3467,-2.0,1.1523,4.3634,4.1331,0.2578,1845
1,0.4766,-1.5334,0.2961,3.2953,1.1926,-0.0161,1893
1,0.0374,-1.0413,0.6841,3.6431,0.2882,-0.8542,2118
1,-0.1125,-1.1184,0.2241,4.0415,-0.2015,-1.1601,2126
1,0.782,-2.0,0.405,3.6974,0.8186,-1.3705,2053
1,0.5691,-2.0,0.3975,3.1966,2.1997,-1.2456,1828
1,0.1423,-1.0962,0.2561,3.3513,2.3425,-1.4936,1982
1,0.134,-0.7622,0.0315,3.6197,1.3806,-2.0166,2141
1,0.2615,-1.2554,0.1775,3.6765,0.4416,-2.3638,2158
1,0.3782,-1.6543,-0.0491,3.4512,0.4304,-2.7304,2111
1,0.3887,-1.6179,-0.167,3.1409,1.2797,-2.8705,2039
1,0.1074,-1.1042,-0.519,3.1427,2.2072,-2.1824,2035
1,0.0854,-0.9221,-0.9348,3.0982,2.3451,-2.5956,2047
1,-1.0007,-0.8413,-1.3206,2.9759,2.7275,-2.3746,2021
1,-1.3328,-0.2048,-1.8923,2.9536,1.8311,-2.5607,2021
1,-1.2556,-0.646,-1.8154,2.708,1.7136,-2.4964,2083
1,-1.4819,-0.7739,-1.6675,2.4119,1.4366,-2.1023,1827
1,-1.6357,-0.802,-1.6538,2.0108,1.6781,-1.5502,2020
1,-1.4685,-0.8745,-1.3208,1.8897,1.3047,-1.2548,2155
1,-1.4763,-1.1042,-1.0676,1.6986,1.0175,-1.5275,2177
1,-1.844,-0.9075,-1.0718,1.4013,0.7745,-1.3232,1923
1,-1.7927,-0.8635,-1.3853,1.0718,0.7811,-1.4627,2102
1,-1.7959,-0.8931,-1.6931,0.5791,1.4372,-0.9823,2063
1,-1.9504,-0.5549,-1.6912,0.6775,1.4025,-0.3508,2073
1,-1.2964,-1.0386,-1.3887,0.9345,1.5428,-0.5978,2181
1,-0.9968,-0.8044,-0.4736,0.9503,1.7921,-0.2791,2241
1,-0.7224,-1.2446,-0.2124,0.2836,1.5906,0.3518,2031
1,-0.9204,-1.2026,-0.4819,-0.9011,1.5223,0.6701,2130
1,-0.9175,-0.8672,-0.4185,-0.8673,1.6202,0.861,2368
1,-0.6509,-1.3589,-0.5281,-1.6159,1.0244,0.6279,2140
1,-0.3076,-1.3762,-0.1987,-3.8524,0.8891,0.8613,1655
1,-1.4402,-0.3726,-1.0474,-4.3635,-0.3121,0.1474,89
1,-0.6572,0.7551,-0.8035,-2.8569,-0.6099,-0.4502,2310
1,0.1204,-1.1067,-0.6396,-1.7488,0.0882,0.3534,2469
1,-0.5212,-1.6179,-0.6125,-1.8367,-0.4322,0.6389,2307
1,-1.1938,-1.1111,-0.938,-1.4154,-0.0629,0.0663,2220
1,-0.7085,-0.8186,-0.9629,-1.138,0.2689,-0.0326,2136
1,-0.4448,-0.5264,-0.8743,-1.0073,0.2602,0.0598,2040
1,-0.5654,-0.489,-0.9299,-0.9842,0.2285,0.2931,2078
1,-0.9888,-0.1023,-0.9905,-0.8455,0.2697,0.4422,2039
1,-0.9429,-0.0774,-1.1467,-0.7225,0.4966,0.5414,1996
1,-1.176,0.0637,-1.1821,-0.4976,0.6482,0.8023,2152
1,-1.3374,-0.0469,-0.76,-0.3085,0.8805,0.5373,1974
1,-1.1033,-0.7175,-0.3992,0.2995,1.619,0.6304,1894
1,-0.6826,-1.4736,-0.4915,0.3722,1.8911,0.8146,2107
1,-0.458,-1.2969,-0.5024,0.351,1.3242,0.4579,2013
2,0.0286,-0.801,-0.78,0.3713,0.8914,0.1962,2022
2,-0.1082,-0.7251,-0.8003,0.2951,0.4416,0.3545,2230
2,-0.2812,-0.4827,-0.8677,0.3139,-0.5436,0.2639,1989
2,0.0317,-0.0647,-0.7683,0.3396,-1.7562,0.0754,2240
2,-1.0815,-0.562,-1.2563,0.0533,-1.8823,0.1433,2076
2,-1.3269,-0.8708,-1.0562,0.4886,-1.021,-0.1856,2170
2,-1.2097,-1.0208,-1.1914,0.0639,0.2265,-0.0189,2064
2,-0.8005,-0.4329,-1.0295,0.3324,1.2989,0.2099,2009
2,-0.4277,0.1375,-0.9966,0.2518,1.1276,0.4184,2076
2,-0.2795,0.3455,-0.9524,0.3777,0.7994,0.4348,2201
2,-0.3816,-0.1482,-0.8499,0.3633,-0.32,0.2618,2264
2,-0.6379,-0.8528,-0.9915,0.1465,-0.7612,-0.0029,2244
2,-0.7673,-0.9592,-1.2566,-0.0037,-1.1006,-0.2107,1704
2,-0.48,-0.3306,-1.26,0.0277,-0.762,-0.2577,2049
2,-0.1843,-0.4292,-1.2085,-0.0381,-0.3282,-0.1148,2160
2,-0.4512,-0.675,-1.3154,-0.0274,0.0481,0.2028,2020
2,-0.7473,-0.0679,-1.1018,0.0602,0.3274,0.4164,1866
2,-0.9968,-0.0901,-0.9314,0.1144,0.4418,0.4176,2159
2,-0.6853,-0.5312,-1.0034,0.3535,0.2449,0.5279,1974
2,-0.394,-0.9417,-0.9985,0.3796,0.5059,0.6437,2203
2,-0.4353,-0.748,-0.8606,0.3678,0.5208,0.6263,2090
2,-0.541,-0.312,-0.8276,0.4642,0.705,0.7325,2041
2,-0.689,-0.1685,-0.7258,0.4703,0.8351,0.695,2052
2,-1.0803,-0.1558,-0.7219,0.503,0.9748,0.5337,1846
2,-1.2195,-0.1655,-0.8381,0.5493,1.0104,0.2824,2289
2,-0.7068,-0.9983,-1.0544,0.736,1.1142,0.3128,2257
2,-0.5488,-1.1628,-1.113,1.0832,1.332,0.3964,2248
2,-0.397,-0.6909,-0.7974,1.3579,1.4625,0.6357,2108
2,-0.4128,-0.7864,-1.0242,1.5488,1.3894,0.9616,1960
2,-0.7122,0.3718,-0.9854,1.8563,1.0154,0.9962,1885
2,-0.5505,1.4451,-0.7769,2.0779,0.6023,0.7867,2088
2,-0.5156,0.1829,-1.3257,2.1202,0.602,0.8445,2116
2,-0.4661,0.1306,-1.1155,1.4261,0.771,0.5922,2296
2,-0.6509,-0.9482,-1.0291,0.8654,1.0431,0.6295,1980
2,-0.4807,0.2795,-1.2239,0.2519,0.7815,0.7763,1967
2,-0.5945,-1.0168,-1.2891,0.3726,1.3011,0.7878,2172
2,-0.9187,-1.1096,-0.9177,0.0501,1.1925,0.9552,2051
2,-1.0271,-0.7429,-0.7092,0.2911,1.1488,0.8933,2066
2,-1.1099,-0.5188,-0.6726,0.811,1.504,0.8096,2064
2,-0.8867,-0.6746,-0.7014,0.9692,1.7303,0.6693,2208
2,-0.7124,-0.9072,-0.792,1.0661,1.5647,0.5176,1939
2,-0.9575,-0.6482,-1.1458,0.9361,1.2701,0.6449,1933
2,-0.4268,0.3618,-0.8892,1.2081,0.3369,0.5458,1882
2,-0.8313,0.5164,-0.3069,1.1987,0.6754,0.7681,2077
2,-1.0452,0.2205,-0.4644,1.165,0.7154,1.0978,2045
2,-1.0623,0.1948,-0.3608,1.021,0.543,1.1983,2047
2,-1.126,0.0071,-0.303,0.976,0.528,1.2368,2084
2,-1.271,-0.2024,-0.3118,0.9123,0.6586,0.8881,2070
2,-1.2493,-0.1909,-0.2439,1.044,0.5113,0.4076,2063
2,-1.2671,-0.0156,-0.3433,0.9672,0.6697,0.0021,2044
2,-1.1868,-0.0898,-0.3184,1.1917,0.3679,-0.4625,2044
2,-1.1055,-0.0508,-0.521,1.2872,0.2713,-0.7834,2043
2,-1.0508,0.1152,-0.3857,1.636,0.1353,-0.9484,2034
2,-1.0859,0.4365,-0.3647,1.8984,0.0655,-0.9909,2037
2,-0.9277,0.6665,-0.3984,2.0956,0.2482,-0.9722,2054
2,-0.7561,0.9182,-0.4175,2.2976,0.1902,-0.9965,2053
2,-0.4409,1.0012,-0.5657,2.3621,-0.0917,-1.0503,2048
2,-0.2336,1.2373,-0.7231,2.5851,-0.4088,-1.1146,2027
2,-0.2085,1.5068,-1.0007,2.5775,-0.4657,-0.738,2042
2,0.4021,1.498,-1.1677,2.601,-1.1403,-0.8885,2066
2,0.3557,1.9644,-1.0986,2.6034,-1.5998,-0.4638,2018
2,0.6213,1.9999,-1.1094,2.2176,-1.5992,0.0111,2145
2,0.5569,1.8738,-1.1282,1.5617,-2.1519,0.2951,2029
2,0.4841,1.6843,-1.3081,1.2501,-3.3154,0.2011,2034
2,0.2388,1.0227,-2.0,0.81,-4.3635,-0.1313,1926
2,0.0457,-0.0366,-2.0,-0.021,-4.3635,-0.4528,2026
2,-0.5422,-0.6702,-2.0,-0.8114,-4.3635,-0.7946,1308
2,-0.7043,-1.1682,-2.0,-2.8047,-4.3635,-1.3905,2228
2,-0.6458,-1.2913,-2.0,-4.3635,-4.3545,-1.366,2190
2,-1.3123,-0.5083,-1.8142,-4.1799,-4.1723,-1.4387,1992
2,-1.5798,-0.0286,-1.8259,-4.3635,-4.3635,-1.5046,1901
2,-2.0,-0.2397,-2.0,-4.0965,-4.3635,-1.8564,2044
2,-1.7834,-1.6248,-2.0,-4.3635,-4.3635,-1.8064,2231
2,-1.0354,-2.0,-2.0,-4.3635,-4.3635,-0.9286,2312
2,-0.4412,-2.0,-1.679,-4.3635,-4.3635,-0.901,2056
2,-0.6648,-1.8213,-1.5408,-4.3635,-4.3635,-1.8069,1871
2,-1.1208,-0.4968,-1.3469,-4.3635,-4.3635,-1.1973,1922
2,-1.1335,-0.1904,-1.0864,-4.3635,-4.3635,-0.797,2092
2,-1.0984,-0.0535,-1.1484,-4.3635,-4.3635,-0.4373,1683
2,-1.4326,0.1228,-1.2485,-4.3635,-4.3635,-0.2156,1918
2,-1.5371,0.4102,-1.4673,-4.3146,-4.3635,-0.1233,2150
2,-1.5767,0.2288,-1.2622,-3.0324,-4.3635,0.018,2077
2,-1.7249,-0.4199,-0.9851,-2.6749,-4.3635,0.4181,2082
2,-2.0,-0.8533,-1.3079,-2.2033,-4.3635,0.5715,2073
2,-2.0,-1.188,-1.1606,-2.1836,-4.3635,1.0641,2077
2,-2.0,-1.5376,-1.3733,-1.9097,-4.3635,1.2198,2049
2,-1.7104,-1.7866,-1.6106,-1.6855,-4.3635,1.4367,2049
2,-1.207,-1.7183,-1.4556,-1.4436,-4.2602,1.5219,2079
2,-1.2937,-1.7095,-1.2788,-1.1627,-4.0911,1.9178,2167
2,-1.4265,-1.6255,-0.9426,-1.0178,-3.7581,2.4767,1866
2,-1.5898,-1.9221,-0.9678,-0.7088,-3.1553,2.8734,2080
2,-1.249,-2.0,-0.7605,-0.3574,-2.2133,3.421,2132
2,-0.144,-2.0,-0.2925,-0.1186,-1.6178,3.807,2071
2,1.9999,-2.0,0.8118,0.7954,-3.2361,0.0458,2213
2,0.8557,-1.7668,-0.6475,1.1077,-3.5384,2.3611,1811
2,-2.0,-1.2197,-0.9287,0.8866,-1.5668,3.0476,1804
2,-2.0,-0.6113,0.4788,1.2047,0.2772,2.8108,2190
2,-1.0825,-0.5415,0.4497,2.0214,1.8941,2.0957,2100
2,-1.196,-0.5586,-0.2026,2.0917,2.8927,1.44,2027
2,-0.885,-0.4192,0.3911,2.9268,2.7224,1.0396,2110
2,-0.7644,-0.4253,0.4583,3.7825,2.5386,0.7384,2084
2,-0.9424,-0.5715,0.4614,4.3634,2.1872,0.589,2053
3,-0.6667,-0.8401,0.4873,4.3634,2.3172,-0.1879,1996
3,-0.3557,-1.1702,0.4341,4.3634,1.8896,-0.0545,2076
3,-0.6707,-1.1753,0.6428,4.3634,1.5623,-0.1056,2049
3,-0.845,-1.4026,0.5139,4.3634,1.9587,-0.0573,2020
3,-0.6682,-1.7043,0.7236,4.3634,1.9532,-0.5834,2070
3,-0.2366,-1.5552,0.262,4.3634,1.5836,-0.563,1974
3,-0.7446,-1.4224,0.8752,4.3634,1.3089,-0.5308,2008
3,-0.1226,-1.749,0.384,4.3634,1.699,-1.1449,2004
3,0.0525,-1.6233,0.5415,4.3634,1.633,-1.5617,1985
3,0.5239,-1.8181,-0.0486,4.2156,0.9808,-1.6715,2017
3,0.5486,-1.2944,0.2295,3.9411,0.8126,-1.4619,2061
3,0.2485,-0.9082,0.0884,4.0507,0.7115,-1.7825,1989
3,0.7253,-1.4148,-0.5884,3.4323,0.2814,-1.9936,1992
3,0.4268,-1.2842,-0.7991,3.1507,0.1401,-2.1189,2034
3,-0.0249,-0.9629,-0.7573,2.9714,-0.0373,-2.5193,2036
3,0.4153,-0.9636,-1.0815,2.8678,-0.2474,-3.2321,2068
3,0.3252,-1.0576,-1.5735,3.517,0.6654,-3.2597,2082
3,-0.4277,-0.6558,-1.3711,3.7676,1.955,-3.1076,2096
3,-0.7839,-0.4905,-0.9082,3.4137,3.4841,-2.9501,2130
3,-0.9038,-0.8545,-1.7007,2.6575,4.3634,-2.8209,2057
3,-0.8972,-0.3325,-1.6018,2.131,4.3634,-2.6002,2029
3,-0.1738,-0.845,-0.6775,0.6907,4.3634,-2.0077,2041
3,-0.2219,-0.4619,-2.0,1.0654,4.3634,-1.8811,2099
3,-0.8262,-1.1855,-2.0,0.6521,4.3634,-1.799,2054
3,-1.0361,-1.1121,-2.0,0.4277,4.3634,-1.5402,2008
3,-1.4695,-0.9858,-2.0,0.2107,4.3634,-0.9042,2026
3,-1.6357,-1.3242,-1.3235,0.6022,4.3634,-0.7596,2051
3,-1.697,0.7542,-0.2759,1.03,3.3338,-1.1918,2092
3,-1.7725,-0.5125,-1.4685,1.4993,0.4369,-0.2011,2168
3,-0.6182,-1.9375,0.0737,1.0254,-0.5034,-1.0809,1787
3,-1.3948,-2.0,0.3789,-2.2317,-2.0329,-1.9555,1990
3,-0.7256,-0.2432,1.1426,-2.2712,-2.2047,-0.5087,2159
3,-0.8743,-1.6689,0.6318,-3.53,-3.5845,0.1892,2046
3,-0.6941,-1.3496,-1.0278,-3.276,-1.69,-0.2582,1935
3,-1.7903,-0.8967,-1.4783,-2.1371,0.3618,-0.4516,2110
3,-0.7229,-1.2158,-1.762,-1.1202,2.967,-0.5781,2186
3,-0.8486,-0.5444,-1.3892,-0.5994,2.1004,0.1728,2064
3,-1.3142,-0.9253,-1.3357,-0.9473,2.5637,0.8204,2061
3,-1.5688,-1.1118,-0.8401,-1.4438,2.5314,1.1266,2062
3,-1.3228,-0.9055,-0.8286,-1.674,2.3975,1.1645,1920
3,-0.8835,-0.6045,-0.5574,-1.502,1.8395,0.9834,2038
3,-0.7007,-0.8396,-0.2649,-1.2825,1.3153,0.6309,1974
3,-0.7927,-0.5872,-0.2986,-1.0753,0.9889,0.4112,1997
3,-0.8157,-0.8254,-0.5115,-0.9947,0.3129,0.2322,1944
3,-0.8518,-0.9561,-0.7871,-0.9391,0.0481,-0.1071,1968
3,-0.5671,-0.9985,-0.8481,-0.8749,-0.0815,-0.3952,2055
3,-0.4629,-0.9905,-0.8291,-0.7171,-0.1405,-0.3382,1932
3,-0.0696,-0.8838,-1.0193,-0.8717,-0.2867,-0.1309,1953
3,-0.5469,-0.8735,-1.1292,-0.8206,0.1965,0.3585,1903
3,-0.7827,-0.6865,-1.0469,-0.7605,0.6869,0.6526,2157
3,-1.0137,-0.7124,-1.094,-0.6837,1.3479,1.1339,2059
3,-0.6338,-1.0037,-0.78,-0.5637,1.2584,1.3011,2076
3,-0.7593,-0.9807,-0.3286,-0.5327,1.0029,1.1378,2104
3,-0.7156,-1.248,0.0144,-0.5727,0.4733,0.867,1800
3,-0.3066,-1.5886,0.031,-0.8287,-1.7227,0.0828,1834
3,-0.7559,-1.3433,-0.7322,-0.7272,-1.5768,-0.1213,2063
3,-0.4158,-1.178,-0.8774,-0.2546,-1.0456,-0.5489,2003
3,-0.075,-0.9509,-0.9846,-0.0352,-1.2967,-0.8196,1932
3,0.1917,-0.9111,-0.9114,-0.0529,-1.7398,-0.638,1871
3,-0.3958,-1.0962,-1.0818,-0.2373,-1.7595,-0.5598,2006
3,-0.7974,-0.7327,-1.0896,-0.1113,-1.0931,-0.2253,2270
3,-1.0916,-0.7256,-1.0864,-0.1642,-0.6458,-0.1686,2235
3,-1.1387,-0.5986,-1.1147,-0.0164,-0.5627,0.1839,1971
3,-0.8911,-0.5676,-0.7983,0.2657,-0.6474,0.3884,1816
3,-0.8159,-0.4709,-0.6851,0.2946,-1.0323,0.2454,2069
3,-0.7102,-0.8672,-0.4451,0.5308,-1.6789,0.0882,1810
3,-0.4915,-1.1182,-0.6016,0.5554,-2.2714,0.0543,1848
3,-0.634,-1.0488,-0.5569,0.7004,-1.9949,0.1772,1983
3,-0.5474,-0.7073,-0.9607,0.8851,-1.6888,0.3956,1988
3,-0.5977,-0.7778,-1.0261,0.2157,-1.5627,0.4277,2041
3,-0.4292,-0.2778,-1.0898,0.8589,-1.71,0.4133,2151
3,-1.092,-0.6338,-1.3384,0.6992,-1.0369,0.2221,2218
3,-0.0674,-1.0554,-1.0056,0.455,-0.5159,0.1429,2130
3,-0.2898,-1.9197,-1.3218,-0.0746,-0.7807,0.2659,1782
3,-0.384,-1.946,-1.3545,-0.1799,-0.9642,0.2622,2128
3,-0.6836,-1.8081,-1.4058,-0.2748,-0.9857,0.8692,2148
3,-0.8516,-0.5874,-1.2593,0.0602,-0.6653,1.3705,2015
3,-0.9255,-0.2825,-1.2698,0.5219,-0.1984,1.6471,1836
3,-0.9553,-0.344,-0.8293,1.1741,-0.2345,1.4428,1943
3,-0.3796,-0.0789,-0.8254,1.493,-0.5177,1.4214,2006
3,-1.0833,0.4446,-0.9453,1.6374,-0.2517,1.6254,1894
3,-0.7979,0.9343,-1.0166,1.7843,0.2999,1.6241,2048
3,0.1421,0.5679,-0.6924,1.9471,-0.2735,0.765,2049
3,-0.0901,-0.1619,-1.5022,1.2423,-0.9317,0.7668,2028
3,-0.7102,0.4111,-1.2517,0.8696,-1.2455,0.6297,1976
3,-0.9084,0.5625,-1.6238,0.7062,-1.17,0.602,2257
3,-0.8555,0.3667,-1.844,1.2722,-1.3355,0.8002,2024
3,-0.6948,0.3152,-1.6401,1.1232,-0.8072,0.9552,1962
3,-0.9092,0.3706,-1.2705,1.1332,-0.813,0.9826,1933
3,-0.8032,0.0786,-1.4597,0.9436,-0.3365,1.3344,2236
3,-1.1638,-0.231,-1.05,0.9665,-0.4095,1.6563,2040
3,-0.6848,-0.2742,-1.22,0.697,-0.3657,1.4818,2189
3,-0.6938,-0.5105,-1.0303,1.001,-1.1163,1.1961,2047
3,-0.7749,-0.5591,-0.9397,1.0673,-1.2296,0.8899,1993
3,-0.8513,-0.3914,-0.7881,1.3607,-1.1613,0.8764,2091
3,-0.5469,-0.3813,-0.927,1.7136,-0.8517,0.8709,2037
3,-0.8213,-0.1562,-0.9031,1.7289,-0.277,0.5289,2073
3,-0.8264,0.1484,-0.6404,2.1393,0.3179,-0.0099,2030
3,-1.2705,0.4333,-0.4985,2.3723,1.2192,-0.1502,2022
3,-0.3516,0.6838,-0.5579,2.4967,2.1346,-0.7241,2072
3,-0.2549,0.8843,-0.4626,2.7561,2.1337,-0.9118,1998
4,-0.2524,0.9038,-0.5876,2.6263,1.9639,-1.0291,2046
4,-0.3418,1.0095,-0.4265,2.3803,1.5625,-1.076,2068
4,-0.4124,1.1838,-0.3113,2.0024,1.3207,-1.1214,2057
4,-0.5984,0.9243,-0.47,1.3861,1.1865,-0.85,2062
4,-0.7754,0.9438,-0.2651,1.0059,1.3729,-0.4823,2031
4,-0.761,0.7764,-0.3396,0.6271,1.5247,-0.1109,2038
4,-0.905,0.4814,-0.522,0.2401,1.6552,0.091,1991
4,-0.9133,0.3943,-0.6196,-0.0505,1.5788,0.243,2047
4,-0.9548,0.2058,-0.6423,-0.1698,1.1481,0.096,2033
4,-1.2625,-0.1064,-0.4346,0.0996,0.906,-0.0368,2048
4,-1.2998,-0.3059,-0.3687,0.3535,0.763,-0.2852,2070
4,-1.3381,-0.3259,-0.3469,0.6958,0.6148,-0.5083,2047
4,-1.405,-0.2207,-0.3328,1.187,0.4393,-0.744,2044
4,-1.2668,-0.0417,-0.3049,1.6269,0.4171,-1.0762,2038
4,-1.072,0.0125,-0.2737,2.0911,0.3224,-1.5478,2043
4,-0.8972,0.0447,-0.3274,2.5545,0.1209,-2.0961,2044
4,-0.7554,0.0256,-0.4587,2.5786,0.2763,-2.8193,2040
4,-0.7576,0.0969,-0.7539,2.7658,0.4309,-3.0618,2047
4,-0.7236,0.2686,-0.8521,2.9947,0.6263,-3.1806,2048
4,-0.5457,0.2815,-0.9998,3.0939,0.6509,-3.1234,2029
4,-0.396,0.3757,-1.1064,3.3086,0.284,-2.7845,2069
4,-0.2847,0.4871,-1.1592,3.4576,0.0617,-2.5076,2048
4,-0.1462,0.6138,-1.1462,3.3455,-0.1787,-2.463,2079
4,-0.1021,0.47,-1.042,3.0072,-0.6586,-2.4055,1939
4,0.0823,0.5557,-1.3965,3.104,-2.6591,-2.2306,2071
4,0.3899,0.4292,-1.7214,2.7169,-4.3635,-1.9262,1900
4,0.8911,-0.2302,-1.5264,2.149,-4.3635,-1.1026,2139
4,0.428,-1.3237,-1.4309,-0.1698,-4.3635,-0.5982,1942
4,-0.9971,-1.594,-1.8538,-2.227,-4.3635,-0.6819,2089
4,-1.3245,-1.1648,-2.0,-3.5825,-4.3635,-1.038,1992
4,-1.26,-0.4812,-1.5562,-4.3635,-4.3635,-1.3821,2083
4,-1.0444,0.2205,-1.1152,-4.3635,-4.3635,-1.4246,2067
4,-1.0457,0.0146,-0.978,-3.7436,-4.3635,-1.888,1985
4,-0.5383,-0.8486,-0.9421,-3.7462,-4.3635,-1.6471,2097
4,-1.0715,-1.3098,-1.2744,-4.2544,-4.3635,-0.3252,1996
4,-1.293,-1.1404,-1.4583,-4.3635,-4.3635,-0.679,2063
4,-1.2886,-0.7012,-1.3567,-4.3635,-4.3635,-0.3437,2055
4,-1.304,-0.5869,-1.3237,-4.2919,-4.3635,-0.0923,2047
4,-1.3467,-0.7002,-1.2068,-4.3635,-4.3635,0.1408,2084
4,-1.4143,-0.7915,-1.3826,-4.3635,-4.3635,0.4309,2080
4,-1.5483,-0.6287,-1.4275,-4.3635,-4.3635,0.6605,2018
4,-1.6091,-0.5471,-1.2837,-4.3635,-4.3635,0.7248,1970
4,-1.3481,-0.655,-1.127,-4.3635,-4.3635,0.8951,2045
4,-1.2339,-0.7744,-1.1199,-4.3635,-4.3635,0.9456,2046
4,-1.3188,-0.7339,-1.2002,-3.8483,-4.3635,1.0475,2037
4,-1.6731,-0.9204,-1.23,-3.1993,-4.3635,1.154,2020
4,-1.8608,-1.231,-1.5425,-2.5665,-4.3635,1.3175,1964
4,-1.9141,-1.3418,-1.3918,-1.8564,-4.3635,1.7544,2022
4,-1.6143,-1.5791,-1.1846,-1.5817,-4.3635,1.7833,2145
4,-1.468,-1.8203,-1.0532,-1.3539,-4.3635,2.114,2045
4,-1.323,-1.7976,-1.0305,-1.2643,-3.8519,2.2531,2104
4,-1.2305,-1.6499,-1.1777,-1.0247,-3.2187,2.1816,2098
4,-0.9739,-1.6926,-1.0947,-0.6514,-2.8819,2.2854,2074
4,-0.7598,-1.8103,-1.0562,-0.3778,-2.4553,2.4092,2078
4,-0.823,-1.7581,-1.1279,0.2464,-2.3156,2.5187,2137
4,-1.0571,-1.7234,-0.7551,0.4468,-2.0501,2.8452,2051
4,-1.0305,-1.6375,-0.6504,0.5991,-1.2916,3.3456,1999
4,-0.7256,-1.7539,-0.7546,1.0874,-0.6135,2.9319,1979
4,-0.3694,-2.0,-0.3948,1.5653,0.2261,3.2033,2025
4,1.2144,-2.0,-0.3879,1.4246,-1.8815,3.3335,2033
4,-0.2068,-1.2173,-0.2334,1.4475,-1.5206,4.1005,1864
4,-2.0,-0.1497,0.2402,2.6473,-0.8653,3.7712,2005
4,-2.0,-1.0925,0.3538,3.493,1.7161,2.3731,2100
4,-0.6987,-1.8677,0.3638,3.075,3.5675,2.0261,2184
4,-0.5933,-1.8489,-0.0398,2.4384,3.6271,2.2425,2064
4,-1.0293,-1.2915,0.3472,2.5161,3.8471,2.0997,2098
4,-1.3958,-1.2292,0.8301,2.6028,4.1817,1.5384,1842
4,-0.1719,-1.5081,0.5886,3.2172,4.3477,1.2643,1974
4,-0.4958,-1.1987,0.8022,3.8134,3.784,0.9198,1900
4,0.0757,-1.9016,0.5994,4.3634,2.5072,0.4268,2111
4,-0.5032,0.0728,0.0972,4.0656,0.0064,0.2161,2082
4,-0.7749,-0.8599,0.6714,4.0488,-0.1509,-0.2679,2076
4,-0.1672,-1.2708,0.2781,2.9961,0.1155,-1.1587,2106
4,0.012,-1.4817,0.4314,2.7083,0.1028,-1.2579,2186
4,0.6982,-1.9014,0.3545,2.8241,-0.3187,-1.215,2032
4,0.228,-1.9377,0.438,2.6445,-0.8176,-0.7903,1960
4,-0.7549,-1.0823,0.2068,2.9031,-0.5289,-0.7718,1984
4,-0.4624,-0.8652,-0.074,3.3784,0.2009,-1.0344,2047
4,-0.468,-0.457,-0.3464,3.7356,0.2924,-1.4892,2085
4,-0.8401,-0.2654,-0.5471,3.7667,0.461,-1.676,2046
4,-0.3018,-0.7258,-0.2981,3.9395,0.4682,-2.057,2078
4,0.0034,-0.9346,-0.1528,4.3634,0.5129,-2.3605,2092
4,0.1597,-0.8782,-0.1418,4.3634,0.5063,-2.4312,2028
4,0.1401,-0.8066,-0.2676,4.1688,0.6725,-2.5163,2079
4,-0.0073,-0.98,-0.3203,3.7418,0.9969,-2.6019,2074
4,-0.0828,-1.1587,-0.6465,3.1134,1.7347,-2.5838,2033
4,-0.1113,-1.0737,-1.0359,3.0574,2.1485,-2.6376,2083
4,-0.4209,-1.0701,-0.9124,2.7125,2.0125,-2.9074,2126
4,-0.7109,-1.1333,-1.0315,2.2969,1.7084,-2.9138,1973
4,-0.8674,-0.9111,-0.7222,1.7852,1.2054,-2.8303,2115
4,-1.177,-0.8896,-0.8821,0.8592,0.8993,-2.3097,2032
4,-1.1846,-0.9536,-0.7114,0.08,0.2698,-1.8551,2030
4,-1.5835,-1.0044,-1.0332,-0.922,0.3101,-1.6644,2077
4,-1.5938,-0.7666,-1.1719,-1.8656,0.1125,-1.4386,1933
4,-2.0,-0.9666,-1.0154,-2.44,0.8376,-1.1557,1724
4,-1.957,-0.8188,-1.135,-2.3087,1.6643,-1.1231,1915
4,-1.3491,-0.5603,-1.1936,-1.5948,1.9165,-1.2046,2134
4,-0.6604,-0.1833,-1.1653,-0.139,1.3159,-0.9821,2255
4,-0.8518,-0.7605,-0.5757,0.2041,1.293,-0.6213,2166
4,-1.1797,-0.8989,-0.2334,0.1152,1.6602,-0.5785,2114
4,-1.1191,-1.147,0.0667,-0.7291,2.8007,-0.3052,2069
4,-1.0767,-1.3357,0.1558,-1.6784,3.1689,0.2316,2045
4,-0.9387,-1.3533,-0.0005,-2.5324,3.1717,0.5472,1929
4,-0.9751,-1.4536,-0.4814,-2.6871,2.6614,0.6582,1964
5,-0.9604,-1.1255,-0.9397,-2.2124,2.0514,0.491,2050
5,-1.2539,-0.9722,-0.9138,-1.7365,1.3765,0.3709,2138
5,-1.3879,-0.939,-0.8823,-1.6416,0.9317,0.3438,2132
5,-1.1611,-0.9253,-0.4641,-1.6134,0.5775,0.2891,2105
5,-0.9319,-0.989,-0.0403,-1.8615,0.075,0.4566,2071
5,-0.8354,-1.0522,-0.1721,-2.3232,-0.1188,0.551,2071
5,-0.613,-0.8735,-0.3389,-2.0638,-0.2542,0.3883,1999
5,-0.6768,-0.7346,-0.6052,-1.6161,-0.0558,0.2808,2044
5,-0.8489,-0.7661,-0.4736,-1.0527,-0.1153,0.1775,2089
5,-0.6587,-0.8975,-0.3284,-1.026,0.1989,0.267,2116
5,-0.6172,-1.0198,-0.3459,-0.9746,0.6172,0.6042,2089
5,-0.8547,-1.0552,-0.3164,-1.1551,0.7875,0.7819,2030
5,-0.7632,-0.8396,-0.3635,-1.1632,0.9188,0.7383,2026
5,-0.8372,-0.9597,-0.293,-1.2745,0.7047,0.9827,2002
5,-0.917,-1.0037,-0.3928,-1.441,0.2962,0.9361,1953
5,-0.8301,-0.8784,-0.49,-1.499,0.0545,0.907,2030
5,-0.6116,-0.8079,-0.4988,-1.1749,-0.2345,0.5364,2021
5,-0.4451,-0.7378,-0.552,-0.6825,-0.1345,0.3215,1986
5,-0.3267,-0.9768,-0.2468,-0.4083,-0.3353,0.31,2013
5,-0.4973,-1.1501,-0.2034,-0.263,-0.302,0.2523,2144
5,-0.5327,-1.2751,-0.2151,-0.2971,-0.3734,0.2256,2063
5,-0.6909,-1.1382,-0.5129,-0.4779,-0.2625,0.2499,2015
5,-0.7744,-0.9834,-0.5923,-0.5959,-0.3574,0.4549,2018
5,-0.9126,-0.6753,-0.7229,-0.4456,-0.216,0.4454,2049
5,-0.865,-0.7209,-0.6553,-0.3662,-0.1186,0.7802,2005
5,-0.9304,-0.8723,-0.7019,-0.4291,-0.1345,0.7753,2021
5,-0.9019,-0.9539,-0.6743,-0.3867,-0.1539,0.8524,2076
5,-0.9785,-1.0059,-0.6924,-0.4809,-0.1176,0.8361,2149
5,-0.7576,-1.0198,-0.592,-0.3739,-0.1151,0.6197,2068
5,-0.4402,-0.9429,-0.552,-0.2027,-0.0968,0.4635,2042
5,-0.4475,-0.9939,-0.4758,-0.0672,-0.2205,0.4878,1918
5,-0.4519,-1.0698,-0.4033,0.2069,-0.2558,0.6664,2140
5,-0.678,-1.1711,-0.5737,0.2368,-0.1083,0.7817,2168
5,-0.8738,-1.1492,-0.6086,0.1926,0.0465,0.8079,2026
5,-0.7559,-1.0696,-0.7305,0.2662,-0.1228,0.8039,2105
5,-0.8,-0.8435,-0.8623,0.3404,-0.0131,0.7088,1869
5,-0.7773,-0.7734,-0.9194,0.4703,-0.2337,0.7052,2045
5,-0.6018,-0.833,-0.9819,0.5568,-0.2912,0.8568,2043
5,-0.7966,-0.7874,-0.8794,0.6795,-0.4582,0.7171,2004
5,-0.9043,-0.9048,-0.9973,0.8612,-0.1459,0.7449,2154
5,-0.7178,-0.9844,-0.8672,1.01,0.0065,0.7235,2129
5,-0.5681,-0.7993,-0.7847,1.135,0.2141,0.4761,2231
5,-0.4053,-0.9016,-0.8662,1.2714,0.2858,0.5855,2159
5,-0.5352,-1.0203,-0.9233,1.3916,0.2168,0.7766,2200
5,-0.5476,-0.9629,-1.0754,1.3816,0.2189,0.8126,2183
5,-0.6338,-0.8232,-1.1411,1.5098,0.0471,1.011,1951
5,-0.7456,-0.9189,-1.3296,1.5823,0.1465,1.2555,2080
5,-1.2014,-0.7173,-1.1775,1.7033,0.1509,1.0989,2216
5,-1.0117,-0.7703,-1.4031,1.743,0.3935,1.2423,2005
5,-1.1958,-0.686,-1.0933,1.7748,0.2337,1.0219,1835
5,-1.1587,-0.8096,-1.2878,1.7731,0.3385,0.9757,2036
5,-1.156,-0.8875,-1.1128,1.8021,0.0177,0.708,1911
5,-1.1035,-0.8992,-1.2739,1.8796,-0.1079,0.6071,2055
5,-0.9238,-0.6379,-1.0925,1.9177,-0.4564,0.331,1776
5,-0.8088,-0.5366,-1.2454,2.1093,-0.7636,0.665,2176
5,-0.6292,-0.3591,-1.2632,2.2834,-0.5107,0.6701,1958
5,-0.7161,-0.5632,-1.5552,2.3296,-0.8922,1.2793,1970
5,-0.583,-0.5818,-1.6094,2.5955,-0.4177,1.5109,2109
5,-0.7849,-0.7385,-1.7949,2.8598,-0.4402,1.8366,2052
5,-0.905,-0.7263,-1.8953,2.9739,-0.0691,1.861,2032
5,-0.9961,-0.4285,-1.845,3.0396,-0.0146,1.9664,2176
5,-0.9841,-0.1626,-1.8877,2.9416,-0.09,1.9884,1866
5,-0.782,0.1614,-1.4421,2.8585,-0.6735,2.0873,1957
5,-1.0247,0.0906,-1.6401,2.9696,-1.007,2.6574,2229
5,-1.02,0.0049,-1.8162,2.8022,-1.9333,2.7577,2163
5,-1.1868,0.4561,-1.5115,2.9696,-2.2827,3.2753,2086
5,-1.353,0.4805,-1.7141,2.9293,-2.2218,3.7436,2073
5,-1.3308,0.6484,-1.1814,3.0937,-2.3527,3.998,2060
5,-1.072,0.4287,-1.2981,2.9741,-2.8576,3.9897,2058
5,-1.0708,0.6487,-1.0596,2.9371,-3.1594,3.9257,2080
5,-0.946,0.5212,-1.1067,2.7951,-3.7487,3.9331,2085
5,-0.6606,1.1077,-1.0957,2.9939,-3.6728,3.8941,2032
5,-0.6187,1.0879,-1.0679,3.0584,-3.9299,4.0889,2076
5,-0.5403,0.8811,-1.0498,3.0959,-3.5521,4.3634,2030
5,-0.8052,0.7297,-0.7185,3.2188,-3.06,4.3634,1991
5,-0.7095,0.6472,-0.4058,3.6539,-2.6201,4.3634,2121
5,-0.2957,0.1414,-0.3035,3.9214,-2.9143,4.3634,2064
5,-0.5181,0.0698,-0.6885,4.1146,-3.4043,4.3634,2133
5,0.0276,0.6191,-0.8171,3.8592,-3.7757,4.3634,2038
5,-0.2429,0.9241,-0.2361,4.0341,-3.7055,4.2979,2038
5,-0.4143,0.312,0.2595,4.3634,-3.3003,3.8906,2010
5,-0.1924,-0.6814,-0.4285,4.3634,-3.7628,3.0488,1937
5,-0.3381,0.019,-1.0281,4.3485,-2.8316,3.02,2111
5,-0.4792,0.1528,-0.8008,4.3634,-2.1338,2.4191,2008
5,0.1079,0.0723,-0.9336,4.1186,-2.1723,1.7952,2022
5,0.0701,0.189,-0.9351,4.0608,-1.5044,1.5145,2167
5,-0.4026,-0.2415,-0.6948,3.8848,-0.7191,0.9533,1962
5,0.0266,0.2061,-0.5513,3.852,-0.6707,1.0544,2016
5,0.0117,0.1685,-0.3652,3.7773,-0.9321,1.1094,2020
5,-0.0464,0.3196,-0.8193,3.4625,-1.0384,1.3395,2045
5,-0.0815,0.5288,-0.4858,3.8492,-1.1026,1.6522,2016
5,-0.2583,0.292,-0.615,3.6475,-1.0716,1.5829,2041
5,-0.261,0.3438,-0.8179,3.5814,-0.5781,1.4779,2060
5,-0.2432,0.3167,-0.802,3.2766,-0.132,1.3123,2038
5,-0.1746,0.5479,-0.6182,3.0399,0.1666,1.1208,2032
5,-0.176,0.7417,-0.5183,2.8938,0.2205,1.0388,2043
5,-0.1997,0.873,-0.3765,3.1127,0.4051,0.9369,2049
5,-0.1938,0.8638,-0.4365,3.1156,0.5185,0.749,2028
5,-0.4675,0.7517,-0.353,2.9929,0.3605,0.4111,2030
5,-0.4158,0.5879,-0.3755,2.6739,0.3216,-0.3317,2000
5,-0.5535,0.5925,-0.3154,2.53,0.1711,-0.7727,2038
6,-0.5686,0.3855,-0.4167,1.9674,0.0892,-1.6861,2030
6,-0.8079,0.2668,-0.5586,1.3956,-0.0866,-2.2308,2038
6,-0.9795,0.4539,-0.5361,1.0022,0.4781,-2.8691,2048
6,-0.9199,0.4146,-0.8042,0.2321,1.3167,-2.8683,2038
6,-0.4915,0.4421,-0.8804,-0.0735,1.1717,-2.3723,2106
6,-0.3857,0.6765,-0.7861,0.0081,1.0527,-1.8024,2082
6,-0.3477,0.6594,-0.6409,0.3009,1.0263,-1.2716,2008
6,-0.6138,0.6748,-0.4729,0.7295,1.1291,-0.7851,2064
6,-0.771,0.4868,-0.4922,0.8463,1.0319,-0.4718,2081
6,-1.0054,0.2432,-0.5991,0.4328,0.7995,-0.4496,1996
6,-1.3757,0.0791,-0.6711,-0.0245,0.8271,-0.5357,2025
6,-1.5476,0.1172,-0.5813,-0.1192,0.9198,-0.9287,2013
6,-1.3682,0.0474,-0.7441,-0.4217,0.7134,-1.1552,2059
6,-1.167,0.0071,-0.9739,-0.5858,0.4406,-1.2202,2209
6,-0.9355,0.0806,-0.8943,-0.4725,0.2653,-1.348,2071
6,-0.9243,0.283,-0.6592,-0.3059,0.3517,-1.4797,2079
6,-0.906,0.2261,-0.6218,-0.387,0.691,-1.3336,2061
6,-0.8237,0.3762,-0.6304,-0.5248,0.9292,-1.1286,2036
6,-0.8162,0.4104,-0.728,-0.7158,0.9562,-0.9172,2061
6,-0.7983,0.2134,-0.7925,-0.9569,0.7688,-0.8858,2006
6,-0.8757,0.2224,-0.8174,-1.0175,0.8035,-1.0116,2021
6,-0.7815,0.2209,-0.8079,-0.995,0.9196,-1.2362,2085
6,-0.6992,0.1624,-0.6978,-0.8935,1.1146,-1.4519,2010
6,-0.6833,0.2119,-0.426,-0.6307,1.1018,-1.5993,2065
6,-0.615,0.291,-0.3926,-0.4894,0.862,-1.4822,2031
6,-0.7625,0.2839,-0.6702,-0.6693,0.4478,-1.4814,2060
6,-0.7207,0.0632,-0.793,-1.062,0.112,-1.9205,2052
6,-0.7136,0.1038,-0.5503,-1.0159,0.1147,-2.8418,2083
6,-1.0049,0.1506,-0.2517,-0.4048,0.1341,-3.544,2081
6,-0.7998,-0.2495,-0.718,-0.5882,0.5233,-3.7135,1970
6,-0.719,-0.2,-0.8601,-0.7114,0.6574,-3.519,1971
6,-0.7292,-0.23,-0.9167,-1.0324,0.375,-3.2883,2028
6,-0.6226,0.0166,-0.887,-1.3179,0.412,-3.0767,2095
6,-0.8645,0.2026,-0.6968,-1.2105,0.6922,-3.0694,2039
6,-0.9214,0.0649,-0.8337,-1.1898,1.0569,-3.1039,1979
6,-0.5913,0.0269,-0.7432,-1.1505,1.2326,-2.8444,2029
6,-0.5723,0.0654,-0.718,-1.1894,1.0746,-2.4394,2038
6,-0.6487,0.2234,-0.6235,-0.9304,1.1664,-2.2812,2058
6,-0.7236,0.3101,-0.5376,-0.5488,1.0797,-2.202,2050
6,-0.7739,0.2146,-0.3635,-0.0031,0.9395,-2.394,2065
6,-1.1655,-0.0547,-0.2998,0.5702,0.6793,-2.7741,2028
6,-1.5303,-0.406,-0.4519,0.594,0.7735,-2.9477,2042
6,-1.5449,-0.5164,-0.6858,0.3404,0.5269,-2.9886,2014
6,-1.2209,-0.5552,-0.8372,0.2687,0.2306,-3.1933,2044
6,-1.1697,-0.532,-0.7073,0.3338,0.0246,-3.3905,2044
6,-1.2913,-0.7483,-0.7686,0.1915,-0.2005,-3.2163,2046
6,-1.0847,-0.9651,-1.0391,-0.1519,-0.3972,-2.8408,2045
6,-0.876,-0.8101,-1.0181,-0.4299,-0.4318,-2.9353,2050
6,-0.9768,-0.4514,-0.8728,-0.6477,-0.4524,-2.7778,2050
6,-0.9617,-0.2715,-0.9272,-0.5243,-0.2743,-2.4633,2032
6,-0.9216,-0.0764,-0.7732,-0.118,-0.0858,-2.2894,2048
6,-0.967,-0.0588,-0.6072,0.1735,-0.0044,-1.8648,2046
6,-0.8386,-0.0552,-0.6143,0.4099,-0.129,-1.8789,2047
6,-0.7725,0.1274,-0.6406,0.6464,-0.1101,-2.0598,2019
6,-0.9114,0.2439,-0.6304,0.9505,-0.0787,-2.2708,1984
6,-0.8147,0.1096,-0.5632,1.0945,-0.0647,-2.3543,2061
6,-0.6797,-0.1755,-0.7561,1.1531,-0.5726,-2.7939,2060
6,-0.6829,-0.2988,-0.8943,1.1155,-0.8815,-2.9975,2045
6,-0.7344,-0.2634,-0.9329,1.2748,-1.1109,-3.0678,2061
6,-0.6753,-0.2405,-0.8428,1.3728,-1.4908,-3.111,2045
6,-0.522,-0.2695,-0.845,1.3861,-1.8512,-3.1857,2070
6,-0.4546,-0.2974,-0.8689,1.4547,-2.0562,-3.0907,2009
6,-0.4902,-0.3005,-0.8486,1.6901,-2.2571,-2.9132,2051
6,-0.3953,-0.3438,-0.8086,1.7977,-2.538,-2.8541,2058
6,-0.3115,-0.3674,-0.8689,1.6941,-2.8233,-2.7201,2061
6,-0.3298,-0.3416,-0.9854,1.5716,-2.4121,-2.5254,2070
6,-0.3042,-0.3335,-1.0171,1.3934,-2.5774,-2.2065,2055
6,-0.25,-0.2622,-1.197,0.6835,-3.1842,-1.8702,2141
6,-0.3279,-0.5398,-1.3723,0.5316,-3.3884,-1.8298,2029
6,-0.3579,-0.696,-1.3721,0.3083,-3.5063,-1.5508,2062
6,-0.1279,-0.7339,-1.5115,-0.3637,-3.3802,-1.5888,2035
6,0.2935,-0.8359,-1.5439,-1.3487,-3.4874,-0.8684,2084
6,0.1797,-0.9624,-1.4167,-1.6731,-4.003,-0.6221,2075
6,-0.2581,-0.9446,-1.4119,-2.1743,-4.3635,-0.747,2011
6,-0.3071,-0.4861,-1.1252,-2.1779,-4.0202,-1.6667,2111
6,-0.3936,-0.1472,-1.0874,-2.263,-3.4885,-2.1001,2132
6,-0.6401,-0.2617,-1.1057,-1.9453,-3.7042,-2.0334,1971
6,-0.6267,-0.7917,-1.0684,-1.788,-3.6171,-1.2932,2043
6,-0.9404,-1.6111,-0.9702,-2.0126,-3.3062,-1.2789,2078
6,-0.845,-2.0,-0.5747,-2.747,-2.7553,-0.7678,2077
6,-1.0503,-1.7561,-0.7129,-3.7902,-3.7656,-0.7,2051
6,-1.3137,-1.1702,-0.8025,-4.1431,-4.2016,-0.3175,2105
6,-1.2021,-1.2314,-0.8804,-4.3635,-4.1259,-0.1057,1938
6,-1.48,-0.9338,-1.0378,-4.3635,-3.4793,0.3898,1994
6,-1.3123,-1.0498,-1.3062,-4.3635,-3.3957,0.4184,2052
6,-0.8613,-1.1365,-1.1709,-4.3635,-3.6846,0.1095,2069
6,-0.6431,-0.7271,-0.9067,-4.3635,-3.6861,-0.3236,2043
6,-0.4253,-0.7095,-1.1162,-4.3635,-4.1321,-0.3514,2021
6,-0.6062,-0.5559,-1.4529,-4.3635,-4.3635,-0.1521,2022
6,-0.9414,-0.5591,-1.313,-4.3635,-4.1927,0.1201,2044
6,-0.9397,-0.8145,-1.1897,-4.3635,-4.3635,0.1798,2038
6,-1.2224,-0.769,-1.3447,-4.3635,-4.3635,0.3532,2051
6,-0.9624,-0.96,-1.3621,-4.3635,-4.3635,0.1811,2050
6,-0.9338,-1.0579,-1.3113,-4.3635,-4.3635,0.461,2042
6,-0.9712,-1.0461,-1.2063,-4.3635,-4.3635,0.3518,2053
6,-0.9744,-1.217,-1.1121,-4.0883,-4.0937,0.5014,2067
6,-0.8596,-1.3264,-1.156,-3.9471,-3.7115,0.7818,2048
6,-0.7141,-1.418,-1.1309,-3.7027,-3.5228,0.9776,2018
6,-0.6965,-1.4705,-0.9263,-3.4115,-3.8269,1.1505,2026
6,-0.8835,-1.655,-0.6926,-3.217,-4.1907,1.248,1984
6,-0.9761,-1.5784,-0.6565,-3.2484,-4.0496,1.6058,2070
6,-1.1775,-1.3398,-0.6841,-3.0791,-3.2072,1.8354,2037
7,-0.7949,-1.3516,-0.5969,-2.7899,-2.8813,1.9999,2028
7,-0.7432,-1.1296,-0.5354,-2.7421,-2.5421,2.3224,2064
7,-0.7849,-1.1807,-0.5391,-2.5376,-2.4581,2.6039,2053
7,-0.8103,-0.9878,-0.5706,-2.5069,-2.1578,2.7855,2047
7,-1.2197,-0.7695,-0.6199,-2.1106,-1.7142,2.9047,2135
7,-1.1377,-0.8264,-0.2844,-1.8562,-1.3226,2.438,2066
7,-1.1436,-1.165,-0.3733,-2.1213,-1.6836,2.4667,2038
7,-0.8325,-0.5388,-0.5144,-1.8678,-1.9309,2.2044,2021
7,-0.719,-0.3516,-0.2686,-1.5334,-2.2336,2.1031,1997
7,-0.563,-0.3767,-0.2061,-0.9716,-3.5078,1.9061,2109
7,-1.0085,-0.6406,-0.3975,-0.6388,-3.7391,1.7214,2082
7,-1.2529,-0.7283,-0.4197,-0.3497,-3.4049,1.5037,2042
7,-1.1729,-0.8655,-0.4253,-0.2004,-2.6721,0.9962,2065
7,-0.9563,-0.9832,-0.27,0.2619,-1.9973,1.3659,2042
7,-0.3999,-1.0225,-0.2754,0.3679,-0.9035,1.7721,2075
7,-0.0779,-0.9883,-0.001,0.9696,-1.4045,2.3767,2054
7,-0.4363,-0.7961,-0.1033,0.9863,-1.237,1.3335,2010
7,-0.4448,-0.8315,0.0105,1.5446,-1.3944,1.1637,2048
7,-0.9641,-0.3442,0.074,2.0045,-0.6943,0.9159,1978
7,-0.9399,-0.6191,0.0171,2.3297,0.0168,0.7967,2057
7,-0.8953,-0.4885,0.1106,2.6617,0.6216,0.6456,2032
7,-0.7476,-0.4011,0.1372,2.9984,1.2857,0.7172,2050
7,-0.8809,-0.2839,-0.0134,3.312,1.572,0.6486,2054
7,-1.1414,-0.1489,-0.1292,3.7719,2.5617,0.4777,2067
7,-1.4727,-0.3816,0.3376,4.182,3.3231,0.2554,1998
7,-1.427,-0.7534,0.5115,4.1872,4.3634,0.3302,2126
7,-1.4626,-0.5396,0.5457,4.016,4.3634,-0.0321,2103
7,-1.1147,-0.7158,0.7312,3.7524,4.3634,-0.1451,2079
7,-0.3037,-0.9004,0.5659,3.6378,4.3634,-0.2771,2030
7,0.1541,-0.9722,0.6877,3.4296,3.8227,-0.4758,1989
7,0.3298,-1.0061,0.4312,3.6423,2.7063,-0.299,2013
7,-0.1946,-0.9363,0.2859,3.3975,1.6379,-0.3409,2000
7,-0.0198,-1.3635,0.1133,2.9706,1.3569,-0.2622,2019
7,0.1821,-1.4944,-0.0488,2.6848,0.9638,-0.038,2019
7,-0.3245,-1.408,-0.3284,2.7054,0.7396,-0.1408,2023
7,-0.146,-1.4941,-0.4529,2.6064,0.7809,-0.3219,2059
7,0.2256,-1.4661,-0.4443,2.3778,1.0602,-0.3456,2021
7,0.6453,-1.6843,-0.126,2.0046,0.2561,-0.6328,2040
7,0.4019,-1.4226,-0.2917,1.8856,-0.3729,-1.2386,2009
7,0.3926,-1.5232,-0.1758,1.6799,-1.1913,-1.7004,2043
7,0.3384,-1.4595,-0.2822,1.1453,-1.943,-2.1925,2054
7,0.3818,-1.3767,-0.5354,0.7941,-2.2783,-2.9477,2035
7,0.0007,-1.1016,-0.5955,0.5055,-2.916,-3.5647,2050
7,-0.0247,-1.0969,-0.9084,0.393,-3.2858,-4.2228,2025
7,-0.2268,-0.8823,-1.3757,1.3328,-2.2531,-4.3635,2045
7,-1.2573,-0.8721,-1.3057,1.8852,-1.0082,-4.3635,2076
7,-1.2009,-1.0083,-1.1067,2.1494,0.6714,-4.3635,2076
7,-1.1455,-1.1819,-0.7402,2.0547,1.7029,-4.1983,2092
7,-1.207,-1.2888,-0.6772,1.4793,1.903,-3.9568,2054
7,-1.2039,-1.3264,-0.9177,0.974,1.7499,-3.7054,2017
7,-1.3738,-1.3047,-1.0493,0.436,0.9435,-3.3519,2082
7,-1.8579,-1.4954,-1.4045,-0.0847,0.3621,-2.3398,2032
7,-2.0,-1.166,-1.5667,-0.7622,0.1281,-1.7379,2039
7,-2.0,-0.825,-1.4219,-0.6747,0.7243,-1.26,2046
7,-2.0,-1.0024,-1.021,-0.5018,1.105,-0.7127,2064
7,-2.0,-1.0286,-0.8569,-0.3886,1.7281,-0.2308,2118
7,-2.0,-1.092,-0.3257,0.0602,1.5554,0.1362,2044
7,-1.7224,-1.1951,-0.2485,-0.1376,2.0877,0.4641,2066
7,-1.4475,-1.0259,0.1069,-0.0566,2.378,0.6661,2049
7,-0.8838,-1.1292,0.4602,0.0333,1.7839,0.8143,2049
7,-0.4143,-1.2192,0.5029,-0.1856,1.0509,0.6715,2042
7,-0.311,-1.1484,0.5647,0.1208,0.43,0.6948,2048
7,-0.4021,-1.1951,0.2949,-0.116,0.2465,0.6702,2047
7,-0.3096,-1.2371,0.3428,-0.0384,0.5205,0.7257,2060
7,-0.2649,-1.1123,0.1545,-0.2111,0.3673,0.5542,2038
7,-0.1365,-1.2021,-0.1067,-0.1687,0.2358,0.6177,2036
7,-0.1924,-0.8506,-0.5193,-0.2053,0.4398,0.204,2041
7,-0.3589,-0.6953,-0.645,0.3437,0.7742,0.1967,2055
7,-0.469,-0.7585,-0.6804,0.5209,1.0813,0.2208,2062
7,-0.6323,-0.7607,-0.6514,0.6845,1.2808,0.3035,2072
7,-0.8206,-0.8623,-0.6794,0.5955,1.4316,0.5813,2044
7,-0.9556,-0.998,-0.7212,0.6914,1.5082,0.5645,2058
7,-0.8369,-1.23,-0.6365,0.5882,1.4492,0.656,2073
7,-0.822,-1.1436,-0.5969,0.4566,1.4804,0.6746,2034
7,-0.8445,-1.0364,-0.5381,0.414,1.4953,0.7167,2043
7,-0.8469,-0.9868,-0.437,0.1699,1.5137,0.8569,2037
7,-0.8579,-0.7747,-0.6399,-0.2117,1.2102,0.9293,2027
7,-0.8665,-0.7385,-0.6177,-0.2176,0.9584,1.142,2018
7,-0.9922,-0.7429,-0.4565,-0.3328,0.6795,1.5419,2041
7,-0.9683,-0.738,-0.4175,-0.3541,0.1928,1.7432,2079
7,-0.8984,-0.8608,-0.4807,-0.1679,-0.118,1.7217,2029
7,-0.667,-0.9043,-0.3184,-0.0177,-0.3512,1.4974,2076
7,-0.4128,-1.0264,-0.4729,-0.1033,0.0177,1.2712,2005
7,-0.3135,-1.0625,-0.5315,-0.3509,0.1254,1.0832,2079
7,-0.28,-0.9233,-0.791,-0.6223,0.8504,1.1519,1982
7,-0.407,-0.8496,-1.1816,-1.0981,1.4046,1.0128,2074
7,-0.4956,-0.7222,-1.5183,-1.2679,1.6524,1.0397,2079
7,-0.6326,-0.6467,-1.4744,-1.0212,2.0446,1.1211,2069
7,-0.9133,-0.5503,-1.2832,-0.6035,2.2956,1.1576,2060
7,-0.6492,-0.5198,-0.9121,-0.1736,2.1005,0.8692,2065
7,-0.3997,-0.626,-0.4399,0.2093,1.8717,0.5888,2041
7,-0.457,-0.9065,0.0674,0.5012,1.2475,0.422,2001
7,-0.3762,-1.0034,0.4265,0.4938,1.2926,0.296,2108
7,-0.2393,-1.0911,0.4678,0.4579,0.9099,0.0932,2174
7,0.0938,-1.1438,0.1294,0.3159,0.6024,-0.1266,1974
7,0.521,-1.2249,-0.2178,0.1412,-0.1397,-0.509,2073
7,0.1711,-1.0012,-0.7732,-0.2104,-0.6886,-0.6598,2010
7,-0.3599,-0.8564,-1.176,-0.4715,-0.034,-0.5624,1987
7,-0.741,-0.6587,-1.2612,-0.3991,0.5984,-0.4016,2042
7,-1.072,-0.5352,-1.1362,-0.2734,1.5451,-0.2278,2015
7,-0.7061,-0.8254,-0.8804,-0.3524,1.6863,-0.0433,1975
7,-0.6025,-0.6812,-0.6387,-0.0423,1.4268,-0.066,2009
7,-0.7275,-1.0056,-0.4739,-0.0614,1.1047,-0.1629,2073
8,-0.7485,-0.8899,-0.3792,-0.1261,0.7212,-0.1779,1986
8,-0.7161,-1.1067,-0.3174,-0.1526,0.4374,-0.1565,2046
8,-0.4609,-1.1741,-0.3303,-0.273,0.0772,-0.208,2178
8,-0.4614,-1.0122,-0.5347,-0.3019,-0.0463,-0.3196,2002
8,-0.3074,-1.2104,-0.6592,-0.5204,-0.2947,-0.3522,2019
8,-0.6023,-0.6631,-1.1191,-0.6104,-0.228,-0.3173,2097
8,-0.2253,-0.9456,-1.1648,-0.8863,-0.7007,-0.3153,2020
8,-1.4578,-0.2988,-1.2874,-0.7425,-0.1278,0.0474,1930
8,-1.0366,-0.7358,-1.2529,-0.4442,0.5827,0.2008,2119
8,-1.1938,-0.8394,-1.2246,-0.6291,0.3458,0.3366,2142
8,-0.8923,-0.9033,-1.0061,-0.5054,-0.0783,0.2478,2027
8,-1.0513,-0.894,-1.0498,-0.608,-0.4922,0.3718,2065
8,-1.1533,-0.8384,-0.9209,-0.4774,-0.5695,0.2923,1993
8,-0.658,-1.2703,-0.6436,-0.451,-1.0694,0.1654,2102
8,-0.8591,-1.1748,-0.6946,-0.7024,-1.4784,-0.0071,1941
8,-0.6956,-1.1631,-0.4641,-0.8781,-1.9578,-0.1434,2150
8,-0.5,-1.3127,-0.4368,-1.3243,-2.0892,-0.2466,2106
8,-0.5122,-0.9126,-0.7417,-1.5597,-2.591,-0.5213,1835
8,-0.5098,-0.8733,-0.7888,-1.4621,-2.9586,-0.3205,2114
8,-0.5867,-0.6055,-0.835,-1.4693,-2.8926,-0.7505,2054
8,-0.7939,-0.374,-1.0037,-1.3862,-2.7287,-0.7577,1990
8,-1.1953,-0.3015,-0.9475,-1.1817,-1.9366,-0.6369,2132
8,-1.5747,0.1501,-1.0586,-0.859,-1.15,-0.7012,2087
8,-1.3293,0.6091,-1.0376,-0.4184,-0.736,-0.5208,2029
8,-1.3442,0.884,-1.0957,0.0807,-0.5442,-0.2746,1976
8,-1.3286,0.7996,-1.104,0.4117,-0.4193,0.3185,2107
8,-0.7864,0.095,-0.79,0.7636,-0.6873,0.954,2012
8,-0.886,-0.697,-0.6653,0.6714,-0.2775,1.2358,1981
8,-1.7126,-0.6248,-0.4631,0.3481,-0.3183,1.0638,2024
8,-1.4653,-0.5146,-0.5085,0.1731,-0.3392,1.0339,2116
8,-1.4451,-0.3691,-0.5625,0.004,-0.4322,0.6241,1930
8,-1.1855,-0.5259,-0.5303,-0.1071,-0.4522,0.3851,2116
8,-1.0024,-0.6692,-0.7737,-0.0703,-0.9588,0.1254,2149
8,-0.8777,-0.7344,-0.8647,0.0605,-1.3524,-0.2039,2077
8,-0.5662,-0.7683,-0.8975,-0.0116,-1.0736,0.1148,1966
8,-0.5969,-0.5432,-0.7917,-0.1075,-0.865,0.3524,2141
8,-0.7358,-0.3069,-0.8408,-0.0352,-0.2169,0.5871,2040
8,-0.7405,-0.2456,-0.8303,0.0306,0.2425,0.8973,2067
8,-0.6523,-0.3845,-0.7688,0.0394,0.3938,0.9436,1980
8,-0.6462,-0.5732,-0.6626,-0.0555,0.4318,0.757,1988
8,-0.5608,-0.8899,-0.4768,-0.1072,0.2121,0.4631,2179
8,-0.5039,-0.7734,-0.5977,-0.1806,0.355,-0.0819,2003
8,-0.2251,-0.698,-0.4883,-0.1418,0.2579,-0.344,2185
8,-0.2498,-0.7129,-0.5164,0.0246,0.2858,-0.4593,2054
8,-0.1643,-0.7139,-0.4668,0.2454,0.0258,-0.5749,2032
8,-0.1355,-0.6851,-0.491,0.3723,-0.1939,-0.7408,2109
8,-0.385,-0.73,-0.562,0.3369,-0.4369,-0.8331,1915
8,-0.6204,-0.6453,-0.6519,0.257,-0.386,-0.9572,2082
8,-0.8657,-0.5901,-0.6929,0.1831,-0.1036,-0.8732,2038
8,-0.8818,-0.4395,-0.6868,0.1041,0.0714,-0.7399,1975
8,-0.8459,-0.4631,-0.6218,0.2157,0.0699,-0.4032,2069
8,-0.9126,-0.4641,-0.6201,0.247,-0.0166,-0.2589,2118
8,-0.8545,-0.7275,-0.5552,0.0878,-0.1097,0.232,1925
8,-0.866,-1.2207,-0.2966,-0.0083,-0.3587,0.5283,2014
8,-0.8423,-1.1401,-0.4355,-0.2225,-0.0434,0.257,1764
8,-0.6667,-1.7212,-0.2112,-0.3659,-0.4256,0.4249,2097
8,-0.7065,-1.5242,-0.2861,-0.5426,-0.7814,0.0997,1949
8,-0.5435,-1.1204,-0.2131,-0.361,-1.0006,0.0007,1939
8,-0.6753,-0.7927,-0.4509,-0.4394,-1.1358,0.1586,2114
8,-0.7209,-0.5747,-0.3398,-0.0899,-1.3129,0.1368,2123
8,-0.6182,-0.4453,-0.6067,0.281,-1.0487,0.2779,2030
8,-0.7273,-0.2568,-0.5654,0.5361,-1.2067,0.375,2145
8,-1.0247,-0.1895,-0.7375,0.6003,-0.5422,0.5609,1959
8,-1.1646,-0.1409,-0.8384,0.6384,-0.2808,0.7421,1996
8,-0.906,0.0933,-0.9692,0.7212,0.222,1.0239,2058
8,-0.8757,0.3657,-1.1199,0.7629,0.2109,1.2908,2104
8,-0.7051,0.4695,-1.1494,0.8135,-0.1266,1.727,2013
8,-0.949,0.4465,-1.186,0.7425,-0.3069,1.9969,2121
8,-1.4351,0.1594,-1.2891,0.2747,-0.2787,2.0437,2054
8,-1.5735,0.0554,-1.3669,0.0013,-0.1988,1.9928,1971
8,-1.3845,-0.1538,-1.3108,-0.4024,0.0285,1.9671,2169
8,-1.24,-0.3564,-1.3228,-0.5853,0.0886,1.7916,2018
8,-1.0371,-0.262,-1.0896,-0.5051,-0.0566,1.4241,2072
8,-0.5557,-0.7559,-0.9519,-0.7628,-0.5291,0.8738,1989
8,-0.4839,-0.1709,-0.5803,-0.4856,-1.1654,0.3525,2096
8,-0.4382,-0.1426,-0.9014,-0.7926,-1.7334,0.1136,2102
8,-0.7686,-0.406,-0.6167,-0.2296,-1.6475,-0.0202,2003
8,-0.1208,-0.6184,-0.4739,0.0802,-1.4549,-0.4318,2108
8,-0.8723,-0.9812,-0.8806,0.3272,-0.1015,-0.488,1943
8,-0.7488,-0.8315,-1.1677,0.1603,-0.0316,-0.7416,2046
8,-0.1008,0.0012,-0.5623,0.3115,0.8879,-0.9235,2104
8,-0.5784,-0.6936,-1.293,0.0587,0.9395,-0.8395,2094
8,-0.2837,0.1111,-0.873,0.3569,1.0441,-1.1958,1961
8,-0.6086,1.3677,-1.0005,0.8027,0.7533,-1.451,1917
8,-0.0352,0.9954,-1.0454,1.1603,0.9479,-0.0535,2355
8,-1.9866,0.7935,-1.0386,1.5278,1.7214,0.4189,2052
8,-1.24,0.4836,-0.6282,1.6363,2.2296,0.6598,2276
8,-1.3433,-0.0227,-0.4651,1.7358,2.1849,0.9578,2114
8,-1.615,-0.2932,-0.3442,1.8246,2.0623,0.6039,2203
8,-1.3789,-0.1323,-0.2207,1.6038,1.4575,0.3918,2172
8,-1.6321,-0.1472,-0.0796,1.7456,1.0123,0.2815,2012
8,-0.8787,-0.3147,-0.4692,1.5319,0.5244,-0.1531,2020
8,-0.9202,-0.5061,-0.676,1.3149,-0.227,-0.0533,2051
8,-0.8123,-1.0332,-1.0212,1.0584,-0.5464,-0.208,1985
8,-1.3208,-0.8879,-0.9788,0.8935,-0.3173,-0.0281,1885
8,-0.8567,-1.3499,-1.2876,0.5617,0.1923,-0.0112,2116
8,-1.0737,-1.3923,-1.1609,0.2116,0.4623,0.329,2062
8,-0.3481,-0.7275,-1.4304,-0.2743,0.1743,-0.453,2098
8,-0.3062,0.2488,-1.0725,0.0201,0.2748,-0.4576,2097
8,-0.3311,0.7202,-1.0759,0.0461,0.3533,-0.4291,1993
8,-0.1709,0.4243,-0.8435,0.1992,1.0007,-0.1213,2079
9,-0.5862,0.8682,-0.7537,0.2622,1.5709,0.1631,2123
9,-0.5044,1.0325,-0.5142,0.1927,1.8916,-0.0185,1880
9,-0.9712,1.4485,-0.7478,0.2127,2.53,-0.3271,2033
9,-0.7498,1.1089,-0.5398,0.0362,2.1968,-0.3064,2122
9,-0.7502,0.3425,-0.9104,-0.5996,1.7146,-0.5785,2149
9,-1.1252,-0.0813,-1.0315,-0.9949,0.8822,-0.8867,1850
9,-1.3315,-0.595,-1.468,-1.3185,0.4432,-0.6454,1976
9,-1.115,-0.9001,-1.3569,-1.4125,-0.3996,-0.604,2109
9,-1.0029,-0.5552,-1.3601,-1.3673,-0.9179,-0.6417,2064
9,-1.1245,-0.1736,-1.0967,-1.1113,-0.9258,-0.3806,2049
9,-0.8723,-0.4124,-0.9551,-0.711,-0.7767,0.1268,2072
9,-0.7834,-0.7058,-0.8298,-0.2826,-0.5308,0.3859,2089
9,-1.0635,-0.6182,-0.4155,0.5702,-0.2951,0.6761,2027
9,-0.9888,-1.0422,-0.5039,1.0496,-0.0214,1.1495,2126
9,-0.8477,-1.0498,-0.4131,1.4673,0.1919,1.292,1996
9,-0.8545,-1.0291,-0.4998,1.6093,0.118,1.3805,2032
9,-0.9065,-0.8572,-0.5701,1.6941,0.0505,1.2848,2110
9,-0.9277,-0.5037,-0.6243,1.6408,-0.1915,1.1484,2105
9,-0.8455,-0.2122,-0.6196,1.5877,-0.385,0.9987,1859
9,-0.7703,-0.2012,-0.7397,1.319,-0.6376,0.808,2095
9,-0.4951,-0.5444,-0.8408,0.8686,-1.1204,0.4493,1957
9,-0.8892,-0.4744,-0.9304,0.3842,-1.2139,0.4544,2037
9,-0.9946,-0.2102,-0.9226,-0.0142,-1.3074,0.1244,2059
9,-0.5947,-0.0542,-0.8672,-0.2824,-1.2769,0.1529,2108
9,-0.9683,-0.2944,-0.9719,-0.2139,-1.0879,0.3284,2076
9,-0.8828,0.2188,-0.9204,-0.1876,-0.9385,0.4529,2056
9,-0.6162,-0.1265,-0.7261,-0.2192,-0.6311,0.6035,2099
9,-0.5132,-0.4341,-0.7888,-0.0774,-0.5268,0.5923,2028
9,-0.4131,-0.5295,-0.6985,-0.0284,-0.9194,0.4589,2043
9,-0.707,-0.5432,-0.7207,0.1597,-1.0761,0.3839,2130
9,-0.8655,-0.689,-0.7971,0.3654,-1.2933,0.3137,1979
9,-0.7236,-0.8042,-0.7524,0.6401,-1.4205,0.1149,2029
9,-0.6997,-0.8652,-0.728,0.6189,-1.1643,-0.0232,2040
9,-0.8899,-0.7285,-0.8284,0.5622,-1.0629,-0.0156,2133
9,-0.9143,-0.5913,-0.759,0.4715,-1.0588,-0.0778,2102
9,-0.8867,-0.7419,-0.6821,0.5007,-0.8947,-0.0241,1867
9,-1.0686,-0.8101,-0.7087,0.3434,-0.7759,0.0068,1986
9,-0.9934,-0.7437,-0.7617,0.279,-0.9064,0.014,2104
9,-1.0139,-0.5081,-0.8748,0.2714,-0.7416,0.3557,2077
9,-1.1348,-0.479,-0.8965,0.3486,-0.6735,0.7544,2113
9,-1.1948,-0.3462,-0.8674,0.3332,-0.5851,0.8756,2079
9,-1.1331,-0.1443,-0.7031,0.1029,-0.5398,0.9275,2072
9,-1.0352,-0.1001,-0.7561,0.0145,-0.5773,1.0657,2159
9,-0.8992,-0.1328,-0.6086,-0.143,-0.4493,1.014,2071
9,-1.2517,-0.4304,-0.583,-0.196,-0.1173,1.2601,2031
9,-1.0535,-0.6721,-0.6038,-0.6901,-0.0811,1.3709,2041
9,-0.7476,-0.5439,-0.719,-0.9106,0.0318,0.8268,2041
9,-0.7698,-0.0574,-0.8413,-0.8847,-0.2625,0.8094,2245
9,-0.8262,-0.2083,-0.7327,-0.6694,-0.7289,1.0436,1848
9,-1.0449,-0.3376,-0.8247,-0.6612,-0.8158,1.2861,2094
9,-1.1453,-0.019,-0.7466,-0.6943,-0.2859,1.2733,2012
9,-1.1191,-0.4202,-0.5798,-0.5906,-0.2023,1.4536,2065
9,-0.9216,-0.2432,-0.5625,-0.667,-0.1159,1.2402,1831
9,-0.8972,-0.2041,-0.5002,-0.3015,-0.1105,1.3034,2052
9,-0.9976,-0.3445,-0.592,-0.1432,-0.1358,1.3753,1966
9,-1.0078,-0.2952,-0.5544,0.0286,0.3454,0.9084,2156
9,-1.1042,-0.3606,-0.1643,0.7297,0.388,0.4982,1878
9,-1.1462,-0.5042,-0.02,1.3246,0.6115,-0.0226,2037
9,-0.8506,-0.4724,-0.064,1.3577,0.8134,-0.6956,2054
9,-0.8831,-0.2808,-0.0864,1.6126,0.8384,-1.9475,2146
9,-0.8062,-0.3142,-0.0239,2.1149,0.4693,-2.6895,2121
9,-0.9631,-0.1235,0.0564,2.6446,0.28,-3.8868,2142
9,-0.8938,0.0068,0.1213,3.3445,0.2212,-4.3635,2109
9,-0.8958,0.0688,0.0291,3.955,0.5984,-4.3635,1972
9,-0.7134,0.0234,-0.1067,4.3634,1.5074,-4.3635,1997
9,-0.6001,-0.0337,-0.022,4.3634,2.1405,-4.3635,2044
9,-0.3828,-0.0681,-0.0288,4.3634,2.1113,-4.3635,2022
9,0.3889,-0.5347,-0.1794,4.3634,1.2523,-4.3635,2118
9,0.3354,-0.7329,-0.2832,4.3634,0.2812,-4.2053,2063
9,-0.0803,-0.2546,-0.4753,4.3634,-1.0497,-3.3002,1987
9,-0.2107,-0.1292,-0.3579,4.3634,-2.0519,-2.3677,2016
9,-0.2957,-0.2688,-0.1565,4.3634,-2.1952,-1.9104,2030
9,-0.1499,-0.8623,-0.1646,4.3634,-2.2391,-1.4708,2006
9,-0.3521,-1.3623,-0.0632,4.3634,-2.2932,-0.9231,2018
9,-0.1802,-1.6428,0.0708,4.3634,-2.8231,-0.4309,2036
9,-0.3457,-1.8394,0.1567,4.3634,-3.5075,0.5542,2051
9,-0.6392,-2.0,-0.2034,4.3634,-4.1153,0.7083,2033
9,-1.1033,-2.0,-0.4204,4.3634,-3.6161,0.3493,2055
9,-1.2957,-2.0,-0.7156,4.2803,-3.6496,-0.1181,2092
9,-1.0879,-2.0,-1.2834,2.5678,-2.6665,-0.5382,2165
9,-0.1768,-1.6965,-0.8713,1.2683,-0.2661,-0.891,2075
9,-0.0649,-1.22,0.1333,1.291,1.4865,-1.6053,1993
9,-0.3086,-0.7026,0.8027,2.6884,1.9516,-1.8892,2035
9,-0.7385,-0.5339,1.5076,4.3634,0.6735,-1.4062,1952
9,-1.7632,-1.2505,1.5146,4.3634,-1.2901,-0.8428,2132
9,-2.0,-2.0,0.7603,4.3634,-0.5288,0.4071,2032
9,-2.0,-2.0,-0.2266,1.8772,3.5069,1.0516,1955
9,-2.0,-0.7776,-0.1035,1.8106,4.3634,1.6584,1977
9,-2.0,-0.5779,0.2959,1.638,4.3634,1.9385,1965
9,-1.481,-0.7131,0.0588,0.863,4.3634,1.8703,2022
9,-0.9043,-0.8013,-0.5117,0.2971,4.3634,1.3332,2038
9,-0.2185,-1.0203,-0.8264,-0.1972,4.3634,0.7988,2071
9,0.5828,-1.1743,-1.1523,-0.6569,2.3712,0.6833,2069
9,0.7241,-0.7212,-1.2991,-1.1283,0.559,0.1233,2083
9,0.6201,-0.0635,-1.282,-0.963,-0.9718,-0.0174,2110
9,0.248,-0.1594,-1.1824,-1.2675,-2.3077,-0.2306,1991
9,-0.0779,-0.396,-1.1599,-1.2725,-3.4595,-0.4068,2036
9,-0.2083,-0.2974,-1.0984,-1.6174,-3.8022,-0.6011,2042
9,-0.5588,0.0078,-1.1064,-1.7841,-3.2728,-0.4862,2083
9,-0.7041,0.0076,-1.1001,-1.8354,-2.4278,-0.3456,2072
9,-0.7405,-0.1311,-1.0291,-1.602,-1.8875,-0.1589,2045
9,-0.801,-0.2732,-0.8225,-1.3563,-1.9273,-0.0828,2061
10,-0.8879,-0.4431,-0.6912,-1.184,-1.7483,-0.2156,2069
10,-0.9055,-0.627,-0.6685,-1.2544,-1.0995,0.0232,1986
10,-0.9402,-0.667,-0.6235,-1.4332,-0.4093,0.246,2066
10,-1.1741,-0.7485,-0.7017,-1.7105,0.4133,0.4864,1963
10,-1.1086,-0.7998,-0.7085,-1.8586,0.6399,0.6817,2052
10,-0.8142,-0.9221,-0.6914,-1.8933,0.8846,0.6857,2057
10,-0.8286,-0.9395,-0.6758,-1.7929,1.0175,0.7945,2056
10,-1.1692,-1.0398,-0.7888,-1.9394,1.1389,1.0076,1997
10,-1.1489,-1.176,-0.7761,-2.1208,1.5825,0.9417,2065
10,-0.9568,-1.281,-0.5042,-2.4671,2.0078,0.9359,2064
10,-0.7495,-1.304,-0.4282,-2.6923,1.8029,0.8748,2048
10,-0.6528,-1.2288,-0.5557,-2.7661,1.395,0.9846,2039
10,-0.7253,-1.1152,-0.7454,-2.7316,1.5849,1.3303,2035
10,-0.8293,-1.1387,-0.7759,-2.6991,2.3649,1.6073,2029
10,-0.8794,-1.2737,-0.5559,-2.7791,3.1929,1.5649,2057
10,-0.6013,-1.5527,-0.2024,-2.5803,3.0998,1.3688,2027
10,-0.668,-1.8738,0.2632,-2.6715,1.9365,1.1363,2058
10,-1.3716,-2.0,0.4331,-3.3749,1.5787,1.0621,2038
10,-1.478,-2.0,0.625,-3.8576,1.2829,0.8076,2020
10,-1.6108,-2.0,0.7104,-4.0411,0.82,0.5593,2023
10,-1.6104,-2.0,1.0266,-4.3635,1.2143,0.1557,2035
10,-1.4006,-2.0,1.5703,-4.3635,1.8679,-0.2911,2066
10,-1.4602,-2.0,1.8752,-4.3635,0.8774,-1.0251,2012
10,-1.4253,-1.3821,1.7749,-3.8813,-1.1894,-1.8148,2066
10,-1.426,-0.5591,1.2556,-2.7358,-1.6538,-2.7173,2072
10,-1.5522,-0.0977,0.7358,-1.7241,-0.2815,-3.3589,2042
10,-1.6628,0.0974,0.4895,-0.8668,0.4087,-3.6021,2022
10,-1.4766,0.4661,0.2896,0.3212,-0.4466,-4.0797,2059
10,-0.8567,0.4573,0.0972,1.504,-1.4797,-4.3518,2072
10,0.5085,-0.3269,-0.855,2.3617,-1.4173,-4.3635,2089
10,1.0283,-1.2271,-1.0864,2.7014,-1.1151,-4.2714,2017
10,1.0654,-1.9041,-0.1074,3.5207,-2.5445,-3.6537,2002
10,1.0945,-2.0,1.2798,4.2158,-4.3635,-3.2824,2041
10,0.5779,-2.0,1.5439,2.6136,-4.3635,-2.7015,2071
10,-0.0833,-2.0,0.7478,1.3489,-4.3635,-2.4525,2021
10,-0.3357,-1.5747,0.0745,1.4659,-4.3635,-2.598,2049
10,-0.8335,-1.2876,-0.2056,1.7302,-4.3635,-2.5662,2054
10,-1.071,-1.343,-0.3845,1.494,-4.3635,-2.3977,2099
10,-1.0181,-1.3669,-0.334,1.1881,-3.0131,-2.1923,2114
10,-0.9333,-1.6221,0.0488,-0.1341,-2.0558,-1.5888,2100
10,-0.7908,-1.655,0.123,-1.2292,-2.1971,-1.491,2162
10,-0.4768,-1.4873,0.3784,-1.5792,-1.7498,-2.4147,2059
10,0.0801,-1.1724,0.5337,-0.3019,-1.6848,-3.3445,2010
10,0.3784,-1.0745,1.0251,0.7315,-3.6106,-3.4572,1973
10,0.2019,-1.4089,0.9436,0.6465,-4.3635,-3.1807,1994
10,-0.5684,-1.9595,0.7012,0.6707,-4.3635,-3.2674,1913
10,-1.3518,-2.0,0.5879,0.5698,-4.3635,-3.2437,2045
10,-1.4011,-1.9534,0.8325,-0.1755,-4.3635,-2.6369,2014
10,-1.8574,-1.4873,0.844,0.0123,-4.3635,-2.7377,2098
10,-2.0,-1.2446,0.7112,-0.1489,-3.055,-2.0654,2049
10,-2.0,-1.2451,0.1326,-0.0274,-0.873,-1.4147,2081
10,-1.5232,-0.8167,-0.2881,0.2216,1.2242,-0.7771,2104
10,-1.2949,-0.7905,-0.4519,0.6914,2.6806,-0.5066,2098
10,-1.2688,-0.6487,-0.1853,1.2749,3.6117,-0.0649,2068
10,-0.8696,-0.5054,-0.1907,1.5259,4.2513,0.469,2056
10,-0.4893,-0.4165,-0.2898,1.7395,4.3634,0.7028,2039
10,-0.1331,-0.3689,-0.4446,1.8885,4.3634,1.0214,2045
10,0.1943,-0.2725,-0.4573,1.9024,4.3634,1.3752,2069
10,0.303,-0.3298,-0.3481,1.8655,3.6928,1.9319,2078
10,0.2837,-0.4031,-0.397,1.6777,2.2245,2.0995,2076
10,0.0613,-0.5237,-0.3875,0.9981,1.0753,2.3325,2068
10,-0.3972,-0.5901,-0.677,0.2962,0.265,2.9805,1982
10,-0.7764,-0.6851,-0.9338,-0.4825,-0.9003,3.6435,2011
10,-1.0784,-0.2607,-1.4175,-1.0128,-1.651,3.9567,2073
10,-0.6538,0.0542,-1.4656,-1.3071,-1.1746,4.3634,2034
10,-0.6104,0.3411,-1.248,-1.8479,-0.4385,4.3634,2061
10,-0.7656,0.6035,-1.0515,-2.6508,-0.6388,4.3394,2047
10,-0.7734,0.7986,-0.8931,-3.3356,-1.2476,3.6178,2052
10,-0.6062,0.7732,-0.8411,-3.5776,-1.8636,2.7473,2031
10,-0.3894,0.5439,-0.7024,-3.8543,-2.2525,1.9539,2061
10,-0.3083,0.1968,-0.5566,-4.3596,-2.5488,1.0834,2101
10,-0.3494,-0.0671,-0.4124,-4.3635,-3.0154,0.2952,2113
10,-0.4556,-0.1724,-0.3784,-4.3635,-3.8587,-0.059,2009
10,-0.8848,-0.2629,-0.5371,-4.3635,-4.3635,0.1828,2041
10,-1.5737,-0.4299,-0.9431,-4.3635,-4.3635,0.9452,2036
10,-1.9492,-0.9309,-1.2261,-4.3635,-3.2427,1.8355,2049
10,-2.0,-1.2002,-1.0898,-4.3635,-1.9837,2.7884,1994
10,-2.0,-1.2263,-1.0747,-4.3635,-1.2278,3.2444,2045
10,-1.5564,-1.1069,-1.2556,-4.3635,-0.9312,3.1166,2074
10,-0.9382,-0.8674,-1.3281,-4.3635,-1.258,2.689,2055
10,-0.6692,-0.7915,-1.2869,-4.3635,-2.3425,2.1823,2050
10,-0.6333,-0.8047,-1.3503,-4.3635,-3.6624,1.7564,2042
10,-0.7141,-0.864,-1.5586,-4.3635,-4.3635,1.2631,2012
10,-0.709,-0.9885,-1.6758,-4.3635,-4.3635,0.8293,2070
10,-0.6819,-1.1484,-1.6101,-4.3635,-4.3635,0.5911,2063
10,-0.8364,-1.2407,-1.4963,-4.3635,-4.3635,0.4887,2072
10,-1.209,-1.238,-1.5059,-4.3635,-4.3635,0.6387,2077
10,-1.5073,-1.2849,-1.4561,-4.019,-4.3635,0.9946,2008
10,-1.5913,-1.4194,-1.3486,-3.2447,-4.3635,1.219,1940
10,-1.6604,-1.5706,-1.3264,-2.6312,-4.3635,1.2692,2045
10,-1.4329,-1.6541,-1.3306,-2.002,-4.3635,1.2596,2097
10,-1.2729,-1.9019,-1.2646,-1.1941,-4.3635,1.3367,1909
10,-0.9329,-2.0,-1.238,-0.053,-4.3635,1.6649,2015
10,-0.7561,-2.0,-0.9302,0.8718,-4.3635,1.793,2121
10,-0.6824,-2.0,-0.6987,1.08,-3.4195,1.9592,2083
10,-0.6611,-2.0,-0.5352,1.5681,-1.8122,2.2867,2112
10,-0.4998,-1.9417,-0.1953,1.9303,-0.3412,2.6878,2045
10,-0.3369,-1.7185,0.0803,2.598,0.4091,3.097,2032
10,-0.7178,-2.0,0.1323,3.0616,2.1278,3.7237,1955
10,-0.4453,-2.0,0.2402,3.503,2.0085,4.3634,2057
10,-0.1018,-1.8435,-0.0088,3.9411,2.3844,4.3634,2053
10,-0.5977,-1.4243,0.3552,4.2792,2.5457,3.8942,2256
10,-1.1484,-0.814,0.4348,4.3634,2.2379,3.6502,2165
11,-1.4282,-0.4587,0.6345,4.3634,2.132,3.0253,2109
11,-1.7183,-0.4231,0.5156,4.3634,2.9501,2.1619,2079
11,-1.6956,-0.6042,0.8745,4.3634,3.9992,1.7582,2054
11,-1.2629,-1.1758,1.0979,4.3634,4.3634,1.7824,2109
11,-0.8789,-1.5632,1.1909,4.3634,4.3634,1.3183,2040
11,-0.3557,-2.0,1.2554,4.3634,4.1996,1.2513,2170
11,0.2881,-2.0,1.2791,4.3634,2.9967,0.8945,1722
11,-0.187,-2.0,1.0828,4.3634,2.8444,0.2663,1989
11,1.9999,-2.0,1.1821,3.904,0.545,-0.1384,2072
11,0.8879,-2.0,0.7488,2.8433,-1.9771,-1.111,2010
11,0.5916,-1.9854,0.7295,2.1834,-3.7093,-1.9495,2060
11,0.3311,-2.0,-0.0776,1.8843,-4.3213,-1.5531,2079
11,-0.095,-1.7019,-0.7205,2.016,-3.3007,-0.904,2058
11,-0.8806,-0.9192,-0.7388,2.1108,-2.0775,-1.0523,1930
11,-0.6362,-0.7124,-0.4866,2.5345,-0.571,-1.4407,2039
11,-0.4819,-0.7244,-0.5779,2.4736,0.1027,-1.5546,2056
11,-0.5601,-0.3552,-0.4878,2.6914,0.7889,-1.958,2021
11,-0.1047,-0.7368,-0.353,2.6488,0.9457,-2.2569,2029
11,0.123,-0.9949,-0.522,2.4029,1.1553,-2.5755,2003
11,-0.3032,-0.9829,-0.512,2.0912,1.1612,-2.6215,2048
11,-0.6772,-1.0605,-0.5623,1.8255,1.4115,-2.4835,2043
11,-0.8567,-0.9961,-0.697,1.6584,1.9853,-2.5281,2050
11,-0.8772,-0.812,-0.6377,1.5383,2.3316,-2.8271,2061
11,-0.772,-0.7188,-0.6431,1.5316,2.3482,-2.8541,2057
11,-0.6582,-0.9417,-0.8081,1.5303,2.1084,-2.9453,2072
11,-1.103,-0.8767,-0.8398,1.2848,1.7761,-2.5804,2021
11,-1.6135,-0.7041,-1.1394,0.7448,0.9199,-1.8243,1994
11,-2.0,-0.2334,-1.5283,0.3794,1.5833,-1.615,2017
11,-2.0,-0.4509,-1.2549,0.3317,1.7173,-0.959,2074
11,-1.8074,-0.5818,-0.9443,0.3148,1.8484,-0.9134,2106
11,-1.6047,-0.5752,-0.6897,0.3017,1.1892,-0.957,2066
11,-1.6348,-0.6277,-0.4578,0.2487,0.0438,-0.6361,2038
11,-1.4912,-0.6772,-0.2051,0.051,-0.5047,-0.223,2089
11,-1.4766,-0.7625,0.0251,-0.1294,-0.9483,0.1165,2051
11,-1.429,-0.8418,-0.0986,-0.1575,-1.0865,0.3874,2017
11,-1.5139,-1.1243,-0.0693,-0.0878,-1.0531,0.6232,2056
11,-1.5444,-1.1809,-0.3596,-0.1546,-0.5956,0.7632,2061
11,-1.3254,-0.967,-0.468,0.0308,-0.0059,0.911,2052
11,-0.6975,-1.0205,-0.1833,0.1964,-0.0499,0.8586,2049
11,-0.3149,-0.9861,-0.1218,-0.0361,-0.7219,0.7184,2021
11,-0.8979,-0.7302,-0.342,-0.2574,-1.4748,0.8525,2026
11,-1.1482,-0.7166,-0.46,-0.2666,-1.4495,1.1291,2066
11,-1.0295,-0.9343,-0.6172,-0.3738,-0.9641,1.3375,2071
11,-1.0923,-1.03,-0.7808,-0.3173,-0.5891,1.2936,2057
11,-1.1399,-0.946,-0.7385,-0.2787,0.0328,1.2251,2000
11,-1.2029,-0.7622,-0.4985,-0.2189,0.5331,0.964,2064
11,-1.0591,-0.7485,-0.0977,-0.0762,1.1595,0.7982,2044
11,-1.4163,-0.6099,0.2378,0.1172,2.109,0.6018,1997
11,-0.2908,-1.092,0.3665,-0.0009,1.9487,0.9059,2074
11,-0.6191,-1.1777,0.4294,-0.2009,2.2957,0.6151,2032
11,-0.1514,-0.9729,0.2632,-0.1325,2.1763,0.5496,2038
11,-0.2153,-1.0276,0.0947,-0.1734,1.554,0.3165,2003
11,-0.4236,-0.9167,-0.2896,-0.1611,1.0448,0.1129,2017
11,-0.2971,-0.9636,-0.3435,-0.2412,0.5537,-0.1541,2050
11,-0.7451,-0.5793,-0.4211,0.0241,0.6624,-0.0859,2032
11,-1.1677,-0.7566,-0.2905,-0.0683,1.1573,0.0289,2033
11,-0.8877,-0.7188,-0.1006,0.0525,2.0298,0.0906,2117
11,-0.8672,-0.7214,0.1277,0.2003,2.2372,0.0465,2075
11,-0.8684,-0.7812,0.3271,0.4016,2.2473,0.0081,1958
11,-0.8726,-0.9954,0.3994,0.4976,1.9206,-0.0907,2025
11,-0.8743,-0.999,0.2869,0.5261,1.8223,-0.285,2032
11,-0.5532,-1.1482,0.2561,0.5749,1.8964,-0.3224,2054
11,-0.4961,-1.1858,0.0786,0.3835,1.8271,-0.4537,2096
11,-0.5715,-1.0667,-0.1443,0.0816,1.8691,-0.4372,1977
11,-0.5244,-1.1111,-0.3337,-0.2248,1.7381,-0.3219,2064
11,-0.5886,-0.875,-0.5327,-0.3836,1.5791,-0.3278,2036
11,-0.7856,-0.8845,-0.708,-0.3585,1.2672,-0.1722,2043
11,-0.8452,-0.9602,-0.6514,-0.4065,1.0697,-0.2529,1987
11,-0.7939,-0.9126,-0.584,-0.3147,0.7217,-0.2373,2021
11,-0.7246,-0.886,-0.2302,-0.0724,0.4863,-0.2209,2113
11,-0.707,-1.0063,-0.2256,-0.1011,0.4334,-0.2815,2008
11,-1.0322,-0.894,-0.3528,-0.149,0.5181,-0.1951,2083
11,-0.8572,-0.8171,-0.4138,-0.1266,0.6421,0.004,2018
11,-0.7339,-0.8042,-0.4253,-0.0886,0.2188,-0.0068,2031
11,-0.688,-0.8965,-0.5176,-0.1895,-0.3193,-0.0932,2148
11,-0.7517,-0.9238,-0.6729,-0.3637,-0.7937,-0.1429,1987
11,-0.9001,-0.8123,-0.8359,-0.5123,-0.9792,-0.2157,2162
11,-1.0193,-0.583,-1.0029,-0.6203,-0.914,0.0501,2007
11,-1.061,-0.6702,-0.9844,-0.5958,-0.7377,0.136,2119
11,-1.0718,-0.5974,-0.9915,-0.5236,-0.3714,0.2502,2127
11,-1.1125,-0.717,-0.8032,-0.5035,-0.1305,0.3458,1960
11,-0.99,-0.666,-0.7634,-0.3581,0.3292,0.4334,2023
11,-0.7915,-0.8176,-0.6064,-0.2048,0.3787,0.5324,1886
11,-0.75,-0.8911,-0.6414,-0.192,0.2799,0.6644,2226
11,-0.7776,-0.8418,-0.5669,-0.106,0.183,0.6192,2018
11,-0.6958,-0.9475,-0.6106,-0.0177,0.1832,0.6987,2053
11,-0.5295,-0.8521,-0.6082,-0.002,-0.1776,0.4618,1992
11,-0.5518,-0.8245,-0.7822,0.0395,-0.5545,0.4192,1979
11,-0.605,-0.7393,-0.8542,0.0626,-0.9648,0.1522,2074
11,-0.5581,-0.9041,-0.8132,-0.0017,-1.3513,0.1305,2178
11,-0.6846,-1.0698,-0.7058,-0.1352,-1.384,-0.1503,1989
11,-0.8225,-0.9646,-0.5916,-0.5489,-1.5607,-0.6478,2082
11,-0.7739,-1.1313,-0.6379,-0.8371,-1.3632,0.3743,1957
11,-0.5938,-0.7812,-0.4443,-0.3895,-0.7552,-0.0923,2040
11,-0.6995,-0.3481,-0.8279,-0.5424,-0.5366,-0.2754,2155
11,-0.8635,0.0713,-0.5613,-0.795,-0.7971,-0.5657,2141
11,-1.6104,0.0891,-0.2563,-0.6048,-0.3006,-0.2583,1890
11,-0.563,-0.1875,-0.575,-0.127,-0.3389,0.2894,2092
11,-1.3169,-0.1433,-0.3103,-0.1936,-0.4899,-0.4191,2149
11,-1.0933,0.1487,-0.4749,0.0822,-0.2151,-0.4687,2039
11,-0.8657,-0.2219,-0.4304,0.2962,-0.9886,-0.2924,1987
11,-1.2004,-0.7952,-0.4663,0.2065,-1.3516,-0.3891,2154
12,-1.2659,-0.9866,-0.322,0.0752,-1.59,-0.3755,2072
12,-1.3567,-0.8291,-0.3608,-0.2296,-1.4705,-0.537,2073
12,-1.3101,-0.5972,-0.251,-0.393,-1.5552,-0.4835,2079
12,-1.5481,-0.5247,-0.2964,-0.4257,-1.0673,-0.3623,2006
12,-1.3416,-0.6096,-0.2881,-0.4951,-0.9863,0.1502,2127
12,-1.2283,-0.6143,-0.2849,-0.4976,-0.7592,0.1284,2033
12,-1.1497,-0.4146,-0.175,-0.277,-0.7494,0.3392,2101
12,-1.0852,-0.4104,-0.1997,-0.2071,-0.7432,0.5098,1958
12,-1.0371,-0.4961,-0.1235,-0.0791,-0.8349,0.6915,2046
12,-0.969,-0.4885,-0.2678,-0.0876,-0.8428,0.5159,2143
12,-1.0068,-0.6204,-0.2039,-0.0181,-0.6894,0.7196,1969
12,-0.9915,-0.6794,-0.3894,-0.0639,-0.3842,0.4452,2093
12,-0.824,-0.4573,-0.5024,0.0736,-0.1314,0.3795,1954
12,-0.4951,-0.5369,-0.687,0.155,0.1607,0.7131,2081
12,-0.5891,-0.5366,-0.5588,0.032,-0.0943,0.6356,2006
12,-0.5408,-0.3027,-0.709,-0.0567,0.2258,0.3834,2075
12,-0.5305,-0.1758,-0.7432,-0.1129,0.1266,0.5289,1988
12,-0.3655,-0.4268,-0.7068,-0.2804,0.0217,0.5561,2117
12,-0.6216,-0.6011,-0.6226,-0.3546,0.114,0.7004,2187
12,-0.7715,-0.1958,-0.7034,-0.626,0.3481,-0.0406,2018
12,-0.4714,0.0381,-0.5798,-0.5212,0.581,0.2019,2041
12,-0.0959,-0.2112,-0.5535,-0.5127,0.1278,0.269,2080
12,-0.0437,-0.3921,-0.4639,-0.4882,-0.0111,0.2445,1898
12,-0.4712,-0.6021,-0.4238,-0.4932,-0.1589,0.2638,2169
12,-0.9248,-0.5083,-0.4446,-0.6802,0.1617,-0.375,2067
12,-0.5891,-0.7571,-0.6602,-0.7588,-0.0766,0.1389,2123
12,-0.9163,-0.3611,-0.3076,-0.7681,0.6231,-0.8178,2106
12,-0.925,-0.6287,-0.3677,-0.5124,0.6842,-0.104,1918
12,-0.4106,-0.9158,-0.3152,-0.6795,0.2143,0.3059,2182
12,-0.885,-0.6631,-0.2625,-0.7634,0.5398,-0.1667,2052
12,-0.9175,-0.377,-0.2322,-0.6446,0.4104,-0.0967,2042
12,-0.9316,-0.3945,-0.2268,-0.5436,0.4771,0.1184,1958
12,-0.9902,-0.5486,-0.1309,-0.4277,0.153,0.4104,2009
12,-1.05,-0.4963,-0.2285,-0.2385,0.1079,0.4196,1987
12,-1.1697,-0.5979,-0.3052,-0.1618,0.4293,0.4858,2072
12,-1.343,-0.3865,-0.2759,-0.041,0.6633,0.2035,2083
12,-1.0071,-0.6013,-0.2185,0.1583,0.1804,0.8064,2054
12,-1.1462,-0.1951,-0.229,0.2112,0.5177,0.2689,2034
12,-1.137,-0.4368,-0.1936,0.6373,0.3862,0.8212,2121
12,-0.6729,-0.4214,-0.1882,0.6256,-0.076,0.938,2075
12,-0.9163,-0.3506,-0.2778,0.7416,-0.6087,0.9621,1994
12,-1.033,-0.5229,-0.3787,0.8222,-0.8443,1.1685,2055
12,-1.4487,-0.6648,-0.6333,0.6936,-0.4135,0.9164,2199
12,-1.2251,-0.8425,-0.5273,0.7287,-0.1784,1.0471,1985
12,-1.0815,-0.6536,-0.6216,0.6632,0.3779,0.644,2102
12,-0.8062,-0.5276,-0.5903,0.6685,0.4548,0.6967,2020
12,-0.4341,-0.4395,-0.4971,0.6251,0.3428,0.5834,2149
12,-0.6245,-0.5071,-0.7024,0.5767,0.1835,0.4935,2116
12,-0.4644,-0.3889,-0.6907,0.5116,-0.0731,0.4466,2172
12,-0.843,-0.5288,-0.8572,0.6066,0.1866,0.4673,2141
12,-0.8235,-0.8311,-0.842,0.5426,0.8255,0.3855,2189
12,-0.8235,-0.8257,-0.7996,0.3818,1.513,0.2017,2067
12,-0.635,-0.5161,-0.7556,0.3313,2.1956,0.243,2168
12,-0.7231,-0.4834,-0.772,0.4899,2.7777,0.5257,2115
12,-0.7708,-0.4998,-0.7664,0.6015,3.1138,0.3227,2208
12,-0.613,-0.6167,-0.6807,0.8428,2.5204,0.4834,2058
12,-0.7502,-0.7771,-0.7068,0.8983,2.0303,0.3508,1984
12,-0.7119,-1.2163,-0.6953,0.8752,1.5542,0.3285,2093
12,-1.2852,-1.2273,-0.6516,0.7456,1.1228,-0.119,2127
12,-1.2842,-1.5032,-0.7441,0.5464,1.0658,-0.089,1992
12,-1.188,-1.1846,-0.6965,0.3854,0.7122,-0.4797,2146
12,-1.0708,-0.8159,-0.9329,0.5003,0.7843,-0.4795,2037
12,-0.9133,-0.4919,-0.8313,0.4269,0.2089,-0.6633,2117
12,-0.9697,-0.4155,-0.9006,0.5386,0.1546,-0.2075,1952
12,-1.1025,-0.5635,-0.8848,0.5855,-0.1345,-0.1952,1886
12,-1.0591,-0.8787,-0.9255,0.4538,-0.2518,-0.0586,2029
12,-1.1206,-0.637,-0.949,0.5048,-0.5372,0.1088,2052
12,-1.4258,-0.2852,-0.9573,0.4682,-0.3782,0.0204,2056
12,-1.2263,-0.1116,-0.7512,0.3227,-0.5761,0.0286,2091
12,-1.1558,0.0811,-0.7368,0.237,-0.5159,0.2029,2075
12,-1.3665,0.4634,-0.6763,0.3006,-0.339,0.1254,2011
12,-1.1953,0.8647,-0.657,0.4477,-0.1722,0.3357,2172
12,-1.115,0.8723,-0.7671,0.3984,-0.1409,0.3472,2043
12,-1.1025,0.6858,-0.7446,0.5581,-0.2956,0.7757,2030
12,-1.1433,1.1248,-0.6592,0.6031,-0.2462,0.5774,2182
12,-1.0608,0.7891,-0.9858,0.506,-0.3203,0.9078,2013
12,-0.7136,0.4597,-0.9172,0.3207,-0.506,1.3837,1981
12,-0.7649,0.1558,-1.0483,0.1864,-0.4239,1.6788,1982
12,-0.9019,0.1433,-0.8899,0.3265,-0.7047,1.5964,2152
12,-0.7722,0.136,-1.0369,0.043,-0.8172,1.3645,2017
12,-1.0713,-0.1946,-0.8193,0.3761,-0.6112,1.7105,2136
12,-0.948,-0.2383,-0.842,0.131,-0.0109,1.7685,2080
12,-0.6465,-0.0432,-0.9053,0.2217,0.1348,1.5021,2026
12,-0.5371,-0.0786,-0.6729,0.296,0.2322,1.5716,2009
12,-0.4917,0.0464,-0.8171,0.3796,-0.2027,1.1168,2072
12,-0.6348,0.0371,-0.8059,0.6496,-0.2563,0.4117,2006
12,-0.9768,-0.1936,-0.6152,0.7026,0.8108,0.5052,1897
12,-0.7864,-0.2625,-0.7051,0.5489,1.0987,0.2119,2041
12,-0.5217,-0.0842,-0.6055,0.4627,0.8953,-0.5421,2007
12,-0.5278,0.1902,-0.6479,0.7166,0.7522,-0.9838,1896
12,-0.5867,0.1819,-0.6528,0.5707,0.7988,-1.136,1764
12,-0.8845,0.3188,-0.7578,0.5602,0.8544,-1.4874,2040
12,-0.677,-0.0259,-0.8374,0.4236,0.6709,-1.4913,1814
12,-0.6514,0.0908,-1.0332,0.2113,0.4599,-1.5829,2166
12,-0.8394,0.0938,-0.9849,0.1614,0.4038,-1.4519,2151
12,-1.0698,0.1165,-1.0212,0.1562,0.4908,-1.3179,2032
12,-1.0444,-0.168,-0.9575,0.102,1.0463,-0.7095,1980
12,-0.9607,-0.2695,-1.043,0.0423,1.0668,-0.3787,2064
12,-0.9468,-0.0095,-1.0203,0.1627,0.9925,-0.0924,1929
12,-0.7883,-0.1602,-0.7744,0.2687,0.8802,0.1594,1999
12,-0.9219,-0.1497,-0.7903,0.4409,0.6529,0.1928,2113
12,-1.0725,-0.2681,-0.7915,0.5376,0.5763,0.2955,2029
12,-1.0911,-0.3052,-0.832,0.7144,0.4096,0.3195,2017
13,-1.1487,-0.4216,-0.6992,0.6955,0.3967,0.3199,2112
13,-1.106,-0.4824,-0.7141,0.6992,0.3446,0.3318,2080
13,-1.1416,-0.4355,-0.7092,0.699,0.265,0.3219,2018
13,-1.0916,-0.4412,-0.606,0.8428,0.3204,0.263,2095
13,-1.2332,-0.1836,-0.7463,0.9278,0.4436,0.6938,2104
13,-0.9985,-0.3752,-0.6387,0.9661,0.2952,0.662,2140
13,-1.0359,-0.2356,-0.7473,1.0168,0.1511,0.7685,1978
13,-1.0347,-0.4756,-0.8064,0.9034,-0.0197,0.8929,2122
13,-0.9233,-0.4038,-0.8052,0.7455,-0.1934,0.8773,2055
13,-0.8726,-0.2061,-0.7327,0.6332,-0.4489,0.8608,2049
13,-0.8474,-0.1221,-0.7366,0.4818,-0.5397,0.8035,2054
13,-0.8066,0.0981,-0.6882,0.33,-0.5409,0.6741,2034
13,-0.7793,0.1018,-0.5762,0.3348,-0.5039,0.6673,2041
13,-0.6877,-0.1155,-0.5918,0.216,-0.4161,0.5331,2013
13,-0.8022,-0.1572,-0.6179,0.2152,-0.2645,0.2912,2047
13,-0.7556,-0.2073,-0.6147,0.1972,-0.1595,0.0108,2072
13,-0.7527,-0.325,-0.6614,0.1495,-0.0571,-0.1357,2058
13,-0.7896,-0.3738,-0.6528,0.0957,0.0077,-0.2077,2045
13,-0.7483,-0.4329,-0.6001,0.1839,-0.0149,-0.3184,2049
13,-0.7876,-0.4211,-0.5981,0.3338,-0.0142,-0.4241,2056
13,-0.8608,-0.4883,-0.6006,0.4757,0.1,-0.389,2032
13,-0.895,-0.5737,-0.6208,0.5576,0.2585,-0.3698,2032
13,-0.9092,-0.5291,-0.5942,0.5999,0.2683,-0.3569,2049
13,-0.946,-0.4429,-0.5879,0.6742,0.3244,-0.4072,2070
13,-0.9268,-0.3911,-0.6396,0.5562,0.544,-0.2436,2055
13,-0.8816,-0.3252,-0.5872,0.5649,0.4354,-0.1341,2064
13,-0.96,-0.2539,-0.554,0.7767,0.3714,-0.2429,2050
13,-0.9487,-0.2483,-0.6118,0.9569,0.5156,-0.4119,2038
13,-0.9451,-0.2959,-0.6135,1.0155,0.6453,-0.6323,2053
13,-0.8643,-0.3169,-0.6191,1.2133,0.6183,-0.8313,2045
13,-0.7871,-0.3496,-0.5701,1.3599,0.4912,-0.8222,2049
13,-0.8721,-0.3174,-0.5662,1.5548,0.2834,-0.8982,2043
13,-0.8945,-0.2556,-0.5713,1.6797,0.0306,-0.8866,2046
13,-0.906,-0.2363,-0.6052,1.8263,-0.0622,-0.9949,2042
13,-0.6719,-0.135,-0.6614,2.1025,-0.1862,-0.9589,2043
13,-0.6328,-0.0327,-0.614,2.3372,-0.7163,-0.7385,2060
13,-0.6318,0.2622,-0.5359,2.4446,-1.3107,-0.7195,2055
13,-0.9958,0.2334,-0.5237,2.321,-1.4278,-0.5044,2022
13,-1.1433,0.1252,-0.5598,2.2955,-0.6375,-0.7763,2023
13,-1.1035,-0.0061,-0.6165,2.084,0.2882,-0.7581,2078
13,-0.9546,0.0366,-0.8293,1.7836,0.245,-0.7066,2042
13,-0.6707,0.0742,-0.9487,1.2493,-0.8111,-0.6329,2144
13,-0.6182,0.1487,-1.0369,1.1067,-1.9551,-0.648,2051
13,-0.4441,0.2698,-1.1267,0.7447,-2.5251,-0.5896,2068
13,-0.2283,0.1194,-1.2361,0.1854,-2.7532,-0.6687,2136
13,-0.2039,0.033,-1.2629,-0.112,-3.6744,-0.9716,2122
13,-0.3904,-0.0393,-1.0403,-0.6401,-4.3635,-1.497,2079
13,-0.488,-0.0959,-0.9851,-1.1102,-4.3635,-1.8085,2090
13,-0.2732,-0.2703,-0.9238,-1.596,-4.3635,-1.8947,2111
13,-0.4355,-0.4238,-0.6794,-1.7611,-3.9033,-1.9379,2056
13,-0.9072,-0.479,-0.6016,-1.4753,-3.5063,-1.3569,1951
13,-1.2585,-0.4775,-0.9365,-1.5103,-3.5019,-0.8898,2056
13,-1.3882,-0.6431,-1.2292,-2.1316,-3.3314,-0.8701,2126
13,-1.2439,-0.8384,-1.0532,-2.759,-3.324,-0.9821,2080
13,-1.3406,-0.8752,-0.967,-3.1509,-3.0171,-1.2424,2078
13,-1.1296,-0.6787,-0.9141,-3.6541,-2.5324,-0.9411,2040
13,-0.8689,-0.5195,-0.9792,-4.0058,-2.864,-0.55,2041
13,-0.855,-0.4238,-0.9895,-4.3558,-3.6133,-0.4357,2024
13,-0.856,-0.4697,-1.1235,-4.3635,-3.6655,-0.606,2008
13,-1.0,-0.4482,-1.1873,-4.3635,-3.9591,-0.5669,2037
13,-0.9946,-0.5281,-1.0225,-4.3635,-4.0409,-0.3577,2038
13,-0.9563,-0.5103,-1.0737,-4.3635,-4.1796,-0.0888,2041
13,-1.0366,-0.5576,-1.0698,-4.3635,-3.8831,0.035,2103
13,-1.0352,-0.3345,-1.1448,-4.2692,-3.9038,0.0764,2057
13,-0.8276,-0.4756,-0.8381,-4.1695,-3.697,0.0268,2031
13,-0.8533,-0.6504,-0.7622,-4.068,-3.9222,0.2525,2021
13,-0.9495,-0.8276,-0.8228,-3.8765,-4.0662,0.3637,2038
13,-1.1477,-0.8191,-0.8918,-3.4505,-3.9876,0.4654,2027
13,-1.2473,-0.8254,-0.7888,-2.9423,-3.8057,0.6408,2053
13,-1.2502,-0.9167,-0.6938,-2.6211,-3.1733,0.6683,2069
13,-1.2134,-1.0364,-0.5891,-2.3458,-3.075,0.7958,2054
13,-1.1313,-1.1267,-0.3557,-2.3338,-2.465,0.8801,2076
13,-1.0332,-0.9778,-0.3774,-2.0598,-2.4187,0.7634,2061
13,-0.9856,-1.0471,-0.3049,-1.8447,-2.4803,0.9955,2055
13,-1.0098,-1.2354,-0.425,-1.5964,-2.1678,1.1029,2076
13,-0.907,-1.0811,-0.3369,-0.8296,-1.8989,1.2296,2032
13,-1.094,-0.6431,-0.4026,-0.2545,-1.6924,1.6438,2093
13,-1.0278,-1.1848,-0.2996,-0.1938,-1.6737,1.6808,2025
13,-0.7898,-1.3005,-0.3748,0.0158,-1.595,1.7665,2052
13,-1.0061,-1.0793,-0.4341,0.3587,-1.7143,1.7353,2011
13,-1.0334,-1.3198,-0.5825,0.4932,-1.3587,1.7677,2050
13,-0.752,-1.2822,-0.6565,0.8261,-0.9071,1.5587,1936
13,-0.759,-1.2131,-0.634,1.087,-0.4662,1.5583,2051
13,-0.8047,-1.3137,-0.3538,1.2579,-0.2491,1.6829,2046
13,-0.8596,-1.2505,-0.2817,1.564,-0.0386,1.7341,2024
13,-0.7463,-1.0603,-0.3396,1.7323,0.1194,1.7679,2077
13,-1.0427,-0.6914,-0.3442,2.3684,1.2284,1.6724,2005
13,-1.4705,-0.4819,-0.353,2.7534,1.627,1.5343,2034
13,-1.271,-0.5876,-0.2664,3.0949,2.3249,1.4419,2086
13,-1.4106,-0.6948,-0.2844,3.5685,2.8319,1.4138,2068
13,-1.573,-0.6938,-0.1375,4.1057,3.749,1.3974,2072
13,-0.0046,-1.4519,0.6353,4.3634,4.3634,1.3238,2059
13,-2.0,-0.0544,-0.1223,4.3634,3.636,1.3031,1932
13,-2.0,-1.1331,0.3254,3.7783,4.3634,3.0291,2008
13,-1.1809,-0.9604,0.801,3.4508,4.3634,3.2576,2119
13,-1.4006,-1.1128,0.6472,2.8292,4.3634,2.1326,1999
13,0.1592,-1.2129,0.5515,3.6604,3.2111,0.7392,2089
13,-0.6758,-1.0339,0.114,4.3634,1.0646,-2.0798,2168
13,0.7202,-2.0,0.6426,3.2645,2.1972,-1.1151,2116
13,-0.0212,-1.1985,-0.3347,2.9171,0.834,-0.3891,1981
13,-0.0269,-1.3484,-0.0059,2.7046,0.8713,0.0441,2046
13,-0.4797,-0.8958,0.0325,2.4466,1.4234,0.5259,2069
13,-0.2205,-1.2363,0.0242,2.4437,0.5943,0.5417,2027
14,-0.8452,-0.2568,0.3618,2.2558,0.5751,-0.528,2011
14,-0.553,-0.7551,-0.0483,2.3234,0.9021,-0.6508,2001
14,0.2053,-0.9062,-0.3081,2.2686,0.6486,-0.7733,2044
14,-0.1404,-0.5669,-0.479,2.596,-0.2438,-1.354,2026
14,-0.5793,-0.6084,-0.5078,2.8016,0.0587,-1.6143,2051
14,-0.1775,-0.7488,-0.4817,2.7589,0.4073,-1.7199,2055
14,-0.0562,-0.9902,-0.502,2.5309,-0.0634,-1.5534,2049
14,-0.0947,-1.1919,-0.6113,2.228,-0.5741,-1.3929,2019
14,0.2786,-1.3132,-0.7329,1.6953,-1.0717,-1.2774,2062
14,-0.3711,-0.6165,-0.5168,1.7523,-2.3282,-2.0935,2009
14,-0.4131,-0.7266,-0.5718,1.5249,-2.4766,-2.3394,2024
14,-0.8235,-0.7622,-0.8872,1.407,-2.5251,-2.8405,2057
14,-0.9849,-0.8518,-1.1724,1.2047,-2.3232,-3.0577,2050
14,-1.1587,-0.9553,-1.5386,0.7927,-2.6059,-2.8737,2026
14,-1.5879,-0.7334,-1.6045,0.3128,-2.0792,-2.6782,2069
14,-1.9641,-0.6609,-1.5732,0.1671,-1.4808,-1.9687,2048
14,-1.8386,-0.8354,-1.3855,0.0289,-0.8709,-1.2021,2059
14,-1.9883,-0.5261,-1.1138,0.0866,0.0265,-0.722,2019
14,-1.8264,-0.5459,-0.8545,0.165,1.0279,-0.4658,2039
14,-1.6533,-0.8083,-0.5898,0.383,1.4326,-0.1775,2043
14,-1.1108,-0.7646,-0.3486,0.4943,1.4287,-0.2306,2054
14,-1.1135,-0.9402,-0.2715,0.6922,1.0079,-0.2191,2056
14,-1.1477,-0.7583,-0.168,0.6167,0.5381,-0.3653,2052
14,-0.8796,-1.0374,-0.241,0.4133,-0.1622,-0.6247,2070
14,-0.5732,-0.8208,-0.2676,0.2421,-1.323,-0.3757,2053
14,-0.9353,-1.3779,-0.1982,-0.0738,-2.1112,-0.435,2046
14,-0.9558,-0.8794,-0.5808,-0.1606,-1.6823,-0.1364,2036
14,-1.1619,-1.1309,-0.5442,-0.1088,-0.7533,-0.0886,2062
14,-0.7505,-0.9001,-0.6284,0.1794,-0.589,-0.0241,2050
14,-0.6946,-0.9314,-0.6335,0.2334,-0.6114,-0.1056,2068
14,-0.7922,-0.738,-0.6907,0.2729,-0.6384,0.1329,2022
14,-0.8782,-0.7725,-0.6594,0.1036,-0.5605,0.3089,2031
14,-1.3511,-0.7749,-0.6357,-0.225,-0.2838,0.3734,2023
14,-1.4963,-0.8586,-0.6733,-0.3211,-0.0515,0.7405,2039
14,-1.5044,-0.8301,-0.6519,-0.4456,0.2183,0.9411,2015
14,-1.5962,-0.845,-0.7314,-0.5195,0.4356,0.8966,2027
14,-1.2639,-0.8567,-0.5703,-0.4658,0.6572,0.8624,2032
14,-1.4619,-0.5505,-0.4565,-0.2175,0.489,0.5124,1996
14,-1.1079,-0.6226,-0.2922,-0.0593,0.5416,0.5898,2032
14,-0.9202,-0.7134,-0.1606,0.0782,0.5442,0.5842,2026
14,-0.406,-0.8359,-0.0471,-0.0886,0.7424,0.6691,2131
14,-0.5771,-0.9434,-0.0085,-0.3928,1.1322,0.8115,2007
14,-0.7778,-0.9177,0.0071,-0.3785,1.3841,0.7955,2024
14,-0.3049,-1.0986,-0.3091,-0.4851,1.2077,1.0368,2101
14,-0.6541,-0.8513,-0.4731,-0.3963,1.1146,0.5827,2110
14,-0.5051,-0.7903,-0.5854,-0.4659,1.1838,0.6064,2074
14,-0.814,-0.7473,-0.6106,-0.4501,1.3693,0.6624,2043
14,-1.0986,-0.6277,-0.4529,-0.3641,1.689,0.8668,2029
14,-0.927,-0.72,-0.2209,-0.2719,2.1462,0.7991,2062
14,-0.6494,-0.8218,-0.0105,0.0208,2.0827,0.5264,2102
14,-0.4456,-0.9065,0.3555,0.2338,1.4111,0.4011,2092
14,-0.073,-0.9741,0.3555,0.3906,0.7727,0.3386,2107
14,-0.1472,-1.0864,0.2776,0.4344,0.022,0.0053,2126
14,-0.3948,-0.9543,0.0662,0.4721,0.0362,-0.0653,2058
14,-0.3896,-1.0283,-0.0598,0.361,0.2562,-0.1244,2047
14,-0.4038,-1.0762,-0.1384,0.432,0.6826,-0.1983,2020
14,-0.5776,-0.9072,-0.4546,0.3875,0.8756,-0.2529,2019
14,-0.6541,-0.8982,-0.7136,0.3569,0.8485,-0.326,2046
14,-0.9133,-0.6504,-0.8213,0.239,1.0096,-0.1539,2007
14,-0.9395,-0.6763,-0.7771,0.1313,1.1549,0.0266,2044
14,-1.0061,-0.7979,-0.6853,0.1264,1.0296,0.0305,2069
14,-0.8584,-0.8135,-0.5986,0.1131,0.8461,-0.0017,2052
14,-0.8271,-0.8352,-0.502,0.1601,0.7633,-0.0136,2006
14,-0.8115,-0.8425,-0.4744,0.0581,0.695,0.0156,2134
14,-0.7571,-0.8196,-0.6497,-0.022,0.6034,0.0426,2046
14,-0.7295,-0.8357,-0.7183,-0.1035,0.4906,0.0454,2021
14,-0.8022,-0.7498,-0.7253,-0.0626,0.4546,0.0716,2127
14,-0.7292,-0.7859,-0.6128,-0.0973,0.2707,0.0146,2050
14,-0.7603,-0.7207,-0.6863,-0.0285,0.0867,-0.112,1938
14,-0.5615,-0.7913,-0.7712,-0.2614,-0.3032,-0.1545,2050
14,-0.7278,-0.6423,-0.9197,-0.4313,-0.4655,-0.031,2126
14,-0.9272,-0.5015,-1.0156,-0.6225,-0.4133,0.1835,2048
14,-1.092,-0.4565,-1.0854,-0.6601,-0.032,0.508,2046
14,-1.2754,-0.2988,-0.9824,-0.6034,0.1649,0.579,1953
14,-1.1499,-0.302,-0.9375,-0.5592,0.0917,0.6445,2141
14,-0.9324,-0.2661,-0.7678,-0.3125,-0.1754,0.6212,2083
14,-1.0334,-0.4363,-0.585,-0.1491,-0.6514,0.6018,2108
14,-1.1086,-0.6848,-0.5295,0.1469,-0.8118,0.492,2021
14,-0.9109,-0.926,-0.2856,0.1123,-0.773,0.4586,2006
14,-0.5913,-0.9802,-0.3892,0.1063,-0.5094,0.4683,2007
14,-0.4502,-0.9915,-0.3528,0.0356,-0.4103,0.4109,2103
14,-0.5537,-0.8606,-0.6265,0.0146,-0.0007,0.4843,2024
14,-0.5288,-1.1414,-0.6143,-0.1033,0.238,0.4043,2001
14,-0.613,-1.0942,-0.7871,-0.3469,0.5819,0.7178,2050
14,-0.8306,-0.8047,-0.8035,-0.345,0.9708,0.5445,2051
14,-0.7212,-0.7852,-0.8735,-0.3496,1.5201,0.6124,1964
14,-0.7361,-0.7485,-0.7656,-0.181,1.427,0.5169,2018
14,-0.3977,-0.678,-0.6597,0.2482,1.0022,0.4247,1957
14,-0.8127,-0.7415,-0.6292,0.4297,0.8937,0.0138,2039
14,-0.6077,-0.781,-0.5159,0.3195,0.7143,0.0031,2034
14,-0.5559,-0.8745,-0.5886,0.5284,0.1163,0.0049,2021
14,-0.7251,-1.0461,-0.5901,0.3774,-0.5494,-0.1786,2142
14,-0.7446,-0.8853,-0.5188,0.4069,-0.2771,-0.357,1891
14,-0.8394,-0.9946,-0.5618,-0.0357,-0.9042,-0.3906,2094
14,-1.0461,-0.6587,-0.5674,0.1222,-0.7243,-0.6079,2095
14,-0.9956,-0.4404,-0.8752,-0.1498,-0.5054,-0.5974,2091
14,-0.8413,-0.9045,-0.8638,-0.3658,-1.2849,-0.4389,2108
14,-1.2065,-0.5205,-0.7649,-0.4071,-0.5189,-0.5139,2031
14,-1.3118,-0.1697,-0.9424,-0.4188,-0.1308,-0.3862,2021
14,-1.4053,-0.3445,-0.8079,-0.4193,0.1181,-0.3362,2048
14,-1.6433,-0.5051,-0.7363,-0.5276,0.0912,-0.2892,2013
14,-1.1782,-0.5676,-0.8154,-0.4072,0.4023,-0.032,2063
15,-1.1868,-0.0784,-0.7695,-0.2458,0.7056,-0.4255,2122
15,-1.8591,0.1638,-0.7083,-0.6211,0.3906,-1.0015,2011
15,-1.2043,-0.2073,-0.5964,-0.6131,0.0422,0.0561,2098
15,-1.1357,-0.0564,-0.5745,-0.0386,0.4762,-0.0087,1982
15,-1.7715,-0.4019,-0.5793,-0.4014,0.1152,-0.2156,2046
15,-1.2788,-0.2129,-0.4863,-0.2542,0.0633,0.0917,1973
15,-1.229,-0.52,-0.4148,-0.3603,0.2253,0.1557,2212
15,-0.9177,-0.4592,-0.3857,-0.3862,-0.1021,0.3549,1975
15,-0.8843,-0.4973,-0.5066,-0.381,-0.4054,0.5488,2024
15,-0.8855,-0.509,-0.4907,-0.336,-0.8423,0.6751,1960
15,-0.9321,-0.5359,-0.5247,-0.347,-1.1138,0.8654,2099
15,-0.8789,-0.5833,-0.509,-0.3116,-0.8974,0.8315,1935
15,-0.9656,-0.2942,-0.6179,-0.4211,-0.3229,0.7684,2152
15,-0.8325,-0.2781,-0.623,-0.3605,0.0184,0.8967,2089
15,-0.7571,-0.0967,-0.6174,-0.3056,0.2381,0.9841,2115
15,-0.7256,-0.1099,-0.5051,-0.1324,0.2601,1.0621,2161
15,-0.5481,-0.2188,-0.5955,0.0637,0.0177,0.9401,2154
15,-0.5403,-0.5056,-0.4485,0.065,-0.5444,0.708,1927
15,-0.4556,-0.4639,-0.4065,0.0189,-0.9381,0.3352,2028
15,-0.3735,-0.4563,-0.5391,0.0365,-1.5175,0.0422,2111
15,-0.4104,-0.4614,-0.5132,0.0048,-1.6647,-0.1827,2108
15,-0.4316,-0.3044,-0.5903,-0.004,-1.5434,-0.3247,1977
15,-0.4072,-0.3289,-0.5212,0.0497,-1.2563,-0.2555,2066
15,-0.5134,-0.5559,-0.4541,0.1009,-1.0947,-0.2529,1992
15,-0.5349,-0.5896,-0.4329,0.1103,-0.7712,-0.2518,2061
15,-0.5481,-0.499,-0.448,0.0766,-0.5713,-0.3265,2144
15,-0.6116,-0.4839,-0.4043,0.1349,-0.5504,-0.3982,1891
15,-0.7229,-0.3184,-0.428,0.153,-0.2428,-0.4334,2114
15,-0.8403,-0.655,-0.4224,0.1289,-0.0356,-0.2358,1922
15,-0.8613,-0.4363,-0.4824,0.1369,0.2908,-0.1597,1892
15,-1.0142,-0.2869,-0.5681,0.1627,0.5345,-0.1004,2159
15,-1.0591,-0.6208,-0.4727,0.2139,0.6185,0.0842,2005
15,-1.1018,-0.5876,-0.3892,0.2141,0.8481,0.1815,1970
15,-1.1094,-0.5056,-0.4619,0.1763,0.826,0.2687,2021
15,-0.9041,-0.6826,-0.3711,0.2972,0.6793,0.477,1932
15,-0.8176,-0.731,-0.4275,0.3663,0.5853,0.389,2179
15,-1.0205,-0.4082,-0.2998,0.4741,0.292,0.507,2063
15,-0.9995,-0.696,-0.4443,0.5123,0.186,0.4099,2105
15,-1.1089,-0.7625,-0.5281,0.3851,0.0876,0.4891,2077
15,-1.0149,-0.4253,-0.5996,0.4089,0.0957,0.2671,2117
15,-0.8928,-0.3533,-0.7019,0.5086,0.0953,0.4229,2127
15,-0.9265,-0.4417,-0.5754,0.5908,-0.1332,0.418,2046
15,-0.9155,-0.5051,-0.6484,0.5117,-0.133,0.3498,1994
15,-0.9575,-0.4243,-0.5784,0.3484,-0.23,0.302,1986
15,-0.8894,-0.511,-0.6426,0.2839,-0.0819,0.4617,2039
15,-0.8113,-0.2983,-0.9495,0.2191,0.0165,0.5323,2151
15,-0.7769,-0.4692,-0.8469,0.2358,-0.031,0.6524,1951
15,-0.833,-0.5718,-0.8809,0.1763,0.0313,0.7731,2084
15,-0.8301,-0.6084,-0.8594,0.0775,0.0884,0.8132,2115
15,-0.8347,-0.7236,-0.8511,0.0931,0.2595,0.8905,2036
15,-0.8535,-0.6987,-0.7585,0.1357,0.5353,0.7966,2038
15,-0.7659,-0.4653,-0.6904,0.1346,0.6197,0.7187,2163
15,-0.7944,-0.6729,-0.6699,0.3247,0.713,0.5597,1991
15,-0.7422,-0.6453,-0.7114,0.3211,0.7433,0.4944,2021
15,-0.8735,-0.6602,-0.6794,0.3852,0.6686,0.2308,2081
15,-0.8328,-0.6558,-0.6882,0.558,0.661,0.1706,1956
15,-0.9058,-0.5183,-0.5945,0.5293,0.7605,0.0059,2128
15,-0.8801,-0.6448,-0.6643,0.5988,0.102,0.2196,2091
15,-0.6174,-1.2612,-0.4763,0.4642,0.2874,-0.0306,1978
15,-1.4487,-1.019,-0.5935,1.2113,0.9148,-0.3819,2097
15,-1.0632,-0.7646,-0.7959,0.6921,0.7147,-0.4392,2054
15,-1.0381,-0.4111,-1.2058,0.5987,0.4477,0.0101,2021
15,-0.5891,-0.5117,-0.7332,1.0075,0.0104,0.119,1968
15,-0.8018,-0.6658,-1.0239,1.131,-0.225,0.3024,2058
15,-1.1667,-0.3616,-0.9341,0.7981,-0.558,0.1163,2183
15,-1.3298,-0.8723,-1.043,0.8112,-0.2847,0.1888,1998
15,-1.1055,-0.6943,-0.9893,0.8415,-0.3815,0.2246,2045
15,-1.2058,-0.1602,-1.0005,0.7368,-0.2364,-0.0388,2080
15,-0.9109,-0.2773,-0.9458,0.4895,-0.6843,-0.1593,2059
15,-0.8625,-0.0122,-0.8975,0.5486,-0.471,-0.1689,1913
15,-0.9509,0.2061,-0.9849,0.5418,-0.2938,-0.0646,2138
15,-1.1001,0.5349,-0.7578,0.4685,0.1926,-0.1959,2040
15,-0.8748,0.8926,-0.9224,0.6866,0.5516,0.1326,2037
15,-1.0764,1.1545,-0.9778,1.0214,0.8231,0.5181,2126
15,-0.8264,0.9883,-0.9685,1.1142,0.449,0.8696,1996
15,-1.0925,1.0874,-0.9878,1.074,0.1661,0.8451,2161
15,-0.8789,0.9373,-0.9675,0.7482,-0.2217,0.8475,2125
15,-0.7253,0.2581,-1.052,0.4255,-0.4697,0.7225,2018
15,-0.666,-0.2947,-1.1013,-0.0622,-0.819,0.8854,2113
15,-0.5308,-0.2407,-0.8984,-0.6376,-1.2653,0.866,2106
15,-0.6655,-0.1201,-0.7314,-0.768,-1.3479,0.806,2032
15,-0.6025,-0.0024,-0.6914,-1.0672,-1.421,0.646,2054
15,-0.6711,-0.312,-0.6067,-0.9006,-0.9789,0.6939,1964
15,-0.2983,0.0388,-0.6863,-1.0308,-1.4772,0.5271,1959
15,-0.3198,0.0059,-0.8823,-0.6598,-1.9508,-0.2348,2234
15,-0.5073,-0.7205,-0.8281,-0.1009,-1.4407,0.9027,1738
15,-1.2979,-0.7146,-0.7815,-0.3073,0.2465,0.3832,2093
15,-0.4426,0.2043,-0.7764,-0.3211,0.9448,-0.0281,2120
15,-0.8225,-0.5264,-0.9409,-0.0605,0.9672,-0.4092,2018
15,-0.4883,-0.4526,-0.8896,0.22,0.5783,-0.891,2078
15,-0.3313,0.3115,-0.6309,0.4751,0.8036,-1.2632,1965
15,-0.7793,0.2056,-0.7593,0.3241,0.7075,-1.4973,2096
15,-0.8833,0.1052,-0.8779,0.3077,0.6143,-1.6988,1991
15,-0.8418,0.0281,-0.895,0.1919,0.4713,-1.963,2020
15,-0.7373,0.1411,-0.678,-0.3028,0.5703,-1.6596,2035
15,-1.0325,-0.0735,-1.2024,0.1277,-0.2497,-1.5824,2053
15,-1.1948,-0.313,-1.1458,-0.2401,0.5562,-1.5083,2112
15,-1.2507,-0.0129,-1.1011,-0.3196,0.7577,-1.3986,2088
15,-1.1711,-0.2639,-1.1047,-0.2009,0.8983,-0.9578,2011
15,-1.3142,0.0984,-0.7466,-0.175,1.1786,-0.7502,1966
15,-1.1863,-0.1926,-0.7349,-0.0463,0.9983,-0.583,2138
16,-1.0947,-0.147,-0.6648,0.0329,0.9922,-0.4504,1970
16,-1.1865,-0.0237,-0.6167,0.1884,0.7565,-0.3349,2042
16,-1.1565,-0.4502,-0.6724,0.2682,0.5227,-0.4408,1961
16,-1.1548,-0.4387,-0.5132,0.5798,0.3105,-0.3594,2029
16,-1.4329,-0.4863,-0.5427,0.7714,0.1677,-0.1164,2130
16,-1.5127,-0.4448,-0.5381,0.9026,0.0672,0.3436,2057
16,-1.3125,-0.6511,-0.5513,0.95,-0.0246,0.6991,2124
16,-1.3982,-0.5884,-0.7117,0.9605,-0.1075,0.8614,1990
16,-1.3428,-0.6409,-0.7097,0.9477,-0.3982,0.9059,2136
16,-1.2905,-0.7996,-0.76,0.8389,-0.5188,0.8356,2066
16,-1.0886,-0.2944,-0.7146,0.8878,-0.5983,0.7842,2038
16,-1.0317,-0.4175,-0.7021,0.842,-0.7344,0.8261,2039
16,-1.031,-0.158,-0.707,0.8488,-0.7528,0.5895,2000
16,-0.7844,0.1248,-0.7524,0.84,-0.8708,0.0911,2044
16,-0.7759,0.2893,-0.6802,1.0079,-1.1283,-0.3369,2057
16,-0.7319,0.0,-0.7471,0.8174,-1.2366,-0.334,2056
16,-0.8289,-0.304,-0.8601,0.4988,-1.1003,-0.1743,2041
16,-0.9136,-0.4019,-1.0461,0.0513,-0.9636,-0.1274,1998
16,-0.9314,-0.3601,-1.0457,-0.3017,-0.7678,-0.1471,2034
16,-0.9119,-0.4324,-0.9941,-0.5991,-0.5398,-0.094,2035
16,-0.7629,-0.4409,-0.8765,-0.8272,-0.4165,-0.0969,2053
16,-0.6228,-0.3726,-0.6958,-0.8725,-0.495,0.0198,2042
16,-0.7712,-0.4854,-0.5461,-0.8764,-0.3269,0.0457,2027
16,-0.6841,-0.5593,-0.5269,-0.8018,-0.4397,0.0887,2031
16,-0.7229,-0.572,-0.4963,-0.6008,-0.3646,0.0949,2041
16,-0.8259,-0.572,-0.4353,-0.3685,-0.3,0.1189,2045
16,-0.8838,-0.5171,-0.4248,-0.2075,-0.1093,0.0449,2058
16,-0.8333,-0.4182,-0.4077,0.0169,-0.0419,-0.1471,2048
16,-0.8706,-0.3411,-0.3708,0.2878,0.0055,-0.2831,2042
16,-0.9932,-0.332,-0.4055,0.4442,0.1039,-0.384,2069
16,-0.9487,-0.3093,-0.4417,0.5176,0.0952,-0.4107,2053
16,-0.856,-0.2947,-0.4426,0.673,-0.0481,-0.5424,2049
16,-0.7659,-0.3167,-0.4131,0.7388,-0.4489,-0.6016,2011
16,-0.8467,-0.3977,-0.3523,0.8949,-1.2322,-0.242,2099
16,-0.938,-0.3779,-0.3521,0.7855,-1.2412,-0.4408,2058
16,-0.8242,-0.2769,-0.3872,0.6135,-1.5141,-0.3088,2056
16,-0.8496,-0.3962,-0.3469,0.4952,-1.334,-0.1803,2039
16,-0.7969,-0.4045,-0.3667,0.4566,-1.3215,-0.0571,2054
16,-0.8228,-0.3447,-0.417,0.5919,-1.5456,0.3529,2051
16,-0.813,-0.3811,-0.5105,0.469,-1.4386,0.8071,2075
16,-0.7578,-0.395,-0.5256,0.3251,-1.305,1.2667,1902
16,-0.8484,-0.3247,-0.6621,0.3516,-1.703,1.8129,2062
16,-0.9729,-0.2278,-0.8145,0.4169,-1.4114,2.402,2043
16,-0.9167,-0.155,-0.7646,0.334,-0.8921,2.9167,2020
16,-0.8323,-0.1079,-0.7925,0.2394,-0.5372,3.274,2039
16,-0.8647,-0.2034,-0.821,0.2091,-0.6245,3.4629,2034
16,-0.905,-0.2075,-0.804,0.2453,-0.6705,3.45,2047
16,-0.9617,-0.0808,-0.7866,0.1988,-0.4649,3.5009,2034
16,-1.1592,-0.0664,-0.6909,0.1405,-0.1119,3.7355,2040
16,-1.2559,0.0024,-0.6602,0.0004,0.3209,3.6374,2047
16,-1.2473,-0.0325,-0.5579,-0.3272,0.85,3.7763,2056
16,-1.1135,-0.0278,-0.5308,-0.5774,0.8734,3.5287,2055
16,-1.0713,0.2083,-0.5757,-0.6344,0.9789,3.3259,2055
16,-1.0544,0.2517,-0.7007,-0.6516,1.0678,3.3469,2038
16,-1.1211,0.3574,-0.6521,-0.4529,1.6554,3.1512,2043
16,-1.1536,0.4834,-0.4409,-0.5199,1.6061,3.005,2050
16,-1.019,0.407,-0.4202,-0.4821,1.0597,2.73,2021
16,-0.9258,0.4978,-0.345,0.0489,0.2161,2.4151,2056
16,-0.7532,0.5349,-0.4512,0.3707,-0.2077,2.0526,2054
16,-0.6528,0.436,-0.5293,0.5468,0.1182,1.433,2042
16,-0.5979,0.4583,-0.5322,0.7845,0.4156,0.9014,2036
16,-0.3877,0.4431,-0.4998,0.6758,0.2069,0.5826,2015
16,-0.4241,0.3057,-0.5095,0.8867,-0.662,0.2413,1958
16,-0.4048,0.3025,-0.5298,0.9943,-1.4161,-0.5532,2050
16,-0.356,0.2361,-0.7756,0.9127,-1.2892,-1.4451,2010
16,-0.2727,0.0908,-0.8694,0.7472,-1.2848,-2.021,2021
16,-0.2769,-0.0679,-0.9084,0.72,-1.6606,-2.426,2005
16,-0.2112,-0.1902,-0.8806,0.571,-1.9563,-3.1415,2090
16,-0.1987,-0.3381,-0.8625,0.3911,-2.579,-3.5991,2115
16,-0.3408,-0.4346,-0.875,0.296,-3.4639,-3.9921,2100
16,-0.4326,-0.5674,-0.928,0.1774,-4.2069,-4.1239,2013
16,-0.4993,-0.8416,-0.8716,-0.1381,-4.3635,-4.276,2125
16,-0.5647,-1.2393,-0.7344,-0.7586,-4.3635,-4.2916,2063
16,-0.6462,-1.4807,-0.5461,-1.4253,-4.3635,-4.2434,2119
16,-0.5608,-1.3909,-0.5212,-2.1446,-4.0069,-4.3635,2030
16,-0.6672,-1.3547,-0.5242,-2.5663,-3.8348,-4.3635,2001
16,-0.6279,-1.3123,-0.5854,-3.0862,-3.7792,-4.3635,2128
16,-0.3279,-1.2568,-0.5588,-3.4455,-3.6488,-4.3523,2109
16,-0.3062,-1.2278,-0.4717,-3.564,-3.5716,-3.9607,2013
16,-0.3647,-1.1042,-0.4404,-3.6922,-3.6193,-3.4782,2009
16,-0.5659,-1.0227,-0.481,-3.74,-3.5898,-2.9014,1960
16,-0.6755,-0.842,-0.4871,-3.7294,-3.2397,-2.266,1984
16,-0.9709,-0.7258,-0.4734,-3.7644,-2.701,-1.6872,2010
16,-1.1956,-0.6846,-0.5269,-3.7998,-2.0256,-1.1351,2028
16,-1.3357,-0.6792,-0.4431,-3.9592,-1.2469,-0.8668,2051
16,-1.3508,-0.606,-0.3755,-4.0821,-0.5637,-0.7034,2033
16,-1.3201,-0.4985,-0.3455,-3.9981,-0.1674,-0.4904,2044
16,-1.2153,-0.3774,-0.2554,-3.9037,0.1185,-0.3741,2029
16,-1.0911,-0.2773,-0.168,-3.5412,0.2024,0.0084,2042
16,-0.8286,-0.2739,0.158,-4.0736,0.0288,0.4201,2010
16,-1.4868,-0.2754,-0.1304,-2.9933,-0.789,-0.0971,2057
16,-1.3582,-0.3181,-0.0259,-2.7518,-1.4179,0.0607,2066
16,-1.3538,-0.3735,0.0898,-2.5567,-1.7769,0.1153,2064
16,-1.3125,-0.365,0.1514,-2.408,-1.6219,0.3561,2058
16,-1.2754,-0.4019,0.1587,-2.2292,-1.5988,0.4746,2051
16,-1.2844,-0.4954,0.2695,-2.003,-1.7683,0.6968,2051
16,-1.1785,-0.5457,0.3132,-1.8401,-1.6375,0.899,2056
16,-1.2808,-0.5212,0.3137,-1.5913,-1.4579,1.0334,2036
16,-1.2971,-0.4006,0.282,-1.2002,-1.4061,1.1539,2025
16,-1.2197,-0.481,0.2253,-0.9043,-1.341,1.2529,2037
16,-1.1716,-0.5652,0.1582,-0.4797,-1.1624,1.2733,2048
16,-1.2385,-0.6235,0.1406,-0.1529,-0.93,1.3908,2043
16,-1.2043,-0.624,0.209,0.1748,-0.7343,1.4949,2060
16,-1.2324,-0.6646,0.2803,0.4783,-0.579,1.602,2049
17,-1.0872,-0.9766,0.208,0.3729,-0.1948,1.8546,2031
17,-0.5767,-1.0393,0.1873,0.483,-0.7506,2.3048,1989
17,-0.3567,-1.1992,0.0686,0.0189,-2.7802,2.7014,2044
17,-0.8477,-0.105,0.4412,1.0668,-1.6387,1.8803,2001
17,-1.2822,0.0625,-0.0889,1.585,-0.9873,1.7627,2035
17,-1.437,-0.5945,-0.1667,2.1162,0.4862,1.9265,2077
17,-1.0325,-1.2332,-0.2349,2.0233,1.5873,1.3069,2051
17,-0.6516,-1.0613,-0.1489,2.4533,1.1757,1.7318,2070
17,-0.8901,-1.1211,-0.4338,2.6991,0.673,1.729,2063
17,-0.9497,-1.0613,-0.4233,3.0941,0.6873,1.7724,2040
17,-1.0793,-0.9607,-0.2563,3.328,0.8714,1.5627,2031
17,-1.147,-0.9436,-0.2012,3.5862,1.3099,1.2231,1990
17,-1.1812,-0.7849,0.0637,3.8905,2.5542,0.7779,2052
17,-0.9192,-1.259,0.2966,4.0378,3.5271,0.4038,2059
17,-1.1919,-1.0852,0.2764,3.8351,3.8523,0.1201,2062
17,-0.8904,-1.0303,0.4094,3.7198,3.3876,-0.4199,2059
17,-0.8638,-0.9397,0.1196,4.012,3.2198,-1.3969,2045
17,-0.0598,-1.675,0.2661,3.2981,2.3835,-1.1926,2056
17,0.2544,-1.6853,-0.2466,2.7703,1.8407,-1.0941,2060
17,-0.2227,-1.1174,-0.1316,3.1276,1.419,-1.2208,1995
17,-0.8411,-1.0183,-0.1721,3.268,1.3715,-1.608,2046
17,-0.1128,-2.0,0.1987,2.5037,1.3981,-0.5803,2152
17,-0.5532,-1.5095,-0.0212,2.4441,1.3636,-0.8249,1998
17,-0.0459,-1.9692,-0.1912,2.0507,1.1696,-0.4754,2066
17,-0.3682,-1.3359,-0.178,2.1723,1.076,-0.9267,2033
17,-0.2795,-1.5103,0.0686,2.0908,0.2284,-1.3785,2024
17,0.1521,-1.3857,0.1282,2.0563,-0.595,-1.8863,2065
17,0.0347,-1.2747,-0.0007,1.947,-1.4143,-2.6448,2035
17,0.0183,-1.2637,-0.2947,1.9535,-2.5709,-3.4605,2058
17,-0.5007,-0.9905,-0.6172,1.8327,-3.0724,-3.8737,2076
17,-1.2175,-0.9692,-0.8584,1.915,-2.4693,-3.4941,2077
17,-1.6523,-1.0237,-1.0698,1.9012,-1.3656,-2.9984,1989
17,-1.5732,-0.9934,-1.0098,1.6331,-0.198,-2.9644,2033
17,-1.4553,-0.844,-0.8423,1.7034,0.8989,-2.7243,2044
17,-1.1792,-0.855,-0.6877,1.6293,1.1258,-2.5948,2045
17,-1.3298,-0.894,-0.8831,1.5099,0.6195,-2.0188,2101
17,-1.7161,-0.9814,-0.6641,1.1475,0.5867,-1.3664,2043
17,-2.0,-0.8245,-0.7622,0.9247,1.6198,-0.9504,2041
17,-2.0,-0.9753,-1.0166,0.6411,2.6069,-0.4256,2060
17,-1.7703,-0.9863,-1.0388,0.5823,2.8355,-0.1273,2039
17,-1.7058,-0.9941,-0.8391,0.4303,2.8573,-0.0302,2032
17,-1.5117,-0.8057,-0.582,0.6416,2.9665,-0.0059,2049
17,-1.1926,-0.8401,-0.3301,0.6707,2.7835,-0.0077,2040
17,-0.8032,-0.749,-0.0588,0.5121,2.1411,0.1959,2025
17,-0.4526,-0.7629,-0.0388,0.5341,1.0355,0.1567,2038
17,-0.5076,-0.9468,0.1333,0.4466,0.2016,0.3753,2036
17,-0.5229,-1.2026,0.0339,0.2005,-0.4145,0.569,2087
17,-0.6575,-1.489,-0.0266,-0.1152,-1.1208,0.5553,2034
17,-0.5322,-1.5825,-0.1677,-0.3774,-1.4628,0.6352,2050
17,-0.4587,-1.3403,-0.3062,-0.5046,-1.3689,0.6885,1995
17,-0.6663,-1.1589,-0.3098,-0.648,-1.3154,0.4217,2030
17,-0.5583,-0.8381,-0.5161,-0.5557,-0.8866,0.2653,2040
17,-0.4932,-0.7556,-0.5354,-0.4346,-0.6296,0.4376,2040
17,-0.7488,-0.7175,-0.5828,-0.5771,-0.7891,0.685,2034
17,-0.9788,-0.8047,-0.6738,-0.5155,-1.1359,0.771,2032
17,-1.2251,-0.9619,-0.7175,-0.4747,-1.659,0.7496,2101
17,-1.2578,-1.1277,-0.7112,-0.6694,-1.8885,0.8842,2066
17,-1.5085,-0.8159,-0.7009,-0.4196,-1.2319,1.0095,2055
17,-1.4187,-0.7627,-0.511,0.0308,-0.1095,0.9843,2050
17,-1.2014,-0.8215,-0.2529,0.0369,0.904,0.8178,2051
17,-0.5293,-0.7122,0.116,-0.1598,0.8092,0.7897,2060
17,-0.512,-0.7227,-0.021,0.0,0.5501,0.7961,2011
17,-0.2346,-0.7324,0.197,0.4083,-0.2208,0.5538,2065
17,-0.2632,-0.7893,0.3074,0.0494,-0.866,0.7439,2035
17,-0.3704,-1.0322,0.1145,-0.0253,-0.7806,0.9191,2039
17,-0.5,-1.0498,0.002,-0.1606,-0.1152,0.9432,2028
17,-0.6775,-0.9102,-0.2168,-0.3377,1.174,0.8525,2042
17,-0.5801,-0.748,-0.415,-0.4389,2.0712,0.7281,2026
17,-0.4863,-0.7532,-0.5493,-0.4848,2.2751,0.7004,2023
17,-0.8267,-0.7366,-0.6135,-0.3472,1.9451,0.6514,2014
17,-0.8418,-0.6472,-0.2507,-0.0927,1.6771,0.5181,2031
17,-0.6201,-0.8584,-0.0593,0.1336,1.4134,0.3247,2080
17,-0.2466,-0.8799,0.071,0.278,1.071,0.1593,2050
17,0.1345,-1.0042,0.3123,0.6324,0.9324,0.0047,2111
17,0.0049,-1.0581,0.3914,0.7906,0.985,-0.0739,2098
17,-0.1887,-1.0112,0.2239,0.6592,1.1271,-0.1474,2036
17,-0.4929,-1.0989,0.177,0.554,1.448,-0.0137,2047
17,-0.4561,-1.093,-0.2207,0.3559,1.3719,-0.2635,2059
17,-0.2458,-0.866,-0.4453,0.2808,0.8721,-0.3044,2056
17,-0.4312,-0.8376,-0.5925,0.2999,0.5207,-0.2898,2024
17,-0.8291,-0.8159,-0.8059,0.0991,0.0302,-0.3838,2147
17,-1.0537,-0.7722,-0.8335,-0.0462,0.4341,-0.2197,2000
17,-1.1963,-0.7498,-0.7827,-0.0686,0.86,0.0017,2034
17,-1.2312,-0.8457,-0.7334,-0.0609,1.1408,0.0766,2047
17,-0.915,-0.7715,-0.6433,-0.0623,1.0869,0.0623,2049
17,-0.8748,-0.7561,-0.6357,0.1206,1.0508,-0.1232,2052
17,-0.7285,-0.8396,-0.4712,0.3077,1.1266,-0.2069,2201
17,-0.7214,-0.9998,-0.4163,0.0433,0.9106,-0.0892,1948
17,-0.7102,-0.9648,-0.4375,0.0084,0.6016,-0.018,2097
17,-0.9751,-0.7542,-0.522,-0.267,0.3777,-0.0301,2072
17,-0.7629,-0.8569,-0.677,-0.2421,0.8124,0.1667,2047
17,-0.7859,-0.9277,-0.6812,-0.5999,0.4894,0.1814,2013
17,-0.6624,-0.937,-0.8274,-0.4601,0.2357,0.0633,1958
17,-0.8623,-1.2561,-0.8562,-0.5478,0.0262,0.281,2106
17,-0.7795,-1.105,-0.8826,-0.628,0.0184,0.2152,2053
17,-0.9661,-1.1826,-0.842,-0.9549,-0.278,0.3212,2066
17,-1.1685,-0.697,-0.771,-0.9523,-0.0479,0.1666,1917
17,-1.0237,-0.8767,-0.738,-0.9445,-0.1095,0.2025,2042
17,-0.9551,-0.8132,-0.7131,-0.7079,-0.2187,0.0144,2105
18,-1.0703,-0.6099,-0.7383,-0.5627,-0.5171,-0.0683,2044
18,-1.1296,-0.4858,-0.4978,-0.2397,-0.7091,-0.2686,2021
18,-0.9041,-0.405,-0.4768,-0.2181,-1.0539,-0.4685,2062
18,-0.936,-0.592,-0.3818,-0.1547,-1.8744,-0.4798,2050
18,-1.0933,-0.3689,-0.1572,-0.0491,-2.0836,-0.3695,2050
18,-1.1299,0.0701,-0.1948,-0.0426,-2.0893,-0.5153,2072
18,-1.2783,0.1772,-0.3904,-0.1048,-2.351,-0.0723,1989
18,-1.3303,0.1443,-0.3779,-0.175,-2.2583,0.0772,1944
18,-1.4646,-0.1248,-0.4509,-0.0896,-2.3265,0.4042,2101
18,-1.6077,-0.5347,-0.4561,0.0112,-2.3666,0.4754,2059
18,-1.5579,-0.8181,-0.4395,-0.1096,-2.371,0.5578,2116
18,-1.6873,-0.7388,-0.3435,-0.2571,-2.2843,0.3769,2051
18,-1.5569,-0.6111,-0.3513,-0.3551,-1.9418,0.6714,2035
18,-1.3765,-0.5833,-0.2439,-0.416,-1.6785,0.7022,2039
18,-1.0908,-0.5164,-0.1599,-0.3762,-1.568,0.7754,2015
18,-0.8884,-0.501,-0.1082,-0.296,-1.7291,0.541,2046
18,-0.7397,-0.2429,-0.1545,-0.1975,-1.698,0.3108,2003
18,-0.6736,0.2664,-0.3098,0.0537,-1.7399,-0.2329,2024
18,-0.563,1.0574,-0.594,0.4417,-1.8532,-0.5247,2026
18,-0.1729,0.8896,-0.3083,1.3623,-2.7975,-0.2587,2140
18,-0.5256,-0.4429,-0.1863,1.1495,-3.0103,-0.0599,2110
18,-0.8223,-0.2363,-0.082,0.6172,-2.6755,-0.4558,2072
18,-0.8359,-0.239,-0.6672,0.2693,-1.9168,-0.3781,1978
18,-1.031,0.0122,-1.1904,-0.0308,-0.9477,-0.2976,2000
18,-0.7271,-0.2336,-1.1655,0.1755,0.4429,-0.0479,2037
18,-1.1892,0.3494,-1.2268,0.5469,1.7868,0.1755,1978
18,-0.4666,-0.4534,-0.7222,0.7931,2.7128,0.1471,2154
18,-0.5039,-0.3567,-0.3364,0.8154,3.1797,0.1903,1902
18,-0.5081,-0.2346,-0.168,0.6087,2.8004,-0.038,2128
18,-0.2737,-0.3711,-0.0569,0.1222,2.3088,-0.1509,2063
18,-0.3894,-0.1824,-0.1448,-0.2631,1.7859,-0.0993,2010
18,-0.644,-0.2754,-0.2605,-0.1903,1.6743,-0.2132,2036
18,-0.8552,-0.271,-0.2693,-0.3008,1.3753,-0.2525,2025
18,-0.8179,-0.5129,-0.2114,-0.1498,1.3934,-0.2424,2044
18,-1.0574,-0.4807,-0.116,0.0511,1.519,-0.1473,2035
18,-0.9729,-0.5161,-0.1074,0.2927,1.7811,-0.2153,2038
18,-0.7041,-0.5283,0.2065,0.2268,1.7246,0.3253,2038
18,-1.6248,-0.9812,0.0352,0.7754,1.1841,-0.5608,2040
18,-0.7734,-0.7017,0.1335,0.7119,0.8341,-0.7849,2073
18,-0.6868,-0.7292,0.0881,0.9047,0.381,-0.768,2065
18,-0.8457,-0.5022,0.0178,1.1403,0.069,-0.8689,2061
18,-1.3323,-0.7773,-0.2302,0.905,-0.6935,-0.2583,2043
18,-0.5107,-0.3982,0.0779,0.8914,0.4661,-0.3767,2022
18,-1.1106,-1.0366,-0.1758,0.9692,0.2902,-0.4002,2007
18,-0.9697,-0.7942,-0.0767,1.1352,0.6063,-0.3466,2076
18,-0.5779,-1.8589,-0.3618,0.9447,0.573,-0.245,2032
18,-1.0745,-0.97,-0.3928,0.9086,0.4008,-0.4171,2025
18,-1.3079,-0.5891,-0.1411,0.9107,0.6637,-0.3301,2069
18,-0.969,-1.2842,-0.3823,0.9083,0.4554,-0.2285,2045
18,-1.1047,-0.8796,-0.5654,0.815,0.11,-0.1977,2063
18,-1.1194,-1.1213,-0.2559,0.7805,0.3161,-0.1814,2052
18,-1.2151,-0.8369,-0.3396,0.4517,0.5797,-0.3349,2057
18,-1.446,-0.3008,-0.3459,0.2851,0.3763,-0.1108,2058
18,-1.1011,-1.5208,-0.3052,0.3472,0.7166,0.1321,2048
18,-1.1301,-0.5601,-0.1562,-0.1226,0.8827,-0.0146,2035
18,-1.2869,-0.1426,-0.4832,0.0778,0.5979,0.08,2059
18,-1.134,-0.6218,-0.6321,0.3223,0.3611,0.2145,2038
18,-0.6521,-0.5789,-0.615,0.0791,0.455,0.249,2044
18,-0.844,-0.9365,-0.5356,0.1416,0.5386,0.2526,2043
18,-0.9644,-0.5278,-0.7146,0.5885,0.4685,0.2372,2038
18,-0.9382,-0.5085,-0.554,0.4858,0.3966,0.4837,2042
18,-0.6189,-1.145,-0.575,0.1409,0.5682,0.7208,2045
18,-0.3682,-0.8567,-0.5476,0.5232,0.7399,0.4518,2055
18,-0.9302,-0.4612,-0.7258,0.7493,0.346,0.3173,2043
18,-0.978,-0.6409,-0.9529,0.8301,0.3121,0.2437,2030
18,-0.6089,-0.644,-1.0271,1.19,0.4798,-0.0462,2053
18,-0.5498,-0.9597,-0.6497,0.6002,0.5156,-0.0362,2028
18,-0.7036,-0.9163,-1.0146,0.4924,0.3141,-0.0386,2038
18,-0.7119,-0.8235,-0.7161,0.5987,0.4061,-0.1655,2050
18,-0.6797,-0.5376,-0.7209,0.238,0.1096,-0.2402,2032
18,-0.6953,-1.072,-0.738,-0.1999,0.0301,-0.3434,2014
18,-1.1321,-0.2524,-1.0757,0.0123,0.5706,-0.0896,2054
18,-0.7126,-0.624,-0.9834,-0.3164,0.4948,-0.3072,2035
18,-0.9829,-0.4995,-1.2317,-0.4304,0.6245,-0.1278,2063
18,-1.0002,-0.4458,-1.1201,-0.2491,0.4156,-0.333,2056
18,-0.8264,-0.488,-1.2646,-0.1832,0.0772,-0.2615,2052
18,-0.8135,-0.5742,-1.1162,-0.2111,0.0884,-0.2558,2071
18,-0.9763,-0.7678,-1.1238,-0.6679,0.3309,-0.1666,2007
18,-0.7571,-0.7856,-1.0276,-0.702,0.4871,-0.1768,2015
18,-0.8005,-0.7729,-1.0354,-0.8771,0.6273,-0.0517,2052
18,-0.646,-0.7246,-0.9734,-0.9312,0.4874,-0.0293,2055
18,-0.6677,-0.7466,-0.9324,-1.0094,0.2966,0.0772,2052
18,-0.5852,-0.7209,-0.8237,-1.0096,0.2396,0.0297,2099
18,-0.6899,-0.79,-0.8574,-0.8661,0.1525,0.0855,2042
18,-0.6501,-0.7622,-0.7812,-0.8281,0.3065,-0.0515,2037
18,-0.5103,-0.7388,-0.7183,-0.7415,0.3111,-0.0937,2059
18,-0.4639,-0.7146,-0.5962,-0.6622,0.1732,-0.0684,2027
18,-0.3708,-0.6172,-0.4458,-0.6155,0.0232,-0.0471,2041
18,-0.4424,-0.6262,-0.408,-0.4875,-0.1906,-0.0726,2052
18,-0.5198,-0.6555,-0.2998,-0.4076,-0.3546,-0.1212,2018
18,-0.5422,-0.647,-0.2151,-0.3209,-0.304,-0.112,2060
18,-0.6213,-0.6885,-0.2527,-0.2613,0.0615,-0.0434,2081
18,-0.4507,-0.6689,-0.2837,-0.2095,0.6015,-0.0152,2031
18,-0.7007,-0.8311,-0.4414,-0.2701,1.173,-0.1386,2062
18,-0.491,-0.7332,-0.592,-0.2163,1.2071,-0.0397,2051
18,-0.5273,-0.6614,-0.719,-0.2555,1.2199,-0.245,2075
18,-0.5784,-0.6016,-0.7253,-0.2523,1.0697,-0.3892,2022
18,-0.5872,-0.5857,-0.7256,-0.2782,1.0151,-0.4161,2020
18,-0.7539,-0.7693,-0.7722,-0.357,0.9786,-0.4346,2133
18,-0.9741,-0.9575,-0.7515,-0.3028,0.9989,-0.4031,1996
18,-0.7695,-0.7446,-0.6497,-0.6958,1.1519,-0.3325,2060
18,-0.8926,-0.6995,-0.8899,-0.4409,0.7428,-0.2035,2040
18,-0.8264,-0.7542,-0.7478,-0.6979,0.7628,-0.1329,2105
18,-0.7444,-0.7583,-0.7192,-0.5569,0.4228,-0.1005,2108
19,-0.7715,-0.676,-0.6882,-0.4589,0.212,0.0378,2038
19,-0.8447,-0.6946,-0.7559,-0.3065,0.1382,0.179,2105
19,-0.9097,-0.718,-0.7644,-0.2333,0.2285,0.1828,2051
19,-0.8691,-0.6167,-0.802,0.0654,0.6351,0.2345,2088
19,-0.9246,-0.6396,-0.9075,0.1594,0.9919,0.2217,2068
19,-0.9893,-0.7395,-0.73,-0.0172,1.1523,0.126,2033
19,-0.8584,-0.7717,-0.762,-0.0803,1.2042,0.2008,2088
19,-0.8555,-0.8135,-0.7666,-0.1364,0.9899,0.1924,2094
19,-1.0027,-0.7979,-0.6299,-0.2108,0.6462,0.1579,2125
19,-0.9233,-0.6826,-0.6665,-0.1669,0.6606,0.0678,2097
19,-0.8098,-0.5757,-0.6277,0.0037,0.6582,0.0563,2032
19,-0.7986,-0.5935,-0.5146,0.0856,0.6151,0.1637,2012
19,-0.8052,-0.7036,-0.6392,0.1666,0.5272,0.2657,2091
19,-0.7388,-0.7527,-0.7556,0.3245,0.1005,0.2607,2125
19,-0.6755,-0.9041,-0.9177,0.3502,-0.2585,0.2372,2044
19,-0.6636,-0.8535,-0.895,0.2966,-0.5797,0.1269,2109
19,-0.7427,-0.7996,-0.9385,0.1883,-0.5478,0.1212,1978
19,-0.8015,-0.7598,-1.0332,-0.0326,-0.1731,0.1607,2010
19,-0.7749,-0.7346,-1.189,-0.2369,0.2542,0.278,1990
19,-0.7153,-0.5303,-1.2759,-0.1633,0.473,0.2968,2040
19,-0.6223,-0.4004,-1.188,0.0077,0.3914,0.246,2108
19,-0.6177,-0.5198,-1.1289,0.1055,-0.0637,0.1964,2122
19,-0.6938,-0.6597,-0.9968,0.1759,-0.4876,0.1429,1979
19,-0.7522,-0.707,-0.9023,0.1262,-0.6225,0.0798,2101
19,-0.6851,-0.6589,-0.8945,-0.0535,-0.3883,0.0519,2074
19,-0.5881,-0.5154,-1.0925,-0.2457,-0.081,0.0499,2009
19,-0.564,-0.4839,-1.2625,-0.251,-0.0224,0.1336,2034
19,-0.5181,-1.3945,-1.179,-0.2352,-0.3159,0.2955,2110
19,-1.1467,-1.8608,-0.7915,-0.5185,0.349,0.2434,2092
19,-0.6531,-1.4707,-0.9502,-0.7158,1.1332,-0.1903,1967
19,-0.3875,-0.5291,-0.9697,-0.818,0.9978,-0.4572,2154
19,0.0784,-0.4971,-0.981,-0.4446,0.1867,0.0377,1900
19,-1.1917,-1.4434,-0.2659,-0.2598,0.1493,0.4151,2166
19,-0.6565,-1.7295,0.1296,-0.846,0.2653,-0.0637,2037
19,-0.9292,-1.1809,-0.7112,-0.8837,0.596,-0.2978,2063
19,-0.3381,-0.8953,-0.8918,-0.7795,0.0257,-0.2436,2110
19,-0.7373,-1.1829,-0.2214,-0.8487,-1.9281,0.0068,2135
19,-1.3149,-0.7234,-0.6523,-0.9194,-1.9761,-0.4076,2095
19,-0.6687,-0.5164,-0.9419,-0.6743,-2.1465,-0.5562,1846
19,-0.8579,-0.6614,-0.5361,-0.5972,-3.8087,-0.5141,2138
19,-1.1323,-0.9836,-0.5723,-0.3249,-3.8853,-0.4926,1901
19,-1.2092,-1.5396,-0.4675,-0.61,-4.3635,-0.6797,2109
19,-1.2676,-1.0447,-0.4893,-0.4097,-4.16,-0.6072,2002
19,-0.9856,-0.8713,-0.3828,-0.4299,-3.8835,-0.291,2063
19,-1.0828,-0.374,-0.624,-0.141,-2.9281,0.0692,2032
19,-1.0693,-0.5486,-0.7534,0.4369,-1.5491,0.926,1911
19,-0.9609,-0.4697,-0.5569,0.4477,-1.0573,0.9407,2239
19,-0.78,-0.6204,-0.606,0.559,-0.8614,1.1519,2000
19,-0.738,-0.7466,-0.6694,0.2575,-1.0938,1.6772,1978
19,-0.7056,-0.6985,-0.7617,0.585,-0.7797,1.3304,2110
19,-0.3447,-0.7866,-1.1477,0.6376,-0.6794,1.2005,2070
19,0.0752,-0.8794,-0.7385,0.2179,-1.2671,0.9823,2292
19,-0.0256,-0.9619,-1.1448,0.3057,-1.4523,1.0252,2006
19,0.1003,-1.584,-1.0667,0.1168,-1.2003,0.806,2099
19,-0.0388,-1.5056,-1.085,-0.2707,-0.7255,0.687,2168
19,-0.2024,-1.4155,-1.0117,-0.4494,-0.6743,0.424,2159
19,0.0039,-1.0845,-0.7749,-0.3305,-0.3939,0.2563,2039
19,0.157,-1.1436,-0.7087,-0.076,-0.7566,0.4931,2074
19,-0.2361,-0.6265,-0.9236,0.0047,0.02,0.2898,2110
19,0.0071,-0.7302,-0.9485,0.2301,-0.0459,0.2457,1892
19,-0.228,-0.6733,-0.9731,0.4621,-0.2702,0.245,2175
19,-0.6694,-0.3713,-1.0303,0.9452,-0.1639,0.3618,2119
19,-0.4233,-0.2131,-1.1533,1.0231,0.0268,0.2539,2039
19,-0.5737,-0.0947,-0.9707,1.2612,0.2962,0.3557,2014
19,-0.6414,0.0391,-0.969,0.9907,0.6958,0.8752,2069
19,-0.491,0.4517,-0.9929,0.9886,0.96,1.3595,1954
19,-0.8464,0.7844,-0.9504,0.9855,1.2511,2.067,2059
19,-0.968,0.7434,-1.1118,1.2025,1.5103,2.7623,2044
19,-0.9102,0.6807,-1.2515,0.9171,1.423,3.0552,2023
19,-0.998,0.5872,-1.2036,1.001,1.1949,3.4615,1883
19,-1.1768,0.76,-1.304,1.0765,1.0475,3.4509,2180
19,-1.0898,0.7083,-1.144,0.9945,0.9407,3.4187,2136
19,-0.8218,0.1321,-1.3574,0.9519,0.2936,3.1361,2309
19,-0.8691,0.175,-1.2354,0.8581,-0.1633,2.6449,2063
19,-1.333,-0.1458,-0.8481,0.6356,-0.2111,2.1816,1980
19,-1.4321,-0.5315,-0.7993,0.4307,-0.4947,1.4438,2201
19,-1.3367,-0.4858,-0.6182,0.2473,-0.7996,0.6319,2061
19,-1.3442,-0.5439,-0.6819,0.3292,-0.7348,0.2718,2169
19,-0.9189,-0.5415,-0.8911,0.5729,-0.1392,0.3469,2192
19,-0.4338,-0.1252,-1.0786,0.8533,-0.5658,0.3075,1757
19,-0.5894,0.5403,-0.8782,1.2525,-0.1776,0.6854,2181
19,-0.8687,0.7217,-0.7971,1.6474,0.3047,0.9046,2013
19,-0.9744,0.741,-1.0483,1.2975,0.9036,1.2967,2226
19,-0.8809,0.9709,-0.9324,1.2392,1.0584,1.3162,2063
19,-0.5718,0.551,-1.001,1.238,0.8128,1.2379,2037
19,-0.7361,0.4895,-0.9546,0.9126,0.6484,1.0219,2157
19,-1.0291,0.3728,-0.9856,1.0051,0.7755,0.9307,1777
19,-0.979,-0.2236,-0.9563,0.6391,1.0404,0.9005,2304
19,-0.8535,0.3013,-0.78,0.8396,0.5629,0.6585,2021
19,-0.6748,0.2502,-0.9114,0.7513,0.0738,0.1662,2147
19,-0.8857,0.1045,-0.6868,0.828,-0.4996,-0.2183,2124
19,-0.9512,0.1121,-0.4392,0.9865,-0.3406,-0.3557,2441
19,-1.448,0.2634,-0.5596,1.2936,0.2017,0.2725,1670
19,-1.0999,-0.2847,-0.2515,1.4761,0.6472,0.587,1985
19,-1.2686,0.0181,-0.8218,1.4318,1.1599,0.8403,1923
19,-1.5732,0.0315,-0.592,1.6677,1.5415,0.7522,1656
19,-1.728,-0.1697,-0.282,1.5749,1.9058,0.9624,2135
19,-1.0542,-0.0071,-0.5691,1.5531,1.5297,0.7934,1940
19,-0.7285,0.3613,-0.4026,1.5747,1.0094,0.4928,2104
19,-0.7124,0.5659,-0.481,1.635,0.5454,0.2116,2213
19,-0.9031,0.5078,-0.4749,1.4735,0.118,0.1085,2135
19,-0.98,0.679,-0.4541,1.3619,0.0553,0.0501,2185
19,-1.1665,0.366,-0.5894,0.98,0.1449,-0.0563,1960
20,-1.1038,0.3162,-0.8567,0.7376,-0.0305,-0.1989,2211
20,-0.9709,0.1575,-0.8533,0.3127,-0.1057,-0.4141,1961
20,-0.8386,0.3337,-1.0527,0.6524,-1.099,-0.5794,1946
20,-1.0554,0.0085,-0.6326,-0.2615,-0.1681,-0.6134,2031
20,-0.9492,-0.0181,-0.4358,-0.1522,-0.4639,-0.7688,1264
20,-0.7927,0.1746,-0.6311,-0.3278,-0.2356,-0.8046,2059
20,-0.8171,0.0769,-0.552,-0.3068,-0.1558,-0.8122,2024
20,-0.8584,-0.0896,-0.5293,-0.3625,0.1458,-0.9389,2031
20,-0.7864,0.0481,-0.6853,-0.1109,0.0273,-1.1524,1856
20,-0.8901,-0.064,-0.7322,0.0474,0.025,-1.1463,2150
20,-0.8552,-0.1045,-0.7297,0.1597,0.1068,-1.1168,2241
20,-0.821,-0.1519,-0.8193,0.2517,0.1288,-1.0437,2431
20,-0.7983,-0.2239,-0.8474,0.3438,0.1368,-1.0073,2095
20,-0.8201,-0.2844,-0.825,0.3916,0.1385,-0.9676,2125
20,-0.8689,-0.2747,-0.7803,0.3669,0.1879,-0.9331,2151
20,-0.7717,-0.1345,-0.6101,0.4289,0.1514,-1.075,1864
20,-0.8032,-0.3096,-0.5671,0.1617,0.3715,-1.1166,2108
20,-0.7295,0.0842,-0.5562,0.1754,0.2654,-1.2451,1993
20,-0.7266,0.0652,-0.5371,0.1257,0.2414,-1.2768,2082
20,-0.8162,0.095,-0.4507,0.1048,0.2077,-1.2368,2266
20,-0.8613,-0.0024,-0.5654,-0.0154,0.3079,-1.1557,2043
20,-0.7878,-0.0464,-0.5906,-0.2128,0.3324,-1.0143,1962
20,-0.8455,-0.0483,-0.5403,-0.3113,0.1542,-0.8814,2003
20,-0.865,-0.0818,-0.627,-0.5137,0.1127,-0.7597,1920
20,-0.9336,-0.0742,-0.5813,-0.5452,0.1016,-0.6418,2060
20,-0.8687,-0.1133,-0.6445,-0.5695,-0.0322,-0.6134,2081
20,-0.7964,-0.2632,-0.7004,-0.4038,-0.3284,-0.6746,1936
20,-0.8713,-0.355,-0.6641,-0.1715,-0.5002,-0.7963,2033
20,-1.0918,-0.4133,-0.6633,0.1077,-0.4988,-0.9557,2134
20,-0.9526,-0.4453,-0.6511,0.5462,-0.6345,-1.0156,2065
20,-0.7952,-0.3857,-0.7209,0.7789,-0.7191,-1.1385,2056
20,-0.7832,-0.3665,-0.7676,0.9214,-0.8212,-1.2687,2033
20,-0.6772,-0.2456,-0.8149,1.0005,-0.8162,-1.5354,1995
20,-0.574,-0.1909,-0.7539,1.14,-0.8349,-1.5262,2067
20,-0.6379,-0.0024,-0.7729,1.1681,-0.6674,-1.7286,2035
20,-0.5559,-0.071,-0.7256,1.3117,-0.7075,-1.5755,2030
20,-0.5522,0.1865,-0.8528,1.0058,-0.5373,-1.849,1866
20,-0.5945,0.0244,-0.7671,1.074,-0.1413,-1.7078,2039
20,-0.5486,0.0334,-0.8887,0.97,-0.1519,-1.6922,2054
20,-0.4788,0.0122,-0.8782,0.923,0.0563,-1.5267,2032
20,-0.3655,-0.0474,-0.9653,1.1059,-0.3366,-1.2762,2051
20,-0.3386,0.0618,-1.009,1.0725,-0.7979,-0.912,2051
20,-0.2832,0.1116,-1.1555,1.07,-1.3507,-0.6181,2043
20,-0.3687,0.0906,-1.2676,1.1535,-1.8642,-0.3251,2034
20,-0.5298,0.0938,-1.314,1.1529,-2.1848,-0.1722,1808
20,-0.4634,-0.0918,-1.3105,1.0292,-2.9003,0.0288,2058
20,-0.5583,-0.1421,-1.3862,0.7969,-3.0925,-0.0858,2085
20,-0.5962,-0.2468,-1.4272,0.4719,-3.0083,-0.0326,2014
20,-0.7476,-0.4226,-1.355,0.125,-2.5975,0.2277,2023
20,-0.6582,-0.6743,-1.5769,-0.5264,-2.9533,0.5304,2100
20,-0.6868,-0.6848,-1.6289,-0.9554,-2.9613,0.4052,2077
20,-0.605,-0.5891,-1.4834,-1.3388,-3.1155,0.4208,2110
20,-0.7073,-0.6177,-1.4324,-1.8186,-3.1673,0.2115,2116
20,-0.7876,-0.6033,-1.2571,-2.2304,-3.1423,-0.426,1985
20,-0.5569,-0.5076,-1.2412,-2.8099,-3.2613,-1.1295,2081
20,-0.3826,-0.5708,-1.0435,-2.8204,-3.2525,-1.6665,2065
20,-0.377,-0.752,-0.7498,-3.0127,-3.7053,-1.7203,2014
20,-0.5933,-0.6797,-0.6562,-2.9331,-3.8475,-1.6262,1935
20,-0.627,-0.7209,-0.709,-2.6216,-4.0149,-1.3577,2118
20,-0.9561,-0.8215,-0.7598,-1.7487,-4.3635,-1.1643,2060
20,-1.4272,-1.0315,-0.6394,-1.2796,-4.3635,-1.1852,2145
20,-2.0,-1.2219,-0.8469,-1.9435,-3.7985,-1.1335,2079
20,-2.0,-0.9766,-0.8743,-2.1574,-2.7698,-0.952,2103
20,-1.5667,-1.001,-0.9424,-2.5567,-1.8795,-1.1589,2032
20,-1.1941,-1.2002,-1.124,-2.9317,-1.7572,-0.7279,2012
20,-0.948,-1.1204,-1.2112,-3.2898,-1.9074,-0.5208,1984
20,-0.8918,-0.793,-1.2627,-3.3335,-2.0932,-0.3227,2019
20,-0.752,-0.8772,-1.0789,-3.5744,-1.968,-0.2531,2041
20,-0.5042,-0.7148,-1.0266,-3.5295,-2.3093,-0.0775,2068
20,-0.3586,-0.9829,-1.0474,-3.6603,-2.7115,-0.0495,2003
20,-0.5017,-1.0527,-0.8188,-3.7097,-3.1777,0.0162,2050
20,-0.9546,-0.9189,-0.8069,-3.9371,-3.3965,0.2766,2037
20,-1.0564,-0.8501,-0.6875,-4.0586,-3.1491,0.3025,2040
20,-1.1873,-0.7649,-0.6931,-3.8257,-3.0648,0.3369,2030
20,-1.3137,-0.875,-0.6392,-3.6623,-2.9255,0.2715,2057
20,-1.1978,-0.8821,-0.6921,-3.323,-2.6018,0.2891,1998
20,-1.1421,-0.8699,-0.7051,-3.0558,-2.3469,0.353,2022
20,-1.116,-0.8652,-0.6311,-2.7123,-2.3233,0.3271,2007
20,-1.0505,-0.8943,-0.5173,-2.541,-2.3723,0.3019,2071
20,-1.0959,-0.9058,-0.3477,-2.2494,-2.648,0.2181,2081
20,-1.1177,-1.0042,-0.2415,-2.0981,-2.9757,0.2618,2002
20,-0.9644,-0.9907,-0.2981,-1.7598,-2.899,0.5301,2043
20,-0.9133,-1.4731,-0.0735,-1.6263,-2.4653,0.5036,2072
20,-0.6772,-0.95,-0.0747,-1.4055,-2.917,0.5715,2044
20,-0.7759,-0.5857,-0.1042,-1.2018,-2.5216,0.6987,2043
20,-0.6895,-0.5398,-0.0256,-0.8877,-2.4434,0.7903,2061
20,-0.6516,-0.5461,-0.1624,-0.6489,-2.3345,0.8152,1970
20,-0.6182,-0.6438,-0.1667,-0.1156,-2.5179,0.8095,2053
20,-0.5481,-1.0386,-0.1707,0.45,-2.3417,0.6771,2077
20,-0.1162,-1.7529,-0.2646,0.0426,-2.0936,0.5906,2048
20,0.2065,-1.8506,-0.458,-0.4991,-2.1274,0.6691,2070
20,-0.1782,-0.4944,-0.2742,0.1334,-2.2718,0.8915,2014
20,-0.4429,-0.7283,-0.1443,0.5421,-2.049,0.8457,2029
20,-0.55,-0.9924,0.115,0.9933,-1.3039,0.7723,2041
20,-0.7744,-0.6897,0.1934,1.2925,-0.2611,0.799,2069
20,-0.478,-0.5144,0.2476,1.6937,0.5164,0.7076,2050
20,-0.5635,-0.6299,0.0444,2.1391,0.7272,0.7783,1997
20,-0.6345,-0.8604,0.0452,2.2545,0.5601,0.8091,2013
20,-1.0215,-0.6804,0.0618,2.5802,0.8821,0.8219,1996
20,-0.9741,-0.7251,0.1479,2.8135,1.2632,0.7743,2052
21,-0.9778,-0.4958,0.1218,3.442,1.7282,0.8022,2128
21,-1.208,-0.4043,0.2568,3.9916,2.179,0.7225,2068
21,-1.2463,-1.3745,0.562,4.0527,3.2485,0.4038,2074
21,-1.4607,-0.8506,0.479,4.0855,4.3387,0.8066,2060
21,-1.5283,-0.3069,0.5308,3.2736,4.1261,0.8099,2112
21,-0.5481,-1.0754,0.4504,3.4541,4.3129,0.5287,2052
21,-0.9131,-0.738,0.4512,3.012,3.8494,1.0415,2060
21,-1.186,-0.5105,0.1658,3.1263,2.9486,0.4721,2049
21,-0.823,-0.7507,0.166,2.8387,2.5705,-0.0278,2126
21,-0.0435,-1.1973,0.2568,3.3073,2.3914,-0.3131,2061
21,-0.9956,-0.8206,-0.239,2.8083,1.9873,0.157,1974
21,-0.7144,-1.2041,0.2349,2.476,3.6288,1.2591,1971
21,-0.4697,-0.981,0.1082,2.6855,3.2192,1.4278,2038
21,-1.1035,-0.0532,0.1118,2.2035,1.5073,0.7473,2006
21,-1.0442,-0.4722,0.1072,2.0884,1.0099,0.4638,2077
21,-0.4321,-0.7344,0.1692,1.8622,0.7066,0.2453,2109
21,-0.6318,-0.4697,-0.1221,1.6833,0.522,-0.1875,2055
21,-0.0564,-0.5103,-0.292,2.1378,-0.1344,-0.2413,2071
21,-0.1135,-0.9692,-0.2905,1.7393,0.037,-0.3249,2086
21,-0.6672,-0.4319,-0.3518,1.9475,-0.094,-0.3779,2041
21,-0.5867,-1.1091,-0.2119,1.5479,-0.2238,-0.3585,2052
21,-0.6287,-0.7007,-0.4009,1.2493,0.1312,-0.3389,2048
21,-0.853,-0.6021,-0.3574,1.1541,-0.1401,-0.5862,2014
21,-0.9568,-0.5256,-0.5569,1.0693,0.1685,-0.5877,2055
21,-0.5239,-0.7129,-0.5525,0.9676,0.3595,-0.6316,2035
21,-0.6196,-0.3235,-0.7295,1.2601,0.5172,-0.9127,2047
21,-0.6484,-0.4719,-0.6035,1.3667,0.8416,-1.1176,2054
21,-0.6604,-0.6201,-0.3926,1.2162,1.1295,-1.2576,2037
21,-0.4214,-0.7463,-0.4905,1.0905,0.9192,-1.5034,2048
21,-0.4395,-0.7217,-0.6895,1.0444,0.8056,-1.7693,2051
21,-0.4988,-0.7205,-0.6145,0.8477,0.4759,-1.975,2037
21,-0.5342,-0.696,-0.717,0.8296,0.4332,-2.0306,2057
21,-0.6567,-0.6284,-0.7295,0.809,0.5691,-1.9559,2046
21,-0.875,-0.644,-0.6255,0.7247,0.3854,-1.8237,2069
21,-0.9707,-0.6787,-0.7976,0.5436,0.2721,-1.596,2056
21,-0.9958,-0.7776,-0.7468,0.3029,0.3547,-1.4047,2038
21,-0.9216,-0.8831,-0.6924,0.1396,0.0498,-1.4884,2048
21,-0.8081,-0.8181,-0.4695,0.1939,-0.2117,-1.6615,2033
21,-0.8274,-0.8464,-0.3694,0.488,-1.0166,-1.6041,2051
21,-0.9424,-0.8215,-0.1189,0.5691,-1.3868,-1.4097,2023
21,-1.0984,-0.9155,-0.1099,0.4934,-1.4704,-1.1644,2049
21,-1.1213,-1.2261,-0.0537,0.4718,-1.6041,-0.719,2049
21,-1.0784,-1.1604,-0.1736,0.2234,-1.3086,-0.6184,2028
21,-1.1868,-1.1526,-0.0571,-0.0824,-1.0461,-0.7973,2037
21,-1.0212,-1.094,-0.1428,-0.1482,-1.1147,-0.8533,2034
21,-0.8132,-1.2949,-0.366,-0.2709,-1.2965,-1.1837,2035
21,-0.7717,-1.0332,-0.5039,-0.3547,-1.6847,-1.3789,2045
21,-0.7129,-0.9983,-0.6035,-0.3854,-2.0246,-1.5804,2050
21,-0.7668,-0.8591,-0.5894,-0.547,-2.0979,-1.6916,2052
21,-0.7441,-0.8123,-0.5527,-0.6329,-2.2374,-1.6036,2052
21,-0.813,-0.7498,-0.5688,-0.6489,-2.1097,-1.2415,2045
21,-1.0576,-0.8196,-0.6616,-0.3806,-1.8739,-0.9325,2046
21,-1.3291,-0.9016,-0.7402,-0.24,-1.1532,-0.8227,2059
21,-1.5188,-0.866,-0.7839,-0.0417,0.153,-0.8096,2067
21,-0.6255,-0.7058,-0.467,-0.1112,1.797,-0.5012,2068
21,-1.4102,-1.0876,-0.5774,0.4983,1.8112,-0.5364,2053
21,-1.0525,-0.9941,-0.385,0.61,1.5949,-0.5974,2058
21,-1.0383,-1.0659,-0.303,0.6271,1.4069,-0.5642,2028
21,-0.9446,-1.0505,-0.1313,0.4705,1.1419,-0.4093,2032
21,-0.3635,-0.9617,-0.0708,-0.0605,1.0504,-0.0629,2033
21,-1.1946,-1.1411,-0.2046,0.1422,0.169,0.0976,2041
21,-1.0569,-1.1565,-0.2363,-0.0694,-0.1469,0.2087,2064
21,-1.2014,-1.1338,-0.2812,-0.1176,-0.0125,0.3539,2049
21,-1.1838,-1.0789,-0.3533,-0.082,0.5074,0.434,2054
21,-0.978,-0.9785,-0.3145,0.0285,0.8499,0.5697,2074
21,-0.991,-0.9634,-0.2937,0.0172,1.1678,0.6718,2056
21,-0.9915,-0.9226,-0.3628,0.0056,1.229,0.8525,2028
21,-1.0757,-1.0105,-0.4106,-0.1148,1.3399,0.9455,2061
21,-1.0554,-1.0566,-0.4114,-0.3143,1.4043,0.9817,2077
21,-1.1326,-0.9373,-0.4829,-0.4574,1.4498,1.0176,2037
21,-1.021,-0.8618,-0.4985,-0.5247,1.731,1.2605,2038
21,-1.2676,-0.9092,-0.5366,-0.5501,1.8679,1.5571,2033
21,-1.2422,-0.8889,-0.5542,-0.7243,1.8273,1.5986,2048
21,-1.1826,-0.8433,-0.4871,-0.7325,1.6503,1.5657,2067
21,-1.0315,-0.8308,-0.45,-0.5028,1.6512,1.5438,2029
21,-0.9124,-0.8369,-0.3015,-0.2926,1.4685,1.4446,1993
21,-0.96,-0.8013,-0.1636,-0.2482,1.3291,1.3705,2058
21,-0.9553,-0.7573,-0.1514,-0.1052,1.3848,1.2262,2057
21,-0.9548,-0.6887,-0.1514,0.1068,1.6845,1.1644,1980
21,-0.7478,-0.8826,-0.0857,0.2764,1.9154,1.128,2032
21,-0.6765,-0.8806,-0.1785,0.3812,2.2787,1.0887,2043
21,-0.5015,-0.8215,-0.3003,0.4738,2.3277,0.8769,2054
21,-0.2246,-0.8667,-0.4922,0.5429,2.1044,0.714,2057
