Timestamp,Ax,Ay,Az,Rx,Ry,Rz,HR_value
0,-1.254,-0.3745,-0.004,-1.0095,0.0894,-0.3456,169
0,-1.2673,-0.4438,-0.0031,-0.9812,0.0196,-0.3325,169
0,-1.2092,-0.5102,0.0286,-0.895,-0.0523,-0.3302,169
0,-1.1245,-0.553,0.051,-0.7751,-0.1089,-0.3401,169
0,-1.0591,-0.5449,0.0418,-0.6541,-0.1373,-0.3434,169
0,-1.0051,-0.549,0.052,-0.5516,-0.1286,-0.3205,169
0,-0.8755,-0.6153,0.0234,-0.5516,-0.1286,-0.3205,169
0,-0.8755,-0.6153,0.0234,-0.4916,-0.1144,-0.339,169
0,-0.8387,-0.6153,0.0193,-0.4153,-0.085,-0.3586,169
0,-0.7857,-0.5918,0.0234,-0.3172,-0.0621,-0.3575,169
0,-0.7683,-0.5765,0.0132,-0.2605,-0.0228,-0.339,169
0,-0.7326,-0.652,-0.0122,-0.2594,0.012,-0.3117,169
0,-0.7479,-0.704,-0.0418,-0.2169,0.0446,-0.2747,169
0,-0.7561,-0.7285,-0.0652,-0.1242,0.0643,-0.2016,169
0,-0.7867,-0.751,-0.0571,-0.0053,0.0675,-0.1089,169
0,-0.8622,-0.7867,-0.1387,0.1384,0.0795,-0.0152,169
0,-0.8826,-0.7449,-0.1459,0.1384,0.0795,-0.0152,169
0,-0.8949,-0.6673,-0.1102,0.3292,0.073,0.0664,169
0,-0.8949,-0.6673,-0.1102,0.5112,0.025,0.1352,169
0,-0.9183,-0.6367,-0.1265,0.6083,-0.0131,0.2093,169
0,-0.951,-0.6214,-0.1765,0.6617,-0.0534,0.2693,169
0,-0.9581,-0.553,-0.1653,0.7741,-0.1047,0.326,169
0,-0.9745,-0.4938,-0.1439,0.8689,-0.1537,0.3729,169
0,-0.9734,-0.4601,-0.1571,0.9223,-0.1776,0.3903,169
0,-0.9428,-0.3867,-0.1449,0.9746,-0.1995,0.3968,169
0,-0.9306,-0.3683,-0.15,0.9943,-0.2268,0.4065,169
0,-0.9183,-0.35,-0.1571,0.9943,-0.2268,0.4065,169
0,-0.8989,-0.3357,-0.152,0.9965,-0.2409,0.4109,169
0,-0.8989,-0.3357,-0.152,1.0095,-0.2474,0.4175,169
0,-0.8571,-0.3663,-0.1,1.0128,-0.2485,0.4317,169
0,-0.8459,-0.3796,-0.1194,0.9801,-0.2388,0.4469,169
0,-0.8275,-0.3387,-0.0786,1.0324,-0.2125,0.4742,169
0,-0.8122,-0.3234,-0.0989,1.0587,-0.1766,0.5059,169
0,-0.7663,-0.3489,-0.1173,1.0238,-0.1428,0.5353,169
0,-0.7397,-0.3469,-0.1346,1.0095,-0.1177,0.5604,169
0,-0.6908,-0.2806,-0.1428,1.124,-0.0643,0.6159,169
0,-0.6714,-0.2449,-0.1337,1.123,-0.0435,0.6367,169
0,-0.6642,-0.2469,-0.1112,1.0673,-0.0217,0.6585,169
0,-0.6673,-0.2643,-0.101,1.0673,-0.0217,0.6585,169
0,-0.6673,-0.2643,-0.101,1.016,0.012,0.6869,169
0,-0.6796,-0.2867,-0.0796,0.979,0.0511,0.7205,169
0,-0.7112,-0.3163,-0.0561,0.9681,0.0992,0.7609,169
0,-0.7173,-0.3122,-0.0367,0.9931,0.1503,0.8002,169
0,-0.7234,-0.3,-0.0163,1.0303,0.2169,0.8384,169
0,-0.7275,-0.2918,-0.0071,1.0575,0.2932,0.8689,169
0,-0.7061,-0.2612,-0.0163,1.0923,0.3804,0.8918,169
0,-0.6867,-0.2081,-0.0214,1.1491,0.4721,0.9158,169
0,-0.6571,-0.1775,-0.0326,1.1785,0.569,0.9299,169
0,-0.6755,-0.1306,-0.0796,1.1676,0.6606,0.9353,169
0,-0.7133,-0.1224,-0.1194,1.1676,0.6606,0.9353,169
0,-0.7133,-0.1224,-0.1194,1.111,0.7598,0.9343,169
0,-0.7632,-0.0898,-0.1663,1.0345,0.8373,0.9246,169
0,-0.8255,-0.1255,-0.1959,0.9626,0.8962,0.8787,169
0,-0.9622,-0.1683,-0.2561,0.9234,0.9299,0.8329,169
0,-1.0295,-0.1918,-0.2867,0.9191,0.9517,0.7806,169
0,-1.0887,-0.2224,-0.2898,0.9616,0.9485,0.7217,169
0,-1.1449,-0.2306,-0.2938,1.0259,0.9212,0.6737,169
0,-1.2367,-0.1724,-0.2336,1.1142,0.8885,0.6367,169
0,-1.254,-0.1275,-0.2663,1.1796,0.8689,0.6138,169
0,-1.2194,-0.1214,-0.2296,1.1796,0.8689,0.6138,169
0,-1.1908,-0.0438,-0.1928,1.2854,0.8853,0.5713,169
0,-1.1908,-0.0438,-0.1928,1.3944,0.8775,0.5658,169
0,-1.0652,0.051,-0.1398,1.4217,0.8809,0.5614,169
0,-1.0112,0.0918,-0.1296,1.3956,0.8918,0.5528,169
0,-0.9683,0.1143,-0.1143,1.3344,0.9103,0.5516,169
0,-0.952,0.1041,-0.1204,1.2308,0.9212,0.5528,169
0,-0.999,0.0316,-0.1683,1.1121,0.9267,0.5723,169
0,-1.0377,-0.0132,-0.2112,1.0509,0.8994,0.5887,169
0,-1.0786,-0.053,-0.252,1.0357,0.8427,0.6039,169
0,-1.1214,-0.0734,-0.2969,1.0357,0.8427,0.6039,169
0,-1.1612,-0.0724,-0.3826,1.0587,0.7697,0.6356,169
0,-1.1612,-0.0724,-0.3826,1.1022,0.6737,0.6869,169
0,-1.1673,-0.0643,-0.4224,1.2047,0.6007,0.7512,169
0,-1.1469,-0.0398,-0.4601,1.2842,0.5473,0.8329,169
0,-1.1204,0.001,-0.4745,1.3649,0.495,0.9179,169
0,-1.0612,0.1561,-0.4755,1.4238,0.4557,0.9834,169
0,-1.0143,0.2377,-0.4479,1.437,0.4307,1.0095,169
0,-0.9724,0.3306,-0.4326,1.4141,0.4219,1.0314,169
0,-0.951,0.4153,-0.4377,1.3595,0.4481,1.027,169
0,-0.9214,0.5857,-0.4183,1.3595,0.4481,1.027,169
0,-0.9142,0.6,-0.4265,1.2537,0.4513,1.0314,169
0,-0.9142,0.6,-0.4265,1.0935,0.4568,0.979,169
0,-0.9122,0.6285,-0.4347,0.9692,0.4546,0.9038,169
0,-0.9316,0.749,-0.4316,0.9027,0.4906,0.858,169
0,-0.9663,0.7775,-0.4581,0.6682,0.4578,0.7566,169
0,-0.9714,0.701,-0.501,0.3521,0.4034,0.6377,169
0,-1.004,0.6541,-0.4877,0.1396,0.3554,0.52,169
0,-1.0071,0.5887,-0.549,0.0305,0.2966,0.4372,169
0,-0.9041,0.6,-0.45,-0.157,0.1886,0.3958,169
0,-1.0612,0.2949,-0.55,-0.157,0.1886,0.3958,169
0,-1.0612,0.2949,-0.55,-0.4818,0.1221,0.3542,169
0,-0.9316,0.3245,-0.4806,-0.5582,0.0751,0.3248,169
0,-0.9979,0.2367,-0.4949,-0.483,0.0566,0.3445,169
0,-0.951,0.2714,-0.4734,-0.4546,0.0021,0.3729,169
0,-0.901,0.1765,-0.4601,-0.5635,-0.1286,0.3641,169
0,-0.8898,0.1673,-0.504,-0.5789,-0.1537,0.3804,169
0,-0.8898,0.1908,-0.4183,-0.5047,-0.2081,0.4023,169
0,-0.8347,0.1744,-0.3969,-0.495,-0.2594,0.3706,169
0,-0.8081,0.1796,-0.401,-0.4862,-0.2888,0.3521,169
0,-0.8112,0.1867,-0.3653,-0.4862,-0.2888,0.3521,169
0,-0.8112,0.1867,-0.3653,-0.3958,-0.2823,0.3216,169
0,-0.7683,0.2755,-0.351,-0.2768,-0.2768,0.2878,169
0,-0.7581,0.3734,-0.2734,-0.2758,-0.2725,0.2453,169
0,-0.7653,0.4061,-0.2979,-0.3456,-0.218,0.2147,169
0,-0.754,0.4275,-0.2571,-0.4012,-0.1919,0.1755,169
0,-0.7673,0.4428,-0.251,-0.4666,-0.1526,0.1352,169
0,-0.7704,0.451,-0.2898,-0.5528,-0.1133,0.0937,169
0,-0.8448,0.4183,-0.2928,-0.5996,-0.085,0.0589,169
0,-0.7173,0.5449,-0.299,-0.6018,-0.0414,0.0751,169
1,-0.7643,0.5183,-0.3,-0.7861,-0.0381,-0.0053,169
1,-0.7377,0.4979,-0.3347,-0.7861,-0.0381,-0.0053,169
1,-0.7377,0.4979,-0.3347,-0.8983,0.0631,-0.0894,169
1,-0.7581,0.4745,-0.4235,-0.9353,0.1057,-0.1167,169
1,-0.703,0.5979,-0.2908,-0.9692,0.1188,-0.1842,169
1,-0.6775,0.4203,-0.4071,-1.1938,0.1581,-0.2453,169
1,-0.6887,0.4163,-0.3755,-1.2909,0.2115,-0.2747,169
1,-0.6744,0.4377,-0.3867,-1.2657,0.2714,-0.2899,169
1,-0.6938,0.3887,-0.3969,-1.354,0.326,-0.2922,169
1,-0.7336,0.3439,-0.4592,-1.4053,0.3804,-0.2682,169
1,-0.7326,0.4173,-0.452,-1.3432,0.4349,-0.2191,169
1,-0.7592,0.403,-0.4836,-1.3432,0.4349,-0.2191,169
1,-0.7397,0.401,-0.502,-1.3966,0.4742,-0.1602,169
1,-0.7397,0.401,-0.502,-1.5024,0.532,-0.1035,169
1,-0.701,0.4857,-0.5051,-1.5219,0.5854,-0.0511,169
1,-0.7122,0.5204,-0.5295,-1.5601,0.6411,-0.0131,169
1,-0.699,0.5204,-0.5602,-1.6659,0.7075,-0.0152,169
1,-0.7336,0.5377,-0.5959,-1.7367,0.7621,-0.024,169
1,-0.8877,0.6153,-0.6857,-1.7804,0.8035,-0.0523,169
1,-1.0143,0.6612,-0.7234,-1.8544,0.8252,-0.1112,169
1,-1.0847,0.6428,-0.701,-2.0082,0.809,-0.1776,169
1,-1.1357,0.6091,-0.6663,-2.0082,0.809,-0.1776,169
1,-1.2316,0.3704,-0.6857,-2.2895,0.7871,-0.1919,169
1,-1.2316,0.3704,-0.6857,-2.6068,0.797,-0.1449,169
1,-1.2347,0.3132,-0.6622,-2.7508,0.7991,-0.1253,169
1,-1.2306,0.2806,-0.6194,-2.7779,0.7632,-0.0937,169
1,-1.2408,0.2786,-0.6173,-2.8074,0.7359,-0.0589,169
1,-1.2888,0.1928,-0.6459,-2.8554,0.7031,-0.0261,169
1,-1.3469,0.1908,-0.6479,-2.8586,0.6476,0.0131,169
1,-1.4051,0.199,-0.6265,-2.8521,0.5734,0.0381,169
1,-1.4663,0.2265,-0.601,-2.8597,0.4677,0.0402,169
1,-1.5071,0.2153,-0.499,-2.8597,0.4677,0.0402,169
1,-1.5071,0.2643,-0.501,-2.899,0.3422,0.0131,169
1,-1.5071,0.2643,-0.501,-2.9273,0.2529,-0.0446,169
1,-1.4163,0.1847,-0.451,-2.9906,0.1657,-0.1198,169
1,-1.2979,0.152,-0.4244,-3.0353,0.1264,-0.193,169
1,-0.9826,-0.0132,-0.4836,-3.0364,0.1984,-0.2737,169
1,-0.9112,-0.0367,-0.4561,-2.9786,0.2289,-0.2922,169
1,-0.8918,-0.0786,-0.4969,-2.8914,0.2998,-0.3271,169
1,-0.853,-0.1091,-0.5051,-2.779,0.326,-0.3935,169
1,-0.8428,-0.0765,-0.4714,-2.6417,0.3019,-0.4492,169
1,-0.8408,-0.0928,-0.4642,-2.5774,0.2779,-0.4916,169
1,-0.8418,-0.1245,-0.4704,-2.5469,0.2388,-0.4992,169
1,-0.8591,-0.1622,-0.4601,-2.4717,0.1951,-0.495,169
1,-0.8714,-0.1785,-0.4714,-2.4717,0.1951,-0.495,169
1,-0.8714,-0.1785,-0.4714,-2.3712,0.1623,-0.4862,169
1,-0.8837,-0.1796,-0.4724,-2.2491,0.1286,-0.4643,169
1,-0.902,-0.1898,-0.4785,-2.1358,0.1035,-0.4393,169
1,-0.9479,-0.1816,-0.4806,-2.0181,0.0828,-0.4143,169
1,-0.951,-0.1663,-0.4734,-1.8698,0.0577,-0.3794,169
1,-0.999,-0.3571,-0.3316,-1.7739,0.0479,-0.351,169
1,-1.0918,-0.5979,-0.3571,-1.8872,0.1438,-0.3085,169
1,-1.051,-0.5275,-0.8143,-1.8687,0.2169,-0.2256,169
1,-0.7959,-0.1204,-0.4694,-0.966,0.0196,-0.4187,169
1,-0.8643,0.0031,-0.303,-0.966,0.0196,-0.4187,169
1,-0.7265,0.0357,-0.2316,-0.4916,-0.1526,-0.6562,169
1,-0.7265,0.0357,-0.2316,-0.6116,-0.0937,-0.6236,169
1,-0.6785,-0.001,-0.2959,-0.9147,-0.0076,-0.4568,169
1,-0.7194,-0.0796,-0.4561,-0.9473,0.0282,-0.2104,169
1,-0.703,-0.0245,-0.3234,-0.7947,0.0392,-0.1602,169
1,-0.6785,-0.0316,-0.249,-0.6606,0.0643,-0.2039,169
1,-0.6173,0.1581,-0.2347,-0.495,0.1188,-0.2932,169
1,-0.6898,0.2612,-0.2806,-0.4426,0.1177,-0.375,169
1,-0.5347,0.2643,-0.2571,-0.6432,0.0959,-0.4797,169
1,-0.605,0.1592,-0.2449,-0.6432,0.0959,-0.4797,169
1,-0.553,0.1592,-0.2163,-0.8863,0.1177,-0.5745,169
1,-0.553,0.1592,-0.2163,-0.9017,0.1591,-0.6203,169
1,-0.5286,0.1857,-0.1489,-0.9246,0.1864,-0.6617,169
1,-0.6173,0.1326,-0.1714,-1.0379,0.2049,-0.6955,169
1,-0.802,-0.0632,-0.153,-1.1316,0.1591,-0.7359,169
1,-0.8643,-0.152,-0.1622,-1.0717,0.1123,-0.7588,169
1,-0.9663,-0.2388,-0.153,-0.9746,-0.0021,-0.7369,169
1,-1.0112,-0.5377,-0.0663,-0.7926,-0.1318,-0.6911,169
1,-1.3653,-1.302,0.0775,-0.4763,-0.0904,-0.495,169
1,-1.1744,-1.1234,-0.1,-0.4763,-0.0904,-0.495,169
1,-1.002,-1.701,0.0031,-0.9485,0.1428,-0.1493,169
1,-1.1296,-0.5959,-0.4642,-1.3071,0.2464,-0.098,169
1,-1.1296,-0.5959,-0.4642,-1.1753,0.2049,0.0784,169
1,-1.1245,-0.3173,-0.5051,-0.194,-0.1047,-0.3466,169
1,-1.3081,-0.4642,-0.4255,1.172,0.1308,-0.6039,169
1,-1.3489,-0.1714,-0.4673,2.0398,0.1047,-0.4578,169
1,-1.4183,-0.0153,-0.4,2.3092,-0.1047,-0.1667,169
1,-1.3326,0.1479,-0.3867,2.0257,-0.2049,0.2104,169
1,-1.5255,0.2857,-0.5408,1.8796,-0.1013,0.6138,169
1,-1.5245,0.5367,-0.5775,1.9471,-0.1471,0.834,169
1,-1.4561,0.6959,-0.3398,1.9471,-0.1471,0.834,169
1,-1.2194,0.9469,-0.2306,2.0856,-0.314,0.7751,169
1,-1.2194,0.9469,-0.2306,1.9286,-0.3695,0.6007,169
1,-1.1765,0.802,-0.25,1.4565,-0.4841,0.4448,169
1,-1.0336,0.7367,-0.1847,1.1339,-0.4513,0.4982,169
1,-1.0948,0.6,-0.1663,0.871,-0.3586,0.6039,169
1,-0.9622,0.5806,-0.1398,0.8252,-0.3368,0.5789,169
1,-0.9142,0.7499,-0.1,0.9256,-0.3063,0.5484,169
1,-0.7928,0.7163,0.0265,0.7424,-0.3609,0.4721,169
1,-0.7949,0.502,-0.0286,0.4655,-0.2758,0.3685,169
1,-0.749,0.4214,-0.0652,0.4655,-0.2758,0.3685,169
1,-0.749,0.4214,-0.0652,0.4109,-0.2464,0.3826,169
1,-0.7234,0.4203,-0.049,0.4372,-0.2398,0.3783,169
1,-0.7204,0.3326,-0.1367,0.3161,-0.2213,0.3325,169
1,-0.7214,0.302,-0.1663,0.314,-0.23,0.3357,169
1,-0.7245,0.3347,-0.2397,0.3935,-0.2398,0.3183,169
1,-0.7133,0.3275,-0.2928,0.4109,-0.2529,0.2714,169
1,-0.7275,0.3245,-0.3489,0.4153,-0.2768,0.2464,169
1,-0.7061,0.3214,-0.3683,0.4361,-0.3128,0.2409,169
1,-0.701,0.3745,-0.3714,0.4568,-0.3456,0.2464,169
1,-0.6877,0.3806,-0.3439,0.4568,-0.3456,0.2464,169
1,-0.6877,0.3806,-0.3439,0.4175,-0.4208,0.2518,169
1,-0.6724,0.355,-0.3132,0.3619,-0.4568,0.2495,169
1,-0.653,0.3347,-0.2795,0.35,-0.4753,0.2507,169
1,-0.6346,0.2632,-0.1837,0.326,-0.483,0.2573,169
1,-0.6296,0.1877,-0.152,0.2737,-0.483,0.2737,169
2,-0.6204,-0.0224,-0.0684,0.2966,-0.4753,0.3183,169
2,-0.6255,-0.1541,-0.0071,0.496,-0.4034,0.5244,169
2,-0.8102,0.1857,-0.1979,0.64,-0.3542,0.7043,169
2,-0.6663,0.1887,-0.1703,0.8634,-0.3761,0.5276,169
2,-0.7357,0.3816,-0.2183,0.8634,-0.3761,0.5276,169
2,-0.7734,0.4785,-0.251,1.0587,-0.339,0.5004,169
2,-0.7734,0.4785,-0.251,0.991,-0.3554,0.4916,169
2,-0.7877,0.3796,-0.351,0.8918,-0.3968,0.4906,169
2,-0.7602,0.6479,-0.3867,1.015,-0.3838,0.532,169
2,-0.7459,0.5112,-0.4102,0.8853,-0.4851,0.4557,169
2,-0.6367,0.5612,-0.2979,0.8439,-0.507,0.4916,169
2,-0.6082,0.449,-0.2133,0.7522,-0.4927,0.495,169
2,-0.6489,0.3255,-0.3398,0.6955,-0.3815,0.4437,169
2,-0.5755,0.3755,-0.1755,0.8439,-0.3401,0.4622,169
2,-0.5847,0.4112,-0.1867,0.8439,-0.3401,0.4622,169
2,-0.6082,0.3653,-0.2877,0.9234,-0.2344,0.4557,169
2,-0.6082,0.3653,-0.2877,0.9158,-0.1024,0.4546,169
2,-0.6071,0.5132,-0.1837,1.0761,0.0097,0.4841,169
2,-0.7622,0.6337,-0.2612,1.1436,0.1722,0.4851,169
2,-0.9061,0.651,-0.3846,1.0694,0.2638,0.4589,169
2,-1.4071,0.8602,-0.2836,1.0728,0.2453,0.4731,169
2,-1.6214,1.0877,0.0122,0.8885,0.1613,0.4601,169
2,-1.7153,0.999,-0.0122,0.3248,0.1232,0.4414,169
2,-1.903,0.7571,0.1398,-0.1406,-0.0174,0.5244,169
2,-1.852,0.6551,0.0959,-0.1406,-0.0174,0.5244,169
2,-1.754,0.6489,0.1112,-0.3903,-0.1842,0.5004,169
2,-1.754,0.6489,0.1112,-0.3717,-0.2856,0.4414,169
2,-1.6703,0.5898,0.0745,-0.2856,-0.3903,0.4229,169
2,-1.454,0.3439,0.0,-0.5036,-0.4143,0.3216,169
2,-1.299,0.2347,0.1091,-0.7272,-0.4175,0.218,169
2,-1.1735,0.1449,0.0449,-0.7075,-0.4023,0.2115,169
2,-1.1959,0.105,-0.0224,-0.6333,-0.3041,0.2093,169
2,-1.1071,-0.051,-0.0826,-0.5179,-0.2779,0.1123,169
2,-1.0939,0.0143,-0.0959,-0.2714,-0.2954,-0.0053,169
2,-1.0449,0.0847,-0.0377,-0.2714,-0.2954,-0.0053,169
2,-0.951,0.102,-0.0357,0.024,-0.218,-0.2125,169
2,-0.9918,0.1632,-0.0357,0.1373,-0.1951,-0.23,169
2,-0.9847,0.2816,-0.0459,0.1373,-0.1951,-0.23,169
2,-0.9847,0.2816,-0.0459,0.2768,-0.1831,-0.2344,169
2,-1.0541,0.3102,-0.1071,0.3314,-0.1711,-0.2605,169
2,-1.0836,0.3959,-0.1867,0.3412,-0.1951,-0.2878,169
2,-1.0438,0.4214,-0.1755,0.2834,-0.2737,-0.2932,169
2,-1.051,0.3775,-0.2428,0.1264,-0.3412,-0.2998,169
2,-0.9755,0.302,-0.2265,0.0076,-0.4361,-0.2888,169
2,-0.8826,0.3428,-0.1561,0.0294,-0.471,-0.2583,169
2,-0.8255,0.2949,-0.1551,-0.0523,-0.52,-0.2256,169
2,-0.7592,0.2531,-0.102,-0.1188,-0.5461,-0.1919,169
2,-0.6826,0.2336,-0.0602,-0.1188,-0.5461,-0.1919,169
2,-0.6377,0.2133,-0.0398,-0.0969,-0.5309,-0.1438,169
2,-0.6377,0.2133,-0.0398,-0.0839,-0.4938,-0.0948,169
2,-0.5989,0.2531,-0.0295,-0.0469,-0.4557,-0.0501,169
2,-0.6398,0.2622,-0.0632,-0.0053,-0.3946,-0.0316,169
2,-0.6561,0.2775,-0.1153,0.0381,-0.3445,-0.0326,169
2,-0.7449,0.4163,-0.1632,0.085,-0.3227,-0.0523,169
2,-0.7908,0.4601,-0.1908,0.0511,-0.3314,-0.0969,169
2,-0.8286,0.4938,-0.204,-0.0217,-0.3609,-0.1613,169
2,-0.8643,0.5143,-0.2173,-0.1047,-0.4,-0.2365,169
2,-0.8377,0.5061,-0.2245,-0.1047,-0.4,-0.2365,170
2,-0.9163,0.4459,-0.2571,-0.1787,-0.4393,-0.314,170
2,-0.9163,0.4459,-0.2571,-0.3096,-0.483,-0.3619,170
2,-0.8163,0.4969,-0.105,-0.3979,-0.5505,-0.3761,170
2,-0.8541,0.4571,-0.1612,-0.5614,-0.5713,-0.4601,170
2,-0.8102,0.251,-0.0908,-0.7075,-0.5625,-0.4807,170
2,-0.8061,0.2275,-0.0806,-0.689,-0.5233,-0.4841,170
2,-0.8152,0.1755,-0.0612,-0.6911,-0.5211,-0.4862,170
2,-0.8132,0.105,-0.0602,-0.664,-0.4971,-0.5004,170
2,-0.8112,0.0275,-0.0918,-0.5745,-0.4589,-0.4775,170
2,-0.7877,0.0336,-0.103,-0.5745,-0.4589,-0.4775,170
2,-0.7898,0.0775,-0.0806,-0.4328,-0.4175,-0.4655,170
2,-0.7898,0.0775,-0.0806,-0.3063,-0.3706,-0.4568,170
2,-0.7775,0.1439,-0.0867,-0.267,-0.3237,-0.4404,170
2,-0.799,0.1316,-0.0989,-0.2573,-0.2737,-0.4175,170
2,-0.7959,0.1887,-0.0591,-0.2071,-0.2093,-0.4229,170
2,-0.8275,0.1612,-0.0775,-0.2453,-0.1438,-0.4284,170
2,-0.8275,0.1377,-0.0836,-0.2518,-0.085,-0.4307,170
2,-0.8816,0.153,-0.049,-0.2027,-0.0261,-0.4229,170
2,-0.9203,0.1387,-0.0632,-0.2147,0.0457,-0.4273,170
2,-0.9561,0.0602,-0.0755,-0.2147,0.0457,-0.4273,170
2,-0.9561,0.0602,-0.0755,-0.2278,0.1112,-0.4055,170
2,-1.0102,0.0438,-0.0857,-0.1144,0.181,-0.3717,170
2,-1.2122,0.0255,-0.0693,-0.0162,0.2388,-0.3271,170
2,-1.3704,-0.0786,-0.0877,0.1013,0.2747,-0.2779,170
2,-1.5551,-0.0643,-0.0388,0.4219,0.267,-0.1755,170
2,-1.6398,0.2449,0.1714,0.7981,0.2234,-0.0152,170
2,-1.5132,0.4142,0.1561,0.9267,0.193,0.1112,170
2,-1.3939,0.4847,0.1041,0.6749,0.1373,0.1657,170
2,-1.254,0.4571,0.0591,0.3924,0.0566,0.1701,170
2,-1.051,0.3582,0.0643,0.3924,0.0566,0.1701,170
2,-1.051,0.3582,0.0643,0.3117,0.0065,0.1047,170
2,-0.9969,0.4235,0.1837,0.4143,-0.036,0.0196,170
2,-0.8826,0.3377,0.203,0.3804,-0.0719,-0.074,170
2,-0.851,0.3459,0.2459,0.4666,-0.0501,-0.1613,170
2,-0.8061,0.2428,0.2877,0.5211,-0.0349,-0.2802,170
2,-0.8469,0.2296,0.2786,0.5647,-0.0185,-0.351,170
2,-0.8683,0.1959,0.1887,0.5593,0.0162,-0.4382,170
2,-0.9051,0.1602,0.0948,0.5221,0.0631,-0.496,170
2,-1.001,0.1377,-0.0438,0.5418,0.1003,-0.4677,170
2,-1.0541,0.1408,-0.0867,0.5418,0.1003,-0.4677,170
2,-1.101,0.1857,-0.102,0.5767,0.1123,-0.4153,170
2,-1.101,0.1857,-0.102,0.6432,0.0959,-0.338,170
2,-1.1489,0.2255,-0.1234,0.6562,0.0435,-0.2737,170
2,-1.105,0.254,-0.0898,0.6476,-0.0272,-0.231,170
2,-1.0622,0.2693,-0.0918,0.6672,-0.1089,-0.2016,170
2,-1.0031,0.2877,-0.102,0.6901,-0.1864,-0.1907,170
2,-0.954,0.3193,-0.0989,0.701,-0.2573,-0.1951,170
2,-0.8377,0.3296,-0.0724,0.6454,-0.3041,-0.2005,170
2,-0.7908,0.2836,-0.0806,0.5528,-0.3193,-0.2169,170
3,-0.7551,0.2918,-0.0663,0.556,-0.3248,-0.2289,170
3,-0.7316,0.3224,-0.0275,0.556,-0.3248,-0.2289,170
3,-0.7071,0.2673,-0.0245,0.5484,-0.3237,-0.2268,170
3,-0.7071,0.2673,-0.0245,0.4742,-0.3216,-0.2376,170
3,-0.6938,0.2602,-0.0173,0.4731,-0.3117,-0.2442,170
3,-0.703,0.2969,-0.0153,0.5287,-0.2976,-0.2376,170
3,-0.7122,0.3255,-0.0193,0.5287,-0.2922,-0.2321,170
3,-0.7214,0.3377,-0.0326,0.507,-0.2911,-0.2256,170
3,-0.7296,0.3663,-0.0357,0.4895,-0.3019,-0.2093,170
3,-0.7275,0.3867,-0.0428,0.4536,-0.3052,-0.1852,170
3,-0.7357,0.3867,-0.0632,0.4536,-0.3052,-0.1852,170
3,-0.7183,0.3918,-0.0887,0.3968,-0.3063,-0.1635,170
3,-0.701,0.4061,-0.102,0.3575,-0.3008,-0.1417,170
3,-0.701,0.4061,-0.102,0.3271,-0.3008,-0.1155,170
3,-0.6898,0.4041,-0.1082,0.2844,-0.2823,-0.1068,170
3,-0.6724,0.3989,-0.1194,0.2529,-0.2583,-0.1003,170
3,-0.6408,0.4132,-0.1194,0.2234,-0.2354,-0.0959,170
3,-0.6428,0.4255,-0.1143,0.1875,-0.2071,-0.0992,170
3,-0.6306,0.4275,-0.103,0.1362,-0.1766,-0.1177,170
3,-0.6367,0.4224,-0.0969,0.0751,-0.1503,-0.1471,170
3,-0.6581,0.3806,-0.0765,0.0751,-0.1503,-0.1471,170
3,-0.6887,0.3591,-0.0663,0.024,-0.1318,-0.1766,170
3,-0.7255,0.3398,-0.0693,-0.0131,-0.1057,-0.2027,170
3,-0.7255,0.3398,-0.0693,-0.025,-0.0806,-0.218,170
3,-0.7673,0.3306,-0.0571,-0.0152,-0.0511,-0.2147,170
3,-0.8408,0.2867,-0.0326,-0.0337,-0.0053,-0.1962,170
3,-0.8826,0.2388,-0.0438,-0.0577,0.0589,-0.1581,170
3,-0.9092,0.2061,-0.0561,-0.0392,0.1308,-0.0937,170
3,-0.9428,0.1959,-0.0704,0.0097,0.2071,-0.0141,170
3,-1.0061,0.1806,-0.0786,0.0501,0.2823,0.0686,170
3,-1.0765,0.1949,-0.0745,0.1123,0.338,0.1558,170
3,-1.1642,0.2531,-0.051,0.1123,0.338,0.1558,170
3,-1.1642,0.2531,-0.051,0.1951,0.3924,0.2376,170
3,-1.2592,0.3296,-0.0316,0.242,0.4349,0.2998,170
3,-1.3775,0.4265,0.0143,0.1842,0.4643,0.3434,170
3,-1.3745,0.3643,0.0316,0.0076,0.495,0.3729,170
3,-1.3663,0.2296,0.0204,-0.1602,0.5135,0.4099,170
3,-1.3448,0.1489,-0.0143,-0.11,0.5505,0.4721,170
3,-1.401,0.3622,-0.0234,0.0206,0.6062,0.6192,170
3,-1.4785,0.4724,-0.0479,-0.0261,0.5877,0.6442,170
3,-1.5193,0.6449,0.0336,-0.1417,0.5145,0.5877,170
3,-1.5581,0.6204,0.0826,-0.412,0.3968,0.5004,170
3,-1.504,0.45,0.101,-0.7806,0.2453,0.3891,170
3,-1.5234,0.3306,0.1255,-0.7806,0.2453,0.3891,170
3,-1.4469,0.1887,0.151,-0.9158,0.1024,0.2812,170
3,-1.4469,0.1887,0.151,-0.942,-0.0108,0.1907,170
3,-1.4224,-0.1041,0.1418,-1.0041,-0.1013,0.1133,170
3,-1.2714,-0.4285,0.1632,-1.0597,-0.1787,0.1362,170
3,-1.2388,-0.7133,0.0714,-1.0946,-0.1591,0.4012,170
3,-1.1877,-0.6918,-0.0989,-0.8722,-0.1558,0.6051,170
3,-1.1683,-0.5306,-0.103,-0.11,-0.157,0.5091,170
3,-0.9642,-0.1612,0.0684,0.7489,-0.1842,0.3019,170
3,-1.0816,0.1245,0.1194,0.7489,-0.1842,0.3019,170
3,-0.9306,-0.0193,-0.004,0.8395,-0.1995,0.218,170
3,-1.0704,0.0918,-0.0908,0.3073,-0.2376,0.0446,170
3,-1.0704,0.0918,-0.0908,0.1755,-0.2049,0.0196,170
3,-0.9285,0.2306,0.0173,0.4109,-0.2594,0.0152,170
3,-1.0428,0.2438,-0.0031,0.3859,-0.2932,-0.0316,170
3,-1.0092,0.2306,-0.002,0.2398,-0.3073,-0.0479,170
3,-0.9663,0.1265,-0.0153,0.0294,-0.3456,-0.0545,170
3,-0.9918,0.0765,-0.0193,-0.0162,-0.4065,-0.0228,170
3,-0.952,0.0275,-0.0214,0.0185,-0.4721,-0.0053,170
3,-0.8785,-0.0234,-0.0122,0.0969,-0.5179,0.012,170
3,-0.8286,-0.0428,-0.0061,0.0969,-0.5179,0.012,170
3,-0.8286,-0.0428,-0.0061,0.1701,-0.5604,0.0282,170
3,-0.751,-0.0704,-0.0173,0.2213,-0.5822,0.0511,170
3,-0.751,-0.0704,-0.0173,0.3052,-0.5833,0.0763,170
3,-0.6785,-0.052,0.0031,0.3859,-0.5757,0.1013,170
3,-0.7112,-0.0438,-0.0163,0.4775,-0.5364,0.1144,170
3,-0.6847,-0.0163,-0.0143,0.5528,-0.5102,0.1133,170
3,-0.7397,0.0295,-0.0051,0.5734,-0.4687,0.0894,170
3,-0.8306,0.0898,-0.0112,0.5963,-0.4524,0.0566,170
3,-0.855,0.1265,-0.0234,0.652,-0.4229,0.0152,170
3,-0.8867,0.1714,-0.0316,0.689,-0.4,-0.0152,170
3,-0.8867,0.1714,-0.0316,0.689,-0.4,-0.0152,170
3,-0.9,0.2092,-0.0234,0.6051,-0.3859,-0.0501,170
3,-0.852,0.0418,-0.0796,0.4786,-0.3717,-0.0664,170
3,-0.8387,0.0031,-0.1071,0.5287,-0.3422,-0.049,170
3,-0.802,0.0561,-0.0643,0.6562,-0.3096,-0.0185,170
3,-0.751,0.0969,-0.0081,0.6367,-0.2725,0.0053,170
3,-0.6592,0.0193,-0.0336,0.6181,-0.23,0.0228,170
3,-0.6357,0.0816,0.0051,0.7392,-0.1787,0.0425,170
3,-0.5428,0.1418,0.0632,0.7621,-0.1177,0.0185,170
3,-0.4959,0.1316,0.0591,0.6923,-0.012,0.0217,170
3,-0.452,0.1183,0.0479,0.6923,-0.012,0.0217,170
3,-0.452,0.1183,0.0479,0.7369,0.1057,0.049,170
3,-0.4387,0.1653,0.0632,0.8199,0.2333,0.0664,170
3,-0.4673,0.1847,0.0673,0.834,0.3783,0.0828,170
3,-0.5336,0.1949,0.0581,0.8525,0.5276,0.0751,170
3,-0.8663,0.3071,0.1418,0.9288,0.6759,0.0501,170
3,-1.1357,0.3122,0.1755,0.9746,0.8319,-0.0162,170
3,-1.3775,0.2806,0.2153,1.1306,0.9507,-0.0719,170
3,-1.6806,0.254,0.1908,1.6081,1.0183,-0.0065,170
3,1.9041,0.8745,0.1551,1.9887,0.8994,0.0719,170
3,-1.9387,0.8908,-0.0826,1.9887,0.8994,0.0719,170
3,-1.7959,1.0347,-0.1602,1.6823,0.6421,-0.1482,170
3,-1.7959,1.0347,-0.1602,1.281,0.3271,-0.4164,170
3,-1.5377,0.9928,-0.2786,0.8973,0.0011,-0.5952,170
3,-1.1673,1.0275,0.0602,0.6682,-0.0577,-0.3903,170
3,-1.1234,1.0786,0.2704,0.0326,-0.0501,-0.1068,170
3,-1.0898,0.6224,0.1806,-0.5625,-0.061,-0.2213,170
3,-1.0652,0.5286,0.1826,-0.2802,0.0294,-0.2104,170
3,-1.0102,0.5388,0.2112,-0.1177,0.0599,-0.2529,170
3,-1.0102,0.4194,0.0898,-0.242,0.1013,-0.4088,170
3,-0.9724,0.3428,0.0357,-0.242,0.1013,-0.4088,170
3,-0.9469,0.2194,0.001,-0.326,0.098,-0.4219,170
3,-0.9469,0.2194,0.001,-0.3794,0.061,-0.3685,170
3,-0.9367,0.1153,-0.0724,-0.4589,0.0534,-0.3248,170
3,-0.9296,0.0551,-0.0745,-0.4099,0.0294,-0.2027,170
3,-0.9235,0.0796,-0.0714,-0.2878,0.0196,-0.11,170
3,-0.8541,0.0153,-0.0663,-0.2453,-0.0402,-0.1188,170
4,-0.8418,0.0286,-0.0234,-0.1274,-0.0751,-0.1352,170
4,-0.853,0.0438,-0.0551,0.024,-0.1123,-0.0948,170
4,-0.7918,0.1071,0.0122,0.1024,-0.1384,-0.0446,170
4,-0.8051,0.051,0.001,0.1024,-0.1384,-0.0446,170
4,-0.7908,0.0418,0.0132,0.0795,-0.1657,0.0,170
4,-0.7908,0.0418,0.0132,0.1286,-0.1962,0.049,170
4,-0.8489,0.052,-0.0061,0.2213,-0.2071,0.1013,170
4,-0.803,0.1204,-0.0214,0.3096,-0.2388,0.1167,170
4,-0.8184,0.1887,-0.0418,0.3302,-0.2802,0.1155,170
4,-0.8265,0.2071,-0.0428,0.3412,-0.3183,0.1035,170
4,-0.8,0.251,-0.049,0.3489,-0.3542,0.0806,170
4,-0.7969,0.2806,-0.0438,0.3008,-0.3685,0.0446,170
4,-0.7602,0.2673,-0.0622,0.2539,-0.3685,0.0032,170
4,-0.7285,0.3112,-0.0643,0.2539,-0.3685,0.0032,170
4,-0.7285,0.3112,-0.0643,0.2617,-0.351,-0.0282,170
4,-0.6744,0.3286,-0.0591,0.2104,-0.3193,-0.0621,170
4,-0.6744,0.3286,-0.0591,0.0686,-0.2943,-0.098,170
4,-0.6357,0.2418,-0.0908,-0.0097,-0.2649,-0.1264,170
4,-0.6296,0.2377,-0.0857,-0.0272,-0.2278,-0.1482,170
4,-0.6285,0.2183,-0.0867,-0.0457,-0.1896,-0.157,170
4,-0.65,0.2092,-0.0908,-0.0217,-0.1449,-0.1678,170
4,-0.7101,0.2377,-0.105,0.0141,-0.1003,-0.1744,170
4,-0.7306,0.25,-0.0898,0.0141,-0.0631,-0.1766,170
4,-0.7693,0.2653,-0.0704,0.0053,-0.036,-0.1711,170
4,-0.8316,0.2755,-0.0959,0.0053,-0.036,-0.1711,170
4,-0.8316,0.2755,-0.0959,-0.0032,-0.0097,-0.1591,170
4,-0.9428,0.3112,-0.1112,0.0011,0.0087,-0.1406,170
4,-0.9877,0.3439,-0.1082,0.0087,0.025,-0.1177,170
4,-1.0295,0.3561,-0.1204,-0.0108,0.0381,-0.1047,170
4,-1.0745,0.3683,-0.1418,-0.0282,0.0566,-0.0925,170
4,-1.1398,0.3867,-0.1908,-0.036,0.074,-0.0925,170
4,-1.1489,0.3887,-0.202,-0.0643,0.0904,-0.0948,170
4,-1.1703,0.3612,-0.2479,-0.1329,0.1013,-0.1112,170
4,-1.1928,0.3051,-0.2867,-0.1842,0.1079,-0.1297,170
4,-1.2581,0.2296,-0.3122,-0.1842,0.1079,-0.1297,170
4,-1.2581,0.2296,-0.3122,-0.1341,0.1264,-0.1417,170
4,-1.2979,0.2581,-0.2745,-0.036,0.1362,-0.1471,170
4,-1.3582,0.2734,-0.101,0.0152,0.1428,-0.1602,170
4,-1.3582,0.2734,-0.101,0.0152,0.1286,-0.1623,170
4,-1.355,0.2653,-0.0541,0.0282,0.1221,-0.1613,170
4,-1.3582,0.2908,-0.0214,0.0959,0.1253,-0.1646,170
4,-1.3694,0.3745,0.0408,0.1297,0.1449,-0.1755,170
4,-1.3775,0.4663,0.0714,0.0698,0.1646,-0.1995,170
4,-1.3459,0.5245,0.0643,0.0087,0.1755,-0.2245,170
4,-1.299,0.5867,0.0734,-0.1188,0.1449,-0.2617,170
4,-1.2408,0.601,0.0755,-0.3205,0.085,-0.3172,170
4,-1.1663,0.5357,0.1887,-0.3205,0.085,-0.3172,170
4,-1.1377,0.4561,0.2428,-0.544,-0.0076,-0.3706,170
4,-1.1377,0.4561,0.2428,-0.7512,-0.1079,-0.4197,170
4,-1.0989,0.3479,0.2397,-0.8819,-0.1667,-0.4568,170
4,-1.0459,0.1908,0.2163,-0.8918,-0.193,-0.4687,170
4,-1.0071,0.0704,0.1959,-0.9452,-0.1951,-0.4513,170
4,-0.9694,-0.0275,0.1592,-0.9714,-0.1842,-0.4023,170
4,-0.9663,-0.0684,0.1489,-0.9332,-0.1537,-0.3107,170
4,-0.9357,-0.1683,0.0745,-0.8319,-0.1112,-0.181,170
4,-0.8745,-0.1714,0.052,-0.6825,-0.0937,-0.1242,170
4,-0.8867,-0.151,0.0418,-0.6825,-0.0937,-0.1242,170
4,-0.8867,-0.151,0.0418,-0.5112,-0.0698,-0.0925,170
4,-0.8643,-0.0571,0.0898,-0.471,-0.0751,-0.0282,170
4,-0.8408,-0.1714,0.0541,-0.5625,-0.086,0.0457,170
4,-0.8469,-0.199,0.0316,-0.5047,-0.098,0.1188,170
4,-0.8418,-0.1418,0.0234,-0.3346,-0.1167,0.1623,170
4,-0.8041,-0.0652,0.0388,-0.2268,-0.1318,0.181,170
4,-0.8357,0.0,0.0326,-0.2039,-0.1503,0.2093,170
4,-0.8132,0.0347,0.0377,-0.1896,-0.1919,0.2169,170
4,-0.8602,0.0479,0.0336,-0.1831,-0.2191,0.2159,170
4,-0.7979,0.1112,0.0541,-0.1831,-0.2191,0.2159,170
4,-0.7979,0.1112,0.0541,-0.1755,-0.2485,0.1951,170
4,-0.7857,0.1173,0.0541,-0.2104,-0.2737,0.1787,170
4,-0.7928,0.1091,0.053,-0.2268,-0.2802,0.1526,170
4,-0.7979,0.1194,0.0398,-0.1972,-0.2747,0.1329,170
4,-0.7786,0.1551,0.0643,-0.1962,-0.2649,0.1089,170
4,-0.7857,0.1367,0.0234,-0.2737,-0.2518,0.0872,170
4,-0.8081,0.1285,0.0081,-0.2932,-0.2453,0.0719,170
4,-0.8,0.1561,0.0,-0.2888,-0.2333,0.0534,170
4,-0.8306,0.1673,-0.0031,-0.3325,-0.2289,0.0349,170
4,-0.8857,0.103,-0.0316,-0.3325,-0.2289,0.0349,170
4,-0.8918,0.0898,-0.0438,-0.3914,-0.2256,0.0162,170
4,-0.8918,0.0898,-0.0438,-0.3891,-0.2201,0.0043,170
4,-0.9183,0.0734,-0.0652,-0.3771,-0.2191,-0.0076,170
4,-0.9285,0.0541,-0.0714,-0.3783,-0.2278,-0.0108,170
4,-0.9326,0.0061,-0.0755,-0.3783,-0.2409,-0.0076,170
4,-0.9357,-0.0367,-0.0724,-0.388,-0.255,0.0032,170
4,-0.9337,-0.0908,-0.0714,-0.35,-0.2703,0.025,170
4,-0.9255,-0.102,-0.0449,-0.2617,-0.2844,0.0534,170
4,-0.9183,-0.1214,-0.0102,-0.2016,-0.2954,0.0818,170
4,-0.9142,-0.1418,0.0102,-0.2016,-0.2954,0.0818,170
4,-0.9183,-0.1428,0.0275,-0.1341,-0.2922,0.1079,170
4,-0.9163,-0.1194,0.0622,-0.0316,-0.2714,0.1396,170
4,-0.9163,-0.1194,0.0622,0.0501,-0.23,0.1602,170
4,-0.8826,-0.1245,0.0939,0.1198,-0.1547,0.1798,170
4,-0.8887,-0.0989,0.102,0.2321,-0.0631,0.2005,170
4,-0.8826,-0.0408,0.0959,0.3281,0.0326,0.2147,170
4,-0.8643,0.001,0.0847,0.3739,0.1526,0.2213,170
4,-0.851,0.0684,0.0357,0.4349,0.2856,0.2224,170
4,-0.8775,0.1346,0.0632,0.4775,0.4055,0.2159,170
4,-0.9979,0.1551,0.1122,0.4546,0.5396,0.1896,170
4,-1.1653,0.1306,0.1612,0.4546,0.5396,0.1896,170
4,-1.4765,0.2092,0.2693,0.5015,0.6759,0.1547,170
4,-1.4765,0.2092,0.2693,0.6737,0.8035,0.1362,170
4,-1.5469,0.2765,0.2745,0.7686,0.871,0.1493,170
4,-1.5663,0.2836,0.1938,0.7577,0.8405,0.2115,170
4,-1.5643,0.3347,0.0877,0.7708,0.701,0.314,170
4,-1.4428,0.4806,0.0234,0.6203,0.4884,0.3663,170
4,-1.3051,0.402,0.0336,0.3445,0.2737,0.3674,170
4,-1.2112,0.302,0.0591,0.1831,0.1024,0.3107,170
4,-1.0745,0.1816,0.1357,0.1831,0.1024,0.3107,170
4,-1.0745,0.1816,0.1357,0.2453,0.0108,0.2693,170
4,-0.9224,0.2285,0.3846,0.412,0.0174,0.242,170
5,-0.9224,0.2285,0.3846,0.5244,0.0883,0.1886,170
5,-0.9398,0.201,0.3152,0.6236,0.1798,0.1308,170
5,-0.9908,0.3041,0.2551,0.7937,0.2682,0.0872,170
5,-1.0836,0.5612,0.1357,0.7272,0.3052,0.0381,170
5,-1.1132,0.549,0.051,0.7272,0.3052,0.0381,170
5,-1.1194,0.4888,-0.0173,0.3554,0.2398,-0.0774,170
5,-1.0765,0.4612,-0.004,0.2333,0.1493,-0.074,170
5,-1.0336,0.3806,-0.004,0.0795,0.0664,-0.061,170
5,-0.9724,0.3193,-0.0132,0.0795,0.0664,-0.061,170
5,-0.9724,0.3193,-0.0132,0.0414,0.0011,-0.0316,170
5,-0.9092,0.3102,0.0031,0.0414,0.0011,-0.0316,170
5,-0.802,0.2653,0.0479,-0.0337,-0.0763,0.036,170
5,-0.7734,0.1847,0.0336,-0.1112,-0.0959,0.0577,170
5,-0.7285,0.1337,0.0388,-0.1112,-0.0959,0.0577,170
5,-0.7326,0.1326,0.0479,-0.0261,-0.0795,0.1024,170
5,-0.7592,0.1,0.0132,-0.0261,-0.0795,0.1024,170
5,-0.7673,0.1132,-0.001,-0.0032,-0.0664,0.1079,170
5,-0.7938,0.1469,0.0,0.049,-0.0643,0.1079,170
5,-0.8173,0.151,-0.0224,0.049,-0.0643,0.1079,170
5,-0.8173,0.151,-0.0224,0.0708,-0.0751,0.1035,170
5,-0.8367,0.1581,-0.052,0.086,-0.1079,0.086,170
5,-0.8316,0.1724,-0.0571,0.086,-0.1079,0.086,170
5,-0.8296,0.153,-0.0775,0.0937,-0.1352,0.0839,170
5,-0.8234,0.1316,-0.0959,0.0675,-0.1537,0.0763,170
5,-0.8041,0.1602,-0.101,0.1068,-0.1732,0.073,170
5,-0.802,0.1551,-0.1296,0.1635,-0.1864,0.073,170
5,-0.802,0.1683,-0.1357,0.1798,-0.1864,0.0708,170
5,-0.7877,0.1724,-0.1275,0.2289,-0.1896,0.0654,170
5,-0.6571,-0.3326,-0.3286,0.2289,-0.1896,0.0654,170
5,-0.8591,-0.1826,-0.153,0.1896,-0.1852,0.0469,170
5,-0.8591,-0.1826,-0.153,-0.1079,-0.1384,0.0272,170
5,-0.9173,0.0438,-0.2142,0.2268,-0.0969,0.1515,170
5,-0.8989,0.3286,-0.1622,0.822,-0.1308,0.0425,170
5,-0.9183,0.3061,-0.1785,0.9943,-0.1373,0.0011,170
5,-0.9408,0.1561,-0.2316,0.6682,-0.1755,-0.0577,170
5,-0.9296,0.1387,-0.2316,0.4187,-0.2169,-0.0294,170
5,-0.8877,0.1928,-0.2306,0.4895,-0.2388,-0.036,170
5,-0.8734,0.2632,-0.1857,0.5658,-0.2649,-0.0457,170
5,-0.9061,0.2122,-0.1489,0.496,-0.2888,-0.0698,170
5,-0.9296,0.2724,-0.1245,0.5102,-0.2758,-0.0631,170
5,-0.9601,0.3316,-0.0734,0.5102,-0.2758,-0.0631,170
5,-0.9601,0.3316,-0.0734,0.5669,-0.2256,-0.0511,170
5,-1.0265,0.3143,-0.101,0.5244,-0.1744,-0.0435,170
5,-1.0153,0.3582,-0.1071,0.4818,-0.0915,-0.0402,170
5,-1.0602,0.3949,-0.1367,0.4557,-0.0185,-0.0261,170
5,-1.1112,0.5122,-0.2071,0.3794,0.0511,-0.0282,170
5,-1.1837,0.5704,-0.1847,0.3205,0.1047,-0.0402,170
5,-1.2734,0.5704,-0.1612,0.2573,0.1384,-0.073,170
5,-1.351,0.5326,-0.1377,0.1341,0.1515,-0.073,170
5,-1.4918,0.402,-0.0438,-0.0261,0.1678,0.0174,170
5,-1.4633,0.2183,-0.0143,-0.0261,0.1678,0.0174,170
5,-1.4633,0.2183,-0.0143,-0.3052,0.1558,0.0555,170
5,-1.3949,0.0775,0.0286,-0.4677,0.1047,0.0414,170
5,-1.3448,-0.0051,0.0612,-0.4132,0.0631,0.0545,170
5,-1.1449,-0.0571,0.1326,-0.2627,0.0261,0.0795,170
5,-1.0652,-0.0693,0.1714,-0.1035,-0.0087,0.1123,170
5,-1.0071,-0.0561,0.1459,0.0337,-0.0272,0.1428,170
5,-0.9796,0.0286,0.1541,0.2354,-0.0217,0.1362,170
5,-0.9224,0.2245,0.2214,0.4208,-0.0282,0.1384,170
5,-0.9081,0.2653,0.2704,0.4492,-0.025,0.1264,170
5,-0.9367,0.3,0.2826,0.4044,-0.0131,0.0883,170
5,-0.9979,0.3306,0.2418,0.4044,-0.0131,0.0883,170
5,-0.9979,0.3306,0.2418,0.3815,-0.0087,0.0599,170
5,-1.0796,0.4051,0.1775,0.4132,-0.0011,0.0228,170
5,-1.1194,0.4142,0.1163,0.4219,0.0065,-0.0076,170
5,-1.1245,0.4081,0.0571,0.3575,0.0131,-0.0479,170
5,-1.0704,0.4081,0.0316,0.2605,-0.0131,-0.0469,170
5,-1.0377,0.3989,0.0306,0.1591,-0.0282,-0.0141,170
5,-0.9888,0.3745,0.0367,0.0402,-0.0479,0.0261,170
5,-0.9265,0.3571,0.0622,-0.0654,-0.0654,0.061,170
5,-0.8245,0.3234,0.101,-0.1352,-0.0925,0.0818,170
5,-0.8091,0.3112,0.105,-0.1352,-0.0925,0.0818,170
5,-0.799,0.3193,0.1112,-0.1919,-0.1123,0.086,170
5,-0.799,0.3193,0.1112,-0.2245,-0.1232,0.0828,170
5,-0.7918,0.3306,0.1245,-0.2376,-0.1221,0.0774,170
5,-0.7745,0.302,0.0918,-0.2987,-0.1188,0.061,170
5,-0.7704,0.3204,0.0887,-0.35,-0.1232,0.0469,170
5,-0.7704,0.3143,0.0887,-0.3815,-0.1308,0.025,170
5,-0.7786,0.2826,0.0591,-0.4524,-0.1373,-0.0087,170
5,-0.7765,0.2306,0.0459,-0.5112,-0.1471,-0.0435,170
5,-0.7724,0.1847,0.0438,-0.5593,-0.1646,-0.073,170
5,-0.7755,0.1479,0.0326,-0.5593,-0.1646,-0.073,170
5,-0.7928,0.1173,0.0214,-0.5984,-0.1678,-0.1024,170
5,-0.7928,0.1173,0.0214,-0.5898,-0.1623,-0.1198,170
5,-0.803,0.051,0.0,-0.5778,-0.1537,-0.1341,170
5,-0.8091,0.0132,-0.0061,-0.5702,-0.1526,-0.1308,170
5,-0.8224,0.0122,-0.0122,-0.5299,-0.1482,-0.1112,170
5,-0.8326,-0.0031,-0.0265,-0.4601,-0.1406,-0.0904,170
5,-0.8479,-0.0193,-0.0204,-0.4077,-0.1362,-0.073,170
5,-0.8653,-0.0428,-0.0357,-0.3771,-0.1329,-0.0425,170
5,-0.9081,-0.05,-0.049,-0.3771,-0.1329,-0.0425,170
5,-0.9306,-0.0367,-0.0479,-0.3412,-0.1242,-0.0152,170
5,-0.9561,0.0255,-0.0245,-0.267,-0.1264,0.0152,170
5,-0.9561,0.0255,-0.0245,-0.1842,-0.1362,0.036,170
5,-0.9296,0.0581,-0.0092,-0.1198,-0.1461,0.0479,170
5,-0.8979,0.0989,0.0143,-0.0894,-0.1537,0.0511,170
5,-0.853,0.1265,0.0336,-0.0795,-0.1461,0.0402,170
5,-0.7867,0.2051,0.0826,-0.061,-0.1221,0.0217,170
5,-0.7826,0.2306,0.0939,-0.0621,-0.073,-0.0087,170
5,-0.8,0.2632,0.0836,-0.0708,-0.0087,-0.049,170
5,-0.8,0.3102,0.0908,-0.0751,0.0784,-0.0948,170
5,-0.8296,0.3745,0.0673,-0.0751,0.0784,-0.0948,170
5,-0.8296,0.3745,0.0673,-0.098,0.1798,-0.1471,170
5,-0.855,0.3714,0.0286,-0.1711,0.2878,-0.2049,170
5,-0.8653,0.3714,-0.0071,-0.2594,0.3914,-0.267,170
5,-0.8908,0.3653,-0.0122,-0.3248,0.4971,-0.3325,170
5,-1.0612,0.2296,0.0122,-0.4175,0.5898,-0.3958,170
5,-1.1867,0.0979,0.0265,-0.5102,0.677,-0.4568,170
5,-1.3112,0.0632,0.0673,-0.4698,0.7533,-0.5036,170
5,-1.4275,0.0724,0.1163,-0.2529,0.8264,-0.496,170
6,-1.6428,0.2275,0.1439,-0.0316,0.8634,-0.4372,170
6,-1.6489,0.3408,0.103,-0.0316,0.8634,-0.4372,170
6,-1.6489,0.3408,0.103,0.0545,0.8166,-0.3227,170
6,-1.6153,0.3734,0.0786,0.049,0.6814,-0.2027,170
6,-1.5398,0.2979,0.0377,-0.0883,0.5255,-0.1396,170
6,-1.2816,0.15,0.1194,-0.2289,0.3357,-0.1177,170
6,-1.2255,0.1214,0.1949,-0.1362,0.1701,-0.1274,170
6,-1.1592,0.1918,0.2683,0.0414,0.0828,-0.1417,170
6,-1.1775,0.2377,0.2673,0.231,0.0589,-0.1657,170
6,-1.1418,0.3663,0.2255,0.3346,0.0708,-0.1995,170
6,-1.1224,0.4051,0.1744,0.3903,0.1024,-0.2256,170
6,-1.1132,0.452,0.1255,0.3903,0.1024,-0.2256,170
6,-1.1082,0.4836,0.0877,0.3521,0.1242,-0.2289,170
6,-1.1082,0.4836,0.0877,0.2747,0.1297,-0.2115,170
6,-1.0571,0.4724,0.0,0.1503,0.1253,-0.1907,170
6,-1.0081,0.4724,0.0143,0.0511,0.1123,-0.1701,170
6,-0.9581,0.4428,0.0173,-0.0446,0.0751,-0.1526,170
6,-0.9296,0.3969,0.0102,-0.1547,0.0523,-0.1384,170
6,-0.855,0.3367,0.0132,-0.2159,0.0435,-0.1242,170
6,-0.8265,0.2898,0.0,-0.2693,0.0392,-0.1221,170
6,-0.8051,0.2449,0.002,-0.3193,0.037,-0.1198,170
6,-0.7786,0.2,-0.001,-0.3532,0.0272,-0.1167,170
6,-0.7326,0.0836,-0.0193,-0.3532,0.0272,-0.1167,170
6,-0.7101,0.0643,-0.0122,-0.3739,0.0206,-0.1177,170
6,-0.7101,0.0643,-0.0122,-0.3412,0.0108,-0.11,170
6,-0.7163,0.0684,-0.0081,-0.2539,0.0043,-0.098,170
6,-0.7153,0.0561,-0.0234,-0.2081,-0.012,-0.0969,170
6,-0.7204,0.0622,-0.0388,-0.182,-0.0337,-0.0883,170
6,-0.7388,0.0959,-0.0449,-0.1264,-0.0566,-0.0806,170
6,-0.7663,0.1469,-0.0449,-0.0523,-0.0751,-0.074,170
6,-0.7959,0.1439,-0.0847,-0.037,-0.0948,-0.0818,170
6,-0.799,0.1622,-0.0959,-0.0555,-0.1221,-0.0948,170
6,-0.8061,0.2285,-0.0908,-0.0555,-0.1221,-0.0948,170
6,-0.8081,0.2806,-0.0786,-0.0011,-0.1449,-0.1024,170
6,-0.8081,0.2806,-0.0786,0.0501,-0.1667,-0.1133,170
6,-0.7888,0.2898,-0.0908,0.0141,-0.181,-0.1341,170
6,-0.7612,0.2949,-0.1102,-0.0282,-0.194,-0.1558,170
6,-0.7428,0.2918,-0.1285,-0.0446,-0.193,-0.1701,170
6,-0.7,0.2571,-0.2133,-0.0784,-0.1711,-0.2039,170
6,-0.7,0.2571,-0.2133,-0.1274,-0.1635,-0.2278,170
6,-0.7051,0.3163,-0.1785,-0.1232,-0.157,-0.2518,170
6,-0.6979,0.3479,-0.1785,-0.1286,-0.1341,-0.2844,170
6,-0.7285,0.2663,-0.202,-0.2409,-0.1003,-0.3325,170
6,-0.7673,0.2133,-0.2306,-0.3346,-0.086,-0.3826,170
6,-0.8143,0.1857,-0.2142,-0.3597,-0.073,-0.4252,170
6,-0.8582,0.1653,-0.1847,-0.3271,-0.0589,-0.4568,170
6,-0.9877,0.1877,-0.1285,-0.2976,-0.0469,-0.471,170
6,-1.0602,0.1765,-0.1071,-0.2976,-0.0469,-0.471,170
6,-1.102,0.1418,-0.103,-0.2617,-0.0326,-0.4643,170
6,-1.102,0.1418,-0.103,-0.2802,-0.0097,-0.4492,170
6,-1.1622,0.1245,-0.101,-0.2703,0.0206,-0.4219,170
6,-1.2122,0.0541,-0.1357,-0.2224,0.0555,-0.3761,170
6,-1.1857,-0.0234,-0.1744,-0.2354,0.085,-0.3237,170
6,-1.1887,-0.0948,-0.199,-0.2093,0.1057,-0.2714,170
6,-1.2265,-0.1694,-0.249,-0.1155,0.1318,-0.2104,170
6,-1.3275,-0.1439,-0.2683,0.025,0.1406,-0.1406,170
6,-1.3939,-0.101,-0.2133,0.025,0.1406,-0.1406,170
6,-1.4836,-0.0918,-0.1735,0.2234,0.1581,-0.0806,170
6,-1.504,-0.0734,-0.101,0.3008,0.169,-0.0174,170
6,-1.504,-0.0734,-0.101,0.3302,0.1842,0.0479,170
6,-1.3949,-0.0612,0.0561,0.3641,0.2039,0.1221,170
6,-1.3091,-0.0969,0.0806,0.3554,0.2136,0.1744,170
6,-1.251,-0.0806,0.0755,0.4065,0.2169,0.206,170
6,-1.1959,0.0173,0.1061,0.5658,0.2278,0.231,170
6,-1.2194,0.1112,0.1,0.6388,0.2649,0.2485,170
6,-1.2234,0.1887,0.1439,0.5865,0.2834,0.2573,170
6,-1.2377,0.2979,0.1602,0.5974,0.2987,0.2802,170
6,-1.2173,0.3653,0.2051,0.5974,0.2987,0.2802,170
6,-1.2173,0.3653,0.2051,0.4992,0.2932,0.2922,170
6,-1.2479,0.2438,0.2306,0.2617,0.2594,0.2823,170
6,-1.252,0.1938,0.2234,0.086,0.1831,0.2758,170
6,-1.2714,0.1755,0.1959,0.0643,0.1003,0.2747,170
6,-1.2612,0.151,0.1622,0.0545,0.0185,0.2714,170
6,-1.2133,-0.001,0.0979,-0.0043,-0.0621,0.2725,170
6,-1.1489,-0.0459,0.0969,-0.0305,-0.1221,0.2932,170
6,-1.0898,-0.0918,0.1112,0.0021,-0.1558,0.3281,170
6,-0.9979,-0.1153,0.1061,0.0511,-0.1581,0.3804,170
6,-0.8663,-0.1224,0.1234,0.0511,-0.1581,0.3804,170
6,-0.8663,-0.1224,0.1234,0.1155,-0.1503,0.4372,170
6,-0.8398,-0.103,0.0969,0.1875,-0.1352,0.4895,170
6,-0.8051,-0.05,0.0928,0.2802,-0.11,0.5156,170
6,-0.7806,0.0204,0.0673,0.3609,-0.0839,0.5179,170
6,-0.7581,0.0224,0.0449,0.3456,-0.061,0.5167,170
6,-0.7438,0.0704,0.05,0.3586,-0.0555,0.5167,170
6,-0.7377,0.1153,0.0693,0.3946,-0.0457,0.5179,170
6,-0.7592,0.0745,0.0704,0.35,-0.0446,0.5047,170
6,-0.7643,0.0449,0.0449,0.2911,-0.0589,0.4938,170
6,-0.7643,0.0663,0.0388,0.2911,-0.0589,0.4938,170
6,-0.7704,0.1082,0.0581,0.2966,-0.0828,0.4895,170
6,-0.7704,0.1082,0.0581,0.3663,-0.1024,0.483,170
6,-0.7653,0.0857,0.0204,0.3521,-0.1318,0.4731,170
6,-0.754,0.101,0.0459,0.3281,-0.1635,0.4655,170
6,-0.7786,0.0918,0.0214,0.3434,-0.1919,0.4622,170
6,-0.7561,0.0724,0.0031,0.338,-0.2016,0.4502,170
6,-0.7347,0.0969,-0.0061,0.3848,-0.2104,0.4458,170
6,-0.7051,0.1061,0.004,0.4012,-0.2104,0.4328,170
6,-0.6908,0.1173,0.0071,0.4153,-0.2005,0.4175,170
6,-0.6837,0.0948,-0.0102,0.4065,-0.1919,0.4044,170
6,-0.701,0.105,-0.0602,0.4065,-0.1919,0.4044,170
6,-0.7234,0.1367,-0.0908,0.4088,-0.1711,0.388,170
6,-0.7234,0.1367,-0.0908,0.4687,-0.1602,0.3729,170
6,-0.7428,0.1489,-0.1091,0.4982,-0.1406,0.3521,170
6,-0.7622,0.15,-0.1163,0.5091,-0.1242,0.326,170
6,-0.8357,0.15,-0.1234,0.5135,-0.1123,0.3052,170
6,-0.8877,0.152,-0.1112,0.5124,-0.1155,0.2954,170
6,-0.9142,0.1561,-0.102,0.5221,-0.1068,0.2943,170
6,-0.9408,0.1703,-0.0704,0.5461,-0.1089,0.2899,170
6,-0.9459,0.1887,-0.0245,0.5647,-0.1242,0.2823,170
6,-0.9337,0.2071,-0.0092,0.5647,-0.1242,0.2823,170
6,-0.9071,0.2336,-0.0061,0.5843,-0.1112,0.2507,170
7,-0.9071,0.2336,-0.0061,0.6268,-0.0894,0.2016,170
7,-0.8918,0.2673,-0.0102,0.6497,-0.0435,0.1471,170
7,-0.8806,0.3234,-0.0275,0.6476,0.025,0.0784,170
7,-0.8939,0.3459,-0.051,0.6225,0.1047,0.0021,170
7,-0.9255,0.3816,-0.0306,0.6039,0.1984,-0.073,170
7,-1.0102,0.4061,-0.0163,0.5854,0.3041,-0.1493,170
7,-1.2806,0.4316,-0.004,0.5538,0.4012,-0.2333,170
7,-1.4347,0.4755,-0.0183,0.5898,0.4851,-0.2943,170
7,-1.5336,0.5183,-0.0551,0.5898,0.4851,-0.2943,170
7,-1.5602,0.5847,-0.1245,0.6541,0.5341,-0.3422,170
7,-1.5602,0.5847,-0.1245,0.6988,0.5473,-0.3619,170
7,-1.5031,0.7806,-0.2693,0.7031,0.5124,-0.375,170
7,-1.4561,0.8091,-0.2795,0.6072,0.4469,-0.4589,170
7,-1.4194,0.8336,-0.2142,0.3946,0.3685,-0.5484,170
7,-1.3755,0.7285,-0.1183,0.0566,0.2802,-0.5255,170
7,-1.4816,0.3347,-0.0602,-0.3466,0.2442,-0.4502,170
7,-1.4224,0.3245,0.052,-0.4938,0.169,-0.4698,170
7,-1.3663,0.2632,0.1306,-0.3466,0.1318,-0.4338,170
7,-1.2755,0.1143,0.1296,-0.3466,0.1318,-0.4338,170
7,-1.2755,0.1143,0.1296,-0.3597,0.0872,-0.3935,170
7,-1.1275,-0.0173,0.1112,-0.3073,0.0479,-0.2627,170
7,-1.152,0.1581,0.1337,-0.0894,0.0,-0.0969,170
7,-0.8837,-0.0898,-0.001,0.0131,-0.0915,-0.1089,170
7,-0.8622,0.0602,0.0153,0.2354,-0.1341,-0.1144,170
7,-0.8296,0.2836,0.0143,0.5276,-0.1352,-0.0631,170
7,-0.8541,0.3734,-0.0336,0.6116,-0.1461,-0.0435,170
7,-0.9051,0.3561,-0.0989,0.5549,-0.1581,-0.0577,170
7,-0.9347,0.5183,-0.0541,0.5702,-0.1701,-0.049,170
7,-0.9694,0.6112,-0.0571,0.5702,-0.1701,-0.049,170
7,-0.9694,0.6112,-0.0571,0.496,-0.1962,-0.0511,170
7,-0.951,0.6112,-0.0622,0.3314,-0.2245,-0.0774,170
7,-0.9244,0.6163,-0.0561,0.1766,-0.2507,-0.073,170
7,-0.8734,0.6143,-0.0479,0.0294,-0.2856,-0.0806,170
7,-0.7898,0.5234,-0.0765,-0.1449,-0.3227,-0.0915,170
7,-0.752,0.4938,-0.0847,-0.2703,-0.3609,-0.1079,170
7,-0.7142,0.4724,-0.0714,-0.3717,-0.3914,-0.1384,170
7,-0.6837,0.3673,-0.0765,-0.4818,-0.4132,-0.1701,170
7,-0.6714,0.3245,-0.0622,-0.5528,-0.4295,-0.1984,170
7,-0.6847,0.2531,-0.0449,-0.6213,-0.4295,-0.2474,170
7,-0.7051,0.1837,-0.0428,-0.6301,-0.4295,-0.267,170
7,-0.7142,0.1602,-0.0438,-0.6301,-0.4295,-0.267,170
7,-0.7204,0.1387,-0.053,-0.6356,-0.4328,-0.2844,170
7,-0.7204,0.1387,-0.053,-0.6171,-0.4361,-0.2943,170
7,-0.7377,0.1296,-0.0632,-0.5843,-0.4349,-0.2966,170
7,-0.7786,0.1183,-0.1204,-0.545,-0.4361,-0.2911,170
7,-0.7979,0.1418,-0.1489,-0.4938,-0.4437,-0.2791,170
7,-0.8112,0.1673,-0.152,-0.4414,-0.4458,-0.2682,170
7,-0.8061,0.1816,-0.1703,-0.4175,-0.4524,-0.2594,170
7,-0.8193,0.202,-0.2133,-0.4143,-0.4546,-0.2518,170
7,-0.7979,0.2265,-0.1826,-0.4034,-0.4513,-0.2464,170
7,-0.7898,0.2133,-0.1938,-0.4034,-0.4513,-0.2464,170
7,-0.7898,0.2133,-0.1938,-0.399,-0.4328,-0.2474,170
7,-0.7969,0.2367,-0.201,-0.412,-0.4143,-0.2495,170
7,-0.7959,0.2357,-0.1847,-0.4349,-0.3935,-0.2518,170
7,-0.8122,0.2204,-0.1683,-0.4655,-0.3815,-0.2573,170
7,-0.8204,0.2224,-0.1571,-0.4731,-0.3575,-0.2605,170
7,-0.8296,0.2632,-0.1071,-0.4229,-0.3401,-0.2693,170
7,-0.851,0.2806,-0.0622,-0.4175,-0.3271,-0.2802,170
7,-0.8632,0.2663,-0.0336,-0.4611,-0.3008,-0.2954,170
7,-0.8653,0.2714,-0.0367,-0.4633,-0.2562,-0.3008,170
7,-0.8857,0.301,-0.0173,-0.4546,-0.1744,-0.3085,170
7,-0.8857,0.301,-0.0173,-0.4546,-0.1744,-0.3085,170
7,-0.9183,0.1785,-0.0755,-0.5255,-0.0828,-0.3216,170
7,-0.9214,0.1061,-0.101,-0.581,0.0228,-0.3271,170
7,-0.952,0.0591,-0.1194,-0.5604,0.1253,-0.3085,170
7,-0.9745,0.0265,-0.0989,-0.5156,0.2071,-0.2737,170
7,-1.2397,-0.0071,-0.0479,-0.4753,0.2714,-0.2136,170
7,-1.452,0.0388,0.0286,-0.4,0.3314,-0.1242,170
7,-1.6796,0.151,0.1183,-0.2714,0.3609,-0.025,170
7,-1.8632,0.202,0.1541,-0.2485,0.3542,0.049,170
7,-1.6245,-0.0918,-0.0112,-0.3914,0.3041,0.0763,170
7,-1.4694,-0.1714,-0.0684,-0.3914,0.3041,0.0763,170
7,-1.4694,-0.1714,-0.0684,-0.4273,0.2398,0.1155,170
7,-1.3245,-0.1387,-0.0245,-0.2474,0.194,0.1678,170
7,-1.2622,-0.05,0.0336,-0.049,0.1701,0.2125,170
7,-1.0959,0.1112,0.2081,0.0294,0.1701,0.2474,170
7,-1.0632,0.105,0.2051,-0.061,0.2104,0.2495,170
7,-1.0347,0.152,0.2734,-0.1035,0.2518,0.2354,170
7,-1.0612,0.199,0.3152,-0.1286,0.2954,0.2081,170
7,-1.1408,0.1173,0.2877,-0.2507,0.2987,0.1558,170
7,-1.1622,0.0684,0.2479,-0.3477,0.2617,0.1079,170
7,-1.1622,0.0438,0.2643,-0.3477,0.2617,0.1079,170
7,-1.2285,-0.0092,0.2602,-0.339,0.2136,0.085,170
7,-1.2285,-0.0092,0.2602,-0.3521,0.1558,0.0872,170
7,-1.199,-0.2724,0.1122,-0.4284,0.0828,0.085,170
7,-1.1683,-0.2888,0.0652,-0.3565,0.0435,0.1657,170
7,-1.1377,-0.2204,0.0652,-0.1003,0.0392,0.2856,170
7,-1.0959,-0.1775,0.0622,0.0925,0.0261,0.2922,170
7,-0.9459,-0.0867,0.1091,0.1711,-0.0043,0.314,170
7,-0.8796,-0.0969,0.1061,0.1396,-0.0326,0.3586,170
7,-0.8265,-0.1224,0.0786,0.1396,-0.0326,0.3586,170
7,-0.7714,-0.0796,0.0898,0.11,-0.0511,0.3924,170
7,-0.7581,0.0377,0.0969,0.2191,-0.0555,0.4132,170
7,-0.7581,0.0377,0.0969,0.3248,-0.0349,0.4088,170
7,-0.749,0.0673,0.0816,0.3271,-0.0349,0.3958,170
7,-0.7367,0.0714,0.0877,0.2976,-0.0414,0.3783,170
7,-0.7245,0.0775,0.0734,0.2779,-0.0501,0.3542,170
7,-0.7285,0.0948,0.0581,0.2911,-0.0631,0.3248,170
7,-0.7214,0.101,0.0673,0.2911,-0.0969,0.2922,170
7,-0.7551,0.0918,0.0449,0.2922,-0.1221,0.2638,170
7,-0.751,0.0969,0.0275,0.2954,-0.1482,0.2321,170
7,-0.7388,0.1265,0.0255,0.2954,-0.1482,0.2321,170
7,-0.7285,0.1255,0.0418,0.3357,-0.1711,0.206,170
7,-0.7285,0.1255,0.0418,0.3434,-0.2005,0.194,170
7,-0.7275,0.0877,0.0418,0.3041,-0.2234,0.1678,170
7,-0.7551,0.051,0.001,0.2899,-0.2344,0.1591,170
7,-0.7816,0.0306,-0.0347,0.3019,-0.2398,0.1558,170
7,-0.7918,0.0438,-0.0418,0.3532,-0.2234,0.1471,170
7,-0.8224,0.0786,-0.052,0.424,-0.2191,0.1362,170
7,-0.8816,0.0928,-0.0612,0.4349,-0.2234,0.1167,170
8,-0.9224,0.0775,-0.0765,0.4077,-0.23,0.0992,170
8,-0.9653,0.0652,-0.0877,0.4077,-0.23,0.0992,170
8,-0.9653,0.0652,-0.0877,0.4012,-0.2409,0.0872,170
8,-0.9888,0.0602,-0.0836,0.4055,-0.255,0.0828,170
8,-0.9867,0.001,-0.0775,0.3914,-0.2812,0.0959,170
8,-0.9622,-0.0449,-0.0551,0.3597,-0.3205,0.1242,170
8,-0.9449,-0.0561,-0.0326,0.3903,-0.351,0.1558,170
8,-0.9061,-0.0469,0.0122,0.4524,-0.363,0.1907,170
8,-0.8479,-0.0479,0.0561,0.4884,-0.3489,0.2125,170
8,-0.7918,-0.0173,0.101,0.5484,-0.3128,0.2333,170
8,-0.7826,-0.0316,0.1143,0.5996,-0.2442,0.2442,170
8,-0.7847,-0.0234,0.1091,0.5996,-0.2442,0.2442,170
8,-0.7847,-0.0234,0.1091,0.6562,-0.1428,0.255,170
8,-0.7928,0.0326,0.1173,0.7205,-0.0217,0.2682,170
8,-0.802,0.0714,0.1071,0.7751,0.1177,0.2779,170
8,-0.8582,0.1306,0.105,0.8416,0.2779,0.2899,170
8,-0.9275,0.1806,0.1153,0.8744,0.4437,0.2966,170
8,-1.2612,0.2245,0.0969,0.8733,0.5963,0.2856,170
8,-1.4918,0.301,0.1234,0.9234,0.714,0.2649,170
8,-1.7214,0.3653,0.1132,1.0183,0.7676,0.2529,170
8,-1.6561,0.4275,0.0602,1.0314,0.713,0.3107,170
8,-1.5234,0.6847,-0.0643,1.0314,0.713,0.3107,170
8,-1.4347,0.749,-0.0449,1.0389,0.6454,0.3968,170
8,-1.4347,0.749,-0.0449,0.9845,0.6007,0.4132,170
8,-1.3102,0.7551,0.0112,0.7478,0.5516,0.3532,170
8,-1.2265,0.6979,0.0939,0.4229,0.495,0.3325,170
8,-1.1316,0.4194,0.1867,0.1678,0.4252,0.2834,170
8,-1.0245,0.302,0.2714,0.1461,0.3477,0.1886,170
8,-1.0031,0.2051,0.2938,0.2191,0.3151,0.1341,170
8,-1.0061,0.1837,0.2847,0.4361,0.3031,0.098,170
8,-1.0,0.2622,0.1928,0.6476,0.2737,0.0686,170
8,-0.9877,0.3857,0.1551,0.7609,0.2779,-0.0043,170
8,-0.9867,0.4316,0.1041,0.7609,0.2779,-0.0043,170
8,-0.9897,0.4469,0.051,0.8449,0.2802,-0.0326,170
8,-0.9897,0.4469,0.051,0.8078,0.2867,-0.0414,170
8,-1.0326,0.5847,-0.0193,0.785,0.2802,-0.0349,170
8,-1.0214,0.6398,-0.053,0.7348,0.2659,-0.0272,170
8,-0.9979,0.6694,-0.0724,0.6007,0.2376,-0.0294,170
8,-0.8459,0.6398,-0.0367,0.3346,0.1623,-0.0087,170
8,-0.801,0.6316,-0.0214,0.2321,0.1253,-0.0131,170
8,-0.7704,0.6112,-0.0255,0.1177,0.098,-0.024,170
8,-0.7551,0.5857,-0.0398,0.0141,0.0828,-0.0392,170
8,-0.6979,0.5286,-0.0204,-0.0872,0.0511,-0.0479,170
8,-0.7071,0.4938,-0.0408,-0.1972,0.0305,-0.0589,170
8,-0.7112,0.4367,-0.0643,-0.3172,0.0131,-0.0686,170
8,-0.7163,0.3939,-0.0786,-0.3739,-0.0011,-0.0751,170
8,-0.751,0.3898,-0.0541,-0.3804,-0.0076,-0.0894,170
8,-0.7571,0.3591,-0.0632,-0.3804,-0.0076,-0.0894,170
8,-0.7724,0.3326,-0.0459,-0.4458,-0.0196,-0.1123,170
8,-0.7724,0.3326,-0.0459,-0.5015,-0.0337,-0.1396,170
8,-0.7979,0.2898,-0.0469,-0.5179,-0.0511,-0.1667,170
8,-0.8061,0.2479,-0.0755,-0.556,-0.0577,-0.2081,170
8,-0.8122,0.2265,-0.0887,-0.5429,-0.0675,-0.2354,170
8,-0.8265,0.203,-0.101,-0.5015,-0.0839,-0.2583,170
8,-0.7949,0.2357,-0.1602,-0.4698,-0.1047,-0.2802,170
8,-0.802,0.2693,-0.1439,-0.4034,-0.1329,-0.3052,170
8,-0.801,0.2296,-0.1755,-0.4448,-0.1558,-0.3368,170
8,-0.8041,0.2051,-0.1918,-0.4448,-0.1558,-0.3368,170
8,-0.803,0.249,-0.2071,-0.5167,-0.1722,-0.3729,170
8,-0.803,0.249,-0.2071,-0.5135,-0.1678,-0.4143,170
8,-0.799,0.2459,-0.2061,-0.4568,-0.1613,-0.4044,170
8,-0.8326,0.2408,-0.2347,-0.4731,-0.1537,-0.4143,170
8,-0.8612,0.2551,-0.2531,-0.4721,-0.1406,-0.4197,170
8,-0.9306,0.2836,-0.2724,-0.4895,-0.1318,-0.4164,170
8,-0.952,0.2959,-0.2714,-0.5265,-0.1396,-0.3958,170
8,-0.9755,0.3143,-0.2551,-0.5484,-0.1678,-0.3597,170
8,-1.0031,0.3367,-0.2408,-0.581,-0.2005,-0.3227,170
8,-1.0255,0.3571,-0.2112,-0.581,-0.2005,-0.3227,170
8,-1.0183,0.4051,-0.1806,-0.6039,-0.2354,-0.2899,170
8,-1.0183,0.4051,-0.1806,-0.5679,-0.267,-0.2682,170
8,-0.9918,0.4387,-0.1459,-0.5473,-0.2878,-0.2638,170
8,-0.9928,0.449,-0.1367,-0.6007,-0.2737,-0.2888,170
8,-0.9622,0.3939,-0.1112,-0.6781,-0.2234,-0.3325,170
8,-0.9408,0.3204,-0.1326,-0.7686,-0.1482,-0.3914,170
8,-0.9877,0.2316,-0.1561,-0.8493,-0.0599,-0.4546,170
8,-1.0347,0.1642,-0.1765,-0.8384,0.0316,-0.4927,170
8,-1.1612,0.0428,-0.1714,-0.8035,0.1177,-0.4938,170
8,-1.2081,-0.0398,-0.1663,-0.8035,0.1177,-0.4938,170
8,-1.2081,-0.0398,-0.1663,-0.8002,0.1766,-0.4578,170
8,-1.2347,-0.0388,-0.1694,-0.7501,0.2159,-0.3771,170
8,-1.254,-0.1245,-0.1479,-0.7031,0.242,-0.3063,170
8,-1.2214,-0.1979,-0.0693,-0.5952,0.2768,-0.2071,170
8,-1.35,-0.0693,-0.0224,-0.2779,0.3216,-0.0555,170
8,-1.4081,0.1449,0.0469,-0.0087,0.3804,0.0751,170
8,-1.4969,0.2316,0.0234,-0.0021,0.4088,0.1384,170
8,-1.5224,0.3173,0.0092,-0.1177,0.3968,0.1417,170
8,-1.5102,0.3,-0.0061,-0.2823,0.3489,0.1079,170
8,-1.4398,0.3122,0.0347,-0.2823,0.3489,0.1079,170
8,-1.4398,0.3122,0.0347,-0.3521,0.2714,0.0784,170
8,-1.3622,0.3143,0.1132,-0.4492,0.1657,0.0545,170
8,-1.1632,0.1561,0.1694,-0.6018,0.0534,0.0196,170
8,-1.0745,0.1296,0.1908,-0.6333,-0.0414,-0.0097,170
8,-0.999,0.1102,0.2194,-0.6072,-0.0969,-0.0294,170
8,-0.9377,0.0612,0.2377,-0.652,-0.1274,-0.0326,170
8,-0.8806,-0.0969,0.201,-0.6923,-0.1242,-0.0228,170
8,-0.8602,-0.1337,0.1898,-0.6574,-0.0894,0.0065,170
8,-0.8143,-0.1938,0.1541,-0.5974,-0.0316,0.0469,170
8,-0.8439,-0.2306,0.0755,-0.4884,0.0337,0.1024,170
8,-0.8316,-0.15,0.0265,-0.4884,0.0337,0.1024,170
8,-0.8316,-0.15,0.0265,-0.3128,0.0806,0.1537,170
8,-0.8347,-0.0979,-0.002,-0.1984,0.0872,0.1864,170
8,-0.8724,-0.0632,-0.0102,-0.1623,0.0763,0.23,170
8,-0.8857,-0.0336,-0.0173,-0.1503,0.049,0.2583,170
8,-0.8846,0.0541,0.0,-0.1221,0.0174,0.2693,170
8,-0.903,0.0939,-0.004,-0.1133,-0.0108,0.2703,170
8,-0.8969,0.1173,-0.0081,-0.1449,-0.0402,0.2464,170
8,-0.9061,0.1245,-0.0071,-0.193,-0.086,0.2224,170
8,-0.8949,0.1245,-0.0122,-0.2388,-0.1286,0.1864,170
8,-0.8704,0.0867,-0.0102,-0.2388,-0.1286,0.1864,170
8,-0.8673,0.0398,-0.0081,-0.2976,-0.1842,0.1635,170
9,-0.8673,0.0398,-0.0081,-0.3325,-0.2321,0.1428,170
9,-0.8122,0.0071,0.0112,-0.3172,-0.2844,0.1318,170
9,-0.8286,-0.0408,0.0449,-0.2954,-0.3248,0.1253,170
9,-0.8224,-0.1082,0.0,-0.3085,-0.3532,0.1221,170
9,-0.8541,-0.1642,-0.0459,-0.2278,-0.3521,0.1329,170
9,-0.8,-0.0347,0.0153,-0.036,-0.3401,0.1613,170
9,-0.8041,-0.0183,-0.0092,0.0316,-0.326,0.1701,170
9,-0.8184,-0.0622,-0.0459,-0.0272,-0.3117,0.1864,170
9,-0.8448,-0.0724,-0.0755,-0.0272,-0.3117,0.1864,170
9,-0.8622,-0.0051,-0.0673,0.0011,-0.2943,0.193,170
9,-0.8622,-0.0051,-0.0673,0.098,-0.2966,0.1907,170
9,-0.9041,-0.0234,-0.0959,0.1079,-0.3031,0.1755,170
9,-0.9296,-0.051,-0.1234,0.0959,-0.3151,0.1537,170
9,-0.9255,-0.0388,-0.0898,0.1417,-0.326,0.1406,170
9,-0.9285,-0.151,-0.0428,0.1373,-0.3422,0.1297,170
9,-0.8949,-0.2153,-0.0122,0.1177,-0.3542,0.1352,170
9,-0.8989,-0.2112,0.0408,0.2409,-0.3434,0.1623,170
9,-0.8745,-0.1622,0.1132,0.375,-0.3248,0.1864,170
9,-0.8357,-0.2745,0.0612,0.375,-0.3248,0.1864,170
9,-0.8398,-0.203,0.1143,0.3935,-0.2703,0.194,170
9,-0.8398,-0.203,0.1143,0.5516,-0.2016,0.2485,170
9,-0.8826,-0.0887,0.1275,0.7817,-0.1144,0.2758,170
9,-0.9255,-0.0591,0.0816,0.8296,-0.025,0.2573,170
9,-0.9796,0.1316,0.0969,0.9441,0.086,0.242,170
9,-1.0591,0.2316,0.0908,1.0946,0.2049,0.2409,170
9,-1.153,0.252,0.0632,1.0587,0.3227,0.1919,170
9,-1.2704,0.2786,0.0234,1.0967,0.4481,0.157,170
9,-1.5357,0.5979,-0.0071,1.3029,0.5833,0.1493,170
9,-1.6592,0.7653,-0.0112,1.3029,0.5833,0.1493,170
9,-1.6592,0.7653,-0.0112,1.425,0.6585,0.0883,170
9,-1.6857,0.8479,-0.0786,1.3149,0.6072,-0.0316,170
9,-1.6479,0.9377,-0.1387,1.099,0.4536,-0.1057,170
9,-1.2847,1.0031,-0.0234,0.8144,0.2529,-0.1177,170
9,-1.2734,0.8489,0.0571,0.351,0.1112,-0.0282,170
9,-1.1245,0.5398,0.0602,-0.2354,0.0228,0.1242,170
9,-1.0428,0.4092,0.1592,-0.4208,-0.0501,0.1449,170
9,-0.8673,0.2377,0.3051,-0.2737,-0.0511,0.1886,170
9,-0.8122,0.1153,0.254,-0.0915,-0.0435,0.242,170
9,-0.9041,0.0877,0.2673,0.0555,-0.0011,0.1449,170
9,-0.9775,0.1673,0.1602,0.2474,0.0162,0.0446,170
9,-1.0255,0.2285,0.1143,0.2474,0.0162,0.0446,170
9,-1.0684,0.2245,0.0295,0.4153,0.012,0.0555,170
9,-1.0684,0.2245,0.0295,0.4099,0.0065,0.0959,170
9,-1.049,0.2296,0.0214,0.4132,-0.0108,0.1623,170
9,-0.9959,0.1898,-0.0031,0.3891,-0.0501,0.2191,170
9,-0.9581,0.1714,-0.0245,0.4,-0.0795,0.2562,170
9,-0.8939,0.2571,0.0377,0.5364,-0.1047,0.2954,170
9,-0.8602,0.3234,0.0643,0.5822,-0.1221,0.3237,170
9,-0.8051,0.2847,0.0438,0.4927,-0.1417,0.3314,170
9,-0.7908,0.3286,0.0541,0.508,-0.1623,0.3456,170
9,-0.7786,0.3908,0.0591,0.508,-0.1623,0.3456,170
9,-0.754,0.4,0.0469,0.5473,-0.1646,0.3674,170
9,-0.7612,0.3969,0.0102,0.4786,-0.1646,0.3717,170
9,-0.7612,0.3969,0.0102,0.4229,-0.1722,0.3804,170
9,-0.7571,0.4142,-0.0081,0.387,-0.1798,0.3838,170
9,-0.7499,0.4479,-0.0051,0.3542,-0.1842,0.3838,170
9,-0.749,0.4734,-0.0306,0.2899,-0.1875,0.375,170
9,-0.7531,0.4897,-0.0428,0.2039,-0.2093,0.3489,170
9,-0.7459,0.502,-0.0388,0.1123,-0.2333,0.3227,170
9,-0.751,0.4704,-0.0684,-0.0021,-0.2464,0.2856,170
9,-0.7438,0.4438,-0.0857,-0.0523,-0.2507,0.2453,169
9,-0.7204,0.4959,-0.0663,-0.0523,-0.2507,0.2453,169
9,-0.7092,0.4755,-0.0684,-0.0654,-0.2507,0.2027,169
9,-0.7092,0.4755,-0.0684,-0.1646,-0.2453,0.1493,169
9,-0.701,0.4398,-0.0887,-0.2823,-0.2354,0.0969,169
9,-0.6949,0.4173,-0.0989,-0.3412,-0.2136,0.0479,169
9,-0.7051,0.3857,-0.1163,-0.3815,-0.1919,-0.0032,169
9,-0.7081,0.3448,-0.1418,-0.4404,-0.1732,-0.0599,169
9,-0.7122,0.3122,-0.1387,-0.4677,-0.1678,-0.1068,169
9,-0.7397,0.2795,-0.1255,-0.4655,-0.1558,-0.1438,169
9,-0.7499,0.2418,-0.1377,-0.4807,-0.1515,-0.181,169
9,-0.7499,0.2418,-0.1377,-0.4807,-0.1515,-0.181,169
9,-0.754,0.2388,-0.1296,-0.4393,-0.1384,-0.2093,169
9,-0.7581,0.25,-0.1183,-0.3826,-0.1274,-0.2256,169
9,-0.7949,0.2347,-0.103,-0.3641,-0.1155,-0.2398,169
9,-0.8204,0.2336,-0.0908,-0.3422,-0.0992,-0.2453,169
9,-0.85,0.2459,-0.0684,-0.2856,-0.0708,-0.2344,169
9,-0.8979,0.2704,-0.0571,-0.2191,-0.0326,-0.2159,169
9,-1.0132,0.3582,-0.0286,-0.1438,0.0162,-0.1907,169
9,-1.0734,0.4142,-0.0408,-0.0925,0.0534,-0.1591,169
9,-1.1061,0.4724,-0.052,-0.0763,0.0992,-0.1384,169
9,-1.1132,0.5122,-0.0724,-0.0763,0.0992,-0.1384,169
9,-1.1132,0.5122,-0.0724,-0.1144,0.1428,-0.1318,169
9,-1.1132,0.45,-0.1265,-0.2093,0.1875,-0.1438,169
9,-1.1398,0.3918,-0.1642,-0.2856,0.2354,-0.1657,169
9,-1.1908,0.3837,-0.1622,-0.2659,0.2779,-0.1972,169
9,-1.252,0.3918,-0.1316,-0.2344,0.3205,-0.2256,169
9,-1.3622,0.3683,-0.0632,-0.2779,0.3554,-0.2495,169
9,-1.3837,0.3591,-0.0051,-0.326,0.3739,-0.2562,169
9,-1.35,0.2938,0.0234,-0.4208,0.3674,-0.2649,169
9,-1.2867,0.2255,0.0602,-0.4546,0.3674,-0.2802,169
9,-1.1398,0.2326,0.1285,-0.4546,0.3674,-0.2802,169
9,-1.0775,0.2959,0.1612,-0.3619,0.388,-0.2867,169
9,-1.0775,0.2959,0.1612,-0.2409,0.4284,-0.2976,169
9,-1.0245,0.3245,0.1775,-0.2027,0.4655,-0.3019,169
9,-0.9918,0.3102,0.1653,-0.2627,0.4906,-0.3096,169
9,-0.9755,0.2612,0.201,-0.3085,0.4895,-0.2976,169
9,-1.0112,0.2643,0.2377,-0.3107,0.4643,-0.2714,169
9,-1.0541,0.2765,0.2724,-0.2976,0.4273,-0.2529,169
9,-1.1041,0.2612,0.2745,-0.314,0.3739,-0.2453,169
9,-1.1602,0.2724,0.1908,-0.3085,0.3161,-0.2365,169
9,-1.1703,0.3275,0.1622,-0.3085,0.3161,-0.2365,169
9,-1.1969,0.3316,0.1255,-0.2725,0.2703,-0.2234,169
9,-1.1969,0.3316,0.1255,-0.3401,0.2245,-0.2115,169
9,-1.1898,0.2857,0.0449,-0.4677,0.1722,-0.1907,169
9,-1.1561,0.2306,0.0377,-0.5233,0.1297,-0.1591,169
9,-1.1153,0.1183,0.0071,-0.6192,0.0948,-0.1286,169
9,-1.0571,0.052,-0.0245,-0.6127,0.0708,-0.0795,169
9,-0.9979,0.0948,-0.001,-0.495,0.0457,-0.0185,169
9,-0.9296,0.052,-0.0204,-0.5189,0.0305,0.0152,169
10,-0.9142,0.0132,-0.0183,-0.5287,0.0043,0.0511,169
10,-0.9092,0.0316,-0.0102,-0.5287,0.0043,0.0511,169
10,-0.9071,0.0918,0.0122,-0.4187,-0.0162,0.0904,169
10,-0.9071,0.0918,0.0122,-0.3477,-0.0545,0.1013,169
10,-0.9581,0.0714,-0.0081,-0.3586,-0.086,0.085,169
10,-0.9459,0.0887,-0.0081,-0.3401,-0.1438,0.0828,169
10,-0.9459,0.1245,-0.0061,-0.2899,-0.2027,0.0751,169
10,-0.9633,0.1346,-0.0031,-0.3031,-0.2779,0.0664,169
10,-0.9214,0.0755,-0.0286,-0.3248,-0.3489,0.0555,169
10,-0.903,0.0847,-0.0234,-0.2638,-0.4208,0.0555,169
10,-0.8806,0.0714,-0.0234,-0.2289,-0.4698,0.049,169
10,-0.8479,0.0571,-0.0153,-0.2289,-0.4698,0.049,169
10,-0.8245,0.0663,-0.0081,-0.194,-0.507,0.0577,169
10,-0.8071,0.0877,0.0061,-0.1329,-0.52,0.0643,169
10,-0.8071,0.0877,0.0061,-0.0763,-0.5276,0.0708,169
10,-0.8143,0.101,0.0102,-0.0534,-0.52,0.0784,169
10,-0.7867,0.103,0.0204,-0.0457,-0.5112,0.0883,169
10,-0.7949,0.1204,0.0081,-0.0457,-0.4916,0.1057,169
10,-0.8204,0.1163,-0.0214,-0.036,-0.471,0.1167,169
10,-0.8357,0.1459,-0.0326,0.0076,-0.4568,0.1264,169
10,-0.8347,0.199,-0.0245,-0.0053,-0.4546,0.1417,169
10,-0.8612,0.1377,-0.0622,-0.1177,-0.4513,0.1471,169
10,-0.8622,0.0948,-0.101,-0.1177,-0.4513,0.1471,169
10,-0.8622,0.0948,-0.101,-0.1581,-0.4481,0.1537,169
10,-0.8541,0.1132,-0.1041,-0.0959,-0.4481,0.1581,169
10,-0.8102,0.0775,-0.0591,-0.1057,-0.4404,0.1646,169
10,-0.801,0.002,-0.0745,-0.1907,-0.4393,0.1766,169
10,-0.7959,-0.0265,-0.053,-0.1471,-0.4273,0.1984,169
10,-0.7918,-0.001,0.002,-0.049,-0.4055,0.2201,169
10,-0.7561,-0.0071,0.1163,-0.0131,-0.3706,0.23,169
10,-0.7612,-0.0336,0.1204,0.0053,-0.2966,0.2344,169
10,-0.8,-0.0224,0.1234,0.1177,-0.206,0.2376,169
10,-0.8255,0.0459,0.1571,0.1177,-0.206,0.2376,169
10,-0.8255,0.0459,0.1571,0.2495,-0.1123,0.206,169
10,-0.9633,0.0928,0.1183,0.3096,-0.0206,0.1602,169
10,-1.0438,0.1316,0.101,0.375,0.0577,0.1123,169
10,-1.1316,0.2183,0.1143,0.4763,0.1155,0.0698,169
10,-1.2316,0.2928,0.1316,0.4982,0.1482,0.0392,169
10,-1.4908,0.353,0.0939,0.5059,0.1318,0.0272,169
10,-1.4897,0.4571,0.0673,0.6192,0.1155,0.0774,169
10,-1.4734,0.5357,0.0092,0.6192,0.1264,0.1144,169
10,-1.4592,0.7612,0.0051,0.5822,0.1329,0.1242,169
10,-1.4285,0.8081,0.0551,0.4263,0.11,0.0457,169
10,-1.402,0.7683,0.1061,0.1341,0.0719,-0.025,169
10,-1.3806,0.6581,0.1622,-0.1537,0.025,-0.0566,169
10,-1.2908,0.3204,0.1969,-0.2844,-0.0206,-0.1133,169
10,-1.2357,0.2163,0.199,-0.242,-0.0511,-0.1177,169
10,-1.1785,0.2173,0.2561,-0.242,-0.0511,-0.1177,169
10,-1.1785,0.2173,0.2561,-0.1068,-0.0839,-0.074,169
10,-1.0816,0.1775,0.2877,-0.0305,-0.1221,-0.0162,169
10,-0.949,0.0948,0.2806,0.0043,-0.1482,0.0479,169
10,-0.9092,0.0684,0.2204,0.1308,-0.1581,0.0969,169
10,-0.8479,0.1418,0.2183,0.375,-0.1602,0.1123,169
10,-0.8255,0.2704,0.2459,0.5679,-0.157,0.1047,169
10,-0.8316,0.2908,0.1285,0.5408,-0.1515,0.086,169
10,-0.7979,0.3908,0.1387,0.6148,-0.1558,0.0566,169
10,-0.8377,0.5979,0.1744,0.7447,-0.1449,0.0631,169
10,-0.8949,0.6714,0.1245,0.7447,-0.1449,0.0631,169
10,-0.9255,0.6826,0.049,0.5702,-0.1242,0.0316,169
10,-0.9255,0.6826,0.049,0.399,-0.1286,0.0032,169
10,-0.9275,0.7959,0.1275,0.3248,-0.1602,0.0032,169
10,-0.8989,0.6867,0.0622,-0.0185,-0.2039,-0.0272,169
10,-0.9449,0.5877,-0.0214,-0.2039,-0.2201,0.0076,169
10,-0.8704,0.5928,0.0122,-0.231,-0.2562,0.0196,169
10,-0.8214,0.5816,0.0857,-0.3729,-0.2802,0.0217,169
10,-0.802,0.4255,0.0326,-0.6257,-0.2976,0.0141,169
10,-0.8193,0.3234,-0.0132,-0.6694,-0.3107,0.0032,169
10,-0.7183,0.2724,0.0336,-0.6694,-0.3107,0.0032,169
10,-0.6908,0.2969,0.1245,-0.5614,-0.3151,-0.0021,169
10,-0.7234,0.2061,0.0734,-0.5124,-0.2943,0.0196,169
10,-0.7234,0.2061,0.0734,-0.6486,-0.2888,0.0053,169
10,-0.7051,0.0398,0.0132,-0.6694,-0.2911,0.0141,169
10,-0.7326,0.1112,0.0612,-0.4393,-0.2888,0.0631,169
10,-0.6703,0.0663,0.0714,-0.3477,-0.2932,0.0108,169
10,-0.6755,0.0959,0.0571,-0.2594,-0.2899,-0.0011,169
10,-0.7092,0.1061,0.0612,-0.2159,-0.3052,0.0076,169
10,-0.6735,0.0959,-0.0183,-0.0806,-0.3096,0.0152,169
10,-0.6551,0.2428,0.0765,0.1144,-0.3041,0.0479,169
10,-0.6806,0.2653,0.0224,0.1144,-0.3041,0.0479,169
10,-0.702,0.2551,-0.0081,0.0686,-0.2867,0.0631,169
10,-0.702,0.2551,-0.0081,0.0337,-0.2768,0.0577,169
10,-0.6755,0.4469,0.0622,0.1537,-0.2659,0.049,169
10,-0.7122,0.4653,0.0357,0.0566,-0.23,0.0316,169
10,-0.7377,0.3632,-0.0459,-0.1133,-0.2027,0.0097,169
10,-0.7459,0.3255,-0.0989,-0.0479,-0.1972,-0.0053,169
10,-0.7438,0.5306,0.0031,-0.0131,-0.1919,-0.0261,169
10,-0.7765,0.4153,-0.0867,-0.2213,-0.1623,-0.086,169
10,-0.7479,0.3224,-0.1265,-0.2213,-0.1623,-0.086,169
10,-0.7479,0.3224,-0.1265,-0.2169,-0.1558,-0.1526,169
10,-0.7081,0.3193,0.001,-0.0948,-0.1461,-0.1972,169
10,-0.7081,0.3193,0.001,-0.3041,-0.1024,-0.2659,169
10,-0.7081,0.1143,-0.0428,-0.4273,-0.0457,-0.3336,169
10,-0.6938,0.0867,-0.0153,-0.218,0.0043,-0.3434,169
10,-0.7693,0.0734,0.1112,-0.1112,0.0719,-0.3489,169
10,-0.7928,-0.0469,0.1183,-0.1188,0.1417,-0.3695,169
10,-0.8122,-0.0571,0.1541,0.0818,0.2224,-0.3357,169
10,-0.9255,-0.0234,0.1265,0.2932,0.3216,-0.2932,169
10,-1.002,-0.0714,0.0193,0.4065,0.4077,-0.2409,169
10,-1.049,0.0224,0.0092,0.4065,0.4077,-0.2409,169
10,-1.049,0.0224,0.0092,0.6312,0.4698,-0.1515,169
10,-1.1581,0.0877,-0.0193,0.7893,0.5309,-0.0621,169
10,-1.2347,0.1224,-0.0204,0.8765,0.5658,0.0217,169
10,-1.5551,0.3694,0.1041,1.0314,0.6018,0.1253,169
10,-1.7336,0.5602,0.1796,1.1196,0.6051,0.2093,169
10,-1.8408,0.7438,0.2336,1.0923,0.5647,0.2333,169
10,-1.7806,0.8071,0.2632,0.8285,0.471,0.1623,169
10,-1.4438,0.4592,0.0847,0.4307,0.3674,0.1035,169
10,-1.2806,0.4316,0.1194,0.3838,0.2812,0.0566,169
10,-1.1541,0.502,0.1785,0.3838,0.2812,0.0566,169
10,-1.1541,0.502,0.1785,0.4753,0.2388,0.0294,169
11,-1.0326,0.4888,0.2377,0.363,0.2354,-0.0206,169
11,-0.8846,0.3928,0.3357,0.2617,0.2539,-0.0654,169
11,-0.8418,0.3877,0.4061,0.218,0.2649,-0.0894,169
11,-0.8326,0.353,0.4847,0.1274,0.2943,-0.1047,169
11,-0.8643,0.2795,0.5051,0.1013,0.3193,-0.1167,169
11,-1.0224,0.3,0.5204,0.1798,0.3325,-0.1167,169
11,-1.1091,0.2938,0.4612,0.1842,0.3434,-0.1308,169
11,-1.1949,0.2418,0.35,0.1744,0.3456,-0.1406,169
11,-1.2581,0.2326,0.2551,0.1744,0.3456,-0.1406,169
11,-1.2959,0.3234,0.1296,0.2768,0.3292,-0.1264,169
11,-1.2959,0.3234,0.1296,0.3216,0.2987,-0.0969,169
11,-1.249,0.3398,0.0908,0.2627,0.2398,-0.0631,169
11,-1.1683,0.3489,0.0979,0.1581,0.1732,-0.0326,169
11,-1.0877,0.2877,0.0969,0.0174,0.1057,-0.0185,169
11,-0.9408,0.1775,0.053,0.0349,0.0555,-0.0108,169
11,-0.8724,0.2275,0.0939,0.1602,0.0337,-0.0043,169
11,-0.8193,0.2377,0.1041,0.1482,0.0217,-0.0065,169
11,-0.7898,0.2,0.0816,0.1057,0.0152,-0.0053,169
11,-0.7377,0.25,0.1041,0.1057,0.0152,-0.0053,169
11,-0.7234,0.2459,0.1132,0.1341,0.0152,-0.0043,169
11,-0.7234,0.2459,0.1132,0.0969,0.0272,-0.0108,169
11,-0.7326,0.204,0.0908,0.0566,0.0326,-0.025,169
11,-0.751,0.2142,0.0632,0.1024,0.0097,-0.0446,169
11,-0.7898,0.2704,0.0551,0.1013,-0.0196,-0.073,169
11,-0.8132,0.2306,0.0255,0.0523,-0.0566,-0.1112,169
11,-0.8336,0.2224,0.0173,0.0708,-0.0959,-0.1373,169
11,-0.8306,0.2561,0.053,0.0654,-0.1318,-0.1547,169
11,-0.8418,0.1714,0.0357,-0.0108,-0.1591,-0.1722,169
11,-0.8387,0.1173,0.0245,-0.0108,-0.1591,-0.1722,169
11,-0.8418,0.1112,0.001,-0.0108,-0.1864,-0.181,169
11,-0.8224,0.0847,-0.0051,0.0402,-0.2125,-0.1787,169
11,-0.8224,0.0847,-0.0051,0.0828,-0.2234,-0.1722,169
11,-0.7734,0.0438,0.0153,0.1133,-0.2245,-0.1449,169
11,-0.7786,0.0275,0.0102,0.1308,-0.2224,-0.1057,169
11,-0.749,-0.0214,-0.0112,0.1701,-0.2093,-0.0631,169
11,-0.7857,-0.0255,-0.0224,0.2878,-0.1919,-0.0162,169
11,-0.801,0.0591,-0.0347,0.3924,-0.1798,0.024,169
11,-0.803,0.1061,-0.0265,0.4328,-0.1635,0.0686,169
11,-0.7867,0.1653,-0.0245,0.3542,-0.1493,0.1471,169
11,-0.7683,0.2,-0.0163,0.3422,-0.1308,0.1635,169
11,-0.7581,0.2285,-0.0092,0.3227,-0.11,0.1657,169
11,-0.7724,0.2336,-0.0173,0.3227,-0.11,0.1657,169
11,-0.7724,0.2336,-0.0173,0.3052,-0.0828,0.1515,169
11,-0.7877,0.3102,0.0336,0.3019,-0.0511,0.1232,169
11,-0.8071,0.3234,0.0428,0.2344,-0.0294,0.0784,169
11,-0.8398,0.2918,0.0408,0.1155,-0.0011,0.0282,169
11,-0.8694,0.2531,0.0357,0.074,0.0337,-0.0162,169
11,-0.9826,0.2153,0.0031,0.0621,0.0675,-0.0577,169
11,-1.0388,0.1703,-0.0295,0.0457,0.0883,-0.0872,169
11,-1.0806,0.1469,-0.0479,0.0784,0.11,-0.0959,169
11,-1.1112,0.1387,-0.0571,0.1144,0.1155,-0.0883,169
11,-1.1459,0.1143,-0.1143,0.1144,0.1155,-0.0883,169
11,-1.1642,0.1418,-0.1143,0.1384,0.1188,-0.0631,169
11,-1.1642,0.1418,-0.1143,0.1962,0.1177,-0.0282,169
11,-1.2122,0.203,-0.1143,0.2573,0.1024,-0.0011,169
11,-1.2663,0.2612,-0.0969,0.2583,0.0664,0.0108,169
11,-1.4041,0.3704,-0.0214,0.2474,0.0206,0.0065,169
11,-1.4265,0.4612,0.051,0.2398,-0.0272,-0.0011,169
11,-1.4142,0.5153,0.1163,0.1711,-0.0599,-0.0032,169
11,-1.3643,0.5122,0.1183,0.0631,-0.0501,-0.0065,169
11,-1.2357,0.4877,0.0693,-0.0076,-0.0097,-0.0011,169
11,-1.2081,0.4888,0.0408,-0.0076,-0.0097,-0.0011,168
11,-1.1959,0.4724,0.0295,-0.0479,0.0457,-0.0065,168
11,-1.1959,0.4724,0.0295,-0.1274,0.1024,-0.0272,168
11,-1.201,0.4418,0.0428,-0.1864,0.1373,-0.061,168
11,-1.2908,0.4244,0.1143,-0.2453,0.1602,-0.1024,168
11,-1.3643,0.3418,0.105,-0.3281,0.1591,-0.1558,168
11,-1.4051,0.25,0.1091,-0.3237,0.1221,-0.194,168
11,-1.3846,0.1898,0.1398,-0.2725,0.0523,-0.1798,168
11,-1.2795,0.0847,0.1439,-0.2409,-0.0217,-0.1274,168
11,-1.1755,0.0275,0.151,-0.1701,-0.0959,-0.0566,168
11,-1.0602,0.0071,0.1806,-0.1701,-0.0959,-0.0566,168
11,-0.9755,0.0183,0.2326,-0.037,-0.1635,0.0196,168
11,-0.9755,0.0183,0.2326,0.098,-0.2081,0.0894,168
11,-0.8898,0.0673,0.2357,0.2507,-0.2224,0.1362,168
11,-0.8806,0.1755,0.2275,0.4524,-0.2191,0.1678,168
11,-0.8826,0.3061,0.2061,0.5582,-0.2125,0.182,168
11,-0.9132,0.401,0.1469,0.5374,-0.2027,0.181,168
11,-0.9479,0.5388,0.0652,0.4655,-0.2039,0.1776,168
11,-0.954,0.6091,0.0755,0.3346,-0.218,0.1787,168
11,-0.9581,0.6112,0.0581,0.1242,-0.2376,0.1787,168
11,-0.9683,0.5704,0.0071,0.1242,-0.2376,0.1787,168
11,-0.9683,0.5704,0.0071,-0.0479,-0.2507,0.2005,168
11,-0.8837,0.5684,0.0816,-0.1602,-0.2812,0.2344,168
11,-0.8939,0.5265,0.0449,-0.338,-0.3019,0.2495,168
11,-0.8918,0.4285,-0.002,-0.471,-0.3205,0.2529,168
11,-0.8286,0.3918,0.0418,-0.4698,-0.3336,0.2573,168
11,-0.8286,0.3469,0.0581,-0.5789,-0.3346,0.2518,168
11,-0.8275,0.1969,0.001,-0.6901,-0.3281,0.2224,168
11,-0.7775,0.1602,0.0214,-0.5528,-0.3271,0.2201,168
11,-0.7745,0.2234,0.0693,-0.4818,-0.3292,0.2201,168
11,-0.7663,0.0469,-0.004,-0.5974,-0.3281,0.1995,168
11,-0.7663,0.0469,-0.004,-0.5974,-0.3281,0.1995,168
11,-0.7214,0.0193,0.0,-0.4698,-0.3554,0.2169,168
11,-0.7265,0.1,0.0643,-0.3302,-0.3717,0.2376,168
11,-0.7122,0.0745,0.0408,-0.3532,-0.387,0.2354,168
11,-0.6969,0.0112,0.0092,-0.2159,-0.4088,0.2518,168
11,-0.704,0.1224,0.0316,0.0011,-0.424,0.2737,168
11,-0.7051,0.1969,0.0479,0.0228,-0.4393,0.2758,168
11,-0.704,0.1806,0.0143,0.0294,-0.4481,0.2802,168
11,-0.6938,0.3041,0.0316,0.1024,-0.4492,0.2966,168
11,-0.6877,0.3357,0.0245,0.0631,-0.4349,0.2966,168
11,-0.6806,0.3316,0.0051,0.0631,-0.4349,0.2966,168
11,-0.6806,0.3316,0.0051,0.0425,-0.4153,0.2911,168
11,-0.6826,0.3826,0.0081,0.0446,-0.3958,0.2856,168
11,-0.6816,0.4449,-0.0204,-0.0316,-0.3804,0.2605,168
11,-0.6703,0.4377,-0.0459,-0.0839,-0.3609,0.2234,168
11,-0.6632,0.4765,-0.0571,-0.1035,-0.3445,0.182,168
12,-0.6653,0.5204,-0.05,-0.194,-0.3227,0.1253,168
12,-0.6612,0.4796,-0.0479,-0.3292,-0.2966,0.0577,168
12,-0.6602,0.454,-0.0265,-0.3891,-0.2725,-0.0108,168
12,-0.6612,0.4347,0.0173,-0.4349,-0.2485,-0.0763,168
12,-0.6755,0.3224,0.0806,-0.4349,-0.2485,-0.0763,168
12,-0.6918,0.2847,0.1214,-0.4611,-0.2039,-0.1308,168
12,-0.6918,0.2847,0.1214,-0.4372,-0.1471,-0.1515,168
12,-0.7214,0.2428,0.153,-0.4263,-0.0839,-0.1591,168
12,-0.7908,0.201,0.152,-0.3685,-0.0152,-0.1406,168
12,-0.9296,0.2051,0.1663,-0.2627,0.0631,-0.1144,168
12,-1.0071,0.2418,0.1449,-0.157,0.1373,-0.0883,168
12,-1.0714,0.2877,0.0979,-0.0675,0.2005,-0.0631,168
12,-1.0918,0.3347,0.0714,-0.0021,0.2507,-0.0534,168
12,-1.1765,0.4357,0.0622,0.0065,0.2911,-0.0566,168
12,-1.2306,0.4275,0.0643,0.0065,0.2911,-0.0566,168
12,-1.3377,0.4673,0.1541,-0.0402,0.3183,-0.061,168
12,-1.3377,0.4673,0.1541,0.0349,0.3434,-0.0621,168
12,-1.5193,0.5928,0.2571,0.0675,0.3641,-0.0806,168
12,-1.8286,0.6663,0.2877,-0.0631,0.3521,-0.1232,168
12,-1.7877,0.6306,0.2908,-0.2159,0.2922,-0.169,168
12,-1.6714,0.4897,0.2428,-0.4437,0.1984,-0.2344,168
12,-1.501,0.2755,0.1755,-0.4971,0.1144,-0.3008,168
12,-1.1755,0.2969,0.3306,-0.2627,0.0925,-0.3248,168
12,-1.0816,0.3949,0.4347,-0.169,0.1167,-0.3422,168
12,-0.9867,0.3448,0.4775,-0.169,0.1167,-0.3422,168
12,-0.9153,0.2265,0.4765,-0.3302,0.1701,-0.3729,168
12,-0.9153,0.2265,0.4765,-0.3848,0.2268,-0.3815,168
12,-0.901,0.1632,0.5408,-0.3609,0.2943,-0.3838,168
12,-0.9265,0.0816,0.5051,-0.3466,0.3271,-0.3924,168
12,-0.9642,0.0418,0.4826,-0.2365,0.3271,-0.3739,168
12,-1.0163,0.0887,0.4969,-0.1732,0.2932,-0.351,168
12,-1.1357,-0.0438,0.4306,-0.1732,0.2932,-0.351,168
12,-1.1703,-0.1357,0.3969,-0.193,0.1744,-0.255,168
12,-1.1969,-0.1581,0.3541,0.0,0.1526,-0.1482,168
12,-1.2296,-0.1346,0.2826,0.0,0.1526,-0.1482,168
12,-1.2296,-0.1346,0.2826,0.2027,0.1352,-0.0577,168
12,-1.1683,0.0286,0.2234,0.2027,0.1352,-0.0577,168
12,-1.1265,0.1112,0.1979,0.3346,0.1057,0.025,168
12,-1.0714,0.1469,0.1642,0.3554,0.0698,0.0937,168
12,-0.9806,0.1714,0.1642,0.3325,0.037,0.1341,168
12,-0.7908,0.2163,0.1245,0.3183,0.0076,0.1503,168
12,-0.7316,0.203,0.1245,0.267,0.0021,0.1362,168
12,-0.6928,0.2194,0.1439,0.2354,0.0032,0.1308,168
12,-0.6755,0.2092,0.1377,0.2213,0.0131,0.1297,168
12,-0.6642,0.2163,0.1439,0.1558,0.0043,0.1047,168
12,-0.6714,0.2224,0.1612,0.1558,0.0043,0.1047,168
12,-0.6418,0.2133,0.1561,0.1188,0.0032,0.0883,168
12,-0.6592,0.1551,0.1479,0.1188,0.0032,0.0883,168
12,-0.6439,0.1449,0.1581,0.061,-0.0097,0.0631,168
12,-0.6439,0.1449,0.1581,0.0349,-0.0282,0.0545,168
12,-0.6398,0.153,0.1622,0.0425,-0.0425,0.0425,168
12,-0.6439,0.1418,0.1439,0.0511,-0.0446,0.0261,168
12,-0.6673,0.0908,0.1153,0.0402,-0.049,0.0131,168
12,-0.6694,0.0816,0.1071,0.0534,-0.0545,-0.0043,168
12,-0.6765,0.0643,0.1,0.0872,-0.0566,-0.0185,168
12,-0.6724,0.0265,0.0836,0.0959,-0.0599,-0.0261,168
12,-0.704,-0.0326,0.0643,0.1264,-0.0589,-0.0217,168
12,-0.7204,-0.051,0.0551,0.1264,-0.0589,-0.0217,168
12,-0.749,-0.0551,0.0428,0.182,-0.0469,-0.0087,168
12,-0.749,-0.0551,0.0428,0.2474,-0.0446,0.024,167
12,-0.7561,-0.0388,0.0295,0.3248,-0.0381,0.0643,167
12,-0.7551,0.004,0.0347,0.3924,-0.0316,0.11,167
12,-0.7581,0.002,0.0183,0.4307,-0.0217,0.1515,167
12,-0.7296,0.0183,0.0398,0.4513,-0.0076,0.1886,167
12,-0.702,0.0561,0.0867,0.5036,0.012,0.2256,167
12,-0.6632,0.0459,0.1285,0.5255,0.0523,0.2583,167
12,-0.6418,0.0622,0.1622,0.5255,0.0523,0.2583,167
12,-0.6449,0.1173,0.2051,0.5299,0.1057,0.2725,167
12,-0.702,0.1214,0.1775,0.6106,0.1886,0.2802,167
12,-0.702,0.1214,0.1775,0.6629,0.2943,0.267,167
12,-0.7285,0.15,0.1857,0.6661,0.4034,0.2365,167
12,-0.7908,0.1938,0.1571,0.713,0.5112,0.2093,167
12,-0.8704,0.1837,0.0816,0.7054,0.6171,0.1798,167
12,-1.0112,0.1826,-0.0153,0.652,0.6988,0.1352,167
12,-1.1367,0.2234,-0.0408,0.6617,0.7609,0.0915,167
12,-1.3173,0.2326,-0.052,0.6759,0.8002,0.0534,167
12,-1.5286,0.25,-0.0438,0.6442,0.8002,0.0162,167
12,-1.7786,0.3224,-0.0316,0.6442,0.8002,0.0162,167
12,-1.7786,0.3224,-0.0316,0.6901,0.7152,0.0174,167
12,-1.6306,0.3632,-0.0898,0.7729,0.5582,0.0719,167
12,-1.4796,0.5071,-0.1234,0.8525,0.4044,0.1831,167
12,-1.4102,0.7377,-0.0969,1.0118,0.3695,0.2823,167
12,-1.3387,0.9306,0.001,1.0194,0.3804,0.2147,167
12,-1.3653,0.9601,0.0959,0.8493,0.4164,0.0435,167
12,-1.4296,0.9796,0.1938,0.6148,0.4404,-0.0719,167
12,-1.5061,0.9785,0.1908,0.3848,0.4546,-0.1657,167
12,-1.5418,0.6459,0.1387,0.1003,0.4295,-0.2888,167
12,-1.5051,0.5418,0.1224,0.1003,0.4295,-0.2888,167
12,-1.5051,0.5418,0.1224,-0.036,0.375,-0.4065,167
12,-1.4642,0.4428,0.0673,-0.0828,0.2791,-0.424,167
12,-1.3796,0.302,0.0234,-0.1951,0.169,-0.3597,167
12,-1.1,0.2377,0.1041,-0.1591,0.0469,-0.2758,167
12,-1.0234,0.251,0.1326,0.0032,-0.0523,-0.1798,167
12,-0.952,0.2388,0.1326,0.0937,-0.1089,-0.0992,167
12,-0.9203,0.2918,0.151,0.1995,-0.1526,-0.0479,167
12,-0.855,0.5102,0.1887,0.3958,-0.1864,-0.0282,167
12,-0.8479,0.5479,0.1612,0.471,-0.2005,-0.0162,167
12,-0.8816,0.5887,0.1153,0.471,-0.2005,-0.0162,167
12,-0.9132,0.6867,0.0928,0.4317,-0.2039,-0.0087,167
12,-0.9132,0.6867,0.0928,0.4295,-0.1776,0.0087,167
12,-0.9561,0.8296,0.0398,0.3891,-0.1711,0.0272,167
12,-0.9459,0.7765,-0.0031,0.1787,-0.1732,0.0228,167
12,-0.9398,0.7459,-0.0214,-0.0719,-0.169,0.0337,167
12,-0.9316,0.7194,-0.0469,-0.242,-0.1744,0.0664,167
12,-0.8571,0.701,-0.0112,-0.3729,-0.193,0.0774,167
12,-0.8184,0.6428,0.004,-0.5418,-0.2201,0.0708,167
12,-0.7857,0.5775,0.0031,-0.7327,-0.2344,0.0719,167
12,-0.7795,0.5438,0.002,-0.7327,-0.2344,0.0719,167
12,-0.7531,0.452,0.0143,-0.8449,-0.2268,0.0751,167
13,-0.7449,0.4132,0.0143,-0.9179,-0.2136,0.0643,167
13,-0.7449,0.4132,0.0143,-0.9889,-0.193,0.0589,167
13,-0.7326,0.3939,0.0193,-1.0183,-0.1602,0.0654,167
13,-0.7183,0.351,0.0112,-1.0564,-0.1352,0.0545,167
13,-0.6694,0.301,0.0153,-1.0935,-0.1177,0.0643,167
13,-0.651,0.25,0.0,-1.1121,-0.1035,0.0818,167
13,-0.6224,0.1816,-0.0102,-1.1589,-0.0915,0.0795,167
13,-0.6326,0.1755,-0.0102,-1.1382,-0.0784,0.1144,167
13,-0.6551,0.1275,-0.0591,-1.1382,-0.0784,0.1144,167
13,-0.651,0.1224,-0.0714,-1.0706,-0.0839,0.1308,167
13,-0.6439,0.1949,-0.0377,-1.0128,-0.098,0.0937,167
13,-0.6439,0.1949,-0.0377,-0.8645,-0.1242,0.0643,167
13,-0.6489,0.2449,-0.0204,-0.7533,-0.1384,0.0446,167
13,-0.6826,0.1439,-0.0663,-0.8078,-0.1461,0.0381,167
13,-0.7245,0.1928,-0.0684,-0.8046,-0.1438,0.0326,167
13,-0.7469,0.2724,-0.0449,-0.6606,-0.1396,0.0381,167
13,-0.751,0.2693,-0.0459,-0.6333,-0.1329,0.0228,167
13,-0.7704,0.2949,-0.0622,-0.664,-0.1297,-0.0065,167
13,-0.7898,0.3316,-0.0816,-0.664,-0.1297,-0.0065,167
13,-0.802,0.3,-0.1173,-0.6312,-0.1352,-0.0261,167
13,-0.8102,0.2816,-0.1459,-0.6661,-0.1428,-0.0479,167
13,-0.8102,0.2816,-0.1459,-0.7119,-0.1471,-0.0784,167
13,-0.8061,0.3306,-0.0796,-0.6988,-0.1711,-0.0959,167
13,-0.8357,0.2673,-0.0918,-0.7609,-0.1984,-0.1024,167
13,-0.8704,0.1714,-0.1132,-0.8842,-0.2191,-0.1112,167
13,-0.8826,0.1387,-0.0887,-0.8656,-0.2409,-0.1123,167
13,-0.9296,0.1224,-0.0377,-0.7424,-0.2583,-0.1057,167
13,-0.954,0.1082,-0.0214,-0.6869,-0.2638,-0.11,167
13,-0.9663,0.1561,0.0061,-0.5799,-0.2627,-0.1013,167
13,-0.9551,0.1255,0.051,-0.5799,-0.2627,-0.1013,167
13,-0.9551,0.1255,0.051,-0.4971,-0.2442,-0.085,167
13,-0.9479,0.0918,0.0367,-0.5233,-0.2136,-0.073,167
13,-0.9704,0.1418,0.0724,-0.4841,-0.1711,-0.0719,167
13,-0.9785,0.0908,0.0,-0.3859,-0.1242,-0.0751,167
13,-0.9581,0.1306,0.0388,-0.2594,-0.0555,-0.0894,167
13,-0.949,0.1541,0.0112,-0.1417,0.0065,-0.1177,167
13,-0.9235,0.1592,0.0357,-0.0774,0.0523,-0.1341,167
13,-0.9285,0.1724,0.0469,-0.0305,0.1057,-0.1318,167
13,-1.0612,0.2051,0.1082,0.0316,0.1657,-0.1221,167
13,-1.1816,0.2438,0.199,0.0316,0.1657,-0.1221,167
13,-1.1816,0.2438,0.199,0.0631,0.2321,-0.1003,167
13,-1.8867,0.7847,0.2786,0.3128,0.3794,-0.0162,167
13,-1.7632,0.7204,0.1632,0.3521,0.4187,0.0196,167
13,-1.7632,0.7204,0.1632,0.2562,0.3771,-0.0174,167
13,-1.5928,0.5826,0.0989,-0.0545,0.2768,-0.0698,167
13,-1.4867,0.501,0.0684,-0.2954,0.1776,-0.0992,167
13,-1.1724,0.4449,0.2663,-0.3205,0.0828,-0.1482,167
13,-0.9938,0.3214,0.3796,-0.3979,0.0425,-0.2278,167
13,-0.902,0.1703,0.4398,-0.5276,0.0457,-0.3008,167
13,-0.8632,0.0643,0.4836,-0.5461,0.1003,-0.3292,167
13,-0.8479,0.0286,0.4969,-0.4164,0.1831,-0.2998,167
13,-0.8734,0.0612,0.4775,-0.4164,0.1831,-0.2998,167
13,-0.8724,0.0214,0.4275,-0.2147,0.2617,-0.2856,167
13,-0.8724,0.0214,0.4275,-0.1188,0.2954,-0.3314,167
13,-0.8785,-0.0071,0.4071,-0.0894,0.2932,-0.3281,167
13,-0.9224,-0.0857,0.3398,-0.0435,0.2747,-0.2802,167
13,-0.9704,-0.151,0.2734,0.0043,0.2539,-0.2093,167
13,-1.0122,-0.1642,0.2,0.1079,0.2583,-0.1264,167
13,-1.0295,-0.0806,0.1714,0.3237,0.2453,-0.0446,167
13,-1.0857,0.105,0.1296,0.5179,0.2485,0.0261,167
13,-1.0632,0.1592,0.1153,0.5418,0.2453,0.085,167
13,-1.0408,0.2,0.1153,0.5418,0.2453,0.085,167
13,-1.0408,0.2,0.1153,0.5276,0.2213,0.1167,167
13,-0.8918,0.2101,0.0877,0.532,0.1886,0.1384,167
13,-0.8918,0.2101,0.0877,0.4643,0.1461,0.1406,167
13,-0.8582,0.1581,0.0602,0.3368,0.1035,0.1308,167
13,-0.8357,0.1898,0.0551,0.3565,0.0894,0.1242,167
13,-0.8071,0.2255,0.0765,0.4132,0.085,0.1112,167
13,-0.7786,0.1918,0.0816,0.3575,0.0664,0.0904,167
13,-0.7847,0.1847,0.0632,0.3128,0.0414,0.0751,167
13,-0.7786,0.202,0.0796,0.3227,0.0294,0.0479,167
13,-0.7826,0.2326,0.1112,0.3597,0.0097,0.0141,167
13,-0.7826,0.2326,0.1112,0.3597,0.0097,0.0141,167
13,-0.8081,0.1673,0.0836,0.3357,-0.0152,-0.0196,167
13,-0.803,0.1408,0.0693,0.2823,-0.0501,-0.0589,167
13,-0.801,0.1612,0.0816,0.3368,-0.0806,-0.0904,167
13,-0.8051,0.1449,0.0684,0.3695,-0.0959,-0.1123,167
13,-0.7979,0.102,0.0591,0.3739,-0.1144,-0.1341,167
13,-0.801,0.1214,0.0591,0.4437,-0.1373,-0.1297,167
13,-0.799,0.0714,0.0357,0.4437,-0.1493,-0.1274,167
13,-0.7908,0.049,0.0275,0.4578,-0.1678,-0.1167,167
13,-0.8152,0.1122,0.0132,0.556,-0.169,-0.0925,167
13,-0.802,0.102,-0.0071,0.556,-0.169,-0.0925,167
13,-0.802,0.102,-0.0071,0.581,-0.1744,-0.0675,167
13,-0.7847,0.1377,0.0102,0.5974,-0.1755,-0.0446,167
13,-0.7928,0.1735,0.002,0.6159,-0.1722,-0.0065,167
13,-0.7704,0.1642,-0.0224,0.5604,-0.1646,0.0174,167
13,-0.7653,0.2408,0.0061,0.5931,-0.1493,0.0435,167
13,-0.7775,0.2275,0.0,0.569,-0.1286,0.0621,167
13,-0.7643,0.1703,-0.0092,0.4666,-0.1047,0.0589,167
13,-0.7653,0.2306,0.0755,0.4927,-0.0784,0.0686,167
13,-0.7622,0.1469,0.049,0.4426,-0.0469,0.073,167
13,-0.754,0.0786,0.0316,0.4426,-0.0469,0.073,167
13,-0.7622,0.1153,0.0591,0.363,-0.0065,0.0599,167
13,-0.7622,0.1153,0.0591,0.4502,0.0425,0.0577,167
13,-0.7693,0.0112,0.0122,0.4437,0.0915,0.0446,167
13,-0.7857,-0.0316,0.0102,0.3958,0.1449,0.0217,167
13,-0.8296,-0.0031,0.0204,0.5167,0.1962,0.024,167
13,-0.9122,-0.0734,-0.0204,0.5789,0.2507,0.0196,167
13,-0.9459,-0.0612,-0.0255,0.6203,0.2888,0.0206,167
13,-1.004,-0.0071,-0.0357,0.7653,0.3151,0.0446,167
13,-1.0347,0.0112,-0.0551,0.7653,0.3151,0.0446,167
13,-1.1326,0.1082,-0.052,0.8634,0.3302,0.0698,167
13,-1.2194,0.1837,-0.0418,0.9246,0.3325,0.0948,167
13,-1.2194,0.1837,-0.0418,1.0324,0.3302,0.1253,167
13,-1.3316,0.2224,-0.0438,1.0662,0.3085,0.1428,167
13,-1.453,0.301,-0.0112,1.0967,0.2659,0.1515,167
13,-1.5602,0.4642,-0.001,1.1447,0.2016,0.1732,167
13,-1.4888,0.5765,-0.0071,1.1579,0.1341,0.2125,167
13,-1.4,0.6796,-0.0163,1.1709,0.1035,0.242,167
14,-1.2867,0.7388,-0.0132,1.1131,0.1242,0.2071,167
14,-1.1877,0.7938,0.0388,1.1131,0.1242,0.2071,167
14,-1.201,0.7959,0.0775,0.9452,0.1852,0.1406,167
14,-1.2326,0.7347,0.0836,0.7566,0.2594,0.1047,167
14,-1.2326,0.7347,0.0836,0.5299,0.3128,0.024,167
14,-1.2918,0.703,0.1122,0.3761,0.3314,-0.1003,167
14,-1.3806,0.5469,0.1387,0.2758,0.3151,-0.218,167
14,-1.3898,0.4183,0.1143,0.1373,0.2768,-0.314,167
14,-1.3448,0.3643,0.1326,0.0992,0.2159,-0.3422,167
14,-1.2806,0.3326,0.1571,0.1438,0.1503,-0.3063,167
14,-1.1367,0.1326,0.0857,0.1112,0.0751,-0.255,167
14,-1.0418,0.0948,0.1082,0.1308,-0.0021,-0.194,167
14,-0.9663,0.1285,0.1592,0.1308,-0.0021,-0.194,167
14,-0.9663,0.1285,0.1592,0.3031,-0.0664,-0.1089,167
14,-0.9592,0.1837,0.1316,0.4938,-0.1264,-0.0511,167
14,-0.9296,0.3571,0.0948,0.6682,-0.1755,-0.0097,167
14,-0.9173,0.4826,0.0796,0.834,-0.2289,0.0282,167
14,-0.9367,0.5786,0.0693,0.87,-0.2605,0.0621,167
14,-0.9836,0.6234,0.0204,0.7762,-0.2758,0.0959,167
14,-1.0367,0.7449,0.0143,0.6476,-0.2911,0.1167,167
14,-1.0102,0.7418,0.0,0.4643,-0.2987,0.1221,167
14,-0.9785,0.7347,-0.0122,0.2703,-0.2966,0.1417,167
14,-0.9398,0.7163,-0.0214,0.2703,-0.2966,0.1417,167
14,-0.9398,0.7163,-0.0214,0.0872,-0.2922,0.1919,167
14,-0.8541,0.6357,-0.0469,-0.0883,-0.2888,0.2213,167
14,-0.8204,0.6112,-0.0326,-0.2104,-0.2867,0.23,167
14,-0.7755,0.6183,-0.0132,-0.2867,-0.2888,0.242,167
14,-0.7673,0.5867,0.0081,-0.4492,-0.2802,0.2398,167
14,-0.7388,0.4326,0.0,-0.6291,-0.2737,0.2344,167
14,-0.7112,0.4183,0.0449,-0.6715,-0.2638,0.2453,167
14,-0.7153,0.4102,0.0581,-0.6596,-0.2278,0.2605,167
14,-0.7133,0.3653,0.052,-0.6966,-0.1907,0.2485,167
14,-0.6877,0.3204,0.0847,-0.7217,-0.1722,0.2495,167
14,-0.6867,0.2908,0.0704,-0.7217,-0.1722,0.2495,167
14,-0.6867,0.2908,0.0704,-0.7098,-0.1591,0.2518,167
14,-0.6755,0.2234,0.0459,-0.7283,-0.1286,0.2245,167
14,-0.6806,0.2224,0.0377,-0.6606,-0.1112,0.2147,167
14,-0.6683,0.249,0.0398,-0.5635,-0.1013,0.2027,167
14,-0.6755,0.2551,0.0388,-0.5265,-0.0959,0.1776,167
14,-0.6969,0.2673,0.0234,-0.4938,-0.0883,0.1701,167
14,-0.7133,0.2816,0.0051,-0.4677,-0.0872,0.1623,167
14,-0.7857,0.3806,-0.0122,-0.4164,-0.0948,0.1329,167
14,-0.8081,0.3969,-0.0265,-0.4481,-0.0894,0.1079,167
14,-0.8234,0.4571,-0.0112,-0.4731,-0.0925,0.0828,167
14,-0.8469,0.4387,-0.0479,-0.4731,-0.0925,0.0828,167
14,-0.852,0.4224,-0.0684,-0.5331,-0.0959,0.0555,167
14,-0.8602,0.4449,-0.0673,-0.6159,-0.0969,0.0217,167
14,-0.8602,0.4449,-0.0673,-0.6432,-0.0992,-0.0053,167
14,-0.8377,0.403,-0.0867,-0.7031,-0.1123,-0.0261,167
14,-0.8306,0.3612,-0.102,-0.8012,-0.1274,-0.0555,167
14,-0.8071,0.3439,-0.0989,-0.8416,-0.1362,-0.0818,167
14,-0.7938,0.3245,-0.0939,-0.846,-0.1449,-0.11,167
14,-0.7673,0.2693,-0.102,-0.8634,-0.1417,-0.1482,167
14,-0.7551,0.2602,-0.0796,-0.858,-0.1438,-0.1896,167
14,-0.7612,0.2418,-0.0724,-0.8439,-0.1438,-0.2159,167
14,-0.7653,0.2112,-0.0541,-0.8439,-0.1438,-0.2159,167
14,-0.7653,0.2112,-0.0541,-0.8405,-0.1461,-0.2398,167
14,-0.8265,0.1735,-0.0132,-0.8144,-0.1406,-0.2539,167
14,-0.8887,0.1683,0.001,-0.7359,-0.1286,-0.2617,167
14,-0.949,0.1581,0.001,-0.6629,-0.1133,-0.2682,168
14,-1.0193,0.1918,0.0081,-0.557,-0.0904,-0.2617,168
14,-1.1132,0.2908,0.0193,-0.4524,-0.0795,-0.2474,168
14,-1.1337,0.2949,0.004,-0.4328,-0.0719,-0.2354,168
14,-1.1326,0.2836,-0.0234,-0.4721,-0.073,-0.2268,168
14,-1.1153,0.2418,-0.0673,-0.5036,-0.0774,-0.2289,168
14,-1.0388,0.203,-0.1102,-0.5036,-0.0774,-0.2289,168
14,-1.0388,0.203,-0.1102,-0.5015,-0.0894,-0.2398,168
14,-0.9816,0.1785,-0.1122,-0.4818,-0.098,-0.2605,168
14,-0.9316,0.1551,-0.0887,-0.4622,-0.0992,-0.2888,168
14,-0.9122,0.1326,-0.0755,-0.4229,-0.0872,-0.3085,168
14,-0.8796,0.1703,0.001,-0.3575,-0.0479,-0.3193,168
14,-0.8582,0.1796,0.0745,-0.3117,-0.0076,-0.314,168
14,-0.9398,0.1449,0.05,-0.3281,0.0523,-0.2867,168
14,-0.9847,0.1316,0.0551,-0.3041,0.1144,-0.2398,168
14,-1.1204,0.2326,0.1132,-0.2039,0.1602,-0.1744,168
14,-1.1979,0.2836,0.1326,-0.2039,0.1602,-0.1744,168
14,-1.299,0.2918,0.0918,-0.098,0.1852,-0.0969,168
14,-1.299,0.2918,0.0918,-0.1079,0.194,-0.0381,168
14,-1.3673,0.3694,0.0948,-0.0818,0.1962,0.0,168
14,-1.4877,0.5541,0.1735,-0.0446,0.1886,0.0087,168
14,-1.5265,0.5469,0.1714,-0.1373,0.1896,-0.0217,168
14,-1.5796,0.499,0.2133,-0.2682,0.181,-0.0818,168
14,-1.6,0.3826,0.153,-0.4328,0.157,-0.1515,168
14,-1.4734,0.3,0.1,-0.4742,0.0904,-0.2049,168
14,-1.3857,0.2449,0.1571,-0.4372,0.0621,-0.2333,168
14,-1.3173,0.1224,0.1969,-0.4372,0.0621,-0.2333,168
14,-1.2142,0.0316,0.254,-0.5244,0.024,-0.2474,168
14,-1.2142,0.0316,0.254,-0.5789,-0.0228,-0.2213,168
14,-1.0153,-0.052,0.3275,-0.4992,-0.0337,-0.1711,168
14,-0.9398,-0.0306,0.3877,-0.3172,-0.0228,-0.0904,168
14,-0.9163,-0.052,0.3898,-0.1951,0.0021,-0.0511,168
14,-0.8846,-0.0234,0.4051,-0.0664,0.0032,-0.0174,168
14,-0.8479,0.0622,0.4235,0.0501,-0.0065,0.0065,168
14,-0.8326,0.0745,0.3622,0.0599,-0.0174,0.0162,168
14,-0.8234,0.1449,0.3347,0.11,-0.025,0.0228,168
14,-0.8143,0.2377,0.3479,0.1678,-0.024,0.0337,168
14,-0.8826,0.1949,0.2632,0.1678,-0.024,0.0337,168
14,-0.9214,0.1337,0.2275,0.0872,-0.0097,0.0217,168
14,-0.9214,0.1337,0.2275,0.0053,0.0152,0.0032,168
14,-0.9826,0.1479,0.2101,0.0654,0.0392,0.0032,168
14,-0.9857,0.1877,0.1612,0.0992,0.0294,0.0087,168
14,-1.0214,0.1326,0.102,0.0555,0.0337,0.0305,168
14,-1.0153,0.1041,0.0786,0.0261,0.0305,0.0511,168
14,-1.0051,0.1112,0.0867,0.0545,0.0087,0.074,168
14,-0.9561,0.0112,0.0643,0.0435,-0.0196,0.1003,168
14,-0.9326,0.0051,0.0652,0.0435,-0.0196,0.1003,168
14,-0.8979,0.049,0.103,0.0511,-0.0457,0.1221,168
14,-0.8734,0.0418,0.1091,0.1635,-0.061,0.1515,168
14,-0.8734,0.0418,0.1091,0.1951,-0.085,0.1755,168
14,-0.8367,0.0061,0.0898,0.1852,-0.0992,0.1875,168
14,-0.8204,0.0571,0.0979,0.2737,-0.1068,0.2005,168
15,-0.7949,0.0918,0.1122,0.3554,-0.1177,0.1907,168
15,-0.7795,0.102,0.1204,0.3663,-0.1352,0.1732,168
15,-0.7531,0.0918,0.1173,0.3706,-0.1558,0.1503,168
15,-0.7418,0.1061,0.1275,0.4044,-0.1798,0.1188,168
15,-0.7377,0.1265,0.1367,0.4633,-0.1951,0.0872,168
15,-0.7377,0.1265,0.1367,0.4633,-0.1951,0.0872,168
15,-0.7622,0.1418,0.1326,0.507,-0.2071,0.0545,168
15,-0.7949,0.1642,0.1112,0.5299,-0.2201,0.0272,168
15,-0.8091,0.1959,0.1071,0.5679,-0.2409,0.0108,168
15,-0.8367,0.199,0.0836,0.5789,-0.2627,0.0021,168
15,-0.8571,0.1949,0.0428,0.5669,-0.2791,-0.0053,168
15,-0.8826,0.2602,0.0428,0.5908,-0.3008,0.0,168
15,-0.901,0.2479,0.0102,0.5625,-0.3205,0.012,168
15,-0.8887,0.2316,0.002,0.496,-0.3401,0.0228,168
15,-0.8694,0.251,0.0214,0.4763,-0.3597,0.0425,168
15,-0.8296,0.2388,0.0183,0.4763,-0.3597,0.0425,168
15,-0.8296,0.2388,0.0183,0.4382,-0.3717,0.0708,168
15,-0.8132,0.2112,-0.002,0.3706,-0.3597,0.0828,168
15,-0.7898,0.2357,0.0224,0.3685,-0.351,0.0992,168
15,-0.7969,0.249,0.0438,0.351,-0.3292,0.1123,168
15,-0.8479,0.1744,0.002,0.2758,-0.3096,0.1144,168
15,-0.853,0.2092,0.0347,0.2867,-0.2954,0.1123,168
15,-0.85,0.2428,0.0847,0.3227,-0.2823,0.1144,168
15,-0.8336,0.1908,0.1071,0.2321,-0.267,0.1112,168
15,-0.8041,0.0765,0.101,0.1744,-0.2464,0.11,168
15,-0.7949,0.0867,0.101,0.1744,-0.2464,0.11,168
15,-0.7938,0.101,0.0857,0.2485,-0.2093,0.1079,168
15,-0.7938,0.101,0.0857,0.3412,-0.1591,0.1003,168
15,-0.8041,0.1102,0.0755,0.4023,-0.1024,0.0839,168
15,-0.8806,0.1632,0.0326,0.4426,-0.0589,0.0795,168
15,-0.8939,0.202,0.0673,0.4578,-0.0305,0.0795,168
15,-0.9296,0.2153,0.0775,0.4437,-0.0053,0.0894,168
15,-0.9694,0.2183,0.0663,0.4153,0.0282,0.0992,168
15,-1.0193,0.2581,0.051,0.4361,0.0555,0.11,168
15,-1.0102,0.3091,0.1143,0.4698,0.0795,0.1242,168
15,-1.101,0.3591,0.1071,0.4698,0.0795,0.1242,168
15,-1.2092,0.3704,0.0928,0.4687,0.098,0.1341,168
15,-1.2092,0.3704,0.0928,0.3924,0.1133,0.1308,168
15,-1.5724,0.4663,0.1561,0.3575,0.1089,0.1133,168
15,-1.7908,0.5541,0.2163,0.4393,0.0501,0.1079,168
15,-1.6796,0.3632,0.0275,0.2201,-0.2005,0.2027,168
15,-1.2826,0.6224,0.1306,0.375,-0.2081,0.3248,168
15,-1.1489,0.6265,0.2214,0.3838,-0.1428,0.3859,168
15,-1.153,0.4296,0.1877,0.0337,-0.074,0.3434,168
15,-1.1132,0.3785,0.2173,0.0087,-0.0425,0.2737,168
15,-1.1316,0.5551,0.3591,0.1886,-0.0053,0.1919,168
15,-1.1806,0.4,0.3357,0.0708,0.0349,0.0751,168
15,-1.204,0.2367,0.3061,0.0708,0.0349,0.0751,168
15,-1.204,0.2367,0.3061,-0.0392,0.037,-0.0162,168
15,-1.1877,0.2153,0.3112,0.0621,-0.0076,-0.0261,168
15,-1.0786,0.1377,0.301,0.1417,-0.0566,0.0053,168
15,-0.9836,0.0989,0.2795,0.2256,-0.1144,0.0589,168
15,-0.8969,0.1449,0.2918,0.4,-0.1623,0.1253,168
15,-0.8184,0.2133,0.35,0.5461,-0.1995,0.1657,168
15,-0.7673,0.3132,0.3357,0.6192,-0.2191,0.1831,168
15,-0.7826,0.3989,0.2765,0.7108,-0.2125,0.1744,168
15,-0.7857,0.5122,0.2826,0.81,-0.1755,0.1493,168
15,-0.8582,0.6826,0.2255,0.8035,-0.1396,0.1177,168
15,-0.8714,0.6612,0.1775,0.8035,-0.1396,0.1177,168
15,-0.8714,0.6612,0.1775,0.6301,-0.1274,0.0839,168
15,-0.8959,0.6245,0.1357,0.4044,-0.1155,0.0621,168
15,-0.9,0.6255,0.101,0.2976,-0.1079,0.073,169
15,-0.8184,0.5652,0.1,0.1831,-0.1035,0.0818,169
15,-0.7938,0.5051,0.0714,0.0261,-0.1188,0.0948,169
15,-0.7479,0.502,0.105,-0.0446,-0.1274,0.1068,169
15,-0.6979,0.4775,0.153,-0.098,-0.1188,0.1167,169
15,-0.6622,0.3571,0.1469,-0.1886,-0.0948,0.1221,169
15,-0.6592,0.3306,0.1489,-0.2125,-0.0675,0.1308,169
15,-0.65,0.3214,0.1612,-0.2125,-0.0675,0.1308,169
15,-0.6489,0.3071,0.1622,-0.1907,-0.0414,0.1396,169
15,-0.6489,0.3071,0.1622,-0.181,-0.0053,0.1406,169
15,-0.6561,0.2643,0.1479,-0.2016,0.012,0.1406,169
15,-0.653,0.2357,0.1346,-0.2201,0.012,0.1461,169
15,-0.6694,0.2214,0.1326,-0.194,0.0141,0.1515,169
15,-0.6724,0.2306,0.1418,-0.1286,0.0141,0.1558,169
15,-0.6949,0.2367,0.1428,-0.0806,0.0053,0.1602,169
15,-0.7204,0.251,0.1387,-0.0446,-0.0162,0.1646,169
15,-0.7469,0.2653,0.1091,0.0053,-0.0294,0.1722,169
15,-0.7673,0.2816,0.0887,0.0053,-0.0294,0.1722,169
15,-0.7734,0.3918,0.1163,0.0675,-0.0282,0.169,169
15,-0.7734,0.3918,0.1163,0.1396,-0.0337,0.1711,169
15,-0.8041,0.4122,0.0847,0.1232,-0.0435,0.1701,169
15,-0.8112,0.402,0.0561,0.0643,-0.0457,0.1623,169
15,-0.7938,0.4153,0.0796,0.0555,-0.0446,0.1537,169
15,-0.8326,0.4765,0.0336,0.0511,-0.0511,0.1438,169
15,-0.8448,0.4775,0.0031,0.0011,-0.0501,0.1188,169
15,-0.8336,0.5051,0.0224,-0.0294,-0.0621,0.0894,169
15,-0.8316,0.5541,0.0428,-0.0294,-0.0621,0.0894,169
15,-0.852,0.5173,0.0163,-0.0654,-0.0751,0.0589,169
15,-0.8448,0.5081,0.0316,-0.1864,-0.0883,0.0152,169
15,-0.8448,0.5081,0.0316,-0.2791,-0.0992,-0.0326,169
15,-0.8265,0.5255,0.0418,-0.2987,-0.1155,-0.0751,169
15,-0.8051,0.5112,0.051,-0.3619,-0.1253,-0.1232,169
15,-0.7296,0.4398,0.0724,-0.4099,-0.1297,-0.1701,169
15,-0.6785,0.4459,0.1204,-0.3935,-0.1221,-0.2136,169
15,-0.652,0.4102,0.1337,-0.4088,-0.086,-0.2693,169
15,-0.651,0.355,0.0969,-0.3979,-0.024,-0.3412,169
15,-0.6449,0.4194,0.1357,-0.2867,0.0414,-0.412,169
15,-0.6775,0.4173,0.1204,-0.2867,0.0414,-0.412,169
15,-0.6775,0.4173,0.1204,-0.2539,0.1089,-0.4884,169
15,-0.7388,0.3612,0.0357,-0.3237,0.181,-0.5679,169
15,-0.7918,0.3336,-0.0204,-0.3237,0.2474,-0.6323,169
15,-0.8143,0.3683,-0.0122,-0.3041,0.3052,-0.6672,169
15,-0.8541,0.2877,-0.0581,-0.4055,0.3445,-0.6759,169
15,-0.8949,0.1887,-0.0979,-0.5091,0.3685,-0.653,169
15,-0.9408,0.1642,-0.0959,-0.4404,0.3729,-0.5843,169
15,-1.0806,0.2622,-0.0255,-0.3193,0.3729,-0.4992,169
15,-1.1306,0.2745,0.0286,-0.2779,0.3729,-0.3935,169
15,-1.2306,0.3234,0.0551,-0.2779,0.3729,-0.3935,169
16,-1.2306,0.3234,0.0551,-0.2376,0.3695,-0.2649,169
16,-1.3184,0.3877,0.0979,-0.2278,0.3586,-0.1493,169
16,-1.5081,0.4,0.1194,-0.2856,0.3575,-0.0664,169
16,-1.5714,0.4847,0.1959,-0.2365,0.3477,-0.0021,169
16,-1.6163,0.5775,0.2745,-0.2365,0.3227,0.0282,169
16,-1.6398,0.5622,0.2775,-0.4273,0.2758,0.0108,169
16,-1.5918,0.3796,0.2265,-0.5669,0.2224,-0.0435,169
16,-1.5887,0.299,0.2734,-0.5156,0.1896,-0.1177,169
16,-1.501,0.2101,0.204,-0.4786,0.1503,-0.1864,169
16,-1.2755,0.3591,0.2459,-0.4786,0.1503,-0.1864,169
16,-1.1714,0.3234,0.2663,-0.3227,0.1188,-0.206,169
16,-1.1714,0.3234,0.2663,-0.3031,0.1384,-0.2213,169
16,-1.0591,0.2306,0.2949,-0.4426,0.1776,-0.2464,169
16,-0.9592,0.2428,0.3846,-0.3958,0.2125,-0.2333,169
16,-0.9296,0.1949,0.35,-0.3826,0.2605,-0.2201,169
16,-0.9203,0.203,0.3489,-0.3674,0.2779,-0.2268,169
16,-0.9122,0.2795,0.4244,-0.2682,0.2617,-0.2256,169
16,-0.9092,0.3469,0.4612,-0.3031,0.2159,-0.2321,169
16,-0.9112,0.1724,0.3724,-0.4797,0.1711,-0.2474,169
16,-0.8949,0.1204,0.3745,-0.5233,0.1308,-0.2485,169
16,-0.9275,0.0989,0.3602,-0.5233,0.1308,-0.2485,169
16,-0.9714,0.0336,0.3041,-0.4589,0.1003,-0.2268,169
16,-0.9714,0.0336,0.3041,-0.4426,0.1024,-0.2104,169
16,-0.9377,0.0857,0.2296,-0.3565,0.1112,-0.1766,169
16,-0.9377,0.249,0.2336,-0.2125,0.1406,-0.1242,169
16,-0.9918,0.204,0.1918,-0.3183,0.1657,-0.1112,169
16,-1.0214,0.0408,0.15,-0.4895,0.1776,-0.1188,169
16,-1.0551,0.053,0.1357,-0.3619,0.1613,-0.0883,169
16,-1.0326,0.0571,0.1326,-0.242,0.1167,-0.0643,169
16,-1.0326,-0.0591,0.0561,-0.3041,0.0818,-0.0469,169
16,-1.0275,-0.1214,0.0122,-0.3041,0.0818,-0.0469,169
16,-0.9357,-0.0418,0.0663,-0.2234,0.0217,0.0032,169
16,-0.9357,-0.0418,0.0663,-0.0686,-0.0206,0.0511,169
16,-0.8939,-0.0908,0.0693,-0.0577,-0.0654,0.0818,169
16,-0.8582,-0.1224,0.0581,-0.037,-0.098,0.1308,169
16,-0.8224,-0.1041,0.105,0.085,-0.1188,0.1842,169
16,-0.7693,-0.0724,0.1418,0.1852,-0.1362,0.2093,169
16,-0.7551,-0.0632,0.1306,0.2649,-0.1503,0.2104,169
16,-0.7194,-0.0214,0.1571,0.3674,-0.1701,0.2039,169
16,-0.6979,0.0541,0.1928,0.3674,-0.1701,0.2039,169
16,-0.6979,0.0541,0.1928,0.4687,-0.1744,0.1995,169
16,-0.7653,0.1816,0.1775,0.5593,-0.1722,0.1515,169
16,-0.7949,0.1806,0.1173,0.5593,-0.1722,0.1515,169
16,-0.7949,0.1806,0.1173,0.5647,-0.169,0.1155,169
16,-0.7959,0.3041,0.1204,0.6301,-0.1787,0.085,169
16,-0.8184,0.3602,0.1082,0.6301,-0.1875,0.074,169
16,-0.8255,0.3265,0.0775,0.4601,-0.2039,0.0414,169
16,-0.8367,0.2806,0.0449,0.3609,-0.2289,0.0196,169
16,-0.8428,0.3152,0.0765,0.3554,-0.2464,0.0196,169
16,-0.8479,0.2795,0.0734,0.2779,-0.2518,0.0141,169
16,-0.8632,0.2336,0.0316,0.1842,-0.2682,0.024,169
16,-0.8571,0.1857,0.0061,0.1482,-0.2844,0.0392,169
16,-0.8122,0.1694,0.0398,0.1482,-0.2844,0.0392,169
16,-0.8132,0.1387,0.0388,0.169,-0.2867,0.0589,169
16,-0.8132,0.1387,0.0388,0.1657,-0.2823,0.0818,169
16,-0.8081,0.0959,0.0347,0.1318,-0.2583,0.1035,169
16,-0.8224,0.0918,0.0398,0.1907,-0.23,0.1242,169
16,-0.799,0.1224,0.1285,0.2169,-0.1972,0.1406,169
16,-0.8336,0.0847,0.0887,0.1984,-0.1471,0.1482,169
16,-0.8245,0.0786,0.101,0.2442,-0.1024,0.1526,169
16,-0.8143,0.1061,0.1173,0.314,-0.049,0.1438,169
16,-0.8622,0.0836,0.0561,0.3117,0.0011,0.1297,169
16,-0.8724,0.0786,0.0204,0.3117,0.0011,0.1297,169
16,-0.9071,0.1724,0.0479,0.3248,0.0457,0.1003,169
16,-0.9071,0.1724,0.0479,0.4513,0.0828,0.0872,169
16,-0.9387,0.2071,0.0398,0.4273,0.1089,0.0643,169
16,-0.9755,0.1837,0.0347,0.3979,0.1297,0.0501,169
16,-0.9867,0.2418,0.0857,0.4557,0.1362,0.0589,169
16,-1.0306,0.2622,0.1041,0.4404,0.1537,0.0555,169
16,-1.2285,0.2918,0.151,0.424,0.1667,0.0479,169
16,-1.4061,0.3694,0.1949,0.4775,0.1591,0.0469,169
16,-1.5806,0.4194,0.2214,0.507,0.1123,0.0392,169
16,-1.6541,0.4071,0.1581,0.507,0.1123,0.0392,169
16,-1.4816,0.4612,-0.0581,0.4884,0.0152,0.0631,169
16,-1.4816,0.4612,-0.0581,0.52,-0.0643,0.1373,169
16,-1.3724,0.6377,0.0,0.6333,-0.0621,0.2147,169
16,-1.3163,0.7561,0.101,0.5963,-0.0316,0.1962,169
16,-1.252,0.7602,0.1806,0.338,-0.0131,0.1112,169
16,-1.2602,0.6765,0.2898,0.0795,0.0021,0.0621,169
16,-1.2918,0.5632,0.2081,-0.086,0.0011,-0.0566,169
16,-1.3081,0.452,0.1847,-0.1384,0.0087,-0.1766,169
16,-1.3071,0.3541,0.2388,-0.1417,-0.0021,-0.2365,169
16,-1.3439,0.1796,0.2285,-0.1417,-0.0021,-0.2365,169
16,-1.3439,0.1796,0.2285,-0.1657,-0.0381,-0.2213,169
16,-1.25,0.0939,0.2714,-0.1461,-0.1013,-0.1613,169
16,-1.1489,0.0245,0.2857,-0.0228,-0.1581,-0.0937,169
16,-1.0734,-0.002,0.249,0.1667,-0.2081,-0.0174,169
16,-0.8479,0.0367,0.3112,0.3663,-0.2507,0.0457,169
16,-0.7786,0.1041,0.3582,0.5494,-0.2617,0.0937,169
16,-0.7418,0.1877,0.3816,0.7064,-0.2693,0.1221,169
16,-0.7224,0.2612,0.3428,0.8144,-0.2583,0.1144,169
16,-0.7745,0.501,0.2714,0.954,-0.2289,0.0992,169
16,-0.8439,0.6581,0.2316,1.04,-0.1951,0.0774,169
16,-0.8439,0.6581,0.2316,1.04,-0.1951,0.0774,169
16,-0.9081,0.7734,0.203,0.9332,-0.1766,0.0272,169
16,-0.9275,0.7918,0.1755,0.689,-0.181,-0.049,169
16,-0.9796,0.8152,0.0928,0.4884,-0.1852,-0.086,169
16,-0.9296,0.7643,0.0591,0.2507,-0.1972,-0.1068,169
16,-0.9102,0.6959,0.0357,0.0065,-0.2093,-0.0828,169
16,-0.8612,0.6224,0.05,-0.1798,-0.2213,-0.0523,169
16,-0.7673,0.45,0.0673,-0.3281,-0.2376,-0.0545,169
16,-0.7245,0.3745,0.0714,-0.4065,-0.242,-0.0545,169
16,-0.6806,0.3152,0.0989,-0.4208,-0.2365,-0.0446,169
16,-0.6551,0.2816,0.1224,-0.4208,-0.2365,-0.0446,169
16,-0.6551,0.2816,0.1224,-0.412,-0.2169,-0.0282,169
16,-0.6489,0.1735,0.0939,-0.4263,-0.193,-0.0076,169
16,-0.6449,0.1224,0.0939,-0.412,-0.1744,0.024,169
16,-0.6551,0.1337,0.1163,-0.3292,-0.1558,0.0643,169
16,-0.6673,0.1346,0.1245,-0.2922,-0.1623,0.0589,169
16,-0.6898,0.0724,0.1194,-0.2737,-0.1766,0.0555,169
16,-0.6928,0.0775,0.1275,-0.1711,-0.1972,0.061,169
17,-0.7245,0.0857,0.1102,-0.0457,-0.2234,0.049,169
17,-0.6928,0.1285,0.1183,0.0795,-0.2398,0.0414,169
17,-0.702,0.2112,0.1214,0.0795,-0.2398,0.0414,169
17,-0.6959,0.2479,0.105,0.1623,-0.2495,0.0425,169
17,-0.6959,0.2479,0.105,0.2147,-0.2539,0.0402,169
17,-0.7061,0.2969,0.0989,0.2495,-0.2495,0.0294,169
17,-0.6928,0.352,0.0908,0.2495,-0.2485,0.0196,169
17,-0.703,0.4,0.0622,0.2104,-0.2354,0.0174,169
17,-0.6938,0.4203,0.0673,0.1657,-0.2201,0.0162,169
17,-0.7245,0.4306,0.0541,0.0894,-0.2081,0.0174,169
17,-0.7397,0.4122,0.0051,0.0228,-0.206,0.0206,169
17,-0.7714,0.4826,-0.0031,0.0162,-0.2049,0.0217,169
17,-0.7643,0.5265,0.0357,0.0162,-0.2049,0.0217,169
17,-0.7449,0.5102,0.0684,-0.0282,-0.218,0.0141,169
17,-0.7449,0.5102,0.0684,-0.1864,-0.2333,-0.0087,169
17,-0.7388,0.4428,0.052,-0.3172,-0.2409,-0.036,169
17,-0.7153,0.4163,0.0816,-0.3107,-0.2409,-0.0631,169
17,-0.701,0.4347,0.105,-0.2867,-0.218,-0.1057,169
17,-0.6979,0.4132,0.1122,-0.3281,-0.1744,-0.1635,169
17,-0.6969,0.3673,0.1296,-0.3575,-0.1144,-0.2136,169
17,-0.7285,0.3561,0.1255,-0.3532,-0.0217,-0.2693,169
17,-0.7836,0.3387,0.103,-0.3521,0.0774,-0.3161,169
17,-0.8459,0.3173,0.0673,-0.3521,0.0774,-0.3161,169
17,-0.9653,0.3214,-0.0183,-0.3445,0.1646,-0.3434,169
17,-0.9653,0.3214,-0.0183,-0.3422,0.2268,-0.3521,169
17,-1.0163,0.2888,-0.0612,-0.3794,0.2627,-0.339,169
17,-1.0663,0.2857,-0.0806,-0.3685,0.2659,-0.2867,169
17,-1.102,0.3377,-0.0418,-0.3128,0.2495,-0.2071,169
17,-1.1887,0.4,-0.0031,-0.3489,0.2234,-0.1318,169
17,-1.2133,0.4183,0.0449,-0.4077,0.1907,-0.0631,169
17,-1.2643,0.4663,0.1143,-0.4338,0.1755,-0.0032,169
17,-1.3245,0.4918,0.1847,-0.5015,0.1711,0.0337,169
17,-1.3949,0.4592,0.3061,-0.5015,0.1711,0.0337,169
17,-1.3949,0.4592,0.3061,-0.5865,0.157,0.0523,169
17,-1.4051,0.402,0.3387,-0.6705,0.1461,0.0545,169
17,-1.4235,0.3245,0.3459,-0.7392,0.1417,0.037,169
17,-1.4387,0.2479,0.352,-0.7163,0.1515,0.0162,169
17,-1.4418,0.2326,0.3582,-0.6062,0.1766,0.0108,169
17,-1.4203,0.25,0.3265,-0.507,0.1886,0.0108,169
17,-1.3898,0.2602,0.2888,-0.4742,0.1875,0.0076,169
17,-1.2867,0.3275,0.3469,-0.4622,0.1493,-0.024,169
17,-1.2306,0.2683,0.3683,-0.5429,0.1123,-0.0545,169
17,-1.1602,0.2133,0.4102,-0.5843,0.073,-0.086,169
17,-1.1153,0.199,0.4347,-0.5635,0.0305,-0.11,169
17,-1.0173,0.1571,0.451,-0.5679,-0.0043,-0.1362,169
17,-0.9561,0.1306,0.4806,-0.5679,-0.0043,-0.1362,169
17,-0.9296,0.1581,0.5286,-0.5418,-0.0392,-0.1526,169
17,-0.9296,0.1581,0.5286,-0.495,-0.0708,-0.1449,169
17,-0.9275,0.1541,0.5286,-0.5702,-0.0948,-0.1515,169
17,-0.9132,-0.0051,0.5112,-0.6388,-0.0959,-0.1297,169
17,-0.9275,0.001,0.5112,-0.5494,-0.0774,-0.0784,169
17,-0.9796,0.0051,0.4714,-0.4862,-0.0545,-0.037,169
17,-1.0173,-0.0347,0.3887,-0.4393,-0.0206,0.012,169
17,-1.0479,0.0684,0.3377,-0.2976,-0.0032,0.0577,169
17,-1.0684,0.0939,0.2928,-0.2834,-0.0131,0.086,169
17,-1.0786,0.0326,0.2101,-0.3586,-0.037,0.0992,169
17,-1.0643,-0.002,0.1653,-0.3586,-0.037,0.0992,169
17,-0.9857,0.0714,0.199,-0.3117,-0.0774,0.11,169
17,-0.9857,0.0714,0.199,-0.2344,-0.1198,0.1221,169
17,-0.9377,0.0122,0.1744,-0.2922,-0.1623,0.1297,169
17,-0.8387,-0.051,0.1837,-0.2911,-0.206,0.1503,169
17,-0.7888,-0.0438,0.204,-0.2081,-0.2256,0.1896,169
17,-0.7112,-0.0316,0.202,-0.1635,-0.2234,0.2147,169
17,-0.6714,-0.0265,0.2275,-0.1188,-0.218,0.2474,169
17,-0.6551,-0.001,0.2224,-0.0621,-0.2136,0.2856,169
17,-0.6387,0.0224,0.2367,-0.0326,-0.2027,0.3052,169
17,-0.6285,0.0286,0.2428,-0.0326,-0.2027,0.3052,169
17,-0.6408,0.0826,0.2367,0.0011,-0.181,0.3292,169
17,-0.6408,0.0826,0.2367,0.0654,-0.1755,0.3357,169
17,-0.6439,0.0939,0.2418,0.0708,-0.169,0.3292,169
17,-0.6418,0.1082,0.25,0.0883,-0.1623,0.3302,169
17,-0.701,0.1479,0.2173,0.085,-0.1602,0.3248,169
17,-0.704,0.1204,0.1928,0.0381,-0.1623,0.3041,169
17,-0.7142,0.1173,0.1755,0.061,-0.1591,0.2878,169
17,-0.7275,0.1663,0.1898,0.086,-0.1613,0.2737,169
17,-0.7612,0.1265,0.1632,0.012,-0.1646,0.2562,169
17,-0.7938,0.0948,0.1285,0.012,-0.1646,0.2562,169
17,-0.8102,0.1204,0.1316,-0.0162,-0.1678,0.2442,169
17,-0.8102,0.1204,0.1316,0.036,-0.1711,0.2495,169
17,-0.8214,0.0948,0.1387,0.0043,-0.1755,0.2594,169
17,-0.8193,0.0561,0.0989,-0.0392,-0.1787,0.2693,169
17,-0.8102,0.0734,0.1041,0.0217,-0.1798,0.2899,169
17,-0.7479,0.0939,0.1602,0.049,-0.1798,0.3117,169
17,-0.7101,0.0428,0.1683,0.0217,-0.1711,0.3325,169
17,-0.6744,0.0143,0.2061,0.0196,-0.1503,0.3575,169
17,-0.6969,0.004,0.1928,0.1024,-0.1112,0.3761,169
17,-0.6969,0.004,0.1928,0.1024,-0.1112,0.3761,169
17,-0.6847,0.0469,0.2316,0.2201,-0.0664,0.3848,169
17,-0.6703,0.1122,0.3286,0.2725,-0.012,0.3859,169
17,-0.7101,0.103,0.299,0.2737,0.0621,0.3717,169
17,-0.7336,0.1091,0.2867,0.3172,0.157,0.3456,169
17,-0.7867,0.1592,0.2581,0.4132,0.2617,0.3151,169
17,-0.8928,0.2693,0.1969,0.4414,0.3597,0.2747,169
17,-0.9326,0.2847,0.1918,0.4012,0.4513,0.2268,169
17,-1.0265,0.3091,0.1694,0.3586,0.5135,0.1842,169
17,-1.1714,0.3459,0.1765,0.3237,0.5593,0.1297,169
17,-1.7888,0.452,0.3745,0.3237,0.5593,0.1297,169
17,-1.7888,0.452,0.3745,0.3357,0.5484,0.086,169
17,1.9082,0.4428,0.3898,0.3609,0.399,0.1003,169
17,1.9531,0.2673,0.2214,0.3346,0.1242,0.2474,169
17,-1.6775,0.3163,-0.0265,0.5538,-0.0337,0.5353,169
17,-1.3173,0.7979,0.0693,0.702,-0.0065,0.6508,169
17,-1.1337,0.7969,0.2081,0.4437,0.0316,0.5429,169
17,-1.1642,0.8275,0.3622,0.1766,0.1198,0.5189,169
17,-1.1418,0.7816,0.5306,0.0316,0.1591,0.3859,169
17,-1.151,0.6418,0.5275,-0.0206,0.2169,0.1984,169
17,-1.1837,0.5796,0.4796,-0.0206,0.2169,0.1984,169
17,-1.2643,0.5112,0.402,-0.0152,0.2911,0.0414,169
17,-1.2643,0.5112,0.402,-0.0414,0.3193,-0.0414,169
18,-1.2602,0.4153,0.3184,-0.0479,0.2943,-0.049,169
18,-1.2428,0.4826,0.2653,0.0555,0.2224,-0.0087,169
18,-1.1561,0.4877,0.2786,0.0446,0.1221,0.0141,169
18,-1.0652,0.4071,0.2938,-0.0469,-0.012,0.0131,169
18,-0.9642,0.3489,0.3051,-0.0097,-0.1274,-0.0053,169
18,-0.8071,0.3347,0.3704,0.098,-0.1896,-0.0381,169
18,-0.7326,0.3224,0.4153,0.23,-0.1842,-0.0948,169
18,-0.699,0.3663,0.4561,0.23,-0.1842,-0.0948,169
18,-0.6877,0.4235,0.4663,0.3706,-0.1581,-0.1373,169
18,-0.6877,0.4235,0.4663,0.4077,-0.1167,-0.1732,169
18,-0.7275,0.4551,0.3694,0.3804,-0.0534,-0.206,169
18,-0.7449,0.5224,0.3306,0.4307,0.0053,-0.2191,169
18,-0.7612,0.5918,0.3061,0.4109,0.0523,-0.2245,169
18,-0.7795,0.601,0.2408,0.2344,0.0501,-0.2278,169
18,-0.7908,0.4959,0.0908,0.0643,0.0272,-0.2354,169
18,-0.7704,0.5255,0.0979,0.0511,-0.0032,-0.2321,169
18,-0.7561,0.5765,0.1479,-0.0021,-0.0185,-0.2333,169
18,-0.749,0.5255,0.1428,-0.1896,-0.037,-0.2453,169
18,-0.6612,0.4102,0.2142,-0.1896,-0.037,-0.2453,169
18,-0.6642,0.3643,0.2061,-0.2812,-0.0534,-0.2474,169
18,-0.6642,0.3643,0.2061,-0.338,-0.0349,-0.2398,169
18,-0.6724,0.2867,0.1622,-0.3859,0.0011,-0.2354,169
18,-0.6561,0.2418,0.151,-0.3346,0.0294,-0.2115,169
18,-0.6867,0.2449,0.1469,-0.351,0.0479,-0.1787,169
18,-0.6918,0.1561,0.1041,-0.4448,0.0479,-0.1547,169
18,-0.6928,0.0867,0.1041,-0.3848,0.0425,-0.0904,169
18,-0.7397,0.1296,0.1224,-0.2779,0.0272,-0.0305,169
18,-0.803,0.0438,0.0745,-0.3085,-0.0097,0.0,169
18,-0.8193,0.0418,0.0887,-0.3085,-0.0097,0.0,169
18,-0.8428,0.1367,0.1326,-0.2234,-0.0511,0.0654,169
18,-0.8428,0.1367,0.1326,-0.1013,-0.0915,0.1035,169
18,-0.8132,0.0714,0.0867,-0.086,-0.1167,0.1329,169
18,-0.8245,0.0969,0.0948,0.0392,-0.1449,0.1591,169
18,-0.801,0.1703,0.1204,0.1711,-0.1635,0.1896,169
18,-0.7755,0.2183,0.1326,0.169,-0.1766,0.206,169
18,-0.7449,0.203,0.1041,0.1667,-0.1787,0.2159,169
18,-0.7469,0.2408,0.0786,0.2071,-0.182,0.2344,169
18,-0.7388,0.2653,0.0581,0.2573,-0.1755,0.2464,169
18,-0.7388,0.2653,0.0581,0.2573,-0.1755,0.2464,169
18,-0.7296,0.3418,0.0775,0.3151,-0.1787,0.2693,169
18,-0.7531,0.4622,0.0898,0.2617,-0.1798,0.2758,169
18,-0.7786,0.4653,0.0245,0.0555,-0.1984,0.2169,169
18,-0.7786,0.4653,0.0245,0.0806,-0.2016,0.1657,169
18,-0.7265,0.5979,0.1408,0.0937,-0.206,0.11,169
18,-0.7357,0.5928,0.1245,-0.0402,-0.1951,0.0392,169
18,-0.7408,0.5347,0.0755,-0.1896,-0.1657,-0.0349,169
18,-0.7296,0.5081,0.0898,-0.1984,-0.1274,-0.1144,169
18,-0.7898,0.5796,0.1296,-0.193,-0.086,-0.1864,169
18,-0.8612,0.5306,0.1204,-0.3216,-0.049,-0.2464,169
18,-0.9194,0.4571,0.0826,-0.4164,-0.0337,-0.2844,169
18,-0.9592,0.4337,0.0816,-0.3958,-0.0326,-0.2899,169
18,-1.0224,0.4194,0.0622,-0.3958,-0.0326,-0.2899,169
18,-1.0622,0.4244,0.0326,-0.3804,-0.024,-0.2682,169
18,-1.0622,0.4244,0.0326,-0.3815,-0.0261,-0.2365,169
18,-1.0734,0.4132,-0.0092,-0.4088,-0.0349,-0.2147,169
18,-1.0581,0.4122,-0.0183,-0.4,-0.0469,-0.2039,169
18,-1.0214,0.4479,0.0693,-0.4055,-0.036,-0.2125,169
18,-1.0245,0.3979,0.0979,-0.4841,-0.0174,-0.2388,169
18,-1.0326,0.3377,0.1479,-0.5331,-0.0053,-0.2594,169
18,-1.0673,0.2959,0.2071,-0.508,0.0152,-0.2627,169
18,-1.2,0.2092,0.2898,-0.4753,0.0326,-0.2539,169
18,-1.2602,0.1642,0.3102,-0.4753,0.0326,-0.2539,169
18,-1.2786,0.1377,0.3234,-0.4197,0.036,-0.2344,169
18,-1.2786,0.1377,0.3234,-0.3314,0.024,-0.2125,169
18,-1.2979,0.0796,0.2918,-0.2136,0.0162,-0.1842,169
18,-1.2459,0.1489,0.3255,0.0131,0.0185,-0.157,169
18,-1.252,0.2795,0.3857,0.2224,0.0435,-0.1373,169
18,-1.251,0.4102,0.453,0.2911,0.086,-0.1297,169
18,-1.2847,0.5224,0.4877,0.2594,0.1297,-0.1449,169
18,-1.355,0.6744,0.4601,0.2039,0.1667,-0.1711,169
18,-1.3714,0.7347,0.4622,0.1198,0.1886,-0.2027,169
18,-1.4041,0.749,0.4214,0.1198,0.1886,-0.2027,169
18,-1.4061,0.6703,0.3561,-0.0795,0.1613,-0.2495,169
18,-1.4061,0.6703,0.3561,-0.314,0.0839,-0.2856,169
18,-1.2959,0.5031,0.4235,-0.4578,-0.0261,-0.2922,169
18,-1.2265,0.4203,0.4796,-0.5767,-0.1274,-0.2888,169
18,-1.1398,0.3347,0.5224,-0.6367,-0.2125,-0.2888,169
18,-1.0388,0.2714,0.5836,-0.6388,-0.2747,-0.2823,169
18,-0.8234,0.0969,0.6306,-0.64,-0.2954,-0.2562,169
18,-0.7499,0.053,0.6346,-0.5887,-0.2627,-0.2159,169
18,-0.6867,-0.0591,0.5939,-0.5179,-0.2005,-0.1732,169
18,-0.6479,-0.0877,0.5939,-0.5179,-0.2005,-0.1732,169
18,-0.6479,-0.0877,0.5939,-0.3794,-0.1253,-0.1242,169
18,-0.6714,-0.1061,0.4561,-0.2071,-0.0337,-0.1057,169
18,-0.6714,-0.1061,0.4561,-0.0185,0.0349,-0.1155,169
18,-0.6918,-0.0428,0.4071,0.1537,0.0937,-0.1079,169
18,-0.7714,0.0234,0.3704,0.2518,0.1428,-0.0828,169
18,-0.855,0.1285,0.3132,0.2562,0.1537,-0.0631,169
18,-0.8643,0.1346,0.2602,0.231,0.1493,-0.0501,169
18,-0.8612,0.1551,0.2285,0.2529,0.1373,-0.0305,169
18,-0.8224,0.2061,0.199,0.2495,0.1198,-0.0131,169
18,-0.7949,0.2112,0.1898,0.1962,0.098,0.0043,169
18,-0.7949,0.2112,0.1898,0.1962,0.098,0.0043,169
18,-0.7571,0.2051,0.201,0.1438,0.0631,0.0217,169
18,-0.7245,0.204,0.2092,0.1112,0.0425,0.0337,169
18,-0.6775,0.2081,0.2275,0.0872,0.0326,0.0425,169
18,-0.6418,0.1969,0.2551,0.0511,0.0316,0.0523,169
18,-0.6285,0.1775,0.2602,0.0185,0.0457,0.0534,169
18,-0.6194,0.1683,0.2571,0.0152,0.0577,0.0589,169
18,-0.6316,0.1612,0.2724,-0.0011,0.073,0.0643,169
18,-0.6816,0.1245,0.2224,-0.0282,0.0839,0.0643,169
18,-0.7051,0.1214,0.2112,0.012,0.0948,0.0654,169
18,-0.7173,0.1469,0.2428,0.012,0.0948,0.0654,169
18,-0.7173,0.1469,0.2428,0.0316,0.0925,0.0719,169
18,-0.7745,0.0887,0.2051,-0.0282,0.0774,0.0795,169
18,-0.7908,0.0541,0.1857,-0.025,0.0643,0.0883,169
18,-0.799,0.0581,0.1887,0.0392,0.0523,0.0937,169
18,-0.8102,0.0551,0.1898,0.0686,0.0316,0.098,169
18,-0.8275,0.0092,0.1744,0.0948,0.0108,0.1003,169
18,-0.8204,0.0132,0.1755,0.1602,-0.0087,0.1198,169
19,-0.8091,0.0143,0.1724,0.206,-0.0294,0.1373,169
19,-0.7918,0.0,0.1612,0.2388,-0.0414,0.1591,169
19,-0.7449,0.0,0.1561,0.2388,-0.0414,0.1591,169
19,-0.7061,0.0081,0.1806,0.3073,-0.0534,0.1875,169
19,-0.7061,0.0081,0.1806,0.3717,-0.0566,0.2147,169
19,-0.6938,0.0255,0.1938,0.4273,-0.0326,0.2398,169
19,-0.6826,0.051,0.2133,0.4841,0.0108,0.2693,169
19,-0.6571,0.1153,0.2734,0.5244,0.0566,0.2844,169
19,-0.6969,0.151,0.2632,0.5614,0.1221,0.2922,169
19,-0.7316,0.1857,0.2449,0.5887,0.194,0.2791,169
19,-0.7704,0.2336,0.2285,0.6116,0.2539,0.2682,169
19,-0.8571,0.3041,0.1837,0.5593,0.3008,0.2474,169
19,-0.8846,0.2959,0.1592,0.5593,0.3008,0.2474,169
19,-0.9387,0.2734,0.0959,0.4687,0.3466,0.2245,169
19,-0.9387,0.2734,0.0959,0.4132,0.388,0.2104,169
19,-0.9459,0.252,0.0724,0.3761,0.4284,0.182,169
19,-0.9653,0.2531,0.0561,0.388,0.4568,0.1852,169
19,-0.9745,0.2122,0.0204,0.3357,0.4906,0.1907,169
19,-0.9704,0.1459,0.0122,0.3434,0.507,0.2016,169
19,-1.002,0.1847,0.0591,0.4414,0.5145,0.2289,169
19,-1.1898,0.2336,0.1112,0.3979,0.5036,0.2453,169
19,-1.3408,0.2194,0.1326,0.3979,0.5036,0.2453,169
19,-1.4999,0.2938,0.1847,0.4263,0.4557,0.2638,169
19,-1.5877,0.3316,0.1735,0.545,0.3575,0.3161,169
19,-1.5877,0.3316,0.1735,0.5516,0.206,0.4012,169
19,-1.3765,0.3979,-0.0102,0.6323,0.0969,0.5276,169
19,-1.2561,0.5724,0.0245,0.7489,0.0698,0.5898,169
19,-1.1561,0.6785,0.0959,0.6508,0.0904,0.5221,169
19,-1.101,0.7173,0.1449,0.5244,0.1396,0.4546,169
19,-1.1459,0.8826,0.3969,0.3826,0.193,0.3521,169
19,-1.2101,0.8653,0.3949,0.2333,0.231,0.1907,169
19,-1.3081,0.855,0.3582,0.1602,0.2682,0.0381,169
19,-1.4071,0.8214,0.3071,0.1602,0.2682,0.0381,169
19,-1.4071,0.8214,0.3071,0.0392,0.2791,-0.0883,169
19,-1.5265,0.6837,0.1796,-0.0883,0.231,-0.1329,169
19,-1.5295,0.6398,0.1479,-0.1875,0.1449,-0.0904,169
19,-1.5214,0.5816,0.0939,-0.3008,0.0402,-0.0261,169
19,-1.4408,0.5031,0.0826,-0.3422,-0.0664,0.024,169
19,-1.204,0.452,0.2592,-0.375,-0.1646,0.0523,169
19,-1.1143,0.3541,0.2765,-0.4349,-0.2376,0.0501,169
19,-0.9867,0.2673,0.3357,-0.339,-0.2856,0.049,169
19,-0.7888,0.2969,0.453,0.0206,-0.3008,0.0566,169
19,-0.7531,0.2969,0.4306,0.1274,-0.2867,0.0392,169
19,-0.7051,0.3418,0.4163,0.2779,-0.267,0.0326,169
19,-0.6847,0.5143,0.3591,0.2779,-0.267,0.0326,169
19,-0.6949,0.5193,0.2949,0.326,-0.2354,0.0282,169
19,-0.701,0.5673,0.2531,0.2779,-0.193,0.0131,169
19,-0.701,0.5673,0.2531,0.2911,-0.1493,0.0065,169
19,-0.7101,0.6469,0.249,0.2518,-0.1123,-0.0011,169
19,-0.7296,0.6837,0.1785,0.0883,-0.0948,-0.0152,169
19,-0.7336,0.6765,0.1744,-0.0621,-0.0828,-0.0174,169
19,-0.7347,0.6775,0.1735,-0.1787,-0.0818,-0.0152,169
19,-0.7347,0.6755,0.1724,-0.3096,-0.0828,-0.0162,169
19,-0.7306,0.5826,0.1765,-0.4492,-0.0795,-0.025,169
19,-0.7224,0.5326,0.1735,-0.5484,-0.0806,-0.0272,169
19,-0.7163,0.4796,0.1653,-0.5484,-0.0806,-0.0272,169
19,-0.7153,0.4071,0.151,-0.6213,-0.0751,-0.0272,169
19,-0.7153,0.4071,0.151,-0.6715,-0.0523,-0.0261,169
19,-0.702,0.3081,0.1367,-0.6574,-0.0425,-0.0108,169
19,-0.7051,0.2745,0.1265,-0.6552,-0.0337,0.012,169
19,-0.7051,0.2296,0.1132,-0.6552,-0.0337,0.012,169
19,-0.7122,0.1969,0.103,-0.6486,-0.0326,0.036,169
19,-0.7204,0.199,0.1326,-0.5887,-0.0272,0.0686,169
19,-0.7234,0.1724,0.1204,-0.5353,-0.0457,0.1242,169
19,-0.7285,0.1551,0.1173,-0.5353,-0.0457,0.1242,169
19,-0.7326,0.1592,0.1173,-0.4916,-0.061,0.1493,169
19,-0.7316,0.1785,0.1581,-0.4916,-0.061,0.1493,169
19,-0.7316,0.1785,0.1581,-0.3706,-0.0795,0.1864,169
19,-0.7397,0.1683,0.1387,-0.3706,-0.0795,0.1864,169
19,-0.7418,0.1581,0.1367,-0.3412,-0.1035,0.2039,169
19,-0.7214,0.1663,0.1622,-0.2016,-0.1297,0.2224,169
19,-0.7724,0.1867,0.1173,-0.2016,-0.1297,0.2224,169
19,-0.7714,0.1959,0.1041,-0.157,-0.1242,0.2234,169
19,-0.754,0.2775,0.1541,-0.0828,-0.1221,0.2224,169
19,-0.7734,0.3653,0.1755,0.0162,-0.1274,0.2388,169
19,-0.7714,0.3071,0.1071,0.0162,-0.1274,0.2388,169
19,-0.7714,0.3071,0.1071,-0.1112,-0.1221,0.2344,169
19,-0.7602,0.3775,0.15,-0.1112,-0.1221,0.2344,169
19,-0.7704,0.4449,0.1449,-0.0523,-0.1188,0.2278,169
19,-0.7622,0.4235,0.1285,-0.0959,-0.1079,0.2016,169
19,-0.7531,0.4173,0.101,-0.1798,-0.1035,0.1515,169
19,-0.7336,0.4601,0.105,-0.1242,-0.0839,0.0217,169
19,-0.7142,0.4724,0.1234,-0.1242,-0.0839,0.0217,169
19,-0.7051,0.4796,0.1296,-0.1591,-0.0555,-0.0501,169
19,-0.7173,0.4765,0.1112,-0.2016,-0.0282,-0.1155,169
19,-0.6867,0.4571,0.1408,-0.2016,-0.0282,-0.1155,169
19,-0.6867,0.4571,0.1408,-0.2573,0.0108,-0.1864,169
19,-0.7173,0.4459,0.1377,-0.2922,0.0555,-0.2507,169
19,-0.7469,0.4367,0.1214,-0.3096,0.1057,-0.3019,169
19,-0.8224,0.3887,0.1163,-0.339,0.1493,-0.3368,169
19,-0.8663,0.3561,0.1,-0.3771,0.1886,-0.3586,169
19,-0.9337,0.3367,0.0796,-0.4012,0.2169,-0.3619,169
19,-0.9755,0.3347,0.0836,-0.3826,0.2376,-0.3445,169
19,-1.0673,0.3336,0.0428,-0.3717,0.2485,-0.3205,169
19,-1.0908,0.3612,0.0428,-0.3695,0.2464,-0.2867,169
19,-1.1183,0.3806,0.052,-0.3695,0.2464,-0.2867,169
19,-1.1449,0.351,0.0479,-0.3542,0.2398,-0.2539,169
19,-1.1449,0.351,0.0479,-0.3891,0.2354,-0.2278,169
19,-1.2357,0.3459,0.0816,-0.4175,0.2256,-0.2093,169
19,-1.2877,0.3479,0.1337,-0.3903,0.218,-0.1907,169
19,-1.3806,0.3306,0.1673,-0.3914,0.2039,-0.1722,169
19,-1.4857,0.2877,0.2071,-0.4055,0.1755,-0.1493,169
19,-1.5602,0.152,0.1979,-0.4153,0.1144,-0.1232,169
19,-1.5051,0.1459,0.1469,-0.3717,0.0316,-0.1035,169
19,-1.4387,0.1765,0.1735,-0.2169,-0.0621,-0.0904,169
19,-1.3367,0.2173,0.2449,-0.2169,-0.0621,-0.0904,169
19,-1.1959,0.3336,0.4183,-0.073,-0.1253,-0.1089,169
19,-1.1959,0.3336,0.4183,0.0108,-0.1526,-0.1362,169
19,-1.153,0.4092,0.4785,0.0828,-0.1308,-0.1657,169
19,-1.105,0.4683,0.504,0.1264,-0.0698,-0.1995,169
20,-1.0602,0.5286,0.4673,0.1253,0.0162,-0.2464,169
20,-1.0643,0.55,0.451,0.0806,0.0948,-0.2812,169
20,-1.0836,0.5265,0.4306,0.0076,0.1438,-0.3041,169
20,-1.0826,0.4796,0.4142,-0.1047,0.1406,-0.3237,169
20,-1.0326,0.3969,0.4745,-0.181,0.1035,-0.3248,169
20,-0.9938,0.3428,0.5051,-0.181,0.1035,-0.3248,169
20,-0.9428,0.2765,0.5357,-0.2245,0.049,-0.3128,169
20,-0.8867,0.2214,0.5734,-0.2922,-0.012,-0.2922,169
20,-0.8867,0.2214,0.5734,-0.3489,-0.0686,-0.267,169
20,-0.7959,0.1041,0.5551,-0.351,-0.0925,-0.2333,169
20,-0.7561,0.0591,0.5632,-0.3096,-0.0915,-0.1984,169
20,-0.7459,0.049,0.55,-0.2234,-0.0566,-0.157,169
20,-0.7592,0.0275,0.499,-0.1264,-0.0065,-0.1177,169
20,-0.8051,0.0765,0.45,-0.0108,0.0555,-0.1003,169
20,-0.855,0.1326,0.4163,0.1547,0.1286,-0.085,169
20,-0.9163,0.1551,0.3408,0.242,0.1711,-0.0664,169
20,-0.9642,0.1816,0.2877,0.242,0.1711,-0.0664,169
20,-1.0143,0.2602,0.2306,0.2573,0.1864,-0.0457,169
20,-1.0143,0.2602,0.2306,0.2844,0.1886,-0.0185,169
20,-1.0122,0.2683,0.204,0.2779,0.1722,0.0011,169
20,-0.9877,0.2622,0.1979,0.2234,0.1406,0.0185,169
20,-0.9724,0.2602,0.1857,0.1766,0.0969,0.0381,169
20,-0.902,0.2918,0.1908,0.1503,0.0523,0.0589,169
20,-0.8622,0.2643,0.1959,0.1167,0.0152,0.0708,169
20,-0.8316,0.2265,0.1877,0.0435,-0.012,0.0795,169
20,-0.802,0.2245,0.203,0.0228,-0.0316,0.0925,169
20,-0.7428,0.1949,0.1938,0.0228,-0.0316,0.0925,169
20,-0.7428,0.1949,0.1938,0.0206,-0.036,0.1123,169
20,-0.7,0.1694,0.1796,-0.0381,-0.0349,0.1274,169
20,-0.6683,0.2081,0.2163,-0.0326,-0.0305,0.1417,169
20,-0.6887,0.1898,0.2255,-0.0217,-0.0261,0.157,169
20,-0.6714,0.0796,0.2071,-0.1057,-0.0196,0.1526,169
20,-0.6898,0.1296,0.2408,-0.0577,-0.0228,0.1635,169
20,-0.702,0.1255,0.2316,0.0294,-0.0217,0.1864,169
20,-0.7234,0.0388,0.1928,-0.0272,-0.0305,0.1842,169
20,-0.7418,0.0581,0.202,0.0131,-0.036,0.194,169
20,-0.751,0.051,0.1938,0.0131,-0.036,0.194,169
20,-0.751,0.051,0.1938,0.1253,-0.0457,0.2191,169
20,-0.7632,0.0,0.1571,0.1286,-0.0511,0.2234,169
20,-0.7704,-0.0031,0.153,0.1732,-0.0675,0.2409,169
20,-0.7755,0.0398,0.1622,0.2834,-0.0806,0.2693,169
20,-0.7306,0.0479,0.1612,0.363,-0.1057,0.3063,169
20,-0.702,0.103,0.1877,0.4458,-0.11,0.3325,169
20,-0.6581,0.0806,0.1673,0.4414,-0.098,0.3489,169
20,-0.6367,0.1091,0.1959,0.4372,-0.086,0.3565,169
20,-0.65,0.1612,0.2112,0.5112,-0.0577,0.3609,169
20,-0.6642,0.1602,0.2081,0.5255,-0.0141,0.3542,169
20,-0.6612,0.1816,0.251,0.5112,0.0272,0.3412,169
20,-0.6969,0.2071,0.251,0.5505,0.0751,0.3357,169
20,-0.7224,0.1826,0.2397,0.5299,0.1428,0.3227,169
20,-0.7643,0.1663,0.2183,0.5299,0.1428,0.3227,169
20,-0.8591,0.2479,0.2092,0.5059,0.2093,0.3019,169
20,-0.8591,0.2479,0.2092,0.5647,0.2737,0.2779,169
20,-0.8969,0.2285,0.1908,0.5625,0.3302,0.2398,169
20,-0.9367,0.1969,0.1581,0.5036,0.3695,0.194,169
20,-1.0234,0.1928,0.1245,0.5015,0.3979,0.1613,169
20,-1.0908,0.1724,0.0836,0.5385,0.4143,0.1406,169
20,-1.1663,0.153,0.0469,0.5582,0.4175,0.1264,169
20,-1.2112,0.1887,0.0704,0.6291,0.4,0.1373,169
20,-1.3112,0.2306,0.0928,0.7554,0.3641,0.182,169
20,-1.2836,0.2,0.0479,0.7554,0.3641,0.182,169
20,-1.252,0.352,0.0816,0.7806,0.3117,0.2617,169
20,-1.252,0.352,0.0816,0.8439,0.2682,0.3859,169
20,-1.2612,0.6061,0.15,1.0902,0.2638,0.532,169
20,-1.2908,0.8173,0.1592,1.1459,0.255,0.5723,169
20,-1.3745,0.9337,0.1785,1.0345,0.2278,0.5135,169
20,-1.4163,1.0479,0.2255,0.954,0.2039,0.4469,169
20,-1.4408,1.0122,0.203,0.7751,0.1667,0.267,169
20,-1.5234,1.001,0.1755,0.6333,0.1428,0.0948,169
20,-1.4775,1.0622,0.2194,0.6116,0.1242,0.0206,169
20,-1.4612,0.999,0.1622,0.6116,0.1242,0.0206,169
20,-1.3704,0.8428,0.0816,0.4731,0.1003,-0.0337,169
20,-1.3704,0.8428,0.0816,0.0959,0.0349,-0.0326,169
20,-1.1428,0.7173,0.1071,-0.1047,-0.0511,0.012,169
20,-1.0622,0.6918,0.1357,-0.1341,-0.1438,0.073,169
20,-0.9724,0.6296,0.1561,-0.1755,-0.2071,0.1057,169
20,-0.8867,0.6102,0.1877,-0.1919,-0.2583,0.1308,169
20,-0.7194,0.6204,0.2531,-0.1406,-0.2867,0.1646,169
20,-0.6724,0.5836,0.251,-0.1581,-0.2758,0.1755,169
20,-0.6234,0.605,0.2908,-0.1352,-0.2518,0.1776,169
20,-0.6132,0.6928,0.3336,-0.1352,-0.2518,0.1776,169
20,-0.6132,0.6928,0.3336,-0.0131,-0.2159,0.1766,169
20,-0.6398,0.7153,0.2673,0.0032,-0.1907,0.1558,169
20,-0.6398,0.7153,0.2673,-0.0915,-0.1657,0.1035,169
20,-0.6612,0.799,0.249,-0.0599,-0.1329,0.0654,169
20,-0.6887,0.8755,0.2316,-0.0196,-0.0937,0.037,169
20,-0.7449,0.8816,0.1346,-0.1253,-0.0469,-0.0021,169
20,-0.7581,0.8949,0.0989,-0.267,-0.0185,-0.036,169
20,-0.754,0.8918,0.0765,-0.3979,-0.0032,-0.0631,169
20,-0.7571,0.8561,0.0459,-0.5713,0.0141,-0.0904,169
20,-0.7499,0.7673,0.0316,-0.7435,0.0217,-0.1024,169
20,-0.7367,0.7112,0.0286,-0.7435,0.0217,-0.1024,169
20,-0.7367,0.7112,0.0286,-0.895,0.0021,-0.1079,169
20,-0.7194,0.6571,0.0449,-1.015,-0.0174,-0.1286,169
20,-0.702,0.6082,0.0765,-1.0913,-0.0337,-0.1461,169
20,-0.7245,0.4928,0.0643,-1.1579,-0.036,-0.1558,169
20,-0.7326,0.4428,0.0643,-1.2134,-0.0446,-0.1635,169
20,-0.7428,0.4235,0.0836,-1.2167,-0.0545,-0.1635,169
20,-0.7551,0.3816,0.0714,-1.2113,-0.0631,-0.1526,169
20,-0.7531,0.2898,0.0591,-1.2331,-0.0774,-0.1329,169
20,-0.7449,0.2612,0.0571,-1.2276,-0.0883,-0.1003,169
20,-0.7418,0.2438,0.0561,-1.2276,-0.0883,-0.1003,169
20,-0.7418,0.2438,0.0561,-1.185,-0.1024,-0.0675,169
20,-0.7326,0.2133,0.0581,-1.1392,-0.11,-0.0469,169
20,-0.7255,0.1837,0.0806,-1.0749,-0.1242,-0.0381,169
20,-0.7479,0.1796,0.0867,-0.9877,-0.1373,-0.037,169
20,-0.7643,0.1571,0.0898,-0.9212,-0.1547,-0.0534,169
20,-0.7724,0.1357,0.103,-0.8613,-0.1701,-0.0708,169
21,-0.8041,0.1673,0.1357,-0.7457,-0.1886,-0.0664,169
21,-0.8152,0.1561,0.1285,-0.6705,-0.2049,-0.0555,169
21,-0.8122,0.1316,0.1082,-0.64,-0.2224,-0.0414,169
21,-0.8122,0.1387,0.0887,-0.64,-0.2224,-0.0414,169
21,-0.7888,0.1806,0.0867,-0.5679,-0.2388,-0.0174,169
21,-0.7888,0.1806,0.0867,-0.4742,-0.2617,0.0065,169
21,-0.7806,0.1877,0.0714,-0.4273,-0.2758,0.0272,169
21,-0.7786,0.2183,0.0693,-0.3641,-0.2922,0.049,169
21,-0.7786,0.2592,0.0643,-0.3063,-0.3085,0.0686,169
21,-0.7888,0.3347,0.0775,-0.2802,-0.326,0.0828,169
21,-0.7928,0.3663,0.0806,-0.2802,-0.3325,0.0915,169
