,Unnamed: 0,timestamp,node,accx,accy,accz,gyrox,gyroy,gyroz,q0,q1,q2,q3,timestamp.1,node.1,accx.1,accy.1,accz.1,gyrox.1,gyroy.1,gyroz.1,q0.1,q1.1,q2.1,q3.1,timestamp.2,node.2,accx.2,accy.2,accz.2,gyrox.2,gyroy.2,gyroz.2,q0.2,q1.2,q2.2,q3.2,timestamp.3,node.3,accx.3,accy.3,accz.3,gyrox.3,gyroy.3,gyroz.3,q0.3,q1.3,q2.3,q3.3,timestamp.4,node.4,accx.4,accy.4,accz.4,gyrox.4,gyroy.4,gyroz.4,q0.4,q1.4,q2.4,q3.4,timestamp.5,node.5,accx.5,accy.5,accz.5,gyrox.5,gyroy.5,gyroz.5,q0.5,q1.5,q2.5,q3.5,timestamp.6,node.6,accx.6,accy.6,accz.6,gyrox.6,gyroy.6,gyroz.6,q0.6,q1.6,q2.6,q3.6,timestamp.7,node.7,accx.7,accy.7,accz.7,gyrox.7,gyroy.7,gyroz.7,q0.7,q1.7,q2.7,q3.7,timestamp.8,node.8,accx.8,accy.8,accz.8,gyrox.8,gyroy.8,gyroz.8,q0.8,q1.8,q2.8,q3.8
0,0,0.0059999999998581,0.0,-2.8264661097029456e-18,-2.371268973892207e-16,1.0,0.0501347069685376,0.0073552179836701,-0.0410182287518571,0.9999946855080716,0.002506722026402,0.0003729000095959,-0.0020509134253296,0.0059999999998581,1.0,-6.650297448231934e-17,7.062244049353048e-18,1.0000000000000002,-0.0904134009239814,-0.0941924786520488,-0.2507342923331051,0.9998998501997846,-0.0045202173019971,-0.0047658209390269,-0.0125357152475695,0.0059999999998581,2.0,-1.8213544787693126e-17,2.7194950226689088e-17,1.0,0.1475833182614093,0.0930533310668133,-0.3765532261657807,0.9997841044633122,0.0073775727840853,0.0047905645050541,-0.018824621484409,0.006999999999607,3.0,2.967921328551515e-17,5.178913685194306e-17,1.0,0.0356100041393752,0.0125523659762349,-0.0517210256595617,0.9999948712443314,0.0017804910752182,0.0006322195211402,-0.0025860462179614,0.006999999999607,4.0,3.667466934051473e-17,-2.508080584352953e-17,1.0,0.0362656902489991,0.017304461944161,-0.0466745363367948,0.9999952548992458,0.0018132759082322,0.0008694506822506,-0.0023337234163299,0.0349999999998544,5.0,0.0,0.0,1.0,-0.0618427849488158,0.0192965962814408,0.017972037580052,0.9999943475019508,-0.0030921217691297,0.0009676029468052,0.0008986053914333,0.0349999999998544,6.0,1.4878345378410598e-17,1.1003452071244343e-16,1.0,-0.008114475182938,-0.0085621157247807,-0.019707407602411,0.999999340408702,-0.000405723491535,-0.0004285052917752,-0.0009853698923822,0.0,7.0,8.701761691759159e-17,2.1157197475876884e-17,1.0,-6.050272781613317e-05,-0.002812668914052,-0.0493620255362987,0.9999969443575404,-3.0251271470703994e-06,-0.0001406404822972,-0.0024680937352024,0.0,8.0,2.846982334065899e-17,1.0753403671228781e-16,1.0,0.0180689125034745,-0.007363098641476,-0.0321350755976089,0.999998233831057,0.0009034440295361,-0.0003667026697406,-0.0016067522535344
1,1,0.0809999999996762,0.0,-0.0015838662994077,0.0025269242972617,0.9800286251029312,0.0487084879314826,0.0162382136366839,-0.0472106813415306,0.9999778895571912,0.0048212790848567,0.0012344286139966,-0.004410425232185,0.0809999999996762,1.0,0.0119265026947811,-0.0108973977356557,0.9792553320028756,-0.1544271503138564,-0.1966168525256427,-0.5809893925590134,0.9989484975183768,-0.012327792823924,-0.0149704656618387,-0.0415428692766349,0.0809999999996762,2.0,-0.0074188042167077,0.0100884544286023,0.9798837606732932,0.1914311914524913,0.2028033722468301,-0.8565140805989259,0.9978488122728232,0.0166912510153792,0.0153288222999261,-0.0615156662335288,0.0809999999996762,3.0,8.734696933388784e-05,0.0013851656643172,0.9801842039568835,0.0204586290303963,-0.0189910428451207,-0.0266943379721779,0.9999886057168184,0.0026927066260469,-0.0003842341265039,-0.0039230258341684,0.0809999999996762,4.0,0.0001339546558333,0.0013165651779843,0.9790220879593484,0.0176281493428081,-0.0057313220377589,-0.0092028468783992,0.9999926477232988,0.0025795028281271,0.0004880734263666,-0.0027950758194445,0.0760000000000218,5.0,-0.0006771886572202,-0.0012167346104756,0.9798040931596532,-0.0202988231866121,0.0076232700868549,0.0534463230580758,0.9999853441859724,-0.003857706278429,0.0012958963956122,0.0035707377478177,0.0760000000000218,6.0,0.0008705605776748,-0.0010791102755181,0.9800056518435462,-0.0215201968539043,-0.005822876422344,0.0020917720975856,0.9999982327646731,-0.0014965905327047,-0.0007199427841313,-0.0008811167321269,0.0349999999998544,7.0,0.0003384304259608,-0.000939491004907,0.9790097051722718,-0.0280227242438552,-0.0064886289332467,-0.0183665273003352,0.9999931019172954,-0.0014525447340047,-0.0004660470226582,-0.0033865959006157,0.0349999999998544,8.0,0.0002667136754298,0.0009178747435018,0.979673459051418,-0.0054096047390691,-0.0005872183022139,-0.0174332143954307,0.999996685291162,0.0005897164502348,-0.0003721321076227,-0.0024785396691781
2,2,0.1399999999998726,0.0,-0.0019146621239744,0.0070934287399735,0.9798346887805424,0.0644644623175352,0.007717708933703,-0.0470255847293133,0.9999444591481996,0.0079233527202311,0.0015973596217403,-0.006763692979716,0.1399999999998726,1.0,0.0226324983530452,-0.0182654668099615,0.978950020552895,-0.1157229813840012,-0.1567984647096008,-0.7792531967746489,0.9963522527271274,-0.0175732486806199,-0.0228341411216056,-0.0803241645809414,0.1399999999998726,2.0,-0.0308126105168153,0.0307820139950888,0.9783005931959486,0.466241101501574,0.4798991127566333,-0.7034571957877014,0.9937453475238972,0.0407702130507885,0.0390983637050338,-0.0963290815797129,0.1409999999996216,3.0,0.0021785842911771,0.0020572252277054,0.9797657993596474,0.0484128586640809,-0.0343132245000145,0.0592134294703216,0.9999849145575171,0.004940701094993,-0.002197156750186,-0.0009657288957664,0.1409999999996216,4.0,0.0008932226697796,0.0019586057482182,0.9791283705504532,0.0350226788031931,-0.0088214792578512,0.0789751091059402,0.999990626231452,0.0041732316137529,-6.907420376930897e-05,0.0011518749415249,0.1499999999996362,5.0,-0.0007103243936133,-0.0036659789654823,0.979814296710086,-0.0564090530363722,0.0048025533191091,-0.005381032992319,0.9999725179742828,-0.006480709773538,0.0014301894801373,0.0033042782955388,0.1499999999996362,6.0,0.0007502777284142,-0.0020250850346483,0.9803067561299028,-0.027773201785606,-0.0140966369861666,-0.030457177972417,0.9999921106046862,-0.0028384239905813,-0.001394048697402,-0.0024038938960998,0.0760000000000218,7.0,0.0003384304259608,-0.000939491004907,0.9790097051722718,0.0154183357967843,0.0027800963283853,-0.0096345020803172,0.9999923031438028,-0.0005837235534278,-0.0003004520953984,-0.0038681582832798,0.0760000000000218,8.0,0.0002667136754298,0.0009178747435018,0.979673459051418,-0.0151614169359569,0.0056378127838084,-0.0258452693004712,0.9999928718769762,-0.0001793296627061,-6.51112127187258e-05,-0.0037709145627525
3,3,0.2189999999995961,0.0,-0.0012998123571249,0.0114974851320815,0.9793590344319462,0.0520203829481995,-0.0312826131248171,-0.0396680389308808,0.999908498391116,0.0103054065352428,-6.11365102468559e-05,-0.0087629734504674,0.2189999999995961,1.0,0.034570558140834,-0.0203439391015375,0.9793533584215984,0.0211645472457282,-0.2188593554426522,-0.8948684837225375,0.9915297022241156,-0.0157851426554855,-0.0338466248200242,-0.1243948747617648,0.2199999999997999,2.0,-0.101911792241459,0.0938575750231226,0.968534326811865,1.3663447494009366,1.1572656418520475,-0.0458207291251824,0.9844578710424484,0.1145274243025972,0.0904280593960585,-0.0977186537926381,0.2199999999997999,3.0,0.0043571685823541,0.0041144504554109,0.9796188475011058,0.0262543758270298,-0.0285514676513169,0.0536594041760002,0.9999741173837406,0.0059618092056303,-0.0036448206445226,0.0017136732692669,0.2199999999997999,4.0,0.0033049813674517,0.005201292636904,0.9799459289435648,0.0433728483396109,-0.0574199271841069,0.1486842306288733,0.999939117383008,0.0061926562473242,-0.0031448403310307,0.0085745271114632,0.2559999999998581,5.0,-0.0014206487872265,-0.0073319579309646,0.9795775743400428,-0.0406645742247304,-0.0001805950437622,-0.0727760848747389,0.9999650895859032,-0.0082453937889463,0.0013126839184679,-0.0003315895834479,0.2569999999996071,6.0,0.0015595085459986,-0.0033998415334887,0.9796320783899648,-0.0105974203464288,-0.0225414516363494,-0.0930204389194017,0.9999667747402264,-0.0032543475086871,-0.0024747058093821,-0.0070522669460723,0.1499999999996362,7.0,0.0003384304259608,-0.000939491004907,0.9790097051722718,0.0026621754747474,0.0059071846986609,-0.0964847959628864,0.9999621254667233,-0.0004376972130262,5.219256700913587e-06,-0.0086922969336261,0.1499999999996362,8.0,0.0012231331590993,0.0006281986423266,0.9796367231334993,0.0297116370509576,-0.0129943829170413,-0.1027014447171789,0.9999591325101672,0.0013538368740992,-0.0007694879773406,-0.0089055220781821
4,4,0.2779999999997926,0.0,-3.7914716075865965e-05,0.0126839126166156,0.9793610758669188,0.0170529102214677,-0.0024863501146005,-0.1191298898515697,0.9998336050082928,0.010774011335231,-0.0001263538900357,-0.0147196131254684,0.2779999999997926,1.0,0.0592425749786689,-0.0073725584738877,0.9779268698074748,0.2964938967660946,-0.4727779660202041,-0.6219933951389395,0.986320983998663,-0.002213162744619,-0.0586180661546364,-0.154045255541564,0.2779999999997926,2.0,-0.1368540815988255,0.2212274971879385,0.9433760410555816,2.233311026162789,0.6490350797320635,1.4388437120397637,0.9680743049403224,0.2318580641986284,0.0904664003154941,-0.0298296596415886,0.2779999999997926,3.0,0.0058095581098055,0.0054859339405478,0.9795208795954116,0.0022821424132625,-0.035313002515791,-0.1291598084399156,0.9999578903589492,0.0057867053386116,-0.0053043313323763,-0.0047534849657915,0.2779999999997926,4.0,0.0054488307534573,0.0058108491696211,0.9797660660970802,-0.0060836092614593,-0.0198706903293267,-0.1534397601945737,0.9999756775164772,0.0056005805981084,-0.0040589177374896,0.0008961357190767,0.3599999999996726,5.0,-0.0009933734217946,-0.0093758518602226,0.980377532693982,-0.0207029216541635,-0.0051981900870785,-0.0321138111410811,0.9999577412315028,-0.0089362896467529,0.0009583314909874,-0.0019339284613891,0.3599999999996726,6.0,0.002550351972934,-0.0035329770498767,0.97960962315505,-0.0122501497900684,-0.0063095575452757,-0.0212383809805962,0.9999565804591392,-0.0037222284815489,-0.0026712286558268,-0.0081146009800033,0.2569999999996071,7.0,-0.0014879384327144,-0.0015680600044237,0.9795286250166674,0.0124282408936969,0.0027014146964137,-0.1332634914320351,0.9998820788468016,0.0001491850095396,0.0002119830170104,-0.0153545175121888,0.2569999999996071,8.0,0.0010668547017193,0.0036714989740071,0.9787917970213732,0.0278777487378641,-0.0020212665318121,-0.1181983476939188,0.9998859845570038,0.0028028591360436,-0.000845592963594,-0.0148137382072949
5,5,0.3829999999998108,0.0,-0.0019292058989082,0.0130088087178235,0.9799245119193328,-0.0016407676329042,0.0029792071910392,-0.2042362076264362,0.9996363777650044,0.0102827151647424,0.0002300277541648,-0.0249263937410653,0.3829999999998108,1.0,0.0957201260377712,0.0316544737457208,0.9745684438576876,0.7161572103008746,-0.6586422106052905,-0.9804613250121332,0.9749483606945976,0.031558025812414,-0.0937901916592356,-0.1992063877847884,0.3829999999998108,2.0,-0.1297513478821352,0.39437475906215,0.8877111788962896,2.6367019258501565,0.2989129710071437,2.935333965924707,0.925445365886815,0.3611514317013271,0.0431006966285233,0.1061265663669412,0.3840000000000145,3.0,0.0065357528735312,0.0061716756831163,0.9794718956425644,-0.0092528806482203,0.0048743121330013,-0.3112266815489459,0.9997690418960355,0.0051419931283764,-0.0047825389484576,-0.020311329207044,0.3840000000000145,4.0,0.004064249381398,0.0058433332071378,0.9800522115346696,-0.0250208337635912,0.0355813266903012,-0.3843349718587601,0.9998216445299316,0.0041633808483265,-0.0020017405737453,-0.0183122479245516,0.3840000000000145,5.0,-0.0001325429455723,-0.0097969774200268,0.9800918332818608,-0.0007863015515195,-0.0273781538177057,-0.0573132727004909,0.9999515324180792,-0.0085870998171053,-0.0005231472690252,-0.0047875722867451,0.3840000000000145,6.0,0.002550351972934,-0.0035329770498767,0.97960962315505,-0.0171232688648279,-0.0163318281076681,-0.029167590320022,0.9999389410329408,-0.0043902214861614,-0.0033488053973814,-0.0095721295244953,0.3599999999996726,7.0,0.0008110775807929,0.0034470420142377,0.9782783142104858,0.0767948339501434,-0.0344932001413989,-0.0742027813441218,0.9998084465118356,0.0041215116565635,-0.0016213632914603,-0.0190644854725128,0.3599999999996726,8.0,0.0020232741853888,0.0033818228728319,0.9787550611034546,-0.0089403825024056,0.0001469789698812,-0.0296281293568537,0.9998643370812972,0.0022481858238409,-0.0008496381248968,-0.0162951283682097
6,6,0.4289999999996325,0.0,-0.0006673082578591,0.0141952362023576,0.9799265533543052,0.0104310258350923,-0.0016562575712068,-0.1845838999458481,0.9993615870546836,0.0104959945087407,0.0002241106466413,-0.0341497026814933,0.4289999999996325,1.0,0.148765686144942,0.0861949323994398,0.964898546094086,1.0270441345294077,-0.6781600664961995,-0.5694248876393491,0.9628549038599902,0.0765198946633602,-0.1332851510492883,-0.2220139823147308,0.4289999999996325,2.0,-0.0221848629734722,0.5998852939730325,0.77423928208903,3.711605720327403,0.0263711809308001,2.778402619911601,0.8304629764839591,0.5110772671108095,-0.0077149469841744,0.2215214466479063,0.4289999999996325,3.0,0.0064484059041974,0.004786510018799,0.97920044290387,0.0165609865279556,0.0084168452343776,-0.1247903972697173,0.9996224652947288,0.0057315282536487,-0.0041987435073206,-0.0265414207405364,0.4289999999996325,4.0,0.004064249381398,0.0058433332071378,0.9800522115346696,0.0461855039288687,-0.0360740120941892,-0.0200630480709717,0.9997860025610964,0.006319049146289,-0.0038535897623651,-0.0193175709325274,0.4379999999996471,5.0,0.0022663066640924,-0.0094224939291595,0.9797673603780946,-0.0038917391128226,-0.0322241219844366,-0.1358892477822012,0.9998951986729092,-0.0084083204977221,-0.0022513958905726,-0.0115681906024784,0.4379999999996471,6.0,0.0034209125506088,-0.004612087325395,0.979888272206492,-0.0315780870690413,-0.0189345236715261,-0.0686230224587777,0.9998902685342652,-0.0057644772842479,-0.0041374915811495,-0.0130039553802048,0.3840000000000145,7.0,0.0028781076699473,0.0085568059161718,0.980180339309432,0.0657030659624837,-0.0452929273276224,-0.0926887593549272,0.999684134750576,0.0073913361709226,-0.0039066075669156,-0.0237009977620909,0.3849999999997635,8.0,0.0020232741853888,0.0033818228728319,0.9787550611034546,0.0066203903825063,-0.0023135284923577,-0.0754520290567961,0.9997949676329234,0.0025266802360343,-0.0009823415121459,-0.020066728383572
7,7,0.5019999999999527,0.0,0.0005945893831898,0.0153816636868917,0.979928594789278,0.0201515096732365,-0.0266674364530434,-0.2069201975779903,0.9989462804903824,0.0111878700256855,-0.0011060133211729,-0.0444964829312633,0.5019999999999527,1.0,0.1739919263715523,0.1818312013012785,0.946613555676682,1.6710243414794943,-0.2898838951412327,-1.477872976560895,0.934506845482802,0.1603560034617693,-0.150453047976492,-0.2799049628965782,0.5029999999997017,2.0,0.0878961312924576,0.7695676973981214,0.5999806907102699,3.7963219960026087,0.2909566417209464,1.976450396166411,0.7126135121677328,0.6333535271230769,-0.0124089658511684,0.3014818560431642,0.5029999999997017,3.0,0.0065357528735312,0.0061716756831163,0.9794718956425644,0.0236847591173649,-0.0004379462220519,-0.1217619813995526,0.9994369984844113,0.006672949654192,-0.0041333647908739,-0.0326201333364748,0.5029999999997017,4.0,0.0041518942008219,0.0088408815370222,0.9801360112699632,0.0320724548792065,0.0085886295813749,-0.0970822222426433,0.9996726322243148,0.0077639947732713,-0.003252667750269,-0.0241613103820283,0.5029999999997017,5.0,0.0042978726357531,-0.0057722900977327,0.9805081381395232,0.0491786347138099,-0.0160744150242165,-0.1751172204925555,0.9997742962710356,-0.0053952851514986,-0.0031211193177526,-0.0203102444124642,0.5029999999997017,6.0,0.004171190279023,-0.0066371723600434,0.9804680255442904,-0.0441586463494281,-0.0221080043497724,-0.1230343935074896,0.9997738630950648,-0.007725491441592,-0.0050559350988507,-0.0191566430836068,0.4379999999996471,7.0,0.0051678662743669,0.0115149568862713,0.9802600159784532,0.0634877736336184,-0.0352175200636767,-0.1468042100293721,0.9994487776240936,0.0103924732136171,-0.005552128621828,-0.031037256225001,0.4389999999998508,8.0,0.0025276900829039,0.0048422608353213,0.9803714414918702,0.030968495635971,-0.0086690000903902,-0.1325924507898151,0.999634360074098,0.0040639492426077,-0.0014553421415033,-0.0266929289335862
8,8,0.5599999999999454,0.0,-0.0003687105406425,0.0172504170593275,0.9791671395445296,0.0205980734577634,0.0482358149579403,-0.1556833531603198,0.9985602625154536,0.0120938821562716,0.0014408351767797,-0.0522404453795278,0.5599999999999454,1.0,0.161442519949565,0.3077839729600251,0.915882273407056,1.693117761749856,-0.0489552322044328,-1.6349625809058308,0.8952334885858136,0.2441539319885459,-0.1533797456384888,-0.3397359445758999,0.5599999999999454,2.0,0.2132681580701257,0.8772532176729628,0.3817269768248097,3.977354525174442,0.2414149115578469,2.032241604853572,0.5657727566490484,0.7363151408589952,-0.0137233300050608,0.3708812092693658,0.5599999999999454,3.0,0.0065437964178889,0.0105285788333342,0.9793402512692876,0.0597068155148561,0.0307265158837352,-0.2203672591275338,0.9989995435211128,0.0096096039996061,-0.0025279157494861,-0.0436024907263609,0.5599999999999454,4.0,0.0026746931559438,0.012235331878339,0.979592334938544,0.0528076641094881,0.0485502399470868,-0.2714921876371046,0.9992354756648184,0.0103490544205508,-0.0005763673225993,-0.0376965389155819,0.600999999999658,5.0,0.006729857981811,-0.0029485622518588,0.980173461685324,0.0608501881614584,-0.0450152215703507,-0.1394427668558289,0.9996114367445024,-0.0019956275475471,-0.0054746517328651,-0.0272584150068758,0.600999999999658,6.0,0.0048601382473469,-0.0089579036180139,0.9800944520907092,-0.0538546663784649,-0.0129186707406298,-0.0690555571762822,0.999678500734438,-0.0101013343447804,-0.0054184814652,-0.022616327562459,0.5039999999999054,7.0,0.0059789438551598,0.014961998900509,0.9795817427960148,0.047231672429695,-0.0176543969926051,-0.1827442545402341,0.9990960948435396,0.0124894369022717,-0.0061665567754388,-0.0401619323711908,0.5039999999999054,8.0,0.0033278311091934,0.0075958850658266,0.9794897794618252,0.0345655879157297,-0.0087663118255171,-0.2187134275310529,0.9992736921767024,0.0057716172660548,-0.0019108774555222,-0.037618148612402
9,9,0.6349999999997635,0.0,-0.0032144744810993,0.0185909138720552,0.9794907069876734,0.0051195028966259,0.019652259753268,-0.1372590252179544,0.9981765290510014,0.0121374108833053,0.0024617505110867,-0.0590782522859827,0.6359999999999673,1.0,0.092169059531407,0.4329371858045407,0.8740270348294386,1.861736622853584,0.8321688629087547,-1.5213447507485045,0.851299743827072,0.3435649771464917,-0.1200488487162159,-0.3779419618938909,0.6359999999999673,2.0,0.3248666924523102,0.9110584095601664,0.1561256113031938,3.715179925015279,0.3096433929952594,2.075295446673431,0.40693643681012,0.805276913233348,-0.0130643057977636,0.4310001778696576,0.6359999999999673,3.0,0.0052661008291052,0.0119274266768316,0.9799811246523712,0.0213376007130129,0.0341131831640133,-0.1610065321259161,0.9986122616073492,0.0104048093547033,-0.0008294195833266,-0.0516197924531138,0.6359999999999673,4.0,-0.0015253607966433,0.0140137671427894,0.9800358603668072,0.0337329099892601,0.0222426044604293,-0.1290242842313875,0.9989563973724104,0.0117618726418641,0.0006553282099962,-0.0441287326537805,0.6920000000000073,5.0,0.0085177904070419,0.0011076753385463,0.9795816557602158,0.0432029185557423,0.0285055973131675,-0.0645688341968194,0.9995273726991568,0.0004642414591754,-0.0039960535497455,-0.0304769956035006,0.6920000000000073,6.0,0.0067215422519571,-0.0101701494099202,0.9803506459072364,0.01429921136861,-0.0210974436097986,-0.1144761561254327,0.999539199996303,-0.0088956166424621,-0.0063290233882089,-0.0283231202068647,0.600999999999658,7.0,0.0079302720336186,0.0188596408755154,0.9796083016856888,0.0385447912161798,-0.0277170391595856,-0.1838011259009322,0.9986552996704354,0.0141111709841837,-0.0073244448329865,-0.0493438932543503,0.600999999999658,8.0,0.003290403762856,0.0109104670070008,0.9795999872155812,0.0221409902083711,-0.0008736752623981,-0.1863347100993041,0.998873145972634,0.0068663185566249,-0.0019297798062616,-0.0469208682156634
10,10,0.694999999999709,0.0,0.0009020142666146,0.0175836918829457,0.97969076761498,-0.0619900956372291,-0.0605682901363341,-0.0919985388850301,0.9979328964074816,0.0085331811262694,-0.0006830868568577,-0.0636918556801976,0.694999999999709,1.0,-0.0238707129606385,0.5346921874859735,0.8214276923163812,1.5818272129528477,1.4251621860307857,-1.264465534241721,0.8088211242043516,0.4334110576688416,-0.0627058300518192,-0.3924681171874952,0.694999999999709,2.0,0.458021288759962,0.8644990942588734,-0.0500880731137745,3.2624209364961936,0.3075749796481966,2.2978813021082,0.2452012546491373,0.8412539201245696,-0.0252439713488779,0.4811766084340243,0.6959999999999127,3.0,0.0008296288217748,0.0107847137073215,0.9798719312574828,-0.0260407566924085,0.0702805970093933,-0.0898493567624281,0.9983842945522872,0.0087968259834895,0.0027979398927788,-0.0560677070719342,0.6959999999999127,4.0,-0.0015253607966433,0.0140137671427894,0.9800358603668072,-0.0091473177980906,0.0009192602044991,-0.0108188208437898,0.9989427117192664,0.0108481378660866,0.0007079510949463,-0.0446685058295387,0.7519999999999527,5.0,0.008550926143435,0.003556919693553,0.979571452209783,0.0269556861331714,0.0001003104836358,0.0089854845333746,0.9995390378100456,0.0019314993748029,-0.0040751528860692,-0.0300228968104101,0.7519999999999527,6.0,0.0079529513774135,-0.0084113354080479,0.9797259820996084,0.0713290444326236,-0.0099550957196461,0.0041739243950291,0.999571099144318,-0.0048970561975785,-0.0066871296627481,-0.0280877000285122,0.6929999999997563,7.0,0.0101179237894934,0.0249505493600942,0.9792691650944696,0.0980752414927053,-0.0055717011738135,-0.0268314821258989,0.9985092916819084,0.0188389772082371,-0.007665484105543,-0.0506510386474842,0.6929999999997563,8.0,0.0043656743575682,0.0108920725153194,0.9805183851635444,-0.0755356166409224,0.032584968904027,0.03321864059681,0.9989708343935122,0.003024288673709,-0.0001854470358137,-0.0452558429216075
11,11,0.7739999999998872,0.0,0.0056478965561119,0.0150651463080942,0.9793253507548996,-0.1054620139800202,-0.0446743968077922,-0.0692808246535067,0.9977332886234505,0.0030278001978137,-0.0028337134182491,-0.0671646280929155,0.7749999999996362,1.0,-0.1336520474440158,0.5999347372734395,0.7623729016870102,1.0263796558814668,1.4968634330732344,-0.4524590718228951,0.7858037260064704,0.4933408477185886,-0.0137413031689779,-0.3727445355117499,0.7749999999996362,2.0,0.5606348803718022,0.7777834256541383,-0.2016692184945646,2.8001604126929416,0.3928493469852816,1.5518052111377216,0.1126406954152625,0.8510040307267981,-0.008681645740873,0.5128633760080155,0.7749999999996362,3.0,0.0016351270104767,0.0084987179639893,0.9802260444166072,-0.0368792713910745,0.0062134559221699,0.0283828272063813,0.9984808012192676,0.0065254604649753,0.0028148753622164,-0.0546405018181981,0.7749999999996362,4.0,-0.0008537376021209,0.0116582593831388,0.9800583432226178,-0.0444517581167869,0.0027904844588192,0.013322331945139,0.9989979506735654,0.0081457111883934,0.0008873327489944,-0.0439994838588413,0.7839999999996508,5.0,0.0090113372452599,0.0039622701193017,0.9803612070132894,0.0193144936802435,-0.0359447217276935,-0.0299383180568155,0.9994813969574732,0.0028438953630361,-0.0059540967002516,-0.0315182189786482,0.7849999999998545,6.0,0.006815621139287,-0.0018779233738463,0.979870920434058,0.0705533441558374,0.0299515597265667,0.0753314079023804,0.9996917784129564,-0.0009693377543876,-0.0049615310584016,-0.0243062084129716,0.7519999999999527,7.0,0.0081101937049673,0.0369893258795054,0.9790771238922128,0.2517361871746436,0.0611064177814297,0.0519036513996777,0.9983419625677878,0.0315187467858312,-0.0050763596258971,-0.0478970244409518,0.7529999999997017,8.0,0.0010312741763443,-0.0069188399835234,0.9797101949693364,-0.5625221943903074,0.0835736706442267,0.0177537957561411,0.9986778492111118,-0.0255343775039725,0.0052647497293117,-0.0443038539050544
12,12,0.8309999999996762,0.0,0.0097877562449679,0.0072893916802189,0.9799571748788932,-0.1541757988775355,-0.0785038007606286,0.0308033542110259,0.9978095468790412,-0.0048974583210187,-0.0064647688746354,-0.0656531021539276,0.8309999999996762,1.0,-0.2048787291524726,0.6304412770204897,0.7219982704755199,0.5138242283084496,1.3756835350934418,-0.0882329487927535,0.7784537547065807,0.5258315502239094,0.0299209548445273,-0.3414903644812528,0.83199999999988,2.0,0.6122647977252413,0.7096753830862508,-0.285815794013999,2.1055278886253257,0.7361256463460767,0.7275067359775439,0.0297253368827171,0.8377063407589952,0.030926631663763,0.5444336823280841,0.83199999999988,3.0,0.0008215852774171,0.0064278105571036,0.9800035756307596,-0.0106777208459783,0.029052174803705,0.0275017136787859,0.9985566027797292,0.0057481794278168,0.0039453744957801,-0.0532550795545319,0.83199999999988,4.0,0.001961734978407,0.0099123081562052,0.9799009632319436,-0.0328483854960128,0.0301913886286789,-0.0708802567389104,0.9988479297447184,0.0062547375505382,0.0022786503704466,-0.0475236704743394,0.842,5.0,0.0111628866717757,0.0100761267733319,0.9848324028129868,0.3175360590235399,-0.0029793087108713,-0.2313231572403644,0.9988759340119104,0.0189753390387648,-0.0063696751057518,-0.0429678042171651,0.842,6.0,-0.0004960368518234,0.0181958187051467,0.9835566410375616,0.0383532734255541,0.0527191032389542,-0.1824881431307341,0.999437464237618,0.0020784579727746,-0.0018557829729932,-0.033421417688251,0.7849999999998545,7.0,0.0117386393965773,0.0626416639114874,0.9766704798894648,0.2543628730934078,-0.1481714619666466,-0.0322531181041085,0.9977144042578104,0.0438752460806654,-0.0132506746595826,-0.0496522903692228,0.7849999999998545,8.0,-0.0139767410427369,-0.052920626225836,0.9789387406930472,-0.3491402575678529,0.1869020348110288,0.1261295305578938,0.9982367990177038,-0.0426199481003736,0.0159396653270751,-0.0381150912378674
13,13,0.9099999999998544,0.0,0.0173794024749221,0.0034303492926395,0.9792681905756692,-0.0539507752492952,-0.0337711090751152,0.1400878501509644,0.9982182590137936,-0.0071397630279279,-0.0081735147120086,-0.0586730330955231,0.9109999999996036,1.0,-0.2451870392545253,0.6453268912408272,0.6950787863422747,0.0611434241126742,0.8624630478593343,0.4144001061330513,0.790685856684878,0.529518338579393,0.0478802816011346,-0.3035353089517195,0.9109999999996036,2.0,0.6472169476351202,0.6581838209560521,-0.3295303939328962,1.307586752249269,0.7136593131980905,0.1390983558547908,-0.0045102451060617,0.8190639884098797,0.0768481663705519,0.5685140278873229,0.9109999999996036,3.0,9.539051369150016e-05,0.0057420688145351,0.9800525595836068,-0.0101534546948964,0.0007415139096924,0.2161604630070009,0.9990797718140814,0.005002577532097,0.0035399437825237,-0.0424505897247057,0.9109999999996036,4.0,0.001961734978407,0.0099123081562052,0.9799009632319436,-0.012824764954648,-0.0154804969065438,0.2672421404354126,0.9994004921330664,0.0054818928801131,0.0011100421303518,-0.0341668403734494,0.8999999999996362,5.0,0.0110160472258861,0.0088298918944337,0.9792265722051512,0.0378696936740053,0.0015213940952989,0.0434407644917383,0.9989599371727282,0.0193852336336598,-0.006361511066197,-0.0407772953711035,0.8999999999996362,6.0,0.0053763954425489,0.0024678929187726,0.9796647405498408,0.0503541549187374,0.0356641904250102,0.1217271695548339,0.9996161284310576,0.0045523060318724,-0.0002779585983407,-0.02732755073755,0.8999999999996362,7.0,0.0164431159251999,0.071827038827176,0.9773753119615768,0.0966858071727939,0.0828534195557429,0.0706791636698917,0.9977460498398752,0.0480894633579021,-0.0092226781918902,-0.0458820852822026,0.90099999999984,8.0,-0.0237833603525854,-0.0746863767647934,0.976918265207528,-0.2219571345489215,0.063538314969466,0.1009382472332718,0.997856765783003,-0.0529918464354312,0.0195641367928748,-0.033030043051719
14,14,0.9649999999996908,0.0,0.0183338752325464,0.0024147485811197,0.97950805918494,-0.0648008888028611,0.0180170677869954,0.1747878532542208,0.9986784292863136,-0.0096114558791703,-0.0071235340157136,-0.0499826975785765,0.9649999999996908,1.0,-0.2571789656186714,0.6494176032022974,0.6868047439369458,-0.1149532592333329,0.4947991749168151,0.3774443040347119,0.8065545585143855,0.5195148540081981,0.056029533367858,-0.2764683562274092,0.9659999999998944,2.0,0.6590449000091301,0.6374959682954204,-0.3445674247212583,0.7106233277264103,0.481821233309785,-0.1250431523081254,-0.0075790573347401,0.8049277417199456,0.1184145597960183,0.58138789162474,0.9659999999998944,3.0,0.0023532782298447,0.0048275565563399,0.9803087048370368,-0.0318305822771259,-0.0197187589792188,0.2960350874294399,0.9996105427636144,0.003162187614242,0.0020901339652114,-0.0276476889691036,0.9659999999998944,4.0,0.0040179395449886,0.0075243163590378,0.979637300650165,-0.0206423806969295,-0.0542232755833593,0.4241157561246555,0.999905099104834,0.004208069815651,-0.0019843284009446,-0.0129671652019883,0.9309999999995852,5.0,0.0071123142191718,0.0101090437079017,0.9795796150501292,0.0561487536379767,0.07978044185451,0.123667948797197,0.9991838937504092,0.0208753960545132,-0.0023667608008544,-0.0344987355224778,0.9309999999995852,6.0,0.0025854777710937,0.0041089204503891,0.980384328759608,-0.0241848011932368,0.044035853906715,0.1252077557618368,0.9997716255026552,0.0031522739359094,0.0018268919868207,-0.0210575989723404,0.9309999999995852,7.0,0.0118864511875996,0.0723125673769463,0.977342624097363,-0.0821137389899995,0.0609809288383753,0.2052858515984686,0.9984286656912325,0.0428826505479664,-0.0062829104833825,-0.0355218643072715,0.9309999999995852,8.0,-0.0314038579476345,-0.0858985773295828,0.975816187669972,-0.1081502447847695,0.1001827016355532,0.1333810809371627,0.9977038433324228,-0.0571215786707721,0.0249119865764279,-0.0265246899074636
15,15,1.0399999999999636,0.0,0.0180264503491217,0.0002127203850657,0.979745886359238,-0.0420837027224297,0.0032368445376477,0.108400165253657,0.998922099971621,-0.0108176756517896,-0.0070049117257063,-0.0445931305639615,1.0399999999999636,1.0,-0.2626451621802175,0.6485819778249304,0.6856120891758173,-0.0968391206268793,0.3512080043243611,0.2047876178554756,0.8185225845300201,0.5082073920081269,0.0634913838679825,-0.2602208091162628,1.0399999999999636,2.0,0.6583348222758121,0.6343077058977977,-0.3536410553340037,0.3226868900235823,0.0261965718961118,-0.099203084762924,0.0046794265667514,0.8038419534000981,0.147956659013373,0.5761293639231742,1.0399999999999636,3.0,0.0021866278355347,0.0064141283779233,0.9796341549863704,-0.0844421838762654,0.0101724402427134,0.1803675191234252,0.9998232919902796,-0.0010184767174284,0.0023947943813043,-0.0186175309525137,1.0399999999999636,4.0,0.0062080987674036,0.0064528897398549,0.9798723486881848,-0.0899181029179788,0.000951231767761,0.2162233809307309,0.9999955860250652,-0.0004046262742118,-0.0019965445407249,-0.0021628725949655,1.0499999999997272,5.0,0.0032748526852436,0.0162866842313832,0.979912250794242,0.0111631973021861,0.0619003230148557,0.1329932205608253,0.9994083910108388,0.020260819537951,0.0006135235712362,-0.0277847216578562,1.0499999999997272,6.0,-0.0009908434269353,0.0001331355163881,0.9797494580270192,-0.0615609951444576,0.0571765673439778,0.0536013482478498,0.9998207088340564,-0.0001675507386618,0.0046181650629361,-0.0183628610180174,1.0499999999997272,7.0,0.0068663967042548,0.0704685139561338,0.976711339719732,-0.0171636473475661,0.0807549304358202,0.1214949221810777,0.9987094511608208,0.0414268831482656,-0.0023217498920884,-0.0292891616833033,1.0499999999997272,8.0,-0.0361925244380125,-0.0946652242567235,0.9747141101324164,-0.2136421355144665,0.0747492493096811,0.1434986286811824,0.9971768531141596,-0.0665653466583541,0.0288842192397438,-0.0193152819421602
16,16,1.1289999999999054,0.0,0.0170631504252892,0.0020814737575015,0.9789844311144896,-0.077435137329216,0.0016349413589215,-0.0211117027212844,0.99884020377898,-0.0135250916543796,-0.0069396927128379,-0.0456854448983217,1.1289999999999054,1.0,-0.2673566188821558,0.6506974185241174,0.6822465154663313,-0.0107085485684324,0.1573242600378457,0.0488990182671063,0.8257659685910136,0.4984539437476355,0.0661348752683266,-0.2555003118444611,1.1289999999999054,2.0,0.6550231245995352,0.6312898904686682,-0.3649955896061193,0.1304243065477728,-0.0095338413080488,-0.0568873881568776,0.0217983660573409,0.8035212381148257,0.168669291611973,0.5704639525883846,1.1299999999996544,3.0,0.0015477800411428,0.0071135522996721,0.9799545916779124,-0.1658532075728014,0.0159063638909601,0.1689461718509254,0.999904891862995,-0.0088119560164109,0.0030934987943813,-0.0101482473770783,1.1299999999996544,4.0,0.009695194542454,0.0023514307532707,0.9797374515533214,-0.1656974241774684,-0.0486935180110741,0.2363987980522762,0.9999062852255352,-0.0085581668403523,-0.0046070569253355,0.0096412433477218,1.1489999999998872,5.0,-0.001339204715084,0.0138998570793688,0.980028571269177,-0.1204346909206118,0.1110617068134174,-0.0225940699563642,0.9994796860581668,0.0130797872902134,0.0063329989867762,-0.0287953024874691,1.1489999999998872,6.0,-0.0051947828331979,-0.0012262719363201,0.9804414875393912,-0.0043578864860392,0.0724423259371684,-0.139904494501295,0.9996460720635136,-0.0003920550339055,0.0080443583511578,-0.025354786521617,1.1489999999998872,7.0,0.0048129616772513,0.0697036294956067,0.9762659675698176,-0.0025162873798291,0.0378324875742964,0.1331632954629541,0.998914380467382,0.0407517868454251,-0.0008177649310722,-0.022554015715364,1.1489999999998872,8.0,-0.0470304179242053,-0.1095121348121573,0.9729507860723264,-0.2648807669767568,0.1942438299150681,0.0622120188594572,0.9960380457699884,-0.0783656925620198,0.0386772990309319,-0.0164649976510505
17,17,1.2049999999999272,0.0,0.0208576705146447,0.004787603550188,0.9795121420548848,-0.1155971263540391,0.0044874577948243,-0.0616428726302138,0.9986265836570672,-0.0177180980729946,-0.0068868171850802,-0.0488219946658279,1.2049999999999272,1.0,-0.2606668037590522,0.6460487244370597,0.6883813355047389,-0.2023140475982571,-0.2948608174513992,0.0661459740938978,0.8389090509898955,0.4752099123878509,0.0517612126028498,-0.2602458841277733,1.2049999999999272,2.0,0.650932179576528,0.639758186178039,-0.3561892205133897,-0.309926868384155,0.1807888540542556,-0.201981348985226,0.0577871084500667,0.7947732733164518,0.181621304197221,0.5762029121590182,1.2049999999999272,3.0,0.0020038903525094,-0.0007131061009289,0.979222893882258,-0.3002208164085486,0.0479019914964336,0.025126073446106,0.9996835872983284,-0.0229456661774056,0.0052574665328116,-0.0088645775802747,1.2049999999999272,4.0,0.0138125785290121,-0.0087840674747483,0.9799561484234788,-0.3007077399364717,0.0133909323220362,0.0146222456603451,0.9996689683627324,-0.0231831316906725,-0.0043135399872112,0.0102902609482109,1.169999999999618,5.0,-0.004231601162967,0.0106707788077461,0.9795734929198694,-0.0296008769767131,0.0472386438570461,-0.2003608472684763,0.9991541791400532,0.0108478268237848,0.0084109833759276,-0.0387621763942254,1.169999999999618,6.0,-0.0108730737343583,-0.0058817605966752,0.9801526315629884,-0.140953418224019,0.0966669862382893,-0.0928601089170319,0.9994411781727652,-0.0075971722751273,0.0127756910299924,-0.0299398741607788,1.1709999999998215,7.0,0.006527966278294,0.0714080049610408,0.9766582219403844,-0.0508758748485908,-0.05115310785948,-0.005585301280018,0.9990188138042098,0.0377174924970186,-0.0036384554717528,-0.0229251404956947,1.1709999999998215,8.0,-0.062590539101094,-0.1360649627113918,0.9677710216458136,-0.2764409462106524,0.2345354785681072,0.0659115277620551,0.9944994521167918,-0.0908582544005909,0.0503142589753358,-0.0135680761510729
18,18,1.237999999999829,0.0,0.024327111388159,0.0069980104686523,0.9792345068986228,-0.0596609944583806,0.0094216701360662,-0.0588687393814683,0.998459891708057,-0.0185867604753667,-0.006894679335046,-0.0518154454022474,1.2390000000000327,1.0,-0.2216985540127845,0.6382675283656232,0.709757221437499,-0.4045613870411941,-0.6552899567399894,0.2827055415250168,0.8588720684976145,0.4394218079727314,0.0192077566603568,-0.2624467693012833,1.2390000000000327,2.0,0.6418251926406333,0.6667373401496695,-0.3218644766698517,-0.8061700137868075,0.2928961081944843,-0.5467329078748524,0.1206545588584309,0.7755306777997167,0.1934993184096303,0.5886872335911472,1.2390000000000327,3.0,-0.0001275646911218,-0.0231696814154067,0.9802995203458778,-0.3349497832478196,-0.0349390965217194,0.0893201899359705,0.9992417377917764,-0.038556970032493,0.0033231849005336,-0.0042738693125877,1.2390000000000327,4.0,0.007392829993141,-0.0322700999898409,0.9795167107871812,-0.4135801715790496,0.169214029719919,-0.1301947059930755,0.9990526913262692,-0.0432203259880466,0.0036832982228631,0.0034866444366035,1.26299999999992,5.0,-0.0053540283226556,0.0253820200718419,0.9790082162258869,0.2563425650032018,0.023647043691423,-0.3162770882257983,0.99818471670081,0.023772818439493,0.0088509801375999,-0.0546240295014058,1.26299999999992,6.0,-0.0172492344400716,-0.0232046667762693,0.97964126462243,-0.5154136232450574,0.1170076602291203,0.0208544796971439,0.9988464677378605,-0.0335440567998298,0.019058548273834,-0.0285884920676701,1.26299999999992,7.0,0.003867667367587,0.0609305634573173,0.9777287494933894,-0.2121711911762205,0.0918715468585853,-0.102031231190841,0.9992569523456564,0.0265716023688022,0.0014257271014045,-0.0278829775787536,1.263999999999669,8.0,-0.0745345614563058,-0.1373638694009535,0.9664852645186648,0.1180282842747449,0.1513680639696068,-0.1066510070811308,0.9947613877813196,-0.0830491005666744,0.0562007026929109,-0.0198521860577791
19,19,1.2959999999998215,0.0,0.0252961279207172,6.702977928250975e-05,0.9793845523691026,-0.1391890428466372,0.0082700540286116,0.0118673828901352,0.998378868016262,-0.0237232747111704,-0.0067073582932242,-0.0513015933502226,1.2959999999998215,1.0,-0.1498781062401833,0.6084794206402726,0.7536148538392371,-0.8493927456875332,-0.943826508177579,0.6545730773682334,0.8900332642943687,0.3789958124509289,-0.0273978365902931,-0.2518974417185343,1.2959999999998215,2.0,0.6107843000970574,0.7223829379030818,-0.2551184622512844,-1.3347826240150793,0.3550589172180386,-1.1922255860933344,0.2204072461118806,0.7386817817049792,0.2133842440498138,0.6001974971872372,1.2959999999998215,3.0,0.0072882346277119,-0.0500789351343643,0.9789218466720516,-0.5139401313095181,-0.1241195618352231,0.3525159428669398,0.997926645701613,-0.0628539371785025,-0.0023466453015169,0.0136486495931695,1.2959999999998215,4.0,-0.0031325029071425,-0.0662779971938558,0.977879550104975,-0.5721339047442732,0.0948942157633233,0.2510299618912384,0.9973256106546992,-0.0707638368824943,0.0089821171699502,0.0159193998958652,1.3139999999998508,5.0,-0.0044565729023618,0.0612942094113896,0.9777797087537656,0.7790978560914111,-0.0751097691589969,-0.7374180719770516,0.9938116684648336,0.062677975397887,0.0044654915989251,-0.0915963886184699,1.3139999999998508,6.0,-0.0277232884276133,-0.1075304874102519,0.9728995906855304,-1.6644509430439274,0.1777318467058714,0.0633105769024754,0.992293085000888,-0.1177781585836155,0.030216608175776,-0.0238682929935239,1.3149999999995998,7.0,-0.0059774853111006,0.0489199905381716,0.978633794733812,-0.1913664056103086,0.1244239221201212,-0.131984477406791,0.9992339233288036,0.0170197298751367,0.0081137661946453,-0.0342937612699797,1.3149999999995998,8.0,-0.0831423368093313,-0.134756784490377,0.9668158877799315,-0.156666725121983,0.1483692507553871,0.0058602272737858,0.9938545104658052,-0.0891787576285833,0.0625304700469726,-0.0197560504732551
20,20,1.3699999999998909,0.0,0.0234339242877525,-0.0114388340752094,0.9797683421439356,-0.2248548215006648,0.0883004918603996,0.0418284495337281,0.9982307588320156,-0.0330054111541189,-0.0021475701121135,-0.0494103521422379,1.3699999999998909,1.0,-0.0827891178304951,0.5612139119228747,0.7978645919158666,-1.2399759361674618,-0.8006754673324563,0.7820788282356023,0.9228537824981428,0.3018014226753028,-0.0614910661737836,-0.2312480187609075,1.3699999999998909,2.0,0.5336184856342799,0.8067899100115816,-0.1572874848577657,-1.712199931600145,0.448133485050444,-2.0067917964276845,0.3538784299567759,0.6744033430111832,0.2477824507468153,0.5987938249920165,1.3699999999998909,3.0,0.0120013678393656,-0.0873564080669305,0.9760624084245986,-0.7579519084582726,-0.109016038823612,0.6876586139108127,0.9939454387144108,-0.0986266293195198,-0.0053253013245486,0.0481341252511161,1.3699999999998909,4.0,-0.0028027843062091,-0.1048598802058737,0.9733707155669634,-0.8099066307416074,-0.1655719169745504,0.7921796894603694,0.9924802847363768,-0.1086555015300913,0.00357482831872,0.0562502177714577,1.3799999999996544,5.0,-0.0024923167430894,0.1400314704613339,0.9691434236673584,1.0476040630221242,-0.1848835150020937,-1.6524226986891624,0.9783882855049554,0.1132933553627354,-0.0009799725898493,-0.1729740387198329,1.3799999999996544,6.0,-0.0368391052751291,-0.1738086881935363,0.963620475203267,0.1190392585170683,0.2150493812582815,-0.6314549044336857,0.9916974659838144,-0.1095909312607629,0.0363438689732264,-0.05661348721583,1.3799999999996544,7.0,-0.0100143583968895,0.035798682564107,0.979365185695598,-0.2664896908811677,0.036228693086629,0.0813405852909681,0.9994899034497128,0.0039366712671545,0.0100012916275589,-0.0300734049817944,1.3799999999996544,8.0,-0.0928825173194979,-0.1594618054459946,0.9624810494655448,-0.3631768247703513,0.1770352043949312,-0.0142274007883268,0.9916546182689964,-0.1061984781284191,0.0702562785833747,-0.0201756444405993
21,21,1.4779999999996107,0.0,0.015560830166759,-0.0258216544954024,0.97938251093413,-0.2988483947150399,0.1702267777537277,0.2189138879734788,0.9981823081991068,-0.0455740772126302,0.0070722883550926,-0.038795177818168,1.4779999999996107,1.0,-0.0074339957548771,0.4886305672056491,0.8487985064191632,-1.3894025729877435,-0.6471168554675285,1.0812981406091475,0.9526350272509008,0.2186804274948952,-0.0876046168533325,-0.1923299420041155,1.4779999999996107,2.0,0.4152360836437384,0.8864701527277354,-0.0522557476558862,-2.260823818328402,-0.002600217048881,-2.666562759705835,0.5223460993889851,0.5867326968696988,0.2670654408735241,0.5581893452657019,1.4779999999996107,3.0,0.0139599505279181,-0.1424259462991741,0.9690975026291436,-0.7646256308728204,-0.1921661241350898,0.671747630759983,0.9875817004257188,-0.1333868488589083,-0.0126952973369022,0.082031475430255,1.4779999999996107,4.0,0.0031183943881214,-0.1605505308031158,0.9664071619536344,-0.8688066181453077,-0.14483722455966,0.4932355644045806,0.9855938572624224,-0.1482119584736775,-0.0033261411325698,0.0814057779100673,1.4539999999997235,5.0,-0.0028247124466223,0.1955245728397974,0.9598479892229856,0.7552370136010088,-0.1818173384743358,-0.5829922554198801,0.9682732833257756,0.1467919057122919,-0.0135105781029785,-0.2017831744576316,1.4539999999997235,6.0,-0.0848147685470315,0.0379816719016951,0.9755023565506468,5.192911014782466,1.083243440113574,1.449116717330851,0.9837014151350464,0.1683882223436225,0.0622155781866884,0.0103031193411719,1.4549999999999272,7.0,-0.017953887839596,0.0148820906400295,0.9800434588780362,-0.3425686362865335,0.2065629694998838,0.5197022288518462,0.9996963620203893,-0.01222582874337,0.0210460159670641,-0.0038442277053793,1.4549999999999272,8.0,-0.1023054186638362,-0.1661334787332515,0.9603136303083512,0.0020222765400203,0.0252775058752495,-0.0896601949634804,0.9918218320239064,-0.1041810331344387,0.0694370733117006,-0.0247842430929108
22,22,1.5049999999996544,0.0,0.0032783661895605,-0.0473146611003897,0.9789446231325256,-0.2258138282380021,0.1062153934168545,0.3114044738680796,0.9981623479586776,-0.0543835320436923,0.0128766981287793,-0.0234211273292481,1.5049999999996544,1.0,0.0524870458981498,0.3956133641757651,0.8942327303886943,-1.5404676658389118,-0.2563536220076783,1.3506101355441271,0.9777479983235942,0.1318524185434744,-0.0919892300926621,-0.1347656226394566,1.5049999999996544,2.0,0.2444273657197602,0.9424192334964896,0.1029089462738161,-2.7798802007535457,-0.6392407928611903,-2.9628899629370413,0.7030197449509269,0.4728178329505055,0.2436704932767358,0.4720500246365779,1.5049999999996544,3.0,0.0190415123078113,-0.1936639635040427,0.959995671890731,-0.8431142238632184,-0.2307223779992555,1.1952954215255829,0.9750106941778788,-0.1705166765740528,-0.0176860233245962,0.141299022742101,1.5049999999996544,4.0,0.0133241469164241,-0.217600887350812,0.9558667903704412,-0.8784037656639948,-0.3814592985191,0.9237988069421436,0.9739559228916136,-0.185620151377787,-0.0181336613997837,0.1289425840871466,1.5299999999997451,5.0,0.01869870813301,0.3909530500119368,0.8976430643638486,2.1541619630247832,0.0992875913285699,0.0563120757358756,0.9472133610335028,0.2539817074832801,-0.0347710765627219,-0.1925386017871788,1.5299999999997451,6.0,-0.1036628291263454,0.063555011392193,0.9719309535067088,-0.8790569480027071,0.1550221298279937,-1.3816331067555825,0.9899402331172528,0.1064789935519701,0.075627129967491,-0.0544159535503979,1.530999999999949,7.0,-0.0605475564487322,-0.0102114627691834,0.9770280034043044,-1.1646474028225826,0.5052865146314607,-1.0572778496828923,0.9950042174750348,-0.0704314861970895,0.0436056189137004,-0.0557186051343358,1.530999999999949,8.0,-0.0902734034718887,-0.1510336810600053,0.963950486182286,0.5118122511566465,-0.250732021783091,-0.6707716158959808,0.9938664321023348,-0.0784718996156332,0.0515134799858334,-0.0584639845600522
23,23,1.6089999999999236,0.0,-0.000510437291069,-0.0550830182100104,0.977805502417862,-0.2560223319539564,-0.0018749634624211,0.1558600767785292,0.997724831695362,-0.0644309531205796,0.0123901741288653,-0.0155014864929622,1.6089999999999236,1.0,0.0498016727871672,0.3323925470735892,0.920650850234513,-0.9452696289208272,0.7452173780805323,0.9788616486959224,0.9911364360784048,0.0886993999057886,-0.0486928634578254,-0.0860812789311852,1.6099999999996726,2.0,0.0729165840492508,0.9314664440235988,0.2959635711174944,-3.6349078154891337,-0.8832813034067791,-2.572269248608156,0.8574195627460465,0.3120101662424414,0.1638817211623194,0.3749988413990345,1.6099999999996726,3.0,0.0051784591207821,-0.2557944424367395,0.9462617961112092,-0.8912511301984996,-0.1531348530076761,1.3896772231822183,0.9554079232464088,-0.208784203124414,-0.0170821134687498,0.2081178947691152,1.6099999999996726,4.0,0.0141840091572853,-0.276529633997702,0.938759380994578,-0.8895613280017404,-0.429772175536053,1.8701149447106429,0.9495291173995094,-0.221523655343276,-0.0241868499046408,0.2207639500134762,1.589,5.0,0.022779818401846,0.4500215805509263,0.8788746536975708,1.9584277768596323,0.1675783233718873,-0.1802126042619568,0.918487102258491,0.3424309869286996,-0.0449047384903129,-0.1926292465773404,1.59,6.0,-0.1131925478747639,0.0289830127521572,0.9790696768246004,-4.9320324950321535,-0.7336757229116982,-1.5160890533430071,0.9807923621594252,-0.1551974714365362,0.0361171581697284,-0.1124972803012719,1.59,7.0,-0.066844976357175,-0.0509170990905792,0.974931894111588,-1.0829348644112344,0.3905195488365287,-1.0284399521903782,0.9853943560109067,-0.1201928217782209,0.05878833277118,-0.1053355622039589,1.59,8.0,-0.0806717812888562,-0.157245024012931,0.9634729192493452,0.1075028775221666,-0.051759625993074,-0.7648686568916929,0.9914696102773382,-0.0751574467069826,0.0451750199213776,-0.0964291847735612
24,24,1.6539999999999964,0.0,-0.0020537828231574,-0.0745113085023167,0.9767286454698604,-0.293408972207861,-0.0078446860077943,0.0610656704900946,0.9969376098564616,-0.0763863183428759,0.0113860857889601,-0.0122837076696256,1.6549999999997451,1.0,0.0472084752036967,0.2749222046469994,0.9392636164895218,-0.6721796883081362,0.3764413791484086,1.945980040762605,0.9978459738479027,0.0566737890733619,-0.0311475412467037,0.0110147529197706,1.6549999999997451,2.0,-0.0100767803423357,0.8145858608082432,0.5441087518770725,-4.567699960276828,-0.4535542636071645,-1.2973033880825466,0.9386399242555002,0.1038754741035128,0.066339549789869,0.3221242657843041,1.6549999999997451,3.0,-0.0037872565791745,-0.2967856706276862,0.9335994443002192,-0.4339424280116384,-0.2343549301412573,1.0178740311387566,0.9401697604453152,-0.2216401437883032,-0.0225874564390412,0.25777174984337,1.6549999999997451,4.0,0.0020399956575292,-0.3251344367356219,0.92395748628729,-0.608398591034943,-0.128772974883852,1.0500202859977972,0.931120730746479,-0.2437911921624893,-0.0254533024844097,0.2700595652643549,1.6489999999998872,5.0,0.0050850120675786,0.432705413318045,0.8790848468364887,0.7481290636034897,-0.2328044313536872,-0.5292531597168686,0.9039053808847888,0.3634842908396853,-0.0532825195573873,-0.2190780815826013,1.6499999999996362,6.0,-0.0890389981987583,0.2131533761142313,0.9529185143814064,1.6100332863330575,-0.4481297429733814,-1.304365981291256,0.9834162228401924,-0.0542759245620297,0.0010556838195393,-0.1730478032202057,1.6499999999996362,7.0,-0.0613580709161202,-0.1108564304821478,0.9717427843592198,-0.63555408065774,0.2179564621347635,-0.2871281298734118,0.979976776803592,-0.1443551730767006,0.0685888861633074,-0.1187546446523899,1.6499999999996362,8.0,-0.0739899830472307,-0.1797028115871901,0.9606442535696182,-0.2505067844315794,0.0036056221373444,-0.5830990253689048,0.9871198877105344,-0.0900637780525994,0.0440653201247523,-0.1246639111031613
25,25,1.7459999999996398,0.0,-0.0086795230780358,-0.0817923214601254,0.976434678833818,-0.144372630167868,0.0210278671235902,0.0763234033581952,0.9966790705728504,-0.0800641013868566,0.0121857293230794,-0.0084898734984017,1.7459999999996398,1.0,0.0628188058304044,0.2230128141220853,0.9510421033641938,-0.6375369097203013,0.5886220337619551,2.454532753500269,0.9907798680210268,0.0263112415327158,-0.0053397027752484,0.1327948013572653,1.7469999999998436,2.0,-0.0463090144892991,0.6430890402320533,0.7365900905594958,-4.571419000218119,-0.2662376854859156,-1.282889616166219,0.9625160701702364,-0.0959716571073511,-0.018632514864227,0.2529922628974005,1.7469999999998436,3.0,-0.0070852643829762,-0.3081362431910796,0.9299542218091764,-0.0803454033670966,-0.2149692325177304,0.5846390411215974,0.9326506826974268,-0.2166143215929417,-0.0288013682813817,0.2870738945462889,1.7469999999998436,4.0,-0.0115404587967632,-0.345210771335407,0.9164400368626272,-0.2021808372362376,-0.0736397042710703,0.894052043801747,0.91755362576241,-0.2462088451019652,-0.0222521864489834,0.3114183498801114,1.6889999999998508,5.0,0.000533752120837,0.466985209153148,0.8603450061114227,0.616326980854314,-0.4816996956689921,-0.6285369226046041,0.8886242649608315,0.3752215521492675,-0.0699130709886562,-0.2542987711933572,1.6899999999995998,6.0,-0.0571789625799095,0.3518259995935497,0.9131084449550804,5.7009222357440015,-0.0633488400799239,-2.696178618041749,0.929429485836713,0.2344537861794133,-0.0176113081925589,-0.2843977757071741,1.6899999999995998,7.0,-0.0732453795552597,-0.1548908730733045,0.9652113404909806,-0.8026786487187166,0.2338603697514926,-0.4820595660051768,0.9709829405541776,-0.1766006365750533,0.0782524462714636,-0.1409996417250056,1.6899999999995998,8.0,-0.0631717967771294,-0.1955009833308058,0.958550306248262,-0.1659032278695037,-0.2153289712441762,-0.5451486038880096,0.9829632259589112,-0.1012529727198208,0.031802307809371,-0.1500658027195011
26,26,1.7749999999996362,0.0,-0.0147018467835161,-0.074544823391958,0.9768878773977164,-0.0166369809839673,-0.1129717730543365,0.105944562074829,0.9970308185965876,-0.0766773014478967,0.0065319067059361,-0.0027335702060994,1.7749999999996362,1.0,0.0481383948302353,0.1658376997844547,0.9644768282718716,-0.9431472668362676,0.4982005727241805,2.228632117170101,0.9704758404397072,-0.0175227823218509,0.0138484404681244,0.2401620617815104,1.7749999999996362,2.0,-0.0615422787785719,0.3588426604706113,0.909846961279266,-5.358990132612771,-1.2656353946275458,-2.8572201848658394,0.9337851158627886,-0.2997340740847254,-0.1756304617318624,0.0857833500018718,1.77599999999984,3.0,-0.0084503069410937,-0.3081225610118994,0.9303236424535656,0.0692664643339609,0.0572092009762649,0.2920954573269771,0.9306053818442552,-0.2083846446060161,-0.0234008321856894,0.3000031070304935,1.77599999999984,4.0,-0.0234689974600024,-0.3422309733017067,0.9177930960032272,0.2223391074828075,0.0092917546015393,0.0994829959263252,0.9205776085408216,-0.2288887741399327,-0.0194090665953709,0.3158640274863176,1.755999999999858,5.0,0.0230156278108363,0.4882677465047075,0.8477109699654047,0.4683477907478402,-0.1494627574859894,0.2648954890396099,0.8876459374940198,0.3806683284278097,-0.0885331294670235,-0.243594331561954,1.755999999999858,6.0,-0.0984138791667913,0.3375665331925985,0.9149385466006306,-1.285499774025914,0.3340292018868544,0.6083481444921391,0.9524213944097796,0.1716230598310557,0.0127785630137125,-0.2515466579624179,1.756999999999607,7.0,-0.0837627676679792,-0.2341732422398563,0.9477846228819468,-1.0833264899686643,0.2322069655213961,-0.2018032393920119,0.959394244228229,-0.221324714840936,0.092908260463235,-0.1481421947995209,1.756999999999607,8.0,-0.0410394242324045,-0.2219469953898594,0.9538848446726084,-0.6166370267458424,-0.1974696447388712,-0.2154691441606638,0.97790282809441,-0.133992520876337,0.0259295320854567,-0.1583657870879583
27,27,1.8799999999996544,0.0,-0.006483413063022,-0.0706438873923269,0.97737782179112,0.0092861700508905,-0.1793839146206253,0.1079699358806978,0.997385853158203,-0.0721447753247176,-0.0023377825832143,0.0033355787838552,1.8799999999996544,1.0,0.015576403210814,0.1075669016548571,0.9734339922826758,-1.4796520922099508,0.4060673119491872,-0.2410127300143695,0.9697814170559164,-0.0870121675869096,0.0139145372582039,0.2275066405134948,1.8799999999996544,2.0,-0.0479596341027658,0.0988744529322123,0.9740111478079112,-2.245362670909955,-0.4406402128757183,-2.226443586950818,0.9091900684017714,-0.3487565738369551,-0.2252308824694718,-0.0318327081335216,1.8799999999996544,3.0,-0.0114972709834403,-0.2914595265025519,0.9346893372510684,0.4356950457798431,0.0718925710114769,-0.2376489820617422,0.939874139232965,-0.1823436611280127,-0.0172962762856954,0.288250291368759,1.880999999999858,4.0,-0.0202985456410567,-0.3178907595277535,0.9268761697506986,0.5184223416641748,0.0107351395064529,-0.4430144467953985,0.9347275983078271,-0.1973103066568338,-0.0173954125103334,0.2950429790255356,1.8159999999998035,5.0,0.0324273844304938,0.4914035406384564,0.8469457036829373,-0.2640403343069791,-0.263275921007001,-0.8503976822074958,0.885521893094024,0.3562327152464546,-0.0811773896531286,-0.2869833807878403,1.8159999999998035,6.0,-0.1324401617868169,0.3486705255350967,0.9063412537057778,-1.8148527006548123,-0.1791214130308127,-1.2007801515045733,0.948027671577232,0.0838884407982655,0.0326903382927976,-0.3051845428697042,1.8159999999998035,7.0,-0.0931598595557107,-0.2863218830198458,0.9324805734553026,-0.5931441767486009,0.2176552569049551,-0.2768004571030821,0.9515960990707164,-0.241111065903186,0.1020433121463778,-0.1609890697489161,1.8159999999998035,8.0,-0.021508708118998,-0.2731859817107327,0.940880329729448,-0.9489004540916152,-0.2426424151080373,-0.4947788604931938,0.9666090804603508,-0.1825554232502106,0.0178962793349956,-0.1789416837952957
28,28,1.914999999999964,0.0,0.004264532548296,-0.0694323237405619,0.9772604392802006,0.0411615781548296,-0.2064271180718989,0.4814703147994614,0.9973353718515264,-0.0664260228736464,-0.0110204532416198,0.0280764874818153,1.9159999999997128,1.0,-0.0089013202062696,0.0187916804357225,0.980127358686098,-1.1524426071659268,0.0567584658417546,-4.2073290672969685,0.9902930602579354,-0.1359656899463813,-0.0258251018057354,0.012886042026212,1.9159999999997128,2.0,-0.0599081413233472,0.0017919274725162,0.976877578614186,-0.8894261673176549,0.3102044684511795,-4.624446115372264,0.8847993976751013,-0.3008595248709341,-0.2539882089287018,-0.2492058624779993,1.9159999999997128,3.0,-0.0163570095771201,-0.2578505280558212,0.9452637480719484,0.7530634034868691,0.252404956138857,-0.6661499683493768,0.9564421749448436,-0.1438466553044938,-0.0004912667151377,0.254020204711164,1.9159999999997128,4.0,-0.0094033089421706,-0.2768752412239052,0.939991850272194,0.9717126412799868,0.0422968207563536,-0.8339231864762823,0.9562174846257782,-0.14439174620531,-0.0091026271392921,0.2543939620016441,1.8909999999996217,5.0,0.0241343883338057,0.4788898446447968,0.854404499049388,-0.5956867303255413,-0.1702972396840509,-0.5969306552822982,0.8904281770741365,0.3177471537232937,-0.0712132699898089,-0.3179671019941125,1.8909999999996217,6.0,-0.0908801445788776,0.3092600669441984,0.9253302169036696,-0.8306165018113796,-0.6237677347643065,0.4687689417512079,0.9582599470308142,0.0436389077978839,0.0108762405612976,-0.2823388514426618,1.8909999999996217,7.0,-0.0984043764469577,-0.3241370938988428,0.9183205992761452,-0.1450818795082091,0.058321496658525,-0.0747151714066464,0.9512599759044248,-0.2396964743646126,0.1027293667514274,-0.1646108612040472,1.8909999999996217,8.0,0.0040346258557045,-0.3808648334899745,0.9033729575346264,-2.091673651220725,0.0478745106776413,-0.4350930227561344,0.9389482025910988,-0.2810995209413261,0.0341462121253412,-0.1954312369479182
29,29,1.9719999999997528,0.0,0.0165849112415703,-0.0606232297521904,0.9780402674397012,0.2579493676056956,-0.2473420361015407,0.7997050139922846,0.9961588414675234,-0.050041664719068,-0.02079663462148,0.0687814971242014,1.9719999999997528,1.0,0.026382276101428,-0.0692098450087187,0.977334626861024,-2.535498913975525,-1.450120495424093,-1.9896150617757105,0.9594557813333384,-0.2424903267739549,-0.1196241645047424,-0.079580803926801,1.9719999999997528,2.0,-0.0189463202115988,-0.1212107670467583,0.9726983020969944,-2.350664418044443,-0.4554615351987374,-0.9221605783142156,0.8418737074542124,-0.3725816702343246,-0.2368531375119901,-0.3103742111603771,1.9719999999997528,3.0,-0.0146759053550999,-0.185497937545749,0.962330573643112,1.3535504851894722,0.0766583254947102,-0.6376812917958556,0.9724437295574906,-0.0735646669529579,0.0163836790037677,0.2206195994981399,1.9719999999997528,4.0,-0.0022754518448198,-0.1922785450574666,0.9613832656279626,1.7249080634102258,-0.3740299060164374,0.8261247743664798,0.9544598136897928,-0.0522245982027878,-0.0043493618366229,0.2937007634403034,1.9649999999996908,5.0,0.0240590313895025,0.4348898970602559,0.877031892489389,-1.117922692272551,0.0399274831786855,-0.0330818841933132,0.9101607327680796,0.2566567120189988,-0.0525605559811617,-0.3208927556951388,1.9659999999998945,6.0,-0.0557266605329709,0.2441754400484683,0.9474486232946776,-1.4702071289831302,-0.3788765271644661,0.2291055164753523,0.9627107994299552,-0.0239096165175703,0.0117818223578087,-0.2692163359843686,1.9659999999998945,7.0,-0.1132921417420938,-0.275473749815833,0.932576594056431,1.4019581130514684,-0.2306272165272764,1.3211234315238691,0.9787199076828086,-0.1541980327641825,0.0875016376228584,-0.1033139507052598,1.9659999999998945,8.0,-0.0417110826256708,-0.5953176558461648,0.7773320231561425,-5.278890173224002,0.3008875437179844,2.2136207073324217,0.8540762325721012,-0.4928744467322734,0.1552140774726396,-0.0594740184292201
30,30,2.043999999999869,0.0,0.0272980526942949,-0.0425186788277911,0.9787139409806314,0.3499806411402389,-0.1829970384146382,0.560411080454765,0.9944336188001692,-0.029634983486761,-0.0273083856318514,0.0973539810584104,2.044999999999618,1.0,0.136520111525234,-0.1851705329422777,0.9529056264284576,-1.5671354229479657,-1.072613562065906,-3.666610670556677,0.9056399791096356,-0.2784673378882425,-0.2056151528259017,-0.2449379082463866,2.044999999999618,2.0,0.0013603366342874,-0.2266565064583823,0.9530556004579808,-1.2121262208051384,0.1045867000018321,-2.5828049985642143,0.7912083927625031,-0.3656289882901219,-0.2379636367827975,-0.4285767489181181,2.044999999999618,3.0,-3.03525938417204e-05,-0.0921833948189585,0.9750939548568498,1.3732554935695018,-0.2571640082496777,-1.1671637303761877,0.9868695966423984,-0.000854214488781,0.0159709294531809,0.1607252281158082,2.044999999999618,4.0,0.0182696308232934,-0.0712204779821542,0.977158054823054,1.7620045050514557,-0.1761789523787663,-0.8393511467097005,0.967381153262756,0.0380134073879985,0.0129735869879687,0.2501207132794878,2.053999999999633,5.0,0.0486564998549879,0.3587500453135741,0.9093689845213382,-0.675308511798296,0.4168078981649224,2.187953730230404,0.952241871914122,0.2150934472270785,-0.0484387717676473,-0.2112437258786697,2.053999999999633,6.0,0.0069114219479993,0.2286192252840728,0.9534880607942436,-0.0917882308361439,-0.0798517882955086,3.900383062108049,0.9974537435619552,-0.012927001124315,0.0067470233026505,-0.0698097398127699,2.0549999999998363,7.0,-0.0833959763384845,-0.0911022782732032,0.972065577018332,2.6823025051185376,-1.2664337076708527,1.911582199580449,0.9999585441463178,-0.0044503344779743,0.0054300005979811,-0.0057982415710917,2.0549999999998363,8.0,-0.1344703071128244,-0.8874075662269002,0.3933682090716434,-5.977680375376071,0.169072488141941,-1.3188076016903811,0.6917635342555971,-0.7069788465514812,0.1274181477860959,-0.0735441283699987
31,31,2.099,0.0,0.5394151046222302,-0.3401583944249669,0.9241637363625652,3.4911334935064664,0.2997730976641944,5.714220842067005,0.9233638957020494,0.1147554831797854,-0.0500750056755673,0.3629363429042353,2.1539999999999964,1.0,0.218669751995144,-0.2166105676445159,0.9304565554323871,-0.6931747490560899,-0.5248670283554301,-2.2169774344188857,0.865633711828801,-0.2779053511745476,-0.2384186898633021,-0.3414724308899772,2.1539999999999964,2.0,0.0414451515557513,-0.2573519873486272,0.9436218808507106,-0.2601716048327667,0.2047077351225768,-3.4208611759077474,0.726334853965321,-0.3093689987327145,-0.2550550799409113,-0.5582789703496172,2.1539999999999964,3.0,0.0034321492468879,-0.0124123320664458,0.9795198590963938,1.4404552955599284,0.1301304569122613,-1.718411115784624,0.9943845251366952,0.0678471492875101,0.0377910610512356,0.0718889157440121,2.1539999999999964,4.0,0.0330491135445072,0.0200402873885464,0.9789014980963644,1.5108678104620663,-0.0723276430248306,-1.6235041186876735,0.9794166417312056,0.1092177213239792,0.0343120548144795,0.1662444409391581,2.1149999999997817,5.0,0.0704780813082453,0.3136129023949769,0.926145662143114,-0.8201944060200029,0.4244762063335752,1.5226207711923547,0.976051628162348,0.1685998118435343,-0.0338755933480448,-0.1332282506950832,2.1149999999997817,6.0,0.0459508980925671,0.1487823082597165,0.9673439614291274,-1.8043007667786093,0.5772761093936707,4.6901143197257,0.9805721410767232,-0.0889585220523117,0.0583341360840158,0.1648083312997574,2.1149999999997817,7.0,0.000891790502158,0.0577944434484698,0.978872824740876,1.8863957616681688,-1.1567035637828305,1.5303625667849758,0.9913761061713892,0.09254047758764,-0.060184298454555,0.0706224209429178,2.1149999999997817,8.0,-0.0952263201405094,-0.9520687294682612,0.2100192427402489,1.7822072598038368,-0.495837057470027,-2.3363905452300706,0.7524181876525329,-0.6418007913654153,0.0255739613169838,-0.1459609111884469
32,32,2.1539999999999964,0.0,0.0313911705008669,-0.0367573681781347,0.9784822381112508,0.098900841216003,-0.0346528374995817,0.1276933249359487,0.921710750486733,0.107208384680262,-0.0478066286286091,0.3696893032677554,2.1809999999995853,1.0,0.22245616046689,-0.2180447360658868,0.9275229106303988,-0.188444058431841,0.4776342169897514,-0.4848134876903697,0.8675515391424162,-0.2597527799311325,-0.2045938022034333,-0.3715160781845326,2.1809999999995853,2.0,0.0777855297837563,-0.2500057604659992,0.9448092564587192,0.0426906957590786,-0.1734861730351771,-1.3568216425743294,0.6992624029240829,-0.2802157973310051,-0.2562085690193271,-0.6056965972696687,2.1809999999995853,3.0,-0.0411645939143688,0.0594397158570752,0.977193121336154,1.0618209503824323,0.817995950422347,-2.177286919109371,0.9890924578264652,0.1089211475183194,0.0921250899522173,-0.0366778038517966,2.181999999999789,4.0,0.0231052815849653,0.1186036321462339,0.9720176564263636,1.278302113118624,0.1915395338948796,-2.150539223323336,0.9829462565436412,0.1612227896763172,0.0677600064092457,0.0568546424423498,2.20699999999988,5.0,0.0699128441624434,0.2614250206254957,0.941865251940041,-0.825955926447959,0.1925628440132739,0.2129554135672183,0.9844414648809108,0.1247117139609511,-0.0221181325266894,-0.1217898962869253,2.20699999999988,6.0,0.0285706904442327,0.0248737465967138,0.9796157473100268,-1.5808329252953823,0.4660155444845759,-1.500487340812395,0.98101391202781,-0.1640052694889136,0.0486653541009877,0.0913545800602599,2.20699999999988,7.0,0.0128658960246114,0.1509074986553192,0.9680756145927234,1.0238635859510885,-0.0026943057878058,-1.7475039905399383,0.9883960330000452,0.1464439159697921,-0.037741287588696,-0.0142497942565289,2.207999999999629,8.0,0.0026739396011341,-0.8973723215674168,0.3948376457883847,-0.0861548176532382,-0.1934144305770885,-1.487561629968328,0.7457260345279921,-0.6376443859825862,-0.0237051120450172,-0.1916778185262436
33,33,2.1809999999995853,0.0,0.0234775556125541,-0.0291849740087595,0.9794988727275636,0.1598439120328293,0.1994632769970445,-0.0505499026114051,0.923369213785287,0.0995047432868629,-0.0323157575317689,0.3693829894731273,2.289999999999964,1.0,0.1963338645291238,-0.2262015814663096,0.932223073186456,-0.0313954943643485,0.4599129967445871,0.1512148572317936,0.8804619618901749,-0.2433224540501624,-0.166849692625648,-0.3711362244381945,2.236,2.0,0.1171696001278894,-0.2346218117377102,0.9378645372668618,-0.3706184132051562,-1.0129867671360833,-1.063369395665519,0.6598498365017823,-0.2968179307765662,-0.2696613026573363,-0.6354369292756262,2.236,3.0,0.0001842042754187,0.0584167236743162,0.9838437134341732,1.134525924880719,1.7798048505302526,0.1510595850518062,0.9727734636248182,0.1599442164593686,0.1659817070808848,-0.0240771469050766,2.2909999999997126,4.0,-0.0419163860303158,0.191226542245963,0.9601814547900884,1.4802960264520304,0.0254203894613875,-3.0219373098023152,0.9667984099776044,0.2140214521396991,0.1005363656347664,-0.0968921651824484,2.2799999999997453,5.0,0.0840820084206397,0.2343098062458119,0.9475221003000414,-0.4966409133078334,-0.0053888548065066,1.4896557111201352,0.9936921663145516,0.0969802338453422,-0.0300428683421081,-0.0476249819965861,2.2799999999997453,6.0,0.001881731531187,-0.1124705276610232,0.9725270379244452,-1.5269564168710574,0.1397242756985236,-1.3158017859269584,0.9721606088730552,-0.2309831831314018,0.0277165294232969,0.0279698706250692,2.2799999999997453,7.0,0.0094842145149865,0.2191465866688134,0.9540402628958812,0.9306251544329824,-0.184923171469507,-0.5978850365549798,0.980142967845572,0.1895140661666003,-0.0386684919989139,-0.0436912924323078,2.280999999999949,8.0,-0.0530341055879368,-0.8165089243789723,0.5389893877007053,3.2776363100629675,-0.2382456004546594,1.6366063161897997,0.8730993494638822,-0.4765649844630988,-0.0156065104604036,-0.1016847008191567
34,34,2.289999999999964,0.0,0.0082677816540215,-0.0189074312508532,0.9793120814275784,0.1710913719087724,0.2751057683869924,-0.1803195519125047,0.9271496713150336,0.092031693429083,-0.0130960049738049,0.362976788567433,2.3209999999999127,1.0,0.1645632434926734,-0.2320111037419668,0.9376890671387852,0.0022997475448303,0.303417261912501,0.9329573898781924,0.9041649180948076,-0.2354006795232906,-0.1287961625555655,-0.3323911392885547,2.2909999999997126,2.0,0.0929209640512802,-0.2482879927750486,0.9425803769883596,-0.0426775106437703,-0.0018082944795271,-0.0631747972803242,0.6696912062458591,-0.2836809674253737,-0.2412317216637875,-0.642530974709154,2.2909999999997126,3.0,-0.0979841733100092,0.1102319191921139,0.9683790713207184,0.3996579538410865,0.8968371930250753,-0.2010436753725545,0.9648884198081928,0.1687049300858749,0.1990907395148057,-0.0298640473515616,2.3209999999999127,4.0,-0.0629195195981186,0.2415773954381253,0.9471945397155084,0.7198677508808891,0.045278086526355,-1.5685756296773226,0.9508642521120676,0.2315205454575445,0.1093100619379412,-0.1740882576325101,2.3840000000000146,5.0,0.089604490774463,0.1253043948819208,0.9673292324003884,-1.9320097238984013,0.3321599198577691,1.1878840471493792,0.9998697239225056,-0.004755395892877,-0.0102057876866797,0.0115656081002438,2.3840000000000146,6.0,0.0331237255275693,-0.1787529828575337,0.9627508451965692,-1.1959275838314825,-0.2649083954758044,-2.23336967691197,0.9578895904692964,-0.2758472444768761,-0.0222250871240416,-0.0765628871412717,2.3840000000000146,7.0,0.0276721289259567,0.2655329178470636,0.9432001499259476,0.4172041613286099,-0.1718586987070719,0.3184527415594172,0.9773835322300658,0.2035588149768726,-0.0494037805628875,-0.0290603894809634,2.3849999999997635,8.0,-0.1050396955422326,-0.5649212929414985,0.7943774890703414,6.0282241304248805,-0.0456126805481311,1.661188494929072,0.9896704097978188,-0.1406847622863513,-0.0275593860689152,0.000870557611354
35,35,2.3179999999997563,0.0,-0.0043859989150629,-0.0138787188235605,0.9800827231297028,0.0184557254936517,0.1885136152256236,-0.2481001854481277,0.932407689647494,0.0797262337228766,-0.0017087731574925,0.3525006496971087,2.375999999999749,1.0,0.1261059188581598,-0.235126922733641,0.9417295935855192,0.1496831686498191,0.3190245634671174,0.8939394381970912,0.9256403374704189,-0.218939161481125,-0.0958068103799937,-0.293388248405424,2.3209999999999127,2.0,0.078828566907872,-0.2471239730985782,0.945588599211742,0.1582703833176055,0.2490176639730424,0.3622404017497503,0.697571388274771,-0.2610893779706921,-0.2059034559315782,-0.6346891064188186,2.3209999999999127,3.0,-0.1345390680707734,0.1222951901518699,0.9627918391990896,0.1704285017574335,0.5218618431956179,-0.0302221761854551,0.9625134396155643,0.1673874740763012,0.2114997887681926,-0.0285858607143568,2.3769999999999527,4.0,-0.0908256606126383,0.2666526102831338,0.9386224399637316,0.2351964103374151,0.1446600615661913,0.1341297631260169,0.9516278780009894,0.236133188137278,0.1040507078933418,-0.1667901359743835,2.4209999999998217,5.0,0.0876913334886203,0.0351322962416699,0.97547370635593,-1.2605288474022396,-0.0674186142804096,0.3179706818105533,0.9973600039984534,-0.0654173859316225,-0.0166675144992377,0.026754102535798,2.4209999999998217,6.0,0.0620148238328268,-0.2102845424672959,0.9549364234462434,-0.8500458058010878,-0.1832255758534472,-0.1402244419282464,0.9496330182255652,-0.3008651573678794,-0.0298826965411656,-0.0823669364808071,2.422000000000025,7.0,0.0368976801103301,0.2352079294958162,0.9504997586032136,-0.786352538601279,0.1093682551239945,0.3959502230968082,0.9868494384061886,0.155392725778185,-0.0432331301272851,-0.0105916548288435,2.422000000000025,8.0,-0.0058232836464388,0.2222362034487374,0.9542154679338752,5.85647468202831,-0.2757963524387591,-0.9952255994437476,0.9825078698324904,0.1793650428151415,-0.0275727210677681,-0.04178770376634
36,36,2.375999999999749,0.0,-0.0078497231798515,-0.0211513530589589,0.9797489485116966,-0.0957966347415062,0.1401634992321546,-0.2710439705178645,0.9380953942071272,0.0636721152815502,0.0042228012148263,0.3404483236158574,2.4429999999997563,1.0,0.1011911577096573,-0.2222540623994298,0.9496380791376942,0.2075772296980053,0.1704208149058012,0.7508626847201372,0.9418751919061246,-0.2007549044363804,-0.0752352932420044,-0.2586662750868967,2.375999999999749,2.0,0.0572216037609665,-0.2360989137045872,0.9491364448858428,0.2257013553318936,0.2042862576468452,0.8682754435921018,0.7390596841612993,-0.2422838785566548,-0.1699450381825436,-0.6051512120421462,2.3769999999999527,3.0,-0.1560942470071665,0.1302428710475913,0.958643510692346,0.1107462981243352,0.2018119807843421,0.1272493933000352,0.964067039837266,0.1648789046592007,0.2071455414311908,-0.0219183521956421,2.44399999999996,4.0,-0.1045126454104233,0.2364964426678638,0.9457127151279932,-0.9458157253418752,0.0863100673371682,0.3761630664284799,0.9672350977482688,0.1821041799784943,0.1054429303183928,-0.1420426758552779,2.524999999999636,5.0,0.0828446272635429,-0.04850072018537,0.9756410445830296,-1.017833747572691,0.1424835710848386,-0.0127979399973529,0.993320018800566,-0.1119382419070069,-0.013637667703339,0.0244782407134463,2.52599999999984,6.0,0.0690097647930476,-0.2827284840215285,0.9360434053429876,-1.2667008881131163,-0.1145218889320752,0.4053529033360625,0.9356643205250942,-0.3463944051096859,-0.0223331503559029,-0.063595800177379,2.52599999999984,7.0,0.1228596283864488,0.1834163484355053,0.955208854041528,-0.0414570698552626,-0.716440330697379,0.4661544364790988,0.9857375183260898,0.1457029897611395,-0.083893896638089,0.0073483226565456,2.52599999999984,8.0,-0.0010043666962478,0.4010724531864902,0.8944461294804231,0.840414846274618,0.7778412168007525,1.3178009762177507,0.9744600900212314,0.2223690210002583,-0.0041175113991874,0.0310257563175806
37,37,2.4429999999997563,0.0,-0.0132135657936808,-0.0272459385322336,0.9794570233106268,-0.0844232173864048,0.1077883518418375,-0.1987098534324126,0.9420969596270448,0.0499222319316738,0.0081079910074342,0.33150467553605,2.5099999999997635,1.0,0.0813309555956942,-0.2124469572116839,0.9532977321033488,0.2470164312078108,0.1892130334142518,0.7067896061774812,0.955660624761203,-0.1806096954974215,-0.0566193646328458,-0.2255818160267548,2.4429999999997563,2.0,0.0252139798290775,-0.2286498150394632,0.9528811664124746,0.105123729029321,0.1567035380365534,1.457540898258824,0.7924449459662264,-0.2329431441790403,-0.126861711422231,-0.5492491286907882,2.44399999999996,3.0,-0.1614235641725325,0.1300009881570961,0.9579087513996386,-0.0671236992980343,-0.0877485024660741,-0.5310831192499297,0.9687065337059332,0.1466140706911878,0.1945601992782652,-0.0475215181533262,2.510999999999968,4.0,-0.10105719604477,0.1709599270463275,0.95938842314877,-1.435271535977625,0.1494534976810019,0.6996546564909856,0.9830879440741505,0.1068549514403772,0.1121678116782156,-0.0976652220191765,2.549999999999727,5.0,0.0613815988348547,-0.1241755763789203,0.970014806874328,-1.31694055193062,0.388951421051683,0.6702164210024174,0.9834802394935052,-0.1725097689468047,0.0077675138417596,0.0542831822246592,2.549999999999727,6.0,0.0615160771101403,-0.3918141278484831,0.8958791556205064,-2.288238085286037,-0.1155906362995057,0.7584681541666544,0.8994775757160629,-0.4360577655100516,-0.0033103480130807,-0.0279778040304764,2.550999999999931,7.0,0.1053326827592074,0.1898813111147414,0.9553110036171966,-0.2430460267133062,0.3194497777706879,-0.5229512881766372,0.9893286123714612,0.1308900422000274,-0.0616622697075449,-0.0171597811917258,2.550999999999931,8.0,0.0192723014435668,0.4025362936876621,0.8936012033682967,0.4196028239028324,0.3774525545426755,1.415360295909135,0.9652236299722172,0.2399169291603951,-0.0021468539163732,0.103820047504149
38,38,2.5099999999997635,0.0,-0.0223776451055912,-0.0309844264812605,0.9792487969434304,-0.0676915586009773,0.1456146923772765,-0.0367351750936024,0.943085273441324,0.0374573113142419,0.0136666132320977,0.3301519961017581,2.565,1.0,0.0751396194841824,-0.2108753149754374,0.9537419143131868,0.2440115781604244,0.2323644901547665,0.5633047356367882,0.9657650412193046,-0.1610742747366016,-0.0392204741908795,-0.1995362563069563,2.510999999999968,2.0,0.0016167042207301,-0.2231609156692324,0.953901248549939,0.1172633649763128,-0.0133023499877285,1.251170024370906,0.8331925331303376,-0.2234259326040399,-0.0976555566628997,-0.4963209119397706,2.510999999999968,3.0,-0.1517495423637521,0.1069259423873275,0.9620264649358528,-0.3194340609708447,-0.3512985404982461,-0.5677870992551246,0.975830942678881,0.1159389154112727,0.1696056452612385,-0.0744719027501192,2.566,4.0,-0.101075506676166,0.1434221560456937,0.9659207147097328,-1.2361349430431767,-0.0732725107624584,0.4960658375704548,0.9911310719624502,0.0448716089544216,0.1064376425051027,-0.0657020940180865,2.6239999999997963,5.0,0.0387781801094411,-0.1712551093630615,0.9643049000520768,-0.0368285482547494,0.0912254473090967,0.6360898869701799,0.9824535186270648,-0.1657636337017054,0.0142434447849731,0.0842889420977859,2.6239999999997963,6.0,0.0498169238254285,-0.6008079338369333,0.7726325780985206,-3.605579613372244,-0.4342476078110789,1.0645169295015455,0.820217995521089,-0.5711215639354154,0.0130598498117214,0.0298670278773674,2.625,7.0,0.0851590332834099,0.190213711731661,0.9579403336949016,0.1199187222095425,0.5589009665910829,0.6833443536568193,0.990391141291106,0.1316681829445732,-0.0368992752465596,0.0206717279987309,2.625,8.0,-0.0142624606098421,0.3080647539215023,0.9287942127342508,-1.385017583691909,0.3923913125056791,-0.5843300577940327,0.9837034629108103,0.1608054257284404,0.0172055015506643,0.0785689686197113
39,39,2.619999999999891,0.0,-0.0258704569202476,-0.026426300760959,0.9790946686030054,0.1468055487291741,0.07925145638764,-0.0987218749245663,0.9445818954421308,0.0375655011108487,0.0194577644604779,0.3255384329559924,2.619999999999891,1.0,0.0589640526657861,-0.1940183448835816,0.9590516786606766,0.374103388220974,0.2994111896845968,0.2297449564969435,0.972273328320463,-0.1345358744647813,-0.0238851288923418,-0.1897740080633858,2.619999999999891,2.0,-0.0042772454729025,-0.2003861456390052,0.9596953150907366,0.3103688841064812,0.1252101623702295,0.1726168427876744,0.8461754068202777,-0.1951443255743938,-0.0837030015222309,-0.4887736496833907,2.62099999999964,3.0,-0.12078238252658,0.0717477187288858,0.9694781487627268,-0.6499950643542778,-0.7192875858113831,0.0905683895723943,0.9869996788880828,0.0743838962770099,0.1249330382870172,-0.0684865373182704,2.62099999999964,4.0,-0.0977751864026087,0.0904899811154498,0.9704254614557783,-1.072204637833874,-0.1646121474058773,1.5320389220651278,0.9953030235907376,-0.0006643110367714,0.0953850798581197,0.0165268406673018,2.688,5.0,0.0624133342103209,-0.0943504767578977,0.9781633622500424,1.6881687814060031,-0.5082622967845304,-0.8211984191850369,0.9966644940475576,-0.0671849902929838,-0.0117232523116126,0.0448177279599939,2.688,6.0,0.0560497409837462,-0.6041805489979603,0.7113889869460858,-4.873129098863273,-0.1160110557388488,1.8512640894861985,0.6868059691039071,-0.7156304769126114,0.0632568298877476,0.110313892097161,2.688,7.0,0.1393813975964357,0.1535486850337627,0.9617627708164144,0.6990180558115564,-1.5517146976994467,3.24915167623572,0.9635039135929436,0.1538392742157329,-0.1384746746990942,0.1697599795795177,2.689,8.0,-0.1162423244797405,0.0777650619529448,0.9063853028039462,-3.806181089128134,1.6794215437162603,-2.303236020905403,0.9946241938102658,-0.0535513312235656,0.0840901209623863,-0.0279967778144922
40,40,2.6539999999999964,0.0,-0.0319161515668699,-0.0124102700540257,0.9791161036702168,0.2204410194616332,0.033934067366485,-0.0422531562936182,0.9450111554837822,0.0425103826988676,0.0241317150441146,0.3233642585429506,2.6539999999999964,1.0,0.0351437591109061,-0.1688202065251773,0.9633699466271258,0.5983937126866588,0.4276232873612537,0.3558313867112039,0.9799629079656528,-0.0968424602772962,-0.0045952112688626,-0.1739917266203662,2.6539999999999964,2.0,-0.0069301604899747,-0.173376572943794,0.9647396212604976,0.5240011496911473,0.053317249103754,0.4772664285610161,0.8664565323447196,-0.1615283686180918,-0.0773988432949857,-0.4660161829221598,2.6549999999997453,3.0,-0.0731529608455052,0.0305570393984295,0.9764614235404996,-0.5937704738114435,-0.7427103127204112,1.3088172904851365,0.9959755118389484,0.0445468012672138,0.0777310769025345,-0.0024983990026218,2.6549999999997453,4.0,-0.0807085974364486,0.0304547218623576,0.9759480684012486,-0.9702264862414364,-0.0424594785707175,1.4400985648858706,0.9908354863214326,-0.0403145588978887,0.0896768914707522,0.0926165780148546,2.7519999999999527,5.0,0.0351149352533942,-0.0617297631658778,0.9773348339548912,2.5687207424702976,-0.0382572444587205,-1.149254798059629,0.9977241876982064,0.0660456889801483,-0.004754509489285,-0.0127203336673446,2.7519999999999527,6.0,-0.0104952902412351,-0.7975011052373338,0.5689778871168748,-5.158534720847216,0.3312733092710307,1.9797154993404256,0.5145673527555978,-0.8309856371913056,0.1174470642743644,0.175754082038482,2.7519999999999527,7.0,0.0774887947499861,0.1516710430698975,0.9651949965588736,-0.5188308976855811,0.43578028994954,-0.4869445652094827,0.9760974113580656,0.1210612362546749,-0.1073722533113017,0.1450834926358845,2.7529999999997017,8.0,-0.069262401913492,0.2094165575592325,0.9552808095535126,-2.3542805643014,0.3833621071141225,-3.028532114631006,0.96938276735125,-0.1634439847591229,0.0754504446316831,-0.1670040257400209
41,41,2.7049999999999272,0.0,-0.0446109574095125,0.0010932803338646,0.9784118086046992,0.2043294590957497,0.334867757885631,0.1136259824074396,0.9424329296707068,0.0419461528263118,0.0427332266054414,0.3289902197319062,2.705999999999676,1.0,-0.0017612320309478,-0.120433665192507,0.9711650891326522,0.9087743750085496,0.3724537237672914,2.5830256486541234,0.9979212584597816,-0.0443011741395406,0.0135668817655886,-0.0447940576757973,2.705999999999676,2.0,-0.0152707453705977,-0.1213127733037349,0.9720056663256564,1.1339859043185143,-0.023407021905516,1.9097461751719933,0.9189132037459896,-0.1057580592583862,-0.0826047463694768,-0.3709315472704032,2.705999999999676,3.0,-0.0094083577510034,0.0085129699474814,0.9800229651120952,-0.29710933182678,-1.0288067788487794,1.83354417394382,0.9955352473336032,0.0324547865112833,0.0158721675566407,0.0872028236124381,2.705999999999676,4.0,-0.0333238476249245,-0.0073755694612583,0.9788728835526056,-1.387333722715808,-0.3520721137550449,-4.618675120643376,0.9832418956118882,-0.1224897330585549,0.0281054350070495,-0.132067121312797,2.7829999999999018,5.0,0.0273472437221115,0.155132950623265,0.9667884442274448,4.141844113065512,0.0730047041486827,-2.2436823977030134,0.9561585955777488,0.2641170844468472,0.0249260599148602,-0.1240225678786126,2.7829999999999018,6.0,-0.0884042616281119,-0.8512992030697125,0.4784353178631993,-1.0760069052899923,-0.337604833132909,-1.562938370757721,0.5183445661257232,-0.8413498523113375,0.0214033851004327,0.1516285985224048,2.7839999999996508,7.0,0.0171483500969043,0.1682790241875182,0.9656485406748412,0.2103212862155928,0.6029168288498591,-1.312315100476864,0.98630897510445,0.1303675161491298,-0.0562026931988057,0.0839057425848594,2.7839999999996508,8.0,-0.0939601724172246,0.0773155558481833,0.9728405783185712,-1.169575877922408,-0.1605340050062826,-1.7184122678158755,0.9463987170100226,-0.2063076855360148,0.0564999991878343,-0.2420213986868317
42,42,2.7839999999996508,0.0,-0.0591913378262619,0.0098594995060287,0.9776595398173272,0.0934107437438229,0.1411114709432742,0.2897994770955637,0.937361636232808,0.0399423232369895,0.0490520239364558,0.3425663040655368,2.7839999999996508,1.0,-0.0208630384701682,-0.0531990914460714,0.9780667616758606,1.0601113764629118,-0.2212262026342393,3.1254615231862286,0.9937284771040208,0.0123359483137632,-0.0020515205864404,0.1111185377648892,2.7849999999998545,2.0,-0.010052045580885,-0.0533783958476325,0.9781445206289164,1.2757604182929267,-0.2073202141460006,2.512034569528727,0.9646398127691684,-0.0491792386122659,-0.0990447487394584,-0.2392521094103855,2.7849999999998545,3.0,0.0191533046666093,-0.0436653765607528,0.9792157503891344,-1.1911496372727943,0.0194175324789938,1.2049167822790046,0.9885669618124192,-0.0310048497827759,0.010735923568019,0.1471692945150312,2.7849999999998545,4.0,-0.0224116479283352,-0.1112980362043959,0.9735771490612244,-1.0993065983855537,-0.3194058981773282,0.0119396575323677,0.976722653896783,-0.1714442460506713,0.0189207621488811,-0.127521498660607,2.8789999999999054,5.0,-0.0239996126819352,0.3140814125382093,0.9278027187334172,1.7549800263064117,0.0086269780282032,-1.3298688071522944,0.9235304757710572,0.332807518232334,0.0333485586400856,-0.1876658993177715,2.8789999999999054,6.0,-0.0673576546238009,-0.8751447867894653,0.435175307799974,-0.0981147717535927,-0.4029078130531844,-0.0518158064547906,0.5483923574374024,-0.819230618813495,0.0013502498553883,0.167705671722916,2.8789999999999054,7.0,-0.0046425347844541,0.1614863634316793,0.9655177892179856,-0.092344065719927,0.7169682643239103,1.4011193940411557,0.980937723573466,0.1137770542983685,-0.0227986497410483,0.1558723386482579,2.8799999999996544,8.0,-0.0840067191521325,0.0477981093920176,0.9747508460503346,-0.580963599200571,-0.0520091085079017,3.010765495620437,0.9712517369475938,-0.2011838905745962,0.088895047973887,-0.0910646808333029
43,43,2.8399999999996908,0.0,-0.0579439839601467,0.0169613069684128,0.9777514043910904,0.0597069005780606,-0.0381373348263711,0.2186928053019084,0.933833490256772,0.0397501659096225,0.0460366027089266,0.3524990326171597,2.8399999999996908,1.0,-0.0052101987870761,0.0135620281418405,0.9802897149421078,1.1448009823856578,-0.430345960203903,2.7813910365930474,0.9668801001130184,0.0690672998014129,-0.025616855126288,0.2443693042037401,2.8399999999996908,2.0,-0.0121149299734247,0.0432709365071593,0.9789514055996512,1.3443124620658318,-0.2026161792075714,2.8395937186940228,0.989448141764477,0.0088691105196389,-0.1148123284553742,-0.0879308982785285,2.8409999999998945,3.0,0.0056790598338968,-0.1202627258657867,0.972868246499357,-1.2928950359879383,0.2414277141560773,1.3579118960763898,0.9721152309647876,-0.0976389990922008,0.0173418315085679,0.2125037987012924,2.8409999999998945,4.0,-0.0002742317987542,-0.1687493717699043,0.964900810614326,-0.87452430999991,-0.4529198921159875,1.9534321366216016,0.9780175903722672,-0.2057848065407646,0.0215663792769462,-0.0258669210438218,2.9539999999997235,5.0,0.0094679954121937,0.4428315988264607,0.8738647104350165,1.537853928800932,-0.5354927913828376,-1.243131883635781,0.8883971805997437,0.383172582799746,0.0111771855439027,-0.2525951143951827,2.9539999999997235,6.0,-0.0242556766234909,-0.813124127865579,0.5442883563281303,2.825225113778306,-0.0158273926288204,-1.2031788664844745,0.7100155565814348,-0.6919701948869073,-0.0234156492391013,0.1284790495421041,2.9549999999999272,7.0,-0.0440358831098161,0.0808210675278998,0.9758267243944436,-1.702392466431392,0.4179392040749765,-1.269075012994487,0.9956706250678492,0.0188502409134241,-0.0087132779955809,0.0906021720549563,2.9549999999999272,8.0,-0.0718765886743774,-0.0194056837534228,0.97662437786418,-0.6672694758793122,-0.3231818747613039,-1.2550503806723,0.9626407883414324,-0.2214522207737957,0.0574946004542043,-0.1448309271335064
44,44,2.9459999999999127,0.0,-0.0591970544349875,0.0149217268229628,0.9782709495915956,-0.0632352965234772,-0.0412693033033621,0.0630641438258529,0.9331913783361936,0.0333575230972501,0.04138694849629,0.3554268525955479,2.9459999999999127,1.0,0.0308658566837815,0.0908845651217604,0.9754169850447576,1.2019719170872032,-0.338532346129009,1.6934830035048518,0.9375270791117948,0.1250836164540938,-0.0352408825192499,0.3227307624415993,2.9459999999999127,2.0,0.0131554663703153,0.1351652715637529,0.9710243473094154,1.4053783643284872,-0.2181089900741737,1.8649388378840093,0.989089380279318,0.0726086654356424,-0.1275177332892091,0.0130156528500195,2.9459999999999127,3.0,-0.0189376834237626,-0.1838703191866248,0.9627642857256132,-0.8659845931070063,-0.0430312996656776,2.033618214781458,0.9415395797446972,-0.1353396367166571,0.0171271118641273,0.308047179092385,2.9469999999996617,4.0,0.0010813891051088,-0.2155732365211803,0.9558075173869408,-0.8547457381886587,-0.2444239223310569,1.5789867113947458,0.969879183134233,-0.2357910598223535,0.0274731158166371,0.0546092861887959,2.993999999999687,5.0,0.0016615981153234,0.4967087661677647,0.8444315488562706,0.4408213092966495,-0.2292026840848187,-0.6626684430322544,0.8770329440761584,0.3869450279947755,0.0009681876832553,-0.2847557250132797,2.993999999999687,6.0,0.0067971949494463,-0.5041767152012295,0.839839054813312,5.782111930727345,0.0956176533754372,-0.056162174674591,0.9203636179555094,-0.3734215069402857,0.0147668559016223,0.1151917048448903,2.993999999999687,7.0,-0.069820853222604,-0.0540532190994266,0.9760759693590744,-1.6298999014782989,0.2226129932519149,-0.6283053885342611,0.9960157447390128,-0.0680735728407578,-0.0029206094992466,0.0575334246576456,2.993999999999687,8.0,-0.0553161918603344,-0.064751753901499,0.9759263954237276,-0.5264757073987786,-0.0419517778820262,-0.6385147193813018,0.9562514089900274,-0.2302968407706279,0.0496075061455926,-0.1734523083434472
45,45,3.0359999999996035,0.0,-0.0559914071200963,-0.0028160343881767,0.9779616721932596,-0.143287579277328,-0.137547150201983,0.2562809568914648,0.9292837729327292,0.0252126826408466,0.0306085819583587,0.3672316771582508,3.0359999999996035,1.0,0.0589235937687579,0.1887791397817187,0.9593416734827322,0.2600727227408249,-0.1612517910662217,-0.1277809180055405,0.9381372674831808,0.1377498255842808,-0.0339421647487157,0.3158660829574179,3.0359999999996035,2.0,0.0768701897295909,0.2523341604284114,0.9439340259847746,0.6536079482099334,0.1288885662006081,1.2811663871443917,0.9845330786011142,0.1020546797614072,-0.1182094752868858,0.0794101972759676,3.0359999999996035,3.0,-0.0161852692406413,-0.2268651834971796,0.9528715682485228,-0.1234680409607377,-0.2051865491626706,0.6167495467227725,0.9314984505347064,-0.1351927698289823,0.0054055649011053,0.3376452746678222,3.0359999999996035,4.0,-0.0176713121068676,-0.2630634718674475,0.9438486819916984,-0.1177597161365301,-0.1840968831055569,0.5788793307531287,0.9691717891926258,-0.2302774094915419,0.0223632872975769,0.0847245011332335,3.105000000000018,5.0,0.013230307807816,0.4847410104128068,0.8514271030330673,-0.1819962144415543,-0.5666711532708999,0.0046818691212625,0.8863858553858563,0.3568963386375363,-0.029283103489709,-0.293406916566423,3.105000000000018,6.0,0.0502840654850147,0.0973582636130387,0.973572227040476,5.7653782724920095,-0.2319073004050602,1.1473330763478933,0.9868580813534442,-0.0313264267829055,0.0327671346095655,0.1551002809213864,3.105000000000018,7.0,-0.0845006558438579,-0.1472070634784046,0.9657384323014296,-1.1943666213567643,0.2694044605588997,0.2172765635139722,0.9893107809171994,-0.1287979370391112,0.0125377223531675,0.0672166325671359,3.105000000000018,8.0,-0.0525087902228229,-0.1170712308946211,0.9715915571093408,-0.6162499438581928,-0.1157739336052147,-0.583535016019471,0.9481031518402516,-0.2450500128795121,0.0411107342161017,-0.198395595189371
46,46,3.1109999999998763,0.0,-0.0464819882086854,-0.0095594308597116,0.9782740117440544,-0.0626995555875273,-0.1323432127110921,0.2530559290079533,0.9249883939616634,0.021303922387222,0.0220334908303387,0.3787573619204929,3.1109999999998763,1.0,0.0600868596303316,0.1975865771851802,0.9579008893492112,0.0648844069500754,-0.1498134558110357,-0.7010909375180393,0.9486675469479586,0.1411281387710078,-0.0313530848833854,0.2813000495610856,3.1109999999998763,2.0,0.0720591322036496,0.2812597472654529,0.935799891020634,0.1626190626207162,0.0495016679015216,-0.0240030722928801,0.9846647080414592,0.1145452663343351,-0.1059833349750376,0.0779892775039813,3.1119999999996253,3.0,-0.021522629950365,-0.2314639695378927,0.952268453329092,-0.1325267491076531,-0.0832891991893471,0.2541886959084303,0.9266782844001324,-0.1379142737411111,-0.0024180418257149,0.3496300378877911,3.1119999999996253,4.0,-0.0109255448007749,-0.2602826550652276,0.9447214255763454,0.0571729899123303,-0.2728631578720473,0.3991127505541847,0.9703965523545722,-0.2163433575139412,0.0109240803825483,0.1068023750005142,3.1679999999996653,5.0,0.0807688545356374,0.4601826935394256,0.8601123651615525,-0.3913020193725032,-0.2043727215380345,2.287288425585567,0.9263407202077516,0.3168802247864975,-0.0771479924581167,-0.1884886746834559,3.168999999999869,6.0,0.0212000840240912,0.3809955466393318,0.903215893282646,0.4309868088817156,0.24324565098525,-0.6901091417784458,0.9915948491400116,0.009365101024939,0.047324791272374,0.1200512980888447,3.168999999999869,7.0,-0.1013646300194637,-0.2158857631633267,0.950381265095438,-0.8299752750899784,0.078913466402222,0.6050980766209583,0.98075816569431,-0.1678108967170998,0.0218337043647018,0.0973458407978987,3.168999999999869,8.0,-0.0485306677375727,-0.1719730612715703,0.9636565988389378,-1.026469996072434,-0.0816673450381355,0.1977025251500944,0.9411500836269618,-0.2779208684779696,0.0503157090865806,-0.185647085548168
47,47,3.1709999999998217,0.0,-0.0379239314974164,-0.0110781519637084,0.9794794790953244,-0.0736860881774126,-0.2785532188414146,0.1957862533331854,0.9216642863882846,0.0200249983170703,0.0069760886044294,0.387408410887733,3.1709999999998217,1.0,0.0834676117193577,0.1945516936497647,0.9568379153711848,-0.1170915443216673,-0.3828829286186847,0.5415086111772436,0.941421094998618,0.1367986470385299,-0.0528868680230789,0.3036699380095763,3.1709999999998217,2.0,0.0777940793017192,0.2703468574767697,0.938965205893186,-0.5176902366157313,-0.307585136316466,-0.0885784938850875,0.9865962132208348,0.0933944148013397,-0.1152870831079248,0.0679285198623612,3.172000000000025,3.0,-0.017987046645428,-0.2337773296395854,0.9518837251994384,0.0655194281879054,-0.1684123053220159,0.1921160557127217,0.9240998388323188,-0.1297552142964156,-0.0108720964631723,0.3592838289590405,3.172000000000025,4.0,-0.0019019734528434,-0.2555757165523061,0.9459130169343056,0.1500745131858103,-0.180496413587883,0.1824620105041297,0.9728582738892244,-0.1994932496056365,0.0024058147116904,0.1172323945956683,3.2159999999998945,5.0,0.0912519394415538,0.4600420839993854,0.8604041867039335,0.4700110596951846,-0.6990662826861426,-0.9896876516610408,0.908398369111066,0.3265068880679642,-0.0985822315879813,-0.2418412674786153,3.2169999999996435,6.0,0.0184675345943543,0.3996937807339096,0.8944461033559483,1.342615786972374,-0.4535778756917016,1.4548349759375965,0.9768840410928876,0.1002066290471229,0.0226553446913152,0.1874644955983917,3.2169999999996435,7.0,-0.1189346768287566,-0.258059303461203,0.937665685916232,-0.5419756805629212,0.1762150981313857,0.0212629396022751,0.9759851773111056,-0.1921658822134051,0.0305442941299596,0.0979400504301257,3.2169999999996435,8.0,-0.0362630075418271,-0.2601902806375986,0.9442600341779528,-1.6480640665819866,-0.2084525975037828,-0.3763753407284201,0.9179305372877616,-0.3418142957656347,0.0489128389168024,-0.1953818059951933
48,48,3.274999999999636,0.0,-0.0157809924005805,-0.0118726535677518,0.9797224098570538,0.0358111691033217,-0.3576085844499821,0.2570293600367242,0.9166916745580008,0.0258215055196912,-0.0092479354475491,0.3986528556760916,3.274999999999636,1.0,0.1122438026576385,0.1728168426673011,0.9575639235348512,-0.4450954284515128,-0.3079090914813411,1.01591244048639,0.927698239130936,0.1145487299454585,-0.0772203489448767,0.3468307703910861,3.274999999999636,2.0,0.1219605942155864,0.2018353768020833,0.9509858538010658,-1.1652658734189152,-0.5001982187671465,-0.0817852790326389,0.9882228344127794,0.0392336748373323,-0.1377746949960208,0.0538003877558931,3.274999999999636,3.0,0.0015251562352675,-0.2162556511973875,0.9556605920637576,0.4160866863963733,-0.317945978946004,-0.2635386159874927,0.931451894076981,-0.1018407441099426,-0.022514281682988,0.3485956668976775,3.274999999999636,4.0,0.0057333166923171,-0.2329596267027228,0.9523328942162156,0.4916038938289659,-0.1559827789413129,-0.0768786236766685,0.9793695903749192,-0.1663588425050479,-0.0049003164469357,0.1146120755765446,3.273,5.0,0.1803604173212442,0.4029700628062256,0.8770012818380902,2.701094880432992,-1.4395493552286218,1.1361313176760583,0.8671629019370759,0.4044405507830262,-0.2197445873206118,-0.1901805950397825,3.273,6.0,0.1222165506625327,0.7089345443606299,0.8778843469138394,-1.8002986576910356,-0.2991124596595065,19.824993269860183,0.631962733200334,0.0576442368030442,-0.0622174381530981,0.770343583214025,3.273,7.0,-0.2669940617304905,-0.3887189835218673,0.944334010215867,6.170849980481775,-3.008379285031904,-1.276310873494705,0.9873880055354528,0.1341447427899007,-0.0757633962768746,0.0364694706726732,3.273,8.0,-0.1718435112052837,-0.2679835722037441,0.7968755314888014,36.007263393314545,-4.694760927864438,-3.3851981133029527,0.5294497528990563,0.8255579132421276,-0.0921466291349706,-0.1721803989352274
49,49,3.349999999999909,0.0,0.0107624893862519,-0.0047038163260851,0.9794958105751046,0.0721586831030939,-0.3155664950365943,0.3777171612201896,0.9088085688927784,0.0326461133809927,-0.0224498441820981,0.4153278474703742,3.349999999999909,1.0,0.1288682455170101,0.1279316453432317,0.9631269227973752,-0.7113139556667964,-0.0193467059542732,0.2338904634924175,0.927815565972702,0.0779284938317292,-0.087528997040071,0.3541526507948681,3.349999999999909,2.0,0.1242933951333192,0.1385615223301452,0.9611336309045612,-1.072761782920121,-0.1485779409178629,-1.7628734374909665,0.9893297431174712,0.0018967453676024,-0.1394310999677382,-0.0422140983785699,3.349999999999909,3.0,0.0252523427108734,-0.1752135208201575,0.9633133141971084,0.8333540802787165,-0.2535833295349013,-0.6375058527773227,0.9457141771405616,-0.054961566981174,-0.0238251723432054,0.3194311858180733,3.349999999999909,4.0,0.0172939267096475,-0.1994572541903014,0.959036873039732,0.6726043383427855,0.1040326744757242,-1.236082030118871,0.9905937784307072,-0.1263163208451487,-0.0052495598837835,0.0523506957312606,3.3299999999999272,5.0,0.0838448928025225,0.4617739116407685,0.8600348181782627,0.0706689186367914,-0.276164630931778,-1.369079683649806,0.8572991111077647,0.4028373562906544,-0.1929390339703058,-0.255997710226475,3.3299999999999272,6.0,0.0747002536081959,0.3256496416103755,0.920084878166088,-1.7842806299379672,-0.8595992239870114,-0.2398164513558952,0.6454469631999933,0.0422531866125635,-0.1419995521847775,0.749299014477073,3.3299999999999272,7.0,-0.1152911965204938,-0.2588591165107317,0.9379578337026436,0.5373795276068315,-0.1366947028829614,0.0104317910015455,0.987558969752374,0.1356734564714901,-0.069523767463045,0.0385543801461341,3.3299999999999272,8.0,-0.0466118207577361,-0.4763760557928158,0.8551386973075937,-4.004821777758041,0.5227681739586081,0.0541974848416977,0.7244016134290047,0.6661830825740601,-0.0376950996161939,-0.1732670840595615
50,50,3.394999999999982,0.0,0.0274948439869745,0.0019441618741286,0.9785832891423903,0.1324179386525142,-0.2815782674143598,0.5721623103216416,0.8961995725887801,0.0412096568202709,-0.032507753300803,0.4405352837762004,3.395999999999731,1.0,0.1049405635264754,0.0840839810998346,0.9693597692545056,-0.7083573830287883,0.4241580720685604,-1.6855031564978722,0.959335644607052,0.0416890401688495,-0.0704513508686446,0.2701365433941792,3.395999999999731,2.0,0.0965058985460411,0.0987658620796676,0.9696870196271996,-0.8604862601635919,0.3637692729882519,-2.4737265064882696,0.979029244770132,-0.0178445204951214,-0.1122456191276755,-0.1690687196372208,3.395999999999731,3.0,0.0420004647143146,-0.1003363084023839,0.9737009736977584,1.173570447938218,0.0626421410768903,-0.9866077701546832,0.9625185838958564,0.0031567428809846,-0.0032033034321384,0.2711784458186527,3.395999999999731,4.0,0.0295983052880669,-0.1257788108915595,0.9717683011164644,1.4996929836453088,-0.3068051861557525,-0.3932513668399831,0.9982701393677218,-0.0438160153264111,-0.018786129865674,0.0344088211413203,3.393999999999778,5.0,0.0743909149749549,0.4170874142774855,0.8834172743502983,-1.0603996071272312,0.3397876545439595,1.145455164755283,0.9047154026477264,0.3275396905202094,-0.1736702923918015,-0.2098723919109757,3.394999999999982,6.0,0.1014655176381992,0.2351571174425895,0.945377638220042,-1.1974954192953928,-0.0121937202610033,1.2512352906725854,0.6044420629375263,0.0045386863059557,-0.1690944892199531,0.7784832988535378,3.394999999999982,7.0,-0.0921688537302607,-0.1243866484386157,0.9663921895857074,2.3981533029353623,-0.7102966209232053,0.126114633837354,0.9671454311247912,0.2330606100465003,-0.0896568858392378,0.0476876285928014,3.394999999999982,8.0,-0.0878423558935187,-0.8109596345553504,0.5417445815445951,-5.901898860934053,0.3646499868001207,-0.8880360156766227,0.9111291899545184,0.3574273978227916,0.05113478008564,-0.1986818782980588
51,51,3.4399999999996,0.0,0.0413845452047226,0.014141711543088,0.9791273315625656,0.1857100061352065,-0.0938084321977072,0.5963091342963861,0.8824175392390166,0.0479715790012716,-0.0323426397911654,0.4668960994727009,3.4399999999996,1.0,0.0842909502738818,0.0644832438787869,0.9737648314458656,-0.4975406002425691,-0.178938353445329,-1.936487309146856,0.981641412087342,0.0264715763521385,-0.0791855278195804,0.1714906583593889,3.4409999999998035,2.0,0.0743623087569291,0.073300078347175,0.972873756224638,-0.1455118804711394,0.4066072505193603,-1.3788671879434575,0.967808067896377,-0.0089442389752382,-0.0849873528461819,-0.2367376061381765,3.4409999999998035,3.0,0.0330383521467313,-0.0292511177876345,0.9785565080237332,1.2585303592128094,0.2437110554496186,-1.4678991586168757,0.9780978903462536,0.0603120145205104,0.028420230707876,0.1971782652606436,3.4409999999998035,4.0,0.057417448986845,-0.0133484569993269,0.9782883293015308,1.5974828703627462,-0.1406364977027099,-0.9264368041770364,0.9988533898047108,0.0410651961309354,-0.0221417767387468,-0.010737647098777,3.4669999999996435,5.0,0.1056242530478697,0.3750860654926372,0.8994286856896062,0.1329477700939974,0.3879362521019101,1.6113533213871818,0.9263118888739356,0.3082513849362497,-0.1741009419481902,-0.1289039573808278,3.4669999999996435,6.0,0.1280003680826223,0.1215022906398476,0.9642318700084452,-1.0279688510806195,0.3361786590074305,4.427691338035652,0.4431626109022878,-0.0639101143053957,-0.1736331462661461,0.8771396286256012,3.4669999999996435,7.0,-0.0071726982603318,0.0336087785489027,0.9790056191892452,2.4322238397282567,-1.422608553093839,0.8839466676969989,0.9293803515337666,0.3242803672000734,-0.1551298333120696,0.0838399692755615,3.4669999999996435,8.0,-0.0290255032103916,-0.9060544177270377,0.372979774626858,3.5265733340483445,-1.2266171358900462,-1.016518613422131,0.8487372210158793,0.4491507485546674,-0.0017166262358799,-0.2791160832510206
52,52,3.518999999999778,0.0,0.0362902127582422,0.0229330668824833,0.9782556388293016,0.1847990012565459,0.1833854954553817,0.9637300069701784,0.8593936769681835,0.0471917016192383,-0.0203382798963126,0.5087256683677811,3.518999999999778,1.0,0.1070283333281469,0.0357787529402695,0.9735126176393598,-0.9742900925638012,-0.5938889836005532,-1.721366309811153,0.9901561126930304,-0.0099650884587429,-0.1144672700637676,0.0799300543774665,3.518999999999778,2.0,0.042062480034616,0.0330040939008735,0.9777681103201924,-1.0628180700604863,0.3935435221994638,-0.919845551248318,0.9561951356734046,-0.0491864041047443,-0.0497738629944947,-0.2842430697983142,3.518999999999778,3.0,0.0103425526494275,0.0589114847126729,0.978050340510979,1.326807474209479,0.3532395831211729,-1.6623516702129602,0.984667363450088,0.1164885134390448,0.0655644208788811,0.1120799549778216,3.518999999999778,4.0,0.0335451333406813,0.0761826651699594,0.9749281643058416,1.5069959995308206,0.5561251554125464,-1.6037924468542095,0.9891172598641262,0.1171644177270179,0.0145498447415794,-0.087794347628803,3.494999999999891,5.0,0.0991237321121711,0.3861793365266464,0.894992181961381,0.2365159153683402,0.4222162036951341,0.4946977956791535,0.9341407827736956,0.3062757088300522,-0.154309564715696,-0.0988167312596847,3.494999999999891,6.0,0.1150712107043804,0.0161879170375092,0.9735977443528794,-0.9211852145569578,0.1385771021960753,-0.0340599712701152,0.4454969868253335,-0.0785421133731389,-0.1963926135904958,0.8699387981252036,3.49599999999964,7.0,0.0637282481037699,0.0992421819735423,0.9727356782347168,0.5170725788979276,-0.6298014126827903,1.5022998509180203,0.9176305950781388,0.3140686261846327,-0.1937598521258178,0.1475537486044301,3.49599999999964,8.0,0.0411067046213858,-0.881357583647054,0.4252917217428479,-1.4954014725924534,-0.72907676055192,0.1921500559825907,0.8977075429690162,0.3290668590367853,-0.0075688166490475,-0.2928803212828224
53,53,3.605000000000018,0.0,0.0258528025878313,0.0281326060827903,0.979268190575669,0.0533999165871206,0.234682854103196,1.0772989817588408,0.831694848611088,0.039557424813296,-0.0097893984618492,0.5537355475438387,3.605000000000018,1.0,0.1291764769975538,-0.0289771206630862,0.97103540834955,-1.1444119113802216,-0.3688893448858872,-0.8101378565614875,0.9885028425560376,-0.0603531803456041,-0.1346671539709942,0.0329299487117283,3.605000000000018,2.0,0.0241156318249171,-0.0243481243552013,0.9790462732384352,-1.0797471059711596,0.1720040226988666,-1.062477781765187,0.937060166925718,-0.0912626338458382,-0.0270900722386705,-0.3359397315155937,3.605000000000018,3.0,-0.0515878091013477,0.1152990794217015,0.9717997840278784,0.7110264535291027,0.8400802651844047,-0.1884296989953895,0.9785768909329304,0.1398118769575888,0.1086580950522689,0.1050396400091294,3.605000000000018,4.0,0.0117028729714418,0.1836062160450396,0.9618860640397264,1.510280043726734,-0.2089744446873171,-0.3110432396218274,0.9767592816597098,0.1871176415845582,-0.002256355781574,-0.1045141270739397,3.541,5.0,0.0930442067965457,0.3915620513326858,0.8932412527070952,-0.1405797603453965,0.378498709637906,-0.190988204748429,0.9424005878372392,0.292275076413938,-0.124850480125117,-0.104253390178834,3.541,6.0,0.0998126082551038,-0.0610124476300527,0.9806884951234532,-0.9530737393634984,0.0163596462282994,-4.99139666223458,0.6680808360337018,-0.0478382490024045,-0.2379872934772987,0.7033786651585645,3.541,7.0,0.120018825701431,0.1573281276649201,0.9637138277116812,-0.6811385117609287,0.3706323062585949,1.9545174203241635,0.922654634950753,0.2389826180755812,-0.1907029515439034,0.2350066321065794,3.541,8.0,0.0869344446819603,-0.8469181099249985,0.5029881881405436,-5.083924695235473,-0.5788128502491606,1.503084179453925,0.9786969695284948,0.0091359149081562,0.0412405824472948,-0.200917871912727
54,54,3.655999999999949,0.0,0.0144666362685217,0.0292855186776831,0.979429463938498,0.0097539660215027,0.1662253365302096,1.156126266623016,0.7993856736136411,0.0325001248001859,-0.0036303455635965,0.5999275850470007,3.656999999999698,1.0,0.1429039993291944,-0.0829273095194607,0.9660421876458528,-0.7817473513139611,-0.0342122191393629,-0.673259135941616,0.9865840643057368,-0.0922276672737842,-0.1345945079939517,-0.0055008967520005,3.656999999999698,2.0,0.020804833705438,-0.0786865273653512,0.9752546279334802,-0.7907547931436341,-0.0048815239469345,-0.750165978054828,0.9205032409693568,-0.1217425676221976,-0.0156010581272163,-0.3709570562463748,3.656999999999698,3.0,-0.0971501240936522,0.1440911088648922,0.9647930377726996,0.4198956528773472,0.6818703568993302,0.4958836401478272,0.9701955539870952,0.1521689809176958,0.1350534541471881,0.1316273254041741,3.656999999999698,4.0,-0.0194091187284604,0.2493133058669194,0.9471679690677322,0.9342930892245608,0.427001401393945,-1.9052625568214616,0.9541335744721308,0.2274617025710697,0.0348081101208175,-0.1915168175339247,3.586999999999989,5.0,0.1074587416107719,0.3481567360554719,0.9096485618032,-0.7547352135873416,0.2673962027347359,1.2335879228162032,0.9632317650979668,0.2371331541121603,-0.1174807797353282,-0.0463756436058117,3.586999999999989,6.0,0.109058275217369,0.0013482528228197,0.9743908224223676,-1.354579531822838,0.2938924481152846,-1.859857955757671,0.7371831694689408,-0.0760524228738448,-0.2621667596003548,0.6180983690217883,3.586999999999989,7.0,0.0921133406815395,0.1610444745074382,0.9625002907527404,1.1995129008000232,0.1570763851628087,1.625119071423536,0.893692952286048,0.2608538694667928,-0.1750155297228288,0.3203712380571745,3.586999999999989,8.0,0.029760771728195,-0.8306002566485786,0.5190785201888608,2.9634175183873026,-1.9028726698973488,1.3559950395327858,0.9824895679441236,0.0960662606481009,-0.0836133591612183,-0.1359938550664632
55,55,3.7399999999997817,0.0,0.0059407776646028,0.0231825544819981,0.9791773467193924,-0.15253961078596,0.1595074354543707,0.9912826798692432,0.769754754095048,0.0195719761886849,-0.0022617143623435,0.6380356110314569,3.7399999999997817,1.0,0.1371110472808869,-0.1176961812404505,0.9632913212704418,-0.5130322706337663,0.1327170096087524,0.4478346955914966,0.9858812424248108,-0.1173133376068946,-0.1188039560020994,0.0127034126396723,3.7399999999997817,2.0,0.0282468257441747,-0.1257259641464024,0.9711426768373612,-0.556336997690365,-0.2380966129157001,0.4732206948806762,0.9260557194249986,-0.1465755604994529,-0.0101986287130822,-0.3476095475629119,3.7399999999997817,3.0,-0.1195144243685226,0.1730423583191848,0.9568770268927954,0.1948407356700333,0.4712321915093242,1.4258226480989682,0.9557617182649122,0.160603535172209,0.1410112037918643,0.2020937475397515,3.7399999999997817,4.0,-0.0444532161928705,0.3149990822188932,0.9268659502707848,1.235380411911518,0.3657846428648423,0.1611935814112915,0.9414183764943668,0.2829250378964731,0.0335857963774327,-0.1804351895049402,3.660999999999604,5.0,0.102234612748093,0.2430313222015455,0.94385902569463,-1.75052875851757,0.6483488834885386,1.676709293716979,0.9873805641129038,0.1291319096925092,-0.0855123730144327,0.0330485335936447,3.660999999999604,6.0,0.0989998543723905,-0.0951868284001456,0.9693108358691586,-1.5979725481424518,0.1621966068946815,0.5627385342846393,0.7202510747752198,-0.139490902978092,-0.2837437868160237,0.6174707610201474,3.660999999999604,7.0,0.1084427763535078,0.1983434551476405,0.9533824196285764,0.5781557512973481,0.0068173770617155,1.5890535145243587,0.8653043863844918,0.2578505043608526,-0.1713518273451585,0.3942080511228643,3.660999999999604,8.0,-0.0014199481677279,-0.6869524024125682,0.6978354967804387,4.273403550021646,-1.704312832780552,2.448786370295132,0.9488029913142628,0.2357772421845661,-0.2101125423588675,0.0058902703198015
56,56,3.770999999999731,0.0,-2.908754986773246e-05,0.0118307599556997,0.9798826625023964,-0.1777175730565327,0.0966203127657687,0.7800938586865013,0.7449884928695911,0.0083054589434371,-0.0040781404687359,0.667013143509145,3.770999999999731,1.0,0.1297186625037381,-0.14943376193683,0.9590394253583364,-0.2473551192137316,-0.1589532185852665,1.0109081054864797,0.9827280072694662,-0.1311122230376733,-0.1149318476487268,0.0620154746361995,3.771999999999936,2.0,0.0372741025929179,-0.1592431769968194,0.9662330215097452,-0.3818006808424996,-0.3736472417932481,1.8061815174597224,0.9520217104903403,-0.1651792968899419,-0.0042247992425117,-0.2575900108803748,3.771999999999936,3.0,-0.1320300088959449,0.181688893332343,0.9536216350264948,-0.1324258412959874,0.2659192698496155,0.8473093675503621,0.9475711575595074,0.1493439759396686,0.1403753258200649,0.2451531074915786,3.771999999999936,4.0,-0.0691168852592156,0.3545179640882984,0.9113752626173,0.0298934613960656,0.3666722754099691,0.1676749569029434,0.9446760247915084,0.2785164172138666,0.0451362864461796,-0.1672678366342844,3.750999999999749,5.0,0.090215407958897,0.121622640782383,0.9675965654217306,-1.857076772210389,0.5124455539781445,1.4991836442401725,0.9927260118229184,0.0222684264391822,-0.0600094056642784,0.1019708481180063,3.750999999999749,6.0,0.0946941445192806,-0.1560851125600426,0.9622496851809724,-0.778410762476048,-0.110972390120057,0.8979062665055003,0.6912034898622555,-0.1659783435816009,-0.286192286427029,0.6424818287343357,3.750999999999749,7.0,0.1348238754072952,0.1823123383693225,0.9535846757884,-0.33059339699691,-0.1563500338103438,1.2072815559064425,0.8496835848454869,0.2228456914615519,-0.1842762206760424,0.4409306951602478,3.750999999999749,8.0,0.0268983161240223,-0.1648589840993662,0.96586075391405,5.963296298564381,-0.3259820696985457,2.1816074526518823,0.8502126288314237,0.4327934444449174,-0.2472157440261493,0.1694482107508411
57,57,3.8449999999998,0.0,-0.006646000638538,0.0036965943369751,0.980110282501832,-0.1569415087359501,0.127350440539414,0.5997890931251166,0.7250558183602382,-0.0026666753300954,-0.0038528768145427,0.6886741642060498,3.8449999999998,1.0,0.1347140209189937,-0.1632161844636307,0.9558627567265978,-0.051149183045201,-0.2022949956853121,0.5839670431707832,0.980142940985303,-0.1311692217345732,-0.1171052519022331,0.0916559353405006,3.8449999999998,2.0,0.0401644131571671,-0.1651939814728847,0.9651221520620468,0.0567212432590558,-0.0789847538274591,0.3854553001734673,0.9585171879005896,-0.155740228473494,-0.0050851874507981,-0.2386711599727964,3.8449999999998,3.0,-0.1361412236590128,0.1730161335694479,0.9549931857062152,-0.279168873390626,0.1548512911118867,0.4769141404221302,0.9441715593210452,0.1296190569759226,0.1361129114655878,0.2705776080356606,3.846000000000004,4.0,-0.0612233217496778,0.327993231360387,0.9211287342471232,-0.6949240212332509,0.2724051821630956,1.2152670012269184,0.9645463494517348,0.2387551581730116,0.0452106768168128,-0.1029675138423662,3.826000000000022,5.0,0.0800308843501223,-0.0002805752010257,0.9765899747732892,-1.5157952008989477,-0.0064864894558321,1.0125331784146367,0.98552172697966,-0.0573110538689941,-0.0629646058874597,0.1466213734790746,3.826000000000022,6.0,0.0924379964454407,-0.201611190439698,0.9544852773629569,-0.6687058095580013,-0.0702371259530918,0.6859842071063631,0.6682795670514303,-0.1849066616169844,-0.2868912997294641,0.6609881458019906,3.826000000000022,7.0,0.164237253232579,0.1534809231054344,0.9528083390133196,-0.3111234192822228,-0.526577301590756,0.5118641228292877,0.8419474004855096,0.2057723118602523,-0.2048336069663302,0.4547807427151489,3.826000000000022,8.0,0.1170843579511498,0.3256673094478551,0.9158264337090088,2.059840500463168,0.2530462781300731,-0.1534943555081324,0.8241089895741627,0.4953758935112509,-0.1965218501176796,0.1919016932111515
58,58,3.960999999999786,0.0,-0.0157955361755144,-0.0059572735899019,0.9798122329958444,-0.0910664141323567,0.1482771432924445,0.5535990263085067,0.7060010338755524,-0.0116053474612154,-0.0006899992813537,0.7081153719401574,3.960999999999786,1.0,0.1373487206221737,-0.1646388648443833,0.954845732632348,0.1044300283364583,-0.1139182646605194,0.8374695810720366,0.9765786275516776,-0.1250470626256798,-0.1129881813620831,0.1337575687969106,3.961999999999989,2.0,0.0482860708594186,-0.1613738232602059,0.9657892857799484,0.1025155415008467,-0.2599106920118505,0.5636449078761353,0.9665780242882156,-0.1469973732608114,-0.0146024573492416,-0.2095363058204364,3.961999999999989,3.0,-0.1369430986979393,0.1565845564975413,0.9580526417611273,-0.3291652389263368,-0.0406030169073149,0.095785963794626,0.9466361495196064,0.1081162199074024,0.1245619861402685,0.2769028620733615,3.961999999999989,4.0,-0.061238768576207,0.2589967834898424,0.9428655680239816,-1.6594137046018504,0.5629319141433575,1.474838794597468,0.9860459935925956,0.1510984877634886,0.0671888978475759,-0.0191884736653516,3.8989999999998872,5.0,0.0760092597562349,-0.0957839632457732,0.9722391808687004,-1.2372296001972374,0.0961518480297724,0.7769021317089493,0.974569377878233,-0.1191741115648738,-0.0608439690009675,0.1797500216160386,3.8989999999998872,6.0,0.0843672227721899,-0.2666628335785904,0.9395137598298092,-1.1699634645716357,-0.1599769932059003,0.8628650756208814,0.6321422016475138,-0.2187003495755234,-0.3064694495929559,0.6772317701185971,3.899999999999636,7.0,0.202010468053819,0.1939361987206923,0.9381948207181944,0.5192247900987553,0.2278806457174278,0.0060652435376089,0.8434297362453178,0.2158603759266756,-0.1680962737274701,0.4623572437854601,3.899999999999636,8.0,0.1191722241152583,0.3400147828027319,0.911491595394622,0.0672578856057908,0.7032354013172997,3.864428777801692,0.7993229458095763,0.4223161870329835,-0.2328652527717934,0.3584768340126769
59,59,3.980000000000018,0.0,-0.0246521906040001,-0.007493733342875,0.97936617945435,-0.0381306764503855,0.1509480481574158,0.5630950704063191,0.6860511151710398,-0.0182877429789503,0.0043295716201764,0.7273105805905028,3.980000000000018,1.0,0.1241983362922891,-0.1398876120524607,0.9608825262520324,0.2796716367217635,-0.0663190651733527,0.4979192137310888,0.9753524918751116,-0.1075264181140502,-0.1076316391109478,0.1598155695258233,3.980000000000018,2.0,0.0583331970102485,-0.1550582663907531,0.9662003788813464,0.2033344950746959,-0.2628259834671116,0.7180856814348199,0.9755533506449888,-0.1339196675696496,-0.0244897305220642,-0.1725150305982827,3.980000000000018,3.0,-0.1261383214561945,0.1236934681910556,0.9640052125310744,-0.6644660483621891,-0.2627797960445535,0.3414554478295135,0.9475397224976316,0.0758217686979253,0.0970506172690655,0.294958829954831,3.980000000000018,4.0,-0.0669923910372952,0.1514397660771858,0.9656774910877824,-1.60470226611139,0.4331253644144657,2.341075752747249,0.9889010506978392,0.0709827332774765,0.0776419010794208,0.1049185336436902,3.928999999999633,5.0,0.0620832078035113,-0.1723936713635764,0.9626988612139382,-1.0514682942157474,0.1168244515952581,0.885843830168549,0.9595186853287446,-0.1694141049227115,-0.0557253012583332,0.2179849636050667,3.928999999999633,6.0,0.0781233727346493,-0.3604202438764069,0.908151962193902,-1.7430355910734057,-0.3085351680355274,1.087688355877381,0.5778249528139736,-0.2653762162466775,-0.3473167313102561,0.6892495019280647,3.929999999999836,7.0,0.1792864443704452,0.2135123818908889,0.9397413652938144,0.2118600843144311,0.3496242741301696,1.219605660103408,0.8192918079541223,0.1988404343806974,-0.1478960800326874,0.517059149987239,3.929999999999836,8.0,0.1745818791427739,0.3375978312728122,0.9031892779450336,-0.8748415707034891,0.0705450736135362,0.8071405151149644,0.8180826413339225,0.3560876154073079,-0.2408100543276149,0.38203785131369
60,60,4.083999999999833,0.0,-0.0322526640001624,-0.0027815382943798,0.9795335771220962,0.024656953952309,0.0115868632902163,0.5097562481950481,0.6675468441116049,-0.017256958151471,0.0066454381112317,0.7443381264346902,4.084999999999582,1.0,0.1214046222379863,-0.1176441322814158,0.964809709652118,0.3941651997702432,-0.0323572467446382,0.5347345807874079,0.9733813291464372,-0.0851422730535107,-0.1000753571588287,0.1877884562424689,4.084999999999582,2.0,0.0664520441906579,-0.1383129048964392,0.9678365906298396,0.3656260677412574,-0.33779294976995,0.7368818567370639,0.9836873923646252,-0.1137705091085137,-0.0396860138876402,-0.1335679814243792,4.084999999999582,3.0,-0.1013140205174481,0.0862024542352331,0.9704996682793932,-0.7955564740965515,-0.4286852871954988,1.3986728811213198,0.9298471670302204,0.0468904833094288,0.0584416693895701,0.3602361722812432,4.084999999999582,4.0,-0.0616377161125121,0.1050579329993472,0.9723896454952295,-0.952946416169218,0.1650161020292975,3.245821049437859,0.9615338534269088,0.0337336830474544,0.0701651950585785,0.2634227263249043,4.022999999999684,5.0,0.0495329855099429,-0.2265699216613965,0.9522381813101282,-0.6221289708463369,-0.1174943115535441,1.215707777380182,0.9401609256246104,-0.1944953577044434,-0.0555720338139557,0.2741910626148806,4.022999999999684,6.0,0.0722148127122193,-0.4638451024866408,0.8598364621973742,-1.7804353017534045,-0.537289092634141,1.469887825426763,0.5023305955700101,-0.3068419473358484,-0.3882618501878748,0.7090590439435293,4.022999999999684,7.0,0.1716425385097831,0.2119375968977291,0.9417639268920496,-0.198791639023379,0.3853335796510817,1.099671441682713,0.7986568593290114,0.1669643517693771,-0.1345054805745238,0.5622974319524924,4.023999999999887,8.0,0.1468334643165576,0.2989885060320118,0.9207490467100924,-0.9523977339050456,0.8633206802003311,1.5018082656382972,0.826982049330577,0.2653491593597513,-0.2221346562274463,0.4431102664290085
