Timestamp,Ax,Ay,Az,Rx,Ry,Rz,EMG
0,-1.0386,-0.9954,0.2109,-0.3389,1.1939,0.2775,2028
0,-0.1501,-1.0557,0.2053,-0.2858,0.7059,0.1567,2039
0,0.2549,-1.0435,0.0701,-0.2481,0.4296,0.1224,2028
0,-0.0408,-0.9924,-0.127,-0.0132,0.2967,0.1446,2061
0,0.0679,-0.9224,-0.1504,0.2289,0.078,0.2167,2109
0,0.2642,-0.9148,-0.0505,0.3766,-0.0461,0.379,2117
0,0.0896,-0.9849,0.1416,0.4128,-0.172,0.5046,2069
0,-0.2454,-1.0054,0.342,0.3617,-0.2599,0.4751,2062
0,-0.4265,-0.9841,0.5942,0.2177,-0.2859,0.375,2045
0,-0.4895,-0.9731,0.6553,0.1357,-0.2557,0.3461,2056
0,-0.406,-0.9502,0.592,0.016,-0.0851,0.338,2057
0,-0.1631,-0.8857,0.4629,-0.0824,0.3228,0.3578,2016
0,-0.0364,-0.8943,0.3828,-0.1493,0.4446,0.3725,2036
0,-0.0361,-0.8748,0.2471,-0.1155,0.504,0.4113,2053
0,-0.052,-0.9375,0.2026,-0.0935,0.4649,0.497,2048
0,-0.0581,-0.9788,0.125,-0.0266,0.2911,0.5425,2140
0,-0.0459,-0.9773,0.1504,-0.0553,0.1412,0.5542,2015
0,-0.0969,-0.9832,0.1492,-0.0131,0.1389,0.5952,2070
0,-0.0991,-0.9763,0.2109,0.0072,0.2149,0.6207,2034
0,-0.1221,-1.0049,0.282,0.0366,0.1535,0.6066,2038
0,-0.084,-1.0256,0.2598,0.0073,0.2714,0.6293,2136
0,-0.0703,-1.0225,0.3413,-0.024,0.332,0.6909,2101
0,-0.0898,-1.0366,0.3574,-0.0836,0.4663,0.7485,2060
0,-0.0466,-0.9194,0.3152,-0.043,0.4654,0.7449,2057
0,-0.0098,-0.9294,0.3147,-0.0417,0.5709,0.6822,2035
0,-0.0042,-0.968,0.262,-0.0131,0.5842,0.7084,2131
0,-0.0457,-0.9612,0.1958,0.0136,0.5873,0.7088,2051
0,-0.0464,-1.0012,0.1931,0.0352,0.7478,0.746,2125
0,-0.0237,-1.0107,0.2134,0.0393,0.7468,0.8249,2061
0,0.072,-1.0137,0.1875,0.1342,0.9183,0.8681,2000
0,0.0254,-1.1436,0.2781,0.1493,0.9696,0.9365,2049
0,0.1362,-1.0808,0.2891,0.1413,0.9174,1.1216,2022
0,0.2292,-1.1499,0.3359,0.1206,0.9317,1.2001,2072
0,0.2563,-1.2729,0.3923,0.0555,0.9593,1.3624,2070
0,0.0972,-1.3198,0.5225,0.1708,1.2315,1.5827,2078
0,0.2922,-1.4822,0.7214,0.1818,1.2629,1.6207,2057
0,0.6382,-1.532,0.5681,0.2396,1.1764,1.7923,2032
0,0.6052,-1.4622,0.3391,0.4866,1.2685,2.1853,2035
0,0.5173,-1.7461,0.5552,0.5389,1.2694,2.4436,2057
0,0.7251,-2.0,0.593,0.2762,1.3286,2.6232,2057
0,0.8311,-2.0,0.5354,0.0776,1.0452,2.8952,2052
0,0.6636,-1.8972,0.5974,0.1077,0.6546,3.1529,2075
0,0.6375,-1.8005,0.5737,0.1625,0.1028,3.3326,2101
0,0.6245,-1.5486,0.3875,0.3646,-0.4067,3.5956,2100
0,0.2119,-1.7925,0.2913,0.488,-0.5725,2.5687,2049
0,-0.1931,-1.6782,0.3198,0.3713,-0.5393,1.6093,1984
0,-0.7778,-0.9907,0.0093,0.4524,0.7633,1.9457,2009
0,-0.979,-2.0,0.0342,-0.6309,1.3704,0.0204,2069
0,-0.8271,-0.9775,-0.1514,-0.6111,2.1871,1.2712,2069
0,-1.0251,-0.7336,0.0691,0.0229,3.592,2.7663,2187
0,0.1873,-1.1389,0.2529,0.0888,3.2899,2.8994,2134
0,1.739,0.144,-0.0923,1.1199,1.0985,3.8623,1935
0,1.9999,-0.3542,1.9999,-0.4361,-1.7851,3.5886,1668
0,-2.0,-1.9404,-2.0,0.9357,4.3634,2.0346,2157
0,-1.9888,-0.7573,-0.5464,1.3695,3.8984,0.2248,2405
0,-0.9397,-0.5144,0.323,0.8835,2.8368,0.3031,2156
0,-1.4158,-0.3579,0.3401,1.1962,1.6356,0.3418,2017
0,-1.2839,-0.3462,0.2744,1.5289,1.8662,0.1222,2045
0,-0.8054,-0.1997,0.0925,1.6659,1.4926,-0.9244,2062
0,0.1472,-0.0769,-0.0066,1.2963,1.8487,-1.2472,2038
0,0.3359,-0.0396,-0.2542,1.2784,1.9041,-1.4209,2048
0,0.2964,-0.2681,-0.4526,1.1941,2.0525,-2.1842,2033
0,0.1707,-0.3257,-0.582,1.1943,2.4804,-2.7181,2015
0,0.0066,-0.1975,-0.665,1.6627,2.7789,-2.7598,2017
0,-0.0933,-0.1926,-0.6123,2.1285,2.9058,-2.4894,2030
0,-0.2754,-0.2563,-0.4939,2.6067,2.9277,-2.029,2036
0,-0.3188,-0.4402,-0.4128,2.8753,2.9834,-1.8772,2043
0,-0.3066,-0.5667,-0.3669,2.983,3.0031,-1.8859,2045
0,-0.3105,-0.5234,-0.4675,3.095,3.0801,-1.9166,2042
0,-0.1948,-0.6172,-0.5356,3.156,2.979,-1.9892,2042
0,-0.0652,-0.6362,-0.5415,3.2689,2.7269,-2.0893,2071
0,0.0049,-0.6545,-0.4868,3.3869,2.2622,-2.2352,2067
0,0.0798,-0.7087,-0.4314,3.5227,1.5444,-2.4694,2056
0,0.1782,-0.8577,-0.3752,3.4456,1.0689,-2.7525,2049
0,0.2051,-0.9329,-0.3628,3.1851,0.6632,-2.9391,2040
0,-0.0039,-1.0398,-0.4502,2.9509,0.6923,-3.1569,2038
0,-0.1196,-1.0181,-0.436,2.8795,0.491,-3.431,2036
0,-0.1814,-1.1619,-0.1868,2.6606,0.1075,-3.7174,2053
0,-0.2749,-1.1904,-0.2046,2.3827,0.5207,-3.8343,2048
0,-0.5107,-1.144,-0.2004,2.2337,0.7837,-3.8691,2057
0,-0.333,-1.3503,-0.0474,1.7345,0.4938,-4.2727,2054
0,-0.3577,-1.2583,-0.0156,1.5135,0.4806,-4.3635,2061
0,-0.3938,-1.1992,0.002,1.3142,0.5861,-4.3635,2065
0,-0.2983,-1.2737,0.0159,1.134,0.8629,-4.3635,2071
0,-0.2371,-1.4102,0.009,0.7634,1.1186,-4.3635,2067
0,-0.1484,-1.4148,-0.0789,0.5604,1.2067,-4.3635,2047
0,-0.1804,-1.5164,-0.0247,0.3261,1.0314,-4.3635,2047
0,-0.1687,-1.2312,-0.1267,0.1511,0.8277,-4.3635,2029
0,-0.1948,-1.2942,-0.0525,0.2144,0.5662,-4.3635,2054
0,-0.1914,-1.3994,-0.1416,0.1095,0.3265,-4.3635,2084
0,-0.1765,-2.0,0.5808,-2.7035,-0.956,-4.3635,2030
0,1.5483,0.5681,-0.5278,-1.9178,-3.0459,-3.906,1967
0,0.335,0.3313,-0.6567,1.0806,-1.5289,-3.0403,2053
0,-1.824,-2.0,-1.1396,1.4568,1.4549,-3.3086,2123
0,-0.6931,-1.6267,-0.3076,0.5596,2.0145,-2.4859,2152
0,0.6851,-2.0,0.6943,-0.9588,-0.8661,-1.9658,2051
0,-0.7876,-1.0286,-0.3513,-1.4692,-0.2278,-1.9634,2010
0,-1.0337,-1.2949,-0.3115,-2.0618,0.596,-1.0701,2056
0,-0.7825,-0.1362,0.001,-1.2557,0.6028,-0.1571,2063
0,-0.5708,-2.0,0.7048,-3.4686,0.8861,0.6822,2036
0,-1.0728,-0.002,-0.0056,-1.8548,1.953,2.0688,2055
0,-1.9084,-0.104,0.7703,-0.6677,1.906,2.7878,2061
1,-1.5229,0.0229,1.9999,0.1808,0.2173,2.4756,2096
1,-0.7104,-0.7939,1.9999,2.2549,-1.5402,1.447,2085
1,0.5215,-2.0,1.9999,2.6271,3.2303,0.441,2038
1,1.9999,-2.0,1.9999,0.0766,2.8661,1.5693,1968
1,-0.3523,-2.0,0.1013,-4.3635,4.3634,2.1028,2046
1,-1.6187,-1.6975,-0.9443,-4.3635,4.3634,3.0168,2214
1,-2.0,1.7566,0.0242,-2.9096,1.6488,3.7394,2064
1,-1.449,0.8914,-0.8025,-2.7389,0.2333,2.0455,1955
1,-0.6907,-0.1172,-1.3687,-0.1538,1.8861,0.6391,2017
1,1.1614,-0.7507,-1.7808,-0.017,3.2772,-0.1683,2035
1,0.6289,-0.6213,-2.0,-0.4942,3.0448,0.1237,2065
1,0.6377,-1.2561,-1.2361,0.813,2.6472,1.1521,2133
1,1.0156,-2.0,0.3792,0.037,0.9891,1.3471,2070
1,-0.3533,-0.7002,1.1257,0.2476,0.7371,2.6569,2032
1,-0.311,-0.8054,1.615,0.3812,-1.0649,2.0619,2022
1,-1.0745,-0.7969,1.0759,0.3597,-1.0718,1.6211,2043
1,-1.4407,-0.9346,0.395,-0.1891,-0.2741,1.1737,2041
1,-1.1716,-1.1653,0.145,-0.4795,0.6239,1.1326,2030
1,-0.3943,-1.1724,-0.0247,-0.7806,1.1207,0.8222,2021
1,0.0913,-1.0686,-0.2231,-0.6139,1.2842,0.7882,2030
1,0.2163,-1.0493,-0.1069,-0.3685,0.7919,0.9978,2038
1,0.1709,-1.0046,-0.1848,-0.1601,0.2096,0.9749,2061
1,0.2068,-0.9453,-0.3665,-0.012,-0.2141,0.8433,2073
1,0.2263,-0.9265,-0.2817,0.3104,-0.5086,0.9278,2047
1,0.0825,-1.2788,0.071,0.2962,-0.7783,0.7942,2076
1,-0.2681,-0.949,0.2786,0.0276,-0.6581,0.7998,2041
1,-0.6892,-0.9001,0.4724,-0.092,-0.2069,0.6982,2025
1,-0.6133,-0.9109,0.3062,-0.2007,0.0338,0.5691,2032
1,-0.219,-0.8887,0.2644,-0.1859,0.4433,0.6146,2059
1,0.1384,-0.9744,0.1306,-0.0663,0.4159,0.6956,2046
1,0.1008,-1.0007,0.0696,-0.0281,0.2846,0.6867,2048
1,-0.1257,-1.1379,0.0598,-0.1501,-0.1043,0.4983,2046
1,-0.1814,-0.7349,-0.0251,-0.1396,-0.1852,0.6642,2050
1,-0.2405,-0.8906,0.1094,-0.0555,0.089,0.6393,2049
1,-0.2158,-1.0227,0.1667,-0.0246,0.1116,0.5621,2014
1,-0.2075,-1.1023,0.1904,-0.0073,0.1864,0.5055,2065
1,-0.0515,-0.9829,0.1592,-0.1459,0.0317,0.4132,2104
1,-0.116,-0.8796,0.2009,-0.0099,0.0718,0.599,2033
1,-0.064,-0.9878,0.1814,0.0405,0.0565,0.6894,1963
1,-0.0723,-1.0671,0.2136,0.0209,0.0105,0.7349,2013
1,-0.083,-1.0852,0.2256,-0.0352,0.1214,0.768,2114
1,-0.0603,-1.0093,0.1848,-0.0606,0.1615,0.864,2032
1,-0.0544,-1.0623,0.2124,-0.1111,0.2533,0.8495,2009
1,-0.0056,-0.917,0.1777,-0.0257,0.2502,1.0553,2048
1,-0.0557,-1.0303,0.1631,-0.016,0.3461,1.0975,2119
1,0.0291,-1.0005,0.1492,0.0079,0.3177,1.2268,2080
1,0.1006,-1.0303,0.083,-0.0036,0.2902,1.2897,2045
1,0.0706,-1.1372,0.1541,-0.015,0.2697,1.3794,2046
1,0.0801,-1.1589,0.1973,-0.0049,0.2049,1.4728,2120
1,0.083,-1.2529,0.2249,-0.0941,0.1744,1.4913,2101
1,0.1343,-1.2134,0.3083,-0.1545,0.185,1.7161,2110
1,0.1379,-1.1648,0.4321,-0.1517,0.2169,1.8823,2059
1,0.1582,-1.2231,0.4456,-0.1132,0.3215,1.9341,2033
1,0.2195,-1.2212,0.4666,-0.0582,0.5408,2.1113,2041
1,0.2603,-1.3345,0.4597,-0.0308,0.7943,2.2623,2051
1,0.3767,-1.4146,0.4661,-0.0109,1.0909,2.4422,2051
1,0.6296,-1.583,0.4355,-0.1678,1.2896,2.6369,2046
1,0.8125,-1.6816,0.377,-0.2461,1.2782,2.9019,2043
1,0.7422,-1.8372,0.4629,-0.3689,1.1086,3.1035,2049
1,0.5686,-1.895,0.5376,-0.5368,0.8184,3.222,2050
1,0.5291,-1.8394,0.6719,-0.7072,0.3083,3.3383,2071
1,0.5513,-1.7747,0.6187,-0.7845,-0.2107,3.4412,2072
1,0.533,-2.0,0.5815,-1.0147,-1.3219,2.9605,2075
1,0.5049,-1.0137,0.1816,-0.6063,-1.7211,3.792,2048
1,0.3599,-1.385,0.4111,-0.4183,-1.962,3.303,2063
1,-0.3599,-1.2229,-0.166,0.1003,-1.5287,3.3335,2026
1,-1.491,-2.0,-0.0374,-0.172,0.8195,2.6954,2085
1,-0.5178,-2.0,0.3567,-2.1614,0.3834,1.3155,2075
1,0.5488,-0.2708,0.0159,-1.6231,-0.3112,2.7903,2034
1,-0.3623,-0.2629,0.1245,0.1763,-0.3413,2.9829,2049
1,1.3806,-0.0171,0.8149,-0.2717,-0.9594,3.8094,2038
1,1.9999,-0.8877,0.5972,-1.2359,-1.8234,2.6948,1863
1,-2.0,-1.6321,-2.0,0.0896,4.2955,2.7553,2045
1,-2.0,0.2185,-0.1001,-0.1987,1.9293,0.3783,2407
1,-0.8704,-0.2646,0.9189,0.1617,-0.5998,-0.2348,2185
1,-0.2754,-0.0352,0.9939,0.8744,-2.6374,-1.2519,1999
1,-0.7949,0.1951,0.5254,1.2292,-2.7429,-1.4359,1995
1,-0.6428,-0.4424,0.0693,0.5994,-2.581,-2.6962,2064
1,-0.1155,-0.6873,-0.0391,-0.5484,-1.12,-3.7173,2075
1,0.0291,-0.3967,-0.2,-0.7977,-0.0663,-4.3635,2035
1,0.0544,-0.2751,-0.3625,-0.4172,0.1611,-4.3635,2024
1,0.0071,-0.2158,-0.325,-0.1376,0.4109,-4.3635,2030
1,-0.1201,-0.2422,-0.1331,0.2024,0.4465,-4.3414,2041
1,-0.24,-0.2397,0.032,0.5894,0.347,-4.2393,2038
1,-0.2722,-0.3032,0.147,0.9116,0.7624,-4.2487,2055
1,-0.3918,-0.2546,0.2559,0.978,1.072,-4.36,2059
1,-0.3806,-0.2097,0.2493,0.8184,0.8686,-4.3635,2047
1,-0.2793,-0.1753,0.1323,0.8383,0.3815,-4.3635,2045
1,-0.2102,-0.2495,0.0186,0.9469,0.0775,-4.3635,2047
1,-0.1877,-0.4124,-0.0706,1.0897,0.1172,-4.3635,2043
1,-0.1934,-0.563,-0.083,1.3681,0.0929,-4.3635,2050
1,-0.2385,-0.7322,0.063,1.4862,-0.1629,-4.3635,2051
1,-0.2373,-0.7339,0.1028,1.1616,-0.3606,-4.3635,2035
1,-0.3184,-0.8162,0.1321,1.3665,0.0403,-4.3635,2043
1,-0.3242,-1.1047,0.1663,1.4826,0.3357,-4.3635,2041
1,-0.356,-1.3142,-0.0649,1.6179,0.4489,-4.3635,2051
1,-0.5815,-1.9631,0.1833,1.2382,0.0478,-4.3635,2009
1,-0.6367,-1.4253,0.4082,0.7927,-0.7771,-4.3635,2028
1,-0.3555,-1.1885,0.6506,-0.5719,-0.2844,-4.3635,2051
2,0.5354,-1.0959,-0.4839,0.6316,1.6578,-4.3635,2032
2,1.5154,-2.0,0.239,-1.0075,-1.0192,-4.3635,2047
2,-0.1372,-1.0898,-0.3223,0.4015,-1.2762,-3.6948,2060
2,0.1609,-0.7571,-0.5054,0.2249,-3.1881,-2.0723,2084
2,-1.6792,-1.071,-0.241,0.1075,-0.5233,-1.7962,2079
2,-0.5999,-1.1221,0.3101,-0.2963,-0.7895,-1.6791,2081
2,0.0181,-2.0,0.2437,-2.1499,-2.0744,-2.1399,2059
2,0.2336,-1.4785,-0.8552,-2.9545,-2.0401,-1.7739,2042
2,-1.2065,1.2578,-0.0198,-0.689,-0.7423,2.1563,2030
2,1.283,-1.8469,1.9999,-2.1422,0.4204,4.3634,2000
2,-2.0,0.3835,1.6497,-0.9588,1.5009,4.3634,2075
2,-1.2969,0.4846,1.9999,1.375,-0.9529,4.0101,2249
2,1.9999,-2.0,1.9265,3.1464,-1.5535,-0.491,2121
2,1.9999,-2.0,1.5664,2.2706,3.3597,0.9166,1907
2,-0.6077,-2.0,-0.7756,-4.3635,4.3634,3.3307,2052
2,-2.0,-1.9658,-1.0896,-4.3635,4.3634,4.2241,2138
2,-0.698,1.9999,-0.3018,-3.3652,0.6963,3.9407,2046
2,-1.9529,0.7605,0.5791,-2.8375,-2.5484,3.3298,1882
2,-1.9292,0.4656,-1.7639,-1.0318,1.6356,1.8193,2142
2,-0.1558,-0.1577,-1.3076,-0.8087,1.1745,-0.0236,2126
2,-0.5586,0.1201,-0.9741,-0.1803,-0.9351,-0.2553,2099
2,-0.3057,0.3193,-0.8215,1.0866,-0.0447,-1.2102,2147
2,1.4946,-2.0,-0.3745,2.0903,-0.1884,0.5978,2100
2,-1.1306,-2.0,-0.1204,0.7098,0.3353,1.0652,1954
2,-0.0901,-1.1047,0.5427,0.7241,-0.6797,2.2238,2023
2,-0.4373,-0.9924,0.6584,0.5103,-0.4585,2.1233,2010
2,-0.8923,-0.9668,0.5488,-0.0609,0.1368,1.7323,2044
2,-1.1069,-1.0964,0.4111,-0.2385,0.1381,1.1154,2059
2,-0.8572,-0.9834,0.1738,-0.3703,0.2041,0.7377,2048
2,-0.54,-1.0383,-0.031,-0.3059,0.3409,0.3639,2031
2,-0.1074,-1.103,-0.176,-0.2049,0.3393,0.3025,2038
2,0.2449,-1.0369,-0.2075,-0.049,0.383,0.3814,2046
2,0.3108,-0.9619,-0.1699,0.0991,0.1286,0.4578,2058
2,0.1379,-0.9966,-0.1487,0.1984,-0.0796,0.4693,2063
2,0.022,-1.0254,-0.1208,0.2727,-0.2213,0.4822,2067
2,0.0122,-1.1626,0.0034,0.2834,-0.4117,0.4261,2087
2,0.0164,-0.9609,0.0269,0.1028,-0.5805,0.5064,2047
2,-0.1187,-0.9812,0.1775,0.1325,-0.3803,0.4998,2039
2,-0.1306,-0.9822,0.1631,0.0622,-0.24,0.435,2009
2,-0.2063,-0.9717,0.2085,0.0662,-0.0308,0.4251,2046
2,-0.2051,-1.0574,0.1211,0.0663,-0.185,0.3235,2004
2,-0.0576,-0.9341,0.1184,0.0218,-0.0099,0.4265,2108
2,0.1494,-0.981,0.0315,0.1257,0.0242,0.4709,1969
2,0.2737,-1.0144,-0.02,0.1651,-0.1382,0.5176,2038
2,0.2612,-1.189,0.0681,0.1473,-0.3404,0.5016,2031
2,0.2798,-1.1179,0.1384,-0.122,-0.7444,0.4974,2152
2,0.1018,-0.8538,0.2249,0.0189,-0.4841,0.8026,2013
2,0.1543,-0.9963,0.2637,-0.0891,-0.4924,0.7761,2145
2,0.1858,-0.9363,0.2773,-0.1342,-0.3816,0.8505,2020
2,0.2148,-0.9172,0.2969,-0.0778,-0.2685,1.0084,2120
2,0.2402,-0.969,0.2583,-0.0799,-0.1756,1.1023,2013
2,0.1665,-1.0146,0.2456,-0.0875,-0.1075,1.2556,2117
2,0.1736,-1.1465,0.2007,-0.2188,-0.1241,1.1746,2138
2,0.1748,-0.9233,0.0835,-0.1755,0.0131,1.4171,2060
2,0.1719,-1.1069,0.1897,-0.2308,-0.0192,1.505,2012
2,0.2534,-1.0588,0.1233,-0.3124,0.0256,1.5888,2016
2,0.0754,-1.0967,0.2314,-0.3188,0.1446,1.6809,2041
2,0.1492,-0.9587,0.2456,-0.3079,0.2888,1.8772,2056
2,0.1758,-1.1445,0.2461,-0.3108,0.384,1.8978,2096
2,0.2029,-1.0454,0.208,-0.2136,0.5043,2.1887,2028
2,0.1572,-1.0901,0.2505,-0.145,0.5753,2.4135,2081
2,0.3015,-1.2212,0.1816,-0.1381,0.65,2.5282,2064
2,0.5454,-1.3027,0.1616,-0.0495,0.3012,2.7157,2107
2,0.2812,-1.6431,0.1509,-0.0594,0.6149,2.814,2032
2,0.1746,-1.6499,0.3533,-0.0822,0.6911,3.0002,2068
2,0.4292,-1.8601,0.4412,-0.3095,0.8665,2.973,2058
2,0.5593,-1.499,0.5364,-0.2306,0.8343,3.495,2040
2,0.4951,-1.8354,0.5574,-0.3914,0.6887,3.3876,2063
2,0.4058,-1.9497,0.6919,-0.5382,0.4903,3.376,2072
2,0.5444,-1.9333,0.6943,-0.8528,-0.0009,3.3355,2058
2,0.2791,-1.9363,0.574,-0.7569,-0.016,3.5633,2063
2,0.6663,-1.6948,0.4783,-0.5205,-0.5008,3.8815,2086
2,0.803,-1.9858,1.2092,-1.0692,-1.9065,3.1556,2062
2,0.5317,-1.2988,0.0859,-0.9282,-1.8765,3.0191,1989
2,0.4197,-1.4431,-0.0503,-0.6279,-1.9823,2.7141,2031
2,-0.7036,-1.4399,-0.2163,-0.1384,-0.7706,2.9758,2065
2,-1.3755,-2.0,0.1575,-1.0556,0.1567,1.6942,2117
2,-0.4143,-2.0,0.1362,-2.4499,-0.9235,0.9736,2022
2,-0.4275,0.2854,0.0125,-0.5497,-1.3463,3.5728,2052
2,1.0012,0.9224,0.0164,0.7071,-1.2701,3.9408,2078
2,1.9999,-0.5754,0.6257,-1.1601,-1.984,3.6884,1928
2,-2.0,-0.9167,-2.0,0.2422,1.8852,2.4755,1612
2,-2.0,-0.012,-0.3394,0.1388,1.3199,1.0709,2514
2,-1.1235,-0.5671,0.7168,-0.8609,-0.4705,-0.0297,2208
2,-0.7666,-0.4067,0.9202,-0.1872,-2.9052,-0.591,2038
2,-1.0225,0.4885,0.4824,0.2948,-2.3029,-1.116,2008
2,-0.8528,0.1782,0.3262,0.3277,-2.516,-2.178,2051
2,-0.0537,-0.1277,-0.0713,-0.4486,-1.3523,-3.008,2101
2,-0.0232,-0.1501,-0.3105,-0.5388,-0.3894,-3.6082,2055
2,-0.1833,-0.2922,-0.3696,-0.6509,-0.0001,-4.3635,2052
2,-0.0344,-0.2351,-0.3958,-0.485,0.1599,-4.3635,2032
2,-0.0449,-0.1921,-0.2554,-0.3219,0.1742,-4.3535,2005
2,-0.3364,-0.1392,-0.1252,-0.0385,0.1068,-4.2217,2018
2,-0.5117,-0.1001,0.0547,0.2097,0.2658,-4.1723,2033
2,-0.5862,-0.1321,0.1326,0.3623,0.6991,-4.2208,2055
2,-0.5537,-0.1533,0.1318,0.4421,1.2519,-4.3635,2073
2,-0.553,-0.1548,0.0935,0.3539,1.5546,-4.3635,2068
2,-0.5735,-0.1438,-0.0093,0.353,1.648,-4.3635,2048
2,-0.4534,-0.1882,-0.0513,0.4773,1.5099,-4.3635,2061
2,-0.3323,-0.2375,-0.0803,0.832,1.1023,-4.3635,2054
2,0.1243,-0.3318,0.0818,1.3438,0.5124,-4.3635,2053
2,0.0535,-0.5525,0.0581,1.4103,0.4324,-4.3635,2047
2,0.1223,-0.6978,0.0767,1.2745,0.1168,-4.3635,2032
2,0.0217,-0.9246,0.2158,1.1443,-0.0041,-4.3635,2029
2,-0.168,-0.7659,0.0615,1.2175,0.3838,-4.3635,2032
3,-0.1372,-0.9141,-0.0657,1.6273,0.5488,-4.3635,2064
3,-0.1082,-1.4868,0.0225,1.6042,0.2755,-4.3635,2049
3,-0.1816,-2.0,0.04,1.0945,-0.7403,-4.3635,2017
3,-0.4434,-2.0,-0.0439,0.8779,-1.5143,-4.3635,2066
3,-0.5195,-1.8423,0.8169,-0.0529,-1.1354,-4.3635,2039
3,1.0251,-1.7917,0.3462,-0.5179,-0.9428,-4.3635,2024
3,0.7053,-1.1138,-0.7637,0.4107,-0.7982,-4.3635,2061
3,-0.4153,-1.9634,-0.0593,1.101,-0.3067,-3.7736,2086
3,-0.1526,-0.9739,0.0681,0.6191,-2.3069,-1.8568,2067
3,-0.8142,-1.5764,0.2566,-0.1836,0.0743,-2.391,2099
3,-0.5049,-1.0398,0.5359,-0.5155,-0.047,-1.9784,2086
3,0.7839,-1.3933,-0.1096,-1.1142,-1.7972,-1.2724,2069
3,0.0747,-1.1455,-0.5078,-1.0786,-2.4192,0.0617,2045
3,-0.4038,-0.937,-0.426,-1.28,-2.0908,0.9222,2048
3,-0.1978,-2.0,0.2063,-3.7631,-1.8377,-1.8568,2059
3,-1.4192,1.9999,-0.2642,-0.3273,1.0419,3.9938,2048
3,-0.3464,-2.0,1.9999,-0.8343,2.2421,3.6817,2041
3,-2.0,-2.0,1.9999,0.0144,-0.1326,4.3634,2055
3,0.9314,0.6963,1.9999,-0.1233,-0.7444,3.5262,2116
3,1.9999,-2.0,1.2866,-0.4637,0.8975,-0.0902,2055
3,1.7842,-1.8892,-0.5867,-0.4924,4.3634,3.4545,1983
3,-0.6082,-1.3623,-0.5286,-0.4284,4.3634,4.3634,2053
3,-2.0,-2.0,0.7302,-1.8181,3.856,3.3307,2061
3,-2.0,-1.219,-0.3579,-3.4773,2.1562,2.9345,2109
3,-0.4016,0.696,-1.1274,-2.6666,2.066,1.488,1982
3,-0.001,0.9883,-0.7703,-0.9784,1.4689,2.3678,2033
3,-0.7727,-0.3625,-1.0105,-0.7641,1.3038,1.4996,2060
3,-0.054,-0.947,-1.593,-0.4851,1.5458,0.7197,2125
3,-0.1047,-0.7336,-1.1326,0.0099,0.9951,0.1529,2138
3,0.5823,-1.0762,-0.2563,1.623,-0.6236,-0.4189,2079
3,1.2737,-1.6687,0.6567,2.3455,-2.391,0.4509,2017
3,-1.4458,-1.5842,1.2974,0.5525,-1.7779,1.4808,1956
3,-1.7783,-1.0166,0.4893,0.0104,0.33,1.3605,2065
3,-0.8289,-1.0579,0.5876,-0.0443,-0.7367,1.5649,2059
3,-1.3379,-0.9724,0.5405,-0.3642,0.1634,1.0483,2019
3,-0.6965,-1.0901,0.3108,-0.7545,0.6813,0.4204,2053
3,-0.1428,-1.0566,-0.0708,-0.6795,0.8022,0.2895,2029
3,0.0876,-1.051,-0.2725,-0.5056,0.6833,0.3461,2024
3,0.2483,-1.0579,-0.2991,-0.3256,0.5012,0.5283,2044
3,0.2891,-1.0081,-0.3108,-0.1344,0.2433,0.6518,2068
3,0.261,-0.9438,-0.3406,0.0084,-0.129,0.6564,2077
3,0.2009,-0.9563,-0.3328,0.1473,-0.4357,0.6384,2077
3,0.0559,-1.019,-0.2441,0.2382,-0.4765,0.7066,2065
3,-0.0554,-1.0493,-0.0703,0.2378,-0.4418,0.7207,2055
3,-0.1128,-1.1584,0.1042,0.1103,-0.3424,0.6031,2067
3,-0.1538,-1.0442,0.1384,-0.2449,-0.4576,0.32,2020
3,-0.2524,-0.8459,0.1609,-0.079,-0.1747,0.4446,2060
3,-0.0784,-0.9668,0.104,-0.0433,-0.0522,0.4647,2031
3,-0.0347,-0.9922,-0.0562,0.0493,0.0827,0.4687,2021
3,0.075,-1.0547,0.0037,0.0806,-0.0795,0.4313,2056
3,0.0579,-1.0798,-0.0066,-0.0731,-0.2975,0.4378,2020
3,-0.0242,-1.0852,-0.0842,-0.0992,-0.0904,0.3838,2007
3,0.0781,-0.8682,-0.0183,0.0011,-0.3534,0.538,2030
3,-0.0129,-0.9744,0.1294,-0.0337,-0.0967,0.6357,2144
3,0.2087,-1.0898,0.0964,-0.0664,-0.0099,0.6529,2036
3,0.2229,-1.0532,0.1724,-0.2432,-0.1866,0.6634,2101
3,0.1816,-1.0598,0.1899,-0.2725,-0.1127,0.6307,2035
3,0.0459,-0.907,0.1387,-0.2081,-0.0418,0.8062,1987
3,0.0745,-1.0203,0.1775,-0.2639,-0.0533,0.8376,2072
3,0.0464,-0.9854,0.1204,-0.3093,-0.031,0.873,2076
3,-0.03,-1.021,0.1323,-0.245,0.041,0.9351,2053
3,0.0447,-1.0569,0.1641,-0.3512,0.0691,1.0142,2021
3,0.1143,-0.9771,0.1689,-0.3699,0.1308,1.1869,2053
3,0.0991,-1.2195,0.231,-0.5797,0.1112,1.03,2058
3,0.1223,-0.9771,0.1233,-0.3587,0.3938,1.4006,2181
3,0.1326,-1.2766,0.2461,-0.5207,0.465,1.3183,2045
3,0.271,-0.9048,0.1494,-0.399,0.7072,1.7012,2032
3,0.3328,-1.2288,0.0938,-0.5448,0.6815,1.5266,2043
3,0.2839,-0.9436,0.1489,-0.3954,0.7552,2.0037,1961
3,0.2373,-1.0715,0.1416,-0.3239,0.8341,2.1695,2038
3,0.3552,-1.4431,0.1123,-0.5124,0.6947,2.0684,2001
3,0.5332,-1.1001,0.0381,-0.3577,0.5481,2.6085,2080
3,0.4265,-1.4634,-0.0972,-0.4623,0.5658,2.5529,2051
3,0.2969,-1.5178,0.0291,-0.5348,0.6586,2.7389,2057
3,0.4221,-1.6924,0.1812,-0.8269,0.391,2.5257,2055
3,0.4543,-1.2629,0.2441,-0.6683,0.6622,3.0819,2029
3,0.5525,-1.626,0.3804,-0.8525,0.5473,3.0709,2058
3,0.5903,-1.8179,0.6367,-1.0234,0.1084,2.9763,2060
3,0.6541,-1.4636,0.5681,-1.0537,-0.3171,3.4272,2071
3,0.6243,-2.0,1.0015,-1.3199,-1.5138,3.2397,2070
3,0.7803,-1.8884,0.9587,-1.3561,-2.1232,3.3874,2039
3,0.7288,-1.5535,0.98,-1.0832,-3.2588,3.6327,2018
3,-0.0227,-1.5132,1.1587,-1.5298,-2.9436,2.8819,2033
3,0.333,-0.7026,-0.0042,-1.2575,-2.1094,3.2425,2022
3,0.1841,-0.624,-0.134,0.7654,-2.4598,3.5849,2049
3,-0.4038,-1.8359,-0.1643,1.2545,-2.5457,3.1022,2055
3,-1.7454,-2.0,-0.21,0.9585,-0.9812,3.335,2128
3,-1.6565,-2.0,0.0344,-0.6936,-0.7436,2.4756,2126
3,-0.425,-1.4717,0.1877,-1.9307,-0.5878,2.3218,2030
3,0.2263,0.574,0.3621,-1.003,-1.2215,3.3465,2047
3,1.9999,1.1724,0.7629,-0.5393,-1.7564,4.3634,2019
3,-0.3022,-0.6628,-0.5808,-1.5543,-3.4106,2.2571,880
3,-2.0,-0.6428,-2.0,0.4163,1.8343,1.5103,2503
3,-2.0,-0.2002,0.05,-0.7108,1.609,-0.577,2626
3,-0.7693,-0.4714,1.2417,-0.4056,-1.5516,-0.228,2173
3,-0.5327,0.481,0.866,0.2799,-2.4843,-0.7604,1938
3,-0.7761,0.5334,0.4617,1.1592,-3.788,-1.649,1989
3,-0.447,-0.5913,-0.0923,0.467,-2.4453,-2.4653,2099
3,-0.1516,-0.6379,-0.2285,-0.1776,-0.927,-3.4403,2083
3,-0.0398,-0.5063,-0.2886,-0.8152,-0.4012,-4.3635,2031
3,-0.0278,-0.3369,-0.3892,-0.7757,-0.1963,-4.3635,2019
3,-0.0625,-0.2446,-0.2881,-0.4068,-0.2148,-4.3635,2001
4,-0.1143,-0.1077,-0.0366,0.1244,-0.4265,-4.3217,2008
4,-0.3047,-0.0999,0.1045,0.5062,-0.28,-4.1564,2031
4,-0.365,-0.1106,0.1304,0.7067,0.0763,-4.2378,2058
4,-0.2197,-0.1553,0.0959,0.8356,0.1443,-4.3008,2082
4,-0.1091,-0.2659,-0.0325,0.9777,-0.0449,-4.3085,2063
4,-0.199,-0.2527,-0.0532,0.9822,-0.5224,-4.3635,2057
4,-0.2388,-0.2153,-0.062,0.9188,-0.954,-4.3635,2060
4,-0.2065,-0.248,-0.0283,1.0147,-1.1527,-4.3635,2057
4,-0.1335,-0.3643,-0.0063,1.2314,-1.1754,-4.3635,2051
4,-0.0081,-0.5811,0.0442,1.5733,-1.178,-4.3635,2058
4,-0.0928,-0.7322,0.0432,1.6279,-0.8705,-4.3635,2056
4,-0.2861,-1.0564,0.1238,1.4543,-0.7717,-4.3635,2042
4,-0.4915,-1.5525,0.2402,0.607,-0.6522,-4.3635,2016
4,-0.49,-0.9834,-0.0637,0.7324,-0.1028,-4.3635,2005
4,-0.5002,-1.1343,-0.0837,1.2745,-0.0158,-4.3635,2014
4,-0.7839,-1.281,0.0325,1.6447,-0.6461,-4.3635,2022
4,-1.0454,-1.4585,0.0166,1.6848,-1.0915,-4.3635,2028
4,-1.1194,-1.9141,0.8303,0.3208,-0.8823,-4.3635,1998
4,-0.3821,-2.0,0.7939,-1.6863,1.093,-4.3635,2074
4,0.7964,-0.6255,-0.6924,0.2848,4.1953,-4.3635,1984
4,1.6807,-2.0,0.5386,0.7042,1.5352,-4.0052,2021
4,-1.813,-2.0,-0.4421,1.4182,-0.7066,-2.8717,2026
4,-0.145,-0.5474,-0.0063,-0.7803,-0.3089,-1.5623,2240
4,-0.0439,-1.0952,0.6541,-0.8275,0.8348,-2.9413,2112
4,0.7769,-1.5322,-0.1931,-0.7435,-1.2101,-1.454,2028
4,0.2432,-2.0,-0.3877,-2.0437,-3.238,-0.5336,2010
4,0.3232,0.095,-0.5601,-1.949,-3.0453,1.6036,2001
4,-1.05,-0.3384,0.4375,-1.3595,-1.5218,2.1929,2052
4,-2.0,-1.8201,-0.3928,-0.8601,2.0216,3.7733,1958
4,-1.6663,0.3308,1.9999,0.0449,0.4275,4.3634,2232
4,1.4312,-0.7185,1.9999,0.9471,-2.1498,2.6132,2268
4,1.9999,-2.0,0.8416,0.6943,0.879,-0.157,1948
4,1.0427,-2.0,-1.0374,0.3959,4.3634,3.5423,1948
4,-0.9961,-2.0,-0.1995,-1.3623,4.3634,3.9532,1996
4,-2.0,-2.0,-0.0898,-4.3635,4.3634,3.3607,2160
4,-1.2717,0.5293,-0.6802,-4.3635,1.7709,2.6719,2152
4,-0.8838,1.9999,-0.4216,-2.8472,-0.3879,1.9302,1982
4,-1.5615,0.1672,-1.1094,-1.2954,0.5295,1.2292,1951
4,-0.4937,-0.4631,-1.5835,-0.3771,1.0183,0.143,2069
4,0.0999,-0.384,-1.1555,0.0951,0.7034,-0.0953,2130
4,-0.0283,-0.552,-1.0144,0.9857,0.386,-0.7835,2164
4,1.9517,-2.0,-0.0166,2.2044,-0.9063,0.6357,2122
4,-0.3872,-2.0,0.7515,0.5911,-1.2652,1.9415,1930
4,-0.6733,-0.7019,0.7859,0.7974,0.02,2.1057,2065
4,-0.6382,-0.9893,0.7478,0.3021,-0.4723,2.0856,2016
4,-1.2666,-1.0288,0.4651,-0.0028,0.2779,1.5885,2021
4,-1.2488,-1.0293,0.459,-0.5268,-0.0987,0.8464,2037
4,-0.7644,-1.0225,0.1682,-0.6006,0.2956,0.5191,2043
4,-0.2686,-1.0977,-0.1304,-0.4595,0.5627,0.441,2023
4,0.1494,-1.1045,-0.3191,-0.2519,0.5546,0.6052,2042
4,0.3586,-1.0564,-0.2781,-0.0898,0.3807,0.8166,2051
4,0.3521,-1.0291,-0.325,0.0119,0.0703,0.8805,2071
4,0.2688,-1.1611,-0.239,0.0377,-0.3974,0.6585,2072
4,0.251,-0.9204,-0.2742,0.0944,-0.7973,0.6091,2067
4,0.0015,-0.8201,-0.1116,0.3047,-0.7842,0.7139,2064
4,0.0146,-1.1101,0.1648,0.1808,-0.8471,0.5185,2051
4,-0.1765,-0.9819,0.1936,0.0696,-0.4426,0.5381,2104
4,-0.3689,-0.9106,0.3438,-0.0197,-0.1613,0.5409,2009
4,-0.2769,-0.8992,0.313,-0.0374,0.0621,0.4931,2031
4,-0.0588,-0.9038,0.1282,0.0268,0.181,0.5829,2034
4,0.1047,-0.9829,0.083,0.0354,0.1502,0.6283,2062
4,0.1572,-1.0603,0.0393,0.0478,-0.0261,0.6694,2022
4,0.1089,-1.114,0.0491,-0.033,-0.1956,0.6458,2026
4,0.0557,-1.322,0.1401,-0.2373,-0.487,0.393,2145
4,-0.0364,-0.6155,0.0796,-0.0304,-0.3302,0.8417,2037
4,-0.0371,-0.9226,0.1782,0.0065,-0.3064,0.8365,2050
4,-0.0144,-1.2168,0.2825,-0.1613,-0.4393,0.6685,2055
4,-0.0591,-0.9927,0.2251,-0.2437,-0.3794,0.7588,2021
4,-0.1355,-0.8081,0.1855,-0.0541,-0.0803,1.0373,2159
4,0.0532,-1.0964,0.2158,-0.1714,-0.0655,0.9827,2052
4,0.0867,-1.043,0.1226,-0.2882,-0.2269,0.989,2048
4,-0.0171,-0.8613,0.1174,-0.1292,-0.0903,1.2294,1972
4,-0.0317,-1.0132,0.1035,-0.1724,-0.1019,1.1712,2029
4,-0.0452,-1.0098,0.1284,-0.157,-0.0607,1.2415,2035
4,-0.0105,-1.0728,0.1143,-0.2188,-0.0814,1.2477,2101
4,-0.0139,-0.9482,0.0999,-0.1585,0.0316,1.4187,2045
4,0.0737,-1.175,0.1438,-0.2614,0.0157,1.2861,2055
4,0.1079,-1.0129,0.218,-0.1501,0.0763,1.6515,2058
4,0.22,-0.9277,0.1956,-0.0907,0.0967,1.8342,2060
4,0.2664,-0.8889,0.1536,-0.0173,0.1349,1.9559,2250
4,0.2573,-1.0603,0.1343,-0.0141,0.1404,2.0145,2036
4,0.0986,-1.3984,0.1648,-0.1691,0.3408,1.9371,2054
4,0.1104,-1.1309,0.1912,-0.1209,0.5208,2.3336,2030
4,0.271,-1.2903,0.2209,-0.2053,0.5612,2.4188,2075
4,0.2488,-1.3098,0.2563,-0.1867,0.5651,2.6168,2032
4,0.1526,-1.5635,0.2944,-0.3292,0.5042,2.5325,2033
4,0.1514,-1.3738,0.353,-0.2272,0.6088,2.8224,2047
4,0.1497,-1.5427,0.4458,-0.2274,0.821,2.9743,2048
4,0.2578,-1.6936,0.5417,-0.4386,0.9721,3.0392,2059
4,0.4351,-1.6941,0.6045,-0.5737,0.8164,3.1279,2067
4,0.4961,-1.8223,0.6433,-0.6754,0.5461,3.1034,2082
4,0.5354,-2.0,0.6533,-0.8545,-0.1434,3.1351,2063
4,0.5447,-2.0,0.5039,-0.885,-0.426,3.3412,2052
4,0.6497,-1.7742,0.4917,-0.7122,-0.8022,3.5982,2048
4,0.5818,-1.5227,0.845,-0.9461,-0.5113,3.2272,2100
4,1.533,-2.0,0.1375,-1.1641,-2.7265,2.0851,2054
4,0.1001,-1.1079,-0.2476,-0.1047,-2.6155,3.0164,1967
4,-0.7275,-1.5574,-0.2471,0.5976,-1.5125,3.2621,2059
4,-2.0,-2.0,0.179,-0.277,0.3175,2.7117,2112
4,-1.0701,-2.0,0.1052,-2.3799,-0.0671,1.1788,2015
4,0.5923,1.0955,-0.2324,-1.5223,-0.3056,4.1001,2045
4,0.7209,1.2212,-0.0215,0.8034,-0.7445,3.6801,2115
4,1.9419,-0.5449,1.2024,-0.6156,-0.6413,3.3797,1982
5,-2.0,-0.0542,-2.0,-0.6845,0.1133,0.5356,796
5,-2.0,0.2209,-1.0288,0.5038,1.8265,1.2768,2684
5,-0.8921,-0.5085,0.5688,-0.8831,-0.0148,-0.0413,2543
5,-0.9272,-0.5764,0.7996,-0.1286,-2.6077,-0.3878,2033
5,-1.0605,0.0459,0.3928,0.0229,-1.9575,-0.9114,1939
5,-0.8662,0.5278,0.157,0.6283,-2.7795,-1.5398,2031
5,0.1243,0.1943,-0.0981,-0.0442,-2.049,-2.536,2101
5,0.1128,-0.0088,-0.1443,-0.1115,-0.9128,-3.5374,2059
5,-0.0898,-0.3345,-0.2397,-0.2125,-0.3613,-4.1896,2030
5,-0.1194,-0.6135,-0.2153,-0.341,-0.0561,-4.3635,2008
5,-0.0835,-0.4048,-0.1531,-0.237,0.051,-4.3635,2009
5,-0.2979,-0.4465,0.1038,-0.0304,-0.175,-4.2359,2005
5,-0.4534,-0.218,0.2112,0.3277,-0.0435,-4.0432,2029
5,-0.4907,-0.1855,0.2725,0.4438,0.3667,-4.2025,2061
5,-0.457,-0.1719,0.2314,0.4232,0.777,-4.2817,2075
5,-0.3987,-0.1707,0.1763,0.4851,1.128,-4.3635,2085
5,-0.4255,-0.1316,0.1353,0.5181,0.9654,-4.3635,2066
5,-0.3469,-0.1326,0.0791,0.6351,0.51,-4.3635,2050
5,-0.2595,-0.2551,0.0525,0.7918,0.0835,-4.3635,2048
5,-0.156,-0.4109,0.0974,1.077,0.0012,-4.3635,2062
5,-0.0554,-0.5383,0.1431,1.3175,-0.0329,-4.3635,2069
5,-0.0059,-0.709,0.1379,1.5009,-0.0767,-4.3635,2067
5,0.0264,-1.207,0.3149,1.1822,-0.4349,-4.3635,2045
5,-0.239,-0.8242,0.1614,0.9018,-0.1117,-4.3635,2013
5,-0.2146,-0.8035,0.1306,1.1472,0.3444,-4.3635,2032
5,-0.1653,-1.3923,0.1543,1.3974,0.2766,-4.3635,2058
5,-0.3523,-1.6768,-0.0835,1.5852,0.0747,-4.3635,1995
5,-0.5559,-1.7031,0.0342,1.3386,-0.777,-4.3635,1952
5,0.6902,-2.0,1.1406,-0.0627,-2.2177,-4.3635,1974
5,1.5645,-1.4485,-0.2332,-1.1179,-2.0302,-4.3635,1789
5,-0.5522,-0.1677,-0.3347,1.9861,0.5518,-3.9638,2120
5,-0.4177,-1.2898,-0.1243,2.4069,-0.9684,-2.5739,2182
5,-1.0188,-2.0,0.6294,-0.5172,0.4104,-2.9867,2258
5,-0.334,-0.1821,0.2244,-0.4809,1.5181,-2.7323,2101
5,-0.1218,-0.8313,0.0959,-0.1173,0.7889,-2.2415,2042
5,-0.415,-2.0,-0.2207,-1.7233,-0.6245,-2.1373,2045
5,-0.4304,-0.4167,-0.114,-0.8938,0.3196,0.8857,2054
5,0.6721,-1.5852,0.0532,-1.6378,-0.0511,2.0224,2026
5,-0.6838,-2.0,1.1128,-2.8252,1.4323,4.3634,1969
5,-1.6936,0.1975,1.707,-0.8364,0.4018,4.3634,2250
5,0.0486,-1.9009,1.9999,1.5842,-0.7799,4.0219,2205
5,1.74,-2.0,1.9999,2.377,-0.3642,2.926,1931
5,0.8152,-2.0,0.1167,-1.1122,4.0366,3.7095,1939
5,0.6013,-1.6257,-0.5654,-2.1537,4.3634,3.9845,2038
5,-2.0,-1.1768,0.062,-3.5672,4.3634,3.4902,2039
5,-2.0,0.6096,-0.175,-3.492,2.5533,3.0032,2078
5,-1.8865,1.427,-0.6504,-2.237,2.6181,1.0154,2120
5,-1.1565,-0.1921,-0.7991,-1.4347,1.8018,1.239,2054
5,-1.0593,-0.0093,-1.5808,-0.0266,2.5559,-0.681,2031
5,0.4075,-1.6787,-1.1445,0.9135,1.9291,-0.8811,2031
5,1.0239,-2.0,-0.7991,-0.6184,0.8461,0.9987,2047
5,1.1169,-1.1018,0.1274,0.489,-0.5639,2.4246,2096
5,0.7852,-0.7437,0.6887,0.696,-1.4524,2.5217,2066
5,-0.135,-0.7986,0.123,0.6098,-1.0202,2.6044,2044
5,-1.1616,-1.2383,0.3279,0.8512,-1.2045,2.057,2067
5,-1.3179,-1.6484,0.6699,0.1562,-1.1573,1.6018,2043
5,-1.8372,-1.0664,0.4714,-0.6834,-0.5501,1.3426,1999
5,-1.47,-0.5808,0.2622,-0.6297,-0.2212,0.7437,2048
5,-0.4639,-1.0195,0.1089,-0.5517,-0.237,0.4241,2044
5,-0.1316,-1.1177,-0.1392,-0.4187,0.0435,0.5319,2029
5,0.1204,-1.1765,-0.313,-0.2726,0.2248,0.7269,2072
5,0.3542,-1.073,-0.3516,-0.0779,0.3694,0.8265,2077
5,0.3552,-1.1055,-0.2859,-0.1276,-0.1132,0.6003,2068
5,-0.0107,-0.8689,-0.2837,0.1481,-0.6742,0.6175,2068
5,-0.2656,-1.0969,-0.0491,0.0173,-0.9168,0.5048,2051
5,-0.4441,-0.8884,0.0876,-0.1595,-0.5505,0.5842,2019
5,-0.3904,-0.7278,0.0608,-0.0398,-0.0533,0.6878,2037
5,-0.1716,-1.0867,0.198,-0.0891,0.0001,0.454,2046
5,-0.0554,-1.1245,0.1404,-0.2047,-0.1137,0.3796,2016
5,-0.0469,-0.791,0.0657,0.0527,-0.0567,0.5811,2042
5,-0.0576,-1.0063,0.0476,0.1152,-0.1297,0.5409,2083
5,-0.0408,-1.2192,0.0996,-0.0525,-0.2826,0.3954,2047
5,-0.0881,-0.9966,0.0964,-0.0784,-0.3793,0.4727,2007
5,-0.1868,-0.8096,0.1082,0.0914,-0.2063,0.6076,2029
5,-0.1633,-0.9231,0.1399,0.0589,-0.1987,0.5312,2135
5,-0.1216,-0.957,0.1587,0.0332,-0.2381,0.5277,2082
5,-0.1206,-0.9243,0.1443,0.0935,-0.1132,0.6505,2101
5,-0.1169,-1.0115,0.1411,0.0971,-0.0764,0.7127,2053
5,-0.02,-1.0989,0.188,0.0156,-0.1645,0.7963,1971
5,0.0376,-1.1389,0.1619,-0.0915,-0.2629,0.7632,2118
5,0.0544,-1.0625,0.1418,-0.0799,-0.2762,0.9528,1981
5,0.0503,-1.0654,0.126,-0.0522,-0.2673,1.1058,2130
5,0.043,-1.1826,0.1882,-0.1436,-0.2053,1.1383,2116
5,0.126,-1.1565,0.2351,-0.3167,-0.2208,1.1405,2159
5,0.1174,-0.8586,0.2346,-0.1867,0.0052,1.4383,2047
5,0.0955,-0.999,0.3259,-0.2169,0.0835,1.4841,2109
5,0.0659,-1.0166,0.4199,-0.1836,0.2635,1.6109,2104
5,0.1101,-1.1372,0.4314,-0.1776,0.3938,1.7594,2043
5,0.1812,-1.2334,0.4255,-0.1964,0.575,1.9632,2046
5,0.2466,-1.2493,0.3613,-0.2155,0.6501,2.1808,2018
5,0.387,-1.2905,0.3601,-0.2461,0.7753,2.385,1986
5,0.519,-1.3552,0.3516,-0.2703,0.8556,2.6215,2045
5,0.5259,-1.5151,0.321,-0.3452,0.9519,2.7417,2029
5,0.637,-1.4907,0.2317,-0.4798,1.1148,2.8968,2038
5,0.5037,-1.6021,0.3438,-0.4039,1.3244,3.1114,2057
5,0.6133,-1.8584,0.4797,-0.5233,1.6018,3.3159,2056
5,0.9031,-2.0,0.7292,-0.9274,1.2528,3.4171,2077
5,1.042,-2.0,0.7227,-1.0734,0.3806,3.5527,2099
5,0.9033,-2.0,0.7988,-1.1103,-0.662,3.6259,2084
5,0.5408,-2.0,0.5117,-1.1144,-1.0865,3.6177,2039
5,0.9622,-2.0,0.9333,-0.8083,-2.4975,2.794,2076
5,0.7322,-1.0886,0.3044,-1.5949,-3.1308,3.391,1939
5,0.0964,-0.9299,-0.4775,0.2401,-3.1536,3.044,1978
5,-1.3374,-1.6265,-0.2419,1.1412,-1.1304,3.3886,2055
6,-1.6016,-2.0,0.0701,-1.1366,-0.2127,1.2949,2124
6,-0.2944,-1.1689,-0.1941,-1.9285,-0.0242,2.4049,2012
6,-0.7227,0.0457,0.0789,0.6233,0.4498,4.3634,2112
6,0.3518,0.033,0.3416,1.3203,-0.1409,4.2944,2135
6,1.9999,-0.3691,1.9999,-3.5896,-4.3635,4.3634,1439
6,-2.0,-0.7778,-2.0,0.1886,2.8323,2.4214,2185
6,-2.0,-0.1689,-0.2119,-0.1549,1.4023,-0.1567,2753
6,-1.4673,-0.4941,1.1016,-0.5847,-0.6972,-0.2591,2262
6,-1.0461,-0.1086,0.8943,0.2023,-2.4681,-0.3773,1974
6,-1.0547,0.4871,0.324,0.4542,-2.653,-1.0637,1987
6,-0.585,0.1001,-0.0261,0.0599,-2.3061,-2.6219,2046
6,0.0557,-0.0405,-0.2297,-0.1711,-1.0507,-3.2198,2082
6,0.0142,-0.3369,-0.2698,-0.329,-0.6678,-3.8741,2049
6,-0.0527,-0.354,-0.3074,-0.8967,-0.452,-4.3635,2013
6,-0.0476,-0.2009,-0.3713,-0.5472,-0.2565,-4.3635,2003
6,-0.105,-0.1968,-0.0884,-0.0252,-0.3205,-4.3635,2012
6,-0.2317,-0.1763,0.1228,0.2385,-0.3766,-4.3635,2013
6,-0.4053,-0.1182,0.1838,0.5068,0.0284,-4.3572,2025
6,-0.4854,-0.1499,0.1555,0.6116,0.5201,-4.3635,2061
6,-0.4883,-0.134,0.0684,0.6521,0.9529,-4.3635,2071
6,-0.4497,-0.0859,0.0393,0.6805,0.8744,-4.3635,2072
6,-0.3845,-0.0618,0.0098,0.7891,0.3875,-4.3635,2069
6,-0.2371,-0.0942,0.0161,0.9419,-0.134,-4.3635,2062
6,-0.0969,-0.2109,0.021,1.1138,-0.4883,-4.3635,2068
6,0.0408,-0.4187,0.0264,1.3817,-0.4936,-4.3635,2060
6,0.054,-0.6167,0.0151,1.6138,-0.2875,-4.3635,2051
6,-0.0847,-0.8535,0.1572,1.644,-0.3449,-4.3635,2046
6,-0.1213,-1.2354,0.3633,0.8761,-0.7898,-4.3635,2019
6,-0.4153,-0.6672,0.1555,1.1131,-0.0736,-4.3635,2021
6,-0.2356,-1.1997,0.1985,1.321,0.1337,-4.3635,2079
6,-0.269,-1.4387,0.0237,1.568,-0.0724,-4.3635,2056
6,-0.3894,-1.6968,-0.0444,1.8495,-0.4798,-4.3635,1962
6,-0.5422,-2.0,0.3616,0.944,-1.2239,-4.3635,1941
6,0.032,-2.0,0.4609,-3.1192,-0.5557,-4.3635,1909
6,-0.9824,-0.0747,-1.1167,1.2864,4.1568,-4.3635,1917
6,1.644,-1.719,0.8188,0.7408,0.4518,-3.705,2188
6,-1.2068,-2.0,-0.0583,0.963,0.8625,-3.1953,2143
6,0.2791,-1.4248,0.2092,-0.7558,0.3906,-2.6671,2213
6,0.1448,-0.2603,0.147,0.1101,0.2518,-2.1838,2032
6,-0.198,-1.3091,-0.3171,-0.391,0.0374,-1.4468,2072
6,0.4519,-2.0,-0.2024,-3.7547,-2.3405,-3.0311,2084
6,1.1357,1.7607,-1.2603,-1.3902,-2.4421,2.1043,1968
6,-1.0657,-0.7173,0.2627,-0.8704,-1.5667,0.7746,2083
6,0.2991,-2.0,1.0278,-2.6022,-0.3449,4.3634,2045
6,-2.0,0.1931,0.6833,-0.4787,1.868,4.3634,2120
6,-0.7014,-0.6155,1.9999,0.6442,-0.5132,4.3634,2287
6,1.8528,-2.0,1.6802,1.2814,-0.3028,1.6763,2056
6,1.0308,-2.0,0.3618,0.5818,3.9261,3.5114,1847
6,0.7095,-2.0,-0.6489,-1.8241,4.3634,4.1634,2028
6,-2.0,-1.7708,-0.0261,-4.2579,4.3634,3.4655,2076
6,-2.0,-0.0955,-0.3965,-4.3635,2.2316,2.9417,2115
6,-2.0,1.4768,-0.8374,-3.1058,2.0069,2.0552,2066
6,-1.4336,0.3188,-0.5447,-1.5793,1.1079,2.1551,2069
6,-0.8687,-0.1252,-1.0376,-0.9071,0.5608,0.3796,2031
6,-0.0522,-0.6533,-1.3142,0.4683,-0.0615,-1.4885,2022
6,1.2634,-1.4294,-0.6038,0.1406,-0.7383,-0.7975,2117
6,1.3115,-2.0,0.1677,1.0334,-2.1101,1.0009,2047
6,-1.3088,-1.6582,0.48,1.1282,-0.3907,1.878,2077
6,-0.1082,-0.6223,0.3711,0.3152,-0.9525,2.6599,2055
6,-1.0901,-1.0767,0.1609,0.331,0.0929,1.9899,1967
6,-1.1978,-1.3499,0.3843,-0.0525,0.267,1.5123,2044
6,-0.9849,-1.2178,0.321,-0.7673,-0.3598,0.9725,2018
6,-0.8718,-0.6226,-0.1021,-0.7849,-0.2116,0.503,1978
6,-0.3342,-1.0674,-0.1418,-0.4583,0.1281,0.1931,2048
6,0.2053,-1.0977,-0.3511,-0.2408,0.2968,0.3872,2047
6,0.5261,-1.0349,-0.4109,0.0384,0.3626,0.62,2061
6,0.5354,-0.9614,-0.4556,0.2043,0.4093,0.7705,2073
6,0.2651,-0.999,-0.3203,0.3952,-0.0403,0.7586,2083
6,-0.0625,-1.4121,0.0986,0.276,-0.6476,0.4576,2113
6,-0.384,-0.7449,-0.0957,-0.2655,-1.0597,0.6213,1962
6,-0.5247,-0.7573,0.2036,-0.0376,-0.169,0.5865,2032
6,-0.1021,-0.9668,0.1738,-0.0132,0.2019,0.4926,2049
6,0.0081,-1.03,0.2234,0.0023,0.1364,0.4991,2035
6,0.0193,-1.2258,0.1707,-0.1474,-0.0995,0.4361,2051
6,-0.0864,-0.9712,-0.051,-0.066,-0.1815,0.6703,2055
6,-0.0132,-0.8928,-0.0139,0.0621,-0.2822,0.8506,2055
6,0.054,-1.1035,0.0554,-0.0617,-0.405,0.6766,2051
6,0.1165,-0.9802,0.0054,-0.2613,-0.5915,0.4671,2029
6,-0.0999,-0.8047,0.1245,-0.019,-0.3669,0.6709,2059
6,-0.1221,-0.9316,0.1116,0.0501,-0.2884,0.74,2033
6,-0.0112,-1.0393,0.1033,-0.0024,-0.2045,0.6827,2050
6,0.0908,-1.1941,0.2217,-0.2009,-0.4064,0.5054,2037
6,-0.0027,-0.9443,0.1594,-0.0593,-0.3216,0.7701,2013
6,-0.0725,-0.9558,0.186,-0.039,-0.3445,0.9325,2010
6,0.0078,-0.9636,0.1316,-0.0521,-0.3848,1.0441,2007
6,0.0146,-0.9363,0.0879,-0.063,-0.3109,1.1375,1995
6,0.0366,-0.9727,0.0417,-0.0418,-0.279,1.1617,2020
6,0.0227,-1.1077,0.0991,-0.1621,-0.2896,1.127,2124
6,0.0557,-0.9478,0.0256,-0.1627,-0.2244,1.2934,2000
6,0.0186,-1.074,0.1172,-0.2181,-0.1614,1.3368,2060
6,-0.033,-1.0566,0.199,-0.2244,-0.1467,1.4637,2036
6,-0.0105,-1.1047,0.291,-0.3197,-0.1381,1.4386,2061
6,0.0305,-1.1528,0.3933,-0.382,0.0911,1.5854,2110
6,0.1738,-1.0034,0.4492,-0.346,0.2633,1.8635,2031
6,0.2429,-1.1162,0.4631,-0.2959,0.3982,1.9863,2111
6,0.2341,-1.2583,0.4109,-0.3248,0.5818,2.0578,2025
6,0.3079,-1.3257,0.3979,-0.424,0.7851,2.1659,2039
6,0.4058,-1.3232,0.3708,-0.3847,1.0323,2.5631,2069
6,0.584,-1.4741,0.2903,-0.4227,1.0833,2.7822,2053
6,0.5144,-1.7085,0.3296,-0.5295,1.058,2.8625,2059
6,0.5234,-2.0,0.3186,-0.8613,0.8518,2.6007,2052
7,0.3586,-1.6655,0.4951,-0.614,1.25,3.1934,2064
7,0.7051,-1.981,0.7607,-0.9335,1.0797,3.1604,2075
7,0.9004,-1.8394,0.8159,-1.0993,0.4984,3.2889,2075
7,0.9697,-1.8953,0.8672,-1.1154,-0.4309,3.4095,2072
7,0.5432,-1.9824,0.6895,-1.0789,-0.8756,3.4989,2057
7,1.1636,-2.0,0.6145,-1.5894,-2.5623,2.9476,2042
7,1.4521,-1.166,0.7026,-0.9949,-3.9982,3.2037,2040
7,0.1704,-0.7998,-0.3743,-0.1071,-4.2084,3.0572,1965
7,-1.0288,-1.436,-0.2671,1.2989,-2.6846,2.6811,2016
7,-2.0,-2.0,0.0483,0.5197,0.5679,3.0909,2163
7,-0.6555,-2.0,0.0222,-2.0884,0.0494,2.1579,2080
7,-0.2175,0.0828,-0.3005,-0.6078,0.193,4.3634,2036
7,0.5195,-0.0215,0.3545,0.7798,-0.8557,4.3634,2106
7,1.5181,-0.2417,1.1875,-0.1875,-0.2687,3.5669,2000
7,-2.0,-1.511,-2.0,0.3107,1.3006,2.0772,1057
7,-2.0,0.0278,-1.0928,0.8,0.4438,1.0961,2723
7,-1.4993,-0.687,0.5813,-1.0556,0.3274,0.1527,2449
7,-1.1782,-0.3755,0.7639,-0.3836,-2.531,0.039,2040
7,-1.6707,-0.4219,0.4077,-0.2119,-1.89,-0.8359,2022
7,-1.2112,-0.2205,0.0105,-0.4071,-2.316,-1.7896,2049
7,-0.2134,0.5034,-0.1702,-0.5522,-1.4258,-2.742,2037
7,0.0725,0.4758,-0.3162,-0.2675,-0.9404,-3.2858,2032
7,-0.1782,-0.0879,-0.3169,-0.1388,-0.7098,-3.8344,2028
7,-0.1919,-0.2192,-0.3865,-0.1021,-0.4128,-4.3635,2024
7,-0.0508,-0.2124,-0.3691,0.0878,-0.1852,-4.3635,2021
7,-0.094,-0.5305,0.0447,0.0481,-0.3943,-4.3635,1999
7,-0.2598,-0.2825,0.0974,0.1878,-0.4092,-4.3635,2007
7,-0.4404,-0.1199,0.1387,0.4711,0.07,-4.3635,2040
7,-0.4377,-0.0737,-0.0027,0.6031,0.5817,-4.3635,2077
7,-0.4148,-0.104,-0.0771,0.7719,1.0071,-4.3635,2081
7,-0.3892,-0.1221,-0.0674,0.9068,0.93,-4.3635,2075
7,-0.1621,-0.0947,0.0583,1.0909,0.0418,-4.3635,2063
7,0.0237,-0.207,0.0806,1.1155,-0.7288,-4.3635,2053
7,-0.0569,-0.3682,0.0234,1.144,-0.9361,-4.3635,2048
7,-0.2332,-0.5266,-0.064,1.5359,-0.4595,-4.3635,2055
7,-0.1174,-0.7107,0.0698,1.5791,-0.1144,-4.3635,2057
7,-0.1636,-0.7852,0.2229,1.5519,-0.3575,-4.3635,2056
7,-0.4058,-0.8667,0.2292,1.5171,-0.2171,-4.3635,2033
7,-0.5876,-2.0,0.3965,1.1999,-0.2179,-4.3635,2047
7,-0.4294,-1.1941,-0.1978,1.3474,0.2433,-4.3635,1935
7,-0.7361,-1.9912,0.3499,1.1483,-0.2695,-4.3635,1922
7,-0.5474,-1.8542,0.4836,0.596,-0.757,-4.3635,2022
7,0.2451,-2.0,0.3958,-3.2758,0.4337,-4.3635,1885
7,-1.3535,0.6091,-1.1167,0.874,4.3634,-4.1176,2033
7,1.9999,-0.8167,0.3767,1.8126,-0.7831,-3.4098,2136
7,-0.9697,-2.0,0.2288,0.6505,-0.2666,-3.4451,2210
7,-0.5312,-1.3865,-0.3584,-0.5088,0.235,-2.1337,2205
7,0.1084,-0.1196,-0.0032,0.0192,0.2101,-2.0178,2067
7,-0.4321,-1.3984,-0.1096,-0.5809,-0.3292,-1.5179,2064
7,-0.657,-1.6536,-0.5354,-2.0945,-1.3517,-0.9311,2050
7,-0.3118,-0.4226,-0.4128,-2.0634,-1.4426,0.8292,2002
7,0.1147,-1.0432,0.3418,-1.6736,-1.1605,1.9888,2007
7,-0.0146,-2.0,1.0664,-2.3605,0.022,3.8443,1991
7,-2.0,0.4319,1.6038,-0.4176,0.64,4.3634,2183
7,-0.6443,-0.7793,1.9999,1.6325,-2.522,3.7572,2298
7,1.9999,-2.0,1.9999,2.3502,-0.6344,1.4311,2009
7,1.9771,-2.0,0.9363,0.4165,3.4156,3.3553,1831
7,0.991,-2.0,-0.4451,-1.6337,4.3634,3.9279,2048
7,-2.0,-2.0,-0.0513,-4.0678,4.3634,3.3616,2121
7,-2.0,-0.3142,-0.2771,-4.3635,2.3956,3.3204,2142
7,-1.6133,1.8901,-1.0417,-3.1724,2.0515,2.5057,2083
7,-0.7297,0.6697,-1.1421,-1.1998,2.1708,1.4243,1965
7,-0.8271,-0.0535,-1.4431,-0.7171,2.5289,0.7094,1976
7,-0.3533,-0.1484,-1.9387,0.4611,3.0589,-0.8961,2100
7,0.8303,-1.5601,-1.542,0.9686,2.6247,-0.5745,2165
7,1.9999,-2.0,0.0464,0.655,0.0079,1.9184,2193
7,0.4917,-1.3701,1.1306,1.2158,-1.5133,2.6271,1956
7,-0.3281,-0.5063,1.1182,0.504,-0.6765,2.6803,2011
7,-1.0562,-0.73,0.3752,0.3988,-0.6176,2.4538,2010
7,-1.574,-1.4141,0.481,0.3911,-0.9873,1.5616,2082
7,-2.0,-0.9321,0.6326,-0.6248,-0.3879,1.3631,1983
7,-1.2769,-0.8704,0.2612,-0.9128,0.1083,0.4488,2026
7,-0.1943,-1.0459,0.1035,-0.7007,0.2033,0.2244,2039
7,0.0828,-1.0276,-0.0388,-0.4687,0.295,0.447,2014
7,0.3018,-1.0544,-0.2197,-0.3159,0.4892,0.5754,2051
7,0.3777,-0.991,-0.3882,-0.0906,0.269,0.7775,2111
7,0.2842,-0.9807,-0.4597,0.1447,-0.2466,0.822,2108
7,0.0759,-1.2021,-0.1646,0.1653,-0.5697,0.6773,2076
7,-0.1101,-1.1638,-0.0601,-0.0992,-1.1744,0.503,2063
7,-0.5327,-0.7534,0.0674,-0.0586,-0.5823,0.7139,2013
7,-0.2971,-0.8315,0.051,-0.1566,-0.0824,0.5401,2062
7,-0.0767,-0.9441,0.116,-0.1164,0.0755,0.4564,2076
7,0.041,-1.05,0.1309,-0.0719,-0.0419,0.5129,2041
7,-0.0056,-1.1362,0.1169,-0.098,-0.1702,0.6036,2027
7,0.0012,-1.1243,0.0454,-0.2097,-0.4036,0.5743,2065
7,-0.0798,-1.0732,0.0767,-0.0786,-0.3706,0.5606,2026
7,-0.2024,-0.781,0.0444,0.0225,-0.4093,0.7284,2034
7,-0.0466,-0.9729,0.0962,-0.0254,-0.4354,0.6022,2065
7,-0.0857,-0.9526,0.1194,0.0184,-0.3095,0.696,2061
7,-0.0139,-1.0281,0.1292,-0.015,-0.1153,0.7865,2018
7,-0.012,-1.0964,0.1677,-0.0726,-0.1071,0.7859,2009
7,0.0947,-1.1726,0.1433,-0.2402,-0.2036,0.8608,1997
7,-0.0444,-0.9578,0.146,-0.1702,-0.1639,1.0748,2074
7,-0.0151,-1.1416,0.1472,-0.2265,-0.229,1.0167,2028
7,0.0349,-1.0896,0.2078,-0.2071,-0.1667,1.1951,2167
7,0.0813,-1.009,0.1221,-0.2389,-0.2685,1.2865,2048
7,-0.0105,-0.9417,0.1135,-0.2047,-0.1876,1.3853,2049
7,-0.0125,-0.9912,0.1609,-0.2505,-0.0365,1.38,2049
7,0.0032,-1.0242,0.2812,-0.3405,-0.0162,1.3501,2050
7,-0.0266,-1.0896,0.281,-0.4255,-0.0025,1.3161,2001
7,-0.0029,-0.8899,0.2312,-0.2862,0.1546,1.6474,2057
7,-0.0464,-1.2126,0.3601,-0.333,0.2464,1.6298,2059
8,0.1875,-1.1206,0.2649,-0.3333,0.4548,1.8789,2099
8,0.241,-1.2375,0.2637,-0.3007,0.5453,2.0579,2045
8,0.271,-1.3174,0.2634,-0.3734,0.666,2.1979,2032
8,0.3728,-1.2751,0.2954,-0.3585,0.8272,2.4958,2042
8,0.4897,-1.3884,0.2563,-0.3866,0.8882,2.6341,2063
8,0.4927,-1.5442,0.2432,-0.403,0.9781,2.7699,2039
8,0.4238,-1.7385,0.2373,-0.5149,0.952,2.8377,2073
8,0.5176,-1.696,0.3174,-0.5562,1.091,3.1465,2059
8,0.8342,-1.9529,0.5728,-0.7725,0.9999,3.2508,2081
8,1.0571,-1.9734,0.6907,-1.0303,0.263,3.3557,2100
8,1.1252,-1.9983,0.7861,-1.136,-0.853,3.4949,2077
8,0.4966,-2.0,0.7546,-1.2328,-1.4865,3.4587,2042
8,1.2517,-2.0,1.009,-1.4466,-3.0765,2.6577,2056
8,0.8418,-1.3013,0.8853,-1.6805,-3.9522,3.1215,1964
8,0.2043,-0.6858,-0.0317,-0.5347,-3.5878,3.3742,1985
8,-0.3318,-1.2727,-0.0054,0.7817,-3.2202,3.1922,2030
8,-1.8706,-2.0,-0.1597,0.5669,-1.3314,3.0345,2096
8,-1.0127,-2.0,0.2322,-1.8265,-0.9023,1.8098,2112
8,-0.0054,-0.1169,-0.209,-1.4748,-1.0806,4.08,2023
8,-0.0862,0.1072,0.1855,0.4315,-1.2127,3.8933,2060
8,0.9893,-0.1018,1.4082,0.0398,-0.8766,4.182,2042
8,-1.1355,0.1018,-0.9736,-1.391,-4.2867,2.9432,700
8,-2.0,-0.0835,-1.9458,0.7415,0.3398,1.8323,2607
8,-1.4287,-0.4482,0.2205,-0.7693,0.0003,0.0739,2589
8,-1.1711,-0.4238,0.9744,-0.6672,-2.7863,0.0967,2125
8,-1.623,-0.3665,0.5679,-0.4958,-2.0146,-0.6775,1987
8,-1.4663,-0.2832,0.1731,-0.661,-2.1148,-1.7411,2032
8,-0.4783,0.4875,-0.0955,-0.7634,-1.4018,-2.689,2021
8,-0.0835,0.5959,-0.2273,-0.3737,-0.3944,-2.9899,2045
8,-0.2275,-0.0457,-0.2729,-0.2722,-0.0579,-3.8843,2045
8,-0.1133,-0.2727,-0.3025,-0.3293,0.1493,-4.3635,2043
8,-0.092,-0.2593,-0.2913,-0.1898,0.3663,-4.3635,2023
8,-0.0745,-0.4182,-0.0605,-0.1382,0.2173,-4.3635,2001
8,-0.2068,-0.2168,0.1128,0.0238,0.3035,-4.3635,2005
8,-0.4204,-0.0754,0.1599,0.2312,0.651,-4.3635,2039
8,-0.4475,-0.0295,0.0918,0.3461,1.1601,-4.3635,2061
8,-0.3806,-0.0774,-0.0017,0.4996,1.5261,-4.3635,2079
8,-0.3037,-0.0989,-0.0339,0.6882,1.1929,-4.3635,2071
8,-0.1934,-0.1121,-0.0083,0.7719,0.5205,-4.3635,2071
8,-0.1572,-0.2102,-0.0349,0.7998,0.0138,-4.3635,2051
8,-0.1462,-0.3054,-0.0408,0.9495,-0.2678,-4.3635,2048
8,-0.1514,-0.4788,0.0063,1.2163,-0.0928,-4.3635,2052
8,-0.0349,-0.6438,0.0686,1.385,0.0268,-4.3635,2053
8,-0.0227,-0.7041,0.1584,1.4844,-0.0602,-4.3635,2064
8,-0.1521,-0.824,0.2146,1.4179,0.0688,-4.3635,2046
8,-0.1306,-1.0168,0.0266,1.4518,0.1651,-4.3635,2064
8,0.0071,-1.3064,0.0212,1.8796,0.3135,-4.3635,2035
8,0.0439,-2.0,0.2505,0.3356,-0.5478,-4.3635,1904
8,-0.8372,-2.0,0.2375,0.6734,-1.4117,-4.3635,1874
8,0.4653,-2.0,1.9999,-2.1188,-3.6368,-4.3635,2064
8,0.4001,0.209,-1.0378,-1.3299,0.0465,-4.3635,1818
8,-1.0332,-0.4519,-0.3979,1.1885,2.0752,-3.9406,2200
8,-1.2373,-2.0,-0.302,2.3406,-1.1358,-3.7386,2106
8,-1.0854,-2.0,-0.3584,-1.4476,-0.8485,-3.0837,2284
8,0.1294,0.1411,-0.1221,-0.1932,0.7726,-1.2639,2147
8,0.7366,-2.0,0.8057,-1.8078,-1.1395,-1.902,2070
8,0.1125,-2.0,-0.3303,-3.0139,-1.4125,-1.1741,1992
8,-1.0088,0.1409,0.0627,-1.7033,-0.2542,2.5277,1993
8,-1.3706,-1.312,1.031,-1.827,0.0119,3.1464,2139
8,-1.7515,-0.5859,1.3176,0.0196,0.8923,3.2275,2242
8,-0.2332,-2.0,1.9999,2.2104,-0.4894,3.2977,2212
8,0.5876,-1.7969,1.9702,3.4824,0.5698,2.0939,1905
8,0.8157,-2.0,0.1614,-0.6026,4.3634,2.7341,1914
8,-0.2488,-2.0,-0.2988,-4.0314,4.3634,2.2368,2080
8,-1.0908,-0.813,-0.5042,-4.3635,4.3634,3.1517,2080
8,-1.5986,1.916,-0.0947,-2.6943,1.2295,3.9819,1973
8,-2.0,0.6006,-0.7253,-2.2882,0.075,3.0913,1992
8,-2.0,-0.0967,-1.3418,-0.7239,1.9651,1.0139,2103
8,-0.4915,-0.416,-0.7195,-0.0236,0.0028,-0.9906,2125
8,0.0571,-0.2461,-0.8811,0.7345,-0.4071,-1.0357,2099
8,1.032,-1.2849,-0.6206,2.2017,-0.2498,-0.2916,2156
8,0.918,-2.0,0.2056,0.9705,-1.3512,0.7064,2014
8,-0.9109,-1.5549,0.0291,0.184,-0.1112,1.9937,1994
8,-0.1692,-0.7944,0.6794,0.6628,-1.0849,1.8596,2054
8,-0.6694,-0.9976,0.595,0.3504,-0.3049,1.6773,2000
8,-0.9041,-1.0703,0.6406,-0.1392,0.3574,1.285,2063
8,-0.9644,-1.0845,0.5427,-0.6264,0.5003,0.8713,2048
8,-0.6477,-0.9185,0.1008,-0.7112,0.5727,0.3482,2028
8,-0.2329,-1.0295,-0.1309,-0.5167,0.5671,0.1549,2025
8,0.1858,-1.0642,-0.2539,-0.3217,0.4466,0.3147,2013
8,0.4199,-1.0308,-0.2117,-0.1386,0.4063,0.5393,2043
8,0.4197,-0.9824,-0.2083,-0.0123,0.2059,0.6497,2066
8,0.2583,-0.9622,-0.1826,0.0989,-0.1479,0.6624,2073
8,0.1216,-0.9626,-0.1282,0.1626,-0.3936,0.6138,2043
8,0.0366,-1.04,-0.0151,0.2131,-0.4731,0.5605,2069
8,-0.0654,-1.0139,0.1101,0.1828,-0.4958,0.5486,2044
8,-0.0989,-1.0886,0.1689,-0.0136,-0.4389,0.5054,2030
8,-0.2063,-1.0715,0.1929,-0.1491,-0.2569,0.4197,2034
8,-0.2212,-0.9204,0.1287,-0.1216,-0.0575,0.4649,2044
8,-0.1641,-0.9314,0.0933,0.0529,0.0154,0.5366,2017
8,-0.0894,-0.9263,0.0464,0.0679,0.0382,0.6313,2006
8,-0.0256,-0.9653,-0.0085,0.0989,-0.1579,0.6369,2042
8,0.0801,-1.0068,0.0039,0.104,-0.2048,0.6068,2001
8,0.0962,-1.1726,0.0417,0.0458,-0.2701,0.5404,2001
8,0.085,-1.1475,0.0676,-0.0674,-0.5573,0.5011,2011
8,0.0544,-1.0337,0.1748,-0.0915,-0.5059,0.5975,2008
8,0.1204,-1.0327,0.1851,-0.1642,-0.3996,0.6791,2060
8,0.1243,-0.8408,0.1843,-0.106,-0.247,0.9926,2138
8,0.1477,-1.0396,0.261,-0.1398,-0.2987,1.0332,2046
8,0.2109,-1.1487,0.2627,-0.3227,-0.4486,0.895,2049
8,0.147,-0.8125,0.188,-0.1537,-0.2043,1.1817,2066
9,0.1565,-1.0369,0.2427,-0.1768,-0.1189,1.2832,1983
9,0.2432,-0.991,0.1626,-0.2884,-0.085,1.319,1999
9,0.1892,-0.9929,0.1707,-0.3855,-0.0973,1.3207,2071
9,0.084,-0.9062,0.188,-0.2884,0.0589,1.6,2185
9,0.1313,-1.084,0.1921,-0.2952,0.1005,1.6483,2050
9,0.2156,-1.019,0.1609,-0.2939,0.1878,1.8638,2030
9,0.231,-1.1179,0.2114,-0.3847,0.2946,1.9068,2034
9,0.1873,-1.0549,0.2666,-0.2477,0.3577,2.1742,2028
9,0.2998,-1.199,0.2139,-0.236,0.4137,2.2744,2054
9,0.6252,-1.147,0.083,-0.2229,0.1981,2.5473,2046
9,0.429,-1.3953,0.1167,-0.1333,0.2583,2.7273,2067
9,0.0579,-1.5796,0.2471,-0.2156,0.6078,2.8902,2077
9,0.2192,-1.4658,0.3633,-0.2795,0.6682,2.9264,2068
9,0.5837,-1.4316,0.2209,-0.3422,0.8115,2.9365,1999
9,0.3735,-1.5754,0.4631,-0.2491,1.003,3.2764,2040
9,0.5188,-1.7944,0.5745,-0.4008,0.9452,3.4043,2066
9,0.4297,-1.8872,0.6975,-0.524,0.675,3.4439,2080
9,0.3916,-2.0,0.8301,-0.8748,0.1702,3.2369,2070
9,0.6414,-1.6958,0.6057,-0.8154,-0.418,3.7924,2046
9,0.5828,-1.929,0.531,-0.6348,-0.7416,3.7641,2077
9,0.5408,-2.0,1.2422,-0.5722,-1.5241,3.2706,2079
9,0.5217,-0.6873,-0.0823,-1.4751,-1.5577,3.8097,1936
9,0.4604,-1.407,-0.1387,-0.3215,-2.1044,2.7289,2022
9,-0.8108,-1.4949,-0.3604,0.0166,-0.1726,3.1725,2040
9,-0.9006,-2.0,-0.1318,-1.3834,-0.1605,1.6121,2087
9,-0.7178,-2.0,-0.0593,-2.0762,-0.3827,1.5504,2012
9,0.3142,0.6377,-0.0593,-0.3765,-0.9604,4.3634,2074
9,0.0918,-0.2747,0.3652,0.3807,-0.547,3.432,2121
9,1.0764,-0.0137,0.5049,-0.2223,-0.5787,3.9285,2037
9,-2.0,-0.4661,-1.375,-2.7868,-4.3635,3.6055,720
9,-2.0,-0.1165,-2.0,0.724,2.3143,1.8523,2491
9,-1.5811,-0.3953,0.3137,-0.7681,0.2593,0.1934,2704
9,-1.3196,-0.6829,1.0322,-0.3442,-2.241,0.016,2166
9,-1.1462,-0.1025,0.5586,-0.2175,-2.1587,-0.6584,1954
9,-0.7439,0.6108,0.0537,0.179,-2.9572,-1.3263,2000
9,-0.2085,0.1765,-0.1177,-0.0708,-2.2477,-2.3145,2064
9,0.0696,-0.1353,-0.2214,-0.3288,-1.1238,-3.1473,2066
9,-0.2537,-0.5061,-0.2651,-0.6007,-0.6592,-3.89,2036
9,-0.1648,-0.467,-0.3862,-0.7681,-0.2834,-4.3635,2020
9,-0.0713,-0.2524,-0.2815,-0.4183,-0.0261,-4.3635,2006
9,-0.146,-0.2869,-0.012,-0.1204,-0.0855,-4.3635,2007
9,-0.2849,-0.1956,0.1768,0.1887,0.0037,-4.1443,2008
9,-0.4651,-0.1853,0.2273,0.3422,0.3485,-4.17,2045
9,-0.4729,-0.1819,0.198,0.3942,0.7412,-4.3245,2062
9,-0.4165,-0.2114,0.0898,0.4625,1.1174,-4.3635,2078
9,-0.3616,-0.2012,0.0171,0.5702,0.9861,-4.3635,2065
9,-0.3374,-0.175,0.0049,0.6682,0.5349,-4.3635,2052
9,-0.2698,-0.1887,0.0366,0.7664,0.1258,-4.3635,2055
9,-0.1941,-0.2354,0.073,0.9397,-0.1633,-4.3635,2062
9,-0.4199,-0.3682,0.0056,1.2557,0.3006,-4.3635,2071
9,-0.0139,-0.53,0.1194,1.5195,0.3071,-4.3635,2061
9,0.0857,-0.5745,0.2925,1.6884,-0.1987,-4.3635,2049
9,-0.1292,-0.6917,0.3044,1.6414,0.1095,-4.3635,2061
9,-0.2019,-0.8572,0.2712,1.5575,0.4749,-4.3635,2067
9,-0.0908,-1.1982,0.1155,1.6206,0.7224,-4.3635,2070
9,-0.0654,-1.8743,-0.0583,0.8702,0.2183,-4.3635,1983
9,-0.6604,-1.2903,-0.4094,1.8333,-0.245,-4.3635,1906
9,-0.7812,-1.856,-0.0803,1.6002,-0.901,-4.3635,1922
9,-0.3799,-2.0,1.0129,-3.5452,-1.9218,-4.3635,2032
9,-0.679,0.9072,-1.4163,0.5689,2.3248,-3.9345,1856
9,1.9999,-1.1021,1.5679,1.333,0.6305,-3.568,2214
9,-1.5581,-2.0,0.28,1.1517,-0.7933,-3.626,2159
9,-0.76,-1.9556,-0.2222,-0.1766,-0.3875,-2.3254,2266
9,-0.2378,-0.9204,0.2339,-0.6513,0.5746,-2.3783,2096
9,0.0879,-2.0,0.6831,-2.2379,-0.6971,-1.5556,2032
9,-0.6772,-1.3213,-0.4126,-2.6124,-0.6088,-0.1071,1987
9,-0.7361,-0.7349,-0.0222,-2.0758,-0.5609,2.3443,2023
9,-1.9539,-1.1101,0.3403,-1.7153,1.268,3.5671,2083
9,-1.6814,0.0251,1.9999,0.1364,0.2237,2.8557,2295
9,0.7056,-2.0,1.9999,2.9167,-0.8951,2.8529,2218
9,1.9999,-2.0,1.9999,3.1689,0.4429,1.4665,1786
9,1.866,-2.0,0.2092,-1.3577,4.3634,3.4966,1950
9,-0.5588,-2.0,0.0388,-3.4192,4.3634,3.3646,2055
9,-2.0,-1.585,-0.1035,-4.3635,4.1009,3.3661,2053
9,-1.6611,0.2261,-0.8425,-4.1194,2.5097,3.2167,2080
9,-1.1292,1.0779,-0.8416,-2.7434,1.0388,3.3148,2013
9,-0.7021,0.4739,-1.261,-1.2436,1.2355,2.2855,2012
9,-0.4478,0.3442,-1.5691,-0.2424,1.7329,-0.2514,2001
9,-0.0359,-0.2786,-1.5632,0.1153,0.5606,-1.0512,2113
9,0.7703,-1.4224,-1.2485,1.1368,1.1717,0.1597,2177
9,1.5979,-2.0,0.3164,0.8885,0.6775,2.3944,2206
9,-0.3845,-1.2659,1.1118,0.8118,-0.5791,2.6124,1985
9,-0.385,-0.5581,1.082,0.43,-0.0509,2.5509,2076
9,-1.0039,-0.7598,0.3887,0.2802,-0.0241,2.2069,2019
9,-1.4526,-1.2969,0.4087,0.0912,-0.1531,1.6073,2009
9,-1.3025,-1.0994,0.4646,-0.8762,-0.4277,1.117,1996
9,-0.7253,-0.8691,0.0134,-0.8028,0.1453,0.5694,2001
9,-0.0759,-1.085,0.002,-0.5267,0.2119,0.5916,2031
9,0.0615,-1.0437,-0.1006,-0.3366,0.2151,0.8066,2045
9,0.179,-1.0715,-0.2393,-0.1835,0.2232,0.8986,2110
9,0.2393,-1.0432,-0.3113,-0.0606,0.0309,0.869,2131
9,0.1882,-1.1843,-0.3037,-0.119,-0.6273,0.5771,2077
9,-0.1807,-0.7024,-0.3569,0.206,-0.6795,0.8251,2022
9,-0.3064,-0.9658,-0.0107,0.0896,-0.5988,0.7903,2048
9,-0.2126,-1.3936,0.3018,-0.3546,-0.5916,0.3589,2058
9,-0.3916,-0.6018,0.0229,-0.1366,0.03,0.8006,2019
9,-0.1533,-0.9316,0.1477,-0.0561,0.0898,0.5645,2066
9,-0.0935,-1.0691,0.1104,-0.0047,0.072,0.6122,2031
9,-0.1558,-1.0806,0.0281,-0.0866,-0.1312,0.6356,2052
9,-0.114,-1.0295,-0.002,-0.059,-0.3047,0.6096,2051
9,-0.0906,-1.1821,0.0408,-0.133,-0.4674,0.416,2033
9,-0.189,-0.7795,-0.0527,-0.0174,-0.4962,0.5983,1985
9,-0.3215,-0.8926,0.0583,0.0449,-0.3964,0.6091,2100
10,-0.1753,-1.0198,0.1526,0.014,-0.2149,0.6164,2027
10,-0.0911,-1.0759,0.176,0.0284,-0.1965,0.6244,2065
10,-0.0444,-1.1167,0.2256,-0.0715,-0.2988,0.6164,2079
10,-0.0581,-0.9031,0.1731,0.0252,-0.1109,0.9496,2058
10,0.0942,-1.0674,0.2654,-0.0414,-0.1527,1.0295,2107
10,0.1592,-1.0723,0.1855,-0.0304,-0.2437,1.1919,2023
10,0.3076,-0.9976,0.1084,-0.0458,-0.3774,1.3025,2052
10,0.1821,-1.019,0.1663,-0.0863,-0.4354,1.3479,2027
10,0.1011,-1.073,0.2058,-0.2594,-0.4208,1.2541,2042
10,0.042,-0.7175,0.2173,-0.2432,-0.1075,1.4731,2027
10,0.061,-0.9114,0.3113,-0.1673,0.0599,1.5424,2068
10,0.0432,-1.0332,0.3481,-0.1361,0.2153,1.6564,2066
10,0.1228,-1.2532,0.3755,-0.2296,0.2476,1.7279,2062
10,0.1943,-1.1357,0.3267,-0.2357,0.3734,1.9531,2061
10,0.2632,-1.2207,0.3721,-0.2433,0.4188,2.1377,2030
10,0.3816,-1.3159,0.3079,-0.3647,0.4681,2.234,2044
10,0.3921,-1.1221,0.3379,-0.2219,0.6909,2.7095,2040
10,0.4753,-1.3877,0.3381,-0.248,0.8047,2.8189,2150
10,0.4844,-1.6909,0.3076,-0.5098,0.8035,2.7047,2037
10,0.4675,-1.4377,0.2708,-0.3775,1.0638,3.1883,2064
10,0.3914,-1.7314,0.4238,-0.3533,1.184,3.2951,2082
10,0.5562,-1.9688,0.6284,-0.6028,1.326,3.4507,2075
10,0.9175,-2.0,0.8464,-0.9995,0.8337,3.4802,2072
10,1.113,-1.9436,0.8425,-1.142,-0.2216,3.586,2073
10,0.6753,-2.0,0.6208,-1.0717,-1.089,3.5575,2056
10,0.9561,-2.0,1.1567,-1.368,-3.0926,2.4629,2081
10,0.5645,-1.1155,0.6101,-1.5066,-2.6757,3.6359,1971
10,0.239,-0.9172,-0.2539,-0.5806,-2.9799,3.4676,2016
10,-0.7456,-1.4282,-0.2527,0.5741,-1.849,2.9953,2006
10,-1.6494,-2.0,0.1028,-0.8799,0.0748,1.6516,2099
10,-0.0923,-1.8379,-0.1565,-1.9793,-0.8961,2.0276,2032
10,-0.8079,-0.2642,-0.062,0.5939,-0.7465,4.3634,2049
10,-0.1436,-0.7051,0.4106,0.8942,-1.0575,4.2454,2143
10,0.915,-0.4175,0.9282,-0.762,-0.2872,4.0164,2017
10,-2.0,-1.063,-2.0,-0.3489,1.0493,1.3119,934
10,-2.0,-0.1692,-1.0747,1.1447,-0.1622,1.0597,2673
10,-1.4255,-0.5735,0.6389,-0.7112,-0.7497,0.1638,2475
10,-1.4304,-0.3291,0.9351,-0.442,-3.2302,0.0254,2099
10,-1.7014,-0.3806,0.5457,-0.4075,-2.5634,-0.8178,2021
10,-1.106,-0.2046,0.0354,-0.8933,-2.6288,-1.8223,2034
10,-0.1304,0.5647,-0.1792,-1.0385,-1.5394,-2.9054,2011
10,0.0708,0.5251,-0.2961,-0.4264,-1.0543,-3.3376,2031
10,-0.21,-0.2253,-0.2427,-0.2737,-0.8971,-4.0331,2034
10,-0.1697,-0.3535,-0.3435,-0.498,-0.6345,-4.3635,2030
10,-0.085,-0.4087,-0.2378,-0.2846,-0.479,-4.3635,2006
10,-0.1062,-0.5056,0.0112,-0.3103,-0.562,-4.3635,2003
10,-0.3213,-0.2732,0.1536,-0.0233,-0.1406,-4.3635,2013
10,-0.5254,-0.188,0.187,0.123,0.3884,-4.3635,2040
10,-0.5444,-0.144,0.1311,0.1732,0.934,-4.3635,2070
10,-0.489,-0.1648,0.0159,0.3136,1.3075,-4.3466,2101
10,-0.4158,-0.1567,-0.0066,0.5457,1.1814,-4.3635,2078
10,-0.281,-0.1323,0.0498,0.6882,0.6219,-4.3635,2067
10,-0.1309,-0.1987,0.0696,0.7039,0.0791,-4.3635,2053
10,-0.0974,-0.2859,0.0208,0.8249,-0.2348,-4.3635,2053
10,-0.0608,-0.4263,0.0588,1.1284,-0.1041,-4.3635,2052
10,-0.1084,-0.5774,0.0994,1.3735,0.193,-4.3635,2057
10,-0.219,-0.7239,0.1721,1.4605,0.3298,-4.3635,2061
10,-0.312,-0.7852,0.2578,1.2853,0.4284,-4.3635,2070
10,-0.2212,-1.0767,0.2314,1.2716,0.453,-4.3635,2050
10,-0.1084,-1.1211,0.0383,0.9493,0.4376,-4.3635,2001
10,-0.4551,-1.5347,0.2124,1.576,0.257,-4.3635,1922
10,-0.4421,-2.0,0.2607,0.7211,-0.1824,-4.3635,1957
10,0.0972,-2.0,1.4058,-2.0989,-1.4837,-4.3635,2104
10,0.925,0.252,-1.1023,0.2637,2.0224,-4.3635,1859
10,0.5195,-0.9634,0.5149,1.1812,1.2579,-4.2125,2200
10,-1.1914,-2.0,0.2637,1.3761,-1.0088,-3.5597,2062
10,-1.2861,-1.5142,-0.4358,-0.293,0.2141,-3.1356,2236
10,-0.2131,0.3445,0.0095,0.3368,1.6973,-1.6712,2117
10,0.3779,-2.0,0.6355,-2.0684,-0.0201,-1.5018,2053
10,-0.8655,-1.7107,-0.363,-2.5056,0.089,-0.0967,1979
10,-0.592,-0.6531,-0.1191,-2.2348,0.0176,1.7759,2066
10,-0.9429,-0.8364,0.9119,-1.6419,0.942,3.7089,2101
10,-1.1543,-1.1602,1.2964,-0.4653,0.5241,3.4059,2220
10,-0.1211,-2.0,1.9999,2.1836,-0.0843,4.3634,2163
10,1.0964,-1.9258,1.9999,2.7778,0.9224,2.9794,1966
10,1.1504,-2.0,0.5068,-1.4723,4.3634,3.9704,1907
10,-0.2385,-2.0,-0.4395,-3.8713,4.3634,3.0542,2056
10,-1.9006,0.1736,-0.3892,-4.3635,3.3369,3.8177,2035
10,-2.0,1.3337,-0.2559,-4.0049,2.014,1.8395,2062
10,-2.0,0.7937,-0.6309,-1.5426,2.9297,2.1999,2047
10,-1.4714,-0.7505,-1.582,-1.5731,2.7366,-0.0141,2057
10,-0.1721,-0.4348,-2.0,0.9865,2.9673,-1.2599,1983
10,1.5154,-2.0,-0.4302,-0.0786,0.2119,-1.5392,2036
10,1.6252,-1.5405,0.3708,-0.0162,0.4573,1.5807,2199
10,0.5371,-1.1538,0.3308,0.8376,-1.0092,2.2704,2081
10,-0.3184,-0.7688,0.1191,0.7032,-1.1392,2.9128,2052
10,-0.7349,-1.0449,0.5012,0.7801,-0.7236,2.5167,2063
10,-1.2278,-1.3354,0.3752,0.1924,-0.2209,1.9686,2030
10,-1.4526,-1.3665,0.3525,-0.2924,-0.2583,1.597,2006
10,-1.7781,-0.7676,0.2705,-0.6775,-0.1928,0.6958,1966
10,-0.9343,-0.8298,0.2358,-0.6775,-0.2916,-0.0157,2048
10,-0.2334,-1.0745,-0.0112,-0.5757,-0.1401,-0.1104,2022
10,0.0325,-1.106,-0.1858,-0.3205,0.0662,0.0643,2030
10,0.3618,-1.0908,-0.3284,-0.0839,0.4591,0.3876,2091
10,0.5037,-1.0034,-0.3567,0.1111,0.505,0.592,2132
10,0.3213,-1.0049,-0.3438,0.3518,-0.0378,0.6373,2100
10,-0.0618,-1.3845,0.0554,0.2156,-1.0299,0.405,2119
10,-0.4204,-1.1023,-0.0242,-0.2065,-1.3034,0.3442,1993
10,-0.4814,-0.7898,0.0371,-0.0687,-0.1084,0.5209,2023
10,-0.0828,-0.814,0.04,0.0478,-0.196,0.4565,2054
10,0.0071,-1.0164,0.1416,0.0077,-0.1202,0.3987,2009
10,-0.0017,-1.1416,0.0308,-0.0984,-0.2088,0.4201,2031
11,-0.0403,-0.9438,0.0059,0.0382,-0.1767,0.5677,2050
11,0.1365,-1.2273,0.0728,-0.2333,-0.5935,0.2518,2057
11,-0.0767,-0.9138,0.1008,-0.0529,-0.4959,0.4762,2113
11,-0.0239,-1.0129,0.1663,-0.0788,-0.4441,0.5105,2083
11,0.0032,-1.0273,0.1921,-0.1242,-0.5452,0.4793,1973
11,-0.0852,-0.8225,0.2241,0.0196,-0.191,0.7359,2053
11,0.0349,-1.0342,0.1921,-0.0431,-0.1808,0.6469,2026
11,0.1208,-1.1777,0.2219,-0.1732,-0.287,0.5669,2053
11,0.0178,-0.8687,0.1643,-0.0751,-0.2384,0.8411,2006
11,0.0054,-0.9292,0.1289,-0.0535,-0.1662,0.9961,2023
11,0.1152,-1.0261,0.0947,-0.1297,-0.2333,1.1135,2011
11,0.137,-1.1636,0.1199,-0.2561,-0.456,1.1089,2026
11,0.1206,-1.21,0.0461,-0.5224,-0.7973,0.8304,2027
11,-0.1521,-0.7922,0.1406,-0.1847,-0.3771,1.2701,2086
11,0.0432,-0.979,0.1538,-0.2428,-0.3255,1.3121,2051
11,-0.0007,-1.0972,0.2881,-0.3156,-0.2887,1.3109,2082
11,-0.0212,-1.2205,0.4431,-0.51,-0.3872,1.2006,2056
11,-0.0791,-0.6711,0.2922,-0.2844,0.0366,1.6315,2023
11,-0.0481,-1.0024,0.4136,-0.19,0.1453,1.6918,2058
11,0.2039,-1.1819,0.3911,-0.2737,0.4148,1.8105,2072
11,0.3137,-1.2505,0.384,-0.3091,0.4553,1.994,2066
11,0.345,-1.3379,0.3369,-0.4197,0.5355,2.0498,2056
11,0.4153,-1.272,0.2852,-0.4261,0.6022,2.3173,2051
11,0.4197,-1.3088,0.3179,-0.2882,0.7867,2.6386,2072
11,0.4705,-1.4966,0.2893,-0.3141,0.8236,2.7899,2065
11,0.2976,-1.9719,0.436,-0.5894,0.7,2.5661,2056
11,0.4307,-0.7109,0.1504,-0.2645,1.0467,3.5489,2022
11,0.2192,-1.7454,0.4922,-0.4015,1.1537,3.0858,2072
11,0.5486,-1.8831,0.6152,-0.7396,1.1571,3.1554,2074
11,0.8389,-1.8008,0.7468,-0.9371,0.5055,3.3172,2067
11,0.7764,-1.8193,0.7371,-0.9545,-0.2585,3.4354,2059
11,0.5959,-1.9492,0.5823,-0.9796,-0.6572,3.5006,2069
11,1.0491,-2.0,1.031,-1.3607,-2.6753,2.3675,2085
11,0.6689,-1.0581,0.5278,-1.2501,-2.7486,3.5292,1980
11,0.4187,-1.0203,-0.1956,-0.6364,-3.1156,2.9099,2019
11,-0.8252,-1.2012,-0.3428,0.6272,-1.5849,3.0467,2015
11,-1.7344,-2.0,0.2068,-0.7827,-0.267,1.4135,2122
11,0.2354,-1.3223,-0.1238,-1.7327,-1.1001,2.4104,2033
11,-0.8276,-0.2664,-0.0564,0.6401,-0.4402,4.3634,2062
11,-0.1213,-0.7661,0.3896,0.9021,-0.8103,4.1941,2138
11,0.7637,-0.6228,1.0144,-0.6886,-0.6024,3.9237,2032
11,0.4373,1.2031,-0.3877,-2.4906,-3.9925,2.5171,841
11,-2.0,0.2632,-2.0,1.2228,0.4516,1.4565,2572
11,-1.4392,-0.437,0.321,-0.3104,-0.289,-0.4614,2472
11,-1.447,-0.448,0.9363,-0.4891,-2.7366,0.0828,2120
11,-1.5801,-0.3601,0.6709,-0.1165,-2.1096,-0.7283,1998
11,-1.2275,-0.1033,0.2893,-0.4227,-2.7113,-1.2089,2032
11,-0.4863,0.6326,0.0139,-0.139,-2.3518,-1.9481,2011
11,0.0273,0.207,-0.2285,-0.2792,-1.4905,-3.6006,2048
11,-0.1855,-0.2986,-0.2122,-0.2737,-1.2248,-4.3082,2058
11,-0.1694,-0.4197,-0.21,-0.5185,-0.7432,-4.3635,2034
11,-0.021,-0.6321,-0.0627,-0.5939,-0.6119,-4.3635,2012
11,-0.0371,-0.2979,0.0742,-0.4036,-0.4256,-4.3635,2008
11,-0.1882,-0.1592,0.1785,0.1088,-0.1936,-4.359,2023
11,-0.2622,-0.1638,0.2805,0.3092,-0.1047,-4.2884,2048
11,-0.2195,-0.1809,0.3035,0.3438,-0.2404,-4.3635,2053
11,-0.1536,-0.2703,0.1704,0.4055,-0.2911,-4.3635,2055
11,-0.3743,-0.2891,0.0718,0.3348,-0.3755,-4.3635,2045
11,-0.5261,-0.2231,0.0659,0.2824,-0.473,-4.3635,2041
11,-0.4653,-0.1868,0.0923,0.3958,-0.526,-4.3635,2046
11,-0.2998,-0.2595,0.1462,0.736,-0.5943,-4.3635,2069
11,-0.1865,-0.4907,0.2197,0.9252,-0.2759,-4.3635,2074
11,-0.2266,-0.6902,0.2085,1.0274,-0.236,-4.3635,2108
11,-0.2263,-0.7705,0.281,0.7843,-0.2782,-4.3635,2054
11,-0.498,-1.5928,0.5549,0.2816,-0.2097,-4.3635,2056
11,-0.3281,-0.4802,-0.0669,0.3669,0.3325,-4.3635,1983
11,-0.4805,-1.1885,-0.0156,1.6061,0.5926,-4.3635,2034
11,-0.6016,-1.8887,0.3623,0.5448,0.3376,-4.3635,2052
11,0.5754,-2.0,1.4788,-0.6528,-1.5877,-4.3635,2050
11,1.3506,-0.9309,0.0703,-0.7708,-0.8435,-4.3635,2038
11,1.3196,-0.4526,0.5896,1.118,0.2272,-3.2258,1998
11,-1.7161,-2.0,0.3235,1.7636,-0.8641,-3.852,2041
11,-1.0454,-2.0,-0.3533,-0.4549,-0.195,-3.048,2198
11,0.1389,-0.0383,0.5183,-0.0711,0.9356,-1.7534,2058
11,-0.1853,-2.0,0.3411,-0.9618,0.5365,-1.0349,2038
11,-1.6584,-2.0,-0.2092,-1.2491,1.6787,0.3678,2046
11,-0.658,-1.5703,0.426,-2.0839,0.4541,1.7286,2096
11,-1.6465,-1.1384,0.2278,-1.5856,1.7675,3.4432,2063
11,-1.3923,-2.0,1.2161,0.6261,2.2137,4.0463,2070
11,0.2166,-2.0,1.7795,1.386,1.0439,4.1465,2165
11,1.4436,-2.0,1.1978,-0.656,1.4516,3.5407,2002
11,1.0503,-1.2693,-0.2568,-3.2106,2.4634,2.4606,2038
11,0.4329,0.9539,-0.6855,-2.9185,2.9694,2.6482,2074
11,-1.3259,1.8306,0.2925,-1.4166,0.9565,2.2519,2030
11,-1.324,-0.2866,0.5732,-0.8572,0.1053,0.6747,1961
11,-2.0,-1.6184,-0.5168,-0.7609,1.6178,2.5492,2010
11,-2.0,-1.9512,-1.5115,-1.8692,4.3634,-0.1289,2206
11,-0.7102,-0.8811,-0.7881,-0.8501,3.8884,-0.382,2104
11,0.3364,-1.7729,0.021,0.0333,1.013,0.4599,1950
11,1.323,-0.8057,-0.1348,-0.0541,-0.9585,2.0885,2036
11,0.8284,-0.7986,0.1187,0.1232,-1.0191,1.7704,1992
11,0.2283,-0.7207,0.1274,0.2386,-0.3304,1.9038,2101
11,-0.5159,-1.2717,0.2998,0.5277,-0.6003,2.0018,2132
11,-0.6458,-1.1765,0.5576,0.4028,-0.6691,2.0217,2099
11,-1.126,-1.0886,0.2981,0.0722,0.0716,1.9362,2043
11,-1.1873,-1.0457,0.3372,-0.3129,0.3167,1.4607,2043
11,-0.9202,-0.8821,0.1692,-0.6468,-0.0023,0.742,2037
11,-0.5078,-0.9573,-0.0618,-0.6205,-0.235,0.3426,2062
11,-0.1589,-1.1135,-0.158,-0.4469,-0.1436,0.3547,2055
11,0.0244,-1.1187,-0.2529,-0.283,0.3424,0.6252,2077
11,0.2051,-1.0154,-0.3015,-0.1175,0.4695,0.7136,2040
11,0.2146,-1.0015,-0.1721,-0.0075,0.1783,0.6729,2011
11,-0.0342,-1.1511,-0.155,0.0614,-0.3458,0.6269,2122
11,-0.1836,-1.5894,0.1875,-0.4622,-0.7349,0.2559,2035
11,-0.4656,-0.7292,-0.0286,-0.2791,-0.3397,0.7052,2032
12,-0.3364,-1.001,0.1628,-0.2514,-0.143,0.4807,2050
12,-0.158,-0.9473,0.0945,-0.1598,0.0511,0.5496,2064
12,-0.1587,-1.1306,0.114,-0.1585,-0.1085,0.405,2110
12,-0.1299,-1.2068,0.0408,-0.3679,-0.2729,0.2938,2063
12,-0.1584,-0.8789,0.0215,-0.1418,-0.1475,0.6743,2016
12,-0.1399,-0.7732,-0.0098,0.021,-0.1224,0.7155,2032
12,-0.054,-1.126,0.0889,-0.0979,-0.0463,0.5119,2070
12,-0.0264,-1.1011,0.106,-0.2064,-0.2759,0.4494,2040
12,-0.0388,-0.8354,0.0723,-0.1019,-0.1728,0.6572,2017
12,-0.0051,-0.906,0.0417,-0.0455,-0.1975,0.6612,1982
12,0.0125,-1.0942,0.1238,-0.1412,-0.2605,0.5627,2070
12,0.0486,-0.9631,0.0664,-0.1332,-0.3232,0.6468,2103
12,-0.0586,-1.0637,0.1399,-0.1197,-0.225,0.7134,2042
12,-0.0986,-1.167,0.1934,-0.2844,-0.3978,0.6152,2037
12,-0.1345,-0.7542,0.1309,-0.195,-0.2631,0.8018,2099
12,-0.1802,-0.9497,0.1768,-0.1392,-0.0775,0.8212,2061
12,-0.0952,-0.9688,0.1362,-0.1365,-0.0735,0.9207,2104
12,-0.041,-0.9802,0.1028,-0.1296,-0.0906,0.9797,2128
12,-0.0793,-1.0125,0.0862,-0.1284,-0.1702,0.9692,2037
12,-0.0864,-1.0247,0.0444,-0.0728,-0.1918,0.9917,1993
12,0.0105,-1.1528,0.0806,-0.0863,-0.2531,1.1089,2114
12,0.0427,-1.1719,0.0684,-0.1033,-0.3049,1.1909,2052
12,0.0408,-1.1821,0.1475,-0.1341,-0.3442,1.2692,2044
12,0.0757,-1.1997,0.2307,-0.157,-0.2948,1.4011,2051
12,0.1431,-1.1216,0.3281,-0.2225,-0.1449,1.5892,2030
12,0.209,-1.2021,0.4646,-0.2706,-0.0165,1.6687,2205
12,0.2292,-1.0706,0.5054,-0.1718,0.3354,1.9991,2052
12,0.3018,-1.1147,0.521,-0.1999,0.5962,2.2029,2059
12,0.3982,-1.1987,0.509,-0.2314,0.8192,2.4139,2045
12,0.4487,-1.2617,0.5115,-0.2203,1.0556,2.6232,2064
12,0.4265,-1.4531,0.4971,-0.2457,1.1941,2.6874,2048
12,0.49,-1.5393,0.5005,-0.2895,1.3199,2.8849,2042
12,0.7256,-1.6865,0.5686,-0.424,1.1802,2.9901,2076
12,0.8533,-1.8293,0.6812,-0.5861,0.8435,3.1317,2061
12,0.7268,-1.8882,0.7695,-0.8336,0.6253,3.2254,2060
12,0.7825,-1.7795,0.72,-1.0001,0.3484,3.3411,2058
12,1.6482,-2.0,0.7417,-1.9113,-2.7453,2.1168,2081
12,0.7295,-1.3572,0.1011,-1.1118,-2.427,3.4455,1993
12,0.6392,-1.3108,0.0149,-0.2356,-3.1267,3.4038,2075
12,-0.4343,-1.2151,-0.1604,0.4899,-2.2911,3.3939,2011
12,-2.0,-2.0,0.031,-0.4573,0.3722,2.2658,2053
12,-0.1543,-2.0,0.1084,-2.2403,-0.4621,1.748,2038
12,0.3655,0.3638,-0.1685,-0.1241,-0.4184,4.3634,2002
12,-0.2397,-0.9084,0.3484,1.2905,-0.7292,4.3339,2149
12,0.4609,-1.1292,0.5237,-0.1352,-1.0571,3.896,2141
12,1.9999,-0.2822,1.688,-1.3395,-1.2537,4.0463,1667
12,-2.0,-1.5479,-2.0,-0.4762,2.1297,2.3155,2001
12,-2.0,-0.6167,-0.6672,0.5179,1.0347,0.7014,2679
12,-1.6912,-0.8069,1.1147,-0.5553,-0.5105,0.6907,2297
12,-1.4207,-0.3652,0.8479,0.2662,-1.672,0.2176,1992
12,-1.5342,-0.1941,0.4397,-0.1615,-1.5845,-0.7135,1998
12,-0.6411,0.9375,0.0122,0.1057,-2.2527,-1.4639,2008
12,-0.0256,0.1294,-0.0955,0.1274,-1.2593,-2.4254,2037
12,-0.1143,-0.3167,-0.2756,-0.1393,-0.8722,-3.4986,2064
12,-0.2493,-0.3442,-0.3459,-0.2025,-0.5151,-4.3635,2025
12,-0.1921,-0.438,-0.3235,0.084,-0.2794,-4.3635,2015
12,-0.1267,-0.7024,-0.0393,0.0718,-0.4139,-4.3635,2010
12,-0.2244,-0.302,0.0764,0.2136,-0.5653,-4.3635,2002
12,-0.4187,-0.1179,0.1699,0.5576,-0.2101,-4.36,2028
12,-0.48,-0.0894,0.1838,0.5983,0.1645,-4.3635,2049
12,-0.4136,-0.0891,0.1211,0.6411,0.5228,-4.3541,2081
12,-0.2686,-0.1094,0.1133,0.8835,0.245,-4.3635,2101
12,-0.1821,-0.085,0.1179,0.871,-0.3984,-4.3635,2068
12,-0.1743,-0.1062,0.0715,0.6958,-0.857,-4.3635,2044
12,-0.1619,-0.1858,0.0073,0.7108,-0.9891,-4.3635,2047
12,-0.1208,-0.3386,0.0498,0.9588,-0.9247,-4.3635,2058
12,-0.0891,-0.5034,0.0874,1.1999,-0.8606,-4.3635,2063
12,-0.2278,-0.6365,0.136,1.3703,-0.6855,-4.3635,2059
12,-0.3132,-0.8081,0.2678,1.1769,-0.4912,-4.3635,2064
12,-0.2854,-0.9424,0.2146,0.9818,-0.1181,-4.3635,2059
12,-0.6479,-2.0,0.4546,0.6484,0.0156,-4.3635,2042
12,-0.6855,-1.488,-0.1152,0.454,0.1918,-4.3635,1862
12,-0.7649,-1.2639,0.0537,1.025,-0.8083,-4.3635,1954
12,-0.4912,-0.759,0.3015,-0.026,-0.5022,-4.3635,2059
12,0.9036,-2.0,0.8181,0.0726,-1.3572,-4.3635,2114
12,1.2246,-0.7756,-1.1301,0.0389,-0.5323,-4.3635,1878
12,-0.0649,-1.0808,-0.2605,1.8434,0.2699,-3.7796,2145
12,-0.9858,-1.9067,0.3254,1.2199,-0.5882,-1.7551,2181
12,-0.8945,-2.0,0.3352,-1.5382,1.4426,-2.7564,2172
12,0.0601,-0.5229,0.1934,-0.7291,1.6395,-2.1855,2046
12,0.249,-1.6887,-0.02,-1.4601,-1.77,-1.7618,2014
12,-1.7688,-0.0581,-0.6377,-0.5378,0.5247,0.5798,2024
12,0.1804,-1.4326,-0.0757,-2.3894,0.3382,2.9239,2024
12,-2.0,-1.5674,0.2944,-1.0219,2.8916,3.7543,2048
12,-1.5757,0.4641,1.9999,0.1619,1.0459,4.3634,2333
12,1.1777,-2.0,1.9999,3.2098,-0.3076,1.7335,2237
12,1.9999,-2.0,1.9999,2.8866,1.1448,2.5996,1649
12,0.8608,-2.0,-0.5603,-2.7328,4.3634,4.0112,2009
12,-2.0,-2.0,-0.7134,-4.3635,4.3634,3.2736,2068
12,-2.0,0.0288,-0.6504,-4.3635,3.0148,3.6434,2068
12,-2.0,1.9999,-0.2371,-3.6849,0.6894,1.8134,2063
12,-1.1418,1.0444,-0.533,-1.1017,0.6558,2.6247,2015
12,-1.5046,-0.1086,-1.7231,-0.9507,2.2043,-0.0254,1990
12,-0.0464,-0.3884,-1.4426,0.386,1.9301,-1.3657,2081
12,0.9524,-1.8806,-0.4211,-0.224,0.0124,-0.1502,2114
12,0.7317,-1.8071,-0.1833,0.2207,0.1297,1.5965,2128
12,0.3835,-1.0083,0.3735,0.6071,-0.8991,2.3626,2135
12,-0.3259,-0.7627,0.2498,0.5966,-0.9475,2.4723,2020
12,-0.9229,-1.0752,0.4111,0.51,-0.3996,1.9201,2037
12,-1.3445,-1.283,0.3799,0.2759,-0.1716,1.6034,2046
12,-1.3833,-1.2546,0.3975,-0.0766,-0.1342,1.4948,2025
13,-1.3152,-0.9351,0.2305,-0.6333,-0.3181,0.5785,2011
13,-0.686,-0.9822,0.0576,-0.5461,-0.2763,0.1096,2041
13,-0.1228,-1.0781,-0.1062,-0.3793,-0.0009,0.1574,2033
13,0.1882,-1.0583,-0.207,-0.1766,0.1952,0.3358,2042
13,0.3237,-1.0054,-0.2844,-0.0168,0.3248,0.5311,2059
13,0.2971,-1.0239,-0.3044,0.1577,0.2485,0.7072,2075
13,0.1167,-1.0757,-0.2383,0.2113,-0.0031,0.74,2076
13,-0.093,-1.1792,-0.1167,0.112,-0.7283,0.4585,2050
13,-0.3333,-0.8804,-0.0256,0.0979,-0.6777,0.536,2006
13,-0.3254,-0.8711,0.1282,0.087,-0.3771,0.5203,2066
13,-0.1812,-0.8838,0.0886,0.1163,-0.1202,0.4948,2058
13,-0.0742,-1.0083,0.1357,0.131,-0.0137,0.5022,2060
13,-0.0818,-1.1567,0.1536,0.0087,-0.1634,0.5691,2019
13,-0.1501,-1.1335,0.1338,-0.0244,-0.2557,0.604,2047
13,-0.0339,-1.054,0.0146,-0.1352,-0.5554,0.5096,2026
13,-0.0093,-0.7622,0.0745,0.0598,-0.3047,0.6628,2048
13,0.0493,-0.9536,0.1714,0.0149,-0.404,0.5825,2103
13,0.094,-1.1841,0.2209,-0.1497,-0.6074,0.4064,2024
13,0.0085,-0.8735,0.2456,-0.0668,-0.3273,0.6462,2022
13,0.0093,-0.8865,0.2219,0.0146,-0.1494,0.8496,2077
13,0.1001,-1.0344,0.2371,-0.0212,-0.1992,0.8558,2064
13,0.0979,-1.2358,0.2883,-0.2473,-0.4717,0.8476,2148
13,-0.0667,-0.644,0.0962,-0.1111,-0.22,1.2125,1949
13,-0.0076,-0.928,0.1624,-0.0911,-0.1856,1.1951,2030
13,0.1162,-1.0623,0.1248,-0.1277,-0.2241,1.2263,2005
13,0.1074,-1.3005,0.1646,-0.3826,-0.5956,0.9549,2105
13,-0.1106,-0.6404,0.0769,-0.0447,-0.192,1.4557,1991
13,0.0088,-1.1116,0.1741,-0.1081,-0.277,1.4399,2096
13,0.1086,-1.1482,0.1436,-0.2219,-0.3504,1.4479,2031
13,0.1111,-1.4978,0.2478,-0.5835,-0.7008,1.0549,1939
13,-0.0076,-0.8027,0.2407,-0.1256,-0.1455,1.9261,2028
13,0.1167,-1.2549,0.4348,-0.1553,0.0599,1.9413,2080
13,0.1616,-1.2798,0.4407,-0.1899,0.2286,2.086,2047
13,0.2231,-1.3884,0.4619,-0.2582,0.336,2.1236,2035
13,0.2974,-1.1619,0.3582,-0.2863,0.5307,2.3481,2040
13,0.2288,-1.2515,0.4199,-0.0812,0.7549,2.6481,2048
13,0.3057,-1.4692,0.4141,-0.0463,0.9822,2.7874,2074
13,0.3755,-1.6523,0.3994,-0.0561,1.1965,2.9729,2050
13,0.5713,-1.9333,0.4492,-0.3137,1.2627,2.9529,2052
13,0.6514,-1.8987,0.4604,-0.4662,1.1849,3.1112,2053
13,0.6699,-1.8862,0.5044,-0.5777,0.9448,3.2485,2066
13,0.6177,-2.0,0.6985,-0.8433,0.4651,3.2352,2067
13,0.6663,-2.0,0.6318,-1.2595,-0.1535,3.3344,2051
13,0.6133,-1.9919,0.365,-1.2519,-0.6672,3.4151,2034
13,0.4653,-1.5762,0.8804,-0.6404,-1.244,3.4485,2081
13,1.335,-0.8694,-0.0649,-2.1822,-2.6321,3.5189,1928
13,0.3293,-1.053,-0.2634,0.0811,-2.6994,2.9711,2057
13,-0.6064,-1.6123,-0.217,0.1959,-1.5045,2.9143,2039
13,-1.2041,-2.0,0.1699,-1.3284,-0.1481,1.3749,2135
13,-0.4404,-2.0,-0.0259,-2.5262,-0.5565,1.5047,2020
13,0.1804,1.0583,-0.1667,-0.0083,-1.3113,4.3634,2048
13,0.7329,0.5706,0.2234,1.4414,-1.9262,4.1931,2097
13,1.9999,-0.9229,1.165,-1.2663,-1.5667,4.0508,1911
13,-2.0,-1.386,-2.0,-0.2294,2.8434,2.5876,1444
13,-2.0,0.1648,-0.2456,0.0727,0.293,0.7305,2846
13,-1.3335,-0.8162,0.8057,-1.1303,-0.9155,0.1758,2370
13,-1.2712,-0.3672,0.792,-0.3904,-2.7904,-0.3816,2011
13,-1.363,0.0347,0.4255,-0.445,-2.4075,-0.8745,2039
13,-0.7969,0.6902,0.1223,0.2513,-3.1885,-2.1282,2043
13,0.0398,0.2825,-0.0085,-0.2433,-2.026,-3.432,2021
13,0.0305,-0.1292,-0.1306,-0.3237,-1.234,-4.0148,2045
13,-0.2632,-0.5605,-0.1912,-0.6341,-0.5382,-4.3635,2060
13,-0.0081,-0.405,-0.2476,-0.6051,-0.0466,-4.3635,2027
13,-0.072,-0.6008,-0.0339,-0.6211,0.1117,-4.3635,2008
13,-0.1755,-0.2703,0.1172,-0.2462,0.1814,-4.3627,2015
13,-0.3906,-0.2148,0.2185,0.0903,0.5247,-4.2362,2025
13,-0.4534,-0.1956,0.2661,0.1768,0.8136,-4.3343,2053
13,-0.3591,-0.1858,0.2395,0.2903,1.0468,-4.3635,2067
13,-0.3022,-0.1482,0.1682,0.4124,0.8978,-4.3635,2074
13,-0.4099,-0.1506,0.0386,0.3462,0.6946,-4.3635,2060
13,-0.4097,-0.1545,-0.0256,0.3769,0.4425,-4.3635,2042
13,-0.3137,-0.2039,0.0107,0.6255,0.3017,-4.3635,2063
13,-0.168,-0.3491,0.0022,1.0575,0.4026,-4.3635,2085
13,-0.1389,-0.5513,0.0693,1.3945,0.6271,-4.3635,2086
13,-0.0793,-0.5854,0.2021,1.578,0.4149,-4.3635,2068
13,-0.1365,-0.7754,0.3208,1.362,0.3549,-4.3635,2057
13,-0.1479,-1.6641,0.5039,0.7405,0.277,-4.3635,2067
13,-0.3481,-0.8557,-0.0427,1.0717,0.9974,-4.3635,1984
13,-0.5051,-1.519,-0.0759,1.9132,1.0083,-4.3635,1950
13,-0.5439,-1.8901,0.145,1.3874,0.1021,-4.3635,1907
13,-0.4133,-1.1592,0.563,0.243,-0.3705,-4.3635,2048
13,0.0381,-1.1768,0.054,0.8223,1.6032,-4.3635,2079
13,1.042,-2.0,0.5176,-0.1225,-0.563,-4.3635,2070
13,-0.094,-1.2747,-0.7739,1.1818,0.6207,-4.0616,1914
13,0.0933,-1.9478,-0.2368,0.4188,-0.4257,-3.3539,2157
13,-1.1389,-1.4849,-0.3867,0.1671,0.9353,-2.2377,2139
13,-0.6155,-1.3713,0.3875,-0.2526,1.445,-2.5225,2167
13,0.8569,-1.2739,0.3855,-0.7146,-1.1986,-1.5107,2056
13,0.3027,-1.2424,-0.4504,-1.0326,-2.0262,-0.246,1981
13,-0.5264,-1.0645,-0.7275,-1.3844,-1.6598,0.7127,2052
13,-0.5925,-1.2063,-0.2212,-1.6013,-1.6785,1.0809,2082
13,0.9651,-0.4556,-0.6204,-3.6862,-1.5494,-0.1499,1935
13,-2.0,1.9482,-0.001,-0.1653,1.763,3.3022,2057
13,-2.0,-2.0,1.9999,-1.2848,0.1446,4.3634,2097
13,-0.0046,-1.4885,1.9999,0.3348,-1.5827,4.0136,2252
13,1.9999,-2.0,1.2273,1.8327,-0.7192,-1.4195,2007
13,1.9999,-1.623,1.0237,0.4279,4.3634,1.1255,1900
13,-0.4146,-1.634,-0.314,-0.3854,4.3634,4.1496,2010
13,-2.0,-2.0,0.7593,-2.1644,4.3634,2.6822,2113
13,-2.0,-2.0,-0.5715,-4.3635,2.9941,2.1168,2096
14,-0.3774,0.3296,-1.6956,-4.3635,1.3715,2.084,2114
14,-0.4556,1.8931,-1.0615,-2.147,1.4711,2.5959,1930
14,0.0239,-0.2595,-1.6699,-0.9882,0.4863,0.8412,1972
14,0.8813,-0.7627,-2.0,-0.8198,1.5932,0.2079,2114
14,0.5886,-1.0591,-1.158,-0.1117,1.4173,1.7393,2131
14,-0.0063,-0.71,-0.6404,0.2136,-0.1603,0.9212,2120
14,0.1201,-1.2942,-0.2151,1.1489,0.4052,1.0496,2080
14,-0.1631,-0.8452,0.5569,2.272,-0.6963,0.5528,2034
14,-1.0188,-1.3191,1.0103,1.5416,-1.8125,0.3321,1996
14,-1.3232,-1.4268,1.0154,0.2195,-1.2499,1.1969,2063
14,-1.4902,-0.9556,0.9934,-0.3729,-0.6064,0.6765,2033
14,-1.0544,-1.0901,0.863,-0.5406,0.4585,0.2522,2049
14,-0.3311,-1.0256,0.4429,-0.6289,1.0369,0.1463,2044
14,0.2134,-1.0264,0.0784,-0.7107,1.4332,0.2622,2036
14,0.3027,-1.0488,-0.127,-0.6493,1.4941,0.5231,2038
14,0.3081,-1.0586,-0.2825,-0.386,1.1267,0.7601,2043
14,0.3386,-1.0066,-0.416,-0.1099,0.4647,0.9031,2055
14,0.4363,-0.9548,-0.4402,-0.0103,-0.0619,0.8712,2082
14,0.5,-0.9192,-0.3933,0.0981,-0.3396,0.7974,2066
14,0.4734,-0.9319,-0.2898,0.1697,-0.5837,0.7586,2058
14,0.3906,-0.9983,-0.1287,0.1314,-0.8416,0.7502,2075
14,0.2214,-1.0232,0.0505,0.1136,-0.8118,0.6917,2058
14,-0.0215,-1.0347,0.198,0.0503,-0.556,0.6922,2045
14,-0.116,-1.074,0.3298,-0.0133,-0.361,0.6086,2046
14,-0.1445,-1.0256,0.333,-0.0981,-0.0481,0.557,2060
14,-0.1094,-0.9536,0.2336,-0.026,0.123,0.6397,2021
14,0.0649,-1.0356,0.1899,-0.0296,0.1193,0.6693,2005
14,0.0901,-1.063,0.0981,-0.0249,-0.2503,0.7694,1993
14,0.2412,-0.9934,0.0237,-0.0585,-0.2346,0.8504,2058
14,0.2439,-0.9985,0.0537,0.0096,-0.1173,0.9732,2144
14,0.2144,-1.1907,0.1604,-0.0198,-0.263,0.9657,2124
14,0.0903,-1.0525,0.1494,-0.3028,-0.4348,0.9224,2109
14,-0.0425,-1.0347,0.1719,-0.2284,-0.2631,1.1279,1992
14,-0.021,-1.0808,0.2197,-0.314,-0.3228,1.2367,2045
14,-0.0461,-0.8772,0.1277,-0.3912,-0.2792,1.3447,2145
14,-0.0977,-0.9595,0.1313,-0.3955,-0.2226,1.3315,2167
14,0.0049,-1.0391,0.1433,-0.4003,-0.0025,1.3691,2116
14,0.0625,-0.8828,0.0979,-0.2964,0.0639,1.5414,1996
14,0.2651,-1.0112,0.1062,-0.3454,0.1013,1.5628,2082
14,0.1912,-1.2493,0.2205,-0.4626,0.0675,1.5095,2028
14,0.1956,-0.9849,0.1548,-0.388,0.1334,1.7867,2016
14,0.1338,-1.1243,0.2759,-0.4715,0.2264,1.8686,2041
14,0.1997,-1.1399,0.2673,-0.5566,0.2791,1.9042,2071
14,0.2637,-1.0698,0.29,-0.4372,0.4087,2.2213,2050
14,0.4014,-1.0928,0.2424,-0.4105,0.5974,2.384,2053
14,0.4026,-1.2542,0.2249,-0.4525,0.6399,2.565,2051
14,0.4243,-1.4438,0.2144,-0.567,0.6929,2.7197,2060
14,0.4026,-1.4209,0.2979,-0.6461,0.7718,3.0151,2068
14,0.3518,-1.3801,0.3787,-0.6528,0.7371,3.1285,2044
14,0.2512,-1.4419,0.3616,-0.6454,0.8477,3.2604,2052
14,0.2681,-1.5996,0.4512,-0.7253,0.9718,3.3421,2059
14,0.3127,-1.7471,0.6536,-0.9437,0.9981,3.2978,2071
14,0.5059,-1.8274,0.8145,-1.3114,0.6359,3.1688,2060
14,0.7983,-1.7935,0.7634,-1.5656,-0.2582,3.2279,2046
14,0.7341,-1.8076,0.6848,-1.4893,-1.2894,3.5667,2022
14,0.4919,-2.0,0.6118,-1.1966,-1.6107,3.4022,2046
14,1.1748,-1.7988,1.05,-1.6407,-3.3786,2.6426,2047
14,0.8545,-0.7727,-0.0269,-0.8688,-3.2929,2.9284,1981
14,0.0398,-0.9048,-0.1362,0.7794,-2.8901,3.2661,2030
14,-0.4448,-1.7244,0.0178,1.338,-2.5097,3.5234,2078
14,-2.0,-2.0,-0.2712,1.2015,-0.5224,3.7241,2128
14,-1.5051,-2.0,-0.0178,-1.2435,0.0995,2.3237,2128
14,-0.6052,-0.6169,-0.2268,-1.0652,0.087,3.9616,2012
14,0.603,0.4626,0.1646,0.1526,-0.5212,4.2248,2047
14,1.9999,0.2454,1.5232,-0.8566,-0.5786,4.3634,1923
14,-2.0,-1.4766,-2.0,-0.6958,1.4857,1.1517,1019
14,-2.0,-0.0808,-0.8062,0.9194,1.3141,0.3753,2836
14,-1.6169,-0.48,0.7898,-0.7084,0.4018,-0.0818,2498
14,-1.0071,-0.1692,0.9858,-0.2037,-3.1577,-0.0188,2071
14,-1.417,0.0098,0.3579,0.1023,-2.0724,-0.7809,1989
14,-0.8987,0.1465,0.0342,0.1911,-2.3788,-2.0437,2038
14,0.0264,0.2878,-0.281,-0.0277,-1.325,-3.0225,2033
14,0.0066,0.02,-0.3367,0.1376,-0.6865,-3.3982,2043
14,-0.1025,-0.3408,-0.2405,-0.2344,-0.6791,-4.0435,2029
14,-0.1067,-0.0984,-0.291,-0.4842,-0.5496,-4.3635,2018
14,-0.0579,-0.1255,-0.1514,-0.2984,-0.469,-4.3635,2006
14,-0.1938,-0.4165,0.1101,-0.2432,-0.53,-4.3635,2017
14,-0.3093,-0.3,0.1843,0.0985,-0.5149,-4.3635,2020
14,-0.4861,-0.1033,0.166,0.3587,-0.0503,-4.3635,2051
14,-0.4927,-0.093,0.0776,0.4647,0.51,-4.3635,2063
14,-0.4731,-0.1458,0.0049,0.5926,0.8452,-4.3635,2065
14,-0.3713,-0.2422,-0.0217,0.8416,0.7078,-4.3635,2076
14,-0.2268,-0.1892,0.0559,1.0167,0.0987,-4.3635,2082
14,-0.0837,-0.1921,0.1372,0.9835,-0.5323,-4.3635,2075
14,-0.0295,-0.2957,0.1318,0.9329,-0.8923,-4.3635,2053
14,0.0103,-0.4702,0.1011,1.0567,-0.9736,-4.3635,2045
14,0.0098,-0.6978,0.1611,1.189,-0.6972,-4.3635,2053
14,-0.1343,-1.0156,0.1956,1.0497,-0.3771,-4.3635,2045
14,-0.218,-0.8589,0.1746,0.6794,-0.3112,-4.3635,2010
14,-0.3162,-0.804,0.1152,0.9395,-0.1936,-4.3635,2029
14,-0.2583,-0.9751,0.0415,1.3667,-0.0587,-4.3635,2031
14,-0.3347,-1.2031,-0.1055,2.0447,-0.1345,-4.3635,1979
14,-0.5977,-2.0,0.2244,1.8128,-0.7681,-4.3635,1952
14,0.1245,-2.0,1.3518,-1.3529,-2.9568,-4.3635,2079
14,0.0076,-0.9299,-0.0713,-1.6414,0.7043,-4.3635,1957
14,1.78,-0.429,0.9116,0.976,2.6179,-3.5327,2031
14,-1.4517,-2.0,0.0996,2.296,0.4365,-4.1704,2068
14,0.1641,-2.0,0.0801,0.0751,-0.9485,-2.7598,2327
14,-0.3774,-0.7639,0.5991,-0.2333,0.2221,-1.9162,2060
14,0.6226,-1.4512,0.4751,-0.9887,-0.5221,-1.8817,2026
14,-0.9348,-1.5696,0.2014,-1.3166,0.2316,-0.8084,1997
14,-0.0479,-1.4053,0.385,-2.1318,-1.0363,0.5273,2106
14,-0.8501,-1.1663,-0.1091,-1.9527,0.0658,2.4132,2021
15,-1.5398,-1.2349,0.5344,-1.8471,1.4788,3.2776,2106
15,-0.9099,-0.7534,1.0422,-0.2336,0.3793,2.9187,2245
15,1.0579,-2.0,1.9999,2.2494,-0.3302,3.9849,2108
15,0.7739,-2.0,1.5686,1.6097,0.6946,3.3737,1894
15,0.8491,-2.0,-0.0054,-1.6255,3.6375,3.8165,2017
15,-0.1418,-1.3987,-0.4702,-2.9428,4.2699,3.2887,2042
15,-1.9399,-0.4944,0.125,-3.5154,3.2789,3.2586,2025
15,-2.0,0.7649,0.0923,-3.0353,2.6601,2.4035,2057
15,-2.0,0.6458,-0.2312,-1.5363,2.3469,2.3266,2069
15,-1.3433,-0.3628,-0.7368,-1.4217,1.9247,0.9262,2067
15,-0.8237,-0.3589,-1.3264,-0.195,2.5709,-0.7155,2070
15,0.2952,-1.7705,-0.8098,0.8463,1.9865,-0.7624,2042
15,0.8313,-1.7483,-0.7822,-0.7962,1.7217,1.2974,2051
15,1.0947,-1.0906,-0.165,0.0459,-0.1919,2.3089,2071
15,0.7349,-0.6707,0.6074,0.6719,-1.39,2.4135,2055
15,0.0217,-0.7524,0.2332,0.4189,-0.6747,2.1873,2047
15,-0.9631,-1.1672,0.2793,0.5039,-0.6934,1.8061,2052
15,-1.1919,-1.3652,0.6025,0.1418,-0.5205,1.5637,2070
15,-1.2949,-1.1555,0.3762,-0.5657,-0.2249,1.299,1997
15,-1.1177,-0.7278,0.1614,-0.6477,-0.0879,0.7947,2026
15,-0.4395,-0.9021,0.1418,-0.5713,-0.1726,0.4083,2043
15,-0.1958,-1.0161,-0.0237,-0.489,0.0153,0.4125,2024
15,-0.0886,-1.1008,-0.1611,-0.3623,0.1976,0.55,2035
15,0.1672,-1.0564,-0.2515,-0.1934,0.2341,0.7201,2063
15,0.1938,-0.9905,-0.2664,-0.0758,0.3091,0.8192,2070
15,0.0613,-0.9978,-0.3057,0.1081,0.0537,0.7893,2069
15,-0.1472,-1.0315,-0.1851,0.1973,-0.3006,0.6679,2070
15,-0.2461,-1.1812,-0.0256,0.0422,-0.5384,0.4932,2123
15,-0.158,-0.9592,0.0203,-0.114,-0.3458,0.4914,2005
15,-0.1658,-0.9006,0.0896,-0.0185,-0.0999,0.5823,2043
15,-0.1089,-0.9783,0.1467,-0.0399,-0.0812,0.5659,2043
15,-0.1387,-1.0471,0.1687,-0.0145,-0.0105,0.6245,2049
15,-0.1562,-1.0391,0.1055,-0.0451,-0.1232,0.6445,2037
15,-0.1897,-1.0022,0.0276,-0.0075,-0.1202,0.6648,2065
15,-0.1934,-1.0903,0.0139,-0.0762,-0.2256,0.5241,2054
15,-0.1169,-0.95,0.0325,-0.0198,-0.214,0.6737,2137
15,-0.2278,-1.0359,0.0449,-0.0501,-0.2498,0.5934,2079
15,-0.1621,-1.0398,0.1035,-0.0594,-0.3031,0.5928,2047
15,-0.1597,-0.9907,0.1108,-0.0266,-0.302,0.7004,2060
15,-0.0974,-0.9829,0.1055,-0.0129,-0.2579,0.7387,2046
15,-0.0918,-1.1711,0.1619,-0.131,-0.3818,0.6223,2016
15,-0.1223,-0.9519,0.1855,-0.083,-0.2752,0.9072,2059
15,-0.0574,-1.03,0.176,-0.0772,-0.2828,0.9669,2074
15,0.0713,-0.9766,0.1204,-0.1145,-0.3683,1.032,2079
15,0.053,-1.0664,0.0862,-0.149,-0.4643,1.0347,2100
15,0.0391,-1.2083,0.0947,-0.2293,-0.6071,1.0319,2009
15,0.0127,-1.1899,0.1099,-0.4272,-0.62,0.9159,1990
15,-0.0676,-0.7966,0.26,-0.1136,-0.3032,1.4167,2082
15,0.1243,-1.0083,0.2114,-0.2055,-0.2735,1.3464,2026
15,0.0435,-1.1025,0.3286,-0.2474,-0.2932,1.3348,2086
15,0.0457,-1.021,0.3379,-0.1298,-0.0776,1.552,2106
15,0.1528,-1.1423,0.386,-0.1876,0.0585,1.684,2084
15,0.2358,-1.2214,0.4011,-0.1846,0.2104,1.906,2037
15,0.3308,-1.314,0.3826,-0.2128,0.281,2.1216,2050
15,0.3999,-1.436,0.3857,-0.3561,0.3389,2.2072,2031
15,0.488,-1.2273,0.3452,-0.3903,0.4123,2.5229,2034
15,0.3875,-1.2788,0.4211,-0.2682,0.6011,2.791,2044
15,0.3892,-1.4873,0.4187,-0.3053,0.7197,2.8855,2069
15,0.3289,-1.8015,0.5068,-0.4887,0.8024,2.7974,2055
15,0.4478,-1.6257,0.5659,-0.5899,1.0768,3.0716,2053
15,0.5115,-1.7188,0.7249,-0.6027,1.1338,3.2717,2053
15,0.8687,-1.9058,0.7964,-0.9321,0.335,3.3101,2086
15,0.6816,-2.0,0.6963,-1.0821,-0.1973,3.4509,2063
15,0.4426,-2.0,0.4932,-1.0934,-0.3418,3.5587,2056
15,1.0825,-2.0,0.5771,-0.9475,-1.0391,3.354,2059
15,1.0325,-1.2043,0.4675,-1.5768,-3.0526,3.0678,1945
15,-0.021,-0.8,-0.4189,0.0312,-2.277,3.176,2020
15,-0.5432,-1.6226,-0.1555,1.0279,-1.8961,3.024,2040
15,-1.7554,-2.0,0.1868,-0.6934,0.0395,1.8097,2129
15,-0.6138,-2.0,-0.2263,-2.2405,-0.0479,1.8725,2044
15,-0.1719,0.3994,-0.251,-0.0357,-0.1883,4.3634,2049
15,0.1111,-0.3035,0.3491,1.279,-0.9272,4.1156,2115
15,1.9999,-0.6841,1.3774,-0.8922,0.0987,4.1442,1981
15,-2.0,-0.6963,-2.0,-0.4297,1.6763,1.3451,922
15,-2.0,-0.0315,-1.0486,1.1781,0.6652,1.117,2756
15,-1.562,-0.7837,0.6045,-0.747,-0.0205,0.3282,2421
15,-1.446,-0.4045,0.7461,-0.398,-2.8797,0.2314,2033
15,-1.6365,-0.3762,0.3279,-0.3988,-1.8136,-0.5597,2019
15,-1.2764,-0.1934,-0.0625,-0.768,-2.0377,-1.6464,2047
15,-0.1963,0.4841,-0.2432,-0.7987,-1.1529,-2.9086,2034
15,0.0859,0.5623,-0.2544,-0.0225,-0.7911,-2.7023,2028
15,-0.052,-0.1404,-0.325,-0.1626,-0.6596,-3.7051,2044
15,-0.1484,-0.3149,-0.3633,-0.3071,-0.4689,-4.3635,2029
15,-0.0959,-0.3386,-0.323,0.0233,-0.3598,-4.3635,2012
15,-0.1909,-0.6616,0.0283,-0.1155,-0.5398,-4.3635,2004
15,-0.3333,-0.3271,0.146,0.0722,-0.2807,-4.3635,2008
15,-0.5249,-0.1951,0.2078,0.2726,0.2888,-4.2924,2043
15,-0.5742,-0.0972,0.1511,0.2838,0.8234,-4.3286,2054
15,-0.4971,-0.1182,0.0535,0.2623,1.2407,-4.2686,2076
15,-0.4382,-0.1729,-0.0217,0.4353,1.3945,-4.284,2085
15,-0.3813,-0.1482,-0.0054,0.6573,1.2414,-4.3635,2074
15,-0.2461,-0.1218,0.053,0.8645,0.636,-4.3635,2066
15,-0.0828,-0.2114,0.1267,0.9327,-0.0005,-4.3635,2053
15,-0.0886,-0.3345,0.1182,1.001,-0.3329,-4.3635,2045
15,-0.3506,-0.4539,0.0522,1.3081,0.2149,-4.3635,2054
15,-0.0781,-0.6333,0.1028,1.4721,0.5827,-4.3635,2067
15,0.0535,-0.6335,0.2639,1.646,0.387,-4.3635,2070
15,-0.0811,-0.7686,0.3484,1.472,0.2742,-4.3635,2059
15,-0.116,-1.0674,0.2849,1.2758,0.4251,-4.3635,2059
15,-0.1138,-1.5728,0.1194,0.9721,0.4727,-4.3635,2053
15,-0.4629,-1.3899,-0.1816,1.6088,0.4545,-4.3635,1973
15,-0.76,-1.9678,0.0503,0.9473,-0.3633,-4.3635,1923
15,0.3271,-2.0,1.2842,0.3281,-2.8129,-4.3635,2007
15,0.6729,-0.6213,-0.571,-2.7653,-1.0131,-4.3635,1857
16,-0.8318,0.3135,-0.781,2.3369,2.1017,-3.8712,2078
16,-0.0955,-0.4004,-0.6492,3.9438,-0.7505,-2.9003,2121
16,-0.6426,-2.0,0.5999,-1.6942,-1.6986,-3.3826,2270
16,-0.0129,0.3083,-0.061,0.2048,0.4016,-0.957,2117
16,-0.2849,-1.5132,0.0737,-0.6841,-0.1124,-1.9222,2042
16,0.0686,-2.0,0.3347,-2.5618,-2.2547,-1.2652,1995
16,-1.3716,0.1885,-0.6914,-1.592,0.7389,1.3302,1961
16,-0.1646,-1.9954,0.5718,-1.8511,-0.3288,2.9971,2041
16,-2.0,-0.1506,0.6094,-1.3484,1.3031,3.8371,2241
16,-0.5796,-1.3208,1.9999,1.3475,-0.3962,2.8344,2244
16,0.9324,-2.0,1.9478,3.3432,-1.0902,2.3915,2009
16,1.0378,-2.0,0.9858,0.1013,3.0368,3.3797,1878
16,1.228,-1.8662,-0.4238,-1.8608,4.3634,3.647,2049
16,-1.4558,-1.4412,-0.0415,-3.2592,4.3634,3.4238,2021
16,-2.0,-0.4141,0.1082,-3.9717,2.7803,2.9059,2058
16,-2.0,1.593,-0.5916,-3.0985,2.8074,2.4159,2039
16,-1.5837,0.0449,-0.9041,-1.5059,1.9972,2.7694,2052
16,-1.7117,0.1597,-1.0349,-0.8566,1.9973,0.1188,2044
16,-0.7058,-0.2209,-1.4546,0.3714,2.7592,-1.4954,2079
16,1.3267,-1.8257,-0.8416,1.1055,1.6402,-0.3187,2137
16,1.5984,-2.0,-0.3872,-0.1117,0.5553,1.9783,2135
16,0.8193,-0.9863,0.3806,0.7785,-0.7404,2.4779,2068
16,0.2573,-0.6182,0.7532,0.738,-1.2633,2.379,2032
16,-0.7854,-0.8816,0.1665,0.3671,-0.5429,2.2651,1998
16,-1.573,-1.2014,0.4526,0.4621,-0.4003,1.6026,2042
16,-1.4885,-1.3689,0.6423,-0.3239,-0.1703,1.4719,2043
16,-1.3274,-0.6846,0.3357,-0.9452,-0.0579,0.8104,1999
16,-0.522,-0.8235,0.1399,-0.7031,-0.0682,0.2726,2046
16,-0.053,-1.0596,0.021,-0.52,0.0109,0.3334,2043
16,0.0649,-1.072,-0.1543,-0.3878,0.1471,0.4807,2061
16,0.2158,-1.05,-0.2422,-0.2264,0.1101,0.6361,2054
16,0.219,-1.0059,-0.3176,-0.0694,-0.0668,0.7702,2039
16,0.0935,-1.0366,-0.3376,0.1507,-0.3362,0.7939,2140
16,-0.0874,-1.125,-0.2727,0.1233,-0.6131,0.607,2081
16,-0.1448,-1.0906,-0.1338,-0.1882,-0.9297,0.3398,2022
16,-0.3857,-0.7737,0.0151,0.0262,-0.3252,0.5765,2037
16,-0.1174,-0.9392,0.0471,-0.0535,-0.0977,0.4947,2051
16,-0.0569,-1.0098,0.043,0.0678,-0.0675,0.4722,2042
16,-0.1538,-1.0752,0.1172,0.027,-0.1695,0.5225,2050
16,-0.2097,-1.1147,0.0464,-0.0016,-0.1515,0.5795,2007
16,-0.0605,-1.2317,0.0835,-0.1124,-0.4392,0.4775,2039
16,-0.1692,-0.7805,0.0015,0.0454,-0.5609,0.6947,2019
16,-0.1123,-0.9465,0.0649,0.1212,-0.4509,0.6396,2064
16,-0.0486,-1.0952,0.0837,0.0593,-0.4377,0.5244,2049
16,-0.1675,-1.0269,0.134,0.0069,-0.4185,0.5715,2015
16,-0.0503,-0.9724,0.124,0.0285,-0.1708,0.6767,2011
16,0.0923,-1.064,0.1826,-0.0772,-0.11,0.738,2016
16,0.0903,-1.2771,0.2856,-0.2338,-0.3694,0.6606,2100
16,0.0525,-0.9041,0.1697,-0.0917,-0.1248,1.0372,2115
16,0.0813,-0.9954,0.2161,-0.0635,-0.1867,1.1966,2077
16,0.2058,-1.0791,0.1677,-0.0959,-0.2934,1.2398,2036
16,0.1787,-1.2109,0.1504,-0.223,-0.5434,1.1451,2056
16,0.1335,-0.7175,0.0359,-0.1261,-0.4829,1.5045,2064
16,0.0198,-1.0718,0.1516,-0.2112,-0.4753,1.4279,2039
16,-0.0505,-1.177,0.2385,-0.3894,-0.4378,1.3053,2063
16,-0.1201,-1.0027,0.3103,-0.3526,-0.2537,1.4765,2032
16,-0.1123,-0.9321,0.3328,-0.2049,-0.0864,1.6467,2014
16,-0.0103,-1.0923,0.3499,-0.2253,0.0991,1.7293,2017
16,0.1042,-1.1484,0.3962,-0.1618,0.3023,1.9313,2063
16,0.1926,-1.3064,0.3723,-0.196,0.3828,2.0479,2176
16,0.2151,-1.3877,0.3396,-0.3227,0.5105,2.1354,2065
16,0.3186,-1.1997,0.3169,-0.2533,0.6865,2.4739,2054
16,0.4375,-1.3364,0.3176,-0.2775,0.7773,2.6256,2056
16,0.4512,-1.436,0.3042,-0.2717,0.8752,2.8043,2024
16,0.3665,-1.7397,0.3364,-0.3791,0.9624,2.7801,2059
16,0.7363,-1.3848,0.1328,-0.5079,1.156,3.2365,2050
16,0.5813,-1.9204,0.5896,-0.659,1.2649,3.1827,2071
16,0.9556,-1.9294,0.6838,-1.0203,0.7435,3.2564,2067
16,0.9749,-1.8215,0.7109,-1.0168,-0.2401,3.4447,2083
16,0.6155,-2.0,0.6494,-1.028,-0.9588,3.4648,2068
16,0.4114,-1.8899,0.3557,-0.7649,-1.0467,3.5327,2050
16,1.8188,-2.0,1.1519,-1.741,-3.9655,2.0988,2064
16,0.2275,-0.6826,-0.3398,-0.907,-2.373,3.639,1968
16,-0.1189,-1.4639,-0.1438,0.7156,-2.7092,3.0356,2039
16,-2.0,-2.0,-0.2654,0.5842,0.4819,3.3444,2043
16,-0.8049,-2.0,0.0293,-1.9795,-0.4627,1.4711,2106
16,0.0583,-0.6101,-0.2693,-1.8249,-0.1109,3.0714,2045
16,-0.3142,0.0994,0.1621,0.7148,-0.6056,4.3634,2081
16,0.5342,0.0554,0.4692,1.1765,-1.3513,3.7922,2101
16,1.9999,-1.375,1.9999,-4.2389,-4.3635,4.3634,1166
16,-2.0,-0.356,-2.0,0.4741,2.0236,1.9515,2350
16,-1.499,-0.3447,0.0425,0.0009,0.1346,0.2465,2723
16,-1.6704,-0.5383,0.9658,-1.0802,-1.9307,0.2721,2180
16,-1.5078,-0.3059,0.6057,-0.2856,-2.4273,-0.1739,2004
16,-1.4841,-0.0012,0.1719,-0.1409,-2.6647,-0.9289,2040
16,-0.5222,0.2664,-0.1436,-0.1979,-2.3123,-2.3927,2016
16,0.0354,0.3511,-0.2559,-0.4967,-1.2718,-2.9807,2033
16,-0.0811,-0.0715,-0.2969,-0.3159,-0.9855,-3.4155,2044
16,-0.1897,-0.2351,-0.3203,-0.6311,-0.4627,-4.3635,2028
16,-0.0425,-0.042,-0.3965,-0.3465,-0.0051,-4.3635,2022
16,-0.0713,-0.3811,-0.0737,-0.189,-0.0257,-4.3635,2013
16,-0.2319,-0.5581,0.0898,-0.2258,0.1159,-4.3635,2020
16,-0.3987,-0.1785,0.1711,0.2374,0.4876,-4.3568,2041
16,-0.4714,-0.1204,0.1257,0.3946,0.9633,-4.3635,2057
16,-0.3972,-0.135,0.0171,0.5457,1.3142,-4.324,2074
16,-0.3438,-0.1812,-0.0518,0.7035,1.2002,-4.3285,2075
16,-0.3464,-0.1619,-0.0488,0.7111,0.785,-4.3635,2059
16,-0.2483,-0.1807,-0.0605,0.6901,0.4689,-4.3635,2051
16,-0.3245,-0.2168,-0.0239,0.8148,0.2324,-4.3635,2050
16,-0.238,-0.0627,-0.0894,1.186,0.257,-4.3635,2058
16,-0.137,-0.5247,0.0212,1.3699,0.3273,-4.3635,2079
17,0.0054,-0.5693,0.1794,1.5265,0.3458,-4.3635,2051
17,-0.1055,-0.8459,0.2422,1.3691,0.5494,-4.3635,2032
17,-0.2222,-1.1431,0.2915,0.9826,0.4813,-4.3635,2039
17,-0.2368,-0.8533,-0.0149,1.0933,0.9091,-4.3635,1991
17,-0.1548,-1.1416,-0.2092,1.8576,1.1963,-4.3635,1993
17,-0.3572,-1.8604,-0.0242,1.5308,0.5713,-4.3635,1923
17,-0.447,-1.1741,-0.1021,1.6085,-0.4085,-4.3635,2006
17,0.4541,-2.0,-0.5234,-2.6866,-0.2938,-4.3635,1985
17,-1.9834,0.698,-0.8342,0.6569,2.7388,-3.9137,1891
17,1.9999,-1.8625,1.9999,-1.7412,0.9403,-2.1068,2262
17,-0.8816,-2.0,-0.0293,0.3121,-0.4984,-3.7087,2055
17,-0.5134,-1.2485,-0.1177,-0.1189,-1.1311,-2.4831,2240
17,-0.53,-1.5425,0.364,-0.5629,-0.5572,-2.0768,2119
17,-0.4302,-1.9075,-0.3086,-1.7459,-0.7986,-1.234,2032
17,-0.584,-0.9814,-0.2896,-1.6953,-0.9669,0.0776,2027
17,-0.6987,-0.6062,-0.0676,-1.8044,-1.1632,2.2581,2046
17,-1.6414,-1.0122,0.5083,-1.4892,0.9981,3.3445,2121
17,-1.6633,-0.7,1.2947,-0.1675,0.1289,2.8596,2230
17,-0.1348,-2.0,1.9999,2.9741,-0.4333,4.3634,2140
17,1.5715,-1.7891,1.9999,2.2518,0.2685,2.6196,1885
17,0.4697,-2.0,0.3052,-1.6538,4.3634,2.9862,1952
17,-0.6509,-1.594,-0.4331,-4.15,4.3634,2.5385,2082
17,-1.208,-0.0664,-0.3162,-4.1976,4.3634,3.7679,2058
17,-2.0,1.4104,0.1001,-1.7098,1.0527,4.3634,2008
17,-2.0,-0.1543,-0.168,-1.6133,1.1142,2.4165,2065
17,-1.5574,0.0393,-1.9285,-0.7974,2.2931,-1.6036,2065
17,0.9836,-0.9707,-1.1379,0.2472,2.1715,-2.226,1958
17,1.2415,-1.0979,-0.6047,0.0537,1.1604,0.0317,2036
17,1.5625,-1.7405,0.0928,0.8805,-1.0334,1.691,2172
17,-0.4236,-1.2795,-0.1707,0.4951,-0.1694,2.8348,2087
17,-0.4468,-0.8132,0.3521,0.876,-0.6327,2.5654,2110
17,-0.7332,-1.0334,0.4304,0.587,-0.1368,1.9971,2059
17,-1.1545,-1.2271,0.2627,0.2356,-0.0216,1.5964,2029
17,-1.1138,-1.3477,0.4092,-0.5315,-0.5008,1.2611,1986
17,-1.0024,-0.7163,0.1638,-0.8034,-0.4208,0.5896,1999
17,-0.3987,-0.8284,0.0476,-0.447,-0.3232,0.3276,2032
17,0.0315,-1.0745,-0.1472,-0.2453,0.0767,0.4783,2053
17,0.2451,-1.0068,-0.3362,0.0786,0.5271,0.6992,2073
17,0.2891,-0.9768,-0.2053,0.0919,0.385,0.7606,2064
17,0.0754,-1.0396,-0.1958,0.2678,-0.1633,0.8284,2066
17,-0.1409,-1.4744,-0.0261,-0.0348,-0.7022,0.5687,2101
17,-0.2698,-0.4492,-0.3772,-0.3505,-0.5582,0.9172,1903
17,-0.3691,-0.7915,0.1394,0.0043,-0.1366,0.5626,2096
17,-0.1006,-0.9358,0.051,0.0123,-0.1329,0.5486,2065
17,-0.1162,-1.0203,0.0757,0.1186,0.0181,0.5682,2063
17,-0.1868,-1.0642,0.0854,0.0977,-0.1791,0.608,2032
17,-0.1978,-1.0898,0.0598,0.0928,-0.2798,0.5714,2045
17,-0.1682,-1.1001,0.0837,0.0322,-0.3722,0.5185,2055
17,-0.1248,-1.0398,0.0776,0.0253,-0.381,0.5284,2034
17,-0.0022,-0.8936,-0.0046,-0.0117,-0.6059,0.6216,2040
17,-0.0845,-0.9482,0.0056,0.0864,-0.4651,0.636,1986
17,-0.1746,-1.0588,0.0986,0.0208,-0.4923,0.5301,2035
17,-0.0847,-0.9482,0.0332,0.0995,-0.2887,0.6498,2040
17,0.0725,-1.0466,0.0588,0.0635,-0.3028,0.7038,2047
17,0.0764,-1.1465,0.0764,-0.0613,-0.4777,0.6992,2066
17,-0.0713,-0.8022,0.0818,0.0914,-0.3374,1.0986,1969
17,-0.0354,-1.0957,0.1511,-0.0125,-0.4472,1.0062,1948
17,0.0786,-0.9971,0.0979,-0.1108,-0.4787,1.0397,2010
17,-0.0796,-1.0457,0.1953,-0.0879,-0.4702,1.0168,2135
17,-0.0271,-0.9751,0.1699,-0.075,-0.4212,1.1236,1981
17,0.0273,-1.0022,0.2473,-0.0473,-0.3235,1.2476,2115
17,0.1238,-1.0449,0.2893,-0.1189,-0.4115,1.3123,2029
17,0.0715,-1.0718,0.3718,-0.2294,-0.4938,1.2659,2041
17,0.1382,-0.9128,0.292,-0.248,-0.3771,1.3649,2026
17,0.0483,-1.0361,0.4551,-0.02,0.0025,1.7048,2067
17,0.2771,-1.1704,0.3701,-0.1023,0.2188,1.8285,2081
17,0.3762,-1.178,0.3845,-0.078,0.3472,2.0703,2052
17,0.4282,-1.3025,0.3792,-0.1173,0.4275,2.2554,2052
17,0.4709,-1.5449,0.4167,-0.3397,0.4521,2.2803,2035
17,0.4895,-1.2817,0.3506,-0.2738,0.7007,2.6614,2035
17,0.521,-1.3374,0.3171,-0.1583,0.8612,2.9994,2063
17,0.3958,-1.7688,0.3818,-0.3695,0.8993,2.8087,2048
17,0.5339,-0.947,0.1946,-0.1683,1.1986,3.5471,2039
17,0.4348,-1.7437,0.5054,-0.3398,1.2302,3.2898,2065
17,0.8044,-1.8782,0.6169,-0.6533,0.9842,3.3685,2064
17,0.918,-1.7739,0.6279,-0.6838,0.3125,3.6161,2074
17,0.6572,-1.9902,0.6799,-0.8869,-0.2456,3.6837,2082
17,0.5994,-2.0,0.481,-0.9391,-0.483,3.8199,2080
17,1.0671,-2.0,0.9502,-1.2641,-2.0596,2.6622,2099
17,0.3782,-0.7124,0.1875,-1.4097,-1.9302,3.9681,1937
17,0.1074,-1.0864,-0.126,0.0081,-2.5653,2.9739,2018
17,-1.0964,-1.4883,-0.3564,0.562,-0.7237,3.0959,1996
17,-1.1755,-2.0,0.0383,-1.498,-0.1023,1.3856,2122
17,-0.1748,-1.6511,-0.2183,-1.9793,-0.31,2.2969,2046
17,-0.4795,0.1836,0.0652,0.9484,-0.5958,4.3634,2061
17,0.2229,-0.25,0.3367,1.4013,-1.1491,4.1073,2154
17,1.9999,-0.8145,1.1162,-1.6387,-0.5055,4.3634,1786
17,-2.0,-1.8677,-2.0,-0.6914,3.5537,2.3001,1844
17,-2.0,-0.2229,-0.283,0.5675,0.7175,0.8224,2759
17,-1.6538,-0.7502,0.8755,-0.9268,-0.3964,0.5078,2256
17,-1.6074,-0.3433,0.6809,-0.4315,-2.2916,0.3009,1995
17,-1.6777,-0.2859,0.3433,-0.685,-1.9973,-0.4155,2040
17,-0.804,0.5095,-0.1099,-0.4204,-2.184,-1.4528,2030
17,-0.188,0.3965,-0.1543,-0.3301,-1.3633,-2.5241,2023
17,-0.043,-0.1077,-0.3191,-0.251,-1.0915,-2.9906,2049
17,-0.2969,-0.373,-0.2988,-0.6733,-0.9705,-3.8306,2041
17,-0.25,-0.3481,-0.3079,-0.969,-0.5474,-4.3635,2021
17,-0.2468,-0.4062,-0.1711,-0.734,-0.2878,-4.3635,2001
17,-0.2104,-0.2151,0.0156,-0.4569,-0.1698,-4.3635,2002
17,-0.3862,-0.1064,0.1228,-0.1819,0.2334,-4.1841,2015
17,-0.5039,-0.1055,0.1384,-0.0312,0.6325,-4.0708,2049
17,-0.5642,-0.0771,0.1011,0.0451,0.9962,-4.0825,2068
17,-0.5586,-0.0957,-0.0061,0.0663,1.2203,-4.1829,2063
17,-0.4768,-0.1494,-0.0947,0.2157,1.2908,-4.3635,2072
18,-0.3667,-0.1274,-0.0798,0.4932,1.0224,-4.3635,2070
18,-0.229,-0.1094,-0.021,0.645,0.4196,-4.3635,2059
18,-0.1689,-0.1592,0.0374,0.7204,-0.0575,-4.3635,2055
18,-0.0769,-0.3062,-0.0029,0.7734,-0.1642,-4.3635,2064
18,-0.1855,-0.4302,-0.063,1.1006,0.4474,-4.3635,2072
18,0.2571,-0.4426,0.1331,1.3483,0.1009,-4.3635,2065
18,0.0737,-0.5625,0.2422,1.4286,0.0735,-4.3635,2055
18,-0.1213,-0.7058,0.1921,1.4609,0.4196,-4.3635,2066
18,-0.1594,-1.0029,0.0762,1.4712,0.7981,-4.3635,2085
18,-0.2234,-1.323,-0.0994,1.7058,0.7708,-4.3635,2064
18,-0.426,-2.0,0.238,0.4589,-0.3661,-4.3635,1923
18,-1.1077,-1.5012,-0.271,1.1532,-0.9347,-4.3635,1892
18,-0.7588,-1.1133,0.3757,0.068,-1.6123,-4.3635,2079
18,0.2126,-2.0,0.7637,-2.6091,-1.9871,-4.3635,2126
18,0.7026,0.177,-1.5427,0.3563,0.9328,-4.3635,1915
18,-0.4524,-1.6218,-0.2302,1.7057,0.1662,-4.0326,2193
18,-1.0068,-2.0,0.3411,1.0761,-3.0622,-2.8629,2056
18,-1.2656,-1.2717,-0.2026,-1.464,-0.9585,-2.2257,2184
18,-0.0291,-0.9722,0.3567,-1.2256,0.4687,-1.5776,2114
18,-0.0024,-2.0,0.4885,-2.2927,-1.81,-1.1938,2023
18,-0.3115,-0.1873,-0.0488,-1.8439,-0.6753,2.6735,1897
18,-1.8596,-0.8926,0.2197,-1.3929,0.0364,3.9982,2083
18,-2.0,-0.3879,1.0181,-0.6132,0.3562,3.747,2274
18,0.0474,-1.9331,1.9999,1.9361,-1.1227,2.928,2216
18,1.4944,-2.0,1.9016,2.3692,-0.5651,2.4657,1973
18,1.4226,-2.0,0.0205,-0.7335,3.3931,3.7414,1879
18,-0.1758,-2.0,-1.0281,-2.9058,4.3634,3.2431,2066
18,-1.5706,0.032,0.0366,-3.5561,4.3634,4.0514,2039
18,-2.0,1.3855,-0.1338,-2.8299,2.5135,3.0941,2031
18,-2.0,0.7319,-0.1941,-1.345,2.1201,3.4031,2031
18,-2.0,-0.8418,-1.0559,-1.5776,1.8057,1.523,2119
18,-1.0078,-0.4331,-1.3455,-0.343,1.2561,-2.3158,2067
18,0.3203,-0.3528,-1.3296,0.614,2.1853,-1.0368,2004
18,1.2954,-1.844,-0.571,0.1896,1.2816,0.385,2076
18,1.6692,-1.9092,0.0879,0.7313,-0.7315,2.6372,2172
18,0.0398,-0.8853,0.4814,1.1136,-1.1274,2.6384,2027
18,-0.543,-0.6887,0.1982,0.6208,-0.3613,2.5404,2057
18,-1.189,-1.0994,0.3577,0.5807,-0.133,1.8014,2040
18,-1.4426,-1.4214,0.6545,-0.0759,-0.0389,1.4051,2052
18,-1.321,-0.8838,0.4368,-0.7596,-0.2337,1.3336,2003
18,-0.835,-0.6975,0.1406,-0.7412,-0.1763,0.5167,2008
18,-0.3225,-1.0264,-0.0098,-0.5072,-0.0925,0.2444,2058
18,-0.0474,-1.0928,-0.1726,-0.3131,0.0816,0.3867,2060
18,0.1721,-1.03,-0.2869,-0.1723,0.1329,0.5481,2054
18,0.2373,-1.0024,-0.3755,-0.037,0.0509,0.6566,2049
18,0.0942,-1.0178,-0.3962,0.1641,-0.2476,0.6624,2082
18,-0.011,-1.0549,-0.3074,0.3083,-0.487,0.622,2115
18,-0.1606,-1.2051,-0.0747,0.0864,-0.7016,0.4538,2011
18,-0.3911,-0.8667,-0.0679,0.018,-0.4011,0.5826,2063
18,-0.2158,-0.9456,0.0374,0.0471,-0.2943,0.4871,2108
18,-0.1382,-0.9673,0.0237,0.0076,-0.214,0.4353,2030
18,-0.1338,-1.0359,0.0518,0.0792,-0.1352,0.4719,2083
18,-0.1084,-1.0659,0.0659,0.0899,-0.2105,0.549,2051
18,-0.1184,-1.1125,0.0652,0.1016,-0.4057,0.559,2007
18,-0.0583,-1.1631,0.0493,0.0144,-0.6738,0.475,2045
18,-0.1848,-0.9348,0.0261,0.1457,-0.5352,0.6407,2058
18,-0.175,-1.0193,0.0981,0.122,-0.4233,0.6356,2062
18,-0.1865,-0.9172,0.1155,0.1451,-0.3325,0.6883,2025
18,0.0752,-0.9658,0.0701,0.1602,0.0115,0.7015,2050
18,0.158,-1.1194,0.1633,0.1151,-0.0832,0.7197,2068
18,0.1816,-1.2083,0.1169,-0.1425,-0.4794,0.7205,2004
18,-0.0317,-1.0212,0.1902,-0.074,-0.3068,1.0595,2082
18,0.0444,-0.9094,0.1611,-0.0001,-0.1883,1.3436,2099
18,0.1311,-1.0271,0.1116,-0.0513,-0.3649,1.3741,2145
18,0.0601,-1.1196,0.1526,-0.1453,-0.3241,1.3945,2004
18,0.0591,-1.1882,0.2324,-0.4572,-0.3994,1.2422,2059
18,0.0322,-0.6616,0.2812,-0.2702,-0.0651,1.5933,2015
18,0.0864,-0.8994,0.3115,-0.279,-0.0308,1.5289,2124
18,-0.0198,-1.0264,0.3665,-0.2597,0.112,1.5649,2029
18,-0.0259,-1.4309,0.3608,-0.5008,-0.0093,1.3122,2066
18,0.012,-0.7271,0.3157,-0.0517,0.442,2.2736,2075
18,0.1799,-1.2974,0.2532,-0.2075,0.3828,2.0489,2070
18,0.2322,-1.259,0.2007,-0.2361,0.5389,2.2812,2066
18,0.3215,-1.3218,0.25,-0.3011,0.5947,2.5565,2066
18,0.4141,-1.5085,0.2556,-0.5537,0.5107,2.4084,2044
18,0.4756,-1.2759,0.1838,-0.4067,0.7088,2.7473,2037
18,0.3838,-1.4985,0.3179,-0.3368,0.87,2.9902,2061
18,0.3992,-1.751,0.3442,-0.3452,1.1054,3.1444,2068
18,0.5637,-2.0,0.5713,-0.6633,1.0674,3.2166,2068
18,0.9126,-1.9888,0.6941,-1.0027,0.6028,3.279,2065
18,1.0125,-2.0,0.6914,-1.1315,-0.3357,3.4477,2068
18,0.7366,-2.0,0.647,-1.1475,-1.2323,3.4942,2059
18,0.3855,-1.9768,0.5249,-1.1308,-1.364,3.5089,2025
18,0.8577,-1.8386,1.1008,-1.6897,-1.6578,2.9023,2061
18,0.7617,-0.9988,-0.0996,-1.682,-3.2288,2.7991,1939
18,0.2881,-0.9705,-0.1548,0.2984,-3.1135,2.9827,2030
18,-0.6682,-1.5872,-0.272,0.818,-2.1059,3.2535,2041
18,-2.0,-2.0,0.2485,-0.435,-0.6489,1.857,2159
18,-0.7549,-2.0,0.0015,-2.282,-0.2963,2.1786,2078
18,-0.208,0.6631,-0.042,-0.2772,-0.8222,4.3634,2033
18,0.3606,0.4963,0.4019,1.2549,-1.6775,4.1212,2109
18,1.9999,-0.3264,1.6399,-2.4095,-1.5439,4.3634,1600
18,-2.0,-1.092,-2.0,-0.571,2.6442,2.0527,2030
18,-2.0,-0.2866,-0.1338,-0.3087,0.6727,0.3233,2757
18,-1.6326,-0.6372,1.1296,-1.1191,-1.2155,0.0084,2300
18,-1.3213,-0.1736,0.8687,-0.4687,-3.4276,-0.0615,2019
18,-1.1343,0.7871,0.3162,0.0672,-3.5813,-0.5287,2012
18,-0.5686,0.4358,0.0222,0.1811,-3.4318,-2.3949,2050
18,0.0237,-0.157,-0.0935,-0.2127,-2.1335,-2.8114,2052
18,-0.2029,-0.4453,-0.1421,-0.4075,-1.538,-3.5794,2054
18,-0.2595,-0.5337,-0.1365,-1.4025,-0.9304,-4.3635,2042
19,-0.2087,-0.4392,-0.1243,-1.6753,-0.3506,-4.3635,2005
19,-0.1553,-0.4199,-0.0559,-1.3098,0.0736,-4.3635,1998
19,-0.2583,-0.126,0.1157,-0.5968,0.4292,-4.2004,1997
19,-0.3608,-0.1274,0.2285,-0.2511,0.5422,-4.145,2034
19,-0.3687,-0.1128,0.2837,-0.0414,0.4042,-4.2036,2065
19,-0.3435,-0.1248,0.2153,0.0623,0.392,-4.3358,2068
19,-0.3816,-0.1675,0.0186,0.0563,0.497,-4.3635,2061
19,-0.4143,-0.1738,-0.0796,0.2173,0.5465,-4.3635,2062
19,-0.4536,-0.123,-0.0344,0.3999,0.443,-4.3635,2053
19,-0.4055,-0.1265,0.0522,0.5496,0.3055,-4.3635,2056
19,-0.2976,-0.1863,0.1157,0.7775,0.1486,-4.3635,2068
19,-0.1631,-0.3088,0.124,1.1387,0.002,-4.3635,2077
19,-0.0437,-0.5027,0.1694,1.2914,0.1718,-4.3635,2065
19,-0.0852,-0.6628,0.1704,1.3535,0.3879,-4.3635,2072
19,-0.395,-1.9075,0.5791,0.547,0.3216,-4.3635,2082
19,-0.3704,-0.6033,-0.0471,0.8372,0.8881,-4.3635,1962
19,-0.3354,-1.1526,-0.2068,1.7197,1.2705,-4.3635,1949
19,-0.5159,-1.3464,0.0742,1.5789,0.5782,-4.3635,1962
19,-0.4319,-1.3423,0.2922,0.3896,0.3398,-4.3635,2032
19,-0.0271,-2.0,1.7578,-2.0642,-1.7765,-4.3635,2117
19,0.5771,0.0659,-1.0522,-0.0386,0.5094,-4.3635,1992
19,1.9999,-1.843,1.6721,0.6818,0.762,-3.0949,2112
19,-1.2825,-2.0,0.4253,0.2205,-1.3097,-2.7894,2109
19,-1.0344,-1.6873,-0.1609,-1.4848,-0.7977,-2.2903,2235
19,-0.4019,0.1721,0.355,-0.5148,0.8658,-1.2457,2052
19,-0.5076,-2.0,0.075,-1.4744,0.195,0.032,1976
19,-1.5649,-1.2175,0.3313,-1.9915,0.2734,2.0943,2070
19,-2.0,-0.3403,0.1807,-1.7512,0.9812,4.3634,2200
19,-0.8589,-2.0,1.208,0.8897,0.8439,4.2809,2192
19,0.3374,-1.5081,1.3655,2.961,-0.8176,4.3634,2018
19,-0.1265,-2.0,0.8215,-0.2402,1.1487,3.4885,1917
19,1.3269,-1.5344,-0.6331,-4.0527,3.5443,2.3028,2060
19,0.781,1.7292,-1.1003,-3.8633,4.3634,2.8046,2012
19,-1.9368,1.9907,0.4072,-1.742,3.6446,2.1043,2000
19,-2.0,-0.1484,0.1409,-0.3179,0.8344,1.6719,2046
19,-2.0,-2.0,-1.4341,-1.0461,2.7111,1.96,2061
19,-1.0588,-1.0,-1.0425,0.2667,-0.4028,1.6675,2113
19,0.417,-0.7837,0.1846,-0.6598,0.2036,1.464,1975
19,0.781,-0.8411,0.22,-0.2176,0.6477,1.0331,2016
19,0.3191,-0.948,-0.5371,0.0663,-0.7352,1.546,2082
19,-0.2207,-1.1438,-0.2754,0.4394,-0.9684,1.4938,2098
19,-0.3301,-1.2795,-0.1553,0.6211,-0.0024,1.8956,2101
19,-0.6724,-1.1548,0.0388,0.469,0.2832,2.0505,2066
19,-0.834,-1.0391,0.3232,0.2065,0.4677,2.1394,2061
19,-0.9507,-0.9341,0.27,0.02,0.4932,2.0129,2039
19,-1.0503,-0.8557,0.1877,-0.2088,0.0625,1.3597,2041
19,-0.8989,-0.894,0.001,-0.3856,-0.2033,0.4474,2011
19,-0.5144,-1.0459,-0.1086,-0.2971,-0.3036,0.0806,2042
19,-0.167,-1.1262,-0.1448,-0.1815,-0.1445,0.2111,2076
19,-0.009,-1.1233,-0.1304,-0.0672,0.4713,0.4585,2073
19,0.0171,-1.126,-0.0891,-0.0473,0.3758,0.6123,2071
19,-0.2595,-1.0618,-0.0811,0.1685,-0.098,0.7401,2069
19,-0.4756,-1.1289,-0.0127,0.2084,-0.2297,0.7171,2101
19,-0.4014,-1.136,0.0161,0.0747,-0.1571,0.5677,2057
19,-0.3252,-1.1182,0.0261,-0.1001,-0.1646,0.336,2039
19,-0.2749,-0.9692,0.0095,-0.004,-0.2261,0.2513,2040
19,-0.1982,-0.885,-0.0518,0.1389,-0.0712,0.3667,2064
19,-0.1052,-1.0515,-0.0137,0.1264,-0.0486,0.2934,2055
19,-0.1125,-1.033,0.0393,0.1457,-0.1349,0.3694,2028
19,-0.1658,-1.1187,0.0417,0.0517,-0.2691,0.3096,2042
19,-0.0193,-1.3157,0.0579,-0.2163,-0.6006,0.0273,2026
19,-0.2798,-0.5947,-0.092,0.1172,-0.6361,0.5489,2026
19,-0.3848,-1.0281,0.001,0.1756,-0.3179,0.4775,2058
19,-0.3687,-1.4775,0.1233,-0.2834,-0.4972,-0.0047,2048
19,-0.166,-0.7727,0.0325,-0.0788,-0.1598,0.5267,2037
19,-0.0237,-0.7097,0.0068,-0.051,-0.1677,0.7159,2126
19,-0.0686,-1.0295,0.0732,-0.1599,-0.1007,0.783,2061
19,0.0754,-0.9746,0.106,-0.1828,-0.1702,0.9023,2057
19,0.1858,-0.9285,0.1941,-0.2983,-0.2192,0.9946,2021
19,0.1538,-0.8945,0.1982,-0.2123,-0.1743,1.0073,2033
19,0.0994,-0.9333,0.2683,-0.2389,-0.185,0.9853,2052
19,0.0713,-0.8782,0.2075,-0.169,-0.0064,1.1792,2066
19,0.1248,-1.0156,0.28,-0.2232,0.086,1.2463,2003
19,0.1233,-1.0193,0.3225,-0.3145,0.0666,1.3595,2000
19,0.0957,-1.0176,0.3577,-0.397,0.1513,1.4624,2034
19,0.0498,-1.0151,0.3418,-0.3661,0.2834,1.6249,2026
19,0.1116,-1.2048,0.3196,-0.4931,0.2891,1.6267,2029
19,0.2195,-1.1135,0.292,-0.4734,0.4566,1.9317,2061
19,0.2664,-1.2117,0.3623,-0.4295,0.5613,2.1483,2071
19,0.3867,-1.3169,0.3362,-0.5,0.6666,2.3463,2048
19,0.4919,-1.3555,0.3271,-0.592,0.7965,2.5643,2056
19,0.5728,-1.3853,0.3687,-0.6516,0.9582,2.8408,2056
19,0.5894,-1.5044,0.4888,-0.7437,1.0593,3.1247,2059
19,0.5793,-1.5508,0.4731,-0.8227,1.0352,3.3391,2050
19,0.554,-1.7212,0.5242,-0.8484,0.7466,3.4741,2082
19,0.6414,-2.0,0.7913,-0.9477,0.2931,3.5177,2129
19,0.9468,-2.0,1.0481,-1.2307,-0.3908,3.6583,2123
19,1.2217,-2.0,1.1565,-1.8017,-1.5186,3.4648,1998
19,0.9409,-2.0,1.2681,-2.0815,-2.3975,3.0673,1968
19,1.6794,-1.5837,1.0393,-2.4603,-4.3635,2.4697,1979
19,0.2048,-0.7092,-0.3323,-0.6008,-3.9797,3.0983,2020
19,-0.1892,-0.8718,-0.3843,1.4391,-3.2367,3.6217,2060
19,-1.0669,-1.7236,-0.3972,2.173,-1.9291,3.8239,2049
19,-2.0,-2.0,0.1238,0.4464,-1.0981,3.5054,2146
19,-1.7759,-2.0,-0.1858,-0.6534,-0.7506,3.7197,2051
19,-1.7236,-0.6892,-0.0278,-0.5212,1.7564,4.3634,2060
19,-0.3584,-0.2278,0.8311,-0.8529,3.0881,4.3634,2044
19,1.9999,1.9592,1.1804,0.3477,-1.3677,4.3634,1698
19,-2.0,-1.25,-2.0,1.0248,0.155,2.023,1847
19,-2.0,-0.6553,-1.1633,0.8644,1.7436,0.0819,2540
19,-2.0,-0.1018,0.6924,-0.6116,-0.6369,0.3348,2348
19,-1.8511,-0.2598,0.9148,0.2935,-2.2095,-0.1838,2112
19,-1.5835,0.0535,0.4722,1.1862,-1.1435,-1.8847,2020
20,-0.5632,0.002,0.0425,0.2405,-0.7562,-2.4938,1989
20,-0.1621,0.2925,-0.3977,-0.0525,-0.0973,-1.9984,2024
20,0.0293,0.3958,-0.4375,0.3883,-0.2441,-2.1723,2039
20,-0.2063,-0.054,-0.3984,0.223,-0.2571,-4.0077,2041
20,-0.2334,-0.0625,-0.3589,0.2988,-0.2396,-4.3635,2013
20,-0.2446,-0.1506,-0.0999,0.1007,-0.4161,-4.3635,1999
20,-0.345,-0.0706,0.0466,0.3263,-0.3406,-4.3635,1987
20,-0.4788,-0.0034,0.0574,0.8212,0.0449,-4.3635,2009
20,-0.5627,-0.0303,0.0208,1.0802,0.3738,-4.3635,2049
20,-0.6223,-0.0642,-0.0303,1.0648,0.9403,-4.0911,2064
20,-0.6011,-0.1147,-0.1106,1.0096,1.4644,-3.6844,2102
20,-0.377,-0.1743,-0.1421,1.113,1.3162,-4.1552,2104
20,-0.374,-0.1238,-0.1714,1.4245,1.3181,-4.3635,2073
20,-0.2585,-0.2134,-0.1526,1.8209,1.2621,-4.3635,2099
20,-0.1292,-0.1924,0.0037,1.9658,0.6335,-4.3635,2071
20,0.1853,-0.2725,0.0947,1.9197,-0.3104,-4.3635,2070
20,0.2173,-0.4482,0.0557,1.821,-0.789,-4.3635,2051
20,0.0872,-0.6599,-0.0105,1.7492,-0.8471,-4.3635,2044
20,0.032,-0.8494,-0.0173,1.6922,-0.5829,-4.3635,2061
20,-0.0403,-0.8464,-0.0178,1.684,-0.3039,-4.3635,2065
20,-0.2754,-1.2429,0.1462,1.3569,-0.3963,-4.3635,2040
20,-0.2397,-0.6501,-0.0469,0.8754,-0.4833,-4.3635,1979
20,-0.2532,-0.8223,0.0972,1.1405,-0.649,-4.3635,2009
20,-0.2463,-1.0571,0.2031,1.0453,-0.915,-4.3635,2022
20,-0.2871,-1.0532,0.1438,1.4363,-1.0801,-4.3635,2032
20,-0.3074,-1.4006,0.0879,1.3729,-0.9344,-4.3635,2059
20,-0.1328,-1.5994,-0.0007,1.2997,-0.7861,-4.3635,2075
20,0.8015,-2.0,0.2776,-2.5738,-2.1379,-4.3635,1915
20,0.0652,-0.0417,-0.4917,0.381,-1.7679,-3.9241,1878
20,1.1235,-0.5554,-0.4688,2.2888,-2.6635,-4.2746,2070
20,-1.6838,-2.0,-0.6123,2.5687,0.6584,-4.3635,2237
20,0.1882,-2.0,0.4207,1.6487,-0.3308,-2.7104,2298
20,1.1729,-0.6536,0.5564,-1.4743,-2.1889,-3.0111,1968
20,0.0781,-0.5706,0.6409,0.3296,-1.6246,-4.1313,1930
20,-0.668,-1.1301,0.4519,-0.6584,0.6485,-3.3724,2081
20,0.061,-1.1721,0.7615,-0.777,-0.4277,-2.6581,2143
20,0.9602,-1.324,0.3481,-1.0045,-2.9189,-1.9246,2028
20,0.3665,-1.103,-0.2019,-0.9096,-2.3647,-1.4215,2002
20,-0.0476,-0.9331,-0.4082,-1.1628,-1.7627,-0.6273,2059
20,-0.3584,-0.6021,-0.1558,-0.9528,-1.3171,0.0313,2068
20,-0.324,-0.6838,0.1897,-0.7383,-0.3227,0.514,2066
20,0.7988,1.1902,-0.5488,-1.7009,2.2563,2.0752,2019
20,-1.3525,0.1548,-0.3433,-0.0522,3.314,1.6629,2036
20,-2.0,-0.4651,1.1838,-1.2412,2.6646,1.6195,1874
20,-1.2,-1.7358,1.9999,0.738,-0.761,2.5737,2332
20,1.9999,-0.97,1.1873,4.1787,-1.7687,0.2741,2178
20,1.9999,-2.0,1.9999,1.2556,4.3634,-1.2826,1829
20,1.0247,-1.6096,0.4177,-2.5932,4.3634,1.7402,2028
20,-0.5234,-1.4436,1.4543,-0.2816,4.3634,3.1445,2105
20,-1.0137,-2.0,1.8308,-1.8972,-0.0997,2.7236,2031
20,-1.7793,-2.0,-0.1172,-4.3635,0.6686,2.911,1955
20,-0.397,-1.8052,-1.594,-4.3118,2.1162,3.55,1980
20,0.0796,0.5757,-2.0,-2.3314,1.0624,2.2297,1955
20,0.6172,0.2065,-2.0,-1.3464,-0.0503,2.0872,2002
20,1.8364,-0.4761,-2.0,-0.9954,0.1123,2.1668,2079
20,0.9338,-1.3328,0.1548,-1.1543,-0.07,2.0173,2117
20,0.4526,-0.8708,-0.0703,-1.0388,-1.1966,2.48,2190
20,-0.1582,0.7319,0.5483,-0.1269,-1.127,3.3054,2084
20,-0.4844,0.5803,0.571,0.2027,0.3442,2.5187,2029
20,-1.6956,-2.0,1.4565,0.051,0.8942,0.3952,2109
20,-2.0,-1.3911,0.5342,-0.0378,2.0037,2.0445,2021
20,-2.0,-1.2117,0.9639,-1.2623,-0.0265,1.0096,2006
20,-0.4243,-0.5752,0.2134,-0.8789,-0.7114,0.6352,2027
20,0.2488,-0.5317,-0.2117,-0.4635,-0.1981,0.3842,1977
20,0.4531,-0.7986,-0.1228,-0.3581,0.342,-0.1625,2071
20,0.9224,-1.019,-0.1118,-0.6602,0.7291,0.0672,2076
20,0.0657,-1.1558,-0.02,-0.6304,0.4967,0.8383,2107
20,-0.3682,-0.9785,0.177,-0.5926,0.0057,0.8614,2136
20,-0.3572,-0.9448,0.4331,-0.6217,-0.1743,0.5438,2105
20,-0.3479,-0.9631,0.365,-0.5321,-0.1436,0.3412,2050
20,-0.2815,-1.0259,0.1746,-0.5522,0.0326,0.2681,2030
20,-0.1128,-1.0481,0.1606,-0.5693,0.2677,0.2048,2027
20,0.0869,-1.021,0.1135,-0.6177,0.2505,0.2498,2047
20,0.1736,-0.9797,0.0293,-0.5871,0.1514,0.2939,2038
20,0.2075,-0.9414,0.0227,-0.5235,0.0525,0.3987,2051
20,0.106,-0.9487,0.0115,-0.4645,-0.0105,0.5157,2055
20,0.0286,-0.9617,0.0283,-0.4485,-0.0519,0.5394,2067
20,0.0129,-0.9888,0.0261,-0.4264,-0.0342,0.498,2059
20,0.0137,-1.0112,0.0952,-0.4171,-0.0615,0.4199,2072
20,-0.0039,-0.9758,0.1345,-0.4096,-0.0579,0.406,2057
20,0.0059,-1.0012,0.1458,-0.3979,-0.0928,0.3733,2054
20,0.0881,-1.0056,0.103,-0.3518,-0.2649,0.3181,2050
20,0.1697,-1.0183,0.1592,-0.3401,-0.4814,0.3104,2043
20,0.3342,-1.0618,0.1284,-0.3753,-0.7309,0.4052,2029
20,0.4426,-1.0601,0.1609,-0.498,-0.6757,0.587,2042
20,0.5225,-0.9885,0.1252,-0.5485,-0.8245,0.6525,2038
20,0.2854,-1.0212,0.1035,-0.6175,-0.8036,0.765,2037
20,0.0869,-0.9739,0.0645,-0.6662,-0.9075,0.8883,2037
20,0.0793,-0.9319,-0.0264,-0.7584,-0.9054,0.95,2040
20,0.2512,-0.9089,-0.1855,-0.8327,-0.9083,1.017,2036
20,0.251,-0.9675,-0.0935,-0.7857,-1.1222,0.942,2052
20,-0.0413,-0.8347,-0.0239,-0.816,-1.124,0.8967,2048
20,-0.2246,-0.6785,0.0032,-0.8171,-0.7814,1.1366,2042
20,-0.2083,-0.7681,-0.0403,-0.777,-0.8303,1.1392,2047
20,-0.2795,-0.8218,-0.0886,-0.7713,-0.8184,1.0946,2042
20,-0.4583,-0.7549,-0.1042,-0.7293,-0.507,1.1109,2049
20,-0.4927,-0.7939,-0.0505,-0.6881,-0.3878,1.2103,2056
20,-0.3711,-0.8608,0.0576,-0.5855,-0.2645,1.2192,2070
20,-0.2566,-1.1458,0.0417,-0.5554,-0.1914,1.171,2065
20,-0.1394,-1.3528,-0.0505,-0.3557,-0.2337,1.2366,2066
